"subID","trial","leftBandit","rightBandit","selectedBandit","banditKeyResp","RT","accuracy"
"voc062a",1,"bandit50a","bandit50b","bandit50a",1,3.2229,0
"voc062a",2,"bandit70","bandit10","bandit10",2,4.1512,-1
"voc062a",3,"bandit70","bandit30","bandit30",2,1.3112,-1
"voc062a",4,"bandit50a","bandit70","bandit50a",1,1.4592,-1
"voc062a",5,"bandit30","bandit90","bandit90",2,1.5622,1
"voc062a",6,"bandit50b","bandit10","bandit50b",1,1.3403,1
"voc062a",7,"bandit50a","bandit30","bandit30",2,1.3828,-1
"voc062a",8,"bandit90","bandit10","bandit90",1,0.73618,1
"voc062a",9,"bandit50a","bandit90","bandit90",2,0.91636,1
"voc062a",10,"bandit50b","bandit70","bandit50b",1,1.5672,-1
"voc062a",11,"bandit50a","bandit10","bandit10",2,1.4182,-1
"voc062a",12,"bandit50b","bandit90","bandit50b",1,0.92151,-1
"voc062a",13,"bandit30","bandit10","bandit30",1,2.7091,1
"voc062a",14,"bandit50b","bandit30","bandit30",2,1.5052,-1
"voc062a",15,"bandit70","bandit90","bandit90",2,0.79808,1
"voc062a",16,"bandit90","bandit70","bandit90",1,0.77449,1
"voc062a",17,"bandit30","bandit50b","bandit30",1,1.1363,-1
"voc062a",18,"bandit70","bandit50b","bandit70",1,2.6203,1
"voc062a",19,"bandit10","bandit30","bandit30",2,2.083,1
"voc062a",20,"bandit30","bandit50a","bandit50a",2,1.1118,1
"voc062a",21,"bandit70","bandit50a","bandit70",1,0.94021,1
"voc062a",22,"bandit10","bandit90","bandit90",2,0.60008,1
"voc062a",23,"bandit90","bandit30","bandit90",1,0.56865,1
"voc062a",24,"bandit10","bandit50a","bandit50a",2,0.83423,1
"voc062a",25,"bandit90","bandit50b","bandit90",1,0.69926,1
"voc062a",26,"bandit90","bandit50a","bandit90",1,0.9839,1
"voc062a",27,"bandit10","bandit70","bandit10",1,1.8644,-1
"voc062a",28,"bandit50b","bandit50a","bandit50b",1,1.9663,0
"voc062a",29,"bandit10","bandit50b","bandit10",1,0.66361,-1
"voc062a",30,"bandit30","bandit70","bandit30",1,0.64572,-1
"voc062a",31,"bandit70","bandit90","bandit90",2,0.99731,1
"voc062a",32,"bandit50a","bandit90","bandit90",2,0.64512,1
"voc062a",33,"bandit50b","bandit70","bandit70",2,1.8699,1
"voc062a",34,"bandit50b","bandit30","bandit50b",1,0.77932,1
"voc062a",35,"bandit90","bandit10","bandit90",1,0.59661,1
"voc062a",36,"bandit50a","bandit30","bandit30",2,1.2622,-1
"voc062a",37,"bandit30","bandit90","bandit90",2,0.65336,1
"voc062a",38,"bandit50b","bandit10","bandit10",2,1.4192,-1
"voc062a",39,"bandit50a","bandit10","bandit50a",1,1.3553,1
"voc062a",40,"bandit70","bandit30","bandit30",2,1.606,-1
"voc062a",41,"bandit50b","bandit90","bandit90",2,0.60658,1
"voc062a",42,"bandit50a","bandit70","bandit50a",1,1.359,-1
"voc062a",43,"bandit70","bandit10","bandit70",1,1.3695,1
"voc062a",44,"bandit50a","bandit50b","bandit50b",2,1.9079,0
"voc062a",45,"bandit30","bandit10","bandit30",1,0.90346,1
"voc062a",46,"bandit90","bandit30","bandit90",1,0.61264,1
"voc062a",47,"bandit10","bandit50a","bandit50a",2,3.4362,1
"voc062a",48,"bandit10","bandit70","bandit70",2,0.85075,1
"voc062a",49,"bandit10","bandit30","bandit30",2,1.2088,1
"voc062a",50,"bandit70","bandit50a","bandit70",1,1.1452,1
"voc062a",51,"bandit30","bandit50b","bandit50b",2,1.2692,1
"voc062a",52,"bandit30","bandit70","bandit70",2,0.71537,1
"voc062a",53,"bandit90","bandit50b","bandit90",1,0.65412,1
"voc062a",54,"bandit90","bandit70","bandit90",1,0.65451,1
"voc062a",55,"bandit70","bandit50b","bandit70",1,1.0128,1
"voc062a",56,"bandit50b","bandit50a","bandit50b",1,0.67707,0
"voc062a",57,"bandit10","bandit90","bandit90",2,0.79649,1
"voc062a",58,"bandit30","bandit50a","bandit30",1,1.8131,-1
"voc062a",59,"bandit90","bandit50a","bandit90",1,0.91673,1
"voc062a",60,"bandit10","bandit50b","bandit10",1,1.3849,-1
"voc062a",61,"bandit70","bandit30","bandit30",2,1.3781,-1
"voc062a",62,"bandit50b","bandit90","bandit90",2,0.63547,1
"voc062a",63,"bandit50a","bandit30","bandit50a",1,3.7473,1
"voc062a",64,"bandit70","bandit10","bandit70",1,0.59777,1
"voc062a",65,"bandit30","bandit90","bandit90",2,1.0304,1
"voc062a",66,"bandit50b","bandit70","bandit70",2,2.3255,1
"voc062a",67,"bandit50a","bandit50b","bandit50a",1,1.3283,0
"voc062a",68,"bandit50b","bandit10","bandit50b",1,1.0438,1
"voc062a",69,"bandit90","bandit10","bandit90",1,0.66809,1
"voc062a",70,"bandit70","bandit90","bandit90",2,0.63398,1
"voc062a",71,"bandit50b","bandit30","bandit30",2,1.0413,-1
"voc062a",72,"bandit50a","bandit70","bandit70",2,1.6414,1
"voc062a",73,"bandit50a","bandit90","bandit50a",1,0.67183,-1
"voc062a",74,"bandit50a","bandit10","bandit50a",1,1.1423,1
"voc062a",75,"bandit30","bandit10","bandit10",2,1.6654,-1
"voc062a",76,"bandit70","bandit50b","bandit50b",2,0.77503,-1
"voc062a",77,"bandit30","bandit50a","bandit50a",2,1.1133,1
"voc062a",78,"bandit30","bandit50b","bandit50b",2,1.7418,1
"voc062a",79,"bandit10","bandit50a","bandit50a",2,0.68835,1
"voc062a",80,"bandit10","bandit30","bandit10",1,1.8623,-1
"voc062a",81,"bandit90","bandit50b","bandit90",1,0.66775,1
"voc062a",82,"bandit50b","bandit50a","bandit50a",2,1.683,0
"voc062a",83,"bandit90","bandit70","bandit90",1,0.59991,1
"voc062a",84,"bandit90","bandit50a","bandit90",1,0.58418,1
"voc062a",85,"bandit10","bandit70","bandit70",2,1.5858,1
"voc062a",86,"bandit10","bandit50b","bandit10",1,0.7705,-1
"voc062a",87,"bandit70","bandit50a","bandit70",1,1.1406,1
"voc062a",88,"bandit30","bandit70","bandit30",1,1.7849,-1
"voc062a",89,"bandit10","bandit90","bandit90",2,0.92877,1
"voc062a",90,"bandit90","bandit30","bandit90",1,0.72531,1
