"subID","trial","leftBandit","rightBandit","selectedBandit","banditKeyResp","RT","accuracy"
"voc095c",1,"bandit90","bandit10","bandit90",1,1.576,1
"voc095c",2,"bandit30","bandit10","bandit30",1,6.547,1
"voc095c",3,"bandit70","bandit30","bandit70",1,1.0023,1
"voc095c",4,"bandit50b","bandit90","bandit90",2,1.1633,1
"voc095c",5,"bandit70","bandit90","bandit90",2,1.1328,1
"voc095c",6,"bandit50a","bandit70","bandit70",2,1.0645,1
"voc095c",7,"bandit50b","bandit30","bandit50b",1,1.9354,1
"voc095c",8,"bandit50b","bandit10","bandit50b",1,0.84198,1
"voc095c",9,"bandit50a","bandit10","bandit50a",1,1.0651,1
"voc095c",10,"bandit50a","bandit30","bandit30",2,2.2233,-1
"voc095c",11,"bandit50a","bandit50b","bandit50b",2,0.94246,0
"voc095c",12,"bandit30","bandit90","bandit90",2,0.69805,1
"voc095c",13,"bandit70","bandit10","bandit70",1,1.6543,1
"voc095c",14,"bandit50b","bandit70","bandit70",2,3.0774,1
"voc095c",15,"bandit50a","bandit90","bandit90",2,1.3698,1
"voc095c",16,"bandit70","bandit50a","bandit70",1,2.4992,1
"voc095c",17,"bandit30","bandit70","bandit70",2,1.7032,1
"voc095c",18,"bandit10","bandit30","bandit30",2,2.0425,1
"voc095c",19,"bandit10","bandit70","bandit70",2,0.98592,1
"voc095c",20,"bandit30","bandit50a","bandit50a",2,3.7551,1
"voc095c",21,"bandit10","bandit50a","bandit50a",2,0.74825,1
"voc095c",22,"bandit10","bandit90","bandit90",2,0.71861,1
"voc095c",23,"bandit90","bandit50a","bandit90",1,0.82675,1
"voc095c",24,"bandit30","bandit50b","bandit50b",2,4.3082,1
"voc095c",25,"bandit90","bandit30","bandit90",1,0.74215,1
"voc095c",26,"bandit70","bandit50b","bandit70",1,1.1136,1
"voc095c",27,"bandit10","bandit50b","bandit50b",2,0.89297,1
"voc095c",28,"bandit90","bandit50b","bandit90",1,0.93095,1
"voc095c",29,"bandit90","bandit70","bandit90",1,0.93454,1
"voc095c",30,"bandit50b","bandit50a","bandit50b",1,1.8094,0
"voc095c",31,"bandit70","bandit90","bandit90",2,1.1144,1
"voc095c",32,"bandit50b","bandit10","bandit50b",1,0.83054,1
"voc095c",33,"bandit50b","bandit70","bandit50b",1,1.0369,-1
"voc095c",34,"bandit50b","bandit30","bandit50b",1,0.91673,1
"voc095c",35,"bandit30","bandit10","bandit30",1,1.0084,1
"voc095c",36,"bandit50a","bandit10","bandit50a",1,0.93003,1
"voc095c",37,"bandit50a","bandit90","bandit90",2,0.94879,1
"voc095c",38,"bandit70","bandit30","bandit70",1,0.88061,1
"voc095c",39,"bandit50b","bandit90","bandit90",2,0.86224,1
"voc095c",40,"bandit50a","bandit50b","bandit50a",1,1.1413,0
"voc095c",41,"bandit70","bandit10","bandit70",1,1.5841,1
"voc095c",42,"bandit90","bandit10","bandit90",1,0.85734,1
"voc095c",43,"bandit50a","bandit30","bandit30",2,2.9203,-1
"voc095c",44,"bandit50a","bandit70","bandit70",2,0.61078,1
"voc095c",45,"bandit30","bandit90","bandit90",2,0.70021,1
"voc095c",46,"bandit10","bandit50b","bandit50b",2,1.0321,1
"voc095c",47,"bandit10","bandit90","bandit90",2,0.7766,1
"voc095c",48,"bandit30","bandit70","bandit70",2,1.4821,1
"voc095c",49,"bandit10","bandit30","bandit30",2,0.94319,1
"voc095c",50,"bandit70","bandit50a","bandit70",1,2.5868,1
"voc095c",51,"bandit30","bandit50a","bandit30",1,1.4422,-1
"voc095c",52,"bandit10","bandit70","bandit70",2,0.73049,1
"voc095c",53,"bandit90","bandit50b","bandit90",1,0.71804,1
"voc095c",54,"bandit90","bandit70","bandit90",1,0.60957,1
"voc095c",55,"bandit30","bandit50b","bandit50b",2,2.5625,1
"voc095c",56,"bandit90","bandit30","bandit90",1,0.79666,1
"voc095c",57,"bandit50b","bandit50a","bandit50b",1,1.2783,0
"voc095c",58,"bandit70","bandit50b","bandit70",1,0.73077,1
"voc095c",59,"bandit90","bandit50a","bandit90",1,0.70281,1
"voc095c",60,"bandit10","bandit50a","bandit50a",2,0.931,1
"voc095c",61,"bandit50a","bandit10","bandit50a",1,1.1037,1
"voc095c",62,"bandit50b","bandit10","bandit50b",1,0.88401,1
"voc095c",63,"bandit50b","bandit30","bandit50b",1,1.3614,1
"voc095c",64,"bandit30","bandit10","bandit30",1,1.1324,1
"voc095c",65,"bandit50b","bandit90","bandit90",2,1.0315,1
"voc095c",66,"bandit50a","bandit70","bandit70",2,0.96707,1
"voc095c",67,"bandit50a","bandit90","bandit90",2,1.0079,1
"voc095c",68,"bandit90","bandit10","bandit90",1,1.0099,1
"voc095c",69,"bandit70","bandit30","bandit70",1,0.99379,1
"voc095c",70,"bandit50b","bandit70","bandit70",2,1.3393,1
"voc095c",71,"bandit50a","bandit30","bandit50a",1,1.4711,1
"voc095c",72,"bandit50a","bandit50b","bandit50b",2,0.98066,0
"voc095c",73,"bandit30","bandit90","bandit90",2,0.83088,1
"voc095c",74,"bandit70","bandit90","bandit90",2,0.52603,1
"voc095c",75,"bandit70","bandit10","bandit70",1,0.96144,1
"voc095c",76,"bandit90","bandit50a","bandit90",1,0.57224,1
"voc095c",77,"bandit70","bandit50b","bandit70",1,0.99895,1
"voc095c",78,"bandit30","bandit70","bandit70",2,0.86425,1
"voc095c",79,"bandit90","bandit30","bandit90",1,0.75003,1
"voc095c",80,"bandit70","bandit50a","bandit70",1,0.96034,1
"voc095c",81,"bandit10","bandit70","bandit70",2,1.0109,1
"voc095c",82,"bandit10","bandit90","bandit90",2,0.70846,1
"voc095c",83,"bandit10","bandit50a","bandit50a",2,1.145,1
"voc095c",84,"bandit30","bandit50a","bandit50a",2,1.0846,1
"voc095c",85,"bandit50b","bandit50a","bandit50b",1,0.86597,0
"voc095c",86,"bandit10","bandit50b","bandit50b",2,0.89603,1
"voc095c",87,"bandit90","bandit50b","bandit90",1,0.7652,1
"voc095c",88,"bandit10","bandit30","bandit30",2,1.1426,1
"voc095c",89,"bandit30","bandit50b","bandit50b",2,1.6423,1
"voc095c",90,"bandit90","bandit70","bandit90",1,1.0659,1
