"subID","trial","leftBandit","rightBandit","selectedBandit","banditKeyResp","RT","accuracy"
"voc066a",1,"bandit50b","bandit70","bandit70",2,3.9568,1
"voc066a",2,"bandit50b","bandit10","bandit50b",1,1.7421,1
"voc066a",3,"bandit70","bandit90","bandit90",2,1.0245,1
"voc066a",4,"bandit50b","bandit90","bandit90",2,1.369,1
"voc066a",5,"bandit70","bandit30","bandit70",1,1.7301,1
"voc066a",6,"bandit30","bandit90","bandit90",2,1.0699,1
"voc066a",7,"bandit90","bandit10","bandit90",1,0.93999,1
"voc066a",8,"bandit70","bandit10","bandit70",1,1.375,1
"voc066a",9,"bandit50a","bandit70","bandit70",2,2.5125,1
"voc066a",10,"bandit50a","bandit50b","bandit50a",1,1.9886,0
"voc066a",11,"bandit50b","bandit30","bandit50b",1,1.7649,1
"voc066a",12,"bandit50a","bandit30","bandit50a",1,2.1104,1
"voc066a",13,"bandit50a","bandit90","bandit90",2,0.8665,1
"voc066a",14,"bandit30","bandit10","bandit30",1,1.2327,1
"voc066a",15,"bandit50a","bandit10","bandit50a",1,1.1916,1
"voc066a",16,"bandit10","bandit50b","bandit50b",2,1.1689,1
"voc066a",17,"bandit30","bandit50b","bandit50b",2,2.3385,1
"voc066a",18,"bandit30","bandit50a","bandit50a",2,1.9489,1
"voc066a",19,"bandit90","bandit50b","bandit90",1,1.1998,1
"voc066a",20,"bandit10","bandit90","bandit90",2,0.82326,1
"voc066a",21,"bandit10","bandit70","bandit70",2,1.2485,1
"voc066a",22,"bandit70","bandit50a","bandit50a",2,1.1357,-1
"voc066a",23,"bandit70","bandit50b","bandit50b",2,2.5703,-1
"voc066a",24,"bandit10","bandit30","bandit30",2,1.8276,1
"voc066a",25,"bandit10","bandit50a","bandit50a",2,1.2426,1
"voc066a",26,"bandit90","bandit50a","bandit90",1,0.85038,1
"voc066a",27,"bandit90","bandit30","bandit90",1,0.7926,1
"voc066a",28,"bandit50b","bandit50a","bandit50b",1,2.1691,0
"voc066a",29,"bandit90","bandit70","bandit90",1,0.89947,1
"voc066a",30,"bandit30","bandit70","bandit70",2,1.1126,1
"voc066a",31,"bandit50a","bandit70","bandit70",2,1.1575,1
"voc066a",32,"bandit70","bandit10","bandit70",1,0.73586,1
"voc066a",33,"bandit50a","bandit50b","bandit50b",2,2.1306,0
"voc066a",34,"bandit50b","bandit10","bandit50b",1,0.72599,1
"voc066a",35,"bandit50a","bandit10","bandit50a",1,0.826,1
"voc066a",36,"bandit30","bandit90","bandit90",2,0.62681,1
"voc066a",37,"bandit50b","bandit30","bandit50b",1,1.4024,1
"voc066a",38,"bandit30","bandit10","bandit30",1,1.4194,1
"voc066a",39,"bandit50b","bandit90","bandit90",2,1.3069,1
"voc066a",40,"bandit50a","bandit30","bandit50a",1,1.5196,1
"voc066a",41,"bandit50a","bandit90","bandit90",2,1.1078,1
"voc066a",42,"bandit90","bandit10","bandit90",1,0.82367,1
"voc066a",43,"bandit50b","bandit70","bandit70",2,2.2155,1
"voc066a",44,"bandit70","bandit30","bandit70",1,0.84702,1
"voc066a",45,"bandit70","bandit90","bandit90",2,1.2692,1
"voc066a",46,"bandit50b","bandit50a","bandit50b",1,1.3242,0
"voc066a",47,"bandit30","bandit50b","bandit50b",2,1.5523,1
"voc066a",48,"bandit10","bandit30","bandit30",2,0.8737,1
"voc066a",49,"bandit70","bandit50a","bandit70",1,1.6246,1
"voc066a",50,"bandit10","bandit90","bandit90",2,0.76759,1
"voc066a",51,"bandit90","bandit50b","bandit90",1,0.8904,1
"voc066a",52,"bandit10","bandit50a","bandit50a",2,1.3198,1
"voc066a",53,"bandit10","bandit50b","bandit50b",2,1.371,1
"voc066a",54,"bandit10","bandit70","bandit70",2,0.90888,1
"voc066a",55,"bandit70","bandit50b","bandit70",1,1.074,1
"voc066a",56,"bandit90","bandit50a","bandit90",1,0.8724,1
"voc066a",57,"bandit90","bandit30","bandit90",1,0.63836,1
"voc066a",58,"bandit90","bandit70","bandit90",1,0.54136,1
"voc066a",59,"bandit30","bandit50a","bandit50a",2,1.4815,1
"voc066a",60,"bandit30","bandit70","bandit70",2,0.95914,1
"voc066a",61,"bandit50a","bandit30","bandit50a",1,1.8416,1
"voc066a",62,"bandit70","bandit90","bandit90",2,0.76099,1
"voc066a",63,"bandit70","bandit30","bandit70",1,1.1076,1
"voc066a",64,"bandit90","bandit10","bandit90",1,0.60825,1
"voc066a",65,"bandit50b","bandit70","bandit70",2,1.5687,1
"voc066a",66,"bandit70","bandit10","bandit70",1,0.67442,1
"voc066a",67,"bandit50a","bandit90","bandit90",2,0.76133,1
"voc066a",68,"bandit30","bandit90","bandit90",2,0.79624,1
"voc066a",69,"bandit50b","bandit30","bandit50b",1,1.1173,1
"voc066a",70,"bandit50a","bandit70","bandit70",2,0.95993,1
"voc066a",71,"bandit50b","bandit10","bandit50b",1,1.6199,1
"voc066a",72,"bandit30","bandit10","bandit30",1,1.1154,1
"voc066a",73,"bandit50a","bandit50b","bandit50b",2,1.0311,0
"voc066a",74,"bandit50b","bandit90","bandit90",2,0.93406,1
"voc066a",75,"bandit50a","bandit10","bandit50a",1,1.3297,1
"voc066a",76,"bandit70","bandit50a","bandit70",1,2.6624,1
"voc066a",77,"bandit50b","bandit50a","bandit50b",1,1.5149,0
"voc066a",78,"bandit70","bandit50b","bandit70",1,0.68786,1
"voc066a",79,"bandit10","bandit90","bandit90",2,0.66864,1
"voc066a",80,"bandit90","bandit70","bandit90",1,0.67479,1
"voc066a",81,"bandit10","bandit50b","bandit50b",2,0.70485,1
"voc066a",82,"bandit90","bandit30","bandit90",1,0.52642,1
"voc066a",83,"bandit30","bandit50b","bandit50b",2,1.482,1
"voc066a",84,"bandit10","bandit70","bandit70",2,0.79978,1
"voc066a",85,"bandit30","bandit70","bandit70",2,0.78483,1
"voc066a",86,"bandit10","bandit50a","bandit50a",2,1.3935,1
"voc066a",87,"bandit90","bandit50b","bandit90",1,2.2598,1
"voc066a",88,"bandit90","bandit50a","bandit90",1,0.48838,1
"voc066a",89,"bandit10","bandit30","bandit30",2,0.86289,1
"voc066a",90,"bandit30","bandit50a","bandit50a",2,2.4215,1
