"subID","trial","leftBandit","rightBandit","selectedBandit","banditKeyResp","RT","accuracy"
"voc097t",1,"bandit30","bandit10","bandit10",2,3.446,-1
"voc097t",2,"bandit50b","bandit10","bandit50b",1,1.2599,1
"voc097t",3,"bandit50b","bandit30","bandit30",2,1.0263,-1
"voc097t",4,"bandit70","bandit90","bandit70",1,1.4022,-1
"voc097t",5,"bandit50a","bandit90","bandit50a",1,1.1717,-1
"voc097t",6,"bandit50a","bandit10","bandit10",2,1.2924,-1
"voc097t",7,"bandit50a","bandit70","bandit70",2,1.9872,1
"voc097t",8,"bandit50a","bandit30","bandit50a",1,0.86746,1
"voc097t",9,"bandit50b","bandit70","bandit50b",1,1.1684,-1
"voc097t",10,"bandit50b","bandit90","bandit90",2,1.307,1
"voc097t",11,"bandit90","bandit10","bandit90",1,1.4,1
"voc097t",12,"bandit70","bandit30","bandit30",2,1.4077,-1
"voc097t",13,"bandit70","bandit10","bandit10",2,0.99236,-1
"voc097t",14,"bandit30","bandit90","bandit30",1,1.1219,-1
"voc097t",15,"bandit50a","bandit50b","bandit50b",2,1.0547,0
"voc097t",16,"bandit10","bandit50b","bandit10",1,0.8199,-1
"voc097t",17,"bandit10","bandit90","bandit90",2,1.1005,1
"voc097t",18,"bandit90","bandit50a","bandit90",1,1.2977,1
"voc097t",19,"bandit10","bandit50a","bandit10",1,0.78178,-1
"voc097t",20,"bandit50b","bandit50a","bandit50a",2,1.5436,0
"voc097t",21,"bandit70","bandit50a","bandit70",1,0.69051,1
"voc097t",22,"bandit10","bandit30","bandit30",2,0.70412,1
"voc097t",23,"bandit90","bandit50b","bandit50b",2,0.90927,-1
"voc097t",24,"bandit90","bandit30","bandit90",1,0.85814,1
"voc097t",25,"bandit30","bandit50b","bandit30",1,0.48071,-1
"voc097t",26,"bandit10","bandit70","bandit70",2,0.68673,1
"voc097t",27,"bandit30","bandit50a","bandit30",1,0.59617,-1
"voc097t",28,"bandit70","bandit50b","bandit70",1,0.55678,1
"voc097t",29,"bandit30","bandit70","bandit30",1,0.52068,-1
"voc097t",30,"bandit90","bandit70","bandit70",2,0.91639,-1
"voc097t",31,"bandit50a","bandit50b","bandit50b",2,0.58538,0
"voc097t",32,"bandit50b","bandit70","bandit50b",1,0.44246,-1
"voc097t",33,"bandit90","bandit10","bandit90",1,0.45778,1
"voc097t",34,"bandit30","bandit90","bandit30",1,0.3773,-1
"voc097t",35,"bandit70","bandit10","bandit10",2,0.36463,-1
"voc097t",36,"bandit50a","bandit70","bandit50a",1,0.3109,-1
"voc097t",37,"bandit50b","bandit90","bandit90",2,0.30753,1
"voc097t",38,"bandit70","bandit90","bandit90",2,0.3213,1
"voc097t",39,"bandit50b","bandit30","bandit50b",1,0.34228,1
"voc097t",40,"bandit50b","bandit10","bandit50b",1,0.40943,1
"voc097t",41,"bandit50a","bandit90","bandit50a",1,0.28185,-1
"voc097t",42,"bandit50a","bandit10","bandit50a",1,0.48883,1
"voc097t",43,"bandit50a","bandit30","bandit50a",1,0.35839,1
"voc097t",44,"bandit70","bandit30","bandit70",1,0.67281,1
"voc097t",45,"bandit30","bandit10","bandit30",1,0.27135,1
"voc097t",46,"bandit10","bandit50a","bandit10",1,0.23859,-1
"voc097t",47,"bandit90","bandit50b","bandit50b",2,0.4705,-1
"voc097t",48,"bandit90","bandit30","bandit90",1,0.24441,1
"voc097t",49,"bandit30","bandit50b","bandit30",1,0.22888,-1
"voc097t",50,"bandit10","bandit90","bandit10",1,0.26978,-1
"voc097t",51,"bandit90","bandit50a","bandit50a",2,0.37164,-1
"voc097t",52,"bandit50b","bandit50a","bandit50b",1,0.37499,0
"voc097t",53,"bandit30","bandit70","bandit30",1,0.24136,-1
"voc097t",54,"bandit10","bandit30","bandit10",1,0.24917,-1
"voc097t",55,"bandit10","bandit70","bandit10",1,0.23261,-1
"voc097t",56,"bandit90","bandit70","bandit90",1,0.16004,1
"voc097t",57,"bandit70","bandit50b","bandit70",1,0.29985,1
"voc097t",58,"bandit70","bandit50a","bandit50a",2,0.29762,-1
"voc097t",59,"bandit10","bandit50b","bandit10",1,0.3019,-1
"voc097t",60,"bandit30","bandit50a","bandit30",1,0.53863,-1
"voc097t",61,"bandit70","bandit30","bandit70",1,0.47102,1
"voc097t",62,"bandit90","bandit10","bandit10",2,0.47802,-1
"voc097t",63,"bandit50a","bandit50b","bandit50a",1,0.38821,0
"voc097t",64,"bandit50b","bandit90","bandit50b",1,0.6453,-1
"voc097t",65,"bandit30","bandit90","bandit90",2,0.44513,1
"voc097t",66,"bandit50a","bandit10","bandit50a",1,0.46873,1
"voc097t",67,"bandit50a","bandit90","bandit90",2,0.57944,1
"voc097t",68,"bandit50a","bandit70","bandit50a",1,0.59767,-1
"voc097t",69,"bandit50b","bandit30","bandit30",2,0.7653,-1
"voc097t",70,"bandit50b","bandit70","bandit50b",1,1.3118,-1
"voc097t",71,"bandit50b","bandit10","bandit10",2,0.70122,-1
"voc097t",72,"bandit50a","bandit30","bandit50a",1,0.68961,1
"voc097t",73,"bandit30","bandit10","bandit30",1,0.69551,1
"voc097t",74,"bandit70","bandit90","bandit90",2,0.74047,1
"voc097t",75,"bandit70","bandit10","bandit70",1,0.37664,1
"voc097t",76,"bandit90","bandit30","bandit90",1,0.35566,1
"voc097t",77,"bandit70","bandit50a","bandit50a",2,0.65448,-1
"voc097t",78,"bandit10","bandit50a","bandit10",1,0.23648,-1
"voc097t",79,"bandit10","bandit30","bandit10",1,0.1085,-1
"voc097t",80,"bandit10","bandit70","bandit10",1,0.39482,-1
"voc097t",81,"bandit10","bandit50b","bandit50b",2,0.41281,1
"voc097t",82,"bandit30","bandit50b","bandit50b",2,0.39705,1
"voc097t",83,"bandit90","bandit50b","bandit90",1,0.3177,1
"voc097t",84,"bandit30","bandit50a","bandit30",1,0.23496,-1
"voc097t",85,"bandit50b","bandit50a","bandit50b",1,0.22645,0
"voc097t",86,"bandit10","bandit90","bandit10",1,0.1309,-1
"voc097t",87,"bandit30","bandit70","bandit70",2,0.32741,1
"voc097t",88,"bandit70","bandit50b","bandit50b",2,0.62714,-1
"voc097t",89,"bandit90","bandit70","bandit90",1,0.52374,1
"voc097t",90,"bandit90","bandit50a","bandit90",1,0.40905,1
