"subID","trial","leftBandit","rightBandit","selectedBandit","banditKeyResp","RT","accuracy"
"voc116t",1,"bandit50a","bandit50b","bandit50a",1,1.5299,0
"voc116t",2,"bandit90","bandit10","bandit90",1,1.9123,1
"voc116t",3,"bandit50b","bandit70","bandit70",2,1.3587,1
"voc116t",4,"bandit50b","bandit90","bandit50b",1,1.0755,-1
"voc116t",5,"bandit70","bandit30","bandit70",1,1.0679,1
"voc116t",6,"bandit50a","bandit30","bandit50a",1,0.54693,1
"voc116t",7,"bandit30","bandit90","bandit90",2,0.88819,1
"voc116t",8,"bandit70","bandit90","bandit70",1,0.71155,-1
"voc116t",9,"bandit50b","bandit30","bandit50b",1,1.3975,1
"voc116t",10,"bandit50b","bandit10","bandit50b",1,1.0168,1
"voc116t",11,"bandit70","bandit10","bandit70",1,0.63357,1
"voc116t",12,"bandit50a","bandit90","bandit90",2,0.51573,1
"voc116t",13,"bandit30","bandit10","bandit30",1,0.95284,1
"voc116t",14,"bandit50a","bandit10","bandit50a",1,0.86208,1
"voc116t",15,"bandit50a","bandit70","bandit70",2,0.60656,1
"voc116t",16,"bandit10","bandit70","bandit10",1,0.73688,-1
"voc116t",17,"bandit30","bandit70","bandit30",1,0.64546,-1
"voc116t",18,"bandit10","bandit90","bandit10",1,0.64634,-1
"voc116t",19,"bandit10","bandit50a","bandit50a",2,0.78315,1
"voc116t",20,"bandit10","bandit50b","bandit50b",2,0.79486,1
"voc116t",21,"bandit30","bandit50b","bandit30",1,0.58127,-1
"voc116t",22,"bandit70","bandit50a","bandit50a",2,0.71231,-1
"voc116t",23,"bandit90","bandit50a","bandit50a",2,0.76714,-1
"voc116t",24,"bandit30","bandit50a","bandit50a",2,0.6504,1
"voc116t",25,"bandit90","bandit50b","bandit50b",2,0.58777,-1
"voc116t",26,"bandit70","bandit50b","bandit50b",2,0.60607,-1
"voc116t",27,"bandit90","bandit30","bandit90",1,0.95357,1
"voc116t",28,"bandit10","bandit30","bandit30",2,1.9336,1
"voc116t",29,"bandit50b","bandit50a","bandit50b",1,0.85146,0
"voc116t",30,"bandit90","bandit70","bandit90",1,0.81065,1
"voc116t",31,"bandit50b","bandit30","bandit50b",1,0.92593,1
"voc116t",32,"bandit70","bandit10","bandit10",2,0.87538,-1
"voc116t",33,"bandit50a","bandit70","bandit50a",1,0.71625,-1
"voc116t",34,"bandit50b","bandit70","bandit50b",1,0.54538,-1
"voc116t",35,"bandit70","bandit90","bandit90",2,0.94272,1
"voc116t",36,"bandit50b","bandit90","bandit50b",1,0.45224,-1
"voc116t",37,"bandit30","bandit10","bandit10",2,0.72417,-1
"voc116t",38,"bandit70","bandit30","bandit70",1,0.92128,1
"voc116t",39,"bandit50b","bandit10","bandit50b",1,0.58425,1
"voc116t",40,"bandit50a","bandit50b","bandit50b",2,0.93066,0
"voc116t",41,"bandit50a","bandit30","bandit50a",1,0.54492,1
"voc116t",42,"bandit50a","bandit90","bandit50a",1,0.70062,-1
"voc116t",43,"bandit50a","bandit10","bandit50a",1,0.39576,1
"voc116t",44,"bandit30","bandit90","bandit90",2,0.95102,1
"voc116t",45,"bandit90","bandit10","bandit90",1,0.82005,1
"voc116t",46,"bandit30","bandit50a","bandit50a",2,0.72451,1
"voc116t",47,"bandit50b","bandit50a","bandit50a",2,1.2916,0
"voc116t",48,"bandit90","bandit50b","bandit50b",2,0.81864,-1
"voc116t",49,"bandit10","bandit90","bandit10",1,1.0527,-1
"voc116t",50,"bandit10","bandit30","bandit30",2,1.021,1
"voc116t",51,"bandit90","bandit70","bandit70",2,0.88741,-1
"voc116t",52,"bandit30","bandit50b","bandit50b",2,0.67752,1
"voc116t",53,"bandit90","bandit50a","bandit50a",2,0.69378,-1
"voc116t",54,"bandit90","bandit30","bandit90",1,1.7173,1
"voc116t",55,"bandit10","bandit50a","bandit50a",2,0.96272,1
"voc116t",56,"bandit10","bandit70","bandit70",2,1.3992,1
"voc116t",57,"bandit70","bandit50b","bandit50b",2,0.73821,-1
"voc116t",58,"bandit70","bandit50a","bandit50a",2,0.53519,-1
"voc116t",59,"bandit30","bandit70","bandit70",2,1.1487,1
"voc116t",60,"bandit10","bandit50b","bandit50b",2,0.60187,1
"voc116t",61,"bandit50b","bandit90","bandit50b",1,0.77979,-1
"voc116t",62,"bandit50b","bandit70","bandit50b",1,0.57613,-1
"voc116t",63,"bandit90","bandit10","bandit90",1,0.98778,1
"voc116t",64,"bandit50a","bandit30","bandit50a",1,0.79089,1
"voc116t",65,"bandit70","bandit30","bandit30",2,1.0489,-1
"voc116t",66,"bandit30","bandit10","bandit30",1,0.65055,1
"voc116t",67,"bandit70","bandit10","bandit10",2,1.0339,-1
"voc116t",68,"bandit50b","bandit10","bandit50b",1,0.64404,1
"voc116t",69,"bandit50a","bandit90","bandit50a",1,0.56531,-1
"voc116t",70,"bandit50b","bandit30","bandit50b",1,0.56914,1
"voc116t",71,"bandit30","bandit90","bandit90",2,0.94136,1
"voc116t",72,"bandit50a","bandit10","bandit50a",1,0.65745,1
"voc116t",73,"bandit70","bandit90","bandit90",2,0.96228,1
"voc116t",74,"bandit50a","bandit70","bandit50a",1,0.63017,-1
"voc116t",75,"bandit50a","bandit50b","bandit50a",1,1.4875,0
"voc116t",76,"bandit10","bandit50b","bandit50b",2,0.71172,1
"voc116t",77,"bandit50b","bandit50a","bandit50b",1,0.7502,0
"voc116t",78,"bandit70","bandit50b","bandit50b",2,0.60239,-1
"voc116t",79,"bandit90","bandit70","bandit70",2,1.02,-1
"voc116t",80,"bandit10","bandit70","bandit70",2,1.3262,1
"voc116t",81,"bandit90","bandit50a","bandit50a",2,0.85183,-1
"voc116t",82,"bandit30","bandit70","bandit30",1,0.7966,-1
"voc116t",83,"bandit10","bandit30","bandit30",2,0.80817,1
"voc116t",84,"bandit90","bandit50b","bandit50b",2,0.67388,-1
"voc116t",85,"bandit30","bandit50b","bandit50b",2,0.89004,1
"voc116t",86,"bandit10","bandit90","bandit10",1,0.90439,-1
"voc116t",87,"bandit90","bandit30","bandit30",2,0.70388,-1
"voc116t",88,"bandit30","bandit50a","bandit50a",2,0.76598,1
"voc116t",89,"bandit70","bandit50a","bandit50a",2,0.46657,-1
"voc116t",90,"bandit10","bandit50a","bandit50a",2,0.35396,1
