subject_id,phase,trial,context,offer,block,arcade_color_L,arcade_color_R,reward_prob_L,reward_prob_R,stage_1_choice,stage_1_rt,stage_2_choice,stage_2_rt,stage_3_outcome
11671,experiment,1,1,1,1,#D8271C,#741CD8,0.3,0.7,1,4220.799999952316,1,2270.700000047684,0
11671,experiment,2,0,4,1,#3386FF,#D89F1C,0.1,0.9,1,1796.0999999046326,0,1577.8000001907349,10
11671,experiment,3,1,6,1,#D8271C,#741CD8,0.3,0.7,1,2051.9000000953674,1,1837.700000047684,10
11671,experiment,4,1,4,1,#D8271C,#741CD8,0.3,0.7,1,1629.5,1,1079.5,0
11671,experiment,5,0,6,1,#D89F1C,#3386FF,0.9,0.1,1,1636.2000000476835,1,770.1000001430511,10
11671,experiment,6,2,4,1,#1CD855,#FA92F8,0.5,0.5,1,1145.6000001430511,0,896.5999999046326,10
11671,experiment,7,0,2,1,#D89F1C,#3386FF,0.9,0.1,1,1200.5999999046326,1,825,10
11671,experiment,8,2,1,1,#FA92F8,#1CD855,0.5,0.5,1,838.4000000953674,1,1407.7999999523165,10
11671,experiment,9,1,2,1,#741CD8,#D8271C,0.7,0.3,1,920.1000001430511,0,1211.9000000953674,0
11671,experiment,10,2,0,1,#FA92F8,#1CD855,0.5,0.5,1,942.5999999046326,1,686,0
11671,experiment,11,0,0,1,#3386FF,#D89F1C,0.1,0.9,1,1560.5,0,450.7999999523163,10
11671,experiment,12,2,6,1,#FA92F8,#1CD855,0.5,0.5,1,1176,1,706.5,0
11671,experiment,13,2,5,1,#FA92F8,#1CD855,0.5,0.5,1,1314.5999999046326,0,471,10
11671,experiment,14,1,5,1,#741CD8,#D8271C,0.7,0.3,1,987.5,0,492.09999990463257,0
11671,experiment,15,2,2,1,#FA92F8,#1CD855,0.5,0.5,1,1009.2000000476836,0,777.2999999523163,0
11671,experiment,16,0,5,1,#3386FF,#D89F1C,0.1,0.9,1,780.2000000476837,0,548.6999998092651,10
11671,experiment,17,1,3,1,#741CD8,#D8271C,0.7,0.3,1,966.1000001430511,1,842.5999999046326,10
11671,experiment,18,0,1,1,#D89F1C,#3386FF,0.9,0.1,1,1294.5999999046326,1,637.1999998092651,10
11671,experiment,19,1,0,1,#D8271C,#741CD8,0.3,0.7,1,727,0,574.7000000476837,10
11671,experiment,20,2,3,1,#FA92F8,#1CD855,0.5,0.5,1,709.5999999046326,0,398.5,10
11671,experiment,21,0,3,1,#3386FF,#D89F1C,0.1,0.9,1,569.7999999523163,0,531.7999999523163,10
11671,experiment,22,2,4,1,#FA92F8,#1CD855,0.5,0.5,1,810.5999999046326,0,1317.2999999523165,10
11671,experiment,23,2,1,1,#1CD855,#FA92F8,0.5,0.5,1,621.7000000476837,1,1354.1999998092651,10
11671,experiment,24,1,3,1,#741CD8,#D8271C,0.7,0.3,1,737.6000001430511,1,1165.5,10
11671,experiment,25,2,0,1,#1CD855,#FA92F8,0.5,0.5,1,421.5,1,910,10
11671,experiment,26,0,3,1,#3386FF,#D89F1C,0.1,0.9,1,1165.3999998569489,0,525.2000000476837,10
11671,experiment,27,1,2,1,#741CD8,#D8271C,0.7,0.3,1,574,1,1018.2999999523164,10
11671,experiment,28,2,6,1,#FA92F8,#1CD855,0.5,0.5,1,786.7000000476837,0,534.1000001430511,10
11671,experiment,29,1,6,1,#D8271C,#741CD8,0.3,0.7,1,546.1000001430511,0,621.3000001907349,0
11671,experiment,30,0,0,1,#3386FF,#D89F1C,0.1,0.9,1,846.1000001430511,0,532.7000000476837,10
11671,experiment,31,2,2,1,#1CD855,#FA92F8,0.5,0.5,1,529.1000001430511,1,663.5,0
11671,experiment,32,1,0,1,#741CD8,#D8271C,0.7,0.3,1,518.7000000476837,1,757.3999998569489,10
11671,experiment,33,0,1,1,#3386FF,#D89F1C,0.1,0.9,1,579.9000000953674,0,1104.2000000476835,0
11671,experiment,34,2,3,1,#1CD855,#FA92F8,0.5,0.5,1,394.59999990463257,1,743.0999999046326,0
11671,experiment,35,0,6,1,#D89F1C,#3386FF,0.9,0.1,1,559.3999998569489,1,1280.7000000476835,10
11671,experiment,36,1,5,1,#741CD8,#D8271C,0.7,0.3,1,510.5,1,956.7000000476836,0
11671,experiment,37,1,1,1,#D8271C,#741CD8,0.3,0.7,1,528.2999999523163,0,727,10
11671,experiment,38,0,2,1,#D89F1C,#3386FF,0.9,0.1,1,465,1,603.7000000476837,10
11671,experiment,39,2,5,1,#1CD855,#FA92F8,0.5,0.5,1,518.7000000476837,1,666.0999999046326,10
11671,experiment,40,0,4,1,#D89F1C,#3386FF,0.9,0.1,1,595.5999999046326,1,728.2999999523163,10
11671,experiment,41,1,4,1,#741CD8,#D8271C,0.7,0.3,1,448.1000001430512,1,1384.9000000953674,0
11671,experiment,42,0,5,1,#3386FF,#D89F1C,0.1,0.9,1,772.0999999046326,0,516.2999999523163,10
11671,experiment,43,0,0,1,#D89F1C,#3386FF,0.9,0.1,1,573.1999998092651,1,639.9000000953674,10
11671,experiment,44,2,0,1,#1CD855,#FA92F8,0.5,0.5,1,379.89999985694885,1,974.0999999046326,10
11671,experiment,45,2,2,1,#1CD855,#FA92F8,0.5,0.5,1,511.2999999523163,1,983.5,0
11671,experiment,46,1,6,2,#741CD8,#D8271C,0.7,0.3,1,479.9000000953674,1,605.1000001430511,10
11671,experiment,47,1,3,2,#D8271C,#741CD8,0.3,0.7,1,794.1000001430511,0,500.7999999523163,10
11671,experiment,48,0,4,2,#D89F1C,#3386FF,0.9,0.1,1,378.9000000953674,1,681.2000000476837,10
11671,experiment,49,2,6,2,#FA92F8,#1CD855,0.5,0.5,1,480.09999990463257,0,526.3000001907349,0
11671,experiment,50,2,3,2,#FA92F8,#1CD855,0.5,0.5,1,445.59999990463257,0,520.5999999046326,10
11671,experiment,51,1,5,2,#741CD8,#D8271C,0.7,0.3,1,720.5999999046326,1,593.1999998092651,0
11671,experiment,52,1,0,2,#741CD8,#D8271C,0.7,0.3,1,330.59999990463257,1,542.2999999523163,0
11671,experiment,53,0,1,2,#D89F1C,#3386FF,0.9,0.1,1,792.0999999046326,1,447.7000000476837,10
11671,experiment,54,0,3,2,#D89F1C,#3386FF,0.9,0.1,1,425.39999985694885,1,642,10
11671,experiment,55,2,5,2,#FA92F8,#1CD855,0.5,0.5,1,474.2999999523163,0,737.7999999523163,0
11671,experiment,56,0,6,2,#3386FF,#D89F1C,0.1,0.9,1,814.2999999523163,0,548.6000001430511,10
11671,experiment,57,1,4,2,#D8271C,#741CD8,0.3,0.7,1,372.5,0,559.5999999046326,0
11671,experiment,58,0,2,2,#D89F1C,#3386FF,0.9,0.1,1,669,1,630.6999998092651,10
11671,experiment,59,1,2,2,#741CD8,#D8271C,0.7,0.3,1,494.5,0,560.7000000476837,0
11671,experiment,60,2,1,2,#1CD855,#FA92F8,0.5,0.5,1,370.39999985694885,1,803.0999999046326,0
11671,experiment,61,1,1,2,#D8271C,#741CD8,0.3,0.7,1,340.09999990463257,1,977.2000000476836,0
11671,experiment,62,0,5,2,#D89F1C,#3386FF,0.9,0.1,1,456.4000000953674,1,698.4000000953674,10
11671,experiment,63,2,4,2,#FA92F8,#1CD855,0.5,0.5,1,452.7000000476837,0,655.5,10
11671,experiment,64,0,6,2,#D89F1C,#3386FF,0.9,0.1,1,784.0999999046326,1,572.5,10
11671,experiment,65,1,3,2,#741CD8,#D8271C,0.7,0.3,1,433.59999990463257,0,1056.4000000953674,10
11671,experiment,66,2,3,2,#FA92F8,#1CD855,0.5,0.5,1,1338.5999999046326,0,975.8999998569489,10
11671,experiment,67,0,2,2,#3386FF,#D89F1C,0.1,0.9,1,565,0,523.7999999523163,10
11671,experiment,68,2,0,2,#1CD855,#FA92F8,0.5,0.5,1,459.89999985694885,1,634.0999999046326,0
11671,experiment,69,1,6,2,#D8271C,#741CD8,0.3,0.7,1,423.19999980926514,1,2217.899999856949,0
11671,experiment,70,2,4,2,#FA92F8,#1CD855,0.5,0.5,1,327.90000009536743,0,627.8999998569489,10
11671,experiment,71,1,5,2,#741CD8,#D8271C,0.7,0.3,1,530.7000000476837,0,1333.3000001907349,0
11671,experiment,72,0,5,2,#3386FF,#D89F1C,0.1,0.9,1,427.59999990463257,0,462.4000000953674,0
11671,experiment,73,2,5,2,#1CD855,#FA92F8,0.5,0.5,1,576.2999999523163,1,748.3999998569489,0
11671,experiment,74,1,2,2,#D8271C,#741CD8,0.3,0.7,1,347.10000014305115,1,759.5999999046326,0
11671,experiment,75,0,0,2,#3386FF,#D89F1C,0.1,0.9,1,427.4000000953674,0,510.2999999523163,10
11671,experiment,76,1,0,2,#D8271C,#741CD8,0.3,0.7,1,967.8999998569489,1,732.2999999523163,10
11671,experiment,77,1,1,2,#D8271C,#741CD8,0.3,0.7,1,701.4000000953674,1,606.1000001430511,10
11671,experiment,78,2,1,2,#FA92F8,#1CD855,0.5,0.5,1,397.7999999523163,0,553.4000000953674,0
11671,experiment,79,0,3,2,#3386FF,#D89F1C,0.1,0.9,1,1132.9000000953674,0,1120,10
11671,experiment,80,2,2,2,#1CD855,#FA92F8,0.5,0.5,1,396.5,1,1045.7000000476835,10
11671,experiment,81,1,4,2,#741CD8,#D8271C,0.7,0.3,1,691.2000000476837,0,537.2000000476837,0
11671,experiment,82,0,4,2,#D89F1C,#3386FF,0.9,0.1,1,804.7000000476837,1,506.7999999523163,10
11671,experiment,83,0,1,2,#D89F1C,#3386FF,0.9,0.1,1,954.5,1,416.2999999523163,10
11671,experiment,84,2,6,2,#1CD855,#FA92F8,0.5,0.5,1,1217.0999999046326,1,502,10
11671,experiment,85,0,2,2,#3386FF,#D89F1C,0.1,0.9,1,431.1000001430512,0,701.1000001430511,10
11671,experiment,86,1,4,2,#D8271C,#741CD8,0.3,0.7,1,1338.5,1,1407.7999999523165,10
11671,experiment,87,2,6,2,#FA92F8,#1CD855,0.5,0.5,1,903.9000000953674,0,429.5,10
11671,experiment,88,1,2,2,#D8271C,#741CD8,0.3,0.7,1,935.0999999046326,0,825,0
11671,experiment,89,2,4,2,#1CD855,#FA92F8,0.5,0.5,1,652,1,603,10
11671,experiment,90,0,5,2,#D89F1C,#3386FF,0.9,0.1,1,861.5,1,358.5,10
11671,experiment,91,1,0,3,#741CD8,#D8271C,0.7,0.3,1,317.09999990463257,0,1064.5,0
11671,experiment,92,1,6,3,#741CD8,#D8271C,0.7,0.3,1,683.7999999523163,0,458,10
11671,experiment,93,0,0,3,#3386FF,#D89F1C,0.1,0.9,1,406.2000000476837,0,488.09999990463257,10
11671,experiment,94,2,0,3,#1CD855,#FA92F8,0.5,0.5,1,729.8000001907349,1,499.59999990463257,10
11671,experiment,95,2,2,3,#1CD855,#FA92F8,0.5,0.5,1,331.7999999523163,1,609.0999999046326,10
11671,experiment,96,1,5,3,#D8271C,#741CD8,0.3,0.7,1,377.7000000476837,1,1395.5,0
11671,experiment,97,0,6,3,#3386FF,#D89F1C,0.1,0.9,1,512.4000000953674,0,673.5999999046326,10
11671,experiment,98,2,3,3,#FA92F8,#1CD855,0.5,0.5,1,649.5,1,581.7000000476837,10
11671,experiment,99,2,5,3,#1CD855,#FA92F8,0.5,0.5,1,838.5,0,726.7000000476837,10
11671,experiment,100,1,1,3,#D8271C,#741CD8,0.3,0.7,1,413.5,1,1838.200000047684,0
11671,experiment,101,0,4,3,#D89F1C,#3386FF,0.9,0.1,1,399.09999990463257,1,815.7000000476837,10
11671,experiment,102,1,3,3,#D8271C,#741CD8,0.3,0.7,1,391.7999999523163,1,1038.9000000953674,0
11671,experiment,103,2,1,3,#FA92F8,#1CD855,0.5,0.5,1,354.2000000476837,1,819.1999998092651,10
11671,experiment,104,0,3,3,#D89F1C,#3386FF,0.9,0.1,1,372.1000001430512,1,637,10
11671,experiment,105,0,1,3,#3386FF,#D89F1C,0.1,0.9,1,341.5,0,692.4000000953674,10
11671,experiment,106,0,6,3,#D89F1C,#3386FF,0.9,0.1,1,4716.400000095367,1,1457.7000000476835,10
11671,experiment,107,0,3,3,#3386FF,#D89F1C,0.1,0.9,1,3775.900000095368,0,358.09999990463257,10
11671,experiment,108,1,0,3,#D8271C,#741CD8,0.3,0.7,1,1518.6000001430511,1,2310.2999999523163,0
11671,experiment,109,0,2,3,#3386FF,#D89F1C,0.1,0.9,1,776.0999999046326,0,605.6000001430511,10
11671,experiment,110,1,5,3,#D8271C,#741CD8,0.3,0.7,1,587.3000001907349,0,663.3999998569489,10
11671,experiment,111,2,0,3,#FA92F8,#1CD855,0.5,0.5,1,616.2000000476837,1,1140.9000000953674,0
11671,experiment,112,2,5,3,#1CD855,#FA92F8,0.5,0.5,1,452.59999990463257,1,925.7000000476836,0
11671,experiment,113,0,1,3,#D89F1C,#3386FF,0.9,0.1,1,490.2999999523163,1,941.2000000476836,0
11671,experiment,114,1,4,3,#D8271C,#741CD8,0.3,0.7,1,551.5,0,669.5999999046326,0
11671,experiment,115,2,4,3,#FA92F8,#1CD855,0.5,0.5,1,377.5,1,1032.7999999523165,10
11671,experiment,116,2,3,3,#1CD855,#FA92F8,0.5,0.5,1,442.7999999523163,0,693.6999998092651,0
11671,experiment,117,0,5,3,#D89F1C,#3386FF,0.9,0.1,1,374.1000001430512,1,1496.5,10
11671,experiment,118,1,6,3,#741CD8,#D8271C,0.7,0.3,1,424.4000000953674,0,9423.600000143051,0
11671,experiment,119,2,6,3,#1CD855,#FA92F8,0.5,0.5,1,491.2000000476837,1,805.2000000476837,0
11671,experiment,120,1,2,3,#D8271C,#741CD8,0.3,0.7,1,1181.7000000476835,0,330.5,10
11671,experiment,121,0,4,3,#3386FF,#D89F1C,0.1,0.9,1,683.5999999046326,0,552.8000001907349,10
11671,experiment,122,1,3,3,#741CD8,#D8271C,0.7,0.3,1,510.9000000953674,0,1021.7999999523164,0
11671,experiment,123,0,0,3,#D89F1C,#3386FF,0.9,0.1,1,342,1,970.9000000953674,10
11671,experiment,124,2,1,3,#FA92F8,#1CD855,0.5,0.5,1,408.5,1,765.7999999523163,10
11671,experiment,125,2,2,3,#FA92F8,#1CD855,0.5,0.5,1,735,1,664.3999998569489,10
11671,experiment,126,1,1,3,#741CD8,#D8271C,0.7,0.3,1,300.5,0,759.2999999523163,10
11671,experiment,127,0,0,3,#D89F1C,#3386FF,0.9,0.1,1,555.1999998092651,1,676.0999999046326,0
11671,experiment,128,0,1,3,#3386FF,#D89F1C,0.1,0.9,1,407.9000000953674,0,1231.8999998569489,10
11671,experiment,129,1,0,3,#741CD8,#D8271C,0.7,0.3,1,727.2999999523163,0,849.8999998569489,0
11671,experiment,130,1,2,3,#D8271C,#741CD8,0.3,0.7,1,799.3000001907349,1,777.4000000953674,0
11671,experiment,131,2,4,3,#FA92F8,#1CD855,0.5,0.5,1,449.6000001430512,1,873.6999998092651,10
11671,experiment,132,2,5,3,#FA92F8,#1CD855,0.5,0.5,1,428.2000000476837,1,712.1999998092651,0
11671,experiment,133,0,3,3,#3386FF,#D89F1C,0.1,0.9,1,349.7000000476837,0,814.0999999046326,10
11671,experiment,134,2,3,3,#FA92F8,#1CD855,0.5,0.5,1,344,1,681,10
11671,experiment,135,1,6,3,#741CD8,#D8271C,0.7,0.3,1,401.6000001430512,0,668.4000000953674,10
11671,experiment,136,1,5,4,#D8271C,#741CD8,0.3,0.7,1,390.4000000953674,1,718.7999999523163,0
11671,experiment,137,0,2,4,#D89F1C,#3386FF,0.9,0.1,1,228.79999995231628,1,818,10
11671,experiment,138,0,6,4,#3386FF,#D89F1C,0.1,0.9,1,476.30000019073486,0,738.0999999046326,10
11671,experiment,139,2,2,4,#1CD855,#FA92F8,0.5,0.5,1,601.2999999523163,0,756.3000001907349,0
11671,experiment,140,0,5,4,#D89F1C,#3386FF,0.9,0.1,1,512.6000001430511,1,692.0999999046326,10
11671,experiment,141,1,1,4,#D8271C,#741CD8,0.3,0.7,1,353.7000000476837,1,1391.5999999046326,0
11671,experiment,142,1,4,4,#D8271C,#741CD8,0.3,0.7,1,362.09999990463257,1,732,10
11671,experiment,143,2,0,4,#FA92F8,#1CD855,0.5,0.5,1,1053,1,944.4000000953674,0
11671,experiment,144,2,1,4,#FA92F8,#1CD855,0.5,0.5,1,300.7999999523163,1,596.8000001907349,10
11671,experiment,145,0,4,4,#3386FF,#D89F1C,0.1,0.9,1,306.7999999523163,0,557.5,10
11671,experiment,146,1,3,4,#D8271C,#741CD8,0.3,0.7,1,385.89999985694885,1,1088,10
11671,experiment,147,2,6,4,#FA92F8,#1CD855,0.5,0.5,1,264.5,1,922.0999999046326,10
11671,experiment,148,2,3,4,#1CD855,#FA92F8,0.5,0.5,1,231.89999985694885,0,529.2000000476837,0
11671,experiment,149,1,1,4,#D8271C,#741CD8,0.3,0.7,1,342.7000000476837,1,1187,0
11671,experiment,150,1,2,4,#741CD8,#D8271C,0.7,0.3,1,287.2000000476837,0,566.2000000476837,10
11671,experiment,151,2,2,4,#1CD855,#FA92F8,0.5,0.5,1,387.2000000476837,0,647.8999998569489,0
11671,experiment,152,0,6,4,#3386FF,#D89F1C,0.1,0.9,1,301.69999980926514,0,545,10
11671,experiment,153,0,2,4,#3386FF,#D89F1C,0.1,0.9,1,425.89999985694885,0,510,0
11671,experiment,154,1,0,4,#741CD8,#D8271C,0.7,0.3,1,370.59999990463257,0,1123,0
11671,experiment,155,1,3,4,#D8271C,#741CD8,0.3,0.7,1,270,1,703.2999999523163,0
11671,experiment,156,2,1,4,#FA92F8,#1CD855,0.5,0.5,1,332.2999999523163,1,614.5999999046326,0
11671,experiment,157,2,0,4,#1CD855,#FA92F8,0.5,0.5,1,301,0,486.4000000953674,0
11671,experiment,158,0,1,4,#D89F1C,#3386FF,0.9,0.1,1,378,1,625.5,10
11671,experiment,159,0,0,4,#D89F1C,#3386FF,0.9,0.1,1,612.1000001430511,1,553.4000000953674,0
11671,experiment,160,1,4,4,#741CD8,#D8271C,0.7,0.3,1,256.80000019073486,0,537.9000000953674,0
11671,experiment,161,2,4,4,#FA92F8,#1CD855,0.5,0.5,1,258.7999999523163,1,645.3999998569489,0
11671,experiment,162,0,4,4,#3386FF,#D89F1C,0.1,0.9,1,382,0,539.5,10
11671,experiment,163,1,5,4,#D8271C,#741CD8,0.3,0.7,1,515.0999999046326,1,759.3999998569489,0
11671,experiment,164,0,5,4,#3386FF,#D89F1C,0.1,0.9,1,1707.7999999523165,0,517.4000000953674,10
11671,experiment,165,2,5,4,#FA92F8,#1CD855,0.5,0.5,1,769.5999999046326,0,518,0
11671,experiment,166,0,3,4,#D89F1C,#3386FF,0.9,0.1,1,280.09999990463257,1,748.7000000476837,10
11671,experiment,167,1,6,4,#741CD8,#D8271C,0.7,0.3,1,315.30000019073486,0,674.5,0
11671,experiment,168,2,6,4,#FA92F8,#1CD855,0.5,0.5,1,229.5,1,798.8999998569489,10
11671,experiment,169,2,0,4,#FA92F8,#1CD855,0.5,0.5,1,380.5,1,914.6000001430511,0
11671,experiment,170,1,2,4,#D8271C,#741CD8,0.3,0.7,1,344.80000019073486,1,899.0999999046326,0
11671,experiment,171,2,2,4,#1CD855,#FA92F8,0.5,0.5,1,487.19999980926514,0,514.5999999046326,10
11671,experiment,172,1,0,4,#D8271C,#741CD8,0.3,0.7,1,458,1,681.6000001430511,0
11671,experiment,173,0,3,4,#3386FF,#D89F1C,0.1,0.9,1,617,0,554.2000000476837,10
11671,experiment,174,1,4,4,#D8271C,#741CD8,0.3,0.7,1,473.59999990463257,1,755.3999998569489,10
11671,experiment,175,0,5,4,#3386FF,#D89F1C,0.1,0.9,1,477.7999999523163,0,599.7000000476837,10
11671,experiment,176,2,1,4,#1CD855,#FA92F8,0.5,0.5,1,723.3999998569489,0,531.2000000476837,10
11671,experiment,177,0,0,4,#3386FF,#D89F1C,0.1,0.9,1,481.4000000953674,0,1625.4000000953674,10
11671,experiment,178,1,5,4,#741CD8,#D8271C,0.7,0.3,1,940.7000000476836,0,700.0999999046326,0
11671,experiment,179,2,3,4,#1CD855,#FA92F8,0.5,0.5,1,347.2000000476837,0,622.7999999523163,10
11671,experiment,180,0,2,4,#D89F1C,#3386FF,0.9,0.1,1,3260.699999809265,1,747.5999999046326,10
11671,experiment,181,2,5,5,#FA92F8,#1CD855,0.5,0.5,1,893.5,1,424.2000000476837,0
11671,experiment,182,1,6,5,#741CD8,#D8271C,0.7,0.3,1,436.4000000953674,0,501.9000000953674,10
11671,experiment,183,2,4,5,#FA92F8,#1CD855,0.5,0.5,1,608.2999999523163,1,809.7000000476837,0
11671,experiment,184,0,1,5,#D89F1C,#3386FF,0.9,0.1,1,475.7000000476837,1,484.7000000476837,10
11671,experiment,185,2,6,5,#1CD855,#FA92F8,0.5,0.5,1,455.7000000476837,0,1031.9000000953674,10
11671,experiment,186,0,4,5,#D89F1C,#3386FF,0.9,0.1,1,1618.5,1,400.19999980926514,10
11671,experiment,187,1,3,5,#D8271C,#741CD8,0.3,0.7,1,377.5,1,743.9000000953674,10
11671,experiment,188,0,6,5,#3386FF,#D89F1C,0.1,0.9,1,299.80000019073486,0,493.39999985694885,10
11671,experiment,189,1,1,5,#D8271C,#741CD8,0.3,0.7,1,1040.5999999046326,1,613.5,10
11671,experiment,190,2,4,5,#1CD855,#FA92F8,0.5,0.5,1,350.09999990463257,0,503.5,10
11671,experiment,191,1,5,5,#741CD8,#D8271C,0.7,0.3,1,512.9000000953674,0,503.4000000953674,0
11671,experiment,192,0,5,5,#D89F1C,#3386FF,0.9,0.1,1,422.7000000476837,1,644.6000001430511,10
11671,experiment,193,2,2,5,#1CD855,#FA92F8,0.5,0.5,1,494.7999999523163,0,702.6999998092651,0
11671,experiment,194,0,4,5,#D89F1C,#3386FF,0.9,0.1,1,549.3999998569489,1,712.7000000476837,10
11671,experiment,195,1,6,5,#D8271C,#741CD8,0.3,0.7,1,470.59999990463257,1,671.2000000476837,10
11671,experiment,196,1,2,5,#D8271C,#741CD8,0.3,0.7,1,272.59999990463257,1,538,0
11671,experiment,197,1,4,5,#D8271C,#741CD8,0.3,0.7,1,345.5,1,581.4000000953674,0
11671,experiment,198,2,0,5,#FA92F8,#1CD855,0.5,0.5,1,577.7000000476837,1,495.7000000476837,10
11671,experiment,199,0,1,5,#D89F1C,#3386FF,0.9,0.1,1,443,1,434.39999985694885,10
11671,experiment,200,0,3,5,#3386FF,#D89F1C,0.1,0.9,1,405.2999999523163,0,636.2999999523163,0
11671,experiment,201,1,3,5,#D8271C,#741CD8,0.3,0.7,1,854,1,388.1000001430512,10
11671,experiment,202,2,5,5,#FA92F8,#1CD855,0.5,0.5,1,745,1,372.5,10
11671,experiment,203,0,6,5,#3386FF,#D89F1C,0.1,0.9,1,511.69999980926514,0,566.1000001430511,10
11671,experiment,204,1,1,5,#741CD8,#D8271C,0.7,0.3,1,853.3000001907349,0,408.9000000953674,10
11671,experiment,205,2,6,5,#FA92F8,#1CD855,0.5,0.5,1,1255.2999999523165,1,666.7000000476837,10
11671,experiment,206,0,0,5,#3386FF,#D89F1C,0.1,0.9,1,351.5,0,472.09999990463257,10
11671,experiment,207,1,0,5,#741CD8,#D8271C,0.7,0.3,1,905.7000000476836,0,441.9000000953674,0
11671,experiment,208,2,3,5,#1CD855,#FA92F8,0.5,0.5,1,413,0,434,0
11671,experiment,209,0,2,5,#D89F1C,#3386FF,0.9,0.1,1,410.2999999523163,1,1154.5999999046326,10
11671,experiment,210,2,1,5,#1CD855,#FA92F8,0.5,0.5,1,349.2999999523163,0,416.89999985694885,0
11671,experiment,211,1,4,5,#D8271C,#741CD8,0.3,0.7,1,2158.9000000953674,1,859.0999999046326,0
11671,experiment,212,0,4,5,#D89F1C,#3386FF,0.9,0.1,1,372.2000000476837,1,539.5,10
11671,experiment,213,0,6,5,#D89F1C,#3386FF,0.9,0.1,1,306.89999985694885,1,533.1999998092651,10
11671,experiment,214,2,6,5,#FA92F8,#1CD855,0.5,0.5,1,352.7000000476837,1,688.7000000476837,0
11671,experiment,215,0,3,5,#D89F1C,#3386FF,0.9,0.1,1,320.7999999523163,1,555.7999999523163,10
11671,experiment,216,1,5,5,#741CD8,#D8271C,0.7,0.3,1,384.09999990463257,1,1539.7000000476835,10
11671,experiment,217,2,2,5,#FA92F8,#1CD855,0.5,0.5,1,521.7999999523163,0,1177.7999999523165,10
11671,experiment,218,1,1,5,#741CD8,#D8271C,0.7,0.3,1,537.7000000476837,1,725.3000001907349,0
11671,experiment,219,2,3,5,#FA92F8,#1CD855,0.5,0.5,1,473.2000000476837,0,606.9000000953674,10
11671,experiment,220,0,0,5,#3386FF,#D89F1C,0.1,0.9,1,417,0,628.8999998569489,10
11671,experiment,221,0,2,5,#3386FF,#D89F1C,0.1,0.9,1,581.4000000953674,0,447.5,10
11671,experiment,222,1,6,5,#741CD8,#D8271C,0.7,0.3,1,581.7999999523163,1,725.9000000953674,0
11671,experiment,223,2,5,5,#FA92F8,#1CD855,0.5,0.5,1,323.7999999523163,0,516.2999999523163,0
11671,experiment,224,2,4,5,#FA92F8,#1CD855,0.5,0.5,1,373.4000000953674,0,515.7000000476837,0
11671,experiment,225,1,2,5,#D8271C,#741CD8,0.3,0.7,1,345.40000009536743,1,992.2999999523164,0
11671,experiment,226,0,5,6,#D89F1C,#3386FF,0.9,0.1,1,1108.4000000953674,1,370.7999999523163,10
11671,experiment,227,1,3,6,#D8271C,#741CD8,0.3,0.7,1,514.2000000476837,1,607.9000000953674,0
11671,experiment,228,2,0,6,#FA92F8,#1CD855,0.5,0.5,1,289.90000009536743,1,595.3999998569489,0
11671,experiment,229,1,0,6,#741CD8,#D8271C,0.7,0.3,1,248.3000001907349,1,581.9000000953674,10
11671,experiment,230,0,1,6,#3386FF,#D89F1C,0.1,0.9,1,345.90000009536743,0,590.7999999523163,10
11671,experiment,231,2,1,6,#FA92F8,#1CD855,0.5,0.5,1,886.7999999523163,1,937.7999999523164,0
11671,experiment,232,1,2,6,#741CD8,#D8271C,0.7,0.3,1,340.2000000476837,1,905.5,10
11671,experiment,233,2,1,6,#FA92F8,#1CD855,0.5,0.5,1,784.7999999523163,1,640.6000001430511,0
11671,experiment,234,0,3,6,#3386FF,#D89F1C,0.1,0.9,1,906.5999999046326,0,639.1999998092651,10
11671,experiment,235,0,1,6,#D89F1C,#3386FF,0.9,0.1,1,316.2999999523163,1,524.2999999523163,10
11671,experiment,236,2,3,6,#FA92F8,#1CD855,0.5,0.5,1,490,1,689.2000000476837,0
11671,experiment,237,1,6,6,#D8271C,#741CD8,0.3,0.7,1,330.89999985694885,0,648.7000000476837,10
11671,experiment,238,0,5,6,#3386FF,#D89F1C,0.1,0.9,1,337.19999980926514,0,657.7000000476837,10
11671,experiment,239,2,0,6,#FA92F8,#1CD855,0.5,0.5,1,1179.0999999046326,0,500.7999999523163,0
11671,experiment,240,0,0,6,#3386FF,#D89F1C,0.1,0.9,1,316.2000000476837,0,585.5999999046326,0
11671,experiment,241,2,2,6,#1CD855,#FA92F8,0.5,0.5,1,390.4000000953674,0,716.1000001430511,0
11671,experiment,242,1,5,6,#D8271C,#741CD8,0.3,0.7,1,344.39999985694885,0,782.7000000476837,10
11671,experiment,243,1,4,6,#D8271C,#741CD8,0.3,0.7,1,435.2999999523163,0,507.19999980926514,10
11671,experiment,244,0,2,6,#D89F1C,#3386FF,0.9,0.1,1,404.89999985694885,1,992.5,10
11671,experiment,245,2,6,6,#FA92F8,#1CD855,0.5,0.5,1,1029.6000001430511,1,439.6000001430512,10
11671,experiment,246,1,0,6,#D8271C,#741CD8,0.3,0.7,1,294.7000000476837,0,656.1000001430511,0
11671,experiment,247,0,6,6,#3386FF,#D89F1C,0.1,0.9,1,352.80000019073486,0,549.7000000476837,10
11671,experiment,248,2,5,6,#FA92F8,#1CD855,0.5,0.5,1,1096.8000001907349,1,707.6000001430511,0
11671,experiment,249,1,3,6,#D8271C,#741CD8,0.3,0.7,1,569.7000000476837,0,551.7999999523163,10
11671,experiment,250,1,1,6,#D8271C,#741CD8,0.3,0.7,1,882.7999999523163,0,788.0999999046326,10
11671,experiment,251,0,4,6,#3386FF,#D89F1C,0.1,0.9,1,882.7000000476837,0,457.39999985694885,10
11671,experiment,252,2,4,6,#FA92F8,#1CD855,0.5,0.5,1,1148.2999999523165,1,437.09999990463257,10
11671,experiment,253,1,0,6,#D8271C,#741CD8,0.3,0.7,1,1416.4000000953674,0,564,0
11671,experiment,254,2,5,6,#FA92F8,#1CD855,0.5,0.5,1,2359.899999856949,1,514.7999999523163,10
11671,experiment,255,0,6,6,#D89F1C,#3386FF,0.9,0.1,1,2560.700000047684,1,347.7000000476837,10
11671,experiment,256,1,3,6,#D8271C,#741CD8,0.3,0.7,1,1116.4000000953674,0,413.2999999523163,10
11671,experiment,257,0,1,6,#3386FF,#D89F1C,0.1,0.9,1,917.8999998569489,0,366.89999985694885,10
11671,experiment,258,2,2,6,#FA92F8,#1CD855,0.5,0.5,1,1062.3000001907349,1,367.1000001430512,10
11671,experiment,259,2,0,6,#FA92F8,#1CD855,0.5,0.5,1,1106.2000000476835,1,692.8999998569489,0
11671,experiment,260,0,4,6,#3386FF,#D89F1C,0.1,0.9,1,1214.5999999046326,0,536,10
11671,experiment,261,1,1,6,#741CD8,#D8271C,0.7,0.3,1,1147.5,1,414.4000000953674,10
11671,experiment,262,2,4,6,#FA92F8,#1CD855,0.5,0.5,1,1283,1,573.6000001430511,10
11671,experiment,263,0,3,6,#3386FF,#D89F1C,0.1,0.9,1,738.6000001430511,0,531.1000001430511,10
11671,experiment,264,1,6,6,#D8271C,#741CD8,0.3,0.7,1,556.7999999523163,0,536.4000000953674,10
11671,experiment,265,0,2,6,#D89F1C,#3386FF,0.9,0.1,1,846.2000000476837,1,596.7000000476837,10
11671,experiment,266,2,6,6,#FA92F8,#1CD855,0.5,0.5,1,441.59999990463257,1,597.3999998569489,0
11671,experiment,267,1,5,6,#D8271C,#741CD8,0.3,0.7,1,1226.5,0,364.59999990463257,10
11671,experiment,268,1,2,6,#741CD8,#D8271C,0.7,0.3,1,555.5999999046326,1,586.3999998569489,0
11671,experiment,269,0,0,6,#D89F1C,#3386FF,0.9,0.1,1,1898.0999999046328,1,329.7999999523163,10
11671,experiment,270,2,1,6,#1CD855,#FA92F8,0.5,0.5,1,610.3999998569489,0,451.7000000476837,0
11671,experiment,271,1,4,7,#741CD8,#D8271C,0.7,0.3,1,1210.4000000953674,1,567.0999999046326,10
11671,experiment,272,2,3,7,#1CD855,#FA92F8,0.5,0.5,1,398.2000000476837,0,467.5,10
11671,experiment,273,0,5,7,#D89F1C,#3386FF,0.9,0.1,1,387.7000000476837,1,599.5,10
11671,experiment,274,1,6,7,#D8271C,#741CD8,0.3,0.7,1,382.39999985694885,0,519.7999999523163,0
11671,experiment,275,0,4,7,#3386FF,#D89F1C,0.1,0.9,1,518,0,459.1000001430512,10
11671,experiment,276,2,5,7,#1CD855,#FA92F8,0.5,0.5,1,789.6000001430511,0,582.6000001430511,10
11671,experiment,277,0,6,7,#3386FF,#D89F1C,0.1,0.9,1,473.2000000476837,0,530.4000000953674,10
11671,experiment,278,1,0,7,#D8271C,#741CD8,0.3,0.7,1,686.4000000953674,0,741.4000000953674,10
11671,experiment,279,2,3,7,#FA92F8,#1CD855,0.5,0.5,1,1314.6000001430511,1,376.1000001430512,10
11671,experiment,280,2,2,7,#FA92F8,#1CD855,0.5,0.5,1,640.9000000953674,1,584.6000001430511,10
11671,experiment,281,0,5,7,#3386FF,#D89F1C,0.1,0.9,1,299.7999999523163,0,525.9000000953674,10
11671,experiment,282,2,0,7,#FA92F8,#1CD855,0.5,0.5,1,299,1,577,0
11671,experiment,283,1,3,7,#741CD8,#D8271C,0.7,0.3,1,475.9000000953674,0,2211.2999999523163,0
11671,experiment,284,0,3,7,#D89F1C,#3386FF,0.9,0.1,1,532.2999999523163,1,949,10
11671,experiment,285,2,6,7,#1CD855,#FA92F8,0.5,0.5,1,527.7000000476837,0,517.2000000476837,10
11671,experiment,286,0,1,7,#3386FF,#D89F1C,0.1,0.9,1,1088.7999999523165,0,403.69999980926514,10
11671,experiment,287,0,2,7,#D89F1C,#3386FF,0.9,0.1,1,690.8999998569489,1,770.2999999523163,10
11671,experiment,288,1,4,7,#D8271C,#741CD8,0.3,0.7,1,1377.7000000476835,0,483.59999990463257,10
11671,experiment,289,2,4,7,#FA92F8,#1CD855,0.5,0.5,1,1049.3999998569489,1,506.6000001430512,0
11671,experiment,290,1,5,7,#741CD8,#D8271C,0.7,0.3,1,427.6000001430512,0,883.7000000476837,0
11671,experiment,291,2,1,7,#FA92F8,#1CD855,0.5,0.5,1,630,1,665.6000001430511,10
11671,experiment,292,0,0,7,#3386FF,#D89F1C,0.1,0.9,1,581.7000000476837,0,509.6000001430512,10
11671,experiment,293,1,1,7,#741CD8,#D8271C,0.7,0.3,1,366.1000001430512,0,589.2000000476837,0
11671,experiment,294,1,2,7,#741CD8,#D8271C,0.7,0.3,1,444.19999980926514,1,670.7999999523163,0
11671,experiment,295,2,5,7,#1CD855,#FA92F8,0.5,0.5,1,377.30000019073486,0,482.5,10
11671,experiment,296,1,0,7,#741CD8,#D8271C,0.7,0.3,1,1594.9000000953674,0,608.2000000476837,10
11671,experiment,297,1,1,7,#D8271C,#741CD8,0.3,0.7,1,437.09999990463257,1,648.5999999046326,0
11671,experiment,298,0,1,7,#3386FF,#D89F1C,0.1,0.9,1,828.6000001430511,0,422.7999999523163,10
11671,experiment,299,2,6,7,#1CD855,#FA92F8,0.5,0.5,1,518.3999998569489,0,473.2000000476837,10
11671,experiment,300,1,3,7,#D8271C,#741CD8,0.3,0.7,1,406.19999980926514,1,821.5,0
11671,experiment,301,0,3,7,#D89F1C,#3386FF,0.9,0.1,1,370,1,484.09999990463257,10
11671,experiment,302,0,4,7,#3386FF,#D89F1C,0.1,0.9,1,473.39999985694885,0,479.2999999523163,10
11671,experiment,303,1,5,7,#D8271C,#741CD8,0.3,0.7,1,543.8999998569489,1,644.2000000476837,10
11671,experiment,304,2,2,7,#FA92F8,#1CD855,0.5,0.5,1,615.3999998569489,1,707.8000001907349,10
11671,experiment,305,2,0,7,#1CD855,#FA92F8,0.5,0.5,1,525.7000000476837,0,456.7000000476837,10
11671,experiment,306,2,1,7,#FA92F8,#1CD855,0.5,0.5,1,829,1,483.7000000476837,10
11671,experiment,307,0,2,7,#3386FF,#D89F1C,0.1,0.9,1,960.5999999046326,0,502.1000001430512,10
11671,experiment,308,1,6,7,#741CD8,#D8271C,0.7,0.3,1,741.3999998569489,0,1031.5,0
11671,experiment,309,0,5,7,#3386FF,#D89F1C,0.1,0.9,1,1299.7000000476835,0,381.2999999523163,10
11671,experiment,310,1,4,7,#741CD8,#D8271C,0.7,0.3,1,440.7999999523163,0,541.6000001430511,0
11671,experiment,311,2,4,7,#FA92F8,#1CD855,0.5,0.5,1,886.7999999523163,1,492.9000000953674,0
11671,experiment,312,0,6,7,#3386FF,#D89F1C,0.1,0.9,1,391.59999990463257,0,579.4000000953674,10
11671,experiment,313,1,2,7,#D8271C,#741CD8,0.3,0.7,1,487.6000001430512,1,865.8999998569489,0
11671,experiment,314,2,3,7,#FA92F8,#1CD855,0.5,0.5,1,453.2999999523163,1,456.39999985694885,10
11671,experiment,315,0,0,7,#3386FF,#D89F1C,0.1,0.9,1,754.4000000953674,0,405.59999990463257,10
11895,experiment,1,1,6,1,#741CD8,#D8271C,0.7,0.3,1,1767.399999976158,1,1213.600000023842,10
11895,experiment,2,2,0,1,#3386FF,#D89F1C,0.5,0.5,1,1552.0999999642372,1,816.4000000357628,10
11895,experiment,3,0,0,1,#1CD855,#FA92F8,0.9,0.1,1,1239.399999976158,0,851.5,0
11895,experiment,4,2,4,1,#D89F1C,#3386FF,0.5,0.5,1,1624.9000000357628,0,1035.0999999642372,0
11895,experiment,5,0,5,1,#1CD855,#FA92F8,0.9,0.1,1,1568.7999999523165,1,1329.5,10
11895,experiment,6,1,5,1,#D8271C,#741CD8,0.3,0.7,1,756.1999999880791,0,1993.4000000357628,10
11895,experiment,7,2,3,1,#3386FF,#D89F1C,0.5,0.5,1,1003.5999999642372,1,1028.699999988079,10
11895,experiment,8,0,2,1,#1CD855,#FA92F8,0.9,0.1,1,974,0,695.8000000119209,0
11895,experiment,9,1,4,1,#741CD8,#D8271C,0.7,0.3,1,850.5,1,1279.100000023842,10
11895,experiment,10,2,6,1,#3386FF,#D89F1C,0.5,0.5,1,922.100000023842,1,815.5,10
11895,experiment,11,1,2,1,#741CD8,#D8271C,0.7,0.3,1,724.7999999523163,1,658.3000000119209,0
11895,experiment,12,2,1,1,#D89F1C,#3386FF,0.5,0.5,1,647.5,0,656.1999999880791,10
11895,experiment,13,0,4,1,#FA92F8,#1CD855,0.1,0.9,1,642.9000000357628,1,774.8000000119209,0
11895,experiment,14,1,1,1,#D8271C,#741CD8,0.3,0.7,1,638.5999999642372,0,860.8999999761581,10
11895,experiment,15,2,2,1,#D89F1C,#3386FF,0.5,0.5,1,861.4000000357628,0,806.6999999880791,0
11895,experiment,16,0,3,1,#FA92F8,#1CD855,0.1,0.9,1,473.3000000119209,1,1321.899999976158,0
11895,experiment,17,1,0,1,#741CD8,#D8271C,0.7,0.3,1,481.8000000119209,1,644.2000000476837,10
11895,experiment,18,2,5,1,#D89F1C,#3386FF,0.5,0.5,1,473.5999999642372,0,584.2999999523163,0
11895,experiment,19,1,3,1,#D8271C,#741CD8,0.3,0.7,1,604.3000000119209,0,612.7999999523163,10
11895,experiment,20,0,6,1,#1CD855,#FA92F8,0.9,0.1,1,802.8999999761581,1,1913.399999976158,10
11895,experiment,21,0,1,1,#FA92F8,#1CD855,0.1,0.9,1,699.5999999642372,0,864.8000000119209,10
11895,experiment,22,1,2,1,#741CD8,#D8271C,0.7,0.3,1,593.9000000357628,1,650.8999999761581,0
11895,experiment,23,2,0,1,#D89F1C,#3386FF,0.5,0.5,1,708.9000000357628,0,677,0
11895,experiment,24,0,2,1,#FA92F8,#1CD855,0.1,0.9,1,1048.899999976158,0,1163.5,10
11895,experiment,25,1,0,1,#D8271C,#741CD8,0.3,0.7,1,570.1999999880791,0,694.1999999880791,0
11895,experiment,26,0,1,1,#1CD855,#FA92F8,0.9,0.1,1,502.4000000357628,1,625.1000000238419,10
11895,experiment,27,0,3,1,#FA92F8,#1CD855,0.1,0.9,1,630.8000000119209,0,658.6999999880791,10
11895,experiment,28,2,4,1,#D89F1C,#3386FF,0.5,0.5,1,574.0999999642372,0,666.3000000119209,0
11895,experiment,29,1,6,1,#D8271C,#741CD8,0.3,0.7,1,669.6999999880791,0,613,0
11895,experiment,30,2,1,1,#D89F1C,#3386FF,0.5,0.5,1,415.8000000119209,1,851.2999999523163,10
11895,experiment,31,2,6,1,#3386FF,#D89F1C,0.5,0.5,1,595.2999999523163,0,648.0999999642372,0
11895,experiment,32,0,6,1,#1CD855,#FA92F8,0.9,0.1,1,482.3000000119209,1,928.399999976158,10
11895,experiment,33,1,4,1,#D8271C,#741CD8,0.3,0.7,1,507.6999999880791,0,659.9000000357628,10
11895,experiment,34,1,1,1,#D8271C,#741CD8,0.3,0.7,1,439.3000000119209,0,602.6999999880791,10
11895,experiment,35,1,3,1,#741CD8,#D8271C,0.7,0.3,1,469.3999999761581,1,511.39999997615814,10
11895,experiment,36,2,5,1,#3386FF,#D89F1C,0.5,0.5,1,446.3999999761581,1,682.1000000238419,0
11895,experiment,37,0,4,1,#FA92F8,#1CD855,0.1,0.9,1,407.1999999880791,1,583.7000000476837,0
11895,experiment,38,2,2,1,#3386FF,#D89F1C,0.5,0.5,1,528.3999999761581,0,555.8000000119209,10
11895,experiment,39,0,5,1,#FA92F8,#1CD855,0.1,0.9,1,619.6000000238419,0,642.8999999761581,10
11895,experiment,40,1,5,1,#D8271C,#741CD8,0.3,0.7,1,410.1999999880791,0,624.5,10
11895,experiment,41,2,3,1,#3386FF,#D89F1C,0.5,0.5,1,467.8999999761581,1,603.3999999761581,10
11895,experiment,42,0,0,1,#FA92F8,#1CD855,0.1,0.9,1,633.8000000119209,0,1159.100000023842,10
11895,experiment,43,1,5,1,#741CD8,#D8271C,0.7,0.3,1,555.1000000238419,1,550.9000000357628,10
11895,experiment,44,1,0,1,#741CD8,#D8271C,0.7,0.3,1,403.5999999642372,1,509.4000000357628,10
11895,experiment,45,2,4,1,#3386FF,#D89F1C,0.5,0.5,1,399.5,1,683.3000000119209,0
11895,experiment,46,2,5,2,#D89F1C,#3386FF,0.5,0.5,1,504.2000000476837,1,618.7000000476837,0
11895,experiment,47,0,3,2,#1CD855,#FA92F8,0.9,0.1,1,462.5999999642372,1,1125.399999976158,10
11895,experiment,48,2,0,2,#3386FF,#D89F1C,0.5,0.5,1,495.8000000119209,0,990.5999999642372,10
11895,experiment,49,1,1,2,#741CD8,#D8271C,0.7,0.3,1,568.1000000238419,1,619.9000000357628,0
11895,experiment,50,2,3,2,#3386FF,#D89F1C,0.5,0.5,1,381.0999999642372,0,551.6999999880791,0
11895,experiment,51,1,4,2,#D8271C,#741CD8,0.3,0.7,1,432.8000000119209,0,493.4000000357628,10
11895,experiment,52,0,1,2,#1CD855,#FA92F8,0.9,0.1,1,456,1,756.3000000119209,10
11895,experiment,53,2,6,2,#3386FF,#D89F1C,0.5,0.5,1,465,1,725.5,0
11895,experiment,54,1,3,2,#D8271C,#741CD8,0.3,0.7,1,1797.600000023842,0,600.6000000238419,0
11895,experiment,55,2,1,2,#3386FF,#D89F1C,0.5,0.5,1,719.6000000238419,0,645.3999999761581,10
11895,experiment,56,0,0,2,#1CD855,#FA92F8,0.9,0.1,1,704.5999999642372,1,563,10
11895,experiment,57,0,4,2,#FA92F8,#1CD855,0.1,0.9,1,494.5999999642372,0,496.5,10
11895,experiment,58,1,2,2,#D8271C,#741CD8,0.3,0.7,1,477.10000002384186,0,962.100000023842,10
11895,experiment,59,2,2,2,#D89F1C,#3386FF,0.5,0.5,1,546.3000000119209,1,2172,10
11895,experiment,60,0,5,2,#1CD855,#FA92F8,0.9,0.1,1,396.5999999642372,1,825.1999999880791,10
11895,experiment,61,1,6,2,#D8271C,#741CD8,0.3,0.7,1,592.3000000119209,0,582,0
11895,experiment,62,0,6,2,#1CD855,#FA92F8,0.9,0.1,1,387,1,555.6999999880791,10
11895,experiment,63,0,2,2,#1CD855,#FA92F8,0.9,0.1,1,409.6999999880791,1,537.8999999761581,0
11895,experiment,64,2,0,2,#D89F1C,#3386FF,0.5,0.5,1,461,1,661.1999999880791,0
11895,experiment,65,2,3,2,#3386FF,#D89F1C,0.5,0.5,1,364.9000000357628,1,1041.9000000357628,0
11895,experiment,66,0,1,2,#1CD855,#FA92F8,0.9,0.1,1,423.7000000476837,1,696.6999999880791,10
11895,experiment,67,0,4,2,#1CD855,#FA92F8,0.9,0.1,1,392.1999999880791,1,589.8999999761581,10
11895,experiment,68,1,3,2,#D8271C,#741CD8,0.3,0.7,1,548.0999999642372,0,521.3000000119209,10
11895,experiment,69,2,1,2,#3386FF,#D89F1C,0.5,0.5,1,520,0,1201.399999976158,10
11895,experiment,70,0,0,2,#1CD855,#FA92F8,0.9,0.1,1,349.10000002384186,1,606.5999999642372,10
11895,experiment,71,0,6,2,#FA92F8,#1CD855,0.1,0.9,1,453.8000000119209,0,653.6000000238419,10
11895,experiment,72,1,4,2,#D8271C,#741CD8,0.3,0.7,1,498.1999999880791,0,511.699999988079,0
11895,experiment,73,1,6,2,#D8271C,#741CD8,0.3,0.7,1,363.3000000119209,0,567.8000000119209,0
11895,experiment,74,2,4,2,#D89F1C,#3386FF,0.5,0.5,1,550.5,1,552.1000000238419,10
11895,experiment,75,0,3,2,#1CD855,#FA92F8,0.9,0.1,1,545,1,932.5,0
11895,experiment,76,0,5,2,#FA92F8,#1CD855,0.1,0.9,1,434.6999999880791,1,564.1999999880791,0
11895,experiment,77,1,5,2,#D8271C,#741CD8,0.3,0.7,1,489.10000002384186,0,579,0
11895,experiment,78,1,1,2,#741CD8,#D8271C,0.7,0.3,1,465,1,454.5,10
11895,experiment,79,2,2,2,#3386FF,#D89F1C,0.5,0.5,1,514.3999999761581,0,621.8000000119209,0
11895,experiment,80,2,5,2,#D89F1C,#3386FF,0.5,0.5,0,1007.0999999642372,0,1226.199999988079,10
11895,experiment,81,0,2,2,#FA92F8,#1CD855,0.1,0.9,0,844.6000000238419,1,911.600000023842,0
11895,experiment,82,1,2,2,#741CD8,#D8271C,0.7,0.3,0,1685.0999999642372,1,1180.199999988079,10
11895,experiment,83,1,0,2,#741CD8,#D8271C,0.7,0.3,0,1139.4000000357628,0,846.9000000357628,10
11895,experiment,84,2,6,2,#D89F1C,#3386FF,0.5,0.5,0,757.8000000119209,1,730.8000000119209,0
11895,experiment,85,1,1,2,#741CD8,#D8271C,0.7,0.3,1,964.3000000119208,1,1220.0999999642372,10
11895,experiment,86,1,6,2,#741CD8,#D8271C,0.7,0.3,0,615,0,892.7000000476837,0
11895,experiment,87,2,4,2,#D89F1C,#3386FF,0.5,0.5,1,1611,0,911.5999999642372,0
11895,experiment,88,0,6,2,#FA92F8,#1CD855,0.1,0.9,0,524.8999999761581,0,881.5999999642372,10
11895,experiment,89,2,2,2,#D89F1C,#3386FF,0.5,0.5,1,1600,1,1360,10
11895,experiment,90,1,0,2,#D8271C,#741CD8,0.3,0.7,1,907.1999999880792,0,593.6000000238419,10
11895,experiment,91,2,5,3,#D89F1C,#3386FF,0.5,0.5,0,2489.800000011921,1,588.8000000119209,0
11895,experiment,92,0,3,3,#1CD855,#FA92F8,0.9,0.1,1,1567.100000023842,0,601.1000000238419,0
11895,experiment,93,0,5,3,#1CD855,#FA92F8,0.9,0.1,0,1044.399999976158,0,606.4000000357628,0
11895,experiment,94,1,2,3,#741CD8,#D8271C,0.7,0.3,1,1048.100000023842,1,499.89999997615814,10
11895,experiment,95,2,0,3,#D89F1C,#3386FF,0.5,0.5,1,1508.300000011921,1,531.7999999523163,0
11895,experiment,96,0,1,3,#FA92F8,#1CD855,0.1,0.9,1,513.8000000119209,0,673.8999999761581,10
11895,experiment,97,0,0,3,#FA92F8,#1CD855,0.1,0.9,1,709.6999999880791,0,515.2000000476837,10
11895,experiment,98,1,4,3,#D8271C,#741CD8,0.3,0.7,1,786.1000000238419,0,523.3999999761581,10
11895,experiment,99,2,3,3,#D89F1C,#3386FF,0.5,0.5,0,1526.5,1,616.1999999880791,10
11895,experiment,100,1,5,3,#741CD8,#D8271C,0.7,0.3,0,1873.1000000238416,0,583.3000000119209,0
11895,experiment,101,2,6,3,#D89F1C,#3386FF,0.5,0.5,0,1454,0,562.9000000357628,0
11895,experiment,102,0,2,3,#FA92F8,#1CD855,0.1,0.9,0,2332.199999988079,1,649,10
11895,experiment,103,1,3,3,#741CD8,#D8271C,0.7,0.3,1,2214,1,376.2999999523163,10
11895,experiment,104,2,1,3,#D89F1C,#3386FF,0.5,0.5,0,1231.300000011921,0,641.1999999880791,10
11895,experiment,105,0,4,3,#FA92F8,#1CD855,0.1,0.9,0,1275.100000023842,0,553.1000000238419,10
11895,experiment,106,1,2,3,#D8271C,#741CD8,0.3,0.7,1,1370.5,0,526.0999999642372,10
11895,experiment,107,1,0,3,#741CD8,#D8271C,0.7,0.3,1,472.5,1,434.699999988079,10
11895,experiment,108,0,6,3,#1CD855,#FA92F8,0.9,0.1,1,481.10000002384186,0,701.3999999761581,0
11895,experiment,109,2,2,3,#3386FF,#D89F1C,0.5,0.5,0,1352.5,0,633.3000000119209,10
11895,experiment,110,0,3,3,#1CD855,#FA92F8,0.9,0.1,0,1435.5,1,579.8000000119209,10
11895,experiment,111,1,5,3,#D8271C,#741CD8,0.3,0.7,1,800.5,0,502.4000000357628,10
11895,experiment,112,0,0,3,#1CD855,#FA92F8,0.9,0.1,0,1387,0,483.300000011921,0
11895,experiment,113,2,5,3,#3386FF,#D89F1C,0.5,0.5,0,1470.300000011921,1,703.3999999761581,10
11895,experiment,114,1,3,3,#D8271C,#741CD8,0.3,0.7,1,1194.199999988079,0,388.60000002384186,10
11895,experiment,115,0,4,3,#1CD855,#FA92F8,0.9,0.1,1,935.899999976158,1,541,10
11895,experiment,116,2,4,3,#D89F1C,#3386FF,0.5,0.5,1,703.8999999761581,0,648.6999999880791,10
11895,experiment,117,0,2,3,#FA92F8,#1CD855,0.1,0.9,0,808,1,737.8999999761581,0
11895,experiment,118,1,1,3,#741CD8,#D8271C,0.7,0.3,1,1069.399999976158,1,461.800000011921,10
11895,experiment,119,2,6,3,#3386FF,#D89F1C,0.5,0.5,1,760.3000000119209,0,844.6999999880791,10
11895,experiment,120,0,1,3,#1CD855,#FA92F8,0.9,0.1,1,910.0999999642372,1,479.10000002384186,10
11895,experiment,121,1,6,3,#D8271C,#741CD8,0.3,0.7,1,696.1000000238419,0,460.199999988079,10
11895,experiment,122,1,4,3,#D8271C,#741CD8,0.3,0.7,1,514.3000000119209,0,558.1999999880791,10
11895,experiment,123,0,5,3,#1CD855,#FA92F8,0.9,0.1,1,798.1000000238419,1,448.60000002384186,10
11895,experiment,124,2,3,3,#3386FF,#D89F1C,0.5,0.5,0,1496.5,1,575.6999999880791,0
11895,experiment,125,2,0,3,#3386FF,#D89F1C,0.5,0.5,1,508.10000002384186,0,494,10
11895,experiment,126,2,1,3,#D89F1C,#3386FF,0.5,0.5,1,1327.9000000357628,1,396.60000002384186,0
11895,experiment,127,1,3,3,#D8271C,#741CD8,0.3,0.7,1,557.7000000476837,0,474.4000000357628,10
11895,experiment,128,2,2,3,#D89F1C,#3386FF,0.5,0.5,1,788.8000000119209,1,479.199999988079,0
11895,experiment,129,1,1,3,#D8271C,#741CD8,0.3,0.7,1,646.6999999880791,0,457.699999988079,10
11895,experiment,130,2,4,3,#D89F1C,#3386FF,0.5,0.5,1,732.3999999761581,0,460.699999988079,0
11895,experiment,131,0,3,3,#1CD855,#FA92F8,0.9,0.1,0,1232.7999999523165,0,624.4000000357628,10
11895,experiment,132,1,6,3,#D8271C,#741CD8,0.3,0.7,1,1594.199999988079,0,418.800000011921,0
11895,experiment,133,0,5,3,#FA92F8,#1CD855,0.1,0.9,1,580.6999999880791,0,636.6000000238419,10
11895,experiment,134,2,1,3,#D89F1C,#3386FF,0.5,0.5,0,1362.5,0,847.1999999880791,0
11895,experiment,135,0,4,3,#1CD855,#FA92F8,0.9,0.1,1,944.3000000119208,0,691.5,0
11895,experiment,136,2,0,4,#3386FF,#D89F1C,0.5,0.5,1,564.6999999880791,0,560.5,10
11895,experiment,137,1,5,4,#741CD8,#D8271C,0.7,0.3,1,702.1999999880791,1,472.89999997615814,10
11895,experiment,138,0,6,4,#FA92F8,#1CD855,0.1,0.9,1,554.8000000119209,0,462.5,10
11895,experiment,139,2,3,4,#3386FF,#D89F1C,0.5,0.5,0,1269.699999988079,1,627.3999999761581,0
11895,experiment,140,1,4,4,#D8271C,#741CD8,0.3,0.7,1,677.5,0,456.10000002384186,10
11895,experiment,141,0,1,4,#1CD855,#FA92F8,0.9,0.1,1,700.8999999761581,1,389.199999988079,10
11895,experiment,142,1,2,4,#741CD8,#D8271C,0.7,0.3,1,801.1999999880791,1,433.800000011921,0
11895,experiment,143,2,5,4,#3386FF,#D89F1C,0.5,0.5,1,456.60000002384186,0,382.60000002384186,0
11895,experiment,144,2,6,4,#3386FF,#D89F1C,0.5,0.5,1,493.9000000357628,0,410.5,10
11895,experiment,145,0,0,4,#FA92F8,#1CD855,0.1,0.9,1,514.8999999761581,0,459.199999988079,10
11895,experiment,146,1,0,4,#D8271C,#741CD8,0.3,0.7,1,714.6000000238419,0,445.800000011921,10
11895,experiment,147,0,2,4,#FA92F8,#1CD855,0.1,0.9,1,822,0,451.699999988079,10
11895,experiment,148,0,1,4,#1CD855,#FA92F8,0.9,0.1,1,550.1999999880791,1,388.89999997615814,10
11895,experiment,149,1,6,4,#741CD8,#D8271C,0.7,0.3,1,533,1,442.89999997615814,0
11895,experiment,150,0,5,4,#FA92F8,#1CD855,0.1,0.9,1,412.1999999880791,0,454.4000000357628,10
11895,experiment,151,2,5,4,#3386FF,#D89F1C,0.5,0.5,1,574.4000000357628,0,421.7000000476837,0
11895,experiment,152,1,0,4,#741CD8,#D8271C,0.7,0.3,1,711.9000000357628,1,393.89999997615814,10
11895,experiment,153,2,0,4,#3386FF,#D89F1C,0.5,0.5,1,468.60000002384186,0,429.10000002384186,0
11895,experiment,154,0,4,4,#1CD855,#FA92F8,0.9,0.1,1,1284,1,901,10
11895,experiment,155,2,2,4,#D89F1C,#3386FF,0.5,0.5,1,669.8000000119209,1,793.9000000357628,10
11895,experiment,156,2,4,4,#D89F1C,#3386FF,0.5,0.5,1,371.7999999523163,1,486.5999999642372,0
11895,experiment,157,1,1,4,#741CD8,#D8271C,0.7,0.3,1,629.3000000119209,1,365.199999988079,10
11895,experiment,158,1,3,4,#741CD8,#D8271C,0.7,0.3,1,405.1999999880791,1,582.9000000357628,10
11895,experiment,159,0,3,4,#FA92F8,#1CD855,0.1,0.9,1,868.9000000357628,1,694.5,0
11895,experiment,160,1,5,4,#741CD8,#D8271C,0.7,0.3,0,1777.399999976158,0,870.3000000119209,0
11895,experiment,161,2,3,4,#D89F1C,#3386FF,0.5,0.5,1,733.8999999761581,1,552,0
11895,experiment,162,0,2,4,#FA92F8,#1CD855,0.1,0.9,0,1263.800000011921,1,640.7999999523163,0
11895,experiment,163,1,4,4,#741CD8,#D8271C,0.7,0.3,1,686.8000000119209,1,536,10
11895,experiment,164,2,1,4,#D89F1C,#3386FF,0.5,0.5,1,503.5,1,684.4000000357628,0
11895,experiment,165,0,6,4,#1CD855,#FA92F8,0.9,0.1,1,436,0,785.6999999880791,0
11895,experiment,166,1,2,4,#741CD8,#D8271C,0.7,0.3,1,447.1999999880791,1,415.10000002384186,10
11895,experiment,167,2,6,4,#3386FF,#D89F1C,0.5,0.5,1,660.8999999761581,0,802.6999999880791,0
11895,experiment,168,0,0,4,#1CD855,#FA92F8,0.9,0.1,1,506.8000000119209,1,601,10
11895,experiment,169,2,0,4,#3386FF,#D89F1C,0.5,0.5,1,563.5,1,518.8999999761581,0
11895,experiment,170,0,0,4,#FA92F8,#1CD855,0.1,0.9,1,533.8999999761581,0,738.0999999642372,10
11895,experiment,171,2,2,4,#3386FF,#D89F1C,0.5,0.5,1,502,0,536,0
11895,experiment,172,1,4,4,#741CD8,#D8271C,0.7,0.3,1,433.8000000119209,1,1059.800000011921,0
11895,experiment,173,0,1,4,#1CD855,#FA92F8,0.9,0.1,1,376.8999999761581,1,477,10
11895,experiment,174,2,5,4,#3386FF,#D89F1C,0.5,0.5,0,1181.699999988079,0,503.699999988079,10
11895,experiment,175,0,2,4,#FA92F8,#1CD855,0.1,0.9,0,1629.7000000476835,0,659.9000000357628,10
11895,experiment,176,1,3,4,#741CD8,#D8271C,0.7,0.3,0,657.3999999761581,1,733.2000000476837,10
11895,experiment,177,0,5,4,#1CD855,#FA92F8,0.9,0.1,0,939.4000000357628,0,524.8999999761581,0
11895,experiment,178,2,1,4,#3386FF,#D89F1C,0.5,0.5,1,776.8000000119209,1,530.6000000238419,0
11895,experiment,179,1,6,4,#741CD8,#D8271C,0.7,0.3,0,524.5,0,529.5,0
11895,experiment,180,1,1,4,#741CD8,#D8271C,0.7,0.3,1,1826.1000000238416,1,450.9000000357628,10
11895,experiment,181,0,4,5,#1CD855,#FA92F8,0.9,0.1,0,1040,1,698.0999999642372,10
11895,experiment,182,2,6,5,#D89F1C,#3386FF,0.5,0.5,0,905,0,504,10
11895,experiment,183,1,2,5,#741CD8,#D8271C,0.7,0.3,1,2064.899999976158,1,353.69999998807907,10
11895,experiment,184,1,5,5,#741CD8,#D8271C,0.7,0.3,1,612.6999999880791,1,450.60000002384186,10
11895,experiment,185,0,3,5,#FA92F8,#1CD855,0.1,0.9,0,895.3000000119209,1,548.1000000238419,0
11895,experiment,186,0,6,5,#1CD855,#FA92F8,0.9,0.1,1,679.1999999880791,0,783.0999999642372,0
11895,experiment,187,2,4,5,#D89F1C,#3386FF,0.5,0.5,0,725.2999999523163,0,523.9000000357628,0
11895,experiment,188,2,3,5,#D89F1C,#3386FF,0.5,0.5,1,1794,1,455.10000002384186,10
11895,experiment,189,1,0,5,#741CD8,#D8271C,0.7,0.3,1,1019.5999999642372,1,434.5,10
11895,experiment,190,1,2,5,#741CD8,#D8271C,0.7,0.3,1,531.8000000119209,1,392.5,0
11895,experiment,191,2,1,5,#D89F1C,#3386FF,0.5,0.5,0,953.6999999880792,1,470,10
11895,experiment,192,0,2,5,#1CD855,#FA92F8,0.9,0.1,1,1266.9000000357628,1,390.9000000357628,10
11895,experiment,193,0,3,5,#1CD855,#FA92F8,0.9,0.1,0,846.8999999761581,0,515,0
11895,experiment,194,2,5,5,#3386FF,#D89F1C,0.5,0.5,0,1145.699999988079,1,538.3999999761581,10
11895,experiment,195,1,3,5,#D8271C,#741CD8,0.3,0.7,1,833.6999999880791,0,357.69999998807907,10
11895,experiment,196,1,0,5,#D8271C,#741CD8,0.3,0.7,1,485.6999999880791,0,387.2999999523163,10
11895,experiment,197,1,5,5,#D8271C,#741CD8,0.3,0.7,1,530.3000000119209,0,374.60000002384186,10
11895,experiment,198,0,1,5,#FA92F8,#1CD855,0.1,0.9,0,895.4000000357628,0,455.10000002384186,10
11895,experiment,199,2,4,5,#3386FF,#D89F1C,0.5,0.5,1,721.0999999642372,1,435.800000011921,0
11895,experiment,200,1,1,5,#D8271C,#741CD8,0.3,0.7,1,560.4000000357628,0,594.2000000476837,10
11895,experiment,201,0,0,5,#1CD855,#FA92F8,0.9,0.1,0,1598.800000011921,1,462.5,10
11895,experiment,202,2,2,5,#3386FF,#D89F1C,0.5,0.5,1,562.4000000357628,1,892.8999999761581,0
11895,experiment,203,2,0,5,#D89F1C,#3386FF,0.5,0.5,1,531.4000000357628,1,410.199999988079,0
11895,experiment,204,1,4,5,#741CD8,#D8271C,0.7,0.3,1,515.4000000357628,1,540.8000000119209,10
11895,experiment,205,0,5,5,#1CD855,#FA92F8,0.9,0.1,1,464.8000000119209,1,603.2999999523163,10
11895,experiment,206,1,6,5,#741CD8,#D8271C,0.7,0.3,1,503.3999999761581,1,510.199999988079,10
11895,experiment,207,0,6,5,#FA92F8,#1CD855,0.1,0.9,0,1150,0,403.199999988079,10
11895,experiment,208,2,6,5,#D89F1C,#3386FF,0.5,0.5,0,1750.399999976158,0,441.4000000357628,0
11895,experiment,209,0,4,5,#FA92F8,#1CD855,0.1,0.9,1,779.1999999880791,1,339.7999999523163,0
11895,experiment,210,2,3,5,#3386FF,#D89F1C,0.5,0.5,1,495,1,960.0999999642372,10
11895,experiment,211,2,3,5,#D89F1C,#3386FF,0.5,0.5,0,3117,1,691.3999999761581,10
11895,experiment,212,1,1,5,#D8271C,#741CD8,0.3,0.7,1,850.8999999761581,0,337.69999998807907,10
11895,experiment,213,0,1,5,#1CD855,#FA92F8,0.9,0.1,1,550.3999999761581,1,489,10
11895,experiment,214,2,4,5,#D89F1C,#3386FF,0.5,0.5,1,588.5999999642372,0,1074.199999988079,0
11895,experiment,215,1,2,5,#D8271C,#741CD8,0.3,0.7,1,1064.600000023842,0,385.699999988079,10
11895,experiment,216,2,0,5,#3386FF,#D89F1C,0.5,0.5,1,971.399999976158,1,529.2999999523163,10
11895,experiment,217,1,0,5,#741CD8,#D8271C,0.7,0.3,1,1231.399999976158,1,546.3000000119209,10
11895,experiment,218,0,4,5,#1CD855,#FA92F8,0.9,0.1,1,2112.099999964237,1,596.8000000119209,10
11895,experiment,219,0,2,5,#FA92F8,#1CD855,0.1,0.9,0,1054.699999988079,1,697.2000000476837,0
11895,experiment,220,0,5,5,#1CD855,#FA92F8,0.9,0.1,0,1078.899999976158,1,527.8999999761581,10
11895,experiment,221,2,2,5,#3386FF,#D89F1C,0.5,0.5,0,972.6999999880792,1,499.5999999642372,10
11895,experiment,222,1,5,5,#741CD8,#D8271C,0.7,0.3,1,767.5999999642372,1,631.8999999761581,0
11895,experiment,223,1,6,5,#D8271C,#741CD8,0.3,0.7,0,905.5,0,516,0
11895,experiment,224,2,5,5,#3386FF,#D89F1C,0.5,0.5,0,1053,0,465.5999999642372,0
11895,experiment,225,0,6,5,#FA92F8,#1CD855,0.1,0.9,1,725.8000000119209,0,507.699999988079,10
11895,experiment,226,1,4,6,#741CD8,#D8271C,0.7,0.3,1,708.5,1,389,10
11895,experiment,227,0,0,6,#1CD855,#FA92F8,0.9,0.1,1,1708.800000011921,1,766,10
11895,experiment,228,2,1,6,#3386FF,#D89F1C,0.5,0.5,0,1065.899999976158,1,523.3000000119209,0
11895,experiment,229,0,3,6,#1CD855,#FA92F8,0.9,0.1,1,703.6000000238419,0,447.300000011921,0
11895,experiment,230,2,6,6,#D89F1C,#3386FF,0.5,0.5,1,782.1999999880791,0,752.2000000476837,10
11895,experiment,231,1,3,6,#741CD8,#D8271C,0.7,0.3,1,745.5,1,372,10
11895,experiment,232,1,2,6,#D8271C,#741CD8,0.3,0.7,1,480.3999999761581,0,471,10
11895,experiment,233,0,4,6,#1CD855,#FA92F8,0.9,0.1,1,778.3000000119209,1,503.5999999642372,10
11895,experiment,234,0,6,6,#1CD855,#FA92F8,0.9,0.1,1,501.8000000119209,1,525,10
11895,experiment,235,2,6,6,#D89F1C,#3386FF,0.5,0.5,0,575.1999999880791,0,478.89999997615814,10
11895,experiment,236,0,1,6,#1CD855,#FA92F8,0.9,0.1,1,514.6999999880791,1,501.4000000357628,10
11895,experiment,237,1,0,6,#D8271C,#741CD8,0.3,0.7,1,622.3000000119209,0,500.60000002384186,0
11895,experiment,238,1,3,6,#D8271C,#741CD8,0.3,0.7,1,449,0,506,0
11895,experiment,239,2,0,6,#3386FF,#D89F1C,0.5,0.5,1,505.1999999880791,1,550.3000000119209,0
11895,experiment,240,0,0,6,#FA92F8,#1CD855,0.1,0.9,1,634.3000000119209,0,521.8000000119209,10
11895,experiment,241,2,1,6,#D89F1C,#3386FF,0.5,0.5,1,1281.600000023842,1,549.3000000119209,0
11895,experiment,242,0,5,6,#1CD855,#FA92F8,0.9,0.1,1,564.5,1,684.1999999880791,10
11895,experiment,243,1,4,6,#D8271C,#741CD8,0.3,0.7,1,595.8000000119209,0,580.9000000357628,10
11895,experiment,244,1,1,6,#741CD8,#D8271C,0.7,0.3,1,487,1,567.1999999880791,0
11895,experiment,245,2,3,6,#D89F1C,#3386FF,0.5,0.5,1,404.5999999642372,1,559.6000000238419,10
11895,experiment,246,0,2,6,#FA92F8,#1CD855,0.1,0.9,0,959.6999999880792,1,459,0
11895,experiment,247,2,5,6,#D89F1C,#3386FF,0.5,0.5,1,548.1000000238419,1,515.5,0
11895,experiment,248,1,6,6,#D8271C,#741CD8,0.3,0.7,1,502.8000000119209,0,502.800000011921,10
11895,experiment,249,2,4,6,#3386FF,#D89F1C,0.5,0.5,0,1356.600000023842,1,502.300000011921,10
11895,experiment,250,0,3,6,#1CD855,#FA92F8,0.9,0.1,0,1033.199999988079,0,539.8999999761581,0
11895,experiment,251,1,5,6,#741CD8,#D8271C,0.7,0.3,1,621.1999999880791,1,431.2000000476837,10
11895,experiment,252,2,2,6,#D89F1C,#3386FF,0.5,0.5,1,618.6000000238419,0,475.199999988079,10
11895,experiment,253,1,3,6,#741CD8,#D8271C,0.7,0.3,1,393.8999999761581,1,396.10000002384186,10
11895,experiment,254,1,4,6,#741CD8,#D8271C,0.7,0.3,1,367.5,1,442.699999988079,10
11895,experiment,255,2,0,6,#D89F1C,#3386FF,0.5,0.5,1,1004.1999999880792,1,515.4000000357628,10
11895,experiment,256,0,4,6,#FA92F8,#1CD855,0.1,0.9,1,638,0,480.89999997615814,0
11895,experiment,257,2,1,6,#3386FF,#D89F1C,0.5,0.5,1,449.3999999761581,0,569.5,10
11895,experiment,258,1,6,6,#741CD8,#D8271C,0.7,0.3,1,511.8000000119209,1,527.3999999761581,10
11895,experiment,259,2,5,6,#3386FF,#D89F1C,0.5,0.5,1,451.3999999761581,0,430,10
11895,experiment,260,0,5,6,#FA92F8,#1CD855,0.1,0.9,1,704.8999999761581,0,508.800000011921,10
11895,experiment,261,1,2,6,#741CD8,#D8271C,0.7,0.3,1,477.8000000119209,1,449,10
11895,experiment,262,0,6,6,#FA92F8,#1CD855,0.1,0.9,1,488.3999999761581,0,508,0
11895,experiment,263,2,2,6,#D89F1C,#3386FF,0.5,0.5,1,642.7000000476837,1,800,10
11895,experiment,264,1,0,6,#741CD8,#D8271C,0.7,0.3,1,500.5,1,545,10
11895,experiment,265,0,0,6,#1CD855,#FA92F8,0.9,0.1,1,578.3000000119209,1,505,10
11895,experiment,266,1,1,6,#D8271C,#741CD8,0.3,0.7,1,523.0999999642372,0,516.3000000119209,10
11895,experiment,267,2,3,6,#3386FF,#D89F1C,0.5,0.5,1,632.1999999880791,0,573.8999999761581,10
11895,experiment,268,0,3,6,#FA92F8,#1CD855,0.1,0.9,0,1450.4000000357628,0,474.300000011921,10
11895,experiment,269,1,5,6,#741CD8,#D8271C,0.7,0.3,1,600.5999999642372,1,559.6999999880791,0
11895,experiment,270,0,1,6,#FA92F8,#1CD855,0.1,0.9,1,644.3000000119209,0,476.60000002384186,10
11895,experiment,271,2,6,7,#3386FF,#D89F1C,0.5,0.5,1,471,0,623.3000000119209,0
11895,experiment,272,2,4,7,#D89F1C,#3386FF,0.5,0.5,1,427.9000000357628,1,488.7999999523163,0
11895,experiment,273,0,2,7,#1CD855,#FA92F8,0.9,0.1,1,701.6999999880791,1,500.39999997615814,10
11895,experiment,274,2,4,7,#D89F1C,#3386FF,0.5,0.5,1,400.9000000357628,0,432.800000011921,10
11895,experiment,275,2,5,7,#D89F1C,#3386FF,0.5,0.5,1,345.0999999642372,0,498.89999997615814,10
11895,experiment,276,1,4,7,#741CD8,#D8271C,0.7,0.3,1,578.9000000357628,1,465.5,0
11895,experiment,277,2,0,7,#3386FF,#D89F1C,0.5,0.5,1,307.30000001192093,1,646.4000000357628,10
11895,experiment,278,0,2,7,#FA92F8,#1CD855,0.1,0.9,1,511.1999999880791,1,524,0
11895,experiment,279,2,1,7,#D89F1C,#3386FF,0.5,0.5,1,357.5,0,620.3999999761581,0
11895,experiment,280,1,3,7,#D8271C,#741CD8,0.3,0.7,1,396.4000000357628,0,426.300000011921,0
11895,experiment,281,0,4,7,#1CD855,#FA92F8,0.9,0.1,1,626.3000000119209,1,558.2999999523163,10
11895,experiment,282,1,0,7,#741CD8,#D8271C,0.7,0.3,1,513.3000000119209,1,652.1999999880791,10
11895,experiment,283,0,1,7,#FA92F8,#1CD855,0.1,0.9,1,756.8000000119209,0,747.6000000238419,10
11895,experiment,284,2,3,7,#D89F1C,#3386FF,0.5,0.5,1,421.10000002384186,1,756.8000000119209,10
11895,experiment,285,1,6,7,#D8271C,#741CD8,0.3,0.7,1,425.3000000119209,0,555.8000000119209,0
11895,experiment,286,0,5,7,#1CD855,#FA92F8,0.9,0.1,1,370.60000002384186,0,983.899999976158,0
11895,experiment,287,1,2,7,#D8271C,#741CD8,0.3,0.7,1,303.69999998807907,0,498.5,10
11895,experiment,288,1,1,7,#741CD8,#D8271C,0.7,0.3,1,303.5,1,440.89999997615814,10
11895,experiment,289,2,2,7,#3386FF,#D89F1C,0.5,0.5,1,444.5999999642372,1,515.7000000476837,0
11895,experiment,290,0,3,7,#FA92F8,#1CD855,0.1,0.9,1,379.8000000119209,1,687.3999999761581,0
11895,experiment,291,2,6,7,#D89F1C,#3386FF,0.5,0.5,1,250.4000000357628,0,495,10
11895,experiment,292,0,6,7,#FA92F8,#1CD855,0.1,0.9,1,328.5,0,471.699999988079,10
11895,experiment,293,1,5,7,#741CD8,#D8271C,0.7,0.3,1,572.4000000357628,1,577.8999999761581,10
11895,experiment,294,0,0,7,#1CD855,#FA92F8,0.9,0.1,1,345.19999998807907,0,1059.5,0
11895,experiment,295,2,1,7,#3386FF,#D89F1C,0.5,0.5,1,395.8000000119209,1,704.0999999642372,0
11895,experiment,296,1,2,7,#741CD8,#D8271C,0.7,0.3,1,552.2000000476837,1,605.6000000238419,10
11895,experiment,297,2,0,7,#3386FF,#D89F1C,0.5,0.5,1,590.0999999642372,0,769.1999999880791,10
11895,experiment,298,0,3,7,#FA92F8,#1CD855,0.1,0.9,1,564.9000000357628,1,796.3000000119209,0
11895,experiment,299,2,4,7,#3386FF,#D89F1C,0.5,0.5,1,652,1,780.4000000357628,0
11895,experiment,300,2,3,7,#D89F1C,#3386FF,0.5,0.5,1,355.39999997615814,0,376.39999997615814,10
11895,experiment,301,1,1,7,#741CD8,#D8271C,0.7,0.3,1,470.3000000119209,1,650.5999999642372,10
11895,experiment,302,1,5,7,#D8271C,#741CD8,0.3,0.7,1,510.1999999880791,0,510.0999999642372,0
11895,experiment,303,0,5,7,#1CD855,#FA92F8,0.9,0.1,1,278.5,1,425.199999988079,10
11895,experiment,304,2,6,7,#3386FF,#D89F1C,0.5,0.5,1,314.69999998807907,0,543.2999999523163,10
11895,experiment,305,0,6,7,#1CD855,#FA92F8,0.9,0.1,1,317.10000002384186,0,681.6999999880791,0
11895,experiment,306,1,6,7,#741CD8,#D8271C,0.7,0.3,1,289.5999999642372,1,514,10
11895,experiment,307,2,2,7,#3386FF,#D89F1C,0.5,0.5,1,563.3999999761581,0,416.199999988079,10
11895,experiment,308,0,0,7,#FA92F8,#1CD855,0.1,0.9,0,635.6999999880791,1,603,0
11895,experiment,309,1,3,7,#D8271C,#741CD8,0.3,0.7,1,354.19999998807907,0,523.5,0
11895,experiment,310,0,1,7,#FA92F8,#1CD855,0.1,0.9,0,1069,0,546.3999999761581,10
11895,experiment,311,2,5,7,#D89F1C,#3386FF,0.5,0.5,0,884.7999999523163,1,548.8999999761581,0
11895,experiment,312,0,4,7,#FA92F8,#1CD855,0.1,0.9,1,450.5,0,525.6000000238419,10
11895,experiment,313,0,2,7,#1CD855,#FA92F8,0.9,0.1,0,974.5,0,558,0
11895,experiment,314,1,0,7,#741CD8,#D8271C,0.7,0.3,1,765.5,1,502.7999999523163,10
11895,experiment,315,1,4,7,#741CD8,#D8271C,0.7,0.3,1,400.8000000119209,1,646.2999999523163,10
12010,experiment,1,0,0,1,#3386FF,#D89F1C,0.9,0.1,1,2797,1,2125.099999964237,10
12010,experiment,2,2,6,1,#D8271C,#741CD8,0.5,0.5,1,2048.099999964237,1,1830.7999999523165,10
12010,experiment,3,2,5,1,#741CD8,#D8271C,0.5,0.5,0,1827,0,1944.899999976158,10
12010,experiment,4,1,0,1,#1CD855,#FA92F8,0.7,0.3,0,2703.300000011921,0,1402.199999988079,0
12010,experiment,5,0,1,1,#3386FF,#D89F1C,0.9,0.1,1,1012.5,1,1186.899999976158,10
12010,experiment,6,1,4,1,#FA92F8,#1CD855,0.3,0.7,1,1382.399999976158,1,948.1999999880792,0
12010,experiment,7,2,2,1,#D8271C,#741CD8,0.5,0.5,0,1608.9000000357628,0,1669.2000000476835,10
12010,experiment,8,0,3,1,#D89F1C,#3386FF,0.1,0.9,0,1520.800000011921,1,1149.300000011921,0
12010,experiment,9,2,1,1,#D8271C,#741CD8,0.5,0.5,0,2066.599999964237,0,852.3000000119209,10
12010,experiment,10,1,5,1,#FA92F8,#1CD855,0.3,0.7,1,776.9000000357628,1,1423.5,0
12010,experiment,11,1,2,1,#FA92F8,#1CD855,0.3,0.7,1,1422.4000000357628,0,809,10
12010,experiment,12,0,2,1,#D89F1C,#3386FF,0.1,0.9,1,2855.5,0,1249.2999999523165,10
12010,experiment,13,1,1,1,#FA92F8,#1CD855,0.3,0.7,0,1901.899999976158,1,999,10
12010,experiment,14,2,4,1,#741CD8,#D8271C,0.5,0.5,1,2910.7999999523163,0,1111.300000011921,10
12010,experiment,15,0,5,1,#3386FF,#D89F1C,0.9,0.1,0,1696.4000000357628,0,990.9000000357628,0
12010,experiment,16,2,3,1,#741CD8,#D8271C,0.5,0.5,0,2154.5,0,1159.399999976158,10
12010,experiment,17,1,3,1,#FA92F8,#1CD855,0.3,0.7,1,1102.5,0,1777,0
12010,experiment,18,0,6,1,#3386FF,#D89F1C,0.9,0.1,0,2358.5,0,1086.4000000357628,0
12010,experiment,19,0,4,1,#3386FF,#D89F1C,0.9,0.1,1,928.5,1,806.2999999523163,10
12010,experiment,20,2,0,1,#D8271C,#741CD8,0.5,0.5,1,2496.5,0,734.5,10
12010,experiment,21,1,6,1,#FA92F8,#1CD855,0.3,0.7,0,927,0,901.3000000119208,10
12010,experiment,22,1,2,1,#1CD855,#FA92F8,0.7,0.3,0,1493.5,0,774.5,10
12010,experiment,23,1,4,1,#FA92F8,#1CD855,0.3,0.7,1,794.3000000119209,0,1287.100000023842,10
12010,experiment,24,0,2,1,#3386FF,#D89F1C,0.9,0.1,0,1224.399999976158,1,871.5,10
12010,experiment,25,0,3,1,#D89F1C,#3386FF,0.1,0.9,0,1208.699999988079,0,693.1999999880791,10
12010,experiment,26,2,1,1,#D8271C,#741CD8,0.5,0.5,1,846.5,0,673.9000000357628,10
12010,experiment,27,0,4,1,#D89F1C,#3386FF,0.1,0.9,0,1005.600000023842,1,1254.7999999523165,0
12010,experiment,28,1,1,1,#FA92F8,#1CD855,0.3,0.7,0,1249.100000023842,0,708.8000000119209,10
12010,experiment,29,0,6,1,#D89F1C,#3386FF,0.1,0.9,1,757.6999999880791,0,628.5,10
12010,experiment,30,2,2,1,#741CD8,#D8271C,0.5,0.5,1,628.5,0,524.7999999523163,0
12010,experiment,31,0,1,1,#D89F1C,#3386FF,0.1,0.9,1,711.8999999761581,1,559.6000000238419,0
12010,experiment,32,1,6,1,#1CD855,#FA92F8,0.7,0.3,0,1470,1,1182.2000000476835,10
12010,experiment,33,2,4,1,#D8271C,#741CD8,0.5,0.5,0,1343.7000000476835,0,654.3999999761581,0
12010,experiment,34,2,5,1,#741CD8,#D8271C,0.5,0.5,1,789,1,1296.5999999642372,10
12010,experiment,35,2,0,1,#741CD8,#D8271C,0.5,0.5,0,1443.0999999642372,0,1366.100000023842,10
12010,experiment,36,0,0,1,#D89F1C,#3386FF,0.1,0.9,1,1231.7000000476835,1,669.5,0
12010,experiment,37,1,5,1,#1CD855,#FA92F8,0.7,0.3,1,2165.5,1,2080,10
12010,experiment,38,1,0,1,#FA92F8,#1CD855,0.3,0.7,0,1916.800000011921,0,774.8000000119209,10
12010,experiment,39,2,3,1,#D8271C,#741CD8,0.5,0.5,0,2122.400000035763,1,926.399999976158,10
12010,experiment,40,0,5,1,#D89F1C,#3386FF,0.1,0.9,1,661.6999999880791,0,798.7000000476837,10
12010,experiment,41,1,3,1,#1CD855,#FA92F8,0.7,0.3,1,2495.099999964237,1,1630.699999988079,0
12010,experiment,42,2,6,1,#741CD8,#D8271C,0.5,0.5,0,1408.100000023842,1,950.5,10
12010,experiment,43,0,4,1,#D89F1C,#3386FF,0.1,0.9,0,1054.5,1,726.6999999880791,0
12010,experiment,44,1,0,1,#1CD855,#FA92F8,0.7,0.3,1,789.9000000357628,0,774.7000000476837,10
12010,experiment,45,1,2,1,#FA92F8,#1CD855,0.3,0.7,1,1240.899999976158,1,919.7000000476836,0
12010,experiment,46,2,2,2,#741CD8,#D8271C,0.5,0.5,0,2735.100000023842,0,832.1999999880791,10
12010,experiment,47,0,6,2,#3386FF,#D89F1C,0.9,0.1,1,1200.5,1,1454.5,10
12010,experiment,48,1,1,2,#FA92F8,#1CD855,0.3,0.7,0,1457.7999999523165,1,1561.0999999642372,0
12010,experiment,49,2,3,2,#741CD8,#D8271C,0.5,0.5,1,2054.300000011921,0,924.9000000357628,10
12010,experiment,50,0,5,2,#3386FF,#D89F1C,0.9,0.1,0,1798.800000011921,0,1079.399999976158,0
12010,experiment,51,1,3,2,#FA92F8,#1CD855,0.3,0.7,1,2109.199999988079,0,2464.099999964237,0
12010,experiment,52,0,0,2,#D89F1C,#3386FF,0.1,0.9,1,2503.800000011921,0,616.5,10
12010,experiment,53,2,6,2,#D8271C,#741CD8,0.5,0.5,1,2154.699999988079,1,895.5,0
12010,experiment,54,1,5,2,#1CD855,#FA92F8,0.7,0.3,1,1794.600000023842,0,888,0
12010,experiment,55,2,5,2,#741CD8,#D8271C,0.5,0.5,1,1721.600000023842,1,685,10
12010,experiment,56,0,2,2,#3386FF,#D89F1C,0.9,0.1,1,1804.5,0,624.6999999880791,0
12010,experiment,57,0,1,2,#D89F1C,#3386FF,0.1,0.9,0,1701.0999999642372,1,1381.800000011921,0
12010,experiment,58,1,6,2,#FA92F8,#1CD855,0.3,0.7,0,1221.0999999642372,1,918.100000023842,0
12010,experiment,59,1,4,2,#FA92F8,#1CD855,0.3,0.7,1,810.3999999761581,0,741.1000000238419,10
12010,experiment,60,2,4,2,#D8271C,#741CD8,0.5,0.5,1,1608.5,1,844.1000000238419,10
12010,experiment,61,2,0,2,#D8271C,#741CD8,0.5,0.5,1,1639,1,622.9000000357628,0
12010,experiment,62,0,3,2,#3386FF,#D89F1C,0.9,0.1,1,1382.4000000357628,0,698.3999999761581,0
12010,experiment,63,2,1,2,#D8271C,#741CD8,0.5,0.5,1,958.600000023842,1,775.3000000119209,10
12010,experiment,64,2,4,2,#D8271C,#741CD8,0.5,0.5,1,1788.199999988079,0,942.399999976158,10
12010,experiment,65,1,0,2,#FA92F8,#1CD855,0.3,0.7,1,1368.600000023842,1,2341,0
12010,experiment,66,0,3,2,#3386FF,#D89F1C,0.9,0.1,0,2775.400000035763,1,1277.600000023842,10
12010,experiment,67,0,6,2,#D89F1C,#3386FF,0.1,0.9,0,2075.699999988079,1,1078.5,0
12010,experiment,68,2,3,2,#D8271C,#741CD8,0.5,0.5,1,2137.5,1,1223.5,10
12010,experiment,69,0,2,2,#3386FF,#D89F1C,0.9,0.1,1,1702.600000023842,0,766,0
12010,experiment,70,1,3,2,#1CD855,#FA92F8,0.7,0.3,1,2421,1,831.0999999642372,10
12010,experiment,71,2,6,2,#741CD8,#D8271C,0.5,0.5,0,3876.100000023842,0,917.100000023842,10
12010,experiment,72,1,1,2,#FA92F8,#1CD855,0.3,0.7,1,1692.699999988079,0,2117.399999976158,0
12010,experiment,73,0,0,2,#3386FF,#D89F1C,0.9,0.1,1,3103.2999999523163,1,1912.9000000357628,0
12010,experiment,74,2,1,2,#741CD8,#D8271C,0.5,0.5,1,2410.100000023842,0,1320.699999988079,0
12010,experiment,75,2,0,2,#D8271C,#741CD8,0.5,0.5,0,2217.5,0,689.0999999642372,0
12010,experiment,76,1,5,2,#1CD855,#FA92F8,0.7,0.3,0,1992.5,0,934.1999999880792,0
12010,experiment,77,0,4,2,#3386FF,#D89F1C,0.9,0.1,1,954.5999999642372,1,926.9000000357628,10
12010,experiment,78,2,5,2,#D8271C,#741CD8,0.5,0.5,1,1171.4000000357628,1,2023.199999988079,10
12010,experiment,79,1,6,2,#FA92F8,#1CD855,0.3,0.7,0,3036.600000023842,0,989.8000000119208,0
12010,experiment,80,0,5,2,#D89F1C,#3386FF,0.1,0.9,1,1392.5,1,1254.699999988079,0
12010,experiment,81,1,4,2,#FA92F8,#1CD855,0.3,0.7,1,2828.099999964237,0,1072,10
12010,experiment,82,1,2,2,#FA92F8,#1CD855,0.3,0.7,1,3424.599999964237,1,1445.800000011921,10
12010,experiment,83,2,2,2,#741CD8,#D8271C,0.5,0.5,0,2063.699999988079,1,855.1999999880791,10
12010,experiment,84,0,1,2,#D89F1C,#3386FF,0.1,0.9,1,1384.899999976158,0,1022.3000000119208,0
12010,experiment,85,0,3,2,#D89F1C,#3386FF,0.1,0.9,1,1648.399999976158,1,1095.199999988079,0
12010,experiment,86,1,0,2,#1CD855,#FA92F8,0.7,0.3,1,2016.0999999642368,1,1165.699999988079,0
12010,experiment,87,0,0,2,#D89F1C,#3386FF,0.1,0.9,1,1350.5,0,519,10
12010,experiment,88,1,3,2,#FA92F8,#1CD855,0.3,0.7,1,712.6000000238419,0,549.7999999523163,10
12010,experiment,89,2,0,2,#741CD8,#D8271C,0.5,0.5,1,855.8999999761581,1,527.1000000238419,10
12010,experiment,90,0,1,2,#3386FF,#D89F1C,0.9,0.1,1,947,0,453,0
12010,experiment,91,1,1,3,#1CD855,#FA92F8,0.7,0.3,1,920.5999999642372,1,1167.399999976158,10
12010,experiment,92,2,6,3,#741CD8,#D8271C,0.5,0.5,1,1039.5,1,500.10000002384186,0
12010,experiment,93,0,6,3,#D89F1C,#3386FF,0.1,0.9,1,640.3000000119209,0,455.199999988079,10
12010,experiment,94,2,3,3,#741CD8,#D8271C,0.5,0.5,1,589.8000000119209,0,430,0
12010,experiment,95,1,2,3,#FA92F8,#1CD855,0.3,0.7,1,509.3000000119209,1,437.7000000476837,0
12010,experiment,96,1,6,3,#FA92F8,#1CD855,0.3,0.7,1,1274.9000000357628,0,424.5,10
12010,experiment,97,0,2,3,#3386FF,#D89F1C,0.9,0.1,1,830.6000000238419,1,423.5,10
12010,experiment,98,2,4,3,#741CD8,#D8271C,0.5,0.5,0,2510.399999976158,1,1030.0999999642372,10
12010,experiment,99,2,5,3,#D8271C,#741CD8,0.5,0.5,0,1268.899999976158,0,894.8000000119209,0
12010,experiment,100,0,5,3,#D89F1C,#3386FF,0.1,0.9,1,1461.5,0,479,0
12010,experiment,101,1,4,3,#1CD855,#FA92F8,0.7,0.3,1,596.5,1,480.10000002384186,10
12010,experiment,102,0,4,3,#3386FF,#D89F1C,0.9,0.1,1,693.1000000238419,1,463.60000002384186,0
12010,experiment,103,2,1,3,#D8271C,#741CD8,0.5,0.5,1,1094.100000023842,0,484.2999999523163,10
12010,experiment,104,1,5,3,#FA92F8,#1CD855,0.3,0.7,1,632.1000000238419,1,845.8000000119209,0
12010,experiment,105,2,2,3,#741CD8,#D8271C,0.5,0.5,1,790.8999999761581,1,2079.399999976158,0
12010,experiment,106,0,4,3,#D89F1C,#3386FF,0.1,0.9,1,876.3000000119209,1,711.1000000238419,0
12010,experiment,107,1,3,3,#1CD855,#FA92F8,0.7,0.3,1,952.9000000357628,0,774.1000000238419,10
12010,experiment,108,0,6,3,#D89F1C,#3386FF,0.1,0.9,0,1236.699999988079,1,774.8000000119209,0
12010,experiment,109,2,3,3,#D8271C,#741CD8,0.5,0.5,1,1611.699999988079,0,544.4000000357628,10
12010,experiment,110,2,5,3,#D8271C,#741CD8,0.5,0.5,1,1606.300000011921,0,605.8000000119209,0
12010,experiment,111,0,2,3,#3386FF,#D89F1C,0.9,0.1,1,943.6999999880792,1,518.9000000357628,10
12010,experiment,112,1,5,3,#FA92F8,#1CD855,0.3,0.7,1,703.8000000119209,1,1253.2000000476835,0
12010,experiment,113,2,4,3,#741CD8,#D8271C,0.5,0.5,1,637.9000000357628,0,1645.300000011921,0
12010,experiment,114,1,4,3,#FA92F8,#1CD855,0.3,0.7,1,712.6000000238419,1,958.8000000119208,0
12010,experiment,115,0,3,3,#D89F1C,#3386FF,0.1,0.9,1,972.8000000119208,1,673.2000000476837,0
12010,experiment,116,1,6,3,#1CD855,#FA92F8,0.7,0.3,1,499.5,0,414.39999997615814,10
12010,experiment,117,2,0,3,#D8271C,#741CD8,0.5,0.5,0,1496.399999976158,1,950.0999999642372,10
12010,experiment,118,0,1,3,#D89F1C,#3386FF,0.1,0.9,0,2087.5,1,998.100000023842,0
12010,experiment,119,2,6,3,#741CD8,#D8271C,0.5,0.5,1,543.3000000119209,0,686.5,10
12010,experiment,120,2,2,3,#741CD8,#D8271C,0.5,0.5,1,603.0999999642372,0,485,10
12010,experiment,121,1,1,3,#FA92F8,#1CD855,0.3,0.7,1,574.2999999523163,1,486.7999999523163,0
12010,experiment,122,1,2,3,#FA92F8,#1CD855,0.3,0.7,1,629.5,0,758.7000000476837,0
12010,experiment,123,0,5,3,#3386FF,#D89F1C,0.9,0.1,1,1221.699999988079,1,660,10
12010,experiment,124,0,0,3,#D89F1C,#3386FF,0.1,0.9,1,1053.699999988079,1,615.5,0
12010,experiment,125,2,1,3,#D8271C,#741CD8,0.5,0.5,1,862.5,0,504.0999999642372,10
12010,experiment,126,1,0,3,#1CD855,#FA92F8,0.7,0.3,1,759.5,0,645.6999999880791,10
12010,experiment,127,0,4,3,#3386FF,#D89F1C,0.9,0.1,1,766.3000000119209,1,526.3000000119209,10
12010,experiment,128,1,0,3,#1CD855,#FA92F8,0.7,0.3,1,627.5,0,439.300000011921,0
12010,experiment,129,1,1,3,#1CD855,#FA92F8,0.7,0.3,1,619.0999999642372,1,527.3000000119209,10
12010,experiment,130,2,5,3,#741CD8,#D8271C,0.5,0.5,1,791.0999999642372,1,526.4000000357628,0
12010,experiment,131,0,1,3,#D89F1C,#3386FF,0.1,0.9,1,616.3999999761581,0,488.4000000357628,10
12010,experiment,132,2,1,3,#741CD8,#D8271C,0.5,0.5,1,1013.100000023842,1,447.10000002384186,10
12010,experiment,133,1,4,3,#1CD855,#FA92F8,0.7,0.3,1,1191.399999976158,0,399.199999988079,0
12010,experiment,134,0,0,3,#3386FF,#D89F1C,0.9,0.1,1,637.6999999880791,1,1853,10
12010,experiment,135,0,5,3,#3386FF,#D89F1C,0.9,0.1,1,1357.5999999642372,0,1076.899999976158,0
12010,experiment,136,2,2,4,#D8271C,#741CD8,0.5,0.5,0,1192.199999988079,0,764.6000000238419,10
12010,experiment,137,1,2,4,#1CD855,#FA92F8,0.7,0.3,1,1534.2999999523165,0,721.4000000357628,10
12010,experiment,138,2,0,4,#741CD8,#D8271C,0.5,0.5,1,1158.399999976158,1,535.8999999761581,0
12010,experiment,139,0,6,4,#3386FF,#D89F1C,0.9,0.1,0,1843.800000011921,1,958.5,10
12010,experiment,140,1,5,4,#1CD855,#FA92F8,0.7,0.3,1,1728.300000011921,0,959.4000000357628,10
12010,experiment,141,2,4,4,#741CD8,#D8271C,0.5,0.5,0,1036.9000000357628,0,872.7000000476837,10
12010,experiment,142,1,3,4,#FA92F8,#1CD855,0.3,0.7,1,1477,1,2630.100000023842,10
12010,experiment,143,0,2,4,#3386FF,#D89F1C,0.9,0.1,1,1376.399999976158,0,502.39999997615814,0
12010,experiment,144,2,3,4,#D8271C,#741CD8,0.5,0.5,0,1425.2000000476835,0,542.0999999642372,0
12010,experiment,145,1,6,4,#1CD855,#FA92F8,0.7,0.3,1,860.8000000119209,1,1926,0
12010,experiment,146,0,3,4,#3386FF,#D89F1C,0.9,0.1,0,2285.699999988079,1,974.8000000119208,10
12010,experiment,147,2,6,4,#D8271C,#741CD8,0.5,0.5,1,1262.100000023842,0,789.9000000357628,0
12010,experiment,148,0,5,4,#D89F1C,#3386FF,0.1,0.9,1,1742.300000011921,1,783.6999999880791,0
12010,experiment,149,1,1,4,#1CD855,#FA92F8,0.7,0.3,0,2261.399999976158,0,935.3000000119208,0
12010,experiment,150,0,0,4,#D89F1C,#3386FF,0.1,0.9,1,3114.899999976158,0,1095.800000011921,10
12010,experiment,151,0,4,4,#D89F1C,#3386FF,0.1,0.9,1,1557.600000023842,1,751.4000000357628,0
12010,experiment,152,2,5,4,#D8271C,#741CD8,0.5,0.5,0,1745,1,967.399999976158,0
12010,experiment,153,1,0,4,#1CD855,#FA92F8,0.7,0.3,1,828.5,0,1278.399999976158,0
12010,experiment,154,0,2,4,#3386FF,#D89F1C,0.9,0.1,1,1391.800000011921,1,1471.699999988079,10
12010,experiment,155,0,1,4,#D89F1C,#3386FF,0.1,0.9,1,2978.300000011921,0,646.5,0
12010,experiment,156,1,3,4,#FA92F8,#1CD855,0.3,0.7,1,1401.399999976158,0,479.800000011921,10
12010,experiment,157,2,4,4,#741CD8,#D8271C,0.5,0.5,0,656.7000000476837,1,887.8000000119209,0
12010,experiment,158,2,0,4,#D8271C,#741CD8,0.5,0.5,1,1972.2999999523165,0,664.5,10
12010,experiment,159,1,6,4,#FA92F8,#1CD855,0.3,0.7,1,708.3000000119209,1,623.4000000357628,10
12010,experiment,160,0,6,4,#3386FF,#D89F1C,0.9,0.1,1,812.5999999642372,0,414.60000002384186,0
12010,experiment,161,1,2,4,#1CD855,#FA92F8,0.7,0.3,1,830.8000000119209,1,853.5,10
12010,experiment,162,2,2,4,#741CD8,#D8271C,0.5,0.5,1,772.5999999642372,1,576,0
12010,experiment,163,2,6,4,#741CD8,#D8271C,0.5,0.5,1,756,0,663,10
12010,experiment,164,2,1,4,#D8271C,#741CD8,0.5,0.5,1,714.6999999880791,1,1168.199999988079,10
12010,experiment,165,0,3,4,#D89F1C,#3386FF,0.1,0.9,1,851.9000000357628,0,662.5,10
12010,experiment,166,1,4,4,#1CD855,#FA92F8,0.7,0.3,1,957.9000000357628,1,485.60000002384186,10
12010,experiment,167,2,3,4,#741CD8,#D8271C,0.5,0.5,1,669.6999999880791,1,575.5,10
12010,experiment,168,1,5,4,#1CD855,#FA92F8,0.7,0.3,1,867.5999999642372,1,503.5999999642372,10
12010,experiment,169,1,1,4,#1CD855,#FA92F8,0.7,0.3,1,650,1,470.2000000476837,0
12010,experiment,170,0,0,4,#D89F1C,#3386FF,0.1,0.9,1,652.0999999642372,0,1037.300000011921,10
12010,experiment,171,0,4,4,#3386FF,#D89F1C,0.9,0.1,1,877,1,440.199999988079,10
12010,experiment,172,1,0,4,#1CD855,#FA92F8,0.7,0.3,1,994.7999999523164,0,1952.7000000476835,0
12010,experiment,173,2,3,4,#D8271C,#741CD8,0.5,0.5,1,1001.899999976158,0,742.6999999880791,10
12010,experiment,174,1,4,4,#FA92F8,#1CD855,0.3,0.7,1,1452.5,0,1327,0
12010,experiment,175,2,4,4,#741CD8,#D8271C,0.5,0.5,1,2884.700000047684,1,733.6999999880791,0
12010,experiment,176,0,2,4,#3386FF,#D89F1C,0.9,0.1,1,1487.600000023842,0,462.5,0
12010,experiment,177,2,6,4,#741CD8,#D8271C,0.5,0.5,1,939.3000000119208,1,581.8999999761581,10
12010,experiment,178,1,2,4,#1CD855,#FA92F8,0.7,0.3,1,956.6999999880792,1,615.3000000119209,10
12010,experiment,179,0,6,4,#D89F1C,#3386FF,0.1,0.9,1,683.8000000119209,0,479.60000002384186,10
12010,experiment,180,1,3,4,#FA92F8,#1CD855,0.3,0.7,1,834.3000000119209,1,437.39999997615814,0
12010,experiment,181,0,1,5,#D89F1C,#3386FF,0.1,0.9,1,737.8000000119209,0,958.600000023842,10
12010,experiment,182,2,2,5,#741CD8,#D8271C,0.5,0.5,1,907.6999999880792,1,452.89999997615814,10
12010,experiment,183,0,5,5,#D89F1C,#3386FF,0.1,0.9,1,1254.5,1,749.5,0
12010,experiment,184,1,5,5,#FA92F8,#1CD855,0.3,0.7,1,981.899999976158,1,550.8999999761581,0
12010,experiment,185,2,1,5,#741CD8,#D8271C,0.5,0.5,1,923.0999999642372,1,527.6999999880791,0
12010,experiment,186,0,3,5,#3386FF,#D89F1C,0.9,0.1,1,1123.4000000357628,0,616.1000000238419,0
12010,experiment,187,2,0,5,#D8271C,#741CD8,0.5,0.5,1,755,0,465.2000000476837,10
12010,experiment,188,2,5,5,#741CD8,#D8271C,0.5,0.5,1,793.2999999523163,1,494,0
12010,experiment,189,1,6,5,#1CD855,#FA92F8,0.7,0.3,1,1643.100000023842,1,1063.699999988079,10
12010,experiment,190,1,0,5,#FA92F8,#1CD855,0.3,0.7,1,2206.400000035763,0,478.2000000476837,0
12010,experiment,191,0,2,5,#D89F1C,#3386FF,0.1,0.9,0,1570,0,741.5,0
12010,experiment,192,0,4,5,#3386FF,#D89F1C,0.9,0.1,1,1207.5,0,2030.899999976158,10
12010,experiment,193,2,3,5,#D8271C,#741CD8,0.5,0.5,1,2469.199999988079,1,2423.5,0
12010,experiment,194,1,4,5,#1CD855,#FA92F8,0.7,0.3,1,2140,1,550,10
12010,experiment,195,2,6,5,#D8271C,#741CD8,0.5,0.5,0,1481.899999976158,0,647.6000000238419,10
12010,experiment,196,0,1,5,#D89F1C,#3386FF,0.1,0.9,1,3725.200000047684,0,2677.800000011921,0
12010,experiment,197,0,0,5,#3386FF,#D89F1C,0.9,0.1,0,1358.4000000357628,1,1740.600000023842,10
12010,experiment,198,2,0,5,#D8271C,#741CD8,0.5,0.5,1,1701.5,0,1399.5,0
12010,experiment,199,1,6,5,#FA92F8,#1CD855,0.3,0.7,1,945.8000000119208,1,1192.300000011921,0
12010,experiment,200,1,3,5,#1CD855,#FA92F8,0.7,0.3,1,515.3999999761581,1,755.9000000357628,0
12010,experiment,201,0,6,5,#D89F1C,#3386FF,0.1,0.9,1,583.6999999880791,0,919.4000000357628,10
12010,experiment,202,0,3,5,#D89F1C,#3386FF,0.1,0.9,1,662.0999999642372,0,567,10
12010,experiment,203,2,2,5,#741CD8,#D8271C,0.5,0.5,1,765.1999999880791,1,510.2999999523163,0
12010,experiment,204,1,5,5,#FA92F8,#1CD855,0.3,0.7,1,549.8999999761581,0,446.0999999642372,0
12010,experiment,205,1,1,5,#1CD855,#FA92F8,0.7,0.3,1,625.8999999761581,0,669.6999999880791,10
12010,experiment,206,2,4,5,#D8271C,#741CD8,0.5,0.5,1,950.8000000119208,0,480.10000002384186,10
12010,experiment,207,0,5,5,#D89F1C,#3386FF,0.1,0.9,1,668.5,1,566.6999999880791,0
12010,experiment,208,1,2,5,#1CD855,#FA92F8,0.7,0.3,1,386.3000000119209,0,1686.4000000357628,10
12010,experiment,209,2,1,5,#741CD8,#D8271C,0.5,0.5,0,1917.699999988079,1,808.8000000119209,10
12010,experiment,210,2,5,5,#D8271C,#741CD8,0.5,0.5,0,1217,1,879.4000000357628,0
12010,experiment,211,0,1,5,#3386FF,#D89F1C,0.9,0.1,1,821.0999999642372,0,534.5,0
12010,experiment,212,2,6,5,#D8271C,#741CD8,0.5,0.5,1,905.899999976158,0,305.5,10
12010,experiment,213,0,5,5,#D89F1C,#3386FF,0.1,0.9,1,1115.600000023842,0,441.4000000357628,10
12010,experiment,214,2,0,5,#741CD8,#D8271C,0.5,0.5,1,769.4000000357628,1,405.0999999642372,0
12010,experiment,215,1,1,5,#1CD855,#FA92F8,0.7,0.3,1,921.8000000119208,1,861.7000000476837,10
12010,experiment,216,0,4,5,#3386FF,#D89F1C,0.9,0.1,1,923.2999999523164,0,521.1999999880791,0
12010,experiment,217,1,6,5,#FA92F8,#1CD855,0.3,0.7,1,807.5,0,597.8000000119209,0
12010,experiment,218,2,1,5,#D8271C,#741CD8,0.5,0.5,1,668.5,0,806,10
12010,experiment,219,2,4,5,#741CD8,#D8271C,0.5,0.5,1,441.10000002384186,1,581.5,0
12010,experiment,220,1,0,5,#FA92F8,#1CD855,0.3,0.7,1,667,0,813.1999999880791,0
12010,experiment,221,0,6,5,#3386FF,#D89F1C,0.9,0.1,1,634.5,0,799.0999999642372,0
12010,experiment,222,2,5,5,#D8271C,#741CD8,0.5,0.5,1,1496.800000011921,0,1799.199999988079,0
12010,experiment,223,2,2,5,#741CD8,#D8271C,0.5,0.5,1,1886.5,1,329.5,10
12010,experiment,224,0,3,5,#3386FF,#D89F1C,0.9,0.1,0,2083.399999976158,0,719,0
12010,experiment,225,1,5,5,#1CD855,#FA92F8,0.7,0.3,0,1217,0,885.5999999642372,10
12010,experiment,226,0,2,6,#3386FF,#D89F1C,0.9,0.1,0,1724.899999976158,0,637.7999999523163,0
12010,experiment,227,2,3,6,#D8271C,#741CD8,0.5,0.5,1,1387.9000000357628,0,974.600000023842,0
12010,experiment,228,0,0,6,#D89F1C,#3386FF,0.1,0.9,1,1340,0,813.9000000357628,10
12010,experiment,229,1,3,6,#FA92F8,#1CD855,0.3,0.7,1,1349.899999976158,1,454.5,0
12010,experiment,230,1,4,6,#FA92F8,#1CD855,0.3,0.7,1,1286.699999988079,0,543.3000000119209,10
12010,experiment,231,1,2,6,#FA92F8,#1CD855,0.3,0.7,1,1029.100000023842,1,591.1000000238419,0
12010,experiment,232,0,6,6,#D89F1C,#3386FF,0.1,0.9,1,1493.899999976158,0,1238.399999976158,0
12010,experiment,233,2,2,6,#D8271C,#741CD8,0.5,0.5,1,1314.600000023842,0,319.69999998807907,10
12010,experiment,234,1,4,6,#1CD855,#FA92F8,0.7,0.3,1,1275.7000000476835,1,280.9000000357628,0
12010,experiment,235,1,1,6,#1CD855,#FA92F8,0.7,0.3,1,597.3000000119209,0,1119.399999976158,0
12010,experiment,236,0,4,6,#D89F1C,#3386FF,0.1,0.9,1,1063.300000011921,0,493.800000011921,10
12010,experiment,237,2,3,6,#D8271C,#741CD8,0.5,0.5,1,946.100000023842,0,412.0999999642372,10
12010,experiment,238,1,3,6,#1CD855,#FA92F8,0.7,0.3,1,729,1,423.10000002384186,0
12010,experiment,239,0,5,6,#D89F1C,#3386FF,0.1,0.9,1,867.5,0,461.699999988079,10
12010,experiment,240,2,5,6,#D8271C,#741CD8,0.5,0.5,1,728.3999999761581,0,454.5,10
12010,experiment,241,2,4,6,#D8271C,#741CD8,0.5,0.5,1,759.3999999761581,1,430.699999988079,0
12010,experiment,242,1,6,6,#1CD855,#FA92F8,0.7,0.3,1,945.100000023842,0,797.5,0
12010,experiment,243,0,2,6,#D89F1C,#3386FF,0.1,0.9,1,995.1999999880792,0,264.69999998807907,0
12010,experiment,244,0,1,6,#D89F1C,#3386FF,0.1,0.9,1,675.9000000357628,1,262.5999999642372,0
12010,experiment,245,2,0,6,#D8271C,#741CD8,0.5,0.5,1,1179.399999976158,0,398.7999999523163,0
12010,experiment,246,1,2,6,#FA92F8,#1CD855,0.3,0.7,1,1080.600000023842,1,1429.7000000476835,0
12010,experiment,247,0,3,6,#3386FF,#D89F1C,0.9,0.1,1,1055.600000023842,0,829.8000000119209,0
12010,experiment,248,1,5,6,#1CD855,#FA92F8,0.7,0.3,0,1532.699999988079,1,718.3000000119209,10
12010,experiment,249,2,6,6,#D8271C,#741CD8,0.5,0.5,0,1853.800000011921,1,1138.300000011921,0
12010,experiment,250,1,0,6,#FA92F8,#1CD855,0.3,0.7,1,879.5999999642372,0,384.0999999642372,10
12010,experiment,251,0,0,6,#3386FF,#D89F1C,0.9,0.1,1,1603.300000011921,0,1247,0
12010,experiment,252,2,1,6,#741CD8,#D8271C,0.5,0.5,0,2624,1,983,0
12010,experiment,253,0,5,6,#D89F1C,#3386FF,0.1,0.9,0,1824.699999988079,0,735.1000000238419,10
12010,experiment,254,1,3,6,#1CD855,#FA92F8,0.7,0.3,1,1313.4000000357628,0,1406.399999976158,0
12010,experiment,255,2,0,6,#741CD8,#D8271C,0.5,0.5,1,3286.899999976158,1,3150.199999988079,10
12010,experiment,256,1,2,6,#1CD855,#FA92F8,0.7,0.3,1,2473.300000011921,0,422.5,10
12010,experiment,257,1,1,6,#1CD855,#FA92F8,0.7,0.3,1,3312.800000011921,1,703.6000000238419,0
12010,experiment,258,0,0,6,#D89F1C,#3386FF,0.1,0.9,1,1116.7999999523165,0,302.89999997615814,0
12010,experiment,259,2,5,6,#741CD8,#D8271C,0.5,0.5,1,1085.800000011921,1,287.5,0
12010,experiment,260,0,6,6,#D89F1C,#3386FF,0.1,0.9,1,678.6999999880791,1,431.89999997615814,0
12010,experiment,261,2,1,6,#D8271C,#741CD8,0.5,0.5,1,879.5999999642372,0,601,0
12010,experiment,262,1,4,6,#1CD855,#FA92F8,0.7,0.3,1,1045.800000011921,1,279.30000001192093,10
12010,experiment,263,0,1,6,#D89F1C,#3386FF,0.1,0.9,1,635.4000000357628,0,256.19999998807907,10
12010,experiment,264,1,5,6,#1CD855,#FA92F8,0.7,0.3,1,862.8000000119209,1,416,10
12010,experiment,265,2,2,6,#741CD8,#D8271C,0.5,0.5,1,825.9000000357628,1,342.5999999642372,10
12010,experiment,266,0,4,6,#D89F1C,#3386FF,0.1,0.9,1,1757.5,1,1062.800000011921,0
12010,experiment,267,0,2,6,#3386FF,#D89F1C,0.9,0.1,1,975.8000000119208,1,589.5999999642372,10
12010,experiment,268,1,0,6,#1CD855,#FA92F8,0.7,0.3,1,601.6999999880791,0,543.1000000238419,0
12010,experiment,269,2,6,6,#741CD8,#D8271C,0.5,0.5,1,1026.9000000357628,1,1520.100000023842,0
12010,experiment,270,2,3,6,#D8271C,#741CD8,0.5,0.5,1,1211.800000011921,0,559.1999999880791,0
12010,experiment,271,0,3,7,#3386FF,#D89F1C,0.9,0.1,0,1795.7000000476835,0,625,0
12010,experiment,272,1,6,7,#FA92F8,#1CD855,0.3,0.7,0,1755.4000000357628,0,621.7999999523163,10
12010,experiment,273,2,4,7,#D8271C,#741CD8,0.5,0.5,0,1772.100000023842,1,814.5999999642372,10
12010,experiment,274,0,0,7,#3386FF,#D89F1C,0.9,0.1,1,1830.5,1,828.6999999880791,10
12010,experiment,275,2,1,7,#D8271C,#741CD8,0.5,0.5,1,1713.899999976158,0,542.1000000238419,0
12010,experiment,276,0,6,7,#3386FF,#D89F1C,0.9,0.1,1,1019.3000000119208,1,596.5999999642372,0
12010,experiment,277,1,6,7,#FA92F8,#1CD855,0.3,0.7,1,827.8999999761581,0,527.1000000238419,10
12010,experiment,278,2,2,7,#D8271C,#741CD8,0.5,0.5,1,1026.4000000357628,0,358.30000001192093,10
12010,experiment,279,1,2,7,#FA92F8,#1CD855,0.3,0.7,1,783.5,1,350.89999997615814,10
12010,experiment,280,1,1,7,#FA92F8,#1CD855,0.3,0.7,1,764.9000000357628,0,646.3999999761581,10
12010,experiment,281,0,4,7,#D89F1C,#3386FF,0.1,0.9,1,980.399999976158,0,2285.900000035763,10
12010,experiment,282,2,3,7,#741CD8,#D8271C,0.5,0.5,1,1582.199999988079,1,679.5,0
12010,experiment,283,0,2,7,#3386FF,#D89F1C,0.9,0.1,1,794.9000000357628,0,472.300000011921,0
12010,experiment,284,1,5,7,#FA92F8,#1CD855,0.3,0.7,1,720.3000000119209,0,574.3999999761581,10
12010,experiment,285,2,4,7,#D8271C,#741CD8,0.5,0.5,1,1176.5,0,462.60000002384186,10
12010,experiment,286,2,0,7,#741CD8,#D8271C,0.5,0.5,1,1631,1,621.5999999642372,0
12010,experiment,287,1,3,7,#1CD855,#FA92F8,0.7,0.3,1,1005.600000023842,0,367.0999999642372,10
12010,experiment,288,0,5,7,#3386FF,#D89F1C,0.9,0.1,1,659.8000000119209,0,383.199999988079,0
12010,experiment,289,0,1,7,#3386FF,#D89F1C,0.9,0.1,1,526.6999999880791,1,398.699999988079,10
12010,experiment,290,2,6,7,#741CD8,#D8271C,0.5,0.5,1,525,0,414.800000011921,10
12010,experiment,291,2,5,7,#741CD8,#D8271C,0.5,0.5,1,907.1999999880792,1,510.300000011921,0
12010,experiment,292,1,4,7,#FA92F8,#1CD855,0.3,0.7,0,1402.4000000357628,0,926.4000000357628,10
12010,experiment,293,1,0,7,#FA92F8,#1CD855,0.3,0.7,1,2221.600000023842,0,846.5,10
12010,experiment,294,0,3,7,#D89F1C,#3386FF,0.1,0.9,1,738.4000000357628,0,720.1999999880791,10
12010,experiment,295,2,4,7,#741CD8,#D8271C,0.5,0.5,0,1374.199999988079,1,757.6999999880791,0
12010,experiment,296,0,6,7,#D89F1C,#3386FF,0.1,0.9,0,1608.300000011921,0,646.3000000119209,10
12010,experiment,297,1,6,7,#FA92F8,#1CD855,0.3,0.7,0,1294.699999988079,1,950.1999999880792,0
12010,experiment,298,2,1,7,#741CD8,#D8271C,0.5,0.5,1,1753.800000011921,0,798.7000000476837,10
12010,experiment,299,0,2,7,#3386FF,#D89F1C,0.9,0.1,1,3041.300000011921,0,782.8999999761581,0
12010,experiment,300,2,6,7,#D8271C,#741CD8,0.5,0.5,1,3295.2999999523163,0,3424,10
12010,experiment,301,1,5,7,#FA92F8,#1CD855,0.3,0.7,0,2081.7999999523163,1,733.8000000119209,0
12010,experiment,302,0,0,7,#D89F1C,#3386FF,0.1,0.9,1,1464.5,0,502.199999988079,10
12010,experiment,303,1,2,7,#1CD855,#FA92F8,0.7,0.3,1,1273.2999999523165,1,414.7999999523163,10
12010,experiment,304,2,2,7,#741CD8,#D8271C,0.5,0.5,1,2186,1,477.300000011921,0
12010,experiment,305,1,4,7,#FA92F8,#1CD855,0.3,0.7,1,1540.800000011921,0,549,10
12010,experiment,306,2,0,7,#D8271C,#741CD8,0.5,0.5,1,2099,1,1071.300000011921,10
12010,experiment,307,0,4,7,#3386FF,#D89F1C,0.9,0.1,1,1760.2999999523165,1,733.0999999642372,10
12010,experiment,308,0,5,7,#D89F1C,#3386FF,0.1,0.9,1,749.8000000119209,1,628.3000000119209,0
12010,experiment,309,2,3,7,#D8271C,#741CD8,0.5,0.5,1,713.1000000238419,0,899.8000000119209,0
12010,experiment,310,1,3,7,#FA92F8,#1CD855,0.3,0.7,1,1016.3000000119208,0,501.7999999523163,10
12010,experiment,311,0,3,7,#D89F1C,#3386FF,0.1,0.9,1,631.7000000476837,0,461.5999999642372,10
12010,experiment,312,0,1,7,#D89F1C,#3386FF,0.1,0.9,0,675.6000000238419,1,952.3000000119208,0
12010,experiment,313,1,1,7,#FA92F8,#1CD855,0.3,0.7,1,2304.100000023842,0,477.800000011921,0
12010,experiment,314,2,5,7,#D8271C,#741CD8,0.5,0.5,1,565.8000000119209,0,494.199999988079,0
12010,experiment,315,1,0,7,#1CD855,#FA92F8,0.7,0.3,1,457.1999999880791,1,477.2000000476837,10
11778,experiment,1,2,2,1,#3386FF,#D89F1C,0.5,0.5,1,8299.600000023842,1,2694.6999999284744,10
11778,experiment,2,0,2,1,#1CD855,#FA92F8,0.1,0.9,0,2994.8000000715256,1,942.399999976158,0
11778,experiment,3,1,6,1,#741CD8,#D8271C,0.3,0.7,1,2097,1,613.2999999523163,0
11778,experiment,4,0,0,1,#FA92F8,#1CD855,0.9,0.1,0,5191.700000047684,0,526.2000000476837,10
11778,experiment,5,0,4,1,#FA92F8,#1CD855,0.9,0.1,0,1437.8000000715256,0,1094.5,0
11778,experiment,6,2,5,1,#D89F1C,#3386FF,0.5,0.5,1,1292.399999976158,0,701.3999999761581,0
11778,experiment,7,0,6,1,#FA92F8,#1CD855,0.9,0.1,1,1334.399999976158,0,2038.3000000715256,0
11778,experiment,8,1,1,1,#741CD8,#D8271C,0.3,0.7,1,1748.7000000476835,0,583.6000000238419,10
11778,experiment,9,0,1,1,#1CD855,#FA92F8,0.1,0.9,1,1988.899999976158,0,1247.600000023842,10
11778,experiment,10,2,4,1,#3386FF,#D89F1C,0.5,0.5,1,1078.2000000476835,0,559.1000000238419,0
11778,experiment,11,2,1,1,#3386FF,#D89F1C,0.5,0.5,1,1582.399999976158,1,591.6000000238419,0
11778,experiment,12,0,5,1,#1CD855,#FA92F8,0.1,0.9,1,1126.5,0,760.2999999523163,10
11778,experiment,13,1,0,1,#741CD8,#D8271C,0.3,0.7,1,853.9000000953674,0,583.6000000238419,0
11778,experiment,14,1,4,1,#741CD8,#D8271C,0.3,0.7,1,630.3000000715256,0,463.10000002384186,10
11778,experiment,15,2,0,1,#D89F1C,#3386FF,0.5,0.5,1,806.8000000715256,0,1198.600000023842,0
11778,experiment,16,2,3,1,#3386FF,#D89F1C,0.5,0.5,1,724.3999999761581,1,527.3999999761581,10
11778,experiment,17,0,3,1,#FA92F8,#1CD855,0.9,0.1,1,909,1,423.60000002384186,10
11778,experiment,18,1,2,1,#741CD8,#D8271C,0.3,0.7,1,997.7999999523164,0,2870.5,10
11778,experiment,19,1,3,1,#D8271C,#741CD8,0.7,0.3,0,645.3999999761581,1,599.2999999523163,10
11778,experiment,20,2,6,1,#D89F1C,#3386FF,0.5,0.5,0,446.10000002384186,1,612.8999999761581,10
11778,experiment,21,1,5,1,#D8271C,#741CD8,0.7,0.3,0,519.1000000238419,1,279,0
11778,experiment,22,0,1,1,#1CD855,#FA92F8,0.1,0.9,0,350.2000000476837,0,591.6000000238419,10
11778,experiment,23,1,5,1,#D8271C,#741CD8,0.7,0.3,0,365.2000000476837,0,535.3999999761581,0
11778,experiment,24,0,5,1,#FA92F8,#1CD855,0.9,0.1,0,301.8000000715256,1,566.6999999284744,10
11778,experiment,25,1,4,1,#D8271C,#741CD8,0.7,0.3,0,452.8000000715256,0,556.8999999761581,10
11778,experiment,26,2,6,1,#D89F1C,#3386FF,0.5,0.5,0,640,1,486.2999999523163,0
11778,experiment,27,1,0,1,#D8271C,#741CD8,0.7,0.3,1,727.1000000238419,1,1182,10
11778,experiment,28,2,5,1,#D89F1C,#3386FF,0.5,0.5,1,356.5,1,645.3999999761581,10
11778,experiment,29,0,6,1,#FA92F8,#1CD855,0.9,0.1,1,487.5,1,678.1000000238419,10
11778,experiment,30,1,1,1,#D8271C,#741CD8,0.7,0.3,1,670.2999999523163,1,534.2000000476837,10
11778,experiment,31,2,4,1,#D89F1C,#3386FF,0.5,0.5,1,333.60000002384186,1,408.5,10
11778,experiment,32,2,3,1,#D89F1C,#3386FF,0.5,0.5,1,590.3999999761581,1,534.5,10
11778,experiment,33,0,0,1,#FA92F8,#1CD855,0.9,0.1,1,284.7999999523163,1,1767,10
11778,experiment,34,0,2,1,#1CD855,#FA92F8,0.1,0.9,1,493,0,407.89999997615814,10
11778,experiment,35,1,2,1,#741CD8,#D8271C,0.3,0.7,1,224.8000000715256,0,703,10
11778,experiment,36,2,0,1,#3386FF,#D89F1C,0.5,0.5,1,486.7999999523163,0,463,0
11778,experiment,37,0,3,1,#FA92F8,#1CD855,0.9,0.1,1,902.899999976158,1,519,10
11778,experiment,38,1,3,1,#D8271C,#741CD8,0.7,0.3,1,581.3000000715256,1,838.6000000238419,10
11778,experiment,39,0,4,1,#FA92F8,#1CD855,0.9,0.1,1,605.8999999761581,1,535.2999999523163,10
11778,experiment,40,2,2,1,#3386FF,#D89F1C,0.5,0.5,1,583,0,615.6000000238419,0
11778,experiment,41,1,6,1,#D8271C,#741CD8,0.7,0.3,1,731.5,1,854.5,10
11778,experiment,42,2,1,1,#3386FF,#D89F1C,0.5,0.5,1,510.5,1,392.10000002384186,10
11778,experiment,43,2,3,1,#3386FF,#D89F1C,0.5,0.5,1,566.2999999523163,1,511,0
11778,experiment,44,0,5,1,#1CD855,#FA92F8,0.1,0.9,1,901.600000023842,0,1102.899999976158,10
11778,experiment,45,1,6,1,#D8271C,#741CD8,0.7,0.3,1,801.6000000238419,1,558.1000000238419,10
11778,experiment,46,2,5,2,#D89F1C,#3386FF,0.5,0.5,1,947.0999999046326,0,815,0
11778,experiment,47,1,0,2,#D8271C,#741CD8,0.7,0.3,1,1173.2999999523165,0,1583,10
11778,experiment,48,0,1,2,#FA92F8,#1CD855,0.9,0.1,1,815.8999999761581,1,670.7999999523163,10
11778,experiment,49,0,0,2,#FA92F8,#1CD855,0.9,0.1,1,788.5,1,470.89999997615814,10
11778,experiment,50,2,4,2,#3386FF,#D89F1C,0.5,0.5,1,552.7999999523163,1,904.100000023842,0
11778,experiment,51,0,6,2,#1CD855,#FA92F8,0.1,0.9,1,620.6000000238419,0,1815,10
11778,experiment,52,1,5,2,#D8271C,#741CD8,0.7,0.3,1,782.5,1,478.89999997615814,0
11778,experiment,53,2,2,2,#3386FF,#D89F1C,0.5,0.5,1,870.0999999046326,0,446.39999997615814,0
11778,experiment,54,0,3,2,#FA92F8,#1CD855,0.9,0.1,1,573,1,368.7999999523163,10
11778,experiment,55,1,1,2,#741CD8,#D8271C,0.3,0.7,1,493.7999999523163,0,365.7000000476837,10
11778,experiment,56,2,1,2,#D89F1C,#3386FF,0.5,0.5,1,677.8999999761581,1,854.7000000476837,10
11778,experiment,57,2,0,2,#D89F1C,#3386FF,0.5,0.5,1,470,1,478.7000000476837,0
11778,experiment,58,0,2,2,#FA92F8,#1CD855,0.9,0.1,1,348.40000009536743,0,1880.0999999046328,0
11778,experiment,59,1,3,2,#D8271C,#741CD8,0.7,0.3,1,461,1,1959.5,10
11778,experiment,60,1,2,2,#D8271C,#741CD8,0.7,0.3,1,566.3000000715256,1,518.8999999761581,0
11778,experiment,61,2,6,2,#D89F1C,#3386FF,0.5,0.5,0,462.6999999284744,0,582.6000000238419,10
11778,experiment,62,1,4,2,#741CD8,#D8271C,0.3,0.7,0,189.69999992847443,0,726.6000000238419,10
11778,experiment,63,0,4,2,#FA92F8,#1CD855,0.9,0.1,0,262.2999999523163,0,398.7999999523163,0
11778,experiment,64,1,6,2,#D8271C,#741CD8,0.7,0.3,1,523.2999999523163,1,761,10
11778,experiment,65,1,2,2,#D8271C,#741CD8,0.7,0.3,1,2259.100000023842,1,366.6999999284744,0
11778,experiment,66,0,4,2,#1CD855,#FA92F8,0.1,0.9,1,326.8000000715256,0,502.5,10
11778,experiment,67,0,0,2,#1CD855,#FA92F8,0.1,0.9,1,331.60000002384186,0,391.60000002384186,10
11778,experiment,68,2,0,2,#D89F1C,#3386FF,0.5,0.5,1,318.39999997615814,1,526.8999999761581,0
11778,experiment,69,1,4,2,#D8271C,#741CD8,0.7,0.3,1,218.60000002384183,0,511,0
11778,experiment,70,0,1,2,#FA92F8,#1CD855,0.9,0.1,1,286.39999997615814,1,566.5999999046326,10
11778,experiment,71,1,1,2,#D8271C,#741CD8,0.7,0.3,1,278.60000002384186,1,533.8999999761581,10
11778,experiment,72,0,3,2,#FA92F8,#1CD855,0.9,0.1,1,245.60000002384183,1,534.3999999761581,10
11778,experiment,73,2,4,2,#D89F1C,#3386FF,0.5,0.5,1,391.60000002384186,1,868.7999999523163,0
11778,experiment,74,1,3,2,#D8271C,#741CD8,0.7,0.3,1,317.5,1,1022.399999976158,10
11778,experiment,75,2,2,2,#3386FF,#D89F1C,0.5,0.5,1,342.09999990463257,1,999.100000023842,10
11778,experiment,76,0,5,2,#1CD855,#FA92F8,0.1,0.9,1,430.60000002384186,0,534.6000000238419,10
11778,experiment,77,2,5,2,#3386FF,#D89F1C,0.5,0.5,1,366.3999999761581,1,558.5999999046326,10
11778,experiment,78,0,2,2,#1CD855,#FA92F8,0.1,0.9,1,646,0,527.6000000238419,10
11778,experiment,79,1,0,2,#D8271C,#741CD8,0.7,0.3,1,453.3999999761581,0,1095.2000000476835,0
11778,experiment,80,2,1,2,#D89F1C,#3386FF,0.5,0.5,1,367.10000002384186,0,687.6000000238419,0
11778,experiment,81,1,5,2,#741CD8,#D8271C,0.3,0.7,1,781.7000000476837,1,911.7000000476836,10
11778,experiment,82,2,6,2,#D89F1C,#3386FF,0.5,0.5,1,622.1000000238419,0,878.3999999761581,10
11778,experiment,83,0,6,2,#FA92F8,#1CD855,0.9,0.1,1,1054.399999976158,1,562.6999999284744,10
11778,experiment,84,2,3,2,#3386FF,#D89F1C,0.5,0.5,1,1317.5,1,414.39999997615814,10
11778,experiment,85,2,1,2,#D89F1C,#3386FF,0.5,0.5,1,896.3000000715256,0,518.8000000715256,10
11778,experiment,86,1,6,2,#741CD8,#D8271C,0.3,0.7,1,1125.7999999523165,1,343.3000000715256,0
11778,experiment,87,0,6,2,#FA92F8,#1CD855,0.9,0.1,1,563.1000000238419,1,350.7000000476837,10
11778,experiment,88,1,0,2,#D8271C,#741CD8,0.7,0.3,1,518.9000000953674,1,478,10
11778,experiment,89,2,3,2,#3386FF,#D89F1C,0.5,0.5,1,598,1,822.7999999523163,0
11778,experiment,90,1,5,2,#D8271C,#741CD8,0.7,0.3,1,1079.5999999046326,1,1015.399999976158,10
11778,experiment,91,0,3,3,#FA92F8,#1CD855,0.9,0.1,1,557.2000000476837,1,1016.3000000715256,0
11778,experiment,92,0,4,3,#FA92F8,#1CD855,0.9,0.1,1,437.3999999761581,1,446.1999999284744,0
11778,experiment,93,2,0,3,#3386FF,#D89F1C,0.5,0.5,0,433.2000000476837,0,654.6000000238419,0
11778,experiment,94,1,4,3,#741CD8,#D8271C,0.3,0.7,0,294.10000002384186,0,437.7999999523163,10
11778,experiment,95,0,0,3,#FA92F8,#1CD855,0.9,0.1,0,190.8000000715256,1,943,0
11778,experiment,96,2,4,3,#D89F1C,#3386FF,0.5,0.5,0,20.40000009536743,0,383.2999999523163,10
11778,experiment,97,2,5,3,#3386FF,#D89F1C,0.5,0.5,0,53.39999997615814,1,480.3000000715256,10
11778,experiment,98,1,1,3,#741CD8,#D8271C,0.3,0.7,0,85.80000007152557,1,521.1000000238419,0
11778,experiment,99,0,5,3,#1CD855,#FA92F8,0.1,0.9,1,69.70000004768372,0,263,10
11778,experiment,100,2,2,3,#3386FF,#D89F1C,0.5,0.5,1,139.39999997615814,1,422.5,10
11778,experiment,101,1,3,3,#741CD8,#D8271C,0.3,0.7,1,188,1,430.60000002384186,0
11778,experiment,102,1,2,3,#D8271C,#741CD8,0.7,0.3,1,533.6999999284744,1,471.2000000476837,10
11778,experiment,103,0,1,3,#FA92F8,#1CD855,0.9,0.1,1,1389.600000023842,0,1239.2000000476835,10
11778,experiment,104,0,2,3,#1CD855,#FA92F8,0.1,0.9,1,615,0,502.60000002384186,10
11778,experiment,105,2,6,3,#D89F1C,#3386FF,0.5,0.5,1,781.6999999284744,1,902.2000000476836,10
11778,experiment,106,2,3,3,#D89F1C,#3386FF,0.5,0.5,0,3189.5,0,621.6999999284744,0
11778,experiment,107,0,6,3,#1CD855,#FA92F8,0.1,0.9,1,1374.399999976158,0,376.5,10
11778,experiment,108,0,0,3,#1CD855,#FA92F8,0.1,0.9,1,372.60000002384186,0,471.60000002384186,0
11778,experiment,109,0,1,3,#1CD855,#FA92F8,0.1,0.9,1,621.3999999761581,0,502.89999997615814,0
11778,experiment,110,1,0,3,#741CD8,#D8271C,0.3,0.7,1,565.7000000476837,0,567,10
11778,experiment,111,2,1,3,#3386FF,#D89F1C,0.5,0.5,1,326.2999999523163,1,734.6999999284744,0
11778,experiment,112,2,6,3,#3386FF,#D89F1C,0.5,0.5,1,509.1999999284744,1,334.2999999523163,10
11778,experiment,113,1,1,3,#D8271C,#741CD8,0.7,0.3,1,677.5,1,1606.4000000953674,10
11778,experiment,114,0,2,3,#FA92F8,#1CD855,0.9,0.1,1,518.8999999761581,1,374.8000000715256,10
11778,experiment,115,2,2,3,#D89F1C,#3386FF,0.5,0.5,1,885.7999999523163,0,366.1999999284744,0
11778,experiment,116,0,4,3,#FA92F8,#1CD855,0.9,0.1,1,546.7000000476837,1,430.7999999523163,10
11778,experiment,117,2,4,3,#3386FF,#D89F1C,0.5,0.5,1,414.7000000476837,1,351.10000002384186,0
11778,experiment,118,1,2,3,#D8271C,#741CD8,0.7,0.3,1,892.6999999284744,0,383.2000000476837,10
11778,experiment,119,1,5,3,#741CD8,#D8271C,0.3,0.7,1,589.1000000238419,1,566.7999999523163,0
11778,experiment,120,1,4,3,#D8271C,#741CD8,0.7,0.3,1,574.7999999523163,0,606.8999999761581,0
11778,experiment,121,0,3,3,#FA92F8,#1CD855,0.9,0.1,1,479.3999999761581,1,671,10
11778,experiment,122,2,0,3,#3386FF,#D89F1C,0.5,0.5,1,651.5,1,391.89999997615814,10
11778,experiment,123,2,5,3,#3386FF,#D89F1C,0.5,0.5,1,645.7999999523163,1,414.1999999284744,10
11778,experiment,124,1,3,3,#D8271C,#741CD8,0.7,0.3,1,499.10000002384186,0,717.5,10
11778,experiment,125,0,5,3,#1CD855,#FA92F8,0.1,0.9,1,597.3000000715256,0,534.3000000715256,10
11778,experiment,126,1,6,3,#741CD8,#D8271C,0.3,0.7,1,670.8999999761581,1,415.60000002384186,0
11778,experiment,127,2,1,3,#3386FF,#D89F1C,0.5,0.5,1,599.1000000238419,0,1255.1999999284744,0
11778,experiment,128,0,2,3,#1CD855,#FA92F8,0.1,0.9,1,734.0999999046326,1,567,0
11778,experiment,129,2,0,3,#D89F1C,#3386FF,0.5,0.5,1,491.8999999761581,1,1004.8000000715256,10
11778,experiment,130,2,3,3,#3386FF,#D89F1C,0.5,0.5,0,374.8000000715256,0,607.8999999761581,10
11778,experiment,131,1,3,3,#D8271C,#741CD8,0.7,0.3,0,311.5,0,574.8999999761581,0
11778,experiment,132,2,4,3,#3386FF,#D89F1C,0.5,0.5,0,269,0,543.2999999523163,0
11778,experiment,133,0,0,3,#1CD855,#FA92F8,0.1,0.9,1,894.1999999284744,0,503.2000000476837,10
11778,experiment,134,0,5,3,#FA92F8,#1CD855,0.9,0.1,1,765.0999999046326,1,623.2999999523163,10
11778,experiment,135,1,2,3,#741CD8,#D8271C,0.3,0.7,1,1334.100000023842,1,326.60000002384186,0
11778,experiment,136,1,0,4,#D8271C,#741CD8,0.7,0.3,1,2742.200000047684,1,583.1000000238419,10
11778,experiment,137,2,6,4,#3386FF,#D89F1C,0.5,0.5,0,925,1,480.2999999523163,0
11778,experiment,138,2,2,4,#D89F1C,#3386FF,0.5,0.5,1,1254.100000023842,0,566.7000000476837,0
11778,experiment,139,0,6,4,#FA92F8,#1CD855,0.9,0.1,0,1014.600000023842,0,1013.5,0
11778,experiment,140,1,4,4,#741CD8,#D8271C,0.3,0.7,0,1996.5,0,478.7999999523163,0
11778,experiment,141,1,1,4,#741CD8,#D8271C,0.3,0.7,1,1541.600000023842,1,1175.100000023842,10
11778,experiment,142,0,4,4,#FA92F8,#1CD855,0.9,0.1,0,1341.5999999046326,0,574.9000000953674,0
11778,experiment,143,2,5,4,#3386FF,#D89F1C,0.5,0.5,1,1436.100000023842,0,453.8000000715256,0
11778,experiment,144,0,3,4,#FA92F8,#1CD855,0.9,0.1,1,863.2999999523163,1,583.6000000238419,10
11778,experiment,145,1,6,4,#D8271C,#741CD8,0.7,0.3,1,5861.5,1,414.60000002384186,10
11778,experiment,146,0,1,4,#FA92F8,#1CD855,0.9,0.1,1,510.2000000476837,1,583.8999999761581,10
11778,experiment,147,1,5,4,#D8271C,#741CD8,0.7,0.3,1,237.79999995231628,1,791.9000000953674,10
11778,experiment,148,1,0,4,#741CD8,#D8271C,0.3,0.7,0,815.6000000238419,0,655.2000000476837,0
11778,experiment,149,0,1,4,#1CD855,#FA92F8,0.1,0.9,0,917.1999999284744,1,758.6000000238419,0
11778,experiment,150,2,5,4,#D89F1C,#3386FF,0.5,0.5,1,819.3000000715256,1,574.8999999761581,0
11778,experiment,151,0,6,4,#FA92F8,#1CD855,0.9,0.1,0,1173.7000000476835,0,519.3999999761581,0
11778,experiment,152,2,3,4,#3386FF,#D89F1C,0.5,0.5,1,967.2999999523164,1,1102.6999999284744,0
11778,experiment,153,1,1,4,#D8271C,#741CD8,0.7,0.3,1,511.2000000476837,1,397.60000002384186,0
11778,experiment,154,2,1,4,#D89F1C,#3386FF,0.5,0.5,1,693.7999999523163,0,463,10
11778,experiment,155,1,6,4,#741CD8,#D8271C,0.3,0.7,1,886,1,535.3000000715256,10
11778,experiment,156,0,4,4,#FA92F8,#1CD855,0.9,0.1,1,653.9000000953674,1,654.1999999284744,10
11778,experiment,157,1,5,4,#741CD8,#D8271C,0.3,0.7,1,429.59999990463257,0,414.7999999523163,0
11778,experiment,158,1,2,4,#741CD8,#D8271C,0.3,0.7,1,437.8000000715256,1,399.7999999523163,10
11778,experiment,159,2,0,4,#3386FF,#D89F1C,0.5,0.5,1,671.7000000476837,0,2061.8000000715256,10
11778,experiment,160,0,3,4,#1CD855,#FA92F8,0.1,0.9,1,886.5,0,406.90000009536743,10
11778,experiment,161,2,2,4,#D89F1C,#3386FF,0.5,0.5,1,886,1,872.3999999761581,10
11778,experiment,162,1,3,4,#D8271C,#741CD8,0.7,0.3,0,717.5,1,1030.7000000476835,10
11778,experiment,163,0,0,4,#1CD855,#FA92F8,0.1,0.9,1,1175.399999976158,0,735.3000000715256,10
11778,experiment,164,2,4,4,#3386FF,#D89F1C,0.5,0.5,0,996.100000023842,0,511.40000009536743,10
11778,experiment,165,0,5,4,#1CD855,#FA92F8,0.1,0.9,0,829.3999999761581,0,455.6999999284744,10
11778,experiment,166,1,4,4,#D8271C,#741CD8,0.7,0.3,0,940.100000023842,0,447,10
11778,experiment,167,0,2,4,#1CD855,#FA92F8,0.1,0.9,0,1326,0,447,10
11778,experiment,168,2,6,4,#D89F1C,#3386FF,0.5,0.5,0,2221.899999976158,1,686.8999999761581,10
11778,experiment,169,1,3,4,#D8271C,#741CD8,0.7,0.3,0,613.4000000953674,1,542.8000000715256,10
11778,experiment,170,2,4,4,#3386FF,#D89F1C,0.5,0.5,0,838.2000000476837,0,454.3000000715256,0
11778,experiment,171,0,6,4,#1CD855,#FA92F8,0.1,0.9,0,438.8999999761581,1,614.5,0
11778,experiment,172,2,1,4,#3386FF,#D89F1C,0.5,0.5,0,579.4000000953674,1,687.2000000476837,0
11778,experiment,173,0,5,4,#FA92F8,#1CD855,0.9,0.1,0,1016.7999999523164,0,551.1000000238419,0
11778,experiment,174,1,2,4,#D8271C,#741CD8,0.7,0.3,0,566.5,1,477.60000002384186,10
11778,experiment,175,2,3,4,#D89F1C,#3386FF,0.5,0.5,0,534.5,0,541.3000000715256,0
11778,experiment,176,1,1,4,#D8271C,#741CD8,0.7,0.3,0,455.3000000715256,0,494.7999999523163,0
11778,experiment,177,2,0,4,#3386FF,#D89F1C,0.5,0.5,0,325.7999999523163,0,518.3999999761581,10
11778,experiment,178,0,2,4,#FA92F8,#1CD855,0.9,0.1,0,360.8999999761581,0,733.5,10
11778,experiment,179,1,5,4,#741CD8,#D8271C,0.3,0.7,0,1830.2999999523165,0,527.4000000953674,10
11778,experiment,180,0,1,4,#FA92F8,#1CD855,0.9,0.1,1,1253.1999999284744,1,391.39999997615814,10
11778,experiment,181,0,0,5,#1CD855,#FA92F8,0.1,0.9,1,1422.399999976158,0,326.2000000476837,10
11778,experiment,182,2,5,5,#D89F1C,#3386FF,0.5,0.5,0,1028.600000023842,0,398.7000000476837,10
11778,experiment,183,1,0,5,#D8271C,#741CD8,0.7,0.3,1,1347.8000000715256,1,478.7000000476837,10
11778,experiment,184,0,3,5,#FA92F8,#1CD855,0.9,0.1,0,2542,0,574.2000000476837,10
