trial_type,trial_index,time_elapsed,internal_node_id,task_version,subject_id,interactions,success,rt,stimulus,key_press,button_pressed,offer,arcade_color_L,arcade_color_R,arcade_outcome_L,arcade_outcome_R,correct,stage_1_key,stage_1_choice,stage_1_rt,stage_2_key,stage_2_choice,stage_2_rt,stage_3_outcome,accuracy,phase,responses,num_errors,context,reward_prob_L,reward_prob_R,arcade_id_L,arcade_id_R,trial,block,response
pavlovia,0,4,0.0-0.0,voc_e2,12559,[],NA,NA,NA,NA,NA,NA,NA,NA,NA,NA,NA,NA,NA,NA,NA,NA,NA,NA,NA,NA,NA,NA,NA,NA,NA,NA,NA,NA,NA,NA
fullscreen,1,19951,0.0-1.0,voc_e2,12559,"[{""event"":""fullscreenenter"",""trial"":1,""time"":18984}]",TRUE,NA,NA,NA,NA,NA,NA,NA,NA,NA,NA,NA,NA,NA,NA,NA,NA,NA,NA,NA,NA,NA,NA,NA,NA,NA,NA,NA,NA,NA
audio-keyboard-response,2,26771,0.0-2.0,voc_e2,12559,"[{""event"":""fullscreenenter"",""trial"":1,""time"":18984}]",NA,6429,static/audio/beep_loop.wav,32,NA,NA,NA,NA,NA,NA,NA,NA,NA,NA,NA,NA,NA,NA,NA,NA,NA,NA,NA,NA,NA,NA,NA,NA,NA,NA
audio-test,3,28779,0.0-3.0,voc_e2,12559,"[{""event"":""fullscreenenter"",""trial"":1,""time"":18984}]",NA,NA,static/audio/turtle.wav,NA,3,NA,NA,NA,NA,NA,NA,NA,NA,NA,NA,NA,NA,NA,NA,NA,NA,NA,NA,NA,NA,NA,NA,NA,NA,NA
audio-test,4,39137,0.0-4.0,voc_e2,12559,"[{""event"":""fullscreenenter"",""trial"":1,""time"":18984}]",NA,NA,static/audio/shark.wav,NA,2,NA,NA,NA,NA,NA,NA,NA,NA,NA,NA,NA,NA,NA,NA,NA,NA,NA,NA,NA,NA,NA,NA,NA,NA,NA
audio-instructions,5,54619,0.0-5.0-0.0,voc_e2,12559,"[{""event"":""fullscreenenter"",""trial"":1,""time"":18984}]",NA,9700.70000000298,static/audio/instructions1.wav,NA,0,NA,NA,NA,NA,NA,NA,NA,NA,NA,NA,NA,NA,NA,NA,NA,NA,NA,NA,NA,NA,NA,NA,NA,NA,NA
audio-instructions,6,64473,0.0-5.0-1.0,voc_e2,12559,"[{""event"":""fullscreenenter"",""trial"":1,""time"":18984}]",NA,3116.29999999702,static/audio/instructions2.wav,NA,0,NA,NA,NA,NA,NA,NA,NA,NA,NA,NA,NA,NA,NA,NA,NA,NA,NA,NA,NA,NA,NA,NA,NA,NA,NA
audio-instructions,7,84387,0.0-5.0-2.0,voc_e2,12559,"[{""event"":""fullscreenenter"",""trial"":1,""time"":18984}]",NA,14109.70000000298,static/audio/instructions3.wav,NA,0,NA,NA,NA,NA,NA,NA,NA,NA,NA,NA,NA,NA,NA,NA,NA,NA,NA,NA,NA,NA,NA,NA,NA,NA,NA
audio-instructions,8,105300,0.0-5.0-3.0,voc_e2,12559,"[{""event"":""fullscreenenter"",""trial"":1,""time"":18984}]",NA,7683.20000000298,static/audio/instructions4.wav,NA,0,NA,NA,NA,NA,NA,NA,NA,NA,NA,NA,NA,NA,NA,NA,NA,NA,NA,NA,NA,NA,NA,NA,NA,NA,NA
audio-instructions,9,119288,0.0-5.0-4.0,voc_e2,12559,"[{""event"":""fullscreenenter"",""trial"":1,""time"":18984}]",NA,4601.5999999940395,static/audio/instructions5.wav,NA,0,NA,NA,NA,NA,NA,NA,NA,NA,NA,NA,NA,NA,NA,NA,NA,NA,NA,NA,NA,NA,NA,NA,NA,NA,NA
fcp-practice,10,123443,0.0-5.0-5.0-0.0,voc_e2,12559,"[{""event"":""fullscreenenter"",""trial"":1,""time"":18984}]",NA,NA,NA,NA,NA,NA,#EDC948,#46d3c8,10,0,1,null,null,null,37,1,2641.3999999910593,10,1,practice,NA,NA,NA,NA,NA,NA,NA,NA,NA,NA
fcp-practice,11,125482,0.0-5.0-5.0-1.0,voc_e2,12559,"[{""event"":""fullscreenenter"",""trial"":1,""time"":18984}]",NA,NA,NA,NA,NA,NA,#EDC948,#46d3c8,10,0,1,null,null,null,37,1,528.8000000119209,10,1,practice,NA,NA,NA,NA,NA,NA,NA,NA,NA,NA
fcp-practice,12,127609,0.0-5.0-5.0-2.0,voc_e2,12559,"[{""event"":""fullscreenenter"",""trial"":1,""time"":18984}]",NA,NA,NA,NA,NA,NA,#EDC948,#46d3c8,0,10,1,null,null,null,37,1,621,0,1,practice,NA,NA,NA,NA,NA,NA,NA,NA,NA,NA
fcp-practice,13,129683,0.0-5.0-5.0-3.0,voc_e2,12559,"[{""event"":""fullscreenenter"",""trial"":1,""time"":18984}]",NA,NA,NA,NA,NA,NA,#EDC948,#46d3c8,10,0,1,null,null,null,37,1,565.3000000119209,10,1,practice,NA,NA,NA,NA,NA,NA,NA,NA,NA,NA
fcp-practice,14,131873,0.0-5.0-5.0-4.0,voc_e2,12559,"[{""event"":""fullscreenenter"",""trial"":1,""time"":18984}]",NA,NA,NA,NA,NA,NA,#EDC948,#46d3c8,10,0,1,null,null,null,37,1,680,10,1,practice,NA,NA,NA,NA,NA,NA,NA,NA,NA,NA
audio-instructions,15,156070,0.0-5.0-6.0,voc_e2,12559,"[{""event"":""fullscreenenter"",""trial"":1,""time"":18984}]",NA,6193.5,static/audio/instructions6.wav,NA,0,NA,NA,NA,NA,NA,NA,NA,NA,NA,NA,NA,NA,NA,NA,NA,NA,NA,NA,NA,NA,NA,NA,NA,NA,NA
audio-instructions,16,179839,0.0-5.0-7.0,voc_e2,12559,"[{""event"":""fullscreenenter"",""trial"":1,""time"":18984}]",NA,4573,static/audio/instructions7.wav,NA,0,NA,NA,NA,NA,NA,NA,NA,NA,NA,NA,NA,NA,NA,NA,NA,NA,NA,NA,NA,NA,NA,NA,NA,NA,NA
audio-instructions,17,190872,0.0-5.0-8.0,voc_e2,12559,"[{""event"":""fullscreenenter"",""trial"":1,""time"":18984}]",NA,1554.3999999910593,static/audio/instructions8.wav,NA,0,NA,NA,NA,NA,NA,NA,NA,NA,NA,NA,NA,NA,NA,NA,NA,NA,NA,NA,NA,NA,NA,NA,NA,NA,NA
fcp-comprehension,18,197451,0.0-5.0-9.0,voc_e2,12559,"[{""event"":""fullscreenenter"",""trial"":1,""time"":18984}]",NA,6576.5999999940395,NA,NA,NA,NA,NA,NA,NA,NA,NA,NA,NA,NA,NA,NA,NA,NA,NA,NA,"true,true",0,NA,NA,NA,NA,NA,NA,NA,NA
audio-instructions,19,281429,0.0-6.0-0.0,voc_e2,12559,"[{""event"":""fullscreenenter"",""trial"":1,""time"":18984}]",NA,78431.40000000596,static/audio/instructions9.wav,NA,0,NA,NA,NA,NA,NA,NA,NA,NA,NA,NA,NA,NA,NA,NA,NA,NA,NA,NA,NA,NA,NA,NA,NA,NA,NA
audio-instructions,20,297322,0.0-6.0-1.0,voc_e2,12559,"[{""event"":""fullscreenenter"",""trial"":1,""time"":18984}]",NA,3696.900000005961,static/audio/instructions10.wav,NA,0,NA,NA,NA,NA,NA,NA,NA,NA,NA,NA,NA,NA,NA,NA,NA,NA,NA,NA,NA,NA,NA,NA,NA,NA,NA
fcp-trial,21,307261,0.0-6.0-2.0,voc_e2,12559,"[{""event"":""fullscreenenter"",""trial"":1,""time"":18984}]",NA,NA,NA,NA,NA,0,#EDC948,#46d3c8,10,10,1,38,1,7301.20000000298,37,1,1115.3999999910593,10,1,practice,NA,NA,NA,NA,NA,NA,NA,NA,NA,NA
audio-instructions,22,320370,0.0-6.0-3.0,voc_e2,12559,"[{""event"":""fullscreenenter"",""trial"":1,""time"":18984}]",NA,2104.8999999910593,static/audio/instructions11.wav,NA,0,NA,NA,NA,NA,NA,NA,NA,NA,NA,NA,NA,NA,NA,NA,NA,NA,NA,NA,NA,NA,NA,NA,NA,NA,NA
fcp-trial,23,325347,0.0-6.0-4.0,voc_e2,12559,"[{""event"":""fullscreenenter"",""trial"":1,""time"":18984}]",NA,NA,NA,NA,NA,6,#EDC948,#46d3c8,10,10,1,40,0,2654.7999999970198,37,1,810,10,1,practice,NA,NA,NA,NA,NA,NA,NA,NA,NA,NA
audio-instructions,24,348902,0.0-6.0-5.0,voc_e2,12559,"[{""event"":""fullscreenenter"",""trial"":1,""time"":18984}]",NA,4865.800000011921,static/audio/instructions12.wav,NA,0,NA,NA,NA,NA,NA,NA,NA,NA,NA,NA,NA,NA,NA,NA,NA,NA,NA,NA,NA,NA,NA,NA,NA,NA,NA
audio-instructions,25,362103,0.0-6.0-6.0,voc_e2,12559,"[{""event"":""fullscreenenter"",""trial"":1,""time"":18984}]",NA,5607.79999999702,static/audio/instructions13.wav,NA,0,NA,NA,NA,NA,NA,NA,NA,NA,NA,NA,NA,NA,NA,NA,NA,NA,NA,NA,NA,NA,NA,NA,NA,NA,NA
audio-instructions,26,373699,0.0-6.0-7.0,voc_e2,12559,"[{""event"":""fullscreenenter"",""trial"":1,""time"":18984}]",NA,3144,static/audio/instructions14.wav,NA,0,NA,NA,NA,NA,NA,NA,NA,NA,NA,NA,NA,NA,NA,NA,NA,NA,NA,NA,NA,NA,NA,NA,NA,NA,NA
audio-instructions,27,410228,0.0-7.0-0.0,voc_e2,12559,"[{""event"":""fullscreenenter"",""trial"":1,""time"":18984}]",NA,29612,static/audio/instructions15.wav,NA,0,NA,NA,NA,NA,NA,NA,NA,NA,NA,NA,NA,NA,NA,NA,NA,NA,NA,NA,NA,NA,NA,NA,NA,NA,NA
audio-instructions,28,422963,0.0-7.0-1.0,voc_e2,12559,"[{""event"":""fullscreenenter"",""trial"":1,""time"":18984}]",NA,5917,static/audio/instructions16.wav,NA,0,NA,NA,NA,NA,NA,NA,NA,NA,NA,NA,NA,NA,NA,NA,NA,NA,NA,NA,NA,NA,NA,NA,NA,NA,NA
audio-instructions,29,432640,0.0-7.0-2.0,voc_e2,12559,"[{""event"":""fullscreenenter"",""trial"":1,""time"":18984}]",NA,1995.199999988079,static/audio/instructions17.wav,NA,0,NA,NA,NA,NA,NA,NA,NA,NA,NA,NA,NA,NA,NA,NA,NA,NA,NA,NA,NA,NA,NA,NA,NA,NA,NA
audio-instructions,30,442427,0.0-7.0-3.0,voc_e2,12559,"[{""event"":""fullscreenenter"",""trial"":1,""time"":18984}]",NA,2022.1000000089407,static/audio/instructions18.wav,NA,0,NA,NA,NA,NA,NA,NA,NA,NA,NA,NA,NA,NA,NA,NA,NA,NA,NA,NA,NA,NA,NA,NA,NA,NA,NA
audio-instructions,31,453002,0.0-7.0-4.0,voc_e2,12559,"[{""event"":""fullscreenenter"",""trial"":1,""time"":18984}]",NA,3836.1000000089407,static/audio/instructions19.wav,NA,0,NA,NA,NA,NA,NA,NA,NA,NA,NA,NA,NA,NA,NA,NA,NA,NA,NA,NA,NA,NA,NA,NA,NA,NA,NA
fcp-comprehension,32,460360,0.0-7.0-5.0,voc_e2,12559,"[{""event"":""fullscreenenter"",""trial"":1,""time"":18984}]",NA,7356,NA,NA,NA,NA,NA,NA,NA,NA,NA,NA,NA,NA,NA,NA,NA,NA,NA,NA,"true,false,false,false",2,NA,NA,NA,NA,NA,NA,NA,NA
audio-instructions,33,472901,0.0-7.1-0.1,voc_e2,12559,"[{""event"":""fullscreenenter"",""trial"":1,""time"":18984}]",NA,5625.9000000059605,static/audio/instructions15.wav,NA,0,NA,NA,NA,NA,NA,NA,NA,NA,NA,NA,NA,NA,NA,NA,NA,NA,NA,NA,NA,NA,NA,NA,NA,NA,NA
audio-instructions,34,481293,0.0-7.1-1.1,voc_e2,12559,"[{""event"":""fullscreenenter"",""trial"":1,""time"":18984}]",NA,1568.6000000089407,static/audio/instructions16.wav,NA,0,NA,NA,NA,NA,NA,NA,NA,NA,NA,NA,NA,NA,NA,NA,NA,NA,NA,NA,NA,NA,NA,NA,NA,NA,NA
audio-instructions,35,493002,0.0-7.1-2.1,voc_e2,12559,"[{""event"":""fullscreenenter"",""trial"":1,""time"":18984}]",NA,4025.900000005961,static/audio/instructions17.wav,NA,0,NA,NA,NA,NA,NA,NA,NA,NA,NA,NA,NA,NA,NA,NA,NA,NA,NA,NA,NA,NA,NA,NA,NA,NA,NA
audio-instructions,36,506060,0.0-7.1-3.1,voc_e2,12559,"[{""event"":""fullscreenenter"",""trial"":1,""time"":18984}]",NA,5294.399999991059,static/audio/instructions18.wav,NA,0,NA,NA,NA,NA,NA,NA,NA,NA,NA,NA,NA,NA,NA,NA,NA,NA,NA,NA,NA,NA,NA,NA,NA,NA,NA
audio-instructions,37,539889,0.0-7.1-4.1,voc_e2,12559,"[{""event"":""fullscreenenter"",""trial"":1,""time"":18984}]",NA,27083.79999999702,static/audio/instructions19.wav,NA,0,NA,NA,NA,NA,NA,NA,NA,NA,NA,NA,NA,NA,NA,NA,NA,NA,NA,NA,NA,NA,NA,NA,NA,NA,NA
fcp-comprehension,38,606576,0.0-7.1-5.1,voc_e2,12559,"[{""event"":""fullscreenenter"",""trial"":1,""time"":18984}]",NA,66686,NA,NA,NA,NA,NA,NA,NA,NA,NA,NA,NA,NA,NA,NA,NA,NA,NA,NA,"false,false,false,true",0,NA,NA,NA,NA,NA,NA,NA,NA
audio-instructions,39,619963,0.0-8.0,voc_e2,12559,"[{""event"":""fullscreenenter"",""trial"":1,""time"":18984}]",NA,3502,static/audio/ready.wav,NA,0,NA,NA,NA,NA,NA,NA,NA,NA,NA,NA,NA,NA,NA,NA,NA,NA,NA,NA,NA,NA,NA,NA,NA,NA,NA
fcp-trial,40,623958,0.0-9.0-0.0,voc_e2,12559,"[{""event"":""fullscreenenter"",""trial"":1,""time"":18984}]",NA,NA,NA,NA,NA,4,#1CD855,#FA92F8,0,10,1,40,0,1724.5,37,1,761.9000000059605,0,1,experiment,NA,NA,2,0.5,0.5,4,5,1,1,NA
fcp-trial,41,627041,0.0-10.0-0.0,voc_e2,12559,"[{""event"":""fullscreenenter"",""trial"":1,""time"":18984}]",NA,NA,NA,NA,NA,0,#741CD8,#D8271C,0,10,0,40,0,591.3999999910593,37,1,979.0999999940396,0,0,experiment,NA,NA,0,0.1,0.9,1,0,2,1,NA
fcp-trial,42,630910,0.0-11.0-0.0,voc_e2,12559,"[{""event"":""fullscreenenter"",""trial"":1,""time"":18984}]",NA,NA,NA,NA,NA,0,#3386FF,#D89F1C,10,10,1,38,1,1402.300000011921,39,0,947,10,0,experiment,NA,NA,1,0.7,0.3,2,3,3,1,NA
fcp-trial,43,634885,0.0-12.0-0.0,voc_e2,12559,"[{""event"":""fullscreenenter"",""trial"":1,""time"":18984}]",NA,NA,NA,NA,NA,6,#3386FF,#D89F1C,10,0,1,40,0,1694.4000000059605,39,0,770.2000000029802,0,0,experiment,NA,NA,1,0.7,0.3,2,3,4,1,NA
fcp-trial,44,638111,0.0-13.0-0.0,voc_e2,12559,"[{""event"":""fullscreenenter"",""trial"":1,""time"":18984}]",NA,NA,NA,NA,NA,1,#1CD855,#FA92F8,10,10,1,40,0,1100.3999999910593,37,1,613.5,10,1,experiment,NA,NA,2,0.5,0.5,4,5,5,1,NA
fcp-trial,45,640745,0.0-14.0-0.0,voc_e2,12559,"[{""event"":""fullscreenenter"",""trial"":1,""time"":18984}]",NA,NA,NA,NA,NA,1,#741CD8,#D8271C,0,10,0,38,1,348,39,0,761.8000000119209,10,1,experiment,NA,NA,0,0.1,0.9,1,0,6,1,NA
fcp-trial,46,645184,0.0-15.0-0.0,voc_e2,12559,"[{""event"":""fullscreenenter"",""trial"":1,""time"":18984}]",NA,NA,NA,NA,NA,3,#FA92F8,#1CD855,10,0,0,40,0,169.79999999701977,39,0,2754.0999999940395,0,1,experiment,NA,NA,2,0.5,0.5,5,4,7,1,NA
fcp-trial,47,648084,0.0-16.0-0.0,voc_e2,12559,"[{""event"":""fullscreenenter"",""trial"":1,""time"":18984}]",NA,NA,NA,NA,NA,2,#741CD8,#D8271C,0,10,0,40,0,825.8000000119209,39,0,555.1000000089407,10,1,experiment,NA,NA,0,0.1,0.9,1,0,8,1,NA
fcp-trial,48,651060,0.0-17.0-0.0,voc_e2,12559,"[{""event"":""fullscreenenter"",""trial"":1,""time"":18984}]",NA,NA,NA,NA,NA,1,#3386FF,#D89F1C,10,0,1,40,0,756.2999999970198,37,1,714.2000000029802,10,1,experiment,NA,NA,1,0.7,0.3,2,3,9,1,NA
fcp-trial,49,653868,0.0-18.0-0.0,voc_e2,12559,"[{""event"":""fullscreenenter"",""trial"":1,""time"":18984}]",NA,NA,NA,NA,NA,6,#FA92F8,#1CD855,10,10,0,40,0,840.7000000029802,37,1,460.40000000596046,10,0,experiment,NA,NA,2,0.5,0.5,5,4,10,1,NA
fcp-trial,50,656801,0.0-19.0-0.0,voc_e2,12559,"[{""event"":""fullscreenenter"",""trial"":1,""time"":18984}]",NA,NA,NA,NA,NA,5,#741CD8,#D8271C,0,10,0,38,1,439.70000000298023,39,0,988.0999999940396,10,1,experiment,NA,NA,0,0.1,0.9,1,0,11,1,NA
fcp-trial,51,659844,0.0-20.0-0.0,voc_e2,12559,"[{""event"":""fullscreenenter"",""trial"":1,""time"":18984}]",NA,NA,NA,NA,NA,5,#FA92F8,#1CD855,0,10,0,38,1,457.59999999403954,39,0,1079,10,1,experiment,NA,NA,2,0.5,0.5,5,4,12,1,NA
fcp-trial,52,663105,0.0-21.0-0.0,voc_e2,12559,"[{""event"":""fullscreenenter"",""trial"":1,""time"":18984}]",NA,NA,NA,NA,NA,3,#741CD8,#D8271C,0,10,0,40,0,1157.5,39,0,589,10,1,experiment,NA,NA,0,0.1,0.9,1,0,13,1,NA
fcp-trial,53,666304,0.0-22.0-0.0,voc_e2,12559,"[{""event"":""fullscreenenter"",""trial"":1,""time"":18984}]",NA,NA,NA,NA,NA,4,#3386FF,#D89F1C,0,0,1,40,0,1046.4000000059605,37,1,646.2000000029802,0,1,experiment,NA,NA,1,0.7,0.3,2,3,14,1,NA
fcp-trial,54,669239,0.0-23.0-0.0,voc_e2,12559,"[{""event"":""fullscreenenter"",""trial"":1,""time"":18984}]",NA,NA,NA,NA,NA,0,#FA92F8,#1CD855,0,0,0,40,0,960.7999999970198,37,1,467.09999999403954,0,0,experiment,NA,NA,2,0.5,0.5,5,4,15,1,NA
fcp-trial,55,673803,0.0-24.0-0.0,voc_e2,12559,"[{""event"":""fullscreenenter"",""trial"":1,""time"":18984}]",NA,NA,NA,NA,NA,2,#D89F1C,#3386FF,0,0,0,40,0,767.3999999910593,39,0,2287.0999999940395,0,1,experiment,NA,NA,1,0.3,0.7,3,2,16,1,NA
fcp-trial,56,676297,0.0-25.0-0.0,voc_e2,12559,"[{""event"":""fullscreenenter"",""trial"":1,""time"":18984}]",NA,NA,NA,NA,NA,6,#741CD8,#D8271C,10,10,0,40,0,412.79999999701977,39,0,572.7000000029802,10,1,experiment,NA,NA,0,0.1,0.9,1,0,17,1,NA
fcp-trial,57,679347,0.0-26.0-0.0,voc_e2,12559,"[{""event"":""fullscreenenter"",""trial"":1,""time"":18984}]",NA,NA,NA,NA,NA,2,#1CD855,#FA92F8,0,0,1,40,0,943.5999999940395,39,0,597.6000000089407,0,0,experiment,NA,NA,2,0.5,0.5,4,5,18,1,NA
fcp-trial,58,682101,0.0-27.0-0.0,voc_e2,12559,"[{""event"":""fullscreenenter"",""trial"":1,""time"":18984}]",NA,NA,NA,NA,NA,3,#3386FF,#D89F1C,0,0,1,40,0,954.5,37,1,290,0,1,experiment,NA,NA,1,0.7,0.3,2,3,19,1,NA
fcp-trial,59,690743,0.0-28.0-0.0,voc_e2,12559,"[{""event"":""fullscreenenter"",""trial"":1,""time"":18984}]",NA,NA,NA,NA,NA,4,#741CD8,#D8271C,0,10,0,40,0,6614.20000000298,37,1,521,0,0,experiment,NA,NA,0,0.1,0.9,1,0,20,1,NA
fcp-trial,60,693427,0.0-29.0-0.0,voc_e2,12559,"[{""event"":""fullscreenenter"",""trial"":1,""time"":18984}]",NA,NA,NA,NA,NA,5,#3386FF,#D89F1C,10,0,1,40,0,688.5,39,0,488,0,0,experiment,NA,NA,1,0.7,0.3,2,3,21,1,NA
fcp-trial,61,696758,0.0-30.0-0.0,voc_e2,12559,"[{""event"":""fullscreenenter"",""trial"":1,""time"":18984}]",NA,NA,NA,NA,NA,3,#D89F1C,#3386FF,0,10,0,40,0,1043.2000000029802,39,0,780.1000000089407,10,1,experiment,NA,NA,1,0.3,0.7,3,2,22,1,NA
fcp-trial,62,700430,0.0-31.0-0.0,voc_e2,12559,"[{""event"":""fullscreenenter"",""trial"":1,""time"":18984}]",NA,NA,NA,NA,NA,4,#D8271C,#741CD8,10,0,1,40,0,1643.2000000029802,39,0,520.7999999970198,0,0,experiment,NA,NA,0,0.9,0.1,0,1,23,1,NA
fcp-trial,63,703260,0.0-32.0-0.0,voc_e2,12559,"[{""event"":""fullscreenenter"",""trial"":1,""time"":18984}]",NA,NA,NA,NA,NA,3,#D8271C,#741CD8,10,0,1,40,0,797.0999999940395,39,0,527,0,0,experiment,NA,NA,0,0.9,0.1,0,1,24,1,NA
fcp-trial,64,705909,0.0-33.0-0.0,voc_e2,12559,"[{""event"":""fullscreenenter"",""trial"":1,""time"":18984}]",NA,NA,NA,NA,NA,1,#D8271C,#741CD8,0,0,1,40,0,448.5,37,1,691.2999999970198,0,1,experiment,NA,NA,0,0.9,0.1,0,1,25,1,NA
fcp-trial,65,709736,0.0-34.0-0.0,voc_e2,12559,"[{""event"":""fullscreenenter"",""trial"":1,""time"":18984}]",NA,NA,NA,NA,NA,6,#1CD855,#FA92F8,0,0,1,40,0,1846.5,39,0,473.59999999403954,0,0,experiment,NA,NA,2,0.5,0.5,4,5,26,1,NA
fcp-trial,66,713489,0.0-35.0-0.0,voc_e2,12559,"[{""event"":""fullscreenenter"",""trial"":1,""time"":18984}]",NA,NA,NA,NA,NA,0,#D89F1C,#3386FF,0,10,0,38,1,1489.6000000089407,37,1,754,0,0,experiment,NA,NA,1,0.3,0.7,3,2,27,1,NA
fcp-trial,67,716251,0.0-36.0-0.0,voc_e2,12559,"[{""event"":""fullscreenenter"",""trial"":1,""time"":18984}]",NA,NA,NA,NA,NA,5,#3386FF,#D89F1C,10,0,1,38,1,683.5,39,0,570.1000000089407,0,0,experiment,NA,NA,1,0.7,0.3,2,3,28,1,NA
fcp-trial,68,719481,0.0-37.0-0.0,voc_e2,12559,"[{""event"":""fullscreenenter"",""trial"":1,""time"":18984}]",NA,NA,NA,NA,NA,0,#D8271C,#741CD8,10,0,1,38,1,940.9000000059605,39,0,779.7999999970198,0,0,experiment,NA,NA,0,0.9,0.1,0,1,29,1,NA
fcp-trial,69,722191,0.0-38.0-0.0,voc_e2,12559,"[{""event"":""fullscreenenter"",""trial"":1,""time"":18984}]",NA,NA,NA,NA,NA,1,#D89F1C,#3386FF,10,10,0,38,1,679,37,1,522.2999999970198,10,0,experiment,NA,NA,1,0.3,0.7,3,2,30,1,NA
fcp-trial,70,724719,0.0-39.0-0.0,voc_e2,12559,"[{""event"":""fullscreenenter"",""trial"":1,""time"":18984}]",NA,NA,NA,NA,NA,1,#1CD855,#FA92F8,0,10,1,38,1,525.1000000089407,37,1,498.29999999701977,0,1,experiment,NA,NA,2,0.5,0.5,4,5,31,1,NA
fcp-trial,71,727506,0.0-40.0-0.0,voc_e2,12559,"[{""event"":""fullscreenenter"",""trial"":1,""time"":18984}]",NA,NA,NA,NA,NA,2,#D8271C,#741CD8,10,0,1,40,0,776.5,39,0,505.09999999403954,0,0,experiment,NA,NA,0,0.9,0.1,0,1,32,1,NA
fcp-trial,72,730435,0.0-41.0-0.0,voc_e2,12559,"[{""event"":""fullscreenenter"",""trial"":1,""time"":18984}]",NA,NA,NA,NA,NA,2,#3386FF,#D89F1C,10,0,1,38,1,981.6000000089407,37,1,437.29999999701977,10,1,experiment,NA,NA,1,0.7,0.3,2,3,33,1,NA
fcp-trial,73,733495,0.0-42.0-0.0,voc_e2,12559,"[{""event"":""fullscreenenter"",""trial"":1,""time"":18984}]",NA,NA,NA,NA,NA,4,#1CD855,#FA92F8,0,0,1,38,1,711.5999999940395,39,0,840.3999999910593,0,0,experiment,NA,NA,2,0.5,0.5,4,5,34,1,NA
fcp-trial,74,736258,0.0-43.0-0.0,voc_e2,12559,"[{""event"":""fullscreenenter"",""trial"":1,""time"":18984}]",NA,NA,NA,NA,NA,3,#FA92F8,#1CD855,0,0,0,38,1,671.4000000059605,37,1,580.2000000029802,0,0,experiment,NA,NA,2,0.5,0.5,5,4,35,1,NA
fcp-trial,75,739153,0.0-44.0-0.0,voc_e2,12559,"[{""event"":""fullscreenenter"",""trial"":1,""time"":18984}]",NA,NA,NA,NA,NA,5,#FA92F8,#1CD855,0,0,0,40,0,852.5,39,0,533.7999999970198,0,1,experiment,NA,NA,2,0.5,0.5,5,4,36,1,NA
fcp-trial,76,742668,0.0-45.0-0.0,voc_e2,12559,"[{""event"":""fullscreenenter"",""trial"":1,""time"":18984}]",NA,NA,NA,NA,NA,5,#D8271C,#741CD8,10,0,1,40,0,1456.7000000029802,39,0,550.7000000029802,0,0,experiment,NA,NA,0,0.9,0.1,0,1,37,1,NA
fcp-trial,77,745730,0.0-46.0-0.0,voc_e2,12559,"[{""event"":""fullscreenenter"",""trial"":1,""time"":18984}]",NA,NA,NA,NA,NA,6,#3386FF,#D89F1C,0,10,1,40,0,1039.6000000089407,39,0,517.0999999940395,10,0,experiment,NA,NA,1,0.7,0.3,2,3,38,1,NA
fcp-trial,78,748471,0.0-47.0-0.0,voc_e2,12559,"[{""event"":""fullscreenenter"",""trial"":1,""time"":18984}]",NA,NA,NA,NA,NA,2,#1CD855,#FA92F8,0,0,1,40,0,599.4000000059605,37,1,633,0,1,experiment,NA,NA,2,0.5,0.5,4,5,39,1,NA
fcp-trial,79,751635,0.0-48.0-0.0,voc_e2,12559,"[{""event"":""fullscreenenter"",""trial"":1,""time"":18984}]",NA,NA,NA,NA,NA,6,#D8271C,#741CD8,10,0,1,40,0,1060.800000011921,37,1,599.2999999970198,10,1,experiment,NA,NA,0,0.9,0.1,0,1,40,1,NA
fcp-trial,80,754385,0.0-49.0-0.0,voc_e2,12559,"[{""event"":""fullscreenenter"",""trial"":1,""time"":18984}]",NA,NA,NA,NA,NA,4,#3386FF,#D89F1C,0,0,1,40,0,651.4000000059605,39,0,594,0,0,experiment,NA,NA,1,0.7,0.3,2,3,41,1,NA
fcp-trial,81,757666,0.0-50.0-0.0,voc_e2,12559,"[{""event"":""fullscreenenter"",""trial"":1,""time"":18984}]",NA,NA,NA,NA,NA,0,#1CD855,#FA92F8,0,0,1,40,0,1213.7999999970198,39,0,560.9000000059605,0,0,experiment,NA,NA,2,0.5,0.5,4,5,42,1,NA
fcp-trial,82,761040,0.0-51.0-0.0,voc_e2,12559,"[{""event"":""fullscreenenter"",""trial"":1,""time"":18984}]",NA,NA,NA,NA,NA,4,#3386FF,#D89F1C,10,0,1,40,0,1208.5,37,1,654.9000000059605,10,1,experiment,NA,NA,1,0.7,0.3,2,3,43,1,NA
fcp-trial,83,763701,0.0-52.0-0.0,voc_e2,12559,"[{""event"":""fullscreenenter"",""trial"":1,""time"":18984}]",NA,NA,NA,NA,NA,2,#3386FF,#D89F1C,0,0,1,40,0,731.0999999940395,37,1,422.20000000298023,0,1,experiment,NA,NA,1,0.7,0.3,2,3,44,1,NA
fcp-trial,84,766796,0.0-53.0-0.0,voc_e2,12559,"[{""event"":""fullscreenenter"",""trial"":1,""time"":18984}]",NA,NA,NA,NA,NA,3,#D89F1C,#3386FF,0,10,0,38,1,830.6000000089407,37,1,753.8999999910593,0,0,experiment,NA,NA,1,0.3,0.7,3,2,45,1,NA
fcp-trial,85,770033,0.0-54.0-0.0,voc_e2,12559,"[{""event"":""fullscreenenter"",""trial"":1,""time"":18984}]",NA,NA,NA,NA,NA,3,#FA92F8,#1CD855,10,0,0,38,1,1056.2999999970198,39,0,676.4000000059605,0,1,experiment,NA,NA,2,0.5,0.5,5,4,46,2,NA
fcp-trial,86,772758,0.0-55.0-0.0,voc_e2,12559,"[{""event"":""fullscreenenter"",""trial"":1,""time"":18984}]",NA,NA,NA,NA,NA,2,#741CD8,#D8271C,0,10,0,38,1,606.2999999970198,37,1,613.2999999970198,0,0,experiment,NA,NA,0,0.1,0.9,1,0,47,2,NA
fcp-trial,87,775539,0.0-56.0-0.0,voc_e2,12559,"[{""event"":""fullscreenenter"",""trial"":1,""time"":18984}]",NA,NA,NA,NA,NA,1,#741CD8,#D8271C,0,10,0,38,1,611.9000000059605,39,0,664.2000000029802,10,1,experiment,NA,NA,0,0.1,0.9,1,0,48,2,NA
fcp-trial,88,778362,0.0-57.0-0.0,voc_e2,12559,"[{""event"":""fullscreenenter"",""trial"":1,""time"":18984}]",NA,NA,NA,NA,NA,1,#FA92F8,#1CD855,0,10,0,38,1,949.8999999910593,37,1,368.09999999403954,0,0,experiment,NA,NA,2,0.5,0.5,5,4,49,2,NA
fcp-trial,89,781942,0.0-58.0-0.0,voc_e2,12559,"[{""event"":""fullscreenenter"",""trial"":1,""time"":18984}]",NA,NA,NA,NA,NA,1,#D89F1C,#3386FF,0,10,0,38,1,1579.1000000089407,39,0,494.8999999910593,10,1,experiment,NA,NA,1,0.3,0.7,3,2,50,2,NA
fcp-trial,90,785672,0.0-59.0-0.0,voc_e2,12559,"[{""event"":""fullscreenenter"",""trial"":1,""time"":18984}]",NA,NA,NA,NA,NA,5,#741CD8,#D8271C,0,10,0,38,1,1841.3999999910593,37,1,380.90000000596046,0,0,experiment,NA,NA,0,0.1,0.9,1,0,51,2,NA
fcp-trial,91,788291,0.0-60.0-0.0,voc_e2,12559,"[{""event"":""fullscreenenter"",""trial"":1,""time"":18984}]",NA,NA,NA,NA,NA,0,#741CD8,#D8271C,0,10,0,38,1,540.3999999910593,39,0,572.2999999970198,10,1,experiment,NA,NA,0,0.1,0.9,1,0,52,2,NA
fcp-trial,92,790766,0.0-61.0-0.0,voc_e2,12559,"[{""event"":""fullscreenenter"",""trial"":1,""time"":18984}]",NA,NA,NA,NA,NA,0,#1CD855,#FA92F8,10,0,1,38,1,643.0999999940395,37,1,325.90000000596046,10,1,experiment,NA,NA,2,0.5,0.5,4,5,53,2,NA
fcp-trial,93,794920,0.0-62.0-0.0,voc_e2,12559,"[{""event"":""fullscreenenter"",""trial"":1,""time"":18984}]",NA,NA,NA,NA,NA,4,#D8271C,#741CD8,10,0,1,38,1,1020.0999999940395,37,1,1628.5,10,1,experiment,NA,NA,0,0.9,0.1,0,1,54,2,NA
fcp-trial,94,797762,0.0-63.0-0.0,voc_e2,12559,"[{""event"":""fullscreenenter"",""trial"":1,""time"":18984}]",NA,NA,NA,NA,NA,5,#D89F1C,#3386FF,0,0,0,38,1,838.5999999940395,37,1,497.29999999701977,0,0,experiment,NA,NA,1,0.3,0.7,3,2,55,2,NA
fcp-trial,95,800343,0.0-64.0-0.0,voc_e2,12559,"[{""event"":""fullscreenenter"",""trial"":1,""time"":18984}]",NA,NA,NA,NA,NA,5,#FA92F8,#1CD855,10,0,0,38,1,578.4000000059605,39,0,495.59999999403954,0,1,experiment,NA,NA,2,0.5,0.5,5,4,56,2,NA
fcp-trial,96,802805,0.0-65.0-0.0,voc_e2,12559,"[{""event"":""fullscreenenter"",""trial"":1,""time"":18984}]",NA,NA,NA,NA,NA,3,#D8271C,#741CD8,10,0,1,38,1,512.4000000059605,39,0,442.20000000298023,0,0,experiment,NA,NA,0,0.9,0.1,0,1,57,2,NA
fcp-trial,97,805624,0.0-66.0-0.0,voc_e2,12559,"[{""event"":""fullscreenenter"",""trial"":1,""time"":18984}]",NA,NA,NA,NA,NA,0,#D89F1C,#3386FF,0,0,0,38,1,825.3999999910593,37,1,487.79999999701977,0,0,experiment,NA,NA,1,0.3,0.7,3,2,58,2,NA
fcp-trial,98,807961,0.0-67.0-0.0,voc_e2,12559,"[{""event"":""fullscreenenter"",""trial"":1,""time"":18984}]",NA,NA,NA,NA,NA,4,#FA92F8,#1CD855,10,0,0,38,1,165.40000000596046,37,1,665.2000000029802,10,0,experiment,NA,NA,2,0.5,0.5,5,4,59,2,NA
fcp-trial,99,810090,0.0-68.0-0.0,voc_e2,12559,"[{""event"":""fullscreenenter"",""trial"":1,""time"":18984}]",NA,NA,NA,NA,NA,6,#FA92F8,#1CD855,0,10,0,38,1,150.8999999910593,39,0,471.09999999403954,10,1,experiment,NA,NA,2,0.5,0.5,5,4,60,2,NA
fcp-trial,100,812640,0.0-69.0-0.0,voc_e2,12559,"[{""event"":""fullscreenenter"",""trial"":1,""time"":18984}]",NA,NA,NA,NA,NA,6,#3386FF,#D89F1C,10,0,1,38,1,706.1999999880791,37,1,339.70000000298023,10,1,experiment,NA,NA,1,0.7,0.3,2,3,61,2,NA
fcp-trial,101,815206,0.0-70.0-0.0,voc_e2,12559,"[{""event"":""fullscreenenter"",""trial"":1,""time"":18984}]",NA,NA,NA,NA,NA,6,#D8271C,#741CD8,10,0,1,38,1,569.5,37,1,490.5,10,1,experiment,NA,NA,0,0.9,0.1,0,1,62,2,NA
fcp-trial,102,817149,0.0-71.0-0.0,voc_e2,12559,"[{""event"":""fullscreenenter"",""trial"":1,""time"":18984}]",NA,NA,NA,NA,NA,2,#FA92F8,#1CD855,10,0,0,40,0,85,37,1,350.79999999701977,10,0,experiment,NA,NA,2,0.5,0.5,5,4,63,2,NA
fcp-trial,103,820143,0.0-72.0-0.0,voc_e2,12559,"[{""event"":""fullscreenenter"",""trial"":1,""time"":18984}]",NA,NA,NA,NA,NA,0,#1CD855,#FA92F8,10,0,1,38,1,190.79999999701977,37,1,1292.7999999970198,10,1,experiment,NA,NA,2,0.5,0.5,4,5,64,2,NA
fcp-trial,104,823089,0.0-73.0-0.0,voc_e2,12559,"[{""event"":""fullscreenenter"",""trial"":1,""time"":18984}]",NA,NA,NA,NA,NA,3,#D89F1C,#3386FF,10,0,0,40,0,145.59999999403954,37,1,1288.4000000059605,10,0,experiment,NA,NA,1,0.3,0.7,3,2,65,2,NA
fcp-trial,105,825263,0.0-74.0-0.0,voc_e2,12559,"[{""event"":""fullscreenenter"",""trial"":1,""time"":18984}]",NA,NA,NA,NA,NA,3,#741CD8,#D8271C,0,10,0,38,1,401.79999999701977,39,0,266.5,10,1,experiment,NA,NA,0,0.1,0.9,1,0,66,2,NA
fcp-trial,106,827300,0.0-75.0-0.0,voc_e2,12559,"[{""event"":""fullscreenenter"",""trial"":1,""time"":18984}]",NA,NA,NA,NA,NA,5,#741CD8,#D8271C,0,10,0,38,1,196.70000000298023,37,1,333.40000000596046,0,0,experiment,NA,NA,0,0.1,0.9,1,0,67,2,NA
fcp-trial,107,829644,0.0-76.0-0.0,voc_e2,12559,"[{""event"":""fullscreenenter"",""trial"":1,""time"":18984}]",NA,NA,NA,NA,NA,1,#1CD855,#FA92F8,0,10,1,38,1,107.40000000596046,39,0,727.7999999970198,10,0,experiment,NA,NA,2,0.5,0.5,4,5,68,2,NA
fcp-trial,108,834414,0.0-77.0-0.0,voc_e2,12559,"[{""event"":""fullscreenenter"",""trial"":1,""time"":18984}]",NA,NA,NA,NA,NA,0,#741CD8,#D8271C,0,10,0,40,0,164.3999999910593,37,1,3095.5,0,0,experiment,NA,NA,0,0.1,0.9,1,0,69,2,NA
fcp-trial,109,836476,0.0-78.0-0.0,voc_e2,12559,"[{""event"":""fullscreenenter"",""trial"":1,""time"":18984}]",NA,NA,NA,NA,NA,2,#3386FF,#D89F1C,0,10,1,38,1,162.1000000089407,39,0,393.40000000596046,10,0,experiment,NA,NA,1,0.7,0.3,2,3,70,2,NA
fcp-trial,110,838575,0.0-79.0-0.0,voc_e2,12559,"[{""event"":""fullscreenenter"",""trial"":1,""time"":18984}]",NA,NA,NA,NA,NA,5,#D89F1C,#3386FF,0,10,0,38,1,116,37,1,477.90000000596046,0,0,experiment,NA,NA,1,0.3,0.7,3,2,71,2,NA
fcp-trial,111,840715,0.0-80.0-0.0,voc_e2,12559,"[{""event"":""fullscreenenter"",""trial"":1,""time"":18984}]",NA,NA,NA,NA,NA,2,#1CD855,#FA92F8,10,0,1,38,1,288,37,1,343.30000001192093,10,1,experiment,NA,NA,2,0.5,0.5,4,5,72,2,NA
fcp-trial,112,843063,0.0-81.0-0.0,voc_e2,12559,"[{""event"":""fullscreenenter"",""trial"":1,""time"":18984}]",NA,NA,NA,NA,NA,1,#D89F1C,#3386FF,0,10,0,38,1,135.59999999403954,37,1,704.2000000029802,0,0,experiment,NA,NA,1,0.3,0.7,3,2,73,2,NA
fcp-trial,113,844956,0.0-82.0-0.0,voc_e2,12559,"[{""event"":""fullscreenenter"",""trial"":1,""time"":18984}]",NA,NA,NA,NA,NA,2,#D8271C,#741CD8,10,0,1,38,1,39.1000000089407,37,1,348.79999999701977,10,1,experiment,NA,NA,0,0.9,0.1,0,1,74,2,NA
fcp-trial,114,846929,0.0-83.0-0.0,voc_e2,12559,"[{""event"":""fullscreenenter"",""trial"":1,""time"":18984}]",NA,NA,NA,NA,NA,3,#1CD855,#FA92F8,0,10,1,38,1,131.3999999910593,37,1,337.90000000596046,0,1,experiment,NA,NA,2,0.5,0.5,4,5,75,2,NA
fcp-trial,115,849225,0.0-84.0-0.0,voc_e2,12559,"[{""event"":""fullscreenenter"",""trial"":1,""time"":18984}]",NA,NA,NA,NA,NA,6,#FA92F8,#1CD855,0,0,0,38,1,322.59999999403954,37,1,469.5,0,0,experiment,NA,NA,2,0.5,0.5,5,4,76,2,NA
fcp-trial,116,851243,0.0-85.0-0.0,voc_e2,12559,"[{""event"":""fullscreenenter"",""trial"":1,""time"":18984}]",NA,NA,NA,NA,NA,5,#1CD855,#FA92F8,10,0,1,38,1,212,37,1,299,10,1,experiment,NA,NA,2,0.5,0.5,4,5,77,2,NA
fcp-trial,117,853681,0.0-86.0-0.0,voc_e2,12559,"[{""event"":""fullscreenenter"",""trial"":1,""time"":18984}]",NA,NA,NA,NA,NA,6,#3386FF,#D89F1C,10,0,1,38,1,568.5,37,1,360.79999999701977,10,1,experiment,NA,NA,1,0.7,0.3,2,3,78,2,NA
fcp-trial,118,855544,0.0-87.0-0.0,voc_e2,12559,"[{""event"":""fullscreenenter"",""trial"":1,""time"":18984}]",NA,NA,NA,NA,NA,4,#741CD8,#D8271C,10,10,0,38,1,5.700000002980232,37,1,346.70000000298023,10,0,experiment,NA,NA,0,0.1,0.9,1,0,79,2,NA
fcp-trial,119,857800,0.0-88.0-0.0,voc_e2,12559,"[{""event"":""fullscreenenter"",""trial"":1,""time"":18984}]",NA,NA,NA,NA,NA,4,#FA92F8,#1CD855,10,10,0,38,1,185,37,1,564.4000000059605,10,0,experiment,NA,NA,2,0.5,0.5,5,4,80,2,NA
fcp-trial,120,860250,0.0-89.0-0.0,voc_e2,12559,"[{""event"":""fullscreenenter"",""trial"":1,""time"":18984}]",NA,NA,NA,NA,NA,0,#D89F1C,#3386FF,0,10,0,38,1,477.90000000596046,39,0,465.09999999403954,10,1,experiment,NA,NA,1,0.3,0.7,3,2,81,2,NA
fcp-trial,121,862775,0.0-90.0-0.0,voc_e2,12559,"[{""event"":""fullscreenenter"",""trial"":1,""time"":18984}]",NA,NA,NA,NA,NA,1,#D8271C,#741CD8,10,0,1,38,1,236.09999999403954,37,1,781.5999999940395,10,1,experiment,NA,NA,0,0.9,0.1,0,1,82,2,NA
fcp-trial,122,867138,0.0-91.0-0.0,voc_e2,12559,"[{""event"":""fullscreenenter"",""trial"":1,""time"":18984}]",NA,NA,NA,NA,NA,6,#D8271C,#741CD8,0,0,1,40,0,315.70000000298023,39,0,2540.5999999940395,0,0,experiment,NA,NA,0,0.9,0.1,0,1,83,2,NA
fcp-trial,123,869215,0.0-92.0-0.0,voc_e2,12559,"[{""event"":""fullscreenenter"",""trial"":1,""time"":18984}]",NA,NA,NA,NA,NA,4,#D89F1C,#3386FF,10,0,0,38,1,256,37,1,314,10,0,experiment,NA,NA,1,0.3,0.7,3,2,84,2,NA
fcp-trial,124,872936,0.0-93.0-0.0,voc_e2,12559,"[{""event"":""fullscreenenter"",""trial"":1,""time"":18984}]",NA,NA,NA,NA,NA,3,#FA92F8,#1CD855,0,0,0,38,1,1382.5999999940395,37,1,832.7999999970198,0,0,experiment,NA,NA,2,0.5,0.5,5,4,85,2,NA
fcp-trial,125,876502,0.0-94.0-0.0,voc_e2,12559,"[{""event"":""fullscreenenter"",""trial"":1,""time"":18984}]",NA,NA,NA,NA,NA,5,#3386FF,#D89F1C,10,10,1,38,1,1754.7000000029802,39,0,304.20000000298023,10,0,experiment,NA,NA,1,0.7,0.3,2,3,86,2,NA
fcp-trial,126,878802,0.0-95.0-0.0,voc_e2,12559,"[{""event"":""fullscreenenter"",""trial"":1,""time"":18984}]",NA,NA,NA,NA,NA,5,#741CD8,#D8271C,0,10,0,38,1,8.5,37,1,783.5,0,0,experiment,NA,NA,0,0.1,0.9,1,0,87,2,NA
fcp-trial,127,880865,0.0-96.0-0.0,voc_e2,12559,"[{""event"":""fullscreenenter"",""trial"":1,""time"":18984}]",NA,NA,NA,NA,NA,6,#FA92F8,#1CD855,10,0,0,38,1,23.19999998807907,37,1,533.0999999940395,10,0,experiment,NA,NA,2,0.5,0.5,5,4,88,2,NA
fcp-trial,128,882980,0.0-97.0-0.0,voc_e2,12559,"[{""event"":""fullscreenenter"",""trial"":1,""time"":18984}]",NA,NA,NA,NA,NA,2,#D8271C,#741CD8,10,0,1,38,1,228.5,37,1,380.09999999403954,10,1,experiment,NA,NA,0,0.9,0.1,0,1,89,2,NA
fcp-trial,129,884973,0.0-98.0-0.0,voc_e2,12559,"[{""event"":""fullscreenenter"",""trial"":1,""time"":18984}]",NA,NA,NA,NA,NA,0,#3386FF,#D89F1C,0,10,1,38,1,99,37,1,378.79999999701977,0,1,experiment,NA,NA,1,0.7,0.3,2,3,90,2,NA
fcp-trial,130,887739,0.0-99.0-0.0,voc_e2,12559,"[{""event"":""fullscreenenter"",""trial"":1,""time"":18984}]",NA,NA,NA,NA,NA,4,#1CD855,#FA92F8,10,0,1,40,0,301.59999999403954,39,0,958.1000000089408,0,0,experiment,NA,NA,2,0.5,0.5,4,5,91,3,NA
fcp-trial,131,889951,0.0-100.0-0.0,voc_e2,12559,"[{""event"":""fullscreenenter"",""trial"":1,""time"":18984}]",NA,NA,NA,NA,NA,2,#FA92F8,#1CD855,10,0,0,38,1,227.6000000089407,37,1,472.90000000596046,10,0,experiment,NA,NA,2,0.5,0.5,5,4,92,3,NA
fcp-trial,132,892754,0.0-101.0-0.0,voc_e2,12559,"[{""event"":""fullscreenenter"",""trial"":1,""time"":18984}]",NA,NA,NA,NA,NA,0,#1CD855,#FA92F8,10,0,1,38,1,252.59999999403954,39,0,1045.5,0,0,experiment,NA,NA,2,0.5,0.5,4,5,93,3,NA
fcp-trial,133,896771,0.0-102.0-0.0,voc_e2,12559,"[{""event"":""fullscreenenter"",""trial"":1,""time"":18984}]",NA,NA,NA,NA,NA,3,#D8271C,#741CD8,10,0,1,38,1,114.1000000089407,39,0,2395.9000000059605,0,0,experiment,NA,NA,0,0.9,0.1,0,1,94,3,NA
fcp-trial,134,898920,0.0-103.0-0.0,voc_e2,12559,"[{""event"":""fullscreenenter"",""trial"":1,""time"":18984}]",NA,NA,NA,NA,NA,1,#3386FF,#D89F1C,10,0,1,38,1,136.09999999403954,37,1,506.5,10,1,experiment,NA,NA,1,0.7,0.3,2,3,95,3,NA
fcp-trial,135,900924,0.0-104.0-0.0,voc_e2,12559,"[{""event"":""fullscreenenter"",""trial"":1,""time"":18984}]",NA,NA,NA,NA,NA,6,#3386FF,#D89F1C,10,10,1,38,1,146.09999999403954,37,1,353.30000001192093,10,1,experiment,NA,NA,1,0.7,0.3,2,3,96,3,NA
fcp-trial,136,903095,0.0-105.0-0.0,voc_e2,12559,"[{""event"":""fullscreenenter"",""trial"":1,""time"":18984}]",NA,NA,NA,NA,NA,1,#741CD8,#D8271C,10,10,0,40,0,21.5,39,0,643.6000000089407,10,1,experiment,NA,NA,0,0.1,0.9,1,0,97,3,NA
fcp-trial,137,905332,0.0-106.0-0.0,voc_e2,12559,"[{""event"":""fullscreenenter"",""trial"":1,""time"":18984}]",NA,NA,NA,NA,NA,1,#FA92F8,#1CD855,0,0,0,38,1,51.19999998807907,39,0,677.0999999940395,0,1,experiment,NA,NA,2,0.5,0.5,5,4,98,3,NA
fcp-trial,138,907850,0.0-107.0-0.0,voc_e2,12559,"[{""event"":""fullscreenenter"",""trial"":1,""time"":18984}]",NA,NA,NA,NA,NA,0,#D8271C,#741CD8,0,0,1,38,1,609.9000000059605,39,0,390,0,0,experiment,NA,NA,0,0.9,0.1,0,1,99,3,NA
fcp-trial,139,910112,0.0-108.0-0.0,voc_e2,12559,"[{""event"":""fullscreenenter"",""trial"":1,""time"":18984}]",NA,NA,NA,NA,NA,4,#741CD8,#D8271C,0,10,0,38,1,191.6000000089407,39,0,559.7000000029802,10,1,experiment,NA,NA,0,0.1,0.9,1,0,100,3,NA
fcp-trial,140,912079,0.0-109.0-0.0,voc_e2,12559,"[{""event"":""fullscreenenter"",""trial"":1,""time"":18984}]",NA,NA,NA,NA,NA,2,#3386FF,#D89F1C,10,0,1,38,1,112.3999999910593,39,0,343.70000000298023,0,0,experiment,NA,NA,1,0.7,0.3,2,3,101,3,NA
fcp-trial,141,914373,0.0-110.0-0.0,voc_e2,12559,"[{""event"":""fullscreenenter"",""trial"":1,""time"":18984}]",NA,NA,NA,NA,NA,6,#741CD8,#D8271C,0,10,0,40,0,20.899999991059303,39,0,765.5,10,1,experiment,NA,NA,0,0.1,0.9,1,0,102,3,NA
fcp-trial,142,916378,0.0-111.0-0.0,voc_e2,12559,"[{""event"":""fullscreenenter"",""trial"":1,""time"":18984}]",NA,NA,NA,NA,NA,5,#1CD855,#FA92F8,10,10,1,38,1,134.59999999403954,37,1,364.5,10,1,experiment,NA,NA,2,0.5,0.5,4,5,103,3,NA
fcp-trial,143,918545,0.0-112.0-0.0,voc_e2,12559,"[{""event"":""fullscreenenter"",""trial"":1,""time"":18984}]",NA,NA,NA,NA,NA,4,#D89F1C,#3386FF,0,10,0,38,1,135.1000000089407,37,1,523.4000000059605,0,0,experiment,NA,NA,1,0.3,0.7,3,2,104,3,NA
fcp-trial,144,920596,0.0-113.0-0.0,voc_e2,12559,"[{""event"":""fullscreenenter"",""trial"":1,""time"":18984}]",NA,NA,NA,NA,NA,3,#D89F1C,#3386FF,0,10,0,38,1,151.19999998807907,37,1,389.199999988079,0,0,experiment,NA,NA,1,0.3,0.7,3,2,105,3,NA
audio-instructions,145,935836,0.0-114.0,voc_e2,12559,"[{""event"":""fullscreenenter"",""trial"":1,""time"":18984}]",NA,10069.79999999702,static/audio/pause.wav,NA,0,NA,NA,NA,NA,NA,NA,NA,NA,NA,NA,NA,NA,NA,NA,NA,NA,NA,NA,NA,NA,NA,NA,NA,NA,NA
fcp-trial,146,939536,0.0-115.0-0.0,voc_e2,12559,"[{""event"":""fullscreenenter"",""trial"":1,""time"":18984}]",NA,NA,NA,NA,NA,3,#D89F1C,#3386FF,0,10,0,40,0,1458.2999999970198,39,0,735.5999999940395,10,1,experiment,NA,NA,1,0.3,0.7,3,2,106,3,NA
fcp-trial,147,944906,0.0-116.0-0.0,voc_e2,12559,"[{""event"":""fullscreenenter"",""trial"":1,""time"":18984}]",NA,NA,NA,NA,NA,0,#D8271C,#741CD8,10,0,1,38,1,687.3999999910593,39,0,3168.0999999940395,0,0,experiment,NA,NA,0,0.9,0.1,0,1,107,3,NA
fcp-trial,148,948220,0.0-117.0-0.0,voc_e2,12559,"[{""event"":""fullscreenenter"",""trial"":1,""time"":18984}]",NA,NA,NA,NA,NA,4,#FA92F8,#1CD855,0,0,0,38,1,915.0999999940395,39,0,883.5,0,1,experiment,NA,NA,2,0.5,0.5,5,4,108,3,NA
fcp-trial,149,950422,0.0-118.0-0.0,voc_e2,12559,"[{""event"":""fullscreenenter"",""trial"":1,""time"":18984}]",NA,NA,NA,NA,NA,6,#FA92F8,#1CD855,10,0,0,38,1,335.80000001192093,37,1,350.79999999701977,10,0,experiment,NA,NA,2,0.5,0.5,5,4,109,3,NA
fcp-trial,150,953186,0.0-119.0-0.0,voc_e2,12559,"[{""event"":""fullscreenenter"",""trial"":1,""time"":18984}]",NA,NA,NA,NA,NA,1,#741CD8,#D8271C,0,10,0,38,1,10.299999997019768,37,1,1238.7000000029802,0,0,experiment,NA,NA,0,0.1,0.9,1,0,110,3,NA
fcp-trial,151,955533,0.0-120.0-0.0,voc_e2,12559,"[{""event"":""fullscreenenter"",""trial"":1,""time"":18984}]",NA,NA,NA,NA,NA,5,#D89F1C,#3386FF,0,0,0,38,1,410.09999999403954,37,1,427,0,0,experiment,NA,NA,1,0.3,0.7,3,2,111,3,NA
fcp-trial,152,960713,0.0-121.0-0.0,voc_e2,12559,"[{""event"":""fullscreenenter"",""trial"":1,""time"":18984}]",NA,NA,NA,NA,NA,1,#D89F1C,#3386FF,10,10,0,40,0,446.20000000298023,37,1,3228.29999999702,10,0,experiment,NA,NA,1,0.3,0.7,3,2,112,3,NA
fcp-trial,153,966178,0.0-122.0-0.0,voc_e2,12559,"[{""event"":""fullscreenenter"",""trial"":1,""time"":18984}]",NA,NA,NA,NA,NA,6,#741CD8,#D8271C,0,10,0,38,1,2.5999999940395355,39,0,3958.70000000298,10,1,experiment,NA,NA,0,0.1,0.9,1,0,113,3,NA
fcp-trial,154,968945,0.0-123.0-0.0,voc_e2,12559,"[{""event"":""fullscreenenter"",""trial"":1,""time"":18984}]",NA,NA,NA,NA,NA,5,#FA92F8,#1CD855,10,0,0,38,1,231,37,1,1031.199999988079,10,0,experiment,NA,NA,2,0.5,0.5,5,4,114,3,NA
fcp-trial,155,971220,0.0-124.0-0.0,voc_e2,12559,"[{""event"":""fullscreenenter"",""trial"":1,""time"":18984}]",NA,NA,NA,NA,NA,4,#D89F1C,#3386FF,0,10,0,38,1,44.3999999910593,37,1,724,0,0,experiment,NA,NA,1,0.3,0.7,3,2,115,3,NA
fcp-trial,156,974259,0.0-125.0-0.0,voc_e2,12559,"[{""event"":""fullscreenenter"",""trial"":1,""time"":18984}]",NA,NA,NA,NA,NA,3,#1CD855,#FA92F8,10,0,1,40,0,87.1000000089407,39,0,1444.2999999970198,0,0,experiment,NA,NA,2,0.5,0.5,4,5,116,3,NA
fcp-trial,157,977392,0.0-126.0-0.0,voc_e2,12559,"[{""event"":""fullscreenenter"",""trial"":1,""time"":18984}]",NA,NA,NA,NA,NA,1,#1CD855,#FA92F8,10,10,1,40,0,672,39,0,952.2000000029802,10,0,experiment,NA,NA,2,0.5,0.5,4,5,117,3,NA
fcp-trial,158,980024,0.0-127.0-0.0,voc_e2,12559,"[{""event"":""fullscreenenter"",""trial"":1,""time"":18984}]",NA,NA,NA,NA,NA,3,#741CD8,#D8271C,0,0,0,38,1,550.7999999970198,37,1,573.5999999940395,0,0,experiment,NA,NA,0,0.1,0.9,1,0,118,3,NA
fcp-trial,159,985321,0.0-128.0-0.0,voc_e2,12559,"[{""event"":""fullscreenenter"",""trial"":1,""time"":18984}]",NA,NA,NA,NA,NA,2,#1CD855,#FA92F8,10,10,1,38,1,401,37,1,3387.0999999940395,10,1,experiment,NA,NA,2,0.5,0.5,4,5,119,3,NA
fcp-trial,160,987544,0.0-129.0-0.0,voc_e2,12559,"[{""event"":""fullscreenenter"",""trial"":1,""time"":18984}]",NA,NA,NA,NA,NA,2,#3386FF,#D89F1C,0,0,1,38,1,122.8999999910593,37,1,592.1000000089407,0,1,experiment,NA,NA,1,0.7,0.3,2,3,120,3,NA
fcp-trial,161,990151,0.0-130.0-0.0,voc_e2,12559,"[{""event"":""fullscreenenter"",""trial"":1,""time"":18984}]",NA,NA,NA,NA,NA,4,#D8271C,#741CD8,10,0,1,38,1,117.59999999403954,37,1,979.1000000089408,10,1,experiment,NA,NA,0,0.9,0.1,0,1,121,3,NA
fcp-trial,162,993991,0.0-131.0-0.0,voc_e2,12559,"[{""event"":""fullscreenenter"",""trial"":1,""time"":18984}]",NA,NA,NA,NA,NA,0,#FA92F8,#1CD855,10,0,0,40,0,4.200000002980232,39,0,2329.3999999910593,0,1,experiment,NA,NA,2,0.5,0.5,5,4,122,3,NA
fcp-trial,163,997855,0.0-132.0-0.0,voc_e2,12559,"[{""event"":""fullscreenenter"",""trial"":1,""time"":18984}]",NA,NA,NA,NA,NA,0,#3386FF,#D89F1C,10,0,1,38,1,718.5999999940395,39,0,1639.5,0,0,experiment,NA,NA,1,0.7,0.3,2,3,123,3,NA
fcp-trial,164,1000303,0.0-133.0-0.0,voc_e2,12559,"[{""event"":""fullscreenenter"",""trial"":1,""time"":18984}]",NA,NA,NA,NA,NA,2,#D8271C,#741CD8,10,0,1,38,1,582.7000000029802,37,1,359.8999999910593,10,1,experiment,NA,NA,0,0.9,0.1,0,1,124,3,NA
fcp-trial,165,1003466,0.0-134.0-0.0,voc_e2,12559,"[{""event"":""fullscreenenter"",""trial"":1,""time"":18984}]",NA,NA,NA,NA,NA,5,#D8271C,#741CD8,0,0,1,38,1,422.09999999403954,37,1,1233,0,1,experiment,NA,NA,0,0.9,0.1,0,1,125,3,NA
fcp-trial,166,1006964,0.0-135.0-0.0,voc_e2,12559,"[{""event"":""fullscreenenter"",""trial"":1,""time"":18984}]",NA,NA,NA,NA,NA,6,#3386FF,#D89F1C,10,0,1,38,1,166.5,37,1,1821.20000000298,10,1,experiment,NA,NA,1,0.7,0.3,2,3,126,3,NA
fcp-trial,167,1012212,0.0-136.0-0.0,voc_e2,12559,"[{""event"":""fullscreenenter"",""trial"":1,""time"":18984}]",NA,NA,NA,NA,NA,2,#3386FF,#D89F1C,10,0,1,38,1,196,37,1,3542.6000000089407,10,1,experiment,NA,NA,1,0.7,0.3,2,3,127,3,NA
fcp-trial,168,1015951,0.0-137.0-0.0,voc_e2,12559,"[{""event"":""fullscreenenter"",""trial"":1,""time"":18984}]",NA,NA,NA,NA,NA,4,#1CD855,#FA92F8,10,0,1,38,1,42.29999999701977,37,1,2189.20000000298,10,1,experiment,NA,NA,2,0.5,0.5,4,5,128,3,NA
fcp-trial,169,1020056,0.0-138.0-0.0,voc_e2,12559,"[{""event"":""fullscreenenter"",""trial"":1,""time"":18984}]",NA,NA,NA,NA,NA,5,#FA92F8,#1CD855,0,0,0,38,1,198.80000001192093,39,0,2396.3999999910593,0,1,experiment,NA,NA,2,0.5,0.5,5,4,129,3,NA
fcp-trial,170,1024897,0.0-139.0-0.0,voc_e2,12559,"[{""event"":""fullscreenenter"",""trial"":1,""time"":18984}]",NA,NA,NA,NA,NA,0,#741CD8,#D8271C,0,10,0,38,1,497.5,37,1,2837.4000000059605,0,0,experiment,NA,NA,0,0.1,0.9,1,0,130,3,NA
fcp-trial,171,1027053,0.0-140.0-0.0,voc_e2,12559,"[{""event"":""fullscreenenter"",""trial"":1,""time"":18984}]",NA,NA,NA,NA,NA,3,#D8271C,#741CD8,10,0,1,38,1,272.69999998807907,37,1,377.90000000596046,10,1,experiment,NA,NA,0,0.9,0.1,0,1,131,3,NA
fcp-trial,172,1030234,0.0-141.0-0.0,voc_e2,12559,"[{""event"":""fullscreenenter"",""trial"":1,""time"":18984}]",NA,NA,NA,NA,NA,4,#3386FF,#D89F1C,10,10,1,38,1,282.90000000596046,37,1,1391.7000000029802,10,1,experiment,NA,NA,1,0.7,0.3,2,3,132,3,NA
fcp-trial,173,1032606,0.0-142.0-0.0,voc_e2,12559,"[{""event"":""fullscreenenter"",""trial"":1,""time"":18984}]",NA,NA,NA,NA,NA,3,#FA92F8,#1CD855,10,0,0,38,1,414.3999999910593,37,1,450.20000000298023,10,0,experiment,NA,NA,2,0.5,0.5,5,4,133,3,NA
fcp-trial,174,1035492,0.0-143.0-0.0,voc_e2,12559,"[{""event"":""fullscreenenter"",""trial"":1,""time"":18984}]",NA,NA,NA,NA,NA,3,#3386FF,#D89F1C,10,0,1,40,0,282.59999999403954,39,0,1095.5,0,0,experiment,NA,NA,1,0.7,0.3,2,3,134,3,NA
fcp-trial,175,1038086,0.0-144.0-0.0,voc_e2,12559,"[{""event"":""fullscreenenter"",""trial"":1,""time"":18984}]",NA,NA,NA,NA,NA,2,#FA92F8,#1CD855,10,10,0,38,1,483.5,37,1,603.9000000059605,10,0,experiment,NA,NA,2,0.5,0.5,5,4,135,3,NA
fcp-trial,176,1040885,0.0-145.0-0.0,voc_e2,12559,"[{""event"":""fullscreenenter"",""trial"":1,""time"":18984}]",NA,NA,NA,NA,NA,2,#741CD8,#D8271C,0,0,0,38,1,615.5,37,1,672.1000000089407,0,0,experiment,NA,NA,0,0.1,0.9,1,0,136,4,NA
fcp-trial,177,1043011,0.0-146.0-0.0,voc_e2,12559,"[{""event"":""fullscreenenter"",""trial"":1,""time"":18984}]",NA,NA,NA,NA,NA,1,#D89F1C,#3386FF,0,10,0,38,1,274.70000000298023,37,1,338.09999999403954,0,0,experiment,NA,NA,1,0.3,0.7,3,2,137,4,NA
fcp-trial,178,1046232,0.0-147.0-0.0,voc_e2,12559,"[{""event"":""fullscreenenter"",""trial"":1,""time"":18984}]",NA,NA,NA,NA,NA,5,#3386FF,#D89F1C,10,0,1,38,1,280.59999999403954,39,0,1433.199999988079,0,0,experiment,NA,NA,1,0.7,0.3,2,3,138,4,NA
fcp-trial,179,1048896,0.0-148.0-0.0,voc_e2,12559,"[{""event"":""fullscreenenter"",""trial"":1,""time"":18984}]",NA,NA,NA,NA,NA,6,#D8271C,#741CD8,10,0,1,38,1,504,37,1,654.0999999940395,10,1,experiment,NA,NA,0,0.9,0.1,0,1,139,4,NA
fcp-trial,180,1051138,0.0-149.0-0.0,voc_e2,12559,"[{""event"":""fullscreenenter"",""trial"":1,""time"":18984}]",NA,NA,NA,NA,NA,6,#FA92F8,#1CD855,0,10,0,38,1,149.6000000089407,39,0,585.5,10,1,experiment,NA,NA,2,0.5,0.5,5,4,140,4,NA
fcp-trial,181,1053363,0.0-150.0-0.0,voc_e2,12559,"[{""event"":""fullscreenenter"",""trial"":1,""time"":18984}]",NA,NA,NA,NA,NA,1,#1CD855,#FA92F8,0,0,1,38,1,45,37,1,673.7000000029802,0,1,experiment,NA,NA,2,0.5,0.5,4,5,141,4,NA
fcp-trial,182,1056935,0.0-151.0-0.0,voc_e2,12559,"[{""event"":""fullscreenenter"",""trial"":1,""time"":18984}]",NA,NA,NA,NA,NA,6,#D89F1C,#3386FF,10,0,0,40,0,196.29999999701977,39,0,1870.79999999702,0,1,experiment,NA,NA,1,0.3,0.7,3,2,142,4,NA
fcp-trial,183,1059002,0.0-152.0-0.0,voc_e2,12559,"[{""event"":""fullscreenenter"",""trial"":1,""time"":18984}]",NA,NA,NA,NA,NA,1,#741CD8,#D8271C,0,10,0,38,1,12.799999997019768,37,1,549.0999999940395,0,0,experiment,NA,NA,0,0.1,0.9,1,0,143,4,NA
fcp-trial,184,1061526,0.0-153.0-0.0,voc_e2,12559,"[{""event"":""fullscreenenter"",""trial"":1,""time"":18984}]",NA,NA,NA,NA,NA,5,#D8271C,#741CD8,10,0,1,38,1,685.5999999940395,39,0,333.3999999910593,0,0,experiment,NA,NA,0,0.9,0.1,0,1,144,4,NA
fcp-trial,185,1064143,0.0-154.0-0.0,voc_e2,12559,"[{""event"":""fullscreenenter"",""trial"":1,""time"":18984}]",NA,NA,NA,NA,NA,0,#1CD855,#FA92F8,10,0,1,40,0,81.79999999701977,37,1,1026.9000000059605,10,1,experiment,NA,NA,2,0.5,0.5,4,5,145,4,NA
fcp-trial,186,1066749,0.0-155.0-0.0,voc_e2,12559,"[{""event"":""fullscreenenter"",""trial"":1,""time"":18984}]",NA,NA,NA,NA,NA,0,#3386FF,#D89F1C,10,0,1,38,1,128.20000000298023,37,1,967.2999999970198,10,1,experiment,NA,NA,1,0.7,0.3,2,3,146,4,NA
fcp-trial,187,1069084,0.0-156.0-0.0,voc_e2,12559,"[{""event"":""fullscreenenter"",""trial"":1,""time"":18984}]",NA,NA,NA,NA,NA,4,#D8271C,#741CD8,10,0,1,38,1,110.5,39,0,716.2999999970198,0,0,experiment,NA,NA,0,0.9,0.1,0,1,147,4,NA
fcp-trial,188,1071167,0.0-157.0-0.0,voc_e2,12559,"[{""event"":""fullscreenenter"",""trial"":1,""time"":18984}]",NA,NA,NA,NA,NA,0,#1CD855,#FA92F8,10,0,1,38,1,17.5,37,1,559,10,1,experiment,NA,NA,2,0.5,0.5,4,5,148,4,NA
fcp-trial,189,1074046,0.0-158.0-0.0,voc_e2,12559,"[{""event"":""fullscreenenter"",""trial"":1,""time"":18984}]",NA,NA,NA,NA,NA,2,#FA92F8,#1CD855,10,10,0,38,1,134.79999999701977,37,1,1237.3999999910593,10,0,experiment,NA,NA,2,0.5,0.5,5,4,149,4,NA
fcp-trial,190,1077497,0.0-159.0-0.0,voc_e2,12559,"[{""event"":""fullscreenenter"",""trial"":1,""time"":18984}]",NA,NA,NA,NA,NA,2,#741CD8,#D8271C,0,10,0,38,1,1551.0999999940395,37,1,390.90000000596046,0,0,experiment,NA,NA,0,0.1,0.9,1,0,150,4,NA
fcp-trial,191,1079401,0.0-160.0-0.0,voc_e2,12559,"[{""event"":""fullscreenenter"",""trial"":1,""time"":18984}]",NA,NA,NA,NA,NA,6,#FA92F8,#1CD855,0,10,0,38,1,62.599999994039536,37,1,329.70000000298023,0,0,experiment,NA,NA,2,0.5,0.5,5,4,151,4,NA
fcp-trial,192,1081800,0.0-161.0-0.0,voc_e2,12559,"[{""event"":""fullscreenenter"",""trial"":1,""time"":18984}]",NA,NA,NA,NA,NA,2,#D89F1C,#3386FF,0,10,0,38,1,404.29999999701977,37,1,485.199999988079,0,0,experiment,NA,NA,1,0.3,0.7,3,2,152,4,NA
fcp-trial,193,1085153,0.0-162.0-0.0,voc_e2,12559,"[{""event"":""fullscreenenter"",""trial"":1,""time"":18984}]",NA,NA,NA,NA,NA,5,#D89F1C,#3386FF,0,10,0,38,1,1428.7999999970198,37,1,417.59999999403954,0,0,experiment,NA,NA,1,0.3,0.7,3,2,153,4,NA
fcp-trial,194,1087655,0.0-163.0-0.0,voc_e2,12559,"[{""event"":""fullscreenenter"",""trial"":1,""time"":18984}]",NA,NA,NA,NA,NA,3,#D8271C,#741CD8,10,10,1,38,1,137.1000000089407,37,1,859.4000000059605,10,1,experiment,NA,NA,0,0.9,0.1,0,1,154,4,NA
fcp-trial,195,1089699,0.0-164.0-0.0,voc_e2,12559,"[{""event"":""fullscreenenter"",""trial"":1,""time"":18984}]",NA,NA,NA,NA,NA,1,#1CD855,#FA92F8,0,0,1,38,1,238.5,37,1,299.90000000596046,0,1,experiment,NA,NA,2,0.5,0.5,4,5,155,4,NA
fcp-trial,196,1091621,0.0-165.0-0.0,voc_e2,12559,"[{""event"":""fullscreenenter"",""trial"":1,""time"":18984}]",NA,NA,NA,NA,NA,1,#D89F1C,#3386FF,0,10,0,38,1,128.29999999701977,37,1,284.59999999403954,0,0,experiment,NA,NA,1,0.3,0.7,3,2,156,4,NA
fcp-trial,197,1095473,0.0-166.0-0.0,voc_e2,12559,"[{""event"":""fullscreenenter"",""trial"":1,""time"":18984}]",NA,NA,NA,NA,NA,3,#1CD855,#FA92F8,10,10,1,38,1,65.29999999701977,37,1,2280.79999999702,10,1,experiment,NA,NA,2,0.5,0.5,4,5,157,4,NA
fcp-trial,198,1097525,0.0-167.0-0.0,voc_e2,12559,"[{""event"":""fullscreenenter"",""trial"":1,""time"":18984}]",NA,NA,NA,NA,NA,1,#741CD8,#D8271C,0,10,0,38,1,176.59999999403954,37,1,369.3999999910593,0,0,experiment,NA,NA,0,0.1,0.9,1,0,158,4,NA
fcp-trial,199,1099698,0.0-168.0-0.0,voc_e2,12559,"[{""event"":""fullscreenenter"",""trial"":1,""time"":18984}]",NA,NA,NA,NA,NA,4,#FA92F8,#1CD855,0,0,0,38,1,350.29999999701977,37,1,316.09999999403954,0,0,experiment,NA,NA,2,0.5,0.5,5,4,159,4,NA
fcp-trial,200,1102282,0.0-169.0-0.0,voc_e2,12559,"[{""event"":""fullscreenenter"",""trial"":1,""time"":18984}]",NA,NA,NA,NA,NA,3,#D89F1C,#3386FF,0,10,0,38,1,102.79999999701977,37,1,972.7000000029802,0,0,experiment,NA,NA,1,0.3,0.7,3,2,160,4,NA
fcp-trial,201,1105178,0.0-170.0-0.0,voc_e2,12559,"[{""event"":""fullscreenenter"",""trial"":1,""time"":18984}]",NA,NA,NA,NA,NA,0,#D89F1C,#3386FF,0,10,0,38,1,302,39,0,1086.1000000089407,10,1,experiment,NA,NA,1,0.3,0.7,3,2,161,4,NA
fcp-trial,202,1107383,0.0-171.0-0.0,voc_e2,12559,"[{""event"":""fullscreenenter"",""trial"":1,""time"":18984}]",NA,NA,NA,NA,NA,0,#741CD8,#D8271C,0,10,0,38,1,148.5,39,0,549.8000000119209,10,1,experiment,NA,NA,0,0.1,0.9,1,0,162,4,NA
fcp-trial,203,1110223,0.0-172.0-0.0,voc_e2,12559,"[{""event"":""fullscreenenter"",""trial"":1,""time"":18984}]",NA,NA,NA,NA,NA,5,#741CD8,#D8271C,0,10,0,38,1,402.40000000596046,37,1,929.0999999940396,0,0,experiment,NA,NA,0,0.1,0.9,1,0,163,4,NA
fcp-trial,204,1113167,0.0-173.0-0.0,voc_e2,12559,"[{""event"":""fullscreenenter"",""trial"":1,""time"":18984}]",NA,NA,NA,NA,NA,5,#1CD855,#FA92F8,10,10,1,40,0,355.20000000298023,37,1,1084.2999999970198,10,1,experiment,NA,NA,2,0.5,0.5,4,5,164,4,NA
fcp-trial,205,1116041,0.0-174.0-0.0,voc_e2,12559,"[{""event"":""fullscreenenter"",""trial"":1,""time"":18984}]",NA,NA,NA,NA,NA,6,#D89F1C,#3386FF,0,0,0,38,1,33.8999999910593,37,1,1325,0,0,experiment,NA,NA,1,0.3,0.7,3,2,165,4,NA
fcp-trial,206,1121370,0.0-175.0-0.0,voc_e2,12559,"[{""event"":""fullscreenenter"",""trial"":1,""time"":18984}]",NA,NA,NA,NA,NA,4,#D8271C,#741CD8,10,0,1,40,0,618.6999999880791,39,0,3204,0,0,experiment,NA,NA,0,0.9,0.1,0,1,166,4,NA
fcp-trial,207,1125323,0.0-176.0-0.0,voc_e2,12559,"[{""event"":""fullscreenenter"",""trial"":1,""time"":18984}]",NA,NA,NA,NA,NA,4,#D89F1C,#3386FF,0,10,0,38,1,1220.7999999970198,39,0,1221,10,1,experiment,NA,NA,1,0.3,0.7,3,2,167,4,NA
fcp-trial,208,1129781,0.0-177.0-0.0,voc_e2,12559,"[{""event"":""fullscreenenter"",""trial"":1,""time"":18984}]",NA,NA,NA,NA,NA,6,#741CD8,#D8271C,0,10,0,38,1,577.2999999970198,37,1,2371.29999999702,0,0,experiment,NA,NA,0,0.1,0.9,1,0,168,4,NA
fcp-trial,209,1132279,0.0-178.0-0.0,voc_e2,12559,"[{""event"":""fullscreenenter"",""trial"":1,""time"":18984}]",NA,NA,NA,NA,NA,2,#3386FF,#D89F1C,10,10,1,38,1,49.8999999910593,37,1,941,10,1,experiment,NA,NA,1,0.7,0.3,2,3,169,4,NA
fcp-trial,210,1134484,0.0-179.0-0.0,voc_e2,12559,"[{""event"":""fullscreenenter"",""trial"":1,""time"":18984}]",NA,NA,NA,NA,NA,2,#FA92F8,#1CD855,10,0,0,38,1,360.79999999701977,37,1,337.5,10,0,experiment,NA,NA,2,0.5,0.5,5,4,170,4,NA
fcp-trial,211,1136617,0.0-180.0-0.0,voc_e2,12559,"[{""event"":""fullscreenenter"",""trial"":1,""time"":18984}]",NA,NA,NA,NA,NA,1,#D8271C,#741CD8,10,0,1,38,1,298.29999999701977,37,1,324.59999999403954,10,1,experiment,NA,NA,0,0.9,0.1,0,1,171,4,NA
fcp-trial,212,1139082,0.0-181.0-0.0,voc_e2,12559,"[{""event"":""fullscreenenter"",""trial"":1,""time"":18984}]",NA,NA,NA,NA,NA,4,#3386FF,#D89F1C,10,10,1,38,1,639.0999999940395,37,1,320.5,10,1,experiment,NA,NA,1,0.7,0.3,2,3,172,4,NA
fcp-trial,213,1150285,0.0-182.0-0.0,voc_e2,12559,"[{""event"":""fullscreenenter"",""trial"":1,""time"":18984}]",NA,NA,NA,NA,NA,6,#1CD855,#FA92F8,0,10,1,40,0,76.59999999403954,39,0,9619.90000000596,10,0,experiment,NA,NA,2,0.5,0.5,4,5,173,4,NA
fcp-trial,214,1152200,0.0-183.0-0.0,voc_e2,12559,"[{""event"":""fullscreenenter"",""trial"":1,""time"":18984}]",NA,NA,NA,NA,NA,3,#741CD8,#D8271C,0,10,0,38,1,154.29999999701977,39,0,254.8999999910593,10,1,experiment,NA,NA,0,0.1,0.9,1,0,174,4,NA
fcp-trial,215,1155884,0.0-184.0-0.0,voc_e2,12559,"[{""event"":""fullscreenenter"",""trial"":1,""time"":18984}]",NA,NA,NA,NA,NA,1,#FA92F8,#1CD855,0,0,0,38,1,646.5999999940395,37,1,1530.7000000029802,0,0,experiment,NA,NA,2,0.5,0.5,5,4,175,4,NA
fcp-trial,216,1158693,0.0-185.0-0.0,voc_e2,12559,"[{""event"":""fullscreenenter"",""trial"":1,""time"":18984}]",NA,NA,NA,NA,NA,6,#3386FF,#D89F1C,10,0,1,38,1,714.6999999880791,39,0,587.6000000089407,0,0,experiment,NA,NA,1,0.7,0.3,2,3,176,4,NA
fcp-trial,217,1161741,0.0-186.0-0.0,voc_e2,12559,"[{""event"":""fullscreenenter"",""trial"":1,""time"":18984}]",NA,NA,NA,NA,NA,0,#741CD8,#D8271C,0,0,0,38,1,193,39,0,1347.5,0,1,experiment,NA,NA,0,0.1,0.9,1,0,177,4,NA
fcp-trial,218,1163591,0.0-187.0-0.0,voc_e2,12559,"[{""event"":""fullscreenenter"",""trial"":1,""time"":18984}]",NA,NA,NA,NA,NA,1,#D89F1C,#3386FF,10,10,0,38,1,58.69999998807907,37,1,283.29999999701977,10,0,experiment,NA,NA,1,0.3,0.7,3,2,178,4,NA
fcp-trial,219,1166592,0.0-188.0-0.0,voc_e2,12559,"[{""event"":""fullscreenenter"",""trial"":1,""time"":18984}]",NA,NA,NA,NA,NA,0,#D89F1C,#3386FF,10,10,0,38,1,1135.8999999910593,37,1,358.09999999403954,10,0,experiment,NA,NA,1,0.3,0.7,3,2,179,4,NA
fcp-trial,220,1168846,0.0-189.0-0.0,voc_e2,12559,"[{""event"":""fullscreenenter"",""trial"":1,""time"":18984}]",NA,NA,NA,NA,NA,3,#1CD855,#FA92F8,0,0,1,38,1,473.70000000298023,37,1,273.29999999701977,0,1,experiment,NA,NA,2,0.5,0.5,4,5,180,4,NA
fcp-trial,221,1172032,0.0-190.0-0.0,voc_e2,12559,"[{""event"":""fullscreenenter"",""trial"":1,""time"":18984}]",NA,NA,NA,NA,NA,0,#1CD855,#FA92F8,0,10,1,38,1,1320.2999999970198,39,0,355.5,10,0,experiment,NA,NA,2,0.5,0.5,4,5,181,5,NA
fcp-trial,222,1173985,0.0-191.0-0.0,voc_e2,12559,"[{""event"":""fullscreenenter"",""trial"":1,""time"":18984}]",NA,NA,NA,NA,NA,2,#D8271C,#741CD8,10,0,1,38,1,102.5,37,1,339.90000000596046,10,1,experiment,NA,NA,0,0.9,0.1,0,1,182,5,NA
fcp-trial,223,1176134,0.0-192.0-0.0,voc_e2,12559,"[{""event"":""fullscreenenter"",""trial"":1,""time"":18984}]",NA,NA,NA,NA,NA,3,#3386FF,#D89F1C,10,0,1,38,1,300.20000000298023,37,1,341.5,10,1,experiment,NA,NA,1,0.7,0.3,2,3,183,5,NA
fcp-trial,224,1181425,0.0-193.0-0.0,voc_e2,12559,"[{""event"":""fullscreenenter"",""trial"":1,""time"":18984}]",NA,NA,NA,NA,NA,5,#741CD8,#D8271C,10,10,0,38,1,497.1000000089407,37,1,3287,10,0,experiment,NA,NA,0,0.1,0.9,1,0,184,5,NA
fcp-trial,225,1184411,0.0-194.0-0.0,voc_e2,12559,"[{""event"":""fullscreenenter"",""trial"":1,""time"":18984}]",NA,NA,NA,NA,NA,5,#1CD855,#FA92F8,10,10,1,38,1,211.79999999701977,37,1,1267.9000000059605,10,1,experiment,NA,NA,2,0.5,0.5,4,5,185,5,NA
fcp-trial,226,1186302,0.0-195.0-0.0,voc_e2,12559,"[{""event"":""fullscreenenter"",""trial"":1,""time"":18984}]",NA,NA,NA,NA,NA,4,#FA92F8,#1CD855,10,10,0,38,1,51.30000001192093,37,1,332.79999999701977,10,0,experiment,NA,NA,2,0.5,0.5,5,4,186,5,NA
fcp-trial,227,1190782,0.0-196.0-0.0,voc_e2,12559,"[{""event"":""fullscreenenter"",""trial"":1,""time"":18984}]",NA,NA,NA,NA,NA,5,#D89F1C,#3386FF,10,10,0,38,1,254.5,39,0,2715.79999999702,10,1,experiment,NA,NA,1,0.3,0.7,3,2,187,5,NA
fcp-trial,228,1196133,0.0-197.0-0.0,voc_e2,12559,"[{""event"":""fullscreenenter"",""trial"":1,""time"":18984}]",NA,NA,NA,NA,NA,6,#741CD8,#D8271C,0,0,0,38,1,1640.199999988079,39,0,2204.8999999910593,0,1,experiment,NA,NA,0,0.1,0.9,1,0,188,5,NA
fcp-trial,229,1198634,0.0-198.0-0.0,voc_e2,12559,"[{""event"":""fullscreenenter"",""trial"":1,""time"":18984}]",NA,NA,NA,NA,NA,4,#D8271C,#741CD8,10,0,1,38,1,417.20000000298023,39,0,578.4000000059605,0,0,experiment,NA,NA,0,0.9,0.1,0,1,189,5,NA
fcp-trial,230,1201542,0.0-199.0-0.0,voc_e2,12559,"[{""event"":""fullscreenenter"",""trial"":1,""time"":18984}]",NA,NA,NA,NA,NA,2,#FA92F8,#1CD855,0,0,0,40,0,839.9000000059605,37,1,561.2999999970198,0,0,experiment,NA,NA,2,0.5,0.5,5,4,190,5,NA
fcp-trial,231,1204321,0.0-200.0-0.0,voc_e2,12559,"[{""event"":""fullscreenenter"",""trial"":1,""time"":18984}]",NA,NA,NA,NA,NA,4,#D8271C,#741CD8,10,10,1,38,1,130.29999999701977,37,1,1143.3999999910593,10,1,experiment,NA,NA,0,0.9,0.1,0,1,191,5,NA
fcp-trial,232,1206763,0.0-201.0-0.0,voc_e2,12559,"[{""event"":""fullscreenenter"",""trial"":1,""time"":18984}]",NA,NA,NA,NA,NA,2,#741CD8,#D8271C,0,10,0,38,1,606.2999999970198,37,1,330.5,0,0,experiment,NA,NA,0,0.1,0.9,1,0,192,5,NA
fcp-trial,233,1208989,0.0-202.0-0.0,voc_e2,12559,"[{""event"":""fullscreenenter"",""trial"":1,""time"":18984}]",NA,NA,NA,NA,NA,4,#1CD855,#FA92F8,0,10,1,38,1,3.2999999970197678,37,1,718.1000000089407,0,1,experiment,NA,NA,2,0.5,0.5,4,5,193,5,NA
fcp-trial,234,1211497,0.0-203.0-0.0,voc_e2,12559,"[{""event"":""fullscreenenter"",""trial"":1,""time"":18984}]",NA,NA,NA,NA,NA,3,#3386FF,#D89F1C,10,10,1,38,1,66.90000000596046,37,1,935.1999999880792,10,1,experiment,NA,NA,1,0.7,0.3,2,3,194,5,NA
fcp-trial,235,1214174,0.0-204.0-0.0,voc_e2,12559,"[{""event"":""fullscreenenter"",""trial"":1,""time"":18984}]",NA,NA,NA,NA,NA,2,#3386FF,#D89F1C,10,0,1,40,0,454.09999999403954,39,0,715.9000000059605,0,0,experiment,NA,NA,1,0.7,0.3,2,3,195,5,NA
fcp-trial,236,1216434,0.0-205.0-0.0,voc_e2,12559,"[{""event"":""fullscreenenter"",""trial"":1,""time"":18984}]",NA,NA,NA,NA,NA,6,#1CD855,#FA92F8,10,0,1,38,1,176.70000000298023,37,1,574.6000000089407,10,1,experiment,NA,NA,2,0.5,0.5,4,5,196,5,NA
fcp-trial,237,1219084,0.0-206.0-0.0,voc_e2,12559,"[{""event"":""fullscreenenter"",""trial"":1,""time"":18984}]",NA,NA,NA,NA,NA,0,#D8271C,#741CD8,10,0,1,38,1,587.4000000059605,39,0,555.6000000089407,0,0,experiment,NA,NA,0,0.9,0.1,0,1,197,5,NA
fcp-trial,238,1221183,0.0-207.0-0.0,voc_e2,12559,"[{""event"":""fullscreenenter"",""trial"":1,""time"":18984}]",NA,NA,NA,NA,NA,5,#3386FF,#D89F1C,0,10,1,40,0,29.400000005960464,37,1,563.2999999970198,0,1,experiment,NA,NA,1,0.7,0.3,2,3,198,5,NA
fcp-trial,239,1223722,0.0-208.0-0.0,voc_e2,12559,"[{""event"":""fullscreenenter"",""trial"":1,""time"":18984}]",NA,NA,NA,NA,NA,1,#FA92F8,#1CD855,0,0,0,38,1,536.1999999880791,39,0,496.5,0,1,experiment,NA,NA,2,0.5,0.5,5,4,199,5,NA
fcp-trial,240,1226992,0.0-209.0-0.0,voc_e2,12559,"[{""event"":""fullscreenenter"",""trial"":1,""time"":18984}]",NA,NA,NA,NA,NA,4,#D89F1C,#3386FF,0,0,0,38,1,800.1000000089407,37,1,964,0,0,experiment,NA,NA,1,0.3,0.7,3,2,200,5,NA
fcp-trial,241,1229669,0.0-210.0-0.0,voc_e2,12559,"[{""event"":""fullscreenenter"",""trial"":1,""time"":18984}]",NA,NA,NA,NA,NA,5,#D8271C,#741CD8,10,0,1,38,1,783.9000000059605,39,0,385.20000000298023,0,0,experiment,NA,NA,0,0.9,0.1,0,1,201,5,NA
fcp-trial,242,1232889,0.0-211.0-0.0,voc_e2,12559,"[{""event"":""fullscreenenter"",""trial"":1,""time"":18984}]",NA,NA,NA,NA,NA,3,#1CD855,#FA92F8,0,0,1,38,1,1396.199999988079,37,1,318.09999999403954,0,1,experiment,NA,NA,2,0.5,0.5,4,5,202,5,NA
fcp-trial,243,1234968,0.0-212.0-0.0,voc_e2,12559,"[{""event"":""fullscreenenter"",""trial"":1,""time"":18984}]",NA,NA,NA,NA,NA,1,#3386FF,#D89F1C,0,0,1,38,1,97.59999999403954,37,1,475.40000000596046,0,1,experiment,NA,NA,1,0.7,0.3,2,3,203,5,NA
fcp-trial,244,1237588,0.0-213.0-0.0,voc_e2,12559,"[{""event"":""fullscreenenter"",""trial"":1,""time"":18984}]",NA,NA,NA,NA,NA,3,#D8271C,#741CD8,10,0,1,38,1,668.2000000029802,37,1,448.59999999403954,10,1,experiment,NA,NA,0,0.9,0.1,0,1,204,5,NA
fcp-trial,245,1240401,0.0-214.0-0.0,voc_e2,12559,"[{""event"":""fullscreenenter"",""trial"":1,""time"":18984}]",NA,NA,NA,NA,NA,0,#D89F1C,#3386FF,0,10,0,38,1,678.9000000059605,39,0,628.6000000089407,10,1,experiment,NA,NA,1,0.3,0.7,3,2,205,5,NA
fcp-trial,246,1242750,0.0-215.0-0.0,voc_e2,12559,"[{""event"":""fullscreenenter"",""trial"":1,""time"":18984}]",NA,NA,NA,NA,NA,5,#FA92F8,#1CD855,10,10,0,40,0,26,37,1,816.2000000029802,10,0,experiment,NA,NA,2,0.5,0.5,5,4,206,5,NA
fcp-trial,247,1244875,0.0-216.0-0.0,voc_e2,12559,"[{""event"":""fullscreenenter"",""trial"":1,""time"":18984}]",NA,NA,NA,NA,NA,6,#D8271C,#741CD8,10,0,1,38,1,180,39,0,439.40000000596046,0,0,experiment,NA,NA,0,0.9,0.1,0,1,207,5,NA
fcp-trial,248,1247309,0.0-217.0-0.0,voc_e2,12559,"[{""event"":""fullscreenenter"",""trial"":1,""time"":18984}]",NA,NA,NA,NA,NA,1,#741CD8,#D8271C,0,10,0,38,1,390.19999998807907,39,0,536.4000000059605,10,1,experiment,NA,NA,0,0.1,0.9,1,0,208,5,NA
fcp-trial,249,1250164,0.0-218.0-0.0,voc_e2,12559,"[{""event"":""fullscreenenter"",""trial"":1,""time"":18984}]",NA,NA,NA,NA,NA,6,#D89F1C,#3386FF,0,10,0,38,1,809.2000000029802,39,0,537.8999999910593,10,1,experiment,NA,NA,1,0.3,0.7,3,2,209,5,NA
fcp-trial,250,1252322,0.0-219.0-0.0,voc_e2,12559,"[{""event"":""fullscreenenter"",""trial"":1,""time"":18984}]",NA,NA,NA,NA,NA,0,#FA92F8,#1CD855,10,0,0,40,0,17.900000005960464,37,1,631.2999999970198,10,0,experiment,NA,NA,2,0.5,0.5,5,4,210,5,NA
audio-instructions,251,1343095,0.0-220.0,voc_e2,12559,"[{""event"":""fullscreenenter"",""trial"":1,""time"":18984}]",NA,85625.69999998808,static/audio/pause.wav,NA,0,NA,NA,NA,NA,NA,NA,NA,NA,NA,NA,NA,NA,NA,NA,NA,NA,NA,NA,NA,NA,NA,NA,NA,NA,NA
fcp-trial,252,1346178,0.0-221.0-0.0,voc_e2,12559,"[{""event"":""fullscreenenter"",""trial"":1,""time"":18984}]",NA,NA,NA,NA,NA,3,#FA92F8,#1CD855,10,10,0,40,0,1290.1000000089407,37,1,284.70000000298023,10,0,experiment,NA,NA,2,0.5,0.5,5,4,211,5,NA
fcp-trial,253,1348611,0.0-222.0-0.0,voc_e2,12559,"[{""event"":""fullscreenenter"",""trial"":1,""time"":18984}]",NA,NA,NA,NA,NA,2,#1CD855,#FA92F8,10,0,1,38,1,374.69999998807907,39,0,551.3000000119209,0,0,experiment,NA,NA,2,0.5,0.5,4,5,212,5,NA
fcp-trial,254,1351229,0.0-223.0-0.0,voc_e2,12559,"[{""event"":""fullscreenenter"",""trial"":1,""time"":18984}]",NA,NA,NA,NA,NA,4,#3386FF,#D89F1C,10,0,1,38,1,585.5999999940395,37,1,526.0999999940395,10,1,experiment,NA,NA,1,0.7,0.3,2,3,213,5,NA
fcp-trial,255,1353223,0.0-224.0-0.0,voc_e2,12559,"[{""event"":""fullscreenenter"",""trial"":1,""time"":18984}]",NA,NA,NA,NA,NA,5,#741CD8,#D8271C,0,10,0,38,1,30.700000002980232,37,1,456.29999999701977,0,0,experiment,NA,NA,0,0.1,0.9,1,0,214,5,NA
fcp-trial,256,1355160,0.0-225.0-0.0,voc_e2,12559,"[{""event"":""fullscreenenter"",""trial"":1,""time"":18984}]",NA,NA,NA,NA,NA,0,#1CD855,#FA92F8,0,0,1,38,1,49.20000000298023,37,1,382.79999999701977,0,1,experiment,NA,NA,2,0.5,0.5,4,5,215,5,NA
fcp-trial,257,1357309,0.0-226.0-0.0,voc_e2,12559,"[{""event"":""fullscreenenter"",""trial"":1,""time"":18984}]",NA,NA,NA,NA,NA,6,#D89F1C,#3386FF,10,10,0,38,1,279.5,37,1,364.79999999701977,10,0,experiment,NA,NA,1,0.3,0.7,3,2,216,5,NA
fcp-trial,258,1359272,0.0-227.0-0.0,voc_e2,12559,"[{""event"":""fullscreenenter"",""trial"":1,""time"":18984}]",NA,NA,NA,NA,NA,0,#741CD8,#D8271C,0,10,0,38,1,124.09999999403954,37,1,333.20000000298023,0,0,experiment,NA,NA,0,0.1,0.9,1,0,217,5,NA
fcp-trial,259,1361463,0.0-228.0-0.0,voc_e2,12559,"[{""event"":""fullscreenenter"",""trial"":1,""time"":18984}]",NA,NA,NA,NA,NA,1,#741CD8,#D8271C,0,10,0,38,1,186.40000000596046,39,0,498.70000000298023,10,1,experiment,NA,NA,0,0.1,0.9,1,0,218,5,NA
fcp-trial,260,1363465,0.0-229.0-0.0,voc_e2,12559,"[{""event"":""fullscreenenter"",""trial"":1,""time"":18984}]",NA,NA,NA,NA,NA,4,#FA92F8,#1CD855,0,0,0,38,1,87.20000000298023,39,0,408.20000000298023,0,1,experiment,NA,NA,2,0.5,0.5,5,4,219,5,NA
fcp-trial,261,1365535,0.0-230.0-0.0,voc_e2,12559,"[{""event"":""fullscreenenter"",""trial"":1,""time"":18984}]",NA,NA,NA,NA,NA,5,#3386FF,#D89F1C,0,10,1,38,1,221.59999999403954,37,1,339.70000000298023,0,1,experiment,NA,NA,1,0.7,0.3,2,3,220,5,NA
fcp-trial,262,1367998,0.0-231.0-0.0,voc_e2,12559,"[{""event"":""fullscreenenter"",""trial"":1,""time"":18984}]",NA,NA,NA,NA,NA,2,#D89F1C,#3386FF,10,0,0,38,1,192.8999999910593,39,0,760.3999999910593,0,1,experiment,NA,NA,1,0.3,0.7,3,2,221,5,NA
fcp-trial,263,1369918,0.0-232.0-0.0,voc_e2,12559,"[{""event"":""fullscreenenter"",""trial"":1,""time"":18984}]",NA,NA,NA,NA,NA,6,#741CD8,#D8271C,0,10,0,38,1,66.79999999701977,37,1,344.70000000298023,0,0,experiment,NA,NA,0,0.1,0.9,1,0,222,5,NA
fcp-trial,264,1372545,0.0-233.0-0.0,voc_e2,12559,"[{""event"":""fullscreenenter"",""trial"":1,""time"":18984}]",NA,NA,NA,NA,NA,1,#1CD855,#FA92F8,10,0,1,38,1,374.20000000298023,37,1,746.1000000089407,10,1,experiment,NA,NA,2,0.5,0.5,4,5,223,5,NA
fcp-trial,265,1374704,0.0-234.0-0.0,voc_e2,12559,"[{""event"":""fullscreenenter"",""trial"":1,""time"":18984}]",NA,NA,NA,NA,NA,1,#3386FF,#D89F1C,10,10,1,38,1,285.5,39,0,366.09999999403954,10,0,experiment,NA,NA,1,0.7,0.3,2,3,224,5,NA
fcp-trial,266,1376731,0.0-235.0-0.0,voc_e2,12559,"[{""event"":""fullscreenenter"",""trial"":1,""time"":18984}]",NA,NA,NA,NA,NA,4,#D8271C,#741CD8,10,10,1,38,1,3.0999999940395355,37,1,515.2000000029802,10,1,experiment,NA,NA,0,0.9,0.1,0,1,225,5,NA
fcp-trial,267,1379164,0.0-236.0-0.0,voc_e2,12559,"[{""event"":""fullscreenenter"",""trial"":1,""time"":18984}]",NA,NA,NA,NA,NA,6,#FA92F8,#1CD855,0,0,0,38,1,80.40000000596046,37,1,846.2999999970198,0,0,experiment,NA,NA,2,0.5,0.5,5,4,226,6,NA
fcp-trial,268,1384791,0.0-237.0-0.0,voc_e2,12559,"[{""event"":""fullscreenenter"",""trial"":1,""time"":18984}]",NA,NA,NA,NA,NA,3,#741CD8,#D8271C,0,10,0,40,0,778.6000000089407,39,0,3341.8999999910593,10,1,experiment,NA,NA,0,0.1,0.9,1,0,227,6,NA
fcp-trial,269,1386893,0.0-238.0-0.0,voc_e2,12559,"[{""event"":""fullscreenenter"",""trial"":1,""time"":18984}]",NA,NA,NA,NA,NA,3,#D89F1C,#3386FF,0,10,0,38,1,87.5,39,0,494.90000000596046,10,1,experiment,NA,NA,1,0.3,0.7,3,2,228,6,NA
fcp-trial,270,1388805,0.0-239.0-0.0,voc_e2,12559,"[{""event"":""fullscreenenter"",""trial"":1,""time"":18984}]",NA,NA,NA,NA,NA,0,#3386FF,#D89F1C,0,0,1,38,1,114.6000000089407,37,1,284.70000000298023,0,1,experiment,NA,NA,1,0.7,0.3,2,3,229,6,NA
fcp-trial,271,1391553,0.0-240.0-0.0,voc_e2,12559,"[{""event"":""fullscreenenter"",""trial"":1,""time"":18984}]",NA,NA,NA,NA,NA,5,#1CD855,#FA92F8,0,0,1,40,0,749.2000000029802,37,1,491.29999999701977,0,1,experiment,NA,NA,2,0.5,0.5,4,5,230,6,NA
fcp-trial,272,1394693,0.0-241.0-0.0,voc_e2,12559,"[{""event"":""fullscreenenter"",""trial"":1,""time"":18984}]",NA,NA,NA,NA,NA,2,#D8271C,#741CD8,10,0,1,40,0,1155.3999999910593,37,1,473,10,1,experiment,NA,NA,0,0.9,0.1,0,1,231,6,NA
fcp-trial,273,1396871,0.0-242.0-0.0,voc_e2,12559,"[{""event"":""fullscreenenter"",""trial"":1,""time"":18984}]",NA,NA,NA,NA,NA,5,#741CD8,#D8271C,10,10,0,38,1,22.299999997019768,39,0,644.3999999910593,10,1,experiment,NA,NA,0,0.1,0.9,1,0,232,6,NA
fcp-trial,274,1399591,0.0-243.0-0.0,voc_e2,12559,"[{""event"":""fullscreenenter"",""trial"":1,""time"":18984}]",NA,NA,NA,NA,NA,5,#D89F1C,#3386FF,0,10,0,40,0,215.09999999403954,39,0,998.0999999940396,10,1,experiment,NA,NA,1,0.3,0.7,3,2,233,6,NA
fcp-trial,275,1402562,0.0-244.0-0.0,voc_e2,12559,"[{""event"":""fullscreenenter"",""trial"":1,""time"":18984}]",NA,NA,NA,NA,NA,4,#D8271C,#741CD8,10,0,1,40,0,755.7999999970198,39,0,706.5,0,0,experiment,NA,NA,0,0.9,0.1,0,1,234,6,NA
fcp-trial,276,1404955,0.0-245.0-0.0,voc_e2,12559,"[{""event"":""fullscreenenter"",""trial"":1,""time"":18984}]",NA,NA,NA,NA,NA,4,#1CD855,#FA92F8,10,10,1,40,0,199.19999998807907,39,0,679.2000000029802,10,0,experiment,NA,NA,2,0.5,0.5,4,5,235,6,NA
fcp-trial,277,1407407,0.0-246.0-0.0,voc_e2,12559,"[{""event"":""fullscreenenter"",""trial"":1,""time"":18984}]",NA,NA,NA,NA,NA,5,#FA92F8,#1CD855,10,0,0,40,0,431.70000000298023,37,1,511.79999999701977,10,0,experiment,NA,NA,2,0.5,0.5,5,4,236,6,NA
fcp-trial,278,1410254,0.0-247.0-0.0,voc_e2,12559,"[{""event"":""fullscreenenter"",""trial"":1,""time"":18984}]",NA,NA,NA,NA,NA,2,#3386FF,#D89F1C,10,0,1,38,1,778.2000000029802,39,0,560.2000000029802,0,0,experiment,NA,NA,1,0.7,0.3,2,3,237,6,NA
fcp-trial,279,1412446,0.0-248.0-0.0,voc_e2,12559,"[{""event"":""fullscreenenter"",""trial"":1,""time"":18984}]",NA,NA,NA,NA,NA,3,#1CD855,#FA92F8,0,10,1,40,0,50.79999999701977,37,1,631.8999999910593,0,1,experiment,NA,NA,2,0.5,0.5,4,5,238,6,NA
fcp-trial,280,1415162,0.0-249.0-0.0,voc_e2,12559,"[{""event"":""fullscreenenter"",""trial"":1,""time"":18984}]",NA,NA,NA,NA,NA,3,#D8271C,#741CD8,10,0,1,38,1,597,39,0,607.2999999970198,0,0,experiment,NA,NA,0,0.9,0.1,0,1,239,6,NA
fcp-trial,281,1417222,0.0-250.0-0.0,voc_e2,12559,"[{""event"":""fullscreenenter"",""trial"":1,""time"":18984}]",NA,NA,NA,NA,NA,1,#D89F1C,#3386FF,10,10,0,38,1,244.30000001192093,37,1,303.09999999403954,10,0,experiment,NA,NA,1,0.3,0.7,3,2,240,6,NA
fcp-trial,282,1420119,0.0-251.0-0.0,voc_e2,12559,"[{""event"":""fullscreenenter"",""trial"":1,""time"":18984}]",NA,NA,NA,NA,NA,0,#1CD855,#FA92F8,10,10,1,40,0,693.0999999940395,37,1,695.2999999970198,10,1,experiment,NA,NA,2,0.5,0.5,4,5,241,6,NA
fcp-trial,283,1422467,0.0-252.0-0.0,voc_e2,12559,"[{""event"":""fullscreenenter"",""trial"":1,""time"":18984}]",NA,NA,NA,NA,NA,6,#FA92F8,#1CD855,10,10,0,38,1,379.09999999403954,39,0,458.5,10,1,experiment,NA,NA,2,0.5,0.5,5,4,242,6,NA
fcp-trial,284,1424547,0.0-253.0-0.0,voc_e2,12559,"[{""event"":""fullscreenenter"",""trial"":1,""time"":18984}]",NA,NA,NA,NA,NA,2,#D8271C,#741CD8,10,0,1,38,1,262.79999999701977,37,1,306.6000000089407,10,1,experiment,NA,NA,0,0.9,0.1,0,1,243,6,NA
fcp-trial,285,1426715,0.0-254.0-0.0,voc_e2,12559,"[{""event"":""fullscreenenter"",""trial"":1,""time"":18984}]",NA,NA,NA,NA,NA,0,#3386FF,#D89F1C,10,10,1,38,1,33.6000000089407,37,1,624.7000000029802,10,1,experiment,NA,NA,1,0.7,0.3,2,3,244,6,NA
fcp-trial,286,1428651,0.0-255.0-0.0,voc_e2,12559,"[{""event"":""fullscreenenter"",""trial"":1,""time"":18984}]",NA,NA,NA,NA,NA,6,#D89F1C,#3386FF,0,10,0,38,1,143.8999999910593,39,0,282.6000000089407,10,1,experiment,NA,NA,1,0.3,0.7,3,2,245,6,NA
fcp-trial,287,1431102,0.0-256.0-0.0,voc_e2,12559,"[{""event"":""fullscreenenter"",""trial"":1,""time"":18984}]",NA,NA,NA,NA,NA,2,#1CD855,#FA92F8,0,0,1,38,1,426.20000000298023,39,0,510.5,0,0,experiment,NA,NA,2,0.5,0.5,4,5,246,6,NA
fcp-trial,288,1433273,0.0-257.0-0.0,voc_e2,12559,"[{""event"":""fullscreenenter"",""trial"":1,""time"":18984}]",NA,NA,NA,NA,NA,1,#741CD8,#D8271C,10,10,0,40,0,147.09999999403954,37,1,509.59999999403954,10,0,experiment,NA,NA,0,0.1,0.9,1,0,247,6,NA
fcp-trial,289,1435475,0.0-258.0-0.0,voc_e2,12559,"[{""event"":""fullscreenenter"",""trial"":1,""time"":18984}]",NA,NA,NA,NA,NA,4,#D89F1C,#3386FF,10,0,0,38,1,211.90000000596046,39,0,482.09999999403954,0,1,experiment,NA,NA,1,0.3,0.7,3,2,248,6,NA
fcp-trial,290,1438220,0.0-259.0-0.0,voc_e2,12559,"[{""event"":""fullscreenenter"",""trial"":1,""time"":18984}]",NA,NA,NA,NA,NA,1,#FA92F8,#1CD855,10,10,0,40,0,800.7999999970198,37,1,435.5,10,0,experiment,NA,NA,2,0.5,0.5,5,4,249,6,NA
fcp-trial,291,1440393,0.0-260.0-0.0,voc_e2,12559,"[{""event"":""fullscreenenter"",""trial"":1,""time"":18984}]",NA,NA,NA,NA,NA,3,#3386FF,#D89F1C,10,10,1,40,0,162.30000001192093,39,0,498.1000000089407,10,0,experiment,NA,NA,1,0.7,0.3,2,3,250,6,NA
fcp-trial,292,1443079,0.0-261.0-0.0,voc_e2,12559,"[{""event"":""fullscreenenter"",""trial"":1,""time"":18984}]",NA,NA,NA,NA,NA,0,#D8271C,#741CD8,10,0,1,38,1,12.799999997019768,37,1,1162,10,1,experiment,NA,NA,0,0.9,0.1,0,1,251,6,NA
fcp-trial,293,1445416,0.0-262.0-0.0,voc_e2,12559,"[{""event"":""fullscreenenter"",""trial"":1,""time"":18984}]",NA,NA,NA,NA,NA,6,#D8271C,#741CD8,0,0,1,38,1,146,39,0,683.5,0,0,experiment,NA,NA,0,0.9,0.1,0,1,252,6,NA
fcp-trial,294,1447861,0.0-263.0-0.0,voc_e2,12559,"[{""event"":""fullscreenenter"",""trial"":1,""time"":18984}]",NA,NA,NA,NA,NA,4,#741CD8,#D8271C,10,10,0,38,1,248.29999999701977,37,1,687.2000000029802,10,0,experiment,NA,NA,0,0.1,0.9,1,0,253,6,NA
fcp-trial,295,1449820,0.0-264.0-0.0,voc_e2,12559,"[{""event"":""fullscreenenter"",""trial"":1,""time"":18984}]",NA,NA,NA,NA,NA,5,#3386FF,#D89F1C,10,0,1,38,1,39.69999998807907,39,0,407,0,0,experiment,NA,NA,1,0.7,0.3,2,3,254,6,NA
fcp-trial,296,1452138,0.0-265.0-0.0,voc_e2,12559,"[{""event"":""fullscreenenter"",""trial"":1,""time"":18984}]",NA,NA,NA,NA,NA,2,#741CD8,#D8271C,0,10,0,40,0,453.6000000089407,37,1,354.8999999910593,0,0,experiment,NA,NA,0,0.1,0.9,1,0,255,6,NA
fcp-trial,297,1454098,0.0-266.0-0.0,voc_e2,12559,"[{""event"":""fullscreenenter"",""trial"":1,""time"":18984}]",NA,NA,NA,NA,NA,1,#741CD8,#D8271C,0,10,0,38,1,29.799999997019768,39,0,416.59999999403954,10,1,experiment,NA,NA,0,0.1,0.9,1,0,256,6,NA
fcp-trial,298,1456170,0.0-267.0-0.0,voc_e2,12559,"[{""event"":""fullscreenenter"",""trial"":1,""time"":18984}]",NA,NA,NA,NA,NA,2,#D89F1C,#3386FF,0,0,0,38,1,175.79999999701977,37,1,388.29999999701977,0,0,experiment,NA,NA,1,0.3,0.7,3,2,257,6,NA
fcp-trial,299,1458740,0.0-268.0-0.0,voc_e2,12559,"[{""event"":""fullscreenenter"",""trial"":1,""time"":18984}]",NA,NA,NA,NA,NA,3,#3386FF,#D89F1C,10,10,1,38,1,713.5999999940395,37,1,346,10,1,experiment,NA,NA,1,0.7,0.3,2,3,258,6,NA
fcp-trial,300,1461500,0.0-269.0-0.0,voc_e2,12559,"[{""event"":""fullscreenenter"",""trial"":1,""time"":18984}]",NA,NA,NA,NA,NA,6,#741CD8,#D8271C,0,10,0,38,1,513.2999999970198,37,1,733.7999999970198,0,0,experiment,NA,NA,0,0.1,0.9,1,0,259,6,NA
fcp-trial,301,1464023,0.0-270.0-0.0,voc_e2,12559,"[{""event"":""fullscreenenter"",""trial"":1,""time"":18984}]",NA,NA,NA,NA,NA,1,#1CD855,#FA92F8,10,0,1,38,1,277.20000000298023,39,0,738.2000000029802,0,0,experiment,NA,NA,2,0.5,0.5,4,5,260,6,NA
fcp-trial,302,1470048,0.0-271.0-0.0,voc_e2,12559,"[{""event"":""fullscreenenter"",""trial"":1,""time"":18984}]",NA,NA,NA,NA,NA,5,#D8271C,#741CD8,10,0,1,38,1,3229,37,1,1279.2999999970198,10,1,experiment,NA,NA,0,0.9,0.1,0,1,261,6,NA
fcp-trial,303,1472248,0.0-272.0-0.0,voc_e2,12559,"[{""event"":""fullscreenenter"",""trial"":1,""time"":18984}]",NA,NA,NA,NA,NA,0,#D89F1C,#3386FF,0,0,0,38,1,329.30000001192093,39,0,360.70000000298023,0,1,experiment,NA,NA,1,0.3,0.7,3,2,262,6,NA
fcp-trial,304,1474452,0.0-273.0-0.0,voc_e2,12559,"[{""event"":""fullscreenenter"",""trial"":1,""time"":18984}]",NA,NA,NA,NA,NA,4,#1CD855,#FA92F8,0,10,1,40,0,279.09999999403954,37,1,416.29999999701977,0,1,experiment,NA,NA,2,0.5,0.5,4,5,263,6,NA
fcp-trial,305,1480658,0.0-274.0-0.0,voc_e2,12559,"[{""event"":""fullscreenenter"",""trial"":1,""time"":18984}]",NA,NA,NA,NA,NA,4,#D89F1C,#3386FF,0,0,0,38,1,4361.5999999940395,37,1,336.5,0,0,experiment,NA,NA,1,0.3,0.7,3,2,264,6,NA
fcp-trial,306,1485637,0.0-275.0-0.0,voc_e2,12559,"[{""event"":""fullscreenenter"",""trial"":1,""time"":18984}]",NA,NA,NA,NA,NA,3,#741CD8,#D8271C,10,10,0,40,0,1247.8999999910593,37,1,2219.3999999910593,10,0,experiment,NA,NA,0,0.1,0.9,1,0,265,6,NA
fcp-trial,307,1487913,0.0-276.0-0.0,voc_e2,12559,"[{""event"":""fullscreenenter"",""trial"":1,""time"":18984}]",NA,NA,NA,NA,NA,5,#1CD855,#FA92F8,10,0,1,38,1,424.29999999701977,39,0,342.09999999403954,0,0,experiment,NA,NA,2,0.5,0.5,4,5,266,6,NA
fcp-trial,308,1489976,0.0-277.0-0.0,voc_e2,12559,"[{""event"":""fullscreenenter"",""trial"":1,""time"":18984}]",NA,NA,NA,NA,NA,6,#3386FF,#D89F1C,10,0,1,38,1,40.400000005960464,37,1,510.699999988079,10,1,experiment,NA,NA,1,0.7,0.3,2,3,267,6,NA
fcp-trial,309,1492575,0.0-278.0-0.0,voc_e2,12559,"[{""event"":""fullscreenenter"",""trial"":1,""time"":18984}]",NA,NA,NA,NA,NA,6,#1CD855,#FA92F8,10,0,1,38,1,231.09999999403954,37,1,858.0999999940395,10,1,experiment,NA,NA,2,0.5,0.5,4,5,268,6,NA
fcp-trial,310,1495811,0.0-279.0-0.0,voc_e2,12559,"[{""event"":""fullscreenenter"",""trial"":1,""time"":18984}]",NA,NA,NA,NA,NA,0,#D8271C,#741CD8,10,0,1,38,1,1372.2000000029802,37,1,353.3999999910593,10,1,experiment,NA,NA,0,0.9,0.1,0,1,269,6,NA
fcp-trial,311,1498222,0.0-280.0-0.0,voc_e2,12559,"[{""event"":""fullscreenenter"",""trial"":1,""time"":18984}]",NA,NA,NA,NA,NA,0,#FA92F8,#1CD855,0,0,0,38,1,526.9000000059605,37,1,373,0,0,experiment,NA,NA,2,0.5,0.5,5,4,270,6,NA
fcp-trial,312,1500570,0.0-281.0-0.0,voc_e2,12559,"[{""event"":""fullscreenenter"",""trial"":1,""time"":18984}]",NA,NA,NA,NA,NA,1,#D89F1C,#3386FF,0,0,0,38,1,327.59999999403954,39,0,511.40000000596046,0,1,experiment,NA,NA,1,0.3,0.7,3,2,271,7,NA
fcp-trial,313,1502444,0.0-282.0-0.0,voc_e2,12559,"[{""event"":""fullscreenenter"",""trial"":1,""time"":18984}]",NA,NA,NA,NA,NA,2,#FA92F8,#1CD855,0,10,0,38,1,30.099999994039536,37,1,335.3999999910593,0,0,experiment,NA,NA,2,0.5,0.5,5,4,272,7,NA
fcp-trial,314,1505215,0.0-283.0-0.0,voc_e2,12559,"[{""event"":""fullscreenenter"",""trial"":1,""time"":18984}]",NA,NA,NA,NA,NA,3,#FA92F8,#1CD855,10,10,0,38,1,352,37,1,913.3000000119208,10,0,experiment,NA,NA,2,0.5,0.5,5,4,273,7,NA
fcp-trial,315,1508024,0.0-284.0-0.0,voc_e2,12559,"[{""event"":""fullscreenenter"",""trial"":1,""time"":18984}]",NA,NA,NA,NA,NA,4,#FA92F8,#1CD855,10,0,0,38,1,925.4000000059605,39,0,374.79999999701977,0,1,experiment,NA,NA,2,0.5,0.5,5,4,274,7,NA
fcp-trial,316,1510126,0.0-285.0-0.0,voc_e2,12559,"[{""event"":""fullscreenenter"",""trial"":1,""time"":18984}]",NA,NA,NA,NA,NA,5,#FA92F8,#1CD855,10,10,0,38,1,237,37,1,360.79999999701977,10,0,experiment,NA,NA,2,0.5,0.5,5,4,275,7,NA
fcp-trial,317,1512431,0.0-286.0-0.0,voc_e2,12559,"[{""event"":""fullscreenenter"",""trial"":1,""time"":18984}]",NA,NA,NA,NA,NA,2,#741CD8,#D8271C,0,10,0,38,1,336.69999998807907,39,0,461,10,1,experiment,NA,NA,0,0.1,0.9,1,0,276,7,NA
fcp-trial,318,1514893,0.0-287.0-0.0,voc_e2,12559,"[{""event"":""fullscreenenter"",""trial"":1,""time"":18984}]",NA,NA,NA,NA,NA,3,#3386FF,#D89F1C,10,10,1,40,0,121.1000000089407,39,0,831.7000000029802,10,0,experiment,NA,NA,1,0.7,0.3,2,3,277,7,NA
fcp-trial,319,1517520,0.0-288.0-0.0,voc_e2,12559,"[{""event"":""fullscreenenter"",""trial"":1,""time"":18984}]",NA,NA,NA,NA,NA,3,#1CD855,#FA92F8,10,0,1,38,1,92.90000000596046,39,0,1026.5,0,0,experiment,NA,NA,2,0.5,0.5,4,5,278,7,NA
fcp-trial,320,1519530,0.0-289.0-0.0,voc_e2,12559,"[{""event"":""fullscreenenter"",""trial"":1,""time"":18984}]",NA,NA,NA,NA,NA,1,#D89F1C,#3386FF,0,0,0,38,1,196.59999999403954,37,1,299.90000000596046,0,0,experiment,NA,NA,1,0.3,0.7,3,2,279,7,NA
fcp-trial,321,1521806,0.0-290.0-0.0,voc_e2,12559,"[{""event"":""fullscreenenter"",""trial"":1,""time"":18984}]",NA,NA,NA,NA,NA,5,#D89F1C,#3386FF,0,10,0,38,1,217.5,37,1,549.8999999910593,0,0,experiment,NA,NA,1,0.3,0.7,3,2,280,7,NA
fcp-trial,322,1523758,0.0-291.0-0.0,voc_e2,12559,"[{""event"":""fullscreenenter"",""trial"":1,""time"":18984}]",NA,NA,NA,NA,NA,6,#D8271C,#741CD8,0,0,1,38,1,19.700000002980232,39,0,419.699999988079,0,0,experiment,NA,NA,0,0.9,0.1,0,1,281,7,NA
fcp-trial,323,1525902,0.0-292.0-0.0,voc_e2,12559,"[{""event"":""fullscreenenter"",""trial"":1,""time"":18984}]",NA,NA,NA,NA,NA,0,#1CD855,#FA92F8,10,0,1,38,1,186.59999999403954,37,1,449.699999988079,10,1,experiment,NA,NA,2,0.5,0.5,4,5,282,7,NA
fcp-trial,324,1528106,0.0-293.0-0.0,voc_e2,12559,"[{""event"":""fullscreenenter"",""trial"":1,""time"":18984}]",NA,NA,NA,NA,NA,2,#FA92F8,#1CD855,0,10,0,38,1,113.1000000089407,39,0,578,10,1,experiment,NA,NA,2,0.5,0.5,5,4,283,7,NA
fcp-trial,325,1531045,0.0-294.0-0.0,voc_e2,12559,"[{""event"":""fullscreenenter"",""trial"":1,""time"":18984}]",NA,NA,NA,NA,NA,1,#741CD8,#D8271C,0,10,0,38,1,400,39,0,1027.5999999940395,10,1,experiment,NA,NA,0,0.1,0.9,1,0,284,7,NA
fcp-trial,326,1533465,0.0-295.0-0.0,voc_e2,12559,"[{""event"":""fullscreenenter"",""trial"":1,""time"":18984}]",NA,NA,NA,NA,NA,6,#D89F1C,#3386FF,0,10,0,38,1,310.6000000089407,37,1,599.9000000059605,0,0,experiment,NA,NA,1,0.3,0.7,3,2,285,7,NA
fcp-trial,327,1536374,0.0-296.0-0.0,voc_e2,12559,"[{""event"":""fullscreenenter"",""trial"":1,""time"":18984}]",NA,NA,NA,NA,NA,0,#3386FF,#D89F1C,10,10,1,38,1,808.2000000029802,37,1,592.3000000119209,10,1,experiment,NA,NA,1,0.7,0.3,2,3,286,7,NA
fcp-trial,328,1538479,0.0-297.0-0.0,voc_e2,12559,"[{""event"":""fullscreenenter"",""trial"":1,""time"":18984}]",NA,NA,NA,NA,NA,5,#D8271C,#741CD8,10,0,1,38,1,123.20000000298023,39,0,470.1000000089407,0,0,experiment,NA,NA,0,0.9,0.1,0,1,287,7,NA
fcp-trial,329,1540965,0.0-298.0-0.0,voc_e2,12559,"[{""event"":""fullscreenenter"",""trial"":1,""time"":18984}]",NA,NA,NA,NA,NA,6,#FA92F8,#1CD855,0,0,0,40,0,193.40000000596046,39,0,785.5999999940395,0,1,experiment,NA,NA,2,0.5,0.5,5,4,288,7,NA
fcp-trial,330,1543966,0.0-299.0-0.0,voc_e2,12559,"[{""event"":""fullscreenenter"",""trial"":1,""time"":18984}]",NA,NA,NA,NA,NA,4,#D89F1C,#3386FF,10,0,0,38,1,50.70000000298023,37,1,1443.2999999970198,10,0,experiment,NA,NA,1,0.3,0.7,3,2,289,7,NA
fcp-trial,331,1546911,0.0-300.0-0.0,voc_e2,12559,"[{""event"":""fullscreenenter"",""trial"":1,""time"":18984}]",NA,NA,NA,NA,NA,3,#D8271C,#741CD8,10,0,1,38,1,827.7000000029802,39,0,607,0,0,experiment,NA,NA,0,0.9,0.1,0,1,290,7,NA
fcp-trial,332,1551384,0.0-301.0-0.0,voc_e2,12559,"[{""event"":""fullscreenenter"",""trial"":1,""time"":18984}]",NA,NA,NA,NA,NA,1,#FA92F8,#1CD855,10,10,0,38,1,2234,39,0,727.2999999970198,10,1,experiment,NA,NA,2,0.5,0.5,5,4,291,7,NA
fcp-trial,333,1554037,0.0-302.0-0.0,voc_e2,12559,"[{""event"":""fullscreenenter"",""trial"":1,""time"":18984}]",NA,NA,NA,NA,NA,2,#D89F1C,#3386FF,0,0,0,40,0,297.29999999701977,37,1,847.0999999940395,0,0,experiment,NA,NA,1,0.3,0.7,3,2,292,7,NA
fcp-trial,334,1556249,0.0-303.0-0.0,voc_e2,12559,"[{""event"":""fullscreenenter"",""trial"":1,""time"":18984}]",NA,NA,NA,NA,NA,0,#D8271C,#741CD8,10,0,1,40,0,21.099999994039536,37,1,682.2999999970198,10,1,experiment,NA,NA,0,0.9,0.1,0,1,293,7,NA
fcp-trial,335,1558737,0.0-304.0-0.0,voc_e2,12559,"[{""event"":""fullscreenenter"",""trial"":1,""time"":18984}]",NA,NA,NA,NA,NA,4,#741CD8,#D8271C,0,0,0,38,1,397.90000000596046,39,0,581.7000000029802,0,1,experiment,NA,NA,0,0.1,0.9,1,0,294,7,NA
fcp-trial,336,1560784,0.0-305.0-0.0,voc_e2,12559,"[{""event"":""fullscreenenter"",""trial"":1,""time"":18984}]",NA,NA,NA,NA,NA,6,#FA92F8,#1CD855,10,10,0,38,1,225.79999999701977,37,1,311.70000000298023,10,0,experiment,NA,NA,2,0.5,0.5,5,4,295,7,NA
fcp-trial,337,1563293,0.0-306.0-0.0,voc_e2,12559,"[{""event"":""fullscreenenter"",""trial"":1,""time"":18984}]",NA,NA,NA,NA,NA,0,#D8271C,#741CD8,10,0,1,38,1,329.29999999701977,39,0,670.9000000059605,0,0,experiment,NA,NA,0,0.9,0.1,0,1,296,7,NA
fcp-trial,338,1565422,0.0-307.0-0.0,voc_e2,12559,"[{""event"":""fullscreenenter"",""trial"":1,""time"":18984}]",NA,NA,NA,NA,NA,5,#3386FF,#D89F1C,10,0,1,40,0,148.8999999910593,37,1,470.79999999701977,10,1,experiment,NA,NA,1,0.7,0.3,2,3,297,7,NA
fcp-trial,339,1567982,0.0-308.0-0.0,voc_e2,12559,"[{""event"":""fullscreenenter"",""trial"":1,""time"":18984}]",NA,NA,NA,NA,NA,3,#1CD855,#FA92F8,10,10,1,38,1,361.79999999701977,37,1,687.4000000059605,10,1,experiment,NA,NA,2,0.5,0.5,4,5,298,7,NA
fcp-trial,340,1570068,0.0-309.0-0.0,voc_e2,12559,"[{""event"":""fullscreenenter"",""trial"":1,""time"":18984}]",NA,NA,NA,NA,NA,2,#741CD8,#D8271C,0,10,0,38,1,182.3999999910593,39,0,395.199999988079,10,1,experiment,NA,NA,0,0.1,0.9,1,0,299,7,NA
fcp-trial,341,1573794,0.0-310.0-0.0,voc_e2,12559,"[{""event"":""fullscreenenter"",""trial"":1,""time"":18984}]",NA,NA,NA,NA,NA,0,#FA92F8,#1CD855,0,0,0,38,1,805.2000000029802,37,1,1414,0,0,experiment,NA,NA,2,0.5,0.5,5,4,300,7,NA
fcp-trial,342,1577093,0.0-311.0-0.0,voc_e2,12559,"[{""event"":""fullscreenenter"",""trial"":1,""time"":18984}]",NA,NA,NA,NA,NA,1,#3386FF,#D89F1C,0,10,1,38,1,693.6000000089407,39,0,1097.2000000029802,10,0,experiment,NA,NA,1,0.7,0.3,2,3,301,7,NA
fcp-trial,343,1579323,0.0-312.0-0.0,voc_e2,12559,"[{""event"":""fullscreenenter"",""trial"":1,""time"":18984}]",NA,NA,NA,NA,NA,4,#1CD855,#FA92F8,10,10,1,38,1,336.40000000596046,37,1,383.1000000089407,10,1,experiment,NA,NA,2,0.5,0.5,4,5,302,7,NA
fcp-trial,344,1581890,0.0-313.0-0.0,voc_e2,12559,"[{""event"":""fullscreenenter"",""trial"":1,""time"":18984}]",NA,NA,NA,NA,NA,5,#D8271C,#741CD8,10,0,1,40,0,544.1000000089407,37,1,515.7999999970198,10,1,experiment,NA,NA,0,0.9,0.1,0,1,303,7,NA
fcp-trial,345,1584596,0.0-314.0-0.0,voc_e2,12559,"[{""event"":""fullscreenenter"",""trial"":1,""time"":18984}]",NA,NA,NA,NA,NA,5,#1CD855,#FA92F8,10,10,1,40,0,598.5999999940395,37,1,600.7999999970198,10,1,experiment,NA,NA,2,0.5,0.5,4,5,304,7,NA
fcp-trial,346,1587298,0.0-315.0-0.0,voc_e2,12559,"[{""event"":""fullscreenenter"",""trial"":1,""time"":18984}]",NA,NA,NA,NA,NA,0,#D89F1C,#3386FF,10,0,0,40,0,589.1999999880791,39,0,602.9000000059605,0,1,experiment,NA,NA,1,0.3,0.7,3,2,305,7,NA
fcp-trial,347,1589631,0.0-316.0-0.0,voc_e2,12559,"[{""event"":""fullscreenenter"",""trial"":1,""time"":18984}]",NA,NA,NA,NA,NA,6,#741CD8,#D8271C,0,10,0,38,1,183.59999999403954,37,1,635.7000000029802,0,0,experiment,NA,NA,0,0.1,0.9,1,0,306,7,NA
fcp-trial,348,1592556,0.0-317.0-0.0,voc_e2,12559,"[{""event"":""fullscreenenter"",""trial"":1,""time"":18984}]",NA,NA,NA,NA,NA,3,#D89F1C,#3386FF,0,10,0,40,0,835.5,37,1,576.7000000029802,0,0,experiment,NA,NA,1,0.3,0.7,3,2,307,7,NA
fcp-trial,349,1594736,0.0-318.0-0.0,voc_e2,12559,"[{""event"":""fullscreenenter"",""trial"":1,""time"":18984}]",NA,NA,NA,NA,NA,1,#741CD8,#D8271C,0,10,0,40,0,227.79999999701977,39,0,427.800000011921,10,1,experiment,NA,NA,0,0.1,0.9,1,0,308,7,NA
fcp-trial,350,1597423,0.0-319.0-0.0,voc_e2,12559,"[{""event"":""fullscreenenter"",""trial"":1,""time"":18984}]",NA,NA,NA,NA,NA,2,#FA92F8,#1CD855,0,0,0,38,1,626.7000000029802,37,1,548.2999999970198,0,0,experiment,NA,NA,2,0.5,0.5,5,4,309,7,NA
fcp-trial,351,1599554,0.0-320.0-0.0,voc_e2,12559,"[{""event"":""fullscreenenter"",""trial"":1,""time"":18984}]",NA,NA,NA,NA,NA,2,#3386FF,#D89F1C,0,0,1,40,0,191,39,0,431.90000000596046,0,0,experiment,NA,NA,1,0.7,0.3,2,3,310,7,NA
fcp-trial,352,1601749,0.0-321.0-0.0,voc_e2,12559,"[{""event"":""fullscreenenter"",""trial"":1,""time"":18984}]",NA,NA,NA,NA,NA,4,#3386FF,#D89F1C,10,10,1,38,1,100,37,1,584.9000000059605,10,1,experiment,NA,NA,1,0.7,0.3,2,3,311,7,NA
fcp-trial,353,1604322,0.0-322.0-0.0,voc_e2,12559,"[{""event"":""fullscreenenter"",""trial"":1,""time"":18984}]",NA,NA,NA,NA,NA,1,#FA92F8,#1CD855,0,0,0,38,1,549.1000000089407,39,0,512,0,1,experiment,NA,NA,2,0.5,0.5,5,4,312,7,NA
fcp-trial,354,1606592,0.0-323.0-0.0,voc_e2,12559,"[{""event"":""fullscreenenter"",""trial"":1,""time"":18984}]",NA,NA,NA,NA,NA,4,#741CD8,#D8271C,0,10,0,38,1,242.69999998807907,37,1,511.6000000089407,0,0,experiment,NA,NA,0,0.1,0.9,1,0,313,7,NA
fcp-trial,355,1608877,0.0-324.0-0.0,voc_e2,12559,"[{""event"":""fullscreenenter"",""trial"":1,""time"":18984}]",NA,NA,NA,NA,NA,6,#3386FF,#D89F1C,10,0,1,40,0,155.40000000596046,37,1,621.5999999940395,10,1,experiment,NA,NA,1,0.7,0.3,2,3,314,7,NA
fcp-trial,356,1611504,0.0-325.0-0.0,voc_e2,12559,"[{""event"":""fullscreenenter"",""trial"":1,""time"":18984}]",NA,NA,NA,NA,NA,3,#741CD8,#D8271C,0,10,0,40,0,650.9000000059605,39,0,466,10,1,experiment,NA,NA,0,0.1,0.9,1,0,315,7,NA
audio-instructions,357,1619485,0.0-326.0,voc_e2,12559,"[{""event"":""fullscreenenter"",""trial"":1,""time"":18984}]",NA,1265.7000000029802,static/audio/finished.wav,NA,0,NA,NA,NA,NA,NA,NA,NA,NA,NA,NA,NA,NA,NA,NA,NA,NA,NA,NA,NA,NA,NA,NA,NA,NA,NA
audio-instructions,358,1661858,0.0-327.0-0.0,voc_e2,12559,"[{""event"":""fullscreenenter"",""trial"":1,""time"":18984}]",NA,31538.30000001192,static/audio/explicit1.wav,NA,0,NA,NA,NA,NA,NA,NA,NA,NA,NA,NA,NA,NA,NA,NA,NA,NA,NA,NA,NA,NA,NA,NA,NA,NA,NA
audio-instructions,359,1670835,0.0-327.0-1.0,voc_e2,12559,"[{""event"":""fullscreenenter"",""trial"":1,""time"":18984}]",NA,1391.6000000089407,static/audio/explicit2.wav,NA,0,NA,NA,NA,NA,NA,NA,NA,NA,NA,NA,NA,NA,NA,NA,NA,NA,NA,NA,NA,NA,NA,NA,NA,NA,NA
image-slider-response,360,1675103,0.0-328.0,voc_e2,12559,"[{""event"":""fullscreenenter"",""trial"":1,""time"":18984}]",NA,4265.4000000059605,static/img/machines/machine6.png,NA,NA,NA,NA,NA,NA,NA,NA,NA,NA,NA,NA,NA,NA,NA,NA,explicit,NA,NA,NA,NA,NA,NA,NA,NA,NA,7
image-slider-response,361,1675710,0.0-329.0,voc_e2,12559,"[{""event"":""fullscreenenter"",""trial"":1,""time"":18984}]",NA,605.4000000059605,static/img/machines/machine3.png,NA,NA,NA,NA,NA,NA,NA,NA,NA,NA,NA,NA,NA,NA,NA,NA,explicit,NA,NA,NA,NA,NA,NA,NA,NA,NA,5
image-slider-response,362,1678028,0.0-330.0,voc_e2,12559,"[{""event"":""fullscreenenter"",""trial"":1,""time"":18984}]",NA,2315.20000000298,static/img/machines/machine5.png,NA,NA,NA,NA,NA,NA,NA,NA,NA,NA,NA,NA,NA,NA,NA,NA,explicit,NA,NA,NA,NA,NA,NA,NA,NA,NA,3
image-slider-response,363,1680660,0.0-331.0,voc_e2,12559,"[{""event"":""fullscreenenter"",""trial"":1,""time"":18984}]",NA,2630.29999999702,static/img/machines/machine4.png,NA,NA,NA,NA,NA,NA,NA,NA,NA,NA,NA,NA,NA,NA,NA,NA,explicit,NA,NA,NA,NA,NA,NA,NA,NA,NA,7
image-slider-response,364,1682978,0.0-332.0,voc_e2,12559,"[{""event"":""fullscreenenter"",""trial"":1,""time"":18984}]",NA,2316.0999999940395,static/img/machines/machine1.png,NA,NA,NA,NA,NA,NA,NA,NA,NA,NA,NA,NA,NA,NA,NA,NA,explicit,NA,NA,NA,NA,NA,NA,NA,NA,NA,9
image-slider-response,365,1685333,0.0-333.0,voc_e2,12559,"[{""event"":""fullscreenenter"",""trial"":1,""time"":18984}]",NA,2353.20000000298,static/img/machines/machine2.png,NA,NA,NA,NA,NA,NA,NA,NA,NA,NA,NA,NA,NA,NA,NA,NA,explicit,NA,NA,NA,NA,NA,NA,NA,NA,NA,2
