trial_type,trial_index,time_elapsed,internal_node_id,task_version,subject_id,interactions,success,rt,stimulus,key_press,button_pressed,offer,arcade_color_L,arcade_color_R,arcade_outcome_L,arcade_outcome_R,correct,stage_1_key,stage_1_choice,stage_1_rt,stage_2_key,stage_2_choice,stage_2_rt,stage_3_outcome,accuracy,phase,responses,num_errors,context,reward_prob_L,reward_prob_R,arcade_id_L,arcade_id_R,trial,block,response
pavlovia,0,15,0.0-0.0,voc_e2,12108,[],NA,NA,NA,NA,NA,NA,NA,NA,NA,NA,NA,NA,NA,NA,NA,NA,NA,NA,NA,NA,NA,NA,NA,NA,NA,NA,NA,NA,NA,NA
fullscreen,1,3944,0.0-1.0,voc_e2,12108,"[{""event"":""fullscreenenter"",""trial"":1,""time"":3033}]",TRUE,NA,NA,NA,NA,NA,NA,NA,NA,NA,NA,NA,NA,NA,NA,NA,NA,NA,NA,NA,NA,NA,NA,NA,NA,NA,NA,NA,NA,NA
audio-keyboard-response,2,7843,0.0-2.0,voc_e2,12108,"[{""event"":""fullscreenenter"",""trial"":1,""time"":3033}]",NA,0,static/audio/beep_loop.wav,32,NA,NA,NA,NA,NA,NA,NA,NA,NA,NA,NA,NA,NA,NA,NA,NA,NA,NA,NA,NA,NA,NA,NA,NA,NA,NA
audio-test,3,10291,0.0-3.0,voc_e2,12108,"[{""event"":""fullscreenenter"",""trial"":1,""time"":3033}]",NA,NA,static/audio/turtle.wav,NA,3,NA,NA,NA,NA,NA,NA,NA,NA,NA,NA,NA,NA,NA,NA,NA,NA,NA,NA,NA,NA,NA,NA,NA,NA,NA
audio-test,4,13149,0.0-4.0,voc_e2,12108,"[{""event"":""fullscreenenter"",""trial"":1,""time"":3033}]",NA,NA,static/audio/shark.wav,NA,2,NA,NA,NA,NA,NA,NA,NA,NA,NA,NA,NA,NA,NA,NA,NA,NA,NA,NA,NA,NA,NA,NA,NA,NA,NA
audio-instructions,5,20010,0.0-5.0-0.0,voc_e2,12108,"[{""event"":""fullscreenenter"",""trial"":1,""time"":3033}]",NA,1080.0000000000036,static/audio/instructions1.wav,NA,0,NA,NA,NA,NA,NA,NA,NA,NA,NA,NA,NA,NA,NA,NA,NA,NA,NA,NA,NA,NA,NA,NA,NA,NA,NA
audio-instructions,6,29023,0.0-5.0-1.0,voc_e2,12108,"[{""event"":""fullscreenenter"",""trial"":1,""time"":3033}]",NA,2270.9999999999927,static/audio/instructions2.wav,NA,0,NA,NA,NA,NA,NA,NA,NA,NA,NA,NA,NA,NA,NA,NA,NA,NA,NA,NA,NA,NA,NA,NA,NA,NA,NA
audio-instructions,7,35960,0.0-5.0-2.0,voc_e2,12108,"[{""event"":""fullscreenenter"",""trial"":1,""time"":3033}]",NA,1134,static/audio/instructions3.wav,NA,0,NA,NA,NA,NA,NA,NA,NA,NA,NA,NA,NA,NA,NA,NA,NA,NA,NA,NA,NA,NA,NA,NA,NA,NA,NA
audio-instructions,8,53660,0.0-5.0-3.0,voc_e2,12108,"[{""event"":""fullscreenenter"",""trial"":1,""time"":3033}]",NA,4473.999999999993,static/audio/instructions4.wav,NA,0,NA,NA,NA,NA,NA,NA,NA,NA,NA,NA,NA,NA,NA,NA,NA,NA,NA,NA,NA,NA,NA,NA,NA,NA,NA
audio-instructions,9,78475,0.0-5.0-4.0,voc_e2,12108,"[{""event"":""fullscreenenter"",""trial"":1,""time"":3033}]",NA,15428,static/audio/instructions5.wav,NA,0,NA,NA,NA,NA,NA,NA,NA,NA,NA,NA,NA,NA,NA,NA,NA,NA,NA,NA,NA,NA,NA,NA,NA,NA,NA
fcp-practice,10,83104,0.0-5.0-5.0-0.0,voc_e2,12108,"[{""event"":""fullscreenenter"",""trial"":1,""time"":3033}]",NA,NA,NA,NA,NA,NA,#EDC948,#46d3c8,10,0,1,null,null,null,37,1,3119.9999999999854,10,1,practice,NA,NA,NA,NA,NA,NA,NA,NA,NA,NA
fcp-practice,11,85410,0.0-5.0-5.0-1.0,voc_e2,12108,"[{""event"":""fullscreenenter"",""trial"":1,""time"":3033}]",NA,NA,NA,NA,NA,NA,#EDC948,#46d3c8,10,0,1,null,null,null,37,1,800,10,1,practice,NA,NA,NA,NA,NA,NA,NA,NA,NA,NA
fcp-practice,12,87740,0.0-5.0-5.0-2.0,voc_e2,12108,"[{""event"":""fullscreenenter"",""trial"":1,""time"":3033}]",NA,NA,NA,NA,NA,NA,#EDC948,#46d3c8,0,10,1,null,null,null,37,1,826,0,1,practice,NA,NA,NA,NA,NA,NA,NA,NA,NA,NA
fcp-practice,13,89708,0.0-5.0-5.0-3.0,voc_e2,12108,"[{""event"":""fullscreenenter"",""trial"":1,""time"":3033}]",NA,NA,NA,NA,NA,NA,#EDC948,#46d3c8,10,0,1,null,null,null,37,1,462,10,1,practice,NA,NA,NA,NA,NA,NA,NA,NA,NA,NA
fcp-practice,14,91647,0.0-5.0-5.0-4.0,voc_e2,12108,"[{""event"":""fullscreenenter"",""trial"":1,""time"":3033}]",NA,NA,NA,NA,NA,NA,#EDC948,#46d3c8,10,0,1,null,null,null,37,1,435,10,1,practice,NA,NA,NA,NA,NA,NA,NA,NA,NA,NA
audio-instructions,15,110135,0.0-5.0-6.0,voc_e2,12108,"[{""event"":""fullscreenenter"",""trial"":1,""time"":3033}]",NA,482.00000000001455,static/audio/instructions6.wav,NA,0,NA,NA,NA,NA,NA,NA,NA,NA,NA,NA,NA,NA,NA,NA,NA,NA,NA,NA,NA,NA,NA,NA,NA,NA,NA
audio-instructions,16,130592,0.0-5.0-7.0,voc_e2,12108,"[{""event"":""fullscreenenter"",""trial"":1,""time"":3033}]",NA,1256,static/audio/instructions7.wav,NA,0,NA,NA,NA,NA,NA,NA,NA,NA,NA,NA,NA,NA,NA,NA,NA,NA,NA,NA,NA,NA,NA,NA,NA,NA,NA
audio-instructions,17,140749,0.0-5.0-8.0,voc_e2,12108,"[{""event"":""fullscreenenter"",""trial"":1,""time"":3033}]",NA,685,static/audio/instructions8.wav,NA,0,NA,NA,NA,NA,NA,NA,NA,NA,NA,NA,NA,NA,NA,NA,NA,NA,NA,NA,NA,NA,NA,NA,NA,NA,NA
fcp-comprehension,18,158259,0.0-5.0-9.0,voc_e2,12108,"[{""event"":""fullscreenenter"",""trial"":1,""time"":3033}]",NA,17510,NA,NA,NA,NA,NA,NA,NA,NA,NA,NA,NA,NA,NA,NA,NA,NA,NA,NA,"false,true",1,NA,NA,NA,NA,NA,NA,NA,NA
audio-instructions,19,163641,0.0-5.1-0.1,voc_e2,12108,"[{""event"":""fullscreenenter"",""trial"":1,""time"":3033}]",NA,603,static/audio/instructions1.wav,NA,0,NA,NA,NA,NA,NA,NA,NA,NA,NA,NA,NA,NA,NA,NA,NA,NA,NA,NA,NA,NA,NA,NA,NA,NA,NA
audio-instructions,20,170853,0.0-5.1-1.1,voc_e2,12108,"[{""event"":""fullscreenenter"",""trial"":1,""time"":3033}]",NA,470,static/audio/instructions2.wav,NA,0,NA,NA,NA,NA,NA,NA,NA,NA,NA,NA,NA,NA,NA,NA,NA,NA,NA,NA,NA,NA,NA,NA,NA,NA,NA
audio-instructions,21,176999,0.0-5.1-2.1,voc_e2,12108,"[{""event"":""fullscreenenter"",""trial"":1,""time"":3033}]",NA,343,static/audio/instructions3.wav,NA,0,NA,NA,NA,NA,NA,NA,NA,NA,NA,NA,NA,NA,NA,NA,NA,NA,NA,NA,NA,NA,NA,NA,NA,NA,NA
audio-instructions,22,190723,0.0-5.1-3.1,voc_e2,12108,"[{""event"":""fullscreenenter"",""trial"":1,""time"":3033}]",NA,497,static/audio/instructions4.wav,NA,0,NA,NA,NA,NA,NA,NA,NA,NA,NA,NA,NA,NA,NA,NA,NA,NA,NA,NA,NA,NA,NA,NA,NA,NA,NA
audio-instructions,23,200492,0.0-5.1-4.1,voc_e2,12108,"[{""event"":""fullscreenenter"",""trial"":1,""time"":3033}]",NA,382.0000000000291,static/audio/instructions5.wav,NA,0,NA,NA,NA,NA,NA,NA,NA,NA,NA,NA,NA,NA,NA,NA,NA,NA,NA,NA,NA,NA,NA,NA,NA,NA,NA
fcp-practice,24,203608,0.0-5.1-5.1-0.1,voc_e2,12108,"[{""event"":""fullscreenenter"",""trial"":1,""time"":3033}]",NA,NA,NA,NA,NA,NA,#EDC948,#46d3c8,10,0,1,null,null,null,37,1,1611,10,1,practice,NA,NA,NA,NA,NA,NA,NA,NA,NA,NA
fcp-practice,25,205359,0.0-5.1-5.1-1.1,voc_e2,12108,"[{""event"":""fullscreenenter"",""trial"":1,""time"":3033}]",NA,NA,NA,NA,NA,NA,#EDC948,#46d3c8,10,0,1,null,null,null,37,1,247,10,1,practice,NA,NA,NA,NA,NA,NA,NA,NA,NA,NA
fcp-practice,26,207111,0.0-5.1-5.1-2.1,voc_e2,12108,"[{""event"":""fullscreenenter"",""trial"":1,""time"":3033}]",NA,NA,NA,NA,NA,NA,#EDC948,#46d3c8,0,10,1,null,null,null,37,1,248.0000000000291,0,1,practice,NA,NA,NA,NA,NA,NA,NA,NA,NA,NA
fcp-practice,27,208888,0.0-5.1-5.1-3.1,voc_e2,12108,"[{""event"":""fullscreenenter"",""trial"":1,""time"":3033}]",NA,NA,NA,NA,NA,NA,#EDC948,#46d3c8,10,0,1,null,null,null,37,1,271,10,1,practice,NA,NA,NA,NA,NA,NA,NA,NA,NA,NA
fcp-practice,28,210719,0.0-5.1-5.1-4.1,voc_e2,12108,"[{""event"":""fullscreenenter"",""trial"":1,""time"":3033}]",NA,NA,NA,NA,NA,NA,#EDC948,#46d3c8,10,0,1,null,null,null,37,1,325,10,1,practice,NA,NA,NA,NA,NA,NA,NA,NA,NA,NA
audio-instructions,29,229610,0.0-5.1-6.1,voc_e2,12108,"[{""event"":""fullscreenenter"",""trial"":1,""time"":3033}]",NA,885,static/audio/instructions6.wav,NA,0,NA,NA,NA,NA,NA,NA,NA,NA,NA,NA,NA,NA,NA,NA,NA,NA,NA,NA,NA,NA,NA,NA,NA,NA,NA
audio-instructions,30,249633,0.0-5.1-7.1,voc_e2,12108,"[{""event"":""fullscreenenter"",""trial"":1,""time"":3033}]",NA,825.0000000000582,static/audio/instructions7.wav,NA,0,NA,NA,NA,NA,NA,NA,NA,NA,NA,NA,NA,NA,NA,NA,NA,NA,NA,NA,NA,NA,NA,NA,NA,NA,NA
audio-instructions,31,259653,0.0-5.1-8.1,voc_e2,12108,"[{""event"":""fullscreenenter"",""trial"":1,""time"":3033}]",NA,549,static/audio/instructions8.wav,NA,0,NA,NA,NA,NA,NA,NA,NA,NA,NA,NA,NA,NA,NA,NA,NA,NA,NA,NA,NA,NA,NA,NA,NA,NA,NA
fcp-comprehension,32,268753,0.0-5.1-9.1,voc_e2,12108,"[{""event"":""fullscreenenter"",""trial"":1,""time"":3033}]",NA,9098,NA,NA,NA,NA,NA,NA,NA,NA,NA,NA,NA,NA,NA,NA,NA,NA,NA,NA,"true,true",0,NA,NA,NA,NA,NA,NA,NA,NA
audio-instructions,33,275800,0.0-6.0-0.0,voc_e2,12108,"[{""event"":""fullscreenenter"",""trial"":1,""time"":3033}]",NA,1500,static/audio/instructions9.wav,NA,0,NA,NA,NA,NA,NA,NA,NA,NA,NA,NA,NA,NA,NA,NA,NA,NA,NA,NA,NA,NA,NA,NA,NA,NA,NA
audio-instructions,34,289660,0.0-6.0-1.0,voc_e2,12108,"[{""event"":""fullscreenenter"",""trial"":1,""time"":3033}]",NA,1742,static/audio/instructions10.wav,NA,0,NA,NA,NA,NA,NA,NA,NA,NA,NA,NA,NA,NA,NA,NA,NA,NA,NA,NA,NA,NA,NA,NA,NA,NA,NA
fcp-trial,35,296114,0.0-6.0-2.0,voc_e2,12108,"[{""event"":""fullscreenenter"",""trial"":1,""time"":3033}]",NA,NA,NA,NA,NA,0,#EDC948,#46d3c8,10,10,1,38,1,2596,37,1,2349,10,1,practice,NA,NA,NA,NA,NA,NA,NA,NA,NA,NA
audio-instructions,36,309071,0.0-6.0-3.0,voc_e2,12108,"[{""event"":""fullscreenenter"",""trial"":1,""time"":3033}]",NA,1948,static/audio/instructions11.wav,NA,0,NA,NA,NA,NA,NA,NA,NA,NA,NA,NA,NA,NA,NA,NA,NA,NA,NA,NA,NA,NA,NA,NA,NA,NA,NA
fcp-trial,37,315081,0.0-6.0-4.0,voc_e2,12108,"[{""event"":""fullscreenenter"",""trial"":1,""time"":3033}]",NA,NA,NA,NA,NA,6,#EDC948,#46d3c8,10,10,1,40,0,3435,37,1,1067,10,1,practice,NA,NA,NA,NA,NA,NA,NA,NA,NA,NA
audio-instructions,38,335323,0.0-6.0-5.0,voc_e2,12108,"[{""event"":""fullscreenenter"",""trial"":1,""time"":3033}]",NA,1554.9999999999418,static/audio/instructions12.wav,NA,0,NA,NA,NA,NA,NA,NA,NA,NA,NA,NA,NA,NA,NA,NA,NA,NA,NA,NA,NA,NA,NA,NA,NA,NA,NA
audio-instructions,39,343929,0.0-6.0-6.0,voc_e2,12108,"[{""event"":""fullscreenenter"",""trial"":1,""time"":3033}]",NA,1012.9999999999418,static/audio/instructions13.wav,NA,0,NA,NA,NA,NA,NA,NA,NA,NA,NA,NA,NA,NA,NA,NA,NA,NA,NA,NA,NA,NA,NA,NA,NA,NA,NA
audio-instructions,40,352893,0.0-6.0-7.0,voc_e2,12108,"[{""event"":""fullscreenenter"",""trial"":1,""time"":3033}]",NA,516,static/audio/instructions14.wav,NA,0,NA,NA,NA,NA,NA,NA,NA,NA,NA,NA,NA,NA,NA,NA,NA,NA,NA,NA,NA,NA,NA,NA,NA,NA,NA
audio-instructions,41,360189,0.0-7.0-0.0,voc_e2,12108,"[{""event"":""fullscreenenter"",""trial"":1,""time"":3033}]",NA,382,static/audio/instructions15.wav,NA,0,NA,NA,NA,NA,NA,NA,NA,NA,NA,NA,NA,NA,NA,NA,NA,NA,NA,NA,NA,NA,NA,NA,NA,NA,NA
audio-instructions,42,367453,0.0-7.0-1.0,voc_e2,12108,"[{""event"":""fullscreenenter"",""trial"":1,""time"":3033}]",NA,436.9999999999418,static/audio/instructions16.wav,NA,0,NA,NA,NA,NA,NA,NA,NA,NA,NA,NA,NA,NA,NA,NA,NA,NA,NA,NA,NA,NA,NA,NA,NA,NA,NA
audio-instructions,43,376421,0.0-7.0-2.0,voc_e2,12108,"[{""event"":""fullscreenenter"",""trial"":1,""time"":3033}]",NA,1287,static/audio/instructions17.wav,NA,0,NA,NA,NA,NA,NA,NA,NA,NA,NA,NA,NA,NA,NA,NA,NA,NA,NA,NA,NA,NA,NA,NA,NA,NA,NA
audio-instructions,44,384789,0.0-7.0-3.0,voc_e2,12108,"[{""event"":""fullscreenenter"",""trial"":1,""time"":3033}]",NA,603.0000000000582,static/audio/instructions18.wav,NA,0,NA,NA,NA,NA,NA,NA,NA,NA,NA,NA,NA,NA,NA,NA,NA,NA,NA,NA,NA,NA,NA,NA,NA,NA,NA
audio-instructions,45,391932,0.0-7.0-4.0,voc_e2,12108,"[{""event"":""fullscreenenter"",""trial"":1,""time"":3033}]",NA,402,static/audio/instructions19.wav,NA,0,NA,NA,NA,NA,NA,NA,NA,NA,NA,NA,NA,NA,NA,NA,NA,NA,NA,NA,NA,NA,NA,NA,NA,NA,NA
fcp-comprehension,46,402644,0.0-7.0-5.0,voc_e2,12108,"[{""event"":""fullscreenenter"",""trial"":1,""time"":3033}]",NA,10711,NA,NA,NA,NA,NA,NA,NA,NA,NA,NA,NA,NA,NA,NA,NA,NA,NA,NA,"false,false,false,true",0,NA,NA,NA,NA,NA,NA,NA,NA
audio-instructions,47,412978,0.0-8.0,voc_e2,12108,"[{""event"":""fullscreenenter"",""trial"":1,""time"":3033}]",NA,1116.0000000000582,static/audio/ready.wav,NA,0,NA,NA,NA,NA,NA,NA,NA,NA,NA,NA,NA,NA,NA,NA,NA,NA,NA,NA,NA,NA,NA,NA,NA,NA,NA
fcp-trial,48,417815,0.0-9.0-0.0,voc_e2,12108,"[{""event"":""fullscreenenter"",""trial"":1,""time"":3033}]",NA,NA,NA,NA,NA,3,#3386FF,#D89F1C,0,10,0,38,1,1795,39,0,1532.9999999999418,10,1,experiment,NA,NA,2,0.5,0.5,5,4,1,1,NA
fcp-trial,49,423503,0.0-10.0-0.0,voc_e2,12108,"[{""event"":""fullscreenenter"",""trial"":1,""time"":3033}]",NA,NA,NA,NA,NA,5,#741CD8,#D8271C,0,10,0,38,1,3050,37,1,1132,0,0,experiment,NA,NA,0,0.1,0.9,1,0,2,1,NA
fcp-trial,50,428321,0.0-11.0-0.0,voc_e2,12108,"[{""event"":""fullscreenenter"",""trial"":1,""time"":3033}]",NA,NA,NA,NA,NA,2,#741CD8,#D8271C,0,10,0,40,0,2346,37,1,963,0,0,experiment,NA,NA,0,0.1,0.9,1,0,3,1,NA
fcp-trial,51,432550,0.0-12.0-0.0,voc_e2,12108,"[{""event"":""fullscreenenter"",""trial"":1,""time"":3033}]",NA,NA,NA,NA,NA,5,#3386FF,#D89F1C,10,0,0,38,1,1935,39,0,786.9999999999418,0,1,experiment,NA,NA,2,0.5,0.5,5,4,4,1,NA
fcp-trial,52,439359,0.0-13.0-0.0,voc_e2,12108,"[{""event"":""fullscreenenter"",""trial"":1,""time"":3033}]",NA,NA,NA,NA,NA,1,#FA92F8,#1CD855,0,0,0,40,0,4336,39,0,965.0000000000582,0,1,experiment,NA,NA,1,0.3,0.7,3,2,5,1,NA
fcp-trial,53,443269,0.0-14.0-0.0,voc_e2,12108,"[{""event"":""fullscreenenter"",""trial"":1,""time"":3033}]",NA,NA,NA,NA,NA,6,#741CD8,#D8271C,0,10,0,38,1,698,39,0,1661,10,1,experiment,NA,NA,0,0.1,0.9,1,0,6,1,NA
fcp-trial,54,447805,0.0-15.0-0.0,voc_e2,12108,"[{""event"":""fullscreenenter"",""trial"":1,""time"":3033}]",NA,NA,NA,NA,NA,3,#FA92F8,#1CD855,0,10,0,40,0,1956.0000000000582,37,1,1070.9999999999418,0,0,experiment,NA,NA,1,0.3,0.7,3,2,7,1,NA
fcp-trial,55,453303,0.0-16.0-0.0,voc_e2,12108,"[{""event"":""fullscreenenter"",""trial"":1,""time"":3033}]",NA,NA,NA,NA,NA,0,#3386FF,#D89F1C,10,0,0,38,1,3122.000000000058,39,0,867.0000000000582,0,1,experiment,NA,NA,2,0.5,0.5,5,4,8,1,NA
fcp-trial,56,456797,0.0-17.0-0.0,voc_e2,12108,"[{""event"":""fullscreenenter"",""trial"":1,""time"":3033}]",NA,NA,NA,NA,NA,1,#3386FF,#D89F1C,10,0,0,40,0,1135.0000000000582,37,1,848,10,0,experiment,NA,NA,2,0.5,0.5,5,4,9,1,NA
fcp-trial,57,461709,0.0-18.0-0.0,voc_e2,12108,"[{""event"":""fullscreenenter"",""trial"":1,""time"":3033}]",NA,NA,NA,NA,NA,4,#D8271C,#741CD8,10,0,1,38,1,1889,37,1,1513.0000000000582,10,1,experiment,NA,NA,0,0.9,0.1,0,1,10,1,NA
fcp-trial,58,466404,0.0-19.0-0.0,voc_e2,12108,"[{""event"":""fullscreenenter"",""trial"":1,""time"":3033}]",NA,NA,NA,NA,NA,5,#FA92F8,#1CD855,0,10,0,40,0,2288,39,0,897.9999999999418,10,1,experiment,NA,NA,1,0.3,0.7,3,2,11,1,NA
fcp-trial,59,470850,0.0-20.0-0.0,voc_e2,12108,"[{""event"":""fullscreenenter"",""trial"":1,""time"":3033}]",NA,NA,NA,NA,NA,2,#1CD855,#FA92F8,10,10,1,38,1,1808.0000000000582,37,1,1130,10,1,experiment,NA,NA,1,0.7,0.3,2,3,12,1,NA
fcp-trial,60,476478,0.0-21.0-0.0,voc_e2,12108,"[{""event"":""fullscreenenter"",""trial"":1,""time"":3033}]",NA,NA,NA,NA,NA,6,#3386FF,#D89F1C,0,10,0,40,0,3293,37,1,826,0,0,experiment,NA,NA,2,0.5,0.5,5,4,13,1,NA
fcp-trial,61,482376,0.0-22.0-0.0,voc_e2,12108,"[{""event"":""fullscreenenter"",""trial"":1,""time"":3033}]",NA,NA,NA,NA,NA,1,#741CD8,#D8271C,0,0,0,38,1,3843,39,0,549,0,1,experiment,NA,NA,0,0.1,0.9,1,0,14,1,NA
fcp-trial,62,488592,0.0-23.0-0.0,voc_e2,12108,"[{""event"":""fullscreenenter"",""trial"":1,""time"":3033}]",NA,NA,NA,NA,NA,6,#1CD855,#FA92F8,10,10,1,40,0,4043,39,0,662,10,0,experiment,NA,NA,1,0.7,0.3,2,3,15,1,NA
fcp-trial,63,492370,0.0-24.0-0.0,voc_e2,12108,"[{""event"":""fullscreenenter"",""trial"":1,""time"":3033}]",NA,NA,NA,NA,NA,4,#FA92F8,#1CD855,0,0,0,38,1,1507,37,1,762,0,0,experiment,NA,NA,1,0.3,0.7,3,2,16,1,NA
fcp-trial,64,495871,0.0-25.0-0.0,voc_e2,12108,"[{""event"":""fullscreenenter"",""trial"":1,""time"":3033}]",NA,NA,NA,NA,NA,0,#741CD8,#D8271C,0,10,0,38,1,1491.9999999999418,39,0,497.9999999999418,10,1,experiment,NA,NA,0,0.1,0.9,1,0,17,1,NA
fcp-trial,65,500753,0.0-26.0-0.0,voc_e2,12108,"[{""event"":""fullscreenenter"",""trial"":1,""time"":3033}]",NA,NA,NA,NA,NA,4,#3386FF,#D89F1C,0,0,0,38,1,2504.000000000058,39,0,866,0,1,experiment,NA,NA,2,0.5,0.5,5,4,18,1,NA
fcp-trial,66,506046,0.0-27.0-0.0,voc_e2,12108,"[{""event"":""fullscreenenter"",""trial"":1,""time"":3033}]",NA,NA,NA,NA,NA,0,#1CD855,#FA92F8,10,10,1,40,0,2860.999999999942,37,1,900,10,1,experiment,NA,NA,1,0.7,0.3,2,3,19,1,NA
fcp-trial,67,509563,0.0-28.0-0.0,voc_e2,12108,"[{""event"":""fullscreenenter"",""trial"":1,""time"":3033}]",NA,NA,NA,NA,NA,2,#3386FF,#D89F1C,10,10,0,38,1,1160,37,1,849.0000000000582,10,0,experiment,NA,NA,2,0.5,0.5,5,4,20,1,NA
fcp-trial,68,513444,0.0-29.0-0.0,voc_e2,12108,"[{""event"":""fullscreenenter"",""trial"":1,""time"":3033}]",NA,NA,NA,NA,NA,3,#D8271C,#741CD8,10,0,1,38,1,1358.9999999998836,39,0,988.9999999999418,0,0,experiment,NA,NA,0,0.9,0.1,0,1,21,1,NA
fcp-trial,69,517367,0.0-30.0-0.0,voc_e2,12108,"[{""event"":""fullscreenenter"",""trial"":1,""time"":3033}]",NA,NA,NA,NA,NA,6,#FA92F8,#1CD855,0,10,0,40,0,1783.9999999998836,39,0,609,10,1,experiment,NA,NA,1,0.3,0.7,3,2,22,1,NA
fcp-trial,70,521727,0.0-31.0-0.0,voc_e2,12108,"[{""event"":""fullscreenenter"",""trial"":1,""time"":3033}]",NA,NA,NA,NA,NA,4,#741CD8,#D8271C,0,10,0,38,1,1375,37,1,1473,0,0,experiment,NA,NA,0,0.1,0.9,1,0,23,1,NA
fcp-trial,71,526513,0.0-32.0-0.0,voc_e2,12108,"[{""event"":""fullscreenenter"",""trial"":1,""time"":3033}]",NA,NA,NA,NA,NA,2,#FA92F8,#1CD855,0,10,0,38,1,835,39,0,2443,10,1,experiment,NA,NA,1,0.3,0.7,3,2,24,1,NA
fcp-trial,72,529431,0.0-33.0-0.0,voc_e2,12108,"[{""event"":""fullscreenenter"",""trial"":1,""time"":3033}]",NA,NA,NA,NA,NA,5,#741CD8,#D8271C,0,10,0,38,1,946,39,0,452.9999999998836,10,1,experiment,NA,NA,0,0.1,0.9,1,0,25,1,NA
fcp-trial,73,532722,0.0-34.0-0.0,voc_e2,12108,"[{""event"":""fullscreenenter"",""trial"":1,""time"":3033}]",NA,NA,NA,NA,NA,1,#1CD855,#FA92F8,0,0,1,38,1,971,37,1,812,0,1,experiment,NA,NA,1,0.7,0.3,2,3,26,1,NA
fcp-trial,74,536419,0.0-35.0-0.0,voc_e2,12108,"[{""event"":""fullscreenenter"",""trial"":1,""time"":3033}]",NA,NA,NA,NA,NA,5,#FA92F8,#1CD855,10,10,0,40,0,1481,37,1,706.0000000001164,10,0,experiment,NA,NA,1,0.3,0.7,3,2,27,1,NA
fcp-trial,75,540436,0.0-36.0-0.0,voc_e2,12108,"[{""event"":""fullscreenenter"",""trial"":1,""time"":3033}]",NA,NA,NA,NA,NA,4,#D89F1C,#3386FF,10,10,1,38,1,963,37,1,1546,10,1,experiment,NA,NA,2,0.5,0.5,4,5,28,1,NA
fcp-trial,76,543619,0.0-37.0-0.0,voc_e2,12108,"[{""event"":""fullscreenenter"",""trial"":1,""time"":3033}]",NA,NA,NA,NA,NA,2,#D89F1C,#3386FF,10,0,1,38,1,1003,39,0,668,0,0,experiment,NA,NA,2,0.5,0.5,4,5,29,1,NA
fcp-trial,77,546670,0.0-38.0-0.0,voc_e2,12108,"[{""event"":""fullscreenenter"",""trial"":1,""time"":3033}]",NA,NA,NA,NA,NA,1,#D8271C,#741CD8,10,0,1,38,1,955,37,1,586,10,1,experiment,NA,NA,0,0.9,0.1,0,1,30,1,NA
fcp-trial,78,550147,0.0-39.0-0.0,voc_e2,12108,"[{""event"":""fullscreenenter"",""trial"":1,""time"":3033}]",NA,NA,NA,NA,NA,3,#3386FF,#D89F1C,10,0,0,40,0,1336.9999999998836,37,1,630,10,0,experiment,NA,NA,2,0.5,0.5,5,4,31,1,NA
fcp-trial,79,553912,0.0-40.0-0.0,voc_e2,12108,"[{""event"":""fullscreenenter"",""trial"":1,""time"":3033}]",NA,NA,NA,NA,NA,4,#1CD855,#FA92F8,0,0,1,40,0,1654,39,0,602,0,0,experiment,NA,NA,1,0.7,0.3,2,3,32,1,NA
fcp-trial,80,557545,0.0-41.0-0.0,voc_e2,12108,"[{""event"":""fullscreenenter"",""trial"":1,""time"":3033}]",NA,NA,NA,NA,NA,1,#D89F1C,#3386FF,10,0,1,38,1,1621,37,1,479,10,1,experiment,NA,NA,2,0.5,0.5,4,5,33,1,NA
fcp-trial,81,560722,0.0-42.0-0.0,voc_e2,12108,"[{""event"":""fullscreenenter"",""trial"":1,""time"":3033}]",NA,NA,NA,NA,NA,5,#3386FF,#D89F1C,0,10,0,38,1,1217,39,0,449.0000000001164,10,1,experiment,NA,NA,2,0.5,0.5,5,4,34,1,NA
fcp-trial,82,563469,0.0-43.0-0.0,voc_e2,12108,"[{""event"":""fullscreenenter"",""trial"":1,""time"":3033}]",NA,NA,NA,NA,NA,3,#741CD8,#D8271C,10,10,0,38,1,706,39,0,531,10,1,experiment,NA,NA,0,0.1,0.9,1,0,35,1,NA
fcp-trial,83,566815,0.0-44.0-0.0,voc_e2,12108,"[{""event"":""fullscreenenter"",""trial"":1,""time"":3033}]",NA,NA,NA,NA,NA,3,#FA92F8,#1CD855,0,10,0,40,0,1097,37,1,739,0,0,experiment,NA,NA,1,0.3,0.7,3,2,36,1,NA
fcp-trial,84,569680,0.0-45.0-0.0,voc_e2,12108,"[{""event"":""fullscreenenter"",""trial"":1,""time"":3033}]",NA,NA,NA,NA,NA,0,#3386FF,#D89F1C,10,10,0,38,1,934,39,0,414,10,1,experiment,NA,NA,2,0.5,0.5,5,4,37,1,NA
fcp-trial,85,572418,0.0-46.0-0.0,voc_e2,12108,"[{""event"":""fullscreenenter"",""trial"":1,""time"":3033}]",NA,NA,NA,NA,NA,0,#741CD8,#D8271C,0,10,0,38,1,723,39,0,502,10,1,experiment,NA,NA,0,0.1,0.9,1,0,38,1,NA
fcp-trial,86,574879,0.0-47.0-0.0,voc_e2,12108,"[{""event"":""fullscreenenter"",""trial"":1,""time"":3033}]",NA,NA,NA,NA,NA,6,#741CD8,#D8271C,0,10,0,38,1,487.9999999998836,39,0,462,10,1,experiment,NA,NA,0,0.1,0.9,1,0,39,1,NA
fcp-trial,87,578725,0.0-48.0-0.0,voc_e2,12108,"[{""event"":""fullscreenenter"",""trial"":1,""time"":3033}]",NA,NA,NA,NA,NA,0,#FA92F8,#1CD855,10,10,0,38,1,1485,37,1,849,10,0,experiment,NA,NA,1,0.3,0.7,3,2,40,1,NA
fcp-trial,88,581345,0.0-49.0-0.0,voc_e2,12108,"[{""event"":""fullscreenenter"",""trial"":1,""time"":3033}]",NA,NA,NA,NA,NA,2,#741CD8,#D8271C,0,10,0,38,1,638,39,0,472.0000000001164,10,1,experiment,NA,NA,0,0.1,0.9,1,0,41,1,NA
fcp-trial,89,584086,0.0-50.0-0.0,voc_e2,12108,"[{""event"":""fullscreenenter"",""trial"":1,""time"":3033}]",NA,NA,NA,NA,NA,6,#3386FF,#D89F1C,10,10,0,38,1,785,39,0,447,10,1,experiment,NA,NA,2,0.5,0.5,5,4,42,1,NA
fcp-trial,90,586904,0.0-51.0-0.0,voc_e2,12108,"[{""event"":""fullscreenenter"",""trial"":1,""time"":3033}]",NA,NA,NA,NA,NA,5,#D89F1C,#3386FF,10,0,1,38,1,743,37,1,566,10,1,experiment,NA,NA,2,0.5,0.5,4,5,43,1,NA
fcp-trial,91,590220,0.0-52.0-0.0,voc_e2,12108,"[{""event"":""fullscreenenter"",""trial"":1,""time"":3033}]",NA,NA,NA,NA,NA,0,#741CD8,#D8271C,0,10,0,38,1,1318,39,0,484.0000000001164,10,1,experiment,NA,NA,0,0.1,0.9,1,0,44,1,NA
fcp-trial,92,594281,0.0-53.0-0.0,voc_e2,12108,"[{""event"":""fullscreenenter"",""trial"":1,""time"":3033}]",NA,NA,NA,NA,NA,4,#1CD855,#FA92F8,0,0,1,38,1,1965,37,1,564,0,1,experiment,NA,NA,1,0.7,0.3,2,3,45,1,NA
fcp-trial,93,597028,0.0-54.0-0.0,voc_e2,12108,"[{""event"":""fullscreenenter"",""trial"":1,""time"":3033}]",NA,NA,NA,NA,NA,6,#D89F1C,#3386FF,0,0,1,38,1,842,37,1,395,0,1,experiment,NA,NA,2,0.5,0.5,4,5,46,2,NA
fcp-trial,94,599909,0.0-55.0-0.0,voc_e2,12108,"[{""event"":""fullscreenenter"",""trial"":1,""time"":3033}]",NA,NA,NA,NA,NA,2,#FA92F8,#1CD855,10,10,0,38,1,911,39,0,460,10,1,experiment,NA,NA,1,0.3,0.7,3,2,47,2,NA
fcp-trial,95,602452,0.0-56.0-0.0,voc_e2,12108,"[{""event"":""fullscreenenter"",""trial"":1,""time"":3033}]",NA,NA,NA,NA,NA,5,#741CD8,#D8271C,0,10,0,38,1,573,39,0,459.0000000001164,10,1,experiment,NA,NA,0,0.1,0.9,1,0,48,2,NA
fcp-trial,96,605309,0.0-57.0-0.0,voc_e2,12108,"[{""event"":""fullscreenenter"",""trial"":1,""time"":3033}]",NA,NA,NA,NA,NA,3,#1CD855,#FA92F8,0,0,1,38,1,953,37,1,395,0,1,experiment,NA,NA,1,0.7,0.3,2,3,49,2,NA
fcp-trial,97,608024,0.0-58.0-0.0,voc_e2,12108,"[{""event"":""fullscreenenter"",""trial"":1,""time"":3033}]",NA,NA,NA,NA,NA,1,#D8271C,#741CD8,10,0,1,38,1,803,37,1,403,10,1,experiment,NA,NA,0,0.9,0.1,0,1,50,2,NA
fcp-trial,98,611802,0.0-59.0-0.0,voc_e2,12108,"[{""event"":""fullscreenenter"",""trial"":1,""time"":3033}]",NA,NA,NA,NA,NA,4,#3386FF,#D89F1C,0,0,0,38,1,1041,39,0,1226.9999999998836,0,1,experiment,NA,NA,2,0.5,0.5,5,4,51,2,NA
fcp-trial,99,614452,0.0-60.0-0.0,voc_e2,12108,"[{""event"":""fullscreenenter"",""trial"":1,""time"":3033}]",NA,NA,NA,NA,NA,2,#D89F1C,#3386FF,0,0,1,38,1,789,37,1,350,0,1,experiment,NA,NA,2,0.5,0.5,4,5,52,2,NA
fcp-trial,100,617653,0.0-61.0-0.0,voc_e2,12108,"[{""event"":""fullscreenenter"",""trial"":1,""time"":3033}]",NA,NA,NA,NA,NA,5,#FA92F8,#1CD855,0,10,0,38,1,1247,39,0,423,10,1,experiment,NA,NA,1,0.3,0.7,3,2,53,2,NA
fcp-trial,101,620595,0.0-62.0-0.0,voc_e2,12108,"[{""event"":""fullscreenenter"",""trial"":1,""time"":3033}]",NA,NA,NA,NA,NA,6,#D8271C,#741CD8,10,0,1,38,1,1065,37,1,346,10,1,experiment,NA,NA,0,0.9,0.1,0,1,54,2,NA
fcp-trial,102,625546,0.0-63.0-0.0,voc_e2,12108,"[{""event"":""fullscreenenter"",""trial"":1,""time"":3033}]",NA,NA,NA,NA,NA,1,#1CD855,#FA92F8,10,0,1,38,1,2140.0000000001164,37,1,1303.9999999998836,10,1,experiment,NA,NA,1,0.7,0.3,2,3,55,2,NA
fcp-trial,103,628939,0.0-64.0-0.0,voc_e2,12108,"[{""event"":""fullscreenenter"",""trial"":1,""time"":3033}]",NA,NA,NA,NA,NA,3,#D8271C,#741CD8,0,0,1,38,1,1383,37,1,480.0000000001164,0,1,experiment,NA,NA,0,0.9,0.1,0,1,56,2,NA
fcp-trial,104,632573,0.0-65.0-0.0,voc_e2,12108,"[{""event"":""fullscreenenter"",""trial"":1,""time"":3033}]",NA,NA,NA,NA,NA,3,#D89F1C,#3386FF,0,10,1,38,1,1690.9999999998836,37,1,434.0000000001164,0,1,experiment,NA,NA,2,0.5,0.5,4,5,57,2,NA
fcp-trial,105,636104,0.0-66.0-0.0,voc_e2,12108,"[{""event"":""fullscreenenter"",""trial"":1,""time"":3033}]",NA,NA,NA,NA,NA,4,#741CD8,#D8271C,10,10,0,38,1,1723,39,0,297,10,1,experiment,NA,NA,0,0.1,0.9,1,0,58,2,NA
fcp-trial,106,639821,0.0-67.0-0.0,voc_e2,12108,"[{""event"":""fullscreenenter"",""trial"":1,""time"":3033}]",NA,NA,NA,NA,NA,0,#3386FF,#D89F1C,0,10,0,38,1,1755.9999999998836,39,0,418,10,1,experiment,NA,NA,2,0.5,0.5,5,4,59,2,NA
fcp-trial,107,643883,0.0-68.0-0.0,voc_e2,12108,"[{""event"":""fullscreenenter"",""trial"":1,""time"":3033}]",NA,NA,NA,NA,NA,6,#1CD855,#FA92F8,0,0,1,38,1,1884,37,1,633,0,1,experiment,NA,NA,1,0.7,0.3,2,3,60,2,NA
fcp-trial,108,646714,0.0-69.0-0.0,voc_e2,12108,"[{""event"":""fullscreenenter"",""trial"":1,""time"":3033}]",NA,NA,NA,NA,NA,2,#D8271C,#741CD8,10,0,1,38,1,793,37,1,529,10,1,experiment,NA,NA,0,0.9,0.1,0,1,61,2,NA
fcp-trial,109,649475,0.0-70.0-0.0,voc_e2,12108,"[{""event"":""fullscreenenter"",""trial"":1,""time"":3033}]",NA,NA,NA,NA,NA,0,#FA92F8,#1CD855,0,0,0,38,1,831,37,1,399,0,0,experiment,NA,NA,1,0.3,0.7,3,2,62,2,NA
fcp-trial,110,652838,0.0-71.0-0.0,voc_e2,12108,"[{""event"":""fullscreenenter"",""trial"":1,""time"":3033}]",NA,NA,NA,NA,NA,1,#3386FF,#D89F1C,10,10,0,38,1,1288,39,0,565,10,1,experiment,NA,NA,2,0.5,0.5,5,4,63,2,NA
fcp-trial,111,655737,0.0-72.0-0.0,voc_e2,12108,"[{""event"":""fullscreenenter"",""trial"":1,""time"":3033}]",NA,NA,NA,NA,NA,2,#741CD8,#D8271C,0,10,0,38,1,974.9999999998836,39,0,416,10,1,experiment,NA,NA,0,0.1,0.9,1,0,64,2,NA
fcp-trial,112,658336,0.0-73.0-0.0,voc_e2,12108,"[{""event"":""fullscreenenter"",""trial"":1,""time"":3033}]",NA,NA,NA,NA,NA,4,#741CD8,#D8271C,0,10,0,38,1,640.9999999998836,39,0,450.0000000001164,10,1,experiment,NA,NA,0,0.1,0.9,1,0,65,2,NA
fcp-trial,113,661118,0.0-74.0-0.0,voc_e2,12108,"[{""event"":""fullscreenenter"",""trial"":1,""time"":3033}]",NA,NA,NA,NA,NA,6,#3386FF,#D89F1C,0,0,0,38,1,842,39,0,431.9999999998836,0,1,experiment,NA,NA,2,0.5,0.5,5,4,66,2,NA
fcp-trial,114,664058,0.0-75.0-0.0,voc_e2,12108,"[{""event"":""fullscreenenter"",""trial"":1,""time"":3033}]",NA,NA,NA,NA,NA,2,#3386FF,#D89F1C,10,10,0,38,1,972,37,1,455,10,0,experiment,NA,NA,2,0.5,0.5,5,4,67,2,NA
fcp-trial,115,666861,0.0-76.0-0.0,voc_e2,12108,"[{""event"":""fullscreenenter"",""trial"":1,""time"":3033}]",NA,NA,NA,NA,NA,0,#1CD855,#FA92F8,10,0,1,38,1,867.9999999998836,39,0,423.9999999998836,0,0,experiment,NA,NA,1,0.7,0.3,2,3,68,2,NA
fcp-trial,116,670370,0.0-77.0-0.0,voc_e2,12108,"[{""event"":""fullscreenenter"",""trial"":1,""time"":3033}]",NA,NA,NA,NA,NA,2,#1CD855,#FA92F8,10,0,1,38,1,1526.9999999998836,37,1,469,10,1,experiment,NA,NA,1,0.7,0.3,2,3,69,2,NA
fcp-trial,117,673175,0.0-78.0-0.0,voc_e2,12108,"[{""event"":""fullscreenenter"",""trial"":1,""time"":3033}]",NA,NA,NA,NA,NA,3,#D8271C,#741CD8,0,0,1,38,1,914,37,1,383,0,1,experiment,NA,NA,0,0.9,0.1,0,1,70,2,NA
fcp-trial,118,676190,0.0-79.0-0.0,voc_e2,12108,"[{""event"":""fullscreenenter"",""trial"":1,""time"":3033}]",NA,NA,NA,NA,NA,6,#FA92F8,#1CD855,10,10,0,38,1,554,37,1,950,10,0,experiment,NA,NA,1,0.3,0.7,3,2,71,2,NA
fcp-trial,119,679239,0.0-80.0-0.0,voc_e2,12108,"[{""event"":""fullscreenenter"",""trial"":1,""time"":3033}]",NA,NA,NA,NA,NA,5,#D89F1C,#3386FF,0,10,1,38,1,1138,39,0,399,10,0,experiment,NA,NA,2,0.5,0.5,4,5,72,2,NA
fcp-trial,120,682068,0.0-81.0-0.0,voc_e2,12108,"[{""event"":""fullscreenenter"",""trial"":1,""time"":3033}]",NA,NA,NA,NA,NA,3,#3386FF,#D89F1C,0,10,0,38,1,720,37,1,597,0,0,experiment,NA,NA,2,0.5,0.5,5,4,73,2,NA
fcp-trial,121,684989,0.0-82.0-0.0,voc_e2,12108,"[{""event"":""fullscreenenter"",""trial"":1,""time"":3033}]",NA,NA,NA,NA,NA,5,#D8271C,#741CD8,10,0,1,38,1,1058,37,1,354.0000000001164,10,1,experiment,NA,NA,0,0.9,0.1,0,1,74,2,NA
fcp-trial,122,689063,0.0-83.0-0.0,voc_e2,12108,"[{""event"":""fullscreenenter"",""trial"":1,""time"":3033}]",NA,NA,NA,NA,NA,1,#D89F1C,#3386FF,10,0,1,38,1,2141,37,1,412,10,1,experiment,NA,NA,2,0.5,0.5,4,5,75,2,NA
fcp-trial,123,692463,0.0-84.0-0.0,voc_e2,12108,"[{""event"":""fullscreenenter"",""trial"":1,""time"":3033}]",NA,NA,NA,NA,NA,3,#1CD855,#FA92F8,0,0,1,38,1,1557.9999999998836,39,0,334,0,0,experiment,NA,NA,1,0.7,0.3,2,3,76,2,NA
fcp-trial,124,695174,0.0-85.0-0.0,voc_e2,12108,"[{""event"":""fullscreenenter"",""trial"":1,""time"":3033}]",NA,NA,NA,NA,NA,1,#FA92F8,#1CD855,0,0,0,38,1,705,37,1,477,0,0,experiment,NA,NA,1,0.3,0.7,3,2,77,2,NA
fcp-trial,125,697792,0.0-86.0-0.0,voc_e2,12108,"[{""event"":""fullscreenenter"",""trial"":1,""time"":3033}]",NA,NA,NA,NA,NA,0,#D8271C,#741CD8,0,0,1,38,1,674,37,1,433,0,1,experiment,NA,NA,0,0.9,0.1,0,1,78,2,NA
fcp-trial,126,700438,0.0-87.0-0.0,voc_e2,12108,"[{""event"":""fullscreenenter"",""trial"":1,""time"":3033}]",NA,NA,NA,NA,NA,6,#741CD8,#D8271C,0,10,0,38,1,718,39,0,417,10,1,experiment,NA,NA,0,0.1,0.9,1,0,79,2,NA
fcp-trial,127,704702,0.0-88.0-0.0,voc_e2,12108,"[{""event"":""fullscreenenter"",""trial"":1,""time"":3033}]",NA,NA,NA,NA,NA,4,#D89F1C,#3386FF,0,10,1,38,1,1987.0000000001164,39,0,767,10,0,experiment,NA,NA,2,0.5,0.5,4,5,80,2,NA
fcp-trial,128,707452,0.0-89.0-0.0,voc_e2,12108,"[{""event"":""fullscreenenter"",""trial"":1,""time"":3033}]",NA,NA,NA,NA,NA,0,#D89F1C,#3386FF,0,10,1,38,1,774,39,0,467,10,0,experiment,NA,NA,2,0.5,0.5,4,5,81,2,NA
fcp-trial,129,711087,0.0-90.0-0.0,voc_e2,12108,"[{""event"":""fullscreenenter"",""trial"":1,""time"":3033}]",NA,NA,NA,NA,NA,4,#1CD855,#FA92F8,10,10,1,38,1,1406.0000000001164,37,1,718.9999999998836,10,1,experiment,NA,NA,1,0.7,0.3,2,3,82,2,NA
fcp-trial,130,714496,0.0-91.0-0.0,voc_e2,12108,"[{""event"":""fullscreenenter"",""trial"":1,""time"":3033}]",NA,NA,NA,NA,NA,1,#D8271C,#741CD8,10,10,1,38,1,1409,37,1,446,10,1,experiment,NA,NA,0,0.9,0.1,0,1,83,2,NA
fcp-trial,131,719444,0.0-92.0-0.0,voc_e2,12108,"[{""event"":""fullscreenenter"",""trial"":1,""time"":3033}]",NA,NA,NA,NA,NA,5,#1CD855,#FA92F8,10,0,1,38,1,2106,39,0,1330.9999999998836,0,0,experiment,NA,NA,1,0.7,0.3,2,3,84,2,NA
fcp-trial,132,722175,0.0-93.0-0.0,voc_e2,12108,"[{""event"":""fullscreenenter"",""trial"":1,""time"":3033}]",NA,NA,NA,NA,NA,0,#D8271C,#741CD8,10,0,1,38,1,820,37,1,401,10,1,experiment,NA,NA,0,0.9,0.1,0,1,85,2,NA
fcp-trial,133,725572,0.0-94.0-0.0,voc_e2,12108,"[{""event"":""fullscreenenter"",""trial"":1,""time"":3033}]",NA,NA,NA,NA,NA,4,#3386FF,#D89F1C,10,10,0,38,1,1304,37,1,583,10,0,experiment,NA,NA,2,0.5,0.5,5,4,86,2,NA
fcp-trial,134,729617,0.0-95.0-0.0,voc_e2,12108,"[{""event"":""fullscreenenter"",""trial"":1,""time"":3033}]",NA,NA,NA,NA,NA,4,#FA92F8,#1CD855,0,0,0,38,1,2002,37,1,534,0,0,experiment,NA,NA,1,0.3,0.7,3,2,87,2,NA
fcp-trial,135,733004,0.0-96.0-0.0,voc_e2,12108,"[{""event"":""fullscreenenter"",""trial"":1,""time"":3033}]",NA,NA,NA,NA,NA,3,#741CD8,#D8271C,0,10,0,38,1,1395,39,0,481,10,1,experiment,NA,NA,0,0.1,0.9,1,0,88,2,NA
fcp-trial,136,736710,0.0-97.0-0.0,voc_e2,12108,"[{""event"":""fullscreenenter"",""trial"":1,""time"":3033}]",NA,NA,NA,NA,NA,2,#1CD855,#FA92F8,10,0,1,38,1,1436,39,0,761,0,0,experiment,NA,NA,1,0.7,0.3,2,3,89,2,NA
fcp-trial,137,739331,0.0-98.0-0.0,voc_e2,12108,"[{""event"":""fullscreenenter"",""trial"":1,""time"":3033}]",NA,NA,NA,NA,NA,4,#D8271C,#741CD8,10,0,1,38,1,613.0000000001164,37,1,497.9999999998836,10,1,experiment,NA,NA,0,0.9,0.1,0,1,90,2,NA
fcp-trial,138,742162,0.0-99.0-0.0,voc_e2,12108,"[{""event"":""fullscreenenter"",""trial"":1,""time"":3033}]",NA,NA,NA,NA,NA,0,#3386FF,#D89F1C,0,0,0,38,1,788,37,1,511,0,0,experiment,NA,NA,2,0.5,0.5,5,4,91,3,NA
fcp-trial,139,745173,0.0-100.0-0.0,voc_e2,12108,"[{""event"":""fullscreenenter"",""trial"":1,""time"":3033}]",NA,NA,NA,NA,NA,0,#1CD855,#FA92F8,0,0,1,38,1,1052,39,0,451,0,0,experiment,NA,NA,1,0.7,0.3,2,3,92,3,NA
fcp-trial,140,748610,0.0-101.0-0.0,voc_e2,12108,"[{""event"":""fullscreenenter"",""trial"":1,""time"":3033}]",NA,NA,NA,NA,NA,1,#FA92F8,#1CD855,0,10,0,38,1,1260,37,1,668,0,0,experiment,NA,NA,1,0.3,0.7,3,2,93,3,NA
fcp-trial,141,751591,0.0-102.0-0.0,voc_e2,12108,"[{""event"":""fullscreenenter"",""trial"":1,""time"":3033}]",NA,NA,NA,NA,NA,3,#D89F1C,#3386FF,0,0,1,38,1,816,39,0,654,0,0,experiment,NA,NA,2,0.5,0.5,4,5,94,3,NA
fcp-trial,142,754173,0.0-103.0-0.0,voc_e2,12108,"[{""event"":""fullscreenenter"",""trial"":1,""time"":3033}]",NA,NA,NA,NA,NA,6,#D8271C,#741CD8,10,0,1,38,1,604,37,1,449,10,1,experiment,NA,NA,0,0.9,0.1,0,1,95,3,NA
fcp-trial,143,757448,0.0-104.0-0.0,voc_e2,12108,"[{""event"":""fullscreenenter"",""trial"":1,""time"":3033}]",NA,NA,NA,NA,NA,5,#1CD855,#FA92F8,10,0,1,38,1,1128,37,1,615,10,1,experiment,NA,NA,1,0.7,0.3,2,3,96,3,NA
fcp-trial,144,760305,0.0-105.0-0.0,voc_e2,12108,"[{""event"":""fullscreenenter"",""trial"":1,""time"":3033}]",NA,NA,NA,NA,NA,1,#741CD8,#D8271C,0,10,0,38,1,991.9999999998836,39,0,355,10,1,experiment,NA,NA,0,0.1,0.9,1,0,97,3,NA
fcp-trial,145,763127,0.0-106.0-0.0,voc_e2,12108,"[{""event"":""fullscreenenter"",""trial"":1,""time"":3033}]",NA,NA,NA,NA,NA,5,#D89F1C,#3386FF,10,10,1,38,1,762,39,0,549,10,0,experiment,NA,NA,2,0.5,0.5,4,5,98,3,NA
fcp-trial,146,765925,0.0-107.0-0.0,voc_e2,12108,"[{""event"":""fullscreenenter"",""trial"":1,""time"":3033}]",NA,NA,NA,NA,NA,3,#FA92F8,#1CD855,0,0,0,38,1,655,39,0,631.9999999998836,0,1,experiment,NA,NA,1,0.3,0.7,3,2,99,3,NA
fcp-trial,147,768507,0.0-108.0-0.0,voc_e2,12108,"[{""event"":""fullscreenenter"",""trial"":1,""time"":3033}]",NA,NA,NA,NA,NA,5,#D8271C,#741CD8,10,0,1,38,1,640,37,1,432,10,1,experiment,NA,NA,0,0.9,0.1,0,1,100,3,NA
fcp-trial,148,771189,0.0-109.0-0.0,voc_e2,12108,"[{""event"":""fullscreenenter"",""trial"":1,""time"":3033}]",NA,NA,NA,NA,NA,6,#1CD855,#FA92F8,0,10,1,38,1,641.0000000001164,37,1,531.9999999998836,0,1,experiment,NA,NA,1,0.7,0.3,2,3,101,3,NA
fcp-trial,149,773806,0.0-110.0-0.0,voc_e2,12108,"[{""event"":""fullscreenenter"",""trial"":1,""time"":3033}]",NA,NA,NA,NA,NA,1,#D89F1C,#3386FF,10,0,1,38,1,803,39,0,302.0000000001164,0,0,experiment,NA,NA,2,0.5,0.5,4,5,102,3,NA
fcp-trial,150,776337,0.0-111.0-0.0,voc_e2,12108,"[{""event"":""fullscreenenter"",""trial"":1,""time"":3033}]",NA,NA,NA,NA,NA,6,#D89F1C,#3386FF,0,0,1,38,1,669.0000000001164,37,1,350,0,1,experiment,NA,NA,2,0.5,0.5,4,5,103,3,NA
fcp-trial,151,778907,0.0-112.0-0.0,voc_e2,12108,"[{""event"":""fullscreenenter"",""trial"":1,""time"":3033}]",NA,NA,NA,NA,NA,2,#741CD8,#D8271C,0,10,0,38,1,699,39,0,315.9999999998836,10,1,experiment,NA,NA,0,0.1,0.9,1,0,104,3,NA
fcp-trial,152,781500,0.0-113.0-0.0,voc_e2,12108,"[{""event"":""fullscreenenter"",""trial"":1,""time"":3033}]",NA,NA,NA,NA,NA,2,#D89F1C,#3386FF,0,10,1,38,1,716,39,0,369,10,0,experiment,NA,NA,2,0.5,0.5,4,5,105,3,NA
audio-instructions,153,797391,0.0-114.0,voc_e2,12108,"[{""event"":""fullscreenenter"",""trial"":1,""time"":3033}]",NA,11451.999999999884,static/audio/pause.wav,NA,0,NA,NA,NA,NA,NA,NA,NA,NA,NA,NA,NA,NA,NA,NA,NA,NA,NA,NA,NA,NA,NA,NA,NA,NA,NA
fcp-trial,154,801148,0.0-115.0-0.0,voc_e2,12108,"[{""event"":""fullscreenenter"",""trial"":1,""time"":3033}]",NA,NA,NA,NA,NA,1,#FA92F8,#1CD855,10,10,0,38,1,1425,39,0,823,10,1,experiment,NA,NA,1,0.3,0.7,3,2,106,3,NA
fcp-trial,155,804115,0.0-116.0-0.0,voc_e2,12108,"[{""event"":""fullscreenenter"",""trial"":1,""time"":3033}]",NA,NA,NA,NA,NA,5,#1CD855,#FA92F8,10,0,1,38,1,959,37,1,498,10,1,experiment,NA,NA,1,0.7,0.3,2,3,107,3,NA
fcp-trial,156,807284,0.0-117.0-0.0,voc_e2,12108,"[{""event"":""fullscreenenter"",""trial"":1,""time"":3033}]",NA,NA,NA,NA,NA,3,#741CD8,#D8271C,0,10,0,38,1,1062,37,1,598,0,0,experiment,NA,NA,0,0.1,0.9,1,0,108,3,NA
fcp-trial,157,810111,0.0-118.0-0.0,voc_e2,12108,"[{""event"":""fullscreenenter"",""trial"":1,""time"":3033}]",NA,NA,NA,NA,NA,3,#D89F1C,#3386FF,10,0,1,38,1,910,39,0,385,0,0,experiment,NA,NA,2,0.5,0.5,4,5,109,3,NA
fcp-trial,158,813062,0.0-119.0-0.0,voc_e2,12108,"[{""event"":""fullscreenenter"",""trial"":1,""time"":3033}]",NA,NA,NA,NA,NA,6,#3386FF,#D89F1C,0,0,0,38,1,1111,39,0,332,0,1,experiment,NA,NA,2,0.5,0.5,5,4,110,3,NA
fcp-trial,159,815989,0.0-120.0-0.0,voc_e2,12108,"[{""event"":""fullscreenenter"",""trial"":1,""time"":3033}]",NA,NA,NA,NA,NA,0,#741CD8,#D8271C,0,10,0,38,1,879,39,0,517,10,1,experiment,NA,NA,0,0.1,0.9,1,0,111,3,NA
fcp-trial,160,819479,0.0-121.0-0.0,voc_e2,12108,"[{""event"":""fullscreenenter"",""trial"":1,""time"":3033}]",NA,NA,NA,NA,NA,0,#FA92F8,#1CD855,0,0,0,40,0,1286,39,0,690.0000000001164,0,1,experiment,NA,NA,1,0.3,0.7,3,2,112,3,NA
fcp-trial,161,823781,0.0-122.0-0.0,voc_e2,12108,"[{""event"":""fullscreenenter"",""trial"":1,""time"":3033}]",NA,NA,NA,NA,NA,4,#FA92F8,#1CD855,0,10,0,40,0,2064,37,1,730,0,0,experiment,NA,NA,1,0.3,0.7,3,2,113,3,NA
fcp-trial,162,827745,0.0-123.0-0.0,voc_e2,12108,"[{""event"":""fullscreenenter"",""trial"":1,""time"":3033}]",NA,NA,NA,NA,NA,2,#3386FF,#D89F1C,0,0,0,38,1,1490.9999999998836,37,1,963,0,0,experiment,NA,NA,2,0.5,0.5,5,4,114,3,NA
fcp-trial,163,831084,0.0-124.0-0.0,voc_e2,12108,"[{""event"":""fullscreenenter"",""trial"":1,""time"":3033}]",NA,NA,NA,NA,NA,0,#3386FF,#D89F1C,0,10,0,38,1,831,37,1,999,0,0,experiment,NA,NA,2,0.5,0.5,5,4,115,3,NA
fcp-trial,164,833929,0.0-125.0-0.0,voc_e2,12108,"[{""event"":""fullscreenenter"",""trial"":1,""time"":3033}]",NA,NA,NA,NA,NA,1,#741CD8,#D8271C,10,10,0,38,1,989,39,0,348,10,1,experiment,NA,NA,0,0.1,0.9,1,0,116,3,NA
fcp-trial,165,838211,0.0-126.0-0.0,voc_e2,12108,"[{""event"":""fullscreenenter"",""trial"":1,""time"":3033}]",NA,NA,NA,NA,NA,3,#1CD855,#FA92F8,0,10,1,38,1,2256.9999999998836,37,1,516.0000000001164,0,1,experiment,NA,NA,1,0.7,0.3,2,3,117,3,NA
fcp-trial,166,841121,0.0-127.0-0.0,voc_e2,12108,"[{""event"":""fullscreenenter"",""trial"":1,""time"":3033}]",NA,NA,NA,NA,NA,4,#D8271C,#741CD8,10,0,1,38,1,894,37,1,484,10,1,experiment,NA,NA,0,0.9,0.1,0,1,118,3,NA
fcp-trial,167,844779,0.0-128.0-0.0,voc_e2,12108,"[{""event"":""fullscreenenter"",""trial"":1,""time"":3033}]",NA,NA,NA,NA,NA,5,#3386FF,#D89F1C,0,0,0,40,0,1611,39,0,539,0,1,experiment,NA,NA,2,0.5,0.5,5,4,119,3,NA
fcp-trial,168,849781,0.0-129.0-0.0,voc_e2,12108,"[{""event"":""fullscreenenter"",""trial"":1,""time"":3033}]",NA,NA,NA,NA,NA,4,#D89F1C,#3386FF,10,10,1,38,1,3083,39,0,410,10,0,experiment,NA,NA,2,0.5,0.5,4,5,120,3,NA
fcp-trial,169,853281,0.0-130.0-0.0,voc_e2,12108,"[{""event"":""fullscreenenter"",""trial"":1,""time"":3033}]",NA,NA,NA,NA,NA,6,#1CD855,#FA92F8,10,0,1,40,0,1230,37,1,760,10,1,experiment,NA,NA,1,0.7,0.3,2,3,121,3,NA
fcp-trial,170,856158,0.0-131.0-0.0,voc_e2,12108,"[{""event"":""fullscreenenter"",""trial"":1,""time"":3033}]",NA,NA,NA,NA,NA,5,#D8271C,#741CD8,10,0,1,38,1,754,37,1,614,10,1,experiment,NA,NA,0,0.9,0.1,0,1,122,3,NA
fcp-trial,171,859988,0.0-132.0-0.0,voc_e2,12108,"[{""event"":""fullscreenenter"",""trial"":1,""time"":3033}]",NA,NA,NA,NA,NA,2,#FA92F8,#1CD855,0,10,0,38,1,1459,37,1,863,0,0,experiment,NA,NA,1,0.3,0.7,3,2,123,3,NA
fcp-trial,172,863701,0.0-133.0-0.0,voc_e2,12108,"[{""event"":""fullscreenenter"",""trial"":1,""time"":3033}]",NA,NA,NA,NA,NA,1,#D89F1C,#3386FF,10,10,1,40,0,1546,37,1,659,10,1,experiment,NA,NA,2,0.5,0.5,4,5,124,3,NA
fcp-trial,173,866605,0.0-134.0-0.0,voc_e2,12108,"[{""event"":""fullscreenenter"",""trial"":1,""time"":3033}]",NA,NA,NA,NA,NA,6,#741CD8,#D8271C,0,10,0,38,1,964.9999999998836,39,0,428.9999999998836,10,1,experiment,NA,NA,0,0.1,0.9,1,0,125,3,NA
fcp-trial,174,870198,0.0-135.0-0.0,voc_e2,12108,"[{""event"":""fullscreenenter"",""trial"":1,""time"":3033}]",NA,NA,NA,NA,NA,2,#741CD8,#D8271C,0,10,0,38,1,1520.0000000001164,39,0,564.9999999998836,10,1,experiment,NA,NA,0,0.1,0.9,1,0,126,3,NA
fcp-trial,175,874079,0.0-136.0-0.0,voc_e2,12108,"[{""event"":""fullscreenenter"",""trial"":1,""time"":3033}]",NA,NA,NA,NA,NA,0,#3386FF,#D89F1C,10,0,0,40,0,1873.0000000001164,39,0,499.0000000001164,0,1,experiment,NA,NA,2,0.5,0.5,5,4,127,3,NA
fcp-trial,176,879561,0.0-137.0-0.0,voc_e2,12108,"[{""event"":""fullscreenenter"",""trial"":1,""time"":3033}]",NA,NA,NA,NA,NA,3,#1CD855,#FA92F8,10,10,1,40,0,3504,39,0,469,10,0,experiment,NA,NA,1,0.7,0.3,2,3,128,3,NA
fcp-trial,177,883212,0.0-138.0-0.0,voc_e2,12108,"[{""event"":""fullscreenenter"",""trial"":1,""time"":3033}]",NA,NA,NA,NA,NA,2,#3386FF,#D89F1C,10,10,0,40,0,1405,37,1,734.9999999998836,10,0,experiment,NA,NA,2,0.5,0.5,5,4,129,3,NA
fcp-trial,178,886395,0.0-139.0-0.0,voc_e2,12108,"[{""event"":""fullscreenenter"",""trial"":1,""time"":3033}]",NA,NA,NA,NA,NA,3,#D89F1C,#3386FF,0,0,1,38,1,1236,39,0,438,0,0,experiment,NA,NA,2,0.5,0.5,4,5,130,3,NA
fcp-trial,179,889302,0.0-140.0-0.0,voc_e2,12108,"[{""event"":""fullscreenenter"",""trial"":1,""time"":3033}]",NA,NA,NA,NA,NA,6,#D8271C,#741CD8,10,0,1,38,1,743.9999999998836,37,1,631.9999999998836,10,1,experiment,NA,NA,0,0.9,0.1,0,1,131,3,NA
fcp-trial,180,892596,0.0-141.0-0.0,voc_e2,12108,"[{""event"":""fullscreenenter"",""trial"":1,""time"":3033}]",NA,NA,NA,NA,NA,5,#D89F1C,#3386FF,10,0,1,40,0,1256.9999999998836,37,1,529,10,1,experiment,NA,NA,2,0.5,0.5,4,5,132,3,NA
fcp-trial,181,896245,0.0-142.0-0.0,voc_e2,12108,"[{""event"":""fullscreenenter"",""trial"":1,""time"":3033}]",NA,NA,NA,NA,NA,2,#1CD855,#FA92F8,10,10,1,40,0,1475,37,1,666,10,1,experiment,NA,NA,1,0.7,0.3,2,3,133,3,NA
fcp-trial,182,899330,0.0-143.0-0.0,voc_e2,12108,"[{""event"":""fullscreenenter"",""trial"":1,""time"":3033}]",NA,NA,NA,NA,NA,4,#D89F1C,#3386FF,0,0,1,40,0,983,39,0,594,0,0,experiment,NA,NA,2,0.5,0.5,4,5,134,3,NA
fcp-trial,183,903589,0.0-144.0-0.0,voc_e2,12108,"[{""event"":""fullscreenenter"",""trial"":1,""time"":3033}]",NA,NA,NA,NA,NA,5,#1CD855,#FA92F8,10,0,1,40,0,2202,39,0,548,0,0,experiment,NA,NA,1,0.7,0.3,2,3,135,3,NA
fcp-trial,184,906261,0.0-145.0-0.0,voc_e2,12108,"[{""event"":""fullscreenenter"",""trial"":1,""time"":3033}]",NA,NA,NA,NA,NA,0,#D8271C,#741CD8,10,0,1,38,1,612.9999999998836,37,1,551,10,1,experiment,NA,NA,0,0.9,0.1,0,1,136,4,NA
fcp-trial,185,910039,0.0-146.0-0.0,voc_e2,12108,"[{""event"":""fullscreenenter"",""trial"":1,""time"":3033}]",NA,NA,NA,NA,NA,6,#FA92F8,#1CD855,10,10,0,38,1,1405.9999999998836,37,1,864,10,0,experiment,NA,NA,1,0.3,0.7,3,2,137,4,NA
fcp-trial,186,914207,0.0-147.0-0.0,voc_e2,12108,"[{""event"":""fullscreenenter"",""trial"":1,""time"":3033}]",NA,NA,NA,NA,NA,1,#3386FF,#D89F1C,10,10,0,40,0,2186,39,0,473,10,1,experiment,NA,NA,2,0.5,0.5,5,4,138,4,NA
fcp-trial,187,917105,0.0-148.0-0.0,voc_e2,12108,"[{""event"":""fullscreenenter"",""trial"":1,""time"":3033}]",NA,NA,NA,NA,NA,1,#D8271C,#741CD8,10,0,1,38,1,814,37,1,553,10,1,experiment,NA,NA,0,0.9,0.1,0,1,139,4,NA
fcp-trial,188,920037,0.0-149.0-0.0,voc_e2,12108,"[{""event"":""fullscreenenter"",""trial"":1,""time"":3033}]",NA,NA,NA,NA,NA,3,#D8271C,#741CD8,10,0,1,38,1,876,37,1,524,10,1,experiment,NA,NA,0,0.9,0.1,0,1,140,4,NA
fcp-trial,189,923029,0.0-150.0-0.0,voc_e2,12108,"[{""event"":""fullscreenenter"",""trial"":1,""time"":3033}]",NA,NA,NA,NA,NA,5,#741CD8,#D8271C,0,10,0,38,1,1051,39,0,431.0000000001164,10,1,experiment,NA,NA,0,0.1,0.9,1,0,141,4,NA
fcp-trial,190,926729,0.0-151.0-0.0,voc_e2,12108,"[{""event"":""fullscreenenter"",""trial"":1,""time"":3033}]",NA,NA,NA,NA,NA,1,#1CD855,#FA92F8,10,0,1,40,0,1643,37,1,547,10,1,experiment,NA,NA,1,0.7,0.3,2,3,142,4,NA
fcp-trial,191,929706,0.0-152.0-0.0,voc_e2,12108,"[{""event"":""fullscreenenter"",""trial"":1,""time"":3033}]",NA,NA,NA,NA,NA,6,#D89F1C,#3386FF,0,0,1,40,0,950,39,0,497,0,0,experiment,NA,NA,2,0.5,0.5,4,5,143,4,NA
fcp-trial,192,933606,0.0-153.0-0.0,voc_e2,12108,"[{""event"":""fullscreenenter"",""trial"":1,""time"":3033}]",NA,NA,NA,NA,NA,0,#FA92F8,#1CD855,0,10,0,40,0,1931,39,0,461,10,1,experiment,NA,NA,1,0.3,0.7,3,2,144,4,NA
fcp-trial,193,936588,0.0-154.0-0.0,voc_e2,12108,"[{""event"":""fullscreenenter"",""trial"":1,""time"":3033}]",NA,NA,NA,NA,NA,4,#1CD855,#FA92F8,10,0,1,38,1,1053.9999999998836,37,1,418,10,1,experiment,NA,NA,1,0.7,0.3,2,3,145,4,NA
fcp-trial,194,939437,0.0-155.0-0.0,voc_e2,12108,"[{""event"":""fullscreenenter"",""trial"":1,""time"":3033}]",NA,NA,NA,NA,NA,4,#741CD8,#D8271C,0,0,0,38,1,897.9999999998836,39,0,418.9999999998836,0,1,experiment,NA,NA,0,0.1,0.9,1,0,146,4,NA
fcp-trial,195,942150,0.0-156.0-0.0,voc_e2,12108,"[{""event"":""fullscreenenter"",""trial"":1,""time"":3033}]",NA,NA,NA,NA,NA,2,#D8271C,#741CD8,10,0,1,38,1,654,37,1,518,10,1,experiment,NA,NA,0,0.9,0.1,0,1,147,4,NA
fcp-trial,196,944840,0.0-157.0-0.0,voc_e2,12108,"[{""event"":""fullscreenenter"",""trial"":1,""time"":3033}]",NA,NA,NA,NA,NA,3,#D8271C,#741CD8,10,0,1,38,1,722,37,1,455,10,1,experiment,NA,NA,0,0.9,0.1,0,1,148,4,NA
fcp-trial,197,947822,0.0-158.0-0.0,voc_e2,12108,"[{""event"":""fullscreenenter"",""trial"":1,""time"":3033}]",NA,NA,NA,NA,NA,3,#3386FF,#D89F1C,10,10,0,40,0,860.9999999998836,37,1,612,10,0,experiment,NA,NA,2,0.5,0.5,5,4,149,4,NA
fcp-trial,198,950442,0.0-159.0-0.0,voc_e2,12108,"[{""event"":""fullscreenenter"",""trial"":1,""time"":3033}]",NA,NA,NA,NA,NA,4,#3386FF,#D89F1C,10,0,0,38,1,743.0000000001164,37,1,366,10,0,experiment,NA,NA,2,0.5,0.5,5,4,150,4,NA
fcp-trial,199,953953,0.0-160.0-0.0,voc_e2,12108,"[{""event"":""fullscreenenter"",""trial"":1,""time"":3033}]",NA,NA,NA,NA,NA,0,#1CD855,#FA92F8,10,0,1,40,0,1454,37,1,549,10,1,experiment,NA,NA,1,0.7,0.3,2,3,151,4,NA
fcp-trial,200,956936,0.0-161.0-0.0,voc_e2,12108,"[{""event"":""fullscreenenter"",""trial"":1,""time"":3033}]",NA,NA,NA,NA,NA,2,#D89F1C,#3386FF,0,10,1,40,0,1010,39,0,464,10,0,experiment,NA,NA,2,0.5,0.5,4,5,152,4,NA
fcp-trial,201,959555,0.0-162.0-0.0,voc_e2,12108,"[{""event"":""fullscreenenter"",""trial"":1,""time"":3033}]",NA,NA,NA,NA,NA,0,#741CD8,#D8271C,0,10,0,38,1,675,39,0,433,10,1,experiment,NA,NA,0,0.1,0.9,1,0,153,4,NA
fcp-trial,202,962717,0.0-163.0-0.0,voc_e2,12108,"[{""event"":""fullscreenenter"",""trial"":1,""time"":3033}]",NA,NA,NA,NA,NA,5,#1CD855,#FA92F8,10,10,1,40,0,985,37,1,635,10,1,experiment,NA,NA,1,0.7,0.3,2,3,154,4,NA
fcp-trial,203,965604,0.0-164.0-0.0,voc_e2,12108,"[{""event"":""fullscreenenter"",""trial"":1,""time"":3033}]",NA,NA,NA,NA,NA,4,#1CD855,#FA92F8,10,0,1,38,1,1004,37,1,373,10,1,experiment,NA,NA,1,0.7,0.3,2,3,155,4,NA
fcp-trial,204,968393,0.0-165.0-0.0,voc_e2,12108,"[{""event"":""fullscreenenter"",""trial"":1,""time"":3033}]",NA,NA,NA,NA,NA,4,#D8271C,#741CD8,10,0,1,38,1,712,37,1,527,10,1,experiment,NA,NA,0,0.9,0.1,0,1,156,4,NA
fcp-trial,205,971689,0.0-166.0-0.0,voc_e2,12108,"[{""event"":""fullscreenenter"",""trial"":1,""time"":3033}]",NA,NA,NA,NA,NA,0,#3386FF,#D89F1C,10,0,0,40,0,1158.9999999998836,37,1,629,10,0,experiment,NA,NA,2,0.5,0.5,5,4,157,4,NA
fcp-trial,206,974959,0.0-167.0-0.0,voc_e2,12108,"[{""event"":""fullscreenenter"",""trial"":1,""time"":3033}]",NA,NA,NA,NA,NA,3,#FA92F8,#1CD855,10,0,0,40,0,1199.0000000001164,39,0,562,0,1,experiment,NA,NA,1,0.3,0.7,3,2,158,4,NA
fcp-trial,207,977826,0.0-168.0-0.0,voc_e2,12108,"[{""event"":""fullscreenenter"",""trial"":1,""time"":3033}]",NA,NA,NA,NA,NA,1,#1CD855,#FA92F8,10,0,1,38,1,1039,39,0,315.9999999998836,0,0,experiment,NA,NA,1,0.7,0.3,2,3,159,4,NA
fcp-trial,208,980341,0.0-169.0-0.0,voc_e2,12108,"[{""event"":""fullscreenenter"",""trial"":1,""time"":3033}]",NA,NA,NA,NA,NA,1,#D8271C,#741CD8,10,0,1,38,1,603.0000000001164,37,1,401,10,1,experiment,NA,NA,0,0.9,0.1,0,1,160,4,NA
fcp-trial,209,982903,0.0-170.0-0.0,voc_e2,12108,"[{""event"":""fullscreenenter"",""trial"":1,""time"":3033}]",NA,NA,NA,NA,NA,2,#741CD8,#D8271C,0,0,0,38,1,538,39,0,494,0,1,experiment,NA,NA,0,0.1,0.9,1,0,161,4,NA
fcp-trial,210,985895,0.0-171.0-0.0,voc_e2,12108,"[{""event"":""fullscreenenter"",""trial"":1,""time"":3033}]",NA,NA,NA,NA,NA,6,#D89F1C,#3386FF,0,10,1,40,0,987,39,0,496.0000000001164,10,0,experiment,NA,NA,2,0.5,0.5,4,5,162,4,NA
fcp-trial,211,988733,0.0-172.0-0.0,voc_e2,12108,"[{""event"":""fullscreenenter"",""trial"":1,""time"":3033}]",NA,NA,NA,NA,NA,5,#3386FF,#D89F1C,0,10,0,38,1,903,37,1,417,0,0,experiment,NA,NA,2,0.5,0.5,5,4,163,4,NA
fcp-trial,212,992108,0.0-173.0-0.0,voc_e2,12108,"[{""event"":""fullscreenenter"",""trial"":1,""time"":3033}]",NA,NA,NA,NA,NA,2,#1CD855,#FA92F8,0,0,1,40,0,1296.9999999998836,37,1,545.9999999998836,0,1,experiment,NA,NA,1,0.7,0.3,2,3,164,4,NA
fcp-trial,213,995654,0.0-174.0-0.0,voc_e2,12108,"[{""event"":""fullscreenenter"",""trial"":1,""time"":3033}]",NA,NA,NA,NA,NA,6,#FA92F8,#1CD855,10,10,0,38,1,1376.9999999998836,39,0,657,10,1,experiment,NA,NA,1,0.3,0.7,3,2,165,4,NA
fcp-trial,214,998293,0.0-175.0-0.0,voc_e2,12108,"[{""event"":""fullscreenenter"",""trial"":1,""time"":3033}]",NA,NA,NA,NA,NA,6,#741CD8,#D8271C,0,10,0,38,1,651.0000000001164,39,0,479.9999999998836,10,1,experiment,NA,NA,0,0.1,0.9,1,0,166,4,NA
fcp-trial,215,1001415,0.0-176.0-0.0,voc_e2,12108,"[{""event"":""fullscreenenter"",""trial"":1,""time"":3033}]",NA,NA,NA,NA,NA,1,#3386FF,#D89F1C,0,10,0,40,0,969,37,1,616,0,0,experiment,NA,NA,2,0.5,0.5,5,4,167,4,NA
fcp-trial,216,1004086,0.0-177.0-0.0,voc_e2,12108,"[{""event"":""fullscreenenter"",""trial"":1,""time"":3033}]",NA,NA,NA,NA,NA,5,#D8271C,#741CD8,10,0,1,38,1,668.9999999998836,37,1,493.0000000001164,10,1,experiment,NA,NA,0,0.9,0.1,0,1,168,4,NA
fcp-trial,217,1007251,0.0-178.0-0.0,voc_e2,12108,"[{""event"":""fullscreenenter"",""trial"":1,""time"":3033}]",NA,NA,NA,NA,NA,0,#1CD855,#FA92F8,10,10,1,40,0,1120.9999999998836,39,0,533,10,0,experiment,NA,NA,1,0.7,0.3,2,3,169,4,NA
fcp-trial,218,1010133,0.0-179.0-0.0,voc_e2,12108,"[{""event"":""fullscreenenter"",""trial"":1,""time"":3033}]",NA,NA,NA,NA,NA,3,#D8271C,#741CD8,10,0,1,38,1,863,37,1,510,10,1,experiment,NA,NA,0,0.9,0.1,0,1,170,4,NA
fcp-trial,219,1013120,0.0-180.0-0.0,voc_e2,12108,"[{""event"":""fullscreenenter"",""trial"":1,""time"":3033}]",NA,NA,NA,NA,NA,3,#3386FF,#D89F1C,10,0,0,40,0,892,39,0,584.0000000001164,0,1,experiment,NA,NA,2,0.5,0.5,5,4,171,4,NA
fcp-trial,220,1016377,0.0-181.0-0.0,voc_e2,12108,"[{""event"":""fullscreenenter"",""trial"":1,""time"":3033}]",NA,NA,NA,NA,NA,4,#1CD855,#FA92F8,0,0,1,40,0,1262.0000000001164,39,0,441,0,0,experiment,NA,NA,1,0.7,0.3,2,3,172,4,NA
fcp-trial,221,1019639,0.0-182.0-0.0,voc_e2,12108,"[{""event"":""fullscreenenter"",""trial"":1,""time"":3033}]",NA,NA,NA,NA,NA,6,#3386FF,#D89F1C,0,10,0,40,0,1156.9999999998836,37,1,595,0,0,experiment,NA,NA,2,0.5,0.5,5,4,173,4,NA
fcp-trial,222,1022276,0.0-183.0-0.0,voc_e2,12108,"[{""event"":""fullscreenenter"",""trial"":1,""time"":3033}]",NA,NA,NA,NA,NA,1,#D8271C,#741CD8,10,0,1,38,1,709,37,1,417.9999999998836,10,1,experiment,NA,NA,0,0.9,0.1,0,1,174,4,NA
fcp-trial,223,1025416,0.0-184.0-0.0,voc_e2,12108,"[{""event"":""fullscreenenter"",""trial"":1,""time"":3033}]",NA,NA,NA,NA,NA,2,#3386FF,#D89F1C,10,10,0,38,1,1256.0000000001164,37,1,369.9999999998836,10,0,experiment,NA,NA,2,0.5,0.5,5,4,175,4,NA
fcp-trial,224,1028104,0.0-185.0-0.0,voc_e2,12108,"[{""event"":""fullscreenenter"",""trial"":1,""time"":3033}]",NA,NA,NA,NA,NA,5,#741CD8,#D8271C,0,10,0,38,1,812.9999999998836,39,0,367,10,1,experiment,NA,NA,0,0.1,0.9,1,0,176,4,NA
fcp-trial,225,1031671,0.0-186.0-0.0,voc_e2,12108,"[{""event"":""fullscreenenter"",""trial"":1,""time"":3033}]",NA,NA,NA,NA,NA,6,#1CD855,#FA92F8,10,0,1,38,1,1420,37,1,638,10,1,experiment,NA,NA,1,0.7,0.3,2,3,177,4,NA
fcp-trial,226,1035115,0.0-187.0-0.0,voc_e2,12108,"[{""event"":""fullscreenenter"",""trial"":1,""time"":3033}]",NA,NA,NA,NA,NA,4,#D89F1C,#3386FF,10,10,1,40,0,1360.9999999998836,37,1,550.9999999998836,10,1,experiment,NA,NA,2,0.5,0.5,4,5,178,4,NA
fcp-trial,227,1037729,0.0-188.0-0.0,voc_e2,12108,"[{""event"":""fullscreenenter"",""trial"":1,""time"":3033}]",NA,NA,NA,NA,NA,4,#741CD8,#D8271C,0,10,0,38,1,640.0000000001164,39,0,464,10,1,experiment,NA,NA,0,0.1,0.9,1,0,179,4,NA
fcp-trial,228,1040644,0.0-189.0-0.0,voc_e2,12108,"[{""event"":""fullscreenenter"",""trial"":1,""time"":3033}]",NA,NA,NA,NA,NA,2,#1CD855,#FA92F8,10,10,1,38,1,1014,37,1,383.0000000002328,10,1,experiment,NA,NA,1,0.7,0.3,2,3,180,4,NA
fcp-trial,229,1043260,0.0-190.0-0.0,voc_e2,12108,"[{""event"":""fullscreenenter"",""trial"":1,""time"":3033}]",NA,NA,NA,NA,NA,5,#1CD855,#FA92F8,10,10,1,38,1,606,37,1,500,10,1,experiment,NA,NA,1,0.7,0.3,2,3,181,5,NA
fcp-trial,230,1045872,0.0-191.0-0.0,voc_e2,12108,"[{""event"":""fullscreenenter"",""trial"":1,""time"":3033}]",NA,NA,NA,NA,NA,2,#741CD8,#D8271C,0,10,0,38,1,660.9999999997672,39,0,441,10,1,experiment,NA,NA,0,0.1,0.9,1,0,182,5,NA
fcp-trial,231,1049452,0.0-192.0-0.0,voc_e2,12108,"[{""event"":""fullscreenenter"",""trial"":1,""time"":3033}]",NA,NA,NA,NA,NA,0,#3386FF,#D89F1C,0,0,0,38,1,1494.0000000002328,37,1,577.9999999997672,0,0,experiment,NA,NA,2,0.5,0.5,5,4,183,5,NA
fcp-trial,232,1052433,0.0-193.0-0.0,voc_e2,12108,"[{""event"":""fullscreenenter"",""trial"":1,""time"":3033}]",NA,NA,NA,NA,NA,3,#FA92F8,#1CD855,0,10,0,40,0,872.9999999997672,37,1,599,0,0,experiment,NA,NA,1,0.3,0.7,3,2,184,5,NA
fcp-trial,233,1056250,0.0-194.0-0.0,voc_e2,12108,"[{""event"":""fullscreenenter"",""trial"":1,""time"":3033}]",NA,NA,NA,NA,NA,1,#FA92F8,#1CD855,0,10,0,38,1,1881,39,0,427.0000000002328,10,1,experiment,NA,NA,1,0.3,0.7,3,2,185,5,NA
fcp-trial,234,1059281,0.0-195.0-0.0,voc_e2,12108,"[{""event"":""fullscreenenter"",""trial"":1,""time"":3033}]",NA,NA,NA,NA,NA,0,#741CD8,#D8271C,0,10,0,38,1,1057.9999999997672,39,0,462,10,1,experiment,NA,NA,0,0.1,0.9,1,0,186,5,NA
fcp-trial,235,1062314,0.0-196.0-0.0,voc_e2,12108,"[{""event"":""fullscreenenter"",""trial"":1,""time"":3033}]",NA,NA,NA,NA,NA,1,#3386FF,#D89F1C,10,10,0,38,1,990,37,1,533,10,0,experiment,NA,NA,2,0.5,0.5,5,4,187,5,NA
fcp-trial,236,1065108,0.0-197.0-0.0,voc_e2,12108,"[{""event"":""fullscreenenter"",""trial"":1,""time"":3033}]",NA,NA,NA,NA,NA,6,#D8271C,#741CD8,10,0,1,38,1,823,37,1,464,10,1,experiment,NA,NA,0,0.9,0.1,0,1,188,5,NA
fcp-trial,237,1068739,0.0-198.0-0.0,voc_e2,12108,"[{""event"":""fullscreenenter"",""trial"":1,""time"":3033}]",NA,NA,NA,NA,NA,5,#3386FF,#D89F1C,0,0,0,38,1,1727,37,1,394.9999999997672,0,0,experiment,NA,NA,2,0.5,0.5,5,4,189,5,NA
fcp-trial,238,1071458,0.0-199.0-0.0,voc_e2,12108,"[{""event"":""fullscreenenter"",""trial"":1,""time"":3033}]",NA,NA,NA,NA,NA,6,#1CD855,#FA92F8,10,0,1,38,1,889,39,0,321,0,0,experiment,NA,NA,1,0.7,0.3,2,3,190,5,NA
fcp-trial,239,1074447,0.0-200.0-0.0,voc_e2,12108,"[{""event"":""fullscreenenter"",""trial"":1,""time"":3033}]",NA,NA,NA,NA,NA,3,#1CD855,#FA92F8,10,0,1,40,0,966,39,0,495,0,0,experiment,NA,NA,1,0.7,0.3,2,3,191,5,NA
fcp-trial,240,1077004,0.0-201.0-0.0,voc_e2,12108,"[{""event"":""fullscreenenter"",""trial"":1,""time"":3033}]",NA,NA,NA,NA,NA,2,#741CD8,#D8271C,0,10,0,38,1,696.0000000002328,39,0,350,10,1,experiment,NA,NA,0,0.1,0.9,1,0,192,5,NA
fcp-trial,241,1080137,0.0-202.0-0.0,voc_e2,12108,"[{""event"":""fullscreenenter"",""trial"":1,""time"":3033}]",NA,NA,NA,NA,NA,2,#1CD855,#FA92F8,10,0,1,40,0,1053,37,1,568,10,1,experiment,NA,NA,1,0.7,0.3,2,3,193,5,NA
fcp-trial,242,1083166,0.0-203.0-0.0,voc_e2,12108,"[{""event"":""fullscreenenter"",""trial"":1,""time"":3033}]",NA,NA,NA,NA,NA,1,#FA92F8,#1CD855,10,10,0,38,1,1005.0000000002328,37,1,513,10,0,experiment,NA,NA,1,0.3,0.7,3,2,194,5,NA
fcp-trial,243,1086330,0.0-204.0-0.0,voc_e2,12108,"[{""event"":""fullscreenenter"",""trial"":1,""time"":3033}]",NA,NA,NA,NA,NA,6,#D89F1C,#3386FF,10,10,1,40,0,1179,39,0,475.9999999997672,10,0,experiment,NA,NA,2,0.5,0.5,4,5,195,5,NA
fcp-trial,244,1088969,0.0-205.0-0.0,voc_e2,12108,"[{""event"":""fullscreenenter"",""trial"":1,""time"":3033}]",NA,NA,NA,NA,NA,6,#D8271C,#741CD8,10,0,1,38,1,646,37,1,456,10,1,experiment,NA,NA,0,0.9,0.1,0,1,196,5,NA
fcp-trial,245,1092052,0.0-206.0-0.0,voc_e2,12108,"[{""event"":""fullscreenenter"",""trial"":1,""time"":3033}]",NA,NA,NA,NA,NA,3,#D89F1C,#3386FF,0,0,1,40,0,1051.9999999997672,37,1,519,0,1,experiment,NA,NA,2,0.5,0.5,4,5,197,5,NA
fcp-trial,246,1094507,0.0-207.0-0.0,voc_e2,12108,"[{""event"":""fullscreenenter"",""trial"":1,""time"":3033}]",NA,NA,NA,NA,NA,1,#741CD8,#D8271C,0,10,0,38,1,563,39,0,383,10,1,experiment,NA,NA,0,0.1,0.9,1,0,198,5,NA
fcp-trial,247,1097137,0.0-208.0-0.0,voc_e2,12108,"[{""event"":""fullscreenenter"",""trial"":1,""time"":3033}]",NA,NA,NA,NA,NA,0,#1CD855,#FA92F8,0,10,1,38,1,644,39,0,477,10,0,experiment,NA,NA,1,0.7,0.3,2,3,199,5,NA
fcp-trial,248,1100087,0.0-209.0-0.0,voc_e2,12108,"[{""event"":""fullscreenenter"",""trial"":1,""time"":3033}]",NA,NA,NA,NA,NA,0,#3386FF,#D89F1C,0,10,0,38,1,912,37,1,468,0,0,experiment,NA,NA,2,0.5,0.5,5,4,200,5,NA
fcp-trial,249,1102573,0.0-210.0-0.0,voc_e2,12108,"[{""event"":""fullscreenenter"",""trial"":1,""time"":3033}]",NA,NA,NA,NA,NA,4,#741CD8,#D8271C,0,10,0,38,1,616,39,0,337,10,1,experiment,NA,NA,0,0.1,0.9,1,0,201,5,NA
fcp-trial,250,1105599,0.0-211.0-0.0,voc_e2,12108,"[{""event"":""fullscreenenter"",""trial"":1,""time"":3033}]",NA,NA,NA,NA,NA,0,#D8271C,#741CD8,10,0,1,38,1,998,37,1,517,10,1,experiment,NA,NA,0,0.9,0.1,0,1,202,5,NA
fcp-trial,251,1109415,0.0-212.0-0.0,voc_e2,12108,"[{""event"":""fullscreenenter"",""trial"":1,""time"":3033}]",NA,NA,NA,NA,NA,1,#D89F1C,#3386FF,10,10,1,40,0,1740,39,0,565,10,0,experiment,NA,NA,2,0.5,0.5,4,5,203,5,NA
fcp-trial,252,1112812,0.0-213.0-0.0,voc_e2,12108,"[{""event"":""fullscreenenter"",""trial"":1,""time"":3033}]",NA,NA,NA,NA,NA,4,#1CD855,#FA92F8,0,10,1,40,0,1365,37,1,500,0,1,experiment,NA,NA,1,0.7,0.3,2,3,204,5,NA
fcp-trial,253,1115690,0.0-214.0-0.0,voc_e2,12108,"[{""event"":""fullscreenenter"",""trial"":1,""time"":3033}]",NA,NA,NA,NA,NA,5,#D8271C,#741CD8,10,0,1,38,1,899.9999999997672,37,1,447,10,1,experiment,NA,NA,0,0.9,0.1,0,1,205,5,NA
fcp-trial,254,1118659,0.0-215.0-0.0,voc_e2,12108,"[{""event"":""fullscreenenter"",""trial"":1,""time"":3033}]",NA,NA,NA,NA,NA,2,#3386FF,#D89F1C,10,10,0,38,1,1005,39,0,456,10,1,experiment,NA,NA,2,0.5,0.5,5,4,206,5,NA
fcp-trial,255,1121454,0.0-216.0-0.0,voc_e2,12108,"[{""event"":""fullscreenenter"",""trial"":1,""time"":3033}]",NA,NA,NA,NA,NA,3,#741CD8,#D8271C,0,10,0,38,1,745,39,0,518,10,1,experiment,NA,NA,0,0.1,0.9,1,0,207,5,NA
fcp-trial,256,1124335,0.0-217.0-0.0,voc_e2,12108,"[{""event"":""fullscreenenter"",""trial"":1,""time"":3033}]",NA,NA,NA,NA,NA,4,#3386FF,#D89F1C,10,10,0,38,1,869,39,0,501.9999999997672,10,1,experiment,NA,NA,2,0.5,0.5,5,4,208,5,NA
fcp-trial,257,1127832,0.0-218.0-0.0,voc_e2,12108,"[{""event"":""fullscreenenter"",""trial"":1,""time"":3033}]",NA,NA,NA,NA,NA,5,#FA92F8,#1CD855,0,0,0,38,1,1492,37,1,495,0,0,experiment,NA,NA,1,0.3,0.7,3,2,209,5,NA
fcp-trial,258,1130763,0.0-219.0-0.0,voc_e2,12108,"[{""event"":""fullscreenenter"",""trial"":1,""time"":3033}]",NA,NA,NA,NA,NA,5,#D89F1C,#3386FF,0,0,1,38,1,958,37,1,465,0,1,experiment,NA,NA,2,0.5,0.5,4,5,210,5,NA
audio-instructions,259,1142865,0.0-220.0,voc_e2,12108,"[{""event"":""fullscreenenter"",""trial"":1,""time"":3033}]",NA,7663,static/audio/pause.wav,NA,0,NA,NA,NA,NA,NA,NA,NA,NA,NA,NA,NA,NA,NA,NA,NA,NA,NA,NA,NA,NA,NA,NA,NA,NA,NA
fcp-trial,260,1146239,0.0-221.0-0.0,voc_e2,12108,"[{""event"":""fullscreenenter"",""trial"":1,""time"":3033}]",NA,NA,NA,NA,NA,1,#741CD8,#D8271C,0,10,0,38,1,1415,39,0,450,10,1,experiment,NA,NA,0,0.1,0.9,1,0,211,5,NA
fcp-trial,261,1149434,0.0-222.0-0.0,voc_e2,12108,"[{""event"":""fullscreenenter"",""trial"":1,""time"":3033}]",NA,NA,NA,NA,NA,2,#FA92F8,#1CD855,0,0,0,40,0,1118,37,1,567,0,0,experiment,NA,NA,1,0.3,0.7,3,2,212,5,NA
fcp-trial,262,1152933,0.0-223.0-0.0,voc_e2,12108,"[{""event"":""fullscreenenter"",""trial"":1,""time"":3033}]",NA,NA,NA,NA,NA,3,#FA92F8,#1CD855,0,0,0,38,1,1369,37,1,619,0,0,experiment,NA,NA,1,0.3,0.7,3,2,213,5,NA
fcp-trial,263,1155462,0.0-224.0-0.0,voc_e2,12108,"[{""event"":""fullscreenenter"",""trial"":1,""time"":3033}]",NA,NA,NA,NA,NA,2,#741CD8,#D8271C,0,10,0,38,1,654,39,0,365,10,1,experiment,NA,NA,0,0.1,0.9,1,0,214,5,NA
fcp-trial,264,1158540,0.0-225.0-0.0,voc_e2,12108,"[{""event"":""fullscreenenter"",""trial"":1,""time"":3033}]",NA,NA,NA,NA,NA,1,#FA92F8,#1CD855,0,0,0,40,0,1024.0000000002328,37,1,546.9999999997672,0,0,experiment,NA,NA,1,0.3,0.7,3,2,215,5,NA
fcp-trial,265,1161489,0.0-226.0-0.0,voc_e2,12108,"[{""event"":""fullscreenenter"",""trial"":1,""time"":3033}]",NA,NA,NA,NA,NA,0,#D89F1C,#3386FF,0,0,1,38,1,924,37,1,516,0,1,experiment,NA,NA,2,0.5,0.5,4,5,216,5,NA
fcp-trial,266,1164050,0.0-227.0-0.0,voc_e2,12108,"[{""event"":""fullscreenenter"",""trial"":1,""time"":3033}]",NA,NA,NA,NA,NA,4,#741CD8,#D8271C,0,10,0,38,1,642,39,0,406,10,1,experiment,NA,NA,0,0.1,0.9,1,0,217,5,NA
fcp-trial,267,1167236,0.0-228.0-0.0,voc_e2,12108,"[{""event"":""fullscreenenter"",""trial"":1,""time"":3033}]",NA,NA,NA,NA,NA,5,#1CD855,#FA92F8,10,0,1,40,0,995,37,1,683,10,1,experiment,NA,NA,1,0.7,0.3,2,3,218,5,NA
fcp-trial,268,1171130,0.0-229.0-0.0,voc_e2,12108,"[{""event"":""fullscreenenter"",""trial"":1,""time"":3033}]",NA,NA,NA,NA,NA,5,#3386FF,#D89F1C,0,10,0,40,0,1871.0000000002328,37,1,511,0,0,experiment,NA,NA,2,0.5,0.5,5,4,219,5,NA
fcp-trial,269,1173770,0.0-230.0-0.0,voc_e2,12108,"[{""event"":""fullscreenenter"",""trial"":1,""time"":3033}]",NA,NA,NA,NA,NA,6,#741CD8,#D8271C,0,10,0,38,1,714,39,0,418,10,1,experiment,NA,NA,0,0.1,0.9,1,0,220,5,NA
fcp-trial,270,1177230,0.0-231.0-0.0,voc_e2,12108,"[{""event"":""fullscreenenter"",""trial"":1,""time"":3033}]",NA,NA,NA,NA,NA,6,#D89F1C,#3386FF,0,10,1,38,1,1236,39,0,714,10,0,experiment,NA,NA,2,0.5,0.5,4,5,221,5,NA
fcp-trial,271,1179964,0.0-232.0-0.0,voc_e2,12108,"[{""event"":""fullscreenenter"",""trial"":1,""time"":3033}]",NA,NA,NA,NA,NA,1,#D89F1C,#3386FF,0,10,1,38,1,779,39,0,447.0000000002328,10,0,experiment,NA,NA,2,0.5,0.5,4,5,222,5,NA
fcp-trial,272,1183111,0.0-233.0-0.0,voc_e2,12108,"[{""event"":""fullscreenenter"",""trial"":1,""time"":3033}]",NA,NA,NA,NA,NA,6,#1CD855,#FA92F8,10,0,1,40,0,949.0000000002328,37,1,647,10,1,experiment,NA,NA,1,0.7,0.3,2,3,223,5,NA
fcp-trial,273,1186046,0.0-234.0-0.0,voc_e2,12108,"[{""event"":""fullscreenenter"",""trial"":1,""time"":3033}]",NA,NA,NA,NA,NA,0,#FA92F8,#1CD855,0,0,0,38,1,982,39,0,422,0,1,experiment,NA,NA,1,0.3,0.7,3,2,224,5,NA
fcp-trial,274,1188531,0.0-235.0-0.0,voc_e2,12108,"[{""event"":""fullscreenenter"",""trial"":1,""time"":3033}]",NA,NA,NA,NA,NA,0,#741CD8,#D8271C,0,10,0,38,1,563,39,0,389,10,1,experiment,NA,NA,0,0.1,0.9,1,0,225,5,NA
fcp-trial,275,1191238,0.0-236.0-0.0,voc_e2,12108,"[{""event"":""fullscreenenter"",""trial"":1,""time"":3033}]",NA,NA,NA,NA,NA,3,#D89F1C,#3386FF,10,0,1,38,1,814,39,0,384,0,0,experiment,NA,NA,2,0.5,0.5,4,5,226,6,NA
fcp-trial,276,1193821,0.0-237.0-0.0,voc_e2,12108,"[{""event"":""fullscreenenter"",""trial"":1,""time"":3033}]",NA,NA,NA,NA,NA,4,#D89F1C,#3386FF,0,10,1,38,1,603.9999999997672,37,1,446,0,1,experiment,NA,NA,2,0.5,0.5,4,5,227,6,NA
fcp-trial,277,1196787,0.0-238.0-0.0,voc_e2,12108,"[{""event"":""fullscreenenter"",""trial"":1,""time"":3033}]",NA,NA,NA,NA,NA,4,#1CD855,#FA92F8,0,0,1,40,0,910,37,1,524,0,1,experiment,NA,NA,1,0.7,0.3,2,3,228,6,NA
fcp-trial,278,1199865,0.0-239.0-0.0,voc_e2,12108,"[{""event"":""fullscreenenter"",""trial"":1,""time"":3033}]",NA,NA,NA,NA,NA,2,#D89F1C,#3386FF,0,0,1,40,0,1104,39,0,463,0,0,experiment,NA,NA,2,0.5,0.5,4,5,229,6,NA
fcp-trial,279,1202776,0.0-240.0-0.0,voc_e2,12108,"[{""event"":""fullscreenenter"",""trial"":1,""time"":3033}]",NA,NA,NA,NA,NA,5,#D8271C,#741CD8,10,0,1,38,1,924,37,1,478,10,1,experiment,NA,NA,0,0.9,0.1,0,1,230,6,NA
fcp-trial,280,1205841,0.0-241.0-0.0,voc_e2,12108,"[{""event"":""fullscreenenter"",""trial"":1,""time"":3033}]",NA,NA,NA,NA,NA,3,#741CD8,#D8271C,10,10,0,38,1,1074,39,0,482,10,1,experiment,NA,NA,0,0.1,0.9,1,0,231,6,NA
fcp-trial,281,1208642,0.0-242.0-0.0,voc_e2,12108,"[{""event"":""fullscreenenter"",""trial"":1,""time"":3033}]",NA,NA,NA,NA,NA,3,#3386FF,#D89F1C,0,0,0,38,1,891,39,0,400.9999999997672,0,1,experiment,NA,NA,2,0.5,0.5,5,4,232,6,NA
fcp-trial,282,1212318,0.0-243.0-0.0,voc_e2,12108,"[{""event"":""fullscreenenter"",""trial"":1,""time"":3033}]",NA,NA,NA,NA,NA,0,#1CD855,#FA92F8,0,10,1,40,0,1757,39,0,409.0000000002328,10,0,experiment,NA,NA,1,0.7,0.3,2,3,233,6,NA
fcp-trial,283,1216236,0.0-244.0-0.0,voc_e2,12108,"[{""event"":""fullscreenenter"",""trial"":1,""time"":3033}]",NA,NA,NA,NA,NA,6,#3386FF,#D89F1C,10,0,0,40,0,1894,37,1,515,10,0,experiment,NA,NA,2,0.5,0.5,5,4,234,6,NA
fcp-trial,284,1218883,0.0-245.0-0.0,voc_e2,12108,"[{""event"":""fullscreenenter"",""trial"":1,""time"":3033}]",NA,NA,NA,NA,NA,4,#3386FF,#D89F1C,10,10,0,38,1,640.0000000002328,37,1,497.9999999997672,10,0,experiment,NA,NA,2,0.5,0.5,5,4,235,6,NA
fcp-trial,285,1222107,0.0-246.0-0.0,voc_e2,12108,"[{""event"":""fullscreenenter"",""trial"":1,""time"":3033}]",NA,NA,NA,NA,NA,5,#741CD8,#D8271C,0,0,0,38,1,1294,39,0,419.0000000002328,0,1,experiment,NA,NA,0,0.1,0.9,1,0,236,6,NA
fcp-trial,286,1224945,0.0-247.0-0.0,voc_e2,12108,"[{""event"":""fullscreenenter"",""trial"":1,""time"":3033}]",NA,NA,NA,NA,NA,1,#D8271C,#741CD8,10,0,1,38,1,784.9999999997672,37,1,543,10,1,experiment,NA,NA,0,0.9,0.1,0,1,237,6,NA
fcp-trial,287,1227979,0.0-248.0-0.0,voc_e2,12108,"[{""event"":""fullscreenenter"",""trial"":1,""time"":3033}]",NA,NA,NA,NA,NA,6,#1CD855,#FA92F8,10,0,1,40,0,959,39,0,519,0,0,experiment,NA,NA,1,0.7,0.3,2,3,238,6,NA
fcp-trial,288,1231131,0.0-249.0-0.0,voc_e2,12108,"[{""event"":""fullscreenenter"",""trial"":1,""time"":3033}]",NA,NA,NA,NA,NA,1,#3386FF,#D89F1C,10,0,0,38,1,1242.0000000002328,37,1,399,10,0,experiment,NA,NA,2,0.5,0.5,5,4,239,6,NA
fcp-trial,289,1233675,0.0-250.0-0.0,voc_e2,12108,"[{""event"":""fullscreenenter"",""trial"":1,""time"":3033}]",NA,NA,NA,NA,NA,4,#741CD8,#D8271C,0,10,0,38,1,581,39,0,452,10,1,experiment,NA,NA,0,0.1,0.9,1,0,240,6,NA
fcp-trial,290,1237065,0.0-251.0-0.0,voc_e2,12108,"[{""event"":""fullscreenenter"",""trial"":1,""time"":3033}]",NA,NA,NA,NA,NA,5,#D89F1C,#3386FF,10,10,1,40,0,1270,37,1,610,10,1,experiment,NA,NA,2,0.5,0.5,4,5,241,6,NA
fcp-trial,291,1240619,0.0-252.0-0.0,voc_e2,12108,"[{""event"":""fullscreenenter"",""trial"":1,""time"":3033}]",NA,NA,NA,NA,NA,2,#FA92F8,#1CD855,10,10,0,40,0,1525,37,1,520,10,0,experiment,NA,NA,1,0.3,0.7,3,2,242,6,NA
fcp-trial,292,1244765,0.0-253.0-0.0,voc_e2,12108,"[{""event"":""fullscreenenter"",""trial"":1,""time"":3033}]",NA,NA,NA,NA,NA,0,#3386FF,#D89F1C,10,10,0,38,1,1789,37,1,847,10,0,experiment,NA,NA,2,0.5,0.5,5,4,243,6,NA
fcp-trial,293,1248029,0.0-254.0-0.0,voc_e2,12108,"[{""event"":""fullscreenenter"",""trial"":1,""time"":3033}]",NA,NA,NA,NA,NA,5,#1CD855,#FA92F8,0,0,1,40,0,1337,39,0,418,0,0,experiment,NA,NA,1,0.7,0.3,2,3,244,6,NA
fcp-trial,294,1250647,0.0-255.0-0.0,voc_e2,12108,"[{""event"":""fullscreenenter"",""trial"":1,""time"":3033}]",NA,NA,NA,NA,NA,2,#D8271C,#741CD8,10,0,1,38,1,573,37,1,537,10,1,experiment,NA,NA,0,0.9,0.1,0,1,245,6,NA
fcp-trial,295,1253959,0.0-256.0-0.0,voc_e2,12108,"[{""event"":""fullscreenenter"",""trial"":1,""time"":3033}]",NA,NA,NA,NA,NA,1,#FA92F8,#1CD855,10,0,0,38,1,962,39,0,820.0000000002328,0,1,experiment,NA,NA,1,0.3,0.7,3,2,246,6,NA
fcp-trial,296,1256539,0.0-257.0-0.0,voc_e2,12108,"[{""event"":""fullscreenenter"",""trial"":1,""time"":3033}]",NA,NA,NA,NA,NA,3,#1CD855,#FA92F8,0,10,1,38,1,653,39,0,417,10,0,experiment,NA,NA,1,0.7,0.3,2,3,247,6,NA
fcp-trial,297,1260055,0.0-258.0-0.0,voc_e2,12108,"[{""event"":""fullscreenenter"",""trial"":1,""time"":3033}]",NA,NA,NA,NA,NA,2,#D89F1C,#3386FF,10,0,1,38,1,1588,39,0,418.0000000002328,0,0,experiment,NA,NA,2,0.5,0.5,4,5,248,6,NA
fcp-trial,298,1262537,0.0-259.0-0.0,voc_e2,12108,"[{""event"":""fullscreenenter"",""trial"":1,""time"":3033}]",NA,NA,NA,NA,NA,6,#741CD8,#D8271C,0,10,0,38,1,561,39,0,411,10,1,experiment,NA,NA,0,0.1,0.9,1,0,249,6,NA
fcp-trial,299,1265134,0.0-260.0-0.0,voc_e2,12108,"[{""event"":""fullscreenenter"",""trial"":1,""time"":3033}]",NA,NA,NA,NA,NA,3,#741CD8,#D8271C,0,10,0,38,1,664,39,0,402,10,1,experiment,NA,NA,0,0.1,0.9,1,0,250,6,NA
fcp-trial,300,1267734,0.0-261.0-0.0,voc_e2,12108,"[{""event"":""fullscreenenter"",""trial"":1,""time"":3033}]",NA,NA,NA,NA,NA,0,#741CD8,#D8271C,10,0,0,38,1,690,39,0,400.9999999997672,0,1,experiment,NA,NA,0,0.1,0.9,1,0,251,6,NA
fcp-trial,301,1271073,0.0-262.0-0.0,voc_e2,12108,"[{""event"":""fullscreenenter"",""trial"":1,""time"":3033}]",NA,NA,NA,NA,NA,4,#1CD855,#FA92F8,0,0,1,40,0,1297,37,1,513,0,1,experiment,NA,NA,1,0.7,0.3,2,3,252,6,NA
fcp-trial,302,1274747,0.0-263.0-0.0,voc_e2,12108,"[{""event"":""fullscreenenter"",""trial"":1,""time"":3033}]",NA,NA,NA,NA,NA,1,#1CD855,#FA92F8,10,0,1,38,1,1693,37,1,472,10,1,experiment,NA,NA,1,0.7,0.3,2,3,253,6,NA
fcp-trial,303,1277760,0.0-264.0-0.0,voc_e2,12108,"[{""event"":""fullscreenenter"",""trial"":1,""time"":3033}]",NA,NA,NA,NA,NA,4,#1CD855,#FA92F8,10,0,1,40,0,1082.9999999997672,37,1,420,10,1,experiment,NA,NA,1,0.7,0.3,2,3,254,6,NA
fcp-trial,304,1280937,0.0-265.0-0.0,voc_e2,12108,"[{""event"":""fullscreenenter"",""trial"":1,""time"":3033}]",NA,NA,NA,NA,NA,2,#D89F1C,#3386FF,0,0,1,38,1,1058,39,0,564.9999999997672,0,0,experiment,NA,NA,2,0.5,0.5,4,5,255,6,NA
fcp-trial,305,1283538,0.0-266.0-0.0,voc_e2,12108,"[{""event"":""fullscreenenter"",""trial"":1,""time"":3033}]",NA,NA,NA,NA,NA,4,#741CD8,#D8271C,0,0,0,38,1,723,39,0,368,0,1,experiment,NA,NA,0,0.1,0.9,1,0,256,6,NA
fcp-trial,306,1287128,0.0-267.0-0.0,voc_e2,12108,"[{""event"":""fullscreenenter"",""trial"":1,""time"":3033}]",NA,NA,NA,NA,NA,5,#3386FF,#D89F1C,10,10,0,40,0,1622,39,0,461,10,1,experiment,NA,NA,2,0.5,0.5,5,4,257,6,NA
fcp-trial,307,1290914,0.0-268.0-0.0,voc_e2,12108,"[{""event"":""fullscreenenter"",""trial"":1,""time"":3033}]",NA,NA,NA,NA,NA,0,#1CD855,#FA92F8,0,0,1,38,1,1475,37,1,797,0,1,experiment,NA,NA,1,0.7,0.3,2,3,258,6,NA
fcp-trial,308,1293888,0.0-269.0-0.0,voc_e2,12108,"[{""event"":""fullscreenenter"",""trial"":1,""time"":3033}]",NA,NA,NA,NA,NA,3,#1CD855,#FA92F8,0,10,1,38,1,872,37,1,590,0,1,experiment,NA,NA,1,0.7,0.3,2,3,259,6,NA
fcp-trial,309,1296678,0.0-270.0-0.0,voc_e2,12108,"[{""event"":""fullscreenenter"",""trial"":1,""time"":3033}]",NA,NA,NA,NA,NA,5,#D8271C,#741CD8,10,0,1,38,1,887,37,1,395,10,1,experiment,NA,NA,0,0.9,0.1,0,1,260,6,NA
fcp-trial,310,1299790,0.0-271.0-0.0,voc_e2,12108,"[{""event"":""fullscreenenter"",""trial"":1,""time"":3033}]",NA,NA,NA,NA,NA,1,#D8271C,#741CD8,10,10,1,38,1,1080,37,1,516.9999999997672,10,1,experiment,NA,NA,0,0.9,0.1,0,1,261,6,NA
fcp-trial,311,1303258,0.0-272.0-0.0,voc_e2,12108,"[{""event"":""fullscreenenter"",""trial"":1,""time"":3033}]",NA,NA,NA,NA,NA,0,#3386FF,#D89F1C,0,0,0,40,0,1424,37,1,535,0,0,experiment,NA,NA,2,0.5,0.5,5,4,262,6,NA
fcp-trial,312,1306340,0.0-273.0-0.0,voc_e2,12108,"[{""event"":""fullscreenenter"",""trial"":1,""time"":3033}]",NA,NA,NA,NA,NA,2,#741CD8,#D8271C,10,10,0,38,1,1202,39,0,370,10,1,experiment,NA,NA,0,0.1,0.9,1,0,263,6,NA
fcp-trial,313,1309837,0.0-274.0-0.0,voc_e2,12108,"[{""event"":""fullscreenenter"",""trial"":1,""time"":3033}]",NA,NA,NA,NA,NA,2,#1CD855,#FA92F8,10,0,1,38,1,1412.0000000002328,37,1,550,10,1,experiment,NA,NA,1,0.7,0.3,2,3,264,6,NA
fcp-trial,314,1313141,0.0-275.0-0.0,voc_e2,12108,"[{""event"":""fullscreenenter"",""trial"":1,""time"":3033}]",NA,NA,NA,NA,NA,6,#3386FF,#D89F1C,0,0,0,40,0,1306,39,0,466,0,1,experiment,NA,NA,2,0.5,0.5,5,4,265,6,NA
fcp-trial,315,1316391,0.0-276.0-0.0,voc_e2,12108,"[{""event"":""fullscreenenter"",""trial"":1,""time"":3033}]",NA,NA,NA,NA,NA,4,#3386FF,#D89F1C,10,10,0,40,0,1163,37,1,578,10,0,experiment,NA,NA,2,0.5,0.5,5,4,266,6,NA
fcp-trial,316,1319806,0.0-277.0-0.0,voc_e2,12108,"[{""event"":""fullscreenenter"",""trial"":1,""time"":3033}]",NA,NA,NA,NA,NA,6,#1CD855,#FA92F8,10,0,1,40,0,1424,39,0,482,0,0,experiment,NA,NA,1,0.7,0.3,2,3,267,6,NA
fcp-trial,317,1322396,0.0-278.0-0.0,voc_e2,12108,"[{""event"":""fullscreenenter"",""trial"":1,""time"":3033}]",NA,NA,NA,NA,NA,6,#741CD8,#D8271C,0,10,0,38,1,665,39,0,414,10,1,experiment,NA,NA,0,0.1,0.9,1,0,268,6,NA
fcp-trial,318,1325056,0.0-279.0-0.0,voc_e2,12108,"[{""event"":""fullscreenenter"",""trial"":1,""time"":3033}]",NA,NA,NA,NA,NA,0,#741CD8,#D8271C,0,10,0,38,1,664.9999999997672,39,0,464,10,1,experiment,NA,NA,0,0.1,0.9,1,0,269,6,NA
fcp-trial,319,1328015,0.0-280.0-0.0,voc_e2,12108,"[{""event"":""fullscreenenter"",""trial"":1,""time"":3033}]",NA,NA,NA,NA,NA,5,#1CD855,#FA92F8,10,0,1,38,1,1055,37,1,390,10,1,experiment,NA,NA,1,0.7,0.3,2,3,270,6,NA
fcp-trial,320,1330687,0.0-281.0-0.0,voc_e2,12108,"[{""event"":""fullscreenenter"",""trial"":1,""time"":3033}]",NA,NA,NA,NA,NA,1,#D89F1C,#3386FF,10,0,1,38,1,732,39,0,432,0,0,experiment,NA,NA,2,0.5,0.5,4,5,271,7,NA
fcp-trial,321,1333713,0.0-282.0-0.0,voc_e2,12108,"[{""event"":""fullscreenenter"",""trial"":1,""time"":3033}]",NA,NA,NA,NA,NA,3,#3386FF,#D89F1C,10,10,0,40,0,954.9999999997672,39,0,562,10,1,experiment,NA,NA,2,0.5,0.5,5,4,272,7,NA
fcp-trial,322,1336366,0.0-283.0-0.0,voc_e2,12108,"[{""event"":""fullscreenenter"",""trial"":1,""time"":3033}]",NA,NA,NA,NA,NA,3,#741CD8,#D8271C,0,10,0,38,1,678,39,0,467,10,1,experiment,NA,NA,0,0.1,0.9,1,0,273,7,NA
fcp-trial,323,1339007,0.0-284.0-0.0,voc_e2,12108,"[{""event"":""fullscreenenter"",""trial"":1,""time"":3033}]",NA,NA,NA,NA,NA,3,#D8271C,#741CD8,10,0,1,38,1,638,37,1,491.9999999997672,10,1,experiment,NA,NA,0,0.9,0.1,0,1,274,7,NA
fcp-trial,324,1341612,0.0-285.0-0.0,voc_e2,12108,"[{""event"":""fullscreenenter"",""trial"":1,""time"":3033}]",NA,NA,NA,NA,NA,5,#741CD8,#D8271C,0,10,0,38,1,645,39,0,450,10,1,experiment,NA,NA,0,0.1,0.9,1,0,275,7,NA
fcp-trial,325,1344563,0.0-286.0-0.0,voc_e2,12108,"[{""event"":""fullscreenenter"",""trial"":1,""time"":3033}]",NA,NA,NA,NA,NA,0,#3386FF,#D89F1C,10,0,0,40,0,939.9999999997672,39,0,504,0,1,experiment,NA,NA,2,0.5,0.5,5,4,276,7,NA
fcp-trial,326,1347124,0.0-287.0-0.0,voc_e2,12108,"[{""event"":""fullscreenenter"",""trial"":1,""time"":3033}]",NA,NA,NA,NA,NA,3,#D89F1C,#3386FF,0,10,1,38,1,547,39,0,484,10,0,experiment,NA,NA,2,0.5,0.5,4,5,277,7,NA
fcp-trial,327,1349874,0.0-288.0-0.0,voc_e2,12108,"[{""event"":""fullscreenenter"",""trial"":1,""time"":3033}]",NA,NA,NA,NA,NA,2,#1CD855,#FA92F8,10,10,1,38,1,862,37,1,369,10,1,experiment,NA,NA,1,0.7,0.3,2,3,278,7,NA
fcp-trial,328,1352770,0.0-289.0-0.0,voc_e2,12108,"[{""event"":""fullscreenenter"",""trial"":1,""time"":3033}]",NA,NA,NA,NA,NA,0,#741CD8,#D8271C,0,10,0,38,1,869,39,0,495,10,1,experiment,NA,NA,0,0.1,0.9,1,0,279,7,NA
fcp-trial,329,1355718,0.0-290.0-0.0,voc_e2,12108,"[{""event"":""fullscreenenter"",""trial"":1,""time"":3033}]",NA,NA,NA,NA,NA,0,#1CD855,#FA92F8,10,10,1,40,0,927,37,1,511,10,1,experiment,NA,NA,1,0.7,0.3,2,3,280,7,NA
fcp-trial,330,1358522,0.0-291.0-0.0,voc_e2,12108,"[{""event"":""fullscreenenter"",""trial"":1,""time"":3033}]",NA,NA,NA,NA,NA,2,#3386FF,#D89F1C,10,10,0,40,0,874,39,0,420,10,1,experiment,NA,NA,2,0.5,0.5,5,4,281,7,NA
fcp-trial,331,1361250,0.0-292.0-0.0,voc_e2,12108,"[{""event"":""fullscreenenter"",""trial"":1,""time"":3033}]",NA,NA,NA,NA,NA,6,#D8271C,#741CD8,10,0,1,38,1,746,37,1,435,10,1,experiment,NA,NA,0,0.9,0.1,0,1,282,7,NA
fcp-trial,332,1364411,0.0-293.0-0.0,voc_e2,12108,"[{""event"":""fullscreenenter"",""trial"":1,""time"":3033}]",NA,NA,NA,NA,NA,6,#D89F1C,#3386FF,0,10,1,40,0,1139,37,1,468,0,1,experiment,NA,NA,2,0.5,0.5,4,5,283,7,NA
fcp-trial,333,1367108,0.0-294.0-0.0,voc_e2,12108,"[{""event"":""fullscreenenter"",""trial"":1,""time"":3033}]",NA,NA,NA,NA,NA,3,#1CD855,#FA92F8,0,0,1,38,1,729,39,0,460,0,0,experiment,NA,NA,1,0.7,0.3,2,3,284,7,NA
fcp-trial,334,1369940,0.0-295.0-0.0,voc_e2,12108,"[{""event"":""fullscreenenter"",""trial"":1,""time"":3033}]",NA,NA,NA,NA,NA,1,#741CD8,#D8271C,0,10,0,38,1,942,39,0,382,10,1,experiment,NA,NA,0,0.1,0.9,1,0,285,7,NA
fcp-trial,335,1372623,0.0-296.0-0.0,voc_e2,12108,"[{""event"":""fullscreenenter"",""trial"":1,""time"":3033}]",NA,NA,NA,NA,NA,4,#D89F1C,#3386FF,0,0,1,38,1,805,37,1,368,0,1,experiment,NA,NA,2,0.5,0.5,4,5,286,7,NA
fcp-trial,336,1375588,0.0-297.0-0.0,voc_e2,12108,"[{""event"":""fullscreenenter"",""trial"":1,""time"":3033}]",NA,NA,NA,NA,NA,6,#FA92F8,#1CD855,0,10,0,40,0,884,37,1,570.0000000002328,0,0,experiment,NA,NA,1,0.3,0.7,3,2,287,7,NA
fcp-trial,337,1378220,0.0-298.0-0.0,voc_e2,12108,"[{""event"":""fullscreenenter"",""trial"":1,""time"":3033}]",NA,NA,NA,NA,NA,5,#1CD855,#FA92F8,0,10,1,38,1,755,37,1,366,0,1,experiment,NA,NA,1,0.7,0.3,2,3,288,7,NA
fcp-trial,338,1381200,0.0-299.0-0.0,voc_e2,12108,"[{""event"":""fullscreenenter"",""trial"":1,""time"":3033}]",NA,NA,NA,NA,NA,1,#D89F1C,#3386FF,10,10,1,38,1,841,39,0,630,10,0,experiment,NA,NA,2,0.5,0.5,4,5,289,7,NA
fcp-trial,339,1383849,0.0-300.0-0.0,voc_e2,12108,"[{""event"":""fullscreenenter"",""trial"":1,""time"":3033}]",NA,NA,NA,NA,NA,2,#D8271C,#741CD8,10,0,1,38,1,663,37,1,477,10,1,experiment,NA,NA,0,0.9,0.1,0,1,290,7,NA
fcp-trial,340,1386450,0.0-301.0-0.0,voc_e2,12108,"[{""event"":""fullscreenenter"",""trial"":1,""time"":3033}]",NA,NA,NA,NA,NA,4,#741CD8,#D8271C,0,10,0,38,1,627.9999999997672,39,0,465,10,1,experiment,NA,NA,0,0.1,0.9,1,0,291,7,NA
fcp-trial,341,1389367,0.0-302.0-0.0,voc_e2,12108,"[{""event"":""fullscreenenter"",""trial"":1,""time"":3033}]",NA,NA,NA,NA,NA,4,#1CD855,#FA92F8,0,0,1,40,0,843,39,0,542,0,0,experiment,NA,NA,1,0.7,0.3,2,3,292,7,NA
fcp-trial,342,1392319,0.0-303.0-0.0,voc_e2,12108,"[{""event"":""fullscreenenter"",""trial"":1,""time"":3033}]",NA,NA,NA,NA,NA,1,#1CD855,#FA92F8,0,10,1,40,0,898,37,1,519,0,1,experiment,NA,NA,1,0.7,0.3,2,3,293,7,NA
fcp-trial,343,1395505,0.0-304.0-0.0,voc_e2,12108,"[{""event"":""fullscreenenter"",""trial"":1,""time"":3033}]",NA,NA,NA,NA,NA,5,#3386FF,#D89F1C,0,0,0,40,0,1152.9999999997672,37,1,525,0,0,experiment,NA,NA,2,0.5,0.5,5,4,294,7,NA
fcp-trial,344,1398402,0.0-305.0-0.0,voc_e2,12108,"[{""event"":""fullscreenenter"",""trial"":1,""time"":3033}]",NA,NA,NA,NA,NA,4,#FA92F8,#1CD855,10,10,0,40,0,938,39,0,449,10,1,experiment,NA,NA,1,0.3,0.7,3,2,295,7,NA
fcp-trial,345,1401037,0.0-306.0-0.0,voc_e2,12108,"[{""event"":""fullscreenenter"",""trial"":1,""time"":3033}]",NA,NA,NA,NA,NA,6,#741CD8,#D8271C,0,10,0,38,1,778,39,0,347,10,1,experiment,NA,NA,0,0.1,0.9,1,0,296,7,NA
fcp-trial,346,1403770,0.0-307.0-0.0,voc_e2,12108,"[{""event"":""fullscreenenter"",""trial"":1,""time"":3033}]",NA,NA,NA,NA,NA,0,#FA92F8,#1CD855,10,0,0,40,0,738,39,0,484,0,1,experiment,NA,NA,1,0.3,0.7,3,2,297,7,NA
fcp-trial,347,1407019,0.0-308.0-0.0,voc_e2,12108,"[{""event"":""fullscreenenter"",""trial"":1,""time"":3033}]",NA,NA,NA,NA,NA,1,#3386FF,#D89F1C,10,0,0,40,0,1165,37,1,551,10,0,experiment,NA,NA,2,0.5,0.5,5,4,298,7,NA
fcp-trial,348,1410395,0.0-309.0-0.0,voc_e2,12108,"[{""event"":""fullscreenenter"",""trial"":1,""time"":3033}]",NA,NA,NA,NA,NA,5,#D89F1C,#3386FF,10,0,1,38,1,1496,39,0,349,0,0,experiment,NA,NA,2,0.5,0.5,4,5,299,7,NA
fcp-trial,349,1413648,0.0-310.0-0.0,voc_e2,12108,"[{""event"":""fullscreenenter"",""trial"":1,""time"":3033}]",NA,NA,NA,NA,NA,6,#D89F1C,#3386FF,10,0,1,38,1,1376.9999999997672,37,1,368,10,1,experiment,NA,NA,2,0.5,0.5,4,5,300,7,NA
fcp-trial,350,1416422,0.0-311.0-0.0,voc_e2,12108,"[{""event"":""fullscreenenter"",""trial"":1,""time"":3033}]",NA,NA,NA,NA,NA,2,#D8271C,#741CD8,10,0,1,38,1,762.0000000002328,37,1,480.9999999997672,10,1,experiment,NA,NA,0,0.9,0.1,0,1,301,7,NA
fcp-trial,351,1419391,0.0-312.0-0.0,voc_e2,12108,"[{""event"":""fullscreenenter"",""trial"":1,""time"":3033}]",NA,NA,NA,NA,NA,5,#FA92F8,#1CD855,0,0,0,40,0,947,37,1,512,0,0,experiment,NA,NA,1,0.3,0.7,3,2,302,7,NA
fcp-trial,352,1422985,0.0-313.0-0.0,voc_e2,12108,"[{""event"":""fullscreenenter"",""trial"":1,""time"":3033}]",NA,NA,NA,NA,NA,3,#D89F1C,#3386FF,0,0,1,38,1,670,39,0,1416,0,0,experiment,NA,NA,2,0.5,0.5,4,5,303,7,NA
fcp-trial,353,1425531,0.0-314.0-0.0,voc_e2,12108,"[{""event"":""fullscreenenter"",""trial"":1,""time"":3033}]",NA,NA,NA,NA,NA,6,#FA92F8,#1CD855,0,10,0,40,0,524.0000000002328,37,1,514.9999999997672,0,0,experiment,NA,NA,1,0.3,0.7,3,2,304,7,NA
fcp-trial,354,1428279,0.0-315.0-0.0,voc_e2,12108,"[{""event"":""fullscreenenter"",""trial"":1,""time"":3033}]",NA,NA,NA,NA,NA,4,#3386FF,#D89F1C,0,0,0,40,0,815.0000000002328,39,0,424,0,1,experiment,NA,NA,2,0.5,0.5,5,4,305,7,NA
fcp-trial,355,1431196,0.0-316.0-0.0,voc_e2,12108,"[{""event"":""fullscreenenter"",""trial"":1,""time"":3033}]",NA,NA,NA,NA,NA,3,#D8271C,#741CD8,10,0,1,38,1,976,37,1,430,10,1,experiment,NA,NA,0,0.9,0.1,0,1,306,7,NA
fcp-trial,356,1434194,0.0-317.0-0.0,voc_e2,12108,"[{""event"":""fullscreenenter"",""trial"":1,""time"":3033}]",NA,NA,NA,NA,NA,1,#1CD855,#FA92F8,0,0,1,40,0,997,37,1,492,0,1,experiment,NA,NA,1,0.7,0.3,2,3,307,7,NA
fcp-trial,357,1436920,0.0-318.0-0.0,voc_e2,12108,"[{""event"":""fullscreenenter"",""trial"":1,""time"":3033}]",NA,NA,NA,NA,NA,5,#D8271C,#741CD8,10,10,1,38,1,790,37,1,423,10,1,experiment,NA,NA,0,0.9,0.1,0,1,308,7,NA
fcp-trial,358,1439681,0.0-319.0-0.0,voc_e2,12108,"[{""event"":""fullscreenenter"",""trial"":1,""time"":3033}]",NA,NA,NA,NA,NA,0,#741CD8,#D8271C,0,10,0,38,1,812,39,0,440.0000000002328,10,1,experiment,NA,NA,0,0.1,0.9,1,0,309,7,NA
fcp-trial,359,1442602,0.0-320.0-0.0,voc_e2,12108,"[{""event"":""fullscreenenter"",""trial"":1,""time"":3033}]",NA,NA,NA,NA,NA,2,#3386FF,#D89F1C,10,10,0,40,0,938.9999999997672,39,0,472,10,1,experiment,NA,NA,2,0.5,0.5,5,4,310,7,NA
fcp-trial,360,1445371,0.0-321.0-0.0,voc_e2,12108,"[{""event"":""fullscreenenter"",""trial"":1,""time"":3033}]",NA,NA,NA,NA,NA,0,#D89F1C,#3386FF,0,10,1,38,1,812,37,1,448,0,1,experiment,NA,NA,2,0.5,0.5,4,5,311,7,NA
fcp-trial,361,1448548,0.0-322.0-0.0,voc_e2,12108,"[{""event"":""fullscreenenter"",""trial"":1,""time"":3033}]",NA,NA,NA,NA,NA,2,#FA92F8,#1CD855,10,10,0,40,0,1087,37,1,579.9999999997672,10,0,experiment,NA,NA,1,0.3,0.7,3,2,312,7,NA
fcp-trial,362,1451449,0.0-323.0-0.0,voc_e2,12108,"[{""event"":""fullscreenenter"",""trial"":1,""time"":3033}]",NA,NA,NA,NA,NA,3,#1CD855,#FA92F8,10,10,1,40,0,835.0000000002328,37,1,558,10,1,experiment,NA,NA,1,0.7,0.3,2,3,313,7,NA
fcp-trial,363,1454512,0.0-324.0-0.0,voc_e2,12108,"[{""event"":""fullscreenenter"",""trial"":1,""time"":3033}]",NA,NA,NA,NA,NA,4,#D8271C,#741CD8,10,0,1,38,1,1123,37,1,432,10,1,experiment,NA,NA,0,0.9,0.1,0,1,314,7,NA
fcp-trial,364,1457189,0.0-325.0-0.0,voc_e2,12108,"[{""event"":""fullscreenenter"",""trial"":1,""time"":3033}]",NA,NA,NA,NA,NA,1,#D8271C,#741CD8,10,0,1,38,1,661,37,1,506,10,1,experiment,NA,NA,0,0.9,0.1,0,1,315,7,NA
audio-instructions,365,1464180,0.0-326.0,voc_e2,12108,"[{""event"":""fullscreenenter"",""trial"":1,""time"":3033}]",NA,1355,static/audio/finished.wav,NA,0,NA,NA,NA,NA,NA,NA,NA,NA,NA,NA,NA,NA,NA,NA,NA,NA,NA,NA,NA,NA,NA,NA,NA,NA,NA
audio-instructions,366,1475615,0.0-327.0-0.0,voc_e2,12108,"[{""event"":""fullscreenenter"",""trial"":1,""time"":3033}]",NA,599,static/audio/explicit1.wav,NA,0,NA,NA,NA,NA,NA,NA,NA,NA,NA,NA,NA,NA,NA,NA,NA,NA,NA,NA,NA,NA,NA,NA,NA,NA,NA
audio-instructions,367,1483582,0.0-327.0-1.0,voc_e2,12108,"[{""event"":""fullscreenenter"",""trial"":1,""time"":3033}]",NA,372,static/audio/explicit2.wav,NA,0,NA,NA,NA,NA,NA,NA,NA,NA,NA,NA,NA,NA,NA,NA,NA,NA,NA,NA,NA,NA,NA,NA,NA,NA,NA
image-slider-response,368,1492874,0.0-328.0,voc_e2,12108,"[{""event"":""fullscreenenter"",""trial"":1,""time"":3033}]",NA,9291,static/img/machines/machine4.png,NA,NA,NA,NA,NA,NA,NA,NA,NA,NA,NA,NA,NA,NA,NA,NA,explicit,NA,NA,NA,NA,NA,NA,NA,NA,NA,5
image-slider-response,369,1497366,0.0-329.0,voc_e2,12108,"[{""event"":""fullscreenenter"",""trial"":1,""time"":3033}]",NA,4491,static/img/machines/machine2.png,NA,NA,NA,NA,NA,NA,NA,NA,NA,NA,NA,NA,NA,NA,NA,NA,explicit,NA,NA,NA,NA,NA,NA,NA,NA,NA,6
image-slider-response,370,1503257,0.0-330.0,voc_e2,12108,"[{""event"":""fullscreenenter"",""trial"":1,""time"":3033}]",NA,5889,static/img/machines/machine1.png,NA,NA,NA,NA,NA,NA,NA,NA,NA,NA,NA,NA,NA,NA,NA,NA,explicit,NA,NA,NA,NA,NA,NA,NA,NA,NA,9
image-slider-response,371,1506271,0.0-331.0,voc_e2,12108,"[{""event"":""fullscreenenter"",""trial"":1,""time"":3033}]",NA,3013,static/img/machines/machine6.png,NA,NA,NA,NA,NA,NA,NA,NA,NA,NA,NA,NA,NA,NA,NA,NA,explicit,NA,NA,NA,NA,NA,NA,NA,NA,NA,5
image-slider-response,372,1508681,0.0-332.0,voc_e2,12108,"[{""event"":""fullscreenenter"",""trial"":1,""time"":3033}]",NA,2408,static/img/machines/machine3.png,NA,NA,NA,NA,NA,NA,NA,NA,NA,NA,NA,NA,NA,NA,NA,NA,explicit,NA,NA,NA,NA,NA,NA,NA,NA,NA,5
image-slider-response,373,1510890,0.0-333.0,voc_e2,12108,"[{""event"":""fullscreenenter"",""trial"":1,""time"":3033}]",NA,2207,static/img/machines/machine5.png,NA,NA,NA,NA,NA,NA,NA,NA,NA,NA,NA,NA,NA,NA,NA,NA,explicit,NA,NA,NA,NA,NA,NA,NA,NA,NA,4
