trial_type,trial_index,time_elapsed,internal_node_id,task_version,subject_id,interactions,success,rt,stimulus,key_press,button_pressed,offer,arcade_color_L,arcade_color_R,arcade_outcome_L,arcade_outcome_R,correct,stage_1_key,stage_1_choice,stage_1_rt,stage_2_key,stage_2_choice,stage_2_rt,stage_3_outcome,accuracy,phase,responses,num_errors,context,reward_prob_L,reward_prob_R,arcade_id_L,arcade_id_R,trial,block,response
pavlovia,0,5,0.0-0.0,voc_e2,11842,[],NA,NA,NA,NA,NA,NA,NA,NA,NA,NA,NA,NA,NA,NA,NA,NA,NA,NA,NA,NA,NA,NA,NA,NA,NA,NA,NA,NA,NA,NA
fullscreen,1,3351,0.0-1.0,voc_e2,11842,"[{""event"":""fullscreenenter"",""trial"":1,""time"":2387}]",TRUE,NA,NA,NA,NA,NA,NA,NA,NA,NA,NA,NA,NA,NA,NA,NA,NA,NA,NA,NA,NA,NA,NA,NA,NA,NA,NA,NA,NA,NA
audio-keyboard-response,2,5475,0.0-2.0,voc_e2,11842,"[{""event"":""fullscreenenter"",""trial"":1,""time"":2387}]",NA,2123,static/audio/beep_loop.wav,32,NA,NA,NA,NA,NA,NA,NA,NA,NA,NA,NA,NA,NA,NA,NA,NA,NA,NA,NA,NA,NA,NA,NA,NA,NA,NA
audio-test,3,8077,0.0-3.0,voc_e2,11842,"[{""event"":""fullscreenenter"",""trial"":1,""time"":2387}]",NA,NA,static/audio/turtle.wav,NA,3,NA,NA,NA,NA,NA,NA,NA,NA,NA,NA,NA,NA,NA,NA,NA,NA,NA,NA,NA,NA,NA,NA,NA,NA,NA
audio-test,4,10167,0.0-4.0,voc_e2,11842,"[{""event"":""fullscreenenter"",""trial"":1,""time"":2387}]",NA,NA,static/audio/shark.wav,NA,2,NA,NA,NA,NA,NA,NA,NA,NA,NA,NA,NA,NA,NA,NA,NA,NA,NA,NA,NA,NA,NA,NA,NA,NA,NA
audio-instructions,5,16901,0.0-5.0-0.0,voc_e2,11842,"[{""event"":""fullscreenenter"",""trial"":1,""time"":2387}]",NA,947.399999976158,static/audio/instructions1.wav,NA,0,NA,NA,NA,NA,NA,NA,NA,NA,NA,NA,NA,NA,NA,NA,NA,NA,NA,NA,NA,NA,NA,NA,NA,NA,NA
audio-instructions,6,24575,0.0-5.0-1.0,voc_e2,11842,"[{""event"":""fullscreenenter"",""trial"":1,""time"":2387}]",NA,941.0999999940396,static/audio/instructions2.wav,NA,0,NA,NA,NA,NA,NA,NA,NA,NA,NA,NA,NA,NA,NA,NA,NA,NA,NA,NA,NA,NA,NA,NA,NA,NA,NA
audio-instructions,7,31034,0.0-5.0-2.0,voc_e2,11842,"[{""event"":""fullscreenenter"",""trial"":1,""time"":2387}]",NA,657.7000000178814,static/audio/instructions3.wav,NA,0,NA,NA,NA,NA,NA,NA,NA,NA,NA,NA,NA,NA,NA,NA,NA,NA,NA,NA,NA,NA,NA,NA,NA,NA,NA
audio-instructions,8,44734,0.0-5.0-3.0,voc_e2,11842,"[{""event"":""fullscreenenter"",""trial"":1,""time"":2387}]",NA,480.5,static/audio/instructions4.wav,NA,0,NA,NA,NA,NA,NA,NA,NA,NA,NA,NA,NA,NA,NA,NA,NA,NA,NA,NA,NA,NA,NA,NA,NA,NA,NA
audio-instructions,9,55345,0.0-5.0-4.0,voc_e2,11842,"[{""event"":""fullscreenenter"",""trial"":1,""time"":2387}]",NA,1223.5,static/audio/instructions5.wav,NA,0,NA,NA,NA,NA,NA,NA,NA,NA,NA,NA,NA,NA,NA,NA,NA,NA,NA,NA,NA,NA,NA,NA,NA,NA,NA
fcp-practice,10,57966,0.0-5.0-5.0-0.0,voc_e2,11842,"[{""event"":""fullscreenenter"",""trial"":1,""time"":2387}]",NA,NA,NA,NA,NA,NA,#EDC948,#46d3c8,10,0,1,null,null,null,37,1,1110.399999976158,10,1,practice,NA,NA,NA,NA,NA,NA,NA,NA,NA,NA
fcp-practice,11,59898,0.0-5.0-5.0-1.0,voc_e2,11842,"[{""event"":""fullscreenenter"",""trial"":1,""time"":2387}]",NA,NA,NA,NA,NA,NA,#EDC948,#46d3c8,10,0,1,null,null,null,37,1,419.90000000596046,10,1,practice,NA,NA,NA,NA,NA,NA,NA,NA,NA,NA
fcp-practice,12,61816,0.0-5.0-5.0-2.0,voc_e2,11842,"[{""event"":""fullscreenenter"",""trial"":1,""time"":2387}]",NA,NA,NA,NA,NA,NA,#EDC948,#46d3c8,0,10,1,null,null,null,37,1,413.800000011921,0,1,practice,NA,NA,NA,NA,NA,NA,NA,NA,NA,NA
fcp-practice,13,63765,0.0-5.0-5.0-3.0,voc_e2,11842,"[{""event"":""fullscreenenter"",""trial"":1,""time"":2387}]",NA,NA,NA,NA,NA,NA,#EDC948,#46d3c8,10,0,1,null,null,null,37,1,436.300000011921,10,1,practice,NA,NA,NA,NA,NA,NA,NA,NA,NA,NA
fcp-practice,14,65664,0.0-5.0-5.0-4.0,voc_e2,11842,"[{""event"":""fullscreenenter"",""trial"":1,""time"":2387}]",NA,NA,NA,NA,NA,NA,#EDC948,#46d3c8,10,0,1,null,null,null,37,1,390.699999988079,10,1,practice,NA,NA,NA,NA,NA,NA,NA,NA,NA,NA
audio-instructions,15,84064,0.0-5.0-6.0,voc_e2,11842,"[{""event"":""fullscreenenter"",""trial"":1,""time"":2387}]",NA,395.2000000178814,static/audio/instructions6.wav,NA,0,NA,NA,NA,NA,NA,NA,NA,NA,NA,NA,NA,NA,NA,NA,NA,NA,NA,NA,NA,NA,NA,NA,NA,NA,NA
audio-instructions,16,113284,0.0-5.0-7.0,voc_e2,11842,"[{""event"":""fullscreenenter"",""trial"":1,""time"":2387}]",NA,10024.59999999404,static/audio/instructions7.wav,NA,0,NA,NA,NA,NA,NA,NA,NA,NA,NA,NA,NA,NA,NA,NA,NA,NA,NA,NA,NA,NA,NA,NA,NA,NA,NA
audio-instructions,17,123807,0.0-5.0-8.0,voc_e2,11842,"[{""event"":""fullscreenenter"",""trial"":1,""time"":2387}]",NA,1049.199999988079,static/audio/instructions8.wav,NA,0,NA,NA,NA,NA,NA,NA,NA,NA,NA,NA,NA,NA,NA,NA,NA,NA,NA,NA,NA,NA,NA,NA,NA,NA,NA
fcp-comprehension,18,138844,0.0-5.0-9.0,voc_e2,11842,"[{""event"":""fullscreenenter"",""trial"":1,""time"":2387}]",NA,15035.30000001192,NA,NA,NA,NA,NA,NA,NA,NA,NA,NA,NA,NA,NA,NA,NA,NA,NA,NA,"true,true",0,NA,NA,NA,NA,NA,NA,NA,NA
audio-instructions,19,145521,0.0-6.0-0.0,voc_e2,11842,"[{""event"":""fullscreenenter"",""trial"":1,""time"":2387}]",NA,1129.9000000059605,static/audio/instructions9.wav,NA,0,NA,NA,NA,NA,NA,NA,NA,NA,NA,NA,NA,NA,NA,NA,NA,NA,NA,NA,NA,NA,NA,NA,NA,NA,NA
audio-instructions,20,158876,0.0-6.0-1.0,voc_e2,11842,"[{""event"":""fullscreenenter"",""trial"":1,""time"":2387}]",NA,1237.5999999940395,static/audio/instructions10.wav,NA,0,NA,NA,NA,NA,NA,NA,NA,NA,NA,NA,NA,NA,NA,NA,NA,NA,NA,NA,NA,NA,NA,NA,NA,NA,NA
fcp-trial,21,166429,0.0-6.0-2.0,voc_e2,11842,"[{""event"":""fullscreenenter"",""trial"":1,""time"":2387}]",NA,NA,NA,NA,NA,0,#EDC948,#46d3c8,10,10,1,38,1,5025.700000017881,39,0,1005.8000000119208,10,0,practice,NA,NA,NA,NA,NA,NA,NA,NA,NA,NA
audio-instructions,22,177995,0.0-6.0-3.0,voc_e2,11842,"[{""event"":""fullscreenenter"",""trial"":1,""time"":2387}]",NA,559.5,static/audio/instructions11.wav,NA,0,NA,NA,NA,NA,NA,NA,NA,NA,NA,NA,NA,NA,NA,NA,NA,NA,NA,NA,NA,NA,NA,NA,NA,NA,NA
fcp-trial,23,181961,0.0-6.0-4.0,voc_e2,11842,"[{""event"":""fullscreenenter"",""trial"":1,""time"":2387}]",NA,NA,NA,NA,NA,6,#EDC948,#46d3c8,10,10,1,40,0,1303.4000000059605,39,0,1140.9000000059605,10,0,practice,NA,NA,NA,NA,NA,NA,NA,NA,NA,NA
audio-instructions,24,201538,0.0-6.0-5.0,voc_e2,11842,"[{""event"":""fullscreenenter"",""trial"":1,""time"":2387}]",NA,890.3999999761581,static/audio/instructions12.wav,NA,0,NA,NA,NA,NA,NA,NA,NA,NA,NA,NA,NA,NA,NA,NA,NA,NA,NA,NA,NA,NA,NA,NA,NA,NA,NA
audio-instructions,25,209916,0.0-6.0-6.0,voc_e2,11842,"[{""event"":""fullscreenenter"",""trial"":1,""time"":2387}]",NA,787.9000000059605,static/audio/instructions13.wav,NA,0,NA,NA,NA,NA,NA,NA,NA,NA,NA,NA,NA,NA,NA,NA,NA,NA,NA,NA,NA,NA,NA,NA,NA,NA,NA
audio-instructions,26,224322,0.0-6.0-7.0,voc_e2,11842,"[{""event"":""fullscreenenter"",""trial"":1,""time"":2387}]",NA,5956.5999999940395,static/audio/instructions14.wav,NA,0,NA,NA,NA,NA,NA,NA,NA,NA,NA,NA,NA,NA,NA,NA,NA,NA,NA,NA,NA,NA,NA,NA,NA,NA,NA
audio-instructions,27,231754,0.0-7.0-0.0,voc_e2,11842,"[{""event"":""fullscreenenter"",""trial"":1,""time"":2387}]",NA,524.4000000059605,static/audio/instructions15.wav,NA,0,NA,NA,NA,NA,NA,NA,NA,NA,NA,NA,NA,NA,NA,NA,NA,NA,NA,NA,NA,NA,NA,NA,NA,NA,NA
audio-instructions,28,239539,0.0-7.0-1.0,voc_e2,11842,"[{""event"":""fullscreenenter"",""trial"":1,""time"":2387}]",NA,959.6999999880792,static/audio/instructions16.wav,NA,0,NA,NA,NA,NA,NA,NA,NA,NA,NA,NA,NA,NA,NA,NA,NA,NA,NA,NA,NA,NA,NA,NA,NA,NA,NA
audio-instructions,29,247643,0.0-7.0-2.0,voc_e2,11842,"[{""event"":""fullscreenenter"",""trial"":1,""time"":2387}]",NA,423.40000000596046,static/audio/instructions17.wav,NA,0,NA,NA,NA,NA,NA,NA,NA,NA,NA,NA,NA,NA,NA,NA,NA,NA,NA,NA,NA,NA,NA,NA,NA,NA,NA
audio-instructions,30,260342,0.0-7.0-3.0,voc_e2,11842,"[{""event"":""fullscreenenter"",""trial"":1,""time"":2387}]",NA,4941.5999999940395,static/audio/instructions18.wav,NA,0,NA,NA,NA,NA,NA,NA,NA,NA,NA,NA,NA,NA,NA,NA,NA,NA,NA,NA,NA,NA,NA,NA,NA,NA,NA
audio-instructions,31,267520,0.0-7.0-4.0,voc_e2,11842,"[{""event"":""fullscreenenter"",""trial"":1,""time"":2387}]",NA,439.199999988079,static/audio/instructions19.wav,NA,0,NA,NA,NA,NA,NA,NA,NA,NA,NA,NA,NA,NA,NA,NA,NA,NA,NA,NA,NA,NA,NA,NA,NA,NA,NA
fcp-comprehension,32,281872,0.0-7.0-5.0,voc_e2,11842,"[{""event"":""fullscreenenter"",""trial"":1,""time"":2387}]",NA,14351.19999998808,NA,NA,NA,NA,NA,NA,NA,NA,NA,NA,NA,NA,NA,NA,NA,NA,NA,NA,"false,false,false,true",0,NA,NA,NA,NA,NA,NA,NA,NA
audio-instructions,33,291846,0.0-8.0,voc_e2,11842,"[{""event"":""fullscreenenter"",""trial"":1,""time"":2387}]",NA,758.2000000178814,static/audio/ready.wav,NA,0,NA,NA,NA,NA,NA,NA,NA,NA,NA,NA,NA,NA,NA,NA,NA,NA,NA,NA,NA,NA,NA,NA,NA,NA,NA
fcp-trial,34,296059,0.0-9.0-0.0,voc_e2,11842,"[{""event"":""fullscreenenter"",""trial"":1,""time"":2387}]",NA,NA,NA,NA,NA,6,#3386FF,#D89F1C,10,10,0,40,0,1811.3999999761581,37,1,895.5999999940395,10,0,experiment,NA,NA,0,0.1,0.9,1,0,1,1,NA
fcp-trial,35,299376,0.0-10.0-0.0,voc_e2,11842,"[{""event"":""fullscreenenter"",""trial"":1,""time"":2387}]",NA,NA,NA,NA,NA,6,#1CD855,#FA92F8,10,10,1,40,0,1002.2999999821186,37,1,786.5999999940395,10,1,experiment,NA,NA,1,0.7,0.3,2,3,2,1,NA
fcp-trial,36,303059,0.0-11.0-0.0,voc_e2,11842,"[{""event"":""fullscreenenter"",""trial"":1,""time"":2387}]",NA,NA,NA,NA,NA,2,#3386FF,#D89F1C,0,10,0,38,1,1467.5,39,0,697.7999999821186,10,1,experiment,NA,NA,0,0.1,0.9,1,0,3,1,NA
fcp-trial,37,309826,0.0-12.0-0.0,voc_e2,11842,"[{""event"":""fullscreenenter"",""trial"":1,""time"":2387}]",NA,NA,NA,NA,NA,2,#741CD8,#D8271C,0,10,0,38,1,3995.7000000178814,39,0,1251.5,10,1,experiment,NA,NA,2,0.5,0.5,5,4,4,1,NA
fcp-trial,38,315159,0.0-13.0-0.0,voc_e2,11842,"[{""event"":""fullscreenenter"",""trial"":1,""time"":2387}]",NA,NA,NA,NA,NA,5,#1CD855,#FA92F8,10,10,1,38,1,2855.699999988079,37,1,961.3000000119208,10,1,experiment,NA,NA,1,0.7,0.3,2,3,5,1,NA
fcp-trial,39,318776,0.0-14.0-0.0,voc_e2,11842,"[{""event"":""fullscreenenter"",""trial"":1,""time"":2387}]",NA,NA,NA,NA,NA,2,#1CD855,#FA92F8,10,0,1,38,1,1614.5999999940395,37,1,495.89999997615814,10,1,experiment,NA,NA,1,0.7,0.3,2,3,6,1,NA
fcp-trial,40,323258,0.0-15.0-0.0,voc_e2,11842,"[{""event"":""fullscreenenter"",""trial"":1,""time"":2387}]",NA,NA,NA,NA,NA,4,#D89F1C,#3386FF,10,0,1,38,1,2003.2999999821186,37,1,964.1999999880792,10,1,experiment,NA,NA,0,0.9,0.1,0,1,7,1,NA
fcp-trial,41,327517,0.0-16.0-0.0,voc_e2,11842,"[{""event"":""fullscreenenter"",""trial"":1,""time"":2387}]",NA,NA,NA,NA,NA,1,#741CD8,#D8271C,0,10,0,38,1,1842.2999999821186,39,0,909.1999999880792,10,1,experiment,NA,NA,2,0.5,0.5,5,4,8,1,NA
fcp-trial,42,330919,0.0-17.0-0.0,voc_e2,11842,"[{""event"":""fullscreenenter"",""trial"":1,""time"":2387}]",NA,NA,NA,NA,NA,4,#D8271C,#741CD8,10,10,1,38,1,1234.7000000178814,37,1,663.7999999821186,10,1,experiment,NA,NA,2,0.5,0.5,4,5,9,1,NA
fcp-trial,43,336260,0.0-18.0-0.0,voc_e2,11842,"[{""event"":""fullscreenenter"",""trial"":1,""time"":2387}]",NA,NA,NA,NA,NA,5,#3386FF,#D89F1C,0,10,0,38,1,2054.5,39,0,1783.0999999940395,10,1,experiment,NA,NA,0,0.1,0.9,1,0,10,1,NA
fcp-trial,44,339800,0.0-19.0-0.0,voc_e2,11842,"[{""event"":""fullscreenenter"",""trial"":1,""time"":2387}]",NA,NA,NA,NA,NA,3,#1CD855,#FA92F8,10,0,1,38,1,1195.7999999821186,37,1,839.3000000119209,10,1,experiment,NA,NA,1,0.7,0.3,2,3,11,1,NA
fcp-trial,45,342902,0.0-20.0-0.0,voc_e2,11842,"[{""event"":""fullscreenenter"",""trial"":1,""time"":2387}]",NA,NA,NA,NA,NA,0,#D8271C,#741CD8,0,0,1,38,1,1035.300000011921,37,1,561.9000000059605,0,1,experiment,NA,NA,2,0.5,0.5,4,5,12,1,NA
fcp-trial,46,347990,0.0-21.0-0.0,voc_e2,11842,"[{""event"":""fullscreenenter"",""trial"":1,""time"":2387}]",NA,NA,NA,NA,NA,3,#3386FF,#D89F1C,0,10,0,38,1,2021.7000000178814,39,0,1562.4000000059605,10,1,experiment,NA,NA,0,0.1,0.9,1,0,13,1,NA
fcp-trial,47,351636,0.0-22.0-0.0,voc_e2,11842,"[{""event"":""fullscreenenter"",""trial"":1,""time"":2387}]",NA,NA,NA,NA,NA,0,#1CD855,#FA92F8,0,10,1,38,1,1165.5999999940395,37,1,974.7000000178814,0,1,experiment,NA,NA,1,0.7,0.3,2,3,14,1,NA
fcp-trial,48,355760,0.0-23.0-0.0,voc_e2,11842,"[{""event"":""fullscreenenter"",""trial"":1,""time"":2387}]",NA,NA,NA,NA,NA,5,#D8271C,#741CD8,0,10,1,38,1,1896,37,1,723.0999999940395,0,1,experiment,NA,NA,2,0.5,0.5,4,5,15,1,NA
fcp-trial,49,360361,0.0-24.0-0.0,voc_e2,11842,"[{""event"":""fullscreenenter"",""trial"":1,""time"":2387}]",NA,NA,NA,NA,NA,1,#D89F1C,#3386FF,10,0,1,38,1,2603,37,1,492.5,10,1,experiment,NA,NA,0,0.9,0.1,0,1,16,1,NA
fcp-trial,50,365652,0.0-25.0-0.0,voc_e2,11842,"[{""event"":""fullscreenenter"",""trial"":1,""time"":2387}]",NA,NA,NA,NA,NA,4,#FA92F8,#1CD855,0,0,0,38,1,2319.800000011921,39,0,1466.7000000178814,0,1,experiment,NA,NA,1,0.3,0.7,3,2,17,1,NA
fcp-trial,51,369952,0.0-26.0-0.0,voc_e2,11842,"[{""event"":""fullscreenenter"",""trial"":1,""time"":2387}]",NA,NA,NA,NA,NA,1,#1CD855,#FA92F8,0,0,1,38,1,2293.9000000059605,39,0,502.09999999403954,0,0,experiment,NA,NA,1,0.7,0.3,2,3,18,1,NA
fcp-trial,52,374065,0.0-27.0-0.0,voc_e2,11842,"[{""event"":""fullscreenenter"",""trial"":1,""time"":2387}]",NA,NA,NA,NA,NA,0,#D89F1C,#3386FF,10,0,1,38,1,1338,37,1,1271.4000000059605,10,1,experiment,NA,NA,0,0.9,0.1,0,1,19,1,NA
fcp-trial,53,378504,0.0-28.0-0.0,voc_e2,11842,"[{""event"":""fullscreenenter"",""trial"":1,""time"":2387}]",NA,NA,NA,NA,NA,6,#741CD8,#D8271C,0,10,0,40,0,2092.5,37,1,841.7999999821186,0,0,experiment,NA,NA,2,0.5,0.5,5,4,20,1,NA
fcp-trial,54,383198,0.0-29.0-0.0,voc_e2,11842,"[{""event"":""fullscreenenter"",""trial"":1,""time"":2387}]",NA,NA,NA,NA,NA,3,#741CD8,#D8271C,0,0,0,38,1,2446.5,39,0,743,0,1,experiment,NA,NA,2,0.5,0.5,5,4,21,1,NA
fcp-trial,55,386384,0.0-30.0-0.0,voc_e2,11842,"[{""event"":""fullscreenenter"",""trial"":1,""time"":2387}]",NA,NA,NA,NA,NA,3,#D8271C,#741CD8,0,0,1,38,1,1271.9000000059605,39,0,409.5,0,0,experiment,NA,NA,2,0.5,0.5,4,5,22,1,NA
fcp-trial,56,390502,0.0-31.0-0.0,voc_e2,11842,"[{""event"":""fullscreenenter"",""trial"":1,""time"":2387}]",NA,NA,NA,NA,NA,0,#D89F1C,#3386FF,10,0,1,38,1,1217.300000011921,37,1,1396,10,1,experiment,NA,NA,0,0.9,0.1,0,1,23,1,NA
fcp-trial,57,394545,0.0-32.0-0.0,voc_e2,11842,"[{""event"":""fullscreenenter"",""trial"":1,""time"":2387}]",NA,NA,NA,NA,NA,4,#741CD8,#D8271C,0,10,0,38,1,1944.5999999940395,39,0,594.1000000238419,10,1,experiment,NA,NA,2,0.5,0.5,5,4,24,1,NA
fcp-trial,58,398679,0.0-33.0-0.0,voc_e2,11842,"[{""event"":""fullscreenenter"",""trial"":1,""time"":2387}]",NA,NA,NA,NA,NA,6,#1CD855,#FA92F8,10,0,1,40,0,2068,37,1,561.1999999880791,10,1,experiment,NA,NA,1,0.7,0.3,2,3,25,1,NA
fcp-trial,59,403430,0.0-34.0-0.0,voc_e2,11842,"[{""event"":""fullscreenenter"",""trial"":1,""time"":2387}]",NA,NA,NA,NA,NA,5,#FA92F8,#1CD855,0,10,0,38,1,1502,39,0,1744.2000000178814,10,1,experiment,NA,NA,1,0.3,0.7,3,2,26,1,NA
fcp-trial,60,407477,0.0-35.0-0.0,voc_e2,11842,"[{""event"":""fullscreenenter"",""trial"":1,""time"":2387}]",NA,NA,NA,NA,NA,5,#D89F1C,#3386FF,10,10,1,38,1,2070.300000011921,37,1,473,10,1,experiment,NA,NA,0,0.9,0.1,0,1,27,1,NA
fcp-trial,61,411569,0.0-36.0-0.0,voc_e2,11842,"[{""event"":""fullscreenenter"",""trial"":1,""time"":2387}]",NA,NA,NA,NA,NA,6,#741CD8,#D8271C,10,10,0,40,0,1984.3999999761581,37,1,602.8000000119209,10,0,experiment,NA,NA,2,0.5,0.5,5,4,28,1,NA
fcp-trial,62,414559,0.0-37.0-0.0,voc_e2,11842,"[{""event"":""fullscreenenter"",""trial"":1,""time"":2387}]",NA,NA,NA,NA,NA,6,#D89F1C,#3386FF,10,0,1,40,0,979.7999999821186,37,1,506.09999999403954,10,1,experiment,NA,NA,0,0.9,0.1,0,1,29,1,NA
fcp-trial,63,417658,0.0-38.0-0.0,voc_e2,11842,"[{""event"":""fullscreenenter"",""trial"":1,""time"":2387}]",NA,NA,NA,NA,NA,0,#FA92F8,#1CD855,0,10,0,38,1,1128.7000000178814,39,0,466,10,1,experiment,NA,NA,1,0.3,0.7,3,2,30,1,NA
fcp-trial,64,421236,0.0-39.0-0.0,voc_e2,11842,"[{""event"":""fullscreenenter"",""trial"":1,""time"":2387}]",NA,NA,NA,NA,NA,2,#3386FF,#D89F1C,0,10,0,38,1,1111.4000000059605,39,0,961.100000023842,10,1,experiment,NA,NA,0,0.1,0.9,1,0,31,1,NA
fcp-trial,65,424578,0.0-40.0-0.0,voc_e2,11842,"[{""event"":""fullscreenenter"",""trial"":1,""time"":2387}]",NA,NA,NA,NA,NA,3,#D89F1C,#3386FF,10,0,1,38,1,1337.7999999821186,37,1,498.699999988079,10,1,experiment,NA,NA,0,0.9,0.1,0,1,32,1,NA
fcp-trial,66,427869,0.0-41.0-0.0,voc_e2,11842,"[{""event"":""fullscreenenter"",""trial"":1,""time"":2387}]",NA,NA,NA,NA,NA,1,#D8271C,#741CD8,10,10,1,38,1,1094.5,37,1,692,10,1,experiment,NA,NA,2,0.5,0.5,4,5,33,1,NA
fcp-trial,67,431319,0.0-42.0-0.0,voc_e2,11842,"[{""event"":""fullscreenenter"",""trial"":1,""time"":2387}]",NA,NA,NA,NA,NA,3,#FA92F8,#1CD855,0,10,0,38,1,1385.3999999761581,39,0,561,10,1,experiment,NA,NA,1,0.3,0.7,3,2,34,1,NA
fcp-trial,68,433963,0.0-43.0-0.0,voc_e2,11842,"[{""event"":""fullscreenenter"",""trial"":1,""time"":2387}]",NA,NA,NA,NA,NA,0,#D8271C,#741CD8,10,0,1,38,1,691.8000000119209,37,1,446.40000000596046,10,1,experiment,NA,NA,2,0.5,0.5,4,5,35,1,NA
fcp-trial,69,437189,0.0-44.0-0.0,voc_e2,11842,"[{""event"":""fullscreenenter"",""trial"":1,""time"":2387}]",NA,NA,NA,NA,NA,1,#FA92F8,#1CD855,10,10,0,38,1,965.0999999940395,39,0,752.7000000178814,10,1,experiment,NA,NA,1,0.3,0.7,3,2,36,1,NA
fcp-trial,70,440183,0.0-45.0-0.0,voc_e2,11842,"[{""event"":""fullscreenenter"",""trial"":1,""time"":2387}]",NA,NA,NA,NA,NA,4,#D89F1C,#3386FF,10,0,1,38,1,771.3999999761581,37,1,716.9000000059605,10,1,experiment,NA,NA,0,0.9,0.1,0,1,37,1,NA
fcp-trial,71,443794,0.0-46.0-0.0,voc_e2,11842,"[{""event"":""fullscreenenter"",""trial"":1,""time"":2387}]",NA,NA,NA,NA,NA,4,#FA92F8,#1CD855,10,0,0,38,1,1524.199999988079,39,0,582.4000000059605,0,1,experiment,NA,NA,1,0.3,0.7,3,2,38,1,NA
fcp-trial,72,446970,0.0-47.0-0.0,voc_e2,11842,"[{""event"":""fullscreenenter"",""trial"":1,""time"":2387}]",NA,NA,NA,NA,NA,2,#FA92F8,#1CD855,10,10,0,38,1,1251.5999999940395,39,0,419,10,1,experiment,NA,NA,1,0.3,0.7,3,2,39,1,NA
fcp-trial,73,449856,0.0-48.0-0.0,voc_e2,11842,"[{""event"":""fullscreenenter"",""trial"":1,""time"":2387}]",NA,NA,NA,NA,NA,2,#741CD8,#D8271C,10,0,0,38,1,885.7000000178814,39,0,496.2999999821186,0,1,experiment,NA,NA,2,0.5,0.5,5,4,40,1,NA
fcp-trial,74,453427,0.0-49.0-0.0,voc_e2,11842,"[{""event"":""fullscreenenter"",""trial"":1,""time"":2387}]",NA,NA,NA,NA,NA,5,#D8271C,#741CD8,0,0,1,40,0,1527.7000000178814,39,0,536.9000000059605,0,0,experiment,NA,NA,2,0.5,0.5,4,5,41,1,NA
fcp-trial,75,456182,0.0-50.0-0.0,voc_e2,11842,"[{""event"":""fullscreenenter"",""trial"":1,""time"":2387}]",NA,NA,NA,NA,NA,1,#D89F1C,#3386FF,10,10,1,38,1,756.6999999880791,37,1,494.5,10,1,experiment,NA,NA,0,0.9,0.1,0,1,42,1,NA
fcp-trial,76,459170,0.0-51.0-0.0,voc_e2,11842,"[{""event"":""fullscreenenter"",""trial"":1,""time"":2387}]",NA,NA,NA,NA,NA,6,#741CD8,#D8271C,10,10,0,40,0,1053.699999988079,39,0,429.90000000596046,10,1,experiment,NA,NA,2,0.5,0.5,5,4,43,1,NA
fcp-trial,77,462248,0.0-52.0-0.0,voc_e2,11842,"[{""event"":""fullscreenenter"",""trial"":1,""time"":2387}]",NA,NA,NA,NA,NA,3,#D89F1C,#3386FF,10,0,1,38,1,902.6999999880791,37,1,669.6999999880791,10,1,experiment,NA,NA,0,0.9,0.1,0,1,44,1,NA
fcp-trial,78,465604,0.0-53.0-0.0,voc_e2,11842,"[{""event"":""fullscreenenter"",""trial"":1,""time"":2387}]",NA,NA,NA,NA,NA,3,#FA92F8,#1CD855,0,10,0,38,1,1460.800000011921,39,0,390,10,1,experiment,NA,NA,1,0.3,0.7,3,2,45,1,NA
fcp-trial,79,468608,0.0-54.0-0.0,voc_e2,11842,"[{""event"":""fullscreenenter"",""trial"":1,""time"":2387}]",NA,NA,NA,NA,NA,1,#741CD8,#D8271C,0,0,0,38,1,1045.800000011921,39,0,455.09999999403954,0,1,experiment,NA,NA,2,0.5,0.5,5,4,46,2,NA
fcp-trial,80,472268,0.0-55.0-0.0,voc_e2,11842,"[{""event"":""fullscreenenter"",""trial"":1,""time"":2387}]",NA,NA,NA,NA,NA,4,#FA92F8,#1CD855,0,0,0,38,1,1521.0999999940395,39,0,634.4000000059605,0,1,experiment,NA,NA,1,0.3,0.7,3,2,47,2,NA
fcp-trial,81,475108,0.0-56.0-0.0,voc_e2,11842,"[{""event"":""fullscreenenter"",""trial"":1,""time"":2387}]",NA,NA,NA,NA,NA,2,#D8271C,#741CD8,10,10,1,38,1,815.0999999940395,37,1,520.7000000178814,10,1,experiment,NA,NA,2,0.5,0.5,4,5,48,2,NA
fcp-trial,82,478467,0.0-57.0-0.0,voc_e2,11842,"[{""event"":""fullscreenenter"",""trial"":1,""time"":2387}]",NA,NA,NA,NA,NA,6,#D89F1C,#3386FF,10,0,1,40,0,1365.2000000178814,37,1,485.7999999821186,10,1,experiment,NA,NA,0,0.9,0.1,0,1,49,2,NA
fcp-trial,83,481464,0.0-58.0-0.0,voc_e2,11842,"[{""event"":""fullscreenenter"",""trial"":1,""time"":2387}]",NA,NA,NA,NA,NA,5,#1CD855,#FA92F8,0,10,1,40,0,1081.699999988079,39,0,410.90000000596046,10,0,experiment,NA,NA,1,0.7,0.3,2,3,50,2,NA
fcp-trial,84,485091,0.0-59.0-0.0,voc_e2,11842,"[{""event"":""fullscreenenter"",""trial"":1,""time"":2387}]",NA,NA,NA,NA,NA,2,#3386FF,#D89F1C,0,10,0,38,1,859.0999999940395,39,0,1263,10,1,experiment,NA,NA,0,0.1,0.9,1,0,51,2,NA
fcp-trial,85,488296,0.0-60.0-0.0,voc_e2,11842,"[{""event"":""fullscreenenter"",""trial"":1,""time"":2387}]",NA,NA,NA,NA,NA,0,#741CD8,#D8271C,0,0,0,38,1,1243.9000000059605,39,0,454.90000000596046,0,1,experiment,NA,NA,2,0.5,0.5,5,4,52,2,NA
fcp-trial,86,492085,0.0-61.0-0.0,voc_e2,11842,"[{""event"":""fullscreenenter"",""trial"":1,""time"":2387}]",NA,NA,NA,NA,NA,1,#1CD855,#FA92F8,10,0,1,38,1,1405,37,1,880,10,1,experiment,NA,NA,1,0.7,0.3,2,3,53,2,NA
fcp-trial,87,495240,0.0-62.0-0.0,voc_e2,11842,"[{""event"":""fullscreenenter"",""trial"":1,""time"":2387}]",NA,NA,NA,NA,NA,5,#741CD8,#D8271C,0,0,0,40,0,1183.3999999761581,39,0,467.2000000178814,0,1,experiment,NA,NA,2,0.5,0.5,5,4,54,2,NA
fcp-trial,88,498579,0.0-63.0-0.0,voc_e2,11842,"[{""event"":""fullscreenenter"",""trial"":1,""time"":2387}]",NA,NA,NA,NA,NA,4,#D8271C,#741CD8,10,0,1,38,1,1414.5,39,0,415.5,0,0,experiment,NA,NA,2,0.5,0.5,4,5,55,2,NA
fcp-trial,89,501547,0.0-64.0-0.0,voc_e2,11842,"[{""event"":""fullscreenenter"",""trial"":1,""time"":2387}]",NA,NA,NA,NA,NA,0,#D89F1C,#3386FF,10,0,1,38,1,772.9000000059605,37,1,690,10,1,experiment,NA,NA,0,0.9,0.1,0,1,56,2,NA
fcp-trial,90,505092,0.0-65.0-0.0,voc_e2,11842,"[{""event"":""fullscreenenter"",""trial"":1,""time"":2387}]",NA,NA,NA,NA,NA,4,#3386FF,#D89F1C,0,10,0,38,1,1289,39,0,751.6999999880791,10,1,experiment,NA,NA,0,0.1,0.9,1,0,57,2,NA
fcp-trial,91,508983,0.0-66.0-0.0,voc_e2,11842,"[{""event"":""fullscreenenter"",""trial"":1,""time"":2387}]",NA,NA,NA,NA,NA,6,#1CD855,#FA92F8,10,0,1,40,0,1282.5999999940395,37,1,1103.300000011921,10,1,experiment,NA,NA,1,0.7,0.3,2,3,58,2,NA
fcp-trial,92,512405,0.0-67.0-0.0,voc_e2,11842,"[{""event"":""fullscreenenter"",""trial"":1,""time"":2387}]",NA,NA,NA,NA,NA,3,#D8271C,#741CD8,10,10,1,38,1,1311,37,1,606.7000000178814,10,1,experiment,NA,NA,2,0.5,0.5,4,5,59,2,NA
fcp-trial,93,516559,0.0-68.0-0.0,voc_e2,11842,"[{""event"":""fullscreenenter"",""trial"":1,""time"":2387}]",NA,NA,NA,NA,NA,1,#3386FF,#D89F1C,0,10,0,38,1,912,39,0,1735.5,10,1,experiment,NA,NA,0,0.1,0.9,1,0,60,2,NA
fcp-trial,94,519497,0.0-69.0-0.0,voc_e2,11842,"[{""event"":""fullscreenenter"",""trial"":1,""time"":2387}]",NA,NA,NA,NA,NA,2,#1CD855,#FA92F8,0,10,1,38,1,901.4000000059605,37,1,531.7000000178814,0,1,experiment,NA,NA,1,0.7,0.3,2,3,61,2,NA
fcp-trial,95,522810,0.0-70.0-0.0,voc_e2,11842,"[{""event"":""fullscreenenter"",""trial"":1,""time"":2387}]",NA,NA,NA,NA,NA,5,#3386FF,#D89F1C,0,10,0,40,0,1427,39,0,381.800000011921,10,1,experiment,NA,NA,0,0.1,0.9,1,0,62,2,NA
fcp-trial,96,525754,0.0-71.0-0.0,voc_e2,11842,"[{""event"":""fullscreenenter"",""trial"":1,""time"":2387}]",NA,NA,NA,NA,NA,0,#1CD855,#FA92F8,10,0,1,38,1,854.5,37,1,585.2999999821186,10,1,experiment,NA,NA,1,0.7,0.3,2,3,63,2,NA
fcp-trial,97,528474,0.0-72.0-0.0,voc_e2,11842,"[{""event"":""fullscreenenter"",""trial"":1,""time"":2387}]",NA,NA,NA,NA,NA,6,#1CD855,#FA92F8,10,0,1,40,0,825.8000000119209,37,1,388.10000002384186,10,1,experiment,NA,NA,1,0.7,0.3,2,3,64,2,NA
fcp-trial,98,531296,0.0-73.0-0.0,voc_e2,11842,"[{""event"":""fullscreenenter"",""trial"":1,""time"":2387}]",NA,NA,NA,NA,NA,5,#3386FF,#D89F1C,0,10,0,40,0,932.8999999761581,39,0,385.300000011921,10,1,experiment,NA,NA,0,0.1,0.9,1,0,65,2,NA
fcp-trial,99,534875,0.0-74.0-0.0,voc_e2,11842,"[{""event"":""fullscreenenter"",""trial"":1,""time"":2387}]",NA,NA,NA,NA,NA,1,#741CD8,#D8271C,0,10,0,38,1,1481.199999988079,39,0,592.9000000059605,10,1,experiment,NA,NA,2,0.5,0.5,5,4,66,2,NA
fcp-trial,100,538181,0.0-75.0-0.0,voc_e2,11842,"[{""event"":""fullscreenenter"",""trial"":1,""time"":2387}]",NA,NA,NA,NA,NA,4,#1CD855,#FA92F8,10,0,1,38,1,1355.699999988079,37,1,444.40000000596046,10,1,experiment,NA,NA,1,0.7,0.3,2,3,67,2,NA
fcp-trial,101,541180,0.0-76.0-0.0,voc_e2,11842,"[{""event"":""fullscreenenter"",""trial"":1,""time"":2387}]",NA,NA,NA,NA,NA,0,#FA92F8,#1CD855,10,0,0,38,1,1090,39,0,402.59999999403954,0,1,experiment,NA,NA,1,0.3,0.7,3,2,68,2,NA
fcp-trial,102,544023,0.0-77.0-0.0,voc_e2,11842,"[{""event"":""fullscreenenter"",""trial"":1,""time"":2387}]",NA,NA,NA,NA,NA,0,#D8271C,#741CD8,0,0,1,38,1,883.5,37,1,455.800000011921,0,1,experiment,NA,NA,2,0.5,0.5,4,5,69,2,NA
fcp-trial,103,546983,0.0-78.0-0.0,voc_e2,11842,"[{""event"":""fullscreenenter"",""trial"":1,""time"":2387}]",NA,NA,NA,NA,NA,1,#D89F1C,#3386FF,10,0,1,38,1,723.7999999821186,37,1,732.0999999940395,10,1,experiment,NA,NA,0,0.9,0.1,0,1,70,2,NA
fcp-trial,104,549659,0.0-79.0-0.0,voc_e2,11842,"[{""event"":""fullscreenenter"",""trial"":1,""time"":2387}]",NA,NA,NA,NA,NA,0,#3386FF,#D89F1C,10,10,0,38,1,732.4000000059605,39,0,439.5,10,1,experiment,NA,NA,0,0.1,0.9,1,0,71,2,NA
fcp-trial,105,553441,0.0-80.0-0.0,voc_e2,11842,"[{""event"":""fullscreenenter"",""trial"":1,""time"":2387}]",NA,NA,NA,NA,NA,3,#FA92F8,#1CD855,10,10,0,38,1,880.0999999940395,39,0,1396.5,10,1,experiment,NA,NA,1,0.3,0.7,3,2,72,2,NA
fcp-trial,106,556261,0.0-81.0-0.0,voc_e2,11842,"[{""event"":""fullscreenenter"",""trial"":1,""time"":2387}]",NA,NA,NA,NA,NA,2,#FA92F8,#1CD855,0,0,0,38,1,942.2000000178814,39,0,372.59999999403954,0,1,experiment,NA,NA,1,0.3,0.7,3,2,73,2,NA
fcp-trial,107,559351,0.0-82.0-0.0,voc_e2,11842,"[{""event"":""fullscreenenter"",""trial"":1,""time"":2387}]",NA,NA,NA,NA,NA,2,#741CD8,#D8271C,10,10,0,38,1,1125.7000000178814,39,0,460.09999999403954,10,1,experiment,NA,NA,2,0.5,0.5,5,4,74,2,NA
fcp-trial,108,562083,0.0-83.0-0.0,voc_e2,11842,"[{""event"":""fullscreenenter"",""trial"":1,""time"":2387}]",NA,NA,NA,NA,NA,1,#FA92F8,#1CD855,0,10,0,38,1,685.5,39,0,541.4000000059605,10,1,experiment,NA,NA,1,0.3,0.7,3,2,75,2,NA
fcp-trial,109,564886,0.0-84.0-0.0,voc_e2,11842,"[{""event"":""fullscreenenter"",""trial"":1,""time"":2387}]",NA,NA,NA,NA,NA,2,#3386FF,#D89F1C,0,0,0,38,1,816.4000000059605,39,0,483.09999999403954,0,1,experiment,NA,NA,0,0.1,0.9,1,0,76,2,NA
fcp-trial,110,568021,0.0-85.0-0.0,voc_e2,11842,"[{""event"":""fullscreenenter"",""trial"":1,""time"":2387}]",NA,NA,NA,NA,NA,3,#D8271C,#741CD8,10,0,1,38,1,1106.3999999761581,37,1,522.8999999761581,10,1,experiment,NA,NA,2,0.5,0.5,4,5,77,2,NA
fcp-trial,111,570786,0.0-86.0-0.0,voc_e2,11842,"[{""event"":""fullscreenenter"",""trial"":1,""time"":2387}]",NA,NA,NA,NA,NA,5,#741CD8,#D8271C,10,10,0,40,0,822,37,1,438.5,10,0,experiment,NA,NA,2,0.5,0.5,5,4,78,2,NA
fcp-trial,112,574241,0.0-87.0-0.0,voc_e2,11842,"[{""event"":""fullscreenenter"",""trial"":1,""time"":2387}]",NA,NA,NA,NA,NA,4,#D89F1C,#3386FF,10,0,1,38,1,830.9000000059605,37,1,1117.7000000178814,10,1,experiment,NA,NA,0,0.9,0.1,0,1,79,2,NA
fcp-trial,113,577326,0.0-88.0-0.0,voc_e2,11842,"[{""event"":""fullscreenenter"",""trial"":1,""time"":2387}]",NA,NA,NA,NA,NA,5,#1CD855,#FA92F8,10,0,1,40,0,1192.7000000178814,37,1,389,10,1,experiment,NA,NA,1,0.7,0.3,2,3,80,2,NA
fcp-trial,114,580691,0.0-89.0-0.0,voc_e2,11842,"[{""event"":""fullscreenenter"",""trial"":1,""time"":2387}]",NA,NA,NA,NA,NA,3,#D89F1C,#3386FF,10,0,1,38,1,992.4000000059605,37,1,867.2999999821186,10,1,experiment,NA,NA,0,0.9,0.1,0,1,81,2,NA
fcp-trial,115,583306,0.0-90.0-0.0,voc_e2,11842,"[{""event"":""fullscreenenter"",""trial"":1,""time"":2387}]",NA,NA,NA,NA,NA,6,#D89F1C,#3386FF,10,0,1,40,0,701,37,1,408.90000000596046,10,1,experiment,NA,NA,0,0.9,0.1,0,1,82,2,NA
fcp-trial,116,585893,0.0-91.0-0.0,voc_e2,11842,"[{""event"":""fullscreenenter"",""trial"":1,""time"":2387}]",NA,NA,NA,NA,NA,6,#741CD8,#D8271C,0,0,0,40,0,669.4000000059605,37,1,413.699999988079,0,0,experiment,NA,NA,2,0.5,0.5,5,4,83,2,NA
fcp-trial,117,589407,0.0-92.0-0.0,voc_e2,11842,"[{""event"":""fullscreenenter"",""trial"":1,""time"":2387}]",NA,NA,NA,NA,NA,4,#741CD8,#D8271C,0,0,0,38,1,1204.3999999761581,39,0,805.6999999880791,0,1,experiment,NA,NA,2,0.5,0.5,5,4,84,2,NA
fcp-trial,118,592199,0.0-93.0-0.0,voc_e2,11842,"[{""event"":""fullscreenenter"",""trial"":1,""time"":2387}]",NA,NA,NA,NA,NA,3,#D89F1C,#3386FF,10,0,1,38,1,873.6000000238419,37,1,413.90000000596046,10,1,experiment,NA,NA,0,0.9,0.1,0,1,85,2,NA
fcp-trial,119,595529,0.0-94.0-0.0,voc_e2,11842,"[{""event"":""fullscreenenter"",""trial"":1,""time"":2387}]",NA,NA,NA,NA,NA,3,#1CD855,#FA92F8,0,0,1,38,1,1241.9000000059605,37,1,583.5,0,1,experiment,NA,NA,1,0.7,0.3,2,3,86,2,NA
fcp-trial,120,598554,0.0-95.0-0.0,voc_e2,11842,"[{""event"":""fullscreenenter"",""trial"":1,""time"":2387}]",NA,NA,NA,NA,NA,6,#D8271C,#741CD8,0,10,1,40,0,1093.199999988079,39,0,427.7999999821186,10,0,experiment,NA,NA,2,0.5,0.5,4,5,87,2,NA
fcp-trial,121,601621,0.0-96.0-0.0,voc_e2,11842,"[{""event"":""fullscreenenter"",""trial"":1,""time"":2387}]",NA,NA,NA,NA,NA,4,#1CD855,#FA92F8,10,0,1,38,1,1110.5999999940395,37,1,451.59999999403954,10,1,experiment,NA,NA,1,0.7,0.3,2,3,88,2,NA
fcp-trial,122,604324,0.0-97.0-0.0,voc_e2,11842,"[{""event"":""fullscreenenter"",""trial"":1,""time"":2387}]",NA,NA,NA,NA,NA,0,#741CD8,#D8271C,0,10,0,38,1,831.2999999821186,39,0,367.7999999821186,10,1,experiment,NA,NA,2,0.5,0.5,5,4,89,2,NA
fcp-trial,123,607211,0.0-98.0-0.0,voc_e2,11842,"[{""event"":""fullscreenenter"",""trial"":1,""time"":2387}]",NA,NA,NA,NA,NA,4,#D89F1C,#3386FF,0,0,1,38,1,1070.9000000059605,37,1,306.69999998807907,0,1,experiment,NA,NA,0,0.9,0.1,0,1,90,2,NA
fcp-trial,124,610456,0.0-99.0-0.0,voc_e2,11842,"[{""event"":""fullscreenenter"",""trial"":1,""time"":2387}]",NA,NA,NA,NA,NA,2,#D89F1C,#3386FF,10,0,1,38,1,1366.4000000059605,37,1,374.699999988079,10,1,experiment,NA,NA,0,0.9,0.1,0,1,91,3,NA
fcp-trial,125,613611,0.0-100.0-0.0,voc_e2,11842,"[{""event"":""fullscreenenter"",""trial"":1,""time"":2387}]",NA,NA,NA,NA,NA,4,#741CD8,#D8271C,0,10,0,40,0,1037.4000000059605,39,0,614.3000000119209,10,1,experiment,NA,NA,2,0.5,0.5,5,4,92,3,NA
fcp-trial,126,616367,0.0-101.0-0.0,voc_e2,11842,"[{""event"":""fullscreenenter"",""trial"":1,""time"":2387}]",NA,NA,NA,NA,NA,6,#FA92F8,#1CD855,10,10,0,40,0,891.1000000238419,37,1,360.7000000178814,10,0,experiment,NA,NA,1,0.3,0.7,3,2,93,3,NA
fcp-trial,127,619130,0.0-102.0-0.0,voc_e2,11842,"[{""event"":""fullscreenenter"",""trial"":1,""time"":2387}]",NA,NA,NA,NA,NA,2,#D8271C,#741CD8,10,10,1,38,1,836.7000000178814,37,1,418,10,1,experiment,NA,NA,2,0.5,0.5,4,5,94,3,NA
fcp-trial,128,622425,0.0-103.0-0.0,voc_e2,11842,"[{""event"":""fullscreenenter"",""trial"":1,""time"":2387}]",NA,NA,NA,NA,NA,1,#FA92F8,#1CD855,0,10,0,38,1,1077.4000000059605,39,0,711.2000000178814,10,1,experiment,NA,NA,1,0.3,0.7,3,2,95,3,NA
fcp-trial,129,625517,0.0-104.0-0.0,voc_e2,11842,"[{""event"":""fullscreenenter"",""trial"":1,""time"":2387}]",NA,NA,NA,NA,NA,5,#D89F1C,#3386FF,10,0,1,40,0,1174.2000000178814,39,0,414.699999988079,0,0,experiment,NA,NA,0,0.9,0.1,0,1,96,3,NA
fcp-trial,130,628201,0.0-105.0-0.0,voc_e2,11842,"[{""event"":""fullscreenenter"",""trial"":1,""time"":2387}]",NA,NA,NA,NA,NA,6,#D89F1C,#3386FF,10,0,1,40,0,712.9000000059605,39,0,465.09999999403954,0,0,experiment,NA,NA,0,0.9,0.1,0,1,97,3,NA
fcp-trial,131,631423,0.0-106.0-0.0,voc_e2,11842,"[{""event"":""fullscreenenter"",""trial"":1,""time"":2387}]",NA,NA,NA,NA,NA,1,#D8271C,#741CD8,10,10,1,38,1,701.9000000059605,37,1,1015.8000000119208,10,1,experiment,NA,NA,2,0.5,0.5,4,5,98,3,NA
fcp-trial,132,634202,0.0-107.0-0.0,voc_e2,11842,"[{""event"":""fullscreenenter"",""trial"":1,""time"":2387}]",NA,NA,NA,NA,NA,5,#D8271C,#741CD8,10,0,1,40,0,842,39,0,432.300000011921,0,0,experiment,NA,NA,2,0.5,0.5,4,5,99,3,NA
fcp-trial,133,637263,0.0-108.0-0.0,voc_e2,11842,"[{""event"":""fullscreenenter"",""trial"":1,""time"":2387}]",NA,NA,NA,NA,NA,2,#1CD855,#FA92F8,10,0,1,38,1,1042,37,1,512.4000000059605,10,1,experiment,NA,NA,1,0.7,0.3,2,3,100,3,NA
fcp-trial,134,640222,0.0-109.0-0.0,voc_e2,11842,"[{""event"":""fullscreenenter"",""trial"":1,""time"":2387}]",NA,NA,NA,NA,NA,0,#1CD855,#FA92F8,10,0,1,38,1,686.9000000059605,37,1,767.9000000059605,10,1,experiment,NA,NA,1,0.7,0.3,2,3,101,3,NA
fcp-trial,135,643052,0.0-110.0-0.0,voc_e2,11842,"[{""event"":""fullscreenenter"",""trial"":1,""time"":2387}]",NA,NA,NA,NA,NA,1,#D89F1C,#3386FF,10,0,1,38,1,752.7999999821186,37,1,573.3000000119209,10,1,experiment,NA,NA,0,0.9,0.1,0,1,102,3,NA
fcp-trial,136,646259,0.0-111.0-0.0,voc_e2,11842,"[{""event"":""fullscreenenter"",""trial"":1,""time"":2387}]",NA,NA,NA,NA,NA,3,#741CD8,#D8271C,0,0,0,38,1,1230.4000000059605,39,0,471.199999988079,0,1,experiment,NA,NA,2,0.5,0.5,5,4,103,3,NA
fcp-trial,137,648766,0.0-112.0-0.0,voc_e2,11842,"[{""event"":""fullscreenenter"",""trial"":1,""time"":2387}]",NA,NA,NA,NA,NA,0,#D89F1C,#3386FF,10,0,1,38,1,530.4000000059605,37,1,472.59999999403954,10,1,experiment,NA,NA,0,0.9,0.1,0,1,104,3,NA
fcp-trial,138,651496,0.0-113.0-0.0,voc_e2,11842,"[{""event"":""fullscreenenter"",""trial"":1,""time"":2387}]",NA,NA,NA,NA,NA,5,#1CD855,#FA92F8,0,10,1,40,0,861.0999999940395,39,0,364.2999999821186,10,0,experiment,NA,NA,1,0.7,0.3,2,3,105,3,NA
audio-instructions,139,657648,0.0-114.0,voc_e2,11842,"[{""event"":""fullscreenenter"",""trial"":1,""time"":2387}]",NA,1097.2999999821186,static/audio/pause.wav,NA,0,NA,NA,NA,NA,NA,NA,NA,NA,NA,NA,NA,NA,NA,NA,NA,NA,NA,NA,NA,NA,NA,NA,NA,NA,NA
fcp-trial,140,660936,0.0-115.0-0.0,voc_e2,11842,"[{""event"":""fullscreenenter"",""trial"":1,""time"":2387}]",NA,NA,NA,NA,NA,5,#3386FF,#D89F1C,0,10,0,40,0,1351.5999999940395,37,1,415.699999988079,0,0,experiment,NA,NA,0,0.1,0.9,1,0,106,3,NA
fcp-trial,141,664035,0.0-116.0-0.0,voc_e2,11842,"[{""event"":""fullscreenenter"",""trial"":1,""time"":2387}]",NA,NA,NA,NA,NA,4,#D89F1C,#3386FF,10,10,1,38,1,810.0999999940395,37,1,772.5,10,1,experiment,NA,NA,0,0.9,0.1,0,1,107,3,NA
fcp-trial,142,667318,0.0-117.0-0.0,voc_e2,11842,"[{""event"":""fullscreenenter"",""trial"":1,""time"":2387}]",NA,NA,NA,NA,NA,4,#1CD855,#FA92F8,10,0,1,38,1,1072.5,37,1,697.3000000119209,10,1,experiment,NA,NA,1,0.7,0.3,2,3,108,3,NA
fcp-trial,143,670036,0.0-118.0-0.0,voc_e2,11842,"[{""event"":""fullscreenenter"",""trial"":1,""time"":2387}]",NA,NA,NA,NA,NA,6,#741CD8,#D8271C,10,0,0,40,0,731.6999999880791,37,1,481.199999988079,10,0,experiment,NA,NA,2,0.5,0.5,5,4,109,3,NA
fcp-trial,144,673452,0.0-119.0-0.0,voc_e2,11842,"[{""event"":""fullscreenenter"",""trial"":1,""time"":2387}]",NA,NA,NA,NA,NA,0,#741CD8,#D8271C,10,0,0,38,1,1094.0999999940395,39,0,807.5,0,1,experiment,NA,NA,2,0.5,0.5,5,4,110,3,NA
fcp-trial,145,676536,0.0-120.0-0.0,voc_e2,11842,"[{""event"":""fullscreenenter"",""trial"":1,""time"":2387}]",NA,NA,NA,NA,NA,0,#FA92F8,#1CD855,0,10,0,38,1,619.2999999821186,39,0,936.5,10,1,experiment,NA,NA,1,0.3,0.7,3,2,111,3,NA
fcp-trial,146,679784,0.0-121.0-0.0,voc_e2,11842,"[{""event"":""fullscreenenter"",""trial"":1,""time"":2387}]",NA,NA,NA,NA,NA,0,#3386FF,#D89F1C,10,10,0,38,1,1117.4000000059605,39,0,604.5,10,1,experiment,NA,NA,0,0.1,0.9,1,0,112,3,NA
fcp-trial,147,683685,0.0-122.0-0.0,voc_e2,11842,"[{""event"":""fullscreenenter"",""trial"":1,""time"":2387}]",NA,NA,NA,NA,NA,2,#741CD8,#D8271C,0,0,0,38,1,1497.800000011921,39,0,872.0999999940395,0,1,experiment,NA,NA,2,0.5,0.5,5,4,113,3,NA
fcp-trial,148,686484,0.0-123.0-0.0,voc_e2,11842,"[{""event"":""fullscreenenter"",""trial"":1,""time"":2387}]",NA,NA,NA,NA,NA,6,#3386FF,#D89F1C,0,10,0,40,0,840.8999999761581,37,1,444.90000000596046,0,0,experiment,NA,NA,0,0.1,0.9,1,0,114,3,NA
fcp-trial,149,690187,0.0-124.0-0.0,voc_e2,11842,"[{""event"":""fullscreenenter"",""trial"":1,""time"":2387}]",NA,NA,NA,NA,NA,2,#1CD855,#FA92F8,10,0,1,38,1,1610.5,37,1,585.6999999880791,10,1,experiment,NA,NA,1,0.7,0.3,2,3,115,3,NA
fcp-trial,150,693568,0.0-125.0-0.0,voc_e2,11842,"[{""event"":""fullscreenenter"",""trial"":1,""time"":2387}]",NA,NA,NA,NA,NA,4,#741CD8,#D8271C,10,10,0,40,0,1484.9000000059605,39,0,390.300000011921,10,1,experiment,NA,NA,2,0.5,0.5,5,4,116,3,NA
fcp-trial,151,696355,0.0-126.0-0.0,voc_e2,11842,"[{""event"":""fullscreenenter"",""trial"":1,""time"":2387}]",NA,NA,NA,NA,NA,2,#3386FF,#D89F1C,0,0,0,38,1,893.3000000119209,39,0,385.800000011921,0,1,experiment,NA,NA,0,0.1,0.9,1,0,117,3,NA
fcp-trial,152,699782,0.0-127.0-0.0,voc_e2,11842,"[{""event"":""fullscreenenter"",""trial"":1,""time"":2387}]",NA,NA,NA,NA,NA,3,#D8271C,#741CD8,10,0,1,38,1,1367.5,39,0,555.7000000178814,0,0,experiment,NA,NA,2,0.5,0.5,4,5,118,3,NA
fcp-trial,153,702773,0.0-128.0-0.0,voc_e2,11842,"[{""event"":""fullscreenenter"",""trial"":1,""time"":2387}]",NA,NA,NA,NA,NA,1,#FA92F8,#1CD855,0,10,0,38,1,573.8000000119209,39,0,912.399999976158,10,1,experiment,NA,NA,1,0.3,0.7,3,2,119,3,NA
fcp-trial,154,706018,0.0-129.0-0.0,voc_e2,11842,"[{""event"":""fullscreenenter"",""trial"":1,""time"":2387}]",NA,NA,NA,NA,NA,5,#1CD855,#FA92F8,0,10,1,40,0,1352.2000000178814,37,1,387.800000011921,0,1,experiment,NA,NA,1,0.7,0.3,2,3,120,3,NA
fcp-trial,155,708721,0.0-130.0-0.0,voc_e2,11842,"[{""event"":""fullscreenenter"",""trial"":1,""time"":2387}]",NA,NA,NA,NA,NA,1,#D89F1C,#3386FF,10,0,1,38,1,787.3000000119209,37,1,411.2999999821186,10,1,experiment,NA,NA,0,0.9,0.1,0,1,121,3,NA
fcp-trial,156,711471,0.0-131.0-0.0,voc_e2,11842,"[{""event"":""fullscreenenter"",""trial"":1,""time"":2387}]",NA,NA,NA,NA,NA,5,#741CD8,#D8271C,10,0,0,40,0,883.7000000178814,39,0,361.5,0,1,experiment,NA,NA,2,0.5,0.5,5,4,122,3,NA
fcp-trial,157,714907,0.0-132.0-0.0,voc_e2,11842,"[{""event"":""fullscreenenter"",""trial"":1,""time"":2387}]",NA,NA,NA,NA,NA,1,#741CD8,#D8271C,0,10,0,38,1,783.1999999880791,37,1,1148.300000011921,0,0,experiment,NA,NA,2,0.5,0.5,5,4,123,3,NA
fcp-trial,158,718587,0.0-133.0-0.0,voc_e2,11842,"[{""event"":""fullscreenenter"",""trial"":1,""time"":2387}]",NA,NA,NA,NA,NA,3,#D89F1C,#3386FF,10,10,1,38,1,1069.5,37,1,1107.5999999940395,10,1,experiment,NA,NA,0,0.9,0.1,0,1,124,3,NA
fcp-trial,159,721611,0.0-134.0-0.0,voc_e2,11842,"[{""event"":""fullscreenenter"",""trial"":1,""time"":2387}]",NA,NA,NA,NA,NA,3,#FA92F8,#1CD855,0,10,0,38,1,936.2000000178814,39,0,583.5999999940395,10,1,experiment,NA,NA,1,0.3,0.7,3,2,125,3,NA
fcp-trial,160,724178,0.0-135.0-0.0,voc_e2,11842,"[{""event"":""fullscreenenter"",""trial"":1,""time"":2387}]",NA,NA,NA,NA,NA,6,#FA92F8,#1CD855,0,10,0,40,0,654.0999999940395,37,1,408.90000000596046,0,0,experiment,NA,NA,1,0.3,0.7,3,2,126,3,NA
fcp-trial,161,727157,0.0-136.0-0.0,voc_e2,11842,"[{""event"":""fullscreenenter"",""trial"":1,""time"":2387}]",NA,NA,NA,NA,NA,4,#1CD855,#FA92F8,0,0,1,38,1,913.0999999940395,37,1,561.0999999940395,0,1,experiment,NA,NA,1,0.7,0.3,2,3,127,3,NA
fcp-trial,162,729901,0.0-137.0-0.0,voc_e2,11842,"[{""event"":""fullscreenenter"",""trial"":1,""time"":2387}]",NA,NA,NA,NA,NA,2,#1CD855,#FA92F8,10,0,1,38,1,857.9000000059605,37,1,383.10000002384186,10,1,experiment,NA,NA,1,0.7,0.3,2,3,128,3,NA
fcp-trial,163,732807,0.0-138.0-0.0,voc_e2,11842,"[{""event"":""fullscreenenter"",""trial"":1,""time"":2387}]",NA,NA,NA,NA,NA,5,#1CD855,#FA92F8,10,0,1,40,0,1084.7000000178814,39,0,316.09999999403954,0,0,experiment,NA,NA,1,0.7,0.3,2,3,129,3,NA
fcp-trial,164,735314,0.0-139.0-0.0,voc_e2,11842,"[{""event"":""fullscreenenter"",""trial"":1,""time"":2387}]",NA,NA,NA,NA,NA,1,#3386FF,#D89F1C,10,10,0,38,1,454.60000002384186,39,0,547.5,10,1,experiment,NA,NA,0,0.1,0.9,1,0,130,3,NA
fcp-trial,165,737927,0.0-140.0-0.0,voc_e2,11842,"[{""event"":""fullscreenenter"",""trial"":1,""time"":2387}]",NA,NA,NA,NA,NA,6,#3386FF,#D89F1C,0,10,0,40,0,733.9000000059605,39,0,374.7000000178814,10,1,experiment,NA,NA,0,0.1,0.9,1,0,131,3,NA
fcp-trial,166,741239,0.0-141.0-0.0,voc_e2,11842,"[{""event"":""fullscreenenter"",""trial"":1,""time"":2387}]",NA,NA,NA,NA,NA,4,#741CD8,#D8271C,0,0,0,40,0,1444.8999999761581,39,0,364,0,1,experiment,NA,NA,2,0.5,0.5,5,4,132,3,NA
fcp-trial,167,744350,0.0-142.0-0.0,voc_e2,11842,"[{""event"":""fullscreenenter"",""trial"":1,""time"":2387}]",NA,NA,NA,NA,NA,3,#1CD855,#FA92F8,10,0,1,38,1,855.0999999940395,37,1,752.3000000119209,10,1,experiment,NA,NA,1,0.7,0.3,2,3,133,3,NA
fcp-trial,168,747009,0.0-143.0-0.0,voc_e2,11842,"[{""event"":""fullscreenenter"",""trial"":1,""time"":2387}]",NA,NA,NA,NA,NA,2,#D8271C,#741CD8,0,10,1,38,1,698.5999999940395,37,1,454.40000000596046,0,1,experiment,NA,NA,2,0.5,0.5,4,5,134,3,NA
fcp-trial,169,749498,0.0-144.0-0.0,voc_e2,11842,"[{""event"":""fullscreenenter"",""trial"":1,""time"":2387}]",NA,NA,NA,NA,NA,0,#D8271C,#741CD8,10,10,1,38,1,627.4000000059605,37,1,357.19999998807907,10,1,experiment,NA,NA,2,0.5,0.5,4,5,135,3,NA
fcp-trial,170,751924,0.0-145.0-0.0,voc_e2,11842,"[{""event"":""fullscreenenter"",""trial"":1,""time"":2387}]",NA,NA,NA,NA,NA,0,#3386FF,#D89F1C,0,10,0,38,1,592.0999999940395,39,0,328.90000000596046,10,1,experiment,NA,NA,0,0.1,0.9,1,0,136,4,NA
fcp-trial,171,755194,0.0-146.0-0.0,voc_e2,11842,"[{""event"":""fullscreenenter"",""trial"":1,""time"":2387}]",NA,NA,NA,NA,NA,0,#1CD855,#FA92F8,10,0,1,38,1,1044.5,37,1,719.5,10,1,experiment,NA,NA,1,0.7,0.3,2,3,137,4,NA
fcp-trial,172,758093,0.0-147.0-0.0,voc_e2,11842,"[{""event"":""fullscreenenter"",""trial"":1,""time"":2387}]",NA,NA,NA,NA,NA,3,#D89F1C,#3386FF,10,0,1,38,1,898.6000000238419,37,1,496.09999999403954,10,1,experiment,NA,NA,0,0.9,0.1,0,1,138,4,NA
fcp-trial,173,761274,0.0-148.0-0.0,voc_e2,11842,"[{""event"":""fullscreenenter"",""trial"":1,""time"":2387}]",NA,NA,NA,NA,NA,1,#D8271C,#741CD8,10,10,1,38,1,1171.4000000059605,37,1,504.7000000178814,10,1,experiment,NA,NA,2,0.5,0.5,4,5,139,4,NA
fcp-trial,174,765416,0.0-149.0-0.0,voc_e2,11842,"[{""event"":""fullscreenenter"",""trial"":1,""time"":2387}]",NA,NA,NA,NA,NA,4,#D89F1C,#3386FF,10,0,1,38,1,2277.9000000059605,37,1,359.59999999403954,10,1,experiment,NA,NA,0,0.9,0.1,0,1,140,4,NA
fcp-trial,175,768532,0.0-150.0-0.0,voc_e2,11842,"[{""event"":""fullscreenenter"",""trial"":1,""time"":2387}]",NA,NA,NA,NA,NA,5,#D89F1C,#3386FF,10,0,1,38,1,1286.9000000059605,37,1,320.40000000596046,10,1,experiment,NA,NA,0,0.9,0.1,0,1,141,4,NA
fcp-trial,176,771109,0.0-151.0-0.0,voc_e2,11842,"[{""event"":""fullscreenenter"",""trial"":1,""time"":2387}]",NA,NA,NA,NA,NA,6,#1CD855,#FA92F8,10,10,1,40,0,650.5,39,0,420.7999999821186,10,0,experiment,NA,NA,1,0.7,0.3,2,3,142,4,NA
fcp-trial,177,774556,0.0-152.0-0.0,voc_e2,11842,"[{""event"":""fullscreenenter"",""trial"":1,""time"":2387}]",NA,NA,NA,NA,NA,5,#D8271C,#741CD8,10,10,1,40,0,1518.7999999821186,39,0,422.40000000596046,10,0,experiment,NA,NA,2,0.5,0.5,4,5,143,4,NA
fcp-trial,178,777884,0.0-153.0-0.0,voc_e2,11842,"[{""event"":""fullscreenenter"",""trial"":1,""time"":2387}]",NA,NA,NA,NA,NA,2,#3386FF,#D89F1C,0,10,0,38,1,1297.9000000059605,39,0,517.9000000059605,10,1,experiment,NA,NA,0,0.1,0.9,1,0,144,4,NA
fcp-trial,179,780644,0.0-154.0-0.0,voc_e2,11842,"[{""event"":""fullscreenenter"",""trial"":1,""time"":2387}]",NA,NA,NA,NA,NA,6,#741CD8,#D8271C,0,0,0,40,0,882.5999999940395,39,0,372.10000002384186,0,1,experiment,NA,NA,2,0.5,0.5,5,4,145,4,NA
fcp-trial,180,783429,0.0-155.0-0.0,voc_e2,11842,"[{""event"":""fullscreenenter"",""trial"":1,""time"":2387}]",NA,NA,NA,NA,NA,1,#1CD855,#FA92F8,10,0,1,38,1,699.5999999940395,37,1,580,10,1,experiment,NA,NA,1,0.7,0.3,2,3,146,4,NA
fcp-trial,181,786612,0.0-156.0-0.0,voc_e2,11842,"[{""event"":""fullscreenenter"",""trial"":1,""time"":2387}]",NA,NA,NA,NA,NA,3,#741CD8,#D8271C,0,10,0,38,1,1136.5999999940395,39,0,543,10,1,experiment,NA,NA,2,0.5,0.5,5,4,147,4,NA
fcp-trial,182,789699,0.0-157.0-0.0,voc_e2,11842,"[{""event"":""fullscreenenter"",""trial"":1,""time"":2387}]",NA,NA,NA,NA,NA,1,#D89F1C,#3386FF,0,0,1,38,1,1051.7000000178814,37,1,530.2999999821186,0,1,experiment,NA,NA,0,0.9,0.1,0,1,148,4,NA
fcp-trial,183,792578,0.0-158.0-0.0,voc_e2,11842,"[{""event"":""fullscreenenter"",""trial"":1,""time"":2387}]",NA,NA,NA,NA,NA,1,#1CD855,#FA92F8,0,0,1,38,1,1016.4000000059605,37,1,356.89999997615814,0,1,experiment,NA,NA,1,0.7,0.3,2,3,149,4,NA
fcp-trial,184,796166,0.0-159.0-0.0,voc_e2,11842,"[{""event"":""fullscreenenter"",""trial"":1,""time"":2387}]",NA,NA,NA,NA,NA,2,#1CD855,#FA92F8,10,0,1,40,0,1685.699999988079,39,0,398.2000000178814,0,0,experiment,NA,NA,1,0.7,0.3,2,3,150,4,NA
fcp-trial,185,798872,0.0-160.0-0.0,voc_e2,11842,"[{""event"":""fullscreenenter"",""trial"":1,""time"":2387}]",NA,NA,NA,NA,NA,0,#3386FF,#D89F1C,0,10,0,38,1,609.4000000059605,39,0,589.8999999761581,10,1,experiment,NA,NA,0,0.1,0.9,1,0,151,4,NA
fcp-trial,186,801739,0.0-161.0-0.0,voc_e2,11842,"[{""event"":""fullscreenenter"",""trial"":1,""time"":2387}]",NA,NA,NA,NA,NA,2,#D89F1C,#3386FF,10,0,1,38,1,638.4000000059605,37,1,722.5999999940395,10,1,experiment,NA,NA,0,0.9,0.1,0,1,152,4,NA
fcp-trial,187,805479,0.0-162.0-0.0,voc_e2,11842,"[{""event"":""fullscreenenter"",""trial"":1,""time"":2387}]",NA,NA,NA,NA,NA,4,#741CD8,#D8271C,0,0,0,38,1,1822.5,39,0,412.2000000178814,0,1,experiment,NA,NA,2,0.5,0.5,5,4,153,4,NA
fcp-trial,188,808647,0.0-163.0-0.0,voc_e2,11842,"[{""event"":""fullscreenenter"",""trial"":1,""time"":2387}]",NA,NA,NA,NA,NA,3,#1CD855,#FA92F8,0,0,1,38,1,522.3000000119209,37,1,1141.300000011921,0,1,experiment,NA,NA,1,0.7,0.3,2,3,154,4,NA
fcp-trial,189,811437,0.0-164.0-0.0,voc_e2,11842,"[{""event"":""fullscreenenter"",""trial"":1,""time"":2387}]",NA,NA,NA,NA,NA,2,#D8271C,#741CD8,10,10,1,38,1,849.2000000178814,37,1,436.09999999403954,10,1,experiment,NA,NA,2,0.5,0.5,4,5,155,4,NA
fcp-trial,190,814127,0.0-165.0-0.0,voc_e2,11842,"[{""event"":""fullscreenenter"",""trial"":1,""time"":2387}]",NA,NA,NA,NA,NA,6,#1CD855,#FA92F8,10,0,1,40,0,821.2999999821186,37,1,362.90000000596046,10,1,experiment,NA,NA,1,0.7,0.3,2,3,156,4,NA
fcp-trial,191,816770,0.0-166.0-0.0,voc_e2,11842,"[{""event"":""fullscreenenter"",""trial"":1,""time"":2387}]",NA,NA,NA,NA,NA,6,#D89F1C,#3386FF,0,0,1,40,0,797.5999999940395,37,1,339.59999999403954,0,1,experiment,NA,NA,0,0.9,0.1,0,1,157,4,NA
fcp-trial,192,820072,0.0-167.0-0.0,voc_e2,11842,"[{""event"":""fullscreenenter"",""trial"":1,""time"":2387}]",NA,NA,NA,NA,NA,0,#D8271C,#741CD8,0,10,1,38,1,1250,37,1,547.8000000119209,0,1,experiment,NA,NA,2,0.5,0.5,4,5,158,4,NA
fcp-trial,193,822881,0.0-168.0-0.0,voc_e2,11842,"[{""event"":""fullscreenenter"",""trial"":1,""time"":2387}]",NA,NA,NA,NA,NA,1,#D8271C,#741CD8,10,10,1,38,1,696.7999999821186,37,1,608,10,1,experiment,NA,NA,2,0.5,0.5,4,5,159,4,NA
fcp-trial,194,825777,0.0-169.0-0.0,voc_e2,11842,"[{""event"":""fullscreenenter"",""trial"":1,""time"":2387}]",NA,NA,NA,NA,NA,3,#D89F1C,#3386FF,10,0,1,38,1,1108.7000000178814,37,1,282.69999998807907,10,1,experiment,NA,NA,0,0.9,0.1,0,1,160,4,NA
fcp-trial,195,828489,0.0-170.0-0.0,voc_e2,11842,"[{""event"":""fullscreenenter"",""trial"":1,""time"":2387}]",NA,NA,NA,NA,NA,0,#1CD855,#FA92F8,0,10,1,38,1,636.2999999821186,37,1,571.5,0,1,experiment,NA,NA,1,0.7,0.3,2,3,161,4,NA
fcp-trial,196,831065,0.0-171.0-0.0,voc_e2,11842,"[{""event"":""fullscreenenter"",""trial"":1,""time"":2387}]",NA,NA,NA,NA,NA,5,#741CD8,#D8271C,10,0,0,40,0,620.3000000119209,37,1,450.300000011921,10,0,experiment,NA,NA,2,0.5,0.5,5,4,162,4,NA
fcp-trial,197,833722,0.0-172.0-0.0,voc_e2,11842,"[{""event"":""fullscreenenter"",""trial"":1,""time"":2387}]",NA,NA,NA,NA,NA,5,#3386FF,#D89F1C,10,10,0,40,0,700.3999999761581,37,1,450.90000000596046,10,0,experiment,NA,NA,0,0.1,0.9,1,0,163,4,NA
fcp-trial,198,836617,0.0-173.0-0.0,voc_e2,11842,"[{""event"":""fullscreenenter"",""trial"":1,""time"":2387}]",NA,NA,NA,NA,NA,4,#3386FF,#D89F1C,0,10,0,38,1,1082.699999988079,39,0,308.89999997615814,10,1,experiment,NA,NA,0,0.1,0.9,1,0,164,4,NA
fcp-trial,199,839260,0.0-174.0-0.0,voc_e2,11842,"[{""event"":""fullscreenenter"",""trial"":1,""time"":2387}]",NA,NA,NA,NA,NA,3,#D8271C,#741CD8,0,10,1,38,1,784.5999999940395,37,1,355.30000001192093,0,1,experiment,NA,NA,2,0.5,0.5,4,5,165,4,NA
fcp-trial,200,843928,0.0-175.0-0.0,voc_e2,11842,"[{""event"":""fullscreenenter"",""trial"":1,""time"":2387}]",NA,NA,NA,NA,NA,5,#1CD855,#FA92F8,0,0,1,40,0,2712.699999988079,39,0,450.40000000596046,0,0,experiment,NA,NA,1,0.7,0.3,2,3,166,4,NA
fcp-trial,201,846532,0.0-176.0-0.0,voc_e2,11842,"[{""event"":""fullscreenenter"",""trial"":1,""time"":2387}]",NA,NA,NA,NA,NA,4,#1CD855,#FA92F8,10,0,1,38,1,753.0999999940395,37,1,344.59999999403954,10,1,experiment,NA,NA,1,0.7,0.3,2,3,167,4,NA
fcp-trial,202,849485,0.0-177.0-0.0,voc_e2,11842,"[{""event"":""fullscreenenter"",""trial"":1,""time"":2387}]",NA,NA,NA,NA,NA,6,#741CD8,#D8271C,0,10,0,40,0,1023.2999999821186,37,1,423.59999999403954,0,0,experiment,NA,NA,2,0.5,0.5,5,4,168,4,NA
fcp-trial,203,852965,0.0-178.0-0.0,voc_e2,11842,"[{""event"":""fullscreenenter"",""trial"":1,""time"":2387}]",NA,NA,NA,NA,NA,1,#FA92F8,#1CD855,0,10,0,38,1,1562.699999988079,39,0,414,10,1,experiment,NA,NA,1,0.3,0.7,3,2,169,4,NA
fcp-trial,204,855828,0.0-179.0-0.0,voc_e2,11842,"[{""event"":""fullscreenenter"",""trial"":1,""time"":2387}]",NA,NA,NA,NA,NA,5,#1CD855,#FA92F8,10,0,1,40,0,988.7999999821186,39,0,367.90000000596046,0,0,experiment,NA,NA,1,0.7,0.3,2,3,170,4,NA
fcp-trial,205,858474,0.0-180.0-0.0,voc_e2,11842,"[{""event"":""fullscreenenter"",""trial"":1,""time"":2387}]",NA,NA,NA,NA,NA,6,#D8271C,#741CD8,0,10,1,40,0,728.5999999940395,39,0,413,10,0,experiment,NA,NA,2,0.5,0.5,4,5,171,4,NA
fcp-trial,206,861178,0.0-181.0-0.0,voc_e2,11842,"[{""event"":""fullscreenenter"",""trial"":1,""time"":2387}]",NA,NA,NA,NA,NA,5,#3386FF,#D89F1C,10,10,0,40,0,801.5,39,0,398.59999999403954,10,1,experiment,NA,NA,0,0.1,0.9,1,0,172,4,NA
fcp-trial,207,864969,0.0-182.0-0.0,voc_e2,11842,"[{""event"":""fullscreenenter"",""trial"":1,""time"":2387}]",NA,NA,NA,NA,NA,3,#FA92F8,#1CD855,0,10,0,40,0,1820.5999999940395,37,1,465.10000002384186,0,0,experiment,NA,NA,1,0.3,0.7,3,2,173,4,NA
fcp-trial,208,868943,0.0-183.0-0.0,voc_e2,11842,"[{""event"":""fullscreenenter"",""trial"":1,""time"":2387}]",NA,NA,NA,NA,NA,3,#741CD8,#D8271C,10,10,0,38,1,2067,37,1,402.09999999403954,10,0,experiment,NA,NA,2,0.5,0.5,5,4,174,4,NA
fcp-trial,209,872315,0.0-184.0-0.0,voc_e2,11842,"[{""event"":""fullscreenenter"",""trial"":1,""time"":2387}]",NA,NA,NA,NA,NA,3,#D89F1C,#3386FF,10,0,1,38,1,1506.5999999940395,37,1,362.5,10,1,experiment,NA,NA,0,0.9,0.1,0,1,175,4,NA
fcp-trial,210,875125,0.0-185.0-0.0,voc_e2,11842,"[{""event"":""fullscreenenter"",""trial"":1,""time"":2387}]",NA,NA,NA,NA,NA,2,#D8271C,#741CD8,10,10,1,38,1,803.5999999940395,39,0,500.5,10,0,experiment,NA,NA,2,0.5,0.5,4,5,176,4,NA
fcp-trial,211,877920,0.0-186.0-0.0,voc_e2,11842,"[{""event"":""fullscreenenter"",""trial"":1,""time"":2387}]",NA,NA,NA,NA,NA,4,#FA92F8,#1CD855,0,10,0,40,0,819.5999999940395,37,1,471.199999988079,0,0,experiment,NA,NA,1,0.3,0.7,3,2,177,4,NA
fcp-trial,212,881079,0.0-187.0-0.0,voc_e2,11842,"[{""event"":""fullscreenenter"",""trial"":1,""time"":2387}]",NA,NA,NA,NA,NA,4,#3386FF,#D89F1C,0,10,0,38,1,1363.699999988079,39,0,291.30000001192093,10,1,experiment,NA,NA,0,0.1,0.9,1,0,178,4,NA
fcp-trial,213,884227,0.0-188.0-0.0,voc_e2,11842,"[{""event"":""fullscreenenter"",""trial"":1,""time"":2387}]",NA,NA,NA,NA,NA,6,#1CD855,#FA92F8,10,10,1,40,0,1278.0999999940395,39,0,361.300000011921,10,0,experiment,NA,NA,1,0.7,0.3,2,3,179,4,NA
fcp-trial,214,887072,0.0-189.0-0.0,voc_e2,11842,"[{""event"":""fullscreenenter"",""trial"":1,""time"":2387}]",NA,NA,NA,NA,NA,2,#1CD855,#FA92F8,0,0,1,38,1,1026.6000000238419,37,1,313.5,0,1,experiment,NA,NA,1,0.7,0.3,2,3,180,4,NA
fcp-trial,215,890235,0.0-190.0-0.0,voc_e2,11842,"[{""event"":""fullscreenenter"",""trial"":1,""time"":2387}]",NA,NA,NA,NA,NA,1,#D8271C,#741CD8,0,10,1,38,1,1077.699999988079,39,0,581.6000000238419,10,0,experiment,NA,NA,2,0.5,0.5,4,5,181,5,NA
fcp-trial,216,893501,0.0-191.0-0.0,voc_e2,11842,"[{""event"":""fullscreenenter"",""trial"":1,""time"":2387}]",NA,NA,NA,NA,NA,4,#741CD8,#D8271C,0,10,0,40,0,1387.6000000238419,37,1,373.5,0,0,experiment,NA,NA,2,0.5,0.5,5,4,182,5,NA
fcp-trial,217,896612,0.0-192.0-0.0,voc_e2,11842,"[{""event"":""fullscreenenter"",""trial"":1,""time"":2387}]",NA,NA,NA,NA,NA,1,#3386FF,#D89F1C,10,10,0,38,1,614.0999999940395,39,0,992.5,10,1,experiment,NA,NA,0,0.1,0.9,1,0,183,5,NA
fcp-trial,218,899269,0.0-193.0-0.0,voc_e2,11842,"[{""event"":""fullscreenenter"",""trial"":1,""time"":2387}]",NA,NA,NA,NA,NA,0,#741CD8,#D8271C,0,0,0,38,1,734.9000000059605,37,1,416.90000000596046,0,0,experiment,NA,NA,2,0.5,0.5,5,4,184,5,NA
fcp-trial,219,902395,0.0-194.0-0.0,voc_e2,11842,"[{""event"":""fullscreenenter"",""trial"":1,""time"":2387}]",NA,NA,NA,NA,NA,0,#FA92F8,#1CD855,0,10,0,38,1,790.1999999880791,39,0,830.6999999880791,10,1,experiment,NA,NA,1,0.3,0.7,3,2,185,5,NA
fcp-trial,220,905531,0.0-195.0-0.0,voc_e2,11842,"[{""event"":""fullscreenenter"",""trial"":1,""time"":2387}]",NA,NA,NA,NA,NA,6,#3386FF,#D89F1C,0,10,0,40,0,1242.199999988079,37,1,389,0,0,experiment,NA,NA,0,0.1,0.9,1,0,186,5,NA
fcp-trial,221,908845,0.0-196.0-0.0,voc_e2,11842,"[{""event"":""fullscreenenter"",""trial"":1,""time"":2387}]",NA,NA,NA,NA,NA,5,#D8271C,#741CD8,10,10,1,40,0,1451.4000000059605,39,0,357.5,10,0,experiment,NA,NA,2,0.5,0.5,4,5,187,5,NA
fcp-trial,222,911484,0.0-197.0-0.0,voc_e2,11842,"[{""event"":""fullscreenenter"",""trial"":1,""time"":2387}]",NA,NA,NA,NA,NA,2,#D89F1C,#3386FF,10,0,1,38,1,814.9000000059605,37,1,319.5,10,1,experiment,NA,NA,0,0.9,0.1,0,1,188,5,NA
fcp-trial,223,914065,0.0-198.0-0.0,voc_e2,11842,"[{""event"":""fullscreenenter"",""trial"":1,""time"":2387}]",NA,NA,NA,NA,NA,0,#3386FF,#D89F1C,0,10,0,38,1,674.8000000119209,39,0,402.10000002384186,10,1,experiment,NA,NA,0,0.1,0.9,1,0,189,5,NA
fcp-trial,224,917748,0.0-199.0-0.0,voc_e2,11842,"[{""event"":""fullscreenenter"",""trial"":1,""time"":2387}]",NA,NA,NA,NA,NA,4,#741CD8,#D8271C,0,10,0,38,1,1220.300000011921,37,1,959.4000000059604,0,0,experiment,NA,NA,2,0.5,0.5,5,4,190,5,NA
fcp-trial,225,920280,0.0-200.0-0.0,voc_e2,11842,"[{""event"":""fullscreenenter"",""trial"":1,""time"":2387}]",NA,NA,NA,NA,NA,2,#D89F1C,#3386FF,10,0,1,38,1,670.7000000178814,37,1,356.80000001192093,10,1,experiment,NA,NA,0,0.9,0.1,0,1,191,5,NA
fcp-trial,226,923581,0.0-201.0-0.0,voc_e2,11842,"[{""event"":""fullscreenenter"",""trial"":1,""time"":2387}]",NA,NA,NA,NA,NA,4,#D89F1C,#3386FF,10,0,1,38,1,1418.699999988079,37,1,376.39999997615814,10,1,experiment,NA,NA,0,0.9,0.1,0,1,192,5,NA
fcp-trial,227,927180,0.0-202.0-0.0,voc_e2,11842,"[{""event"":""fullscreenenter"",""trial"":1,""time"":2387}]",NA,NA,NA,NA,NA,6,#FA92F8,#1CD855,0,10,0,40,0,1640.8999999761581,39,0,448.60000002384186,10,1,experiment,NA,NA,1,0.3,0.7,3,2,193,5,NA
fcp-trial,228,929789,0.0-203.0-0.0,voc_e2,11842,"[{""event"":""fullscreenenter"",""trial"":1,""time"":2387}]",NA,NA,NA,NA,NA,2,#FA92F8,#1CD855,0,10,0,38,1,657.5999999940395,39,0,446.300000011921,10,1,experiment,NA,NA,1,0.3,0.7,3,2,194,5,NA
fcp-trial,229,932745,0.0-204.0-0.0,voc_e2,11842,"[{""event"":""fullscreenenter"",""trial"":1,""time"":2387}]",NA,NA,NA,NA,NA,2,#D8271C,#741CD8,0,0,1,38,1,755.8000000119209,39,0,695.2999999821186,0,0,experiment,NA,NA,2,0.5,0.5,4,5,195,5,NA
fcp-trial,230,935632,0.0-205.0-0.0,voc_e2,11842,"[{""event"":""fullscreenenter"",""trial"":1,""time"":2387}]",NA,NA,NA,NA,NA,5,#3386FF,#D89F1C,0,10,0,40,0,1015.2999999821186,37,1,366,0,0,experiment,NA,NA,0,0.1,0.9,1,0,196,5,NA
fcp-trial,231,938802,0.0-206.0-0.0,voc_e2,11842,"[{""event"":""fullscreenenter"",""trial"":1,""time"":2387}]",NA,NA,NA,NA,NA,5,#D8271C,#741CD8,10,0,1,40,0,1320.300000011921,39,0,347.2000000178814,0,0,experiment,NA,NA,2,0.5,0.5,4,5,197,5,NA
fcp-trial,232,941434,0.0-207.0-0.0,voc_e2,11842,"[{""event"":""fullscreenenter"",""trial"":1,""time"":2387}]",NA,NA,NA,NA,NA,6,#3386FF,#D89F1C,0,10,0,40,0,739.9000000059605,39,0,386.2999999821186,10,1,experiment,NA,NA,0,0.1,0.9,1,0,198,5,NA
fcp-trial,233,943920,0.0-208.0-0.0,voc_e2,11842,"[{""event"":""fullscreenenter"",""trial"":1,""time"":2387}]",NA,NA,NA,NA,NA,5,#1CD855,#FA92F8,10,0,1,40,0,630,37,1,351.69999998807907,10,1,experiment,NA,NA,1,0.7,0.3,2,3,199,5,NA
fcp-trial,234,946795,0.0-209.0-0.0,voc_e2,11842,"[{""event"":""fullscreenenter"",""trial"":1,""time"":2387}]",NA,NA,NA,NA,NA,4,#FA92F8,#1CD855,0,10,0,38,1,957.7000000178814,39,0,413.09999999403954,10,1,experiment,NA,NA,1,0.3,0.7,3,2,200,5,NA
fcp-trial,235,949376,0.0-210.0-0.0,voc_e2,11842,"[{""event"":""fullscreenenter"",""trial"":1,""time"":2387}]",NA,NA,NA,NA,NA,3,#1CD855,#FA92F8,10,0,1,38,1,781.3000000119209,37,1,292.59999999403954,10,1,experiment,NA,NA,1,0.7,0.3,2,3,201,5,NA
fcp-trial,236,953426,0.0-211.0-0.0,voc_e2,11842,"[{""event"":""fullscreenenter"",""trial"":1,""time"":2387}]",NA,NA,NA,NA,NA,3,#D8271C,#741CD8,10,10,1,38,1,1697.5,39,0,849.0999999940395,10,0,experiment,NA,NA,2,0.5,0.5,4,5,202,5,NA
fcp-trial,237,956547,0.0-212.0-0.0,voc_e2,11842,"[{""event"":""fullscreenenter"",""trial"":1,""time"":2387}]",NA,NA,NA,NA,NA,0,#3386FF,#D89F1C,0,10,0,38,1,1001.9000000059605,39,0,614,10,1,experiment,NA,NA,0,0.1,0.9,1,0,203,5,NA
fcp-trial,238,961974,0.0-213.0-0.0,voc_e2,11842,"[{""event"":""fullscreenenter"",""trial"":1,""time"":2387}]",NA,NA,NA,NA,NA,1,#D8271C,#741CD8,0,10,1,38,1,2464,37,1,1458.699999988079,0,1,experiment,NA,NA,2,0.5,0.5,4,5,204,5,NA
fcp-trial,239,964505,0.0-214.0-0.0,voc_e2,11842,"[{""event"":""fullscreenenter"",""trial"":1,""time"":2387}]",NA,NA,NA,NA,NA,1,#3386FF,#D89F1C,0,10,0,38,1,644.6999999880791,39,0,380.699999988079,10,1,experiment,NA,NA,0,0.1,0.9,1,0,205,5,NA
fcp-trial,240,968171,0.0-215.0-0.0,voc_e2,11842,"[{""event"":""fullscreenenter"",""trial"":1,""time"":2387}]",NA,NA,NA,NA,NA,0,#1CD855,#FA92F8,10,0,1,38,1,669.3000000119209,37,1,1491.7999999821186,10,1,experiment,NA,NA,1,0.7,0.3,2,3,206,5,NA
fcp-trial,241,972012,0.0-216.0-0.0,voc_e2,11842,"[{""event"":""fullscreenenter"",""trial"":1,""time"":2387}]",NA,NA,NA,NA,NA,0,#741CD8,#D8271C,0,0,0,38,1,805.7999999821186,37,1,1531,0,0,experiment,NA,NA,2,0.5,0.5,5,4,207,5,NA
fcp-trial,242,974682,0.0-217.0-0.0,voc_e2,11842,"[{""event"":""fullscreenenter"",""trial"":1,""time"":2387}]",NA,NA,NA,NA,NA,1,#FA92F8,#1CD855,0,10,0,38,1,767.0999999940395,39,0,395.90000000596046,10,1,experiment,NA,NA,1,0.3,0.7,3,2,208,5,NA
fcp-trial,243,977384,0.0-218.0-0.0,voc_e2,11842,"[{""event"":""fullscreenenter"",""trial"":1,""time"":2387}]",NA,NA,NA,NA,NA,3,#D89F1C,#3386FF,10,0,1,38,1,596.2000000178814,37,1,601.7000000178814,10,1,experiment,NA,NA,0,0.9,0.1,0,1,209,5,NA
fcp-trial,244,980201,0.0-219.0-0.0,voc_e2,11842,"[{""event"":""fullscreenenter"",""trial"":1,""time"":2387}]",NA,NA,NA,NA,NA,6,#741CD8,#D8271C,0,10,0,40,0,910.7999999821186,37,1,400.5,0,0,experiment,NA,NA,2,0.5,0.5,5,4,210,5,NA
audio-instructions,245,986220,0.0-220.0,voc_e2,11842,"[{""event"":""fullscreenenter"",""trial"":1,""time"":2387}]",NA,1411,static/audio/pause.wav,NA,0,NA,NA,NA,NA,NA,NA,NA,NA,NA,NA,NA,NA,NA,NA,NA,NA,NA,NA,NA,NA,NA,NA,NA,NA,NA
fcp-trial,246,991113,0.0-221.0-0.0,voc_e2,11842,"[{""event"":""fullscreenenter"",""trial"":1,""time"":2387}]",NA,NA,NA,NA,NA,1,#3386FF,#D89F1C,0,0,0,38,1,1849.9000000059605,39,0,1532.0999999940395,0,1,experiment,NA,NA,0,0.1,0.9,1,0,211,5,NA
fcp-trial,247,993963,0.0-222.0-0.0,voc_e2,11842,"[{""event"":""fullscreenenter"",""trial"":1,""time"":2387}]",NA,NA,NA,NA,NA,1,#D8271C,#741CD8,10,10,1,38,1,700.2000000178814,39,0,628.9000000059605,10,0,experiment,NA,NA,2,0.5,0.5,4,5,212,5,NA
fcp-trial,248,996763,0.0-223.0-0.0,voc_e2,11842,"[{""event"":""fullscreenenter"",""trial"":1,""time"":2387}]",NA,NA,NA,NA,NA,5,#D89F1C,#3386FF,10,0,1,40,0,902.5999999940395,37,1,370.59999999403954,10,1,experiment,NA,NA,0,0.9,0.1,0,1,213,5,NA
fcp-trial,249,999746,0.0-224.0-0.0,voc_e2,11842,"[{""event"":""fullscreenenter"",""trial"":1,""time"":2387}]",NA,NA,NA,NA,NA,1,#1CD855,#FA92F8,10,0,1,38,1,608.5,37,1,851.1999999880791,10,1,experiment,NA,NA,1,0.7,0.3,2,3,214,5,NA
fcp-trial,250,1002797,0.0-225.0-0.0,voc_e2,11842,"[{""event"":""fullscreenenter"",""trial"":1,""time"":2387}]",NA,NA,NA,NA,NA,3,#D89F1C,#3386FF,10,0,1,38,1,672.7000000178814,37,1,868.0999999940395,10,1,experiment,NA,NA,0,0.9,0.1,0,1,215,5,NA
fcp-trial,251,1006513,0.0-226.0-0.0,voc_e2,11842,"[{""event"":""fullscreenenter"",""trial"":1,""time"":2387}]",NA,NA,NA,NA,NA,2,#741CD8,#D8271C,10,10,0,38,1,557.1999999880791,37,1,1647.7000000178814,10,0,experiment,NA,NA,2,0.5,0.5,5,4,216,5,NA
fcp-trial,252,1009313,0.0-227.0-0.0,voc_e2,11842,"[{""event"":""fullscreenenter"",""trial"":1,""time"":2387}]",NA,NA,NA,NA,NA,6,#D8271C,#741CD8,0,10,1,40,0,846.6999999880791,39,0,423.09999999403954,10,0,experiment,NA,NA,2,0.5,0.5,4,5,217,5,NA
fcp-trial,253,1011945,0.0-228.0-0.0,voc_e2,11842,"[{""event"":""fullscreenenter"",""trial"":1,""time"":2387}]",NA,NA,NA,NA,NA,6,#3386FF,#D89F1C,0,10,0,40,0,709.6999999880791,37,1,409,0,0,experiment,NA,NA,0,0.1,0.9,1,0,218,5,NA
fcp-trial,254,1014965,0.0-229.0-0.0,voc_e2,11842,"[{""event"":""fullscreenenter"",""trial"":1,""time"":2387}]",NA,NA,NA,NA,NA,2,#FA92F8,#1CD855,0,10,0,38,1,638.6999999880791,39,0,868.5,10,1,experiment,NA,NA,1,0.3,0.7,3,2,219,5,NA
fcp-trial,255,1017774,0.0-230.0-0.0,voc_e2,11842,"[{""event"":""fullscreenenter"",""trial"":1,""time"":2387}]",NA,NA,NA,NA,NA,0,#1CD855,#FA92F8,10,0,1,38,1,747.7999999821186,37,1,554.6000000238419,10,1,experiment,NA,NA,1,0.7,0.3,2,3,220,5,NA
fcp-trial,256,1020970,0.0-231.0-0.0,voc_e2,11842,"[{""event"":""fullscreenenter"",""trial"":1,""time"":2387}]",NA,NA,NA,NA,NA,5,#D8271C,#741CD8,10,10,1,40,0,1264.4000000059605,37,1,427.5,10,1,experiment,NA,NA,2,0.5,0.5,4,5,221,5,NA
fcp-trial,257,1024848,0.0-232.0-0.0,voc_e2,11842,"[{""event"":""fullscreenenter"",""trial"":1,""time"":2387}]",NA,NA,NA,NA,NA,0,#3386FF,#D89F1C,0,10,0,38,1,812.6000000238419,39,0,1562.199999988079,10,1,experiment,NA,NA,0,0.1,0.9,1,0,222,5,NA
fcp-trial,258,1028008,0.0-233.0-0.0,voc_e2,11842,"[{""event"":""fullscreenenter"",""trial"":1,""time"":2387}]",NA,NA,NA,NA,NA,4,#D89F1C,#3386FF,10,0,1,38,1,970,37,1,685.6000000238419,10,1,experiment,NA,NA,0,0.9,0.1,0,1,223,5,NA
fcp-trial,259,1031020,0.0-234.0-0.0,voc_e2,11842,"[{""event"":""fullscreenenter"",""trial"":1,""time"":2387}]",NA,NA,NA,NA,NA,4,#741CD8,#D8271C,10,10,0,40,0,1103.5,37,1,402.800000011921,10,0,experiment,NA,NA,2,0.5,0.5,5,4,224,5,NA
fcp-trial,260,1034213,0.0-235.0-0.0,voc_e2,11842,"[{""event"":""fullscreenenter"",""trial"":1,""time"":2387}]",NA,NA,NA,NA,NA,4,#FA92F8,#1CD855,0,0,0,40,0,1295.7000000178814,37,1,386.699999988079,0,0,experiment,NA,NA,1,0.3,0.7,3,2,225,5,NA
fcp-trial,261,1037300,0.0-236.0-0.0,voc_e2,11842,"[{""event"":""fullscreenenter"",""trial"":1,""time"":2387}]",NA,NA,NA,NA,NA,3,#FA92F8,#1CD855,0,10,0,38,1,1302.3999999761581,39,0,280.5,10,1,experiment,NA,NA,1,0.3,0.7,3,2,226,6,NA
fcp-trial,262,1040785,0.0-237.0-0.0,voc_e2,11842,"[{""event"":""fullscreenenter"",""trial"":1,""time"":2387}]",NA,NA,NA,NA,NA,2,#D89F1C,#3386FF,10,0,1,38,1,1639.0999999940395,37,1,341.59999999403954,10,1,experiment,NA,NA,0,0.9,0.1,0,1,227,6,NA
fcp-trial,263,1043889,0.0-238.0-0.0,voc_e2,11842,"[{""event"":""fullscreenenter"",""trial"":1,""time"":2387}]",NA,NA,NA,NA,NA,3,#D8271C,#741CD8,10,0,1,40,0,1155.2999999821186,39,0,442.09999999403954,0,0,experiment,NA,NA,2,0.5,0.5,4,5,228,6,NA
fcp-trial,264,1048889,0.0-239.0-0.0,voc_e2,11842,"[{""event"":""fullscreenenter"",""trial"":1,""time"":2387}]",NA,NA,NA,NA,NA,0,#D8271C,#741CD8,10,0,1,38,1,1157.800000011921,39,0,2338.800000011921,0,0,experiment,NA,NA,2,0.5,0.5,4,5,229,6,NA
fcp-trial,265,1051811,0.0-240.0-0.0,voc_e2,11842,"[{""event"":""fullscreenenter"",""trial"":1,""time"":2387}]",NA,NA,NA,NA,NA,6,#FA92F8,#1CD855,10,10,0,40,0,949.2999999821186,39,0,459.2000000178814,10,1,experiment,NA,NA,1,0.3,0.7,3,2,230,6,NA
fcp-trial,266,1055027,0.0-241.0-0.0,voc_e2,11842,"[{""event"":""fullscreenenter"",""trial"":1,""time"":2387}]",NA,NA,NA,NA,NA,5,#FA92F8,#1CD855,0,0,0,38,1,1015.6000000238419,39,0,688.5999999940395,0,1,experiment,NA,NA,1,0.3,0.7,3,2,231,6,NA
fcp-trial,267,1059191,0.0-242.0-0.0,voc_e2,11842,"[{""event"":""fullscreenenter"",""trial"":1,""time"":2387}]",NA,NA,NA,NA,NA,0,#741CD8,#D8271C,10,10,0,38,1,1470.199999988079,37,1,1188.4000000059605,10,0,experiment,NA,NA,2,0.5,0.5,5,4,232,6,NA
fcp-trial,268,1062506,0.0-243.0-0.0,voc_e2,11842,"[{""event"":""fullscreenenter"",""trial"":1,""time"":2387}]",NA,NA,NA,NA,NA,4,#3386FF,#D89F1C,0,10,0,38,1,1430.2000000178814,39,0,380.59999999403954,10,1,experiment,NA,NA,0,0.1,0.9,1,0,233,6,NA
fcp-trial,269,1065114,0.0-244.0-0.0,voc_e2,11842,"[{""event"":""fullscreenenter"",""trial"":1,""time"":2387}]",NA,NA,NA,NA,NA,6,#FA92F8,#1CD855,10,10,0,40,0,714.8000000119209,39,0,388.89999997615814,10,1,experiment,NA,NA,1,0.3,0.7,3,2,234,6,NA
fcp-trial,270,1068151,0.0-245.0-0.0,voc_e2,11842,"[{""event"":""fullscreenenter"",""trial"":1,""time"":2387}]",NA,NA,NA,NA,NA,0,#1CD855,#FA92F8,0,0,1,38,1,875.5999999940395,37,1,656.6000000238419,0,1,experiment,NA,NA,1,0.7,0.3,2,3,235,6,NA
fcp-trial,271,1071662,0.0-246.0-0.0,voc_e2,11842,"[{""event"":""fullscreenenter"",""trial"":1,""time"":2387}]",NA,NA,NA,NA,NA,1,#741CD8,#D8271C,0,10,0,38,1,1099.699999988079,37,1,906.8000000119208,0,0,experiment,NA,NA,2,0.5,0.5,5,4,236,6,NA
fcp-trial,272,1074743,0.0-247.0-0.0,voc_e2,11842,"[{""event"":""fullscreenenter"",""trial"":1,""time"":2387}]",NA,NA,NA,NA,NA,1,#1CD855,#FA92F8,0,0,1,38,1,927.7999999821186,37,1,648.2000000178814,0,1,experiment,NA,NA,1,0.7,0.3,2,3,237,6,NA
fcp-trial,273,1077512,0.0-248.0-0.0,voc_e2,11842,"[{""event"":""fullscreenenter"",""trial"":1,""time"":2387}]",NA,NA,NA,NA,NA,0,#3386FF,#D89F1C,0,10,0,38,1,661.4000000059605,39,0,600.7999999821186,10,1,experiment,NA,NA,0,0.1,0.9,1,0,238,6,NA
fcp-trial,274,1080371,0.0-249.0-0.0,voc_e2,11842,"[{""event"":""fullscreenenter"",""trial"":1,""time"":2387}]",NA,NA,NA,NA,NA,4,#741CD8,#D8271C,10,0,0,40,0,979.8000000119209,39,0,373,0,1,experiment,NA,NA,2,0.5,0.5,5,4,239,6,NA
fcp-trial,275,1083142,0.0-250.0-0.0,voc_e2,11842,"[{""event"":""fullscreenenter"",""trial"":1,""time"":2387}]",NA,NA,NA,NA,NA,6,#D8271C,#741CD8,10,0,1,40,0,860.7000000178814,39,0,406.2000000178814,0,0,experiment,NA,NA,2,0.5,0.5,4,5,240,6,NA
fcp-trial,276,1087810,0.0-251.0-0.0,voc_e2,11842,"[{""event"":""fullscreenenter"",""trial"":1,""time"":2387}]",NA,NA,NA,NA,NA,2,#3386FF,#D89F1C,0,10,0,38,1,1308.3999999761581,39,0,1852.0999999940395,10,1,experiment,NA,NA,0,0.1,0.9,1,0,241,6,NA
fcp-trial,277,1090528,0.0-252.0-0.0,voc_e2,11842,"[{""event"":""fullscreenenter"",""trial"":1,""time"":2387}]",NA,NA,NA,NA,NA,2,#1CD855,#FA92F8,0,0,1,38,1,609.7999999821186,37,1,601.4000000059605,0,1,experiment,NA,NA,1,0.7,0.3,2,3,242,6,NA
fcp-trial,278,1095568,0.0-253.0-0.0,voc_e2,11842,"[{""event"":""fullscreenenter"",""trial"":1,""time"":2387}]",NA,NA,NA,NA,NA,3,#D8271C,#741CD8,0,10,1,38,1,1466.800000011921,39,0,2068.300000011921,10,0,experiment,NA,NA,2,0.5,0.5,4,5,243,6,NA
fcp-trial,279,1098696,0.0-254.0-0.0,voc_e2,11842,"[{""event"":""fullscreenenter"",""trial"":1,""time"":2387}]",NA,NA,NA,NA,NA,6,#3386FF,#D89F1C,0,10,0,40,0,1009,39,0,614,10,1,experiment,NA,NA,0,0.1,0.9,1,0,244,6,NA
fcp-trial,280,1101387,0.0-255.0-0.0,voc_e2,11842,"[{""event"":""fullscreenenter"",""trial"":1,""time"":2387}]",NA,NA,NA,NA,NA,3,#D89F1C,#3386FF,10,10,1,38,1,817.5,37,1,368.5,10,1,experiment,NA,NA,0,0.9,0.1,0,1,245,6,NA
fcp-trial,281,1104882,0.0-256.0-0.0,voc_e2,11842,"[{""event"":""fullscreenenter"",""trial"":1,""time"":2387}]",NA,NA,NA,NA,NA,5,#FA92F8,#1CD855,0,10,0,40,0,1639.7000000178814,39,0,350.59999999403954,10,1,experiment,NA,NA,1,0.3,0.7,3,2,246,6,NA
fcp-trial,282,1107972,0.0-257.0-0.0,voc_e2,11842,"[{""event"":""fullscreenenter"",""trial"":1,""time"":2387}]",NA,NA,NA,NA,NA,1,#3386FF,#D89F1C,0,10,0,38,1,1089.9000000059605,39,0,495.59999999403954,10,1,experiment,NA,NA,0,0.1,0.9,1,0,247,6,NA
fcp-trial,283,1114368,0.0-258.0-0.0,voc_e2,11842,"[{""event"":""fullscreenenter"",""trial"":1,""time"":2387}]",NA,NA,NA,NA,NA,2,#D8271C,#741CD8,0,10,1,38,1,1331.5,39,0,3559.4000000059605,10,0,experiment,NA,NA,2,0.5,0.5,4,5,248,6,NA
fcp-trial,284,1118617,0.0-259.0-0.0,voc_e2,11842,"[{""event"":""fullscreenenter"",""trial"":1,""time"":2387}]",NA,NA,NA,NA,NA,4,#1CD855,#FA92F8,10,10,1,40,0,2258.5,37,1,486,10,1,experiment,NA,NA,1,0.7,0.3,2,3,249,6,NA
fcp-trial,285,1121976,0.0-260.0-0.0,voc_e2,11842,"[{""event"":""fullscreenenter"",""trial"":1,""time"":2387}]",NA,NA,NA,NA,NA,5,#3386FF,#D89F1C,0,10,0,38,1,1558.8999999761581,39,0,295.30000001192093,10,1,experiment,NA,NA,0,0.1,0.9,1,0,250,6,NA
fcp-trial,286,1125394,0.0-261.0-0.0,voc_e2,11842,"[{""event"":""fullscreenenter"",""trial"":1,""time"":2387}]",NA,NA,NA,NA,NA,5,#D8271C,#741CD8,10,0,1,40,0,1385.699999988079,37,1,525,10,1,experiment,NA,NA,2,0.5,0.5,4,5,251,6,NA
fcp-trial,287,1129047,0.0-262.0-0.0,voc_e2,11842,"[{""event"":""fullscreenenter"",""trial"":1,""time"":2387}]",NA,NA,NA,NA,NA,3,#1CD855,#FA92F8,0,10,1,38,1,1761.4000000059605,37,1,388,0,1,experiment,NA,NA,1,0.7,0.3,2,3,252,6,NA
fcp-trial,288,1132730,0.0-263.0-0.0,voc_e2,11842,"[{""event"":""fullscreenenter"",""trial"":1,""time"":2387}]",NA,NA,NA,NA,NA,2,#D8271C,#741CD8,0,10,1,38,1,838.2000000178814,39,0,1339.300000011921,10,0,experiment,NA,NA,2,0.5,0.5,4,5,253,6,NA
fcp-trial,289,1137313,0.0-264.0-0.0,voc_e2,11842,"[{""event"":""fullscreenenter"",""trial"":1,""time"":2387}]",NA,NA,NA,NA,NA,3,#3386FF,#D89F1C,0,10,0,38,1,2756,39,0,323.40000000596046,10,1,experiment,NA,NA,0,0.1,0.9,1,0,254,6,NA
fcp-trial,290,1140085,0.0-265.0-0.0,voc_e2,11842,"[{""event"":""fullscreenenter"",""trial"":1,""time"":2387}]",NA,NA,NA,NA,NA,1,#3386FF,#D89F1C,10,10,0,38,1,952.5999999940395,39,0,314.5,10,1,experiment,NA,NA,0,0.1,0.9,1,0,255,6,NA
fcp-trial,291,1144114,0.0-266.0-0.0,voc_e2,11842,"[{""event"":""fullscreenenter"",""trial"":1,""time"":2387}]",NA,NA,NA,NA,NA,6,#D89F1C,#3386FF,10,0,1,40,0,2039.5999999940395,39,0,485,0,0,experiment,NA,NA,0,0.9,0.1,0,1,256,6,NA
fcp-trial,292,1147125,0.0-267.0-0.0,voc_e2,11842,"[{""event"":""fullscreenenter"",""trial"":1,""time"":2387}]",NA,NA,NA,NA,NA,0,#FA92F8,#1CD855,0,10,0,38,1,523.3000000119209,39,0,983.100000023842,10,1,experiment,NA,NA,1,0.3,0.7,3,2,257,6,NA
fcp-trial,293,1149880,0.0-268.0-0.0,voc_e2,11842,"[{""event"":""fullscreenenter"",""trial"":1,""time"":2387}]",NA,NA,NA,NA,NA,6,#D8271C,#741CD8,10,10,1,40,0,870.2999999821186,39,0,379.2999999821186,10,0,experiment,NA,NA,2,0.5,0.5,4,5,258,6,NA
fcp-trial,294,1152621,0.0-269.0-0.0,voc_e2,11842,"[{""event"":""fullscreenenter"",""trial"":1,""time"":2387}]",NA,NA,NA,NA,NA,6,#1CD855,#FA92F8,10,10,1,40,0,845.7999999821186,39,0,390.800000011921,10,0,experiment,NA,NA,1,0.7,0.3,2,3,259,6,NA
fcp-trial,295,1155923,0.0-270.0-0.0,voc_e2,11842,"[{""event"":""fullscreenenter"",""trial"":1,""time"":2387}]",NA,NA,NA,NA,NA,0,#D89F1C,#3386FF,10,0,1,38,1,915.2000000178814,37,1,881.6999999880791,10,1,experiment,NA,NA,0,0.9,0.1,0,1,260,6,NA
fcp-trial,296,1159435,0.0-271.0-0.0,voc_e2,11842,"[{""event"":""fullscreenenter"",""trial"":1,""time"":2387}]",NA,NA,NA,NA,NA,4,#1CD855,#FA92F8,10,0,1,40,0,1565.5999999940395,39,0,442.10000002384186,0,0,experiment,NA,NA,1,0.7,0.3,2,3,261,6,NA
fcp-trial,297,1163224,0.0-272.0-0.0,voc_e2,11842,"[{""event"":""fullscreenenter"",""trial"":1,""time"":2387}]",NA,NA,NA,NA,NA,1,#741CD8,#D8271C,10,0,0,38,1,1531.199999988079,39,0,753.8000000119209,0,1,experiment,NA,NA,2,0.5,0.5,5,4,262,6,NA
fcp-trial,298,1167406,0.0-273.0-0.0,voc_e2,11842,"[{""event"":""fullscreenenter"",""trial"":1,""time"":2387}]",NA,NA,NA,NA,NA,5,#D89F1C,#3386FF,10,0,1,38,1,2344.5999999940395,37,1,329.80000001192093,10,1,experiment,NA,NA,0,0.9,0.1,0,1,263,6,NA
fcp-trial,299,1171256,0.0-274.0-0.0,voc_e2,11842,"[{""event"":""fullscreenenter"",""trial"":1,""time"":2387}]",NA,NA,NA,NA,NA,3,#1CD855,#FA92F8,10,0,1,38,1,1209.5,37,1,1136.4000000059605,10,1,experiment,NA,NA,1,0.7,0.3,2,3,264,6,NA
fcp-trial,300,1175925,0.0-275.0-0.0,voc_e2,11842,"[{""event"":""fullscreenenter"",""trial"":1,""time"":2387}]",NA,NA,NA,NA,NA,3,#D8271C,#741CD8,10,0,1,40,0,2767.2999999821186,39,0,396.800000011921,0,0,experiment,NA,NA,2,0.5,0.5,4,5,265,6,NA
fcp-trial,301,1179949,0.0-276.0-0.0,voc_e2,11842,"[{""event"":""fullscreenenter"",""trial"":1,""time"":2387}]",NA,NA,NA,NA,NA,2,#FA92F8,#1CD855,10,10,0,38,1,1477.5999999940395,39,0,1040,10,1,experiment,NA,NA,1,0.3,0.7,3,2,266,6,NA
fcp-trial,302,1183993,0.0-277.0-0.0,voc_e2,11842,"[{""event"":""fullscreenenter"",""trial"":1,""time"":2387}]",NA,NA,NA,NA,NA,5,#1CD855,#FA92F8,10,0,1,40,0,1896.9000000059605,39,0,642.9000000059605,0,0,experiment,NA,NA,1,0.7,0.3,2,3,267,6,NA
fcp-trial,303,1187567,0.0-278.0-0.0,voc_e2,11842,"[{""event"":""fullscreenenter"",""trial"":1,""time"":2387}]",NA,NA,NA,NA,NA,2,#D89F1C,#3386FF,10,0,1,38,1,892.4000000059605,37,1,1176.300000011921,10,1,experiment,NA,NA,0,0.9,0.1,0,1,268,6,NA
fcp-trial,304,1192103,0.0-279.0-0.0,voc_e2,11842,"[{""event"":""fullscreenenter"",""trial"":1,""time"":2387}]",NA,NA,NA,NA,NA,0,#741CD8,#D8271C,0,0,0,38,1,910.1999999880791,37,1,2120.699999988079,0,0,experiment,NA,NA,2,0.5,0.5,5,4,269,6,NA
fcp-trial,305,1195100,0.0-280.0-0.0,voc_e2,11842,"[{""event"":""fullscreenenter"",""trial"":1,""time"":2387}]",NA,NA,NA,NA,NA,4,#741CD8,#D8271C,0,0,0,40,0,1122.699999988079,37,1,362.5,0,0,experiment,NA,NA,2,0.5,0.5,5,4,270,6,NA
fcp-trial,306,1197724,0.0-281.0-0.0,voc_e2,11842,"[{""event"":""fullscreenenter"",""trial"":1,""time"":2387}]",NA,NA,NA,NA,NA,5,#741CD8,#D8271C,0,10,0,40,0,807.3000000119209,37,1,312.7999999821186,0,0,experiment,NA,NA,2,0.5,0.5,5,4,271,7,NA
fcp-trial,307,1201307,0.0-282.0-0.0,voc_e2,11842,"[{""event"":""fullscreenenter"",""trial"":1,""time"":2387}]",NA,NA,NA,NA,NA,1,#1CD855,#FA92F8,10,0,1,38,1,1391.7000000178814,37,1,685.9000000059605,10,1,experiment,NA,NA,1,0.7,0.3,2,3,272,7,NA
fcp-trial,308,1204311,0.0-283.0-0.0,voc_e2,11842,"[{""event"":""fullscreenenter"",""trial"":1,""time"":2387}]",NA,NA,NA,NA,NA,4,#3386FF,#D89F1C,0,0,0,40,0,1019.5,39,0,478.800000011921,0,1,experiment,NA,NA,0,0.1,0.9,1,0,273,7,NA
fcp-trial,309,1207773,0.0-284.0-0.0,voc_e2,11842,"[{""event"":""fullscreenenter"",""trial"":1,""time"":2387}]",NA,NA,NA,NA,NA,0,#D8271C,#741CD8,10,10,1,38,1,1099.699999988079,39,0,857.3999999761581,10,0,experiment,NA,NA,2,0.5,0.5,4,5,274,7,NA
fcp-trial,310,1210370,0.0-285.0-0.0,voc_e2,11842,"[{""event"":""fullscreenenter"",""trial"":1,""time"":2387}]",NA,NA,NA,NA,NA,2,#D89F1C,#3386FF,10,0,1,38,1,746.0999999940395,37,1,345.80000001192093,10,1,experiment,NA,NA,0,0.9,0.1,0,1,275,7,NA
fcp-trial,311,1213449,0.0-286.0-0.0,voc_e2,11842,"[{""event"":""fullscreenenter"",""trial"":1,""time"":2387}]",NA,NA,NA,NA,NA,4,#D89F1C,#3386FF,10,0,1,38,1,1173.5999999940395,37,1,400,10,1,experiment,NA,NA,0,0.9,0.1,0,1,276,7,NA
fcp-trial,312,1216501,0.0-287.0-0.0,voc_e2,11842,"[{""event"":""fullscreenenter"",""trial"":1,""time"":2387}]",NA,NA,NA,NA,NA,2,#1CD855,#FA92F8,0,10,1,38,1,825.5999999940395,37,1,722.4000000059605,0,1,experiment,NA,NA,1,0.7,0.3,2,3,277,7,NA
fcp-trial,313,1219450,0.0-288.0-0.0,voc_e2,11842,"[{""event"":""fullscreenenter"",""trial"":1,""time"":2387}]",NA,NA,NA,NA,NA,6,#1CD855,#FA92F8,0,0,1,40,0,1100.5999999940395,37,1,343.19999998807907,0,1,experiment,NA,NA,1,0.7,0.3,2,3,278,7,NA
fcp-trial,314,1222486,0.0-289.0-0.0,voc_e2,11842,"[{""event"":""fullscreenenter"",""trial"":1,""time"":2387}]",NA,NA,NA,NA,NA,6,#D8271C,#741CD8,10,0,1,40,0,1153.0999999940395,37,1,377.5,10,1,experiment,NA,NA,2,0.5,0.5,4,5,279,7,NA
fcp-trial,315,1226517,0.0-290.0-0.0,voc_e2,11842,"[{""event"":""fullscreenenter"",""trial"":1,""time"":2387}]",NA,NA,NA,NA,NA,3,#FA92F8,#1CD855,10,0,0,38,1,1159.5,39,0,1367.7999999821186,0,1,experiment,NA,NA,1,0.3,0.7,3,2,280,7,NA
fcp-trial,316,1229422,0.0-291.0-0.0,voc_e2,11842,"[{""event"":""fullscreenenter"",""trial"":1,""time"":2387}]",NA,NA,NA,NA,NA,3,#3386FF,#D89F1C,0,10,0,38,1,975.6999999880791,39,0,424.7000000178814,10,1,experiment,NA,NA,0,0.1,0.9,1,0,281,7,NA
fcp-trial,317,1233207,0.0-292.0-0.0,voc_e2,11842,"[{""event"":""fullscreenenter"",""trial"":1,""time"":2387}]",NA,NA,NA,NA,NA,1,#741CD8,#D8271C,0,0,0,38,1,916.5,37,1,1362,0,0,experiment,NA,NA,2,0.5,0.5,5,4,282,7,NA
fcp-trial,318,1236998,0.0-293.0-0.0,voc_e2,11842,"[{""event"":""fullscreenenter"",""trial"":1,""time"":2387}]",NA,NA,NA,NA,NA,5,#3386FF,#D89F1C,0,10,0,40,0,1770.800000011921,37,1,513.7999999821186,0,0,experiment,NA,NA,0,0.1,0.9,1,0,283,7,NA
fcp-trial,319,1241697,0.0-294.0-0.0,voc_e2,11842,"[{""event"":""fullscreenenter"",""trial"":1,""time"":2387}]",NA,NA,NA,NA,NA,4,#FA92F8,#1CD855,10,10,0,40,0,2769.800000011921,37,1,424.7000000178814,10,0,experiment,NA,NA,1,0.3,0.7,3,2,284,7,NA
fcp-trial,320,1244784,0.0-295.0-0.0,voc_e2,11842,"[{""event"":""fullscreenenter"",""trial"":1,""time"":2387}]",NA,NA,NA,NA,NA,2,#D8271C,#741CD8,0,0,1,38,1,643.8000000119209,39,0,936.9000000059604,0,0,experiment,NA,NA,2,0.5,0.5,4,5,285,7,NA
fcp-trial,321,1248212,0.0-296.0-0.0,voc_e2,11842,"[{""event"":""fullscreenenter"",""trial"":1,""time"":2387}]",NA,NA,NA,NA,NA,5,#741CD8,#D8271C,10,0,0,40,0,1421.4000000059605,37,1,501.59999999403954,10,0,experiment,NA,NA,2,0.5,0.5,5,4,286,7,NA
fcp-trial,322,1251017,0.0-297.0-0.0,voc_e2,11842,"[{""event"":""fullscreenenter"",""trial"":1,""time"":2387}]",NA,NA,NA,NA,NA,6,#3386FF,#D89F1C,0,10,0,40,0,799.3000000119209,37,1,502,0,0,experiment,NA,NA,0,0.1,0.9,1,0,287,7,NA
fcp-trial,323,1255578,0.0-298.0-0.0,voc_e2,11842,"[{""event"":""fullscreenenter"",""trial"":1,""time"":2387}]",NA,NA,NA,NA,NA,5,#1CD855,#FA92F8,10,0,1,38,1,1750,37,1,1306.0999999940395,10,1,experiment,NA,NA,1,0.7,0.3,2,3,288,7,NA
fcp-trial,324,1258539,0.0-299.0-0.0,voc_e2,11842,"[{""event"":""fullscreenenter"",""trial"":1,""time"":2387}]",NA,NA,NA,NA,NA,3,#741CD8,#D8271C,10,10,0,38,1,790.1999999880791,37,1,664.8999999761581,10,0,experiment,NA,NA,2,0.5,0.5,5,4,289,7,NA
fcp-trial,325,1261302,0.0-300.0-0.0,voc_e2,11842,"[{""event"":""fullscreenenter"",""trial"":1,""time"":2387}]",NA,NA,NA,NA,NA,4,#741CD8,#D8271C,0,10,0,38,1,873.0999999940395,37,1,386.2999999821186,0,0,experiment,NA,NA,2,0.5,0.5,5,4,290,7,NA
fcp-trial,326,1264237,0.0-301.0-0.0,voc_e2,11842,"[{""event"":""fullscreenenter"",""trial"":1,""time"":2387}]",NA,NA,NA,NA,NA,0,#1CD855,#FA92F8,10,10,1,38,1,825,37,1,604.5,10,1,experiment,NA,NA,1,0.7,0.3,2,3,291,7,NA
fcp-trial,327,1266823,0.0-302.0-0.0,voc_e2,11842,"[{""event"":""fullscreenenter"",""trial"":1,""time"":2387}]",NA,NA,NA,NA,NA,0,#D89F1C,#3386FF,10,0,1,38,1,777.4000000059605,37,1,304.40000000596046,10,1,experiment,NA,NA,0,0.9,0.1,0,1,292,7,NA
fcp-trial,328,1269560,0.0-303.0-0.0,voc_e2,11842,"[{""event"":""fullscreenenter"",""trial"":1,""time"":2387}]",NA,NA,NA,NA,NA,1,#FA92F8,#1CD855,10,10,0,38,1,655.8000000119209,39,0,575.5999999940395,10,1,experiment,NA,NA,1,0.3,0.7,3,2,293,7,NA
fcp-trial,329,1273256,0.0-304.0-0.0,voc_e2,11842,"[{""event"":""fullscreenenter"",""trial"":1,""time"":2387}]",NA,NA,NA,NA,NA,1,#D89F1C,#3386FF,10,10,1,38,1,819.6999999880791,37,1,1371.4000000059605,10,1,experiment,NA,NA,0,0.9,0.1,0,1,294,7,NA
fcp-trial,330,1276350,0.0-305.0-0.0,voc_e2,11842,"[{""event"":""fullscreenenter"",""trial"":1,""time"":2387}]",NA,NA,NA,NA,NA,1,#741CD8,#D8271C,10,0,0,38,1,537.9000000059605,37,1,1049.7000000178814,10,0,experiment,NA,NA,2,0.5,0.5,5,4,295,7,NA
fcp-trial,331,1279457,0.0-306.0-0.0,voc_e2,11842,"[{""event"":""fullscreenenter"",""trial"":1,""time"":2387}]",NA,NA,NA,NA,NA,5,#741CD8,#D8271C,0,0,0,40,0,1251.8999999761581,37,1,349.90000000596046,0,0,experiment,NA,NA,2,0.5,0.5,5,4,296,7,NA
fcp-trial,332,1282010,0.0-307.0-0.0,voc_e2,11842,"[{""event"":""fullscreenenter"",""trial"":1,""time"":2387}]",NA,NA,NA,NA,NA,3,#3386FF,#D89F1C,0,10,0,38,1,765,39,0,281.2999999821186,10,1,experiment,NA,NA,0,0.1,0.9,1,0,297,7,NA
fcp-trial,333,1284797,0.0-308.0-0.0,voc_e2,11842,"[{""event"":""fullscreenenter"",""trial"":1,""time"":2387}]",NA,NA,NA,NA,NA,3,#1CD855,#FA92F8,10,0,1,38,1,704.5999999940395,37,1,577.6999999880791,10,1,experiment,NA,NA,1,0.7,0.3,2,3,298,7,NA
fcp-trial,334,1287830,0.0-309.0-0.0,voc_e2,11842,"[{""event"":""fullscreenenter"",""trial"":1,""time"":2387}]",NA,NA,NA,NA,NA,6,#1CD855,#FA92F8,10,10,1,40,0,1114.3999999761581,39,0,413.699999988079,10,0,experiment,NA,NA,1,0.7,0.3,2,3,299,7,NA
fcp-trial,335,1291204,0.0-310.0-0.0,voc_e2,11842,"[{""event"":""fullscreenenter"",""trial"":1,""time"":2387}]",NA,NA,NA,NA,NA,0,#D8271C,#741CD8,0,0,1,38,1,581.3000000119209,39,0,1287.7999999821186,0,0,experiment,NA,NA,2,0.5,0.5,4,5,300,7,NA
fcp-trial,336,1293993,0.0-311.0-0.0,voc_e2,11842,"[{""event"":""fullscreenenter"",""trial"":1,""time"":2387}]",NA,NA,NA,NA,NA,2,#D8271C,#741CD8,0,0,1,38,1,760.6999999880791,39,0,524.5999999940395,0,0,experiment,NA,NA,2,0.5,0.5,4,5,301,7,NA
fcp-trial,337,1297694,0.0-312.0-0.0,voc_e2,11842,"[{""event"":""fullscreenenter"",""trial"":1,""time"":2387}]",NA,NA,NA,NA,NA,4,#3386FF,#D89F1C,0,10,0,38,1,1928.300000011921,39,0,268.59999999403954,10,1,experiment,NA,NA,0,0.1,0.9,1,0,302,7,NA
fcp-trial,338,1300932,0.0-313.0-0.0,voc_e2,11842,"[{""event"":""fullscreenenter"",""trial"":1,""time"":2387}]",NA,NA,NA,NA,NA,5,#3386FF,#D89F1C,0,10,0,38,1,1206.199999988079,39,0,526.9000000059605,10,1,experiment,NA,NA,0,0.1,0.9,1,0,303,7,NA
fcp-trial,339,1304061,0.0-314.0-0.0,voc_e2,11842,"[{""event"":""fullscreenenter"",""trial"":1,""time"":2387}]",NA,NA,NA,NA,NA,5,#1CD855,#FA92F8,0,0,1,40,0,1245,39,0,380.800000011921,0,0,experiment,NA,NA,1,0.7,0.3,2,3,304,7,NA
fcp-trial,340,1307968,0.0-315.0-0.0,voc_e2,11842,"[{""event"":""fullscreenenter"",""trial"":1,""time"":2387}]",NA,NA,NA,NA,NA,3,#D8271C,#741CD8,0,10,1,38,1,911,39,0,1492.2999999821186,10,0,experiment,NA,NA,2,0.5,0.5,4,5,305,7,NA
fcp-trial,341,1311095,0.0-316.0-0.0,voc_e2,11842,"[{""event"":""fullscreenenter"",""trial"":1,""time"":2387}]",NA,NA,NA,NA,NA,0,#D89F1C,#3386FF,10,0,1,38,1,947.5,37,1,675.4000000059605,10,1,experiment,NA,NA,0,0.9,0.1,0,1,306,7,NA
fcp-trial,342,1315891,0.0-317.0-0.0,voc_e2,11842,"[{""event"":""fullscreenenter"",""trial"":1,""time"":2387}]",NA,NA,NA,NA,NA,1,#FA92F8,#1CD855,0,10,0,38,1,1695.9000000059605,39,0,1596.199999988079,10,1,experiment,NA,NA,1,0.3,0.7,3,2,307,7,NA
fcp-trial,343,1318504,0.0-318.0-0.0,voc_e2,11842,"[{""event"":""fullscreenenter"",""trial"":1,""time"":2387}]",NA,NA,NA,NA,NA,1,#D89F1C,#3386FF,10,10,1,38,1,638.6000000238419,37,1,469.40000000596046,10,1,experiment,NA,NA,0,0.9,0.1,0,1,308,7,NA
fcp-trial,344,1321812,0.0-319.0-0.0,voc_e2,11842,"[{""event"":""fullscreenenter"",""trial"":1,""time"":2387}]",NA,NA,NA,NA,NA,6,#D8271C,#741CD8,10,10,1,40,0,1307.199999988079,39,0,497.199999988079,10,0,experiment,NA,NA,2,0.5,0.5,4,5,309,7,NA
fcp-trial,345,1325087,0.0-320.0-0.0,voc_e2,11842,"[{""event"":""fullscreenenter"",""trial"":1,""time"":2387}]",NA,NA,NA,NA,NA,0,#FA92F8,#1CD855,0,0,0,38,1,664.5999999940395,39,0,1105.2999999821186,0,1,experiment,NA,NA,1,0.3,0.7,3,2,310,7,NA
fcp-trial,346,1328126,0.0-321.0-0.0,voc_e2,11842,"[{""event"":""fullscreenenter"",""trial"":1,""time"":2387}]",NA,NA,NA,NA,NA,4,#741CD8,#D8271C,0,0,0,38,1,1120.0999999940395,37,1,413.300000011921,0,0,experiment,NA,NA,2,0.5,0.5,5,4,311,7,NA
fcp-trial,347,1332812,0.0-322.0-0.0,voc_e2,11842,"[{""event"":""fullscreenenter"",""trial"":1,""time"":2387}]",NA,NA,NA,NA,NA,4,#1CD855,#FA92F8,10,10,1,38,1,1922.5,37,1,1260.0999999940395,10,1,experiment,NA,NA,1,0.7,0.3,2,3,312,7,NA
fcp-trial,348,1335420,0.0-323.0-0.0,voc_e2,11842,"[{""event"":""fullscreenenter"",""trial"":1,""time"":2387}]",NA,NA,NA,NA,NA,2,#D89F1C,#3386FF,10,10,1,38,1,752.4000000059605,37,1,350.5,10,1,experiment,NA,NA,0,0.9,0.1,0,1,313,7,NA
fcp-trial,349,1338399,0.0-324.0-0.0,voc_e2,11842,"[{""event"":""fullscreenenter"",""trial"":1,""time"":2387}]",NA,NA,NA,NA,NA,6,#3386FF,#D89F1C,0,0,0,40,0,1106.699999988079,39,0,366.800000011921,0,1,experiment,NA,NA,0,0.1,0.9,1,0,314,7,NA
fcp-trial,350,1341697,0.0-325.0-0.0,voc_e2,11842,"[{""event"":""fullscreenenter"",""trial"":1,""time"":2387}]",NA,NA,NA,NA,NA,2,#1CD855,#FA92F8,10,0,1,38,1,796,37,1,996.1999999880792,10,1,experiment,NA,NA,1,0.7,0.3,2,3,315,7,NA
audio-instructions,351,1348663,0.0-326.0,voc_e2,11842,"[{""event"":""fullscreenenter"",""trial"":1,""time"":2387}]",NA,1157.2999999821186,static/audio/finished.wav,NA,0,NA,NA,NA,NA,NA,NA,NA,NA,NA,NA,NA,NA,NA,NA,NA,NA,NA,NA,NA,NA,NA,NA,NA,NA,NA
audio-instructions,352,1360167,0.0-327.0-0.0,voc_e2,11842,"[{""event"":""fullscreenenter"",""trial"":1,""time"":2387}]",NA,671,static/audio/explicit1.wav,NA,0,NA,NA,NA,NA,NA,NA,NA,NA,NA,NA,NA,NA,NA,NA,NA,NA,NA,NA,NA,NA,NA,NA,NA,NA,NA
audio-instructions,353,1369998,0.0-327.0-1.0,voc_e2,11842,"[{""event"":""fullscreenenter"",""trial"":1,""time"":2387}]",NA,2235.4000000059605,static/audio/explicit2.wav,NA,0,NA,NA,NA,NA,NA,NA,NA,NA,NA,NA,NA,NA,NA,NA,NA,NA,NA,NA,NA,NA,NA,NA,NA,NA,NA
image-slider-response,354,1385769,0.0-328.0,voc_e2,11842,"[{""event"":""fullscreenenter"",""trial"":1,""time"":2387}]",NA,15768.79999998212,static/img/machines/machine5.png,NA,NA,NA,NA,NA,NA,NA,NA,NA,NA,NA,NA,NA,NA,NA,NA,explicit,NA,NA,NA,NA,NA,NA,NA,NA,NA,2
image-slider-response,355,1397536,0.0-329.0,voc_e2,11842,"[{""event"":""fullscreenenter"",""trial"":1,""time"":2387}]",NA,11765.79999998212,static/img/machines/machine1.png,NA,NA,NA,NA,NA,NA,NA,NA,NA,NA,NA,NA,NA,NA,NA,NA,explicit,NA,NA,NA,NA,NA,NA,NA,NA,NA,4
image-slider-response,356,1404528,0.0-330.0,voc_e2,11842,"[{""event"":""fullscreenenter"",""trial"":1,""time"":2387}]",NA,6990.800000011921,static/img/machines/machine4.png,NA,NA,NA,NA,NA,NA,NA,NA,NA,NA,NA,NA,NA,NA,NA,NA,explicit,NA,NA,NA,NA,NA,NA,NA,NA,NA,9
image-slider-response,357,1412494,0.0-331.0,voc_e2,11842,"[{""event"":""fullscreenenter"",""trial"":1,""time"":2387}]",NA,7964.5,static/img/machines/machine6.png,NA,NA,NA,NA,NA,NA,NA,NA,NA,NA,NA,NA,NA,NA,NA,NA,explicit,NA,NA,NA,NA,NA,NA,NA,NA,NA,6
image-slider-response,358,1418570,0.0-332.0,voc_e2,11842,"[{""event"":""fullscreenenter"",""trial"":1,""time"":2387}]",NA,6075,static/img/machines/machine3.png,NA,NA,NA,NA,NA,NA,NA,NA,NA,NA,NA,NA,NA,NA,NA,NA,explicit,NA,NA,NA,NA,NA,NA,NA,NA,NA,1
image-slider-response,359,1424053,0.0-333.0,voc_e2,11842,"[{""event"":""fullscreenenter"",""trial"":1,""time"":2387}]",NA,5481.699999988079,static/img/machines/machine2.png,NA,NA,NA,NA,NA,NA,NA,NA,NA,NA,NA,NA,NA,NA,NA,NA,explicit,NA,NA,NA,NA,NA,NA,NA,NA,NA,6
