trial_type,trial_index,time_elapsed,internal_node_id,task_version,subject_id,interactions,success,rt,stimulus,key_press,button_pressed,offer,arcade_color_L,arcade_color_R,arcade_outcome_L,arcade_outcome_R,correct,stage_1_key,stage_1_choice,stage_1_rt,stage_2_key,stage_2_choice,stage_2_rt,stage_3_outcome,accuracy,phase,responses,num_errors,context,reward_prob_L,reward_prob_R,arcade_id_L,arcade_id_R,trial,block,response
pavlovia,0,27,0.0-0.0,voc_e2,12140,[],NA,NA,NA,NA,NA,NA,NA,NA,NA,NA,NA,NA,NA,NA,NA,NA,NA,NA,NA,NA,NA,NA,NA,NA,NA,NA,NA,NA,NA,NA
fullscreen,1,8228,0.0-1.0,voc_e2,12140,"[{""event"":""fullscreenenter"",""trial"":1,""time"":7235}]",TRUE,NA,NA,NA,NA,NA,NA,NA,NA,NA,NA,NA,NA,NA,NA,NA,NA,NA,NA,NA,NA,NA,NA,NA,NA,NA,NA,NA,NA,NA
audio-keyboard-response,2,10944,0.0-2.0,voc_e2,12140,"[{""event"":""fullscreenenter"",""trial"":1,""time"":7235}]",NA,2618,static/audio/beep_loop.wav,32,NA,NA,NA,NA,NA,NA,NA,NA,NA,NA,NA,NA,NA,NA,NA,NA,NA,NA,NA,NA,NA,NA,NA,NA,NA,NA
audio-test,3,13474,0.0-3.0,voc_e2,12140,"[{""event"":""fullscreenenter"",""trial"":1,""time"":7235}]",NA,NA,static/audio/turtle.wav,NA,3,NA,NA,NA,NA,NA,NA,NA,NA,NA,NA,NA,NA,NA,NA,NA,NA,NA,NA,NA,NA,NA,NA,NA,NA,NA
audio-test,4,15808,0.0-4.0,voc_e2,12140,"[{""event"":""fullscreenenter"",""trial"":1,""time"":7235}]",NA,NA,static/audio/shark.wav,NA,2,NA,NA,NA,NA,NA,NA,NA,NA,NA,NA,NA,NA,NA,NA,NA,NA,NA,NA,NA,NA,NA,NA,NA,NA,NA
audio-instructions,5,29225,0.0-5.0-0.0,voc_e2,12140,"[{""event"":""fullscreenenter"",""trial"":1,""time"":7235}]",NA,7627,static/audio/instructions1.wav,NA,0,NA,NA,NA,NA,NA,NA,NA,NA,NA,NA,NA,NA,NA,NA,NA,NA,NA,NA,NA,NA,NA,NA,NA,NA,NA
audio-instructions,6,40524,0.0-5.0-1.0,voc_e2,12140,"[{""event"":""fullscreenenter"",""trial"":1,""time"":7235}]",NA,4553,static/audio/instructions2.wav,NA,0,NA,NA,NA,NA,NA,NA,NA,NA,NA,NA,NA,NA,NA,NA,NA,NA,NA,NA,NA,NA,NA,NA,NA,NA,NA
audio-instructions,7,47691,0.0-5.0-2.0,voc_e2,12140,"[{""event"":""fullscreenenter"",""trial"":1,""time"":7235}]",NA,1363,static/audio/instructions3.wav,NA,0,NA,NA,NA,NA,NA,NA,NA,NA,NA,NA,NA,NA,NA,NA,NA,NA,NA,NA,NA,NA,NA,NA,NA,NA,NA
audio-instructions,8,62342,0.0-5.0-3.0,voc_e2,12140,"[{""event"":""fullscreenenter"",""trial"":1,""time"":7235}]",NA,1420,static/audio/instructions4.wav,NA,0,NA,NA,NA,NA,NA,NA,NA,NA,NA,NA,NA,NA,NA,NA,NA,NA,NA,NA,NA,NA,NA,NA,NA,NA,NA
audio-instructions,9,73591,0.0-5.0-4.0,voc_e2,12140,"[{""event"":""fullscreenenter"",""trial"":1,""time"":7235}]",NA,1860,static/audio/instructions5.wav,NA,0,NA,NA,NA,NA,NA,NA,NA,NA,NA,NA,NA,NA,NA,NA,NA,NA,NA,NA,NA,NA,NA,NA,NA,NA,NA
fcp-practice,10,78693,0.0-5.0-5.0-0.0,voc_e2,12140,"[{""event"":""fullscreenenter"",""trial"":1,""time"":7235}]",NA,NA,NA,NA,NA,NA,#EDC948,#46d3c8,10,0,1,null,null,null,37,1,3588,10,1,practice,NA,NA,NA,NA,NA,NA,NA,NA,NA,NA
fcp-practice,11,80808,0.0-5.0-5.0-1.0,voc_e2,12140,"[{""event"":""fullscreenenter"",""trial"":1,""time"":7235}]",NA,NA,NA,NA,NA,NA,#EDC948,#46d3c8,10,0,1,null,null,null,37,1,611,10,1,practice,NA,NA,NA,NA,NA,NA,NA,NA,NA,NA
fcp-practice,12,83086,0.0-5.0-5.0-2.0,voc_e2,12140,"[{""event"":""fullscreenenter"",""trial"":1,""time"":7235}]",NA,NA,NA,NA,NA,NA,#EDC948,#46d3c8,0,10,1,null,null,null,37,1,771,0,1,practice,NA,NA,NA,NA,NA,NA,NA,NA,NA,NA
fcp-practice,13,85263,0.0-5.0-5.0-3.0,voc_e2,12140,"[{""event"":""fullscreenenter"",""trial"":1,""time"":7235}]",NA,NA,NA,NA,NA,NA,#EDC948,#46d3c8,10,0,1,null,null,null,37,1,668,10,1,practice,NA,NA,NA,NA,NA,NA,NA,NA,NA,NA
fcp-practice,14,87397,0.0-5.0-5.0-4.0,voc_e2,12140,"[{""event"":""fullscreenenter"",""trial"":1,""time"":7235}]",NA,NA,NA,NA,NA,NA,#EDC948,#46d3c8,10,0,1,null,null,null,37,1,628,10,1,practice,NA,NA,NA,NA,NA,NA,NA,NA,NA,NA
audio-instructions,15,109859,0.0-5.0-6.0,voc_e2,12140,"[{""event"":""fullscreenenter"",""trial"":1,""time"":7235}]",NA,4452,static/audio/instructions6.wav,NA,0,NA,NA,NA,NA,NA,NA,NA,NA,NA,NA,NA,NA,NA,NA,NA,NA,NA,NA,NA,NA,NA,NA,NA,NA,NA
audio-instructions,16,131659,0.0-5.0-7.0,voc_e2,12140,"[{""event"":""fullscreenenter"",""trial"":1,""time"":7235}]",NA,2598,static/audio/instructions7.wav,NA,0,NA,NA,NA,NA,NA,NA,NA,NA,NA,NA,NA,NA,NA,NA,NA,NA,NA,NA,NA,NA,NA,NA,NA,NA,NA
audio-instructions,17,142626,0.0-5.0-8.0,voc_e2,12140,"[{""event"":""fullscreenenter"",""trial"":1,""time"":7235}]",NA,1497,static/audio/instructions8.wav,NA,0,NA,NA,NA,NA,NA,NA,NA,NA,NA,NA,NA,NA,NA,NA,NA,NA,NA,NA,NA,NA,NA,NA,NA,NA,NA
fcp-comprehension,18,153161,0.0-5.0-9.0,voc_e2,12140,"[{""event"":""fullscreenenter"",""trial"":1,""time"":7235}]",NA,10533,NA,NA,NA,NA,NA,NA,NA,NA,NA,NA,NA,NA,NA,NA,NA,NA,NA,NA,"true,false",1,NA,NA,NA,NA,NA,NA,NA,NA
audio-instructions,19,160376,0.0-5.1-0.1,voc_e2,12140,"[{""event"":""fullscreenenter"",""trial"":1,""time"":7235}]",NA,2429,static/audio/instructions1.wav,NA,0,NA,NA,NA,NA,NA,NA,NA,NA,NA,NA,NA,NA,NA,NA,NA,NA,NA,NA,NA,NA,NA,NA,NA,NA,NA
audio-instructions,20,173259,0.0-5.1-1.1,voc_e2,12140,"[{""event"":""fullscreenenter"",""trial"":1,""time"":7235}]",NA,6141,static/audio/instructions2.wav,NA,0,NA,NA,NA,NA,NA,NA,NA,NA,NA,NA,NA,NA,NA,NA,NA,NA,NA,NA,NA,NA,NA,NA,NA,NA,NA
audio-instructions,21,180342,0.0-5.1-2.1,voc_e2,12140,"[{""event"":""fullscreenenter"",""trial"":1,""time"":7235}]",NA,1277,static/audio/instructions3.wav,NA,0,NA,NA,NA,NA,NA,NA,NA,NA,NA,NA,NA,NA,NA,NA,NA,NA,NA,NA,NA,NA,NA,NA,NA,NA,NA
audio-instructions,22,195443,0.0-5.1-3.1,voc_e2,12140,"[{""event"":""fullscreenenter"",""trial"":1,""time"":7235}]",NA,1870,static/audio/instructions4.wav,NA,0,NA,NA,NA,NA,NA,NA,NA,NA,NA,NA,NA,NA,NA,NA,NA,NA,NA,NA,NA,NA,NA,NA,NA,NA,NA
audio-instructions,23,206227,0.0-5.1-4.1,voc_e2,12140,"[{""event"":""fullscreenenter"",""trial"":1,""time"":7235}]",NA,1398,static/audio/instructions5.wav,NA,0,NA,NA,NA,NA,NA,NA,NA,NA,NA,NA,NA,NA,NA,NA,NA,NA,NA,NA,NA,NA,NA,NA,NA,NA,NA
fcp-practice,24,209123,0.0-5.1-5.1-0.1,voc_e2,12140,"[{""event"":""fullscreenenter"",""trial"":1,""time"":7235}]",NA,NA,NA,NA,NA,NA,#EDC948,#46d3c8,10,0,1,null,null,null,37,1,1389,10,1,practice,NA,NA,NA,NA,NA,NA,NA,NA,NA,NA
fcp-practice,25,210961,0.0-5.1-5.1-1.1,voc_e2,12140,"[{""event"":""fullscreenenter"",""trial"":1,""time"":7235}]",NA,NA,NA,NA,NA,NA,#EDC948,#46d3c8,10,0,1,null,null,null,37,1,331,10,1,practice,NA,NA,NA,NA,NA,NA,NA,NA,NA,NA
fcp-practice,26,212660,0.0-5.1-5.1-2.1,voc_e2,12140,"[{""event"":""fullscreenenter"",""trial"":1,""time"":7235}]",NA,NA,NA,NA,NA,NA,#EDC948,#46d3c8,0,10,1,null,null,null,37,1,197,0,1,practice,NA,NA,NA,NA,NA,NA,NA,NA,NA,NA
fcp-practice,27,214479,0.0-5.1-5.1-3.1,voc_e2,12140,"[{""event"":""fullscreenenter"",""trial"":1,""time"":7235}]",NA,NA,NA,NA,NA,NA,#EDC948,#46d3c8,10,0,1,null,null,null,37,1,314,10,1,practice,NA,NA,NA,NA,NA,NA,NA,NA,NA,NA
fcp-practice,28,216589,0.0-5.1-5.1-4.1,voc_e2,12140,"[{""event"":""fullscreenenter"",""trial"":1,""time"":7235}]",NA,NA,NA,NA,NA,NA,#EDC948,#46d3c8,10,0,1,null,null,null,37,1,604,10,1,practice,NA,NA,NA,NA,NA,NA,NA,NA,NA,NA
audio-instructions,29,236861,0.0-5.1-6.1,voc_e2,12140,"[{""event"":""fullscreenenter"",""trial"":1,""time"":7235}]",NA,2263,static/audio/instructions6.wav,NA,0,NA,NA,NA,NA,NA,NA,NA,NA,NA,NA,NA,NA,NA,NA,NA,NA,NA,NA,NA,NA,NA,NA,NA,NA,NA
audio-instructions,30,258211,0.0-5.1-7.1,voc_e2,12140,"[{""event"":""fullscreenenter"",""trial"":1,""time"":7235}]",NA,2145,static/audio/instructions7.wav,NA,0,NA,NA,NA,NA,NA,NA,NA,NA,NA,NA,NA,NA,NA,NA,NA,NA,NA,NA,NA,NA,NA,NA,NA,NA,NA
audio-instructions,31,268927,0.0-5.1-8.1,voc_e2,12140,"[{""event"":""fullscreenenter"",""trial"":1,""time"":7235}]",NA,1241,static/audio/instructions8.wav,NA,0,NA,NA,NA,NA,NA,NA,NA,NA,NA,NA,NA,NA,NA,NA,NA,NA,NA,NA,NA,NA,NA,NA,NA,NA,NA
fcp-comprehension,32,277195,0.0-5.1-9.1,voc_e2,12140,"[{""event"":""fullscreenenter"",""trial"":1,""time"":7235}]",NA,8264,NA,NA,NA,NA,NA,NA,NA,NA,NA,NA,NA,NA,NA,NA,NA,NA,NA,NA,"true,true",0,NA,NA,NA,NA,NA,NA,NA,NA
audio-instructions,33,284094,0.0-6.0-0.0,voc_e2,12140,"[{""event"":""fullscreenenter"",""trial"":1,""time"":7235}]",NA,1350,static/audio/instructions9.wav,NA,0,NA,NA,NA,NA,NA,NA,NA,NA,NA,NA,NA,NA,NA,NA,NA,NA,NA,NA,NA,NA,NA,NA,NA,NA,NA
audio-instructions,34,299161,0.0-6.0-1.0,voc_e2,12140,"[{""event"":""fullscreenenter"",""trial"":1,""time"":7235}]",NA,2949,static/audio/instructions10.wav,NA,0,NA,NA,NA,NA,NA,NA,NA,NA,NA,NA,NA,NA,NA,NA,NA,NA,NA,NA,NA,NA,NA,NA,NA,NA,NA
fcp-trial,35,307441,0.0-6.0-2.0,voc_e2,12140,"[{""event"":""fullscreenenter"",""trial"":1,""time"":7235}]",NA,NA,NA,NA,NA,0,#EDC948,#46d3c8,10,10,1,38,1,4055,37,1,2708,10,1,practice,NA,NA,NA,NA,NA,NA,NA,NA,NA,NA
audio-instructions,36,320862,0.0-6.0-3.0,voc_e2,12140,"[{""event"":""fullscreenenter"",""trial"":1,""time"":7235}]",NA,2410,static/audio/instructions11.wav,NA,0,NA,NA,NA,NA,NA,NA,NA,NA,NA,NA,NA,NA,NA,NA,NA,NA,NA,NA,NA,NA,NA,NA,NA,NA,NA
fcp-trial,37,326597,0.0-6.0-4.0,voc_e2,12140,"[{""event"":""fullscreenenter"",""trial"":1,""time"":7235}]",NA,NA,NA,NA,NA,6,#EDC948,#46d3c8,10,10,1,40,0,2514,39,0,1711,10,0,practice,NA,NA,NA,NA,NA,NA,NA,NA,NA,NA
audio-instructions,38,376679,0.0-6.0-5.0,voc_e2,12140,"[{""event"":""fullscreenenter"",""trial"":1,""time"":7235}]",NA,31391,static/audio/instructions12.wav,NA,0,NA,NA,NA,NA,NA,NA,NA,NA,NA,NA,NA,NA,NA,NA,NA,NA,NA,NA,NA,NA,NA,NA,NA,NA,NA
audio-instructions,39,410963,0.0-6.0-6.0,voc_e2,12140,"[{""event"":""fullscreenenter"",""trial"":1,""time"":7235}]",NA,26657,static/audio/instructions13.wav,NA,0,NA,NA,NA,NA,NA,NA,NA,NA,NA,NA,NA,NA,NA,NA,NA,NA,NA,NA,NA,NA,NA,NA,NA,NA,NA
audio-instructions,40,420646,0.0-6.0-7.0,voc_e2,12140,"[{""event"":""fullscreenenter"",""trial"":1,""time"":7235}]",NA,1232,static/audio/instructions14.wav,NA,0,NA,NA,NA,NA,NA,NA,NA,NA,NA,NA,NA,NA,NA,NA,NA,NA,NA,NA,NA,NA,NA,NA,NA,NA,NA
audio-instructions,41,429796,0.0-7.0-0.0,voc_e2,12140,"[{""event"":""fullscreenenter"",""trial"":1,""time"":7235}]",NA,2237,static/audio/instructions15.wav,NA,0,NA,NA,NA,NA,NA,NA,NA,NA,NA,NA,NA,NA,NA,NA,NA,NA,NA,NA,NA,NA,NA,NA,NA,NA,NA
audio-instructions,42,438247,0.0-7.0-1.0,voc_e2,12140,"[{""event"":""fullscreenenter"",""trial"":1,""time"":7235}]",NA,1620,static/audio/instructions16.wav,NA,0,NA,NA,NA,NA,NA,NA,NA,NA,NA,NA,NA,NA,NA,NA,NA,NA,NA,NA,NA,NA,NA,NA,NA,NA,NA
audio-instructions,43,447463,0.0-7.0-2.0,voc_e2,12140,"[{""event"":""fullscreenenter"",""trial"":1,""time"":7235}]",NA,1537,static/audio/instructions17.wav,NA,0,NA,NA,NA,NA,NA,NA,NA,NA,NA,NA,NA,NA,NA,NA,NA,NA,NA,NA,NA,NA,NA,NA,NA,NA,NA
audio-instructions,44,458047,0.0-7.0-3.0,voc_e2,12140,"[{""event"":""fullscreenenter"",""trial"":1,""time"":7235}]",NA,2815,static/audio/instructions18.wav,NA,0,NA,NA,NA,NA,NA,NA,NA,NA,NA,NA,NA,NA,NA,NA,NA,NA,NA,NA,NA,NA,NA,NA,NA,NA,NA
audio-instructions,45,466198,0.0-7.0-4.0,voc_e2,12140,"[{""event"":""fullscreenenter"",""trial"":1,""time"":7235}]",NA,1404,static/audio/instructions19.wav,NA,0,NA,NA,NA,NA,NA,NA,NA,NA,NA,NA,NA,NA,NA,NA,NA,NA,NA,NA,NA,NA,NA,NA,NA,NA,NA
fcp-comprehension,46,488049,0.0-7.0-5.0,voc_e2,12140,"[{""event"":""fullscreenenter"",""trial"":1,""time"":7235}]",NA,21847,NA,NA,NA,NA,NA,NA,NA,NA,NA,NA,NA,NA,NA,NA,NA,NA,NA,NA,"false,false,false,true",0,NA,NA,NA,NA,NA,NA,NA,NA
audio-instructions,47,498815,0.0-8.0,voc_e2,12140,"[{""event"":""fullscreenenter"",""trial"":1,""time"":7235}]",NA,1543,static/audio/ready.wav,NA,0,NA,NA,NA,NA,NA,NA,NA,NA,NA,NA,NA,NA,NA,NA,NA,NA,NA,NA,NA,NA,NA,NA,NA,NA,NA
fcp-trial,48,503648,0.0-9.0-0.0,voc_e2,12140,"[{""event"":""fullscreenenter"",""trial"":1,""time"":7235}]",NA,NA,NA,NA,NA,0,#3386FF,#D89F1C,10,0,1,38,1,2205,37,1,1120,10,1,experiment,NA,NA,1,0.7,0.3,2,3,1,1,NA
fcp-trial,49,508321,0.0-10.0-0.0,voc_e2,12140,"[{""event"":""fullscreenenter"",""trial"":1,""time"":7235}]",NA,NA,NA,NA,NA,5,#3386FF,#D89F1C,10,10,1,40,0,1047,37,1,2117,10,1,experiment,NA,NA,1,0.7,0.3,2,3,2,1,NA
fcp-trial,50,513684,0.0-11.0-0.0,voc_e2,12140,"[{""event"":""fullscreenenter"",""trial"":1,""time"":7235}]",NA,NA,NA,NA,NA,2,#1CD855,#FA92F8,10,0,1,40,0,889,37,1,2967,10,1,experiment,NA,NA,0,0.9,0.1,0,1,3,1,NA
fcp-trial,51,517785,0.0-12.0-0.0,voc_e2,12140,"[{""event"":""fullscreenenter"",""trial"":1,""time"":7235}]",NA,NA,NA,NA,NA,2,#D89F1C,#3386FF,10,10,0,38,1,1146,39,0,1447,10,1,experiment,NA,NA,1,0.3,0.7,3,2,4,1,NA
fcp-trial,52,522616,0.0-13.0-0.0,voc_e2,12140,"[{""event"":""fullscreenenter"",""trial"":1,""time"":7235}]",NA,NA,NA,NA,NA,6,#1CD855,#FA92F8,10,0,1,38,1,1419,39,0,1905,0,0,experiment,NA,NA,0,0.9,0.1,0,1,5,1,NA
fcp-trial,53,526556,0.0-14.0-0.0,voc_e2,12140,"[{""event"":""fullscreenenter"",""trial"":1,""time"":7235}]",NA,NA,NA,NA,NA,6,#741CD8,#D8271C,10,10,0,40,0,1560,37,1,873,10,0,experiment,NA,NA,2,0.5,0.5,5,4,6,1,NA
fcp-trial,54,530154,0.0-15.0-0.0,voc_e2,12140,"[{""event"":""fullscreenenter"",""trial"":1,""time"":7235}]",NA,NA,NA,NA,NA,3,#FA92F8,#1CD855,10,10,0,40,0,913,39,0,1174,10,1,experiment,NA,NA,0,0.1,0.9,1,0,7,1,NA
fcp-trial,55,533226,0.0-16.0-0.0,voc_e2,12140,"[{""event"":""fullscreenenter"",""trial"":1,""time"":7235}]",NA,NA,NA,NA,NA,2,#741CD8,#D8271C,10,10,0,38,1,950,37,1,613,10,0,experiment,NA,NA,2,0.5,0.5,5,4,8,1,NA
fcp-trial,56,537844,0.0-17.0-0.0,voc_e2,12140,"[{""event"":""fullscreenenter"",""trial"":1,""time"":7235}]",NA,NA,NA,NA,NA,3,#3386FF,#D89F1C,10,0,1,38,1,1596,39,0,1514,0,0,experiment,NA,NA,1,0.7,0.3,2,3,9,1,NA
fcp-trial,57,541498,0.0-18.0-0.0,voc_e2,12140,"[{""event"":""fullscreenenter"",""trial"":1,""time"":7235}]",NA,NA,NA,NA,NA,0,#741CD8,#D8271C,10,10,0,38,1,910,37,1,1238,10,0,experiment,NA,NA,2,0.5,0.5,5,4,10,1,NA
fcp-trial,58,545545,0.0-19.0-0.0,voc_e2,12140,"[{""event"":""fullscreenenter"",""trial"":1,""time"":7235}]",NA,NA,NA,NA,NA,5,#FA92F8,#1CD855,0,10,0,40,0,1227,37,1,1310,0,0,experiment,NA,NA,0,0.1,0.9,1,0,11,1,NA
fcp-trial,59,550182,0.0-20.0-0.0,voc_e2,12140,"[{""event"":""fullscreenenter"",""trial"":1,""time"":7235}]",NA,NA,NA,NA,NA,3,#741CD8,#D8271C,0,0,0,38,1,1098,39,0,2031,0,1,experiment,NA,NA,2,0.5,0.5,5,4,12,1,NA
fcp-trial,60,553394,0.0-21.0-0.0,voc_e2,12140,"[{""event"":""fullscreenenter"",""trial"":1,""time"":7235}]",NA,NA,NA,NA,NA,6,#D89F1C,#3386FF,10,10,0,38,1,272,37,1,1432,10,0,experiment,NA,NA,1,0.3,0.7,3,2,13,1,NA
fcp-trial,61,557893,0.0-22.0-0.0,voc_e2,12140,"[{""event"":""fullscreenenter"",""trial"":1,""time"":7235}]",NA,NA,NA,NA,NA,1,#D89F1C,#3386FF,0,10,0,38,1,1848,37,1,1140,0,0,experiment,NA,NA,1,0.3,0.7,3,2,14,1,NA
fcp-trial,62,561459,0.0-23.0-0.0,voc_e2,12140,"[{""event"":""fullscreenenter"",""trial"":1,""time"":7235}]",NA,NA,NA,NA,NA,4,#1CD855,#FA92F8,0,0,1,40,0,1120,37,1,935,0,1,experiment,NA,NA,0,0.9,0.1,0,1,15,1,NA
fcp-trial,63,565155,0.0-24.0-0.0,voc_e2,12140,"[{""event"":""fullscreenenter"",""trial"":1,""time"":7235}]",NA,NA,NA,NA,NA,1,#D8271C,#741CD8,10,0,1,38,1,971,37,1,1217,10,1,experiment,NA,NA,2,0.5,0.5,4,5,16,1,NA
fcp-trial,64,569360,0.0-25.0-0.0,voc_e2,12140,"[{""event"":""fullscreenenter"",""trial"":1,""time"":7235}]",NA,NA,NA,NA,NA,4,#741CD8,#D8271C,10,10,0,40,0,1730,39,0,974,10,1,experiment,NA,NA,2,0.5,0.5,5,4,17,1,NA
fcp-trial,65,573475,0.0-26.0-0.0,voc_e2,12140,"[{""event"":""fullscreenenter"",""trial"":1,""time"":7235}]",NA,NA,NA,NA,NA,4,#3386FF,#D89F1C,10,0,1,38,1,1894,37,1,719,10,1,experiment,NA,NA,1,0.7,0.3,2,3,18,1,NA
fcp-trial,66,577356,0.0-27.0-0.0,voc_e2,12140,"[{""event"":""fullscreenenter"",""trial"":1,""time"":7235}]",NA,NA,NA,NA,NA,5,#741CD8,#D8271C,10,10,0,38,1,1187,39,0,1191,10,1,experiment,NA,NA,2,0.5,0.5,5,4,19,1,NA
fcp-trial,67,580918,0.0-28.0-0.0,voc_e2,12140,"[{""event"":""fullscreenenter"",""trial"":1,""time"":7235}]",NA,NA,NA,NA,NA,0,#1CD855,#FA92F8,10,0,1,38,1,1093,37,1,961,10,1,experiment,NA,NA,0,0.9,0.1,0,1,20,1,NA
fcp-trial,68,584275,0.0-29.0-0.0,voc_e2,12140,"[{""event"":""fullscreenenter"",""trial"":1,""time"":7235}]",NA,NA,NA,NA,NA,1,#1CD855,#FA92F8,10,0,1,40,0,1028,39,0,826,0,0,experiment,NA,NA,0,0.9,0.1,0,1,21,1,NA
fcp-trial,69,588163,0.0-30.0-0.0,voc_e2,12140,"[{""event"":""fullscreenenter"",""trial"":1,""time"":7235}]",NA,NA,NA,NA,NA,6,#D8271C,#741CD8,0,10,1,38,1,1362,37,1,1023,0,1,experiment,NA,NA,2,0.5,0.5,4,5,22,1,NA
fcp-trial,70,592071,0.0-31.0-0.0,voc_e2,12140,"[{""event"":""fullscreenenter"",""trial"":1,""time"":7235}]",NA,NA,NA,NA,NA,0,#FA92F8,#1CD855,10,10,0,38,1,1566,37,1,836,10,0,experiment,NA,NA,0,0.1,0.9,1,0,23,1,NA
fcp-trial,71,595979,0.0-32.0-0.0,voc_e2,12140,"[{""event"":""fullscreenenter"",""trial"":1,""time"":7235}]",NA,NA,NA,NA,NA,4,#D89F1C,#3386FF,0,10,0,38,1,1585,39,0,815,10,1,experiment,NA,NA,1,0.3,0.7,3,2,24,1,NA
fcp-trial,72,599909,0.0-33.0-0.0,voc_e2,12140,"[{""event"":""fullscreenenter"",""trial"":1,""time"":7235}]",NA,NA,NA,NA,NA,1,#FA92F8,#1CD855,0,10,0,38,1,1084,37,1,1338,0,0,experiment,NA,NA,0,0.1,0.9,1,0,25,1,NA
fcp-trial,73,603668,0.0-34.0-0.0,voc_e2,12140,"[{""event"":""fullscreenenter"",""trial"":1,""time"":7235}]",NA,NA,NA,NA,NA,2,#D8271C,#741CD8,10,10,1,38,1,1126,39,0,1126,10,0,experiment,NA,NA,2,0.5,0.5,4,5,26,1,NA
fcp-trial,74,607173,0.0-35.0-0.0,voc_e2,12140,"[{""event"":""fullscreenenter"",""trial"":1,""time"":7235}]",NA,NA,NA,NA,NA,5,#FA92F8,#1CD855,0,10,0,38,1,1123,37,1,874,0,0,experiment,NA,NA,0,0.1,0.9,1,0,27,1,NA
fcp-trial,75,610925,0.0-36.0-0.0,voc_e2,12140,"[{""event"":""fullscreenenter"",""trial"":1,""time"":7235}]",NA,NA,NA,NA,NA,0,#741CD8,#D8271C,10,10,0,38,1,1034,37,1,1208,10,0,experiment,NA,NA,2,0.5,0.5,5,4,28,1,NA
fcp-trial,76,615109,0.0-37.0-0.0,voc_e2,12140,"[{""event"":""fullscreenenter"",""trial"":1,""time"":7235}]",NA,NA,NA,NA,NA,0,#3386FF,#D89F1C,0,0,1,40,0,1817,37,1,856,0,1,experiment,NA,NA,1,0.7,0.3,2,3,29,1,NA
fcp-trial,77,618542,0.0-38.0-0.0,voc_e2,12140,"[{""event"":""fullscreenenter"",""trial"":1,""time"":7235}]",NA,NA,NA,NA,NA,6,#3386FF,#D89F1C,10,10,1,38,1,1039,37,1,883,10,1,experiment,NA,NA,1,0.7,0.3,2,3,30,1,NA
fcp-trial,78,626034,0.0-39.0-0.0,voc_e2,12140,"[{""event"":""fullscreenenter"",""trial"":1,""time"":7235}]",NA,NA,NA,NA,NA,3,#741CD8,#D8271C,10,10,0,40,0,5066,39,0,917,10,1,experiment,NA,NA,2,0.5,0.5,5,4,31,1,NA
fcp-trial,79,629729,0.0-40.0-0.0,voc_e2,12140,"[{""event"":""fullscreenenter"",""trial"":1,""time"":7235}]",NA,NA,NA,NA,NA,3,#1CD855,#FA92F8,10,0,1,38,1,1449,37,1,739,10,1,experiment,NA,NA,0,0.9,0.1,0,1,32,1,NA
fcp-trial,80,633696,0.0-41.0-0.0,voc_e2,12140,"[{""event"":""fullscreenenter"",""trial"":1,""time"":7235}]",NA,NA,NA,NA,NA,2,#FA92F8,#1CD855,0,10,0,38,1,1583,39,0,877,10,1,experiment,NA,NA,0,0.1,0.9,1,0,33,1,NA
fcp-trial,81,637011,0.0-42.0-0.0,voc_e2,12140,"[{""event"":""fullscreenenter"",""trial"":1,""time"":7235}]",NA,NA,NA,NA,NA,1,#3386FF,#D89F1C,10,10,1,38,1,999,37,1,807,10,1,experiment,NA,NA,1,0.7,0.3,2,3,34,1,NA
fcp-trial,82,640607,0.0-43.0-0.0,voc_e2,12140,"[{""event"":""fullscreenenter"",""trial"":1,""time"":7235}]",NA,NA,NA,NA,NA,1,#741CD8,#D8271C,10,0,0,38,1,1370,39,0,716,0,1,experiment,NA,NA,2,0.5,0.5,5,4,35,1,NA
fcp-trial,83,646003,0.0-44.0-0.0,voc_e2,12140,"[{""event"":""fullscreenenter"",""trial"":1,""time"":7235}]",NA,NA,NA,NA,NA,5,#D8271C,#741CD8,10,10,1,38,1,3282,37,1,605,10,1,experiment,NA,NA,2,0.5,0.5,4,5,36,1,NA
fcp-trial,84,651991,0.0-45.0-0.0,voc_e2,12140,"[{""event"":""fullscreenenter"",""trial"":1,""time"":7235}]",NA,NA,NA,NA,NA,3,#D89F1C,#3386FF,0,10,0,40,0,3839,37,1,640,0,0,experiment,NA,NA,1,0.3,0.7,3,2,37,1,NA
fcp-trial,85,657174,0.0-46.0-0.0,voc_e2,12140,"[{""event"":""fullscreenenter"",""trial"":1,""time"":7235}]",NA,NA,NA,NA,NA,4,#1CD855,#FA92F8,0,0,1,38,1,3023,37,1,648,0,1,experiment,NA,NA,0,0.9,0.1,0,1,38,1,NA
fcp-trial,86,667429,0.0-47.0-0.0,voc_e2,12140,"[{""event"":""fullscreenenter"",""trial"":1,""time"":7235}]",NA,NA,NA,NA,NA,2,#3386FF,#D89F1C,0,10,1,40,0,7732,37,1,1013,0,1,experiment,NA,NA,1,0.7,0.3,2,3,39,1,NA
fcp-trial,87,674636,0.0-48.0-0.0,voc_e2,12140,"[{""event"":""fullscreenenter"",""trial"":1,""time"":7235}]",NA,NA,NA,NA,NA,5,#D89F1C,#3386FF,10,10,0,40,0,4980,37,1,718,10,0,experiment,NA,NA,1,0.3,0.7,3,2,40,1,NA
fcp-trial,88,679904,0.0-49.0-0.0,voc_e2,12140,"[{""event"":""fullscreenenter"",""trial"":1,""time"":7235}]",NA,NA,NA,NA,NA,4,#741CD8,#D8271C,0,0,0,38,1,2878,39,0,881,0,1,experiment,NA,NA,2,0.5,0.5,5,4,41,1,NA
fcp-trial,89,684146,0.0-50.0-0.0,voc_e2,12140,"[{""event"":""fullscreenenter"",""trial"":1,""time"":7235}]",NA,NA,NA,NA,NA,6,#FA92F8,#1CD855,0,10,0,40,0,1604,39,0,1131,10,1,experiment,NA,NA,0,0.1,0.9,1,0,42,1,NA
fcp-trial,90,687808,0.0-51.0-0.0,voc_e2,12140,"[{""event"":""fullscreenenter"",""trial"":1,""time"":7235}]",NA,NA,NA,NA,NA,6,#1CD855,#FA92F8,10,0,1,38,1,1480,37,1,674,10,1,experiment,NA,NA,0,0.9,0.1,0,1,43,1,NA
fcp-trial,91,691112,0.0-52.0-0.0,voc_e2,12140,"[{""event"":""fullscreenenter"",""trial"":1,""time"":7235}]",NA,NA,NA,NA,NA,1,#3386FF,#D89F1C,10,0,1,38,1,1030,37,1,766,10,1,experiment,NA,NA,1,0.7,0.3,2,3,44,1,NA
fcp-trial,92,693867,0.0-53.0-0.0,voc_e2,12140,"[{""event"":""fullscreenenter"",""trial"":1,""time"":7235}]",NA,NA,NA,NA,NA,5,#D89F1C,#3386FF,0,10,0,38,1,644,37,1,603,0,0,experiment,NA,NA,1,0.3,0.7,3,2,45,1,NA
fcp-trial,93,696596,0.0-54.0-0.0,voc_e2,12140,"[{""event"":""fullscreenenter"",""trial"":1,""time"":7235}]",NA,NA,NA,NA,NA,5,#FA92F8,#1CD855,0,10,0,38,1,640,37,1,582,0,0,experiment,NA,NA,0,0.1,0.9,1,0,46,2,NA
fcp-trial,94,699984,0.0-55.0-0.0,voc_e2,12140,"[{""event"":""fullscreenenter"",""trial"":1,""time"":7235}]",NA,NA,NA,NA,NA,0,#FA92F8,#1CD855,0,10,0,40,0,1112,37,1,770,0,0,experiment,NA,NA,0,0.1,0.9,1,0,47,2,NA
fcp-trial,95,702666,0.0-56.0-0.0,voc_e2,12140,"[{""event"":""fullscreenenter"",""trial"":1,""time"":7235}]",NA,NA,NA,NA,NA,4,#FA92F8,#1CD855,0,0,0,38,1,510,37,1,665,0,0,experiment,NA,NA,0,0.1,0.9,1,0,48,2,NA
fcp-trial,96,706072,0.0-57.0-0.0,voc_e2,12140,"[{""event"":""fullscreenenter"",""trial"":1,""time"":7235}]",NA,NA,NA,NA,NA,5,#741CD8,#D8271C,0,0,0,40,0,1096,39,0,800,0,1,experiment,NA,NA,2,0.5,0.5,5,4,49,2,NA
fcp-trial,97,710414,0.0-58.0-0.0,voc_e2,12140,"[{""event"":""fullscreenenter"",""trial"":1,""time"":7235}]",NA,NA,NA,NA,NA,6,#3386FF,#D89F1C,0,0,1,40,0,2039,37,1,794,0,1,experiment,NA,NA,1,0.7,0.3,2,3,50,2,NA
fcp-trial,98,713968,0.0-59.0-0.0,voc_e2,12140,"[{""event"":""fullscreenenter"",""trial"":1,""time"":7235}]",NA,NA,NA,NA,NA,2,#3386FF,#D89F1C,10,0,1,40,0,1278,39,0,770,0,0,experiment,NA,NA,1,0.7,0.3,2,3,51,2,NA
fcp-trial,99,717997,0.0-60.0-0.0,voc_e2,12140,"[{""event"":""fullscreenenter"",""trial"":1,""time"":7235}]",NA,NA,NA,NA,NA,6,#741CD8,#D8271C,10,0,0,38,1,1438,37,1,1080,10,0,experiment,NA,NA,2,0.5,0.5,5,4,52,2,NA
fcp-trial,100,721154,0.0-61.0-0.0,voc_e2,12140,"[{""event"":""fullscreenenter"",""trial"":1,""time"":7235}]",NA,NA,NA,NA,NA,2,#FA92F8,#1CD855,0,10,0,38,1,1081,37,1,568,0,0,experiment,NA,NA,0,0.1,0.9,1,0,53,2,NA
fcp-trial,101,724268,0.0-62.0-0.0,voc_e2,12140,"[{""event"":""fullscreenenter"",""trial"":1,""time"":7235}]",NA,NA,NA,NA,NA,0,#3386FF,#D89F1C,10,10,1,38,1,821,39,0,785,10,0,experiment,NA,NA,1,0.7,0.3,2,3,54,2,NA
fcp-trial,102,731280,0.0-63.0-0.0,voc_e2,12140,"[{""event"":""fullscreenenter"",""trial"":1,""time"":7235}]",NA,NA,NA,NA,NA,1,#741CD8,#D8271C,0,0,0,40,0,2250,37,1,3254,0,0,experiment,NA,NA,2,0.5,0.5,5,4,55,2,NA
fcp-trial,103,735800,0.0-64.0-0.0,voc_e2,12140,"[{""event"":""fullscreenenter"",""trial"":1,""time"":7235}]",NA,NA,NA,NA,NA,3,#741CD8,#D8271C,0,0,0,38,1,2255,39,0,756,0,1,experiment,NA,NA,2,0.5,0.5,5,4,56,2,NA
fcp-trial,104,739209,0.0-65.0-0.0,voc_e2,12140,"[{""event"":""fullscreenenter"",""trial"":1,""time"":7235}]",NA,NA,NA,NA,NA,1,#FA92F8,#1CD855,0,10,0,40,0,1179,39,0,721,10,1,experiment,NA,NA,0,0.1,0.9,1,0,57,2,NA
fcp-trial,105,742490,0.0-66.0-0.0,voc_e2,12140,"[{""event"":""fullscreenenter"",""trial"":1,""time"":7235}]",NA,NA,NA,NA,NA,3,#3386FF,#D89F1C,10,0,1,38,1,981,37,1,792,10,1,experiment,NA,NA,1,0.7,0.3,2,3,58,2,NA
fcp-trial,106,745486,0.0-67.0-0.0,voc_e2,12140,"[{""event"":""fullscreenenter"",""trial"":1,""time"":7235}]",NA,NA,NA,NA,NA,4,#3386FF,#D89F1C,10,10,1,38,1,741,39,0,742,10,0,experiment,NA,NA,1,0.7,0.3,2,3,59,2,NA
fcp-trial,107,748705,0.0-68.0-0.0,voc_e2,12140,"[{""event"":""fullscreenenter"",""trial"":1,""time"":7235}]",NA,NA,NA,NA,NA,4,#D8271C,#741CD8,10,0,1,38,1,1058,37,1,650,10,1,experiment,NA,NA,2,0.5,0.5,4,5,60,2,NA
fcp-trial,108,751756,0.0-69.0-0.0,voc_e2,12140,"[{""event"":""fullscreenenter"",""trial"":1,""time"":7235}]",NA,NA,NA,NA,NA,3,#FA92F8,#1CD855,0,10,0,38,1,790,39,0,752,10,1,experiment,NA,NA,0,0.1,0.9,1,0,61,2,NA
fcp-trial,109,755228,0.0-70.0-0.0,voc_e2,12140,"[{""event"":""fullscreenenter"",""trial"":1,""time"":7235}]",NA,NA,NA,NA,NA,0,#D8271C,#741CD8,10,0,1,38,1,1166,37,1,797,10,1,experiment,NA,NA,2,0.5,0.5,4,5,62,2,NA
fcp-trial,110,758268,0.0-71.0-0.0,voc_e2,12140,"[{""event"":""fullscreenenter"",""trial"":1,""time"":7235}]",NA,NA,NA,NA,NA,2,#741CD8,#D8271C,0,0,0,38,1,797,39,0,736,0,1,experiment,NA,NA,2,0.5,0.5,5,4,63,2,NA
fcp-trial,111,761587,0.0-72.0-0.0,voc_e2,12140,"[{""event"":""fullscreenenter"",""trial"":1,""time"":7235}]",NA,NA,NA,NA,NA,4,#1CD855,#FA92F8,10,10,1,38,1,1135,37,1,677,10,1,experiment,NA,NA,0,0.9,0.1,0,1,64,2,NA
fcp-trial,112,764682,0.0-73.0-0.0,voc_e2,12140,"[{""event"":""fullscreenenter"",""trial"":1,""time"":7235}]",NA,NA,NA,NA,NA,5,#3386FF,#D89F1C,0,0,1,38,1,921,39,0,664,0,0,experiment,NA,NA,1,0.7,0.3,2,3,65,2,NA
fcp-trial,113,767418,0.0-74.0-0.0,voc_e2,12140,"[{""event"":""fullscreenenter"",""trial"":1,""time"":7235}]",NA,NA,NA,NA,NA,1,#741CD8,#D8271C,0,10,0,38,1,610,37,1,617,0,0,experiment,NA,NA,2,0.5,0.5,5,4,66,2,NA
fcp-trial,114,770966,0.0-75.0-0.0,voc_e2,12140,"[{""event"":""fullscreenenter"",""trial"":1,""time"":7235}]",NA,NA,NA,NA,NA,5,#FA92F8,#1CD855,0,10,0,40,0,1342,39,0,697,10,1,experiment,NA,NA,0,0.1,0.9,1,0,67,2,NA
fcp-trial,115,774487,0.0-76.0-0.0,voc_e2,12140,"[{""event"":""fullscreenenter"",""trial"":1,""time"":7235}]",NA,NA,NA,NA,NA,6,#D8271C,#741CD8,0,10,1,40,0,1295,37,1,718,0,1,experiment,NA,NA,2,0.5,0.5,4,5,68,2,NA
fcp-trial,116,777570,0.0-77.0-0.0,voc_e2,12140,"[{""event"":""fullscreenenter"",""trial"":1,""time"":7235}]",NA,NA,NA,NA,NA,4,#D89F1C,#3386FF,10,10,0,38,1,946,39,0,627,10,1,experiment,NA,NA,1,0.3,0.7,3,2,69,2,NA
fcp-trial,117,780588,0.0-78.0-0.0,voc_e2,12140,"[{""event"":""fullscreenenter"",""trial"":1,""time"":7235}]",NA,NA,NA,NA,NA,3,#FA92F8,#1CD855,0,10,0,38,1,966,37,1,544,0,0,experiment,NA,NA,0,0.1,0.9,1,0,70,2,NA
fcp-trial,118,783733,0.0-79.0-0.0,voc_e2,12140,"[{""event"":""fullscreenenter"",""trial"":1,""time"":7235}]",NA,NA,NA,NA,NA,1,#D89F1C,#3386FF,0,10,0,40,0,735,39,0,900,10,1,experiment,NA,NA,1,0.3,0.7,3,2,71,2,NA
fcp-trial,119,787348,0.0-80.0-0.0,voc_e2,12140,"[{""event"":""fullscreenenter"",""trial"":1,""time"":7235}]",NA,NA,NA,NA,NA,0,#3386FF,#D89F1C,0,0,1,40,0,1274,39,0,835,0,0,experiment,NA,NA,1,0.7,0.3,2,3,72,2,NA
fcp-trial,120,790284,0.0-81.0-0.0,voc_e2,12140,"[{""event"":""fullscreenenter"",""trial"":1,""time"":7235}]",NA,NA,NA,NA,NA,4,#741CD8,#D8271C,0,0,0,38,1,810,37,1,618,0,0,experiment,NA,NA,2,0.5,0.5,5,4,73,2,NA
fcp-trial,121,793096,0.0-82.0-0.0,voc_e2,12140,"[{""event"":""fullscreenenter"",""trial"":1,""time"":7235}]",NA,NA,NA,NA,NA,2,#1CD855,#FA92F8,10,0,1,40,0,731,39,0,572,0,0,experiment,NA,NA,0,0.9,0.1,0,1,74,2,NA
fcp-trial,122,797300,0.0-83.0-0.0,voc_e2,12140,"[{""event"":""fullscreenenter"",""trial"":1,""time"":7235}]",NA,NA,NA,NA,NA,3,#741CD8,#D8271C,10,0,0,40,0,1993,39,0,703,0,1,experiment,NA,NA,2,0.5,0.5,5,4,75,2,NA
fcp-trial,123,800150,0.0-84.0-0.0,voc_e2,12140,"[{""event"":""fullscreenenter"",""trial"":1,""time"":7235}]",NA,NA,NA,NA,NA,6,#3386FF,#D89F1C,10,0,1,38,1,782,37,1,560,10,1,experiment,NA,NA,1,0.7,0.3,2,3,76,2,NA
fcp-trial,124,803056,0.0-85.0-0.0,voc_e2,12140,"[{""event"":""fullscreenenter"",""trial"":1,""time"":7235}]",NA,NA,NA,NA,NA,5,#741CD8,#D8271C,10,0,0,40,0,785,39,0,611,0,1,experiment,NA,NA,2,0.5,0.5,5,4,77,2,NA
fcp-trial,125,806522,0.0-86.0-0.0,voc_e2,12140,"[{""event"":""fullscreenenter"",""trial"":1,""time"":7235}]",NA,NA,NA,NA,NA,0,#FA92F8,#1CD855,10,10,0,40,0,1369,37,1,588,10,0,experiment,NA,NA,0,0.1,0.9,1,0,78,2,NA
fcp-trial,126,809808,0.0-87.0-0.0,voc_e2,12140,"[{""event"":""fullscreenenter"",""trial"":1,""time"":7235}]",NA,NA,NA,NA,NA,2,#741CD8,#D8271C,0,10,0,38,1,806,37,1,971,0,0,experiment,NA,NA,2,0.5,0.5,5,4,79,2,NA
fcp-trial,127,812680,0.0-88.0-0.0,voc_e2,12140,"[{""event"":""fullscreenenter"",""trial"":1,""time"":7235}]",NA,NA,NA,NA,NA,2,#3386FF,#D89F1C,10,0,1,38,1,770,39,0,596,0,0,experiment,NA,NA,1,0.7,0.3,2,3,80,2,NA
fcp-trial,128,815554,0.0-89.0-0.0,voc_e2,12140,"[{""event"":""fullscreenenter"",""trial"":1,""time"":7235}]",NA,NA,NA,NA,NA,1,#1CD855,#FA92F8,0,0,1,38,1,687,37,1,678,0,1,experiment,NA,NA,0,0.9,0.1,0,1,81,2,NA
fcp-trial,129,818619,0.0-90.0-0.0,voc_e2,12140,"[{""event"":""fullscreenenter"",""trial"":1,""time"":7235}]",NA,NA,NA,NA,NA,0,#741CD8,#D8271C,0,0,0,40,0,813,39,0,741,0,1,experiment,NA,NA,2,0.5,0.5,5,4,82,2,NA
fcp-trial,130,828696,0.0-91.0-0.0,voc_e2,12140,"[{""event"":""fullscreenenter"",""trial"":1,""time"":7235}]",NA,NA,NA,NA,NA,3,#3386FF,#D89F1C,10,0,1,38,1,5027,37,1,3543,10,1,experiment,NA,NA,1,0.7,0.3,2,3,83,2,NA
fcp-trial,131,834034,0.0-92.0-0.0,voc_e2,12140,"[{""event"":""fullscreenenter"",""trial"":1,""time"":7235}]",NA,NA,NA,NA,NA,6,#1CD855,#FA92F8,10,0,1,38,1,1671,39,0,2158,0,0,experiment,NA,NA,0,0.9,0.1,0,1,84,2,NA
fcp-trial,132,844875,0.0-93.0-0.0,voc_e2,12140,"[{""event"":""fullscreenenter"",""trial"":1,""time"":7235}]",NA,NA,NA,NA,NA,1,#741CD8,#D8271C,0,0,0,40,0,1274,37,1,8058,0,0,experiment,NA,NA,2,0.5,0.5,5,4,85,2,NA
fcp-trial,133,848698,0.0-94.0-0.0,voc_e2,12140,"[{""event"":""fullscreenenter"",""trial"":1,""time"":7235}]",NA,NA,NA,NA,NA,3,#1CD855,#FA92F8,10,0,1,38,1,1470,39,0,844,0,0,experiment,NA,NA,0,0.9,0.1,0,1,86,2,NA
fcp-trial,134,852847,0.0-95.0-0.0,voc_e2,12140,"[{""event"":""fullscreenenter"",""trial"":1,""time"":7235}]",NA,NA,NA,NA,NA,5,#D8271C,#741CD8,10,10,1,38,1,909,39,0,1734,10,0,experiment,NA,NA,2,0.5,0.5,4,5,87,2,NA
fcp-trial,135,856032,0.0-96.0-0.0,voc_e2,12140,"[{""event"":""fullscreenenter"",""trial"":1,""time"":7235}]",NA,NA,NA,NA,NA,5,#FA92F8,#1CD855,0,10,0,38,1,1062,37,1,616,0,0,experiment,NA,NA,0,0.1,0.9,1,0,88,2,NA
fcp-trial,136,861312,0.0-97.0-0.0,voc_e2,12140,"[{""event"":""fullscreenenter"",""trial"":1,""time"":7235}]",NA,NA,NA,NA,NA,1,#D89F1C,#3386FF,0,10,0,38,1,1030,39,0,2743,10,1,experiment,NA,NA,1,0.3,0.7,3,2,89,2,NA
fcp-trial,137,868861,0.0-98.0-0.0,voc_e2,12140,"[{""event"":""fullscreenenter"",""trial"":1,""time"":7235}]",NA,NA,NA,NA,NA,6,#1CD855,#FA92F8,10,0,1,38,1,866,39,0,5175,0,0,experiment,NA,NA,0,0.9,0.1,0,1,90,2,NA
fcp-trial,138,872499,0.0-99.0-0.0,voc_e2,12140,"[{""event"":""fullscreenenter"",""trial"":1,""time"":7235}]",NA,NA,NA,NA,NA,2,#3386FF,#D89F1C,0,0,1,40,0,1116,39,0,1013,0,0,experiment,NA,NA,1,0.7,0.3,2,3,91,3,NA
fcp-trial,139,876270,0.0-100.0-0.0,voc_e2,12140,"[{""event"":""fullscreenenter"",""trial"":1,""time"":7235}]",NA,NA,NA,NA,NA,0,#D8271C,#741CD8,0,10,1,38,1,1620,37,1,641,0,1,experiment,NA,NA,2,0.5,0.5,4,5,92,3,NA
fcp-trial,140,880072,0.0-101.0-0.0,voc_e2,12140,"[{""event"":""fullscreenenter"",""trial"":1,""time"":7235}]",NA,NA,NA,NA,NA,1,#1CD855,#FA92F8,10,0,1,40,0,1205,39,0,1088,0,0,experiment,NA,NA,0,0.9,0.1,0,1,93,3,NA
fcp-trial,141,883283,0.0-102.0-0.0,voc_e2,12140,"[{""event"":""fullscreenenter"",""trial"":1,""time"":7235}]",NA,NA,NA,NA,NA,5,#D89F1C,#3386FF,0,10,0,38,1,985,37,1,718,0,0,experiment,NA,NA,1,0.3,0.7,3,2,94,3,NA
fcp-trial,142,887366,0.0-103.0-0.0,voc_e2,12140,"[{""event"":""fullscreenenter"",""trial"":1,""time"":7235}]",NA,NA,NA,NA,NA,6,#D8271C,#741CD8,0,10,1,40,0,1434,37,1,1141,0,1,experiment,NA,NA,2,0.5,0.5,4,5,95,3,NA
fcp-trial,143,890850,0.0-104.0-0.0,voc_e2,12140,"[{""event"":""fullscreenenter"",""trial"":1,""time"":7235}]",NA,NA,NA,NA,NA,3,#3386FF,#D89F1C,10,10,1,40,0,1042,39,0,935,10,0,experiment,NA,NA,1,0.7,0.3,2,3,96,3,NA
fcp-trial,144,894368,0.0-105.0-0.0,voc_e2,12140,"[{""event"":""fullscreenenter"",""trial"":1,""time"":7235}]",NA,NA,NA,NA,NA,4,#1CD855,#FA92F8,10,0,1,40,0,1134,39,0,874,0,0,experiment,NA,NA,0,0.9,0.1,0,1,97,3,NA
fcp-trial,145,897396,0.0-106.0-0.0,voc_e2,12140,"[{""event"":""fullscreenenter"",""trial"":1,""time"":7235}]",NA,NA,NA,NA,NA,3,#D8271C,#741CD8,0,0,1,40,0,832,39,0,690,0,0,experiment,NA,NA,2,0.5,0.5,4,5,98,3,NA
fcp-trial,146,900873,0.0-107.0-0.0,voc_e2,12140,"[{""event"":""fullscreenenter"",""trial"":1,""time"":7235}]",NA,NA,NA,NA,NA,0,#1CD855,#FA92F8,0,0,1,38,1,1222,37,1,743,0,1,experiment,NA,NA,0,0.9,0.1,0,1,99,3,NA
fcp-trial,147,904259,0.0-108.0-0.0,voc_e2,12140,"[{""event"":""fullscreenenter"",""trial"":1,""time"":7235}]",NA,NA,NA,NA,NA,4,#741CD8,#D8271C,10,10,0,40,0,1182,39,0,695,10,1,experiment,NA,NA,2,0.5,0.5,5,4,100,3,NA
fcp-trial,148,907441,0.0-109.0-0.0,voc_e2,12140,"[{""event"":""fullscreenenter"",""trial"":1,""time"":7235}]",NA,NA,NA,NA,NA,4,#3386FF,#D89F1C,0,0,1,40,0,965,39,0,709,0,0,experiment,NA,NA,1,0.7,0.3,2,3,101,3,NA
fcp-trial,149,911534,0.0-110.0-0.0,voc_e2,12140,"[{""event"":""fullscreenenter"",""trial"":1,""time"":7235}]",NA,NA,NA,NA,NA,2,#D8271C,#741CD8,0,10,1,40,0,1616,37,1,968,0,1,experiment,NA,NA,2,0.5,0.5,4,5,102,3,NA
fcp-trial,150,914959,0.0-111.0-0.0,voc_e2,12140,"[{""event"":""fullscreenenter"",""trial"":1,""time"":7235}]",NA,NA,NA,NA,NA,6,#D89F1C,#3386FF,0,10,0,40,0,848,37,1,1069,0,0,experiment,NA,NA,1,0.3,0.7,3,2,103,3,NA
fcp-trial,151,918859,0.0-112.0-0.0,voc_e2,12140,"[{""event"":""fullscreenenter"",""trial"":1,""time"":7235}]",NA,NA,NA,NA,NA,2,#FA92F8,#1CD855,0,10,0,40,0,1607,37,1,782,0,0,experiment,NA,NA,0,0.1,0.9,1,0,104,3,NA
fcp-trial,152,922252,0.0-113.0-0.0,voc_e2,12140,"[{""event"":""fullscreenenter"",""trial"":1,""time"":7235}]",NA,NA,NA,NA,NA,0,#3386FF,#D89F1C,10,10,1,40,0,1050,37,1,832,10,1,experiment,NA,NA,1,0.7,0.3,2,3,105,3,NA
audio-instructions,153,1504058,0.0-114.0,voc_e2,12140,"[{""event"":""fullscreenenter"",""trial"":1,""time"":7235},{""event"":""blur"",""trial"":153,""time"":1052022},{""event"":""focus"",""trial"":153,""time"":1501764}]",NA,577339,static/audio/pause.wav,NA,0,NA,NA,NA,NA,NA,NA,NA,NA,NA,NA,NA,NA,NA,NA,NA,NA,NA,NA,NA,NA,NA,NA,NA,NA,NA
fcp-trial,154,1508825,0.0-115.0-0.0,voc_e2,12140,"[{""event"":""fullscreenenter"",""trial"":1,""time"":7235},{""event"":""blur"",""trial"":153,""time"":1052022},{""event"":""focus"",""trial"":153,""time"":1501764}]",NA,NA,NA,NA,NA,5,#1CD855,#FA92F8,10,0,1,38,1,2245,37,1,1015,10,1,experiment,NA,NA,0,0.9,0.1,0,1,106,3,NA
fcp-trial,155,1516242,0.0-116.0-0.0,voc_e2,12140,"[{""event"":""fullscreenenter"",""trial"":1,""time"":7235},{""event"":""blur"",""trial"":153,""time"":1052022},{""event"":""focus"",""trial"":153,""time"":1501764}]",NA,NA,NA,NA,NA,2,#D8271C,#741CD8,10,0,1,40,0,5112,39,0,797,0,0,experiment,NA,NA,2,0.5,0.5,4,5,107,3,NA
fcp-trial,156,1520036,0.0-117.0-0.0,voc_e2,12140,"[{""event"":""fullscreenenter"",""trial"":1,""time"":7235},{""event"":""blur"",""trial"":153,""time"":1052022},{""event"":""focus"",""trial"":153,""time"":1501764}]",NA,NA,NA,NA,NA,4,#FA92F8,#1CD855,0,10,0,38,1,1148,37,1,1138,0,0,experiment,NA,NA,0,0.1,0.9,1,0,108,3,NA
fcp-trial,157,1524335,0.0-118.0-0.0,voc_e2,12140,"[{""event"":""fullscreenenter"",""trial"":1,""time"":7235},{""event"":""blur"",""trial"":153,""time"":1052022},{""event"":""focus"",""trial"":153,""time"":1501764}]",NA,NA,NA,NA,NA,3,#D89F1C,#3386FF,0,0,0,38,1,1633,39,0,1157,0,1,experiment,NA,NA,1,0.3,0.7,3,2,109,3,NA
fcp-trial,158,1527753,0.0-119.0-0.0,voc_e2,12140,"[{""event"":""fullscreenenter"",""trial"":1,""time"":7235},{""event"":""blur"",""trial"":153,""time"":1052022},{""event"":""focus"",""trial"":153,""time"":1501764}]",NA,NA,NA,NA,NA,6,#741CD8,#D8271C,0,10,0,38,1,850,37,1,1059,0,0,experiment,NA,NA,2,0.5,0.5,5,4,110,3,NA
fcp-trial,159,1535184,0.0-120.0-0.0,voc_e2,12140,"[{""event"":""fullscreenenter"",""trial"":1,""time"":7235},{""event"":""blur"",""trial"":153,""time"":1052022},{""event"":""focus"",""trial"":153,""time"":1501764}]",NA,NA,NA,NA,NA,6,#D89F1C,#3386FF,0,10,0,38,1,5267,39,0,655,10,1,experiment,NA,NA,1,0.3,0.7,3,2,111,3,NA
fcp-trial,160,1538181,0.0-121.0-0.0,voc_e2,12140,"[{""event"":""fullscreenenter"",""trial"":1,""time"":7235},{""event"":""blur"",""trial"":153,""time"":1052022},{""event"":""focus"",""trial"":153,""time"":1501764}]",NA,NA,NA,NA,NA,0,#D8271C,#741CD8,10,0,1,38,1,954,37,1,537,10,1,experiment,NA,NA,2,0.5,0.5,4,5,112,3,NA
fcp-trial,161,1541466,0.0-122.0-0.0,voc_e2,12140,"[{""event"":""fullscreenenter"",""trial"":1,""time"":7235},{""event"":""blur"",""trial"":153,""time"":1052022},{""event"":""focus"",""trial"":153,""time"":1501764}]",NA,NA,NA,NA,NA,3,#FA92F8,#1CD855,0,10,0,38,1,1175,39,0,604,10,1,experiment,NA,NA,0,0.1,0.9,1,0,113,3,NA
fcp-trial,162,1547391,0.0-123.0-0.0,voc_e2,12140,"[{""event"":""fullscreenenter"",""trial"":1,""time"":7235},{""event"":""blur"",""trial"":153,""time"":1052022},{""event"":""focus"",""trial"":153,""time"":1501764}]",NA,NA,NA,NA,NA,5,#D89F1C,#3386FF,0,0,0,38,1,3709,37,1,709,0,0,experiment,NA,NA,1,0.3,0.7,3,2,114,3,NA
fcp-trial,163,1550503,0.0-124.0-0.0,voc_e2,12140,"[{""event"":""fullscreenenter"",""trial"":1,""time"":7235},{""event"":""blur"",""trial"":153,""time"":1052022},{""event"":""focus"",""trial"":153,""time"":1501764}]",NA,NA,NA,NA,NA,4,#D89F1C,#3386FF,10,10,0,38,1,937,39,0,664,10,1,experiment,NA,NA,1,0.3,0.7,3,2,115,3,NA
fcp-trial,164,1553288,0.0-125.0-0.0,voc_e2,12140,"[{""event"":""fullscreenenter"",""trial"":1,""time"":7235},{""event"":""blur"",""trial"":153,""time"":1052022},{""event"":""focus"",""trial"":153,""time"":1501764}]",NA,NA,NA,NA,NA,0,#FA92F8,#1CD855,0,10,0,38,1,705,39,0,572,10,1,experiment,NA,NA,0,0.1,0.9,1,0,116,3,NA
fcp-trial,165,1568298,0.0-126.0-0.0,voc_e2,12140,"[{""event"":""fullscreenenter"",""trial"":1,""time"":7235},{""event"":""blur"",""trial"":153,""time"":1052022},{""event"":""focus"",""trial"":153,""time"":1501764}]",NA,NA,NA,NA,NA,3,#741CD8,#D8271C,0,10,0,null,null,null,null,null,null,NA,0,experiment,NA,NA,2,0.5,0.5,5,4,117,3,NA
fcp-trial,166,1572514,0.0-127.0-0.0,voc_e2,12140,"[{""event"":""fullscreenenter"",""trial"":1,""time"":7235},{""event"":""blur"",""trial"":153,""time"":1052022},{""event"":""focus"",""trial"":153,""time"":1501764}]",NA,NA,NA,NA,NA,1,#3386FF,#D89F1C,0,0,1,40,0,1757,39,0,951,0,0,experiment,NA,NA,1,0.7,0.3,2,3,118,3,NA
fcp-trial,167,1579820,0.0-128.0-0.0,voc_e2,12140,"[{""event"":""fullscreenenter"",""trial"":1,""time"":7235},{""event"":""blur"",""trial"":153,""time"":1052022},{""event"":""focus"",""trial"":153,""time"":1501764}]",NA,NA,NA,NA,NA,1,#FA92F8,#1CD855,0,10,0,38,1,1781,37,1,4017,0,0,experiment,NA,NA,0,0.1,0.9,1,0,119,3,NA
fcp-trial,168,1588175,0.0-129.0-0.0,voc_e2,12140,"[{""event"":""fullscreenenter"",""trial"":1,""time"":7235},{""event"":""blur"",""trial"":153,""time"":1052022},{""event"":""focus"",""trial"":153,""time"":1501764}]",NA,NA,NA,NA,NA,0,#D89F1C,#3386FF,0,10,0,38,1,1790,37,1,5056,0,0,experiment,NA,NA,1,0.3,0.7,3,2,120,3,NA
fcp-trial,169,1591645,0.0-130.0-0.0,voc_e2,12140,"[{""event"":""fullscreenenter"",""trial"":1,""time"":7235},{""event"":""blur"",""trial"":153,""time"":1052022},{""event"":""focus"",""trial"":153,""time"":1501764}]",NA,NA,NA,NA,NA,2,#FA92F8,#1CD855,0,10,0,38,1,1262,39,0,701,10,1,experiment,NA,NA,0,0.1,0.9,1,0,121,3,NA
fcp-trial,170,1594440,0.0-131.0-0.0,voc_e2,12140,"[{""event"":""fullscreenenter"",""trial"":1,""time"":7235},{""event"":""blur"",""trial"":153,""time"":1052022},{""event"":""focus"",""trial"":153,""time"":1501764}]",NA,NA,NA,NA,NA,4,#D8271C,#741CD8,10,10,1,38,1,685,39,0,604,10,0,experiment,NA,NA,2,0.5,0.5,4,5,122,3,NA
fcp-trial,171,1597574,0.0-132.0-0.0,voc_e2,12140,"[{""event"":""fullscreenenter"",""trial"":1,""time"":7235},{""event"":""blur"",""trial"":153,""time"":1052022},{""event"":""focus"",""trial"":153,""time"":1501764}]",NA,NA,NA,NA,NA,6,#1CD855,#FA92F8,10,0,1,38,1,866,37,1,764,10,1,experiment,NA,NA,0,0.9,0.1,0,1,123,3,NA
fcp-trial,172,1600917,0.0-133.0-0.0,voc_e2,12140,"[{""event"":""fullscreenenter"",""trial"":1,""time"":7235},{""event"":""blur"",""trial"":153,""time"":1052022},{""event"":""focus"",""trial"":153,""time"":1501764}]",NA,NA,NA,NA,NA,5,#D8271C,#741CD8,0,10,1,38,1,1116,39,0,720,10,0,experiment,NA,NA,2,0.5,0.5,4,5,124,3,NA
fcp-trial,173,1608127,0.0-134.0-0.0,voc_e2,12140,"[{""event"":""fullscreenenter"",""trial"":1,""time"":7235},{""event"":""blur"",""trial"":153,""time"":1052022},{""event"":""focus"",""trial"":153,""time"":1501764}]",NA,NA,NA,NA,NA,2,#3386FF,#D89F1C,10,10,1,38,1,5010,39,0,692,10,0,experiment,NA,NA,1,0.7,0.3,2,3,125,3,NA
fcp-trial,174,1611848,0.0-135.0-0.0,voc_e2,12140,"[{""event"":""fullscreenenter"",""trial"":1,""time"":7235},{""event"":""blur"",""trial"":153,""time"":1052022},{""event"":""focus"",""trial"":153,""time"":1501764}]",NA,NA,NA,NA,NA,1,#D8271C,#741CD8,0,10,1,38,1,1524,37,1,688,0,1,experiment,NA,NA,2,0.5,0.5,4,5,126,3,NA
fcp-trial,175,1614696,0.0-136.0-0.0,voc_e2,12140,"[{""event"":""fullscreenenter"",""trial"":1,""time"":7235},{""event"":""blur"",""trial"":153,""time"":1052022},{""event"":""focus"",""trial"":153,""time"":1501764}]",NA,NA,NA,NA,NA,1,#1CD855,#FA92F8,10,0,1,38,1,775,39,0,566,0,0,experiment,NA,NA,0,0.9,0.1,0,1,127,3,NA
fcp-trial,176,1619273,0.0-137.0-0.0,voc_e2,12140,"[{""event"":""fullscreenenter"",""trial"":1,""time"":7235},{""event"":""blur"",""trial"":153,""time"":1052022},{""event"":""focus"",""trial"":153,""time"":1501764}]",NA,NA,NA,NA,NA,2,#D8271C,#741CD8,0,0,1,38,1,1173,39,0,1900,0,0,experiment,NA,NA,2,0.5,0.5,4,5,128,3,NA
fcp-trial,177,1623927,0.0-138.0-0.0,voc_e2,12140,"[{""event"":""fullscreenenter"",""trial"":1,""time"":7235},{""event"":""blur"",""trial"":153,""time"":1052022},{""event"":""focus"",""trial"":153,""time"":1501764}]",NA,NA,NA,NA,NA,0,#D8271C,#741CD8,0,0,1,38,1,1852,37,1,1295,0,1,experiment,NA,NA,2,0.5,0.5,4,5,129,3,NA
fcp-trial,178,1638931,0.0-139.0-0.0,voc_e2,12140,"[{""event"":""fullscreenenter"",""trial"":1,""time"":7235},{""event"":""blur"",""trial"":153,""time"":1052022},{""event"":""focus"",""trial"":153,""time"":1501764}]",NA,NA,NA,NA,NA,0,#FA92F8,#1CD855,0,10,0,null,null,null,null,null,null,NA,0,experiment,NA,NA,0,0.1,0.9,1,0,130,3,NA
fcp-trial,179,1646174,0.0-140.0-0.0,voc_e2,12140,"[{""event"":""fullscreenenter"",""trial"":1,""time"":7235},{""event"":""blur"",""trial"":153,""time"":1052022},{""event"":""focus"",""trial"":153,""time"":1501764}]",NA,NA,NA,NA,NA,5,#3386FF,#D89F1C,10,0,1,38,1,4736,39,0,998,0,0,experiment,NA,NA,1,0.7,0.3,2,3,131,3,NA
fcp-trial,180,1649780,0.0-141.0-0.0,voc_e2,12140,"[{""event"":""fullscreenenter"",""trial"":1,""time"":7235},{""event"":""blur"",""trial"":153,""time"":1052022},{""event"":""focus"",""trial"":153,""time"":1501764}]",NA,NA,NA,NA,NA,0,#D89F1C,#3386FF,0,0,0,38,1,1486,37,1,610,0,0,experiment,NA,NA,1,0.3,0.7,3,2,132,3,NA
fcp-trial,181,1653730,0.0-142.0-0.0,voc_e2,12140,"[{""event"":""fullscreenenter"",""trial"":1,""time"":7235},{""event"":""blur"",""trial"":153,""time"":1052022},{""event"":""focus"",""trial"":153,""time"":1501764}]",NA,NA,NA,NA,NA,5,#D8271C,#741CD8,10,10,1,38,1,1209,39,0,1232,10,0,experiment,NA,NA,2,0.5,0.5,4,5,133,3,NA
fcp-trial,182,1657175,0.0-143.0-0.0,voc_e2,12140,"[{""event"":""fullscreenenter"",""trial"":1,""time"":7235},{""event"":""blur"",""trial"":153,""time"":1052022},{""event"":""focus"",""trial"":153,""time"":1501764}]",NA,NA,NA,NA,NA,4,#FA92F8,#1CD855,0,10,0,40,0,1217,37,1,718,0,0,experiment,NA,NA,0,0.1,0.9,1,0,134,3,NA
fcp-trial,183,1661227,0.0-144.0-0.0,voc_e2,12140,"[{""event"":""fullscreenenter"",""trial"":1,""time"":7235},{""event"":""blur"",""trial"":153,""time"":1052022},{""event"":""focus"",""trial"":153,""time"":1501764}]",NA,NA,NA,NA,NA,4,#D8271C,#741CD8,0,10,1,38,1,1385,39,0,1158,10,0,experiment,NA,NA,2,0.5,0.5,4,5,135,3,NA
fcp-trial,184,1665759,0.0-145.0-0.0,voc_e2,12140,"[{""event"":""fullscreenenter"",""trial"":1,""time"":7235},{""event"":""blur"",""trial"":153,""time"":1052022},{""event"":""focus"",""trial"":153,""time"":1501764}]",NA,NA,NA,NA,NA,3,#3386FF,#D89F1C,0,0,1,38,1,2382,37,1,641,0,1,experiment,NA,NA,1,0.7,0.3,2,3,136,4,NA
fcp-trial,185,1668868,0.0-146.0-0.0,voc_e2,12140,"[{""event"":""fullscreenenter"",""trial"":1,""time"":7235},{""event"":""blur"",""trial"":153,""time"":1052022},{""event"":""focus"",""trial"":153,""time"":1501764}]",NA,NA,NA,NA,NA,4,#D89F1C,#3386FF,0,0,0,38,1,794,39,0,807,0,1,experiment,NA,NA,1,0.3,0.7,3,2,137,4,NA
fcp-trial,186,1671870,0.0-147.0-0.0,voc_e2,12140,"[{""event"":""fullscreenenter"",""trial"":1,""time"":7235},{""event"":""blur"",""trial"":153,""time"":1052022},{""event"":""focus"",""trial"":153,""time"":1501764}]",NA,NA,NA,NA,NA,2,#1CD855,#FA92F8,10,0,1,38,1,837,37,1,655,10,1,experiment,NA,NA,0,0.9,0.1,0,1,138,4,NA
fcp-trial,187,1678210,0.0-148.0-0.0,voc_e2,12140,"[{""event"":""fullscreenenter"",""trial"":1,""time"":7235},{""event"":""blur"",""trial"":153,""time"":1052022},{""event"":""focus"",""trial"":153,""time"":1501764}]",NA,NA,NA,NA,NA,6,#741CD8,#D8271C,0,10,0,38,1,4156,37,1,675,0,0,experiment,NA,NA,2,0.5,0.5,5,4,139,4,NA
fcp-trial,188,1681686,0.0-149.0-0.0,voc_e2,12140,"[{""event"":""fullscreenenter"",""trial"":1,""time"":7235},{""event"":""blur"",""trial"":153,""time"":1052022},{""event"":""focus"",""trial"":153,""time"":1501764}]",NA,NA,NA,NA,NA,3,#1CD855,#FA92F8,10,0,1,38,1,1011,39,0,956,0,0,experiment,NA,NA,0,0.9,0.1,0,1,140,4,NA
fcp-trial,189,1684751,0.0-150.0-0.0,voc_e2,12140,"[{""event"":""fullscreenenter"",""trial"":1,""time"":7235},{""event"":""blur"",""trial"":153,""time"":1052022},{""event"":""focus"",""trial"":153,""time"":1501764}]",NA,NA,NA,NA,NA,6,#D89F1C,#3386FF,0,10,0,38,1,1075,37,1,479,0,0,experiment,NA,NA,1,0.3,0.7,3,2,141,4,NA
fcp-trial,190,1692318,0.0-151.0-0.0,voc_e2,12140,"[{""event"":""fullscreenenter"",""trial"":1,""time"":7235},{""event"":""blur"",""trial"":153,""time"":1052022},{""event"":""focus"",""trial"":153,""time"":1501764}]",NA,NA,NA,NA,NA,3,#741CD8,#D8271C,0,0,0,38,1,5453,39,0,603,0,1,experiment,NA,NA,2,0.5,0.5,5,4,142,4,NA
fcp-trial,191,1696354,0.0-152.0-0.0,voc_e2,12140,"[{""event"":""fullscreenenter"",""trial"":1,""time"":7235},{""event"":""blur"",""trial"":153,""time"":1052022},{""event"":""focus"",""trial"":153,""time"":1501764}]",NA,NA,NA,NA,NA,1,#741CD8,#D8271C,0,0,0,40,0,1776,39,0,748,0,1,experiment,NA,NA,2,0.5,0.5,5,4,143,4,NA
fcp-trial,192,1699209,0.0-153.0-0.0,voc_e2,12140,"[{""event"":""fullscreenenter"",""trial"":1,""time"":7235},{""event"":""blur"",""trial"":153,""time"":1052022},{""event"":""focus"",""trial"":153,""time"":1501764}]",NA,NA,NA,NA,NA,6,#FA92F8,#1CD855,0,10,0,38,1,715,37,1,630,0,0,experiment,NA,NA,0,0.1,0.9,1,0,144,4,NA
fcp-trial,193,1702475,0.0-154.0-0.0,voc_e2,12140,"[{""event"":""fullscreenenter"",""trial"":1,""time"":7235},{""event"":""blur"",""trial"":153,""time"":1052022},{""event"":""focus"",""trial"":153,""time"":1501764}]",NA,NA,NA,NA,NA,5,#FA92F8,#1CD855,0,10,0,38,1,828,39,0,931,10,1,experiment,NA,NA,0,0.1,0.9,1,0,145,4,NA
fcp-trial,194,1707065,0.0-155.0-0.0,voc_e2,12140,"[{""event"":""fullscreenenter"",""trial"":1,""time"":7235},{""event"":""blur"",""trial"":153,""time"":1052022},{""event"":""focus"",""trial"":153,""time"":1501764}]",NA,NA,NA,NA,NA,2,#3386FF,#D89F1C,10,0,1,38,1,2099,37,1,985,10,1,experiment,NA,NA,1,0.7,0.3,2,3,146,4,NA
fcp-trial,195,1711126,0.0-156.0-0.0,voc_e2,12140,"[{""event"":""fullscreenenter"",""trial"":1,""time"":7235},{""event"":""blur"",""trial"":153,""time"":1052022},{""event"":""focus"",""trial"":153,""time"":1501764}]",NA,NA,NA,NA,NA,1,#3386FF,#D89F1C,10,0,1,38,1,1613,39,0,940,0,0,experiment,NA,NA,1,0.7,0.3,2,3,147,4,NA
fcp-trial,196,1726134,0.0-157.0-0.0,voc_e2,12140,"[{""event"":""fullscreenenter"",""trial"":1,""time"":7235},{""event"":""blur"",""trial"":153,""time"":1052022},{""event"":""focus"",""trial"":153,""time"":1501764}]",NA,NA,NA,NA,NA,1,#1CD855,#FA92F8,10,0,1,null,null,null,null,null,null,NA,0,experiment,NA,NA,0,0.9,0.1,0,1,148,4,NA
fcp-trial,197,1741140,0.0-158.0-0.0,voc_e2,12140,"[{""event"":""fullscreenenter"",""trial"":1,""time"":7235},{""event"":""blur"",""trial"":153,""time"":1052022},{""event"":""focus"",""trial"":153,""time"":1501764}]",NA,NA,NA,NA,NA,0,#FA92F8,#1CD855,0,0,0,null,null,null,null,null,null,NA,0,experiment,NA,NA,0,0.1,0.9,1,0,149,4,NA
fcp-trial,198,1744687,0.0-159.0-0.0,voc_e2,12140,"[{""event"":""fullscreenenter"",""trial"":1,""time"":7235},{""event"":""blur"",""trial"":153,""time"":1052022},{""event"":""focus"",""trial"":153,""time"":1501764}]",NA,NA,NA,NA,NA,1,#3386FF,#D89F1C,10,0,1,40,0,1326,37,1,710,10,1,experiment,NA,NA,1,0.7,0.3,2,3,150,4,NA
fcp-trial,199,1759695,0.0-160.0-0.0,voc_e2,12140,"[{""event"":""fullscreenenter"",""trial"":1,""time"":7235},{""event"":""blur"",""trial"":153,""time"":1052022},{""event"":""focus"",""trial"":153,""time"":1501764}]",NA,NA,NA,NA,NA,2,#1CD855,#FA92F8,10,0,1,null,null,null,null,null,null,NA,0,experiment,NA,NA,0,0.9,0.1,0,1,151,4,NA
fcp-trial,200,1776898,0.0-161.0-0.0,voc_e2,12140,"[{""event"":""fullscreenenter"",""trial"":1,""time"":7235},{""event"":""blur"",""trial"":153,""time"":1052022},{""event"":""focus"",""trial"":153,""time"":1501764}]",NA,NA,NA,NA,NA,0,#D89F1C,#3386FF,10,0,0,38,1,1942,null,null,null,NA,0,experiment,NA,NA,1,0.3,0.7,3,2,152,4,NA
fcp-trial,201,1793169,0.0-162.0-0.0,voc_e2,12140,"[{""event"":""fullscreenenter"",""trial"":1,""time"":7235},{""event"":""blur"",""trial"":153,""time"":1052022},{""event"":""focus"",""trial"":153,""time"":1501764}]",NA,NA,NA,NA,NA,2,#741CD8,#D8271C,0,10,0,38,1,1009,null,null,null,NA,0,experiment,NA,NA,2,0.5,0.5,5,4,153,4,NA
fcp-trial,202,1799284,0.0-163.0-0.0,voc_e2,12140,"[{""event"":""fullscreenenter"",""trial"":1,""time"":7235},{""event"":""blur"",""trial"":153,""time"":1052022},{""event"":""focus"",""trial"":153,""time"":1501764}]",NA,NA,NA,NA,NA,4,#3386FF,#D89F1C,10,0,1,38,1,3617,37,1,988,10,1,experiment,NA,NA,1,0.7,0.3,2,3,154,4,NA
fcp-trial,203,1805131,0.0-164.0-0.0,voc_e2,12140,"[{""event"":""fullscreenenter"",""trial"":1,""time"":7235},{""event"":""blur"",""trial"":153,""time"":1052022},{""event"":""focus"",""trial"":153,""time"":1501764}]",NA,NA,NA,NA,NA,3,#FA92F8,#1CD855,0,10,0,40,0,1653,37,1,2685,0,0,experiment,NA,NA,0,0.1,0.9,1,0,155,4,NA
fcp-trial,204,1815892,0.0-165.0-0.0,voc_e2,12140,"[{""event"":""fullscreenenter"",""trial"":1,""time"":7235},{""event"":""blur"",""trial"":153,""time"":1052022},{""event"":""focus"",""trial"":153,""time"":1501764}]",NA,NA,NA,NA,NA,2,#3386FF,#D89F1C,10,10,1,38,1,1322,39,0,7934,10,0,experiment,NA,NA,1,0.7,0.3,2,3,156,4,NA
fcp-trial,205,1827711,0.0-166.0-0.0,voc_e2,12140,"[{""event"":""fullscreenenter"",""trial"":1,""time"":7235},{""event"":""blur"",""trial"":153,""time"":1052022},{""event"":""focus"",""trial"":153,""time"":1501764}]",NA,NA,NA,NA,NA,3,#D8271C,#741CD8,10,0,1,38,1,9680,37,1,631,10,1,experiment,NA,NA,2,0.5,0.5,4,5,157,4,NA
fcp-trial,206,1833909,0.0-167.0-0.0,voc_e2,12140,"[{""event"":""fullscreenenter"",""trial"":1,""time"":7235},{""event"":""blur"",""trial"":153,""time"":1052022},{""event"":""focus"",""trial"":153,""time"":1501764}]",NA,NA,NA,NA,NA,5,#FA92F8,#1CD855,0,10,0,38,1,3746,39,0,943,10,1,experiment,NA,NA,0,0.1,0.9,1,0,158,4,NA
fcp-trial,207,1837885,0.0-168.0-0.0,voc_e2,12140,"[{""event"":""fullscreenenter"",""trial"":1,""time"":7235},{""event"":""blur"",""trial"":153,""time"":1052022},{""event"":""focus"",""trial"":153,""time"":1501764}]",NA,NA,NA,NA,NA,3,#3386FF,#D89F1C,10,0,1,40,0,1637,37,1,832,10,1,experiment,NA,NA,1,0.7,0.3,2,3,159,4,NA
fcp-trial,208,1841125,0.0-169.0-0.0,voc_e2,12140,"[{""event"":""fullscreenenter"",""trial"":1,""time"":7235},{""event"":""blur"",""trial"":153,""time"":1052022},{""event"":""focus"",""trial"":153,""time"":1501764}]",NA,NA,NA,NA,NA,5,#D8271C,#741CD8,10,10,1,38,1,903,37,1,828,10,1,experiment,NA,NA,2,0.5,0.5,4,5,160,4,NA
fcp-trial,209,1844713,0.0-170.0-0.0,voc_e2,12140,"[{""event"":""fullscreenenter"",""trial"":1,""time"":7235},{""event"":""blur"",""trial"":153,""time"":1052022},{""event"":""focus"",""trial"":153,""time"":1501764}]",NA,NA,NA,NA,NA,4,#D8271C,#741CD8,10,0,1,40,0,1467,39,0,615,0,0,experiment,NA,NA,2,0.5,0.5,4,5,161,4,NA
fcp-trial,210,1847928,0.0-171.0-0.0,voc_e2,12140,"[{""event"":""fullscreenenter"",""trial"":1,""time"":7235},{""event"":""blur"",""trial"":153,""time"":1052022},{""event"":""focus"",""trial"":153,""time"":1501764}]",NA,NA,NA,NA,NA,6,#1CD855,#FA92F8,10,0,1,38,1,1150,37,1,558,10,1,experiment,NA,NA,0,0.9,0.1,0,1,162,4,NA
fcp-trial,211,1857203,0.0-172.0-0.0,voc_e2,12140,"[{""event"":""fullscreenenter"",""trial"":1,""time"":7235},{""event"":""blur"",""trial"":153,""time"":1052022},{""event"":""focus"",""trial"":153,""time"":1501764}]",NA,NA,NA,NA,NA,5,#3386FF,#D89F1C,0,0,1,38,1,6897,37,1,871,0,1,experiment,NA,NA,1,0.7,0.3,2,3,163,4,NA
fcp-trial,212,1861942,0.0-173.0-0.0,voc_e2,12140,"[{""event"":""fullscreenenter"",""trial"":1,""time"":7235},{""event"":""blur"",""trial"":153,""time"":1052022},{""event"":""focus"",""trial"":153,""time"":1501764}]",NA,NA,NA,NA,NA,1,#741CD8,#D8271C,10,0,0,40,0,2392,37,1,838,10,0,experiment,NA,NA,2,0.5,0.5,5,4,164,4,NA
fcp-trial,213,1865494,0.0-174.0-0.0,voc_e2,12140,"[{""event"":""fullscreenenter"",""trial"":1,""time"":7235},{""event"":""blur"",""trial"":153,""time"":1052022},{""event"":""focus"",""trial"":153,""time"":1501764}]",NA,NA,NA,NA,NA,0,#D8271C,#741CD8,10,10,1,40,0,1346,37,1,702,10,1,experiment,NA,NA,2,0.5,0.5,4,5,165,4,NA
fcp-trial,214,1868824,0.0-175.0-0.0,voc_e2,12140,"[{""event"":""fullscreenenter"",""trial"":1,""time"":7235},{""event"":""blur"",""trial"":153,""time"":1052022},{""event"":""focus"",""trial"":153,""time"":1501764}]",NA,NA,NA,NA,NA,4,#FA92F8,#1CD855,0,10,0,40,0,1231,37,1,594,0,0,experiment,NA,NA,0,0.1,0.9,1,0,166,4,NA
fcp-trial,215,1872156,0.0-176.0-0.0,voc_e2,12140,"[{""event"":""fullscreenenter"",""trial"":1,""time"":7235},{""event"":""blur"",""trial"":153,""time"":1052022},{""event"":""focus"",""trial"":153,""time"":1501764}]",NA,NA,NA,NA,NA,6,#D8271C,#741CD8,10,0,1,38,1,1144,37,1,684,10,1,experiment,NA,NA,2,0.5,0.5,4,5,167,4,NA
fcp-trial,216,1875541,0.0-177.0-0.0,voc_e2,12140,"[{""event"":""fullscreenenter"",""trial"":1,""time"":7235},{""event"":""blur"",""trial"":153,""time"":1052022},{""event"":""focus"",""trial"":153,""time"":1501764}]",NA,NA,NA,NA,NA,6,#D89F1C,#3386FF,0,10,0,38,1,1221,39,0,658,10,1,experiment,NA,NA,1,0.3,0.7,3,2,168,4,NA
fcp-trial,217,1879247,0.0-178.0-0.0,voc_e2,12140,"[{""event"":""fullscreenenter"",""trial"":1,""time"":7235},{""event"":""blur"",""trial"":153,""time"":1052022},{""event"":""focus"",""trial"":153,""time"":1501764}]",NA,NA,NA,NA,NA,2,#D89F1C,#3386FF,0,0,0,40,0,782,39,0,1418,0,1,experiment,NA,NA,1,0.3,0.7,3,2,169,4,NA
fcp-trial,218,1882226,0.0-179.0-0.0,voc_e2,12140,"[{""event"":""fullscreenenter"",""trial"":1,""time"":7235},{""event"":""blur"",""trial"":153,""time"":1052022},{""event"":""focus"",""trial"":153,""time"":1501764}]",NA,NA,NA,NA,NA,1,#D89F1C,#3386FF,0,10,0,38,1,769,37,1,704,0,0,experiment,NA,NA,1,0.3,0.7,3,2,170,4,NA
fcp-trial,219,1886279,0.0-180.0-0.0,voc_e2,12140,"[{""event"":""fullscreenenter"",""trial"":1,""time"":7235},{""event"":""blur"",""trial"":153,""time"":1052022},{""event"":""focus"",""trial"":153,""time"":1501764}]",NA,NA,NA,NA,NA,6,#D8271C,#741CD8,10,10,1,38,1,1921,39,0,624,10,0,experiment,NA,NA,2,0.5,0.5,4,5,171,4,NA
fcp-trial,220,1889080,0.0-181.0-0.0,voc_e2,12140,"[{""event"":""fullscreenenter"",""trial"":1,""time"":7235},{""event"":""blur"",""trial"":153,""time"":1052022},{""event"":""focus"",""trial"":153,""time"":1501764}]",NA,NA,NA,NA,NA,1,#FA92F8,#1CD855,0,10,0,38,1,626,39,0,666,10,1,experiment,NA,NA,0,0.1,0.9,1,0,172,4,NA
fcp-trial,221,1892042,0.0-182.0-0.0,voc_e2,12140,"[{""event"":""fullscreenenter"",""trial"":1,""time"":7235},{""event"":""blur"",""trial"":153,""time"":1052022},{""event"":""focus"",""trial"":153,""time"":1501764}]",NA,NA,NA,NA,NA,3,#FA92F8,#1CD855,0,10,0,38,1,696,39,0,759,10,1,experiment,NA,NA,0,0.1,0.9,1,0,173,4,NA
fcp-trial,222,1894699,0.0-183.0-0.0,voc_e2,12140,"[{""event"":""fullscreenenter"",""trial"":1,""time"":7235},{""event"":""blur"",""trial"":153,""time"":1052022},{""event"":""focus"",""trial"":153,""time"":1501764}]",NA,NA,NA,NA,NA,5,#1CD855,#FA92F8,10,10,1,38,1,630,39,0,518,10,0,experiment,NA,NA,0,0.9,0.1,0,1,174,4,NA
fcp-trial,223,1897319,0.0-184.0-0.0,voc_e2,12140,"[{""event"":""fullscreenenter"",""trial"":1,""time"":7235},{""event"":""blur"",""trial"":153,""time"":1052022},{""event"":""focus"",""trial"":153,""time"":1501764}]",NA,NA,NA,NA,NA,3,#D89F1C,#3386FF,0,10,0,38,1,445,39,0,668,10,1,experiment,NA,NA,1,0.3,0.7,3,2,175,4,NA
fcp-trial,224,1899774,0.0-185.0-0.0,voc_e2,12140,"[{""event"":""fullscreenenter"",""trial"":1,""time"":7235},{""event"":""blur"",""trial"":153,""time"":1052022},{""event"":""focus"",""trial"":153,""time"":1501764}]",NA,NA,NA,NA,NA,4,#741CD8,#D8271C,10,10,0,38,1,320,39,0,629,10,1,experiment,NA,NA,2,0.5,0.5,5,4,176,4,NA
fcp-trial,225,1902464,0.0-186.0-0.0,voc_e2,12140,"[{""event"":""fullscreenenter"",""trial"":1,""time"":7235},{""event"":""blur"",""trial"":153,""time"":1052022},{""event"":""focus"",""trial"":153,""time"":1501764}]",NA,NA,NA,NA,NA,0,#3386FF,#D89F1C,10,0,1,38,1,709,39,0,475,0,0,experiment,NA,NA,1,0.7,0.3,2,3,177,4,NA
fcp-trial,226,1905110,0.0-187.0-0.0,voc_e2,12140,"[{""event"":""fullscreenenter"",""trial"":1,""time"":7235},{""event"":""blur"",""trial"":153,""time"":1052022},{""event"":""focus"",""trial"":153,""time"":1501764}]",NA,NA,NA,NA,NA,0,#1CD855,#FA92F8,10,0,1,38,1,680,37,1,457,10,1,experiment,NA,NA,0,0.9,0.1,0,1,178,4,NA
fcp-trial,227,1911075,0.0-188.0-0.0,voc_e2,12140,"[{""event"":""fullscreenenter"",""trial"":1,""time"":7235},{""event"":""blur"",""trial"":153,""time"":1052022},{""event"":""focus"",""trial"":153,""time"":1501764}]",NA,NA,NA,NA,NA,6,#3386FF,#D89F1C,10,0,1,38,1,2448,37,1,2012,10,1,experiment,NA,NA,1,0.7,0.3,2,3,179,4,NA
fcp-trial,228,1913820,0.0-189.0-0.0,voc_e2,12140,"[{""event"":""fullscreenenter"",""trial"":1,""time"":7235},{""event"":""blur"",""trial"":153,""time"":1052022},{""event"":""focus"",""trial"":153,""time"":1501764}]",NA,NA,NA,NA,NA,2,#D8271C,#741CD8,10,10,1,38,1,684,37,1,551,10,1,experiment,NA,NA,2,0.5,0.5,4,5,180,4,NA
fcp-trial,229,1917043,0.0-190.0-0.0,voc_e2,12140,"[{""event"":""fullscreenenter"",""trial"":1,""time"":7235},{""event"":""blur"",""trial"":153,""time"":1052022},{""event"":""focus"",""trial"":153,""time"":1501764}]",NA,NA,NA,NA,NA,1,#D8271C,#741CD8,10,0,1,38,1,825,39,0,890,0,0,experiment,NA,NA,2,0.5,0.5,4,5,181,5,NA
fcp-trial,230,1919575,0.0-191.0-0.0,voc_e2,12140,"[{""event"":""fullscreenenter"",""trial"":1,""time"":7235},{""event"":""blur"",""trial"":153,""time"":1052022},{""event"":""focus"",""trial"":153,""time"":1501764}]",NA,NA,NA,NA,NA,5,#D89F1C,#3386FF,0,0,0,38,1,461,37,1,564,0,0,experiment,NA,NA,1,0.3,0.7,3,2,182,5,NA
fcp-trial,231,1922637,0.0-192.0-0.0,voc_e2,12140,"[{""event"":""fullscreenenter"",""trial"":1,""time"":7235},{""event"":""blur"",""trial"":153,""time"":1052022},{""event"":""focus"",""trial"":153,""time"":1501764}]",NA,NA,NA,NA,NA,6,#FA92F8,#1CD855,10,10,0,38,1,809,39,0,745,10,1,experiment,NA,NA,0,0.1,0.9,1,0,183,5,NA
fcp-trial,232,1925342,0.0-193.0-0.0,voc_e2,12140,"[{""event"":""fullscreenenter"",""trial"":1,""time"":7235},{""event"":""blur"",""trial"":153,""time"":1052022},{""event"":""focus"",""trial"":153,""time"":1501764}]",NA,NA,NA,NA,NA,3,#D8271C,#741CD8,0,10,1,38,1,616,37,1,582,0,1,experiment,NA,NA,2,0.5,0.5,4,5,184,5,NA
fcp-trial,233,1928290,0.0-194.0-0.0,voc_e2,12140,"[{""event"":""fullscreenenter"",""trial"":1,""time"":7235},{""event"":""blur"",""trial"":153,""time"":1052022},{""event"":""focus"",""trial"":153,""time"":1501764}]",NA,NA,NA,NA,NA,2,#FA92F8,#1CD855,0,10,0,38,1,570,39,0,872,10,1,experiment,NA,NA,0,0.1,0.9,1,0,185,5,NA
fcp-trial,234,1931459,0.0-195.0-0.0,voc_e2,12140,"[{""event"":""fullscreenenter"",""trial"":1,""time"":7235},{""event"":""blur"",""trial"":153,""time"":1052022},{""event"":""focus"",""trial"":153,""time"":1501764}]",NA,NA,NA,NA,NA,4,#1CD855,#FA92F8,10,0,1,38,1,820,37,1,841,10,1,experiment,NA,NA,0,0.9,0.1,0,1,186,5,NA
fcp-trial,235,1935471,0.0-196.0-0.0,voc_e2,12140,"[{""event"":""fullscreenenter"",""trial"":1,""time"":7235},{""event"":""blur"",""trial"":153,""time"":1052022},{""event"":""focus"",""trial"":153,""time"":1501764}]",NA,NA,NA,NA,NA,4,#3386FF,#D89F1C,10,0,1,38,1,1553,37,1,954,10,1,experiment,NA,NA,1,0.7,0.3,2,3,187,5,NA
fcp-trial,236,1938498,0.0-197.0-0.0,voc_e2,12140,"[{""event"":""fullscreenenter"",""trial"":1,""time"":7235},{""event"":""blur"",""trial"":153,""time"":1052022},{""event"":""focus"",""trial"":153,""time"":1501764}]",NA,NA,NA,NA,NA,0,#D8271C,#741CD8,10,0,1,38,1,998,39,0,522,0,0,experiment,NA,NA,2,0.5,0.5,4,5,188,5,NA
fcp-trial,237,1941349,0.0-198.0-0.0,voc_e2,12140,"[{""event"":""fullscreenenter"",""trial"":1,""time"":7235},{""event"":""blur"",""trial"":153,""time"":1052022},{""event"":""focus"",""trial"":153,""time"":1501764}]",NA,NA,NA,NA,NA,5,#741CD8,#D8271C,10,10,0,38,1,709,37,1,631,10,0,experiment,NA,NA,2,0.5,0.5,5,4,189,5,NA
fcp-trial,238,1944269,0.0-199.0-0.0,voc_e2,12140,"[{""event"":""fullscreenenter"",""trial"":1,""time"":7235},{""event"":""blur"",""trial"":153,""time"":1052022},{""event"":""focus"",""trial"":153,""time"":1501764}]",NA,NA,NA,NA,NA,6,#FA92F8,#1CD855,0,10,0,38,1,705,37,1,707,0,0,experiment,NA,NA,0,0.1,0.9,1,0,190,5,NA
fcp-trial,239,1946726,0.0-200.0-0.0,voc_e2,12140,"[{""event"":""fullscreenenter"",""trial"":1,""time"":7235},{""event"":""blur"",""trial"":153,""time"":1052022},{""event"":""focus"",""trial"":153,""time"":1501764}]",NA,NA,NA,NA,NA,0,#D8271C,#741CD8,0,0,1,38,1,424,39,0,524,0,0,experiment,NA,NA,2,0.5,0.5,4,5,191,5,NA
fcp-trial,240,1950659,0.0-201.0-0.0,voc_e2,12140,"[{""event"":""fullscreenenter"",""trial"":1,""time"":7235},{""event"":""blur"",""trial"":153,""time"":1052022},{""event"":""focus"",""trial"":153,""time"":1501764}]",NA,NA,NA,NA,NA,4,#D8271C,#741CD8,10,10,1,38,1,1196,39,0,1232,10,0,experiment,NA,NA,2,0.5,0.5,4,5,192,5,NA
fcp-trial,241,1953529,0.0-202.0-0.0,voc_e2,12140,"[{""event"":""fullscreenenter"",""trial"":1,""time"":7235},{""event"":""blur"",""trial"":153,""time"":1052022},{""event"":""focus"",""trial"":153,""time"":1501764}]",NA,NA,NA,NA,NA,3,#D89F1C,#3386FF,0,10,0,38,1,752,37,1,612,0,0,experiment,NA,NA,1,0.3,0.7,3,2,193,5,NA
fcp-trial,242,1956491,0.0-203.0-0.0,voc_e2,12140,"[{""event"":""fullscreenenter"",""trial"":1,""time"":7235},{""event"":""blur"",""trial"":153,""time"":1052022},{""event"":""focus"",""trial"":153,""time"":1501764}]",NA,NA,NA,NA,NA,3,#1CD855,#FA92F8,10,0,1,38,1,558,37,1,900,10,1,experiment,NA,NA,0,0.9,0.1,0,1,194,5,NA
fcp-trial,243,1960137,0.0-204.0-0.0,voc_e2,12140,"[{""event"":""fullscreenenter"",""trial"":1,""time"":7235},{""event"":""blur"",""trial"":153,""time"":1052022},{""event"":""focus"",""trial"":153,""time"":1501764}]",NA,NA,NA,NA,NA,4,#3386FF,#D89F1C,10,10,1,40,0,1588,39,0,548,10,0,experiment,NA,NA,1,0.7,0.3,2,3,195,5,NA
fcp-trial,244,1963291,0.0-205.0-0.0,voc_e2,12140,"[{""event"":""fullscreenenter"",""trial"":1,""time"":7235},{""event"":""blur"",""trial"":153,""time"":1052022},{""event"":""focus"",""trial"":153,""time"":1501764}]",NA,NA,NA,NA,NA,1,#D89F1C,#3386FF,0,10,0,40,0,1060,37,1,587,0,0,experiment,NA,NA,1,0.3,0.7,3,2,196,5,NA
fcp-trial,245,1966170,0.0-206.0-0.0,voc_e2,12140,"[{""event"":""fullscreenenter"",""trial"":1,""time"":7235},{""event"":""blur"",""trial"":153,""time"":1052022},{""event"":""focus"",""trial"":153,""time"":1501764}]",NA,NA,NA,NA,NA,5,#D8271C,#741CD8,10,10,1,38,1,731,37,1,640,10,1,experiment,NA,NA,2,0.5,0.5,4,5,197,5,NA
fcp-trial,246,1969043,0.0-207.0-0.0,voc_e2,12140,"[{""event"":""fullscreenenter"",""trial"":1,""time"":7235},{""event"":""blur"",""trial"":153,""time"":1052022},{""event"":""focus"",""trial"":153,""time"":1501764}]",NA,NA,NA,NA,NA,0,#1CD855,#FA92F8,10,0,1,38,1,818,39,0,548,0,0,experiment,NA,NA,0,0.9,0.1,0,1,198,5,NA
fcp-trial,247,1972143,0.0-208.0-0.0,voc_e2,12140,"[{""event"":""fullscreenenter"",""trial"":1,""time"":7235},{""event"":""blur"",""trial"":153,""time"":1052022},{""event"":""focus"",""trial"":153,""time"":1501764}]",NA,NA,NA,NA,NA,2,#FA92F8,#1CD855,0,10,0,40,0,1011,37,1,582,0,0,experiment,NA,NA,0,0.1,0.9,1,0,199,5,NA
fcp-trial,248,1974788,0.0-209.0-0.0,voc_e2,12140,"[{""event"":""fullscreenenter"",""trial"":1,""time"":7235},{""event"":""blur"",""trial"":153,""time"":1052022},{""event"":""focus"",""trial"":153,""time"":1501764}]",NA,NA,NA,NA,NA,0,#3386FF,#D89F1C,0,0,1,38,1,546,39,0,593,0,0,experiment,NA,NA,1,0.7,0.3,2,3,200,5,NA
fcp-trial,249,1977896,0.0-210.0-0.0,voc_e2,12140,"[{""event"":""fullscreenenter"",""trial"":1,""time"":7235},{""event"":""blur"",""trial"":153,""time"":1052022},{""event"":""focus"",""trial"":153,""time"":1501764}]",NA,NA,NA,NA,NA,6,#D8271C,#741CD8,0,10,1,40,0,1041,37,1,556,0,1,experiment,NA,NA,2,0.5,0.5,4,5,201,5,NA
fcp-trial,250,1980557,0.0-211.0-0.0,voc_e2,12140,"[{""event"":""fullscreenenter"",""trial"":1,""time"":7235},{""event"":""blur"",""trial"":153,""time"":1052022},{""event"":""focus"",""trial"":153,""time"":1501764}]",NA,NA,NA,NA,NA,1,#741CD8,#D8271C,10,10,0,38,1,615,39,0,542,10,1,experiment,NA,NA,2,0.5,0.5,5,4,202,5,NA
fcp-trial,251,1983803,0.0-212.0-0.0,voc_e2,12140,"[{""event"":""fullscreenenter"",""trial"":1,""time"":7235},{""event"":""blur"",""trial"":153,""time"":1052022},{""event"":""focus"",""trial"":153,""time"":1501764}]",NA,NA,NA,NA,NA,5,#3386FF,#D89F1C,10,0,1,40,0,785,39,0,953,0,0,experiment,NA,NA,1,0.7,0.3,2,3,203,5,NA
fcp-trial,252,1986832,0.0-213.0-0.0,voc_e2,12140,"[{""event"":""fullscreenenter"",""trial"":1,""time"":7235},{""event"":""blur"",""trial"":153,""time"":1052022},{""event"":""focus"",""trial"":153,""time"":1501764}]",NA,NA,NA,NA,NA,5,#FA92F8,#1CD855,0,0,0,38,1,1006,37,1,515,0,0,experiment,NA,NA,0,0.1,0.9,1,0,204,5,NA
fcp-trial,253,1989863,0.0-214.0-0.0,voc_e2,12140,"[{""event"":""fullscreenenter"",""trial"":1,""time"":7235},{""event"":""blur"",""trial"":153,""time"":1052022},{""event"":""focus"",""trial"":153,""time"":1501764}]",NA,NA,NA,NA,NA,2,#741CD8,#D8271C,10,10,0,38,1,924,39,0,600,10,1,experiment,NA,NA,2,0.5,0.5,5,4,205,5,NA
fcp-trial,254,1992846,0.0-215.0-0.0,voc_e2,12140,"[{""event"":""fullscreenenter"",""trial"":1,""time"":7235},{""event"":""blur"",""trial"":153,""time"":1052022},{""event"":""focus"",""trial"":153,""time"":1501764}]",NA,NA,NA,NA,NA,2,#D89F1C,#3386FF,10,0,0,40,0,776,37,1,702,10,0,experiment,NA,NA,1,0.3,0.7,3,2,206,5,NA
fcp-trial,255,1995978,0.0-216.0-0.0,voc_e2,12140,"[{""event"":""fullscreenenter"",""trial"":1,""time"":7235},{""event"":""blur"",""trial"":153,""time"":1052022},{""event"":""focus"",""trial"":153,""time"":1501764}]",NA,NA,NA,NA,NA,1,#FA92F8,#1CD855,0,10,0,38,1,896,37,1,728,0,0,experiment,NA,NA,0,0.1,0.9,1,0,207,5,NA
fcp-trial,256,1999018,0.0-217.0-0.0,voc_e2,12140,"[{""event"":""fullscreenenter"",""trial"":1,""time"":7235},{""event"":""blur"",""trial"":153,""time"":1052022},{""event"":""focus"",""trial"":153,""time"":1501764}]",NA,NA,NA,NA,NA,3,#741CD8,#D8271C,0,10,0,40,0,776,39,0,755,10,1,experiment,NA,NA,2,0.5,0.5,5,4,208,5,NA
fcp-trial,257,2007611,0.0-218.0-0.0,voc_e2,12140,"[{""event"":""fullscreenenter"",""trial"":1,""time"":7235},{""event"":""blur"",""trial"":153,""time"":1052022},{""event"":""focus"",""trial"":153,""time"":1501764}]",NA,NA,NA,NA,NA,6,#D89F1C,#3386FF,10,10,0,38,1,709,37,1,6375,10,0,experiment,NA,NA,1,0.3,0.7,3,2,209,5,NA
fcp-trial,258,2010851,0.0-219.0-0.0,voc_e2,12140,"[{""event"":""fullscreenenter"",""trial"":1,""time"":7235},{""event"":""blur"",""trial"":153,""time"":1052022},{""event"":""focus"",""trial"":153,""time"":1501764}]",NA,NA,NA,NA,NA,4,#FA92F8,#1CD855,0,10,0,38,1,936,39,0,796,10,1,experiment,NA,NA,0,0.1,0.9,1,0,210,5,NA
audio-instructions,259,2027096,0.0-220.0,voc_e2,12140,"[{""event"":""fullscreenenter"",""trial"":1,""time"":7235},{""event"":""blur"",""trial"":153,""time"":1052022},{""event"":""focus"",""trial"":153,""time"":1501764}]",NA,11759,static/audio/pause.wav,NA,0,NA,NA,NA,NA,NA,NA,NA,NA,NA,NA,NA,NA,NA,NA,NA,NA,NA,NA,NA,NA,NA,NA,NA,NA,NA
fcp-trial,260,2037775,0.0-221.0-0.0,voc_e2,12140,"[{""event"":""fullscreenenter"",""trial"":1,""time"":7235},{""event"":""blur"",""trial"":153,""time"":1052022},{""event"":""focus"",""trial"":153,""time"":1501764}]",NA,NA,NA,NA,NA,3,#1CD855,#FA92F8,10,0,1,38,1,5206,37,1,3965,10,1,experiment,NA,NA,0,0.9,0.1,0,1,211,5,NA
fcp-trial,261,2044893,0.0-222.0-0.0,voc_e2,12140,"[{""event"":""fullscreenenter"",""trial"":1,""time"":7235},{""event"":""blur"",""trial"":153,""time"":1052022},{""event"":""focus"",""trial"":153,""time"":1501764}]",NA,NA,NA,NA,NA,5,#741CD8,#D8271C,0,10,0,40,0,4843,39,0,771,10,1,experiment,NA,NA,2,0.5,0.5,5,4,212,5,NA
fcp-trial,262,2053382,0.0-223.0-0.0,voc_e2,12140,"[{""event"":""fullscreenenter"",""trial"":1,""time"":7235},{""event"":""blur"",""trial"":153,""time"":1052022},{""event"":""focus"",""trial"":153,""time"":1501764}]",NA,NA,NA,NA,NA,6,#D89F1C,#3386FF,0,10,0,38,1,6199,37,1,784,0,0,experiment,NA,NA,1,0.3,0.7,3,2,213,5,NA
fcp-trial,263,2058706,0.0-224.0-0.0,voc_e2,12140,"[{""event"":""fullscreenenter"",""trial"":1,""time"":7235},{""event"":""blur"",""trial"":153,""time"":1052022},{""event"":""focus"",""trial"":153,""time"":1501764}]",NA,NA,NA,NA,NA,5,#FA92F8,#1CD855,0,10,0,38,1,2734,39,0,1085,10,1,experiment,NA,NA,0,0.1,0.9,1,0,214,5,NA
fcp-trial,264,2061943,0.0-225.0-0.0,voc_e2,12140,"[{""event"":""fullscreenenter"",""trial"":1,""time"":7235},{""event"":""blur"",""trial"":153,""time"":1052022},{""event"":""focus"",""trial"":153,""time"":1501764}]",NA,NA,NA,NA,NA,1,#1CD855,#FA92F8,10,10,1,38,1,918,37,1,810,10,1,experiment,NA,NA,0,0.9,0.1,0,1,215,5,NA
fcp-trial,265,2065122,0.0-226.0-0.0,voc_e2,12140,"[{""event"":""fullscreenenter"",""trial"":1,""time"":7235},{""event"":""blur"",""trial"":153,""time"":1052022},{""event"":""focus"",""trial"":153,""time"":1501764}]",NA,NA,NA,NA,NA,1,#741CD8,#D8271C,0,10,0,38,1,943,39,0,727,10,1,experiment,NA,NA,2,0.5,0.5,5,4,216,5,NA
fcp-trial,266,2068126,0.0-227.0-0.0,voc_e2,12140,"[{""event"":""fullscreenenter"",""trial"":1,""time"":7235},{""event"":""blur"",""trial"":153,""time"":1052022},{""event"":""focus"",""trial"":153,""time"":1501764}]",NA,NA,NA,NA,NA,3,#741CD8,#D8271C,0,0,0,38,1,810,37,1,685,0,0,experiment,NA,NA,2,0.5,0.5,5,4,217,5,NA
fcp-trial,267,2071332,0.0-228.0-0.0,voc_e2,12140,"[{""event"":""fullscreenenter"",""trial"":1,""time"":7235},{""event"":""blur"",""trial"":153,""time"":1052022},{""event"":""focus"",""trial"":153,""time"":1501764}]",NA,NA,NA,NA,NA,5,#D89F1C,#3386FF,10,10,0,38,1,973,39,0,724,10,1,experiment,NA,NA,1,0.3,0.7,3,2,218,5,NA
fcp-trial,268,2074521,0.0-229.0-0.0,voc_e2,12140,"[{""event"":""fullscreenenter"",""trial"":1,""time"":7235},{""event"":""blur"",""trial"":153,""time"":1052022},{""event"":""focus"",""trial"":153,""time"":1501764}]",NA,NA,NA,NA,NA,2,#1CD855,#FA92F8,10,0,1,38,1,1027,37,1,651,10,1,experiment,NA,NA,0,0.9,0.1,0,1,219,5,NA
fcp-trial,269,2077932,0.0-230.0-0.0,voc_e2,12140,"[{""event"":""fullscreenenter"",""trial"":1,""time"":7235},{""event"":""blur"",""trial"":153,""time"":1052022},{""event"":""focus"",""trial"":153,""time"":1501764}]",NA,NA,NA,NA,NA,4,#1CD855,#FA92F8,10,0,1,38,1,1235,39,0,666,0,0,experiment,NA,NA,0,0.9,0.1,0,1,220,5,NA
fcp-trial,270,2082662,0.0-231.0-0.0,voc_e2,12140,"[{""event"":""fullscreenenter"",""trial"":1,""time"":7235},{""event"":""blur"",""trial"":153,""time"":1052022},{""event"":""focus"",""trial"":153,""time"":1501764}]",NA,NA,NA,NA,NA,6,#D8271C,#741CD8,10,0,1,40,0,2374,39,0,849,0,0,experiment,NA,NA,2,0.5,0.5,4,5,221,5,NA
fcp-trial,271,2086249,0.0-232.0-0.0,voc_e2,12140,"[{""event"":""fullscreenenter"",""trial"":1,""time"":7235},{""event"":""blur"",""trial"":153,""time"":1052022},{""event"":""focus"",""trial"":153,""time"":1501764}]",NA,NA,NA,NA,NA,2,#741CD8,#D8271C,10,0,0,38,1,1447,37,1,632,10,0,experiment,NA,NA,2,0.5,0.5,5,4,222,5,NA
fcp-trial,272,2089406,0.0-233.0-0.0,voc_e2,12140,"[{""event"":""fullscreenenter"",""trial"":1,""time"":7235},{""event"":""blur"",""trial"":153,""time"":1052022},{""event"":""focus"",""trial"":153,""time"":1501764}]",NA,NA,NA,NA,NA,0,#D89F1C,#3386FF,0,10,0,38,1,996,37,1,652,0,0,experiment,NA,NA,1,0.3,0.7,3,2,223,5,NA
fcp-trial,273,2093428,0.0-234.0-0.0,voc_e2,12140,"[{""event"":""fullscreenenter"",""trial"":1,""time"":7235},{""event"":""blur"",""trial"":153,""time"":1052022},{""event"":""focus"",""trial"":153,""time"":1501764}]",NA,NA,NA,NA,NA,2,#3386FF,#D89F1C,0,0,1,38,1,1798,39,0,717,0,0,experiment,NA,NA,1,0.7,0.3,2,3,224,5,NA
fcp-trial,274,2097211,0.0-235.0-0.0,voc_e2,12140,"[{""event"":""fullscreenenter"",""trial"":1,""time"":7235},{""event"":""blur"",""trial"":153,""time"":1052022},{""event"":""focus"",""trial"":153,""time"":1501764}]",NA,NA,NA,NA,NA,6,#1CD855,#FA92F8,10,0,1,40,0,1594,37,1,679,10,1,experiment,NA,NA,0,0.9,0.1,0,1,225,5,NA
fcp-trial,275,2103743,0.0-236.0-0.0,voc_e2,12140,"[{""event"":""fullscreenenter"",""trial"":1,""time"":7235},{""event"":""blur"",""trial"":153,""time"":1052022},{""event"":""focus"",""trial"":153,""time"":1501764}]",NA,NA,NA,NA,NA,3,#3386FF,#D89F1C,10,0,1,38,1,4165,39,0,861,0,0,experiment,NA,NA,1,0.7,0.3,2,3,226,6,NA
fcp-trial,276,2118750,0.0-237.0-0.0,voc_e2,12140,"[{""event"":""fullscreenenter"",""trial"":1,""time"":7235},{""event"":""blur"",""trial"":153,""time"":1052022},{""event"":""focus"",""trial"":153,""time"":1501764}]",NA,NA,NA,NA,NA,4,#D8271C,#741CD8,10,0,1,null,null,null,null,null,null,NA,0,experiment,NA,NA,2,0.5,0.5,4,5,227,6,NA
fcp-trial,277,2123374,0.0-238.0-0.0,voc_e2,12140,"[{""event"":""fullscreenenter"",""trial"":1,""time"":7235},{""event"":""blur"",""trial"":153,""time"":1052022},{""event"":""focus"",""trial"":153,""time"":1501764}]",NA,NA,NA,NA,NA,1,#D89F1C,#3386FF,0,10,0,40,0,2311,39,0,804,10,1,experiment,NA,NA,1,0.3,0.7,3,2,228,6,NA
fcp-trial,278,2126909,0.0-239.0-0.0,voc_e2,12140,"[{""event"":""fullscreenenter"",""trial"":1,""time"":7235},{""event"":""blur"",""trial"":153,""time"":1052022},{""event"":""focus"",""trial"":153,""time"":1501764}]",NA,NA,NA,NA,NA,0,#FA92F8,#1CD855,0,10,0,38,1,1226,37,1,805,0,0,experiment,NA,NA,0,0.1,0.9,1,0,229,6,NA
fcp-trial,279,2130983,0.0-240.0-0.0,voc_e2,12140,"[{""event"":""fullscreenenter"",""trial"":1,""time"":7235},{""event"":""blur"",""trial"":153,""time"":1052022},{""event"":""focus"",""trial"":153,""time"":1501764}]",NA,NA,NA,NA,NA,4,#D89F1C,#3386FF,0,10,0,38,1,1614,39,0,953,10,1,experiment,NA,NA,1,0.3,0.7,3,2,230,6,NA
fcp-trial,280,2137068,0.0-241.0-0.0,voc_e2,12140,"[{""event"":""fullscreenenter"",""trial"":1,""time"":7235},{""event"":""blur"",""trial"":153,""time"":1052022},{""event"":""focus"",""trial"":153,""time"":1501764}]",NA,NA,NA,NA,NA,0,#D8271C,#741CD8,10,0,1,38,1,1394,37,1,3186,10,1,experiment,NA,NA,2,0.5,0.5,4,5,231,6,NA
fcp-trial,281,2154169,0.0-242.0-0.0,voc_e2,12140,"[{""event"":""fullscreenenter"",""trial"":1,""time"":7235},{""event"":""blur"",""trial"":153,""time"":1052022},{""event"":""focus"",""trial"":153,""time"":1501764}]",NA,NA,NA,NA,NA,5,#1CD855,#FA92F8,10,10,1,40,0,1840,null,null,null,NA,0,experiment,NA,NA,0,0.9,0.1,0,1,232,6,NA
fcp-trial,282,2157959,0.0-243.0-0.0,voc_e2,12140,"[{""event"":""fullscreenenter"",""trial"":1,""time"":7235},{""event"":""blur"",""trial"":153,""time"":1052022},{""event"":""focus"",""trial"":153,""time"":1501764}]",NA,NA,NA,NA,NA,3,#3386FF,#D89F1C,10,10,1,40,0,1300,37,1,981,10,1,experiment,NA,NA,1,0.7,0.3,2,3,233,6,NA
fcp-trial,283,2162489,0.0-244.0-0.0,voc_e2,12140,"[{""event"":""fullscreenenter"",""trial"":1,""time"":7235},{""event"":""blur"",""trial"":153,""time"":1052022},{""event"":""focus"",""trial"":153,""time"":1501764}]",NA,NA,NA,NA,NA,3,#741CD8,#D8271C,10,10,0,38,1,1870,39,0,1152,10,1,experiment,NA,NA,2,0.5,0.5,5,4,234,6,NA
fcp-trial,284,2169441,0.0-245.0-0.0,voc_e2,12140,"[{""event"":""fullscreenenter"",""trial"":1,""time"":7235},{""event"":""blur"",""trial"":153,""time"":1052022},{""event"":""focus"",""trial"":153,""time"":1501764}]",NA,NA,NA,NA,NA,5,#741CD8,#D8271C,10,0,0,40,0,1597,39,0,3849,0,1,experiment,NA,NA,2,0.5,0.5,5,4,235,6,NA
fcp-trial,285,2173066,0.0-246.0-0.0,voc_e2,12140,"[{""event"":""fullscreenenter"",""trial"":1,""time"":7235},{""event"":""blur"",""trial"":153,""time"":1052022},{""event"":""focus"",""trial"":153,""time"":1501764}]",NA,NA,NA,NA,NA,2,#1CD855,#FA92F8,10,0,1,38,1,1400,37,1,716,10,1,experiment,NA,NA,0,0.9,0.1,0,1,236,6,NA
fcp-trial,286,2182772,0.0-247.0-0.0,voc_e2,12140,"[{""event"":""fullscreenenter"",""trial"":1,""time"":7235},{""event"":""blur"",""trial"":153,""time"":1052022},{""event"":""focus"",""trial"":153,""time"":1501764}]",NA,NA,NA,NA,NA,5,#D89F1C,#3386FF,0,10,0,40,0,4680,39,0,3519,10,1,experiment,NA,NA,1,0.3,0.7,3,2,237,6,NA
fcp-trial,287,2187236,0.0-248.0-0.0,voc_e2,12140,"[{""event"":""fullscreenenter"",""trial"":1,""time"":7235},{""event"":""blur"",""trial"":153,""time"":1052022},{""event"":""focus"",""trial"":153,""time"":1501764}]",NA,NA,NA,NA,NA,0,#D89F1C,#3386FF,10,0,0,38,1,1416,37,1,1537,10,0,experiment,NA,NA,1,0.3,0.7,3,2,238,6,NA
fcp-trial,288,2190786,0.0-249.0-0.0,voc_e2,12140,"[{""event"":""fullscreenenter"",""trial"":1,""time"":7235},{""event"":""blur"",""trial"":153,""time"":1052022},{""event"":""focus"",""trial"":153,""time"":1501764}]",NA,NA,NA,NA,NA,0,#D8271C,#741CD8,0,0,1,40,0,1403,37,1,641,0,1,experiment,NA,NA,2,0.5,0.5,4,5,239,6,NA
fcp-trial,289,2207947,0.0-250.0-0.0,voc_e2,12140,"[{""event"":""fullscreenenter"",""trial"":1,""time"":7235},{""event"":""blur"",""trial"":153,""time"":1052022},{""event"":""focus"",""trial"":153,""time"":1501764}]",NA,NA,NA,NA,NA,1,#1CD855,#FA92F8,10,0,1,38,1,1903,null,null,null,NA,0,experiment,NA,NA,0,0.9,0.1,0,1,240,6,NA
fcp-trial,290,2216711,0.0-251.0-0.0,voc_e2,12140,"[{""event"":""fullscreenenter"",""trial"":1,""time"":7235},{""event"":""blur"",""trial"":153,""time"":1052022},{""event"":""focus"",""trial"":153,""time"":1501764}]",NA,NA,NA,NA,NA,1,#3386FF,#D89F1C,10,0,1,40,0,4264,39,0,2990,0,0,experiment,NA,NA,1,0.7,0.3,2,3,241,6,NA
fcp-trial,291,2221626,0.0-252.0-0.0,voc_e2,12140,"[{""event"":""fullscreenenter"",""trial"":1,""time"":7235},{""event"":""blur"",""trial"":153,""time"":1052022},{""event"":""focus"",""trial"":153,""time"":1501764}]",NA,NA,NA,NA,NA,4,#741CD8,#D8271C,10,10,0,38,1,2777,37,1,632,10,0,experiment,NA,NA,2,0.5,0.5,5,4,242,6,NA
fcp-trial,292,2225082,0.0-253.0-0.0,voc_e2,12140,"[{""event"":""fullscreenenter"",""trial"":1,""time"":7235},{""event"":""blur"",""trial"":153,""time"":1052022},{""event"":""focus"",""trial"":153,""time"":1501764}]",NA,NA,NA,NA,NA,6,#D89F1C,#3386FF,0,0,0,38,1,1021,37,1,928,0,0,experiment,NA,NA,1,0.3,0.7,3,2,243,6,NA
fcp-trial,293,2228911,0.0-254.0-0.0,voc_e2,12140,"[{""event"":""fullscreenenter"",""trial"":1,""time"":7235},{""event"":""blur"",""trial"":153,""time"":1052022},{""event"":""focus"",""trial"":153,""time"":1501764}]",NA,NA,NA,NA,NA,0,#1CD855,#FA92F8,10,0,1,38,1,1690,39,0,633,0,0,experiment,NA,NA,0,0.9,0.1,0,1,244,6,NA
fcp-trial,294,2232539,0.0-255.0-0.0,voc_e2,12140,"[{""event"":""fullscreenenter"",""trial"":1,""time"":7235},{""event"":""blur"",""trial"":153,""time"":1052022},{""event"":""focus"",""trial"":153,""time"":1501764}]",NA,NA,NA,NA,NA,4,#FA92F8,#1CD855,0,10,0,38,1,739,37,1,1379,0,0,experiment,NA,NA,0,0.1,0.9,1,0,245,6,NA
fcp-trial,295,2235754,0.0-256.0-0.0,voc_e2,12140,"[{""event"":""fullscreenenter"",""trial"":1,""time"":7235},{""event"":""blur"",""trial"":153,""time"":1052022},{""event"":""focus"",""trial"":153,""time"":1501764}]",NA,NA,NA,NA,NA,2,#741CD8,#D8271C,10,10,0,38,1,1121,39,0,583,10,1,experiment,NA,NA,2,0.5,0.5,5,4,246,6,NA
fcp-trial,296,2239367,0.0-257.0-0.0,voc_e2,12140,"[{""event"":""fullscreenenter"",""trial"":1,""time"":7235},{""event"":""blur"",""trial"":153,""time"":1052022},{""event"":""focus"",""trial"":153,""time"":1501764}]",NA,NA,NA,NA,NA,6,#741CD8,#D8271C,10,0,0,38,1,1343,37,1,758,10,0,experiment,NA,NA,2,0.5,0.5,5,4,247,6,NA
fcp-trial,297,2242610,0.0-258.0-0.0,voc_e2,12140,"[{""event"":""fullscreenenter"",""trial"":1,""time"":7235},{""event"":""blur"",""trial"":153,""time"":1052022},{""event"":""focus"",""trial"":153,""time"":1501764}]",NA,NA,NA,NA,NA,2,#3386FF,#D89F1C,10,0,1,38,1,1075,39,0,661,0,0,experiment,NA,NA,1,0.7,0.3,2,3,248,6,NA
fcp-trial,298,2246793,0.0-259.0-0.0,voc_e2,12140,"[{""event"":""fullscreenenter"",""trial"":1,""time"":7235},{""event"":""blur"",""trial"":153,""time"":1052022},{""event"":""focus"",""trial"":153,""time"":1501764}]",NA,NA,NA,NA,NA,6,#FA92F8,#1CD855,0,10,0,40,0,1743,39,0,933,10,1,experiment,NA,NA,0,0.1,0.9,1,0,249,6,NA
fcp-trial,299,2249767,0.0-260.0-0.0,voc_e2,12140,"[{""event"":""fullscreenenter"",""trial"":1,""time"":7235},{""event"":""blur"",""trial"":153,""time"":1052022},{""event"":""focus"",""trial"":153,""time"":1501764}]",NA,NA,NA,NA,NA,4,#3386FF,#D89F1C,0,0,1,38,1,870,37,1,596,0,1,experiment,NA,NA,1,0.7,0.3,2,3,250,6,NA
fcp-trial,300,2252744,0.0-261.0-0.0,voc_e2,12140,"[{""event"":""fullscreenenter"",""trial"":1,""time"":7235},{""event"":""blur"",""trial"":153,""time"":1052022},{""event"":""focus"",""trial"":153,""time"":1501764}]",NA,NA,NA,NA,NA,3,#1CD855,#FA92F8,10,0,1,40,0,854,37,1,616,10,1,experiment,NA,NA,0,0.9,0.1,0,1,251,6,NA
fcp-trial,301,2264275,0.0-262.0-0.0,voc_e2,12140,"[{""event"":""fullscreenenter"",""trial"":1,""time"":7235},{""event"":""blur"",""trial"":153,""time"":1052022},{""event"":""focus"",""trial"":153,""time"":1501764}]",NA,NA,NA,NA,NA,1,#741CD8,#D8271C,0,10,0,38,1,9355,39,0,667,10,1,experiment,NA,NA,2,0.5,0.5,5,4,252,6,NA
fcp-trial,302,2268031,0.0-263.0-0.0,voc_e2,12140,"[{""event"":""fullscreenenter"",""trial"":1,""time"":7235},{""event"":""blur"",""trial"":153,""time"":1052022},{""event"":""focus"",""trial"":153,""time"":1501764}]",NA,NA,NA,NA,NA,4,#1CD855,#FA92F8,10,0,1,38,1,1638,37,1,608,10,1,experiment,NA,NA,0,0.9,0.1,0,1,253,6,NA
fcp-trial,303,2283038,0.0-264.0-0.0,voc_e2,12140,"[{""event"":""fullscreenenter"",""trial"":1,""time"":7235},{""event"":""blur"",""trial"":153,""time"":1052022},{""event"":""focus"",""trial"":153,""time"":1501764}]",NA,NA,NA,NA,NA,2,#D8271C,#741CD8,10,0,1,null,null,null,null,null,null,NA,0,experiment,NA,NA,2,0.5,0.5,4,5,254,6,NA
fcp-trial,304,2288554,0.0-265.0-0.0,voc_e2,12140,"[{""event"":""fullscreenenter"",""trial"":1,""time"":7235},{""event"":""blur"",""trial"":153,""time"":1052022},{""event"":""focus"",""trial"":153,""time"":1501764}]",NA,NA,NA,NA,NA,1,#3386FF,#D89F1C,0,0,1,40,0,2765,37,1,1239,0,1,experiment,NA,NA,1,0.7,0.3,2,3,255,6,NA
fcp-trial,305,2292220,0.0-266.0-0.0,voc_e2,12140,"[{""event"":""fullscreenenter"",""trial"":1,""time"":7235},{""event"":""blur"",""trial"":153,""time"":1052022},{""event"":""focus"",""trial"":153,""time"":1501764}]",NA,NA,NA,NA,NA,0,#D8271C,#741CD8,0,0,1,38,1,1434,37,1,722,0,1,experiment,NA,NA,2,0.5,0.5,4,5,256,6,NA
fcp-trial,306,2296409,0.0-267.0-0.0,voc_e2,12140,"[{""event"":""fullscreenenter"",""trial"":1,""time"":7235},{""event"":""blur"",""trial"":153,""time"":1052022},{""event"":""focus"",""trial"":153,""time"":1501764}]",NA,NA,NA,NA,NA,3,#741CD8,#D8271C,0,0,0,38,1,2067,39,0,614,0,1,experiment,NA,NA,2,0.5,0.5,5,4,257,6,NA
fcp-trial,307,2303450,0.0-268.0-0.0,voc_e2,12140,"[{""event"":""fullscreenenter"",""trial"":1,""time"":7235},{""event"":""blur"",""trial"":153,""time"":1052022},{""event"":""focus"",""trial"":153,""time"":1501764}]",NA,NA,NA,NA,NA,1,#1CD855,#FA92F8,10,0,1,40,0,4931,39,0,605,0,0,experiment,NA,NA,0,0.9,0.1,0,1,258,6,NA
fcp-trial,308,2308260,0.0-269.0-0.0,voc_e2,12140,"[{""event"":""fullscreenenter"",""trial"":1,""time"":7235},{""event"":""blur"",""trial"":153,""time"":1052022},{""event"":""focus"",""trial"":153,""time"":1501764}]",NA,NA,NA,NA,NA,0,#D89F1C,#3386FF,10,0,0,38,1,2583,37,1,721,10,0,experiment,NA,NA,1,0.3,0.7,3,2,259,6,NA
fcp-trial,309,2318457,0.0-270.0-0.0,voc_e2,12140,"[{""event"":""fullscreenenter"",""trial"":1,""time"":7235},{""event"":""blur"",""trial"":153,""time"":1052022},{""event"":""focus"",""trial"":153,""time"":1501764}]",NA,NA,NA,NA,NA,5,#1CD855,#FA92F8,10,0,1,40,0,7955,37,1,732,10,1,experiment,NA,NA,0,0.9,0.1,0,1,260,6,NA
fcp-trial,310,2321709,0.0-271.0-0.0,voc_e2,12140,"[{""event"":""fullscreenenter"",""trial"":1,""time"":7235},{""event"":""blur"",""trial"":153,""time"":1052022},{""event"":""focus"",""trial"":153,""time"":1501764}]",NA,NA,NA,NA,NA,4,#741CD8,#D8271C,0,0,0,38,1,1019,39,0,725,0,1,experiment,NA,NA,2,0.5,0.5,5,4,261,6,NA
fcp-trial,311,2325210,0.0-272.0-0.0,voc_e2,12140,"[{""event"":""fullscreenenter"",""trial"":1,""time"":7235},{""event"":""blur"",""trial"":153,""time"":1052022},{""event"":""focus"",""trial"":153,""time"":1501764}]",NA,NA,NA,NA,NA,0,#FA92F8,#1CD855,0,10,0,38,1,1407,37,1,587,0,0,experiment,NA,NA,0,0.1,0.9,1,0,262,6,NA
fcp-trial,312,2330044,0.0-273.0-0.0,voc_e2,12140,"[{""event"":""fullscreenenter"",""trial"":1,""time"":7235},{""event"":""blur"",""trial"":153,""time"":1052022},{""event"":""focus"",""trial"":153,""time"":1501764}]",NA,NA,NA,NA,NA,6,#D89F1C,#3386FF,10,10,0,40,0,2556,37,1,772,10,0,experiment,NA,NA,1,0.3,0.7,3,2,263,6,NA
fcp-trial,313,2345053,0.0-274.0-0.0,voc_e2,12140,"[{""event"":""fullscreenenter"",""trial"":1,""time"":7235},{""event"":""blur"",""trial"":153,""time"":1052022},{""event"":""focus"",""trial"":153,""time"":1501764}]",NA,NA,NA,NA,NA,3,#3386FF,#D89F1C,10,0,1,null,null,null,null,null,null,NA,0,experiment,NA,NA,1,0.7,0.3,2,3,264,6,NA
fcp-trial,314,2351727,0.0-275.0-0.0,voc_e2,12140,"[{""event"":""fullscreenenter"",""trial"":1,""time"":7235},{""event"":""blur"",""trial"":153,""time"":1052022},{""event"":""focus"",""trial"":153,""time"":1501764}]",NA,NA,NA,NA,NA,2,#D89F1C,#3386FF,0,10,0,40,0,4403,37,1,760,0,0,experiment,NA,NA,1,0.3,0.7,3,2,265,6,NA
fcp-trial,315,2360606,0.0-276.0-0.0,voc_e2,12140,"[{""event"":""fullscreenenter"",""trial"":1,""time"":7235},{""event"":""blur"",""trial"":153,""time"":1052022},{""event"":""focus"",""trial"":153,""time"":1501764}]",NA,NA,NA,NA,NA,6,#741CD8,#D8271C,0,0,0,40,0,6769,39,0,603,0,1,experiment,NA,NA,2,0.5,0.5,5,4,266,6,NA
fcp-trial,316,2364582,0.0-277.0-0.0,voc_e2,12140,"[{""event"":""fullscreenenter"",""trial"":1,""time"":7235},{""event"":""blur"",""trial"":153,""time"":1052022},{""event"":""focus"",""trial"":153,""time"":1501764}]",NA,NA,NA,NA,NA,6,#FA92F8,#1CD855,0,10,0,38,1,1734,37,1,735,0,0,experiment,NA,NA,0,0.1,0.9,1,0,267,6,NA
fcp-trial,317,2370082,0.0-278.0-0.0,voc_e2,12140,"[{""event"":""fullscreenenter"",""trial"":1,""time"":7235},{""event"":""blur"",""trial"":153,""time"":1052022},{""event"":""focus"",""trial"":153,""time"":1501764}]",NA,NA,NA,NA,NA,1,#D8271C,#741CD8,0,0,1,40,0,3339,37,1,655,0,1,experiment,NA,NA,2,0.5,0.5,4,5,268,6,NA
fcp-trial,318,2380992,0.0-279.0-0.0,voc_e2,12140,"[{""event"":""fullscreenenter"",""trial"":1,""time"":7235},{""event"":""blur"",""trial"":153,""time"":1052022},{""event"":""focus"",""trial"":153,""time"":1501764}]",NA,NA,NA,NA,NA,5,#D89F1C,#3386FF,10,0,0,38,1,1857,39,0,7549,0,1,experiment,NA,NA,1,0.3,0.7,3,2,269,6,NA
fcp-trial,319,2384496,0.0-280.0-0.0,voc_e2,12140,"[{""event"":""fullscreenenter"",""trial"":1,""time"":7235},{""event"":""blur"",""trial"":153,""time"":1052022},{""event"":""focus"",""trial"":153,""time"":1501764}]",NA,NA,NA,NA,NA,5,#741CD8,#D8271C,0,0,0,38,1,1311,37,1,687,0,0,experiment,NA,NA,2,0.5,0.5,5,4,270,6,NA
fcp-trial,320,2389282,0.0-281.0-0.0,voc_e2,12140,"[{""event"":""fullscreenenter"",""trial"":1,""time"":7235},{""event"":""blur"",""trial"":153,""time"":1052022},{""event"":""focus"",""trial"":153,""time"":1501764}]",NA,NA,NA,NA,NA,3,#FA92F8,#1CD855,0,10,0,38,1,2665,37,1,615,0,0,experiment,NA,NA,0,0.1,0.9,1,0,271,7,NA
fcp-trial,321,2393245,0.0-282.0-0.0,voc_e2,12140,"[{""event"":""fullscreenenter"",""trial"":1,""time"":7235},{""event"":""blur"",""trial"":153,""time"":1052022},{""event"":""focus"",""trial"":153,""time"":1501764}]",NA,NA,NA,NA,NA,4,#3386FF,#D89F1C,10,0,1,40,0,1286,39,0,1170,0,0,experiment,NA,NA,1,0.7,0.3,2,3,272,7,NA
fcp-trial,322,2399046,0.0-283.0-0.0,voc_e2,12140,"[{""event"":""fullscreenenter"",""trial"":1,""time"":7235},{""event"":""blur"",""trial"":153,""time"":1052022},{""event"":""focus"",""trial"":153,""time"":1501764}]",NA,NA,NA,NA,NA,2,#1CD855,#FA92F8,10,0,1,38,1,3763,37,1,531,10,1,experiment,NA,NA,0,0.9,0.1,0,1,273,7,NA
fcp-trial,323,2403208,0.0-284.0-0.0,voc_e2,12140,"[{""event"":""fullscreenenter"",""trial"":1,""time"":7235},{""event"":""blur"",""trial"":153,""time"":1052022},{""event"":""focus"",""trial"":153,""time"":1501764}]",NA,NA,NA,NA,NA,1,#FA92F8,#1CD855,0,10,0,40,0,2030,39,0,625,10,1,experiment,NA,NA,0,0.1,0.9,1,0,274,7,NA
fcp-trial,324,2408763,0.0-285.0-0.0,voc_e2,12140,"[{""event"":""fullscreenenter"",""trial"":1,""time"":7235},{""event"":""blur"",""trial"":153,""time"":1052022},{""event"":""focus"",""trial"":153,""time"":1501764}]",NA,NA,NA,NA,NA,0,#D89F1C,#3386FF,0,10,0,38,1,3292,37,1,758,0,0,experiment,NA,NA,1,0.3,0.7,3,2,275,7,NA
fcp-trial,325,2412258,0.0-286.0-0.0,voc_e2,12140,"[{""event"":""fullscreenenter"",""trial"":1,""time"":7235},{""event"":""blur"",""trial"":153,""time"":1052022},{""event"":""focus"",""trial"":153,""time"":1501764}]",NA,NA,NA,NA,NA,0,#1CD855,#FA92F8,10,0,1,40,0,1323,37,1,664,10,1,experiment,NA,NA,0,0.9,0.1,0,1,276,7,NA
fcp-trial,326,2416768,0.0-287.0-0.0,voc_e2,12140,"[{""event"":""fullscreenenter"",""trial"":1,""time"":7235},{""event"":""blur"",""trial"":153,""time"":1052022},{""event"":""focus"",""trial"":153,""time"":1501764}]",NA,NA,NA,NA,NA,3,#FA92F8,#1CD855,0,10,0,38,1,1957,39,0,1047,10,1,experiment,NA,NA,0,0.1,0.9,1,0,277,7,NA
fcp-trial,327,2421178,0.0-288.0-0.0,voc_e2,12140,"[{""event"":""fullscreenenter"",""trial"":1,""time"":7235},{""event"":""blur"",""trial"":153,""time"":1052022},{""event"":""focus"",""trial"":153,""time"":1501764}]",NA,NA,NA,NA,NA,2,#3386FF,#D89F1C,10,0,1,40,0,2306,39,0,595,0,0,experiment,NA,NA,1,0.7,0.3,2,3,278,7,NA
fcp-trial,328,2424056,0.0-289.0-0.0,voc_e2,12140,"[{""event"":""fullscreenenter"",""trial"":1,""time"":7235},{""event"":""blur"",""trial"":153,""time"":1052022},{""event"":""focus"",""trial"":153,""time"":1501764}]",NA,NA,NA,NA,NA,5,#741CD8,#D8271C,0,10,0,38,1,868,37,1,501,0,0,experiment,NA,NA,2,0.5,0.5,5,4,279,7,NA
fcp-trial,329,2431446,0.0-290.0-0.0,voc_e2,12140,"[{""event"":""fullscreenenter"",""trial"":1,""time"":7235},{""event"":""blur"",""trial"":153,""time"":1052022},{""event"":""focus"",""trial"":153,""time"":1501764}]",NA,NA,NA,NA,NA,0,#D8271C,#741CD8,0,0,1,38,1,5341,39,0,544,0,0,experiment,NA,NA,2,0.5,0.5,4,5,280,7,NA
fcp-trial,330,2434953,0.0-291.0-0.0,voc_e2,12140,"[{""event"":""fullscreenenter"",""trial"":1,""time"":7235},{""event"":""blur"",""trial"":153,""time"":1052022},{""event"":""focus"",""trial"":153,""time"":1501764}]",NA,NA,NA,NA,NA,5,#1CD855,#FA92F8,10,0,1,38,1,1418,37,1,581,10,1,experiment,NA,NA,0,0.9,0.1,0,1,281,7,NA
fcp-trial,331,2439339,0.0-292.0-0.0,voc_e2,12140,"[{""event"":""fullscreenenter"",""trial"":1,""time"":7235},{""event"":""blur"",""trial"":153,""time"":1052022},{""event"":""focus"",""trial"":153,""time"":1501764}]",NA,NA,NA,NA,NA,2,#D8271C,#741CD8,10,0,1,40,0,1772,39,0,1106,0,0,experiment,NA,NA,2,0.5,0.5,4,5,282,7,NA
fcp-trial,332,2442172,0.0-293.0-0.0,voc_e2,12140,"[{""event"":""fullscreenenter"",""trial"":1,""time"":7235},{""event"":""blur"",""trial"":153,""time"":1052022},{""event"":""focus"",""trial"":153,""time"":1501764}]",NA,NA,NA,NA,NA,3,#D89F1C,#3386FF,0,10,0,38,1,733,37,1,590,0,0,experiment,NA,NA,1,0.3,0.7,3,2,283,7,NA
fcp-trial,333,2445601,0.0-294.0-0.0,voc_e2,12140,"[{""event"":""fullscreenenter"",""trial"":1,""time"":7235},{""event"":""blur"",""trial"":153,""time"":1052022},{""event"":""focus"",""trial"":153,""time"":1501764}]",NA,NA,NA,NA,NA,6,#741CD8,#D8271C,10,10,0,38,1,1326,39,0,598,10,1,experiment,NA,NA,2,0.5,0.5,5,4,284,7,NA
fcp-trial,334,2449553,0.0-295.0-0.0,voc_e2,12140,"[{""event"":""fullscreenenter"",""trial"":1,""time"":7235},{""event"":""blur"",""trial"":153,""time"":1052022},{""event"":""focus"",""trial"":153,""time"":1501764}]",NA,NA,NA,NA,NA,2,#1CD855,#FA92F8,10,0,1,40,0,1846,37,1,601,10,1,experiment,NA,NA,0,0.9,0.1,0,1,285,7,NA
fcp-trial,335,2460190,0.0-296.0-0.0,voc_e2,12140,"[{""event"":""fullscreenenter"",""trial"":1,""time"":7235},{""event"":""blur"",""trial"":153,""time"":1052022},{""event"":""focus"",""trial"":153,""time"":1501764}]",NA,NA,NA,NA,NA,4,#D8271C,#741CD8,0,0,1,40,0,8199,37,1,929,0,1,experiment,NA,NA,2,0.5,0.5,4,5,286,7,NA
fcp-trial,336,2465081,0.0-297.0-0.0,voc_e2,12140,"[{""event"":""fullscreenenter"",""trial"":1,""time"":7235},{""event"":""blur"",""trial"":153,""time"":1052022},{""event"":""focus"",""trial"":153,""time"":1501764}]",NA,NA,NA,NA,NA,4,#D89F1C,#3386FF,0,10,0,38,1,2463,39,0,918,10,1,experiment,NA,NA,1,0.3,0.7,3,2,287,7,NA
fcp-trial,337,2477118,0.0-298.0-0.0,voc_e2,12140,"[{""event"":""fullscreenenter"",""trial"":1,""time"":7235},{""event"":""blur"",""trial"":153,""time"":1052022},{""event"":""focus"",""trial"":153,""time"":1501764}]",NA,NA,NA,NA,NA,6,#1CD855,#FA92F8,10,0,1,38,1,9907,37,1,623,10,1,experiment,NA,NA,0,0.9,0.1,0,1,288,7,NA
fcp-trial,338,2480678,0.0-299.0-0.0,voc_e2,12140,"[{""event"":""fullscreenenter"",""trial"":1,""time"":7235},{""event"":""blur"",""trial"":153,""time"":1052022},{""event"":""focus"",""trial"":153,""time"":1501764}]",NA,NA,NA,NA,NA,1,#D8271C,#741CD8,10,10,1,40,0,1315,37,1,736,10,1,experiment,NA,NA,2,0.5,0.5,4,5,289,7,NA
fcp-trial,339,2484864,0.0-300.0-0.0,voc_e2,12140,"[{""event"":""fullscreenenter"",""trial"":1,""time"":7235},{""event"":""blur"",""trial"":153,""time"":1052022},{""event"":""focus"",""trial"":153,""time"":1501764}]",NA,NA,NA,NA,NA,4,#FA92F8,#1CD855,0,10,0,38,1,2121,39,0,557,10,1,experiment,NA,NA,0,0.1,0.9,1,0,290,7,NA
fcp-trial,340,2488116,0.0-301.0-0.0,voc_e2,12140,"[{""event"":""fullscreenenter"",""trial"":1,""time"":7235},{""event"":""blur"",""trial"":153,""time"":1052022},{""event"":""focus"",""trial"":153,""time"":1501764}]",NA,NA,NA,NA,NA,3,#741CD8,#D8271C,0,10,0,40,0,1112,37,1,633,0,0,experiment,NA,NA,2,0.5,0.5,5,4,291,7,NA
fcp-trial,341,2503127,0.0-302.0-0.0,voc_e2,12140,"[{""event"":""fullscreenenter"",""trial"":1,""time"":7235},{""event"":""blur"",""trial"":153,""time"":1052022},{""event"":""focus"",""trial"":153,""time"":1501764}]",NA,NA,NA,NA,NA,1,#D89F1C,#3386FF,0,10,0,null,null,null,null,null,null,NA,0,experiment,NA,NA,1,0.3,0.7,3,2,292,7,NA
fcp-trial,342,2518131,0.0-303.0-0.0,voc_e2,12140,"[{""event"":""fullscreenenter"",""trial"":1,""time"":7235},{""event"":""blur"",""trial"":153,""time"":1052022},{""event"":""focus"",""trial"":153,""time"":1501764}]",NA,NA,NA,NA,NA,6,#D89F1C,#3386FF,0,0,0,null,null,null,null,null,null,NA,0,experiment,NA,NA,1,0.3,0.7,3,2,293,7,NA
fcp-trial,343,2525454,0.0-304.0-0.0,voc_e2,12140,"[{""event"":""fullscreenenter"",""trial"":1,""time"":7235},{""event"":""blur"",""trial"":153,""time"":1052022},{""event"":""focus"",""trial"":153,""time"":1501764}]",NA,NA,NA,NA,NA,5,#D89F1C,#3386FF,0,10,0,40,0,4457,39,0,1354,10,1,experiment,NA,NA,1,0.3,0.7,3,2,294,7,NA
fcp-trial,344,2537139,0.0-305.0-0.0,voc_e2,12140,"[{""event"":""fullscreenenter"",""trial"":1,""time"":7235},{""event"":""blur"",""trial"":153,""time"":1052022},{""event"":""focus"",""trial"":153,""time"":1501764}]",NA,NA,NA,NA,NA,3,#1CD855,#FA92F8,10,0,1,38,1,9184,39,0,995,0,0,experiment,NA,NA,0,0.9,0.1,0,1,295,7,NA
fcp-trial,345,2542228,0.0-306.0-0.0,voc_e2,12140,"[{""event"":""fullscreenenter"",""trial"":1,""time"":7235},{""event"":""blur"",""trial"":153,""time"":1052022},{""event"":""focus"",""trial"":153,""time"":1501764}]",NA,NA,NA,NA,NA,4,#D89F1C,#3386FF,0,0,0,40,0,2603,39,0,980,0,1,experiment,NA,NA,1,0.3,0.7,3,2,296,7,NA
fcp-trial,346,2548312,0.0-307.0-0.0,voc_e2,12140,"[{""event"":""fullscreenenter"",""trial"":1,""time"":7235},{""event"":""blur"",""trial"":153,""time"":1052022},{""event"":""focus"",""trial"":153,""time"":1501764}]",NA,NA,NA,NA,NA,0,#3386FF,#D89F1C,10,0,1,38,1,3969,37,1,607,10,1,experiment,NA,NA,1,0.7,0.3,2,3,297,7,NA
fcp-trial,347,2551452,0.0-308.0-0.0,voc_e2,12140,"[{""event"":""fullscreenenter"",""trial"":1,""time"":7235},{""event"":""blur"",""trial"":153,""time"":1052022},{""event"":""focus"",""trial"":153,""time"":1501764}]",NA,NA,NA,NA,NA,6,#D89F1C,#3386FF,0,10,0,38,1,1101,39,0,531,10,1,experiment,NA,NA,1,0.3,0.7,3,2,298,7,NA
fcp-trial,348,2556086,0.0-309.0-0.0,voc_e2,12140,"[{""event"":""fullscreenenter"",""trial"":1,""time"":7235},{""event"":""blur"",""trial"":153,""time"":1052022},{""event"":""focus"",""trial"":153,""time"":1501764}]",NA,NA,NA,NA,NA,0,#1CD855,#FA92F8,10,10,1,38,1,2662,37,1,466,10,1,experiment,NA,NA,0,0.9,0.1,0,1,299,7,NA
fcp-trial,349,2561810,0.0-310.0-0.0,voc_e2,12140,"[{""event"":""fullscreenenter"",""trial"":1,""time"":7235},{""event"":""blur"",""trial"":153,""time"":1052022},{""event"":""focus"",""trial"":153,""time"":1501764}]",NA,NA,NA,NA,NA,2,#D8271C,#741CD8,0,10,1,40,0,3596,39,0,621,10,0,experiment,NA,NA,2,0.5,0.5,4,5,300,7,NA
fcp-trial,350,2565153,0.0-311.0-0.0,voc_e2,12140,"[{""event"":""fullscreenenter"",""trial"":1,""time"":7235},{""event"":""blur"",""trial"":153,""time"":1052022},{""event"":""focus"",""trial"":153,""time"":1501764}]",NA,NA,NA,NA,NA,3,#3386FF,#D89F1C,10,10,1,38,1,1237,37,1,600,10,1,experiment,NA,NA,1,0.7,0.3,2,3,301,7,NA
fcp-trial,351,2568631,0.0-312.0-0.0,voc_e2,12140,"[{""event"":""fullscreenenter"",""trial"":1,""time"":7235},{""event"":""blur"",""trial"":153,""time"":1052022},{""event"":""focus"",""trial"":153,""time"":1501764}]",NA,NA,NA,NA,NA,2,#FA92F8,#1CD855,0,10,0,40,0,1161,37,1,810,0,0,experiment,NA,NA,0,0.1,0.9,1,0,302,7,NA
fcp-trial,352,2571487,0.0-313.0-0.0,voc_e2,12140,"[{""event"":""fullscreenenter"",""trial"":1,""time"":7235},{""event"":""blur"",""trial"":153,""time"":1052022},{""event"":""focus"",""trial"":153,""time"":1501764}]",NA,NA,NA,NA,NA,4,#FA92F8,#1CD855,0,10,0,40,0,821,39,0,525,10,1,experiment,NA,NA,0,0.1,0.9,1,0,303,7,NA
fcp-trial,353,2574328,0.0-314.0-0.0,voc_e2,12140,"[{""event"":""fullscreenenter"",""trial"":1,""time"":7235},{""event"":""blur"",""trial"":153,""time"":1052022},{""event"":""focus"",""trial"":153,""time"":1501764}]",NA,NA,NA,NA,NA,1,#D8271C,#741CD8,0,10,1,40,0,765,39,0,566,10,0,experiment,NA,NA,2,0.5,0.5,4,5,304,7,NA
fcp-trial,354,2577286,0.0-315.0-0.0,voc_e2,12140,"[{""event"":""fullscreenenter"",""trial"":1,""time"":7235},{""event"":""blur"",""trial"":153,""time"":1052022},{""event"":""focus"",""trial"":153,""time"":1501764}]",NA,NA,NA,NA,NA,5,#D8271C,#741CD8,10,0,1,40,0,713,37,1,736,10,1,experiment,NA,NA,2,0.5,0.5,4,5,305,7,NA
fcp-trial,355,2584251,0.0-316.0-0.0,voc_e2,12140,"[{""event"":""fullscreenenter"",""trial"":1,""time"":7235},{""event"":""blur"",""trial"":153,""time"":1052022},{""event"":""focus"",""trial"":153,""time"":1501764}]",NA,NA,NA,NA,NA,5,#D89F1C,#3386FF,0,10,0,38,1,4906,37,1,553,0,0,experiment,NA,NA,1,0.3,0.7,3,2,306,7,NA
fcp-trial,356,2587609,0.0-317.0-0.0,voc_e2,12140,"[{""event"":""fullscreenenter"",""trial"":1,""time"":7235},{""event"":""blur"",""trial"":153,""time"":1052022},{""event"":""focus"",""trial"":153,""time"":1501764}]",NA,NA,NA,NA,NA,4,#D8271C,#741CD8,10,0,1,40,0,979,37,1,871,10,1,experiment,NA,NA,2,0.5,0.5,4,5,307,7,NA
fcp-trial,357,2596820,0.0-318.0-0.0,voc_e2,12140,"[{""event"":""fullscreenenter"",""trial"":1,""time"":7235},{""event"":""blur"",""trial"":153,""time"":1052022},{""event"":""focus"",""trial"":153,""time"":1501764}]",NA,NA,NA,NA,NA,6,#1CD855,#FA92F8,10,10,1,40,0,6916,37,1,787,10,1,experiment,NA,NA,0,0.9,0.1,0,1,308,7,NA
fcp-trial,358,2601519,0.0-319.0-0.0,voc_e2,12140,"[{""event"":""fullscreenenter"",""trial"":1,""time"":7235},{""event"":""blur"",""trial"":153,""time"":1052022},{""event"":""focus"",""trial"":153,""time"":1501764}]",NA,NA,NA,NA,NA,1,#FA92F8,#1CD855,10,10,0,38,1,2530,39,0,663,10,1,experiment,NA,NA,0,0.1,0.9,1,0,309,7,NA
fcp-trial,359,2605188,0.0-320.0-0.0,voc_e2,12140,"[{""event"":""fullscreenenter"",""trial"":1,""time"":7235},{""event"":""blur"",""trial"":153,""time"":1052022},{""event"":""focus"",""trial"":153,""time"":1501764}]",NA,NA,NA,NA,NA,1,#D89F1C,#3386FF,0,0,0,40,0,1546,37,1,618,0,0,experiment,NA,NA,1,0.3,0.7,3,2,310,7,NA
