trial_type,trial_index,time_elapsed,internal_node_id,task_version,subject_id,interactions,success,rt,stimulus,key_press,button_pressed,offer,arcade_color_L,arcade_color_R,arcade_outcome_L,arcade_outcome_R,correct,stage_1_key,stage_1_choice,stage_1_rt,stage_2_key,stage_2_choice,stage_2_rt,stage_3_outcome,accuracy,phase,responses,num_errors,context,reward_prob_L,reward_prob_R,arcade_id_L,arcade_id_R,trial,block,response
pavlovia,0,1,0.0-0.0,voc_e2,11695,[],NA,NA,NA,NA,NA,NA,NA,NA,NA,NA,NA,NA,NA,NA,NA,NA,NA,NA,NA,NA,NA,NA,NA,NA,NA,NA,NA,NA,NA,NA
fullscreen,1,4138,0.0-1.0,voc_e2,11695,"[{""event"":""fullscreenenter"",""trial"":1,""time"":3164}]",TRUE,NA,NA,NA,NA,NA,NA,NA,NA,NA,NA,NA,NA,NA,NA,NA,NA,NA,NA,NA,NA,NA,NA,NA,NA,NA,NA,NA,NA,NA
audio-keyboard-response,2,11948,0.0-2.0,voc_e2,11695,"[{""event"":""fullscreenenter"",""trial"":1,""time"":3164}]",NA,0,static/audio/beep_loop.wav,32,NA,NA,NA,NA,NA,NA,NA,NA,NA,NA,NA,NA,NA,NA,NA,NA,NA,NA,NA,NA,NA,NA,NA,NA,NA,NA
audio-test,3,13490,0.0-3.0,voc_e2,11695,"[{""event"":""fullscreenenter"",""trial"":1,""time"":3164}]",NA,NA,static/audio/turtle.wav,NA,3,NA,NA,NA,NA,NA,NA,NA,NA,NA,NA,NA,NA,NA,NA,NA,NA,NA,NA,NA,NA,NA,NA,NA,NA,NA
audio-test,4,15632,0.0-4.0,voc_e2,11695,"[{""event"":""fullscreenenter"",""trial"":1,""time"":3164}]",NA,NA,static/audio/shark.wav,NA,2,NA,NA,NA,NA,NA,NA,NA,NA,NA,NA,NA,NA,NA,NA,NA,NA,NA,NA,NA,NA,NA,NA,NA,NA,NA
audio-instructions,5,22645,0.0-5.0-0.0,voc_e2,11695,"[{""event"":""fullscreenenter"",""trial"":1,""time"":3164}]",NA,1230,static/audio/instructions1.wav,NA,0,NA,NA,NA,NA,NA,NA,NA,NA,NA,NA,NA,NA,NA,NA,NA,NA,NA,NA,NA,NA,NA,NA,NA,NA,NA
audio-instructions,6,33416,0.0-5.0-1.0,voc_e2,11695,"[{""event"":""fullscreenenter"",""trial"":1,""time"":3164}]",NA,4028,static/audio/instructions2.wav,NA,0,NA,NA,NA,NA,NA,NA,NA,NA,NA,NA,NA,NA,NA,NA,NA,NA,NA,NA,NA,NA,NA,NA,NA,NA,NA
audio-instructions,7,41267,0.0-5.0-2.0,voc_e2,11695,"[{""event"":""fullscreenenter"",""trial"":1,""time"":3164}]",NA,2048.0000000000073,static/audio/instructions3.wav,NA,0,NA,NA,NA,NA,NA,NA,NA,NA,NA,NA,NA,NA,NA,NA,NA,NA,NA,NA,NA,NA,NA,NA,NA,NA,NA
audio-instructions,8,55501,0.0-5.0-3.0,voc_e2,11695,"[{""event"":""fullscreenenter"",""trial"":1,""time"":3164}]",NA,1007,static/audio/instructions4.wav,NA,0,NA,NA,NA,NA,NA,NA,NA,NA,NA,NA,NA,NA,NA,NA,NA,NA,NA,NA,NA,NA,NA,NA,NA,NA,NA
audio-instructions,9,65986,0.0-5.0-4.0,voc_e2,11695,"[{""event"":""fullscreenenter"",""trial"":1,""time"":3164}]",NA,1097.9999999999927,static/audio/instructions5.wav,NA,0,NA,NA,NA,NA,NA,NA,NA,NA,NA,NA,NA,NA,NA,NA,NA,NA,NA,NA,NA,NA,NA,NA,NA,NA,NA
fcp-practice,10,72204,0.0-5.0-5.0-0.0,voc_e2,11695,"[{""event"":""fullscreenenter"",""trial"":1,""time"":3164}]",NA,NA,NA,NA,NA,NA,#EDC948,#46d3c8,10,0,1,null,null,null,37,1,4704.000000000015,10,1,practice,NA,NA,NA,NA,NA,NA,NA,NA,NA,NA
fcp-practice,11,74404,0.0-5.0-5.0-1.0,voc_e2,11695,"[{""event"":""fullscreenenter"",""trial"":1,""time"":3164}]",NA,NA,NA,NA,NA,NA,#EDC948,#46d3c8,10,0,1,null,null,null,37,1,691,10,1,practice,NA,NA,NA,NA,NA,NA,NA,NA,NA,NA
fcp-practice,12,76990,0.0-5.0-5.0-2.0,voc_e2,11695,"[{""event"":""fullscreenenter"",""trial"":1,""time"":3164}]",NA,NA,NA,NA,NA,NA,#EDC948,#46d3c8,0,10,1,null,null,null,37,1,1078,0,1,practice,NA,NA,NA,NA,NA,NA,NA,NA,NA,NA
fcp-practice,13,78817,0.0-5.0-5.0-3.0,voc_e2,11695,"[{""event"":""fullscreenenter"",""trial"":1,""time"":3164}]",NA,NA,NA,NA,NA,NA,#EDC948,#46d3c8,10,0,1,null,null,null,37,1,320,10,1,practice,NA,NA,NA,NA,NA,NA,NA,NA,NA,NA
fcp-practice,14,80716,0.0-5.0-5.0-4.0,voc_e2,11695,"[{""event"":""fullscreenenter"",""trial"":1,""time"":3164}]",NA,NA,NA,NA,NA,NA,#EDC948,#46d3c8,10,0,1,null,null,null,37,1,391.99999999998545,10,1,practice,NA,NA,NA,NA,NA,NA,NA,NA,NA,NA
audio-instructions,15,100298,0.0-5.0-6.0,voc_e2,11695,"[{""event"":""fullscreenenter"",""trial"":1,""time"":3164}]",NA,1572,static/audio/instructions6.wav,NA,0,NA,NA,NA,NA,NA,NA,NA,NA,NA,NA,NA,NA,NA,NA,NA,NA,NA,NA,NA,NA,NA,NA,NA,NA,NA
audio-instructions,16,131207,0.0-5.0-7.0,voc_e2,11695,"[{""event"":""fullscreenenter"",""trial"":1,""time"":3164}]",NA,11708,static/audio/instructions7.wav,NA,0,NA,NA,NA,NA,NA,NA,NA,NA,NA,NA,NA,NA,NA,NA,NA,NA,NA,NA,NA,NA,NA,NA,NA,NA,NA
audio-instructions,17,141114,0.0-5.0-8.0,voc_e2,11695,"[{""event"":""fullscreenenter"",""trial"":1,""time"":3164}]",NA,434,static/audio/instructions8.wav,NA,0,NA,NA,NA,NA,NA,NA,NA,NA,NA,NA,NA,NA,NA,NA,NA,NA,NA,NA,NA,NA,NA,NA,NA,NA,NA
fcp-comprehension,18,154522,0.0-5.0-9.0,voc_e2,11695,"[{""event"":""fullscreenenter"",""trial"":1,""time"":3164}]",NA,13404.00000000003,NA,NA,NA,NA,NA,NA,NA,NA,NA,NA,NA,NA,NA,NA,NA,NA,NA,NA,"true,true",0,NA,NA,NA,NA,NA,NA,NA,NA
audio-instructions,19,160902,0.0-6.0-0.0,voc_e2,11695,"[{""event"":""fullscreenenter"",""trial"":1,""time"":3164}]",NA,830.0000000000291,static/audio/instructions9.wav,NA,0,NA,NA,NA,NA,NA,NA,NA,NA,NA,NA,NA,NA,NA,NA,NA,NA,NA,NA,NA,NA,NA,NA,NA,NA,NA
audio-instructions,20,173438,0.0-6.0-1.0,voc_e2,11695,"[{""event"":""fullscreenenter"",""trial"":1,""time"":3164}]",NA,414.0000000000291,static/audio/instructions10.wav,NA,0,NA,NA,NA,NA,NA,NA,NA,NA,NA,NA,NA,NA,NA,NA,NA,NA,NA,NA,NA,NA,NA,NA,NA,NA,NA
fcp-trial,21,180602,0.0-6.0-2.0,voc_e2,11695,"[{""event"":""fullscreenenter"",""trial"":1,""time"":3164}]",NA,NA,NA,NA,NA,0,#EDC948,#46d3c8,10,10,1,38,1,4220.999999999971,39,0,1433,10,0,practice,NA,NA,NA,NA,NA,NA,NA,NA,NA,NA
audio-instructions,22,192245,0.0-6.0-3.0,voc_e2,11695,"[{""event"":""fullscreenenter"",""trial"":1,""time"":3164}]",NA,630,static/audio/instructions11.wav,NA,0,NA,NA,NA,NA,NA,NA,NA,NA,NA,NA,NA,NA,NA,NA,NA,NA,NA,NA,NA,NA,NA,NA,NA,NA,NA
fcp-trial,23,199047,0.0-6.0-4.0,voc_e2,11695,"[{""event"":""fullscreenenter"",""trial"":1,""time"":3164}]",NA,NA,NA,NA,NA,6,#EDC948,#46d3c8,10,10,1,40,0,4042.999999999971,39,0,1249,10,0,practice,NA,NA,NA,NA,NA,NA,NA,NA,NA,NA
audio-instructions,24,220138,0.0-6.0-5.0,voc_e2,11695,"[{""event"":""fullscreenenter"",""trial"":1,""time"":3164}]",NA,2399,static/audio/instructions12.wav,NA,0,NA,NA,NA,NA,NA,NA,NA,NA,NA,NA,NA,NA,NA,NA,NA,NA,NA,NA,NA,NA,NA,NA,NA,NA,NA
audio-instructions,25,228153,0.0-6.0-6.0,voc_e2,11695,"[{""event"":""fullscreenenter"",""trial"":1,""time"":3164}]",NA,418,static/audio/instructions13.wav,NA,0,NA,NA,NA,NA,NA,NA,NA,NA,NA,NA,NA,NA,NA,NA,NA,NA,NA,NA,NA,NA,NA,NA,NA,NA,NA
audio-instructions,26,237133,0.0-6.0-7.0,voc_e2,11695,"[{""event"":""fullscreenenter"",""trial"":1,""time"":3164}]",NA,530,static/audio/instructions14.wav,NA,0,NA,NA,NA,NA,NA,NA,NA,NA,NA,NA,NA,NA,NA,NA,NA,NA,NA,NA,NA,NA,NA,NA,NA,NA,NA
audio-instructions,27,244487,0.0-7.0-0.0,voc_e2,11695,"[{""event"":""fullscreenenter"",""trial"":1,""time"":3164}]",NA,442.9999999999709,static/audio/instructions15.wav,NA,0,NA,NA,NA,NA,NA,NA,NA,NA,NA,NA,NA,NA,NA,NA,NA,NA,NA,NA,NA,NA,NA,NA,NA,NA,NA
audio-instructions,28,251931,0.0-7.0-1.0,voc_e2,11695,"[{""event"":""fullscreenenter"",""trial"":1,""time"":3164}]",NA,617.0000000000291,static/audio/instructions16.wav,NA,0,NA,NA,NA,NA,NA,NA,NA,NA,NA,NA,NA,NA,NA,NA,NA,NA,NA,NA,NA,NA,NA,NA,NA,NA,NA
audio-instructions,29,260010,0.0-7.0-2.0,voc_e2,11695,"[{""event"":""fullscreenenter"",""trial"":1,""time"":3164}]",NA,395,static/audio/instructions17.wav,NA,0,NA,NA,NA,NA,NA,NA,NA,NA,NA,NA,NA,NA,NA,NA,NA,NA,NA,NA,NA,NA,NA,NA,NA,NA,NA
audio-instructions,30,268685,0.0-7.0-3.0,voc_e2,11695,"[{""event"":""fullscreenenter"",""trial"":1,""time"":3164}]",NA,907,static/audio/instructions18.wav,NA,0,NA,NA,NA,NA,NA,NA,NA,NA,NA,NA,NA,NA,NA,NA,NA,NA,NA,NA,NA,NA,NA,NA,NA,NA,NA
audio-instructions,31,275847,0.0-7.0-4.0,voc_e2,11695,"[{""event"":""fullscreenenter"",""trial"":1,""time"":3164}]",NA,417.9999999999418,static/audio/instructions19.wav,NA,0,NA,NA,NA,NA,NA,NA,NA,NA,NA,NA,NA,NA,NA,NA,NA,NA,NA,NA,NA,NA,NA,NA,NA,NA,NA
fcp-comprehension,32,300095,0.0-7.0-5.0,voc_e2,11695,"[{""event"":""fullscreenenter"",""trial"":1,""time"":3164}]",NA,24246,NA,NA,NA,NA,NA,NA,NA,NA,NA,NA,NA,NA,NA,NA,NA,NA,NA,NA,"false,false,false,true",0,NA,NA,NA,NA,NA,NA,NA,NA
audio-instructions,33,311166,0.0-8.0,voc_e2,11695,"[{""event"":""fullscreenenter"",""trial"":1,""time"":3164}]",NA,1852.0000000000584,static/audio/ready.wav,NA,0,NA,NA,NA,NA,NA,NA,NA,NA,NA,NA,NA,NA,NA,NA,NA,NA,NA,NA,NA,NA,NA,NA,NA,NA,NA
fcp-trial,34,315864,0.0-9.0-0.0,voc_e2,11695,"[{""event"":""fullscreenenter"",""trial"":1,""time"":3164}]",NA,NA,NA,NA,NA,2,#1CD855,#FA92F8,10,0,1,38,1,2629,39,0,558,0,0,experiment,NA,NA,2,0.5,0.5,4,5,1,1,NA
fcp-trial,35,320052,0.0-10.0-0.0,voc_e2,11695,"[{""event"":""fullscreenenter"",""trial"":1,""time"":3164}]",NA,NA,NA,NA,NA,0,#D89F1C,#3386FF,0,0,1,40,0,1866.0000000000582,39,0,810,0,0,experiment,NA,NA,0,0.9,0.1,0,1,2,1,NA
fcp-trial,36,324353,0.0-11.0-0.0,voc_e2,11695,"[{""event"":""fullscreenenter"",""trial"":1,""time"":3164}]",NA,NA,NA,NA,NA,2,#D8271C,#741CD8,0,10,0,38,1,2468.000000000058,37,1,321.0000000000582,0,0,experiment,NA,NA,1,0.3,0.7,3,2,3,1,NA
fcp-trial,37,328358,0.0-12.0-0.0,voc_e2,11695,"[{""event"":""fullscreenenter"",""trial"":1,""time"":3164}]",NA,NA,NA,NA,NA,6,#3386FF,#D89F1C,0,10,0,38,1,2107,39,0,385,10,1,experiment,NA,NA,0,0.1,0.9,1,0,4,1,NA
fcp-trial,38,331463,0.0-13.0-0.0,voc_e2,11695,"[{""event"":""fullscreenenter"",""trial"":1,""time"":3164}]",NA,NA,NA,NA,NA,5,#FA92F8,#1CD855,10,0,0,38,1,1212,37,1,383,10,0,experiment,NA,NA,2,0.5,0.5,5,4,5,1,NA
fcp-trial,39,334466,0.0-14.0-0.0,voc_e2,11695,"[{""event"":""fullscreenenter"",""trial"":1,""time"":3164}]",NA,NA,NA,NA,NA,4,#3386FF,#D89F1C,0,10,0,38,1,1051,39,0,441.0000000000582,10,1,experiment,NA,NA,0,0.1,0.9,1,0,6,1,NA
fcp-trial,40,338731,0.0-15.0-0.0,voc_e2,11695,"[{""event"":""fullscreenenter"",""trial"":1,""time"":3164}]",NA,NA,NA,NA,NA,6,#D8271C,#741CD8,0,10,0,38,1,1556,37,1,1199,0,0,experiment,NA,NA,1,0.3,0.7,3,2,7,1,NA
fcp-trial,41,341768,0.0-16.0-0.0,voc_e2,11695,"[{""event"":""fullscreenenter"",""trial"":1,""time"":3164}]",NA,NA,NA,NA,NA,5,#D8271C,#741CD8,0,0,0,38,1,1040.0000000000582,39,0,486,0,1,experiment,NA,NA,1,0.3,0.7,3,2,8,1,NA
fcp-trial,42,346349,0.0-17.0-0.0,voc_e2,11695,"[{""event"":""fullscreenenter"",""trial"":1,""time"":3164}]",NA,NA,NA,NA,NA,4,#1CD855,#FA92F8,0,10,1,40,0,2286,37,1,785,0,1,experiment,NA,NA,2,0.5,0.5,4,5,9,1,NA
fcp-trial,43,351845,0.0-18.0-0.0,voc_e2,11695,"[{""event"":""fullscreenenter"",""trial"":1,""time"":3164}]",NA,NA,NA,NA,NA,1,#1CD855,#FA92F8,0,10,1,40,0,3042,37,1,943,0,1,experiment,NA,NA,2,0.5,0.5,4,5,10,1,NA
fcp-trial,44,355513,0.0-19.0-0.0,voc_e2,11695,"[{""event"":""fullscreenenter"",""trial"":1,""time"":3164}]",NA,NA,NA,NA,NA,3,#D89F1C,#3386FF,10,10,1,38,1,1494,39,0,663.0000000000582,10,0,experiment,NA,NA,0,0.9,0.1,0,1,11,1,NA
fcp-trial,45,361596,0.0-20.0-0.0,voc_e2,11695,"[{""event"":""fullscreenenter"",""trial"":1,""time"":3164}]",NA,NA,NA,NA,NA,1,#D8271C,#741CD8,10,10,0,40,0,3740,37,1,831,10,0,experiment,NA,NA,1,0.3,0.7,3,2,12,1,NA
fcp-trial,46,364668,0.0-21.0-0.0,voc_e2,11695,"[{""event"":""fullscreenenter"",""trial"":1,""time"":3164}]",NA,NA,NA,NA,NA,0,#741CD8,#D8271C,0,10,1,38,1,996,39,0,561.0000000000582,10,0,experiment,NA,NA,1,0.7,0.3,2,3,13,1,NA
fcp-trial,47,368872,0.0-22.0-0.0,voc_e2,11695,"[{""event"":""fullscreenenter"",""trial"":1,""time"":3164}]",NA,NA,NA,NA,NA,3,#FA92F8,#1CD855,10,0,0,38,1,2026.0000000000582,37,1,667,10,0,experiment,NA,NA,2,0.5,0.5,5,4,14,1,NA
fcp-trial,48,372707,0.0-23.0-0.0,voc_e2,11695,"[{""event"":""fullscreenenter"",""trial"":1,""time"":3164}]",NA,NA,NA,NA,NA,2,#3386FF,#D89F1C,0,10,0,38,1,1981.9999999999418,39,0,340.9999999999418,10,1,experiment,NA,NA,0,0.1,0.9,1,0,15,1,NA
fcp-trial,49,376685,0.0-24.0-0.0,voc_e2,11695,"[{""event"":""fullscreenenter"",""trial"":1,""time"":3164}]",NA,NA,NA,NA,NA,4,#741CD8,#D8271C,10,0,1,40,0,1232,39,0,1235,0,0,experiment,NA,NA,1,0.7,0.3,2,3,16,1,NA
fcp-trial,50,379946,0.0-25.0-0.0,voc_e2,11695,"[{""event"":""fullscreenenter"",""trial"":1,""time"":3164}]",NA,NA,NA,NA,NA,0,#1CD855,#FA92F8,10,0,1,38,1,1065,39,0,665,0,0,experiment,NA,NA,2,0.5,0.5,4,5,17,1,NA
fcp-trial,51,383416,0.0-26.0-0.0,voc_e2,11695,"[{""event"":""fullscreenenter"",""trial"":1,""time"":3164}]",NA,NA,NA,NA,NA,6,#FA92F8,#1CD855,10,0,0,38,1,1041,39,0,918,0,1,experiment,NA,NA,2,0.5,0.5,5,4,18,1,NA
fcp-trial,52,387524,0.0-27.0-0.0,voc_e2,11695,"[{""event"":""fullscreenenter"",""trial"":1,""time"":3164}]",NA,NA,NA,NA,NA,5,#D89F1C,#3386FF,10,0,1,38,1,2288,37,1,309,10,1,experiment,NA,NA,0,0.9,0.1,0,1,19,1,NA
fcp-trial,53,391939,0.0-28.0-0.0,voc_e2,11695,"[{""event"":""fullscreenenter"",""trial"":1,""time"":3164}]",NA,NA,NA,NA,NA,3,#741CD8,#D8271C,0,0,1,40,0,2281,39,0,624,0,0,experiment,NA,NA,1,0.7,0.3,2,3,20,1,NA
fcp-trial,54,394831,0.0-29.0-0.0,voc_e2,11695,"[{""event"":""fullscreenenter"",""trial"":1,""time"":3164}]",NA,NA,NA,NA,NA,1,#3386FF,#D89F1C,0,10,0,38,1,1007,39,0,375,10,1,experiment,NA,NA,0,0.1,0.9,1,0,21,1,NA
fcp-trial,55,397647,0.0-30.0-0.0,voc_e2,11695,"[{""event"":""fullscreenenter"",""trial"":1,""time"":3164}]",NA,NA,NA,NA,NA,4,#741CD8,#D8271C,10,0,1,38,1,509,39,0,794.9999999999418,0,0,experiment,NA,NA,1,0.7,0.3,2,3,22,1,NA
fcp-trial,56,400811,0.0-31.0-0.0,voc_e2,11695,"[{""event"":""fullscreenenter"",""trial"":1,""time"":3164}]",NA,NA,NA,NA,NA,2,#741CD8,#D8271C,10,0,1,40,0,683,39,0,970.0000000000582,0,0,experiment,NA,NA,1,0.7,0.3,2,3,23,1,NA
fcp-trial,57,403853,0.0-32.0-0.0,voc_e2,11695,"[{""event"":""fullscreenenter"",""trial"":1,""time"":3164}]",NA,NA,NA,NA,NA,0,#D89F1C,#3386FF,0,0,1,38,1,626,37,1,905.0000000000582,0,1,experiment,NA,NA,0,0.9,0.1,0,1,24,1,NA
fcp-trial,58,406838,0.0-33.0-0.0,voc_e2,11695,"[{""event"":""fullscreenenter"",""trial"":1,""time"":3164}]",NA,NA,NA,NA,NA,4,#1CD855,#FA92F8,10,10,1,38,1,1191,39,0,263,10,0,experiment,NA,NA,2,0.5,0.5,4,5,25,1,NA
fcp-trial,59,410064,0.0-34.0-0.0,voc_e2,11695,"[{""event"":""fullscreenenter"",""trial"":1,""time"":3164}]",NA,NA,NA,NA,NA,0,#741CD8,#D8271C,10,0,1,38,1,932.0000000000582,39,0,783.9999999999418,0,0,experiment,NA,NA,1,0.7,0.3,2,3,26,1,NA
fcp-trial,60,413713,0.0-35.0-0.0,voc_e2,11695,"[{""event"":""fullscreenenter"",""trial"":1,""time"":3164}]",NA,NA,NA,NA,NA,3,#FA92F8,#1CD855,0,10,0,38,1,1815,37,1,322,0,0,experiment,NA,NA,2,0.5,0.5,5,4,27,1,NA
fcp-trial,61,418015,0.0-36.0-0.0,voc_e2,11695,"[{""event"":""fullscreenenter"",""trial"":1,""time"":3164}]",NA,NA,NA,NA,NA,5,#D89F1C,#3386FF,10,0,1,40,0,1763,37,1,1029,10,1,experiment,NA,NA,0,0.9,0.1,0,1,28,1,NA
fcp-trial,62,422972,0.0-37.0-0.0,voc_e2,11695,"[{""event"":""fullscreenenter"",""trial"":1,""time"":3164}]",NA,NA,NA,NA,NA,0,#FA92F8,#1CD855,10,10,0,40,0,2256.999999999942,37,1,1186,10,0,experiment,NA,NA,2,0.5,0.5,5,4,29,1,NA
fcp-trial,63,426397,0.0-38.0-0.0,voc_e2,11695,"[{""event"":""fullscreenenter"",""trial"":1,""time"":3164}]",NA,NA,NA,NA,NA,6,#3386FF,#D89F1C,0,10,0,38,1,1649,39,0,265.9999999999418,10,1,experiment,NA,NA,0,0.1,0.9,1,0,30,1,NA
fcp-trial,64,430217,0.0-39.0-0.0,voc_e2,11695,"[{""event"":""fullscreenenter"",""trial"":1,""time"":3164}]",NA,NA,NA,NA,NA,3,#D8271C,#741CD8,10,10,0,40,0,1193,37,1,1113.9999999999418,10,0,experiment,NA,NA,1,0.3,0.7,3,2,31,1,NA
fcp-trial,65,433450,0.0-40.0-0.0,voc_e2,11695,"[{""event"":""fullscreenenter"",""trial"":1,""time"":3164}]",NA,NA,NA,NA,NA,5,#1CD855,#FA92F8,10,0,1,40,0,519.9999999999418,39,0,1200,0,0,experiment,NA,NA,2,0.5,0.5,4,5,32,1,NA
fcp-trial,66,436188,0.0-41.0-0.0,voc_e2,11695,"[{""event"":""fullscreenenter"",""trial"":1,""time"":3164}]",NA,NA,NA,NA,NA,5,#741CD8,#D8271C,10,0,1,38,1,546,37,1,681,10,1,experiment,NA,NA,1,0.7,0.3,2,3,33,1,NA
fcp-trial,67,438705,0.0-42.0-0.0,voc_e2,11695,"[{""event"":""fullscreenenter"",""trial"":1,""time"":3164}]",NA,NA,NA,NA,NA,1,#741CD8,#D8271C,0,0,1,38,1,531.9999999999418,37,1,473,0,1,experiment,NA,NA,1,0.7,0.3,2,3,34,1,NA
fcp-trial,68,441780,0.0-43.0-0.0,voc_e2,11695,"[{""event"":""fullscreenenter"",""trial"":1,""time"":3164}]",NA,NA,NA,NA,NA,4,#D89F1C,#3386FF,10,0,1,38,1,1199,39,0,366.0000000000582,0,0,experiment,NA,NA,0,0.9,0.1,0,1,35,1,NA
fcp-trial,69,444655,0.0-44.0-0.0,voc_e2,11695,"[{""event"":""fullscreenenter"",""trial"":1,""time"":3164}]",NA,NA,NA,NA,NA,2,#1CD855,#FA92F8,0,0,1,38,1,923,39,0,438.0000000000582,0,0,experiment,NA,NA,2,0.5,0.5,4,5,36,1,NA
fcp-trial,70,449041,0.0-45.0-0.0,voc_e2,11695,"[{""event"":""fullscreenenter"",""trial"":1,""time"":3164}]",NA,NA,NA,NA,NA,1,#FA92F8,#1CD855,0,0,0,38,1,2581,37,1,294,0,0,experiment,NA,NA,2,0.5,0.5,5,4,37,1,NA
fcp-trial,71,451856,0.0-46.0-0.0,voc_e2,11695,"[{""event"":""fullscreenenter"",""trial"":1,""time"":3164}]",NA,NA,NA,NA,NA,6,#741CD8,#D8271C,10,0,1,38,1,669,39,0,632.9999999999418,0,0,experiment,NA,NA,1,0.7,0.3,2,3,38,1,NA
fcp-trial,72,454798,0.0-47.0-0.0,voc_e2,11695,"[{""event"":""fullscreenenter"",""trial"":1,""time"":3164}]",NA,NA,NA,NA,NA,3,#3386FF,#D89F1C,0,0,0,38,1,1118,39,0,314,0,1,experiment,NA,NA,0,0.1,0.9,1,0,39,1,NA
fcp-trial,73,457302,0.0-48.0-0.0,voc_e2,11695,"[{""event"":""fullscreenenter"",""trial"":1,""time"":3164}]",NA,NA,NA,NA,NA,1,#D89F1C,#3386FF,10,0,1,38,1,71,37,1,921,10,1,experiment,NA,NA,0,0.9,0.1,0,1,40,1,NA
fcp-trial,74,461590,0.0-49.0-0.0,voc_e2,11695,"[{""event"":""fullscreenenter"",""trial"":1,""time"":3164}]",NA,NA,NA,NA,NA,2,#D89F1C,#3386FF,10,0,1,38,1,1724.0000000000582,37,1,1051,10,1,experiment,NA,NA,0,0.9,0.1,0,1,41,1,NA
fcp-trial,75,466001,0.0-50.0-0.0,voc_e2,11695,"[{""event"":""fullscreenenter"",""trial"":1,""time"":3164}]",NA,NA,NA,NA,NA,6,#1CD855,#FA92F8,10,10,1,38,1,2176,39,0,704.0000000000582,10,0,experiment,NA,NA,2,0.5,0.5,4,5,42,1,NA
fcp-trial,76,469331,0.0-51.0-0.0,voc_e2,11695,"[{""event"":""fullscreenenter"",""trial"":1,""time"":3164}]",NA,NA,NA,NA,NA,5,#FA92F8,#1CD855,10,0,0,38,1,1521,39,0,298,0,1,experiment,NA,NA,2,0.5,0.5,5,4,43,1,NA
fcp-trial,77,472846,0.0-52.0-0.0,voc_e2,11695,"[{""event"":""fullscreenenter"",""trial"":1,""time"":3164}]",NA,NA,NA,NA,NA,6,#741CD8,#D8271C,10,0,1,38,1,472,39,0,1533.0000000000582,0,0,experiment,NA,NA,1,0.7,0.3,2,3,44,1,NA
fcp-trial,78,477097,0.0-53.0-0.0,voc_e2,11695,"[{""event"":""fullscreenenter"",""trial"":1,""time"":3164}]",NA,NA,NA,NA,NA,1,#FA92F8,#1CD855,0,0,0,38,1,2248,37,1,492.0000000000582,0,0,experiment,NA,NA,2,0.5,0.5,5,4,45,1,NA
fcp-trial,79,480256,0.0-54.0-0.0,voc_e2,11695,"[{""event"":""fullscreenenter"",""trial"":1,""time"":3164}]",NA,NA,NA,NA,NA,6,#1CD855,#FA92F8,0,10,1,40,0,723,39,0,924.0000000000582,10,0,experiment,NA,NA,2,0.5,0.5,4,5,46,2,NA
fcp-trial,80,483378,0.0-55.0-0.0,voc_e2,11695,"[{""event"":""fullscreenenter"",""trial"":1,""time"":3164}]",NA,NA,NA,NA,NA,4,#D89F1C,#3386FF,10,0,1,40,0,998,39,0,613,0,0,experiment,NA,NA,0,0.9,0.1,0,1,47,2,NA
fcp-trial,81,488245,0.0-56.0-0.0,voc_e2,11695,"[{""event"":""fullscreenenter"",""trial"":1,""time"":3164}]",NA,NA,NA,NA,NA,5,#D89F1C,#3386FF,10,0,1,38,1,3059,37,1,299,10,1,experiment,NA,NA,0,0.9,0.1,0,1,48,2,NA
fcp-trial,82,491778,0.0-57.0-0.0,voc_e2,11695,"[{""event"":""fullscreenenter"",""trial"":1,""time"":3164}]",NA,NA,NA,NA,NA,5,#D8271C,#741CD8,0,10,0,40,0,1260.0000000000582,39,0,765,10,1,experiment,NA,NA,1,0.3,0.7,3,2,49,2,NA
fcp-trial,83,495330,0.0-58.0-0.0,voc_e2,11695,"[{""event"":""fullscreenenter"",""trial"":1,""time"":3164}]",NA,NA,NA,NA,NA,0,#D8271C,#741CD8,0,10,0,38,1,930,39,0,1107.9999999999418,10,1,experiment,NA,NA,1,0.3,0.7,3,2,50,2,NA
fcp-trial,84,499829,0.0-59.0-0.0,voc_e2,11695,"[{""event"":""fullscreenenter"",""trial"":1,""time"":3164}]",NA,NA,NA,NA,NA,3,#FA92F8,#1CD855,10,10,0,38,1,2191.999999999942,37,1,796,10,0,experiment,NA,NA,2,0.5,0.5,5,4,51,2,NA
fcp-trial,85,503088,0.0-60.0-0.0,voc_e2,11695,"[{""event"":""fullscreenenter"",""trial"":1,""time"":3164}]",NA,NA,NA,NA,NA,0,#1CD855,#FA92F8,0,0,1,38,1,1274,37,1,473.9999999999418,0,1,experiment,NA,NA,2,0.5,0.5,4,5,52,2,NA
fcp-trial,86,506496,0.0-61.0-0.0,voc_e2,11695,"[{""event"":""fullscreenenter"",""trial"":1,""time"":3164}]",NA,NA,NA,NA,NA,1,#D89F1C,#3386FF,10,10,1,38,1,1151,39,0,746.0000000000582,10,0,experiment,NA,NA,0,0.9,0.1,0,1,53,2,NA
fcp-trial,87,508963,0.0-62.0-0.0,voc_e2,11695,"[{""event"":""fullscreenenter"",""trial"":1,""time"":3164}]",NA,NA,NA,NA,NA,2,#D8271C,#741CD8,0,10,0,38,1,356.9999999999418,39,0,598.9999999999418,10,1,experiment,NA,NA,1,0.3,0.7,3,2,54,2,NA
fcp-trial,88,511729,0.0-63.0-0.0,voc_e2,11695,"[{""event"":""fullscreenenter"",""trial"":1,""time"":3164}]",NA,NA,NA,NA,NA,2,#D89F1C,#3386FF,10,0,1,38,1,589,39,0,666,0,0,experiment,NA,NA,0,0.9,0.1,0,1,55,2,NA
fcp-trial,89,514630,0.0-64.0-0.0,voc_e2,11695,"[{""event"":""fullscreenenter"",""trial"":1,""time"":3164}]",NA,NA,NA,NA,NA,2,#1CD855,#FA92F8,10,10,1,38,1,956.9999999999418,39,0,433,10,0,experiment,NA,NA,2,0.5,0.5,4,5,56,2,NA
fcp-trial,90,517471,0.0-65.0-0.0,voc_e2,11695,"[{""event"":""fullscreenenter"",""trial"":1,""time"":3164}]",NA,NA,NA,NA,NA,1,#741CD8,#D8271C,0,0,1,38,1,542,37,1,789,0,1,experiment,NA,NA,1,0.7,0.3,2,3,57,2,NA
fcp-trial,91,520132,0.0-66.0-0.0,voc_e2,11695,"[{""event"":""fullscreenenter"",""trial"":1,""time"":3164}]",NA,NA,NA,NA,NA,3,#741CD8,#D8271C,10,0,1,38,1,799,39,0,352.0000000000582,0,0,experiment,NA,NA,1,0.7,0.3,2,3,58,2,NA
fcp-trial,92,522745,0.0-67.0-0.0,voc_e2,11695,"[{""event"":""fullscreenenter"",""trial"":1,""time"":3164}]",NA,NA,NA,NA,NA,0,#D89F1C,#3386FF,10,0,1,38,1,679.9999999999418,37,1,422.0000000000582,10,1,experiment,NA,NA,0,0.9,0.1,0,1,59,2,NA
fcp-trial,93,525788,0.0-68.0-0.0,voc_e2,11695,"[{""event"":""fullscreenenter"",""trial"":1,""time"":3164}]",NA,NA,NA,NA,NA,3,#3386FF,#D89F1C,0,10,0,38,1,545.9999999999418,39,0,984,10,1,experiment,NA,NA,0,0.1,0.9,1,0,60,2,NA
fcp-trial,94,528580,0.0-69.0-0.0,voc_e2,11695,"[{""event"":""fullscreenenter"",""trial"":1,""time"":3164}]",NA,NA,NA,NA,NA,4,#FA92F8,#1CD855,10,10,0,38,1,971,37,1,310,10,0,experiment,NA,NA,2,0.5,0.5,5,4,61,2,NA
fcp-trial,95,531112,0.0-70.0-0.0,voc_e2,11695,"[{""event"":""fullscreenenter"",""trial"":1,""time"":3164}]",NA,NA,NA,NA,NA,6,#D89F1C,#3386FF,10,0,1,38,1,595.0000000001164,37,1,427,10,1,experiment,NA,NA,0,0.9,0.1,0,1,62,2,NA
fcp-trial,96,533862,0.0-71.0-0.0,voc_e2,11695,"[{""event"":""fullscreenenter"",""trial"":1,""time"":3164}]",NA,NA,NA,NA,NA,4,#D8271C,#741CD8,0,10,0,38,1,974,37,1,266,0,0,experiment,NA,NA,1,0.3,0.7,3,2,63,2,NA
fcp-trial,97,537212,0.0-72.0-0.0,voc_e2,11695,"[{""event"":""fullscreenenter"",""trial"":1,""time"":3164}]",NA,NA,NA,NA,NA,0,#1CD855,#FA92F8,10,10,1,38,1,1491,39,0,349,10,0,experiment,NA,NA,2,0.5,0.5,4,5,64,2,NA
fcp-trial,98,539912,0.0-73.0-0.0,voc_e2,11695,"[{""event"":""fullscreenenter"",""trial"":1,""time"":3164}]",NA,NA,NA,NA,NA,0,#741CD8,#D8271C,10,0,1,38,1,809,37,1,381.9999999998836,10,1,experiment,NA,NA,1,0.7,0.3,2,3,65,2,NA
fcp-trial,99,542606,0.0-74.0-0.0,voc_e2,11695,"[{""event"":""fullscreenenter"",""trial"":1,""time"":3164}]",NA,NA,NA,NA,NA,4,#3386FF,#D89F1C,0,10,0,38,1,642,39,0,541,10,1,experiment,NA,NA,0,0.1,0.9,1,0,66,2,NA
fcp-trial,100,545329,0.0-75.0-0.0,voc_e2,11695,"[{""event"":""fullscreenenter"",""trial"":1,""time"":3164}]",NA,NA,NA,NA,NA,6,#D8271C,#741CD8,10,0,0,38,1,479,39,0,734,0,1,experiment,NA,NA,1,0.3,0.7,3,2,67,2,NA
fcp-trial,101,547713,0.0-76.0-0.0,voc_e2,11695,"[{""event"":""fullscreenenter"",""trial"":1,""time"":3164}]",NA,NA,NA,NA,NA,1,#1CD855,#FA92F8,0,0,1,38,1,425,39,0,450,0,0,experiment,NA,NA,2,0.5,0.5,4,5,68,2,NA
fcp-trial,102,550056,0.0-77.0-0.0,voc_e2,11695,"[{""event"":""fullscreenenter"",""trial"":1,""time"":3164}]",NA,NA,NA,NA,NA,3,#D8271C,#741CD8,0,10,0,38,1,501,37,1,331,0,0,experiment,NA,NA,1,0.3,0.7,3,2,69,2,NA
fcp-trial,103,552462,0.0-78.0-0.0,voc_e2,11695,"[{""event"":""fullscreenenter"",""trial"":1,""time"":3164}]",NA,NA,NA,NA,NA,2,#3386FF,#D89F1C,0,10,0,38,1,528,39,0,367,10,1,experiment,NA,NA,0,0.1,0.9,1,0,70,2,NA
fcp-trial,104,554964,0.0-79.0-0.0,voc_e2,11695,"[{""event"":""fullscreenenter"",""trial"":1,""time"":3164}]",NA,NA,NA,NA,NA,3,#1CD855,#FA92F8,0,0,1,38,1,424,39,0,567,0,0,experiment,NA,NA,2,0.5,0.5,4,5,71,2,NA
fcp-trial,105,557263,0.0-80.0-0.0,voc_e2,11695,"[{""event"":""fullscreenenter"",""trial"":1,""time"":3164}]",NA,NA,NA,NA,NA,5,#D8271C,#741CD8,0,0,0,38,1,343,37,1,445,0,0,experiment,NA,NA,1,0.3,0.7,3,2,72,2,NA
fcp-trial,106,559779,0.0-81.0-0.0,voc_e2,11695,"[{""event"":""fullscreenenter"",""trial"":1,""time"":3164}]",NA,NA,NA,NA,NA,2,#FA92F8,#1CD855,0,0,0,38,1,374,39,0,633,0,1,experiment,NA,NA,2,0.5,0.5,5,4,73,2,NA
fcp-trial,107,562019,0.0-82.0-0.0,voc_e2,11695,"[{""event"":""fullscreenenter"",""trial"":1,""time"":3164}]",NA,NA,NA,NA,NA,5,#D89F1C,#3386FF,10,10,1,38,1,358,37,1,372,10,1,experiment,NA,NA,0,0.9,0.1,0,1,74,2,NA
fcp-trial,108,564979,0.0-83.0-0.0,voc_e2,11695,"[{""event"":""fullscreenenter"",""trial"":1,""time"":3164}]",NA,NA,NA,NA,NA,1,#D89F1C,#3386FF,10,0,1,38,1,869,37,1,580,10,1,experiment,NA,NA,0,0.9,0.1,0,1,75,2,NA
fcp-trial,109,567715,0.0-84.0-0.0,voc_e2,11695,"[{""event"":""fullscreenenter"",""trial"":1,""time"":3164}]",NA,NA,NA,NA,NA,2,#741CD8,#D8271C,10,0,1,38,1,357,37,1,868,10,1,experiment,NA,NA,1,0.7,0.3,2,3,76,2,NA
fcp-trial,110,570104,0.0-85.0-0.0,voc_e2,11695,"[{""event"":""fullscreenenter"",""trial"":1,""time"":3164}]",NA,NA,NA,NA,NA,4,#D8271C,#741CD8,0,10,0,38,1,354.0000000001164,37,1,524,0,0,experiment,NA,NA,1,0.3,0.7,3,2,77,2,NA
fcp-trial,111,572461,0.0-86.0-0.0,voc_e2,11695,"[{""event"":""fullscreenenter"",""trial"":1,""time"":3164}]",NA,NA,NA,NA,NA,4,#1CD855,#FA92F8,0,10,1,38,1,417,39,0,432,10,0,experiment,NA,NA,2,0.5,0.5,4,5,78,2,NA
fcp-trial,112,575530,0.0-87.0-0.0,voc_e2,11695,"[{""event"":""fullscreenenter"",""trial"":1,""time"":3164}]",NA,NA,NA,NA,NA,6,#D89F1C,#3386FF,10,0,1,38,1,442,39,0,1117,0,0,experiment,NA,NA,0,0.9,0.1,0,1,79,2,NA
fcp-trial,113,577898,0.0-88.0-0.0,voc_e2,11695,"[{""event"":""fullscreenenter"",""trial"":1,""time"":3164}]",NA,NA,NA,NA,NA,6,#1CD855,#FA92F8,10,10,1,38,1,411,39,0,446,10,0,experiment,NA,NA,2,0.5,0.5,4,5,80,2,NA
fcp-trial,114,581315,0.0-89.0-0.0,voc_e2,11695,"[{""event"":""fullscreenenter"",""trial"":1,""time"":3164}]",NA,NA,NA,NA,NA,0,#3386FF,#D89F1C,0,10,0,38,1,410,37,1,1496,0,0,experiment,NA,NA,0,0.1,0.9,1,0,81,2,NA
fcp-trial,115,584383,0.0-90.0-0.0,voc_e2,11695,"[{""event"":""fullscreenenter"",""trial"":1,""time"":3164}]",NA,NA,NA,NA,NA,1,#741CD8,#D8271C,10,10,1,38,1,463,37,1,1092,10,1,experiment,NA,NA,1,0.7,0.3,2,3,82,2,NA
fcp-trial,116,587279,0.0-91.0-0.0,voc_e2,11695,"[{""event"":""fullscreenenter"",""trial"":1,""time"":3164}]",NA,NA,NA,NA,NA,5,#1CD855,#FA92F8,10,0,1,38,1,1020,37,1,367,10,1,experiment,NA,NA,2,0.5,0.5,4,5,83,2,NA
fcp-trial,117,589829,0.0-92.0-0.0,voc_e2,11695,"[{""event"":""fullscreenenter"",""trial"":1,""time"":3164}]",NA,NA,NA,NA,NA,3,#D89F1C,#3386FF,10,0,1,38,1,714,37,1,326,10,1,experiment,NA,NA,0,0.9,0.1,0,1,84,2,NA
fcp-trial,118,592420,0.0-93.0-0.0,voc_e2,11695,"[{""event"":""fullscreenenter"",""trial"":1,""time"":3164}]",NA,NA,NA,NA,NA,6,#3386FF,#D89F1C,0,10,0,38,1,624,39,0,457,10,1,experiment,NA,NA,0,0.1,0.9,1,0,85,2,NA
fcp-trial,119,595134,0.0-94.0-0.0,voc_e2,11695,"[{""event"":""fullscreenenter"",""trial"":1,""time"":3164}]",NA,NA,NA,NA,NA,3,#D89F1C,#3386FF,10,0,1,38,1,878.0000000001164,37,1,304,10,1,experiment,NA,NA,0,0.9,0.1,0,1,86,2,NA
fcp-trial,120,598129,0.0-95.0-0.0,voc_e2,11695,"[{""event"":""fullscreenenter"",""trial"":1,""time"":3164}]",NA,NA,NA,NA,NA,1,#1CD855,#FA92F8,0,0,1,38,1,1069,39,0,416,0,0,experiment,NA,NA,2,0.5,0.5,4,5,87,2,NA
fcp-trial,121,600834,0.0-96.0-0.0,voc_e2,11695,"[{""event"":""fullscreenenter"",""trial"":1,""time"":3164}]",NA,NA,NA,NA,NA,5,#741CD8,#D8271C,10,0,1,38,1,739,37,1,454,10,1,experiment,NA,NA,1,0.7,0.3,2,3,88,2,NA
fcp-trial,122,603249,0.0-97.0-0.0,voc_e2,11695,"[{""event"":""fullscreenenter"",""trial"":1,""time"":3164}]",NA,NA,NA,NA,NA,6,#D8271C,#741CD8,0,10,0,38,1,559,39,0,342.9999999998836,10,1,experiment,NA,NA,1,0.3,0.7,3,2,89,2,NA
fcp-trial,123,605795,0.0-98.0-0.0,voc_e2,11695,"[{""event"":""fullscreenenter"",""trial"":1,""time"":3164}]",NA,NA,NA,NA,NA,2,#3386FF,#D89F1C,0,10,0,38,1,621,37,1,416,0,0,experiment,NA,NA,0,0.1,0.9,1,0,90,2,NA
fcp-trial,124,609179,0.0-99.0-0.0,voc_e2,11695,"[{""event"":""fullscreenenter"",""trial"":1,""time"":3164}]",NA,NA,NA,NA,NA,3,#1CD855,#FA92F8,10,10,1,38,1,395.9999999998836,39,0,1478.0000000001164,10,0,experiment,NA,NA,2,0.5,0.5,4,5,91,3,NA
fcp-trial,125,612119,0.0-100.0-0.0,voc_e2,11695,"[{""event"":""fullscreenenter"",""trial"":1,""time"":3164}]",NA,NA,NA,NA,NA,4,#741CD8,#D8271C,10,0,1,38,1,495,37,1,933.9999999998836,10,1,experiment,NA,NA,1,0.7,0.3,2,3,92,3,NA
fcp-trial,126,614850,0.0-101.0-0.0,voc_e2,11695,"[{""event"":""fullscreenenter"",""trial"":1,""time"":3164}]",NA,NA,NA,NA,NA,0,#1CD855,#FA92F8,10,10,1,38,1,416,37,1,805,10,1,experiment,NA,NA,2,0.5,0.5,4,5,93,3,NA
fcp-trial,127,617417,0.0-102.0-0.0,voc_e2,11695,"[{""event"":""fullscreenenter"",""trial"":1,""time"":3164}]",NA,NA,NA,NA,NA,1,#741CD8,#D8271C,10,0,1,38,1,610,39,0,443,0,0,experiment,NA,NA,1,0.7,0.3,2,3,94,3,NA
fcp-trial,128,620345,0.0-103.0-0.0,voc_e2,11695,"[{""event"":""fullscreenenter"",""trial"":1,""time"":3164}]",NA,NA,NA,NA,NA,4,#D89F1C,#3386FF,0,0,1,38,1,669,37,1,750,0,1,experiment,NA,NA,0,0.9,0.1,0,1,95,3,NA
fcp-trial,129,622761,0.0-104.0-0.0,voc_e2,11695,"[{""event"":""fullscreenenter"",""trial"":1,""time"":3164}]",NA,NA,NA,NA,NA,5,#3386FF,#D89F1C,0,10,0,38,1,348,39,0,557.9999999998836,10,1,experiment,NA,NA,0,0.1,0.9,1,0,96,3,NA
fcp-trial,130,625431,0.0-105.0-0.0,voc_e2,11695,"[{""event"":""fullscreenenter"",""trial"":1,""time"":3164}]",NA,NA,NA,NA,NA,2,#1CD855,#FA92F8,10,0,1,38,1,713,37,1,447,10,1,experiment,NA,NA,2,0.5,0.5,4,5,97,3,NA
fcp-trial,131,628072,0.0-106.0-0.0,voc_e2,11695,"[{""event"":""fullscreenenter"",""trial"":1,""time"":3164}]",NA,NA,NA,NA,NA,1,#3386FF,#D89F1C,0,10,0,38,1,621,39,0,509,10,1,experiment,NA,NA,0,0.1,0.9,1,0,98,3,NA
fcp-trial,132,630661,0.0-107.0-0.0,voc_e2,11695,"[{""event"":""fullscreenenter"",""trial"":1,""time"":3164}]",NA,NA,NA,NA,NA,3,#D8271C,#741CD8,0,10,0,38,1,437.9999999998836,37,1,639,0,0,experiment,NA,NA,1,0.3,0.7,3,2,99,3,NA
fcp-trial,133,633512,0.0-108.0-0.0,voc_e2,11695,"[{""event"":""fullscreenenter"",""trial"":1,""time"":3164}]",NA,NA,NA,NA,NA,5,#1CD855,#FA92F8,0,10,1,38,1,642,37,1,699,0,1,experiment,NA,NA,2,0.5,0.5,4,5,100,3,NA
fcp-trial,134,636233,0.0-109.0-0.0,voc_e2,11695,"[{""event"":""fullscreenenter"",""trial"":1,""time"":3164}]",NA,NA,NA,NA,NA,2,#D8271C,#741CD8,0,0,0,38,1,679,39,0,531,0,1,experiment,NA,NA,1,0.3,0.7,3,2,101,3,NA
fcp-trial,135,638703,0.0-110.0-0.0,voc_e2,11695,"[{""event"":""fullscreenenter"",""trial"":1,""time"":3164}]",NA,NA,NA,NA,NA,0,#3386FF,#D89F1C,0,10,0,38,1,436.0000000001164,37,1,522.9999999998836,0,0,experiment,NA,NA,0,0.1,0.9,1,0,102,3,NA
fcp-trial,136,641186,0.0-111.0-0.0,voc_e2,11695,"[{""event"":""fullscreenenter"",""trial"":1,""time"":3164}]",NA,NA,NA,NA,NA,4,#1CD855,#FA92F8,10,0,1,38,1,524,37,1,449,10,1,experiment,NA,NA,2,0.5,0.5,4,5,103,3,NA
fcp-trial,137,643597,0.0-112.0-0.0,voc_e2,11695,"[{""event"":""fullscreenenter"",""trial"":1,""time"":3164}]",NA,NA,NA,NA,NA,6,#1CD855,#FA92F8,10,0,1,38,1,367,39,0,532,0,0,experiment,NA,NA,2,0.5,0.5,4,5,104,3,NA
fcp-trial,138,646179,0.0-113.0-0.0,voc_e2,11695,"[{""event"":""fullscreenenter"",""trial"":1,""time"":3164}]",NA,NA,NA,NA,NA,0,#D8271C,#741CD8,10,10,0,38,1,655.9999999998836,37,1,417,10,0,experiment,NA,NA,1,0.3,0.7,3,2,105,3,NA
audio-instructions,139,651799,0.0-114.0,voc_e2,11695,"[{""event"":""fullscreenenter"",""trial"":1,""time"":3164}]",NA,1178.0000000001164,static/audio/pause.wav,NA,0,NA,NA,NA,NA,NA,NA,NA,NA,NA,NA,NA,NA,NA,NA,NA,NA,NA,NA,NA,NA,NA,NA,NA,NA,NA
fcp-trial,140,656437,0.0-115.0-0.0,voc_e2,11695,"[{""event"":""fullscreenenter"",""trial"":1,""time"":3164}]",NA,NA,NA,NA,NA,3,#741CD8,#D8271C,10,10,1,40,0,2293,37,1,833.9999999998836,10,1,experiment,NA,NA,1,0.7,0.3,2,3,106,3,NA
fcp-trial,141,660020,0.0-116.0-0.0,voc_e2,11695,"[{""event"":""fullscreenenter"",""trial"":1,""time"":3164}]",NA,NA,NA,NA,NA,6,#741CD8,#D8271C,10,0,1,40,0,1455,39,0,618,0,0,experiment,NA,NA,1,0.7,0.3,2,3,107,3,NA
fcp-trial,142,662287,0.0-117.0-0.0,voc_e2,11695,"[{""event"":""fullscreenenter"",""trial"":1,""time"":3164}]",NA,NA,NA,NA,NA,2,#741CD8,#D8271C,0,0,1,38,1,375,37,1,380.9999999998836,0,1,experiment,NA,NA,1,0.7,0.3,2,3,108,3,NA
fcp-trial,143,666088,0.0-118.0-0.0,voc_e2,11695,"[{""event"":""fullscreenenter"",""trial"":1,""time"":3164}]",NA,NA,NA,NA,NA,4,#1CD855,#FA92F8,0,10,1,40,0,1548,37,1,741,0,1,experiment,NA,NA,2,0.5,0.5,4,5,109,3,NA
fcp-trial,144,670379,0.0-119.0-0.0,voc_e2,11695,"[{""event"":""fullscreenenter"",""trial"":1,""time"":3164}]",NA,NA,NA,NA,NA,6,#3386FF,#D89F1C,0,10,0,38,1,1953,39,0,827,10,1,experiment,NA,NA,0,0.1,0.9,1,0,110,3,NA
fcp-trial,145,672905,0.0-120.0-0.0,voc_e2,11695,"[{""event"":""fullscreenenter"",""trial"":1,""time"":3164}]",NA,NA,NA,NA,NA,1,#1CD855,#FA92F8,0,10,1,38,1,426,37,1,589.0000000001164,0,1,experiment,NA,NA,2,0.5,0.5,4,5,111,3,NA
fcp-trial,146,675229,0.0-121.0-0.0,voc_e2,11695,"[{""event"":""fullscreenenter"",""trial"":1,""time"":3164}]",NA,NA,NA,NA,NA,4,#741CD8,#D8271C,10,0,1,38,1,323,39,0,490,0,0,experiment,NA,NA,1,0.7,0.3,2,3,112,3,NA
fcp-trial,147,678912,0.0-122.0-0.0,voc_e2,11695,"[{""event"":""fullscreenenter"",""trial"":1,""time"":3164}]",NA,NA,NA,NA,NA,6,#FA92F8,#1CD855,10,10,0,38,1,1807,37,1,366,10,0,experiment,NA,NA,2,0.5,0.5,5,4,113,3,NA
fcp-trial,148,682579,0.0-123.0-0.0,voc_e2,11695,"[{""event"":""fullscreenenter"",""trial"":1,""time"":3164}]",NA,NA,NA,NA,NA,4,#D89F1C,#3386FF,10,0,1,38,1,874,39,0,1284,0,0,experiment,NA,NA,0,0.9,0.1,0,1,114,3,NA
fcp-trial,149,685161,0.0-124.0-0.0,voc_e2,11695,"[{""event"":""fullscreenenter"",""trial"":1,""time"":3164}]",NA,NA,NA,NA,NA,0,#D8271C,#741CD8,0,10,0,38,1,344,37,1,729,0,0,experiment,NA,NA,1,0.3,0.7,3,2,115,3,NA
fcp-trial,150,689512,0.0-125.0-0.0,voc_e2,11695,"[{""event"":""fullscreenenter"",""trial"":1,""time"":3164}]",NA,NA,NA,NA,NA,5,#1CD855,#FA92F8,0,10,1,38,1,2241,39,0,600,10,0,experiment,NA,NA,2,0.5,0.5,4,5,116,3,NA
fcp-trial,151,692793,0.0-126.0-0.0,voc_e2,11695,"[{""event"":""fullscreenenter"",""trial"":1,""time"":3164}]",NA,NA,NA,NA,NA,3,#3386FF,#D89F1C,0,0,0,38,1,711,37,1,1058,0,0,experiment,NA,NA,0,0.1,0.9,1,0,117,3,NA
fcp-trial,152,695746,0.0-127.0-0.0,voc_e2,11695,"[{""event"":""fullscreenenter"",""trial"":1,""time"":3164}]",NA,NA,NA,NA,NA,5,#3386FF,#D89F1C,0,10,0,38,1,692,39,0,751,10,1,experiment,NA,NA,0,0.1,0.9,1,0,118,3,NA
fcp-trial,153,698112,0.0-128.0-0.0,voc_e2,11695,"[{""event"":""fullscreenenter"",""trial"":1,""time"":3164}]",NA,NA,NA,NA,NA,3,#FA92F8,#1CD855,0,10,0,38,1,366,37,1,489,0,0,experiment,NA,NA,2,0.5,0.5,5,4,119,3,NA
fcp-trial,154,700761,0.0-129.0-0.0,voc_e2,11695,"[{""event"":""fullscreenenter"",""trial"":1,""time"":3164}]",NA,NA,NA,NA,NA,5,#741CD8,#D8271C,10,0,1,38,1,518,39,0,621,0,0,experiment,NA,NA,1,0.7,0.3,2,3,120,3,NA
fcp-trial,155,703470,0.0-130.0-0.0,voc_e2,11695,"[{""event"":""fullscreenenter"",""trial"":1,""time"":3164}]",NA,NA,NA,NA,NA,0,#FA92F8,#1CD855,10,10,0,38,1,741,37,1,457,10,0,experiment,NA,NA,2,0.5,0.5,5,4,121,3,NA
fcp-trial,156,706361,0.0-131.0-0.0,voc_e2,11695,"[{""event"":""fullscreenenter"",""trial"":1,""time"":3164}]",NA,NA,NA,NA,NA,1,#D89F1C,#3386FF,10,0,1,38,1,684,37,1,699,10,1,experiment,NA,NA,0,0.9,0.1,0,1,122,3,NA
fcp-trial,157,709319,0.0-132.0-0.0,voc_e2,11695,"[{""event"":""fullscreenenter"",""trial"":1,""time"":3164}]",NA,NA,NA,NA,NA,1,#741CD8,#D8271C,0,0,1,38,1,912.0000000001164,37,1,532,0,1,experiment,NA,NA,1,0.7,0.3,2,3,123,3,NA
fcp-trial,158,711783,0.0-133.0-0.0,voc_e2,11695,"[{""event"":""fullscreenenter"",""trial"":1,""time"":3164}]",NA,NA,NA,NA,NA,0,#D89F1C,#3386FF,10,0,1,38,1,467,39,0,486,0,0,experiment,NA,NA,0,0.9,0.1,0,1,124,3,NA
fcp-trial,159,714296,0.0-134.0-0.0,voc_e2,11695,"[{""event"":""fullscreenenter"",""trial"":1,""time"":3164}]",NA,NA,NA,NA,NA,2,#3386FF,#D89F1C,0,10,0,38,1,601,37,1,401,0,0,experiment,NA,NA,0,0.1,0.9,1,0,125,3,NA
fcp-trial,160,716636,0.0-135.0-0.0,voc_e2,11695,"[{""event"":""fullscreenenter"",""trial"":1,""time"":3164}]",NA,NA,NA,NA,NA,2,#FA92F8,#1CD855,0,10,0,38,1,308,39,0,520,10,1,experiment,NA,NA,2,0.5,0.5,5,4,126,3,NA
fcp-trial,161,719053,0.0-136.0-0.0,voc_e2,11695,"[{""event"":""fullscreenenter"",""trial"":1,""time"":3164}]",NA,NA,NA,NA,NA,3,#D8271C,#741CD8,10,10,0,38,1,416,37,1,490,10,0,experiment,NA,NA,1,0.3,0.7,3,2,127,3,NA
fcp-trial,162,721663,0.0-137.0-0.0,voc_e2,11695,"[{""event"":""fullscreenenter"",""trial"":1,""time"":3164}]",NA,NA,NA,NA,NA,2,#D89F1C,#3386FF,10,0,1,38,1,582,39,0,517,0,0,experiment,NA,NA,0,0.9,0.1,0,1,128,3,NA
fcp-trial,163,724605,0.0-138.0-0.0,voc_e2,11695,"[{""event"":""fullscreenenter"",""trial"":1,""time"":3164}]",NA,NA,NA,NA,NA,3,#D89F1C,#3386FF,10,10,1,38,1,605,39,0,825,10,0,experiment,NA,NA,0,0.9,0.1,0,1,129,3,NA
fcp-trial,164,727328,0.0-139.0-0.0,voc_e2,11695,"[{""event"":""fullscreenenter"",""trial"":1,""time"":3164}]",NA,NA,NA,NA,NA,2,#FA92F8,#1CD855,0,10,0,38,1,880,37,1,334,0,0,experiment,NA,NA,2,0.5,0.5,5,4,130,3,NA
fcp-trial,165,731044,0.0-140.0-0.0,voc_e2,11695,"[{""event"":""fullscreenenter"",""trial"":1,""time"":3164}]",NA,NA,NA,NA,NA,2,#D8271C,#741CD8,0,10,0,38,1,1723,39,0,483,10,1,experiment,NA,NA,1,0.3,0.7,3,2,131,3,NA
fcp-trial,166,734394,0.0-141.0-0.0,voc_e2,11695,"[{""event"":""fullscreenenter"",""trial"":1,""time"":3164}]",NA,NA,NA,NA,NA,0,#741CD8,#D8271C,0,10,1,38,1,1331,37,1,509,0,1,experiment,NA,NA,1,0.7,0.3,2,3,132,3,NA
fcp-trial,167,736852,0.0-142.0-0.0,voc_e2,11695,"[{""event"":""fullscreenenter"",""trial"":1,""time"":3164}]",NA,NA,NA,NA,NA,5,#D89F1C,#3386FF,10,10,1,38,1,489.9999999998836,39,0,455,10,0,experiment,NA,NA,0,0.9,0.1,0,1,133,3,NA
fcp-trial,168,739551,0.0-143.0-0.0,voc_e2,11695,"[{""event"":""fullscreenenter"",""trial"":1,""time"":3164}]",NA,NA,NA,NA,NA,1,#FA92F8,#1CD855,0,10,0,38,1,455,37,1,734,0,0,experiment,NA,NA,2,0.5,0.5,5,4,134,3,NA
fcp-trial,169,741767,0.0-144.0-0.0,voc_e2,11695,"[{""event"":""fullscreenenter"",""trial"":1,""time"":3164}]",NA,NA,NA,NA,NA,6,#1CD855,#FA92F8,10,0,1,38,1,274,39,0,430,0,0,experiment,NA,NA,2,0.5,0.5,4,5,135,3,NA
fcp-trial,170,744131,0.0-145.0-0.0,voc_e2,11695,"[{""event"":""fullscreenenter"",""trial"":1,""time"":3164}]",NA,NA,NA,NA,NA,6,#D89F1C,#3386FF,10,0,1,38,1,383.0000000001164,37,1,469.0000000001164,10,1,experiment,NA,NA,0,0.9,0.1,0,1,136,4,NA
fcp-trial,171,746655,0.0-146.0-0.0,voc_e2,11695,"[{""event"":""fullscreenenter"",""trial"":1,""time"":3164}]",NA,NA,NA,NA,NA,5,#D8271C,#741CD8,0,10,0,38,1,521,39,0,493.0000000001164,10,1,experiment,NA,NA,1,0.3,0.7,3,2,137,4,NA
fcp-trial,172,749255,0.0-147.0-0.0,voc_e2,11695,"[{""event"":""fullscreenenter"",""trial"":1,""time"":3164}]",NA,NA,NA,NA,NA,4,#FA92F8,#1CD855,10,0,0,38,1,645,37,1,443,10,0,experiment,NA,NA,2,0.5,0.5,5,4,138,4,NA
fcp-trial,173,751845,0.0-148.0-0.0,voc_e2,11695,"[{""event"":""fullscreenenter"",""trial"":1,""time"":3164}]",NA,NA,NA,NA,NA,3,#FA92F8,#1CD855,10,0,0,38,1,707.0000000001164,39,0,372,0,1,experiment,NA,NA,2,0.5,0.5,5,4,139,4,NA
fcp-trial,174,754455,0.0-149.0-0.0,voc_e2,11695,"[{""event"":""fullscreenenter"",""trial"":1,""time"":3164}]",NA,NA,NA,NA,NA,0,#FA92F8,#1CD855,0,0,0,38,1,756,37,1,344,0,0,experiment,NA,NA,2,0.5,0.5,5,4,140,4,NA
fcp-trial,175,756837,0.0-150.0-0.0,voc_e2,11695,"[{""event"":""fullscreenenter"",""trial"":1,""time"":3164}]",NA,NA,NA,NA,NA,0,#D89F1C,#3386FF,10,0,1,38,1,449,39,0,423,0,0,experiment,NA,NA,0,0.9,0.1,0,1,141,4,NA
fcp-trial,176,760285,0.0-151.0-0.0,voc_e2,11695,"[{""event"":""fullscreenenter"",""trial"":1,""time"":3164}]",NA,NA,NA,NA,NA,6,#D8271C,#741CD8,10,10,0,40,0,680.9999999998836,37,1,1256.0000000001164,10,0,experiment,NA,NA,1,0.3,0.7,3,2,142,4,NA
fcp-trial,177,763767,0.0-152.0-0.0,voc_e2,11695,"[{""event"":""fullscreenenter"",""trial"":1,""time"":3164}]",NA,NA,NA,NA,NA,4,#3386FF,#D89F1C,10,10,0,38,1,1606,39,0,364,10,1,experiment,NA,NA,0,0.1,0.9,1,0,143,4,NA
fcp-trial,178,766380,0.0-153.0-0.0,voc_e2,11695,"[{""event"":""fullscreenenter"",""trial"":1,""time"":3164}]",NA,NA,NA,NA,NA,4,#741CD8,#D8271C,10,0,1,38,1,667,37,1,437.0000000001164,10,1,experiment,NA,NA,1,0.7,0.3,2,3,144,4,NA
fcp-trial,179,769904,0.0-154.0-0.0,voc_e2,11695,"[{""event"":""fullscreenenter"",""trial"":1,""time"":3164}]",NA,NA,NA,NA,NA,5,#FA92F8,#1CD855,10,0,0,38,1,728,39,0,1284,0,1,experiment,NA,NA,2,0.5,0.5,5,4,145,4,NA
fcp-trial,180,772511,0.0-155.0-0.0,voc_e2,11695,"[{""event"":""fullscreenenter"",""trial"":1,""time"":3164}]",NA,NA,NA,NA,NA,1,#D8271C,#741CD8,10,10,0,38,1,719,37,1,377,10,0,experiment,NA,NA,1,0.3,0.7,3,2,146,4,NA
fcp-trial,181,775020,0.0-156.0-0.0,voc_e2,11695,"[{""event"":""fullscreenenter"",""trial"":1,""time"":3164}]",NA,NA,NA,NA,NA,1,#3386FF,#D89F1C,0,10,0,38,1,482,39,0,517,10,1,experiment,NA,NA,0,0.1,0.9,1,0,147,4,NA
fcp-trial,182,777721,0.0-157.0-0.0,voc_e2,11695,"[{""event"":""fullscreenenter"",""trial"":1,""time"":3164}]",NA,NA,NA,NA,NA,0,#3386FF,#D89F1C,0,10,0,38,1,863.0000000001164,37,1,325.9999999998836,0,0,experiment,NA,NA,0,0.1,0.9,1,0,148,4,NA
fcp-trial,183,779916,0.0-158.0-0.0,voc_e2,11695,"[{""event"":""fullscreenenter"",""trial"":1,""time"":3164}]",NA,NA,NA,NA,NA,2,#D89F1C,#3386FF,10,0,1,38,1,331,39,0,354,0,0,experiment,NA,NA,0,0.9,0.1,0,1,149,4,NA
fcp-trial,184,782415,0.0-159.0-0.0,voc_e2,11695,"[{""event"":""fullscreenenter"",""trial"":1,""time"":3164}]",NA,NA,NA,NA,NA,1,#3386FF,#D89F1C,0,10,0,38,1,369,39,0,619,10,1,experiment,NA,NA,0,0.1,0.9,1,0,150,4,NA
fcp-trial,185,785052,0.0-160.0-0.0,voc_e2,11695,"[{""event"":""fullscreenenter"",""trial"":1,""time"":3164}]",NA,NA,NA,NA,NA,6,#D8271C,#741CD8,0,10,0,38,1,513,37,1,609,0,0,experiment,NA,NA,1,0.3,0.7,3,2,151,4,NA
fcp-trial,186,790312,0.0-161.0-0.0,voc_e2,11695,"[{""event"":""fullscreenenter"",""trial"":1,""time"":3164}]",NA,NA,NA,NA,NA,5,#D8271C,#741CD8,0,10,0,38,1,16.000000000116415,39,0,3734.999999999883,10,1,experiment,NA,NA,1,0.3,0.7,3,2,152,4,NA
fcp-trial,187,793681,0.0-162.0-0.0,voc_e2,11695,"[{""event"":""fullscreenenter"",""trial"":1,""time"":3164}]",NA,NA,NA,NA,NA,0,#741CD8,#D8271C,10,0,1,38,1,854,37,1,1002.9999999998836,10,1,experiment,NA,NA,1,0.7,0.3,2,3,153,4,NA
fcp-trial,188,796522,0.0-163.0-0.0,voc_e2,11695,"[{""event"":""fullscreenenter"",""trial"":1,""time"":3164}]",NA,NA,NA,NA,NA,6,#D89F1C,#3386FF,10,10,1,38,1,621,39,0,708,10,0,experiment,NA,NA,0,0.9,0.1,0,1,154,4,NA
fcp-trial,189,799361,0.0-164.0-0.0,voc_e2,11695,"[{""event"":""fullscreenenter"",""trial"":1,""time"":3164}]",NA,NA,NA,NA,NA,1,#1CD855,#FA92F8,10,0,1,38,1,698,39,0,631,0,0,experiment,NA,NA,2,0.5,0.5,4,5,155,4,NA
fcp-trial,190,802300,0.0-165.0-0.0,voc_e2,11695,"[{""event"":""fullscreenenter"",""trial"":1,""time"":3164}]",NA,NA,NA,NA,NA,4,#FA92F8,#1CD855,0,0,0,38,1,706.0000000001164,39,0,721,0,1,experiment,NA,NA,2,0.5,0.5,5,4,156,4,NA
fcp-trial,191,805511,0.0-166.0-0.0,voc_e2,11695,"[{""event"":""fullscreenenter"",""trial"":1,""time"":3164}]",NA,NA,NA,NA,NA,2,#741CD8,#D8271C,10,0,1,38,1,776,39,0,924,0,0,experiment,NA,NA,1,0.7,0.3,2,3,157,4,NA
fcp-trial,192,808043,0.0-167.0-0.0,voc_e2,11695,"[{""event"":""fullscreenenter"",""trial"":1,""time"":3164}]",NA,NA,NA,NA,NA,3,#D8271C,#741CD8,0,10,0,38,1,493,37,1,529,0,0,experiment,NA,NA,1,0.3,0.7,3,2,158,4,NA
fcp-trial,193,810677,0.0-168.0-0.0,voc_e2,11695,"[{""event"":""fullscreenenter"",""trial"":1,""time"":3164}]",NA,NA,NA,NA,NA,5,#D89F1C,#3386FF,10,0,1,38,1,344,37,1,780,10,1,experiment,NA,NA,0,0.9,0.1,0,1,159,4,NA
fcp-trial,194,813777,0.0-169.0-0.0,voc_e2,11695,"[{""event"":""fullscreenenter"",""trial"":1,""time"":3164}]",NA,NA,NA,NA,NA,3,#FA92F8,#1CD855,0,0,0,38,1,1214,37,1,373,0,0,experiment,NA,NA,2,0.5,0.5,5,4,160,4,NA
fcp-trial,195,816802,0.0-170.0-0.0,voc_e2,11695,"[{""event"":""fullscreenenter"",""trial"":1,""time"":3164}]",NA,NA,NA,NA,NA,4,#3386FF,#D89F1C,10,10,0,40,0,981,39,0,534,10,1,experiment,NA,NA,0,0.1,0.9,1,0,161,4,NA
fcp-trial,196,819961,0.0-171.0-0.0,voc_e2,11695,"[{""event"":""fullscreenenter"",""trial"":1,""time"":3164}]",NA,NA,NA,NA,NA,2,#FA92F8,#1CD855,10,0,0,38,1,1305,37,1,339.9999999998836,10,0,experiment,NA,NA,2,0.5,0.5,5,4,162,4,NA
fcp-trial,197,822478,0.0-172.0-0.0,voc_e2,11695,"[{""event"":""fullscreenenter"",""trial"":1,""time"":3164}]",NA,NA,NA,NA,NA,4,#741CD8,#D8271C,0,0,1,38,1,390,37,1,616,0,1,experiment,NA,NA,1,0.7,0.3,2,3,163,4,NA
fcp-trial,198,825261,0.0-173.0-0.0,voc_e2,11695,"[{""event"":""fullscreenenter"",""trial"":1,""time"":3164}]",NA,NA,NA,NA,NA,1,#741CD8,#D8271C,10,0,1,38,1,473,37,1,801,10,1,experiment,NA,NA,1,0.7,0.3,2,3,164,4,NA
fcp-trial,199,827931,0.0-174.0-0.0,voc_e2,11695,"[{""event"":""fullscreenenter"",""trial"":1,""time"":3164}]",NA,NA,NA,NA,NA,3,#D89F1C,#3386FF,10,0,1,38,1,529,39,0,629,0,0,experiment,NA,NA,0,0.9,0.1,0,1,165,4,NA
fcp-trial,200,830377,0.0-175.0-0.0,voc_e2,11695,"[{""event"":""fullscreenenter"",""trial"":1,""time"":3164}]",NA,NA,NA,NA,NA,5,#1CD855,#FA92F8,0,10,1,38,1,386,39,0,549.9999999998836,10,0,experiment,NA,NA,2,0.5,0.5,4,5,166,4,NA
fcp-trial,201,832871,0.0-176.0-0.0,voc_e2,11695,"[{""event"":""fullscreenenter"",""trial"":1,""time"":3164}]",NA,NA,NA,NA,NA,6,#1CD855,#FA92F8,0,10,1,38,1,475,37,1,506.0000000001164,0,1,experiment,NA,NA,2,0.5,0.5,4,5,167,4,NA
fcp-trial,202,835694,0.0-177.0-0.0,voc_e2,11695,"[{""event"":""fullscreenenter"",""trial"":1,""time"":3164}]",NA,NA,NA,NA,NA,0,#FA92F8,#1CD855,0,10,0,38,1,680.9999999998836,39,0,632,10,1,experiment,NA,NA,2,0.5,0.5,5,4,168,4,NA
fcp-trial,203,838349,0.0-178.0-0.0,voc_e2,11695,"[{""event"":""fullscreenenter"",""trial"":1,""time"":3164}]",NA,NA,NA,NA,NA,0,#3386FF,#D89F1C,0,10,0,38,1,649,37,1,495,0,0,experiment,NA,NA,0,0.1,0.9,1,0,169,4,NA
fcp-trial,204,840904,0.0-179.0-0.0,voc_e2,11695,"[{""event"":""fullscreenenter"",""trial"":1,""time"":3164}]",NA,NA,NA,NA,NA,4,#1CD855,#FA92F8,0,10,1,38,1,502,39,0,543,10,0,experiment,NA,NA,2,0.5,0.5,4,5,170,4,NA
fcp-trial,205,844410,0.0-180.0-0.0,voc_e2,11695,"[{""event"":""fullscreenenter"",""trial"":1,""time"":3164}]",NA,NA,NA,NA,NA,6,#3386FF,#D89F1C,0,10,0,40,0,1182,37,1,815,0,0,experiment,NA,NA,0,0.1,0.9,1,0,171,4,NA
fcp-trial,206,847221,0.0-181.0-0.0,voc_e2,11695,"[{""event"":""fullscreenenter"",""trial"":1,""time"":3164}]",NA,NA,NA,NA,NA,1,#D8271C,#741CD8,0,10,0,38,1,877.0000000001164,37,1,420,0,0,experiment,NA,NA,1,0.3,0.7,3,2,172,4,NA
fcp-trial,207,849944,0.0-182.0-0.0,voc_e2,11695,"[{""event"":""fullscreenenter"",""trial"":1,""time"":3164}]",NA,NA,NA,NA,NA,0,#FA92F8,#1CD855,10,10,0,38,1,665,37,1,529,10,0,experiment,NA,NA,2,0.5,0.5,5,4,173,4,NA
fcp-trial,208,852980,0.0-183.0-0.0,voc_e2,11695,"[{""event"":""fullscreenenter"",""trial"":1,""time"":3164}]",NA,NA,NA,NA,NA,2,#1CD855,#FA92F8,0,0,1,38,1,610,39,0,915,0,0,experiment,NA,NA,2,0.5,0.5,4,5,174,4,NA
fcp-trial,209,855520,0.0-184.0-0.0,voc_e2,11695,"[{""event"":""fullscreenenter"",""trial"":1,""time"":3164}]",NA,NA,NA,NA,NA,1,#D89F1C,#3386FF,10,0,1,38,1,609,37,1,418.9999999998836,10,1,experiment,NA,NA,0,0.9,0.1,0,1,175,4,NA
fcp-trial,210,858282,0.0-185.0-0.0,voc_e2,11695,"[{""event"":""fullscreenenter"",""trial"":1,""time"":3164}]",NA,NA,NA,NA,NA,2,#D8271C,#741CD8,0,0,0,38,1,755,39,0,495,0,1,experiment,NA,NA,1,0.3,0.7,3,2,176,4,NA
fcp-trial,211,861435,0.0-186.0-0.0,voc_e2,11695,"[{""event"":""fullscreenenter"",""trial"":1,""time"":3164}]",NA,NA,NA,NA,NA,0,#741CD8,#D8271C,10,10,1,38,1,977.9999999998836,39,0,658,10,0,experiment,NA,NA,1,0.7,0.3,2,3,177,4,NA
fcp-trial,212,864226,0.0-187.0-0.0,voc_e2,11695,"[{""event"":""fullscreenenter"",""trial"":1,""time"":3164}]",NA,NA,NA,NA,NA,2,#3386FF,#D89F1C,0,10,0,38,1,983,37,1,298,0,0,experiment,NA,NA,0,0.1,0.9,1,0,178,4,NA
fcp-trial,213,867538,0.0-188.0-0.0,voc_e2,11695,"[{""event"":""fullscreenenter"",""trial"":1,""time"":3164}]",NA,NA,NA,NA,NA,1,#1CD855,#FA92F8,10,10,1,38,1,581,39,0,1219,10,0,experiment,NA,NA,2,0.5,0.5,4,5,179,4,NA
fcp-trial,214,870043,0.0-189.0-0.0,voc_e2,11695,"[{""event"":""fullscreenenter"",""trial"":1,""time"":3164}]",NA,NA,NA,NA,NA,5,#3386FF,#D89F1C,0,10,0,38,1,488,39,0,507.0000000001164,10,1,experiment,NA,NA,0,0.1,0.9,1,0,180,4,NA
fcp-trial,215,872882,0.0-190.0-0.0,voc_e2,11695,"[{""event"":""fullscreenenter"",""trial"":1,""time"":3164}]",NA,NA,NA,NA,NA,3,#741CD8,#D8271C,0,10,1,38,1,510,39,0,818,10,0,experiment,NA,NA,1,0.7,0.3,2,3,181,5,NA
fcp-trial,216,875904,0.0-191.0-0.0,voc_e2,11695,"[{""event"":""fullscreenenter"",""trial"":1,""time"":3164}]",NA,NA,NA,NA,NA,5,#D8271C,#741CD8,10,0,0,38,1,554.0000000001164,37,1,955,10,0,experiment,NA,NA,1,0.3,0.7,3,2,182,5,NA
fcp-trial,217,878578,0.0-192.0-0.0,voc_e2,11695,"[{""event"":""fullscreenenter"",""trial"":1,""time"":3164}]",NA,NA,NA,NA,NA,3,#D89F1C,#3386FF,10,0,1,38,1,664.0000000001164,39,0,500,0,0,experiment,NA,NA,0,0.9,0.1,0,1,183,5,NA
fcp-trial,218,881052,0.0-193.0-0.0,voc_e2,11695,"[{""event"":""fullscreenenter"",""trial"":1,""time"":3164}]",NA,NA,NA,NA,NA,5,#1CD855,#FA92F8,0,10,1,38,1,406,37,1,557,0,1,experiment,NA,NA,2,0.5,0.5,4,5,184,5,NA
fcp-trial,219,884337,0.0-194.0-0.0,voc_e2,11695,"[{""event"":""fullscreenenter"",""trial"":1,""time"":3164}]",NA,NA,NA,NA,NA,6,#FA92F8,#1CD855,10,0,0,38,1,382,37,1,1392,10,0,experiment,NA,NA,2,0.5,0.5,5,4,185,5,NA
fcp-trial,220,886817,0.0-195.0-0.0,voc_e2,11695,"[{""event"":""fullscreenenter"",""trial"":1,""time"":3164}]",NA,NA,NA,NA,NA,4,#3386FF,#D89F1C,0,10,0,38,1,501.9999999998836,37,1,467,0,0,experiment,NA,NA,0,0.1,0.9,1,0,186,5,NA
fcp-trial,221,890535,0.0-196.0-0.0,voc_e2,11695,"[{""event"":""fullscreenenter"",""trial"":1,""time"":3164}]",NA,NA,NA,NA,NA,6,#741CD8,#D8271C,10,0,1,38,1,1620,39,0,586,0,0,experiment,NA,NA,1,0.7,0.3,2,3,187,5,NA
fcp-trial,222,893576,0.0-197.0-0.0,voc_e2,11695,"[{""event"":""fullscreenenter"",""trial"":1,""time"":3164}]",NA,NA,NA,NA,NA,4,#741CD8,#D8271C,10,0,1,40,0,854.0000000001164,37,1,675,10,1,experiment,NA,NA,1,0.7,0.3,2,3,188,5,NA
fcp-trial,223,897043,0.0-198.0-0.0,voc_e2,11695,"[{""event"":""fullscreenenter"",""trial"":1,""time"":3164}]",NA,NA,NA,NA,NA,3,#FA92F8,#1CD855,10,0,0,38,1,1559.0000000001164,37,1,398.0000000001164,10,0,experiment,NA,NA,2,0.5,0.5,5,4,189,5,NA
fcp-trial,224,899748,0.0-199.0-0.0,voc_e2,11695,"[{""event"":""fullscreenenter"",""trial"":1,""time"":3164}]",NA,NA,NA,NA,NA,5,#D89F1C,#3386FF,10,0,1,38,1,806.9999999998836,37,1,386,10,1,experiment,NA,NA,0,0.9,0.1,0,1,190,5,NA
fcp-trial,225,902701,0.0-200.0-0.0,voc_e2,11695,"[{""event"":""fullscreenenter"",""trial"":1,""time"":3164}]",NA,NA,NA,NA,NA,6,#D8271C,#741CD8,0,0,0,38,1,737.0000000001164,37,1,704.9999999998836,0,0,experiment,NA,NA,1,0.3,0.7,3,2,191,5,NA
fcp-trial,226,905594,0.0-201.0-0.0,voc_e2,11695,"[{""event"":""fullscreenenter"",""trial"":1,""time"":3164}]",NA,NA,NA,NA,NA,5,#741CD8,#D8271C,0,0,1,38,1,666,39,0,717,0,0,experiment,NA,NA,1,0.7,0.3,2,3,192,5,NA
fcp-trial,227,908361,0.0-202.0-0.0,voc_e2,11695,"[{""event"":""fullscreenenter"",""trial"":1,""time"":3164}]",NA,NA,NA,NA,NA,4,#D89F1C,#3386FF,10,0,1,38,1,672,37,1,584,10,1,experiment,NA,NA,0,0.9,0.1,0,1,193,5,NA
fcp-trial,228,911115,0.0-203.0-0.0,voc_e2,11695,"[{""event"":""fullscreenenter"",""trial"":1,""time"":3164}]",NA,NA,NA,NA,NA,6,#3386FF,#D89F1C,0,10,0,38,1,495,37,1,747,0,0,experiment,NA,NA,0,0.1,0.9,1,0,194,5,NA
fcp-trial,229,914511,0.0-204.0-0.0,voc_e2,11695,"[{""event"":""fullscreenenter"",""trial"":1,""time"":3164}]",NA,NA,NA,NA,NA,3,#741CD8,#D8271C,10,0,1,40,0,1059.9999999998836,39,0,825,0,0,experiment,NA,NA,1,0.7,0.3,2,3,195,5,NA
fcp-trial,230,917732,0.0-205.0-0.0,voc_e2,11695,"[{""event"":""fullscreenenter"",""trial"":1,""time"":3164}]",NA,NA,NA,NA,NA,4,#FA92F8,#1CD855,10,10,0,40,0,978.0000000001164,37,1,730.0000000001164,10,0,experiment,NA,NA,2,0.5,0.5,5,4,196,5,NA
fcp-trial,231,920235,0.0-206.0-0.0,voc_e2,11695,"[{""event"":""fullscreenenter"",""trial"":1,""time"":3164}]",NA,NA,NA,NA,NA,3,#FA92F8,#1CD855,0,10,0,40,0,519,37,1,474,0,0,experiment,NA,NA,2,0.5,0.5,5,4,197,5,NA
fcp-trial,232,922613,0.0-207.0-0.0,voc_e2,11695,"[{""event"":""fullscreenenter"",""trial"":1,""time"":3164}]",NA,NA,NA,NA,NA,1,#741CD8,#D8271C,10,0,1,38,1,132,39,0,736,0,0,experiment,NA,NA,1,0.7,0.3,2,3,198,5,NA
fcp-trial,233,925168,0.0-208.0-0.0,voc_e2,11695,"[{""event"":""fullscreenenter"",""trial"":1,""time"":3164}]",NA,NA,NA,NA,NA,1,#D89F1C,#3386FF,10,0,1,38,1,604,37,1,439,10,1,experiment,NA,NA,0,0.9,0.1,0,1,199,5,NA
fcp-trial,234,929710,0.0-209.0-0.0,voc_e2,11695,"[{""event"":""fullscreenenter"",""trial"":1,""time"":3164}]",NA,NA,NA,NA,NA,5,#1CD855,#FA92F8,0,0,1,38,1,1601,39,0,1430.9999999998836,0,0,experiment,NA,NA,2,0.5,0.5,4,5,200,5,NA
fcp-trial,235,932060,0.0-210.0-0.0,voc_e2,11695,"[{""event"":""fullscreenenter"",""trial"":1,""time"":3164}]",NA,NA,NA,NA,NA,6,#1CD855,#FA92F8,10,10,1,38,1,314,37,1,523,10,1,experiment,NA,NA,2,0.5,0.5,4,5,201,5,NA
fcp-trial,236,935165,0.0-211.0-0.0,voc_e2,11695,"[{""event"":""fullscreenenter"",""trial"":1,""time"":3164}]",NA,NA,NA,NA,NA,2,#741CD8,#D8271C,10,10,1,38,1,940,37,1,654,10,1,experiment,NA,NA,1,0.7,0.3,2,3,202,5,NA
fcp-trial,237,938209,0.0-212.0-0.0,voc_e2,11695,"[{""event"":""fullscreenenter"",""trial"":1,""time"":3164}]",NA,NA,NA,NA,NA,0,#3386FF,#D89F1C,0,10,0,38,1,1208,39,0,325,10,1,experiment,NA,NA,0,0.1,0.9,1,0,203,5,NA
fcp-trial,238,940626,0.0-213.0-0.0,voc_e2,11695,"[{""event"":""fullscreenenter"",""trial"":1,""time"":3164}]",NA,NA,NA,NA,NA,2,#1CD855,#FA92F8,0,0,1,38,1,441,39,0,466,0,0,experiment,NA,NA,2,0.5,0.5,4,5,204,5,NA
fcp-trial,239,943154,0.0-214.0-0.0,voc_e2,11695,"[{""event"":""fullscreenenter"",""trial"":1,""time"":3164}]",NA,NA,NA,NA,NA,0,#1CD855,#FA92F8,0,0,1,38,1,500,37,1,517.0000000001164,0,1,experiment,NA,NA,2,0.5,0.5,4,5,205,5,NA
fcp-trial,240,946120,0.0-215.0-0.0,voc_e2,11695,"[{""event"":""fullscreenenter"",""trial"":1,""time"":3164}]",NA,NA,NA,NA,NA,0,#D8271C,#741CD8,0,0,0,38,1,564,39,0,883.0000000001164,0,1,experiment,NA,NA,1,0.3,0.7,3,2,206,5,NA
fcp-trial,241,948635,0.0-216.0-0.0,voc_e2,11695,"[{""event"":""fullscreenenter"",""trial"":1,""time"":3164}]",NA,NA,NA,NA,NA,2,#D89F1C,#3386FF,10,0,1,38,1,417,37,1,588,10,1,experiment,NA,NA,0,0.9,0.1,0,1,207,5,NA
fcp-trial,242,951410,0.0-217.0-0.0,voc_e2,11695,"[{""event"":""fullscreenenter"",""trial"":1,""time"":3164}]",NA,NA,NA,NA,NA,4,#D8271C,#741CD8,10,0,0,38,1,482,39,0,782,0,1,experiment,NA,NA,1,0.3,0.7,3,2,208,5,NA
fcp-trial,243,953917,0.0-218.0-0.0,voc_e2,11695,"[{""event"":""fullscreenenter"",""trial"":1,""time"":3164}]",NA,NA,NA,NA,NA,3,#3386FF,#D89F1C,0,10,0,38,1,559,39,0,438,10,1,experiment,NA,NA,0,0.1,0.9,1,0,209,5,NA
fcp-trial,244,956252,0.0-219.0-0.0,voc_e2,11695,"[{""event"":""fullscreenenter"",""trial"":1,""time"":3164}]",NA,NA,NA,NA,NA,1,#FA92F8,#1CD855,0,10,0,38,1,333,37,1,491,0,0,experiment,NA,NA,2,0.5,0.5,5,4,210,5,NA
audio-instructions,245,961810,0.0-220.0,voc_e2,11695,"[{""event"":""fullscreenenter"",""trial"":1,""time"":3164}]",NA,1115,static/audio/pause.wav,NA,0,NA,NA,NA,NA,NA,NA,NA,NA,NA,NA,NA,NA,NA,NA,NA,NA,NA,NA,NA,NA,NA,NA,NA,NA,NA
fcp-trial,246,966025,0.0-221.0-0.0,voc_e2,11695,"[{""event"":""fullscreenenter"",""trial"":1,""time"":3164}]",NA,NA,NA,NA,NA,5,#1CD855,#FA92F8,10,10,1,40,0,1693,37,1,1013,10,1,experiment,NA,NA,2,0.5,0.5,4,5,211,5,NA
fcp-trial,247,970998,0.0-222.0-0.0,voc_e2,11695,"[{""event"":""fullscreenenter"",""trial"":1,""time"":3164}]",NA,NA,NA,NA,NA,2,#3386FF,#D89F1C,0,10,0,38,1,1358.9999999998836,39,0,2102.9999999998836,10,1,experiment,NA,NA,0,0.1,0.9,1,0,212,5,NA
fcp-trial,248,974326,0.0-223.0-0.0,voc_e2,11695,"[{""event"":""fullscreenenter"",""trial"":1,""time"":3164}]",NA,NA,NA,NA,NA,6,#D89F1C,#3386FF,10,0,1,38,1,524,37,1,1293,10,1,experiment,NA,NA,0,0.9,0.1,0,1,213,5,NA
fcp-trial,249,977459,0.0-224.0-0.0,voc_e2,11695,"[{""event"":""fullscreenenter"",""trial"":1,""time"":3164}]",NA,NA,NA,NA,NA,4,#741CD8,#D8271C,10,0,1,38,1,492.0000000001164,37,1,1132,10,1,experiment,NA,NA,1,0.7,0.3,2,3,214,5,NA
fcp-trial,250,980998,0.0-225.0-0.0,voc_e2,11695,"[{""event"":""fullscreenenter"",""trial"":1,""time"":3164}]",NA,NA,NA,NA,NA,4,#FA92F8,#1CD855,10,10,0,38,1,1675.0000000001164,37,1,352.9999999998836,10,0,experiment,NA,NA,2,0.5,0.5,5,4,215,5,NA
fcp-trial,251,984199,0.0-226.0-0.0,voc_e2,11695,"[{""event"":""fullscreenenter"",""trial"":1,""time"":3164}]",NA,NA,NA,NA,NA,0,#D89F1C,#3386FF,10,0,1,38,1,1285.0000000001164,37,1,405,10,1,experiment,NA,NA,0,0.9,0.1,0,1,216,5,NA
fcp-trial,252,986753,0.0-227.0-0.0,voc_e2,11695,"[{""event"":""fullscreenenter"",""trial"":1,""time"":3164}]",NA,NA,NA,NA,NA,0,#741CD8,#D8271C,10,0,1,38,1,455,39,0,589,0,0,experiment,NA,NA,1,0.7,0.3,2,3,217,5,NA
fcp-trial,253,989594,0.0-228.0-0.0,voc_e2,11695,"[{""event"":""fullscreenenter"",""trial"":1,""time"":3164}]",NA,NA,NA,NA,NA,3,#3386FF,#D89F1C,10,10,0,38,1,625,39,0,707,10,1,experiment,NA,NA,0,0.1,0.9,1,0,218,5,NA
fcp-trial,254,992298,0.0-229.0-0.0,voc_e2,11695,"[{""event"":""fullscreenenter"",""trial"":1,""time"":3164}]",NA,NA,NA,NA,NA,6,#D8271C,#741CD8,0,10,0,38,1,560,39,0,633.0000000001164,10,1,experiment,NA,NA,1,0.3,0.7,3,2,219,5,NA
fcp-trial,255,994665,0.0-230.0-0.0,voc_e2,11695,"[{""event"":""fullscreenenter"",""trial"":1,""time"":3164}]",NA,NA,NA,NA,NA,2,#FA92F8,#1CD855,10,0,0,38,1,401,37,1,454,10,0,experiment,NA,NA,2,0.5,0.5,5,4,220,5,NA
fcp-trial,256,997043,0.0-231.0-0.0,voc_e2,11695,"[{""event"":""fullscreenenter"",""trial"":1,""time"":3164}]",NA,NA,NA,NA,NA,5,#D8271C,#741CD8,10,10,0,38,1,401,39,0,467.0000000001164,10,1,experiment,NA,NA,1,0.3,0.7,3,2,221,5,NA
fcp-trial,257,999485,0.0-232.0-0.0,voc_e2,11695,"[{""event"":""fullscreenenter"",""trial"":1,""time"":3164}]",NA,NA,NA,NA,NA,3,#D8271C,#741CD8,0,10,0,38,1,240,37,1,690.9999999998836,0,0,experiment,NA,NA,1,0.3,0.7,3,2,222,5,NA
fcp-trial,258,1002076,0.0-233.0-0.0,voc_e2,11695,"[{""event"":""fullscreenenter"",""trial"":1,""time"":3164}]",NA,NA,NA,NA,NA,1,#D89F1C,#3386FF,10,0,1,38,1,616,37,1,466.0000000001164,10,1,experiment,NA,NA,0,0.9,0.1,0,1,223,5,NA
fcp-trial,259,1004476,0.0-234.0-0.0,voc_e2,11695,"[{""event"":""fullscreenenter"",""trial"":1,""time"":3164}]",NA,NA,NA,NA,NA,1,#FA92F8,#1CD855,0,0,0,38,1,359,37,1,530.0000000001164,0,0,experiment,NA,NA,2,0.5,0.5,5,4,224,5,NA
fcp-trial,260,1007184,0.0-235.0-0.0,voc_e2,11695,"[{""event"":""fullscreenenter"",""trial"":1,""time"":3164}]",NA,NA,NA,NA,NA,2,#D8271C,#741CD8,0,0,0,38,1,376,39,0,820,0,1,experiment,NA,NA,1,0.3,0.7,3,2,225,5,NA
fcp-trial,261,1009509,0.0-236.0-0.0,voc_e2,11695,"[{""event"":""fullscreenenter"",""trial"":1,""time"":3164}]",NA,NA,NA,NA,NA,3,#FA92F8,#1CD855,0,10,0,38,1,367,37,1,447,0,0,experiment,NA,NA,2,0.5,0.5,5,4,226,6,NA
fcp-trial,262,1011881,0.0-237.0-0.0,voc_e2,11695,"[{""event"":""fullscreenenter"",""trial"":1,""time"":3164}]",NA,NA,NA,NA,NA,5,#D89F1C,#3386FF,10,0,1,38,1,125,39,0,737.9999999998836,0,0,experiment,NA,NA,0,0.9,0.1,0,1,227,6,NA
fcp-trial,263,1014286,0.0-238.0-0.0,voc_e2,11695,"[{""event"":""fullscreenenter"",""trial"":1,""time"":3164}]",NA,NA,NA,NA,NA,0,#FA92F8,#1CD855,0,0,0,38,1,352,37,1,542,0,0,experiment,NA,NA,2,0.5,0.5,5,4,228,6,NA
fcp-trial,264,1016892,0.0-239.0-0.0,voc_e2,11695,"[{""event"":""fullscreenenter"",""trial"":1,""time"":3164}]",NA,NA,NA,NA,NA,6,#FA92F8,#1CD855,0,10,0,40,0,388,37,1,687,0,0,experiment,NA,NA,2,0.5,0.5,5,4,229,6,NA
fcp-trial,265,1019685,0.0-240.0-0.0,voc_e2,11695,"[{""event"":""fullscreenenter"",""trial"":1,""time"":3164}]",NA,NA,NA,NA,NA,1,#741CD8,#D8271C,10,10,1,38,1,1007,39,0,275,10,0,experiment,NA,NA,1,0.7,0.3,2,3,230,6,NA
fcp-trial,266,1023524,0.0-241.0-0.0,voc_e2,11695,"[{""event"":""fullscreenenter"",""trial"":1,""time"":3164}]",NA,NA,NA,NA,NA,4,#D89F1C,#3386FF,10,0,1,40,0,1400,39,0,928.9999999998836,0,0,experiment,NA,NA,0,0.9,0.1,0,1,231,6,NA
fcp-trial,267,1025975,0.0-242.0-0.0,voc_e2,11695,"[{""event"":""fullscreenenter"",""trial"":1,""time"":3164}]",NA,NA,NA,NA,NA,5,#3386FF,#D89F1C,0,10,0,38,1,408.9999999998836,39,0,531,10,1,experiment,NA,NA,0,0.1,0.9,1,0,232,6,NA
fcp-trial,268,1029776,0.0-243.0-0.0,voc_e2,11695,"[{""event"":""fullscreenenter"",""trial"":1,""time"":3164}]",NA,NA,NA,NA,NA,1,#3386FF,#D89F1C,0,10,0,38,1,1785,37,1,504.0000000001164,0,0,experiment,NA,NA,0,0.1,0.9,1,0,233,6,NA
fcp-trial,269,1032232,0.0-244.0-0.0,voc_e2,11695,"[{""event"":""fullscreenenter"",""trial"":1,""time"":3164}]",NA,NA,NA,NA,NA,3,#D8271C,#741CD8,0,10,0,38,1,223.99999999988358,39,0,722,10,1,experiment,NA,NA,1,0.3,0.7,3,2,234,6,NA
fcp-trial,270,1034976,0.0-245.0-0.0,voc_e2,11695,"[{""event"":""fullscreenenter"",""trial"":1,""time"":3164}]",NA,NA,NA,NA,NA,2,#3386FF,#D89F1C,0,0,0,38,1,790.9999999998836,39,0,438.9999999998836,0,1,experiment,NA,NA,0,0.1,0.9,1,0,235,6,NA
fcp-trial,271,1037550,0.0-246.0-0.0,voc_e2,11695,"[{""event"":""fullscreenenter"",""trial"":1,""time"":3164}]",NA,NA,NA,NA,NA,5,#1CD855,#FA92F8,0,10,1,38,1,432,37,1,631.0000000001164,0,1,experiment,NA,NA,2,0.5,0.5,4,5,236,6,NA
fcp-trial,272,1039798,0.0-247.0-0.0,voc_e2,11695,"[{""event"":""fullscreenenter"",""trial"":1,""time"":3164}]",NA,NA,NA,NA,NA,0,#3386FF,#D89F1C,0,10,0,38,1,224,39,0,513.0000000002328,10,1,experiment,NA,NA,0,0.1,0.9,1,0,237,6,NA
fcp-trial,273,1042210,0.0-248.0-0.0,voc_e2,11695,"[{""event"":""fullscreenenter"",""trial"":1,""time"":3164}]",NA,NA,NA,NA,NA,0,#D8271C,#741CD8,0,10,0,38,1,389.9999999998836,39,0,509,10,1,experiment,NA,NA,1,0.3,0.7,3,2,238,6,NA
fcp-trial,274,1044525,0.0-249.0-0.0,voc_e2,11695,"[{""event"":""fullscreenenter"",""trial"":1,""time"":3164}]",NA,NA,NA,NA,NA,4,#D8271C,#741CD8,10,0,0,38,1,539.9999999998836,37,1,265.0000000001164,10,0,experiment,NA,NA,1,0.3,0.7,3,2,239,6,NA
fcp-trial,275,1047550,0.0-250.0-0.0,voc_e2,11695,"[{""event"":""fullscreenenter"",""trial"":1,""time"":3164}]",NA,NA,NA,NA,NA,6,#D89F1C,#3386FF,10,0,1,40,0,800,37,1,712,10,1,experiment,NA,NA,0,0.9,0.1,0,1,240,6,NA
fcp-trial,276,1050649,0.0-251.0-0.0,voc_e2,11695,"[{""event"":""fullscreenenter"",""trial"":1,""time"":3164}]",NA,NA,NA,NA,NA,0,#1CD855,#FA92F8,0,10,1,38,1,1266,39,0,321,10,0,experiment,NA,NA,2,0.5,0.5,4,5,241,6,NA
fcp-trial,277,1053415,0.0-252.0-0.0,voc_e2,11695,"[{""event"":""fullscreenenter"",""trial"":1,""time"":3164}]",NA,NA,NA,NA,NA,6,#FA92F8,#1CD855,10,10,0,38,1,501,39,0,753.9999999997672,10,1,experiment,NA,NA,2,0.5,0.5,5,4,242,6,NA
fcp-trial,278,1056598,0.0-253.0-0.0,voc_e2,11695,"[{""event"":""fullscreenenter"",""trial"":1,""time"":3164}]",NA,NA,NA,NA,NA,5,#741CD8,#D8271C,10,0,1,38,1,851.0000000002328,39,0,821,0,0,experiment,NA,NA,1,0.7,0.3,2,3,243,6,NA
fcp-trial,279,1059027,0.0-254.0-0.0,voc_e2,11695,"[{""event"":""fullscreenenter"",""trial"":1,""time"":3164}]",NA,NA,NA,NA,NA,4,#D89F1C,#3386FF,10,0,1,38,1,258,37,1,660,10,1,experiment,NA,NA,0,0.9,0.1,0,1,244,6,NA
fcp-trial,280,1061694,0.0-255.0-0.0,voc_e2,11695,"[{""event"":""fullscreenenter"",""trial"":1,""time"":3164}]",NA,NA,NA,NA,NA,1,#D8271C,#741CD8,0,10,0,38,1,705,37,1,451,0,0,experiment,NA,NA,1,0.3,0.7,3,2,245,6,NA
fcp-trial,281,1064484,0.0-256.0-0.0,voc_e2,11695,"[{""event"":""fullscreenenter"",""trial"":1,""time"":3164}]",NA,NA,NA,NA,NA,1,#FA92F8,#1CD855,0,0,0,38,1,375,39,0,901,0,1,experiment,NA,NA,2,0.5,0.5,5,4,246,6,NA
fcp-trial,282,1066876,0.0-257.0-0.0,voc_e2,11695,"[{""event"":""fullscreenenter"",""trial"":1,""time"":3164}]",NA,NA,NA,NA,NA,2,#741CD8,#D8271C,10,10,1,38,1,398.00000000023283,37,1,465,10,1,experiment,NA,NA,1,0.7,0.3,2,3,247,6,NA
fcp-trial,283,1069342,0.0-258.0-0.0,voc_e2,11695,"[{""event"":""fullscreenenter"",""trial"":1,""time"":3164}]",NA,NA,NA,NA,NA,3,#D89F1C,#3386FF,10,0,1,38,1,424,37,1,532,10,1,experiment,NA,NA,0,0.9,0.1,0,1,248,6,NA
fcp-trial,284,1072175,0.0-259.0-0.0,voc_e2,11695,"[{""event"":""fullscreenenter"",""trial"":1,""time"":3164}]",NA,NA,NA,NA,NA,6,#D8271C,#741CD8,10,10,0,38,1,539.9999999997672,39,0,782,10,1,experiment,NA,NA,1,0.3,0.7,3,2,249,6,NA
fcp-trial,285,1074853,0.0-260.0-0.0,voc_e2,11695,"[{""event"":""fullscreenenter"",""trial"":1,""time"":3164}]",NA,NA,NA,NA,NA,2,#1CD855,#FA92F8,0,10,1,38,1,313,39,0,853.0000000002328,10,0,experiment,NA,NA,2,0.5,0.5,4,5,250,6,NA
fcp-trial,286,1077509,0.0-261.0-0.0,voc_e2,11695,"[{""event"":""fullscreenenter"",""trial"":1,""time"":3164}]",NA,NA,NA,NA,NA,3,#1CD855,#FA92F8,0,0,1,38,1,488.99999999976717,37,1,656,0,1,experiment,NA,NA,2,0.5,0.5,4,5,251,6,NA
fcp-trial,287,1079815,0.0-262.0-0.0,voc_e2,11695,"[{""event"":""fullscreenenter"",""trial"":1,""time"":3164}]",NA,NA,NA,NA,NA,4,#FA92F8,#1CD855,10,10,0,38,1,398,37,1,397.0000000002328,10,0,experiment,NA,NA,2,0.5,0.5,5,4,252,6,NA
fcp-trial,288,1082386,0.0-263.0-0.0,voc_e2,11695,"[{""event"":""fullscreenenter"",""trial"":1,""time"":3164}]",NA,NA,NA,NA,NA,5,#3386FF,#D89F1C,0,10,0,38,1,354,39,0,706.9999999997672,10,1,experiment,NA,NA,0,0.1,0.9,1,0,253,6,NA
fcp-trial,289,1085059,0.0-264.0-0.0,voc_e2,11695,"[{""event"":""fullscreenenter"",""trial"":1,""time"":3164}]",NA,NA,NA,NA,NA,1,#1CD855,#FA92F8,0,0,1,38,1,705,37,1,450,0,1,experiment,NA,NA,2,0.5,0.5,4,5,254,6,NA
fcp-trial,290,1088841,0.0-265.0-0.0,voc_e2,11695,"[{""event"":""fullscreenenter"",""trial"":1,""time"":3164}]",NA,NA,NA,NA,NA,5,#741CD8,#D8271C,10,10,1,40,0,1124,39,0,1149,10,0,experiment,NA,NA,1,0.7,0.3,2,3,255,6,NA
fcp-trial,291,1091525,0.0-266.0-0.0,voc_e2,11695,"[{""event"":""fullscreenenter"",""trial"":1,""time"":3164}]",NA,NA,NA,NA,NA,6,#741CD8,#D8271C,10,10,1,38,1,358.00000000023283,39,0,816.0000000002328,10,0,experiment,NA,NA,1,0.7,0.3,2,3,256,6,NA
fcp-trial,292,1094884,0.0-267.0-0.0,voc_e2,11695,"[{""event"":""fullscreenenter"",""trial"":1,""time"":3164}]",NA,NA,NA,NA,NA,3,#D8271C,#741CD8,10,10,0,38,1,791.9999999997672,39,0,1055,10,1,experiment,NA,NA,1,0.3,0.7,3,2,257,6,NA
fcp-trial,293,1097467,0.0-268.0-0.0,voc_e2,11695,"[{""event"":""fullscreenenter"",""trial"":1,""time"":3164}]",NA,NA,NA,NA,NA,3,#3386FF,#D89F1C,0,10,0,38,1,600,39,0,472,10,1,experiment,NA,NA,0,0.1,0.9,1,0,258,6,NA
fcp-trial,294,1099903,0.0-269.0-0.0,voc_e2,11695,"[{""event"":""fullscreenenter"",""trial"":1,""time"":3164}]",NA,NA,NA,NA,NA,2,#FA92F8,#1CD855,10,10,0,38,1,513,37,1,410,10,0,experiment,NA,NA,2,0.5,0.5,5,4,259,6,NA
fcp-trial,295,1102342,0.0-270.0-0.0,voc_e2,11695,"[{""event"":""fullscreenenter"",""trial"":1,""time"":3164}]",NA,NA,NA,NA,NA,4,#D8271C,#741CD8,0,10,0,38,1,446,39,0,483,10,1,experiment,NA,NA,1,0.3,0.7,3,2,260,6,NA
fcp-trial,296,1105242,0.0-271.0-0.0,voc_e2,11695,"[{""event"":""fullscreenenter"",""trial"":1,""time"":3164}]",NA,NA,NA,NA,NA,5,#1CD855,#FA92F8,10,10,1,38,1,1041,39,0,349,10,0,experiment,NA,NA,2,0.5,0.5,4,5,261,6,NA
fcp-trial,297,1107808,0.0-272.0-0.0,voc_e2,11695,"[{""event"":""fullscreenenter"",""trial"":1,""time"":3164}]",NA,NA,NA,NA,NA,0,#1CD855,#FA92F8,0,10,1,38,1,465,37,1,591,0,1,experiment,NA,NA,2,0.5,0.5,4,5,262,6,NA
fcp-trial,298,1110626,0.0-273.0-0.0,voc_e2,11695,"[{""event"":""fullscreenenter"",""trial"":1,""time"":3164}]",NA,NA,NA,NA,NA,0,#3386FF,#D89F1C,0,10,0,38,1,675,39,0,633,10,1,experiment,NA,NA,0,0.1,0.9,1,0,263,6,NA
fcp-trial,299,1112996,0.0-274.0-0.0,voc_e2,11695,"[{""event"":""fullscreenenter"",""trial"":1,""time"":3164}]",NA,NA,NA,NA,NA,4,#D89F1C,#3386FF,10,0,1,38,1,16,37,1,837,10,1,experiment,NA,NA,0,0.9,0.1,0,1,264,6,NA
fcp-trial,300,1116462,0.0-275.0-0.0,voc_e2,11695,"[{""event"":""fullscreenenter"",""trial"":1,""time"":3164}]",NA,NA,NA,NA,NA,0,#D8271C,#741CD8,10,10,0,38,1,470,39,0,1485,10,1,experiment,NA,NA,1,0.3,0.7,3,2,265,6,NA
fcp-trial,301,1118859,0.0-276.0-0.0,voc_e2,11695,"[{""event"":""fullscreenenter"",""trial"":1,""time"":3164}]",NA,NA,NA,NA,NA,6,#D89F1C,#3386FF,10,0,1,38,1,486.00000000023283,39,0,400,0,0,experiment,NA,NA,0,0.9,0.1,0,1,266,6,NA
fcp-trial,302,1121091,0.0-277.0-0.0,voc_e2,11695,"[{""event"":""fullscreenenter"",""trial"":1,""time"":3164}]",NA,NA,NA,NA,NA,6,#FA92F8,#1CD855,10,0,0,38,1,166.00000000023283,37,1,555,10,0,experiment,NA,NA,2,0.5,0.5,5,4,267,6,NA
fcp-trial,303,1123544,0.0-278.0-0.0,voc_e2,11695,"[{""event"":""fullscreenenter"",""trial"":1,""time"":3164}]",NA,NA,NA,NA,NA,4,#1CD855,#FA92F8,10,10,1,38,1,497,39,0,444,10,0,experiment,NA,NA,2,0.5,0.5,4,5,268,6,NA
fcp-trial,304,1126075,0.0-279.0-0.0,voc_e2,11695,"[{""event"":""fullscreenenter"",""trial"":1,""time"":3164}]",NA,NA,NA,NA,NA,2,#D8271C,#741CD8,0,10,0,38,1,608,37,1,411,0,0,experiment,NA,NA,1,0.3,0.7,3,2,269,6,NA
fcp-trial,305,1129426,0.0-280.0-0.0,voc_e2,11695,"[{""event"":""fullscreenenter"",""trial"":1,""time"":3164}]",NA,NA,NA,NA,NA,2,#3386FF,#D89F1C,0,10,0,38,1,1131,39,0,710,10,1,experiment,NA,NA,0,0.1,0.9,1,0,270,6,NA
fcp-trial,306,1131762,0.0-281.0-0.0,voc_e2,11695,"[{""event"":""fullscreenenter"",""trial"":1,""time"":3164}]",NA,NA,NA,NA,NA,1,#D8271C,#741CD8,0,10,0,38,1,558,37,1,267,0,0,experiment,NA,NA,1,0.3,0.7,3,2,271,7,NA
fcp-trial,307,1134252,0.0-282.0-0.0,voc_e2,11695,"[{""event"":""fullscreenenter"",""trial"":1,""time"":3164}]",NA,NA,NA,NA,NA,1,#3386FF,#D89F1C,0,10,0,38,1,401,39,0,578,10,1,experiment,NA,NA,0,0.1,0.9,1,0,272,7,NA
fcp-trial,308,1136500,0.0-283.0-0.0,voc_e2,11695,"[{""event"":""fullscreenenter"",""trial"":1,""time"":3164}]",NA,NA,NA,NA,NA,3,#1CD855,#FA92F8,0,0,1,38,1,140,37,1,596,0,1,experiment,NA,NA,2,0.5,0.5,4,5,273,7,NA
fcp-trial,309,1139025,0.0-284.0-0.0,voc_e2,11695,"[{""event"":""fullscreenenter"",""trial"":1,""time"":3164}]",NA,NA,NA,NA,NA,3,#741CD8,#D8271C,10,0,1,38,1,465,39,0,549.0000000002328,0,0,experiment,NA,NA,1,0.7,0.3,2,3,274,7,NA
fcp-trial,310,1141476,0.0-285.0-0.0,voc_e2,11695,"[{""event"":""fullscreenenter"",""trial"":1,""time"":3164}]",NA,NA,NA,NA,NA,6,#D89F1C,#3386FF,0,0,1,38,1,358,37,1,583,0,1,experiment,NA,NA,0,0.9,0.1,0,1,275,7,NA
fcp-trial,311,1145033,0.0-286.0-0.0,voc_e2,11695,"[{""event"":""fullscreenenter"",""trial"":1,""time"":3164}]",NA,NA,NA,NA,NA,4,#FA92F8,#1CD855,0,10,0,40,0,1338,37,1,708,0,0,experiment,NA,NA,2,0.5,0.5,5,4,276,7,NA
fcp-trial,312,1148178,0.0-287.0-0.0,voc_e2,11695,"[{""event"":""fullscreenenter"",""trial"":1,""time"":3164}]",NA,NA,NA,NA,NA,6,#D8271C,#741CD8,0,10,0,40,0,1064,39,0,570,10,1,experiment,NA,NA,1,0.3,0.7,3,2,277,7,NA
fcp-trial,313,1151360,0.0-288.0-0.0,voc_e2,11695,"[{""event"":""fullscreenenter"",""trial"":1,""time"":3164}]",NA,NA,NA,NA,NA,4,#741CD8,#D8271C,10,0,1,38,1,1039,37,1,632.9999999997672,10,1,experiment,NA,NA,1,0.7,0.3,2,3,278,7,NA
fcp-trial,314,1154591,0.0-289.0-0.0,voc_e2,11695,"[{""event"":""fullscreenenter"",""trial"":1,""time"":3164}]",NA,NA,NA,NA,NA,3,#FA92F8,#1CD855,0,10,0,40,0,824,37,1,895,0,0,experiment,NA,NA,2,0.5,0.5,5,4,279,7,NA
fcp-trial,315,1157195,0.0-290.0-0.0,voc_e2,11695,"[{""event"":""fullscreenenter"",""trial"":1,""time"":3164}]",NA,NA,NA,NA,NA,0,#3386FF,#D89F1C,10,10,0,38,1,192,39,0,902,10,1,experiment,NA,NA,0,0.1,0.9,1,0,280,7,NA
fcp-trial,316,1159908,0.0-291.0-0.0,voc_e2,11695,"[{""event"":""fullscreenenter"",""trial"":1,""time"":3164}]",NA,NA,NA,NA,NA,2,#1CD855,#FA92F8,10,10,1,38,1,787,39,0,416,10,0,experiment,NA,NA,2,0.5,0.5,4,5,281,7,NA
fcp-trial,317,1163242,0.0-292.0-0.0,voc_e2,11695,"[{""event"":""fullscreenenter"",""trial"":1,""time"":3164}]",NA,NA,NA,NA,NA,1,#FA92F8,#1CD855,10,0,0,38,1,825,39,0,999,0,1,experiment,NA,NA,2,0.5,0.5,5,4,282,7,NA
fcp-trial,318,1166368,0.0-293.0-0.0,voc_e2,11695,"[{""event"":""fullscreenenter"",""trial"":1,""time"":3164}]",NA,NA,NA,NA,NA,5,#D8271C,#741CD8,0,10,0,40,0,917,37,1,699,0,0,experiment,NA,NA,1,0.3,0.7,3,2,283,7,NA
fcp-trial,319,1169452,0.0-294.0-0.0,voc_e2,11695,"[{""event"":""fullscreenenter"",""trial"":1,""time"":3164}]",NA,NA,NA,NA,NA,3,#D89F1C,#3386FF,10,10,1,38,1,1081,39,0,492,10,0,experiment,NA,NA,0,0.9,0.1,0,1,284,7,NA
fcp-trial,320,1172580,0.0-295.0-0.0,voc_e2,11695,"[{""event"":""fullscreenenter"",""trial"":1,""time"":3164}]",NA,NA,NA,NA,NA,1,#741CD8,#D8271C,10,10,1,38,1,1238,37,1,379,10,1,experiment,NA,NA,1,0.7,0.3,2,3,285,7,NA
fcp-trial,321,1175100,0.0-296.0-0.0,voc_e2,11695,"[{""event"":""fullscreenenter"",""trial"":1,""time"":3164}]",NA,NA,NA,NA,NA,5,#3386FF,#D89F1C,10,10,0,38,1,543,39,0,465,10,1,experiment,NA,NA,0,0.1,0.9,1,0,286,7,NA
fcp-trial,322,1177517,0.0-297.0-0.0,voc_e2,11695,"[{""event"":""fullscreenenter"",""trial"":1,""time"":3164}]",NA,NA,NA,NA,NA,5,#FA92F8,#1CD855,0,0,0,38,1,525,37,1,382,0,0,experiment,NA,NA,2,0.5,0.5,5,4,287,7,NA
fcp-trial,323,1183040,0.0-298.0-0.0,voc_e2,11695,"[{""event"":""fullscreenenter"",""trial"":1,""time"":3164}]",NA,NA,NA,NA,NA,2,#741CD8,#D8271C,10,0,1,40,0,1120,37,1,2893,10,1,experiment,NA,NA,1,0.7,0.3,2,3,288,7,NA
fcp-trial,324,1186640,0.0-299.0-0.0,voc_e2,11695,"[{""event"":""fullscreenenter"",""trial"":1,""time"":3164}]",NA,NA,NA,NA,NA,6,#1CD855,#FA92F8,0,10,1,40,0,1349,37,1,741,0,1,experiment,NA,NA,2,0.5,0.5,4,5,289,7,NA
fcp-trial,325,1189466,0.0-300.0-0.0,voc_e2,11695,"[{""event"":""fullscreenenter"",""trial"":1,""time"":3164}]",NA,NA,NA,NA,NA,1,#3386FF,#D89F1C,0,10,0,38,1,716.9999999997672,39,0,596,10,1,experiment,NA,NA,0,0.1,0.9,1,0,290,7,NA
fcp-trial,326,1191960,0.0-301.0-0.0,voc_e2,11695,"[{""event"":""fullscreenenter"",""trial"":1,""time"":3164}]",NA,NA,NA,NA,NA,0,#FA92F8,#1CD855,0,10,0,38,1,517,37,1,468,0,0,experiment,NA,NA,2,0.5,0.5,5,4,291,7,NA
fcp-trial,327,1195094,0.0-302.0-0.0,voc_e2,11695,"[{""event"":""fullscreenenter"",""trial"":1,""time"":3164}]",NA,NA,NA,NA,NA,0,#D8271C,#741CD8,10,10,0,38,1,722,39,0,902,10,1,experiment,NA,NA,1,0.3,0.7,3,2,292,7,NA
fcp-trial,328,1199875,0.0-303.0-0.0,voc_e2,11695,"[{""event"":""fullscreenenter"",""trial"":1,""time"":3164}]",NA,NA,NA,NA,NA,2,#3386FF,#D89F1C,0,10,0,38,1,2404,39,0,865,10,1,experiment,NA,NA,0,0.1,0.9,1,0,293,7,NA
fcp-trial,329,1202399,0.0-304.0-0.0,voc_e2,11695,"[{""event"":""fullscreenenter"",""trial"":1,""time"":3164}]",NA,NA,NA,NA,NA,4,#D89F1C,#3386FF,10,0,1,38,1,492,37,1,521,10,1,experiment,NA,NA,0,0.9,0.1,0,1,294,7,NA
fcp-trial,330,1205243,0.0-305.0-0.0,voc_e2,11695,"[{""event"":""fullscreenenter"",""trial"":1,""time"":3164}]",NA,NA,NA,NA,NA,0,#D8271C,#741CD8,0,10,0,38,1,839,39,0,501,10,1,experiment,NA,NA,1,0.3,0.7,3,2,295,7,NA
fcp-trial,331,1208008,0.0-306.0-0.0,voc_e2,11695,"[{""event"":""fullscreenenter"",""trial"":1,""time"":3164}]",NA,NA,NA,NA,NA,1,#D8271C,#741CD8,0,0,0,38,1,989,39,0,265,0,1,experiment,NA,NA,1,0.3,0.7,3,2,296,7,NA
fcp-trial,332,1210741,0.0-307.0-0.0,voc_e2,11695,"[{""event"":""fullscreenenter"",""trial"":1,""time"":3164}]",NA,NA,NA,NA,NA,5,#D8271C,#741CD8,0,10,0,38,1,724,39,0,499,10,1,experiment,NA,NA,1,0.3,0.7,3,2,297,7,NA
fcp-trial,333,1213351,0.0-308.0-0.0,voc_e2,11695,"[{""event"":""fullscreenenter"",""trial"":1,""time"":3164}]",NA,NA,NA,NA,NA,4,#D89F1C,#3386FF,10,10,1,38,1,598,37,1,500,10,1,experiment,NA,NA,0,0.9,0.1,0,1,298,7,NA
fcp-trial,334,1215758,0.0-309.0-0.0,voc_e2,11695,"[{""event"":""fullscreenenter"",""trial"":1,""time"":3164}]",NA,NA,NA,NA,NA,1,#D89F1C,#3386FF,0,0,1,38,1,506,37,1,389,0,1,experiment,NA,NA,0,0.9,0.1,0,1,299,7,NA
fcp-trial,335,1219026,0.0-310.0-0.0,voc_e2,11695,"[{""event"":""fullscreenenter"",""trial"":1,""time"":3164}]",NA,NA,NA,NA,NA,2,#1CD855,#FA92F8,0,0,1,38,1,733,39,0,1025,0,0,experiment,NA,NA,2,0.5,0.5,4,5,300,7,NA
fcp-trial,336,1221864,0.0-311.0-0.0,voc_e2,11695,"[{""event"":""fullscreenenter"",""trial"":1,""time"":3164}]",NA,NA,NA,NA,NA,3,#D8271C,#741CD8,0,0,0,38,1,831.9999999997672,37,1,495,0,0,experiment,NA,NA,1,0.3,0.7,3,2,301,7,NA
fcp-trial,337,1224425,0.0-312.0-0.0,voc_e2,11695,"[{""event"":""fullscreenenter"",""trial"":1,""time"":3164}]",NA,NA,NA,NA,NA,4,#D8271C,#741CD8,10,0,0,38,1,518.0000000002328,37,1,533,10,0,experiment,NA,NA,1,0.3,0.7,3,2,302,7,NA
fcp-trial,338,1227083,0.0-313.0-0.0,voc_e2,11695,"[{""event"":""fullscreenenter"",""trial"":1,""time"":3164}]",NA,NA,NA,NA,NA,5,#FA92F8,#1CD855,0,0,0,38,1,513,37,1,633.0000000002328,0,0,experiment,NA,NA,2,0.5,0.5,5,4,303,7,NA
fcp-trial,339,1232300,0.0-314.0-0.0,voc_e2,11695,"[{""event"":""fullscreenenter"",""trial"":1,""time"":3164}]",NA,NA,NA,NA,NA,5,#3386FF,#D89F1C,0,10,0,38,1,655.9999999997672,37,1,3050,0,0,experiment,NA,NA,0,0.1,0.9,1,0,304,7,NA
fcp-trial,340,1235157,0.0-315.0-0.0,voc_e2,11695,"[{""event"":""fullscreenenter"",""trial"":1,""time"":3164}]",NA,NA,NA,NA,NA,3,#1CD855,#FA92F8,0,0,1,40,0,666,37,1,683,0,1,experiment,NA,NA,2,0.5,0.5,4,5,305,7,NA
fcp-trial,341,1238650,0.0-316.0-0.0,voc_e2,11695,"[{""event"":""fullscreenenter"",""trial"":1,""time"":3164}]",NA,NA,NA,NA,NA,0,#FA92F8,#1CD855,10,0,0,38,1,1601,39,0,384,0,1,experiment,NA,NA,2,0.5,0.5,5,4,306,7,NA
fcp-trial,342,1241198,0.0-317.0-0.0,voc_e2,11695,"[{""event"":""fullscreenenter"",""trial"":1,""time"":3164}]",NA,NA,NA,NA,NA,2,#D8271C,#741CD8,0,10,0,38,1,524.9999999997672,37,1,511.0000000002328,0,0,experiment,NA,NA,1,0.3,0.7,3,2,307,7,NA
fcp-trial,343,1243792,0.0-318.0-0.0,voc_e2,11695,"[{""event"":""fullscreenenter"",""trial"":1,""time"":3164}]",NA,NA,NA,NA,NA,2,#D89F1C,#3386FF,10,0,1,38,1,522,39,0,560,0,0,experiment,NA,NA,0,0.9,0.1,0,1,308,7,NA
fcp-trial,344,1246157,0.0-319.0-0.0,voc_e2,11695,"[{""event"":""fullscreenenter"",""trial"":1,""time"":3164}]",NA,NA,NA,NA,NA,3,#D89F1C,#3386FF,10,0,1,38,1,456,37,1,399,10,1,experiment,NA,NA,0,0.9,0.1,0,1,309,7,NA
fcp-trial,345,1248823,0.0-320.0-0.0,voc_e2,11695,"[{""event"":""fullscreenenter"",""trial"":1,""time"":3164}]",NA,NA,NA,NA,NA,4,#1CD855,#FA92F8,0,10,1,38,1,642,39,0,515,10,0,experiment,NA,NA,2,0.5,0.5,4,5,310,7,NA
fcp-trial,346,1251648,0.0-321.0-0.0,voc_e2,11695,"[{""event"":""fullscreenenter"",""trial"":1,""time"":3164}]",NA,NA,NA,NA,NA,6,#D8271C,#741CD8,10,10,0,38,1,724,39,0,587,10,1,experiment,NA,NA,1,0.3,0.7,3,2,311,7,NA
fcp-trial,347,1254847,0.0-322.0-0.0,voc_e2,11695,"[{""event"":""fullscreenenter"",""trial"":1,""time"":3164}]",NA,NA,NA,NA,NA,1,#1CD855,#FA92F8,0,0,1,38,1,1001,39,0,686.9999999997672,0,0,experiment,NA,NA,2,0.5,0.5,4,5,312,7,NA
fcp-trial,348,1257407,0.0-323.0-0.0,voc_e2,11695,"[{""event"":""fullscreenenter"",""trial"":1,""time"":3164}]",NA,NA,NA,NA,NA,6,#D89F1C,#3386FF,10,10,1,38,1,495.00000000023283,37,1,554,10,1,experiment,NA,NA,0,0.9,0.1,0,1,313,7,NA
fcp-trial,349,1260459,0.0-324.0-0.0,voc_e2,11695,"[{""event"":""fullscreenenter"",""trial"":1,""time"":3164}]",NA,NA,NA,NA,NA,6,#FA92F8,#1CD855,10,0,0,38,1,702,39,0,839,0,1,experiment,NA,NA,2,0.5,0.5,5,4,314,7,NA
fcp-trial,350,1262892,0.0-325.0-0.0,voc_e2,11695,"[{""event"":""fullscreenenter"",""trial"":1,""time"":3164}]",NA,NA,NA,NA,NA,0,#3386FF,#D89F1C,0,10,0,38,1,496,39,0,425,10,1,experiment,NA,NA,0,0.1,0.9,1,0,315,7,NA
audio-instructions,351,1269863,0.0-326.0,voc_e2,11695,"[{""event"":""fullscreenenter"",""trial"":1,""time"":3164}]",NA,1334,static/audio/finished.wav,NA,0,NA,NA,NA,NA,NA,NA,NA,NA,NA,NA,NA,NA,NA,NA,NA,NA,NA,NA,NA,NA,NA,NA,NA,NA,NA
audio-instructions,352,1282829,0.0-327.0-0.0,voc_e2,11695,"[{""event"":""fullscreenenter"",""trial"":1,""time"":3164}]",NA,2126,static/audio/explicit1.wav,NA,0,NA,NA,NA,NA,NA,NA,NA,NA,NA,NA,NA,NA,NA,NA,NA,NA,NA,NA,NA,NA,NA,NA,NA,NA,NA
audio-instructions,353,1290897,0.0-327.0-1.0,voc_e2,11695,"[{""event"":""fullscreenenter"",""trial"":1,""time"":3164}]",NA,472,static/audio/explicit2.wav,NA,0,NA,NA,NA,NA,NA,NA,NA,NA,NA,NA,NA,NA,NA,NA,NA,NA,NA,NA,NA,NA,NA,NA,NA,NA,NA
image-slider-response,354,1311772,0.0-328.0,voc_e2,11695,"[{""event"":""fullscreenenter"",""trial"":1,""time"":3164}]",NA,20872,static/img/machines/machine4.png,NA,NA,NA,NA,NA,NA,NA,NA,NA,NA,NA,NA,NA,NA,NA,NA,explicit,NA,NA,NA,NA,NA,NA,NA,NA,NA,6
image-slider-response,355,1318810,0.0-329.0,voc_e2,11695,"[{""event"":""fullscreenenter"",""trial"":1,""time"":3164}]",NA,7034,static/img/machines/machine2.png,NA,NA,NA,NA,NA,NA,NA,NA,NA,NA,NA,NA,NA,NA,NA,NA,explicit,NA,NA,NA,NA,NA,NA,NA,NA,NA,3
image-slider-response,356,1322390,0.0-330.0,voc_e2,11695,"[{""event"":""fullscreenenter"",""trial"":1,""time"":3164}]",NA,3577,static/img/machines/machine1.png,NA,NA,NA,NA,NA,NA,NA,NA,NA,NA,NA,NA,NA,NA,NA,NA,explicit,NA,NA,NA,NA,NA,NA,NA,NA,NA,4
image-slider-response,357,1324659,0.0-331.0,voc_e2,11695,"[{""event"":""fullscreenenter"",""trial"":1,""time"":3164}]",NA,2266.000000000233,static/img/machines/machine5.png,NA,NA,NA,NA,NA,NA,NA,NA,NA,NA,NA,NA,NA,NA,NA,NA,explicit,NA,NA,NA,NA,NA,NA,NA,NA,NA,5
image-slider-response,358,1331104,0.0-332.0,voc_e2,11695,"[{""event"":""fullscreenenter"",""trial"":1,""time"":3164}]",NA,6442,static/img/machines/machine6.png,NA,NA,NA,NA,NA,NA,NA,NA,NA,NA,NA,NA,NA,NA,NA,NA,explicit,NA,NA,NA,NA,NA,NA,NA,NA,NA,5
image-slider-response,359,1336864,0.0-333.0,voc_e2,11695,"[{""event"":""fullscreenenter"",""trial"":1,""time"":3164}]",NA,5758,static/img/machines/machine3.png,NA,NA,NA,NA,NA,NA,NA,NA,NA,NA,NA,NA,NA,NA,NA,NA,explicit,NA,NA,NA,NA,NA,NA,NA,NA,NA,6
