trial_type,trial_index,time_elapsed,internal_node_id,task_version,subject_id,interactions,success,rt,stimulus,key_press,button_pressed,offer,arcade_color_L,arcade_color_R,arcade_outcome_L,arcade_outcome_R,correct,stage_1_key,stage_1_choice,stage_1_rt,stage_2_key,stage_2_choice,stage_2_rt,stage_3_outcome,accuracy,phase,responses,num_errors,context,reward_prob_L,reward_prob_R,arcade_id_L,arcade_id_R,trial,block,response
pavlovia,0,7,0.0-0.0,voc_e2,11813,[],NA,NA,NA,NA,NA,NA,NA,NA,NA,NA,NA,NA,NA,NA,NA,NA,NA,NA,NA,NA,NA,NA,NA,NA,NA,NA,NA,NA,NA,NA
fullscreen,1,3588,0.0-1.0,voc_e2,11813,"[{""event"":""fullscreenenter"",""trial"":1,""time"":2597}]",TRUE,NA,NA,NA,NA,NA,NA,NA,NA,NA,NA,NA,NA,NA,NA,NA,NA,NA,NA,NA,NA,NA,NA,NA,NA,NA,NA,NA,NA,NA
audio-keyboard-response,2,7851,0.0-2.0,voc_e2,11813,"[{""event"":""fullscreenenter"",""trial"":1,""time"":2597}]",NA,3909,static/audio/beep_loop.wav,32,NA,NA,NA,NA,NA,NA,NA,NA,NA,NA,NA,NA,NA,NA,NA,NA,NA,NA,NA,NA,NA,NA,NA,NA,NA,NA
audio-test,3,10393,0.0-3.0,voc_e2,11813,"[{""event"":""fullscreenenter"",""trial"":1,""time"":2597}]",NA,NA,static/audio/turtle.wav,NA,3,NA,NA,NA,NA,NA,NA,NA,NA,NA,NA,NA,NA,NA,NA,NA,NA,NA,NA,NA,NA,NA,NA,NA,NA,NA
audio-test,4,12422,0.0-4.0,voc_e2,11813,"[{""event"":""fullscreenenter"",""trial"":1,""time"":2597}]",NA,NA,static/audio/shark.wav,NA,2,NA,NA,NA,NA,NA,NA,NA,NA,NA,NA,NA,NA,NA,NA,NA,NA,NA,NA,NA,NA,NA,NA,NA,NA,NA
audio-instructions,5,19890,0.0-5.0-0.0,voc_e2,11813,"[{""event"":""fullscreenenter"",""trial"":1,""time"":2597}]",NA,1689.100000023842,static/audio/instructions1.wav,NA,0,NA,NA,NA,NA,NA,NA,NA,NA,NA,NA,NA,NA,NA,NA,NA,NA,NA,NA,NA,NA,NA,NA,NA,NA,NA
audio-instructions,6,29416,0.0-5.0-1.0,voc_e2,11813,"[{""event"":""fullscreenenter"",""trial"":1,""time"":2597}]",NA,2785.5,static/audio/instructions2.wav,NA,0,NA,NA,NA,NA,NA,NA,NA,NA,NA,NA,NA,NA,NA,NA,NA,NA,NA,NA,NA,NA,NA,NA,NA,NA,NA
audio-instructions,7,36835,0.0-5.0-2.0,voc_e2,11813,"[{""event"":""fullscreenenter"",""trial"":1,""time"":2597}]",NA,1614.100000023842,static/audio/instructions3.wav,NA,0,NA,NA,NA,NA,NA,NA,NA,NA,NA,NA,NA,NA,NA,NA,NA,NA,NA,NA,NA,NA,NA,NA,NA,NA,NA
audio-instructions,8,50343,0.0-5.0-3.0,voc_e2,11813,"[{""event"":""fullscreenenter"",""trial"":1,""time"":2597}]",NA,282.2999999523163,static/audio/instructions4.wav,NA,0,NA,NA,NA,NA,NA,NA,NA,NA,NA,NA,NA,NA,NA,NA,NA,NA,NA,NA,NA,NA,NA,NA,NA,NA,NA
audio-instructions,9,63765,0.0-5.0-4.0,voc_e2,11813,"[{""event"":""fullscreenenter"",""trial"":1,""time"":2597}]",NA,4034.299999952316,static/audio/instructions5.wav,NA,0,NA,NA,NA,NA,NA,NA,NA,NA,NA,NA,NA,NA,NA,NA,NA,NA,NA,NA,NA,NA,NA,NA,NA,NA,NA
fcp-practice,10,67283,0.0-5.0-5.0-0.0,voc_e2,11813,"[{""event"":""fullscreenenter"",""trial"":1,""time"":2597}]",NA,NA,NA,NA,NA,NA,#EDC948,#46d3c8,10,0,1,null,null,null,37,1,2008.2000000476835,10,1,practice,NA,NA,NA,NA,NA,NA,NA,NA,NA,NA
fcp-practice,11,70827,0.0-5.0-5.0-1.0,voc_e2,11813,"[{""event"":""fullscreenenter"",""trial"":1,""time"":2597}]",NA,NA,NA,NA,NA,NA,#EDC948,#46d3c8,10,0,1,null,null,null,37,1,2037.1999999284744,10,1,practice,NA,NA,NA,NA,NA,NA,NA,NA,NA,NA
fcp-practice,12,72981,0.0-5.0-5.0-2.0,voc_e2,11813,"[{""event"":""fullscreenenter"",""trial"":1,""time"":2597}]",NA,NA,NA,NA,NA,NA,#EDC948,#46d3c8,0,10,1,null,null,null,37,1,650.2000000476837,0,1,practice,NA,NA,NA,NA,NA,NA,NA,NA,NA,NA
fcp-practice,13,74495,0.0-5.0-5.0-3.0,voc_e2,11813,"[{""event"":""fullscreenenter"",""trial"":1,""time"":2597}]",NA,NA,NA,NA,NA,NA,#EDC948,#46d3c8,10,0,1,null,null,null,37,1,10.100000023841858,10,1,practice,NA,NA,NA,NA,NA,NA,NA,NA,NA,NA
fcp-practice,14,76059,0.0-5.0-5.0-4.0,voc_e2,11813,"[{""event"":""fullscreenenter"",""trial"":1,""time"":2597}]",NA,NA,NA,NA,NA,NA,#EDC948,#46d3c8,10,0,1,null,null,null,37,1,58.20000004768371,10,1,practice,NA,NA,NA,NA,NA,NA,NA,NA,NA,NA
audio-instructions,15,97230,0.0-5.0-6.0,voc_e2,11813,"[{""event"":""fullscreenenter"",""trial"":1,""time"":2597}]",NA,3158.600000023842,static/audio/instructions6.wav,NA,0,NA,NA,NA,NA,NA,NA,NA,NA,NA,NA,NA,NA,NA,NA,NA,NA,NA,NA,NA,NA,NA,NA,NA,NA,NA
audio-instructions,16,117161,0.0-5.0-7.0,voc_e2,11813,"[{""event"":""fullscreenenter"",""trial"":1,""time"":2597}]",NA,730.2999999523163,static/audio/instructions7.wav,NA,0,NA,NA,NA,NA,NA,NA,NA,NA,NA,NA,NA,NA,NA,NA,NA,NA,NA,NA,NA,NA,NA,NA,NA,NA,NA
audio-instructions,17,127816,0.0-5.0-8.0,voc_e2,11813,"[{""event"":""fullscreenenter"",""trial"":1,""time"":2597}]",NA,1174.399999976158,static/audio/instructions8.wav,NA,0,NA,NA,NA,NA,NA,NA,NA,NA,NA,NA,NA,NA,NA,NA,NA,NA,NA,NA,NA,NA,NA,NA,NA,NA,NA
fcp-comprehension,18,135507,0.0-5.0-9.0,voc_e2,11813,"[{""event"":""fullscreenenter"",""trial"":1,""time"":2597}]",NA,7689.199999928474,NA,NA,NA,NA,NA,NA,NA,NA,NA,NA,NA,NA,NA,NA,NA,NA,NA,NA,"true,true",0,NA,NA,NA,NA,NA,NA,NA,NA
audio-instructions,19,141918,0.0-6.0-0.0,voc_e2,11813,"[{""event"":""fullscreenenter"",""trial"":1,""time"":2597}]",NA,862.5,static/audio/instructions9.wav,NA,0,NA,NA,NA,NA,NA,NA,NA,NA,NA,NA,NA,NA,NA,NA,NA,NA,NA,NA,NA,NA,NA,NA,NA,NA,NA
audio-instructions,20,157128,0.0-6.0-1.0,voc_e2,11813,"[{""event"":""fullscreenenter"",""trial"":1,""time"":2597}]",NA,3092.6999999284744,static/audio/instructions10.wav,NA,0,NA,NA,NA,NA,NA,NA,NA,NA,NA,NA,NA,NA,NA,NA,NA,NA,NA,NA,NA,NA,NA,NA,NA,NA,NA
fcp-trial,21,164210,0.0-6.0-2.0,voc_e2,11813,"[{""event"":""fullscreenenter"",""trial"":1,""time"":2597}]",NA,NA,NA,NA,NA,0,#EDC948,#46d3c8,10,10,1,38,1,4225.900000095367,39,0,1342.100000023842,10,0,practice,NA,NA,NA,NA,NA,NA,NA,NA,NA,NA
audio-instructions,22,178288,0.0-6.0-3.0,voc_e2,11813,"[{""event"":""fullscreenenter"",""trial"":1,""time"":2597}]",NA,3072.599999904633,static/audio/instructions11.wav,NA,0,NA,NA,NA,NA,NA,NA,NA,NA,NA,NA,NA,NA,NA,NA,NA,NA,NA,NA,NA,NA,NA,NA,NA,NA,NA
fcp-trial,23,182918,0.0-6.0-4.0,voc_e2,11813,"[{""event"":""fullscreenenter"",""trial"":1,""time"":2597}]",NA,NA,NA,NA,NA,6,#EDC948,#46d3c8,10,10,1,40,0,2107.399999976158,37,1,1015.5,10,1,practice,NA,NA,NA,NA,NA,NA,NA,NA,NA,NA
audio-instructions,24,204259,0.0-6.0-5.0,voc_e2,11813,"[{""event"":""fullscreenenter"",""trial"":1,""time"":2597}]",NA,2653.600000023842,static/audio/instructions12.wav,NA,0,NA,NA,NA,NA,NA,NA,NA,NA,NA,NA,NA,NA,NA,NA,NA,NA,NA,NA,NA,NA,NA,NA,NA,NA,NA
audio-instructions,25,213091,0.0-6.0-6.0,voc_e2,11813,"[{""event"":""fullscreenenter"",""trial"":1,""time"":2597}]",NA,1235.7000000476835,static/audio/instructions13.wav,NA,0,NA,NA,NA,NA,NA,NA,NA,NA,NA,NA,NA,NA,NA,NA,NA,NA,NA,NA,NA,NA,NA,NA,NA,NA,NA
audio-instructions,26,222011,0.0-6.0-7.0,voc_e2,11813,"[{""event"":""fullscreenenter"",""trial"":1,""time"":2597}]",NA,475.7999999523163,static/audio/instructions14.wav,NA,0,NA,NA,NA,NA,NA,NA,NA,NA,NA,NA,NA,NA,NA,NA,NA,NA,NA,NA,NA,NA,NA,NA,NA,NA,NA
audio-instructions,27,229534,0.0-7.0-0.0,voc_e2,11813,"[{""event"":""fullscreenenter"",""trial"":1,""time"":2597}]",NA,608.5,static/audio/instructions15.wav,NA,0,NA,NA,NA,NA,NA,NA,NA,NA,NA,NA,NA,NA,NA,NA,NA,NA,NA,NA,NA,NA,NA,NA,NA,NA,NA
audio-instructions,28,238189,0.0-7.0-1.0,voc_e2,11813,"[{""event"":""fullscreenenter"",""trial"":1,""time"":2597}]",NA,1833.399999976158,static/audio/instructions16.wav,NA,0,NA,NA,NA,NA,NA,NA,NA,NA,NA,NA,NA,NA,NA,NA,NA,NA,NA,NA,NA,NA,NA,NA,NA,NA,NA
audio-instructions,29,246485,0.0-7.0-2.0,voc_e2,11813,"[{""event"":""fullscreenenter"",""trial"":1,""time"":2597}]",NA,620.2000000476837,static/audio/instructions17.wav,NA,0,NA,NA,NA,NA,NA,NA,NA,NA,NA,NA,NA,NA,NA,NA,NA,NA,NA,NA,NA,NA,NA,NA,NA,NA,NA
audio-instructions,30,254449,0.0-7.0-3.0,voc_e2,11813,"[{""event"":""fullscreenenter"",""trial"":1,""time"":2597}]",NA,193.89999997615817,static/audio/instructions18.wav,NA,0,NA,NA,NA,NA,NA,NA,NA,NA,NA,NA,NA,NA,NA,NA,NA,NA,NA,NA,NA,NA,NA,NA,NA,NA,NA
audio-instructions,31,262150,0.0-7.0-4.0,voc_e2,11813,"[{""event"":""fullscreenenter"",""trial"":1,""time"":2597}]",NA,954.399999976158,static/audio/instructions19.wav,NA,0,NA,NA,NA,NA,NA,NA,NA,NA,NA,NA,NA,NA,NA,NA,NA,NA,NA,NA,NA,NA,NA,NA,NA,NA,NA
fcp-comprehension,32,272015,0.0-7.0-5.0,voc_e2,11813,"[{""event"":""fullscreenenter"",""trial"":1,""time"":2597}]",NA,9863,NA,NA,NA,NA,NA,NA,NA,NA,NA,NA,NA,NA,NA,NA,NA,NA,NA,NA,"false,false,false,true",0,NA,NA,NA,NA,NA,NA,NA,NA
audio-instructions,33,283240,0.0-8.0,voc_e2,11813,"[{""event"":""fullscreenenter"",""trial"":1,""time"":2597}]",NA,2005.100000023842,static/audio/ready.wav,NA,0,NA,NA,NA,NA,NA,NA,NA,NA,NA,NA,NA,NA,NA,NA,NA,NA,NA,NA,NA,NA,NA,NA,NA,NA,NA
fcp-trial,34,287417,0.0-9.0-0.0,voc_e2,11813,"[{""event"":""fullscreenenter"",""trial"":1,""time"":2597}]",NA,NA,NA,NA,NA,3,#3386FF,#D89F1C,10,0,1,38,1,2046.8000000715256,39,0,617.7999999523163,0,0,experiment,NA,NA,1,0.7,0.3,2,3,1,1,NA
fcp-trial,35,292291,0.0-10.0-0.0,voc_e2,11813,"[{""event"":""fullscreenenter"",""trial"":1,""time"":2597}]",NA,NA,NA,NA,NA,1,#3386FF,#D89F1C,0,0,1,40,0,2619.899999976158,39,0,739.7000000476837,0,0,experiment,NA,NA,1,0.7,0.3,2,3,2,1,NA
fcp-trial,36,295494,0.0-11.0-0.0,voc_e2,11813,"[{""event"":""fullscreenenter"",""trial"":1,""time"":2597}]",NA,NA,NA,NA,NA,4,#D8271C,#741CD8,0,0,1,40,0,1129.6000000238419,39,0,555.5999999046326,0,0,experiment,NA,NA,0,0.9,0.1,0,1,3,1,NA
fcp-trial,37,298297,0.0-12.0-0.0,voc_e2,11813,"[{""event"":""fullscreenenter"",""trial"":1,""time"":2597}]",NA,NA,NA,NA,NA,0,#3386FF,#D89F1C,0,10,1,40,0,603.1000000238419,37,1,693.3000000715256,0,1,experiment,NA,NA,1,0.7,0.3,2,3,4,1,NA
fcp-trial,38,301625,0.0-13.0-0.0,voc_e2,11813,"[{""event"":""fullscreenenter"",""trial"":1,""time"":2597}]",NA,NA,NA,NA,NA,5,#1CD855,#FA92F8,0,0,1,40,0,989.2000000476837,37,1,827.2999999523163,0,1,experiment,NA,NA,2,0.5,0.5,4,5,5,1,NA
fcp-trial,39,305077,0.0-14.0-0.0,voc_e2,11813,"[{""event"":""fullscreenenter"",""trial"":1,""time"":2597}]",NA,NA,NA,NA,NA,0,#D8271C,#741CD8,10,10,1,38,1,1342.5999999046326,39,0,602.0999999046326,10,0,experiment,NA,NA,0,0.9,0.1,0,1,6,1,NA
fcp-trial,40,307873,0.0-15.0-0.0,voc_e2,11813,"[{""event"":""fullscreenenter"",""trial"":1,""time"":2597}]",NA,NA,NA,NA,NA,5,#741CD8,#D8271C,0,10,0,40,0,760.7000000476837,39,0,530.2999999523163,10,1,experiment,NA,NA,0,0.1,0.9,1,0,7,1,NA
fcp-trial,41,310600,0.0-16.0-0.0,voc_e2,11813,"[{""event"":""fullscreenenter"",""trial"":1,""time"":2597}]",NA,NA,NA,NA,NA,4,#3386FF,#D89F1C,10,0,1,40,0,781.3999999761581,39,0,434.2000000476837,0,0,experiment,NA,NA,1,0.7,0.3,2,3,8,1,NA
fcp-trial,42,314535,0.0-17.0-0.0,voc_e2,11813,"[{""event"":""fullscreenenter"",""trial"":1,""time"":2597}]",NA,NA,NA,NA,NA,6,#1CD855,#FA92F8,0,0,1,40,0,1700.6000000238419,37,1,728.7000000476837,0,1,experiment,NA,NA,2,0.5,0.5,4,5,9,1,NA
fcp-trial,43,318531,0.0-18.0-0.0,voc_e2,11813,"[{""event"":""fullscreenenter"",""trial"":1,""time"":2597}]",NA,NA,NA,NA,NA,2,#D89F1C,#3386FF,0,10,0,40,0,1690.0999999046326,37,1,801.8999999761581,0,0,experiment,NA,NA,1,0.3,0.7,3,2,10,1,NA
fcp-trial,44,323408,0.0-19.0-0.0,voc_e2,11813,"[{""event"":""fullscreenenter"",""trial"":1,""time"":2597}]",NA,NA,NA,NA,NA,1,#741CD8,#D8271C,10,10,0,40,0,3087.399999976158,39,0,286.5,10,1,experiment,NA,NA,0,0.1,0.9,1,0,11,1,NA
fcp-trial,45,328645,0.0-20.0-0.0,voc_e2,11813,"[{""event"":""fullscreenenter"",""trial"":1,""time"":2597}]",NA,NA,NA,NA,NA,6,#3386FF,#D89F1C,10,10,1,38,1,3307.399999976158,37,1,425.39999997615814,10,1,experiment,NA,NA,1,0.7,0.3,2,3,12,1,NA
fcp-trial,46,333049,0.0-21.0-0.0,voc_e2,11813,"[{""event"":""fullscreenenter"",""trial"":1,""time"":2597}]",NA,NA,NA,NA,NA,0,#FA92F8,#1CD855,0,0,0,38,1,2513.2000000476837,37,1,384.60000002384186,0,0,experiment,NA,NA,2,0.5,0.5,5,4,13,1,NA
fcp-trial,47,337108,0.0-22.0-0.0,voc_e2,11813,"[{""event"":""fullscreenenter"",""trial"":1,""time"":2597}]",NA,NA,NA,NA,NA,2,#741CD8,#D8271C,0,10,0,40,0,2131.899999976158,39,0,424.39999997615814,10,1,experiment,NA,NA,0,0.1,0.9,1,0,14,1,NA
fcp-trial,48,340587,0.0-23.0-0.0,voc_e2,11813,"[{""event"":""fullscreenenter"",""trial"":1,""time"":2597}]",NA,NA,NA,NA,NA,4,#FA92F8,#1CD855,10,10,0,40,0,1659.3000000715256,39,0,314.60000002384186,10,1,experiment,NA,NA,2,0.5,0.5,5,4,15,1,NA
fcp-trial,49,343561,0.0-24.0-0.0,voc_e2,11813,"[{""event"":""fullscreenenter"",""trial"":1,""time"":2597}]",NA,NA,NA,NA,NA,1,#FA92F8,#1CD855,10,10,0,38,1,904.7000000476837,37,1,567.5,10,0,experiment,NA,NA,2,0.5,0.5,5,4,16,1,NA
fcp-trial,50,347146,0.0-25.0-0.0,voc_e2,11813,"[{""event"":""fullscreenenter"",""trial"":1,""time"":2597}]",NA,NA,NA,NA,NA,5,#3386FF,#D89F1C,10,10,1,40,0,1663.9000000953674,39,0,416.5,10,0,experiment,NA,NA,1,0.7,0.3,2,3,17,1,NA
fcp-trial,51,350891,0.0-26.0-0.0,voc_e2,11813,"[{""event"":""fullscreenenter"",""trial"":1,""time"":2597}]",NA,NA,NA,NA,NA,3,#D8271C,#741CD8,10,0,1,40,0,1765.5,39,0,475.39999997615814,0,0,experiment,NA,NA,0,0.9,0.1,0,1,18,1,NA
fcp-trial,52,354630,0.0-27.0-0.0,voc_e2,11813,"[{""event"":""fullscreenenter"",""trial"":1,""time"":2597}]",NA,NA,NA,NA,NA,2,#1CD855,#FA92F8,0,10,1,40,0,1727.6000000238419,37,1,506.8000000715256,0,1,experiment,NA,NA,2,0.5,0.5,4,5,19,1,NA
fcp-trial,53,357904,0.0-28.0-0.0,voc_e2,11813,"[{""event"":""fullscreenenter"",""trial"":1,""time"":2597}]",NA,NA,NA,NA,NA,6,#D8271C,#741CD8,10,0,1,40,0,1310.8999999761581,39,0,458.7000000476837,0,0,experiment,NA,NA,0,0.9,0.1,0,1,20,1,NA
fcp-trial,54,360818,0.0-29.0-0.0,voc_e2,11813,"[{""event"":""fullscreenenter"",""trial"":1,""time"":2597}]",NA,NA,NA,NA,NA,3,#FA92F8,#1CD855,0,10,0,38,1,994.8000000715256,37,1,415.59999990463257,0,0,experiment,NA,NA,2,0.5,0.5,5,4,21,1,NA
fcp-trial,55,363640,0.0-30.0-0.0,voc_e2,11813,"[{""event"":""fullscreenenter"",""trial"":1,""time"":2597}]",NA,NA,NA,NA,NA,4,#D8271C,#741CD8,10,0,1,40,0,1000.0999999046326,39,0,316.8000000715256,0,0,experiment,NA,NA,0,0.9,0.1,0,1,22,1,NA
fcp-trial,56,367186,0.0-31.0-0.0,voc_e2,11813,"[{""event"":""fullscreenenter"",""trial"":1,""time"":2597}]",NA,NA,NA,NA,NA,1,#D8271C,#741CD8,10,0,1,38,1,1101.3000000715256,39,0,941.2999999523164,0,0,experiment,NA,NA,0,0.9,0.1,0,1,23,1,NA
fcp-trial,57,371504,0.0-32.0-0.0,voc_e2,11813,"[{""event"":""fullscreenenter"",""trial"":1,""time"":2597}]",NA,NA,NA,NA,NA,0,#3386FF,#D89F1C,0,0,1,38,1,2476.6999999284744,37,1,338.1999999284744,0,1,experiment,NA,NA,1,0.7,0.3,2,3,24,1,NA
fcp-trial,58,374124,0.0-33.0-0.0,voc_e2,11813,"[{""event"":""fullscreenenter"",""trial"":1,""time"":2597}]",NA,NA,NA,NA,NA,2,#3386FF,#D89F1C,10,0,1,38,1,542.8000000715256,37,1,573.9000000953674,10,1,experiment,NA,NA,1,0.7,0.3,2,3,25,1,NA
fcp-trial,59,377488,0.0-34.0-0.0,voc_e2,11813,"[{""event"":""fullscreenenter"",""trial"":1,""time"":2597}]",NA,NA,NA,NA,NA,6,#D8271C,#741CD8,10,0,1,38,1,1022.7000000476837,37,1,837.2999999523163,10,1,experiment,NA,NA,0,0.9,0.1,0,1,26,1,NA
fcp-trial,60,380322,0.0-35.0-0.0,voc_e2,11813,"[{""event"":""fullscreenenter"",""trial"":1,""time"":2597}]",NA,NA,NA,NA,NA,2,#D8271C,#741CD8,10,0,1,38,1,552.2000000476837,37,1,776.9000000953674,10,1,experiment,NA,NA,0,0.9,0.1,0,1,27,1,NA
fcp-trial,61,382944,0.0-36.0-0.0,voc_e2,11813,"[{""event"":""fullscreenenter"",""trial"":1,""time"":2597}]",NA,NA,NA,NA,NA,3,#1CD855,#FA92F8,10,0,1,38,1,812.6999999284744,39,0,305.10000002384186,0,0,experiment,NA,NA,2,0.5,0.5,4,5,28,1,NA
fcp-trial,62,385694,0.0-37.0-0.0,voc_e2,11813,"[{""event"":""fullscreenenter"",""trial"":1,""time"":2597}]",NA,NA,NA,NA,NA,5,#3386FF,#D89F1C,10,0,1,38,1,786.8000000715256,37,1,459.89999997615814,10,1,experiment,NA,NA,1,0.7,0.3,2,3,29,1,NA
fcp-trial,63,387852,0.0-38.0-0.0,voc_e2,11813,"[{""event"":""fullscreenenter"",""trial"":1,""time"":2597}]",NA,NA,NA,NA,NA,3,#3386FF,#D89F1C,10,0,1,38,1,259.09999990463257,37,1,395.39999997615814,10,1,experiment,NA,NA,1,0.7,0.3,2,3,30,1,NA
fcp-trial,64,391434,0.0-39.0-0.0,voc_e2,11813,"[{""event"":""fullscreenenter"",""trial"":1,""time"":2597}]",NA,NA,NA,NA,NA,4,#FA92F8,#1CD855,10,0,0,38,1,520.8000000715256,37,1,1556,10,0,experiment,NA,NA,2,0.5,0.5,5,4,31,1,NA
fcp-trial,65,394950,0.0-40.0-0.0,voc_e2,11813,"[{""event"":""fullscreenenter"",""trial"":1,""time"":2597}]",NA,NA,NA,NA,NA,3,#741CD8,#D8271C,0,10,0,38,1,463.3000000715256,37,1,1549.600000023842,0,0,experiment,NA,NA,0,0.1,0.9,1,0,32,1,NA
fcp-trial,66,397303,0.0-41.0-0.0,voc_e2,11813,"[{""event"":""fullscreenenter"",""trial"":1,""time"":2597}]",NA,NA,NA,NA,NA,2,#FA92F8,#1CD855,10,10,0,38,1,156.39999997615814,37,1,693.5,10,0,experiment,NA,NA,2,0.5,0.5,5,4,33,1,NA
fcp-trial,67,400132,0.0-42.0-0.0,voc_e2,11813,"[{""event"":""fullscreenenter"",""trial"":1,""time"":2597}]",NA,NA,NA,NA,NA,6,#D89F1C,#3386FF,0,10,0,38,1,612.5,39,0,711.3999999761581,10,1,experiment,NA,NA,1,0.3,0.7,3,2,34,1,NA
fcp-trial,68,402975,0.0-43.0-0.0,voc_e2,11813,"[{""event"":""fullscreenenter"",""trial"":1,""time"":2597}]",NA,NA,NA,NA,NA,1,#FA92F8,#1CD855,10,0,0,38,1,512.2000000476837,37,1,825.7000000476837,10,0,experiment,NA,NA,2,0.5,0.5,5,4,35,1,NA
fcp-trial,69,406377,0.0-44.0-0.0,voc_e2,11813,"[{""event"":""fullscreenenter"",""trial"":1,""time"":2597}]",NA,NA,NA,NA,NA,5,#741CD8,#D8271C,0,10,0,38,1,340.89999997615814,37,1,1557.3000000715256,0,0,experiment,NA,NA,0,0.1,0.9,1,0,36,1,NA
fcp-trial,70,408723,0.0-45.0-0.0,voc_e2,11813,"[{""event"":""fullscreenenter"",""trial"":1,""time"":2597}]",NA,NA,NA,NA,NA,6,#1CD855,#FA92F8,10,10,1,38,1,293.2000000476837,39,0,549.3999999761581,10,0,experiment,NA,NA,2,0.5,0.5,4,5,37,1,NA
fcp-trial,71,413988,0.0-46.0-0.0,voc_e2,11813,"[{""event"":""fullscreenenter"",""trial"":1,""time"":2597}]",NA,NA,NA,NA,NA,4,#D89F1C,#3386FF,0,10,0,40,0,3408.899999976158,39,0,352.7000000476837,10,1,experiment,NA,NA,1,0.3,0.7,3,2,38,1,NA
fcp-trial,72,417174,0.0-47.0-0.0,voc_e2,11813,"[{""event"":""fullscreenenter"",""trial"":1,""time"":2597}]",NA,NA,NA,NA,NA,0,#FA92F8,#1CD855,10,0,0,38,1,1023.8999999761581,37,1,658.8999999761581,10,0,experiment,NA,NA,2,0.5,0.5,5,4,39,1,NA
fcp-trial,73,419831,0.0-48.0-0.0,voc_e2,11813,"[{""event"":""fullscreenenter"",""trial"":1,""time"":2597}]",NA,NA,NA,NA,NA,5,#1CD855,#FA92F8,0,0,1,40,0,779.5,39,0,373.10000002384186,0,0,experiment,NA,NA,2,0.5,0.5,4,5,40,1,NA
fcp-trial,74,424523,0.0-49.0-0.0,voc_e2,11813,"[{""event"":""fullscreenenter"",""trial"":1,""time"":2597}]",NA,NA,NA,NA,NA,0,#741CD8,#D8271C,0,10,0,38,1,1946.1000000238419,37,1,1240.8000000715256,0,0,experiment,NA,NA,0,0.1,0.9,1,0,41,1,NA
fcp-trial,75,429206,0.0-50.0-0.0,voc_e2,11813,"[{""event"":""fullscreenenter"",""trial"":1,""time"":2597}]",NA,NA,NA,NA,NA,1,#D89F1C,#3386FF,10,10,0,38,1,2055.7000000476837,39,0,1122.8000000715256,10,1,experiment,NA,NA,1,0.3,0.7,3,2,42,1,NA
fcp-trial,76,431798,0.0-51.0-0.0,voc_e2,11813,"[{""event"":""fullscreenenter"",""trial"":1,""time"":2597}]",NA,NA,NA,NA,NA,4,#D89F1C,#3386FF,0,10,0,38,1,462.89999997615814,39,0,624.7999999523163,10,1,experiment,NA,NA,1,0.3,0.7,3,2,43,1,NA
fcp-trial,77,436560,0.0-52.0-0.0,voc_e2,11813,"[{""event"":""fullscreenenter"",""trial"":1,""time"":2597}]",NA,NA,NA,NA,NA,5,#741CD8,#D8271C,0,10,0,40,0,2805.4000000953674,37,1,453.3000000715256,0,0,experiment,NA,NA,0,0.1,0.9,1,0,44,1,NA
fcp-trial,78,439289,0.0-53.0-0.0,voc_e2,11813,"[{""event"":""fullscreenenter"",""trial"":1,""time"":2597}]",NA,NA,NA,NA,NA,0,#D8271C,#741CD8,10,0,1,40,0,725,39,0,498.3000000715256,0,0,experiment,NA,NA,0,0.9,0.1,0,1,45,1,NA
fcp-trial,79,442175,0.0-54.0-0.0,voc_e2,11813,"[{""event"":""fullscreenenter"",""trial"":1,""time"":2597}]",NA,NA,NA,NA,NA,3,#1CD855,#FA92F8,0,0,1,40,0,1030.3000000715256,39,0,351.10000002384186,0,0,experiment,NA,NA,2,0.5,0.5,4,5,46,2,NA
fcp-trial,80,444978,0.0-55.0-0.0,voc_e2,11813,"[{""event"":""fullscreenenter"",""trial"":1,""time"":2597}]",NA,NA,NA,NA,NA,4,#1CD855,#FA92F8,0,10,1,40,0,823.7999999523163,37,1,475.40000009536743,0,1,experiment,NA,NA,2,0.5,0.5,4,5,47,2,NA
fcp-trial,81,447927,0.0-56.0-0.0,voc_e2,11813,"[{""event"":""fullscreenenter"",""trial"":1,""time"":2597}]",NA,NA,NA,NA,NA,6,#3386FF,#D89F1C,10,0,1,38,1,1164.1000000238419,37,1,279.3000000715256,10,1,experiment,NA,NA,1,0.7,0.3,2,3,48,2,NA
fcp-trial,82,451990,0.0-57.0-0.0,voc_e2,11813,"[{""event"":""fullscreenenter"",""trial"":1,""time"":2597}]",NA,NA,NA,NA,NA,2,#1CD855,#FA92F8,0,10,1,40,0,2107.600000023842,37,1,451.7000000476837,0,1,experiment,NA,NA,2,0.5,0.5,4,5,49,2,NA
fcp-trial,83,454887,0.0-58.0-0.0,voc_e2,11813,"[{""event"":""fullscreenenter"",""trial"":1,""time"":2597}]",NA,NA,NA,NA,NA,4,#741CD8,#D8271C,0,10,0,40,0,969.2000000476837,39,0,422.2999999523163,10,1,experiment,NA,NA,0,0.1,0.9,1,0,50,2,NA
fcp-trial,84,458339,0.0-59.0-0.0,voc_e2,11813,"[{""event"":""fullscreenenter"",""trial"":1,""time"":2597}]",NA,NA,NA,NA,NA,1,#1CD855,#FA92F8,10,0,1,38,1,1654.8999999761581,39,0,293.90000009536743,0,0,experiment,NA,NA,2,0.5,0.5,4,5,51,2,NA
fcp-trial,85,461159,0.0-60.0-0.0,voc_e2,11813,"[{""event"":""fullscreenenter"",""trial"":1,""time"":2597}]",NA,NA,NA,NA,NA,3,#3386FF,#D89F1C,10,0,1,40,0,937.5,37,1,377.89999997615814,10,1,experiment,NA,NA,1,0.7,0.3,2,3,52,2,NA
fcp-trial,86,464140,0.0-61.0-0.0,voc_e2,11813,"[{""event"":""fullscreenenter"",""trial"":1,""time"":2597}]",NA,NA,NA,NA,NA,2,#D89F1C,#3386FF,0,10,0,40,0,1207.4000000953674,39,0,271.60000002384186,10,1,experiment,NA,NA,1,0.3,0.7,3,2,53,2,NA
fcp-trial,87,468558,0.0-62.0-0.0,voc_e2,11813,"[{""event"":""fullscreenenter"",""trial"":1,""time"":2597}]",NA,NA,NA,NA,NA,1,#741CD8,#D8271C,0,10,0,38,1,1291.7999999523163,37,1,1622.8000000715256,0,0,experiment,NA,NA,0,0.1,0.9,1,0,54,2,NA
fcp-trial,88,471962,0.0-63.0-0.0,voc_e2,11813,"[{""event"":""fullscreenenter"",""trial"":1,""time"":2597}]",NA,NA,NA,NA,NA,5,#1CD855,#FA92F8,10,0,1,40,0,1431.3999999761581,37,1,468.2000000476837,10,1,experiment,NA,NA,2,0.5,0.5,4,5,55,2,NA
fcp-trial,89,475197,0.0-64.0-0.0,voc_e2,11813,"[{""event"":""fullscreenenter"",""trial"":1,""time"":2597}]",NA,NA,NA,NA,NA,2,#D8271C,#741CD8,10,0,1,38,1,1007.2999999523163,39,0,723.0999999046326,0,0,experiment,NA,NA,0,0.9,0.1,0,1,56,2,NA
fcp-trial,90,477894,0.0-65.0-0.0,voc_e2,11813,"[{""event"":""fullscreenenter"",""trial"":1,""time"":2597}]",NA,NA,NA,NA,NA,3,#741CD8,#D8271C,0,10,0,38,1,486.3000000715256,37,1,707.3999999761581,0,0,experiment,NA,NA,0,0.1,0.9,1,0,57,2,NA
fcp-trial,91,481933,0.0-66.0-0.0,voc_e2,11813,"[{""event"":""fullscreenenter"",""trial"":1,""time"":2597}]",NA,NA,NA,NA,NA,0,#3386FF,#D89F1C,0,0,1,38,1,478.39999997615814,37,1,2057.5,0,1,experiment,NA,NA,1,0.7,0.3,2,3,58,2,NA
fcp-trial,92,485006,0.0-67.0-0.0,voc_e2,11813,"[{""event"":""fullscreenenter"",""trial"":1,""time"":2597}]",NA,NA,NA,NA,NA,1,#D89F1C,#3386FF,10,10,0,38,1,735.4000000953674,37,1,832.2000000476837,10,0,experiment,NA,NA,1,0.3,0.7,3,2,59,2,NA
fcp-trial,93,488086,0.0-68.0-0.0,voc_e2,11813,"[{""event"":""fullscreenenter"",""trial"":1,""time"":2597}]",NA,NA,NA,NA,NA,6,#FA92F8,#1CD855,10,10,0,40,0,1128.0999999046326,37,1,447.60000002384186,10,0,experiment,NA,NA,2,0.5,0.5,5,4,60,2,NA
fcp-trial,94,490736,0.0-69.0-0.0,voc_e2,11813,"[{""event"":""fullscreenenter"",""trial"":1,""time"":2597}]",NA,NA,NA,NA,NA,6,#D8271C,#741CD8,10,0,1,40,0,731.2000000476837,37,1,415.7999999523163,10,1,experiment,NA,NA,0,0.9,0.1,0,1,61,2,NA
fcp-trial,95,493097,0.0-70.0-0.0,voc_e2,11813,"[{""event"":""fullscreenenter"",""trial"":1,""time"":2597}]",NA,NA,NA,NA,NA,5,#D89F1C,#3386FF,0,10,0,40,0,554.8999999761581,39,0,301.60000002384186,10,1,experiment,NA,NA,1,0.3,0.7,3,2,62,2,NA
fcp-trial,96,496486,0.0-71.0-0.0,voc_e2,11813,"[{""event"":""fullscreenenter"",""trial"":1,""time"":2597}]",NA,NA,NA,NA,NA,0,#1CD855,#FA92F8,0,10,1,38,1,1577.7000000476837,39,0,306.89999997615814,10,0,experiment,NA,NA,2,0.5,0.5,4,5,63,2,NA
fcp-trial,97,499086,0.0-72.0-0.0,voc_e2,11813,"[{""event"":""fullscreenenter"",""trial"":1,""time"":2597}]",NA,NA,NA,NA,NA,6,#D89F1C,#3386FF,0,10,0,40,0,666.2999999523163,37,1,425.8000000715256,0,0,experiment,NA,NA,1,0.3,0.7,3,2,64,2,NA
fcp-trial,98,501492,0.0-73.0-0.0,voc_e2,11813,"[{""event"":""fullscreenenter"",""trial"":1,""time"":2597}]",NA,NA,NA,NA,NA,4,#D89F1C,#3386FF,0,10,0,40,0,592.6999999284744,37,1,308.90000009536743,0,0,experiment,NA,NA,1,0.3,0.7,3,2,65,2,NA
fcp-trial,99,503896,0.0-74.0-0.0,voc_e2,11813,"[{""event"":""fullscreenenter"",""trial"":1,""time"":2597}]",NA,NA,NA,NA,NA,5,#1CD855,#FA92F8,0,10,1,40,0,591.1999999284744,39,0,309.40000009536743,10,0,experiment,NA,NA,2,0.5,0.5,4,5,66,2,NA
fcp-trial,100,507016,0.0-75.0-0.0,voc_e2,11813,"[{""event"":""fullscreenenter"",""trial"":1,""time"":2597}]",NA,NA,NA,NA,NA,3,#D8271C,#741CD8,10,0,1,40,0,1120.8999999761581,37,1,495.10000002384186,10,1,experiment,NA,NA,0,0.9,0.1,0,1,67,2,NA
fcp-trial,101,510076,0.0-76.0-0.0,voc_e2,11813,"[{""event"":""fullscreenenter"",""trial"":1,""time"":2597}]",NA,NA,NA,NA,NA,0,#3386FF,#D89F1C,10,10,1,38,1,850.2999999523163,37,1,704.8999999761581,10,1,experiment,NA,NA,1,0.7,0.3,2,3,68,2,NA
fcp-trial,102,512854,0.0-77.0-0.0,voc_e2,11813,"[{""event"":""fullscreenenter"",""trial"":1,""time"":2597}]",NA,NA,NA,NA,NA,6,#D8271C,#741CD8,10,0,1,40,0,852.3000000715256,37,1,420.7000000476837,10,1,experiment,NA,NA,0,0.9,0.1,0,1,69,2,NA
fcp-trial,103,516048,0.0-78.0-0.0,voc_e2,11813,"[{""event"":""fullscreenenter"",""trial"":1,""time"":2597}]",NA,NA,NA,NA,NA,6,#1CD855,#FA92F8,10,0,1,40,0,807.6000000238419,39,0,882.8000000715256,0,0,experiment,NA,NA,2,0.5,0.5,4,5,70,2,NA
fcp-trial,104,519728,0.0-79.0-0.0,voc_e2,11813,"[{""event"":""fullscreenenter"",""trial"":1,""time"":2597}]",NA,NA,NA,NA,NA,1,#D89F1C,#3386FF,10,10,0,38,1,1339,39,0,837.2999999523163,10,1,experiment,NA,NA,1,0.3,0.7,3,2,71,2,NA
fcp-trial,105,522592,0.0-80.0-0.0,voc_e2,11813,"[{""event"":""fullscreenenter"",""trial"":1,""time"":2597}]",NA,NA,NA,NA,NA,5,#741CD8,#D8271C,0,10,0,40,0,1032.3999999761581,39,0,327.10000002384186,10,1,experiment,NA,NA,0,0.1,0.9,1,0,72,2,NA
fcp-trial,106,526626,0.0-81.0-0.0,voc_e2,11813,"[{""event"":""fullscreenenter"",""trial"":1,""time"":2597}]",NA,NA,NA,NA,NA,0,#FA92F8,#1CD855,10,0,0,38,1,1255.2999999523163,37,1,1275.5,10,0,experiment,NA,NA,2,0.5,0.5,5,4,73,2,NA
fcp-trial,107,529276,0.0-82.0-0.0,voc_e2,11813,"[{""event"":""fullscreenenter"",""trial"":1,""time"":2597}]",NA,NA,NA,NA,NA,1,#D8271C,#741CD8,10,0,1,38,1,737.7000000476837,39,0,402.5,0,0,experiment,NA,NA,0,0.9,0.1,0,1,74,2,NA
fcp-trial,108,532018,0.0-83.0-0.0,voc_e2,11813,"[{""event"":""fullscreenenter"",""trial"":1,""time"":2597}]",NA,NA,NA,NA,NA,3,#3386FF,#D89F1C,0,10,1,38,1,924.8000000715256,37,1,313.3000000715256,0,1,experiment,NA,NA,1,0.7,0.3,2,3,75,2,NA
fcp-trial,109,534796,0.0-84.0-0.0,voc_e2,11813,"[{""event"":""fullscreenenter"",""trial"":1,""time"":2597}]",NA,NA,NA,NA,NA,3,#FA92F8,#1CD855,10,0,0,38,1,1020.7999999523163,37,1,254,10,0,experiment,NA,NA,2,0.5,0.5,5,4,76,2,NA
fcp-trial,110,537720,0.0-85.0-0.0,voc_e2,11813,"[{""event"":""fullscreenenter"",""trial"":1,""time"":2597}]",NA,NA,NA,NA,NA,2,#D8271C,#741CD8,10,0,1,38,1,914.6000000238419,39,0,505.39999997615814,0,0,experiment,NA,NA,0,0.9,0.1,0,1,77,2,NA
fcp-trial,111,540497,0.0-86.0-0.0,voc_e2,11813,"[{""event"":""fullscreenenter"",""trial"":1,""time"":2597}]",NA,NA,NA,NA,NA,0,#741CD8,#D8271C,0,10,0,38,1,821,39,0,452.7000000476837,10,1,experiment,NA,NA,0,0.1,0.9,1,0,78,2,NA
fcp-trial,112,543345,0.0-87.0-0.0,voc_e2,11813,"[{""event"":""fullscreenenter"",""trial"":1,""time"":2597}]",NA,NA,NA,NA,NA,5,#D89F1C,#3386FF,0,10,0,40,0,971.6000000238419,37,1,373.10000002384186,0,0,experiment,NA,NA,1,0.3,0.7,3,2,79,2,NA
fcp-trial,113,545908,0.0-88.0-0.0,voc_e2,11813,"[{""event"":""fullscreenenter"",""trial"":1,""time"":2597}]",NA,NA,NA,NA,NA,2,#3386FF,#D89F1C,10,0,1,38,1,659.8000000715256,37,1,399.2000000476837,10,1,experiment,NA,NA,1,0.7,0.3,2,3,80,2,NA
fcp-trial,114,549357,0.0-89.0-0.0,voc_e2,11813,"[{""event"":""fullscreenenter"",""trial"":1,""time"":2597}]",NA,NA,NA,NA,NA,4,#FA92F8,#1CD855,0,0,0,38,1,1375.1999999284744,37,1,570.2000000476837,0,0,experiment,NA,NA,2,0.5,0.5,5,4,81,2,NA
fcp-trial,115,552100,0.0-90.0-0.0,voc_e2,11813,"[{""event"":""fullscreenenter"",""trial"":1,""time"":2597}]",NA,NA,NA,NA,NA,2,#1CD855,#FA92F8,0,0,1,38,1,915.5,39,0,323.10000002384186,0,0,experiment,NA,NA,2,0.5,0.5,4,5,82,2,NA
fcp-trial,116,555335,0.0-91.0-0.0,voc_e2,11813,"[{""event"":""fullscreenenter"",""trial"":1,""time"":2597}]",NA,NA,NA,NA,NA,4,#741CD8,#D8271C,0,10,0,38,1,1352.3999999761581,37,1,378,0,0,experiment,NA,NA,0,0.1,0.9,1,0,83,2,NA
fcp-trial,117,559245,0.0-92.0-0.0,voc_e2,11813,"[{""event"":""fullscreenenter"",""trial"":1,""time"":2597}]",NA,NA,NA,NA,NA,1,#1CD855,#FA92F8,10,10,1,38,1,1724.3999999761581,39,0,681.1999999284744,10,0,experiment,NA,NA,2,0.5,0.5,4,5,84,2,NA
fcp-trial,118,562448,0.0-93.0-0.0,voc_e2,11813,"[{""event"":""fullscreenenter"",""trial"":1,""time"":2597}]",NA,NA,NA,NA,NA,1,#741CD8,#D8271C,0,10,0,40,0,1166.2000000476837,37,1,533.6000000238419,0,0,experiment,NA,NA,0,0.1,0.9,1,0,85,2,NA
fcp-trial,119,565297,0.0-94.0-0.0,voc_e2,11813,"[{""event"":""fullscreenenter"",""trial"":1,""time"":2597}]",NA,NA,NA,NA,NA,6,#3386FF,#D89F1C,0,0,1,40,0,903.1000000238419,39,0,441.39999997615814,0,0,experiment,NA,NA,1,0.7,0.3,2,3,86,2,NA
fcp-trial,120,568058,0.0-95.0-0.0,voc_e2,11813,"[{""event"":""fullscreenenter"",""trial"":1,""time"":2597}]",NA,NA,NA,NA,NA,5,#741CD8,#D8271C,0,10,0,40,0,877.5,39,0,378.89999997615814,10,1,experiment,NA,NA,0,0.1,0.9,1,0,87,2,NA
fcp-trial,121,570756,0.0-96.0-0.0,voc_e2,11813,"[{""event"":""fullscreenenter"",""trial"":1,""time"":2597}]",NA,NA,NA,NA,NA,3,#1CD855,#FA92F8,0,10,1,40,0,784.5,39,0,408.7000000476837,10,0,experiment,NA,NA,2,0.5,0.5,4,5,88,2,NA
fcp-trial,122,573647,0.0-97.0-0.0,voc_e2,11813,"[{""event"":""fullscreenenter"",""trial"":1,""time"":2597}]",NA,NA,NA,NA,NA,4,#1CD855,#FA92F8,0,10,1,40,0,903.3999999761581,39,0,482.3000000715256,10,0,experiment,NA,NA,2,0.5,0.5,4,5,89,2,NA
fcp-trial,123,576726,0.0-98.0-0.0,voc_e2,11813,"[{""event"":""fullscreenenter"",""trial"":1,""time"":2597}]",NA,NA,NA,NA,NA,2,#741CD8,#D8271C,0,10,0,38,1,974.6000000238419,37,1,600.7999999523163,0,0,experiment,NA,NA,0,0.1,0.9,1,0,90,2,NA
fcp-trial,124,580008,0.0-99.0-0.0,voc_e2,11813,"[{""event"":""fullscreenenter"",""trial"":1,""time"":2597}]",NA,NA,NA,NA,NA,1,#D89F1C,#3386FF,10,10,0,38,1,1089.7000000476837,39,0,688.5,10,1,experiment,NA,NA,1,0.3,0.7,3,2,91,3,NA
fcp-trial,125,582564,0.0-100.0-0.0,voc_e2,11813,"[{""event"":""fullscreenenter"",""trial"":1,""time"":2597}]",NA,NA,NA,NA,NA,6,#741CD8,#D8271C,0,10,0,40,0,767.3000000715256,39,0,285.2999999523163,10,1,experiment,NA,NA,0,0.1,0.9,1,0,92,3,NA
fcp-trial,126,586349,0.0-101.0-0.0,voc_e2,11813,"[{""event"":""fullscreenenter"",""trial"":1,""time"":2597}]",NA,NA,NA,NA,NA,1,#1CD855,#FA92F8,10,10,1,38,1,1139.4000000953674,39,0,1140.7999999523165,10,0,experiment,NA,NA,2,0.5,0.5,4,5,93,3,NA
fcp-trial,127,588966,0.0-102.0-0.0,voc_e2,11813,"[{""event"":""fullscreenenter"",""trial"":1,""time"":2597}]",NA,NA,NA,NA,NA,4,#3386FF,#D89F1C,10,0,1,40,0,825.3000000715256,39,0,288.39999997615814,0,0,experiment,NA,NA,1,0.7,0.3,2,3,94,3,NA
fcp-trial,128,591648,0.0-103.0-0.0,voc_e2,11813,"[{""event"":""fullscreenenter"",""trial"":1,""time"":2597}]",NA,NA,NA,NA,NA,3,#741CD8,#D8271C,0,10,0,40,0,766.8999999761581,37,1,410.5,0,0,experiment,NA,NA,0,0.1,0.9,1,0,95,3,NA
fcp-trial,129,594268,0.0-104.0-0.0,voc_e2,11813,"[{""event"":""fullscreenenter"",""trial"":1,""time"":2597}]",NA,NA,NA,NA,NA,6,#FA92F8,#1CD855,0,10,0,40,0,588.8000000715256,39,0,526.6999999284744,10,1,experiment,NA,NA,2,0.5,0.5,5,4,96,3,NA
fcp-trial,130,597033,0.0-105.0-0.0,voc_e2,11813,"[{""event"":""fullscreenenter"",""trial"":1,""time"":2597}]",NA,NA,NA,NA,NA,3,#D89F1C,#3386FF,0,0,0,40,0,821.3000000715256,37,1,441.1999999284744,0,0,experiment,NA,NA,1,0.3,0.7,3,2,97,3,NA
fcp-trial,131,600387,0.0-106.0-0.0,voc_e2,11813,"[{""event"":""fullscreenenter"",""trial"":1,""time"":2597}]",NA,NA,NA,NA,NA,0,#1CD855,#FA92F8,0,0,1,38,1,897.7000000476837,39,0,952,0,0,experiment,NA,NA,2,0.5,0.5,4,5,98,3,NA
fcp-trial,132,603020,0.0-107.0-0.0,voc_e2,11813,"[{""event"":""fullscreenenter"",""trial"":1,""time"":2597}]",NA,NA,NA,NA,NA,4,#D8271C,#741CD8,10,10,1,40,0,678.6000000238419,37,1,451.2000000476837,10,1,experiment,NA,NA,0,0.9,0.1,0,1,99,3,NA
fcp-trial,133,606054,0.0-108.0-0.0,voc_e2,11813,"[{""event"":""fullscreenenter"",""trial"":1,""time"":2597}]",NA,NA,NA,NA,NA,2,#FA92F8,#1CD855,0,10,0,40,0,1166.1999999284744,37,1,363.7000000476837,0,0,experiment,NA,NA,2,0.5,0.5,5,4,100,3,NA
fcp-trial,134,609316,0.0-109.0-0.0,voc_e2,11813,"[{""event"":""fullscreenenter"",""trial"":1,""time"":2597}]",NA,NA,NA,NA,NA,0,#3386FF,#D89F1C,10,0,1,38,1,817.5,37,1,939.7000000476836,10,1,experiment,NA,NA,1,0.7,0.3,2,3,101,3,NA
fcp-trial,135,611860,0.0-110.0-0.0,voc_e2,11813,"[{""event"":""fullscreenenter"",""trial"":1,""time"":2597}]",NA,NA,NA,NA,NA,5,#FA92F8,#1CD855,10,0,0,40,0,623.3000000715256,37,1,416.89999997615814,10,0,experiment,NA,NA,2,0.5,0.5,5,4,102,3,NA
fcp-trial,136,614968,0.0-111.0-0.0,voc_e2,11813,"[{""event"":""fullscreenenter"",""trial"":1,""time"":2597}]",NA,NA,NA,NA,NA,2,#3386FF,#D89F1C,0,0,1,38,1,1351.5999999046326,39,0,253,0,0,experiment,NA,NA,1,0.7,0.3,2,3,103,3,NA
fcp-trial,137,618090,0.0-112.0-0.0,voc_e2,11813,"[{""event"":""fullscreenenter"",""trial"":1,""time"":2597}]",NA,NA,NA,NA,NA,0,#D8271C,#741CD8,10,0,1,38,1,889.2999999523163,37,1,729.3000000715256,10,1,experiment,NA,NA,0,0.9,0.1,0,1,104,3,NA
fcp-trial,138,620847,0.0-113.0-0.0,voc_e2,11813,"[{""event"":""fullscreenenter"",""trial"":1,""time"":2597}]",NA,NA,NA,NA,NA,5,#3386FF,#D89F1C,10,0,1,40,0,885.6000000238419,37,1,366.1999999284744,10,1,experiment,NA,NA,1,0.7,0.3,2,3,105,3,NA
audio-instructions,139,625932,0.0-114.0,voc_e2,11813,"[{""event"":""fullscreenenter"",""trial"":1,""time"":2597}]",NA,293.7999999523163,static/audio/pause.wav,NA,0,NA,NA,NA,NA,NA,NA,NA,NA,NA,NA,NA,NA,NA,NA,NA,NA,NA,NA,NA,NA,NA,NA,NA,NA,NA
fcp-trial,140,629136,0.0-115.0-0.0,voc_e2,11813,"[{""event"":""fullscreenenter"",""trial"":1,""time"":2597}]",NA,NA,NA,NA,NA,6,#1CD855,#FA92F8,10,0,1,40,0,1216.2000000476837,37,1,481.10000002384186,10,1,experiment,NA,NA,2,0.5,0.5,4,5,106,3,NA
fcp-trial,141,631640,0.0-116.0-0.0,voc_e2,11813,"[{""event"":""fullscreenenter"",""trial"":1,""time"":2597}]",NA,NA,NA,NA,NA,2,#D89F1C,#3386FF,10,0,0,40,0,630.6000000238419,39,0,365,0,1,experiment,NA,NA,1,0.3,0.7,3,2,107,3,NA
fcp-trial,142,634808,0.0-117.0-0.0,voc_e2,11813,"[{""event"":""fullscreenenter"",""trial"":1,""time"":2597}]",NA,NA,NA,NA,NA,1,#FA92F8,#1CD855,10,0,0,38,1,793.1999999284744,37,1,870.8999999761581,10,0,experiment,NA,NA,2,0.5,0.5,5,4,108,3,NA
fcp-trial,143,638476,0.0-118.0-0.0,voc_e2,11813,"[{""event"":""fullscreenenter"",""trial"":1,""time"":2597}]",NA,NA,NA,NA,NA,2,#741CD8,#D8271C,0,10,0,38,1,778,37,1,1379.8000000715256,0,0,experiment,NA,NA,0,0.1,0.9,1,0,109,3,NA
fcp-trial,144,641047,0.0-119.0-0.0,voc_e2,11813,"[{""event"":""fullscreenenter"",""trial"":1,""time"":2597}]",NA,NA,NA,NA,NA,5,#3386FF,#D89F1C,0,10,1,40,0,651.5,37,1,412.60000002384186,0,1,experiment,NA,NA,1,0.7,0.3,2,3,110,3,NA
fcp-trial,145,643809,0.0-120.0-0.0,voc_e2,11813,"[{""event"":""fullscreenenter"",""trial"":1,""time"":2597}]",NA,NA,NA,NA,NA,5,#741CD8,#D8271C,0,10,0,40,0,778,37,1,475,0,0,experiment,NA,NA,0,0.1,0.9,1,0,111,3,NA
fcp-trial,146,646489,0.0-121.0-0.0,voc_e2,11813,"[{""event"":""fullscreenenter"",""trial"":1,""time"":2597}]",NA,NA,NA,NA,NA,3,#1CD855,#FA92F8,0,10,1,40,0,813.5,39,0,362.3000000715256,10,0,experiment,NA,NA,2,0.5,0.5,4,5,112,3,NA
fcp-trial,147,649050,0.0-122.0-0.0,voc_e2,11813,"[{""event"":""fullscreenenter"",""trial"":1,""time"":2597}]",NA,NA,NA,NA,NA,6,#D89F1C,#3386FF,0,0,0,40,0,760.2000000476837,39,0,297.60000002384186,0,1,experiment,NA,NA,1,0.3,0.7,3,2,113,3,NA
fcp-trial,148,651596,0.0-123.0-0.0,voc_e2,11813,"[{""event"":""fullscreenenter"",""trial"":1,""time"":2597}]",NA,NA,NA,NA,NA,4,#D8271C,#741CD8,10,0,1,40,0,777.6000000238419,39,0,262.6999999284744,0,0,experiment,NA,NA,0,0.9,0.1,0,1,114,3,NA
fcp-trial,149,654359,0.0-124.0-0.0,voc_e2,11813,"[{""event"":""fullscreenenter"",""trial"":1,""time"":2597}]",NA,NA,NA,NA,NA,1,#3386FF,#D89F1C,10,10,1,38,1,949.2000000476837,37,1,306.89999997615814,10,1,experiment,NA,NA,1,0.7,0.3,2,3,115,3,NA
fcp-trial,150,656912,0.0-125.0-0.0,voc_e2,11813,"[{""event"":""fullscreenenter"",""trial"":1,""time"":2597}]",NA,NA,NA,NA,NA,5,#FA92F8,#1CD855,10,0,0,40,0,787.7000000476837,39,0,257,0,1,experiment,NA,NA,2,0.5,0.5,5,4,116,3,NA
fcp-trial,151,661441,0.0-126.0-0.0,voc_e2,11813,"[{""event"":""fullscreenenter"",""trial"":1,""time"":2597}]",NA,NA,NA,NA,NA,3,#741CD8,#D8271C,0,10,0,38,1,2181.399999976158,37,1,843.1000000238419,0,0,experiment,NA,NA,0,0.1,0.9,1,0,117,3,NA
fcp-trial,152,664229,0.0-127.0-0.0,voc_e2,11813,"[{""event"":""fullscreenenter"",""trial"":1,""time"":2597}]",NA,NA,NA,NA,NA,0,#D89F1C,#3386FF,0,10,0,38,1,830.7000000476837,39,0,453.8000000715256,10,1,experiment,NA,NA,1,0.3,0.7,3,2,118,3,NA
fcp-trial,153,666599,0.0-128.0-0.0,voc_e2,11813,"[{""event"":""fullscreenenter"",""trial"":1,""time"":2597}]",NA,NA,NA,NA,NA,6,#D8271C,#741CD8,10,0,1,40,0,588.7999999523163,39,0,277.10000002384186,0,0,experiment,NA,NA,0,0.9,0.1,0,1,119,3,NA
fcp-trial,154,669136,0.0-129.0-0.0,voc_e2,11813,"[{""event"":""fullscreenenter"",""trial"":1,""time"":2597}]",NA,NA,NA,NA,NA,4,#D89F1C,#3386FF,10,10,0,40,0,546.7000000476837,39,0,486.2000000476837,10,1,experiment,NA,NA,1,0.3,0.7,3,2,120,3,NA
fcp-trial,155,672902,0.0-130.0-0.0,voc_e2,11813,"[{""event"":""fullscreenenter"",""trial"":1,""time"":2597}]",NA,NA,NA,NA,NA,4,#FA92F8,#1CD855,0,10,0,40,0,1671.3999999761581,37,1,591.7999999523163,0,0,experiment,NA,NA,2,0.5,0.5,5,4,121,3,NA
fcp-trial,156,676251,0.0-131.0-0.0,voc_e2,11813,"[{""event"":""fullscreenenter"",""trial"":1,""time"":2597}]",NA,NA,NA,NA,NA,1,#741CD8,#D8271C,0,10,0,38,1,837.5999999046326,39,0,1005.1999999284744,10,1,experiment,NA,NA,0,0.1,0.9,1,0,122,3,NA
fcp-trial,157,679571,0.0-132.0-0.0,voc_e2,11813,"[{""event"":""fullscreenenter"",""trial"":1,""time"":2597}]",NA,NA,NA,NA,NA,0,#FA92F8,#1CD855,10,0,0,38,1,910.2999999523163,37,1,905.100000023842,10,0,experiment,NA,NA,2,0.5,0.5,5,4,123,3,NA
fcp-trial,158,682131,0.0-133.0-0.0,voc_e2,11813,"[{""event"":""fullscreenenter"",""trial"":1,""time"":2597}]",NA,NA,NA,NA,NA,3,#3386FF,#D89F1C,10,0,1,40,0,776.8999999761581,39,0,279,0,0,experiment,NA,NA,1,0.7,0.3,2,3,124,3,NA
fcp-trial,159,685036,0.0-134.0-0.0,voc_e2,11813,"[{""event"":""fullscreenenter"",""trial"":1,""time"":2597}]",NA,NA,NA,NA,NA,2,#FA92F8,#1CD855,10,0,0,38,1,794.7000000476837,37,1,608.1000000238419,10,0,experiment,NA,NA,2,0.5,0.5,5,4,125,3,NA
fcp-trial,160,687696,0.0-135.0-0.0,voc_e2,11813,"[{""event"":""fullscreenenter"",""trial"":1,""time"":2597}]",NA,NA,NA,NA,NA,0,#741CD8,#D8271C,0,10,0,38,1,802.7000000476837,39,0,353,10,1,experiment,NA,NA,0,0.1,0.9,1,0,126,3,NA
fcp-trial,161,690399,0.0-136.0-0.0,voc_e2,11813,"[{""event"":""fullscreenenter"",""trial"":1,""time"":2597}]",NA,NA,NA,NA,NA,6,#D89F1C,#3386FF,0,10,0,40,0,776.6000000238419,39,0,420.7999999523163,10,1,experiment,NA,NA,1,0.3,0.7,3,2,127,3,NA
fcp-trial,162,693007,0.0-137.0-0.0,voc_e2,11813,"[{""event"":""fullscreenenter"",""trial"":1,""time"":2597}]",NA,NA,NA,NA,NA,1,#3386FF,#D89F1C,10,0,1,38,1,720,37,1,383.5,10,1,experiment,NA,NA,1,0.7,0.3,2,3,128,3,NA
fcp-trial,163,696647,0.0-138.0-0.0,voc_e2,11813,"[{""event"":""fullscreenenter"",""trial"":1,""time"":2597}]",NA,NA,NA,NA,NA,3,#D8271C,#741CD8,10,0,1,40,0,1798.9000000953674,39,0,336.7000000476837,0,0,experiment,NA,NA,0,0.9,0.1,0,1,129,3,NA
fcp-trial,164,699618,0.0-139.0-0.0,voc_e2,11813,"[{""event"":""fullscreenenter"",""trial"":1,""time"":2597}]",NA,NA,NA,NA,NA,4,#741CD8,#D8271C,0,10,0,40,0,1168.7000000476837,39,0,299.10000002384186,10,1,experiment,NA,NA,0,0.1,0.9,1,0,130,3,NA
fcp-trial,165,703268,0.0-140.0-0.0,voc_e2,11813,"[{""event"":""fullscreenenter"",""trial"":1,""time"":2597}]",NA,NA,NA,NA,NA,0,#D89F1C,#3386FF,10,10,0,38,1,876.7000000476837,39,0,1268.6999999284744,10,1,experiment,NA,NA,1,0.3,0.7,3,2,131,3,NA
fcp-trial,166,705889,0.0-141.0-0.0,voc_e2,11813,"[{""event"":""fullscreenenter"",""trial"":1,""time"":2597}]",NA,NA,NA,NA,NA,5,#FA92F8,#1CD855,0,0,0,40,0,836.7999999523163,39,0,279.6999999284744,0,1,experiment,NA,NA,2,0.5,0.5,5,4,132,3,NA
fcp-trial,167,709314,0.0-142.0-0.0,voc_e2,11813,"[{""event"":""fullscreenenter"",""trial"":1,""time"":2597}]",NA,NA,NA,NA,NA,2,#D89F1C,#3386FF,10,0,0,38,1,1114.8999999761581,39,0,805.2999999523163,0,1,experiment,NA,NA,1,0.3,0.7,3,2,133,3,NA
fcp-trial,168,713300,0.0-143.0-0.0,voc_e2,11813,"[{""event"":""fullscreenenter"",""trial"":1,""time"":2597}]",NA,NA,NA,NA,NA,0,#FA92F8,#1CD855,10,10,0,38,1,1179.8999999761581,37,1,1302.899999976158,10,0,experiment,NA,NA,2,0.5,0.5,5,4,134,3,NA
fcp-trial,169,716572,0.0-144.0-0.0,voc_e2,11813,"[{""event"":""fullscreenenter"",""trial"":1,""time"":2597}]",NA,NA,NA,NA,NA,1,#D8271C,#741CD8,0,0,1,38,1,865.5,37,1,902.2999999523164,0,1,experiment,NA,NA,0,0.9,0.1,0,1,135,3,NA
fcp-trial,170,720772,0.0-145.0-0.0,voc_e2,11813,"[{""event"":""fullscreenenter"",""trial"":1,""time"":2597}]",NA,NA,NA,NA,NA,2,#1CD855,#FA92F8,10,10,1,38,1,983.8999999761581,39,0,1713.100000023842,10,0,experiment,NA,NA,2,0.5,0.5,4,5,136,4,NA
fcp-trial,171,723592,0.0-146.0-0.0,voc_e2,11813,"[{""event"":""fullscreenenter"",""trial"":1,""time"":2597}]",NA,NA,NA,NA,NA,4,#3386FF,#D89F1C,10,0,1,40,0,910.8999999761581,37,1,405.5,10,1,experiment,NA,NA,1,0.7,0.3,2,3,137,4,NA
fcp-trial,172,726200,0.0-147.0-0.0,voc_e2,11813,"[{""event"":""fullscreenenter"",""trial"":1,""time"":2597}]",NA,NA,NA,NA,NA,6,#D8271C,#741CD8,10,0,1,40,0,698.5,37,1,405.10000002384186,10,1,experiment,NA,NA,0,0.9,0.1,0,1,138,4,NA
fcp-trial,173,729068,0.0-148.0-0.0,voc_e2,11813,"[{""event"":""fullscreenenter"",""trial"":1,""time"":2597}]",NA,NA,NA,NA,NA,2,#D8271C,#741CD8,10,0,1,38,1,1000.8999999761581,37,1,362.7000000476837,10,1,experiment,NA,NA,0,0.9,0.1,0,1,139,4,NA
fcp-trial,174,732040,0.0-149.0-0.0,voc_e2,11813,"[{""event"":""fullscreenenter"",""trial"":1,""time"":2597}]",NA,NA,NA,NA,NA,1,#FA92F8,#1CD855,10,10,0,38,1,707.2000000476837,37,1,760.5,10,0,experiment,NA,NA,2,0.5,0.5,5,4,140,4,NA
fcp-trial,175,734342,0.0-150.0-0.0,voc_e2,11813,"[{""event"":""fullscreenenter"",""trial"":1,""time"":2597}]",NA,NA,NA,NA,NA,6,#1CD855,#FA92F8,0,0,1,38,1,523.8999999761581,39,0,275.5,0,0,experiment,NA,NA,2,0.5,0.5,4,5,141,4,NA
fcp-trial,176,739138,0.0-151.0-0.0,voc_e2,11813,"[{""event"":""fullscreenenter"",""trial"":1,""time"":2597}]",NA,NA,NA,NA,NA,3,#D89F1C,#3386FF,10,10,0,38,1,1726,37,1,1566.2999999523165,10,0,experiment,NA,NA,1,0.3,0.7,3,2,142,4,NA
fcp-trial,177,742216,0.0-152.0-0.0,voc_e2,11813,"[{""event"":""fullscreenenter"",""trial"":1,""time"":2597}]",NA,NA,NA,NA,NA,4,#1CD855,#FA92F8,10,10,1,40,0,1225.5,39,0,349.6999999284744,10,0,experiment,NA,NA,2,0.5,0.5,4,5,143,4,NA
fcp-trial,178,744646,0.0-153.0-0.0,voc_e2,11813,"[{""event"":""fullscreenenter"",""trial"":1,""time"":2597}]",NA,NA,NA,NA,NA,5,#741CD8,#D8271C,0,10,0,40,0,663.6000000238419,39,0,263.39999997615814,10,1,experiment,NA,NA,0,0.1,0.9,1,0,144,4,NA
fcp-trial,179,748478,0.0-154.0-0.0,voc_e2,11813,"[{""event"":""fullscreenenter"",""trial"":1,""time"":2597}]",NA,NA,NA,NA,NA,3,#1CD855,#FA92F8,0,0,1,38,1,1222.0999999046326,39,0,1105.8000000715256,0,0,experiment,NA,NA,2,0.5,0.5,4,5,145,4,NA
fcp-trial,180,750992,0.0-155.0-0.0,voc_e2,11813,"[{""event"":""fullscreenenter"",""trial"":1,""time"":2597}]",NA,NA,NA,NA,NA,5,#3386FF,#D89F1C,0,0,1,40,0,726.6000000238419,39,0,282.09999990463257,0,0,experiment,NA,NA,1,0.7,0.3,2,3,146,4,NA
fcp-trial,181,754135,0.0-156.0-0.0,voc_e2,11813,"[{""event"":""fullscreenenter"",""trial"":1,""time"":2597}]",NA,NA,NA,NA,NA,0,#741CD8,#D8271C,0,10,0,38,1,1131.5999999046326,39,0,508.1999999284744,10,1,experiment,NA,NA,0,0.1,0.9,1,0,147,4,NA
fcp-trial,182,756838,0.0-157.0-0.0,voc_e2,11813,"[{""event"":""fullscreenenter"",""trial"":1,""time"":2597}]",NA,NA,NA,NA,NA,2,#741CD8,#D8271C,0,10,0,40,0,791.7000000476837,37,1,408.3000000715256,0,0,experiment,NA,NA,0,0.1,0.9,1,0,148,4,NA
fcp-trial,183,759748,0.0-158.0-0.0,voc_e2,11813,"[{""event"":""fullscreenenter"",""trial"":1,""time"":2597}]",NA,NA,NA,NA,NA,6,#1CD855,#FA92F8,0,0,1,40,0,983.6000000238419,37,1,423.10000002384186,0,1,experiment,NA,NA,2,0.5,0.5,4,5,149,4,NA
fcp-trial,184,762406,0.0-159.0-0.0,voc_e2,11813,"[{""event"":""fullscreenenter"",""trial"":1,""time"":2597}]",NA,NA,NA,NA,NA,3,#D89F1C,#3386FF,0,10,0,40,0,881.1000000238419,39,0,269.09999990463257,10,1,experiment,NA,NA,1,0.3,0.7,3,2,150,4,NA
fcp-trial,185,764892,0.0-160.0-0.0,voc_e2,11813,"[{""event"":""fullscreenenter"",""trial"":1,""time"":2597}]",NA,NA,NA,NA,NA,6,#3386FF,#D89F1C,0,10,1,40,0,694.5,39,0,287,10,0,experiment,NA,NA,1,0.7,0.3,2,3,151,4,NA
fcp-trial,186,767622,0.0-161.0-0.0,voc_e2,11813,"[{""event"":""fullscreenenter"",""trial"":1,""time"":2597}]",NA,NA,NA,NA,NA,4,#D8271C,#741CD8,10,0,1,40,0,909.8999999761581,39,0,316.89999997615814,0,0,experiment,NA,NA,0,0.9,0.1,0,1,152,4,NA
fcp-trial,187,770149,0.0-162.0-0.0,voc_e2,11813,"[{""event"":""fullscreenenter"",""trial"":1,""time"":2597}]",NA,NA,NA,NA,NA,5,#D89F1C,#3386FF,10,10,0,40,0,623.1000000238419,37,1,399.10000002384186,10,0,experiment,NA,NA,1,0.3,0.7,3,2,153,4,NA
fcp-trial,188,772692,0.0-163.0-0.0,voc_e2,11813,"[{""event"":""fullscreenenter"",""trial"":1,""time"":2597}]",NA,NA,NA,NA,NA,4,#FA92F8,#1CD855,0,10,0,40,0,625.3000000715256,37,1,414.7999999523163,0,0,experiment,NA,NA,2,0.5,0.5,5,4,154,4,NA
fcp-trial,189,775384,0.0-164.0-0.0,voc_e2,11813,"[{""event"":""fullscreenenter"",""trial"":1,""time"":2597}]",NA,NA,NA,NA,NA,3,#D8271C,#741CD8,10,0,1,38,1,927.1999999284744,37,1,261.6999999284744,10,1,experiment,NA,NA,0,0.9,0.1,0,1,155,4,NA
fcp-trial,190,777802,0.0-165.0-0.0,voc_e2,11813,"[{""event"":""fullscreenenter"",""trial"":1,""time"":2597}]",NA,NA,NA,NA,NA,5,#D8271C,#741CD8,10,0,1,40,0,541.1999999284744,39,0,372.7000000476837,0,0,experiment,NA,NA,0,0.9,0.1,0,1,156,4,NA
fcp-trial,191,781198,0.0-166.0-0.0,voc_e2,11813,"[{""event"":""fullscreenenter"",""trial"":1,""time"":2597}]",NA,NA,NA,NA,NA,0,#FA92F8,#1CD855,0,0,0,38,1,947.2999999523163,37,1,943.7999999523164,0,0,experiment,NA,NA,2,0.5,0.5,5,4,157,4,NA
fcp-trial,192,783770,0.0-167.0-0.0,voc_e2,11813,"[{""event"":""fullscreenenter"",""trial"":1,""time"":2597}]",NA,NA,NA,NA,NA,4,#D89F1C,#3386FF,10,0,0,40,0,772.6999999284744,39,0,295.1999999284744,0,1,experiment,NA,NA,1,0.3,0.7,3,2,158,4,NA
fcp-trial,193,786512,0.0-168.0-0.0,voc_e2,11813,"[{""event"":""fullscreenenter"",""trial"":1,""time"":2597}]",NA,NA,NA,NA,NA,0,#D8271C,#741CD8,0,0,1,38,1,741.6000000238419,37,1,497,0,1,experiment,NA,NA,0,0.9,0.1,0,1,159,4,NA
fcp-trial,194,789516,0.0-169.0-0.0,voc_e2,11813,"[{""event"":""fullscreenenter"",""trial"":1,""time"":2597}]",NA,NA,NA,NA,NA,1,#1CD855,#FA92F8,10,0,1,38,1,1179.3999999761581,39,0,320.2000000476837,0,0,experiment,NA,NA,2,0.5,0.5,4,5,160,4,NA
fcp-trial,195,792930,0.0-170.0-0.0,voc_e2,11813,"[{""event"":""fullscreenenter"",""trial"":1,""time"":2597}]",NA,NA,NA,NA,NA,2,#3386FF,#D89F1C,10,10,1,38,1,1342.7999999523163,37,1,567,10,1,experiment,NA,NA,1,0.7,0.3,2,3,161,4,NA
fcp-trial,196,795501,0.0-171.0-0.0,voc_e2,11813,"[{""event"":""fullscreenenter"",""trial"":1,""time"":2597}]",NA,NA,NA,NA,NA,0,#3386FF,#D89F1C,0,0,1,38,1,807.1000000238419,37,1,259,0,1,experiment,NA,NA,1,0.7,0.3,2,3,162,4,NA
fcp-trial,197,800415,0.0-172.0-0.0,voc_e2,11813,"[{""event"":""fullscreenenter"",""trial"":1,""time"":2597}]",NA,NA,NA,NA,NA,1,#D8271C,#741CD8,10,0,1,38,1,1236.5,37,1,2174,10,1,experiment,NA,NA,0,0.9,0.1,0,1,163,4,NA
fcp-trial,198,803794,0.0-173.0-0.0,voc_e2,11813,"[{""event"":""fullscreenenter"",""trial"":1,""time"":2597}]",NA,NA,NA,NA,NA,2,#FA92F8,#1CD855,10,0,0,40,0,1552.6000000238419,39,0,323.5,0,1,experiment,NA,NA,2,0.5,0.5,5,4,164,4,NA
fcp-trial,199,806382,0.0-174.0-0.0,voc_e2,11813,"[{""event"":""fullscreenenter"",""trial"":1,""time"":2597}]",NA,NA,NA,NA,NA,6,#741CD8,#D8271C,10,10,0,40,0,785.5,39,0,299.10000002384186,10,1,experiment,NA,NA,0,0.1,0.9,1,0,165,4,NA
fcp-trial,200,809146,0.0-175.0-0.0,voc_e2,11813,"[{""event"":""fullscreenenter"",""trial"":1,""time"":2597}]",NA,NA,NA,NA,NA,5,#FA92F8,#1CD855,10,0,0,40,0,969.2000000476837,39,0,290.2000000476837,0,1,experiment,NA,NA,2,0.5,0.5,5,4,166,4,NA
fcp-trial,201,811788,0.0-176.0-0.0,voc_e2,11813,"[{""event"":""fullscreenenter"",""trial"":1,""time"":2597}]",NA,NA,NA,NA,NA,1,#D89F1C,#3386FF,0,0,0,40,0,726.1000000238419,39,0,413.2999999523163,0,1,experiment,NA,NA,1,0.3,0.7,3,2,167,4,NA
fcp-trial,202,814524,0.0-177.0-0.0,voc_e2,11813,"[{""event"":""fullscreenenter"",""trial"":1,""time"":2597}]",NA,NA,NA,NA,NA,3,#1CD855,#FA92F8,0,10,1,40,0,936.2999999523163,39,0,296.5,10,0,experiment,NA,NA,2,0.5,0.5,4,5,168,4,NA
fcp-trial,203,819006,0.0-178.0-0.0,voc_e2,11813,"[{""event"":""fullscreenenter"",""trial"":1,""time"":2597}]",NA,NA,NA,NA,NA,2,#D89F1C,#3386FF,0,0,0,38,1,2113.399999976158,39,0,865.6999999284744,0,1,experiment,NA,NA,1,0.3,0.7,3,2,169,4,NA
fcp-trial,204,821544,0.0-179.0-0.0,voc_e2,11813,"[{""event"":""fullscreenenter"",""trial"":1,""time"":2597}]",NA,NA,NA,NA,NA,5,#1CD855,#FA92F8,0,10,1,40,0,690.5,39,0,343,10,0,experiment,NA,NA,2,0.5,0.5,4,5,170,4,NA
fcp-trial,205,824549,0.0-180.0-0.0,voc_e2,11813,"[{""event"":""fullscreenenter"",""trial"":1,""time"":2597}]",NA,NA,NA,NA,NA,0,#FA92F8,#1CD855,0,10,0,38,1,963.5,37,1,537.2999999523163,0,0,experiment,NA,NA,2,0.5,0.5,5,4,171,4,NA
fcp-trial,206,827400,0.0-181.0-0.0,voc_e2,11813,"[{""event"":""fullscreenenter"",""trial"":1,""time"":2597}]",NA,NA,NA,NA,NA,5,#741CD8,#D8271C,0,10,0,40,0,652.9000000953674,37,1,695,0,0,experiment,NA,NA,0,0.1,0.9,1,0,172,4,NA
fcp-trial,207,831140,0.0-182.0-0.0,voc_e2,11813,"[{""event"":""fullscreenenter"",""trial"":1,""time"":2597}]",NA,NA,NA,NA,NA,3,#FA92F8,#1CD855,0,0,0,38,1,1369,37,1,867.2000000476837,0,0,experiment,NA,NA,2,0.5,0.5,5,4,173,4,NA
fcp-trial,208,834386,0.0-183.0-0.0,voc_e2,11813,"[{""event"":""fullscreenenter"",""trial"":1,""time"":2597}]",NA,NA,NA,NA,NA,5,#3386FF,#D89F1C,10,10,1,40,0,1407.3000000715256,39,0,334.10000002384186,10,0,experiment,NA,NA,1,0.7,0.3,2,3,174,4,NA
fcp-trial,209,837714,0.0-184.0-0.0,voc_e2,11813,"[{""event"":""fullscreenenter"",""trial"":1,""time"":2597}]",NA,NA,NA,NA,NA,2,#1CD855,#FA92F8,0,0,1,38,1,1333.5999999046326,39,0,488.7999999523163,0,0,experiment,NA,NA,2,0.5,0.5,4,5,175,4,NA
fcp-trial,210,841058,0.0-185.0-0.0,voc_e2,11813,"[{""event"":""fullscreenenter"",""trial"":1,""time"":2597}]",NA,NA,NA,NA,NA,1,#741CD8,#D8271C,0,10,0,38,1,1042.6000000238419,39,0,796.8999999761581,10,1,experiment,NA,NA,0,0.1,0.9,1,0,176,4,NA
fcp-trial,211,844156,0.0-186.0-0.0,voc_e2,11813,"[{""event"":""fullscreenenter"",""trial"":1,""time"":2597}]",NA,NA,NA,NA,NA,0,#D8271C,#741CD8,10,10,1,38,1,855.1000000238419,37,1,739.2999999523163,10,1,experiment,NA,NA,0,0.9,0.1,0,1,177,4,NA
fcp-trial,212,846742,0.0-187.0-0.0,voc_e2,11813,"[{""event"":""fullscreenenter"",""trial"":1,""time"":2597}]",NA,NA,NA,NA,NA,6,#D89F1C,#3386FF,0,10,0,40,0,654,37,1,428.7999999523163,0,0,experiment,NA,NA,1,0.3,0.7,3,2,178,4,NA
fcp-trial,213,851005,0.0-188.0-0.0,voc_e2,11813,"[{""event"":""fullscreenenter"",""trial"":1,""time"":2597}]",NA,NA,NA,NA,NA,1,#1CD855,#FA92F8,10,10,1,38,1,1053.2000000476837,39,0,1707.5,10,0,experiment,NA,NA,2,0.5,0.5,4,5,179,4,NA
fcp-trial,214,856515,0.0-189.0-0.0,voc_e2,11813,"[{""event"":""fullscreenenter"",""trial"":1,""time"":2597}]",NA,NA,NA,NA,NA,3,#741CD8,#D8271C,0,0,0,38,1,3751.7000000476837,39,0,255.10000002384183,0,1,experiment,NA,NA,0,0.1,0.9,1,0,180,4,NA
fcp-trial,215,858986,0.0-190.0-0.0,voc_e2,11813,"[{""event"":""fullscreenenter"",""trial"":1,""time"":2597}]",NA,NA,NA,NA,NA,6,#D8271C,#741CD8,10,0,1,38,1,646.5,37,1,320.6999999284744,10,1,experiment,NA,NA,0,0.9,0.1,0,1,181,5,NA
fcp-trial,216,862424,0.0-191.0-0.0,voc_e2,11813,"[{""event"":""fullscreenenter"",""trial"":1,""time"":2597}]",NA,NA,NA,NA,NA,1,#3386FF,#D89F1C,10,0,1,38,1,795.3999999761581,37,1,1139.5,10,1,experiment,NA,NA,1,0.7,0.3,2,3,182,5,NA
fcp-trial,217,865346,0.0-192.0-0.0,voc_e2,11813,"[{""event"":""fullscreenenter"",""trial"":1,""time"":2597}]",NA,NA,NA,NA,NA,6,#1CD855,#FA92F8,10,10,1,40,0,1068.3999999761581,39,0,349.10000002384186,10,0,experiment,NA,NA,2,0.5,0.5,4,5,183,5,NA
fcp-trial,218,868002,0.0-193.0-0.0,voc_e2,11813,"[{""event"":""fullscreenenter"",""trial"":1,""time"":2597}]",NA,NA,NA,NA,NA,4,#D8271C,#741CD8,10,0,1,40,0,680.8999999761581,39,0,471.2999999523163,0,0,experiment,NA,NA,0,0.9,0.1,0,1,184,5,NA
fcp-trial,219,871110,0.0-194.0-0.0,voc_e2,11813,"[{""event"":""fullscreenenter"",""trial"":1,""time"":2597}]",NA,NA,NA,NA,NA,2,#741CD8,#D8271C,0,10,0,38,1,1022.1999999284744,39,0,581.3999999761581,10,1,experiment,NA,NA,0,0.1,0.9,1,0,185,5,NA
fcp-trial,220,873765,0.0-195.0-0.0,voc_e2,11813,"[{""event"":""fullscreenenter"",""trial"":1,""time"":2597}]",NA,NA,NA,NA,NA,4,#1CD855,#FA92F8,0,0,1,40,0,781.2999999523163,37,1,371,0,1,experiment,NA,NA,2,0.5,0.5,4,5,186,5,NA
fcp-trial,221,876799,0.0-196.0-0.0,voc_e2,11813,"[{""event"":""fullscreenenter"",""trial"":1,""time"":2597}]",NA,NA,NA,NA,NA,0,#3386FF,#D89F1C,10,0,1,38,1,732.8999999761581,37,1,797.1999999284744,10,1,experiment,NA,NA,1,0.7,0.3,2,3,187,5,NA
fcp-trial,222,879101,0.0-197.0-0.0,voc_e2,11813,"[{""event"":""fullscreenenter"",""trial"":1,""time"":2597}]",NA,NA,NA,NA,NA,4,#3386FF,#D89F1C,0,0,1,38,1,521.5,37,1,276.6999999284744,0,1,experiment,NA,NA,1,0.7,0.3,2,3,188,5,NA
fcp-trial,223,881623,0.0-198.0-0.0,voc_e2,11813,"[{""event"":""fullscreenenter"",""trial"":1,""time"":2597}]",NA,NA,NA,NA,NA,3,#3386FF,#D89F1C,10,10,1,38,1,484.10000002384186,37,1,537.3000000715256,10,1,experiment,NA,NA,1,0.7,0.3,2,3,189,5,NA
fcp-trial,224,884253,0.0-199.0-0.0,voc_e2,11813,"[{""event"":""fullscreenenter"",""trial"":1,""time"":2597}]",NA,NA,NA,NA,NA,6,#1CD855,#FA92F8,10,0,1,40,0,831.3999999761581,39,0,294,0,0,experiment,NA,NA,2,0.5,0.5,4,5,190,5,NA
fcp-trial,225,886999,0.0-200.0-0.0,voc_e2,11813,"[{""event"":""fullscreenenter"",""trial"":1,""time"":2597}]",NA,NA,NA,NA,NA,3,#D8271C,#741CD8,10,0,1,40,0,698.3000000715256,37,1,543.7999999523163,10,1,experiment,NA,NA,0,0.9,0.1,0,1,191,5,NA
fcp-trial,226,889669,0.0-201.0-0.0,voc_e2,11813,"[{""event"":""fullscreenenter"",""trial"":1,""time"":2597}]",NA,NA,NA,NA,NA,4,#741CD8,#D8271C,0,10,0,40,0,890.8999999761581,39,0,274.60000002384186,10,1,experiment,NA,NA,0,0.1,0.9,1,0,192,5,NA
fcp-trial,227,892953,0.0-202.0-0.0,voc_e2,11813,"[{""event"":""fullscreenenter"",""trial"":1,""time"":2597}]",NA,NA,NA,NA,NA,3,#1CD855,#FA92F8,10,0,1,40,0,1396,39,0,384.40000009536743,0,0,experiment,NA,NA,2,0.5,0.5,4,5,193,5,NA
fcp-trial,228,897247,0.0-203.0-0.0,voc_e2,11813,"[{""event"":""fullscreenenter"",""trial"":1,""time"":2597}]",NA,NA,NA,NA,NA,1,#D89F1C,#3386FF,0,10,0,38,1,1312.6000000238419,39,0,1476.5999999046326,10,1,experiment,NA,NA,1,0.3,0.7,3,2,194,5,NA
fcp-trial,229,899790,0.0-204.0-0.0,voc_e2,11813,"[{""event"":""fullscreenenter"",""trial"":1,""time"":2597}]",NA,NA,NA,NA,NA,5,#3386FF,#D89F1C,0,0,1,38,1,647.1999999284744,37,1,392.60000002384186,0,1,experiment,NA,NA,1,0.7,0.3,2,3,195,5,NA
fcp-trial,230,902868,0.0-205.0-0.0,voc_e2,11813,"[{""event"":""fullscreenenter"",""trial"":1,""time"":2597}]",NA,NA,NA,NA,NA,5,#FA92F8,#1CD855,10,10,0,40,0,1177.6999999284744,37,1,395.60000002384186,10,0,experiment,NA,NA,2,0.5,0.5,5,4,196,5,NA
fcp-trial,231,907005,0.0-206.0-0.0,voc_e2,11813,"[{""event"":""fullscreenenter"",""trial"":1,""time"":2597}]",NA,NA,NA,NA,NA,0,#741CD8,#D8271C,0,10,0,38,1,2376.5,39,0,257.10000002384186,10,1,experiment,NA,NA,0,0.1,0.9,1,0,197,5,NA
fcp-trial,232,909638,0.0-207.0-0.0,voc_e2,11813,"[{""event"":""fullscreenenter"",""trial"":1,""time"":2597}]",NA,NA,NA,NA,NA,4,#1CD855,#FA92F8,10,0,1,40,0,745,37,1,384,10,1,experiment,NA,NA,2,0.5,0.5,4,5,198,5,NA
fcp-trial,233,912187,0.0-208.0-0.0,voc_e2,11813,"[{""event"":""fullscreenenter"",""trial"":1,""time"":2597}]",NA,NA,NA,NA,NA,5,#D8271C,#741CD8,10,0,1,40,0,744,39,0,301.5,0,0,experiment,NA,NA,0,0.9,0.1,0,1,199,5,NA
fcp-trial,234,915729,0.0-209.0-0.0,voc_e2,11813,"[{""event"":""fullscreenenter"",""trial"":1,""time"":2597}]",NA,NA,NA,NA,NA,4,#3386FF,#D89F1C,0,0,1,40,0,1670.5999999046326,37,1,366.5,0,1,experiment,NA,NA,1,0.7,0.3,2,3,200,5,NA
fcp-trial,235,919039,0.0-210.0-0.0,voc_e2,11813,"[{""event"":""fullscreenenter"",""trial"":1,""time"":2597}]",NA,NA,NA,NA,NA,1,#1CD855,#FA92F8,0,10,1,38,1,1309.3000000715256,39,0,497.60000002384186,10,0,experiment,NA,NA,2,0.5,0.5,4,5,201,5,NA
fcp-trial,236,922298,0.0-211.0-0.0,voc_e2,11813,"[{""event"":""fullscreenenter"",""trial"":1,""time"":2597}]",NA,NA,NA,NA,NA,2,#D8271C,#741CD8,10,0,1,38,1,1177.6000000238419,37,1,577.1000000238419,10,1,experiment,NA,NA,0,0.9,0.1,0,1,202,5,NA
fcp-trial,237,925171,0.0-212.0-0.0,voc_e2,11813,"[{""event"":""fullscreenenter"",""trial"":1,""time"":2597}]",NA,NA,NA,NA,NA,0,#3386FF,#D89F1C,10,0,1,38,1,888.8000000715256,37,1,481.3000000715256,10,1,experiment,NA,NA,1,0.7,0.3,2,3,203,5,NA
fcp-trial,238,928259,0.0-213.0-0.0,voc_e2,11813,"[{""event"":""fullscreenenter"",""trial"":1,""time"":2597}]",NA,NA,NA,NA,NA,6,#D8271C,#741CD8,10,0,1,38,1,846.6000000238419,37,1,736.7000000476837,10,1,experiment,NA,NA,0,0.9,0.1,0,1,204,5,NA
fcp-trial,239,931068,0.0-214.0-0.0,voc_e2,11813,"[{""event"":""fullscreenenter"",""trial"":1,""time"":2597}]",NA,NA,NA,NA,NA,6,#3386FF,#D89F1C,10,10,1,40,0,955.2000000476837,39,0,350.10000002384186,10,0,experiment,NA,NA,1,0.7,0.3,2,3,205,5,NA
fcp-trial,240,934402,0.0-215.0-0.0,voc_e2,11813,"[{""event"":""fullscreenenter"",""trial"":1,""time"":2597}]",NA,NA,NA,NA,NA,2,#1CD855,#FA92F8,0,10,1,38,1,1146.5999999046326,39,0,682.8999999761581,10,0,experiment,NA,NA,2,0.5,0.5,4,5,206,5,NA
fcp-trial,241,937207,0.0-216.0-0.0,voc_e2,11813,"[{""event"":""fullscreenenter"",""trial"":1,""time"":2597}]",NA,NA,NA,NA,NA,2,#3386FF,#D89F1C,10,10,1,38,1,719.6999999284744,37,1,580.6999999284744,10,1,experiment,NA,NA,1,0.7,0.3,2,3,207,5,NA
fcp-trial,242,939829,0.0-217.0-0.0,voc_e2,11813,"[{""event"":""fullscreenenter"",""trial"":1,""time"":2597}]",NA,NA,NA,NA,NA,0,#FA92F8,#1CD855,0,10,0,38,1,639.3999999761581,37,1,479.6999999284744,0,0,experiment,NA,NA,2,0.5,0.5,5,4,208,5,NA
fcp-trial,243,943120,0.0-218.0-0.0,voc_e2,11813,"[{""event"":""fullscreenenter"",""trial"":1,""time"":2597}]",NA,NA,NA,NA,NA,1,#741CD8,#D8271C,0,10,0,38,1,1380,39,0,403.5,10,1,experiment,NA,NA,0,0.1,0.9,1,0,209,5,NA
fcp-trial,244,949399,0.0-219.0-0.0,voc_e2,11813,"[{""event"":""fullscreenenter"",""trial"":1,""time"":2597}]",NA,NA,NA,NA,NA,3,#3386FF,#D89F1C,0,0,1,40,0,4375.099999904633,37,1,401.09999990463257,0,1,experiment,NA,NA,1,0.7,0.3,2,3,210,5,NA
audio-instructions,245,954386,0.0-220.0,voc_e2,11813,"[{""event"":""fullscreenenter"",""trial"":1,""time"":2597}]",NA,196.5,static/audio/pause.wav,NA,0,NA,NA,NA,NA,NA,NA,NA,NA,NA,NA,NA,NA,NA,NA,NA,NA,NA,NA,NA,NA,NA,NA,NA,NA,NA
fcp-trial,246,958166,0.0-221.0-0.0,voc_e2,11813,"[{""event"":""fullscreenenter"",""trial"":1,""time"":2597}]",NA,NA,NA,NA,NA,1,#3386FF,#D89F1C,10,0,1,38,1,1994.4000000953674,37,1,279,10,1,experiment,NA,NA,1,0.7,0.3,2,3,211,5,NA
fcp-trial,247,961402,0.0-222.0-0.0,voc_e2,11813,"[{""event"":""fullscreenenter"",""trial"":1,""time"":2597}]",NA,NA,NA,NA,NA,5,#D89F1C,#3386FF,0,10,0,40,0,1253.5,37,1,464.40000009536743,0,0,experiment,NA,NA,1,0.3,0.7,3,2,212,5,NA
fcp-trial,248,964572,0.0-223.0-0.0,voc_e2,11813,"[{""event"":""fullscreenenter"",""trial"":1,""time"":2597}]",NA,NA,NA,NA,NA,4,#D8271C,#741CD8,10,0,1,38,1,1081,37,1,573.5,10,1,experiment,NA,NA,0,0.9,0.1,0,1,213,5,NA
fcp-trial,249,967426,0.0-224.0-0.0,voc_e2,11813,"[{""event"":""fullscreenenter"",""trial"":1,""time"":2597}]",NA,NA,NA,NA,NA,1,#741CD8,#D8271C,0,10,0,38,1,918.3999999761581,39,0,430.09999990463257,10,1,experiment,NA,NA,0,0.1,0.9,1,0,214,5,NA
fcp-trial,250,970262,0.0-225.0-0.0,voc_e2,11813,"[{""event"":""fullscreenenter"",""trial"":1,""time"":2597}]",NA,NA,NA,NA,NA,0,#3386FF,#D89F1C,10,0,1,38,1,842.6999999284744,37,1,484.90000009536743,10,1,experiment,NA,NA,1,0.7,0.3,2,3,215,5,NA
fcp-trial,251,973348,0.0-226.0-0.0,voc_e2,11813,"[{""event"":""fullscreenenter"",""trial"":1,""time"":2597}]",NA,NA,NA,NA,NA,5,#1CD855,#FA92F8,0,0,1,40,0,1252.5,39,0,327.5,0,0,experiment,NA,NA,2,0.5,0.5,4,5,216,5,NA
fcp-trial,252,976526,0.0-227.0-0.0,voc_e2,11813,"[{""event"":""fullscreenenter"",""trial"":1,""time"":2597}]",NA,NA,NA,NA,NA,5,#741CD8,#D8271C,0,0,0,40,0,1074,37,1,592.1999999284744,0,0,experiment,NA,NA,0,0.1,0.9,1,0,217,5,NA
fcp-trial,253,979080,0.0-228.0-0.0,voc_e2,11813,"[{""event"":""fullscreenenter"",""trial"":1,""time"":2597}]",NA,NA,NA,NA,NA,6,#3386FF,#D89F1C,0,10,1,40,0,756.2000000476837,39,0,282.60000002384186,10,0,experiment,NA,NA,1,0.7,0.3,2,3,218,5,NA
fcp-trial,254,984241,0.0-229.0-0.0,voc_e2,11813,"[{""event"":""fullscreenenter"",""trial"":1,""time"":2597}]",NA,NA,NA,NA,NA,2,#FA92F8,#1CD855,10,0,0,38,1,3278.5,37,1,376.1999999284744,10,0,experiment,NA,NA,2,0.5,0.5,5,4,219,5,NA
fcp-trial,255,987354,0.0-230.0-0.0,voc_e2,11813,"[{""event"":""fullscreenenter"",""trial"":1,""time"":2597}]",NA,NA,NA,NA,NA,4,#3386FF,#D89F1C,10,0,1,40,0,1131.3000000715256,37,1,477.3000000715256,10,1,experiment,NA,NA,1,0.7,0.3,2,3,220,5,NA
fcp-trial,256,990257,0.0-231.0-0.0,voc_e2,11813,"[{""event"":""fullscreenenter"",""trial"":1,""time"":2597}]",NA,NA,NA,NA,NA,6,#741CD8,#D8271C,0,10,0,38,1,1079.1000000238419,39,0,320.60000002384186,10,1,experiment,NA,NA,0,0.1,0.9,1,0,221,5,NA
fcp-trial,257,993011,0.0-232.0-0.0,voc_e2,11813,"[{""event"":""fullscreenenter"",""trial"":1,""time"":2597}]",NA,NA,NA,NA,NA,6,#FA92F8,#1CD855,0,0,0,40,0,866.7000000476837,39,0,383.39999997615814,0,1,experiment,NA,NA,2,0.5,0.5,5,4,222,5,NA
fcp-trial,258,995522,0.0-233.0-0.0,voc_e2,11813,"[{""event"":""fullscreenenter"",""trial"":1,""time"":2597}]",NA,NA,NA,NA,NA,1,#FA92F8,#1CD855,0,10,0,38,1,719,37,1,287,0,0,experiment,NA,NA,2,0.5,0.5,5,4,223,5,NA
fcp-trial,259,998661,0.0-234.0-0.0,voc_e2,11813,"[{""event"":""fullscreenenter"",""trial"":1,""time"":2597}]",NA,NA,NA,NA,NA,3,#1CD855,#FA92F8,0,10,1,40,0,1304.3999999761581,39,0,330.3000000715256,10,0,experiment,NA,NA,2,0.5,0.5,4,5,224,5,NA
fcp-trial,260,1002386,0.0-235.0-0.0,voc_e2,11813,"[{""event"":""fullscreenenter"",""trial"":1,""time"":2597}]",NA,NA,NA,NA,NA,2,#3386FF,#D89F1C,0,10,1,38,1,1848.5999999046326,37,1,370.60000002384186,0,1,experiment,NA,NA,1,0.7,0.3,2,3,225,5,NA
fcp-trial,261,1006318,0.0-236.0-0.0,voc_e2,11813,"[{""event"":""fullscreenenter"",""trial"":1,""time"":2597}]",NA,NA,NA,NA,NA,0,#741CD8,#D8271C,0,10,0,38,1,1101.5,39,0,1328.600000023842,10,1,experiment,NA,NA,0,0.1,0.9,1,0,226,6,NA
fcp-trial,262,1008846,0.0-237.0-0.0,voc_e2,11813,"[{""event"":""fullscreenenter"",""trial"":1,""time"":2597}]",NA,NA,NA,NA,NA,2,#741CD8,#D8271C,10,10,0,38,1,527.3999999761581,39,0,496.5,10,1,experiment,NA,NA,0,0.1,0.9,1,0,227,6,NA
fcp-trial,263,1015145,0.0-238.0-0.0,voc_e2,11813,"[{""event"":""fullscreenenter"",""trial"":1,""time"":2597}]",NA,NA,NA,NA,NA,3,#D89F1C,#3386FF,10,10,0,38,1,3617,39,0,1178.600000023842,10,1,experiment,NA,NA,1,0.3,0.7,3,2,228,6,NA
fcp-trial,264,1017725,0.0-239.0-0.0,voc_e2,11813,"[{""event"":""fullscreenenter"",""trial"":1,""time"":2597}]",NA,NA,NA,NA,NA,4,#FA92F8,#1CD855,10,10,0,38,1,774.7000000476837,37,1,301.8000000715256,10,0,experiment,NA,NA,2,0.5,0.5,5,4,229,6,NA
fcp-trial,265,1020468,0.0-240.0-0.0,voc_e2,11813,"[{""event"":""fullscreenenter"",""trial"":1,""time"":2597}]",NA,NA,NA,NA,NA,3,#D8271C,#741CD8,10,0,1,38,1,776.3000000715256,37,1,463.3000000715256,10,1,experiment,NA,NA,0,0.9,0.1,0,1,230,6,NA
fcp-trial,266,1024259,0.0-241.0-0.0,voc_e2,11813,"[{""event"":""fullscreenenter"",""trial"":1,""time"":2597}]",NA,NA,NA,NA,NA,0,#FA92F8,#1CD855,0,10,0,38,1,1160.1000000238419,37,1,1127.399999976158,0,0,experiment,NA,NA,2,0.5,0.5,5,4,231,6,NA
fcp-trial,267,1027060,0.0-242.0-0.0,voc_e2,11813,"[{""event"":""fullscreenenter"",""trial"":1,""time"":2597}]",NA,NA,NA,NA,NA,0,#741CD8,#D8271C,0,10,0,38,1,955.7000000476837,37,1,341.10000002384186,0,0,experiment,NA,NA,0,0.1,0.9,1,0,232,6,NA
fcp-trial,268,1029626,0.0-243.0-0.0,voc_e2,11813,"[{""event"":""fullscreenenter"",""trial"":1,""time"":2597}]",NA,NA,NA,NA,NA,6,#D8271C,#741CD8,10,0,1,38,1,591,39,0,471.2000000476837,0,0,experiment,NA,NA,0,0.9,0.1,0,1,233,6,NA
fcp-trial,269,1034572,0.0-244.0-0.0,voc_e2,11813,"[{""event"":""fullscreenenter"",""trial"":1,""time"":2597}]",NA,NA,NA,NA,NA,4,#D89F1C,#3386FF,10,10,0,38,1,2365,39,0,1077.5999999046326,10,1,experiment,NA,NA,1,0.3,0.7,3,2,234,6,NA
fcp-trial,270,1037386,0.0-245.0-0.0,voc_e2,11813,"[{""event"":""fullscreenenter"",""trial"":1,""time"":2597}]",NA,NA,NA,NA,NA,4,#FA92F8,#1CD855,0,0,0,40,0,918.1000000238419,37,1,391.2000000476837,0,0,experiment,NA,NA,2,0.5,0.5,5,4,235,6,NA
fcp-trial,271,1040143,0.0-246.0-0.0,voc_e2,11813,"[{""event"":""fullscreenenter"",""trial"":1,""time"":2597}]",NA,NA,NA,NA,NA,2,#1CD855,#FA92F8,10,0,1,38,1,999.6999999284744,39,0,253.20000004768372,0,0,experiment,NA,NA,2,0.5,0.5,4,5,236,6,NA
fcp-trial,272,1043773,0.0-247.0-0.0,voc_e2,11813,"[{""event"":""fullscreenenter"",""trial"":1,""time"":2597}]",NA,NA,NA,NA,NA,3,#741CD8,#D8271C,0,10,0,38,1,1666.6999999284744,39,0,460.90000009536743,10,1,experiment,NA,NA,0,0.1,0.9,1,0,237,6,NA
fcp-trial,273,1046968,0.0-248.0-0.0,voc_e2,11813,"[{""event"":""fullscreenenter"",""trial"":1,""time"":2597}]",NA,NA,NA,NA,NA,1,#D89F1C,#3386FF,10,10,0,38,1,1346.6000000238419,39,0,343.5,10,1,experiment,NA,NA,1,0.3,0.7,3,2,238,6,NA
fcp-trial,274,1050276,0.0-249.0-0.0,voc_e2,11813,"[{""event"":""fullscreenenter"",""trial"":1,""time"":2597}]",NA,NA,NA,NA,NA,0,#FA92F8,#1CD855,10,0,0,40,0,1242.1000000238419,39,0,560.5,0,1,experiment,NA,NA,2,0.5,0.5,5,4,239,6,NA
fcp-trial,275,1053122,0.0-250.0-0.0,voc_e2,11813,"[{""event"":""fullscreenenter"",""trial"":1,""time"":2597}]",NA,NA,NA,NA,NA,1,#741CD8,#D8271C,0,10,0,38,1,896.7999999523163,39,0,445.10000002384186,10,1,experiment,NA,NA,0,0.1,0.9,1,0,240,6,NA
fcp-trial,276,1055498,0.0-251.0-0.0,voc_e2,11813,"[{""event"":""fullscreenenter"",""trial"":1,""time"":2597}]",NA,NA,NA,NA,NA,5,#741CD8,#D8271C,0,10,0,38,1,435.10000002384186,39,0,437.39999997615814,10,1,experiment,NA,NA,0,0.1,0.9,1,0,241,6,NA
fcp-trial,277,1060810,0.0-252.0-0.0,voc_e2,11813,"[{""event"":""fullscreenenter"",""trial"":1,""time"":2597}]",NA,NA,NA,NA,NA,2,#D89F1C,#3386FF,0,10,0,38,1,3276.7000000476837,39,0,531.5,10,1,experiment,NA,NA,1,0.3,0.7,3,2,242,6,NA
fcp-trial,278,1064027,0.0-253.0-0.0,voc_e2,11813,"[{""event"":""fullscreenenter"",""trial"":1,""time"":2597}]",NA,NA,NA,NA,NA,5,#FA92F8,#1CD855,10,0,0,40,0,1288,37,1,426.60000002384186,10,0,experiment,NA,NA,2,0.5,0.5,5,4,243,6,NA
fcp-trial,279,1066679,0.0-254.0-0.0,voc_e2,11813,"[{""event"":""fullscreenenter"",""trial"":1,""time"":2597}]",NA,NA,NA,NA,NA,5,#D89F1C,#3386FF,0,10,0,40,0,866.3999999761581,39,0,281.5,10,1,experiment,NA,NA,1,0.3,0.7,3,2,244,6,NA
fcp-trial,280,1069691,0.0-255.0-0.0,voc_e2,11813,"[{""event"":""fullscreenenter"",""trial"":1,""time"":2597}]",NA,NA,NA,NA,NA,2,#D8271C,#741CD8,10,0,1,38,1,1139.5,37,1,369.5,10,1,experiment,NA,NA,0,0.9,0.1,0,1,245,6,NA
fcp-trial,281,1072679,0.0-256.0-0.0,voc_e2,11813,"[{""event"":""fullscreenenter"",""trial"":1,""time"":2597}]",NA,NA,NA,NA,NA,0,#3386FF,#D89F1C,10,0,1,38,1,1009.1000000238419,37,1,474.90000009536743,10,1,experiment,NA,NA,1,0.7,0.3,2,3,246,6,NA
fcp-trial,282,1075623,0.0-257.0-0.0,voc_e2,11813,"[{""event"":""fullscreenenter"",""trial"":1,""time"":2597}]",NA,NA,NA,NA,NA,6,#3386FF,#D89F1C,10,10,1,38,1,640.2000000476837,37,1,798.8999999761581,10,1,experiment,NA,NA,1,0.7,0.3,2,3,247,6,NA
fcp-trial,283,1080418,0.0-258.0-0.0,voc_e2,11813,"[{""event"":""fullscreenenter"",""trial"":1,""time"":2597}]",NA,NA,NA,NA,NA,3,#FA92F8,#1CD855,0,0,0,38,1,1158.6000000238419,39,0,2131.400000095367,0,1,experiment,NA,NA,2,0.5,0.5,5,4,248,6,NA
fcp-trial,284,1084149,0.0-259.0-0.0,voc_e2,11813,"[{""event"":""fullscreenenter"",""trial"":1,""time"":2597}]",NA,NA,NA,NA,NA,3,#3386FF,#D89F1C,0,10,1,38,1,974.1000000238419,37,1,1253.2999999523165,0,1,experiment,NA,NA,1,0.7,0.3,2,3,249,6,NA
fcp-trial,285,1086515,0.0-260.0-0.0,voc_e2,11813,"[{""event"":""fullscreenenter"",""trial"":1,""time"":2597}]",NA,NA,NA,NA,NA,4,#D8271C,#741CD8,10,0,1,38,1,465.8000000715256,37,1,396.89999997615814,10,1,experiment,NA,NA,0,0.9,0.1,0,1,250,6,NA
fcp-trial,286,1089175,0.0-261.0-0.0,voc_e2,11813,"[{""event"":""fullscreenenter"",""trial"":1,""time"":2597}]",NA,NA,NA,NA,NA,6,#FA92F8,#1CD855,10,0,0,40,0,762.1000000238419,37,1,394.3000000715256,10,0,experiment,NA,NA,2,0.5,0.5,5,4,251,6,NA
fcp-trial,287,1092722,0.0-262.0-0.0,voc_e2,11813,"[{""event"":""fullscreenenter"",""trial"":1,""time"":2597}]",NA,NA,NA,NA,NA,1,#1CD855,#FA92F8,10,0,1,38,1,1670.8999999761581,39,0,371.89999997615814,0,0,experiment,NA,NA,2,0.5,0.5,4,5,252,6,NA
fcp-trial,288,1097431,0.0-263.0-0.0,voc_e2,11813,"[{""event"":""fullscreenenter"",""trial"":1,""time"":2597}]",NA,NA,NA,NA,NA,3,#D89F1C,#3386FF,10,10,0,38,1,908.1999999284744,39,0,2297.600000023842,10,1,experiment,NA,NA,1,0.3,0.7,3,2,253,6,NA
fcp-trial,289,1100212,0.0-264.0-0.0,voc_e2,11813,"[{""event"":""fullscreenenter"",""trial"":1,""time"":2597}]",NA,NA,NA,NA,NA,5,#D8271C,#741CD8,10,0,1,40,0,833.5,39,0,442.2000000476837,0,0,experiment,NA,NA,0,0.9,0.1,0,1,254,6,NA
fcp-trial,290,1102777,0.0-265.0-0.0,voc_e2,11813,"[{""event"":""fullscreenenter"",""trial"":1,""time"":2597}]",NA,NA,NA,NA,NA,3,#D8271C,#741CD8,10,0,1,38,1,781,37,1,281.89999997615814,10,1,experiment,NA,NA,0,0.9,0.1,0,1,255,6,NA
fcp-trial,291,1105895,0.0-266.0-0.0,voc_e2,11813,"[{""event"":""fullscreenenter"",""trial"":1,""time"":2597}]",NA,NA,NA,NA,NA,2,#D89F1C,#3386FF,0,0,0,38,1,1099.4000000953674,39,0,515.5,0,1,experiment,NA,NA,1,0.3,0.7,3,2,256,6,NA
fcp-trial,292,1108680,0.0-267.0-0.0,voc_e2,11813,"[{""event"":""fullscreenenter"",""trial"":1,""time"":2597}]",NA,NA,NA,NA,NA,2,#D8271C,#741CD8,10,0,1,38,1,364.5,37,1,915.100000023842,10,1,experiment,NA,NA,0,0.9,0.1,0,1,257,6,NA
fcp-trial,293,1111759,0.0-268.0-0.0,voc_e2,11813,"[{""event"":""fullscreenenter"",""trial"":1,""time"":2597}]",NA,NA,NA,NA,NA,5,#FA92F8,#1CD855,10,10,0,40,0,1200.7000000476837,37,1,375.60000002384186,10,0,experiment,NA,NA,2,0.5,0.5,5,4,258,6,NA
fcp-trial,294,1114380,0.0-269.0-0.0,voc_e2,11813,"[{""event"":""fullscreenenter"",""trial"":1,""time"":2597}]",NA,NA,NA,NA,NA,2,#1CD855,#FA92F8,10,10,1,38,1,858.3999999761581,39,0,257.10000002384186,10,0,experiment,NA,NA,2,0.5,0.5,4,5,259,6,NA
fcp-trial,295,1117417,0.0-270.0-0.0,voc_e2,11813,"[{""event"":""fullscreenenter"",""trial"":1,""time"":2597}]",NA,NA,NA,NA,NA,0,#D89F1C,#3386FF,0,10,0,38,1,1277.7999999523163,39,0,255.39999997615817,10,1,experiment,NA,NA,1,0.3,0.7,3,2,260,6,NA
fcp-trial,296,1120422,0.0-271.0-0.0,voc_e2,11813,"[{""event"":""fullscreenenter"",""trial"":1,""time"":2597}]",NA,NA,NA,NA,NA,4,#741CD8,#D8271C,0,10,0,38,1,916.6000000238419,39,0,583.3999999761581,10,1,experiment,NA,NA,0,0.1,0.9,1,0,261,6,NA
fcp-trial,297,1123381,0.0-272.0-0.0,voc_e2,11813,"[{""event"":""fullscreenenter"",""trial"":1,""time"":2597}]",NA,NA,NA,NA,NA,0,#FA92F8,#1CD855,0,0,0,38,1,959.1999999284744,37,1,497.5,0,0,experiment,NA,NA,2,0.5,0.5,5,4,262,6,NA
fcp-trial,298,1126199,0.0-273.0-0.0,voc_e2,11813,"[{""event"":""fullscreenenter"",""trial"":1,""time"":2597}]",NA,NA,NA,NA,NA,1,#1CD855,#FA92F8,0,10,1,40,0,1027.0999999046326,39,0,287.10000002384186,10,0,experiment,NA,NA,2,0.5,0.5,4,5,263,6,NA
fcp-trial,299,1129323,0.0-274.0-0.0,voc_e2,11813,"[{""event"":""fullscreenenter"",""trial"":1,""time"":2597}]",NA,NA,NA,NA,NA,1,#741CD8,#D8271C,0,10,0,38,1,1190.5,39,0,430.3000000715256,10,1,experiment,NA,NA,0,0.1,0.9,1,0,264,6,NA
fcp-trial,300,1131916,0.0-275.0-0.0,voc_e2,11813,"[{""event"":""fullscreenenter"",""trial"":1,""time"":2597}]",NA,NA,NA,NA,NA,1,#D89F1C,#3386FF,0,0,0,38,1,711.6000000238419,39,0,377,0,1,experiment,NA,NA,1,0.3,0.7,3,2,265,6,NA
fcp-trial,301,1134908,0.0-276.0-0.0,voc_e2,11813,"[{""event"":""fullscreenenter"",""trial"":1,""time"":2597}]",NA,NA,NA,NA,NA,4,#1CD855,#FA92F8,0,10,1,40,0,1219.3000000715256,39,0,267.5,10,0,experiment,NA,NA,2,0.5,0.5,4,5,266,6,NA
fcp-trial,302,1137678,0.0-277.0-0.0,voc_e2,11813,"[{""event"":""fullscreenenter"",""trial"":1,""time"":2597}]",NA,NA,NA,NA,NA,6,#FA92F8,#1CD855,0,0,0,40,0,1004.6999999284744,37,1,260.60000002384186,0,0,experiment,NA,NA,2,0.5,0.5,5,4,267,6,NA
fcp-trial,303,1141114,0.0-278.0-0.0,voc_e2,11813,"[{""event"":""fullscreenenter"",""trial"":1,""time"":2597}]",NA,NA,NA,NA,NA,0,#741CD8,#D8271C,0,10,0,38,1,1448.5,39,0,483.2000000476837,10,1,experiment,NA,NA,0,0.1,0.9,1,0,268,6,NA
fcp-trial,304,1143883,0.0-279.0-0.0,voc_e2,11813,"[{""event"":""fullscreenenter"",""trial"":1,""time"":2597}]",NA,NA,NA,NA,NA,5,#D89F1C,#3386FF,0,10,0,40,0,975.8999999761581,39,0,289.5,10,1,experiment,NA,NA,1,0.3,0.7,3,2,269,6,NA
fcp-trial,305,1146775,0.0-280.0-0.0,voc_e2,11813,"[{""event"":""fullscreenenter"",""trial"":1,""time"":2597}]",NA,NA,NA,NA,NA,4,#D89F1C,#3386FF,0,10,0,40,0,860.7999999523163,39,0,527.2000000476837,10,1,experiment,NA,NA,1,0.3,0.7,3,2,270,6,NA
fcp-trial,306,1150273,0.0-281.0-0.0,voc_e2,11813,"[{""event"":""fullscreenenter"",""trial"":1,""time"":2597}]",NA,NA,NA,NA,NA,3,#1CD855,#FA92F8,10,0,1,38,1,1393.3999999761581,39,0,600.7000000476837,0,0,experiment,NA,NA,2,0.5,0.5,4,5,271,7,NA
fcp-trial,307,1152576,0.0-282.0-0.0,voc_e2,11813,"[{""event"":""fullscreenenter"",""trial"":1,""time"":2597}]",NA,NA,NA,NA,NA,6,#3386FF,#D89F1C,10,0,1,40,0,529.3000000715256,39,0,269.59999990463257,0,0,experiment,NA,NA,1,0.7,0.3,2,3,272,7,NA
fcp-trial,308,1155357,0.0-283.0-0.0,voc_e2,11813,"[{""event"":""fullscreenenter"",""trial"":1,""time"":2597}]",NA,NA,NA,NA,NA,6,#D8271C,#741CD8,10,0,1,40,0,780.3000000715256,39,0,497,0,0,experiment,NA,NA,0,0.9,0.1,0,1,273,7,NA
fcp-trial,309,1158245,0.0-284.0-0.0,voc_e2,11813,"[{""event"":""fullscreenenter"",""trial"":1,""time"":2597}]",NA,NA,NA,NA,NA,0,#D89F1C,#3386FF,0,0,0,38,1,978.2999999523163,39,0,404.7000000476837,0,1,experiment,NA,NA,1,0.3,0.7,3,2,274,7,NA
fcp-trial,310,1160874,0.0-285.0-0.0,voc_e2,11813,"[{""event"":""fullscreenenter"",""trial"":1,""time"":2597}]",NA,NA,NA,NA,NA,6,#D8271C,#741CD8,10,0,1,40,0,809.4000000953674,37,1,315.2000000476837,10,1,experiment,NA,NA,0,0.9,0.1,0,1,275,7,NA
fcp-trial,311,1164328,0.0-286.0-0.0,voc_e2,11813,"[{""event"":""fullscreenenter"",""trial"":1,""time"":2597}]",NA,NA,NA,NA,NA,1,#FA92F8,#1CD855,0,10,0,38,1,1038.6999999284744,37,1,910.7000000476836,0,0,experiment,NA,NA,2,0.5,0.5,5,4,276,7,NA
fcp-trial,312,1166861,0.0-287.0-0.0,voc_e2,11813,"[{""event"":""fullscreenenter"",""trial"":1,""time"":2597}]",NA,NA,NA,NA,NA,3,#D8271C,#741CD8,10,0,1,40,0,690.6000000238419,37,1,339.10000002384186,10,1,experiment,NA,NA,0,0.9,0.1,0,1,277,7,NA
fcp-trial,313,1169385,0.0-288.0-0.0,voc_e2,11813,"[{""event"":""fullscreenenter"",""trial"":1,""time"":2597}]",NA,NA,NA,NA,NA,0,#741CD8,#D8271C,0,10,0,38,1,768.3000000715256,39,0,250.89999997615817,10,1,experiment,NA,NA,0,0.1,0.9,1,0,278,7,NA
fcp-trial,314,1172623,0.0-289.0-0.0,voc_e2,11813,"[{""event"":""fullscreenenter"",""trial"":1,""time"":2597}]",NA,NA,NA,NA,NA,2,#3386FF,#D89F1C,10,0,1,38,1,1475.8000000715256,37,1,259.89999997615814,10,1,experiment,NA,NA,1,0.7,0.3,2,3,279,7,NA
fcp-trial,315,1175433,0.0-290.0-0.0,voc_e2,11813,"[{""event"":""fullscreenenter"",""trial"":1,""time"":2597}]",NA,NA,NA,NA,NA,0,#1CD855,#FA92F8,0,0,1,38,1,1037.1999999284744,39,0,269.2999999523163,0,0,experiment,NA,NA,2,0.5,0.5,4,5,280,7,NA
fcp-trial,316,1178256,0.0-291.0-0.0,voc_e2,11813,"[{""event"":""fullscreenenter"",""trial"":1,""time"":2597}]",NA,NA,NA,NA,NA,5,#D89F1C,#3386FF,0,0,0,40,0,1015.5,39,0,303.2999999523163,0,1,experiment,NA,NA,1,0.3,0.7,3,2,281,7,NA
fcp-trial,317,1181371,0.0-292.0-0.0,voc_e2,11813,"[{""event"":""fullscreenenter"",""trial"":1,""time"":2597}]",NA,NA,NA,NA,NA,2,#D8271C,#741CD8,10,0,1,38,1,1074.6999999284744,37,1,537,10,1,experiment,NA,NA,0,0.9,0.1,0,1,282,7,NA
fcp-trial,318,1184186,0.0-293.0-0.0,voc_e2,11813,"[{""event"":""fullscreenenter"",""trial"":1,""time"":2597}]",NA,NA,NA,NA,NA,6,#1CD855,#FA92F8,10,10,1,40,0,803.8999999761581,37,1,508,10,1,experiment,NA,NA,2,0.5,0.5,4,5,283,7,NA
fcp-trial,319,1187042,0.0-294.0-0.0,voc_e2,11813,"[{""event"":""fullscreenenter"",""trial"":1,""time"":2597}]",NA,NA,NA,NA,NA,2,#1CD855,#FA92F8,0,0,1,38,1,843.5,37,1,508.89999997615814,0,1,experiment,NA,NA,2,0.5,0.5,4,5,284,7,NA
fcp-trial,320,1189676,0.0-295.0-0.0,voc_e2,11813,"[{""event"":""fullscreenenter"",""trial"":1,""time"":2597}]",NA,NA,NA,NA,NA,3,#D89F1C,#3386FF,0,10,0,40,0,863.2999999523163,39,0,267.89999997615814,10,1,experiment,NA,NA,1,0.3,0.7,3,2,285,7,NA
fcp-trial,321,1192420,0.0-296.0-0.0,voc_e2,11813,"[{""event"":""fullscreenenter"",""trial"":1,""time"":2597}]",NA,NA,NA,NA,NA,6,#3386FF,#D89F1C,0,0,1,40,0,878.2000000476837,39,0,361.10000002384186,0,0,experiment,NA,NA,1,0.7,0.3,2,3,286,7,NA
fcp-trial,322,1194942,0.0-297.0-0.0,voc_e2,11813,"[{""event"":""fullscreenenter"",""trial"":1,""time"":2597}]",NA,NA,NA,NA,NA,5,#D8271C,#741CD8,10,0,1,38,1,492.6999999284744,37,1,525.6000000238419,10,1,experiment,NA,NA,0,0.9,0.1,0,1,287,7,NA
fcp-trial,323,1198209,0.0-298.0-0.0,voc_e2,11813,"[{""event"":""fullscreenenter"",""trial"":1,""time"":2597}]",NA,NA,NA,NA,NA,5,#FA92F8,#1CD855,10,10,0,40,0,1504.3000000715256,39,0,259.1999999284744,10,1,experiment,NA,NA,2,0.5,0.5,5,4,288,7,NA
fcp-trial,324,1202009,0.0-299.0-0.0,voc_e2,11813,"[{""event"":""fullscreenenter"",""trial"":1,""time"":2597}]",NA,NA,NA,NA,NA,3,#FA92F8,#1CD855,0,0,0,38,1,1415.3000000715256,39,0,880.9000000953674,0,1,experiment,NA,NA,2,0.5,0.5,5,4,289,7,NA
fcp-trial,325,1205677,0.0-300.0-0.0,voc_e2,11813,"[{""event"":""fullscreenenter"",""trial"":1,""time"":2597}]",NA,NA,NA,NA,NA,1,#D89F1C,#3386FF,0,10,0,38,1,931.2000000476837,39,0,1232.600000023842,10,1,experiment,NA,NA,1,0.3,0.7,3,2,290,7,NA
fcp-trial,326,1208682,0.0-301.0-0.0,voc_e2,11813,"[{""event"":""fullscreenenter"",""trial"":1,""time"":2597}]",NA,NA,NA,NA,NA,4,#3386FF,#D89F1C,10,0,1,40,0,1206.7000000476837,39,0,293.2999999523163,0,0,experiment,NA,NA,1,0.7,0.3,2,3,291,7,NA
fcp-trial,327,1211167,0.0-302.0-0.0,voc_e2,11813,"[{""event"":""fullscreenenter"",""trial"":1,""time"":2597}]",NA,NA,NA,NA,NA,4,#D8271C,#741CD8,10,0,1,38,1,588.2999999523163,37,1,393.7000000476837,10,1,experiment,NA,NA,0,0.9,0.1,0,1,292,7,NA
fcp-trial,328,1213875,0.0-303.0-0.0,voc_e2,11813,"[{""event"":""fullscreenenter"",""trial"":1,""time"":2597}]",NA,NA,NA,NA,NA,4,#FA92F8,#1CD855,0,0,0,40,0,874.3999999761581,39,0,329,0,1,experiment,NA,NA,2,0.5,0.5,5,4,293,7,NA
fcp-trial,329,1216498,0.0-304.0-0.0,voc_e2,11813,"[{""event"":""fullscreenenter"",""trial"":1,""time"":2597}]",NA,NA,NA,NA,NA,1,#D8271C,#741CD8,10,0,1,38,1,834.7999999523163,37,1,282.2000000476837,10,1,experiment,NA,NA,0,0.9,0.1,0,1,294,7,NA
fcp-trial,330,1218993,0.0-305.0-0.0,voc_e2,11813,"[{""event"":""fullscreenenter"",""trial"":1,""time"":2597}]",NA,NA,NA,NA,NA,0,#741CD8,#D8271C,0,10,0,38,1,516.8999999761581,39,0,475,10,1,experiment,NA,NA,0,0.1,0.9,1,0,295,7,NA
fcp-trial,331,1224357,0.0-306.0-0.0,voc_e2,11813,"[{""event"":""fullscreenenter"",""trial"":1,""time"":2597}]",NA,NA,NA,NA,NA,1,#D89F1C,#3386FF,0,10,0,38,1,1428.7000000476837,39,0,2431.400000095367,10,1,experiment,NA,NA,1,0.3,0.7,3,2,296,7,NA
fcp-trial,332,1227017,0.0-307.0-0.0,voc_e2,11813,"[{""event"":""fullscreenenter"",""trial"":1,""time"":2597}]",NA,NA,NA,NA,NA,2,#1CD855,#FA92F8,0,0,1,38,1,653.1000000238419,39,0,502.8000000715256,0,0,experiment,NA,NA,2,0.5,0.5,4,5,297,7,NA
fcp-trial,333,1229857,0.0-308.0-0.0,voc_e2,11813,"[{""event"":""fullscreenenter"",""trial"":1,""time"":2597}]",NA,NA,NA,NA,NA,3,#3386FF,#D89F1C,10,0,1,38,1,839.8999999761581,37,1,496.89999997615814,10,1,experiment,NA,NA,1,0.7,0.3,2,3,298,7,NA
fcp-trial,334,1232524,0.0-309.0-0.0,voc_e2,11813,"[{""event"":""fullscreenenter"",""trial"":1,""time"":2597}]",NA,NA,NA,NA,NA,5,#FA92F8,#1CD855,10,10,0,40,0,733.5,37,1,428.8000000715256,10,0,experiment,NA,NA,2,0.5,0.5,5,4,299,7,NA
fcp-trial,335,1235673,0.0-310.0-0.0,voc_e2,11813,"[{""event"":""fullscreenenter"",""trial"":1,""time"":2597}]",NA,NA,NA,NA,NA,2,#741CD8,#D8271C,10,10,0,38,1,1276.7999999523163,39,0,368.5,10,1,experiment,NA,NA,0,0.1,0.9,1,0,300,7,NA
fcp-trial,336,1238896,0.0-311.0-0.0,voc_e2,11813,"[{""event"":""fullscreenenter"",""trial"":1,""time"":2597}]",NA,NA,NA,NA,NA,4,#D89F1C,#3386FF,0,10,0,38,1,1224.2999999523163,39,0,492.6999999284744,10,1,experiment,NA,NA,1,0.3,0.7,3,2,301,7,NA
fcp-trial,337,1242021,0.0-312.0-0.0,voc_e2,11813,"[{""event"":""fullscreenenter"",""trial"":1,""time"":2597}]",NA,NA,NA,NA,NA,3,#1CD855,#FA92F8,0,0,1,38,1,702.7000000476837,39,0,918.600000023842,0,0,experiment,NA,NA,2,0.5,0.5,4,5,302,7,NA
fcp-trial,338,1244773,0.0-313.0-0.0,voc_e2,11813,"[{""event"":""fullscreenenter"",""trial"":1,""time"":2597}]",NA,NA,NA,NA,NA,0,#3386FF,#D89F1C,10,10,1,38,1,932.6999999284744,37,1,315.5,10,1,experiment,NA,NA,1,0.7,0.3,2,3,303,7,NA
fcp-trial,339,1247433,0.0-314.0-0.0,voc_e2,11813,"[{""event"":""fullscreenenter"",""trial"":1,""time"":2597}]",NA,NA,NA,NA,NA,6,#1CD855,#FA92F8,0,10,1,40,0,723.5,37,1,431.7000000476837,0,1,experiment,NA,NA,2,0.5,0.5,4,5,304,7,NA
fcp-trial,340,1249802,0.0-315.0-0.0,voc_e2,11813,"[{""event"":""fullscreenenter"",""trial"":1,""time"":2597}]",NA,NA,NA,NA,NA,6,#D8271C,#741CD8,10,0,1,38,1,595.7000000476837,37,1,270,10,1,experiment,NA,NA,0,0.9,0.1,0,1,305,7,NA
fcp-trial,341,1252408,0.0-316.0-0.0,voc_e2,11813,"[{""event"":""fullscreenenter"",""trial"":1,""time"":2597}]",NA,NA,NA,NA,NA,1,#1CD855,#FA92F8,10,10,1,40,0,805.3000000715256,39,0,297.7999999523163,10,0,experiment,NA,NA,2,0.5,0.5,4,5,306,7,NA
fcp-trial,342,1256104,0.0-317.0-0.0,voc_e2,11813,"[{""event"":""fullscreenenter"",""trial"":1,""time"":2597}]",NA,NA,NA,NA,NA,5,#3386FF,#D89F1C,0,0,1,38,1,1910.3999999761581,37,1,281.5,0,1,experiment,NA,NA,1,0.7,0.3,2,3,307,7,NA
fcp-trial,343,1258847,0.0-318.0-0.0,voc_e2,11813,"[{""event"":""fullscreenenter"",""trial"":1,""time"":2597}]",NA,NA,NA,NA,NA,2,#3386FF,#D89F1C,0,0,1,38,1,870.1000000238419,37,1,369.5,0,1,experiment,NA,NA,1,0.7,0.3,2,3,308,7,NA
fcp-trial,344,1261622,0.0-319.0-0.0,voc_e2,11813,"[{""event"":""fullscreenenter"",""trial"":1,""time"":2597}]",NA,NA,NA,NA,NA,5,#741CD8,#D8271C,0,10,0,38,1,771.3000000715256,39,0,499.10000002384186,10,1,experiment,NA,NA,0,0.1,0.9,1,0,309,7,NA
fcp-trial,345,1264469,0.0-320.0-0.0,voc_e2,11813,"[{""event"":""fullscreenenter"",""trial"":1,""time"":2597}]",NA,NA,NA,NA,NA,1,#741CD8,#D8271C,0,10,0,38,1,1084.8999999761581,39,0,257.10000002384186,10,1,experiment,NA,NA,0,0.1,0.9,1,0,310,7,NA
fcp-trial,346,1267028,0.0-321.0-0.0,voc_e2,11813,"[{""event"":""fullscreenenter"",""trial"":1,""time"":2597}]",NA,NA,NA,NA,NA,4,#1CD855,#FA92F8,0,0,1,40,0,756.2000000476837,39,0,299,0,0,experiment,NA,NA,2,0.5,0.5,4,5,311,7,NA
fcp-trial,347,1269887,0.0-322.0-0.0,voc_e2,11813,"[{""event"":""fullscreenenter"",""trial"":1,""time"":2597}]",NA,NA,NA,NA,NA,3,#741CD8,#D8271C,0,10,0,38,1,839.2000000476837,39,0,514.6999999284744,10,1,experiment,NA,NA,0,0.1,0.9,1,0,312,7,NA
fcp-trial,348,1273016,0.0-323.0-0.0,voc_e2,11813,"[{""event"":""fullscreenenter"",""trial"":1,""time"":2597}]",NA,NA,NA,NA,NA,6,#D89F1C,#3386FF,0,10,0,38,1,1198.6999999284744,39,0,426.60000002384186,10,1,experiment,NA,NA,1,0.3,0.7,3,2,313,7,NA
fcp-trial,349,1275912,0.0-324.0-0.0,voc_e2,11813,"[{""event"":""fullscreenenter"",""trial"":1,""time"":2597}]",NA,NA,NA,NA,NA,4,#D8271C,#741CD8,10,0,1,38,1,1036.7000000476837,37,1,354.5,10,1,experiment,NA,NA,0,0.9,0.1,0,1,314,7,NA
fcp-trial,350,1279838,0.0-325.0-0.0,voc_e2,11813,"[{""event"":""fullscreenenter"",""trial"":1,""time"":2597}]",NA,NA,NA,NA,NA,0,#FA92F8,#1CD855,0,10,0,38,1,1649,39,0,773.5,10,1,experiment,NA,NA,2,0.5,0.5,5,4,315,7,NA
audio-instructions,351,1289016,0.0-326.0,voc_e2,11813,"[{""event"":""fullscreenenter"",""trial"":1,""time"":2597}]",NA,3208.2999999523163,static/audio/finished.wav,NA,0,NA,NA,NA,NA,NA,NA,NA,NA,NA,NA,NA,NA,NA,NA,NA,NA,NA,NA,NA,NA,NA,NA,NA,NA,NA
audio-instructions,352,1302681,0.0-327.0-0.0,voc_e2,11813,"[{""event"":""fullscreenenter"",""trial"":1,""time"":2597}]",NA,2822.899999976158,static/audio/explicit1.wav,NA,0,NA,NA,NA,NA,NA,NA,NA,NA,NA,NA,NA,NA,NA,NA,NA,NA,NA,NA,NA,NA,NA,NA,NA,NA,NA
audio-instructions,353,1311760,0.0-327.0-1.0,voc_e2,11813,"[{""event"":""fullscreenenter"",""trial"":1,""time"":2597}]",NA,1483,static/audio/explicit2.wav,NA,0,NA,NA,NA,NA,NA,NA,NA,NA,NA,NA,NA,NA,NA,NA,NA,NA,NA,NA,NA,NA,NA,NA,NA,NA,NA
image-slider-response,354,1316987,0.0-328.0,voc_e2,11813,"[{""event"":""fullscreenenter"",""trial"":1,""time"":2597}]",NA,5225.200000047684,static/img/machines/machine2.png,NA,NA,NA,NA,NA,NA,NA,NA,NA,NA,NA,NA,NA,NA,NA,NA,explicit,NA,NA,NA,NA,NA,NA,NA,NA,NA,6
image-slider-response,355,1321169,0.0-329.0,voc_e2,11813,"[{""event"":""fullscreenenter"",""trial"":1,""time"":2597}]",NA,4180.299999952316,static/img/machines/machine3.png,NA,NA,NA,NA,NA,NA,NA,NA,NA,NA,NA,NA,NA,NA,NA,NA,explicit,NA,NA,NA,NA,NA,NA,NA,NA,NA,6
image-slider-response,356,1328049,0.0-330.0,voc_e2,11813,"[{""event"":""fullscreenenter"",""trial"":1,""time"":2597}]",NA,6878.899999976158,static/img/machines/machine1.png,NA,NA,NA,NA,NA,NA,NA,NA,NA,NA,NA,NA,NA,NA,NA,NA,explicit,NA,NA,NA,NA,NA,NA,NA,NA,NA,9
image-slider-response,357,1331649,0.0-331.0,voc_e2,11813,"[{""event"":""fullscreenenter"",""trial"":1,""time"":2597}]",NA,3599.3000000715256,static/img/machines/machine4.png,NA,NA,NA,NA,NA,NA,NA,NA,NA,NA,NA,NA,NA,NA,NA,NA,explicit,NA,NA,NA,NA,NA,NA,NA,NA,NA,4
image-slider-response,358,1335887,0.0-332.0,voc_e2,11813,"[{""event"":""fullscreenenter"",""trial"":1,""time"":2597}]",NA,4237,static/img/machines/machine5.png,NA,NA,NA,NA,NA,NA,NA,NA,NA,NA,NA,NA,NA,NA,NA,NA,explicit,NA,NA,NA,NA,NA,NA,NA,NA,NA,4
image-slider-response,359,1338008,0.0-333.0,voc_e2,11813,"[{""event"":""fullscreenenter"",""trial"":1,""time"":2597}]",NA,2119.5,static/img/machines/machine6.png,NA,NA,NA,NA,NA,NA,NA,NA,NA,NA,NA,NA,NA,NA,NA,NA,explicit,NA,NA,NA,NA,NA,NA,NA,NA,NA,3
