trial_type,trial_index,time_elapsed,internal_node_id,task_version,subject_id,interactions,success,rt,stimulus,key_press,button_pressed,offer,arcade_color_L,arcade_color_R,arcade_outcome_L,arcade_outcome_R,correct,stage_1_key,stage_1_choice,stage_1_rt,stage_2_key,stage_2_choice,stage_2_rt,stage_3_outcome,accuracy,phase,responses,num_errors,context,reward_prob_L,reward_prob_R,arcade_id_L,arcade_id_R,trial,block,response
pavlovia,0,6,0.0-0.0,voc_e2,12044,[],NA,NA,NA,NA,NA,NA,NA,NA,NA,NA,NA,NA,NA,NA,NA,NA,NA,NA,NA,NA,NA,NA,NA,NA,NA,NA,NA,NA,NA,NA
fullscreen,1,4036,0.0-1.0,voc_e2,12044,"[{""event"":""fullscreenenter"",""trial"":1,""time"":3066},{""event"":""fullscreenexit"",""trial"":1,""time"":3714}]",TRUE,NA,NA,NA,NA,NA,NA,NA,NA,NA,NA,NA,NA,NA,NA,NA,NA,NA,NA,NA,NA,NA,NA,NA,NA,NA,NA,NA,NA,NA
audio-keyboard-response,2,9689,0.0-2.0,voc_e2,12044,"[{""event"":""fullscreenenter"",""trial"":1,""time"":3066},{""event"":""fullscreenexit"",""trial"":1,""time"":3714}]",NA,5611,static/audio/beep_loop.wav,32,NA,NA,NA,NA,NA,NA,NA,NA,NA,NA,NA,NA,NA,NA,NA,NA,NA,NA,NA,NA,NA,NA,NA,NA,NA,NA
audio-test,3,11987,0.0-3.0,voc_e2,12044,"[{""event"":""fullscreenenter"",""trial"":1,""time"":3066},{""event"":""fullscreenexit"",""trial"":1,""time"":3714}]",NA,NA,static/audio/turtle.wav,NA,3,NA,NA,NA,NA,NA,NA,NA,NA,NA,NA,NA,NA,NA,NA,NA,NA,NA,NA,NA,NA,NA,NA,NA,NA,NA
audio-test,4,16803,0.0-4.0,voc_e2,12044,"[{""event"":""fullscreenenter"",""trial"":1,""time"":3066},{""event"":""fullscreenexit"",""trial"":1,""time"":3714}]",NA,NA,static/audio/shark.wav,NA,2,NA,NA,NA,NA,NA,NA,NA,NA,NA,NA,NA,NA,NA,NA,NA,NA,NA,NA,NA,NA,NA,NA,NA,NA,NA
audio-instructions,5,24412,0.0-5.0-0.0,voc_e2,12044,"[{""event"":""fullscreenenter"",""trial"":1,""time"":3066},{""event"":""fullscreenexit"",""trial"":1,""time"":3714}]",NA,1824.5,static/audio/instructions1.wav,NA,0,NA,NA,NA,NA,NA,NA,NA,NA,NA,NA,NA,NA,NA,NA,NA,NA,NA,NA,NA,NA,NA,NA,NA,NA,NA
audio-instructions,6,34876,0.0-5.0-1.0,voc_e2,12044,"[{""event"":""fullscreenenter"",""trial"":1,""time"":3066},{""event"":""fullscreenexit"",""trial"":1,""time"":3714}]",NA,3718.099999964237,static/audio/instructions2.wav,NA,0,NA,NA,NA,NA,NA,NA,NA,NA,NA,NA,NA,NA,NA,NA,NA,NA,NA,NA,NA,NA,NA,NA,NA,NA,NA
audio-instructions,7,45643,0.0-5.0-2.0,voc_e2,12044,"[{""event"":""fullscreenenter"",""trial"":1,""time"":3066},{""event"":""fullscreenexit"",""trial"":1,""time"":3714}]",NA,4966,static/audio/instructions3.wav,NA,0,NA,NA,NA,NA,NA,NA,NA,NA,NA,NA,NA,NA,NA,NA,NA,NA,NA,NA,NA,NA,NA,NA,NA,NA,NA
audio-instructions,8,71652,0.0-5.0-3.0,voc_e2,12044,"[{""event"":""fullscreenenter"",""trial"":1,""time"":3066},{""event"":""fullscreenexit"",""trial"":1,""time"":3714}]",NA,12783.80000001192,static/audio/instructions4.wav,NA,0,NA,NA,NA,NA,NA,NA,NA,NA,NA,NA,NA,NA,NA,NA,NA,NA,NA,NA,NA,NA,NA,NA,NA,NA,NA
audio-instructions,9,82532,0.0-5.0-4.0,voc_e2,12044,"[{""event"":""fullscreenenter"",""trial"":1,""time"":3066},{""event"":""fullscreenexit"",""trial"":1,""time"":3714}]",NA,1493.300000011921,static/audio/instructions5.wav,NA,0,NA,NA,NA,NA,NA,NA,NA,NA,NA,NA,NA,NA,NA,NA,NA,NA,NA,NA,NA,NA,NA,NA,NA,NA,NA
fcp-practice,10,84743,0.0-5.0-5.0-0.0,voc_e2,12044,"[{""event"":""fullscreenenter"",""trial"":1,""time"":3066},{""event"":""fullscreenexit"",""trial"":1,""time"":3714}]",NA,NA,NA,NA,NA,NA,#EDC948,#46d3c8,10,0,1,null,null,null,37,1,705.5999999642372,10,1,practice,NA,NA,NA,NA,NA,NA,NA,NA,NA,NA
fcp-practice,11,86944,0.0-5.0-5.0-1.0,voc_e2,12044,"[{""event"":""fullscreenenter"",""trial"":1,""time"":3066},{""event"":""fullscreenexit"",""trial"":1,""time"":3714}]",NA,NA,NA,NA,NA,NA,#EDC948,#46d3c8,10,0,1,null,null,null,37,1,696.1999999880791,10,1,practice,NA,NA,NA,NA,NA,NA,NA,NA,NA,NA
fcp-practice,12,88923,0.0-5.0-5.0-2.0,voc_e2,12044,"[{""event"":""fullscreenenter"",""trial"":1,""time"":3066},{""event"":""fullscreenexit"",""trial"":1,""time"":3714}]",NA,NA,NA,NA,NA,NA,#EDC948,#46d3c8,0,10,1,null,null,null,37,1,472.0999999642372,0,1,practice,NA,NA,NA,NA,NA,NA,NA,NA,NA,NA
fcp-practice,13,90892,0.0-5.0-5.0-3.0,voc_e2,12044,"[{""event"":""fullscreenenter"",""trial"":1,""time"":3066},{""event"":""fullscreenexit"",""trial"":1,""time"":3714}]",NA,NA,NA,NA,NA,NA,#EDC948,#46d3c8,10,0,1,null,null,null,37,1,460,10,1,practice,NA,NA,NA,NA,NA,NA,NA,NA,NA,NA
fcp-practice,14,92969,0.0-5.0-5.0-4.0,voc_e2,12044,"[{""event"":""fullscreenenter"",""trial"":1,""time"":3066},{""event"":""fullscreenexit"",""trial"":1,""time"":3714}]",NA,NA,NA,NA,NA,NA,#EDC948,#46d3c8,10,0,1,null,null,null,37,1,572.3000000119209,10,1,practice,NA,NA,NA,NA,NA,NA,NA,NA,NA,NA
audio-instructions,15,111883,0.0-5.0-6.0,voc_e2,12044,"[{""event"":""fullscreenenter"",""trial"":1,""time"":3066},{""event"":""fullscreenexit"",""trial"":1,""time"":3714}]",NA,905,static/audio/instructions6.wav,NA,0,NA,NA,NA,NA,NA,NA,NA,NA,NA,NA,NA,NA,NA,NA,NA,NA,NA,NA,NA,NA,NA,NA,NA,NA,NA
audio-instructions,16,133556,0.0-5.0-7.0,voc_e2,12044,"[{""event"":""fullscreenenter"",""trial"":1,""time"":3066},{""event"":""fullscreenexit"",""trial"":1,""time"":3714}]",NA,2476.699999988079,static/audio/instructions7.wav,NA,0,NA,NA,NA,NA,NA,NA,NA,NA,NA,NA,NA,NA,NA,NA,NA,NA,NA,NA,NA,NA,NA,NA,NA,NA,NA
audio-instructions,17,144949,0.0-5.0-8.0,voc_e2,12044,"[{""event"":""fullscreenenter"",""trial"":1,""time"":3066},{""event"":""fullscreenexit"",""trial"":1,""time"":3714}]",NA,1928.5999999642372,static/audio/instructions8.wav,NA,0,NA,NA,NA,NA,NA,NA,NA,NA,NA,NA,NA,NA,NA,NA,NA,NA,NA,NA,NA,NA,NA,NA,NA,NA,NA
fcp-comprehension,18,160205,0.0-5.0-9.0,voc_e2,12044,"[{""event"":""fullscreenenter"",""trial"":1,""time"":3066},{""event"":""fullscreenexit"",""trial"":1,""time"":3714}]",NA,15256.100000023842,NA,NA,NA,NA,NA,NA,NA,NA,NA,NA,NA,NA,NA,NA,NA,NA,NA,NA,"false,true",1,NA,NA,NA,NA,NA,NA,NA,NA
audio-instructions,19,165496,0.0-5.1-0.1,voc_e2,12044,"[{""event"":""fullscreenenter"",""trial"":1,""time"":3066},{""event"":""fullscreenexit"",""trial"":1,""time"":3714}]",NA,512.2999999523163,static/audio/instructions1.wav,NA,0,NA,NA,NA,NA,NA,NA,NA,NA,NA,NA,NA,NA,NA,NA,NA,NA,NA,NA,NA,NA,NA,NA,NA,NA,NA
audio-instructions,20,172736,0.0-5.1-1.1,voc_e2,12044,"[{""event"":""fullscreenenter"",""trial"":1,""time"":3066},{""event"":""fullscreenexit"",""trial"":1,""time"":3714}]",NA,492.199999988079,static/audio/instructions2.wav,NA,0,NA,NA,NA,NA,NA,NA,NA,NA,NA,NA,NA,NA,NA,NA,NA,NA,NA,NA,NA,NA,NA,NA,NA,NA,NA
audio-instructions,21,181896,0.0-5.1-2.1,voc_e2,12044,"[{""event"":""fullscreenenter"",""trial"":1,""time"":3066},{""event"":""fullscreenexit"",""trial"":1,""time"":3714}]",NA,3352.199999988079,static/audio/instructions3.wav,NA,0,NA,NA,NA,NA,NA,NA,NA,NA,NA,NA,NA,NA,NA,NA,NA,NA,NA,NA,NA,NA,NA,NA,NA,NA,NA
audio-instructions,22,195745,0.0-5.1-3.1,voc_e2,12044,"[{""event"":""fullscreenenter"",""trial"":1,""time"":3066},{""event"":""fullscreenexit"",""trial"":1,""time"":3714}]",NA,619.8000000119209,static/audio/instructions4.wav,NA,0,NA,NA,NA,NA,NA,NA,NA,NA,NA,NA,NA,NA,NA,NA,NA,NA,NA,NA,NA,NA,NA,NA,NA,NA,NA
audio-instructions,23,205737,0.0-5.1-4.1,voc_e2,12044,"[{""event"":""fullscreenenter"",""trial"":1,""time"":3066},{""event"":""fullscreenexit"",""trial"":1,""time"":3714}]",NA,601.6999999880791,static/audio/instructions5.wav,NA,0,NA,NA,NA,NA,NA,NA,NA,NA,NA,NA,NA,NA,NA,NA,NA,NA,NA,NA,NA,NA,NA,NA,NA,NA,NA
fcp-practice,24,207715,0.0-5.1-5.1-0.1,voc_e2,12044,"[{""event"":""fullscreenenter"",""trial"":1,""time"":3066},{""event"":""fullscreenexit"",""trial"":1,""time"":3714}]",NA,NA,NA,NA,NA,NA,#EDC948,#46d3c8,10,0,1,null,null,null,37,1,468.5,10,1,practice,NA,NA,NA,NA,NA,NA,NA,NA,NA,NA
fcp-practice,25,209621,0.0-5.1-5.1-1.1,voc_e2,12044,"[{""event"":""fullscreenenter"",""trial"":1,""time"":3066},{""event"":""fullscreenexit"",""trial"":1,""time"":3714}]",NA,NA,NA,NA,NA,NA,#EDC948,#46d3c8,10,0,1,null,null,null,37,1,399,10,1,practice,NA,NA,NA,NA,NA,NA,NA,NA,NA,NA
fcp-practice,26,211610,0.0-5.1-5.1-2.1,voc_e2,12044,"[{""event"":""fullscreenenter"",""trial"":1,""time"":3066},{""event"":""fullscreenexit"",""trial"":1,""time"":3714}]",NA,NA,NA,NA,NA,NA,#EDC948,#46d3c8,0,10,1,null,null,null,37,1,457.5,0,1,practice,NA,NA,NA,NA,NA,NA,NA,NA,NA,NA
fcp-practice,27,213550,0.0-5.1-5.1-3.1,voc_e2,12044,"[{""event"":""fullscreenenter"",""trial"":1,""time"":3066},{""event"":""fullscreenexit"",""trial"":1,""time"":3714}]",NA,NA,NA,NA,NA,NA,#EDC948,#46d3c8,10,0,1,null,null,null,37,1,420.7000000476837,10,1,practice,NA,NA,NA,NA,NA,NA,NA,NA,NA,NA
fcp-practice,28,215462,0.0-5.1-5.1-4.1,voc_e2,12044,"[{""event"":""fullscreenenter"",""trial"":1,""time"":3066},{""event"":""fullscreenexit"",""trial"":1,""time"":3714}]",NA,NA,NA,NA,NA,NA,#EDC948,#46d3c8,10,0,1,null,null,null,37,1,407.300000011921,10,1,practice,NA,NA,NA,NA,NA,NA,NA,NA,NA,NA
audio-instructions,29,234363,0.0-5.1-6.1,voc_e2,12044,"[{""event"":""fullscreenenter"",""trial"":1,""time"":3066},{""event"":""fullscreenexit"",""trial"":1,""time"":3714}]",NA,895.5,static/audio/instructions6.wav,NA,0,NA,NA,NA,NA,NA,NA,NA,NA,NA,NA,NA,NA,NA,NA,NA,NA,NA,NA,NA,NA,NA,NA,NA,NA,NA
audio-instructions,30,254635,0.0-5.1-7.1,voc_e2,12044,"[{""event"":""fullscreenenter"",""trial"":1,""time"":3066},{""event"":""fullscreenexit"",""trial"":1,""time"":3714}]",NA,1076.5,static/audio/instructions7.wav,NA,0,NA,NA,NA,NA,NA,NA,NA,NA,NA,NA,NA,NA,NA,NA,NA,NA,NA,NA,NA,NA,NA,NA,NA,NA,NA
audio-instructions,31,264620,0.0-5.1-8.1,voc_e2,12044,"[{""event"":""fullscreenenter"",""trial"":1,""time"":3066},{""event"":""fullscreenexit"",""trial"":1,""time"":3714}]",NA,510.89999997615814,static/audio/instructions8.wav,NA,0,NA,NA,NA,NA,NA,NA,NA,NA,NA,NA,NA,NA,NA,NA,NA,NA,NA,NA,NA,NA,NA,NA,NA,NA,NA
fcp-comprehension,32,272388,0.0-5.1-9.1,voc_e2,12044,"[{""event"":""fullscreenenter"",""trial"":1,""time"":3066},{""event"":""fullscreenexit"",""trial"":1,""time"":3714}]",NA,7767.799999952316,NA,NA,NA,NA,NA,NA,NA,NA,NA,NA,NA,NA,NA,NA,NA,NA,NA,NA,"true,true",0,NA,NA,NA,NA,NA,NA,NA,NA
audio-instructions,33,279324,0.0-6.0-0.0,voc_e2,12044,"[{""event"":""fullscreenenter"",""trial"":1,""time"":3066},{""event"":""fullscreenexit"",""trial"":1,""time"":3714}]",NA,1384.899999976158,static/audio/instructions9.wav,NA,0,NA,NA,NA,NA,NA,NA,NA,NA,NA,NA,NA,NA,NA,NA,NA,NA,NA,NA,NA,NA,NA,NA,NA,NA,NA
audio-instructions,34,294149,0.0-6.0-1.0,voc_e2,12044,"[{""event"":""fullscreenenter"",""trial"":1,""time"":3066},{""event"":""fullscreenexit"",""trial"":1,""time"":3714}]",NA,2708.600000023842,static/audio/instructions10.wav,NA,0,NA,NA,NA,NA,NA,NA,NA,NA,NA,NA,NA,NA,NA,NA,NA,NA,NA,NA,NA,NA,NA,NA,NA,NA,NA
fcp-trial,35,301735,0.0-6.0-2.0,voc_e2,12044,"[{""event"":""fullscreenenter"",""trial"":1,""time"":3066},{""event"":""fullscreenexit"",""trial"":1,""time"":3714}]",NA,NA,NA,NA,NA,0,#EDC948,#46d3c8,10,10,1,38,1,3117.600000023842,39,0,2935.300000011921,10,0,practice,NA,NA,NA,NA,NA,NA,NA,NA,NA,NA
audio-instructions,36,314382,0.0-6.0-3.0,voc_e2,12044,"[{""event"":""fullscreenenter"",""trial"":1,""time"":3066},{""event"":""fullscreenexit"",""trial"":1,""time"":3714}]",NA,1640.5,static/audio/instructions11.wav,NA,0,NA,NA,NA,NA,NA,NA,NA,NA,NA,NA,NA,NA,NA,NA,NA,NA,NA,NA,NA,NA,NA,NA,NA,NA,NA
fcp-trial,37,317833,0.0-6.0-4.0,voc_e2,12044,"[{""event"":""fullscreenenter"",""trial"":1,""time"":3066},{""event"":""fullscreenexit"",""trial"":1,""time"":3714}]",NA,NA,NA,NA,NA,6,#EDC948,#46d3c8,10,10,1,40,0,717.8999999761581,39,0,1211.100000023842,10,0,practice,NA,NA,NA,NA,NA,NA,NA,NA,NA,NA
audio-instructions,38,337606,0.0-6.0-5.0,voc_e2,12044,"[{""event"":""fullscreenenter"",""trial"":1,""time"":3066},{""event"":""fullscreenexit"",""trial"":1,""time"":3714}]",NA,1083.5,static/audio/instructions12.wav,NA,0,NA,NA,NA,NA,NA,NA,NA,NA,NA,NA,NA,NA,NA,NA,NA,NA,NA,NA,NA,NA,NA,NA,NA,NA,NA
audio-instructions,39,346231,0.0-6.0-6.0,voc_e2,12044,"[{""event"":""fullscreenenter"",""trial"":1,""time"":3066},{""event"":""fullscreenexit"",""trial"":1,""time"":3714}]",NA,1028,static/audio/instructions13.wav,NA,0,NA,NA,NA,NA,NA,NA,NA,NA,NA,NA,NA,NA,NA,NA,NA,NA,NA,NA,NA,NA,NA,NA,NA,NA,NA
audio-instructions,40,355975,0.0-6.0-7.0,voc_e2,12044,"[{""event"":""fullscreenenter"",""trial"":1,""time"":3066},{""event"":""fullscreenexit"",""trial"":1,""time"":3714}]",NA,1301.300000011921,static/audio/instructions14.wav,NA,0,NA,NA,NA,NA,NA,NA,NA,NA,NA,NA,NA,NA,NA,NA,NA,NA,NA,NA,NA,NA,NA,NA,NA,NA,NA
audio-instructions,41,364047,0.0-7.0-0.0,voc_e2,12044,"[{""event"":""fullscreenenter"",""trial"":1,""time"":3066},{""event"":""fullscreenexit"",""trial"":1,""time"":3714}]",NA,1153.899999976158,static/audio/instructions15.wav,NA,0,NA,NA,NA,NA,NA,NA,NA,NA,NA,NA,NA,NA,NA,NA,NA,NA,NA,NA,NA,NA,NA,NA,NA,NA,NA
audio-instructions,42,372728,0.0-7.0-1.0,voc_e2,12044,"[{""event"":""fullscreenenter"",""trial"":1,""time"":3066},{""event"":""fullscreenexit"",""trial"":1,""time"":3714}]",NA,1854,static/audio/instructions16.wav,NA,0,NA,NA,NA,NA,NA,NA,NA,NA,NA,NA,NA,NA,NA,NA,NA,NA,NA,NA,NA,NA,NA,NA,NA,NA,NA
audio-instructions,43,381720,0.0-7.0-2.0,voc_e2,12044,"[{""event"":""fullscreenenter"",""trial"":1,""time"":3066},{""event"":""fullscreenexit"",""trial"":1,""time"":3714}]",NA,1315.100000023842,static/audio/instructions17.wav,NA,0,NA,NA,NA,NA,NA,NA,NA,NA,NA,NA,NA,NA,NA,NA,NA,NA,NA,NA,NA,NA,NA,NA,NA,NA,NA
audio-instructions,44,390064,0.0-7.0-3.0,voc_e2,12044,"[{""event"":""fullscreenenter"",""trial"":1,""time"":3066},{""event"":""fullscreenexit"",""trial"":1,""time"":3714}]",NA,579,static/audio/instructions18.wav,NA,0,NA,NA,NA,NA,NA,NA,NA,NA,NA,NA,NA,NA,NA,NA,NA,NA,NA,NA,NA,NA,NA,NA,NA,NA,NA
audio-instructions,45,397688,0.0-7.0-4.0,voc_e2,12044,"[{""event"":""fullscreenenter"",""trial"":1,""time"":3066},{""event"":""fullscreenexit"",""trial"":1,""time"":3714}]",NA,872.6999999880791,static/audio/instructions19.wav,NA,0,NA,NA,NA,NA,NA,NA,NA,NA,NA,NA,NA,NA,NA,NA,NA,NA,NA,NA,NA,NA,NA,NA,NA,NA,NA
fcp-comprehension,46,413527,0.0-7.0-5.0,voc_e2,12044,"[{""event"":""fullscreenenter"",""trial"":1,""time"":3066},{""event"":""fullscreenexit"",""trial"":1,""time"":3714}]",NA,15840,NA,NA,NA,NA,NA,NA,NA,NA,NA,NA,NA,NA,NA,NA,NA,NA,NA,NA,"false,false,false,true",0,NA,NA,NA,NA,NA,NA,NA,NA
audio-instructions,47,424687,0.0-8.0,voc_e2,12044,"[{""event"":""fullscreenenter"",""trial"":1,""time"":3066},{""event"":""fullscreenexit"",""trial"":1,""time"":3714}]",NA,1942.600000023842,static/audio/ready.wav,NA,0,NA,NA,NA,NA,NA,NA,NA,NA,NA,NA,NA,NA,NA,NA,NA,NA,NA,NA,NA,NA,NA,NA,NA,NA,NA
fcp-trial,48,428693,0.0-9.0-0.0,voc_e2,12044,"[{""event"":""fullscreenenter"",""trial"":1,""time"":3066},{""event"":""fullscreenexit"",""trial"":1,""time"":3714}]",NA,NA,NA,NA,NA,2,#FA92F8,#1CD855,0,10,1,40,0,1571.5,37,1,926.100000023842,0,1,experiment,NA,NA,1,0.7,0.3,2,3,1,1,NA
fcp-trial,49,433108,0.0-10.0-0.0,voc_e2,12044,"[{""event"":""fullscreenenter"",""trial"":1,""time"":3066},{""event"":""fullscreenexit"",""trial"":1,""time"":3714}]",NA,NA,NA,NA,NA,1,#D8271C,#741CD8,0,0,1,38,1,1503.6000000238419,37,1,1403.800000011921,0,1,experiment,NA,NA,2,0.5,0.5,4,5,2,1,NA
fcp-trial,50,436598,0.0-11.0-0.0,voc_e2,12044,"[{""event"":""fullscreenenter"",""trial"":1,""time"":3066},{""event"":""fullscreenexit"",""trial"":1,""time"":3714}]",NA,NA,NA,NA,NA,0,#D89F1C,#3386FF,0,10,0,38,1,1211.199999988079,39,0,758.7999999523163,10,1,experiment,NA,NA,0,0.1,0.9,1,0,3,1,NA
fcp-trial,51,441038,0.0-12.0-0.0,voc_e2,12044,"[{""event"":""fullscreenenter"",""trial"":1,""time"":3066},{""event"":""fullscreenexit"",""trial"":1,""time"":3714}]",NA,NA,NA,NA,NA,5,#D8271C,#741CD8,0,0,1,40,0,2078.399999976158,39,0,850.3999999761581,0,0,experiment,NA,NA,2,0.5,0.5,4,5,4,1,NA
fcp-trial,52,445198,0.0-13.0-0.0,voc_e2,12044,"[{""event"":""fullscreenenter"",""trial"":1,""time"":3066},{""event"":""fullscreenexit"",""trial"":1,""time"":3714}]",NA,NA,NA,NA,NA,6,#1CD855,#FA92F8,0,10,0,40,0,1302.5999999642372,39,0,1348.800000011921,10,1,experiment,NA,NA,1,0.3,0.7,3,2,5,1,NA
fcp-trial,53,448404,0.0-14.0-0.0,voc_e2,12044,"[{""event"":""fullscreenenter"",""trial"":1,""time"":3066},{""event"":""fullscreenexit"",""trial"":1,""time"":3714}]",NA,NA,NA,NA,NA,5,#FA92F8,#1CD855,10,0,1,40,0,986.6000000238419,37,1,709.5,10,1,experiment,NA,NA,1,0.7,0.3,2,3,6,1,NA
fcp-trial,54,451337,0.0-15.0-0.0,voc_e2,12044,"[{""event"":""fullscreenenter"",""trial"":1,""time"":3066},{""event"":""fullscreenexit"",""trial"":1,""time"":3714}]",NA,NA,NA,NA,NA,4,#D89F1C,#3386FF,0,0,0,40,0,664.1000000238419,39,0,745.3000000119209,0,1,experiment,NA,NA,0,0.1,0.9,1,0,7,1,NA
fcp-trial,55,454085,0.0-16.0-0.0,voc_e2,12044,"[{""event"":""fullscreenenter"",""trial"":1,""time"":3066},{""event"":""fullscreenexit"",""trial"":1,""time"":3714}]",NA,NA,NA,NA,NA,0,#FA92F8,#1CD855,10,0,1,40,0,555.1999999880791,37,1,685.4000000357628,10,1,experiment,NA,NA,1,0.7,0.3,2,3,8,1,NA
fcp-trial,56,456933,0.0-17.0-0.0,voc_e2,12044,"[{""event"":""fullscreenenter"",""trial"":1,""time"":3066},{""event"":""fullscreenexit"",""trial"":1,""time"":3714}]",NA,NA,NA,NA,NA,3,#D8271C,#741CD8,0,0,1,38,1,627.8999999761581,39,0,711.4000000357628,0,0,experiment,NA,NA,2,0.5,0.5,4,5,9,1,NA
fcp-trial,57,460124,0.0-18.0-0.0,voc_e2,12044,"[{""event"":""fullscreenenter"",""trial"":1,""time"":3066},{""event"":""fullscreenexit"",""trial"":1,""time"":3714}]",NA,NA,NA,NA,NA,1,#3386FF,#D89F1C,10,0,1,40,0,1004.6000000238419,37,1,678.8999999761581,10,1,experiment,NA,NA,0,0.9,0.1,0,1,10,1,NA
fcp-trial,58,463067,0.0-19.0-0.0,voc_e2,12044,"[{""event"":""fullscreenenter"",""trial"":1,""time"":3066},{""event"":""fullscreenexit"",""trial"":1,""time"":3714}]",NA,NA,NA,NA,NA,2,#D8271C,#741CD8,0,10,1,40,0,761.1999999880791,37,1,677.1999999880791,0,1,experiment,NA,NA,2,0.5,0.5,4,5,11,1,NA
fcp-trial,59,466365,0.0-20.0-0.0,voc_e2,12044,"[{""event"":""fullscreenenter"",""trial"":1,""time"":3066},{""event"":""fullscreenexit"",""trial"":1,""time"":3714}]",NA,NA,NA,NA,NA,2,#3386FF,#D89F1C,10,0,1,38,1,863.7999999523163,39,0,925.8000000119208,0,0,experiment,NA,NA,0,0.9,0.1,0,1,12,1,NA
fcp-trial,60,469528,0.0-21.0-0.0,voc_e2,12044,"[{""event"":""fullscreenenter"",""trial"":1,""time"":3066},{""event"":""fullscreenexit"",""trial"":1,""time"":3714}]",NA,NA,NA,NA,NA,1,#FA92F8,#1CD855,10,10,1,40,0,936.5999999642372,37,1,711.2999999523163,10,1,experiment,NA,NA,1,0.7,0.3,2,3,13,1,NA
fcp-trial,61,473175,0.0-22.0-0.0,voc_e2,12044,"[{""event"":""fullscreenenter"",""trial"":1,""time"":3066},{""event"":""fullscreenexit"",""trial"":1,""time"":3714}]",NA,NA,NA,NA,NA,3,#1CD855,#FA92F8,0,10,0,38,1,1260.2000000476837,37,1,879.8000000119209,0,0,experiment,NA,NA,1,0.3,0.7,3,2,14,1,NA
fcp-trial,62,476287,0.0-23.0-0.0,voc_e2,12044,"[{""event"":""fullscreenenter"",""trial"":1,""time"":3066},{""event"":""fullscreenexit"",""trial"":1,""time"":3714}]",NA,NA,NA,NA,NA,0,#741CD8,#D8271C,0,0,0,40,0,907.6999999880791,37,1,695.8000000119209,0,0,experiment,NA,NA,2,0.5,0.5,5,4,15,1,NA
fcp-trial,63,479192,0.0-24.0-0.0,voc_e2,12044,"[{""event"":""fullscreenenter"",""trial"":1,""time"":3066},{""event"":""fullscreenexit"",""trial"":1,""time"":3714}]",NA,NA,NA,NA,NA,3,#D89F1C,#3386FF,0,10,0,38,1,696.7999999523163,39,0,702.1999999880791,10,1,experiment,NA,NA,0,0.1,0.9,1,0,16,1,NA
fcp-trial,64,482743,0.0-25.0-0.0,voc_e2,12044,"[{""event"":""fullscreenenter"",""trial"":1,""time"":3066},{""event"":""fullscreenexit"",""trial"":1,""time"":3714}]",NA,NA,NA,NA,NA,5,#D89F1C,#3386FF,0,10,0,40,0,1028.0999999642372,37,1,1015.3000000119208,0,0,experiment,NA,NA,0,0.1,0.9,1,0,17,1,NA
fcp-trial,65,486368,0.0-26.0-0.0,voc_e2,12044,"[{""event"":""fullscreenenter"",""trial"":1,""time"":3066},{""event"":""fullscreenexit"",""trial"":1,""time"":3714}]",NA,NA,NA,NA,NA,4,#1CD855,#FA92F8,10,10,0,40,0,1157.199999988079,37,1,960.3000000119208,10,0,experiment,NA,NA,1,0.3,0.7,3,2,18,1,NA
fcp-trial,66,489249,0.0-27.0-0.0,voc_e2,12044,"[{""event"":""fullscreenenter"",""trial"":1,""time"":3066},{""event"":""fullscreenexit"",""trial"":1,""time"":3714}]",NA,NA,NA,NA,NA,6,#D8271C,#741CD8,0,10,1,40,0,669.3999999761581,39,0,705.6999999880791,10,0,experiment,NA,NA,2,0.5,0.5,4,5,19,1,NA
fcp-trial,67,492137,0.0-28.0-0.0,voc_e2,12044,"[{""event"":""fullscreenenter"",""trial"":1,""time"":3066},{""event"":""fullscreenexit"",""trial"":1,""time"":3714}]",NA,NA,NA,NA,NA,4,#741CD8,#D8271C,0,0,0,40,0,619.5999999642372,39,0,759.8999999761581,0,1,experiment,NA,NA,2,0.5,0.5,5,4,20,1,NA
fcp-trial,68,495312,0.0-29.0-0.0,voc_e2,12044,"[{""event"":""fullscreenenter"",""trial"":1,""time"":3066},{""event"":""fullscreenexit"",""trial"":1,""time"":3714}]",NA,NA,NA,NA,NA,6,#D89F1C,#3386FF,0,10,0,40,0,712,39,0,957.5,10,1,experiment,NA,NA,0,0.1,0.9,1,0,21,1,NA
fcp-trial,69,498441,0.0-30.0-0.0,voc_e2,12044,"[{""event"":""fullscreenenter"",""trial"":1,""time"":3066},{""event"":""fullscreenexit"",""trial"":1,""time"":3714}]",NA,NA,NA,NA,NA,6,#D8271C,#741CD8,10,0,1,40,0,737.6000000238419,37,1,879.3999999761581,10,1,experiment,NA,NA,2,0.5,0.5,4,5,22,1,NA
fcp-trial,70,501423,0.0-31.0-0.0,voc_e2,12044,"[{""event"":""fullscreenenter"",""trial"":1,""time"":3066},{""event"":""fullscreenexit"",""trial"":1,""time"":3714}]",NA,NA,NA,NA,NA,3,#D89F1C,#3386FF,0,10,0,38,1,776.0999999642372,37,1,693.9000000357628,0,0,experiment,NA,NA,0,0.1,0.9,1,0,23,1,NA
fcp-trial,71,505127,0.0-32.0-0.0,voc_e2,12044,"[{""event"":""fullscreenenter"",""trial"":1,""time"":3066},{""event"":""fullscreenexit"",""trial"":1,""time"":3714}]",NA,NA,NA,NA,NA,6,#1CD855,#FA92F8,0,10,0,40,0,1263.6000000238419,37,1,934.600000023842,0,0,experiment,NA,NA,1,0.3,0.7,3,2,24,1,NA
fcp-trial,72,508096,0.0-33.0-0.0,voc_e2,12044,"[{""event"":""fullscreenenter"",""trial"":1,""time"":3066},{""event"":""fullscreenexit"",""trial"":1,""time"":3714}]",NA,NA,NA,NA,NA,0,#741CD8,#D8271C,0,0,0,38,1,782.3999999761581,39,0,670.3999999761581,0,1,experiment,NA,NA,2,0.5,0.5,5,4,25,1,NA
fcp-trial,73,513393,0.0-34.0-0.0,voc_e2,12044,"[{""event"":""fullscreenenter"",""trial"":1,""time"":3066},{""event"":""fullscreenexit"",""trial"":1,""time"":3714}]",NA,NA,NA,NA,NA,2,#741CD8,#D8271C,0,0,0,38,1,2933.400000035763,37,1,849.1000000238419,0,0,experiment,NA,NA,2,0.5,0.5,5,4,26,1,NA
fcp-trial,74,517696,0.0-35.0-0.0,voc_e2,12044,"[{""event"":""fullscreenenter"",""trial"":1,""time"":3066},{""event"":""fullscreenexit"",""trial"":1,""time"":3714}]",NA,NA,NA,NA,NA,4,#D89F1C,#3386FF,0,10,0,38,1,1796.5,39,0,988.5,10,1,experiment,NA,NA,0,0.1,0.9,1,0,27,1,NA
fcp-trial,75,522001,0.0-36.0-0.0,voc_e2,12044,"[{""event"":""fullscreenenter"",""trial"":1,""time"":3066},{""event"":""fullscreenexit"",""trial"":1,""time"":3714}]",NA,NA,NA,NA,NA,0,#D89F1C,#3386FF,0,0,0,38,1,1801.699999988079,39,0,990,0,1,experiment,NA,NA,0,0.1,0.9,1,0,28,1,NA
fcp-trial,76,525041,0.0-37.0-0.0,voc_e2,12044,"[{""event"":""fullscreenenter"",""trial"":1,""time"":3066},{""event"":""fullscreenexit"",""trial"":1,""time"":3714}]",NA,NA,NA,NA,NA,4,#FA92F8,#1CD855,0,0,1,38,1,917.5,37,1,614.8000000119209,0,1,experiment,NA,NA,1,0.7,0.3,2,3,29,1,NA
fcp-trial,77,528241,0.0-38.0-0.0,voc_e2,12044,"[{""event"":""fullscreenenter"",""trial"":1,""time"":3066},{""event"":""fullscreenexit"",""trial"":1,""time"":3714}]",NA,NA,NA,NA,NA,0,#FA92F8,#1CD855,10,10,1,38,1,980.8999999761581,39,0,710.5,10,0,experiment,NA,NA,1,0.7,0.3,2,3,30,1,NA
fcp-trial,78,531473,0.0-39.0-0.0,voc_e2,12044,"[{""event"":""fullscreenenter"",""trial"":1,""time"":3066},{""event"":""fullscreenexit"",""trial"":1,""time"":3714}]",NA,NA,NA,NA,NA,1,#741CD8,#D8271C,0,0,0,38,1,1260.800000011921,39,0,461.300000011921,0,1,experiment,NA,NA,2,0.5,0.5,5,4,31,1,NA
fcp-trial,79,534449,0.0-40.0-0.0,voc_e2,12044,"[{""event"":""fullscreenenter"",""trial"":1,""time"":3066},{""event"":""fullscreenexit"",""trial"":1,""time"":3714}]",NA,NA,NA,NA,NA,6,#D89F1C,#3386FF,0,10,0,40,0,779.8000000119209,39,0,688.1999999880791,10,1,experiment,NA,NA,0,0.1,0.9,1,0,32,1,NA
fcp-trial,80,538122,0.0-41.0-0.0,voc_e2,12044,"[{""event"":""fullscreenenter"",""trial"":1,""time"":3066},{""event"":""fullscreenexit"",""trial"":1,""time"":3714}]",NA,NA,NA,NA,NA,3,#D8271C,#741CD8,10,0,1,40,0,1214.699999988079,37,1,951.600000023842,10,1,experiment,NA,NA,2,0.5,0.5,4,5,33,1,NA
fcp-trial,81,541466,0.0-42.0-0.0,voc_e2,12044,"[{""event"":""fullscreenenter"",""trial"":1,""time"":3066},{""event"":""fullscreenexit"",""trial"":1,""time"":3714}]",NA,NA,NA,NA,NA,5,#1CD855,#FA92F8,0,10,0,40,0,1111.9000000357628,39,0,717.5,10,1,experiment,NA,NA,1,0.3,0.7,3,2,34,1,NA
fcp-trial,82,544858,0.0-43.0-0.0,voc_e2,12044,"[{""event"":""fullscreenenter"",""trial"":1,""time"":3066},{""event"":""fullscreenexit"",""trial"":1,""time"":3714}]",NA,NA,NA,NA,NA,5,#3386FF,#D89F1C,10,0,1,40,0,1019.1999999880791,37,1,864.3000000119209,10,1,experiment,NA,NA,0,0.9,0.1,0,1,35,1,NA
fcp-trial,83,547811,0.0-44.0-0.0,voc_e2,12044,"[{""event"":""fullscreenenter"",""trial"":1,""time"":3066},{""event"":""fullscreenexit"",""trial"":1,""time"":3714}]",NA,NA,NA,NA,NA,1,#D89F1C,#3386FF,0,10,0,40,0,716.5,39,0,727,10,1,experiment,NA,NA,0,0.1,0.9,1,0,36,1,NA
fcp-trial,84,550651,0.0-45.0-0.0,voc_e2,12044,"[{""event"":""fullscreenenter"",""trial"":1,""time"":3066},{""event"":""fullscreenexit"",""trial"":1,""time"":3714}]",NA,NA,NA,NA,NA,5,#741CD8,#D8271C,0,10,0,40,0,736,39,0,590.8000000119209,10,1,experiment,NA,NA,2,0.5,0.5,5,4,37,1,NA
fcp-trial,85,553794,0.0-46.0-0.0,voc_e2,12044,"[{""event"":""fullscreenenter"",""trial"":1,""time"":3066},{""event"":""fullscreenexit"",""trial"":1,""time"":3714}]",NA,NA,NA,NA,NA,2,#3386FF,#D89F1C,10,0,1,40,0,918.2999999523163,39,0,712.6999999880791,0,0,experiment,NA,NA,0,0.9,0.1,0,1,38,1,NA
fcp-trial,86,556843,0.0-47.0-0.0,voc_e2,12044,"[{""event"":""fullscreenenter"",""trial"":1,""time"":3066},{""event"":""fullscreenexit"",""trial"":1,""time"":3714}]",NA,NA,NA,NA,NA,3,#1CD855,#FA92F8,0,10,0,40,0,728.2000000476837,39,0,814.7000000476837,10,1,experiment,NA,NA,1,0.3,0.7,3,2,39,1,NA
fcp-trial,87,559457,0.0-48.0-0.0,voc_e2,12044,"[{""event"":""fullscreenenter"",""trial"":1,""time"":3066},{""event"":""fullscreenexit"",""trial"":1,""time"":3714}]",NA,NA,NA,NA,NA,2,#1CD855,#FA92F8,0,10,0,40,0,643.3000000119209,39,0,463.699999988079,10,1,experiment,NA,NA,1,0.3,0.7,3,2,40,1,NA
fcp-trial,88,562908,0.0-49.0-0.0,voc_e2,12044,"[{""event"":""fullscreenenter"",""trial"":1,""time"":3066},{""event"":""fullscreenexit"",""trial"":1,""time"":3714}]",NA,NA,NA,NA,NA,4,#741CD8,#D8271C,0,10,0,40,0,1076.699999988079,37,1,862.8999999761581,0,0,experiment,NA,NA,2,0.5,0.5,5,4,41,1,NA
fcp-trial,89,567426,0.0-50.0-0.0,voc_e2,12044,"[{""event"":""fullscreenenter"",""trial"":1,""time"":3066},{""event"":""fullscreenexit"",""trial"":1,""time"":3714}]",NA,NA,NA,NA,NA,1,#FA92F8,#1CD855,0,0,1,38,1,1427.2999999523163,37,1,1583,0,1,experiment,NA,NA,1,0.7,0.3,2,3,42,1,NA
fcp-trial,90,570380,0.0-51.0-0.0,voc_e2,12044,"[{""event"":""fullscreenenter"",""trial"":1,""time"":3066},{""event"":""fullscreenexit"",""trial"":1,""time"":3714}]",NA,NA,NA,NA,NA,6,#D89F1C,#3386FF,0,0,0,38,1,766.6999999880791,39,0,677.6000000238419,0,1,experiment,NA,NA,0,0.1,0.9,1,0,43,1,NA
fcp-trial,91,573563,0.0-52.0-0.0,voc_e2,12044,"[{""event"":""fullscreenenter"",""trial"":1,""time"":3066},{""event"":""fullscreenexit"",""trial"":1,""time"":3714}]",NA,NA,NA,NA,NA,3,#741CD8,#D8271C,10,0,0,38,1,901.8999999761581,39,0,774.4000000357628,0,1,experiment,NA,NA,2,0.5,0.5,5,4,44,1,NA
fcp-trial,92,577010,0.0-53.0-0.0,voc_e2,12044,"[{""event"":""fullscreenenter"",""trial"":1,""time"":3066},{""event"":""fullscreenexit"",""trial"":1,""time"":3714}]",NA,NA,NA,NA,NA,1,#3386FF,#D89F1C,0,0,1,40,0,1237.5,37,1,701.3999999761581,0,1,experiment,NA,NA,0,0.9,0.1,0,1,45,1,NA
fcp-trial,93,579683,0.0-54.0-0.0,voc_e2,12044,"[{""event"":""fullscreenenter"",""trial"":1,""time"":3066},{""event"":""fullscreenexit"",""trial"":1,""time"":3714}]",NA,NA,NA,NA,NA,6,#FA92F8,#1CD855,10,0,1,40,0,486.39999997615814,37,1,678.2000000476837,10,1,experiment,NA,NA,1,0.7,0.3,2,3,46,2,NA
fcp-trial,94,583188,0.0-55.0-0.0,voc_e2,12044,"[{""event"":""fullscreenenter"",""trial"":1,""time"":3066},{""event"":""fullscreenexit"",""trial"":1,""time"":3714}]",NA,NA,NA,NA,NA,0,#FA92F8,#1CD855,10,0,1,40,0,1188.199999988079,39,0,804.5,0,0,experiment,NA,NA,1,0.7,0.3,2,3,47,2,NA
fcp-trial,95,587595,0.0-56.0-0.0,voc_e2,12044,"[{""event"":""fullscreenenter"",""trial"":1,""time"":3066},{""event"":""fullscreenexit"",""trial"":1,""time"":3714}]",NA,NA,NA,NA,NA,0,#741CD8,#D8271C,10,10,0,38,1,1887.800000011921,37,1,1005.399999976158,10,0,experiment,NA,NA,2,0.5,0.5,5,4,48,2,NA
fcp-trial,96,591043,0.0-57.0-0.0,voc_e2,12044,"[{""event"":""fullscreenenter"",""trial"":1,""time"":3066},{""event"":""fullscreenexit"",""trial"":1,""time"":3714}]",NA,NA,NA,NA,NA,3,#3386FF,#D89F1C,10,0,1,38,1,1021.3999999761581,37,1,918.5,10,1,experiment,NA,NA,0,0.9,0.1,0,1,49,2,NA
fcp-trial,97,595074,0.0-58.0-0.0,voc_e2,12044,"[{""event"":""fullscreenenter"",""trial"":1,""time"":3066},{""event"":""fullscreenexit"",""trial"":1,""time"":3714}]",NA,NA,NA,NA,NA,1,#741CD8,#D8271C,0,10,0,38,1,1528.199999988079,37,1,996.8000000119208,0,0,experiment,NA,NA,2,0.5,0.5,5,4,50,2,NA
fcp-trial,98,598180,0.0-59.0-0.0,voc_e2,12044,"[{""event"":""fullscreenenter"",""trial"":1,""time"":3066},{""event"":""fullscreenexit"",""trial"":1,""time"":3714}]",NA,NA,NA,NA,NA,2,#1CD855,#FA92F8,0,10,0,38,1,1152.8999999761581,39,0,438.39999997615814,10,1,experiment,NA,NA,1,0.3,0.7,3,2,51,2,NA
fcp-trial,99,601763,0.0-60.0-0.0,voc_e2,12044,"[{""event"":""fullscreenenter"",""trial"":1,""time"":3066},{""event"":""fullscreenexit"",""trial"":1,""time"":3714}]",NA,NA,NA,NA,NA,4,#3386FF,#D89F1C,10,0,1,38,1,843,37,1,1232.9000000357628,10,1,experiment,NA,NA,0,0.9,0.1,0,1,52,2,NA
fcp-trial,100,604682,0.0-61.0-0.0,voc_e2,12044,"[{""event"":""fullscreenenter"",""trial"":1,""time"":3066},{""event"":""fullscreenexit"",""trial"":1,""time"":3714}]",NA,NA,NA,NA,NA,2,#D8271C,#741CD8,10,0,1,40,0,700.8999999761581,37,1,708.1000000238419,10,1,experiment,NA,NA,2,0.5,0.5,4,5,53,2,NA
fcp-trial,101,608619,0.0-62.0-0.0,voc_e2,12044,"[{""event"":""fullscreenenter"",""trial"":1,""time"":3066},{""event"":""fullscreenexit"",""trial"":1,""time"":3714}]",NA,NA,NA,NA,NA,5,#1CD855,#FA92F8,0,10,0,40,0,1793.0999999642372,37,1,630.6999999880791,0,0,experiment,NA,NA,1,0.3,0.7,3,2,54,2,NA
fcp-trial,102,612717,0.0-63.0-0.0,voc_e2,12044,"[{""event"":""fullscreenenter"",""trial"":1,""time"":3066},{""event"":""fullscreenexit"",""trial"":1,""time"":3714}]",NA,NA,NA,NA,NA,0,#D89F1C,#3386FF,0,10,0,40,0,1289.1000000238419,39,0,1294.600000023842,10,1,experiment,NA,NA,0,0.1,0.9,1,0,55,2,NA
fcp-trial,103,616838,0.0-64.0-0.0,voc_e2,12044,"[{""event"":""fullscreenenter"",""trial"":1,""time"":3066},{""event"":""fullscreenexit"",""trial"":1,""time"":3714}]",NA,NA,NA,NA,NA,1,#FA92F8,#1CD855,0,10,1,40,0,1772.199999988079,39,0,839.5,10,0,experiment,NA,NA,1,0.7,0.3,2,3,56,2,NA
fcp-trial,104,620004,0.0-65.0-0.0,voc_e2,12044,"[{""event"":""fullscreenenter"",""trial"":1,""time"":3066},{""event"":""fullscreenexit"",""trial"":1,""time"":3714}]",NA,NA,NA,NA,NA,5,#741CD8,#D8271C,0,0,0,38,1,806.6000000238419,37,1,845.1999999880791,0,0,experiment,NA,NA,2,0.5,0.5,5,4,57,2,NA
fcp-trial,105,623451,0.0-66.0-0.0,voc_e2,12044,"[{""event"":""fullscreenenter"",""trial"":1,""time"":3066},{""event"":""fullscreenexit"",""trial"":1,""time"":3714}]",NA,NA,NA,NA,NA,4,#D8271C,#741CD8,10,0,1,40,0,982.5999999642372,37,1,959.3000000119208,10,1,experiment,NA,NA,2,0.5,0.5,4,5,58,2,NA
fcp-trial,106,626340,0.0-67.0-0.0,voc_e2,12044,"[{""event"":""fullscreenenter"",""trial"":1,""time"":3066},{""event"":""fullscreenexit"",""trial"":1,""time"":3714}]",NA,NA,NA,NA,NA,5,#D89F1C,#3386FF,0,10,0,40,0,589.6000000238419,39,0,790.1999999880791,10,1,experiment,NA,NA,0,0.1,0.9,1,0,59,2,NA
fcp-trial,107,629788,0.0-68.0-0.0,voc_e2,12044,"[{""event"":""fullscreenenter"",""trial"":1,""time"":3066},{""event"":""fullscreenexit"",""trial"":1,""time"":3714}]",NA,NA,NA,NA,NA,4,#1CD855,#FA92F8,0,10,0,40,0,1248.3999999761581,39,0,694.1999999880791,10,1,experiment,NA,NA,1,0.3,0.7,3,2,60,2,NA
fcp-trial,108,632547,0.0-69.0-0.0,voc_e2,12044,"[{""event"":""fullscreenenter"",""trial"":1,""time"":3066},{""event"":""fullscreenexit"",""trial"":1,""time"":3714}]",NA,NA,NA,NA,NA,3,#FA92F8,#1CD855,0,10,1,40,0,667.3999999761581,39,0,579.8000000119209,10,0,experiment,NA,NA,1,0.7,0.3,2,3,61,2,NA
fcp-trial,109,635541,0.0-70.0-0.0,voc_e2,12044,"[{""event"":""fullscreenenter"",""trial"":1,""time"":3066},{""event"":""fullscreenexit"",""trial"":1,""time"":3714}]",NA,NA,NA,NA,NA,2,#3386FF,#D89F1C,10,0,1,40,0,1034.0999999642372,39,0,454,0,0,experiment,NA,NA,0,0.9,0.1,0,1,62,2,NA
fcp-trial,110,639691,0.0-71.0-0.0,voc_e2,12044,"[{""event"":""fullscreenenter"",""trial"":1,""time"":3066},{""event"":""fullscreenexit"",""trial"":1,""time"":3714}]",NA,NA,NA,NA,NA,6,#741CD8,#D8271C,10,10,0,40,0,1631.5999999642372,37,1,1005.7000000476836,10,0,experiment,NA,NA,2,0.5,0.5,5,4,63,2,NA
fcp-trial,111,643191,0.0-72.0-0.0,voc_e2,12044,"[{""event"":""fullscreenenter"",""trial"":1,""time"":3066},{""event"":""fullscreenexit"",""trial"":1,""time"":3714}]",NA,NA,NA,NA,NA,2,#1CD855,#FA92F8,0,0,0,40,0,1194.6000000238419,37,1,799.2000000476837,0,0,experiment,NA,NA,1,0.3,0.7,3,2,64,2,NA
fcp-trial,112,646037,0.0-73.0-0.0,voc_e2,12044,"[{""event"":""fullscreenenter"",""trial"":1,""time"":3066},{""event"":""fullscreenexit"",""trial"":1,""time"":3714}]",NA,NA,NA,NA,NA,6,#1CD855,#FA92F8,0,0,0,40,0,635.5999999642372,37,1,701.3999999761581,0,0,experiment,NA,NA,1,0.3,0.7,3,2,65,2,NA
fcp-trial,113,650317,0.0-74.0-0.0,voc_e2,12044,"[{""event"":""fullscreenenter"",""trial"":1,""time"":3066},{""event"":""fullscreenexit"",""trial"":1,""time"":3714}]",NA,NA,NA,NA,NA,0,#3386FF,#D89F1C,10,0,1,38,1,1662,37,1,1104.199999988079,10,1,experiment,NA,NA,0,0.9,0.1,0,1,66,2,NA
fcp-trial,114,654695,0.0-75.0-0.0,voc_e2,12044,"[{""event"":""fullscreenenter"",""trial"":1,""time"":3066},{""event"":""fullscreenexit"",""trial"":1,""time"":3714}]",NA,NA,NA,NA,NA,3,#D8271C,#741CD8,0,0,1,38,1,1798.0999999642372,39,0,1070.7000000476835,0,0,experiment,NA,NA,2,0.5,0.5,4,5,67,2,NA
fcp-trial,115,658123,0.0-76.0-0.0,voc_e2,12044,"[{""event"":""fullscreenenter"",""trial"":1,""time"":3066},{""event"":""fullscreenexit"",""trial"":1,""time"":3714}]",NA,NA,NA,NA,NA,6,#D8271C,#741CD8,0,0,1,40,0,1230.0999999642372,39,0,694.1000000238419,0,0,experiment,NA,NA,2,0.5,0.5,4,5,68,2,NA
fcp-trial,116,661598,0.0-77.0-0.0,voc_e2,12044,"[{""event"":""fullscreenenter"",""trial"":1,""time"":3066},{""event"":""fullscreenexit"",""trial"":1,""time"":3714}]",NA,NA,NA,NA,NA,0,#1CD855,#FA92F8,0,10,0,38,1,1281.3999999761581,37,1,688.5,0,0,experiment,NA,NA,1,0.3,0.7,3,2,69,2,NA
fcp-trial,117,665764,0.0-78.0-0.0,voc_e2,12044,"[{""event"":""fullscreenenter"",""trial"":1,""time"":3066},{""event"":""fullscreenexit"",""trial"":1,""time"":3714}]",NA,NA,NA,NA,NA,2,#D8271C,#741CD8,10,0,1,38,1,1062.699999988079,39,0,1591.5999999642372,0,0,experiment,NA,NA,2,0.5,0.5,4,5,70,2,NA
fcp-trial,118,670332,0.0-79.0-0.0,voc_e2,12044,"[{""event"":""fullscreenenter"",""trial"":1,""time"":3066},{""event"":""fullscreenexit"",""trial"":1,""time"":3714}]",NA,NA,NA,NA,NA,5,#D89F1C,#3386FF,0,10,0,38,1,2146.2000000476837,39,0,917.899999976158,10,1,experiment,NA,NA,0,0.1,0.9,1,0,71,2,NA
fcp-trial,119,673745,0.0-80.0-0.0,voc_e2,12044,"[{""event"":""fullscreenenter"",""trial"":1,""time"":3066},{""event"":""fullscreenexit"",""trial"":1,""time"":3714}]",NA,NA,NA,NA,NA,6,#D89F1C,#3386FF,0,10,0,38,1,1050.1000000238419,39,0,857,10,1,experiment,NA,NA,0,0.1,0.9,1,0,72,2,NA
fcp-trial,120,676982,0.0-81.0-0.0,voc_e2,12044,"[{""event"":""fullscreenenter"",""trial"":1,""time"":3066},{""event"":""fullscreenexit"",""trial"":1,""time"":3714}]",NA,NA,NA,NA,NA,4,#FA92F8,#1CD855,0,0,1,38,1,1140.8999999761581,37,1,590.6999999880791,0,1,experiment,NA,NA,1,0.7,0.3,2,3,73,2,NA
fcp-trial,121,681615,0.0-82.0-0.0,voc_e2,12044,"[{""event"":""fullscreenenter"",""trial"":1,""time"":3066},{""event"":""fullscreenexit"",""trial"":1,""time"":3714}]",NA,NA,NA,NA,NA,2,#D89F1C,#3386FF,10,0,0,38,1,1416.7999999523163,39,0,1702.199999988079,0,1,experiment,NA,NA,0,0.1,0.9,1,0,74,2,NA
fcp-trial,122,685495,0.0-83.0-0.0,voc_e2,12044,"[{""event"":""fullscreenenter"",""trial"":1,""time"":3066},{""event"":""fullscreenexit"",""trial"":1,""time"":3714}]",NA,NA,NA,NA,NA,4,#741CD8,#D8271C,0,0,0,40,0,1477.5,37,1,884.5999999642372,0,0,experiment,NA,NA,2,0.5,0.5,5,4,75,2,NA
fcp-trial,123,689094,0.0-84.0-0.0,voc_e2,12044,"[{""event"":""fullscreenenter"",""trial"":1,""time"":3066},{""event"":""fullscreenexit"",""trial"":1,""time"":3714}]",NA,NA,NA,NA,NA,1,#1CD855,#FA92F8,0,0,0,40,0,1405.9000000357628,37,1,679.8000000119209,0,0,experiment,NA,NA,1,0.3,0.7,3,2,76,2,NA
fcp-trial,124,692567,0.0-85.0-0.0,voc_e2,12044,"[{""event"":""fullscreenenter"",""trial"":1,""time"":3066},{""event"":""fullscreenexit"",""trial"":1,""time"":3714}]",NA,NA,NA,NA,NA,5,#FA92F8,#1CD855,0,0,1,40,0,1036.6000000238419,37,1,926.899999976158,0,1,experiment,NA,NA,1,0.7,0.3,2,3,77,2,NA
fcp-trial,125,695990,0.0-86.0-0.0,voc_e2,12044,"[{""event"":""fullscreenenter"",""trial"":1,""time"":3066},{""event"":""fullscreenexit"",""trial"":1,""time"":3714}]",NA,NA,NA,NA,NA,1,#D8271C,#741CD8,0,0,1,40,0,1192,39,0,718.3999999761581,0,0,experiment,NA,NA,2,0.5,0.5,4,5,78,2,NA
fcp-trial,126,699685,0.0-87.0-0.0,voc_e2,12044,"[{""event"":""fullscreenenter"",""trial"":1,""time"":3066},{""event"":""fullscreenexit"",""trial"":1,""time"":3714}]",NA,NA,NA,NA,NA,3,#D89F1C,#3386FF,0,10,0,38,1,1224.8999999761581,37,1,958.9000000357628,0,0,experiment,NA,NA,0,0.1,0.9,1,0,79,2,NA
fcp-trial,127,703343,0.0-88.0-0.0,voc_e2,12044,"[{""event"":""fullscreenenter"",""trial"":1,""time"":3066},{""event"":""fullscreenexit"",""trial"":1,""time"":3714}]",NA,NA,NA,NA,NA,4,#D89F1C,#3386FF,0,10,0,38,1,1381.6000000238419,39,0,767.6999999880791,10,1,experiment,NA,NA,0,0.1,0.9,1,0,80,2,NA
fcp-trial,128,706624,0.0-89.0-0.0,voc_e2,12044,"[{""event"":""fullscreenenter"",""trial"":1,""time"":3066},{""event"":""fullscreenexit"",""trial"":1,""time"":3714}]",NA,NA,NA,NA,NA,5,#741CD8,#D8271C,10,10,0,38,1,1159.1000000238419,37,1,615.3000000119209,10,0,experiment,NA,NA,2,0.5,0.5,5,4,81,2,NA
fcp-trial,129,709775,0.0-90.0-0.0,voc_e2,12044,"[{""event"":""fullscreenenter"",""trial"":1,""time"":3066},{""event"":""fullscreenexit"",""trial"":1,""time"":3714}]",NA,NA,NA,NA,NA,3,#FA92F8,#1CD855,0,10,1,38,1,1052.8999999761581,39,0,590.8000000119209,10,0,experiment,NA,NA,1,0.7,0.3,2,3,82,2,NA
fcp-trial,130,712728,0.0-91.0-0.0,voc_e2,12044,"[{""event"":""fullscreenenter"",""trial"":1,""time"":3066},{""event"":""fullscreenexit"",""trial"":1,""time"":3714}]",NA,NA,NA,NA,NA,1,#3386FF,#D89F1C,10,0,1,38,1,867.0999999642372,37,1,576,10,1,experiment,NA,NA,0,0.9,0.1,0,1,83,2,NA
fcp-trial,131,716287,0.0-92.0-0.0,voc_e2,12044,"[{""event"":""fullscreenenter"",""trial"":1,""time"":3066},{""event"":""fullscreenexit"",""trial"":1,""time"":3714}]",NA,NA,NA,NA,NA,0,#D8271C,#741CD8,10,10,1,38,1,1015.5999999642372,39,0,1028.899999976158,10,0,experiment,NA,NA,2,0.5,0.5,4,5,84,2,NA
fcp-trial,132,719656,0.0-93.0-0.0,voc_e2,12044,"[{""event"":""fullscreenenter"",""trial"":1,""time"":3066},{""event"":""fullscreenexit"",""trial"":1,""time"":3714}]",NA,NA,NA,NA,NA,5,#741CD8,#D8271C,0,10,0,40,0,1212.8999999761581,37,1,647,0,0,experiment,NA,NA,2,0.5,0.5,5,4,85,2,NA
fcp-trial,133,722782,0.0-94.0-0.0,voc_e2,12044,"[{""event"":""fullscreenenter"",""trial"":1,""time"":3066},{""event"":""fullscreenexit"",""trial"":1,""time"":3714}]",NA,NA,NA,NA,NA,6,#741CD8,#D8271C,0,0,0,40,0,837.6000000238419,37,1,781.5,0,0,experiment,NA,NA,2,0.5,0.5,5,4,86,2,NA
fcp-trial,134,726176,0.0-95.0-0.0,voc_e2,12044,"[{""event"":""fullscreenenter"",""trial"":1,""time"":3066},{""event"":""fullscreenexit"",""trial"":1,""time"":3714}]",NA,NA,NA,NA,NA,2,#D89F1C,#3386FF,0,10,0,40,0,745.5,37,1,1135.600000023842,0,0,experiment,NA,NA,0,0.1,0.9,1,0,87,2,NA
fcp-trial,135,730735,0.0-96.0-0.0,voc_e2,12044,"[{""event"":""fullscreenenter"",""trial"":1,""time"":3066},{""event"":""fullscreenexit"",""trial"":1,""time"":3714}]",NA,NA,NA,NA,NA,5,#FA92F8,#1CD855,10,0,1,38,1,1336.5,37,1,1708.399999976158,10,1,experiment,NA,NA,1,0.7,0.3,2,3,88,2,NA
fcp-trial,136,734842,0.0-97.0-0.0,voc_e2,12044,"[{""event"":""fullscreenenter"",""trial"":1,""time"":3066},{""event"":""fullscreenexit"",""trial"":1,""time"":3714}]",NA,NA,NA,NA,NA,3,#3386FF,#D89F1C,10,0,1,38,1,1099.8999999761581,37,1,1498.5,10,1,experiment,NA,NA,0,0.9,0.1,0,1,89,2,NA
fcp-trial,137,737696,0.0-98.0-0.0,voc_e2,12044,"[{""event"":""fullscreenenter"",""trial"":1,""time"":3066},{""event"":""fullscreenexit"",""trial"":1,""time"":3714}]",NA,NA,NA,NA,NA,0,#D8271C,#741CD8,10,10,1,38,1,885.1999999880791,39,0,462.9000000357628,10,0,experiment,NA,NA,2,0.5,0.5,4,5,90,2,NA
fcp-trial,138,740767,0.0-99.0-0.0,voc_e2,12044,"[{""event"":""fullscreenenter"",""trial"":1,""time"":3066},{""event"":""fullscreenexit"",""trial"":1,""time"":3714}]",NA,NA,NA,NA,NA,3,#D8271C,#741CD8,0,0,1,38,1,879.5999999642372,37,1,678.3000000119209,0,1,experiment,NA,NA,2,0.5,0.5,4,5,91,3,NA
fcp-trial,139,744057,0.0-100.0-0.0,voc_e2,12044,"[{""event"":""fullscreenenter"",""trial"":1,""time"":3066},{""event"":""fullscreenexit"",""trial"":1,""time"":3714}]",NA,NA,NA,NA,NA,3,#1CD855,#FA92F8,10,10,0,40,0,1081,39,0,695.1000000238419,10,1,experiment,NA,NA,1,0.3,0.7,3,2,92,3,NA
fcp-trial,140,747846,0.0-101.0-0.0,voc_e2,12044,"[{""event"":""fullscreenenter"",""trial"":1,""time"":3066},{""event"":""fullscreenexit"",""trial"":1,""time"":3714}]",NA,NA,NA,NA,NA,0,#D89F1C,#3386FF,0,0,0,38,1,986.8999999761581,39,0,1295,0,1,experiment,NA,NA,0,0.1,0.9,1,0,93,3,NA
fcp-trial,141,751281,0.0-102.0-0.0,voc_e2,12044,"[{""event"":""fullscreenenter"",""trial"":1,""time"":3066},{""event"":""fullscreenexit"",""trial"":1,""time"":3714}]",NA,NA,NA,NA,NA,2,#1CD855,#FA92F8,0,10,0,38,1,1339.199999988079,39,0,590.6000000238419,10,1,experiment,NA,NA,1,0.3,0.7,3,2,94,3,NA
fcp-trial,142,754927,0.0-103.0-0.0,voc_e2,12044,"[{""event"":""fullscreenenter"",""trial"":1,""time"":3066},{""event"":""fullscreenexit"",""trial"":1,""time"":3714}]",NA,NA,NA,NA,NA,4,#FA92F8,#1CD855,10,10,1,40,0,1238.2000000476837,37,1,894.0999999642372,10,1,experiment,NA,NA,1,0.7,0.3,2,3,95,3,NA
fcp-trial,143,758049,0.0-104.0-0.0,voc_e2,12044,"[{""event"":""fullscreenenter"",""trial"":1,""time"":3066},{""event"":""fullscreenexit"",""trial"":1,""time"":3714}]",NA,NA,NA,NA,NA,1,#D8271C,#741CD8,0,10,1,38,1,948.5,39,0,663.6999999880791,10,0,experiment,NA,NA,2,0.5,0.5,4,5,96,3,NA
fcp-trial,144,761074,0.0-105.0-0.0,voc_e2,12044,"[{""event"":""fullscreenenter"",""trial"":1,""time"":3066},{""event"":""fullscreenexit"",""trial"":1,""time"":3714}]",NA,NA,NA,NA,NA,1,#D89F1C,#3386FF,0,0,0,38,1,976.8000000119209,37,1,534.9000000357628,0,0,experiment,NA,NA,0,0.1,0.9,1,0,97,3,NA
fcp-trial,145,764794,0.0-106.0-0.0,voc_e2,12044,"[{""event"":""fullscreenenter"",""trial"":1,""time"":3066},{""event"":""fullscreenexit"",""trial"":1,""time"":3714}]",NA,NA,NA,NA,NA,0,#1CD855,#FA92F8,10,0,0,40,0,1212.5,37,1,997.600000023842,10,0,experiment,NA,NA,1,0.3,0.7,3,2,98,3,NA
fcp-trial,146,768001,0.0-107.0-0.0,voc_e2,12044,"[{""event"":""fullscreenenter"",""trial"":1,""time"":3066},{""event"":""fullscreenexit"",""trial"":1,""time"":3714}]",NA,NA,NA,NA,NA,6,#FA92F8,#1CD855,10,0,1,38,1,1032.199999988079,39,0,663,0,0,experiment,NA,NA,1,0.7,0.3,2,3,99,3,NA
fcp-trial,147,771329,0.0-108.0-0.0,voc_e2,12044,"[{""event"":""fullscreenenter"",""trial"":1,""time"":3066},{""event"":""fullscreenexit"",""trial"":1,""time"":3714}]",NA,NA,NA,NA,NA,2,#741CD8,#D8271C,0,0,0,40,0,953.0999999642372,39,0,861.5,0,1,experiment,NA,NA,2,0.5,0.5,5,4,100,3,NA
fcp-trial,148,774851,0.0-109.0-0.0,voc_e2,12044,"[{""event"":""fullscreenenter"",""trial"":1,""time"":3066},{""event"":""fullscreenexit"",""trial"":1,""time"":3714}]",NA,NA,NA,NA,NA,5,#D89F1C,#3386FF,0,10,0,40,0,1273.1000000238419,39,0,735.5999999642372,10,1,experiment,NA,NA,0,0.1,0.9,1,0,101,3,NA
fcp-trial,149,778041,0.0-110.0-0.0,voc_e2,12044,"[{""event"":""fullscreenenter"",""trial"":1,""time"":3066},{""event"":""fullscreenexit"",""trial"":1,""time"":3714}]",NA,NA,NA,NA,NA,1,#1CD855,#FA92F8,0,10,0,40,0,844.0999999642372,39,0,836.5999999642372,10,1,experiment,NA,NA,1,0.3,0.7,3,2,102,3,NA
fcp-trial,150,780907,0.0-111.0-0.0,voc_e2,12044,"[{""event"":""fullscreenenter"",""trial"":1,""time"":3066},{""event"":""fullscreenexit"",""trial"":1,""time"":3714}]",NA,NA,NA,NA,NA,4,#3386FF,#D89F1C,10,0,1,40,0,677,39,0,679.6999999880791,0,0,experiment,NA,NA,0,0.9,0.1,0,1,103,3,NA
fcp-trial,151,784139,0.0-112.0-0.0,voc_e2,12044,"[{""event"":""fullscreenenter"",""trial"":1,""time"":3066},{""event"":""fullscreenexit"",""trial"":1,""time"":3714}]",NA,NA,NA,NA,NA,6,#3386FF,#D89F1C,10,0,1,40,0,720.1999999880791,37,1,998,10,1,experiment,NA,NA,0,0.9,0.1,0,1,104,3,NA
fcp-trial,152,787539,0.0-113.0-0.0,voc_e2,12044,"[{""event"":""fullscreenenter"",""trial"":1,""time"":3066},{""event"":""fullscreenexit"",""trial"":1,""time"":3714}]",NA,NA,NA,NA,NA,4,#741CD8,#D8271C,10,0,0,38,1,1012.3000000119209,39,0,878.3999999761581,0,1,experiment,NA,NA,2,0.5,0.5,5,4,105,3,NA
audio-instructions,153,797094,0.0-114.0,voc_e2,12044,"[{""event"":""fullscreenenter"",""trial"":1,""time"":3066},{""event"":""fullscreenexit"",""trial"":1,""time"":3714}]",NA,5048.099999964237,static/audio/pause.wav,NA,0,NA,NA,NA,NA,NA,NA,NA,NA,NA,NA,NA,NA,NA,NA,NA,NA,NA,NA,NA,NA,NA,NA,NA,NA,NA
fcp-trial,154,801243,0.0-115.0-0.0,voc_e2,12044,"[{""event"":""fullscreenenter"",""trial"":1,""time"":3066},{""event"":""fullscreenexit"",""trial"":1,""time"":3714}]",NA,NA,NA,NA,NA,5,#D89F1C,#3386FF,0,10,0,38,1,1237.699999988079,39,0,1406.100000023842,10,1,experiment,NA,NA,0,0.1,0.9,1,0,106,3,NA
fcp-trial,155,804480,0.0-116.0-0.0,voc_e2,12044,"[{""event"":""fullscreenenter"",""trial"":1,""time"":3066},{""event"":""fullscreenexit"",""trial"":1,""time"":3714}]",NA,NA,NA,NA,NA,1,#FA92F8,#1CD855,10,0,1,40,0,940.5,39,0,779.6000000238419,0,0,experiment,NA,NA,1,0.7,0.3,2,3,107,3,NA
fcp-trial,156,808101,0.0-117.0-0.0,voc_e2,12044,"[{""event"":""fullscreenenter"",""trial"":1,""time"":3066},{""event"":""fullscreenexit"",""trial"":1,""time"":3714}]",NA,NA,NA,NA,NA,0,#1CD855,#FA92F8,10,10,0,40,0,1215.5999999642372,37,1,893.8999999761581,10,0,experiment,NA,NA,1,0.3,0.7,3,2,108,3,NA
fcp-trial,157,811921,0.0-118.0-0.0,voc_e2,12044,"[{""event"":""fullscreenenter"",""trial"":1,""time"":3066},{""event"":""fullscreenexit"",""trial"":1,""time"":3714}]",NA,NA,NA,NA,NA,2,#3386FF,#D89F1C,10,0,1,38,1,1436.199999988079,37,1,877.1999999880791,10,1,experiment,NA,NA,0,0.9,0.1,0,1,109,3,NA
fcp-trial,158,815080,0.0-119.0-0.0,voc_e2,12044,"[{""event"":""fullscreenenter"",""trial"":1,""time"":3066},{""event"":""fullscreenexit"",""trial"":1,""time"":3714}]",NA,NA,NA,NA,NA,3,#741CD8,#D8271C,10,10,0,40,0,957.4000000357628,37,1,687,10,0,experiment,NA,NA,2,0.5,0.5,5,4,110,3,NA
fcp-trial,159,818490,0.0-120.0-0.0,voc_e2,12044,"[{""event"":""fullscreenenter"",""trial"":1,""time"":3066},{""event"":""fullscreenexit"",""trial"":1,""time"":3714}]",NA,NA,NA,NA,NA,1,#741CD8,#D8271C,10,0,0,40,0,1176,39,0,716.7000000476837,0,1,experiment,NA,NA,2,0.5,0.5,5,4,111,3,NA
fcp-trial,160,822492,0.0-121.0-0.0,voc_e2,12044,"[{""event"":""fullscreenenter"",""trial"":1,""time"":3066},{""event"":""fullscreenexit"",""trial"":1,""time"":3714}]",NA,NA,NA,NA,NA,4,#FA92F8,#1CD855,0,0,1,38,1,958,37,1,1535.4000000357628,0,1,experiment,NA,NA,1,0.7,0.3,2,3,112,3,NA
fcp-trial,161,825772,0.0-122.0-0.0,voc_e2,12044,"[{""event"":""fullscreenenter"",""trial"":1,""time"":3066},{""event"":""fullscreenexit"",""trial"":1,""time"":3714}]",NA,NA,NA,NA,NA,3,#3386FF,#D89F1C,10,0,1,38,1,1043.300000011921,39,0,727.6000000238419,0,0,experiment,NA,NA,0,0.9,0.1,0,1,113,3,NA
fcp-trial,162,829460,0.0-123.0-0.0,voc_e2,12044,"[{""event"":""fullscreenenter"",""trial"":1,""time"":3066},{""event"":""fullscreenexit"",""trial"":1,""time"":3714}]",NA,NA,NA,NA,NA,4,#D89F1C,#3386FF,0,10,0,40,0,1567.4000000357628,39,0,615.1999999880791,10,1,experiment,NA,NA,0,0.1,0.9,1,0,114,3,NA
fcp-trial,163,832699,0.0-124.0-0.0,voc_e2,12044,"[{""event"":""fullscreenenter"",""trial"":1,""time"":3066},{""event"":""fullscreenexit"",""trial"":1,""time"":3714}]",NA,NA,NA,NA,NA,6,#FA92F8,#1CD855,10,0,1,38,1,1197,39,0,533,0,0,experiment,NA,NA,1,0.7,0.3,2,3,115,3,NA
fcp-trial,164,835994,0.0-125.0-0.0,voc_e2,12044,"[{""event"":""fullscreenenter"",""trial"":1,""time"":3066},{""event"":""fullscreenexit"",""trial"":1,""time"":3714}]",NA,NA,NA,NA,NA,4,#D8271C,#741CD8,0,10,1,38,1,1038.0999999642372,37,1,749.6999999880791,0,1,experiment,NA,NA,2,0.5,0.5,4,5,116,3,NA
fcp-trial,165,839287,0.0-126.0-0.0,voc_e2,12044,"[{""event"":""fullscreenenter"",""trial"":1,""time"":3066},{""event"":""fullscreenexit"",""trial"":1,""time"":3714}]",NA,NA,NA,NA,NA,1,#D89F1C,#3386FF,0,10,0,38,1,1146.3999999761581,39,0,633.1000000238419,10,1,experiment,NA,NA,0,0.1,0.9,1,0,117,3,NA
fcp-trial,166,842549,0.0-127.0-0.0,voc_e2,12044,"[{""event"":""fullscreenenter"",""trial"":1,""time"":3066},{""event"":""fullscreenexit"",""trial"":1,""time"":3714}]",NA,NA,NA,NA,NA,0,#D8271C,#741CD8,0,0,1,40,0,758.3999999761581,39,0,998.1999999880792,0,0,experiment,NA,NA,2,0.5,0.5,4,5,118,3,NA
fcp-trial,167,847027,0.0-128.0-0.0,voc_e2,12044,"[{""event"":""fullscreenenter"",""trial"":1,""time"":3066},{""event"":""fullscreenexit"",""trial"":1,""time"":3714}]",NA,NA,NA,NA,NA,5,#1CD855,#FA92F8,10,10,0,38,1,1928,37,1,1045,10,0,experiment,NA,NA,1,0.3,0.7,3,2,119,3,NA
fcp-trial,168,849861,0.0-129.0-0.0,voc_e2,12044,"[{""event"":""fullscreenenter"",""trial"":1,""time"":3066},{""event"":""fullscreenexit"",""trial"":1,""time"":3714}]",NA,NA,NA,NA,NA,6,#D89F1C,#3386FF,0,10,0,38,1,822.6999999880791,39,0,502.300000011921,10,1,experiment,NA,NA,0,0.1,0.9,1,0,120,3,NA
fcp-trial,169,852637,0.0-130.0-0.0,voc_e2,12044,"[{""event"":""fullscreenenter"",""trial"":1,""time"":3066},{""event"":""fullscreenexit"",""trial"":1,""time"":3714}]",NA,NA,NA,NA,NA,5,#D8271C,#741CD8,0,0,1,38,1,725.6999999880791,39,0,541.1999999880791,0,0,experiment,NA,NA,2,0.5,0.5,4,5,121,3,NA
fcp-trial,170,856110,0.0-131.0-0.0,voc_e2,12044,"[{""event"":""fullscreenenter"",""trial"":1,""time"":3066},{""event"":""fullscreenexit"",""trial"":1,""time"":3714}]",NA,NA,NA,NA,NA,2,#1CD855,#FA92F8,0,10,0,38,1,1351.3999999761581,37,1,608.8000000119209,0,0,experiment,NA,NA,1,0.3,0.7,3,2,122,3,NA
fcp-trial,171,860725,0.0-132.0-0.0,voc_e2,12044,"[{""event"":""fullscreenenter"",""trial"":1,""time"":3066},{""event"":""fullscreenexit"",""trial"":1,""time"":3714}]",NA,NA,NA,NA,NA,0,#3386FF,#D89F1C,10,0,1,38,1,2015.2000000476837,37,1,1087.100000023842,10,1,experiment,NA,NA,0,0.9,0.1,0,1,123,3,NA
fcp-trial,172,864604,0.0-133.0-0.0,voc_e2,12044,"[{""event"":""fullscreenenter"",""trial"":1,""time"":3066},{""event"":""fullscreenexit"",""trial"":1,""time"":3714}]",NA,NA,NA,NA,NA,3,#1CD855,#FA92F8,0,10,0,38,1,843.8999999761581,37,1,1528.399999976158,0,0,experiment,NA,NA,1,0.3,0.7,3,2,124,3,NA
fcp-trial,173,867616,0.0-134.0-0.0,voc_e2,12044,"[{""event"":""fullscreenenter"",""trial"":1,""time"":3066},{""event"":""fullscreenexit"",""trial"":1,""time"":3714}]",NA,NA,NA,NA,NA,6,#741CD8,#D8271C,0,0,0,38,1,993.5999999642372,39,0,511.199999988079,0,1,experiment,NA,NA,2,0.5,0.5,5,4,125,3,NA
fcp-trial,174,872380,0.0-135.0-0.0,voc_e2,12044,"[{""event"":""fullscreenenter"",""trial"":1,""time"":3066},{""event"":""fullscreenexit"",""trial"":1,""time"":3714}]",NA,NA,NA,NA,NA,2,#D8271C,#741CD8,10,0,1,38,1,1307.8999999761581,39,0,1949.5,0,0,experiment,NA,NA,2,0.5,0.5,4,5,126,3,NA
fcp-trial,175,875327,0.0-136.0-0.0,voc_e2,12044,"[{""event"":""fullscreenenter"",""trial"":1,""time"":3066},{""event"":""fullscreenexit"",""trial"":1,""time"":3714}]",NA,NA,NA,NA,NA,1,#D8271C,#741CD8,10,0,1,40,0,831.5,39,0,598,0,0,experiment,NA,NA,2,0.5,0.5,4,5,127,3,NA
fcp-trial,176,879589,0.0-137.0-0.0,voc_e2,12044,"[{""event"":""fullscreenenter"",""trial"":1,""time"":3066},{""event"":""fullscreenexit"",""trial"":1,""time"":3714}]",NA,NA,NA,NA,NA,0,#1CD855,#FA92F8,0,10,0,38,1,2039.3999999761581,37,1,708.8999999761581,0,0,experiment,NA,NA,1,0.3,0.7,3,2,128,3,NA
fcp-trial,177,882925,0.0-138.0-0.0,voc_e2,12044,"[{""event"":""fullscreenenter"",""trial"":1,""time"":3066},{""event"":""fullscreenexit"",""trial"":1,""time"":3714}]",NA,NA,NA,NA,NA,5,#D8271C,#741CD8,10,10,1,38,1,1116.0999999642372,39,0,710.4000000357628,10,0,experiment,NA,NA,2,0.5,0.5,4,5,129,3,NA
fcp-trial,178,887677,0.0-139.0-0.0,voc_e2,12044,"[{""event"":""fullscreenenter"",""trial"":1,""time"":3066},{""event"":""fullscreenexit"",""trial"":1,""time"":3714}]",NA,NA,NA,NA,NA,3,#D89F1C,#3386FF,0,10,0,40,0,2425.399999976158,39,0,821.5,10,1,experiment,NA,NA,0,0.1,0.9,1,0,130,3,NA
fcp-trial,179,890926,0.0-140.0-0.0,voc_e2,12044,"[{""event"":""fullscreenenter"",""trial"":1,""time"":3066},{""event"":""fullscreenexit"",""trial"":1,""time"":3714}]",NA,NA,NA,NA,NA,2,#1CD855,#FA92F8,0,0,0,40,0,985.6000000238419,37,1,749.8999999761581,0,0,experiment,NA,NA,1,0.3,0.7,3,2,131,3,NA
fcp-trial,180,893693,0.0-141.0-0.0,voc_e2,12044,"[{""event"":""fullscreenenter"",""trial"":1,""time"":3066},{""event"":""fullscreenexit"",""trial"":1,""time"":3714}]",NA,NA,NA,NA,NA,2,#D8271C,#741CD8,0,10,1,40,0,659,39,0,599.8000000119209,10,0,experiment,NA,NA,2,0.5,0.5,4,5,132,3,NA
fcp-trial,181,896743,0.0-142.0-0.0,voc_e2,12044,"[{""event"":""fullscreenenter"",""trial"":1,""time"":3066},{""event"":""fullscreenexit"",""trial"":1,""time"":3714}]",NA,NA,NA,NA,NA,3,#FA92F8,#1CD855,10,0,1,40,0,828.6999999880791,37,1,712.1999999880791,10,1,experiment,NA,NA,1,0.7,0.3,2,3,133,3,NA
fcp-trial,182,899807,0.0-143.0-0.0,voc_e2,12044,"[{""event"":""fullscreenenter"",""trial"":1,""time"":3066},{""event"":""fullscreenexit"",""trial"":1,""time"":3714}]",NA,NA,NA,NA,NA,5,#FA92F8,#1CD855,10,0,1,40,0,899.0999999642372,37,1,653.0999999642372,10,1,experiment,NA,NA,1,0.7,0.3,2,3,134,3,NA
fcp-trial,183,902782,0.0-144.0-0.0,voc_e2,12044,"[{""event"":""fullscreenenter"",""trial"":1,""time"":3066},{""event"":""fullscreenexit"",""trial"":1,""time"":3714}]",NA,NA,NA,NA,NA,2,#3386FF,#D89F1C,10,0,1,40,0,718.3000000119209,39,0,743.2999999523163,0,0,experiment,NA,NA,0,0.9,0.1,0,1,135,3,NA
fcp-trial,184,905742,0.0-145.0-0.0,voc_e2,12044,"[{""event"":""fullscreenenter"",""trial"":1,""time"":3066},{""event"":""fullscreenexit"",""trial"":1,""time"":3714}]",NA,NA,NA,NA,NA,6,#741CD8,#D8271C,10,0,0,40,0,682.6999999880791,39,0,769.1000000238419,0,1,experiment,NA,NA,2,0.5,0.5,5,4,136,4,NA
fcp-trial,185,908381,0.0-146.0-0.0,voc_e2,12044,"[{""event"":""fullscreenenter"",""trial"":1,""time"":3066},{""event"":""fullscreenexit"",""trial"":1,""time"":3714}]",NA,NA,NA,NA,NA,5,#3386FF,#D89F1C,10,0,1,40,0,695.9000000357628,39,0,439.89999997615814,0,0,experiment,NA,NA,0,0.9,0.1,0,1,137,4,NA
fcp-trial,186,912124,0.0-147.0-0.0,voc_e2,12044,"[{""event"":""fullscreenenter"",""trial"":1,""time"":3066},{""event"":""fullscreenexit"",""trial"":1,""time"":3714}]",NA,NA,NA,NA,NA,4,#FA92F8,#1CD855,0,0,1,40,0,1127.1000000238419,39,0,1109.199999988079,0,0,experiment,NA,NA,1,0.7,0.3,2,3,138,4,NA
fcp-trial,187,915039,0.0-148.0-0.0,voc_e2,12044,"[{""event"":""fullscreenenter"",""trial"":1,""time"":3066},{""event"":""fullscreenexit"",""trial"":1,""time"":3714}]",NA,NA,NA,NA,NA,4,#D89F1C,#3386FF,0,10,0,40,0,828.5999999642372,37,1,574.6999999880791,0,0,experiment,NA,NA,0,0.1,0.9,1,0,139,4,NA
fcp-trial,188,918286,0.0-149.0-0.0,voc_e2,12044,"[{""event"":""fullscreenenter"",""trial"":1,""time"":3066},{""event"":""fullscreenexit"",""trial"":1,""time"":3714}]",NA,NA,NA,NA,NA,6,#1CD855,#FA92F8,0,10,0,40,0,998.3999999761581,37,1,734.8000000119209,0,0,experiment,NA,NA,1,0.3,0.7,3,2,140,4,NA
fcp-trial,189,922183,0.0-150.0-0.0,voc_e2,12044,"[{""event"":""fullscreenenter"",""trial"":1,""time"":3066},{""event"":""fullscreenexit"",""trial"":1,""time"":3714}]",NA,NA,NA,NA,NA,0,#D8271C,#741CD8,10,10,1,38,1,1437.0999999642372,39,0,949.9000000357628,10,0,experiment,NA,NA,2,0.5,0.5,4,5,141,4,NA
fcp-trial,190,925965,0.0-151.0-0.0,voc_e2,12044,"[{""event"":""fullscreenenter"",""trial"":1,""time"":3066},{""event"":""fullscreenexit"",""trial"":1,""time"":3714}]",NA,NA,NA,NA,NA,6,#D89F1C,#3386FF,0,10,0,38,1,1318.300000011921,39,0,958.0999999642372,10,1,experiment,NA,NA,0,0.1,0.9,1,0,142,4,NA
fcp-trial,191,929784,0.0-152.0-0.0,voc_e2,12044,"[{""event"":""fullscreenenter"",""trial"":1,""time"":3066},{""event"":""fullscreenexit"",""trial"":1,""time"":3714}]",NA,NA,NA,NA,NA,3,#741CD8,#D8271C,0,0,0,40,0,1597.0999999642372,39,0,712.8999999761581,0,1,experiment,NA,NA,2,0.5,0.5,5,4,143,4,NA
fcp-trial,192,933753,0.0-153.0-0.0,voc_e2,12044,"[{""event"":""fullscreenenter"",""trial"":1,""time"":3066},{""event"":""fullscreenexit"",""trial"":1,""time"":3714}]",NA,NA,NA,NA,NA,1,#FA92F8,#1CD855,10,0,1,40,0,1887.8999999761581,39,0,566.6000000238419,0,0,experiment,NA,NA,1,0.7,0.3,2,3,144,4,NA
fcp-trial,193,937606,0.0-154.0-0.0,voc_e2,12044,"[{""event"":""fullscreenenter"",""trial"":1,""time"":3066},{""event"":""fullscreenexit"",""trial"":1,""time"":3714}]",NA,NA,NA,NA,NA,4,#D8271C,#741CD8,0,0,1,38,1,989.8000000119209,37,1,1350.899999976158,0,1,experiment,NA,NA,2,0.5,0.5,4,5,145,4,NA
fcp-trial,194,942087,0.0-155.0-0.0,voc_e2,12044,"[{""event"":""fullscreenenter"",""trial"":1,""time"":3066},{""event"":""fullscreenexit"",""trial"":1,""time"":3714}]",NA,NA,NA,NA,NA,0,#3386FF,#D89F1C,10,0,1,38,1,2172.5,37,1,800.5,10,1,experiment,NA,NA,0,0.9,0.1,0,1,146,4,NA
fcp-trial,195,945918,0.0-156.0-0.0,voc_e2,12044,"[{""event"":""fullscreenenter"",""trial"":1,""time"":3066},{""event"":""fullscreenexit"",""trial"":1,""time"":3714}]",NA,NA,NA,NA,NA,1,#3386FF,#D89F1C,10,0,1,40,0,1652.2000000476837,39,0,662.8999999761581,0,0,experiment,NA,NA,0,0.9,0.1,0,1,147,4,NA
fcp-trial,196,949287,0.0-157.0-0.0,voc_e2,12044,"[{""event"":""fullscreenenter"",""trial"":1,""time"":3066},{""event"":""fullscreenexit"",""trial"":1,""time"":3714}]",NA,NA,NA,NA,NA,5,#FA92F8,#1CD855,10,0,1,40,0,1193,39,0,662.7000000476837,0,0,experiment,NA,NA,1,0.7,0.3,2,3,148,4,NA
fcp-trial,197,952942,0.0-158.0-0.0,voc_e2,12044,"[{""event"":""fullscreenenter"",""trial"":1,""time"":3066},{""event"":""fullscreenexit"",""trial"":1,""time"":3714}]",NA,NA,NA,NA,NA,1,#D8271C,#741CD8,10,0,1,38,1,1157.9000000357628,37,1,980.600000023842,10,1,experiment,NA,NA,2,0.5,0.5,4,5,149,4,NA
fcp-trial,198,956896,0.0-159.0-0.0,voc_e2,12044,"[{""event"":""fullscreenenter"",""trial"":1,""time"":3066},{""event"":""fullscreenexit"",""trial"":1,""time"":3714}]",NA,NA,NA,NA,NA,6,#3386FF,#D89F1C,10,0,1,38,1,1528.6000000238419,37,1,911.9000000357628,10,1,experiment,NA,NA,0,0.9,0.1,0,1,150,4,NA
fcp-trial,199,961016,0.0-160.0-0.0,voc_e2,12044,"[{""event"":""fullscreenenter"",""trial"":1,""time"":3066},{""event"":""fullscreenexit"",""trial"":1,""time"":3714}]",NA,NA,NA,NA,NA,0,#D8271C,#741CD8,0,0,1,40,0,2016.199999988079,39,0,598.8000000119209,0,0,experiment,NA,NA,2,0.5,0.5,4,5,151,4,NA
fcp-trial,200,964337,0.0-161.0-0.0,voc_e2,12044,"[{""event"":""fullscreenenter"",""trial"":1,""time"":3066},{""event"":""fullscreenexit"",""trial"":1,""time"":3714}]",NA,NA,NA,NA,NA,4,#D8271C,#741CD8,10,0,1,40,0,1221.1000000238419,39,0,590.5,0,0,experiment,NA,NA,2,0.5,0.5,4,5,152,4,NA
fcp-trial,201,968265,0.0-162.0-0.0,voc_e2,12044,"[{""event"":""fullscreenenter"",""trial"":1,""time"":3066},{""event"":""fullscreenexit"",""trial"":1,""time"":3714}]",NA,NA,NA,NA,NA,6,#1CD855,#FA92F8,0,0,0,40,0,1751.5999999642372,39,0,662.8000000119209,0,1,experiment,NA,NA,1,0.3,0.7,3,2,153,4,NA
fcp-trial,202,972689,0.0-163.0-0.0,voc_e2,12044,"[{""event"":""fullscreenenter"",""trial"":1,""time"":3066},{""event"":""fullscreenexit"",""trial"":1,""time"":3714}]",NA,NA,NA,NA,NA,3,#D89F1C,#3386FF,0,10,0,40,0,1927.7000000476837,37,1,991.100000023842,0,0,experiment,NA,NA,0,0.1,0.9,1,0,154,4,NA
fcp-trial,203,975921,0.0-164.0-0.0,voc_e2,12044,"[{""event"":""fullscreenenter"",""trial"":1,""time"":3066},{""event"":""fullscreenexit"",""trial"":1,""time"":3714}]",NA,NA,NA,NA,NA,5,#741CD8,#D8271C,0,10,0,38,1,1003.6000000238419,39,0,711.1999999880791,10,1,experiment,NA,NA,2,0.5,0.5,5,4,155,4,NA
fcp-trial,204,978967,0.0-165.0-0.0,voc_e2,12044,"[{""event"":""fullscreenenter"",""trial"":1,""time"":3066},{""event"":""fullscreenexit"",""trial"":1,""time"":3714}]",NA,NA,NA,NA,NA,2,#1CD855,#FA92F8,10,0,0,38,1,1154.0999999642372,37,1,380.5,10,0,experiment,NA,NA,1,0.3,0.7,3,2,156,4,NA
fcp-trial,205,982345,0.0-166.0-0.0,voc_e2,12044,"[{""event"":""fullscreenenter"",""trial"":1,""time"":3066},{""event"":""fullscreenexit"",""trial"":1,""time"":3714}]",NA,NA,NA,NA,NA,1,#3386FF,#D89F1C,10,0,1,38,1,1061,37,1,808.8999999761581,10,1,experiment,NA,NA,0,0.9,0.1,0,1,157,4,NA
fcp-trial,206,985507,0.0-167.0-0.0,voc_e2,12044,"[{""event"":""fullscreenenter"",""trial"":1,""time"":3066},{""event"":""fullscreenexit"",""trial"":1,""time"":3714}]",NA,NA,NA,NA,NA,0,#D89F1C,#3386FF,0,10,0,38,1,1191,39,0,458.4000000357628,10,1,experiment,NA,NA,0,0.1,0.9,1,0,158,4,NA
fcp-trial,207,988745,0.0-168.0-0.0,voc_e2,12044,"[{""event"":""fullscreenenter"",""trial"":1,""time"":3066},{""event"":""fullscreenexit"",""trial"":1,""time"":3714}]",NA,NA,NA,NA,NA,2,#D8271C,#741CD8,10,10,1,40,0,1029.0999999642372,39,0,705.3000000119209,10,0,experiment,NA,NA,2,0.5,0.5,4,5,159,4,NA
fcp-trial,208,992729,0.0-169.0-0.0,voc_e2,12044,"[{""event"":""fullscreenenter"",""trial"":1,""time"":3066},{""event"":""fullscreenexit"",""trial"":1,""time"":3714}]",NA,NA,NA,NA,NA,3,#FA92F8,#1CD855,10,10,1,40,0,1766.7000000476837,37,1,710.6000000238419,10,1,experiment,NA,NA,1,0.7,0.3,2,3,160,4,NA
fcp-trial,209,996505,0.0-170.0-0.0,voc_e2,12044,"[{""event"":""fullscreenenter"",""trial"":1,""time"":3066},{""event"":""fullscreenexit"",""trial"":1,""time"":3714}]",NA,NA,NA,NA,NA,2,#D89F1C,#3386FF,0,10,0,38,1,1285,39,0,982.5999999642372,10,1,experiment,NA,NA,0,0.1,0.9,1,0,161,4,NA
fcp-trial,210,999489,0.0-171.0-0.0,voc_e2,12044,"[{""event"":""fullscreenenter"",""trial"":1,""time"":3066},{""event"":""fullscreenexit"",""trial"":1,""time"":3714}]",NA,NA,NA,NA,NA,5,#3386FF,#D89F1C,10,0,1,40,0,781.3000000119209,39,0,694.5,0,0,experiment,NA,NA,0,0.9,0.1,0,1,162,4,NA
fcp-trial,211,1002722,0.0-172.0-0.0,voc_e2,12044,"[{""event"":""fullscreenenter"",""trial"":1,""time"":3066},{""event"":""fullscreenexit"",""trial"":1,""time"":3714}]",NA,NA,NA,NA,NA,6,#D8271C,#741CD8,0,0,1,40,0,1052.699999988079,37,1,664.8999999761581,0,1,experiment,NA,NA,2,0.5,0.5,4,5,163,4,NA
fcp-trial,212,1006056,0.0-173.0-0.0,voc_e2,12044,"[{""event"":""fullscreenenter"",""trial"":1,""time"":3066},{""event"":""fullscreenexit"",""trial"":1,""time"":3714}]",NA,NA,NA,NA,NA,3,#741CD8,#D8271C,0,0,0,40,0,1188.3999999761581,39,0,631.3999999761581,0,1,experiment,NA,NA,2,0.5,0.5,5,4,164,4,NA
fcp-trial,213,1009048,0.0-174.0-0.0,voc_e2,12044,"[{""event"":""fullscreenenter"",""trial"":1,""time"":3066},{""event"":""fullscreenexit"",""trial"":1,""time"":3714}]",NA,NA,NA,NA,NA,0,#FA92F8,#1CD855,0,0,1,38,1,740.2999999523163,37,1,742,0,1,experiment,NA,NA,1,0.7,0.3,2,3,165,4,NA
fcp-trial,214,1012537,0.0-175.0-0.0,voc_e2,12044,"[{""event"":""fullscreenenter"",""trial"":1,""time"":3066},{""event"":""fullscreenexit"",""trial"":1,""time"":3714}]",NA,NA,NA,NA,NA,4,#D89F1C,#3386FF,0,0,0,40,0,1355.300000011921,37,1,622.1999999880791,0,0,experiment,NA,NA,0,0.1,0.9,1,0,166,4,NA
fcp-trial,215,1016306,0.0-176.0-0.0,voc_e2,12044,"[{""event"":""fullscreenenter"",""trial"":1,""time"":3066},{""event"":""fullscreenexit"",""trial"":1,""time"":3714}]",NA,NA,NA,NA,NA,1,#FA92F8,#1CD855,10,0,1,38,1,1433.5,39,0,829.7999999523163,0,0,experiment,NA,NA,1,0.7,0.3,2,3,167,4,NA
fcp-trial,216,1019723,0.0-177.0-0.0,voc_e2,12044,"[{""event"":""fullscreenenter"",""trial"":1,""time"":3066},{""event"":""fullscreenexit"",""trial"":1,""time"":3714}]",NA,NA,NA,NA,NA,4,#1CD855,#FA92F8,0,10,0,38,1,1172.1000000238419,39,0,735,10,1,experiment,NA,NA,1,0.3,0.7,3,2,168,4,NA
fcp-trial,217,1022715,0.0-178.0-0.0,voc_e2,12044,"[{""event"":""fullscreenenter"",""trial"":1,""time"":3066},{""event"":""fullscreenexit"",""trial"":1,""time"":3714}]",NA,NA,NA,NA,NA,6,#D89F1C,#3386FF,0,10,0,38,1,1007.2000000476837,39,0,471.5,10,1,experiment,NA,NA,0,0.1,0.9,1,0,169,4,NA
fcp-trial,218,1025945,0.0-179.0-0.0,voc_e2,12044,"[{""event"":""fullscreenenter"",""trial"":1,""time"":3066},{""event"":""fullscreenexit"",""trial"":1,""time"":3714}]",NA,NA,NA,NA,NA,4,#D89F1C,#3386FF,10,10,0,38,1,1142.800000011921,39,0,574.1999999880791,10,1,experiment,NA,NA,0,0.1,0.9,1,0,170,4,NA
fcp-trial,219,1029050,0.0-180.0-0.0,voc_e2,12044,"[{""event"":""fullscreenenter"",""trial"":1,""time"":3066},{""event"":""fullscreenexit"",""trial"":1,""time"":3714}]",NA,NA,NA,NA,NA,4,#D8271C,#741CD8,10,0,1,38,1,1051.6000000238419,39,0,542.2000000476837,0,0,experiment,NA,NA,2,0.5,0.5,4,5,171,4,NA
fcp-trial,220,1031850,0.0-181.0-0.0,voc_e2,12044,"[{""event"":""fullscreenenter"",""trial"":1,""time"":3066},{""event"":""fullscreenexit"",""trial"":1,""time"":3714}]",NA,NA,NA,NA,NA,2,#FA92F8,#1CD855,0,10,1,38,1,884.6999999880791,39,0,405.60000002384186,10,0,experiment,NA,NA,1,0.7,0.3,2,3,172,4,NA
fcp-trial,221,1034763,0.0-182.0-0.0,voc_e2,12044,"[{""event"":""fullscreenenter"",""trial"":1,""time"":3066},{""event"":""fullscreenexit"",""trial"":1,""time"":3714}]",NA,NA,NA,NA,NA,1,#FA92F8,#1CD855,0,10,1,38,1,923.4000000357628,39,0,479.9000000357628,10,0,experiment,NA,NA,1,0.7,0.3,2,3,173,4,NA
fcp-trial,222,1037851,0.0-183.0-0.0,voc_e2,12044,"[{""event"":""fullscreenenter"",""trial"":1,""time"":3066},{""event"":""fullscreenexit"",""trial"":1,""time"":3714}]",NA,NA,NA,NA,NA,1,#D8271C,#741CD8,0,10,1,38,1,980.0999999642372,39,0,598.3000000119209,10,0,experiment,NA,NA,2,0.5,0.5,4,5,174,4,NA
fcp-trial,223,1040882,0.0-184.0-0.0,voc_e2,12044,"[{""event"":""fullscreenenter"",""trial"":1,""time"":3066},{""event"":""fullscreenexit"",""trial"":1,""time"":3714}]",NA,NA,NA,NA,NA,3,#D89F1C,#3386FF,0,0,0,38,1,1011,39,0,512.4000000357628,0,1,experiment,NA,NA,0,0.1,0.9,1,0,175,4,NA
fcp-trial,224,1044116,0.0-185.0-0.0,voc_e2,12044,"[{""event"":""fullscreenenter"",""trial"":1,""time"":3066},{""event"":""fullscreenexit"",""trial"":1,""time"":3714}]",NA,NA,NA,NA,NA,5,#741CD8,#D8271C,0,10,0,38,1,1121.1000000238419,37,1,598,0,0,experiment,NA,NA,2,0.5,0.5,5,4,176,4,NA
fcp-trial,225,1048049,0.0-186.0-0.0,voc_e2,12044,"[{""event"":""fullscreenenter"",""trial"":1,""time"":3066},{""event"":""fullscreenexit"",""trial"":1,""time"":3714}]",NA,NA,NA,NA,NA,4,#1CD855,#FA92F8,0,0,0,38,1,995.3999999761581,37,1,1428.7000000476835,0,0,experiment,NA,NA,1,0.3,0.7,3,2,177,4,NA
fcp-trial,226,1051452,0.0-187.0-0.0,voc_e2,12044,"[{""event"":""fullscreenenter"",""trial"":1,""time"":3066},{""event"":""fullscreenexit"",""trial"":1,""time"":3714}]",NA,NA,NA,NA,NA,3,#D8271C,#741CD8,10,0,1,38,1,1079.5,39,0,807.1000000238419,0,0,experiment,NA,NA,2,0.5,0.5,4,5,178,4,NA
fcp-trial,227,1055400,0.0-188.0-0.0,voc_e2,12044,"[{""event"":""fullscreenenter"",""trial"":1,""time"":3066},{""event"":""fullscreenexit"",""trial"":1,""time"":3714}]",NA,NA,NA,NA,NA,1,#3386FF,#D89F1C,10,0,1,40,0,1388.6000000238419,37,1,1051.300000011921,10,1,experiment,NA,NA,0,0.9,0.1,0,1,179,4,NA
fcp-trial,228,1058648,0.0-189.0-0.0,voc_e2,12044,"[{""event"":""fullscreenenter"",""trial"":1,""time"":3066},{""event"":""fullscreenexit"",""trial"":1,""time"":3714}]",NA,NA,NA,NA,NA,3,#1CD855,#FA92F8,10,10,0,40,0,961.9000000357628,37,1,765.5999999642372,10,0,experiment,NA,NA,1,0.3,0.7,3,2,180,4,NA
fcp-trial,229,1061715,0.0-190.0-0.0,voc_e2,12044,"[{""event"":""fullscreenenter"",""trial"":1,""time"":3066},{""event"":""fullscreenexit"",""trial"":1,""time"":3714}]",NA,NA,NA,NA,NA,6,#741CD8,#D8271C,10,10,0,40,0,825.4000000357628,39,0,726.7999999523163,10,1,experiment,NA,NA,2,0.5,0.5,5,4,181,5,NA
fcp-trial,230,1065755,0.0-191.0-0.0,voc_e2,12044,"[{""event"":""fullscreenenter"",""trial"":1,""time"":3066},{""event"":""fullscreenexit"",""trial"":1,""time"":3714}]",NA,NA,NA,NA,NA,0,#D8271C,#741CD8,0,10,1,38,1,1499.199999988079,37,1,1032,0,1,experiment,NA,NA,2,0.5,0.5,4,5,182,5,NA
fcp-trial,231,1069188,0.0-192.0-0.0,voc_e2,12044,"[{""event"":""fullscreenenter"",""trial"":1,""time"":3066},{""event"":""fullscreenexit"",""trial"":1,""time"":3714}]",NA,NA,NA,NA,NA,5,#3386FF,#D89F1C,10,0,1,40,0,1308.8999999761581,39,0,614.8000000119209,0,0,experiment,NA,NA,0,0.9,0.1,0,1,183,5,NA
fcp-trial,232,1073268,0.0-193.0-0.0,voc_e2,12044,"[{""event"":""fullscreenenter"",""trial"":1,""time"":3066},{""event"":""fullscreenexit"",""trial"":1,""time"":3714}]",NA,NA,NA,NA,NA,0,#D89F1C,#3386FF,10,10,0,38,1,1356.5999999642372,37,1,1214.5,10,0,experiment,NA,NA,0,0.1,0.9,1,0,184,5,NA
fcp-trial,233,1076292,0.0-194.0-0.0,voc_e2,12044,"[{""event"":""fullscreenenter"",""trial"":1,""time"":3066},{""event"":""fullscreenexit"",""trial"":1,""time"":3714}]",NA,NA,NA,NA,NA,0,#FA92F8,#1CD855,10,0,1,38,1,1031.199999988079,39,0,486,0,0,experiment,NA,NA,1,0.7,0.3,2,3,185,5,NA
fcp-trial,234,1079316,0.0-195.0-0.0,voc_e2,12044,"[{""event"":""fullscreenenter"",""trial"":1,""time"":3066},{""event"":""fullscreenexit"",""trial"":1,""time"":3714}]",NA,NA,NA,NA,NA,5,#FA92F8,#1CD855,0,10,1,38,1,584.3000000119209,37,1,927.2000000476836,0,1,experiment,NA,NA,1,0.7,0.3,2,3,186,5,NA
fcp-trial,235,1082604,0.0-196.0-0.0,voc_e2,12044,"[{""event"":""fullscreenenter"",""trial"":1,""time"":3066},{""event"":""fullscreenexit"",""trial"":1,""time"":3714}]",NA,NA,NA,NA,NA,2,#741CD8,#D8271C,0,0,0,38,1,1109.300000011921,37,1,672.3000000119209,0,0,experiment,NA,NA,2,0.5,0.5,5,4,187,5,NA
fcp-trial,236,1085141,0.0-197.0-0.0,voc_e2,12044,"[{""event"":""fullscreenenter"",""trial"":1,""time"":3066},{""event"":""fullscreenexit"",""trial"":1,""time"":3714}]",NA,NA,NA,NA,NA,2,#3386FF,#D89F1C,10,0,1,38,1,588.8999999761581,39,0,438,0,0,experiment,NA,NA,0,0.9,0.1,0,1,188,5,NA
fcp-trial,237,1088086,0.0-198.0-0.0,voc_e2,12044,"[{""event"":""fullscreenenter"",""trial"":1,""time"":3066},{""event"":""fullscreenexit"",""trial"":1,""time"":3714}]",NA,NA,NA,NA,NA,6,#FA92F8,#1CD855,0,0,1,38,1,959.8999999761581,39,0,468.10000002384186,0,0,experiment,NA,NA,1,0.7,0.3,2,3,189,5,NA
fcp-trial,238,1091467,0.0-199.0-0.0,voc_e2,12044,"[{""event"":""fullscreenenter"",""trial"":1,""time"":3066},{""event"":""fullscreenexit"",""trial"":1,""time"":3714}]",NA,NA,NA,NA,NA,6,#3386FF,#D89F1C,10,0,1,38,1,1079.0999999642372,37,1,788.6999999880791,10,1,experiment,NA,NA,0,0.9,0.1,0,1,190,5,NA
fcp-trial,239,1095364,0.0-200.0-0.0,voc_e2,12044,"[{""event"":""fullscreenenter"",""trial"":1,""time"":3066},{""event"":""fullscreenexit"",""trial"":1,""time"":3714}]",NA,NA,NA,NA,NA,0,#FA92F8,#1CD855,0,10,1,38,1,941.8999999761581,39,0,1445.800000011921,10,0,experiment,NA,NA,1,0.7,0.3,2,3,191,5,NA
fcp-trial,240,1098308,0.0-201.0-0.0,voc_e2,12044,"[{""event"":""fullscreenenter"",""trial"":1,""time"":3066},{""event"":""fullscreenexit"",""trial"":1,""time"":3714}]",NA,NA,NA,NA,NA,6,#D8271C,#741CD8,0,10,1,38,1,845.3999999761581,39,0,590.1000000238419,10,0,experiment,NA,NA,2,0.5,0.5,4,5,192,5,NA
fcp-trial,241,1101262,0.0-202.0-0.0,voc_e2,12044,"[{""event"":""fullscreenenter"",""trial"":1,""time"":3066},{""event"":""fullscreenexit"",""trial"":1,""time"":3714}]",NA,NA,NA,NA,NA,3,#3386FF,#D89F1C,10,0,1,38,1,967.8000000119209,37,1,480.800000011921,10,1,experiment,NA,NA,0,0.9,0.1,0,1,193,5,NA
fcp-trial,242,1104478,0.0-203.0-0.0,voc_e2,12044,"[{""event"":""fullscreenenter"",""trial"":1,""time"":3066},{""event"":""fullscreenexit"",""trial"":1,""time"":3714}]",NA,NA,NA,NA,NA,0,#741CD8,#D8271C,0,10,0,38,1,701.8000000119209,37,1,1006.1999999880792,0,0,experiment,NA,NA,2,0.5,0.5,5,4,194,5,NA
fcp-trial,243,1107052,0.0-204.0-0.0,voc_e2,12044,"[{""event"":""fullscreenenter"",""trial"":1,""time"":3066},{""event"":""fullscreenexit"",""trial"":1,""time"":3714}]",NA,NA,NA,NA,NA,4,#FA92F8,#1CD855,10,0,1,38,1,594.2999999523163,39,0,471.199999988079,0,0,experiment,NA,NA,1,0.7,0.3,2,3,195,5,NA
fcp-trial,244,1109710,0.0-205.0-0.0,voc_e2,12044,"[{""event"":""fullscreenenter"",""trial"":1,""time"":3066},{""event"":""fullscreenexit"",""trial"":1,""time"":3714}]",NA,NA,NA,NA,NA,4,#D89F1C,#3386FF,0,10,0,38,1,608.3999999761581,39,0,534.8999999761581,10,1,experiment,NA,NA,0,0.1,0.9,1,0,196,5,NA
fcp-trial,245,1112742,0.0-206.0-0.0,voc_e2,12044,"[{""event"":""fullscreenenter"",""trial"":1,""time"":3066},{""event"":""fullscreenexit"",""trial"":1,""time"":3714}]",NA,NA,NA,NA,NA,2,#741CD8,#D8271C,0,0,0,38,1,575.4000000357628,37,1,942.0999999642372,0,0,experiment,NA,NA,2,0.5,0.5,5,4,197,5,NA
fcp-trial,246,1115781,0.0-207.0-0.0,voc_e2,12044,"[{""event"":""fullscreenenter"",""trial"":1,""time"":3066},{""event"":""fullscreenexit"",""trial"":1,""time"":3714}]",NA,NA,NA,NA,NA,5,#741CD8,#D8271C,10,0,0,38,1,990.0999999642372,39,0,545,0,1,experiment,NA,NA,2,0.5,0.5,5,4,198,5,NA
fcp-trial,247,1119223,0.0-208.0-0.0,voc_e2,12044,"[{""event"":""fullscreenenter"",""trial"":1,""time"":3066},{""event"":""fullscreenexit"",""trial"":1,""time"":3714}]",NA,NA,NA,NA,NA,6,#FA92F8,#1CD855,10,0,1,38,1,968.2999999523163,39,0,967.399999976158,0,0,experiment,NA,NA,1,0.7,0.3,2,3,199,5,NA
fcp-trial,248,1122357,0.0-209.0-0.0,voc_e2,12044,"[{""event"":""fullscreenenter"",""trial"":1,""time"":3066},{""event"":""fullscreenexit"",""trial"":1,""time"":3714}]",NA,NA,NA,NA,NA,1,#1CD855,#FA92F8,10,0,0,38,1,1038.8999999761581,39,0,590.6000000238419,0,1,experiment,NA,NA,1,0.3,0.7,3,2,200,5,NA
fcp-trial,249,1125349,0.0-210.0-0.0,voc_e2,12044,"[{""event"":""fullscreenenter"",""trial"":1,""time"":3066},{""event"":""fullscreenexit"",""trial"":1,""time"":3714}]",NA,NA,NA,NA,NA,0,#3386FF,#D89F1C,0,0,1,38,1,934.1000000238419,37,1,551.1999999880791,0,1,experiment,NA,NA,0,0.9,0.1,0,1,201,5,NA
fcp-trial,250,1128510,0.0-211.0-0.0,voc_e2,12044,"[{""event"":""fullscreenenter"",""trial"":1,""time"":3066},{""event"":""fullscreenexit"",""trial"":1,""time"":3714}]",NA,NA,NA,NA,NA,1,#3386FF,#D89F1C,10,10,1,40,0,869.8999999761581,37,1,782.4000000357628,10,1,experiment,NA,NA,0,0.9,0.1,0,1,202,5,NA
fcp-trial,251,1132022,0.0-212.0-0.0,voc_e2,12044,"[{""event"":""fullscreenenter"",""trial"":1,""time"":3066},{""event"":""fullscreenexit"",""trial"":1,""time"":3714}]",NA,NA,NA,NA,NA,3,#741CD8,#D8271C,10,10,0,40,0,1294.5999999642372,37,1,712.1000000238419,10,0,experiment,NA,NA,2,0.5,0.5,5,4,203,5,NA
fcp-trial,252,1134869,0.0-213.0-0.0,voc_e2,12044,"[{""event"":""fullscreenenter"",""trial"":1,""time"":3066},{""event"":""fullscreenexit"",""trial"":1,""time"":3714}]",NA,NA,NA,NA,NA,3,#FA92F8,#1CD855,10,0,1,40,0,717,37,1,614.7999999523163,10,1,experiment,NA,NA,1,0.7,0.3,2,3,204,5,NA
fcp-trial,253,1138046,0.0-214.0-0.0,voc_e2,12044,"[{""event"":""fullscreenenter"",""trial"":1,""time"":3066},{""event"":""fullscreenexit"",""trial"":1,""time"":3714}]",NA,NA,NA,NA,NA,4,#D8271C,#741CD8,0,0,1,40,0,745.3000000119209,37,1,926.4000000357628,0,1,experiment,NA,NA,2,0.5,0.5,4,5,205,5,NA
fcp-trial,254,1140917,0.0-215.0-0.0,voc_e2,12044,"[{""event"":""fullscreenenter"",""trial"":1,""time"":3066},{""event"":""fullscreenexit"",""trial"":1,""time"":3714}]",NA,NA,NA,NA,NA,5,#3386FF,#D89F1C,10,0,1,40,0,600.8000000119209,39,0,763.6999999880791,0,0,experiment,NA,NA,0,0.9,0.1,0,1,206,5,NA
fcp-trial,255,1144558,0.0-216.0-0.0,voc_e2,12044,"[{""event"":""fullscreenenter"",""trial"":1,""time"":3066},{""event"":""fullscreenexit"",""trial"":1,""time"":3714}]",NA,NA,NA,NA,NA,2,#3386FF,#D89F1C,10,0,1,40,0,1093.800000011921,37,1,1037.399999976158,10,1,experiment,NA,NA,0,0.9,0.1,0,1,207,5,NA
fcp-trial,256,1147871,0.0-217.0-0.0,voc_e2,12044,"[{""event"":""fullscreenenter"",""trial"":1,""time"":3066},{""event"":""fullscreenexit"",""trial"":1,""time"":3714}]",NA,NA,NA,NA,NA,1,#D8271C,#741CD8,10,0,1,40,0,883.8000000119209,37,1,914.899999976158,10,1,experiment,NA,NA,2,0.5,0.5,4,5,208,5,NA
fcp-trial,257,1150878,0.0-218.0-0.0,voc_e2,12044,"[{""event"":""fullscreenenter"",""trial"":1,""time"":3066},{""event"":""fullscreenexit"",""trial"":1,""time"":3714}]",NA,NA,NA,NA,NA,2,#FA92F8,#1CD855,0,10,1,40,0,811.3999999761581,39,0,686.1999999880791,10,0,experiment,NA,NA,1,0.7,0.3,2,3,209,5,NA
fcp-trial,258,1153725,0.0-219.0-0.0,voc_e2,12044,"[{""event"":""fullscreenenter"",""trial"":1,""time"":3066},{""event"":""fullscreenexit"",""trial"":1,""time"":3714}]",NA,NA,NA,NA,NA,5,#1CD855,#FA92F8,10,10,0,40,0,573.7000000476837,39,0,765.1000000238419,10,1,experiment,NA,NA,1,0.3,0.7,3,2,210,5,NA
audio-instructions,259,1166338,0.0-220.0,voc_e2,12044,"[{""event"":""fullscreenenter"",""trial"":1,""time"":3066},{""event"":""fullscreenexit"",""trial"":1,""time"":3714}]",NA,8122.699999988079,static/audio/pause.wav,NA,0,NA,NA,NA,NA,NA,NA,NA,NA,NA,NA,NA,NA,NA,NA,NA,NA,NA,NA,NA,NA,NA,NA,NA,NA,NA
fcp-trial,260,1169665,0.0-221.0-0.0,voc_e2,12044,"[{""event"":""fullscreenenter"",""trial"":1,""time"":3066},{""event"":""fullscreenexit"",""trial"":1,""time"":3714}]",NA,NA,NA,NA,NA,4,#1CD855,#FA92F8,10,10,0,40,0,1195.9000000357628,37,1,615.6000000238419,10,0,experiment,NA,NA,1,0.3,0.7,3,2,211,5,NA
fcp-trial,261,1172550,0.0-222.0-0.0,voc_e2,12044,"[{""event"":""fullscreenenter"",""trial"":1,""time"":3066},{""event"":""fullscreenexit"",""trial"":1,""time"":3714}]",NA,NA,NA,NA,NA,5,#FA92F8,#1CD855,0,10,1,40,0,819.5999999642372,37,1,542.3999999761581,0,1,experiment,NA,NA,1,0.7,0.3,2,3,212,5,NA
fcp-trial,262,1175461,0.0-223.0-0.0,voc_e2,12044,"[{""event"":""fullscreenenter"",""trial"":1,""time"":3066},{""event"":""fullscreenexit"",""trial"":1,""time"":3714}]",NA,NA,NA,NA,NA,6,#FA92F8,#1CD855,0,0,1,40,0,823.6999999880791,39,0,568.3000000119209,0,0,experiment,NA,NA,1,0.7,0.3,2,3,213,5,NA
fcp-trial,263,1178508,0.0-224.0-0.0,voc_e2,12044,"[{""event"":""fullscreenenter"",""trial"":1,""time"":3066},{""event"":""fullscreenexit"",""trial"":1,""time"":3714}]",NA,NA,NA,NA,NA,5,#3386FF,#D89F1C,10,0,1,40,0,968.1999999880791,37,1,567,10,1,experiment,NA,NA,0,0.9,0.1,0,1,214,5,NA
fcp-trial,264,1182151,0.0-225.0-0.0,voc_e2,12044,"[{""event"":""fullscreenenter"",""trial"":1,""time"":3066},{""event"":""fullscreenexit"",""trial"":1,""time"":3714}]",NA,NA,NA,NA,NA,0,#D8271C,#741CD8,0,10,1,38,1,1384.199999988079,39,0,733.5999999642372,10,0,experiment,NA,NA,2,0.5,0.5,4,5,215,5,NA
fcp-trial,265,1185371,0.0-226.0-0.0,voc_e2,12044,"[{""event"":""fullscreenenter"",""trial"":1,""time"":3066},{""event"":""fullscreenexit"",""trial"":1,""time"":3714}]",NA,NA,NA,NA,NA,1,#741CD8,#D8271C,0,0,0,38,1,1013.0999999642372,37,1,673.0999999642372,0,0,experiment,NA,NA,2,0.5,0.5,5,4,216,5,NA
fcp-trial,266,1188735,0.0-227.0-0.0,voc_e2,12044,"[{""event"":""fullscreenenter"",""trial"":1,""time"":3066},{""event"":""fullscreenexit"",""trial"":1,""time"":3714}]",NA,NA,NA,NA,NA,2,#FA92F8,#1CD855,10,10,1,38,1,855.7999999523163,37,1,996.8000000119208,10,1,experiment,NA,NA,1,0.7,0.3,2,3,217,5,NA
fcp-trial,267,1191624,0.0-228.0-0.0,voc_e2,12044,"[{""event"":""fullscreenenter"",""trial"":1,""time"":3066},{""event"":""fullscreenexit"",""trial"":1,""time"":3714}]",NA,NA,NA,NA,NA,4,#D89F1C,#3386FF,0,10,0,40,0,775.6999999880791,37,1,598.5,0,0,experiment,NA,NA,0,0.1,0.9,1,0,218,5,NA
fcp-trial,268,1195184,0.0-229.0-0.0,voc_e2,12044,"[{""event"":""fullscreenenter"",""trial"":1,""time"":3066},{""event"":""fullscreenexit"",""trial"":1,""time"":3714}]",NA,NA,NA,NA,NA,2,#3386FF,#D89F1C,10,0,1,38,1,1503.3999999761581,37,1,543,10,1,experiment,NA,NA,0,0.9,0.1,0,1,219,5,NA
fcp-trial,269,1198472,0.0-230.0-0.0,voc_e2,12044,"[{""event"":""fullscreenenter"",""trial"":1,""time"":3066},{""event"":""fullscreenexit"",""trial"":1,""time"":3714}]",NA,NA,NA,NA,NA,1,#D89F1C,#3386FF,0,10,0,38,1,925,39,0,854.3999999761581,10,1,experiment,NA,NA,0,0.1,0.9,1,0,220,5,NA
fcp-trial,270,1201272,0.0-231.0-0.0,voc_e2,12044,"[{""event"":""fullscreenenter"",""trial"":1,""time"":3066},{""event"":""fullscreenexit"",""trial"":1,""time"":3714}]",NA,NA,NA,NA,NA,5,#741CD8,#D8271C,0,0,0,38,1,655.5999999642372,39,0,637.3999999761581,0,1,experiment,NA,NA,2,0.5,0.5,5,4,221,5,NA
fcp-trial,271,1204954,0.0-232.0-0.0,voc_e2,12044,"[{""event"":""fullscreenenter"",""trial"":1,""time"":3066},{""event"":""fullscreenexit"",""trial"":1,""time"":3714}]",NA,NA,NA,NA,NA,0,#1CD855,#FA92F8,10,10,0,38,1,1504.5,37,1,663.3999999761581,10,0,experiment,NA,NA,1,0.3,0.7,3,2,222,5,NA
fcp-trial,272,1208761,0.0-233.0-0.0,voc_e2,12044,"[{""event"":""fullscreenenter"",""trial"":1,""time"":3066},{""event"":""fullscreenexit"",""trial"":1,""time"":3714}]",NA,NA,NA,NA,NA,0,#D89F1C,#3386FF,0,10,0,38,1,1444.4000000357628,39,0,846.5,10,1,experiment,NA,NA,0,0.1,0.9,1,0,223,5,NA
fcp-trial,273,1212113,0.0-234.0-0.0,voc_e2,12044,"[{""event"":""fullscreenenter"",""trial"":1,""time"":3066},{""event"":""fullscreenexit"",""trial"":1,""time"":3714}]",NA,NA,NA,NA,NA,2,#741CD8,#D8271C,10,0,0,38,1,1144.4000000357628,39,0,693.4000000357628,0,1,experiment,NA,NA,2,0.5,0.5,5,4,224,5,NA
fcp-trial,274,1215327,0.0-235.0-0.0,voc_e2,12044,"[{""event"":""fullscreenenter"",""trial"":1,""time"":3066},{""event"":""fullscreenexit"",""trial"":1,""time"":3714}]",NA,NA,NA,NA,NA,3,#D89F1C,#3386FF,0,10,0,40,0,1056,39,0,645.6000000238419,10,1,experiment,NA,NA,0,0.1,0.9,1,0,225,5,NA
fcp-trial,275,1218865,0.0-236.0-0.0,voc_e2,12044,"[{""event"":""fullscreenenter"",""trial"":1,""time"":3066},{""event"":""fullscreenexit"",""trial"":1,""time"":3714}]",NA,NA,NA,NA,NA,1,#FA92F8,#1CD855,10,10,1,38,1,1190.199999988079,37,1,839.1999999880791,10,1,experiment,NA,NA,1,0.7,0.3,2,3,226,6,NA
fcp-trial,276,1222426,0.0-237.0-0.0,voc_e2,12044,"[{""event"":""fullscreenenter"",""trial"":1,""time"":3066},{""event"":""fullscreenexit"",""trial"":1,""time"":3714}]",NA,NA,NA,NA,NA,6,#741CD8,#D8271C,10,0,0,38,1,1040.199999988079,39,0,1006.899999976158,0,1,experiment,NA,NA,2,0.5,0.5,5,4,227,6,NA
fcp-trial,277,1225913,0.0-238.0-0.0,voc_e2,12044,"[{""event"":""fullscreenenter"",""trial"":1,""time"":3066},{""event"":""fullscreenexit"",""trial"":1,""time"":3714}]",NA,NA,NA,NA,NA,4,#741CD8,#D8271C,0,0,0,38,1,751.1999999880791,37,1,1222.300000011921,0,0,experiment,NA,NA,2,0.5,0.5,5,4,228,6,NA
fcp-trial,278,1228865,0.0-239.0-0.0,voc_e2,12044,"[{""event"":""fullscreenenter"",""trial"":1,""time"":3066},{""event"":""fullscreenexit"",""trial"":1,""time"":3714}]",NA,NA,NA,NA,NA,6,#3386FF,#D89F1C,10,0,1,38,1,912,37,1,527.1999999880791,10,1,experiment,NA,NA,0,0.9,0.1,0,1,229,6,NA
fcp-trial,279,1231834,0.0-240.0-0.0,voc_e2,12044,"[{""event"":""fullscreenenter"",""trial"":1,""time"":3066},{""event"":""fullscreenexit"",""trial"":1,""time"":3714}]",NA,NA,NA,NA,NA,3,#741CD8,#D8271C,0,0,0,38,1,880.8000000119209,37,1,583.3999999761581,0,0,experiment,NA,NA,2,0.5,0.5,5,4,230,6,NA
fcp-trial,280,1234659,0.0-241.0-0.0,voc_e2,12044,"[{""event"":""fullscreenenter"",""trial"":1,""time"":3066},{""event"":""fullscreenexit"",""trial"":1,""time"":3714}]",NA,NA,NA,NA,NA,3,#1CD855,#FA92F8,0,10,0,38,1,799.5,39,0,518,10,1,experiment,NA,NA,1,0.3,0.7,3,2,231,6,NA
fcp-trial,281,1237601,0.0-242.0-0.0,voc_e2,12044,"[{""event"":""fullscreenenter"",""trial"":1,""time"":3066},{""event"":""fullscreenexit"",""trial"":1,""time"":3714}]",NA,NA,NA,NA,NA,5,#D8271C,#741CD8,10,0,1,38,1,947.8000000119209,39,0,487.2999999523163,0,0,experiment,NA,NA,2,0.5,0.5,4,5,232,6,NA
fcp-trial,282,1241353,0.0-243.0-0.0,voc_e2,12044,"[{""event"":""fullscreenenter"",""trial"":1,""time"":3066},{""event"":""fullscreenexit"",""trial"":1,""time"":3714}]",NA,NA,NA,NA,NA,4,#741CD8,#D8271C,10,0,0,38,1,1398.0999999642372,39,0,846.8000000119209,0,1,experiment,NA,NA,2,0.5,0.5,5,4,233,6,NA
fcp-trial,283,1245169,0.0-244.0-0.0,voc_e2,12044,"[{""event"":""fullscreenenter"",""trial"":1,""time"":3066},{""event"":""fullscreenexit"",""trial"":1,""time"":3714}]",NA,NA,NA,NA,NA,3,#FA92F8,#1CD855,10,10,1,38,1,1732.699999988079,37,1,576.5,10,1,experiment,NA,NA,1,0.7,0.3,2,3,234,6,NA
fcp-trial,284,1248218,0.0-245.0-0.0,voc_e2,12044,"[{""event"":""fullscreenenter"",""trial"":1,""time"":3066},{""event"":""fullscreenexit"",""trial"":1,""time"":3714}]",NA,NA,NA,NA,NA,0,#D89F1C,#3386FF,0,10,0,38,1,881,39,0,661.4000000357628,10,1,experiment,NA,NA,0,0.1,0.9,1,0,235,6,NA
fcp-trial,285,1251337,0.0-246.0-0.0,voc_e2,12044,"[{""event"":""fullscreenenter"",""trial"":1,""time"":3066},{""event"":""fullscreenexit"",""trial"":1,""time"":3714}]",NA,NA,NA,NA,NA,4,#3386FF,#D89F1C,10,10,1,40,0,936.3999999761581,37,1,676.3999999761581,10,1,experiment,NA,NA,0,0.9,0.1,0,1,236,6,NA
fcp-trial,286,1254684,0.0-247.0-0.0,voc_e2,12044,"[{""event"":""fullscreenenter"",""trial"":1,""time"":3066},{""event"":""fullscreenexit"",""trial"":1,""time"":3714}]",NA,NA,NA,NA,NA,1,#D8271C,#741CD8,0,10,1,40,0,889.3999999761581,37,1,943.0999999642372,0,1,experiment,NA,NA,2,0.5,0.5,4,5,237,6,NA
fcp-trial,287,1257720,0.0-248.0-0.0,voc_e2,12044,"[{""event"":""fullscreenenter"",""trial"":1,""time"":3066},{""event"":""fullscreenexit"",""trial"":1,""time"":3714}]",NA,NA,NA,NA,NA,6,#1CD855,#FA92F8,10,10,0,40,0,831.1000000238419,37,1,685,10,0,experiment,NA,NA,1,0.3,0.7,3,2,238,6,NA
fcp-trial,288,1261722,0.0-249.0-0.0,voc_e2,12044,"[{""event"":""fullscreenenter"",""trial"":1,""time"":3066},{""event"":""fullscreenexit"",""trial"":1,""time"":3714}]",NA,NA,NA,NA,NA,2,#741CD8,#D8271C,0,0,0,40,0,1822.199999988079,37,1,670.1000000238419,0,0,experiment,NA,NA,2,0.5,0.5,5,4,239,6,NA
fcp-trial,289,1265697,0.0-250.0-0.0,voc_e2,12044,"[{""event"":""fullscreenenter"",""trial"":1,""time"":3066},{""event"":""fullscreenexit"",""trial"":1,""time"":3714}]",NA,NA,NA,NA,NA,5,#3386FF,#D89F1C,0,0,1,38,1,1851.4000000357628,37,1,612.4000000357628,0,1,experiment,NA,NA,0,0.9,0.1,0,1,240,6,NA
fcp-trial,290,1269786,0.0-251.0-0.0,voc_e2,12044,"[{""event"":""fullscreenenter"",""trial"":1,""time"":3066},{""event"":""fullscreenexit"",""trial"":1,""time"":3714}]",NA,NA,NA,NA,NA,1,#FA92F8,#1CD855,0,0,1,40,0,1879.5,39,0,694.4000000357628,0,0,experiment,NA,NA,1,0.7,0.3,2,3,241,6,NA
fcp-trial,291,1273802,0.0-252.0-0.0,voc_e2,12044,"[{""event"":""fullscreenenter"",""trial"":1,""time"":3066},{""event"":""fullscreenexit"",""trial"":1,""time"":3714}]",NA,NA,NA,NA,NA,5,#FA92F8,#1CD855,0,0,1,38,1,1343.0999999642372,37,1,1159.4000000357628,0,1,experiment,NA,NA,1,0.7,0.3,2,3,242,6,NA
fcp-trial,292,1276714,0.0-253.0-0.0,voc_e2,12044,"[{""event"":""fullscreenenter"",""trial"":1,""time"":3066},{""event"":""fullscreenexit"",""trial"":1,""time"":3714}]",NA,NA,NA,NA,NA,2,#3386FF,#D89F1C,10,0,1,40,0,756.6000000238419,39,0,647.3000000119209,0,0,experiment,NA,NA,0,0.9,0.1,0,1,243,6,NA
fcp-trial,293,1280099,0.0-254.0-0.0,voc_e2,12044,"[{""event"":""fullscreenenter"",""trial"":1,""time"":3066},{""event"":""fullscreenexit"",""trial"":1,""time"":3714}]",NA,NA,NA,NA,NA,3,#741CD8,#D8271C,10,10,0,38,1,862.3000000119209,37,1,1015.100000023842,10,0,experiment,NA,NA,2,0.5,0.5,5,4,244,6,NA
fcp-trial,294,1283089,0.0-255.0-0.0,voc_e2,12044,"[{""event"":""fullscreenenter"",""trial"":1,""time"":3066},{""event"":""fullscreenexit"",""trial"":1,""time"":3714}]",NA,NA,NA,NA,NA,4,#1CD855,#FA92F8,0,10,0,38,1,888.2000000476837,39,0,589.5,10,1,experiment,NA,NA,1,0.3,0.7,3,2,245,6,NA
fcp-trial,295,1286933,0.0-256.0-0.0,voc_e2,12044,"[{""event"":""fullscreenenter"",""trial"":1,""time"":3066},{""event"":""fullscreenexit"",""trial"":1,""time"":3714}]",NA,NA,NA,NA,NA,0,#1CD855,#FA92F8,0,10,0,38,1,1777.699999988079,39,0,550.7999999523163,10,1,experiment,NA,NA,1,0.3,0.7,3,2,246,6,NA
fcp-trial,296,1289676,0.0-257.0-0.0,voc_e2,12044,"[{""event"":""fullscreenenter"",""trial"":1,""time"":3066},{""event"":""fullscreenexit"",""trial"":1,""time"":3714}]",NA,NA,NA,NA,NA,6,#D89F1C,#3386FF,0,10,0,38,1,773.8000000119209,39,0,456.300000011921,10,1,experiment,NA,NA,0,0.1,0.9,1,0,247,6,NA
fcp-trial,297,1293099,0.0-258.0-0.0,voc_e2,12044,"[{""event"":""fullscreenenter"",""trial"":1,""time"":3066},{""event"":""fullscreenexit"",""trial"":1,""time"":3714}]",NA,NA,NA,NA,NA,2,#FA92F8,#1CD855,0,0,1,38,1,1236.699999988079,37,1,679.5999999642372,0,1,experiment,NA,NA,1,0.7,0.3,2,3,248,6,NA
fcp-trial,298,1295771,0.0-259.0-0.0,voc_e2,12044,"[{""event"":""fullscreenenter"",""trial"":1,""time"":3066},{""event"":""fullscreenexit"",""trial"":1,""time"":3714}]",NA,NA,NA,NA,NA,0,#741CD8,#D8271C,10,0,0,38,1,716.6999999880791,39,0,448,0,1,experiment,NA,NA,2,0.5,0.5,5,4,249,6,NA
fcp-trial,299,1298813,0.0-260.0-0.0,voc_e2,12044,"[{""event"":""fullscreenenter"",""trial"":1,""time"":3066},{""event"":""fullscreenexit"",""trial"":1,""time"":3714}]",NA,NA,NA,NA,NA,3,#D89F1C,#3386FF,0,10,0,38,1,935,39,0,600.3999999761581,10,1,experiment,NA,NA,0,0.1,0.9,1,0,250,6,NA
fcp-trial,300,1301643,0.0-261.0-0.0,voc_e2,12044,"[{""event"":""fullscreenenter"",""trial"":1,""time"":3066},{""event"":""fullscreenexit"",""trial"":1,""time"":3714}]",NA,NA,NA,NA,NA,6,#741CD8,#D8271C,0,10,0,40,0,627.1000000238419,37,1,693.6999999880791,0,0,experiment,NA,NA,2,0.5,0.5,5,4,251,6,NA
fcp-trial,301,1304618,0.0-262.0-0.0,voc_e2,12044,"[{""event"":""fullscreenenter"",""trial"":1,""time"":3066},{""event"":""fullscreenexit"",""trial"":1,""time"":3714}]",NA,NA,NA,NA,NA,1,#D89F1C,#3386FF,0,10,0,38,1,1048.300000011921,39,0,413.10000002384186,10,1,experiment,NA,NA,0,0.1,0.9,1,0,252,6,NA
fcp-trial,302,1307373,0.0-263.0-0.0,voc_e2,12044,"[{""event"":""fullscreenenter"",""trial"":1,""time"":3066},{""event"":""fullscreenexit"",""trial"":1,""time"":3714}]",NA,NA,NA,NA,NA,6,#D8271C,#741CD8,0,10,1,40,0,648.6999999880791,37,1,597.8000000119209,0,1,experiment,NA,NA,2,0.5,0.5,4,5,253,6,NA
fcp-trial,303,1310351,0.0-264.0-0.0,voc_e2,12044,"[{""event"":""fullscreenenter"",""trial"":1,""time"":3066},{""event"":""fullscreenexit"",""trial"":1,""time"":3714}]",NA,NA,NA,NA,NA,2,#3386FF,#D89F1C,10,0,1,40,0,948,37,1,519.5,10,1,experiment,NA,NA,0,0.9,0.1,0,1,254,6,NA
fcp-trial,304,1313988,0.0-265.0-0.0,voc_e2,12044,"[{""event"":""fullscreenenter"",""trial"":1,""time"":3066},{""event"":""fullscreenexit"",""trial"":1,""time"":3714}]",NA,NA,NA,NA,NA,0,#D8271C,#741CD8,10,10,1,38,1,1349.8999999761581,39,0,774.3999999761581,10,0,experiment,NA,NA,2,0.5,0.5,4,5,255,6,NA
fcp-trial,305,1317300,0.0-266.0-0.0,voc_e2,12044,"[{""event"":""fullscreenenter"",""trial"":1,""time"":3066},{""event"":""fullscreenexit"",""trial"":1,""time"":3714}]",NA,NA,NA,NA,NA,2,#FA92F8,#1CD855,10,10,1,40,0,1265.300000011921,39,0,542.6000000238419,10,0,experiment,NA,NA,1,0.7,0.3,2,3,256,6,NA
fcp-trial,306,1320742,0.0-267.0-0.0,voc_e2,12044,"[{""event"":""fullscreenenter"",""trial"":1,""time"":3066},{""event"":""fullscreenexit"",""trial"":1,""time"":3714}]",NA,NA,NA,NA,NA,1,#D8271C,#741CD8,10,0,1,40,0,1400.8999999761581,39,0,526.5,0,0,experiment,NA,NA,2,0.5,0.5,4,5,257,6,NA
fcp-trial,307,1324702,0.0-268.0-0.0,voc_e2,12044,"[{""event"":""fullscreenenter"",""trial"":1,""time"":3066},{""event"":""fullscreenexit"",""trial"":1,""time"":3714}]",NA,NA,NA,NA,NA,6,#FA92F8,#1CD855,10,10,1,40,0,1734.7999999523163,37,1,710.0999999642372,10,1,experiment,NA,NA,1,0.7,0.3,2,3,258,6,NA
fcp-trial,308,1327909,0.0-269.0-0.0,voc_e2,12044,"[{""event"":""fullscreenenter"",""trial"":1,""time"":3066},{""event"":""fullscreenexit"",""trial"":1,""time"":3714}]",NA,NA,NA,NA,NA,6,#D89F1C,#3386FF,0,10,0,40,0,893.6000000238419,37,1,805.3000000119209,0,0,experiment,NA,NA,0,0.1,0.9,1,0,259,6,NA
fcp-trial,309,1330800,0.0-270.0-0.0,voc_e2,12044,"[{""event"":""fullscreenenter"",""trial"":1,""time"":3066},{""event"":""fullscreenexit"",""trial"":1,""time"":3714}]",NA,NA,NA,NA,NA,4,#D8271C,#741CD8,0,0,1,40,0,751.6999999880791,39,0,615.6000000238419,0,0,experiment,NA,NA,2,0.5,0.5,4,5,260,6,NA
fcp-trial,310,1333758,0.0-271.0-0.0,voc_e2,12044,"[{""event"":""fullscreenenter"",""trial"":1,""time"":3066},{""event"":""fullscreenexit"",""trial"":1,""time"":3714}]",NA,NA,NA,NA,NA,4,#1CD855,#FA92F8,10,0,0,40,0,840.1000000238419,39,0,606.3000000119209,0,1,experiment,NA,NA,1,0.3,0.7,3,2,261,6,NA
fcp-trial,311,1337068,0.0-272.0-0.0,voc_e2,12044,"[{""event"":""fullscreenenter"",""trial"":1,""time"":3066},{""event"":""fullscreenexit"",""trial"":1,""time"":3714}]",NA,NA,NA,NA,NA,0,#FA92F8,#1CD855,10,10,1,38,1,1275.7999999523163,39,0,526.7000000476837,10,0,experiment,NA,NA,1,0.7,0.3,2,3,262,6,NA
fcp-trial,312,1340524,0.0-273.0-0.0,voc_e2,12044,"[{""event"":""fullscreenenter"",""trial"":1,""time"":3066},{""event"":""fullscreenexit"",""trial"":1,""time"":3714}]",NA,NA,NA,NA,NA,3,#3386FF,#D89F1C,10,0,1,40,0,1312.300000011921,37,1,639.1999999880791,10,1,experiment,NA,NA,0,0.9,0.1,0,1,263,6,NA
fcp-trial,313,1343382,0.0-274.0-0.0,voc_e2,12044,"[{""event"":""fullscreenenter"",""trial"":1,""time"":3066},{""event"":""fullscreenexit"",""trial"":1,""time"":3714}]",NA,NA,NA,NA,NA,2,#D8271C,#741CD8,10,0,1,38,1,848.3999999761581,37,1,504.300000011921,10,1,experiment,NA,NA,2,0.5,0.5,4,5,264,6,NA
fcp-trial,314,1345988,0.0-275.0-0.0,voc_e2,12044,"[{""event"":""fullscreenenter"",""trial"":1,""time"":3066},{""event"":""fullscreenexit"",""trial"":1,""time"":3714}]",NA,NA,NA,NA,NA,5,#741CD8,#D8271C,10,10,0,38,1,596.6999999880791,37,1,500.4000000357628,10,0,experiment,NA,NA,2,0.5,0.5,5,4,265,6,NA
fcp-trial,315,1349399,0.0-276.0-0.0,voc_e2,12044,"[{""event"":""fullscreenenter"",""trial"":1,""time"":3066},{""event"":""fullscreenexit"",""trial"":1,""time"":3714}]",NA,NA,NA,NA,NA,1,#FA92F8,#1CD855,10,10,1,38,1,1153.300000011921,37,1,743.0999999642372,10,1,experiment,NA,NA,1,0.7,0.3,2,3,266,6,NA
fcp-trial,316,1352247,0.0-277.0-0.0,voc_e2,12044,"[{""event"":""fullscreenenter"",""trial"":1,""time"":3066},{""event"":""fullscreenexit"",""trial"":1,""time"":3714}]",NA,NA,NA,NA,NA,0,#3386FF,#D89F1C,10,0,1,38,1,774.8000000119209,37,1,558.5,10,1,experiment,NA,NA,0,0.9,0.1,0,1,267,6,NA
fcp-trial,317,1355319,0.0-278.0-0.0,voc_e2,12044,"[{""event"":""fullscreenenter"",""trial"":1,""time"":3066},{""event"":""fullscreenexit"",""trial"":1,""time"":3714}]",NA,NA,NA,NA,NA,4,#D89F1C,#3386FF,0,0,0,40,0,870.7000000476837,39,0,685.5,0,1,experiment,NA,NA,0,0.1,0.9,1,0,268,6,NA
fcp-trial,318,1358168,0.0-279.0-0.0,voc_e2,12044,"[{""event"":""fullscreenenter"",""trial"":1,""time"":3066},{""event"":""fullscreenexit"",""trial"":1,""time"":3714}]",NA,NA,NA,NA,NA,1,#D89F1C,#3386FF,0,10,0,38,1,799.8999999761581,39,0,540.1999999880791,10,1,experiment,NA,NA,0,0.1,0.9,1,0,269,6,NA
fcp-trial,319,1361264,0.0-280.0-0.0,voc_e2,12044,"[{""event"":""fullscreenenter"",""trial"":1,""time"":3066},{""event"":""fullscreenexit"",""trial"":1,""time"":3714}]",NA,NA,NA,NA,NA,3,#741CD8,#D8271C,10,10,0,38,1,918.0999999642372,37,1,670.3999999761581,10,0,experiment,NA,NA,2,0.5,0.5,5,4,270,6,NA
fcp-trial,320,1363966,0.0-281.0-0.0,voc_e2,12044,"[{""event"":""fullscreenenter"",""trial"":1,""time"":3066},{""event"":""fullscreenexit"",""trial"":1,""time"":3714}]",NA,NA,NA,NA,NA,5,#1CD855,#FA92F8,0,0,0,38,1,724.1000000238419,39,0,463,0,1,experiment,NA,NA,1,0.3,0.7,3,2,271,7,NA
fcp-trial,321,1366654,0.0-282.0-0.0,voc_e2,12044,"[{""event"":""fullscreenenter"",""trial"":1,""time"":3066},{""event"":""fullscreenexit"",""trial"":1,""time"":3714}]",NA,NA,NA,NA,NA,5,#D89F1C,#3386FF,0,10,0,38,1,709,39,0,469.199999988079,10,1,experiment,NA,NA,0,0.1,0.9,1,0,272,7,NA
fcp-trial,322,1369214,0.0-283.0-0.0,voc_e2,12044,"[{""event"":""fullscreenenter"",""trial"":1,""time"":3066},{""event"":""fullscreenexit"",""trial"":1,""time"":3714}]",NA,NA,NA,NA,NA,3,#FA92F8,#1CD855,0,0,1,38,1,554.0999999642372,37,1,495.0999999642372,0,1,experiment,NA,NA,1,0.7,0.3,2,3,273,7,NA
fcp-trial,323,1372253,0.0-284.0-0.0,voc_e2,12044,"[{""event"":""fullscreenenter"",""trial"":1,""time"":3066},{""event"":""fullscreenexit"",""trial"":1,""time"":3714}]",NA,NA,NA,NA,NA,6,#3386FF,#D89F1C,10,0,1,38,1,816.7000000476837,37,1,717.1999999880791,10,1,experiment,NA,NA,0,0.9,0.1,0,1,274,7,NA
fcp-trial,324,1376206,0.0-285.0-0.0,voc_e2,12044,"[{""event"":""fullscreenenter"",""trial"":1,""time"":3066},{""event"":""fullscreenexit"",""trial"":1,""time"":3714}]",NA,NA,NA,NA,NA,1,#3386FF,#D89F1C,10,0,1,40,0,1471.5,39,0,966.399999976158,0,0,experiment,NA,NA,0,0.9,0.1,0,1,275,7,NA
fcp-trial,325,1379327,0.0-286.0-0.0,voc_e2,12044,"[{""event"":""fullscreenenter"",""trial"":1,""time"":3066},{""event"":""fullscreenexit"",""trial"":1,""time"":3714}]",NA,NA,NA,NA,NA,6,#FA92F8,#1CD855,10,10,1,38,1,919.1999999880791,37,1,695.0999999642372,10,1,experiment,NA,NA,1,0.7,0.3,2,3,276,7,NA
fcp-trial,326,1382015,0.0-287.0-0.0,voc_e2,12044,"[{""event"":""fullscreenenter"",""trial"":1,""time"":3066},{""event"":""fullscreenexit"",""trial"":1,""time"":3714}]",NA,NA,NA,NA,NA,2,#1CD855,#FA92F8,0,10,0,38,1,703.1999999880791,39,0,471,10,1,experiment,NA,NA,1,0.3,0.7,3,2,277,7,NA
fcp-trial,327,1384973,0.0-288.0-0.0,voc_e2,12044,"[{""event"":""fullscreenenter"",""trial"":1,""time"":3066},{""event"":""fullscreenexit"",""trial"":1,""time"":3714}]",NA,NA,NA,NA,NA,0,#741CD8,#D8271C,10,10,0,38,1,806.5,39,0,639.4000000357628,10,1,experiment,NA,NA,2,0.5,0.5,5,4,278,7,NA
fcp-trial,328,1388007,0.0-289.0-0.0,voc_e2,12044,"[{""event"":""fullscreenenter"",""trial"":1,""time"":3066},{""event"":""fullscreenexit"",""trial"":1,""time"":3714}]",NA,NA,NA,NA,NA,2,#D8271C,#741CD8,10,10,1,38,1,897.5,39,0,621.6999999880791,10,0,experiment,NA,NA,2,0.5,0.5,4,5,279,7,NA
fcp-trial,329,1391030,0.0-290.0-0.0,voc_e2,12044,"[{""event"":""fullscreenenter"",""trial"":1,""time"":3066},{""event"":""fullscreenexit"",""trial"":1,""time"":3714}]",NA,NA,NA,NA,NA,3,#3386FF,#D89F1C,10,0,1,38,1,999.1999999880791,37,1,508.699999988079,10,1,experiment,NA,NA,0,0.9,0.1,0,1,280,7,NA
fcp-trial,330,1393654,0.0-291.0-0.0,voc_e2,12044,"[{""event"":""fullscreenenter"",""trial"":1,""time"":3066},{""event"":""fullscreenexit"",""trial"":1,""time"":3714}]",NA,NA,NA,NA,NA,5,#1CD855,#FA92F8,10,10,0,38,1,572.5,39,0,542.6000000238419,10,1,experiment,NA,NA,1,0.3,0.7,3,2,281,7,NA
fcp-trial,331,1396735,0.0-292.0-0.0,voc_e2,12044,"[{""event"":""fullscreenenter"",""trial"":1,""time"":3066},{""event"":""fullscreenexit"",""trial"":1,""time"":3714}]",NA,NA,NA,NA,NA,5,#3386FF,#D89F1C,10,0,1,38,1,982.3999999761581,37,1,592.5,10,1,experiment,NA,NA,0,0.9,0.1,0,1,282,7,NA
fcp-trial,332,1399631,0.0-293.0-0.0,voc_e2,12044,"[{""event"":""fullscreenenter"",""trial"":1,""time"":3066},{""event"":""fullscreenexit"",""trial"":1,""time"":3714}]",NA,NA,NA,NA,NA,1,#FA92F8,#1CD855,0,0,1,38,1,733.5999999642372,37,1,646.5,0,1,experiment,NA,NA,1,0.7,0.3,2,3,283,7,NA
fcp-trial,333,1402734,0.0-294.0-0.0,voc_e2,12044,"[{""event"":""fullscreenenter"",""trial"":1,""time"":3066},{""event"":""fullscreenexit"",""trial"":1,""time"":3714}]",NA,NA,NA,NA,NA,1,#D8271C,#741CD8,0,0,1,38,1,892.0999999642372,37,1,695.5,0,1,experiment,NA,NA,2,0.5,0.5,4,5,284,7,NA
fcp-trial,334,1406445,0.0-295.0-0.0,voc_e2,12044,"[{""event"":""fullscreenenter"",""trial"":1,""time"":3066},{""event"":""fullscreenexit"",""trial"":1,""time"":3714}]",NA,NA,NA,NA,NA,3,#1CD855,#FA92F8,0,10,0,38,1,1021.0999999642372,37,1,1181.699999988079,0,0,experiment,NA,NA,1,0.3,0.7,3,2,285,7,NA
fcp-trial,335,1409072,0.0-296.0-0.0,voc_e2,12044,"[{""event"":""fullscreenenter"",""trial"":1,""time"":3066},{""event"":""fullscreenexit"",""trial"":1,""time"":3714}]",NA,NA,NA,NA,NA,3,#D8271C,#741CD8,0,10,1,38,1,646.5999999642372,39,0,471.300000011921,10,0,experiment,NA,NA,2,0.5,0.5,4,5,286,7,NA
fcp-trial,336,1413055,0.0-297.0-0.0,voc_e2,12044,"[{""event"":""fullscreenenter"",""trial"":1,""time"":3066},{""event"":""fullscreenexit"",""trial"":1,""time"":3714}]",NA,NA,NA,NA,NA,2,#D89F1C,#3386FF,10,10,0,38,1,1655.7999999523163,39,0,822.8000000119209,10,1,experiment,NA,NA,0,0.1,0.9,1,0,287,7,NA
fcp-trial,337,1416062,0.0-298.0-0.0,voc_e2,12044,"[{""event"":""fullscreenenter"",""trial"":1,""time"":3066},{""event"":""fullscreenexit"",""trial"":1,""time"":3714}]",NA,NA,NA,NA,NA,4,#741CD8,#D8271C,0,10,0,38,1,820.3000000119209,39,0,677.3000000119209,10,1,experiment,NA,NA,2,0.5,0.5,5,4,288,7,NA
fcp-trial,338,1418935,0.0-299.0-0.0,voc_e2,12044,"[{""event"":""fullscreenenter"",""trial"":1,""time"":3066},{""event"":""fullscreenexit"",""trial"":1,""time"":3714}]",NA,NA,NA,NA,NA,4,#1CD855,#FA92F8,0,0,0,38,1,897.5999999642372,39,0,461.699999988079,0,1,experiment,NA,NA,1,0.3,0.7,3,2,289,7,NA
fcp-trial,339,1421783,0.0-300.0-0.0,voc_e2,12044,"[{""event"":""fullscreenenter"",""trial"":1,""time"":3066},{""event"":""fullscreenexit"",""trial"":1,""time"":3714}]",NA,NA,NA,NA,NA,4,#3386FF,#D89F1C,10,0,1,38,1,768.8000000119209,37,1,566.6999999880791,10,1,experiment,NA,NA,0,0.9,0.1,0,1,290,7,NA
