trial_type,trial_index,time_elapsed,internal_node_id,task_version,subject_id,interactions,success,rt,stimulus,key_press,button_pressed,offer,arcade_color_L,arcade_color_R,arcade_outcome_L,arcade_outcome_R,correct,stage_1_key,stage_1_choice,stage_1_rt,stage_2_key,stage_2_choice,stage_2_rt,stage_3_outcome,accuracy,phase,responses,num_errors,context,reward_prob_L,reward_prob_R,arcade_id_L,arcade_id_R,trial,block,response
pavlovia,0,31,0.0-0.0,voc_e2,11839,"[{""event"":""focus"",""trial"":0,""time"":0}]",NA,NA,NA,NA,NA,NA,NA,NA,NA,NA,NA,NA,NA,NA,NA,NA,NA,NA,NA,NA,NA,NA,NA,NA,NA,NA,NA,NA,NA,NA
fullscreen,1,4083,0.0-1.0,voc_e2,11839,"[{""event"":""focus"",""trial"":0,""time"":0}]",TRUE,NA,NA,NA,NA,NA,NA,NA,NA,NA,NA,NA,NA,NA,NA,NA,NA,NA,NA,NA,NA,NA,NA,NA,NA,NA,NA,NA,NA,NA
audio-keyboard-response,2,7415,0.0-2.0,voc_e2,11839,"[{""event"":""focus"",""trial"":0,""time"":0},{""event"":""fullscreenenter"",""trial"":2,""time"":4476}]",NA,3232,static/audio/beep_loop.wav,32,NA,NA,NA,NA,NA,NA,NA,NA,NA,NA,NA,NA,NA,NA,NA,NA,NA,NA,NA,NA,NA,NA,NA,NA,NA,NA
audio-test,3,9424,0.0-3.0,voc_e2,11839,"[{""event"":""focus"",""trial"":0,""time"":0},{""event"":""fullscreenenter"",""trial"":2,""time"":4476}]",NA,NA,static/audio/turtle.wav,NA,3,NA,NA,NA,NA,NA,NA,NA,NA,NA,NA,NA,NA,NA,NA,NA,NA,NA,NA,NA,NA,NA,NA,NA,NA,NA
audio-test,4,12091,0.0-4.0,voc_e2,11839,"[{""event"":""focus"",""trial"":0,""time"":0},{""event"":""fullscreenenter"",""trial"":2,""time"":4476}]",NA,NA,static/audio/shark.wav,NA,2,NA,NA,NA,NA,NA,NA,NA,NA,NA,NA,NA,NA,NA,NA,NA,NA,NA,NA,NA,NA,NA,NA,NA,NA,NA
audio-instructions,5,19437,0.0-5.0-0.0,voc_e2,11839,"[{""event"":""focus"",""trial"":0,""time"":0},{""event"":""fullscreenenter"",""trial"":2,""time"":4476}]",NA,1562,static/audio/instructions1.wav,NA,0,NA,NA,NA,NA,NA,NA,NA,NA,NA,NA,NA,NA,NA,NA,NA,NA,NA,NA,NA,NA,NA,NA,NA,NA,NA
audio-instructions,6,28945,0.0-5.0-1.0,voc_e2,11839,"[{""event"":""focus"",""trial"":0,""time"":0},{""event"":""fullscreenenter"",""trial"":2,""time"":4476}]",NA,2751,static/audio/instructions2.wav,NA,0,NA,NA,NA,NA,NA,NA,NA,NA,NA,NA,NA,NA,NA,NA,NA,NA,NA,NA,NA,NA,NA,NA,NA,NA,NA
audio-instructions,7,36174,0.0-5.0-2.0,voc_e2,11839,"[{""event"":""focus"",""trial"":0,""time"":0},{""event"":""fullscreenenter"",""trial"":2,""time"":4476}]",NA,1410,static/audio/instructions3.wav,NA,0,NA,NA,NA,NA,NA,NA,NA,NA,NA,NA,NA,NA,NA,NA,NA,NA,NA,NA,NA,NA,NA,NA,NA,NA,NA
audio-instructions,8,50563,0.0-5.0-3.0,voc_e2,11839,"[{""event"":""focus"",""trial"":0,""time"":0},{""event"":""fullscreenenter"",""trial"":2,""time"":4476}]",NA,1149,static/audio/instructions4.wav,NA,0,NA,NA,NA,NA,NA,NA,NA,NA,NA,NA,NA,NA,NA,NA,NA,NA,NA,NA,NA,NA,NA,NA,NA,NA,NA
audio-instructions,9,61334,0.0-5.0-4.0,voc_e2,11839,"[{""event"":""focus"",""trial"":0,""time"":0},{""event"":""fullscreenenter"",""trial"":2,""time"":4476}]",NA,1370,static/audio/instructions5.wav,NA,0,NA,NA,NA,NA,NA,NA,NA,NA,NA,NA,NA,NA,NA,NA,NA,NA,NA,NA,NA,NA,NA,NA,NA,NA,NA
fcp-practice,10,64806,0.0-5.0-5.0-0.0,voc_e2,11839,"[{""event"":""focus"",""trial"":0,""time"":0},{""event"":""fullscreenenter"",""trial"":2,""time"":4476}]",NA,NA,NA,NA,NA,NA,#EDC948,#46d3c8,10,0,1,null,null,null,37,1,1901,10,1,practice,NA,NA,NA,NA,NA,NA,NA,NA,NA,NA
fcp-practice,11,66968,0.0-5.0-5.0-1.0,voc_e2,11839,"[{""event"":""focus"",""trial"":0,""time"":0},{""event"":""fullscreenenter"",""trial"":2,""time"":4476}]",NA,NA,NA,NA,NA,NA,#EDC948,#46d3c8,10,0,1,null,null,null,37,1,646,10,1,practice,NA,NA,NA,NA,NA,NA,NA,NA,NA,NA
fcp-practice,12,69022,0.0-5.0-5.0-2.0,voc_e2,11839,"[{""event"":""focus"",""trial"":0,""time"":0},{""event"":""fullscreenenter"",""trial"":2,""time"":4476}]",NA,NA,NA,NA,NA,NA,#EDC948,#46d3c8,0,10,1,null,null,null,37,1,538,0,1,practice,NA,NA,NA,NA,NA,NA,NA,NA,NA,NA
fcp-practice,13,71134,0.0-5.0-5.0-3.0,voc_e2,11839,"[{""event"":""focus"",""trial"":0,""time"":0},{""event"":""fullscreenenter"",""trial"":2,""time"":4476}]",NA,NA,NA,NA,NA,NA,#EDC948,#46d3c8,10,0,1,null,null,null,37,1,603,10,1,practice,NA,NA,NA,NA,NA,NA,NA,NA,NA,NA
fcp-practice,14,73134,0.0-5.0-5.0-4.0,voc_e2,11839,"[{""event"":""focus"",""trial"":0,""time"":0},{""event"":""fullscreenenter"",""trial"":2,""time"":4476}]",NA,NA,NA,NA,NA,NA,#EDC948,#46d3c8,10,0,1,null,null,null,37,1,493,10,1,practice,NA,NA,NA,NA,NA,NA,NA,NA,NA,NA
audio-instructions,15,96338,0.0-5.0-6.0,voc_e2,11839,"[{""event"":""focus"",""trial"":0,""time"":0},{""event"":""fullscreenenter"",""trial"":2,""time"":4476}]",NA,5183,static/audio/instructions6.wav,NA,0,NA,NA,NA,NA,NA,NA,NA,NA,NA,NA,NA,NA,NA,NA,NA,NA,NA,NA,NA,NA,NA,NA,NA,NA,NA
audio-instructions,16,117154,0.0-5.0-7.0,voc_e2,11839,"[{""event"":""focus"",""trial"":0,""time"":0},{""event"":""fullscreenenter"",""trial"":2,""time"":4476}]",NA,1608,static/audio/instructions7.wav,NA,0,NA,NA,NA,NA,NA,NA,NA,NA,NA,NA,NA,NA,NA,NA,NA,NA,NA,NA,NA,NA,NA,NA,NA,NA,NA
audio-instructions,17,128030,0.0-5.0-8.0,voc_e2,11839,"[{""event"":""focus"",""trial"":0,""time"":0},{""event"":""fullscreenenter"",""trial"":2,""time"":4476}]",NA,1384,static/audio/instructions8.wav,NA,0,NA,NA,NA,NA,NA,NA,NA,NA,NA,NA,NA,NA,NA,NA,NA,NA,NA,NA,NA,NA,NA,NA,NA,NA,NA
fcp-comprehension,18,135697,0.0-5.0-9.0,voc_e2,11839,"[{""event"":""focus"",""trial"":0,""time"":0},{""event"":""fullscreenenter"",""trial"":2,""time"":4476}]",NA,7647,NA,NA,NA,NA,NA,NA,NA,NA,NA,NA,NA,NA,NA,NA,NA,NA,NA,NA,"true,true",0,NA,NA,NA,NA,NA,NA,NA,NA
audio-instructions,19,142560,0.0-6.0-0.0,voc_e2,11839,"[{""event"":""focus"",""trial"":0,""time"":0},{""event"":""fullscreenenter"",""trial"":2,""time"":4476}]",NA,1302,static/audio/instructions9.wav,NA,0,NA,NA,NA,NA,NA,NA,NA,NA,NA,NA,NA,NA,NA,NA,NA,NA,NA,NA,NA,NA,NA,NA,NA,NA,NA
audio-instructions,20,155662,0.0-6.0-1.0,voc_e2,11839,"[{""event"":""focus"",""trial"":0,""time"":0},{""event"":""fullscreenenter"",""trial"":2,""time"":4476}]",NA,976,static/audio/instructions10.wav,NA,0,NA,NA,NA,NA,NA,NA,NA,NA,NA,NA,NA,NA,NA,NA,NA,NA,NA,NA,NA,NA,NA,NA,NA,NA,NA
fcp-trial,21,161933,0.0-6.0-2.0,voc_e2,11839,"[{""event"":""focus"",""trial"":0,""time"":0},{""event"":""fullscreenenter"",""trial"":2,""time"":4476}]",NA,NA,NA,NA,NA,0,#EDC948,#46d3c8,10,10,1,38,1,3295,37,1,1448,10,1,practice,NA,NA,NA,NA,NA,NA,NA,NA,NA,NA
audio-instructions,22,173640,0.0-6.0-3.0,voc_e2,11839,"[{""event"":""focus"",""trial"":0,""time"":0},{""event"":""fullscreenenter"",""trial"":2,""time"":4476}]",NA,685,static/audio/instructions11.wav,NA,0,NA,NA,NA,NA,NA,NA,NA,NA,NA,NA,NA,NA,NA,NA,NA,NA,NA,NA,NA,NA,NA,NA,NA,NA,NA
fcp-trial,23,178242,0.0-6.0-4.0,voc_e2,11839,"[{""event"":""focus"",""trial"":0,""time"":0},{""event"":""fullscreenenter"",""trial"":2,""time"":4476}]",NA,NA,NA,NA,NA,6,#EDC948,#46d3c8,10,10,1,40,0,1758,39,0,1308,10,0,practice,NA,NA,NA,NA,NA,NA,NA,NA,NA,NA
audio-instructions,24,199938,0.0-6.0-5.0,voc_e2,11839,"[{""event"":""focus"",""trial"":0,""time"":0},{""event"":""fullscreenenter"",""trial"":2,""time"":4476}]",NA,2993,static/audio/instructions12.wav,NA,0,NA,NA,NA,NA,NA,NA,NA,NA,NA,NA,NA,NA,NA,NA,NA,NA,NA,NA,NA,NA,NA,NA,NA,NA,NA
audio-instructions,25,208461,0.0-6.0-6.0,voc_e2,11839,"[{""event"":""focus"",""trial"":0,""time"":0},{""event"":""fullscreenenter"",""trial"":2,""time"":4476}]",NA,916,static/audio/instructions13.wav,NA,0,NA,NA,NA,NA,NA,NA,NA,NA,NA,NA,NA,NA,NA,NA,NA,NA,NA,NA,NA,NA,NA,NA,NA,NA,NA
audio-instructions,26,218388,0.0-6.0-7.0,voc_e2,11839,"[{""event"":""focus"",""trial"":0,""time"":0},{""event"":""fullscreenenter"",""trial"":2,""time"":4476}]",NA,1464,static/audio/instructions14.wav,NA,0,NA,NA,NA,NA,NA,NA,NA,NA,NA,NA,NA,NA,NA,NA,NA,NA,NA,NA,NA,NA,NA,NA,NA,NA,NA
audio-instructions,27,227206,0.0-7.0-0.0,voc_e2,11839,"[{""event"":""focus"",""trial"":0,""time"":0},{""event"":""fullscreenenter"",""trial"":2,""time"":4476}]",NA,1891,static/audio/instructions15.wav,NA,0,NA,NA,NA,NA,NA,NA,NA,NA,NA,NA,NA,NA,NA,NA,NA,NA,NA,NA,NA,NA,NA,NA,NA,NA,NA
audio-instructions,28,237729,0.0-7.0-1.0,voc_e2,11839,"[{""event"":""focus"",""trial"":0,""time"":0},{""event"":""fullscreenenter"",""trial"":2,""time"":4476}]",NA,3685,static/audio/instructions16.wav,NA,0,NA,NA,NA,NA,NA,NA,NA,NA,NA,NA,NA,NA,NA,NA,NA,NA,NA,NA,NA,NA,NA,NA,NA,NA,NA
audio-instructions,29,246989,0.0-7.0-2.0,voc_e2,11839,"[{""event"":""focus"",""trial"":0,""time"":0},{""event"":""fullscreenenter"",""trial"":2,""time"":4476}]",NA,1576,static/audio/instructions17.wav,NA,0,NA,NA,NA,NA,NA,NA,NA,NA,NA,NA,NA,NA,NA,NA,NA,NA,NA,NA,NA,NA,NA,NA,NA,NA,NA
audio-instructions,30,260482,0.0-7.0-3.0,voc_e2,11839,"[{""event"":""focus"",""trial"":0,""time"":0},{""event"":""fullscreenenter"",""trial"":2,""time"":4476}]",NA,5718,static/audio/instructions18.wav,NA,0,NA,NA,NA,NA,NA,NA,NA,NA,NA,NA,NA,NA,NA,NA,NA,NA,NA,NA,NA,NA,NA,NA,NA,NA,NA
audio-instructions,31,268278,0.0-7.0-4.0,voc_e2,11839,"[{""event"":""focus"",""trial"":0,""time"":0},{""event"":""fullscreenenter"",""trial"":2,""time"":4476}]",NA,1044,static/audio/instructions19.wav,NA,0,NA,NA,NA,NA,NA,NA,NA,NA,NA,NA,NA,NA,NA,NA,NA,NA,NA,NA,NA,NA,NA,NA,NA,NA,NA
fcp-comprehension,32,283881,0.0-7.0-5.0,voc_e2,11839,"[{""event"":""focus"",""trial"":0,""time"":0},{""event"":""fullscreenenter"",""trial"":2,""time"":4476}]",NA,15599,NA,NA,NA,NA,NA,NA,NA,NA,NA,NA,NA,NA,NA,NA,NA,NA,NA,NA,"false,false,false,true",0,NA,NA,NA,NA,NA,NA,NA,NA
audio-instructions,33,296324,0.0-8.0,voc_e2,11839,"[{""event"":""focus"",""trial"":0,""time"":0},{""event"":""fullscreenenter"",""trial"":2,""time"":4476}]",NA,3211,static/audio/ready.wav,NA,0,NA,NA,NA,NA,NA,NA,NA,NA,NA,NA,NA,NA,NA,NA,NA,NA,NA,NA,NA,NA,NA,NA,NA,NA,NA
fcp-trial,34,302612,0.0-9.0-0.0,voc_e2,11839,"[{""event"":""focus"",""trial"":0,""time"":0},{""event"":""fullscreenenter"",""trial"":2,""time"":4476}]",NA,NA,NA,NA,NA,1,#3386FF,#D89F1C,10,0,1,38,1,3278,37,1,1353,10,1,experiment,NA,NA,0,0.9,0.1,0,1,1,1,NA
fcp-trial,35,307272,0.0-10.0-0.0,voc_e2,11839,"[{""event"":""focus"",""trial"":0,""time"":0},{""event"":""fullscreenenter"",""trial"":2,""time"":4476}]",NA,NA,NA,NA,NA,3,#741CD8,#D8271C,0,10,1,38,1,2025,39,0,1055,10,0,experiment,NA,NA,2,0.5,0.5,4,5,2,1,NA
fcp-trial,36,311633,0.0-11.0-0.0,voc_e2,11839,"[{""event"":""focus"",""trial"":0,""time"":0},{""event"":""fullscreenenter"",""trial"":2,""time"":4476}]",NA,NA,NA,NA,NA,0,#1CD855,#FA92F8,10,0,1,38,1,1509,37,1,1338,10,1,experiment,NA,NA,1,0.7,0.3,2,3,3,1,NA
fcp-trial,37,315533,0.0-12.0-0.0,voc_e2,11839,"[{""event"":""focus"",""trial"":0,""time"":0},{""event"":""fullscreenenter"",""trial"":2,""time"":4476}]",NA,NA,NA,NA,NA,6,#D8271C,#741CD8,0,10,0,38,1,1700,37,1,688,0,0,experiment,NA,NA,2,0.5,0.5,5,4,4,1,NA
fcp-trial,38,318872,0.0-13.0-0.0,voc_e2,11839,"[{""event"":""focus"",""trial"":0,""time"":0},{""event"":""fullscreenenter"",""trial"":2,""time"":4476}]",NA,NA,NA,NA,NA,6,#3386FF,#D89F1C,10,0,1,38,1,1061,39,0,767,0,0,experiment,NA,NA,0,0.9,0.1,0,1,5,1,NA
fcp-trial,39,322572,0.0-14.0-0.0,voc_e2,11839,"[{""event"":""focus"",""trial"":0,""time"":0},{""event"":""fullscreenenter"",""trial"":2,""time"":4476}]",NA,NA,NA,NA,NA,4,#FA92F8,#1CD855,10,10,0,38,1,1505,39,0,673,10,1,experiment,NA,NA,1,0.3,0.7,3,2,6,1,NA
fcp-trial,40,326332,0.0-15.0-0.0,voc_e2,11839,"[{""event"":""focus"",""trial"":0,""time"":0},{""event"":""fullscreenenter"",""trial"":2,""time"":4476}]",NA,NA,NA,NA,NA,6,#FA92F8,#1CD855,0,10,0,38,1,1245,39,0,996,10,1,experiment,NA,NA,1,0.3,0.7,3,2,7,1,NA
fcp-trial,41,329914,0.0-16.0-0.0,voc_e2,11839,"[{""event"":""focus"",""trial"":0,""time"":0},{""event"":""fullscreenenter"",""trial"":2,""time"":4476}]",NA,NA,NA,NA,NA,3,#D89F1C,#3386FF,0,10,0,38,1,1187,39,0,861,10,1,experiment,NA,NA,0,0.1,0.9,1,0,8,1,NA
fcp-trial,42,333672,0.0-17.0-0.0,voc_e2,11839,"[{""event"":""focus"",""trial"":0,""time"":0},{""event"":""fullscreenenter"",""trial"":2,""time"":4476}]",NA,NA,NA,NA,NA,5,#D8271C,#741CD8,10,10,0,38,1,1322,37,1,920,10,0,experiment,NA,NA,2,0.5,0.5,5,4,9,1,NA
fcp-trial,43,336952,0.0-18.0-0.0,voc_e2,11839,"[{""event"":""focus"",""trial"":0,""time"":0},{""event"":""fullscreenenter"",""trial"":2,""time"":4476}]",NA,NA,NA,NA,NA,2,#741CD8,#D8271C,0,0,1,38,1,767,39,0,992,0,0,experiment,NA,NA,2,0.5,0.5,4,5,10,1,NA
fcp-trial,44,340114,0.0-19.0-0.0,voc_e2,11839,"[{""event"":""focus"",""trial"":0,""time"":0},{""event"":""fullscreenenter"",""trial"":2,""time"":4476}]",NA,NA,NA,NA,NA,1,#741CD8,#D8271C,10,0,1,38,1,916,39,0,721,0,0,experiment,NA,NA,2,0.5,0.5,4,5,11,1,NA
fcp-trial,45,343193,0.0-20.0-0.0,voc_e2,11839,"[{""event"":""focus"",""trial"":0,""time"":0},{""event"":""fullscreenenter"",""trial"":2,""time"":4476}]",NA,NA,NA,NA,NA,5,#FA92F8,#1CD855,10,10,0,38,1,835,39,0,710,10,1,experiment,NA,NA,1,0.3,0.7,3,2,12,1,NA
fcp-trial,46,346132,0.0-21.0-0.0,voc_e2,11839,"[{""event"":""focus"",""trial"":0,""time"":0},{""event"":""fullscreenenter"",""trial"":2,""time"":4476}]",NA,NA,NA,NA,NA,2,#3386FF,#D89F1C,10,0,1,38,1,775,37,1,644,10,1,experiment,NA,NA,0,0.9,0.1,0,1,13,1,NA
fcp-trial,47,349172,0.0-22.0-0.0,voc_e2,11839,"[{""event"":""focus"",""trial"":0,""time"":0},{""event"":""fullscreenenter"",""trial"":2,""time"":4476}]",NA,NA,NA,NA,NA,2,#FA92F8,#1CD855,10,0,0,38,1,760,39,0,760,0,1,experiment,NA,NA,1,0.3,0.7,3,2,14,1,NA
fcp-trial,48,353472,0.0-23.0-0.0,voc_e2,11839,"[{""event"":""focus"",""trial"":0,""time"":0},{""event"":""fullscreenenter"",""trial"":2,""time"":4476}]",NA,NA,NA,NA,NA,4,#741CD8,#D8271C,0,10,1,38,1,1044,37,1,1743,0,1,experiment,NA,NA,2,0.5,0.5,4,5,15,1,NA
fcp-trial,49,356801,0.0-24.0-0.0,voc_e2,11839,"[{""event"":""focus"",""trial"":0,""time"":0},{""event"":""fullscreenenter"",""trial"":2,""time"":4476}]",NA,NA,NA,NA,NA,0,#D89F1C,#3386FF,0,10,0,38,1,907,39,0,908,10,1,experiment,NA,NA,0,0.1,0.9,1,0,16,1,NA
fcp-trial,50,359722,0.0-25.0-0.0,voc_e2,11839,"[{""event"":""focus"",""trial"":0,""time"":0},{""event"":""fullscreenenter"",""trial"":2,""time"":4476}]",NA,NA,NA,NA,NA,0,#D8271C,#741CD8,10,0,0,38,1,832,37,1,560,10,0,experiment,NA,NA,2,0.5,0.5,5,4,17,1,NA
fcp-trial,51,362622,0.0-26.0-0.0,voc_e2,11839,"[{""event"":""focus"",""trial"":0,""time"":0},{""event"":""fullscreenenter"",""trial"":2,""time"":4476}]",NA,NA,NA,NA,NA,3,#1CD855,#FA92F8,0,0,1,38,1,591,37,1,687,0,1,experiment,NA,NA,1,0.7,0.3,2,3,18,1,NA
fcp-trial,52,370252,0.0-27.0-0.0,voc_e2,11839,"[{""event"":""focus"",""trial"":0,""time"":0},{""event"":""fullscreenenter"",""trial"":2,""time"":4476}]",NA,NA,NA,NA,NA,5,#D89F1C,#3386FF,0,10,0,38,1,5477,39,0,620,10,1,experiment,NA,NA,0,0.1,0.9,1,0,19,1,NA
fcp-trial,53,373453,0.0-28.0-0.0,voc_e2,11839,"[{""event"":""focus"",""trial"":0,""time"":0},{""event"":""fullscreenenter"",""trial"":2,""time"":4476}]",NA,NA,NA,NA,NA,4,#D89F1C,#3386FF,0,10,0,38,1,606,39,0,1082,10,1,experiment,NA,NA,0,0.1,0.9,1,0,20,1,NA
fcp-trial,54,376232,0.0-29.0-0.0,voc_e2,11839,"[{""event"":""focus"",""trial"":0,""time"":0},{""event"":""fullscreenenter"",""trial"":2,""time"":4476}]",NA,NA,NA,NA,NA,1,#1CD855,#FA92F8,0,10,1,38,1,631,37,1,625,0,1,experiment,NA,NA,1,0.7,0.3,2,3,21,1,NA
fcp-trial,55,381413,0.0-30.0-0.0,voc_e2,11839,"[{""event"":""focus"",""trial"":0,""time"":0},{""event"":""fullscreenenter"",""trial"":2,""time"":4476}]",NA,NA,NA,NA,NA,6,#741CD8,#D8271C,0,10,1,38,1,1985,39,0,1680,10,0,experiment,NA,NA,2,0.5,0.5,4,5,22,1,NA
fcp-trial,56,384242,0.0-31.0-0.0,voc_e2,11839,"[{""event"":""focus"",""trial"":0,""time"":0},{""event"":""fullscreenenter"",""trial"":2,""time"":4476}]",NA,NA,NA,NA,NA,2,#3386FF,#D89F1C,10,0,1,38,1,596,37,1,716,10,1,experiment,NA,NA,0,0.9,0.1,0,1,23,1,NA
fcp-trial,57,387783,0.0-32.0-0.0,voc_e2,11839,"[{""event"":""focus"",""trial"":0,""time"":0},{""event"":""fullscreenenter"",""trial"":2,""time"":4476}]",NA,NA,NA,NA,NA,1,#D89F1C,#3386FF,0,10,0,38,1,707,39,0,1297,10,1,experiment,NA,NA,0,0.1,0.9,1,0,24,1,NA
fcp-trial,58,392063,0.0-33.0-0.0,voc_e2,11839,"[{""event"":""focus"",""trial"":0,""time"":0},{""event"":""fullscreenenter"",""trial"":2,""time"":4476}]",NA,NA,NA,NA,NA,3,#FA92F8,#1CD855,10,10,0,38,1,1619,39,0,1132,10,1,experiment,NA,NA,1,0.3,0.7,3,2,25,1,NA
fcp-trial,59,395422,0.0-34.0-0.0,voc_e2,11839,"[{""event"":""focus"",""trial"":0,""time"":0},{""event"":""fullscreenenter"",""trial"":2,""time"":4476}]",NA,NA,NA,NA,NA,1,#D8271C,#741CD8,0,10,0,38,1,611,39,0,1213,10,1,experiment,NA,NA,2,0.5,0.5,5,4,26,1,NA
fcp-trial,60,398622,0.0-35.0-0.0,voc_e2,11839,"[{""event"":""focus"",""trial"":0,""time"":0},{""event"":""fullscreenenter"",""trial"":2,""time"":4476}]",NA,NA,NA,NA,NA,4,#1CD855,#FA92F8,10,0,1,38,1,715,37,1,955,10,1,experiment,NA,NA,1,0.7,0.3,2,3,27,1,NA
fcp-trial,61,401542,0.0-36.0-0.0,voc_e2,11839,"[{""event"":""focus"",""trial"":0,""time"":0},{""event"":""fullscreenenter"",""trial"":2,""time"":4476}]",NA,NA,NA,NA,NA,6,#1CD855,#FA92F8,0,10,1,38,1,645,37,1,751,0,1,experiment,NA,NA,1,0.7,0.3,2,3,28,1,NA
fcp-trial,62,404402,0.0-37.0-0.0,voc_e2,11839,"[{""event"":""focus"",""trial"":0,""time"":0},{""event"":""fullscreenenter"",""trial"":2,""time"":4476}]",NA,NA,NA,NA,NA,6,#D89F1C,#3386FF,0,10,0,38,1,677,39,0,669,10,1,experiment,NA,NA,0,0.1,0.9,1,0,29,1,NA
fcp-trial,63,407622,0.0-38.0-0.0,voc_e2,11839,"[{""event"":""focus"",""trial"":0,""time"":0},{""event"":""fullscreenenter"",""trial"":2,""time"":4476}]",NA,NA,NA,NA,NA,2,#D8271C,#741CD8,10,10,0,38,1,649,37,1,1044,10,0,experiment,NA,NA,2,0.5,0.5,5,4,30,1,NA
fcp-trial,64,410602,0.0-39.0-0.0,voc_e2,11839,"[{""event"":""focus"",""trial"":0,""time"":0},{""event"":""fullscreenenter"",""trial"":2,""time"":4476}]",NA,NA,NA,NA,NA,1,#1CD855,#FA92F8,10,0,1,38,1,580,37,1,886,10,1,experiment,NA,NA,1,0.7,0.3,2,3,31,1,NA
fcp-trial,65,413558,0.0-40.0-0.0,voc_e2,11839,"[{""event"":""focus"",""trial"":0,""time"":0},{""event"":""fullscreenenter"",""trial"":2,""time"":4476}]",NA,NA,NA,NA,NA,0,#3386FF,#D89F1C,10,0,1,38,1,695,37,1,738,10,1,experiment,NA,NA,0,0.9,0.1,0,1,32,1,NA
fcp-trial,66,421022,0.0-41.0-0.0,voc_e2,11839,"[{""event"":""focus"",""trial"":0,""time"":0},{""event"":""fullscreenenter"",""trial"":2,""time"":4476}]",NA,NA,NA,NA,NA,5,#FA92F8,#1CD855,10,10,0,38,1,5064,39,0,882,10,1,experiment,NA,NA,1,0.3,0.7,3,2,33,1,NA
fcp-trial,67,423902,0.0-42.0-0.0,voc_e2,11839,"[{""event"":""focus"",""trial"":0,""time"":0},{""event"":""fullscreenenter"",""trial"":2,""time"":4476}]",NA,NA,NA,NA,NA,3,#D89F1C,#3386FF,0,10,0,38,1,771,39,0,567,10,1,experiment,NA,NA,0,0.1,0.9,1,0,34,1,NA
fcp-trial,68,426542,0.0-43.0-0.0,voc_e2,11839,"[{""event"":""focus"",""trial"":0,""time"":0},{""event"":""fullscreenenter"",""trial"":2,""time"":4476}]",NA,NA,NA,NA,NA,4,#D8271C,#741CD8,10,0,0,38,1,556,37,1,566,10,0,experiment,NA,NA,2,0.5,0.5,5,4,35,1,NA
fcp-trial,69,429382,0.0-44.0-0.0,voc_e2,11839,"[{""event"":""focus"",""trial"":0,""time"":0},{""event"":""fullscreenenter"",""trial"":2,""time"":4476}]",NA,NA,NA,NA,NA,0,#741CD8,#D8271C,0,10,1,38,1,704,39,0,606,10,0,experiment,NA,NA,2,0.5,0.5,4,5,36,1,NA
fcp-trial,70,432322,0.0-45.0-0.0,voc_e2,11839,"[{""event"":""focus"",""trial"":0,""time"":0},{""event"":""fullscreenenter"",""trial"":2,""time"":4476}]",NA,NA,NA,NA,NA,5,#D89F1C,#3386FF,0,10,0,38,1,616,39,0,616,10,1,experiment,NA,NA,0,0.1,0.9,1,0,37,1,NA
fcp-trial,71,435241,0.0-46.0-0.0,voc_e2,11839,"[{""event"":""focus"",""trial"":0,""time"":0},{""event"":""fullscreenenter"",""trial"":2,""time"":4476}]",NA,NA,NA,NA,NA,0,#FA92F8,#1CD855,0,10,0,38,1,853,39,0,539,10,1,experiment,NA,NA,1,0.3,0.7,3,2,38,1,NA
fcp-trial,72,438564,0.0-47.0-0.0,voc_e2,11839,"[{""event"":""focus"",""trial"":0,""time"":0},{""event"":""fullscreenenter"",""trial"":2,""time"":4476}]",NA,NA,NA,NA,NA,4,#D89F1C,#3386FF,0,10,0,38,1,562,39,0,1230,10,1,experiment,NA,NA,0,0.1,0.9,1,0,39,1,NA
fcp-trial,73,442181,0.0-48.0-0.0,voc_e2,11839,"[{""event"":""focus"",""trial"":0,""time"":0},{""event"":""fullscreenenter"",""trial"":2,""time"":4476}]",NA,NA,NA,NA,NA,3,#D8271C,#741CD8,0,0,0,38,1,799,37,1,1293,0,0,experiment,NA,NA,2,0.5,0.5,5,4,40,1,NA
fcp-trial,74,444932,0.0-49.0-0.0,voc_e2,11839,"[{""event"":""focus"",""trial"":0,""time"":0},{""event"":""fullscreenenter"",""trial"":2,""time"":4476}]",NA,NA,NA,NA,NA,2,#FA92F8,#1CD855,0,10,0,38,1,651,39,0,579,10,1,experiment,NA,NA,1,0.3,0.7,3,2,41,1,NA
fcp-trial,75,447692,0.0-50.0-0.0,voc_e2,11839,"[{""event"":""focus"",""trial"":0,""time"":0},{""event"":""fullscreenenter"",""trial"":2,""time"":4476}]",NA,NA,NA,NA,NA,5,#741CD8,#D8271C,10,0,1,38,1,702,39,0,543,0,0,experiment,NA,NA,2,0.5,0.5,4,5,42,1,NA
fcp-trial,76,450652,0.0-51.0-0.0,voc_e2,11839,"[{""event"":""focus"",""trial"":0,""time"":0},{""event"":""fullscreenenter"",""trial"":2,""time"":4476}]",NA,NA,NA,NA,NA,4,#1CD855,#FA92F8,10,0,1,38,1,811,37,1,620,10,1,experiment,NA,NA,1,0.7,0.3,2,3,43,1,NA
fcp-trial,77,453542,0.0-52.0-0.0,voc_e2,11839,"[{""event"":""focus"",""trial"":0,""time"":0},{""event"":""fullscreenenter"",""trial"":2,""time"":4476}]",NA,NA,NA,NA,NA,3,#D8271C,#741CD8,10,0,0,38,1,776,39,0,583,0,1,experiment,NA,NA,2,0.5,0.5,5,4,44,1,NA
fcp-trial,78,456482,0.0-53.0-0.0,voc_e2,11839,"[{""event"":""focus"",""trial"":0,""time"":0},{""event"":""fullscreenenter"",""trial"":2,""time"":4476}]",NA,NA,NA,NA,NA,0,#FA92F8,#1CD855,0,10,0,38,1,834,39,0,577,10,1,experiment,NA,NA,1,0.3,0.7,3,2,45,1,NA
fcp-trial,79,460552,0.0-54.0-0.0,voc_e2,11839,"[{""event"":""focus"",""trial"":0,""time"":0},{""event"":""fullscreenenter"",""trial"":2,""time"":4476}]",NA,NA,NA,NA,NA,2,#1CD855,#FA92F8,0,10,1,38,1,997,37,1,1546,0,1,experiment,NA,NA,1,0.7,0.3,2,3,46,2,NA
fcp-trial,80,463392,0.0-55.0-0.0,voc_e2,11839,"[{""event"":""focus"",""trial"":0,""time"":0},{""event"":""fullscreenenter"",""trial"":2,""time"":4476}]",NA,NA,NA,NA,NA,3,#D89F1C,#3386FF,0,10,0,38,1,713,39,0,602,10,1,experiment,NA,NA,0,0.1,0.9,1,0,47,2,NA
fcp-trial,81,466213,0.0-56.0-0.0,voc_e2,11839,"[{""event"":""focus"",""trial"":0,""time"":0},{""event"":""fullscreenenter"",""trial"":2,""time"":4476}]",NA,NA,NA,NA,NA,1,#741CD8,#D8271C,10,10,1,38,1,627,37,1,675,10,1,experiment,NA,NA,2,0.5,0.5,4,5,48,2,NA
fcp-trial,82,468872,0.0-57.0-0.0,voc_e2,11839,"[{""event"":""focus"",""trial"":0,""time"":0},{""event"":""fullscreenenter"",""trial"":2,""time"":4476}]",NA,NA,NA,NA,NA,6,#D89F1C,#3386FF,0,10,0,38,1,469,39,0,650,10,1,experiment,NA,NA,0,0.1,0.9,1,0,49,2,NA
fcp-trial,83,472252,0.0-58.0-0.0,voc_e2,11839,"[{""event"":""focus"",""trial"":0,""time"":0},{""event"":""fullscreenenter"",""trial"":2,""time"":4476}]",NA,NA,NA,NA,NA,1,#3386FF,#D89F1C,10,0,1,38,1,701,37,1,1154,10,1,experiment,NA,NA,0,0.9,0.1,0,1,50,2,NA
fcp-trial,84,477482,0.0-59.0-0.0,voc_e2,11839,"[{""event"":""focus"",""trial"":0,""time"":0},{""event"":""fullscreenenter"",""trial"":2,""time"":4476}]",NA,NA,NA,NA,NA,1,#1CD855,#FA92F8,10,0,1,38,1,2172,37,1,1534,10,1,experiment,NA,NA,1,0.7,0.3,2,3,51,2,NA
fcp-trial,85,480474,0.0-60.0-0.0,voc_e2,11839,"[{""event"":""focus"",""trial"":0,""time"":0},{""event"":""fullscreenenter"",""trial"":2,""time"":4476}]",NA,NA,NA,NA,NA,4,#741CD8,#D8271C,10,0,1,38,1,593,37,1,872,10,1,experiment,NA,NA,2,0.5,0.5,4,5,52,2,NA
fcp-trial,86,483243,0.0-61.0-0.0,voc_e2,11839,"[{""event"":""focus"",""trial"":0,""time"":0},{""event"":""fullscreenenter"",""trial"":2,""time"":4476}]",NA,NA,NA,NA,NA,5,#D89F1C,#3386FF,0,10,0,38,1,705,39,0,540,10,1,experiment,NA,NA,0,0.1,0.9,1,0,53,2,NA
fcp-trial,87,486153,0.0-62.0-0.0,voc_e2,11839,"[{""event"":""focus"",""trial"":0,""time"":0},{""event"":""fullscreenenter"",""trial"":2,""time"":4476}]",NA,NA,NA,NA,NA,3,#FA92F8,#1CD855,0,0,0,38,1,658,39,0,566,0,1,experiment,NA,NA,1,0.3,0.7,3,2,54,2,NA
fcp-trial,88,488753,0.0-63.0-0.0,voc_e2,11839,"[{""event"":""focus"",""trial"":0,""time"":0},{""event"":""fullscreenenter"",""trial"":2,""time"":4476}]",NA,NA,NA,NA,NA,5,#D8271C,#741CD8,10,0,0,38,1,438,39,0,631,0,1,experiment,NA,NA,2,0.5,0.5,5,4,55,2,NA
fcp-trial,89,491416,0.0-64.0-0.0,voc_e2,11839,"[{""event"":""focus"",""trial"":0,""time"":0},{""event"":""fullscreenenter"",""trial"":2,""time"":4476}]",NA,NA,NA,NA,NA,2,#741CD8,#D8271C,0,10,1,38,1,564,39,0,580,10,0,experiment,NA,NA,2,0.5,0.5,4,5,56,2,NA
fcp-trial,90,494862,0.0-65.0-0.0,voc_e2,11839,"[{""event"":""focus"",""trial"":0,""time"":0},{""event"":""fullscreenenter"",""trial"":2,""time"":4476}]",NA,NA,NA,NA,NA,4,#D89F1C,#3386FF,10,10,0,38,1,1429,39,0,478,10,1,experiment,NA,NA,0,0.1,0.9,1,0,57,2,NA
fcp-trial,91,497684,0.0-66.0-0.0,voc_e2,11839,"[{""event"":""focus"",""trial"":0,""time"":0},{""event"":""fullscreenenter"",""trial"":2,""time"":4476}]",NA,NA,NA,NA,NA,6,#FA92F8,#1CD855,0,10,0,38,1,699,39,0,593,10,1,experiment,NA,NA,1,0.3,0.7,3,2,58,2,NA
fcp-trial,92,502403,0.0-67.0-0.0,voc_e2,11839,"[{""event"":""focus"",""trial"":0,""time"":0},{""event"":""fullscreenenter"",""trial"":2,""time"":4476}]",NA,NA,NA,NA,NA,6,#741CD8,#D8271C,10,10,1,38,1,2085,39,0,943,10,0,experiment,NA,NA,2,0.5,0.5,4,5,59,2,NA
fcp-trial,93,505543,0.0-68.0-0.0,voc_e2,11839,"[{""event"":""focus"",""trial"":0,""time"":0},{""event"":""fullscreenenter"",""trial"":2,""time"":4476}]",NA,NA,NA,NA,NA,0,#D8271C,#741CD8,10,10,0,38,1,552,39,0,1067,10,1,experiment,NA,NA,2,0.5,0.5,5,4,60,2,NA
fcp-trial,94,509583,0.0-69.0-0.0,voc_e2,11839,"[{""event"":""focus"",""trial"":0,""time"":0},{""event"":""fullscreenenter"",""trial"":2,""time"":4476}]",NA,NA,NA,NA,NA,2,#3386FF,#D89F1C,10,0,1,38,1,1485,37,1,1018,10,1,experiment,NA,NA,0,0.9,0.1,0,1,61,2,NA
fcp-trial,95,512322,0.0-70.0-0.0,voc_e2,11839,"[{""event"":""focus"",""trial"":0,""time"":0},{""event"":""fullscreenenter"",""trial"":2,""time"":4476}]",NA,NA,NA,NA,NA,5,#FA92F8,#1CD855,10,0,0,38,1,728,39,0,478,0,1,experiment,NA,NA,1,0.3,0.7,3,2,62,2,NA
fcp-trial,96,515292,0.0-71.0-0.0,voc_e2,11839,"[{""event"":""focus"",""trial"":0,""time"":0},{""event"":""fullscreenenter"",""trial"":2,""time"":4476}]",NA,NA,NA,NA,NA,0,#D89F1C,#3386FF,0,10,0,38,1,644,39,0,818,10,1,experiment,NA,NA,0,0.1,0.9,1,0,63,2,NA
fcp-trial,97,521869,0.0-72.0-0.0,voc_e2,11839,"[{""event"":""focus"",""trial"":0,""time"":0},{""event"":""fullscreenenter"",""trial"":2,""time"":4476}]",NA,NA,NA,NA,NA,0,#D89F1C,#3386FF,0,10,0,38,1,4558,39,0,480,10,1,experiment,NA,NA,0,0.1,0.9,1,0,64,2,NA
fcp-trial,98,524862,0.0-73.0-0.0,voc_e2,11839,"[{""event"":""focus"",""trial"":0,""time"":0},{""event"":""fullscreenenter"",""trial"":2,""time"":4476}]",NA,NA,NA,NA,NA,4,#D8271C,#741CD8,10,10,0,38,1,703,39,0,627,10,1,experiment,NA,NA,2,0.5,0.5,5,4,65,2,NA
fcp-trial,99,527564,0.0-74.0-0.0,voc_e2,11839,"[{""event"":""focus"",""trial"":0,""time"":0},{""event"":""fullscreenenter"",""trial"":2,""time"":4476}]",NA,NA,NA,NA,NA,1,#3386FF,#D89F1C,10,0,1,38,1,567,37,1,592,10,1,experiment,NA,NA,0,0.9,0.1,0,1,66,2,NA
fcp-trial,100,530323,0.0-75.0-0.0,voc_e2,11839,"[{""event"":""focus"",""trial"":0,""time"":0},{""event"":""fullscreenenter"",""trial"":2,""time"":4476}]",NA,NA,NA,NA,NA,5,#1CD855,#FA92F8,10,0,1,38,1,654,37,1,576,10,1,experiment,NA,NA,1,0.7,0.3,2,3,67,2,NA
fcp-trial,101,532942,0.0-76.0-0.0,voc_e2,11839,"[{""event"":""focus"",""trial"":0,""time"":0},{""event"":""fullscreenenter"",""trial"":2,""time"":4476}]",NA,NA,NA,NA,NA,2,#3386FF,#D89F1C,10,0,1,38,1,505,37,1,564,10,1,experiment,NA,NA,0,0.9,0.1,0,1,68,2,NA
fcp-trial,102,535742,0.0-77.0-0.0,voc_e2,11839,"[{""event"":""focus"",""trial"":0,""time"":0},{""event"":""fullscreenenter"",""trial"":2,""time"":4476}]",NA,NA,NA,NA,NA,3,#1CD855,#FA92F8,0,0,1,38,1,636,37,1,640,0,1,experiment,NA,NA,1,0.7,0.3,2,3,69,2,NA
fcp-trial,103,539215,0.0-78.0-0.0,voc_e2,11839,"[{""event"":""focus"",""trial"":0,""time"":0},{""event"":""fullscreenenter"",""trial"":2,""time"":4476}]",NA,NA,NA,NA,NA,3,#D8271C,#741CD8,10,10,0,38,1,770,39,0,1178,10,1,experiment,NA,NA,2,0.5,0.5,5,4,70,2,NA
fcp-trial,104,541773,0.0-79.0-0.0,voc_e2,11839,"[{""event"":""focus"",""trial"":0,""time"":0},{""event"":""fullscreenenter"",""trial"":2,""time"":4476}]",NA,NA,NA,NA,NA,1,#1CD855,#FA92F8,10,0,1,38,1,491,37,1,549,10,1,experiment,NA,NA,1,0.7,0.3,2,3,71,2,NA
fcp-trial,105,546492,0.0-80.0-0.0,voc_e2,11839,"[{""event"":""focus"",""trial"":0,""time"":0},{""event"":""fullscreenenter"",""trial"":2,""time"":4476}]",NA,NA,NA,NA,NA,3,#3386FF,#D89F1C,10,0,1,38,1,2039,37,1,1168,10,1,experiment,NA,NA,0,0.9,0.1,0,1,72,2,NA
fcp-trial,106,549473,0.0-81.0-0.0,voc_e2,11839,"[{""event"":""focus"",""trial"":0,""time"":0},{""event"":""fullscreenenter"",""trial"":2,""time"":4476}]",NA,NA,NA,NA,NA,0,#741CD8,#D8271C,0,10,1,38,1,562,37,1,896,0,1,experiment,NA,NA,2,0.5,0.5,4,5,73,2,NA
fcp-trial,107,552191,0.0-82.0-0.0,voc_e2,11839,"[{""event"":""focus"",""trial"":0,""time"":0},{""event"":""fullscreenenter"",""trial"":2,""time"":4476}]",NA,NA,NA,NA,NA,6,#D8271C,#741CD8,10,10,0,38,1,610,39,0,571,10,1,experiment,NA,NA,2,0.5,0.5,5,4,74,2,NA
fcp-trial,108,554814,0.0-83.0-0.0,voc_e2,11839,"[{""event"":""focus"",""trial"":0,""time"":0},{""event"":""fullscreenenter"",""trial"":2,""time"":4476}]",NA,NA,NA,NA,NA,6,#D89F1C,#3386FF,0,10,0,38,1,626,39,0,470,10,1,experiment,NA,NA,0,0.1,0.9,1,0,75,2,NA
fcp-trial,109,562542,0.0-84.0-0.0,voc_e2,11839,"[{""event"":""focus"",""trial"":0,""time"":0},{""event"":""fullscreenenter"",""trial"":2,""time"":4476}]",NA,NA,NA,NA,NA,2,#1CD855,#FA92F8,0,0,1,38,1,5898,39,0,295,0,0,experiment,NA,NA,1,0.7,0.3,2,3,76,2,NA
fcp-trial,110,565214,0.0-85.0-0.0,voc_e2,11839,"[{""event"":""focus"",""trial"":0,""time"":0},{""event"":""fullscreenenter"",""trial"":2,""time"":4476}]",NA,NA,NA,NA,NA,0,#1CD855,#FA92F8,10,0,1,38,1,556,37,1,581,10,1,experiment,NA,NA,1,0.7,0.3,2,3,77,2,NA
fcp-trial,111,568264,0.0-86.0-0.0,voc_e2,11839,"[{""event"":""focus"",""trial"":0,""time"":0},{""event"":""fullscreenenter"",""trial"":2,""time"":4476}]",NA,NA,NA,NA,NA,2,#741CD8,#D8271C,10,10,1,38,1,572,37,1,937,10,1,experiment,NA,NA,2,0.5,0.5,4,5,78,2,NA
fcp-trial,112,570851,0.0-87.0-0.0,voc_e2,11839,"[{""event"":""focus"",""trial"":0,""time"":0},{""event"":""fullscreenenter"",""trial"":2,""time"":4476}]",NA,NA,NA,NA,NA,5,#D89F1C,#3386FF,0,10,0,38,1,528,39,0,486,10,1,experiment,NA,NA,0,0.1,0.9,1,0,79,2,NA
fcp-trial,113,573472,0.0-88.0-0.0,voc_e2,11839,"[{""event"":""focus"",""trial"":0,""time"":0},{""event"":""fullscreenenter"",""trial"":2,""time"":4476}]",NA,NA,NA,NA,NA,6,#1CD855,#FA92F8,10,0,1,38,1,562,37,1,546,10,1,experiment,NA,NA,1,0.7,0.3,2,3,80,2,NA
fcp-trial,114,576073,0.0-89.0-0.0,voc_e2,11839,"[{""event"":""focus"",""trial"":0,""time"":0},{""event"":""fullscreenenter"",""trial"":2,""time"":4476}]",NA,NA,NA,NA,NA,4,#3386FF,#D89F1C,0,0,1,38,1,515,37,1,563,0,1,experiment,NA,NA,0,0.9,0.1,0,1,81,2,NA
fcp-trial,115,578492,0.0-90.0-0.0,voc_e2,11839,"[{""event"":""focus"",""trial"":0,""time"":0},{""event"":""fullscreenenter"",""trial"":2,""time"":4476}]",NA,NA,NA,NA,NA,4,#FA92F8,#1CD855,0,10,0,38,1,416,39,0,471,10,1,experiment,NA,NA,1,0.3,0.7,3,2,82,2,NA
fcp-trial,116,581081,0.0-91.0-0.0,voc_e2,11839,"[{""event"":""focus"",""trial"":0,""time"":0},{""event"":""fullscreenenter"",""trial"":2,""time"":4476}]",NA,NA,NA,NA,NA,1,#741CD8,#D8271C,0,10,1,38,1,447,37,1,525,0,1,experiment,NA,NA,2,0.5,0.5,4,5,83,2,NA
fcp-trial,117,585465,0.0-92.0-0.0,voc_e2,11839,"[{""event"":""focus"",""trial"":0,""time"":0},{""event"":""fullscreenenter"",""trial"":2,""time"":4476}]",NA,NA,NA,NA,NA,5,#D8271C,#741CD8,10,0,0,38,1,2403,39,0,469,0,1,experiment,NA,NA,2,0.5,0.5,5,4,84,2,NA
fcp-trial,118,588182,0.0-93.0-0.0,voc_e2,11839,"[{""event"":""focus"",""trial"":0,""time"":0},{""event"":""fullscreenenter"",""trial"":2,""time"":4476}]",NA,NA,NA,NA,NA,2,#D89F1C,#3386FF,0,0,0,38,1,628,39,0,496,0,1,experiment,NA,NA,0,0.1,0.9,1,0,85,2,NA
fcp-trial,119,590623,0.0-94.0-0.0,voc_e2,11839,"[{""event"":""focus"",""trial"":0,""time"":0},{""event"":""fullscreenenter"",""trial"":2,""time"":4476}]",NA,NA,NA,NA,NA,1,#1CD855,#FA92F8,10,0,1,38,1,437,37,1,473,10,1,experiment,NA,NA,1,0.7,0.3,2,3,86,2,NA
fcp-trial,120,593643,0.0-95.0-0.0,voc_e2,11839,"[{""event"":""focus"",""trial"":0,""time"":0},{""event"":""fullscreenenter"",""trial"":2,""time"":4476}]",NA,NA,NA,NA,NA,1,#D8271C,#741CD8,0,0,0,38,1,398,37,1,1091,0,0,experiment,NA,NA,2,0.5,0.5,5,4,87,2,NA
fcp-trial,121,596251,0.0-96.0-0.0,voc_e2,11839,"[{""event"":""focus"",""trial"":0,""time"":0},{""event"":""fullscreenenter"",""trial"":2,""time"":4476}]",NA,NA,NA,NA,NA,0,#3386FF,#D89F1C,10,0,1,38,1,336,37,1,581,10,1,experiment,NA,NA,0,0.9,0.1,0,1,88,2,NA
fcp-trial,122,598971,0.0-97.0-0.0,voc_e2,11839,"[{""event"":""focus"",""trial"":0,""time"":0},{""event"":""fullscreenenter"",""trial"":2,""time"":4476}]",NA,NA,NA,NA,NA,5,#D89F1C,#3386FF,0,10,0,38,1,328,39,0,886,10,1,experiment,NA,NA,0,0.1,0.9,1,0,89,2,NA
fcp-trial,123,605392,0.0-98.0-0.0,voc_e2,11839,"[{""event"":""focus"",""trial"":0,""time"":0},{""event"":""fullscreenenter"",""trial"":2,""time"":4476}]",NA,NA,NA,NA,NA,0,#1CD855,#FA92F8,0,10,1,40,0,876,39,0,3875,10,0,experiment,NA,NA,1,0.7,0.3,2,3,90,2,NA
fcp-trial,124,609152,0.0-99.0-0.0,voc_e2,11839,"[{""event"":""focus"",""trial"":0,""time"":0},{""event"":""fullscreenenter"",""trial"":2,""time"":4476}]",NA,NA,NA,NA,NA,2,#D8271C,#741CD8,10,0,0,38,1,1288,39,0,961,0,1,experiment,NA,NA,2,0.5,0.5,5,4,91,3,NA
fcp-trial,125,612432,0.0-100.0-0.0,voc_e2,11839,"[{""event"":""focus"",""trial"":0,""time"":0},{""event"":""fullscreenenter"",""trial"":2,""time"":4476}]",NA,NA,NA,NA,NA,3,#D8271C,#741CD8,0,10,0,38,1,1043,37,1,659,0,0,experiment,NA,NA,2,0.5,0.5,5,4,92,3,NA
fcp-trial,126,617781,0.0-101.0-0.0,voc_e2,11839,"[{""event"":""focus"",""trial"":0,""time"":0},{""event"":""fullscreenenter"",""trial"":2,""time"":4476}]",NA,NA,NA,NA,NA,3,#3386FF,#D89F1C,10,0,1,38,1,2906,39,0,915,0,0,experiment,NA,NA,0,0.9,0.1,0,1,93,3,NA
fcp-trial,127,620515,0.0-102.0-0.0,voc_e2,11839,"[{""event"":""focus"",""trial"":0,""time"":0},{""event"":""fullscreenenter"",""trial"":2,""time"":4476}]",NA,NA,NA,NA,NA,1,#D89F1C,#3386FF,0,10,0,38,1,459,39,0,632,10,1,experiment,NA,NA,0,0.1,0.9,1,0,94,3,NA
fcp-trial,128,623462,0.0-103.0-0.0,voc_e2,11839,"[{""event"":""focus"",""trial"":0,""time"":0},{""event"":""fullscreenenter"",""trial"":2,""time"":4476}]",NA,NA,NA,NA,NA,3,#1CD855,#FA92F8,10,10,1,38,1,849,37,1,581,10,1,experiment,NA,NA,1,0.7,0.3,2,3,95,3,NA
fcp-trial,129,626642,0.0-104.0-0.0,voc_e2,11839,"[{""event"":""focus"",""trial"":0,""time"":0},{""event"":""fullscreenenter"",""trial"":2,""time"":4476}]",NA,NA,NA,NA,NA,5,#D8271C,#741CD8,0,10,0,38,1,698,39,0,823,10,1,experiment,NA,NA,2,0.5,0.5,5,4,96,3,NA
fcp-trial,130,631772,0.0-105.0-0.0,voc_e2,11839,"[{""event"":""focus"",""trial"":0,""time"":0},{""event"":""fullscreenenter"",""trial"":2,""time"":4476}]",NA,NA,NA,NA,NA,4,#741CD8,#D8271C,10,10,1,38,1,3047,37,1,577,10,1,experiment,NA,NA,2,0.5,0.5,4,5,97,3,NA
fcp-trial,131,635422,0.0-106.0-0.0,voc_e2,11839,"[{""event"":""focus"",""trial"":0,""time"":0},{""event"":""fullscreenenter"",""trial"":2,""time"":4476}]",NA,NA,NA,NA,NA,0,#741CD8,#D8271C,10,0,1,38,1,1144,37,1,984,10,1,experiment,NA,NA,2,0.5,0.5,4,5,98,3,NA
fcp-trial,132,639122,0.0-107.0-0.0,voc_e2,11839,"[{""event"":""focus"",""trial"":0,""time"":0},{""event"":""fullscreenenter"",""trial"":2,""time"":4476}]",NA,NA,NA,NA,NA,4,#3386FF,#D89F1C,0,0,1,38,1,993,37,1,1182,0,1,experiment,NA,NA,0,0.9,0.1,0,1,99,3,NA
fcp-trial,133,642302,0.0-108.0-0.0,voc_e2,11839,"[{""event"":""focus"",""trial"":0,""time"":0},{""event"":""fullscreenenter"",""trial"":2,""time"":4476}]",NA,NA,NA,NA,NA,5,#FA92F8,#1CD855,0,10,0,38,1,391,39,0,1264,10,1,experiment,NA,NA,1,0.3,0.7,3,2,100,3,NA
fcp-trial,134,646422,0.0-109.0-0.0,voc_e2,11839,"[{""event"":""focus"",""trial"":0,""time"":0},{""event"":""fullscreenenter"",""trial"":2,""time"":4476}]",NA,NA,NA,NA,NA,4,#1CD855,#FA92F8,10,0,1,38,1,1025,37,1,1577,10,1,experiment,NA,NA,1,0.7,0.3,2,3,101,3,NA
fcp-trial,135,656599,0.0-110.0-0.0,voc_e2,11839,"[{""event"":""focus"",""trial"":0,""time"":0},{""event"":""fullscreenenter"",""trial"":2,""time"":4476}]",NA,NA,NA,NA,NA,6,#D8271C,#741CD8,10,10,0,38,1,635,39,0,8026,10,1,experiment,NA,NA,2,0.5,0.5,5,4,102,3,NA
fcp-trial,136,659392,0.0-111.0-0.0,voc_e2,11839,"[{""event"":""focus"",""trial"":0,""time"":0},{""event"":""fullscreenenter"",""trial"":2,""time"":4476}]",NA,NA,NA,NA,NA,6,#3386FF,#D89F1C,10,10,1,38,1,688,37,1,587,10,1,experiment,NA,NA,0,0.9,0.1,0,1,103,3,NA
fcp-trial,137,662353,0.0-112.0-0.0,voc_e2,11839,"[{""event"":""focus"",""trial"":0,""time"":0},{""event"":""fullscreenenter"",""trial"":2,""time"":4476}]",NA,NA,NA,NA,NA,6,#FA92F8,#1CD855,10,10,0,38,1,672,39,0,753,10,1,experiment,NA,NA,1,0.3,0.7,3,2,104,3,NA
fcp-trial,138,666252,0.0-113.0-0.0,voc_e2,11839,"[{""event"":""focus"",""trial"":0,""time"":0},{""event"":""fullscreenenter"",""trial"":2,""time"":4476}]",NA,NA,NA,NA,NA,2,#FA92F8,#1CD855,10,10,0,38,1,1804,39,0,577,10,1,experiment,NA,NA,1,0.3,0.7,3,2,105,3,NA
audio-instructions,139,701988,0.0-114.0,voc_e2,11839,"[{""event"":""focus"",""trial"":0,""time"":0},{""event"":""fullscreenenter"",""trial"":2,""time"":4476}]",NA,31284,static/audio/pause.wav,NA,0,NA,NA,NA,NA,NA,NA,NA,NA,NA,NA,NA,NA,NA,NA,NA,NA,NA,NA,NA,NA,NA,NA,NA,NA,NA
fcp-trial,140,708892,0.0-115.0-0.0,voc_e2,11839,"[{""event"":""focus"",""trial"":0,""time"":0},{""event"":""fullscreenenter"",""trial"":2,""time"":4476}]",NA,NA,NA,NA,NA,5,#3386FF,#D89F1C,10,0,1,38,1,4512,37,1,866,10,1,experiment,NA,NA,0,0.9,0.1,0,1,106,3,NA
fcp-trial,141,711952,0.0-116.0-0.0,voc_e2,11839,"[{""event"":""focus"",""trial"":0,""time"":0},{""event"":""fullscreenenter"",""trial"":2,""time"":4476}]",NA,NA,NA,NA,NA,3,#FA92F8,#1CD855,0,10,0,38,1,856,39,0,585,10,1,experiment,NA,NA,1,0.3,0.7,3,2,107,3,NA
fcp-trial,142,715215,0.0-117.0-0.0,voc_e2,11839,"[{""event"":""focus"",""trial"":0,""time"":0},{""event"":""fullscreenenter"",""trial"":2,""time"":4476}]",NA,NA,NA,NA,NA,1,#FA92F8,#1CD855,10,10,0,38,1,721,39,0,1024,10,1,experiment,NA,NA,1,0.3,0.7,3,2,108,3,NA
fcp-trial,143,717865,0.0-118.0-0.0,voc_e2,11839,"[{""event"":""focus"",""trial"":0,""time"":0},{""event"":""fullscreenenter"",""trial"":2,""time"":4476}]",NA,NA,NA,NA,NA,1,#D89F1C,#3386FF,0,10,0,38,1,591,39,0,521,10,1,experiment,NA,NA,0,0.1,0.9,1,0,109,3,NA
fcp-trial,144,720993,0.0-119.0-0.0,voc_e2,11839,"[{""event"":""focus"",""trial"":0,""time"":0},{""event"":""fullscreenenter"",""trial"":2,""time"":4476}]",NA,NA,NA,NA,NA,2,#741CD8,#D8271C,10,0,1,38,1,767,37,1,831,10,1,experiment,NA,NA,2,0.5,0.5,4,5,110,3,NA
fcp-trial,145,724413,0.0-120.0-0.0,voc_e2,11839,"[{""event"":""focus"",""trial"":0,""time"":0},{""event"":""fullscreenenter"",""trial"":2,""time"":4476}]",NA,NA,NA,NA,NA,6,#1CD855,#FA92F8,10,10,1,38,1,946,37,1,966,10,1,experiment,NA,NA,1,0.7,0.3,2,3,111,3,NA
fcp-trial,146,727051,0.0-121.0-0.0,voc_e2,11839,"[{""event"":""focus"",""trial"":0,""time"":0},{""event"":""fullscreenenter"",""trial"":2,""time"":4476}]",NA,NA,NA,NA,NA,6,#741CD8,#D8271C,10,10,1,38,1,586,37,1,513,10,1,experiment,NA,NA,2,0.5,0.5,4,5,112,3,NA
fcp-trial,147,731592,0.0-122.0-0.0,voc_e2,11839,"[{""event"":""focus"",""trial"":0,""time"":0},{""event"":""fullscreenenter"",""trial"":2,""time"":4476}]",NA,NA,NA,NA,NA,1,#D8271C,#741CD8,0,10,0,38,1,1769,39,0,1240,10,1,experiment,NA,NA,2,0.5,0.5,5,4,113,3,NA
fcp-trial,148,734492,0.0-123.0-0.0,voc_e2,11839,"[{""event"":""focus"",""trial"":0,""time"":0},{""event"":""fullscreenenter"",""trial"":2,""time"":4476}]",NA,NA,NA,NA,NA,0,#3386FF,#D89F1C,10,0,1,38,1,485,37,1,899,10,1,experiment,NA,NA,0,0.9,0.1,0,1,114,3,NA
fcp-trial,149,736972,0.0-124.0-0.0,voc_e2,11839,"[{""event"":""focus"",""trial"":0,""time"":0},{""event"":""fullscreenenter"",""trial"":2,""time"":4476}]",NA,NA,NA,NA,NA,4,#FA92F8,#1CD855,10,10,0,38,1,401,39,0,559,10,1,experiment,NA,NA,1,0.3,0.7,3,2,115,3,NA
fcp-trial,150,740562,0.0-125.0-0.0,voc_e2,11839,"[{""event"":""focus"",""trial"":0,""time"":0},{""event"":""fullscreenenter"",""trial"":2,""time"":4476}]",NA,NA,NA,NA,NA,3,#D8271C,#741CD8,0,0,0,38,1,1466,39,0,507,0,1,experiment,NA,NA,2,0.5,0.5,5,4,116,3,NA
fcp-trial,151,743482,0.0-126.0-0.0,voc_e2,11839,"[{""event"":""focus"",""trial"":0,""time"":0},{""event"":""fullscreenenter"",""trial"":2,""time"":4476}]",NA,NA,NA,NA,NA,2,#D89F1C,#3386FF,0,10,0,38,1,607,39,0,777,10,1,experiment,NA,NA,0,0.1,0.9,1,0,117,3,NA
fcp-trial,152,746082,0.0-127.0-0.0,voc_e2,11839,"[{""event"":""focus"",""trial"":0,""time"":0},{""event"":""fullscreenenter"",""trial"":2,""time"":4476}]",NA,NA,NA,NA,NA,2,#FA92F8,#1CD855,10,10,0,38,1,544,39,0,535,10,1,experiment,NA,NA,1,0.3,0.7,3,2,118,3,NA
fcp-trial,153,749603,0.0-128.0-0.0,voc_e2,11839,"[{""event"":""focus"",""trial"":0,""time"":0},{""event"":""fullscreenenter"",""trial"":2,""time"":4476}]",NA,NA,NA,NA,NA,5,#741CD8,#D8271C,10,10,1,38,1,821,37,1,1179,10,1,experiment,NA,NA,2,0.5,0.5,4,5,119,3,NA
fcp-trial,154,752282,0.0-129.0-0.0,voc_e2,11839,"[{""event"":""focus"",""trial"":0,""time"":0},{""event"":""fullscreenenter"",""trial"":2,""time"":4476}]",NA,NA,NA,NA,NA,4,#D89F1C,#3386FF,0,10,0,38,1,540,39,0,625,10,1,experiment,NA,NA,0,0.1,0.9,1,0,120,3,NA
fcp-trial,155,755351,0.0-130.0-0.0,voc_e2,11839,"[{""event"":""focus"",""trial"":0,""time"":0},{""event"":""fullscreenenter"",""trial"":2,""time"":4476}]",NA,NA,NA,NA,NA,4,#D8271C,#741CD8,0,0,0,38,1,1033,39,0,517,0,1,experiment,NA,NA,2,0.5,0.5,5,4,121,3,NA
fcp-trial,156,757952,0.0-131.0-0.0,voc_e2,11839,"[{""event"":""focus"",""trial"":0,""time"":0},{""event"":""fullscreenenter"",""trial"":2,""time"":4476}]",NA,NA,NA,NA,NA,3,#D89F1C,#3386FF,0,10,0,38,1,588,39,0,476,10,1,experiment,NA,NA,0,0.1,0.9,1,0,122,3,NA
fcp-trial,157,760792,0.0-132.0-0.0,voc_e2,11839,"[{""event"":""focus"",""trial"":0,""time"":0},{""event"":""fullscreenenter"",""trial"":2,""time"":4476}]",NA,NA,NA,NA,NA,5,#1CD855,#FA92F8,10,0,1,38,1,702,37,1,540,10,1,experiment,NA,NA,1,0.7,0.3,2,3,123,3,NA
fcp-trial,158,763771,0.0-133.0-0.0,voc_e2,11839,"[{""event"":""focus"",""trial"":0,""time"":0},{""event"":""fullscreenenter"",""trial"":2,""time"":4476}]",NA,NA,NA,NA,NA,0,#FA92F8,#1CD855,0,10,0,38,1,587,39,0,691,10,1,experiment,NA,NA,1,0.3,0.7,3,2,124,3,NA
fcp-trial,159,766621,0.0-134.0-0.0,voc_e2,11839,"[{""event"":""focus"",""trial"":0,""time"":0},{""event"":""fullscreenenter"",""trial"":2,""time"":4476}]",NA,NA,NA,NA,NA,6,#3386FF,#D89F1C,10,0,1,38,1,625,37,1,704,10,1,experiment,NA,NA,0,0.9,0.1,0,1,125,3,NA
fcp-trial,160,769561,0.0-135.0-0.0,voc_e2,11839,"[{""event"":""focus"",""trial"":0,""time"":0},{""event"":""fullscreenenter"",""trial"":2,""time"":4476}]",NA,NA,NA,NA,NA,0,#741CD8,#D8271C,10,10,1,38,1,593,37,1,817,10,1,experiment,NA,NA,2,0.5,0.5,4,5,126,3,NA
fcp-trial,161,772264,0.0-136.0-0.0,voc_e2,11839,"[{""event"":""focus"",""trial"":0,""time"":0},{""event"":""fullscreenenter"",""trial"":2,""time"":4476}]",NA,NA,NA,NA,NA,3,#D89F1C,#3386FF,0,10,0,38,1,615,39,0,558,10,1,experiment,NA,NA,0,0.1,0.9,1,0,127,3,NA
fcp-trial,162,775092,0.0-137.0-0.0,voc_e2,11839,"[{""event"":""focus"",""trial"":0,""time"":0},{""event"":""fullscreenenter"",""trial"":2,""time"":4476}]",NA,NA,NA,NA,NA,4,#D89F1C,#3386FF,0,10,0,38,1,669,39,0,634,10,1,experiment,NA,NA,0,0.1,0.9,1,0,128,3,NA
fcp-trial,163,777894,0.0-138.0-0.0,voc_e2,11839,"[{""event"":""focus"",""trial"":0,""time"":0},{""event"":""fullscreenenter"",""trial"":2,""time"":4476}]",NA,NA,NA,NA,NA,6,#FA92F8,#1CD855,0,0,0,38,1,642,39,0,638,0,1,experiment,NA,NA,1,0.3,0.7,3,2,129,3,NA
fcp-trial,164,780452,0.0-139.0-0.0,voc_e2,11839,"[{""event"":""focus"",""trial"":0,""time"":0},{""event"":""fullscreenenter"",""trial"":2,""time"":4476}]",NA,NA,NA,NA,NA,5,#D89F1C,#3386FF,10,10,0,38,1,522,39,0,517,10,1,experiment,NA,NA,0,0.1,0.9,1,0,130,3,NA
fcp-trial,165,783152,0.0-140.0-0.0,voc_e2,11839,"[{""event"":""focus"",""trial"":0,""time"":0},{""event"":""fullscreenenter"",""trial"":2,""time"":4476}]",NA,NA,NA,NA,NA,6,#D8271C,#741CD8,10,0,0,38,1,574,39,0,588,0,1,experiment,NA,NA,2,0.5,0.5,5,4,131,3,NA
fcp-trial,166,785862,0.0-141.0-0.0,voc_e2,11839,"[{""event"":""focus"",""trial"":0,""time"":0},{""event"":""fullscreenenter"",""trial"":2,""time"":4476}]",NA,NA,NA,NA,NA,3,#FA92F8,#1CD855,0,10,0,38,1,665,39,0,519,10,1,experiment,NA,NA,1,0.3,0.7,3,2,132,3,NA
fcp-trial,167,789022,0.0-142.0-0.0,voc_e2,11839,"[{""event"":""focus"",""trial"":0,""time"":0},{""event"":""fullscreenenter"",""trial"":2,""time"":4476}]",NA,NA,NA,NA,NA,4,#741CD8,#D8271C,0,0,1,38,1,727,37,1,907,0,1,experiment,NA,NA,2,0.5,0.5,4,5,133,3,NA
fcp-trial,168,792222,0.0-143.0-0.0,voc_e2,11839,"[{""event"":""focus"",""trial"":0,""time"":0},{""event"":""fullscreenenter"",""trial"":2,""time"":4476}]",NA,NA,NA,NA,NA,0,#FA92F8,#1CD855,0,10,0,38,1,1125,39,0,569,10,1,experiment,NA,NA,1,0.3,0.7,3,2,134,3,NA
fcp-trial,169,795272,0.0-144.0-0.0,voc_e2,11839,"[{""event"":""focus"",""trial"":0,""time"":0},{""event"":""fullscreenenter"",""trial"":2,""time"":4476}]",NA,NA,NA,NA,NA,0,#3386FF,#D89F1C,10,0,1,38,1,749,37,1,652,10,1,experiment,NA,NA,0,0.9,0.1,0,1,135,3,NA
fcp-trial,170,798033,0.0-145.0-0.0,voc_e2,11839,"[{""event"":""focus"",""trial"":0,""time"":0},{""event"":""fullscreenenter"",""trial"":2,""time"":4476}]",NA,NA,NA,NA,NA,5,#741CD8,#D8271C,10,10,1,38,1,613,37,1,621,10,1,experiment,NA,NA,2,0.5,0.5,4,5,136,4,NA
fcp-trial,171,800692,0.0-146.0-0.0,voc_e2,11839,"[{""event"":""focus"",""trial"":0,""time"":0},{""event"":""fullscreenenter"",""trial"":2,""time"":4476}]",NA,NA,NA,NA,NA,5,#FA92F8,#1CD855,0,0,0,38,1,535,39,0,601,0,1,experiment,NA,NA,1,0.3,0.7,3,2,137,4,NA
fcp-trial,172,803521,0.0-147.0-0.0,voc_e2,11839,"[{""event"":""focus"",""trial"":0,""time"":0},{""event"":""fullscreenenter"",""trial"":2,""time"":4476}]",NA,NA,NA,NA,NA,2,#D8271C,#741CD8,10,0,0,38,1,791,39,0,513,0,1,experiment,NA,NA,2,0.5,0.5,5,4,138,4,NA
fcp-trial,173,805922,0.0-148.0-0.0,voc_e2,11839,"[{""event"":""focus"",""trial"":0,""time"":0},{""event"":""fullscreenenter"",""trial"":2,""time"":4476}]",NA,NA,NA,NA,NA,4,#FA92F8,#1CD855,0,0,0,38,1,376,39,0,495,0,1,experiment,NA,NA,1,0.3,0.7,3,2,139,4,NA
fcp-trial,174,808372,0.0-149.0-0.0,voc_e2,11839,"[{""event"":""focus"",""trial"":0,""time"":0},{""event"":""fullscreenenter"",""trial"":2,""time"":4476}]",NA,NA,NA,NA,NA,1,#D89F1C,#3386FF,0,0,0,38,1,472,39,0,455,0,1,experiment,NA,NA,0,0.1,0.9,1,0,140,4,NA
fcp-trial,175,811061,0.0-150.0-0.0,voc_e2,11839,"[{""event"":""focus"",""trial"":0,""time"":0},{""event"":""fullscreenenter"",""trial"":2,""time"":4476}]",NA,NA,NA,NA,NA,1,#741CD8,#D8271C,10,0,1,38,1,442,37,1,732,10,1,experiment,NA,NA,2,0.5,0.5,4,5,141,4,NA
fcp-trial,176,813662,0.0-151.0-0.0,voc_e2,11839,"[{""event"":""focus"",""trial"":0,""time"":0},{""event"":""fullscreenenter"",""trial"":2,""time"":4476}]",NA,NA,NA,NA,NA,6,#D89F1C,#3386FF,0,10,0,38,1,506,39,0,559,10,1,experiment,NA,NA,0,0.1,0.9,1,0,142,4,NA
fcp-trial,177,817083,0.0-152.0-0.0,voc_e2,11839,"[{""event"":""focus"",""trial"":0,""time"":0},{""event"":""fullscreenenter"",""trial"":2,""time"":4476}]",NA,NA,NA,NA,NA,2,#1CD855,#FA92F8,0,10,1,38,1,821,37,1,1083,0,1,experiment,NA,NA,1,0.7,0.3,2,3,143,4,NA
fcp-trial,178,819942,0.0-153.0-0.0,voc_e2,11839,"[{""event"":""focus"",""trial"":0,""time"":0},{""event"":""fullscreenenter"",""trial"":2,""time"":4476}]",NA,NA,NA,NA,NA,1,#FA92F8,#1CD855,0,0,0,38,1,777,39,0,568,0,1,experiment,NA,NA,1,0.3,0.7,3,2,144,4,NA
fcp-trial,179,823112,0.0-154.0-0.0,voc_e2,11839,"[{""event"":""focus"",""trial"":0,""time"":0},{""event"":""fullscreenenter"",""trial"":2,""time"":4476}]",NA,NA,NA,NA,NA,2,#D89F1C,#3386FF,0,10,0,38,1,1027,39,0,630,10,1,experiment,NA,NA,0,0.1,0.9,1,0,145,4,NA
fcp-trial,180,825993,0.0-155.0-0.0,voc_e2,11839,"[{""event"":""focus"",""trial"":0,""time"":0},{""event"":""fullscreenenter"",""trial"":2,""time"":4476}]",NA,NA,NA,NA,NA,3,#D8271C,#741CD8,10,0,0,38,1,730,39,0,527,0,1,experiment,NA,NA,2,0.5,0.5,5,4,146,4,NA
fcp-trial,181,828552,0.0-156.0-0.0,voc_e2,11839,"[{""event"":""focus"",""trial"":0,""time"":0},{""event"":""fullscreenenter"",""trial"":2,""time"":4476}]",NA,NA,NA,NA,NA,0,#D8271C,#741CD8,10,0,0,38,1,542,39,0,494,0,1,experiment,NA,NA,2,0.5,0.5,5,4,147,4,NA
fcp-trial,182,831691,0.0-157.0-0.0,voc_e2,11839,"[{""event"":""focus"",""trial"":0,""time"":0},{""event"":""fullscreenenter"",""trial"":2,""time"":4476}]",NA,NA,NA,NA,NA,1,#D89F1C,#3386FF,0,10,0,38,1,1136,39,0,473,10,1,experiment,NA,NA,0,0.1,0.9,1,0,148,4,NA
fcp-trial,183,834611,0.0-158.0-0.0,voc_e2,11839,"[{""event"":""focus"",""trial"":0,""time"":0},{""event"":""fullscreenenter"",""trial"":2,""time"":4476}]",NA,NA,NA,NA,NA,2,#D8271C,#741CD8,0,10,0,38,1,774,39,0,617,10,1,experiment,NA,NA,2,0.5,0.5,5,4,149,4,NA
fcp-trial,184,837252,0.0-159.0-0.0,voc_e2,11839,"[{""event"":""focus"",""trial"":0,""time"":0},{""event"":""fullscreenenter"",""trial"":2,""time"":4476}]",NA,NA,NA,NA,NA,2,#D89F1C,#3386FF,0,0,0,38,1,493,39,0,612,0,1,experiment,NA,NA,0,0.1,0.9,1,0,150,4,NA
fcp-trial,185,840582,0.0-160.0-0.0,voc_e2,11839,"[{""event"":""focus"",""trial"":0,""time"":0},{""event"":""fullscreenenter"",""trial"":2,""time"":4476}]",NA,NA,NA,NA,NA,5,#741CD8,#D8271C,0,0,1,38,1,366,39,0,1452,0,0,experiment,NA,NA,2,0.5,0.5,4,5,151,4,NA
fcp-trial,186,843161,0.0-161.0-0.0,voc_e2,11839,"[{""event"":""focus"",""trial"":0,""time"":0},{""event"":""fullscreenenter"",""trial"":2,""time"":4476}]",NA,NA,NA,NA,NA,4,#FA92F8,#1CD855,0,0,0,38,1,494,39,0,564,0,1,experiment,NA,NA,1,0.3,0.7,3,2,152,4,NA
fcp-trial,187,845841,0.0-162.0-0.0,voc_e2,11839,"[{""event"":""focus"",""trial"":0,""time"":0},{""event"":""fullscreenenter"",""trial"":2,""time"":4476}]",NA,NA,NA,NA,NA,6,#3386FF,#D89F1C,10,10,1,38,1,697,37,1,453,10,1,experiment,NA,NA,0,0.9,0.1,0,1,153,4,NA
fcp-trial,188,848552,0.0-163.0-0.0,voc_e2,11839,"[{""event"":""focus"",""trial"":0,""time"":0},{""event"":""fullscreenenter"",""trial"":2,""time"":4476}]",NA,NA,NA,NA,NA,0,#741CD8,#D8271C,10,0,1,38,1,612,37,1,573,10,1,experiment,NA,NA,2,0.5,0.5,4,5,154,4,NA
fcp-trial,189,851352,0.0-164.0-0.0,voc_e2,11839,"[{""event"":""focus"",""trial"":0,""time"":0},{""event"":""fullscreenenter"",""trial"":2,""time"":4476}]",NA,NA,NA,NA,NA,0,#3386FF,#D89F1C,10,0,1,38,1,655,37,1,628,10,1,experiment,NA,NA,0,0.9,0.1,0,1,155,4,NA
fcp-trial,190,853872,0.0-165.0-0.0,voc_e2,11839,"[{""event"":""focus"",""trial"":0,""time"":0},{""event"":""fullscreenenter"",""trial"":2,""time"":4476}]",NA,NA,NA,NA,NA,3,#FA92F8,#1CD855,0,10,0,38,1,557,39,0,442,10,1,experiment,NA,NA,1,0.3,0.7,3,2,156,4,NA
fcp-trial,191,856893,0.0-166.0-0.0,voc_e2,11839,"[{""event"":""focus"",""trial"":0,""time"":0},{""event"":""fullscreenenter"",""trial"":2,""time"":4476}]",NA,NA,NA,NA,NA,4,#D8271C,#741CD8,0,0,0,38,1,475,39,0,1021,0,1,experiment,NA,NA,2,0.5,0.5,5,4,157,4,NA
fcp-trial,192,859551,0.0-167.0-0.0,voc_e2,11839,"[{""event"":""focus"",""trial"":0,""time"":0},{""event"":""fullscreenenter"",""trial"":2,""time"":4476}]",NA,NA,NA,NA,NA,6,#D8271C,#741CD8,10,0,0,38,1,538,39,0,599,0,1,experiment,NA,NA,2,0.5,0.5,5,4,158,4,NA
fcp-trial,193,862092,0.0-168.0-0.0,voc_e2,11839,"[{""event"":""focus"",""trial"":0,""time"":0},{""event"":""fullscreenenter"",""trial"":2,""time"":4476}]",NA,NA,NA,NA,NA,1,#FA92F8,#1CD855,10,0,0,38,1,490,39,0,510,0,1,experiment,NA,NA,1,0.3,0.7,3,2,159,4,NA
fcp-trial,194,864652,0.0-169.0-0.0,voc_e2,11839,"[{""event"":""focus"",""trial"":0,""time"":0},{""event"":""fullscreenenter"",""trial"":2,""time"":4476}]",NA,NA,NA,NA,NA,3,#D89F1C,#3386FF,0,10,0,38,1,506,39,0,534,10,1,experiment,NA,NA,0,0.1,0.9,1,0,160,4,NA
fcp-trial,195,867233,0.0-170.0-0.0,voc_e2,11839,"[{""event"":""focus"",""trial"":0,""time"":0},{""event"":""fullscreenenter"",""trial"":2,""time"":4476}]",NA,NA,NA,NA,NA,0,#FA92F8,#1CD855,0,10,0,38,1,558,39,0,507,10,1,experiment,NA,NA,1,0.3,0.7,3,2,161,4,NA
fcp-trial,196,869962,0.0-171.0-0.0,voc_e2,11839,"[{""event"":""focus"",""trial"":0,""time"":0},{""event"":""fullscreenenter"",""trial"":2,""time"":4476}]",NA,NA,NA,NA,NA,3,#D8271C,#741CD8,0,0,0,38,1,619,39,0,591,0,1,experiment,NA,NA,2,0.5,0.5,5,4,162,4,NA
fcp-trial,197,872622,0.0-172.0-0.0,voc_e2,11839,"[{""event"":""focus"",""trial"":0,""time"":0},{""event"":""fullscreenenter"",""trial"":2,""time"":4476}]",NA,NA,NA,NA,NA,4,#3386FF,#D89F1C,10,0,1,38,1,574,37,1,559,10,1,experiment,NA,NA,0,0.9,0.1,0,1,163,4,NA
fcp-trial,198,875302,0.0-173.0-0.0,voc_e2,11839,"[{""event"":""focus"",""trial"":0,""time"":0},{""event"":""fullscreenenter"",""trial"":2,""time"":4476}]",NA,NA,NA,NA,NA,2,#1CD855,#FA92F8,10,0,1,38,1,446,37,1,668,10,1,experiment,NA,NA,1,0.7,0.3,2,3,164,4,NA
fcp-trial,199,877822,0.0-174.0-0.0,voc_e2,11839,"[{""event"":""focus"",""trial"":0,""time"":0},{""event"":""fullscreenenter"",""trial"":2,""time"":4476}]",NA,NA,NA,NA,NA,5,#3386FF,#D89F1C,10,0,1,38,1,404,37,1,601,10,1,experiment,NA,NA,0,0.9,0.1,0,1,165,4,NA
fcp-trial,200,880452,0.0-175.0-0.0,voc_e2,11839,"[{""event"":""focus"",""trial"":0,""time"":0},{""event"":""fullscreenenter"",""trial"":2,""time"":4476}]",NA,NA,NA,NA,NA,6,#FA92F8,#1CD855,10,10,0,38,1,569,39,0,538,10,1,experiment,NA,NA,1,0.3,0.7,3,2,166,4,NA
fcp-trial,201,882862,0.0-176.0-0.0,voc_e2,11839,"[{""event"":""focus"",""trial"":0,""time"":0},{""event"":""fullscreenenter"",""trial"":2,""time"":4476}]",NA,NA,NA,NA,NA,1,#741CD8,#D8271C,10,10,1,38,1,492,37,1,405,10,1,experiment,NA,NA,2,0.5,0.5,4,5,167,4,NA
fcp-trial,202,885472,0.0-177.0-0.0,voc_e2,11839,"[{""event"":""focus"",""trial"":0,""time"":0},{""event"":""fullscreenenter"",""trial"":2,""time"":4476}]",NA,NA,NA,NA,NA,5,#FA92F8,#1CD855,0,10,0,38,1,549,39,0,490,10,1,experiment,NA,NA,1,0.3,0.7,3,2,168,4,NA
fcp-trial,203,888062,0.0-178.0-0.0,voc_e2,11839,"[{""event"":""focus"",""trial"":0,""time"":0},{""event"":""fullscreenenter"",""trial"":2,""time"":4476}]",NA,NA,NA,NA,NA,1,#FA92F8,#1CD855,0,0,0,38,1,508,39,0,549,0,1,experiment,NA,NA,1,0.3,0.7,3,2,169,4,NA
fcp-trial,204,890482,0.0-179.0-0.0,voc_e2,11839,"[{""event"":""focus"",""trial"":0,""time"":0},{""event"":""fullscreenenter"",""trial"":2,""time"":4476}]",NA,NA,NA,NA,NA,6,#1CD855,#FA92F8,10,0,1,38,1,341,37,1,459,10,1,experiment,NA,NA,1,0.7,0.3,2,3,170,4,NA
fcp-trial,205,892902,0.0-180.0-0.0,voc_e2,11839,"[{""event"":""focus"",""trial"":0,""time"":0},{""event"":""fullscreenenter"",""trial"":2,""time"":4476}]",NA,NA,NA,NA,NA,0,#D8271C,#741CD8,0,0,0,38,1,436,39,0,450,0,1,experiment,NA,NA,2,0.5,0.5,5,4,171,4,NA
fcp-trial,206,895722,0.0-181.0-0.0,voc_e2,11839,"[{""event"":""focus"",""trial"":0,""time"":0},{""event"":""fullscreenenter"",""trial"":2,""time"":4476}]",NA,NA,NA,NA,NA,4,#D89F1C,#3386FF,0,10,0,38,1,702,39,0,599,10,1,experiment,NA,NA,0,0.1,0.9,1,0,172,4,NA
fcp-trial,207,899317,0.0-182.0-0.0,voc_e2,11839,"[{""event"":""focus"",""trial"":0,""time"":0},{""event"":""fullscreenenter"",""trial"":2,""time"":4476}]",NA,NA,NA,NA,NA,2,#D8271C,#741CD8,10,0,0,38,1,1670,39,0,390,0,1,experiment,NA,NA,2,0.5,0.5,5,4,173,4,NA
fcp-trial,208,901842,0.0-183.0-0.0,voc_e2,11839,"[{""event"":""focus"",""trial"":0,""time"":0},{""event"":""fullscreenenter"",""trial"":2,""time"":4476}]",NA,NA,NA,NA,NA,6,#D8271C,#741CD8,0,10,0,38,1,406,39,0,418,10,1,experiment,NA,NA,2,0.5,0.5,5,4,174,4,NA
fcp-trial,209,904432,0.0-184.0-0.0,voc_e2,11839,"[{""event"":""focus"",""trial"":0,""time"":0},{""event"":""fullscreenenter"",""trial"":2,""time"":4476}]",NA,NA,NA,NA,NA,0,#1CD855,#FA92F8,0,0,1,38,1,499,37,1,573,0,1,experiment,NA,NA,1,0.7,0.3,2,3,175,4,NA
fcp-trial,210,907132,0.0-185.0-0.0,voc_e2,11839,"[{""event"":""focus"",""trial"":0,""time"":0},{""event"":""fullscreenenter"",""trial"":2,""time"":4476}]",NA,NA,NA,NA,NA,1,#D89F1C,#3386FF,0,10,0,38,1,318,39,0,857,10,1,experiment,NA,NA,0,0.1,0.9,1,0,176,4,NA
fcp-trial,211,909702,0.0-186.0-0.0,voc_e2,11839,"[{""event"":""focus"",""trial"":0,""time"":0},{""event"":""fullscreenenter"",""trial"":2,""time"":4476}]",NA,NA,NA,NA,NA,5,#FA92F8,#1CD855,10,10,0,38,1,636,39,0,417,10,1,experiment,NA,NA,1,0.3,0.7,3,2,177,4,NA
fcp-trial,212,912342,0.0-187.0-0.0,voc_e2,11839,"[{""event"":""focus"",""trial"":0,""time"":0},{""event"":""fullscreenenter"",""trial"":2,""time"":4476}]",NA,NA,NA,NA,NA,6,#D89F1C,#3386FF,0,10,0,38,1,562,39,0,570,10,1,experiment,NA,NA,0,0.1,0.9,1,0,178,4,NA
fcp-trial,213,916932,0.0-188.0-0.0,voc_e2,11839,"[{""event"":""focus"",""trial"":0,""time"":0},{""event"":""fullscreenenter"",""trial"":2,""time"":4476}]",NA,NA,NA,NA,NA,4,#D8271C,#741CD8,10,0,0,38,1,774,39,0,2286,0,1,experiment,NA,NA,2,0.5,0.5,5,4,179,4,NA
fcp-trial,214,922012,0.0-189.0-0.0,voc_e2,11839,"[{""event"":""focus"",""trial"":0,""time"":0},{""event"":""fullscreenenter"",""trial"":2,""time"":4476}]",NA,NA,NA,NA,NA,4,#1CD855,#FA92F8,10,0,1,38,1,2383,37,1,1081,10,1,experiment,NA,NA,1,0.7,0.3,2,3,180,4,NA
fcp-trial,215,924442,0.0-190.0-0.0,voc_e2,11839,"[{""event"":""focus"",""trial"":0,""time"":0},{""event"":""fullscreenenter"",""trial"":2,""time"":4476}]",NA,NA,NA,NA,NA,5,#D89F1C,#3386FF,0,10,0,38,1,482,39,0,425,10,1,experiment,NA,NA,0,0.1,0.9,1,0,181,5,NA
fcp-trial,216,926982,0.0-191.0-0.0,voc_e2,11839,"[{""event"":""focus"",""trial"":0,""time"":0},{""event"":""fullscreenenter"",""trial"":2,""time"":4476}]",NA,NA,NA,NA,NA,0,#D89F1C,#3386FF,0,10,0,38,1,451,39,0,562,10,1,experiment,NA,NA,0,0.1,0.9,1,0,182,5,NA
fcp-trial,217,929481,0.0-192.0-0.0,voc_e2,11839,"[{""event"":""focus"",""trial"":0,""time"":0},{""event"":""fullscreenenter"",""trial"":2,""time"":4476}]",NA,NA,NA,NA,NA,3,#1CD855,#FA92F8,10,0,1,38,1,378,37,1,594,10,1,experiment,NA,NA,1,0.7,0.3,2,3,183,5,NA
fcp-trial,218,932302,0.0-193.0-0.0,voc_e2,11839,"[{""event"":""focus"",""trial"":0,""time"":0},{""event"":""fullscreenenter"",""trial"":2,""time"":4476}]",NA,NA,NA,NA,NA,3,#741CD8,#D8271C,10,0,1,38,1,427,37,1,875,10,1,experiment,NA,NA,2,0.5,0.5,4,5,184,5,NA
fcp-trial,219,934682,0.0-194.0-0.0,voc_e2,11839,"[{""event"":""focus"",""trial"":0,""time"":0},{""event"":""fullscreenenter"",""trial"":2,""time"":4476}]",NA,NA,NA,NA,NA,3,#D89F1C,#3386FF,0,10,0,38,1,388,39,0,468,10,1,experiment,NA,NA,0,0.1,0.9,1,0,185,5,NA
fcp-trial,220,937092,0.0-195.0-0.0,voc_e2,11839,"[{""event"":""focus"",""trial"":0,""time"":0},{""event"":""fullscreenenter"",""trial"":2,""time"":4476}]",NA,NA,NA,NA,NA,2,#FA92F8,#1CD855,0,10,0,38,1,536,39,0,364,10,1,experiment,NA,NA,1,0.3,0.7,3,2,186,5,NA
fcp-trial,221,940072,0.0-196.0-0.0,voc_e2,11839,"[{""event"":""focus"",""trial"":0,""time"":0},{""event"":""fullscreenenter"",""trial"":2,""time"":4476}]",NA,NA,NA,NA,NA,1,#D8271C,#741CD8,0,10,0,38,1,808,39,0,657,10,1,experiment,NA,NA,2,0.5,0.5,5,4,187,5,NA
fcp-trial,222,947502,0.0-197.0-0.0,voc_e2,11839,"[{""event"":""focus"",""trial"":0,""time"":0},{""event"":""fullscreenenter"",""trial"":2,""time"":4476}]",NA,NA,NA,NA,NA,2,#D89F1C,#3386FF,0,10,0,38,1,510,39,0,5394,10,1,experiment,NA,NA,0,0.1,0.9,1,0,188,5,NA
fcp-trial,223,950161,0.0-198.0-0.0,voc_e2,11839,"[{""event"":""focus"",""trial"":0,""time"":0},{""event"":""fullscreenenter"",""trial"":2,""time"":4476}]",NA,NA,NA,NA,NA,5,#741CD8,#D8271C,10,0,1,38,1,551,37,1,577,10,1,experiment,NA,NA,2,0.5,0.5,4,5,189,5,NA
fcp-trial,224,952692,0.0-199.0-0.0,voc_e2,11839,"[{""event"":""focus"",""trial"":0,""time"":0},{""event"":""fullscreenenter"",""trial"":2,""time"":4476}]",NA,NA,NA,NA,NA,4,#1CD855,#FA92F8,10,0,1,38,1,588,37,1,420,10,1,experiment,NA,NA,1,0.7,0.3,2,3,190,5,NA
fcp-trial,225,955012,0.0-200.0-0.0,voc_e2,11839,"[{""event"":""focus"",""trial"":0,""time"":0},{""event"":""fullscreenenter"",""trial"":2,""time"":4476}]",NA,NA,NA,NA,NA,3,#1CD855,#FA92F8,10,0,1,38,1,363,37,1,440,10,1,experiment,NA,NA,1,0.7,0.3,2,3,191,5,NA
fcp-trial,226,957592,0.0-201.0-0.0,voc_e2,11839,"[{""event"":""focus"",""trial"":0,""time"":0},{""event"":""fullscreenenter"",""trial"":2,""time"":4476}]",NA,NA,NA,NA,NA,6,#D8271C,#741CD8,10,10,0,38,1,641,39,0,428,10,1,experiment,NA,NA,2,0.5,0.5,5,4,192,5,NA
fcp-trial,227,960292,0.0-202.0-0.0,voc_e2,11839,"[{""event"":""focus"",""trial"":0,""time"":0},{""event"":""fullscreenenter"",""trial"":2,""time"":4476}]",NA,NA,NA,NA,NA,3,#3386FF,#D89F1C,10,10,1,38,1,716,37,1,466,10,1,experiment,NA,NA,0,0.9,0.1,0,1,193,5,NA
fcp-trial,228,963051,0.0-203.0-0.0,voc_e2,11839,"[{""event"":""focus"",""trial"":0,""time"":0},{""event"":""fullscreenenter"",""trial"":2,""time"":4476}]",NA,NA,NA,NA,NA,6,#3386FF,#D89F1C,10,0,1,38,1,758,37,1,364,10,1,experiment,NA,NA,0,0.9,0.1,0,1,194,5,NA
fcp-trial,229,965648,0.0-204.0-0.0,voc_e2,11839,"[{""event"":""focus"",""trial"":0,""time"":0},{""event"":""fullscreenenter"",""trial"":2,""time"":4476}]",NA,NA,NA,NA,NA,6,#1CD855,#FA92F8,10,0,1,38,1,716,37,1,357,10,1,experiment,NA,NA,1,0.7,0.3,2,3,195,5,NA
fcp-trial,230,968522,0.0-205.0-0.0,voc_e2,11839,"[{""event"":""focus"",""trial"":0,""time"":0},{""event"":""fullscreenenter"",""trial"":2,""time"":4476}]",NA,NA,NA,NA,NA,0,#1CD855,#FA92F8,10,0,1,38,1,808,37,1,540,10,1,experiment,NA,NA,1,0.7,0.3,2,3,196,5,NA
fcp-trial,231,972291,0.0-206.0-0.0,voc_e2,11839,"[{""event"":""focus"",""trial"":0,""time"":0},{""event"":""fullscreenenter"",""trial"":2,""time"":4476}]",NA,NA,NA,NA,NA,3,#D8271C,#741CD8,0,0,0,38,1,1917,39,0,332,0,1,experiment,NA,NA,2,0.5,0.5,5,4,197,5,NA
fcp-trial,232,975192,0.0-207.0-0.0,voc_e2,11839,"[{""event"":""focus"",""trial"":0,""time"":0},{""event"":""fullscreenenter"",""trial"":2,""time"":4476}]",NA,NA,NA,NA,NA,4,#741CD8,#D8271C,10,10,1,38,1,555,37,1,696,10,1,experiment,NA,NA,2,0.5,0.5,4,5,198,5,NA
fcp-trial,233,978222,0.0-208.0-0.0,voc_e2,11839,"[{""event"":""focus"",""trial"":0,""time"":0},{""event"":""fullscreenenter"",""trial"":2,""time"":4476}]",NA,NA,NA,NA,NA,0,#3386FF,#D89F1C,10,0,1,38,1,556,37,1,963,10,1,experiment,NA,NA,0,0.9,0.1,0,1,199,5,NA
fcp-trial,234,980860,0.0-209.0-0.0,voc_e2,11839,"[{""event"":""focus"",""trial"":0,""time"":0},{""event"":""fullscreenenter"",""trial"":2,""time"":4476}]",NA,NA,NA,NA,NA,1,#1CD855,#FA92F8,0,0,1,38,1,457,37,1,657,0,1,experiment,NA,NA,1,0.7,0.3,2,3,200,5,NA
fcp-trial,235,983261,0.0-210.0-0.0,voc_e2,11839,"[{""event"":""focus"",""trial"":0,""time"":0},{""event"":""fullscreenenter"",""trial"":2,""time"":4476}]",NA,NA,NA,NA,NA,2,#D89F1C,#3386FF,0,10,0,38,1,327,39,0,472,10,1,experiment,NA,NA,0,0.1,0.9,1,0,201,5,NA
fcp-trial,236,987901,0.0-211.0-0.0,voc_e2,11839,"[{""event"":""focus"",""trial"":0,""time"":0},{""event"":""fullscreenenter"",""trial"":2,""time"":4476}]",NA,NA,NA,NA,NA,0,#D8271C,#741CD8,0,0,0,38,1,1936,39,0,1185,0,1,experiment,NA,NA,2,0.5,0.5,5,4,202,5,NA
fcp-trial,237,990262,0.0-212.0-0.0,voc_e2,11839,"[{""event"":""focus"",""trial"":0,""time"":0},{""event"":""fullscreenenter"",""trial"":2,""time"":4476}]",NA,NA,NA,NA,NA,5,#FA92F8,#1CD855,0,0,0,38,1,412,39,0,416,0,1,experiment,NA,NA,1,0.3,0.7,3,2,203,5,NA
fcp-trial,238,993361,0.0-213.0-0.0,voc_e2,11839,"[{""event"":""focus"",""trial"":0,""time"":0},{""event"":""fullscreenenter"",""trial"":2,""time"":4476}]",NA,NA,NA,NA,NA,1,#D89F1C,#3386FF,0,10,0,38,1,415,39,0,985,10,1,experiment,NA,NA,0,0.1,0.9,1,0,204,5,NA
fcp-trial,239,998682,0.0-214.0-0.0,voc_e2,11839,"[{""event"":""focus"",""trial"":0,""time"":0},{""event"":""fullscreenenter"",""trial"":2,""time"":4476}]",NA,NA,NA,NA,NA,1,#741CD8,#D8271C,10,10,1,38,1,2187,37,1,1601,10,1,experiment,NA,NA,2,0.5,0.5,4,5,205,5,NA
fcp-trial,240,1001442,0.0-215.0-0.0,voc_e2,11839,"[{""event"":""focus"",""trial"":0,""time"":0},{""event"":""fullscreenenter"",""trial"":2,""time"":4476}]",NA,NA,NA,NA,NA,2,#741CD8,#D8271C,0,0,1,38,1,650,37,1,539,0,1,experiment,NA,NA,2,0.5,0.5,4,5,206,5,NA
fcp-trial,241,1004041,0.0-216.0-0.0,voc_e2,11839,"[{""event"":""focus"",""trial"":0,""time"":0},{""event"":""fullscreenenter"",""trial"":2,""time"":4476}]",NA,NA,NA,NA,NA,2,#1CD855,#FA92F8,10,0,1,38,1,578,37,1,496,10,1,experiment,NA,NA,1,0.7,0.3,2,3,207,5,NA
fcp-trial,242,1007161,0.0-217.0-0.0,voc_e2,11839,"[{""event"":""focus"",""trial"":0,""time"":0},{""event"":""fullscreenenter"",""trial"":2,""time"":4476}]",NA,NA,NA,NA,NA,5,#741CD8,#D8271C,0,10,1,38,1,525,37,1,1077,0,1,experiment,NA,NA,2,0.5,0.5,4,5,208,5,NA
fcp-trial,243,1012661,0.0-218.0-0.0,voc_e2,11839,"[{""event"":""focus"",""trial"":0,""time"":0},{""event"":""fullscreenenter"",""trial"":2,""time"":4476}]",NA,NA,NA,NA,NA,5,#D89F1C,#3386FF,0,10,0,38,1,3415,39,0,559,10,1,experiment,NA,NA,0,0.1,0.9,1,0,209,5,NA
fcp-trial,244,1015362,0.0-219.0-0.0,voc_e2,11839,"[{""event"":""focus"",""trial"":0,""time"":0},{""event"":""fullscreenenter"",""trial"":2,""time"":4476}]",NA,NA,NA,NA,NA,4,#3386FF,#D89F1C,10,10,1,38,1,660,37,1,523,10,1,experiment,NA,NA,0,0.9,0.1,0,1,210,5,NA
audio-instructions,245,1341308,0.0-220.0,voc_e2,11839,"[{""event"":""focus"",""trial"":0,""time"":0},{""event"":""fullscreenenter"",""trial"":2,""time"":4476}]",NA,321494,static/audio/pause.wav,NA,0,NA,NA,NA,NA,NA,NA,NA,NA,NA,NA,NA,NA,NA,NA,NA,NA,NA,NA,NA,NA,NA,NA,NA,NA,NA
fcp-trial,246,1346752,0.0-221.0-0.0,voc_e2,11839,"[{""event"":""focus"",""trial"":0,""time"":0},{""event"":""fullscreenenter"",""trial"":2,""time"":4476}]",NA,NA,NA,NA,NA,6,#FA92F8,#1CD855,10,0,0,38,1,2567,39,0,1346,0,1,experiment,NA,NA,1,0.3,0.7,3,2,211,5,NA
fcp-trial,247,1349512,0.0-222.0-0.0,voc_e2,11839,"[{""event"":""focus"",""trial"":0,""time"":0},{""event"":""fullscreenenter"",""trial"":2,""time"":4476}]",NA,NA,NA,NA,NA,3,#3386FF,#D89F1C,10,0,1,38,1,650,37,1,571,10,1,experiment,NA,NA,0,0.9,0.1,0,1,212,5,NA
fcp-trial,248,1352122,0.0-223.0-0.0,voc_e2,11839,"[{""event"":""focus"",""trial"":0,""time"":0},{""event"":""fullscreenenter"",""trial"":2,""time"":4476}]",NA,NA,NA,NA,NA,4,#D89F1C,#3386FF,0,0,0,38,1,587,39,0,490,0,1,experiment,NA,NA,0,0.1,0.9,1,0,213,5,NA
fcp-trial,249,1354902,0.0-224.0-0.0,voc_e2,11839,"[{""event"":""focus"",""trial"":0,""time"":0},{""event"":""fullscreenenter"",""trial"":2,""time"":4476}]",NA,NA,NA,NA,NA,1,#1CD855,#FA92F8,0,0,1,38,1,512,39,0,736,0,0,experiment,NA,NA,1,0.7,0.3,2,3,214,5,NA
fcp-trial,250,1358562,0.0-225.0-0.0,voc_e2,11839,"[{""event"":""focus"",""trial"":0,""time"":0},{""event"":""fullscreenenter"",""trial"":2,""time"":4476}]",NA,NA,NA,NA,NA,4,#1CD855,#FA92F8,10,10,1,38,1,630,39,0,1508,10,0,experiment,NA,NA,1,0.7,0.3,2,3,215,5,NA
fcp-trial,251,1361181,0.0-226.0-0.0,voc_e2,11839,"[{""event"":""focus"",""trial"":0,""time"":0},{""event"":""fullscreenenter"",""trial"":2,""time"":4476}]",NA,NA,NA,NA,NA,5,#D89F1C,#3386FF,0,10,0,38,1,550,39,0,498,10,1,experiment,NA,NA,0,0.1,0.9,1,0,216,5,NA
fcp-trial,252,1363901,0.0-227.0-0.0,voc_e2,11839,"[{""event"":""focus"",""trial"":0,""time"":0},{""event"":""fullscreenenter"",""trial"":2,""time"":4476}]",NA,NA,NA,NA,NA,5,#D8271C,#741CD8,0,10,0,38,1,688,39,0,487,10,1,experiment,NA,NA,2,0.5,0.5,5,4,217,5,NA
fcp-trial,253,1366852,0.0-228.0-0.0,voc_e2,11839,"[{""event"":""focus"",""trial"":0,""time"":0},{""event"":""fullscreenenter"",""trial"":2,""time"":4476}]",NA,NA,NA,NA,NA,2,#1CD855,#FA92F8,10,0,1,38,1,524,39,0,903,0,0,experiment,NA,NA,1,0.7,0.3,2,3,218,5,NA
fcp-trial,254,1369412,0.0-229.0-0.0,voc_e2,11839,"[{""event"":""focus"",""trial"":0,""time"":0},{""event"":""fullscreenenter"",""trial"":2,""time"":4476}]",NA,NA,NA,NA,NA,0,#3386FF,#D89F1C,10,0,1,38,1,465,37,1,584,10,1,experiment,NA,NA,0,0.9,0.1,0,1,219,5,NA
fcp-trial,255,1371981,0.0-230.0-0.0,voc_e2,11839,"[{""event"":""focus"",""trial"":0,""time"":0},{""event"":""fullscreenenter"",""trial"":2,""time"":4476}]",NA,NA,NA,NA,NA,3,#741CD8,#D8271C,10,10,1,38,1,603,37,1,450,10,1,experiment,NA,NA,2,0.5,0.5,4,5,220,5,NA
fcp-trial,256,1374595,0.0-231.0-0.0,voc_e2,11839,"[{""event"":""focus"",""trial"":0,""time"":0},{""event"":""fullscreenenter"",""trial"":2,""time"":4476}]",NA,NA,NA,NA,NA,0,#D8271C,#741CD8,10,0,0,38,1,634,39,0,459,0,1,experiment,NA,NA,2,0.5,0.5,5,4,221,5,NA
fcp-trial,257,1377251,0.0-232.0-0.0,voc_e2,11839,"[{""event"":""focus"",""trial"":0,""time"":0},{""event"":""fullscreenenter"",""trial"":2,""time"":4476}]",NA,NA,NA,NA,NA,2,#3386FF,#D89F1C,10,0,1,38,1,563,37,1,422,10,1,experiment,NA,NA,0,0.9,0.1,0,1,222,5,NA
fcp-trial,258,1380451,0.0-233.0-0.0,voc_e2,11839,"[{""event"":""focus"",""trial"":0,""time"":0},{""event"":""fullscreenenter"",""trial"":2,""time"":4476}]",NA,NA,NA,NA,NA,0,#FA92F8,#1CD855,0,0,0,38,1,649,37,1,1021,0,0,experiment,NA,NA,1,0.3,0.7,3,2,223,5,NA
fcp-trial,259,1383173,0.0-234.0-0.0,voc_e2,11839,"[{""event"":""focus"",""trial"":0,""time"":0},{""event"":""fullscreenenter"",""trial"":2,""time"":4476}]",NA,NA,NA,NA,NA,1,#741CD8,#D8271C,0,10,1,38,1,374,37,1,815,0,1,experiment,NA,NA,2,0.5,0.5,4,5,224,5,NA
fcp-trial,260,1385732,0.0-235.0-0.0,voc_e2,11839,"[{""event"":""focus"",""trial"":0,""time"":0},{""event"":""fullscreenenter"",""trial"":2,""time"":4476}]",NA,NA,NA,NA,NA,2,#741CD8,#D8271C,0,10,1,38,1,337,37,1,698,0,1,experiment,NA,NA,2,0.5,0.5,4,5,225,5,NA
fcp-trial,261,1388071,0.0-236.0-0.0,voc_e2,11839,"[{""event"":""focus"",""trial"":0,""time"":0},{""event"":""fullscreenenter"",""trial"":2,""time"":4476}]",NA,NA,NA,NA,NA,6,#3386FF,#D89F1C,10,0,1,38,1,266,37,1,563,10,1,experiment,NA,NA,0,0.9,0.1,0,1,226,6,NA
fcp-trial,262,1390401,0.0-237.0-0.0,voc_e2,11839,"[{""event"":""focus"",""trial"":0,""time"":0},{""event"":""fullscreenenter"",""trial"":2,""time"":4476}]",NA,NA,NA,NA,NA,1,#D89F1C,#3386FF,0,10,0,38,1,419,39,0,389,10,1,experiment,NA,NA,0,0.1,0.9,1,0,227,6,NA
fcp-trial,263,1393912,0.0-238.0-0.0,voc_e2,11839,"[{""event"":""focus"",""trial"":0,""time"":0},{""event"":""fullscreenenter"",""trial"":2,""time"":4476}]",NA,NA,NA,NA,NA,5,#FA92F8,#1CD855,0,10,0,38,1,328,39,0,1643,10,1,experiment,NA,NA,1,0.3,0.7,3,2,228,6,NA
fcp-trial,264,1396231,0.0-239.0-0.0,voc_e2,11839,"[{""event"":""focus"",""trial"":0,""time"":0},{""event"":""fullscreenenter"",""trial"":2,""time"":4476}]",NA,NA,NA,NA,NA,4,#D8271C,#741CD8,0,10,0,38,1,449,39,0,334,10,1,experiment,NA,NA,2,0.5,0.5,5,4,229,6,NA
fcp-trial,265,1398643,0.0-240.0-0.0,voc_e2,11839,"[{""event"":""focus"",""trial"":0,""time"":0},{""event"":""fullscreenenter"",""trial"":2,""time"":4476}]",NA,NA,NA,NA,NA,3,#FA92F8,#1CD855,0,0,0,38,1,457,37,1,428,0,0,experiment,NA,NA,1,0.3,0.7,3,2,230,6,NA
fcp-trial,266,1401311,0.0-241.0-0.0,voc_e2,11839,"[{""event"":""focus"",""trial"":0,""time"":0},{""event"":""fullscreenenter"",""trial"":2,""time"":4476}]",NA,NA,NA,NA,NA,6,#D8271C,#741CD8,10,10,0,38,1,499,39,0,473,10,1,experiment,NA,NA,2,0.5,0.5,5,4,231,6,NA
fcp-trial,267,1405412,0.0-242.0-0.0,voc_e2,11839,"[{""event"":""focus"",""trial"":0,""time"":0},{""event"":""fullscreenenter"",""trial"":2,""time"":4476}]",NA,NA,NA,NA,NA,4,#1CD855,#FA92F8,0,0,1,38,1,619,37,1,1952,0,1,experiment,NA,NA,1,0.7,0.3,2,3,232,6,NA
fcp-trial,268,1408052,0.0-243.0-0.0,voc_e2,11839,"[{""event"":""focus"",""trial"":0,""time"":0},{""event"":""fullscreenenter"",""trial"":2,""time"":4476}]",NA,NA,NA,NA,NA,4,#D8271C,#741CD8,0,10,0,38,1,608,39,0,385,10,1,experiment,NA,NA,2,0.5,0.5,5,4,233,6,NA
fcp-trial,269,1410912,0.0-244.0-0.0,voc_e2,11839,"[{""event"":""focus"",""trial"":0,""time"":0},{""event"":""fullscreenenter"",""trial"":2,""time"":4476}]",NA,NA,NA,NA,NA,5,#FA92F8,#1CD855,10,10,0,38,1,761,39,0,574,10,1,experiment,NA,NA,1,0.3,0.7,3,2,234,6,NA
fcp-trial,270,1413272,0.0-245.0-0.0,voc_e2,11839,"[{""event"":""focus"",""trial"":0,""time"":0},{""event"":""fullscreenenter"",""trial"":2,""time"":4476}]",NA,NA,NA,NA,NA,1,#D89F1C,#3386FF,0,0,0,38,1,507,39,0,332,0,1,experiment,NA,NA,0,0.1,0.9,1,0,235,6,NA
fcp-trial,271,1415662,0.0-246.0-0.0,voc_e2,11839,"[{""event"":""focus"",""trial"":0,""time"":0},{""event"":""fullscreenenter"",""trial"":2,""time"":4476}]",NA,NA,NA,NA,NA,4,#D89F1C,#3386FF,0,10,0,38,1,417,39,0,459,10,1,experiment,NA,NA,0,0.1,0.9,1,0,236,6,NA
fcp-trial,272,1418321,0.0-247.0-0.0,voc_e2,11839,"[{""event"":""focus"",""trial"":0,""time"":0},{""event"":""fullscreenenter"",""trial"":2,""time"":4476}]",NA,NA,NA,NA,NA,3,#D8271C,#741CD8,10,0,0,38,1,544,39,0,603,0,1,experiment,NA,NA,2,0.5,0.5,5,4,237,6,NA
fcp-trial,273,1420802,0.0-248.0-0.0,voc_e2,11839,"[{""event"":""focus"",""trial"":0,""time"":0},{""event"":""fullscreenenter"",""trial"":2,""time"":4476}]",NA,NA,NA,NA,NA,1,#741CD8,#D8271C,0,10,1,38,1,333,37,1,628,0,1,experiment,NA,NA,2,0.5,0.5,4,5,238,6,NA
fcp-trial,274,1423394,0.0-249.0-0.0,voc_e2,11839,"[{""event"":""focus"",""trial"":0,""time"":0},{""event"":""fullscreenenter"",""trial"":2,""time"":4476}]",NA,NA,NA,NA,NA,3,#FA92F8,#1CD855,10,10,0,38,1,554,39,0,512,10,1,experiment,NA,NA,1,0.3,0.7,3,2,239,6,NA
fcp-trial,275,1425872,0.0-250.0-0.0,voc_e2,11839,"[{""event"":""focus"",""trial"":0,""time"":0},{""event"":""fullscreenenter"",""trial"":2,""time"":4476}]",NA,NA,NA,NA,NA,3,#3386FF,#D89F1C,10,0,1,38,1,515,37,1,445,10,1,experiment,NA,NA,0,0.9,0.1,0,1,240,6,NA
fcp-trial,276,1428172,0.0-251.0-0.0,voc_e2,11839,"[{""event"":""focus"",""trial"":0,""time"":0},{""event"":""fullscreenenter"",""trial"":2,""time"":4476}]",NA,NA,NA,NA,NA,6,#FA92F8,#1CD855,0,10,0,38,1,419,39,0,363,10,1,experiment,NA,NA,1,0.3,0.7,3,2,241,6,NA
fcp-trial,277,1430572,0.0-252.0-0.0,voc_e2,11839,"[{""event"":""focus"",""trial"":0,""time"":0},{""event"":""fullscreenenter"",""trial"":2,""time"":4476}]",NA,NA,NA,NA,NA,2,#D89F1C,#3386FF,0,10,0,38,1,616,39,0,263,10,1,experiment,NA,NA,0,0.1,0.9,1,0,242,6,NA
fcp-trial,278,1433431,0.0-253.0-0.0,voc_e2,11839,"[{""event"":""focus"",""trial"":0,""time"":0},{""event"":""fullscreenenter"",""trial"":2,""time"":4476}]",NA,NA,NA,NA,NA,0,#741CD8,#D8271C,0,0,1,38,1,823,37,1,491,0,1,experiment,NA,NA,2,0.5,0.5,4,5,243,6,NA
fcp-trial,279,1435750,0.0-254.0-0.0,voc_e2,11839,"[{""event"":""focus"",""trial"":0,""time"":0},{""event"":""fullscreenenter"",""trial"":2,""time"":4476}]",NA,NA,NA,NA,NA,0,#3386FF,#D89F1C,10,0,1,38,1,369,37,1,418,10,1,experiment,NA,NA,0,0.9,0.1,0,1,244,6,NA
fcp-trial,280,1438244,0.0-255.0-0.0,voc_e2,11839,"[{""event"":""focus"",""trial"":0,""time"":0},{""event"":""fullscreenenter"",""trial"":2,""time"":4476}]",NA,NA,NA,NA,NA,0,#FA92F8,#1CD855,10,10,0,38,1,514,37,1,473,10,0,experiment,NA,NA,1,0.3,0.7,3,2,245,6,NA
fcp-trial,281,1440944,0.0-256.0-0.0,voc_e2,11839,"[{""event"":""focus"",""trial"":0,""time"":0},{""event"":""fullscreenenter"",""trial"":2,""time"":4476}]",NA,NA,NA,NA,NA,5,#D89F1C,#3386FF,0,10,0,38,1,708,39,0,458,10,1,experiment,NA,NA,0,0.1,0.9,1,0,246,6,NA
fcp-trial,282,1443294,0.0-257.0-0.0,voc_e2,11839,"[{""event"":""focus"",""trial"":0,""time"":0},{""event"":""fullscreenenter"",""trial"":2,""time"":4476}]",NA,NA,NA,NA,NA,6,#741CD8,#D8271C,10,10,1,38,1,503,37,1,329,10,1,experiment,NA,NA,2,0.5,0.5,4,5,247,6,NA
fcp-trial,283,1445622,0.0-258.0-0.0,voc_e2,11839,"[{""event"":""focus"",""trial"":0,""time"":0},{""event"":""fullscreenenter"",""trial"":2,""time"":4476}]",NA,NA,NA,NA,NA,2,#D8271C,#741CD8,10,0,0,38,1,444,39,0,355,0,1,experiment,NA,NA,2,0.5,0.5,5,4,248,6,NA
fcp-trial,284,1448221,0.0-259.0-0.0,voc_e2,11839,"[{""event"":""focus"",""trial"":0,""time"":0},{""event"":""fullscreenenter"",""trial"":2,""time"":4476}]",NA,NA,NA,NA,NA,1,#1CD855,#FA92F8,0,10,1,38,1,294,39,0,785,10,0,experiment,NA,NA,1,0.7,0.3,2,3,249,6,NA
fcp-trial,285,1450631,0.0-260.0-0.0,voc_e2,11839,"[{""event"":""focus"",""trial"":0,""time"":0},{""event"":""fullscreenenter"",""trial"":2,""time"":4476}]",NA,NA,NA,NA,NA,6,#D89F1C,#3386FF,0,10,0,38,1,454,39,0,431,10,1,experiment,NA,NA,0,0.1,0.9,1,0,250,6,NA
fcp-trial,286,1453044,0.0-261.0-0.0,voc_e2,11839,"[{""event"":""focus"",""trial"":0,""time"":0},{""event"":""fullscreenenter"",""trial"":2,""time"":4476}]",NA,NA,NA,NA,NA,2,#FA92F8,#1CD855,0,10,0,38,1,502,39,0,290,10,1,experiment,NA,NA,1,0.3,0.7,3,2,251,6,NA
fcp-trial,287,1455444,0.0-262.0-0.0,voc_e2,11839,"[{""event"":""focus"",""trial"":0,""time"":0},{""event"":""fullscreenenter"",""trial"":2,""time"":4476}]",NA,NA,NA,NA,NA,5,#D8271C,#741CD8,10,10,0,38,1,534,39,0,334,10,1,experiment,NA,NA,2,0.5,0.5,5,4,252,6,NA
fcp-trial,288,1457745,0.0-263.0-0.0,voc_e2,11839,"[{""event"":""focus"",""trial"":0,""time"":0},{""event"":""fullscreenenter"",""trial"":2,""time"":4476}]",NA,NA,NA,NA,NA,6,#D89F1C,#3386FF,0,0,0,38,1,447,39,0,329,0,1,experiment,NA,NA,0,0.1,0.9,1,0,253,6,NA
fcp-trial,289,1460821,0.0-264.0-0.0,voc_e2,11839,"[{""event"":""focus"",""trial"":0,""time"":0},{""event"":""fullscreenenter"",""trial"":2,""time"":4476}]",NA,NA,NA,NA,NA,0,#D89F1C,#3386FF,10,10,0,38,1,981,39,0,580,10,1,experiment,NA,NA,0,0.1,0.9,1,0,254,6,NA
fcp-trial,290,1463493,0.0-265.0-0.0,voc_e2,11839,"[{""event"":""focus"",""trial"":0,""time"":0},{""event"":""fullscreenenter"",""trial"":2,""time"":4476}]",NA,NA,NA,NA,NA,4,#D89F1C,#3386FF,0,10,0,38,1,572,39,0,573,10,1,experiment,NA,NA,0,0.1,0.9,1,0,255,6,NA
fcp-trial,291,1466632,0.0-266.0-0.0,voc_e2,11839,"[{""event"":""focus"",""trial"":0,""time"":0},{""event"":""fullscreenenter"",""trial"":2,""time"":4476}]",NA,NA,NA,NA,NA,0,#D8271C,#741CD8,0,10,0,38,1,548,39,0,1055,10,1,experiment,NA,NA,2,0.5,0.5,5,4,256,6,NA
fcp-trial,292,1470312,0.0-267.0-0.0,voc_e2,11839,"[{""event"":""focus"",""trial"":0,""time"":0},{""event"":""fullscreenenter"",""trial"":2,""time"":4476}]",NA,NA,NA,NA,NA,6,#FA92F8,#1CD855,0,0,0,38,1,1047,39,0,1098,0,1,experiment,NA,NA,1,0.3,0.7,3,2,257,6,NA
fcp-trial,293,1473813,0.0-268.0-0.0,voc_e2,11839,"[{""event"":""focus"",""trial"":0,""time"":0},{""event"":""fullscreenenter"",""trial"":2,""time"":4476}]",NA,NA,NA,NA,NA,5,#FA92F8,#1CD855,10,10,0,38,1,1141,37,1,818,10,0,experiment,NA,NA,1,0.3,0.7,3,2,258,6,NA
fcp-trial,294,1478033,0.0-269.0-0.0,voc_e2,11839,"[{""event"":""focus"",""trial"":0,""time"":0},{""event"":""fullscreenenter"",""trial"":2,""time"":4476}]",NA,NA,NA,NA,NA,5,#741CD8,#D8271C,10,0,1,38,1,1798,37,1,890,10,1,experiment,NA,NA,2,0.5,0.5,4,5,259,6,NA
fcp-trial,295,1480953,0.0-270.0-0.0,voc_e2,11839,"[{""event"":""focus"",""trial"":0,""time"":0},{""event"":""fullscreenenter"",""trial"":2,""time"":4476}]",NA,NA,NA,NA,NA,3,#3386FF,#D89F1C,10,0,1,38,1,415,37,1,984,10,1,experiment,NA,NA,0,0.9,0.1,0,1,260,6,NA
fcp-trial,296,1483433,0.0-271.0-0.0,voc_e2,11839,"[{""event"":""focus"",""trial"":0,""time"":0},{""event"":""fullscreenenter"",""trial"":2,""time"":4476}]",NA,NA,NA,NA,NA,1,#1CD855,#FA92F8,0,10,1,38,1,431,37,1,512,0,1,experiment,NA,NA,1,0.7,0.3,2,3,261,6,NA
fcp-trial,297,1485810,0.0-272.0-0.0,voc_e2,11839,"[{""event"":""focus"",""trial"":0,""time"":0},{""event"":""fullscreenenter"",""trial"":2,""time"":4476}]",NA,NA,NA,NA,NA,2,#D89F1C,#3386FF,0,10,0,38,1,436,39,0,417,10,1,experiment,NA,NA,0,0.1,0.9,1,0,262,6,NA
fcp-trial,298,1488573,0.0-273.0-0.0,voc_e2,11839,"[{""event"":""focus"",""trial"":0,""time"":0},{""event"":""fullscreenenter"",""trial"":2,""time"":4476}]",NA,NA,NA,NA,NA,6,#D8271C,#741CD8,0,0,0,38,1,518,39,0,712,0,1,experiment,NA,NA,2,0.5,0.5,5,4,263,6,NA
fcp-trial,299,1491411,0.0-274.0-0.0,voc_e2,11839,"[{""event"":""focus"",""trial"":0,""time"":0},{""event"":""fullscreenenter"",""trial"":2,""time"":4476}]",NA,NA,NA,NA,NA,3,#D8271C,#741CD8,0,10,0,38,1,556,39,0,761,10,1,experiment,NA,NA,2,0.5,0.5,5,4,264,6,NA
fcp-trial,300,1494212,0.0-275.0-0.0,voc_e2,11839,"[{""event"":""focus"",""trial"":0,""time"":0},{""event"":""fullscreenenter"",""trial"":2,""time"":4476}]",NA,NA,NA,NA,NA,3,#1CD855,#FA92F8,10,0,1,38,1,547,37,1,595,10,1,experiment,NA,NA,1,0.7,0.3,2,3,265,6,NA
fcp-trial,301,1496628,0.0-276.0-0.0,voc_e2,11839,"[{""event"":""focus"",""trial"":0,""time"":0},{""event"":""fullscreenenter"",""trial"":2,""time"":4476}]",NA,NA,NA,NA,NA,2,#FA92F8,#1CD855,0,0,0,38,1,429,39,0,451,0,1,experiment,NA,NA,1,0.3,0.7,3,2,266,6,NA
fcp-trial,302,1499212,0.0-277.0-0.0,voc_e2,11839,"[{""event"":""focus"",""trial"":0,""time"":0},{""event"":""fullscreenenter"",""trial"":2,""time"":4476}]",NA,NA,NA,NA,NA,1,#D89F1C,#3386FF,0,10,0,38,1,354,39,0,598,10,1,experiment,NA,NA,0,0.1,0.9,1,0,267,6,NA
fcp-trial,303,1501595,0.0-278.0-0.0,voc_e2,11839,"[{""event"":""focus"",""trial"":0,""time"":0},{""event"":""fullscreenenter"",""trial"":2,""time"":4476}]",NA,NA,NA,NA,NA,1,#741CD8,#D8271C,10,10,1,38,1,226,37,1,642,10,1,experiment,NA,NA,2,0.5,0.5,4,5,268,6,NA
fcp-trial,304,1504232,0.0-279.0-0.0,voc_e2,11839,"[{""event"":""focus"",""trial"":0,""time"":0},{""event"":""fullscreenenter"",""trial"":2,""time"":4476}]",NA,NA,NA,NA,NA,0,#FA92F8,#1CD855,0,10,0,38,1,508,39,0,493,10,1,experiment,NA,NA,1,0.3,0.7,3,2,269,6,NA
fcp-trial,305,1507201,0.0-280.0-0.0,voc_e2,11839,"[{""event"":""focus"",""trial"":0,""time"":0},{""event"":""fullscreenenter"",""trial"":2,""time"":4476}]",NA,NA,NA,NA,NA,4,#D8271C,#741CD8,0,10,0,38,1,772,39,0,677,10,1,experiment,NA,NA,2,0.5,0.5,5,4,270,6,NA
fcp-trial,306,1509703,0.0-281.0-0.0,voc_e2,11839,"[{""event"":""focus"",""trial"":0,""time"":0},{""event"":""fullscreenenter"",""trial"":2,""time"":4476}]",NA,NA,NA,NA,NA,4,#1CD855,#FA92F8,10,10,1,38,1,479,37,1,492,10,1,experiment,NA,NA,1,0.7,0.3,2,3,271,7,NA
fcp-trial,307,1512183,0.0-282.0-0.0,voc_e2,11839,"[{""event"":""focus"",""trial"":0,""time"":0},{""event"":""fullscreenenter"",""trial"":2,""time"":4476}]",NA,NA,NA,NA,NA,5,#3386FF,#D89F1C,10,0,1,38,1,608,37,1,340,10,1,experiment,NA,NA,0,0.9,0.1,0,1,272,7,NA
fcp-trial,308,1514711,0.0-283.0-0.0,voc_e2,11839,"[{""event"":""focus"",""trial"":0,""time"":0},{""event"":""fullscreenenter"",""trial"":2,""time"":4476}]",NA,NA,NA,NA,NA,2,#741CD8,#D8271C,0,10,1,38,1,437,37,1,415,0,1,experiment,NA,NA,2,0.5,0.5,4,5,273,7,NA
fcp-trial,309,1517044,0.0-284.0-0.0,voc_e2,11839,"[{""event"":""focus"",""trial"":0,""time"":0},{""event"":""fullscreenenter"",""trial"":2,""time"":4476}]",NA,NA,NA,NA,NA,6,#741CD8,#D8271C,10,10,1,38,1,370,37,1,439,10,1,experiment,NA,NA,2,0.5,0.5,4,5,274,7,NA
fcp-trial,310,1519732,0.0-285.0-0.0,voc_e2,11839,"[{""event"":""focus"",""trial"":0,""time"":0},{""event"":""fullscreenenter"",""trial"":2,""time"":4476}]",NA,NA,NA,NA,NA,1,#741CD8,#D8271C,10,0,1,38,1,462,37,1,605,10,1,experiment,NA,NA,2,0.5,0.5,4,5,275,7,NA
fcp-trial,311,1522272,0.0-286.0-0.0,voc_e2,11839,"[{""event"":""focus"",""trial"":0,""time"":0},{""event"":""fullscreenenter"",""trial"":2,""time"":4476}]",NA,NA,NA,NA,NA,0,#741CD8,#D8271C,0,0,1,38,1,485,37,1,543,0,1,experiment,NA,NA,2,0.5,0.5,4,5,276,7,NA
fcp-trial,312,1524921,0.0-287.0-0.0,voc_e2,11839,"[{""event"":""focus"",""trial"":0,""time"":0},{""event"":""fullscreenenter"",""trial"":2,""time"":4476}]",NA,NA,NA,NA,NA,6,#FA92F8,#1CD855,10,10,0,38,1,725,39,0,402,10,1,experiment,NA,NA,1,0.3,0.7,3,2,277,7,NA
fcp-trial,313,1527432,0.0-288.0-0.0,voc_e2,11839,"[{""event"":""focus"",""trial"":0,""time"":0},{""event"":""fullscreenenter"",""trial"":2,""time"":4476}]",NA,NA,NA,NA,NA,6,#D89F1C,#3386FF,10,10,0,38,1,709,39,0,270,10,1,experiment,NA,NA,0,0.1,0.9,1,0,278,7,NA
fcp-trial,314,1529662,0.0-289.0-0.0,voc_e2,11839,"[{""event"":""focus"",""trial"":0,""time"":0},{""event"":""fullscreenenter"",""trial"":2,""time"":4476}]",NA,NA,NA,NA,NA,2,#D89F1C,#3386FF,0,0,0,38,1,412,39,0,304,0,1,experiment,NA,NA,0,0.1,0.9,1,0,279,7,NA
fcp-trial,315,1532582,0.0-290.0-0.0,voc_e2,11839,"[{""event"":""focus"",""trial"":0,""time"":0},{""event"":""fullscreenenter"",""trial"":2,""time"":4476}]",NA,NA,NA,NA,NA,5,#1CD855,#FA92F8,10,0,1,38,1,512,39,0,878,0,0,experiment,NA,NA,1,0.7,0.3,2,3,280,7,NA
fcp-trial,316,1534922,0.0-291.0-0.0,voc_e2,11839,"[{""event"":""focus"",""trial"":0,""time"":0},{""event"":""fullscreenenter"",""trial"":2,""time"":4476}]",NA,NA,NA,NA,NA,3,#741CD8,#D8271C,0,10,1,38,1,445,37,1,367,0,1,experiment,NA,NA,2,0.5,0.5,4,5,281,7,NA
fcp-trial,317,1537442,0.0-292.0-0.0,voc_e2,11839,"[{""event"":""focus"",""trial"":0,""time"":0},{""event"":""fullscreenenter"",""trial"":2,""time"":4476}]",NA,NA,NA,NA,NA,0,#3386FF,#D89F1C,10,0,1,38,1,605,37,1,405,10,1,experiment,NA,NA,0,0.9,0.1,0,1,282,7,NA
fcp-trial,318,1540411,0.0-293.0-0.0,voc_e2,11839,"[{""event"":""focus"",""trial"":0,""time"":0},{""event"":""fullscreenenter"",""trial"":2,""time"":4476}]",NA,NA,NA,NA,NA,5,#D89F1C,#3386FF,0,10,0,38,1,480,39,0,950,10,1,experiment,NA,NA,0,0.1,0.9,1,0,283,7,NA
fcp-trial,319,1543931,0.0-294.0-0.0,voc_e2,11839,"[{""event"":""focus"",""trial"":0,""time"":0},{""event"":""fullscreenenter"",""trial"":2,""time"":4476}]",NA,NA,NA,NA,NA,2,#1CD855,#FA92F8,0,0,1,38,1,869,37,1,1123,0,1,experiment,NA,NA,1,0.7,0.3,2,3,284,7,NA
fcp-trial,320,1547372,0.0-295.0-0.0,voc_e2,11839,"[{""event"":""focus"",""trial"":0,""time"":0},{""event"":""fullscreenenter"",""trial"":2,""time"":4476}]",NA,NA,NA,NA,NA,4,#D89F1C,#3386FF,0,10,0,38,1,713,39,0,1201,10,1,experiment,NA,NA,0,0.1,0.9,1,0,285,7,NA
fcp-trial,321,1549945,0.0-296.0-0.0,voc_e2,11839,"[{""event"":""focus"",""trial"":0,""time"":0},{""event"":""fullscreenenter"",""trial"":2,""time"":4476}]",NA,NA,NA,NA,NA,4,#741CD8,#D8271C,10,0,1,38,1,507,37,1,534,10,1,experiment,NA,NA,2,0.5,0.5,4,5,286,7,NA
fcp-trial,322,1552543,0.0-297.0-0.0,voc_e2,11839,"[{""event"":""focus"",""trial"":0,""time"":0},{""event"":""fullscreenenter"",""trial"":2,""time"":4476}]",NA,NA,NA,NA,NA,1,#FA92F8,#1CD855,0,0,0,38,1,559,39,0,527,0,1,experiment,NA,NA,1,0.3,0.7,3,2,287,7,NA
fcp-trial,323,1555023,0.0-298.0-0.0,voc_e2,11839,"[{""event"":""focus"",""trial"":0,""time"":0},{""event"":""fullscreenenter"",""trial"":2,""time"":4476}]",NA,NA,NA,NA,NA,2,#741CD8,#D8271C,0,0,1,38,1,434,37,1,511,0,1,experiment,NA,NA,2,0.5,0.5,4,5,288,7,NA
fcp-trial,324,1557463,0.0-299.0-0.0,voc_e2,11839,"[{""event"":""focus"",""trial"":0,""time"":0},{""event"":""fullscreenenter"",""trial"":2,""time"":4476}]",NA,NA,NA,NA,NA,3,#D89F1C,#3386FF,0,10,0,38,1,391,39,0,483,10,1,experiment,NA,NA,0,0.1,0.9,1,0,289,7,NA
fcp-trial,325,1559862,0.0-300.0-0.0,voc_e2,11839,"[{""event"":""focus"",""trial"":0,""time"":0},{""event"":""fullscreenenter"",""trial"":2,""time"":4476}]",NA,NA,NA,NA,NA,5,#D8271C,#741CD8,0,0,0,38,1,425,39,0,434,0,1,experiment,NA,NA,2,0.5,0.5,5,4,290,7,NA
fcp-trial,326,1562153,0.0-301.0-0.0,voc_e2,11839,"[{""event"":""focus"",""trial"":0,""time"":0},{""event"":""fullscreenenter"",""trial"":2,""time"":4476}]",NA,NA,NA,NA,NA,3,#1CD855,#FA92F8,10,10,1,38,1,449,39,0,315,10,0,experiment,NA,NA,1,0.7,0.3,2,3,291,7,NA
fcp-trial,327,1565032,0.0-302.0-0.0,voc_e2,11839,"[{""event"":""focus"",""trial"":0,""time"":0},{""event"":""fullscreenenter"",""trial"":2,""time"":4476}]",NA,NA,NA,NA,NA,4,#1CD855,#FA92F8,10,0,1,38,1,510,39,0,846,0,0,experiment,NA,NA,1,0.7,0.3,2,3,292,7,NA
fcp-trial,328,1567748,0.0-303.0-0.0,voc_e2,11839,"[{""event"":""focus"",""trial"":0,""time"":0},{""event"":""fullscreenenter"",""trial"":2,""time"":4476}]",NA,NA,NA,NA,NA,1,#3386FF,#D89F1C,10,10,1,38,1,698,37,1,479,10,1,experiment,NA,NA,0,0.9,0.1,0,1,293,7,NA
fcp-trial,329,1570722,0.0-304.0-0.0,voc_e2,11839,"[{""event"":""focus"",""trial"":0,""time"":0},{""event"":""fullscreenenter"",""trial"":2,""time"":4476}]",NA,NA,NA,NA,NA,0,#FA92F8,#1CD855,0,10,0,38,1,579,39,0,854,10,1,experiment,NA,NA,1,0.3,0.7,3,2,294,7,NA
fcp-trial,330,1573453,0.0-305.0-0.0,voc_e2,11839,"[{""event"":""focus"",""trial"":0,""time"":0},{""event"":""fullscreenenter"",""trial"":2,""time"":4476}]",NA,NA,NA,NA,NA,2,#1CD855,#FA92F8,10,0,1,38,1,500,37,1,714,10,1,experiment,NA,NA,1,0.7,0.3,2,3,295,7,NA
fcp-trial,331,1575984,0.0-306.0-0.0,voc_e2,11839,"[{""event"":""focus"",""trial"":0,""time"":0},{""event"":""fullscreenenter"",""trial"":2,""time"":4476}]",NA,NA,NA,NA,NA,0,#741CD8,#D8271C,10,10,1,38,1,596,37,1,396,10,1,experiment,NA,NA,2,0.5,0.5,4,5,296,7,NA
fcp-trial,332,1578403,0.0-307.0-0.0,voc_e2,11839,"[{""event"":""focus"",""trial"":0,""time"":0},{""event"":""fullscreenenter"",""trial"":2,""time"":4476}]",NA,NA,NA,NA,NA,2,#741CD8,#D8271C,10,0,1,38,1,430,37,1,478,10,1,experiment,NA,NA,2,0.5,0.5,4,5,297,7,NA
fcp-trial,333,1581002,0.0-308.0-0.0,voc_e2,11839,"[{""event"":""focus"",""trial"":0,""time"":0},{""event"":""fullscreenenter"",""trial"":2,""time"":4476}]",NA,NA,NA,NA,NA,1,#D89F1C,#3386FF,0,10,0,38,1,569,39,0,481,10,1,experiment,NA,NA,0,0.1,0.9,1,0,298,7,NA
fcp-trial,334,1583513,0.0-309.0-0.0,voc_e2,11839,"[{""event"":""focus"",""trial"":0,""time"":0},{""event"":""fullscreenenter"",""trial"":2,""time"":4476}]",NA,NA,NA,NA,NA,6,#1CD855,#FA92F8,10,0,1,38,1,359,37,1,617,10,1,experiment,NA,NA,1,0.7,0.3,2,3,299,7,NA
fcp-trial,335,1586071,0.0-310.0-0.0,voc_e2,11839,"[{""event"":""focus"",""trial"":0,""time"":0},{""event"":""fullscreenenter"",""trial"":2,""time"":4476}]",NA,NA,NA,NA,NA,4,#3386FF,#D89F1C,10,0,1,38,1,446,37,1,450,10,1,experiment,NA,NA,0,0.9,0.1,0,1,300,7,NA
fcp-trial,336,1588831,0.0-311.0-0.0,voc_e2,11839,"[{""event"":""focus"",""trial"":0,""time"":0},{""event"":""fullscreenenter"",""trial"":2,""time"":4476}]",NA,NA,NA,NA,NA,1,#D8271C,#741CD8,10,10,0,38,1,558,39,0,686,10,1,experiment,NA,NA,2,0.5,0.5,5,4,301,7,NA
fcp-trial,337,1592132,0.0-312.0-0.0,voc_e2,11839,"[{""event"":""focus"",""trial"":0,""time"":0},{""event"":""fullscreenenter"",""trial"":2,""time"":4476}]",NA,NA,NA,NA,NA,2,#D89F1C,#3386FF,0,10,0,38,1,681,39,0,956,10,1,experiment,NA,NA,0,0.1,0.9,1,0,302,7,NA
fcp-trial,338,1594912,0.0-313.0-0.0,voc_e2,11839,"[{""event"":""focus"",""trial"":0,""time"":0},{""event"":""fullscreenenter"",""trial"":2,""time"":4476}]",NA,NA,NA,NA,NA,0,#1CD855,#FA92F8,0,0,1,38,1,514,39,0,733,0,0,experiment,NA,NA,1,0.7,0.3,2,3,303,7,NA
fcp-trial,339,1598752,0.0-314.0-0.0,voc_e2,11839,"[{""event"":""focus"",""trial"":0,""time"":0},{""event"":""fullscreenenter"",""trial"":2,""time"":4476}]",NA,NA,NA,NA,NA,4,#D8271C,#741CD8,10,10,0,38,1,1835,39,0,478,10,1,experiment,NA,NA,2,0.5,0.5,5,4,304,7,NA
fcp-trial,340,1601551,0.0-315.0-0.0,voc_e2,11839,"[{""event"":""focus"",""trial"":0,""time"":0},{""event"":""fullscreenenter"",""trial"":2,""time"":4476}]",NA,NA,NA,NA,NA,1,#FA92F8,#1CD855,0,10,0,38,1,810,37,1,466,0,0,experiment,NA,NA,1,0.3,0.7,3,2,305,7,NA
fcp-trial,341,1603993,0.0-316.0-0.0,voc_e2,11839,"[{""event"":""focus"",""trial"":0,""time"":0},{""event"":""fullscreenenter"",""trial"":2,""time"":4476}]",NA,NA,NA,NA,NA,5,#D89F1C,#3386FF,0,0,0,38,1,399,39,0,527,0,1,experiment,NA,NA,0,0.1,0.9,1,0,306,7,NA
fcp-trial,342,1606332,0.0-317.0-0.0,voc_e2,11839,"[{""event"":""focus"",""trial"":0,""time"":0},{""event"":""fullscreenenter"",""trial"":2,""time"":4476}]",NA,NA,NA,NA,NA,3,#D89F1C,#3386FF,10,10,0,38,1,420,39,0,399,10,1,experiment,NA,NA,0,0.1,0.9,1,0,307,7,NA
fcp-trial,343,1608872,0.0-318.0-0.0,voc_e2,11839,"[{""event"":""focus"",""trial"":0,""time"":0},{""event"":""fullscreenenter"",""trial"":2,""time"":4476}]",NA,NA,NA,NA,NA,4,#FA92F8,#1CD855,10,10,0,38,1,528,39,0,486,10,1,experiment,NA,NA,1,0.3,0.7,3,2,308,7,NA
fcp-trial,344,1611312,0.0-319.0-0.0,voc_e2,11839,"[{""event"":""focus"",""trial"":0,""time"":0},{""event"":""fullscreenenter"",""trial"":2,""time"":4476}]",NA,NA,NA,NA,NA,6,#741CD8,#D8271C,10,10,1,38,1,442,37,1,475,10,1,experiment,NA,NA,2,0.5,0.5,4,5,309,7,NA
fcp-trial,345,1615111,0.0-320.0-0.0,voc_e2,11839,"[{""event"":""focus"",""trial"":0,""time"":0},{""event"":""fullscreenenter"",""trial"":2,""time"":4476}]",NA,NA,NA,NA,NA,5,#1CD855,#FA92F8,10,0,1,38,1,492,37,1,1790,10,1,experiment,NA,NA,1,0.7,0.3,2,3,310,7,NA
fcp-trial,346,1619581,0.0-321.0-0.0,voc_e2,11839,"[{""event"":""focus"",""trial"":0,""time"":0},{""event"":""fullscreenenter"",""trial"":2,""time"":4476}]",NA,NA,NA,NA,NA,5,#741CD8,#D8271C,0,0,1,38,1,2282,37,1,483,0,1,experiment,NA,NA,2,0.5,0.5,4,5,311,7,NA
fcp-trial,347,1622052,0.0-322.0-0.0,voc_e2,11839,"[{""event"":""focus"",""trial"":0,""time"":0},{""event"":""fullscreenenter"",""trial"":2,""time"":4476}]",NA,NA,NA,NA,NA,0,#D89F1C,#3386FF,10,10,0,38,1,500,39,0,456,10,1,experiment,NA,NA,0,0.1,0.9,1,0,312,7,NA
fcp-trial,348,1624843,0.0-323.0-0.0,voc_e2,11839,"[{""event"":""focus"",""trial"":0,""time"":0},{""event"":""fullscreenenter"",""trial"":2,""time"":4476}]",NA,NA,NA,NA,NA,6,#D89F1C,#3386FF,0,10,0,38,1,753,39,0,514,10,1,experiment,NA,NA,0,0.1,0.9,1,0,313,7,NA
fcp-trial,349,1627352,0.0-324.0-0.0,voc_e2,11839,"[{""event"":""focus"",""trial"":0,""time"":0},{""event"":""fullscreenenter"",""trial"":2,""time"":4476}]",NA,NA,NA,NA,NA,3,#FA92F8,#1CD855,0,0,0,38,1,528,37,1,443,0,0,experiment,NA,NA,1,0.3,0.7,3,2,314,7,NA
fcp-trial,350,1629743,0.0-325.0-0.0,voc_e2,11839,"[{""event"":""focus"",""trial"":0,""time"":0},{""event"":""fullscreenenter"",""trial"":2,""time"":4476}]",NA,NA,NA,NA,NA,3,#D8271C,#741CD8,0,10,0,38,1,479,39,0,382,10,1,experiment,NA,NA,2,0.5,0.5,5,4,315,7,NA
audio-instructions,351,1640524,0.0-326.0,voc_e2,11839,"[{""event"":""focus"",""trial"":0,""time"":0},{""event"":""fullscreenenter"",""trial"":2,""time"":4476}]",NA,5131,static/audio/finished.wav,NA,0,NA,NA,NA,NA,NA,NA,NA,NA,NA,NA,NA,NA,NA,NA,NA,NA,NA,NA,NA,NA,NA,NA,NA,NA,NA
audio-instructions,352,1652246,0.0-327.0-0.0,voc_e2,11839,"[{""event"":""focus"",""trial"":0,""time"":0},{""event"":""fullscreenenter"",""trial"":2,""time"":4476}]",NA,870,static/audio/explicit1.wav,NA,0,NA,NA,NA,NA,NA,NA,NA,NA,NA,NA,NA,NA,NA,NA,NA,NA,NA,NA,NA,NA,NA,NA,NA,NA,NA
audio-instructions,353,1660728,0.0-327.0-1.0,voc_e2,11839,"[{""event"":""focus"",""trial"":0,""time"":0},{""event"":""fullscreenenter"",""trial"":2,""time"":4476}]",NA,873,static/audio/explicit2.wav,NA,0,NA,NA,NA,NA,NA,NA,NA,NA,NA,NA,NA,NA,NA,NA,NA,NA,NA,NA,NA,NA,NA,NA,NA,NA,NA
image-slider-response,354,1668456,0.0-328.0,voc_e2,11839,"[{""event"":""focus"",""trial"":0,""time"":0},{""event"":""fullscreenenter"",""trial"":2,""time"":4476}]",NA,7651,static/img/machines/machine1.png,NA,NA,NA,NA,NA,NA,NA,NA,NA,NA,NA,NA,NA,NA,NA,NA,explicit,NA,NA,NA,NA,NA,NA,NA,NA,NA,2
image-slider-response,355,1672171,0.0-329.0,voc_e2,11839,"[{""event"":""focus"",""trial"":0,""time"":0},{""event"":""fullscreenenter"",""trial"":2,""time"":4476}]",NA,3714,static/img/machines/machine6.png,NA,NA,NA,NA,NA,NA,NA,NA,NA,NA,NA,NA,NA,NA,NA,NA,explicit,NA,NA,NA,NA,NA,NA,NA,NA,NA,8
image-slider-response,356,1676467,0.0-330.0,voc_e2,11839,"[{""event"":""focus"",""trial"":0,""time"":0},{""event"":""fullscreenenter"",""trial"":2,""time"":4476}]",NA,4295,static/img/machines/machine3.png,NA,NA,NA,NA,NA,NA,NA,NA,NA,NA,NA,NA,NA,NA,NA,NA,explicit,NA,NA,NA,NA,NA,NA,NA,NA,NA,7
image-slider-response,357,1681804,0.0-331.0,voc_e2,11839,"[{""event"":""focus"",""trial"":0,""time"":0},{""event"":""fullscreenenter"",""trial"":2,""time"":4476}]",NA,5334,static/img/machines/machine4.png,NA,NA,NA,NA,NA,NA,NA,NA,NA,NA,NA,NA,NA,NA,NA,NA,explicit,NA,NA,NA,NA,NA,NA,NA,NA,NA,1
image-slider-response,358,1685665,0.0-332.0,voc_e2,11839,"[{""event"":""focus"",""trial"":0,""time"":0},{""event"":""fullscreenenter"",""trial"":2,""time"":4476}]",NA,3860,static/img/machines/machine2.png,NA,NA,NA,NA,NA,NA,NA,NA,NA,NA,NA,NA,NA,NA,NA,NA,explicit,NA,NA,NA,NA,NA,NA,NA,NA,NA,8
image-slider-response,359,1690604,0.0-333.0,voc_e2,11839,"[{""event"":""focus"",""trial"":0,""time"":0},{""event"":""fullscreenenter"",""trial"":2,""time"":4476}]",NA,4936,static/img/machines/machine5.png,NA,NA,NA,NA,NA,NA,NA,NA,NA,NA,NA,NA,NA,NA,NA,NA,explicit,NA,NA,NA,NA,NA,NA,NA,NA,NA,3
