trial_type,trial_index,time_elapsed,internal_node_id,task_version,subject_id,interactions,success,rt,stimulus,key_press,button_pressed,offer,arcade_color_L,arcade_color_R,arcade_outcome_L,arcade_outcome_R,correct,stage_1_key,stage_1_choice,stage_1_rt,stage_2_key,stage_2_choice,stage_2_rt,stage_3_outcome,accuracy,phase,responses,num_errors,context,reward_prob_L,reward_prob_R,arcade_id_L,arcade_id_R,trial,block,response
pavlovia,0,10,0.0-0.0,voc_e2,12441,[],NA,NA,NA,NA,NA,NA,NA,NA,NA,NA,NA,NA,NA,NA,NA,NA,NA,NA,NA,NA,NA,NA,NA,NA,NA,NA,NA,NA,NA,NA
fullscreen,1,2507,0.0-1.0,voc_e2,12441,"[{""event"":""fullscreenenter"",""trial"":1,""time"":1528}]",TRUE,NA,NA,NA,NA,NA,NA,NA,NA,NA,NA,NA,NA,NA,NA,NA,NA,NA,NA,NA,NA,NA,NA,NA,NA,NA,NA,NA,NA,NA
audio-keyboard-response,2,4481,0.0-2.0,voc_e2,12441,"[{""event"":""fullscreenenter"",""trial"":1,""time"":1528}]",NA,1968,static/audio/beep_loop.wav,32,NA,NA,NA,NA,NA,NA,NA,NA,NA,NA,NA,NA,NA,NA,NA,NA,NA,NA,NA,NA,NA,NA,NA,NA,NA,NA
audio-test,3,5820,0.0-3.0,voc_e2,12441,"[{""event"":""fullscreenenter"",""trial"":1,""time"":1528}]",NA,NA,static/audio/turtle.wav,NA,3,NA,NA,NA,NA,NA,NA,NA,NA,NA,NA,NA,NA,NA,NA,NA,NA,NA,NA,NA,NA,NA,NA,NA,NA,NA
audio-test,4,7934,0.0-4.0,voc_e2,12441,"[{""event"":""fullscreenenter"",""trial"":1,""time"":1528}]",NA,NA,static/audio/shark.wav,NA,2,NA,NA,NA,NA,NA,NA,NA,NA,NA,NA,NA,NA,NA,NA,NA,NA,NA,NA,NA,NA,NA,NA,NA,NA,NA
audio-instructions,5,14735,0.0-5.0-0.0,voc_e2,12441,"[{""event"":""fullscreenenter"",""trial"":1,""time"":1528}]",NA,1011.0999999046326,static/audio/instructions1.wav,NA,0,NA,NA,NA,NA,NA,NA,NA,NA,NA,NA,NA,NA,NA,NA,NA,NA,NA,NA,NA,NA,NA,NA,NA,NA,NA
audio-instructions,6,25382,0.0-5.0-1.0,voc_e2,12441,"[{""event"":""fullscreenenter"",""trial"":1,""time"":1528}]",NA,3905.5,static/audio/instructions2.wav,NA,0,NA,NA,NA,NA,NA,NA,NA,NA,NA,NA,NA,NA,NA,NA,NA,NA,NA,NA,NA,NA,NA,NA,NA,NA,NA
audio-instructions,7,32101,0.0-5.0-2.0,voc_e2,12441,"[{""event"":""fullscreenenter"",""trial"":1,""time"":1528}]",NA,916.7000000476836,static/audio/instructions3.wav,NA,0,NA,NA,NA,NA,NA,NA,NA,NA,NA,NA,NA,NA,NA,NA,NA,NA,NA,NA,NA,NA,NA,NA,NA,NA,NA
audio-instructions,8,48067,0.0-5.0-3.0,voc_e2,12441,"[{""event"":""fullscreenenter"",""trial"":1,""time"":1528}]",NA,2738.900000095367,static/audio/instructions4.wav,NA,0,NA,NA,NA,NA,NA,NA,NA,NA,NA,NA,NA,NA,NA,NA,NA,NA,NA,NA,NA,NA,NA,NA,NA,NA,NA
audio-instructions,9,58134,0.0-5.0-4.0,voc_e2,12441,"[{""event"":""fullscreenenter"",""trial"":1,""time"":1528}]",NA,678,static/audio/instructions5.wav,NA,0,NA,NA,NA,NA,NA,NA,NA,NA,NA,NA,NA,NA,NA,NA,NA,NA,NA,NA,NA,NA,NA,NA,NA,NA,NA
fcp-practice,10,60863,0.0-5.0-5.0-0.0,voc_e2,12441,"[{""event"":""fullscreenenter"",""trial"":1,""time"":1528}]",NA,NA,NA,NA,NA,NA,#EDC948,#46d3c8,10,0,1,null,null,null,37,1,1215,10,1,practice,NA,NA,NA,NA,NA,NA,NA,NA,NA,NA
fcp-practice,11,62690,0.0-5.0-5.0-1.0,voc_e2,12441,"[{""event"":""fullscreenenter"",""trial"":1,""time"":1528}]",NA,NA,NA,NA,NA,NA,#EDC948,#46d3c8,10,0,1,null,null,null,37,1,320.2999999523163,10,1,practice,NA,NA,NA,NA,NA,NA,NA,NA,NA,NA
fcp-practice,12,64511,0.0-5.0-5.0-2.0,voc_e2,12441,"[{""event"":""fullscreenenter"",""trial"":1,""time"":1528}]",NA,NA,NA,NA,NA,NA,#EDC948,#46d3c8,0,10,1,null,null,null,37,1,315.40000009536743,0,1,practice,NA,NA,NA,NA,NA,NA,NA,NA,NA,NA
fcp-practice,13,66350,0.0-5.0-5.0-3.0,voc_e2,12441,"[{""event"":""fullscreenenter"",""trial"":1,""time"":1528}]",NA,NA,NA,NA,NA,NA,#EDC948,#46d3c8,10,0,1,null,null,null,37,1,333.69999980926514,10,1,practice,NA,NA,NA,NA,NA,NA,NA,NA,NA,NA
fcp-practice,14,68236,0.0-5.0-5.0-4.0,voc_e2,12441,"[{""event"":""fullscreenenter"",""trial"":1,""time"":1528}]",NA,NA,NA,NA,NA,NA,#EDC948,#46d3c8,10,0,1,null,null,null,37,1,381.7000000476837,10,1,practice,NA,NA,NA,NA,NA,NA,NA,NA,NA,NA
audio-instructions,15,86715,0.0-5.0-6.0,voc_e2,12441,"[{""event"":""fullscreenenter"",""trial"":1,""time"":1528}]",NA,476.39999985694885,static/audio/instructions6.wav,NA,0,NA,NA,NA,NA,NA,NA,NA,NA,NA,NA,NA,NA,NA,NA,NA,NA,NA,NA,NA,NA,NA,NA,NA,NA,NA
audio-instructions,16,106702,0.0-5.0-7.0,voc_e2,12441,"[{""event"":""fullscreenenter"",""trial"":1,""time"":1528}]",NA,788.5,static/audio/instructions7.wav,NA,0,NA,NA,NA,NA,NA,NA,NA,NA,NA,NA,NA,NA,NA,NA,NA,NA,NA,NA,NA,NA,NA,NA,NA,NA,NA
audio-instructions,17,116601,0.0-5.0-8.0,voc_e2,12441,"[{""event"":""fullscreenenter"",""trial"":1,""time"":1528}]",NA,426.7000000476837,static/audio/instructions8.wav,NA,0,NA,NA,NA,NA,NA,NA,NA,NA,NA,NA,NA,NA,NA,NA,NA,NA,NA,NA,NA,NA,NA,NA,NA,NA,NA
fcp-comprehension,18,125601,0.0-5.0-9.0,voc_e2,12441,"[{""event"":""fullscreenenter"",""trial"":1,""time"":1528}]",NA,8997.799999952316,NA,NA,NA,NA,NA,NA,NA,NA,NA,NA,NA,NA,NA,NA,NA,NA,NA,NA,"false,true",1,NA,NA,NA,NA,NA,NA,NA,NA
audio-instructions,19,131283,0.0-5.1-0.1,voc_e2,12441,"[{""event"":""fullscreenenter"",""trial"":1,""time"":1528}]",NA,900.5999999046326,static/audio/instructions1.wav,NA,0,NA,NA,NA,NA,NA,NA,NA,NA,NA,NA,NA,NA,NA,NA,NA,NA,NA,NA,NA,NA,NA,NA,NA,NA,NA
audio-instructions,20,139333,0.0-5.1-1.1,voc_e2,12441,"[{""event"":""fullscreenenter"",""trial"":1,""time"":1528}]",NA,1309.3999998569489,static/audio/instructions2.wav,NA,0,NA,NA,NA,NA,NA,NA,NA,NA,NA,NA,NA,NA,NA,NA,NA,NA,NA,NA,NA,NA,NA,NA,NA,NA,NA
audio-instructions,21,145533,0.0-5.1-2.1,voc_e2,12441,"[{""event"":""fullscreenenter"",""trial"":1,""time"":1528}]",NA,399.7999999523163,static/audio/instructions3.wav,NA,0,NA,NA,NA,NA,NA,NA,NA,NA,NA,NA,NA,NA,NA,NA,NA,NA,NA,NA,NA,NA,NA,NA,NA,NA,NA
audio-instructions,22,159516,0.0-5.1-3.1,voc_e2,12441,"[{""event"":""fullscreenenter"",""trial"":1,""time"":1528}]",NA,756.1000001430511,static/audio/instructions4.wav,NA,0,NA,NA,NA,NA,NA,NA,NA,NA,NA,NA,NA,NA,NA,NA,NA,NA,NA,NA,NA,NA,NA,NA,NA,NA,NA
audio-instructions,23,169700,0.0-5.1-4.1,voc_e2,12441,"[{""event"":""fullscreenenter"",""trial"":1,""time"":1528}]",NA,796.7999999523163,static/audio/instructions5.wav,NA,0,NA,NA,NA,NA,NA,NA,NA,NA,NA,NA,NA,NA,NA,NA,NA,NA,NA,NA,NA,NA,NA,NA,NA,NA,NA
fcp-practice,24,172383,0.0-5.1-5.1-0.1,voc_e2,12441,"[{""event"":""fullscreenenter"",""trial"":1,""time"":1528}]",NA,NA,NA,NA,NA,NA,#EDC948,#46d3c8,10,0,1,null,null,null,37,1,1177.3000001907349,10,1,practice,NA,NA,NA,NA,NA,NA,NA,NA,NA,NA
fcp-practice,25,174172,0.0-5.1-5.1-1.1,voc_e2,12441,"[{""event"":""fullscreenenter"",""trial"":1,""time"":1528}]",NA,NA,NA,NA,NA,NA,#EDC948,#46d3c8,10,0,1,null,null,null,37,1,283.7999999523163,10,1,practice,NA,NA,NA,NA,NA,NA,NA,NA,NA,NA
fcp-practice,26,175983,0.0-5.1-5.1-2.1,voc_e2,12441,"[{""event"":""fullscreenenter"",""trial"":1,""time"":1528}]",NA,NA,NA,NA,NA,NA,#EDC948,#46d3c8,0,10,1,null,null,null,37,1,307.2000000476837,0,1,practice,NA,NA,NA,NA,NA,NA,NA,NA,NA,NA
fcp-practice,27,177793,0.0-5.1-5.1-3.1,voc_e2,12441,"[{""event"":""fullscreenenter"",""trial"":1,""time"":1528}]",NA,NA,NA,NA,NA,NA,#EDC948,#46d3c8,10,0,1,null,null,null,37,1,307.89999985694885,10,1,practice,NA,NA,NA,NA,NA,NA,NA,NA,NA,NA
fcp-practice,28,179633,0.0-5.1-5.1-4.1,voc_e2,12441,"[{""event"":""fullscreenenter"",""trial"":1,""time"":1528}]",NA,NA,NA,NA,NA,NA,#EDC948,#46d3c8,10,0,1,null,null,null,37,1,334.60000014305115,10,1,practice,NA,NA,NA,NA,NA,NA,NA,NA,NA,NA
audio-instructions,29,198413,0.0-5.1-6.1,voc_e2,12441,"[{""event"":""fullscreenenter"",""trial"":1,""time"":1528}]",NA,774.4000000953674,static/audio/instructions6.wav,NA,0,NA,NA,NA,NA,NA,NA,NA,NA,NA,NA,NA,NA,NA,NA,NA,NA,NA,NA,NA,NA,NA,NA,NA,NA,NA
audio-instructions,30,218196,0.0-5.1-7.1,voc_e2,12441,"[{""event"":""fullscreenenter"",""trial"":1,""time"":1528}]",NA,584.4000000953674,static/audio/instructions7.wav,NA,0,NA,NA,NA,NA,NA,NA,NA,NA,NA,NA,NA,NA,NA,NA,NA,NA,NA,NA,NA,NA,NA,NA,NA,NA,NA
audio-instructions,31,228513,0.0-5.1-8.1,voc_e2,12441,"[{""event"":""fullscreenenter"",""trial"":1,""time"":1528},{""event"":""blur"",""trial"":31,""time"":223975},{""event"":""focus"",""trial"":31,""time"":227201}]",NA,842.9000000953674,static/audio/instructions8.wav,NA,0,NA,NA,NA,NA,NA,NA,NA,NA,NA,NA,NA,NA,NA,NA,NA,NA,NA,NA,NA,NA,NA,NA,NA,NA,NA
fcp-comprehension,32,235147,0.0-5.1-9.1,voc_e2,12441,"[{""event"":""fullscreenenter"",""trial"":1,""time"":1528},{""event"":""blur"",""trial"":31,""time"":223975},{""event"":""focus"",""trial"":31,""time"":227201}]",NA,6631.799999952316,NA,NA,NA,NA,NA,NA,NA,NA,NA,NA,NA,NA,NA,NA,NA,NA,NA,NA,"true,true",0,NA,NA,NA,NA,NA,NA,NA,NA
audio-instructions,33,241814,0.0-6.0-0.0,voc_e2,12441,"[{""event"":""fullscreenenter"",""trial"":1,""time"":1528},{""event"":""blur"",""trial"":31,""time"":223975},{""event"":""focus"",""trial"":31,""time"":227201}]",NA,1119.2999999523165,static/audio/instructions9.wav,NA,0,NA,NA,NA,NA,NA,NA,NA,NA,NA,NA,NA,NA,NA,NA,NA,NA,NA,NA,NA,NA,NA,NA,NA,NA,NA
audio-instructions,34,258019,0.0-6.0-1.0,voc_e2,12441,"[{""event"":""fullscreenenter"",""trial"":1,""time"":1528},{""event"":""blur"",""trial"":31,""time"":223975},{""event"":""focus"",""trial"":31,""time"":227201}]",NA,4088.299999952316,static/audio/instructions10.wav,NA,0,NA,NA,NA,NA,NA,NA,NA,NA,NA,NA,NA,NA,NA,NA,NA,NA,NA,NA,NA,NA,NA,NA,NA,NA,NA
fcp-trial,35,263950,0.0-6.0-2.0,voc_e2,12441,"[{""event"":""fullscreenenter"",""trial"":1,""time"":1528},{""event"":""blur"",""trial"":31,""time"":223975},{""event"":""focus"",""trial"":31,""time"":227201}]",NA,NA,NA,NA,NA,0,#EDC948,#46d3c8,10,10,1,38,1,2806.2000000476837,37,1,1612.5,10,1,practice,NA,NA,NA,NA,NA,NA,NA,NA,NA,NA
audio-instructions,36,275382,0.0-6.0-3.0,voc_e2,12441,"[{""event"":""fullscreenenter"",""trial"":1,""time"":1528},{""event"":""blur"",""trial"":31,""time"":223975},{""event"":""focus"",""trial"":31,""time"":227201}]",NA,421.7999999523163,static/audio/instructions11.wav,NA,0,NA,NA,NA,NA,NA,NA,NA,NA,NA,NA,NA,NA,NA,NA,NA,NA,NA,NA,NA,NA,NA,NA,NA,NA,NA
fcp-trial,37,279534,0.0-6.0-4.0,voc_e2,12441,"[{""event"":""fullscreenenter"",""trial"":1,""time"":1528},{""event"":""blur"",""trial"":31,""time"":223975},{""event"":""focus"",""trial"":31,""time"":227201}]",NA,NA,NA,NA,NA,6,#EDC948,#46d3c8,10,10,1,40,0,1461.8999998569489,39,0,1181.8999998569489,10,0,practice,NA,NA,NA,NA,NA,NA,NA,NA,NA,NA
audio-instructions,38,298613,0.0-6.0-5.0,voc_e2,12441,"[{""event"":""fullscreenenter"",""trial"":1,""time"":1528},{""event"":""blur"",""trial"":31,""time"":223975},{""event"":""focus"",""trial"":31,""time"":227201}]",NA,389.59999990463257,static/audio/instructions12.wav,NA,0,NA,NA,NA,NA,NA,NA,NA,NA,NA,NA,NA,NA,NA,NA,NA,NA,NA,NA,NA,NA,NA,NA,NA,NA,NA
audio-instructions,39,306611,0.0-6.0-6.0,voc_e2,12441,"[{""event"":""fullscreenenter"",""trial"":1,""time"":1528},{""event"":""blur"",""trial"":31,""time"":223975},{""event"":""focus"",""trial"":31,""time"":227201}]",NA,403.7000000476837,static/audio/instructions13.wav,NA,0,NA,NA,NA,NA,NA,NA,NA,NA,NA,NA,NA,NA,NA,NA,NA,NA,NA,NA,NA,NA,NA,NA,NA,NA,NA
audio-instructions,40,315444,0.0-6.0-7.0,voc_e2,12441,"[{""event"":""fullscreenenter"",""trial"":1,""time"":1528},{""event"":""blur"",""trial"":31,""time"":223975},{""event"":""focus"",""trial"":31,""time"":227201}]",NA,384.10000014305115,static/audio/instructions14.wav,NA,0,NA,NA,NA,NA,NA,NA,NA,NA,NA,NA,NA,NA,NA,NA,NA,NA,NA,NA,NA,NA,NA,NA,NA,NA,NA
audio-instructions,41,322762,0.0-7.0-0.0,voc_e2,12441,"[{""event"":""fullscreenenter"",""trial"":1,""time"":1528},{""event"":""blur"",""trial"":31,""time"":223975},{""event"":""focus"",""trial"":31,""time"":227201}]",NA,405.7000000476837,static/audio/instructions15.wav,NA,0,NA,NA,NA,NA,NA,NA,NA,NA,NA,NA,NA,NA,NA,NA,NA,NA,NA,NA,NA,NA,NA,NA,NA,NA,NA
audio-instructions,42,330394,0.0-7.0-1.0,voc_e2,12441,"[{""event"":""fullscreenenter"",""trial"":1,""time"":1528},{""event"":""blur"",""trial"":31,""time"":223975},{""event"":""focus"",""trial"":31,""time"":227201}]",NA,806.2999999523163,static/audio/instructions16.wav,NA,0,NA,NA,NA,NA,NA,NA,NA,NA,NA,NA,NA,NA,NA,NA,NA,NA,NA,NA,NA,NA,NA,NA,NA,NA,NA
audio-instructions,43,338480,0.0-7.0-2.0,voc_e2,12441,"[{""event"":""fullscreenenter"",""trial"":1,""time"":1528},{""event"":""blur"",""trial"":31,""time"":223975},{""event"":""focus"",""trial"":31,""time"":227201}]",NA,406.7999999523163,static/audio/instructions17.wav,NA,0,NA,NA,NA,NA,NA,NA,NA,NA,NA,NA,NA,NA,NA,NA,NA,NA,NA,NA,NA,NA,NA,NA,NA,NA,NA
audio-instructions,44,362462,0.0-7.0-3.0,voc_e2,12441,"[{""event"":""fullscreenenter"",""trial"":1,""time"":1528},{""event"":""blur"",""trial"":31,""time"":223975},{""event"":""focus"",""trial"":31,""time"":227201}]",NA,16219.799999952316,static/audio/instructions18.wav,NA,0,NA,NA,NA,NA,NA,NA,NA,NA,NA,NA,NA,NA,NA,NA,NA,NA,NA,NA,NA,NA,NA,NA,NA,NA,NA
audio-instructions,45,369596,0.0-7.0-4.0,voc_e2,12441,"[{""event"":""fullscreenenter"",""trial"":1,""time"":1528},{""event"":""blur"",""trial"":31,""time"":223975},{""event"":""focus"",""trial"":31,""time"":227201}]",NA,392,static/audio/instructions19.wav,NA,0,NA,NA,NA,NA,NA,NA,NA,NA,NA,NA,NA,NA,NA,NA,NA,NA,NA,NA,NA,NA,NA,NA,NA,NA,NA
fcp-comprehension,46,380528,0.0-7.0-5.0,voc_e2,12441,"[{""event"":""fullscreenenter"",""trial"":1,""time"":1528},{""event"":""blur"",""trial"":31,""time"":223975},{""event"":""focus"",""trial"":31,""time"":227201}]",NA,10930.5,NA,NA,NA,NA,NA,NA,NA,NA,NA,NA,NA,NA,NA,NA,NA,NA,NA,NA,"false,false,false,true",0,NA,NA,NA,NA,NA,NA,NA,NA
audio-instructions,47,390261,0.0-8.0,voc_e2,12441,"[{""event"":""fullscreenenter"",""trial"":1,""time"":1528},{""event"":""blur"",""trial"":31,""time"":223975},{""event"":""focus"",""trial"":31,""time"":227201}]",NA,513.6000001430511,static/audio/ready.wav,NA,0,NA,NA,NA,NA,NA,NA,NA,NA,NA,NA,NA,NA,NA,NA,NA,NA,NA,NA,NA,NA,NA,NA,NA,NA,NA
fcp-trial,48,395915,0.0-9.0-0.0,voc_e2,12441,"[{""event"":""fullscreenenter"",""trial"":1,""time"":1528},{""event"":""blur"",""trial"":31,""time"":223975},{""event"":""focus"",""trial"":31,""time"":227201}]",NA,NA,NA,NA,NA,6,#3386FF,#D89F1C,0,10,0,40,0,3071.9000000953674,39,0,1072.2999999523165,10,1,experiment,NA,NA,0,0.1,0.9,1,0,1,1,NA
fcp-trial,49,400469,0.0-10.0-0.0,voc_e2,12441,"[{""event"":""fullscreenenter"",""trial"":1,""time"":1528},{""event"":""blur"",""trial"":31,""time"":223975},{""event"":""focus"",""trial"":31,""time"":227201}]",NA,NA,NA,NA,NA,2,#1CD855,#FA92F8,10,0,1,40,0,2458.7000000476837,37,1,586.4000000953674,10,1,experiment,NA,NA,1,0.7,0.3,2,3,2,1,NA
fcp-trial,50,403961,0.0-11.0-0.0,voc_e2,12441,"[{""event"":""fullscreenenter"",""trial"":1,""time"":1528},{""event"":""blur"",""trial"":31,""time"":223975},{""event"":""focus"",""trial"":31,""time"":227201}]",NA,NA,NA,NA,NA,5,#741CD8,#D8271C,0,0,0,40,0,1313.3999998569489,37,1,670.5,0,0,experiment,NA,NA,2,0.5,0.5,5,4,3,1,NA
fcp-trial,51,406928,0.0-12.0-0.0,voc_e2,12441,"[{""event"":""fullscreenenter"",""trial"":1,""time"":1528},{""event"":""blur"",""trial"":31,""time"":223975},{""event"":""focus"",""trial"":31,""time"":227201}]",NA,NA,NA,NA,NA,3,#D89F1C,#3386FF,10,0,1,40,0,825.6999998092651,39,0,637.5,0,0,experiment,NA,NA,0,0.9,0.1,0,1,4,1,NA
fcp-trial,52,409843,0.0-13.0-0.0,voc_e2,12441,"[{""event"":""fullscreenenter"",""trial"":1,""time"":1528},{""event"":""blur"",""trial"":31,""time"":223975},{""event"":""focus"",""trial"":31,""time"":227201}]",NA,NA,NA,NA,NA,4,#741CD8,#D8271C,0,10,0,40,0,723.4000000953674,39,0,687,10,1,experiment,NA,NA,2,0.5,0.5,5,4,5,1,NA
fcp-trial,53,413054,0.0-14.0-0.0,voc_e2,12441,"[{""event"":""fullscreenenter"",""trial"":1,""time"":1528},{""event"":""blur"",""trial"":31,""time"":223975},{""event"":""focus"",""trial"":31,""time"":227201}]",NA,NA,NA,NA,NA,5,#FA92F8,#1CD855,0,0,0,38,1,1150.5,37,1,552.2999999523163,0,0,experiment,NA,NA,1,0.3,0.7,3,2,6,1,NA
fcp-trial,54,415778,0.0-15.0-0.0,voc_e2,12441,"[{""event"":""fullscreenenter"",""trial"":1,""time"":1528},{""event"":""blur"",""trial"":31,""time"":223975},{""event"":""focus"",""trial"":31,""time"":227201}]",NA,NA,NA,NA,NA,4,#1CD855,#FA92F8,0,0,1,40,0,610.9000000953674,39,0,606,0,0,experiment,NA,NA,1,0.7,0.3,2,3,7,1,NA
fcp-trial,55,419729,0.0-16.0-0.0,voc_e2,12441,"[{""event"":""fullscreenenter"",""trial"":1,""time"":1528},{""event"":""blur"",""trial"":31,""time"":223975},{""event"":""focus"",""trial"":31,""time"":227201}]",NA,NA,NA,NA,NA,1,#3386FF,#D89F1C,0,10,0,38,1,1495.2000000476837,37,1,950.1999998092653,0,0,experiment,NA,NA,0,0.1,0.9,1,0,8,1,NA
fcp-trial,56,423596,0.0-17.0-0.0,voc_e2,12441,"[{""event"":""fullscreenenter"",""trial"":1,""time"":1528},{""event"":""blur"",""trial"":31,""time"":223975},{""event"":""focus"",""trial"":31,""time"":227201}]",NA,NA,NA,NA,NA,0,#D8271C,#741CD8,10,10,1,38,1,1611.3000001907349,39,0,749.4000000953674,10,0,experiment,NA,NA,2,0.5,0.5,4,5,9,1,NA
fcp-trial,57,427454,0.0-18.0-0.0,voc_e2,12441,"[{""event"":""fullscreenenter"",""trial"":1,""time"":1528},{""event"":""blur"",""trial"":31,""time"":223975},{""event"":""focus"",""trial"":31,""time"":227201}]",NA,NA,NA,NA,NA,2,#741CD8,#D8271C,10,10,0,40,0,1621.5999999046326,39,0,728.4000000953674,10,1,experiment,NA,NA,2,0.5,0.5,5,4,10,1,NA
fcp-trial,58,430944,0.0-19.0-0.0,voc_e2,12441,"[{""event"":""fullscreenenter"",""trial"":1,""time"":1528},{""event"":""blur"",""trial"":31,""time"":223975},{""event"":""focus"",""trial"":31,""time"":227201}]",NA,NA,NA,NA,NA,4,#3386FF,#D89F1C,0,10,0,40,0,1385.8999998569489,39,0,596.3000001907349,10,1,experiment,NA,NA,0,0.1,0.9,1,0,11,1,NA
fcp-trial,59,434796,0.0-20.0-0.0,voc_e2,12441,"[{""event"":""fullscreenenter"",""trial"":1,""time"":1528},{""event"":""blur"",""trial"":31,""time"":223975},{""event"":""focus"",""trial"":31,""time"":227201}]",NA,NA,NA,NA,NA,0,#FA92F8,#1CD855,0,10,0,38,1,1938.4000000953674,39,0,408,10,1,experiment,NA,NA,1,0.3,0.7,3,2,12,1,NA
fcp-trial,60,438777,0.0-21.0-0.0,voc_e2,12441,"[{""event"":""fullscreenenter"",""trial"":1,""time"":1528},{""event"":""blur"",""trial"":31,""time"":223975},{""event"":""focus"",""trial"":31,""time"":227201}]",NA,NA,NA,NA,NA,3,#741CD8,#D8271C,0,0,0,40,0,1928.2999999523163,39,0,548,0,1,experiment,NA,NA,2,0.5,0.5,5,4,13,1,NA
fcp-trial,61,441862,0.0-22.0-0.0,voc_e2,12441,"[{""event"":""fullscreenenter"",""trial"":1,""time"":1528},{""event"":""blur"",""trial"":31,""time"":223975},{""event"":""focus"",""trial"":31,""time"":227201}]",NA,NA,NA,NA,NA,6,#1CD855,#FA92F8,10,10,1,40,0,964.6999998092651,39,0,613.3999998569489,10,0,experiment,NA,NA,1,0.7,0.3,2,3,14,1,NA
fcp-trial,62,445028,0.0-23.0-0.0,voc_e2,12441,"[{""event"":""fullscreenenter"",""trial"":1,""time"":1528},{""event"":""blur"",""trial"":31,""time"":223975},{""event"":""focus"",""trial"":31,""time"":227201}]",NA,NA,NA,NA,NA,5,#D89F1C,#3386FF,10,0,1,40,0,1101.4000000953674,39,0,556.8999998569489,0,0,experiment,NA,NA,0,0.9,0.1,0,1,15,1,NA
fcp-trial,63,449738,0.0-24.0-0.0,voc_e2,12441,"[{""event"":""fullscreenenter"",""trial"":1,""time"":1528},{""event"":""blur"",""trial"":31,""time"":223975},{""event"":""focus"",""trial"":31,""time"":227201}]",NA,NA,NA,NA,NA,3,#FA92F8,#1CD855,0,10,0,40,0,2563.2000000476837,39,0,640.0999999046326,10,1,experiment,NA,NA,1,0.3,0.7,3,2,16,1,NA
fcp-trial,64,453413,0.0-25.0-0.0,voc_e2,12441,"[{""event"":""fullscreenenter"",""trial"":1,""time"":1528},{""event"":""blur"",""trial"":31,""time"":223975},{""event"":""focus"",""trial"":31,""time"":227201}]",NA,NA,NA,NA,NA,1,#741CD8,#D8271C,0,10,0,38,1,1616,37,1,550.0999999046326,0,0,experiment,NA,NA,2,0.5,0.5,5,4,17,1,NA
fcp-trial,65,456605,0.0-26.0-0.0,voc_e2,12441,"[{""event"":""fullscreenenter"",""trial"":1,""time"":1528},{""event"":""blur"",""trial"":31,""time"":223975},{""event"":""focus"",""trial"":31,""time"":227201}]",NA,NA,NA,NA,NA,0,#D89F1C,#3386FF,10,10,1,38,1,1260.5,39,0,420.60000014305115,10,0,experiment,NA,NA,0,0.9,0.1,0,1,18,1,NA
fcp-trial,66,459978,0.0-27.0-0.0,voc_e2,12441,"[{""event"":""fullscreenenter"",""trial"":1,""time"":1528},{""event"":""blur"",""trial"":31,""time"":223975},{""event"":""focus"",""trial"":31,""time"":227201}]",NA,NA,NA,NA,NA,2,#3386FF,#D89F1C,0,10,0,38,1,873,39,0,990.3999998569489,10,1,experiment,NA,NA,0,0.1,0.9,1,0,19,1,NA
fcp-trial,67,463311,0.0-28.0-0.0,voc_e2,12441,"[{""event"":""fullscreenenter"",""trial"":1,""time"":1528},{""event"":""blur"",""trial"":31,""time"":223975},{""event"":""focus"",""trial"":31,""time"":227201}]",NA,NA,NA,NA,NA,6,#D8271C,#741CD8,0,10,1,40,0,1147.5,39,0,678.7999999523163,10,0,experiment,NA,NA,2,0.5,0.5,4,5,20,1,NA
fcp-trial,68,466908,0.0-29.0-0.0,voc_e2,12441,"[{""event"":""fullscreenenter"",""trial"":1,""time"":1528},{""event"":""blur"",""trial"":31,""time"":223975},{""event"":""focus"",""trial"":31,""time"":227201}]",NA,NA,NA,NA,NA,1,#FA92F8,#1CD855,0,10,0,38,1,1660.6999998092651,39,0,430.7000000476837,10,1,experiment,NA,NA,1,0.3,0.7,3,2,21,1,NA
fcp-trial,69,470346,0.0-30.0-0.0,voc_e2,12441,"[{""event"":""fullscreenenter"",""trial"":1,""time"":1528},{""event"":""blur"",""trial"":31,""time"":223975},{""event"":""focus"",""trial"":31,""time"":227201}]",NA,NA,NA,NA,NA,6,#FA92F8,#1CD855,0,0,0,40,0,1405.1000001430511,39,0,524.5,0,1,experiment,NA,NA,1,0.3,0.7,3,2,22,1,NA
fcp-trial,70,473634,0.0-31.0-0.0,voc_e2,12441,"[{""event"":""fullscreenenter"",""trial"":1,""time"":1528},{""event"":""blur"",""trial"":31,""time"":223975},{""event"":""focus"",""trial"":31,""time"":227201}]",NA,NA,NA,NA,NA,1,#1CD855,#FA92F8,10,10,1,38,1,1313.6999998092651,37,1,464.80000019073486,10,1,experiment,NA,NA,1,0.7,0.3,2,3,23,1,NA
fcp-trial,71,476628,0.0-32.0-0.0,voc_e2,12441,"[{""event"":""fullscreenenter"",""trial"":1,""time"":1528},{""event"":""blur"",""trial"":31,""time"":223975},{""event"":""focus"",""trial"":31,""time"":227201}]",NA,NA,NA,NA,NA,0,#D89F1C,#3386FF,10,0,1,38,1,1047.1000001430511,37,1,440.2999999523163,10,1,experiment,NA,NA,0,0.9,0.1,0,1,24,1,NA
fcp-trial,72,480731,0.0-33.0-0.0,voc_e2,12441,"[{""event"":""fullscreenenter"",""trial"":1,""time"":1528},{""event"":""blur"",""trial"":31,""time"":223975},{""event"":""focus"",""trial"":31,""time"":227201}]",NA,NA,NA,NA,NA,2,#741CD8,#D8271C,0,0,0,40,0,1994.2999999523163,39,0,601.6999998092651,0,1,experiment,NA,NA,2,0.5,0.5,5,4,25,1,NA
fcp-trial,73,483736,0.0-34.0-0.0,voc_e2,12441,"[{""event"":""fullscreenenter"",""trial"":1,""time"":1528},{""event"":""blur"",""trial"":31,""time"":223975},{""event"":""focus"",""trial"":31,""time"":227201}]",NA,NA,NA,NA,NA,4,#D8271C,#741CD8,10,0,1,40,0,874.2000000476837,39,0,621.8999998569489,0,0,experiment,NA,NA,2,0.5,0.5,4,5,26,1,NA
fcp-trial,74,486461,0.0-35.0-0.0,voc_e2,12441,"[{""event"":""fullscreenenter"",""trial"":1,""time"":1528},{""event"":""blur"",""trial"":31,""time"":223975},{""event"":""focus"",""trial"":31,""time"":227201}]",NA,NA,NA,NA,NA,6,#3386FF,#D89F1C,0,10,0,40,0,640.7999999523163,37,1,575.8999998569489,0,0,experiment,NA,NA,0,0.1,0.9,1,0,27,1,NA
fcp-trial,75,488743,0.0-36.0-0.0,voc_e2,12441,"[{""event"":""fullscreenenter"",""trial"":1,""time"":1528},{""event"":""blur"",""trial"":31,""time"":223975},{""event"":""focus"",""trial"":31,""time"":227201}]",NA,NA,NA,NA,NA,0,#FA92F8,#1CD855,10,0,0,38,1,312,39,0,463.5,0,1,experiment,NA,NA,1,0.3,0.7,3,2,28,1,NA
fcp-trial,76,492455,0.0-37.0-0.0,voc_e2,12441,"[{""event"":""fullscreenenter"",""trial"":1,""time"":1528},{""event"":""blur"",""trial"":31,""time"":223975},{""event"":""focus"",""trial"":31,""time"":227201}]",NA,NA,NA,NA,NA,2,#1CD855,#FA92F8,0,0,1,38,1,1719.7999999523163,37,1,484.2999999523163,0,1,experiment,NA,NA,1,0.7,0.3,2,3,29,1,NA
fcp-trial,77,496127,0.0-38.0-0.0,voc_e2,12441,"[{""event"":""fullscreenenter"",""trial"":1,""time"":1528},{""event"":""blur"",""trial"":31,""time"":223975},{""event"":""focus"",""trial"":31,""time"":227201}]",NA,NA,NA,NA,NA,4,#3386FF,#D89F1C,0,10,0,40,0,1333,37,1,832.2999999523163,0,0,experiment,NA,NA,0,0.1,0.9,1,0,30,1,NA
fcp-trial,78,499085,0.0-39.0-0.0,voc_e2,12441,"[{""event"":""fullscreenenter"",""trial"":1,""time"":1528},{""event"":""blur"",""trial"":31,""time"":223975},{""event"":""focus"",""trial"":31,""time"":227201}]",NA,NA,NA,NA,NA,3,#D8271C,#741CD8,10,0,1,40,0,1032.9000000953674,39,0,416.2000000476837,0,0,experiment,NA,NA,2,0.5,0.5,4,5,31,1,NA
fcp-trial,79,502335,0.0-40.0-0.0,voc_e2,12441,"[{""event"":""fullscreenenter"",""trial"":1,""time"":1528},{""event"":""blur"",""trial"":31,""time"":223975},{""event"":""focus"",""trial"":31,""time"":227201}]",NA,NA,NA,NA,NA,5,#D89F1C,#3386FF,10,0,1,40,0,1153.7000000476837,39,0,587.0999999046326,0,0,experiment,NA,NA,0,0.9,0.1,0,1,32,1,NA
fcp-trial,80,505455,0.0-41.0-0.0,voc_e2,12441,"[{""event"":""fullscreenenter"",""trial"":1,""time"":1528},{""event"":""blur"",""trial"":31,""time"":223975},{""event"":""focus"",""trial"":31,""time"":227201}]",NA,NA,NA,NA,NA,4,#FA92F8,#1CD855,10,10,0,40,0,1146,37,1,468.89999985694885,10,0,experiment,NA,NA,1,0.3,0.7,3,2,33,1,NA
fcp-trial,81,509097,0.0-42.0-0.0,voc_e2,12441,"[{""event"":""fullscreenenter"",""trial"":1,""time"":1528},{""event"":""blur"",""trial"":31,""time"":223975},{""event"":""focus"",""trial"":31,""time"":227201}]",NA,NA,NA,NA,NA,3,#3386FF,#D89F1C,0,10,0,40,0,1518,39,0,617.2000000476837,10,1,experiment,NA,NA,0,0.1,0.9,1,0,34,1,NA
fcp-trial,82,513187,0.0-43.0-0.0,voc_e2,12441,"[{""event"":""fullscreenenter"",""trial"":1,""time"":1528},{""event"":""blur"",""trial"":31,""time"":223975},{""event"":""focus"",""trial"":31,""time"":227201}]",NA,NA,NA,NA,NA,5,#FA92F8,#1CD855,0,10,0,40,0,1741,37,1,841.0999999046326,0,0,experiment,NA,NA,1,0.3,0.7,3,2,35,1,NA
fcp-trial,83,516321,0.0-44.0-0.0,voc_e2,12441,"[{""event"":""fullscreenenter"",""trial"":1,""time"":1528},{""event"":""blur"",""trial"":31,""time"":223975},{""event"":""focus"",""trial"":31,""time"":227201}]",NA,NA,NA,NA,NA,5,#741CD8,#D8271C,10,0,0,38,1,1142.8999998569489,37,1,481.5,10,0,experiment,NA,NA,2,0.5,0.5,5,4,36,1,NA
fcp-trial,84,519626,0.0-45.0-0.0,voc_e2,12441,"[{""event"":""fullscreenenter"",""trial"":1,""time"":1528},{""event"":""blur"",""trial"":31,""time"":223975},{""event"":""focus"",""trial"":31,""time"":227201}]",NA,NA,NA,NA,NA,1,#741CD8,#D8271C,0,0,0,38,1,1415.1000001430511,39,0,382.09999990463257,0,1,experiment,NA,NA,2,0.5,0.5,5,4,37,1,NA
fcp-trial,85,522400,0.0-46.0-0.0,voc_e2,12441,"[{""event"":""fullscreenenter"",""trial"":1,""time"":1528},{""event"":""blur"",""trial"":31,""time"":223975},{""event"":""focus"",""trial"":31,""time"":227201}]",NA,NA,NA,NA,NA,2,#3386FF,#D89F1C,0,10,0,40,0,794.5,37,1,470.90000009536743,0,0,experiment,NA,NA,0,0.1,0.9,1,0,38,1,NA
fcp-trial,86,525114,0.0-47.0-0.0,voc_e2,12441,"[{""event"":""fullscreenenter"",""trial"":1,""time"":1528},{""event"":""blur"",""trial"":31,""time"":223975},{""event"":""focus"",""trial"":31,""time"":227201}]",NA,NA,NA,NA,NA,3,#FA92F8,#1CD855,0,0,0,40,0,636.9000000953674,37,1,569.2000000476837,0,0,experiment,NA,NA,1,0.3,0.7,3,2,39,1,NA
fcp-trial,87,527729,0.0-48.0-0.0,voc_e2,12441,"[{""event"":""fullscreenenter"",""trial"":1,""time"":1528},{""event"":""blur"",""trial"":31,""time"":223975},{""event"":""focus"",""trial"":31,""time"":227201}]",NA,NA,NA,NA,NA,6,#741CD8,#D8271C,10,10,0,40,0,748.8999998569489,39,0,358.7000000476837,10,1,experiment,NA,NA,2,0.5,0.5,5,4,40,1,NA
fcp-trial,88,530822,0.0-49.0-0.0,voc_e2,12441,"[{""event"":""fullscreenenter"",""trial"":1,""time"":1528},{""event"":""blur"",""trial"":31,""time"":223975},{""event"":""focus"",""trial"":31,""time"":227201}]",NA,NA,NA,NA,NA,1,#D89F1C,#3386FF,10,0,1,40,0,1095.0999999046326,37,1,489.40000009536743,10,1,experiment,NA,NA,0,0.9,0.1,0,1,41,1,NA
fcp-trial,89,533944,0.0-50.0-0.0,voc_e2,12441,"[{""event"":""fullscreenenter"",""trial"":1,""time"":1528},{""event"":""blur"",""trial"":31,""time"":223975},{""event"":""focus"",""trial"":31,""time"":227201}]",NA,NA,NA,NA,NA,0,#D8271C,#741CD8,10,0,1,38,1,1209.2000000476837,39,0,405.60000014305115,0,0,experiment,NA,NA,2,0.5,0.5,4,5,42,1,NA
fcp-trial,90,536945,0.0-51.0-0.0,voc_e2,12441,"[{""event"":""fullscreenenter"",""trial"":1,""time"":1528},{""event"":""blur"",""trial"":31,""time"":223975},{""event"":""focus"",""trial"":31,""time"":227201}]",NA,NA,NA,NA,NA,6,#D89F1C,#3386FF,10,0,1,40,0,1009,37,1,484.2999999523163,10,1,experiment,NA,NA,0,0.9,0.1,0,1,43,1,NA
fcp-trial,91,540384,0.0-52.0-0.0,voc_e2,12441,"[{""event"":""fullscreenenter"",""trial"":1,""time"":1528},{""event"":""blur"",""trial"":31,""time"":223975},{""event"":""focus"",""trial"":31,""time"":227201}]",NA,NA,NA,NA,NA,0,#3386FF,#D89F1C,0,10,0,38,1,1491.2000000476837,39,0,440.10000014305115,10,1,experiment,NA,NA,0,0.1,0.9,1,0,44,1,NA
fcp-trial,92,543611,0.0-53.0-0.0,voc_e2,12441,"[{""event"":""fullscreenenter"",""trial"":1,""time"":1528},{""event"":""blur"",""trial"":31,""time"":223975},{""event"":""focus"",""trial"":31,""time"":227201}]",NA,NA,NA,NA,NA,4,#741CD8,#D8271C,10,0,0,40,0,936.2000000476837,39,0,783.4000000953674,0,1,experiment,NA,NA,2,0.5,0.5,5,4,45,1,NA
fcp-trial,93,546763,0.0-54.0-0.0,voc_e2,12441,"[{""event"":""fullscreenenter"",""trial"":1,""time"":1528},{""event"":""blur"",""trial"":31,""time"":223975},{""event"":""focus"",""trial"":31,""time"":227201}]",NA,NA,NA,NA,NA,1,#1CD855,#FA92F8,0,0,1,38,1,1115.7000000476837,37,1,528,0,1,experiment,NA,NA,1,0.7,0.3,2,3,46,2,NA
fcp-trial,94,549777,0.0-55.0-0.0,voc_e2,12441,"[{""event"":""fullscreenenter"",""trial"":1,""time"":1528},{""event"":""blur"",""trial"":31,""time"":223975},{""event"":""focus"",""trial"":31,""time"":227201}]",NA,NA,NA,NA,NA,5,#FA92F8,#1CD855,0,0,0,40,0,1009.3000001907349,37,1,494.7999999523163,0,0,experiment,NA,NA,1,0.3,0.7,3,2,47,2,NA
fcp-trial,95,552520,0.0-56.0-0.0,voc_e2,12441,"[{""event"":""fullscreenenter"",""trial"":1,""time"":1528},{""event"":""blur"",""trial"":31,""time"":223975},{""event"":""focus"",""trial"":31,""time"":227201}]",NA,NA,NA,NA,NA,4,#D89F1C,#3386FF,10,0,1,40,0,815.4000000953674,39,0,412,0,0,experiment,NA,NA,0,0.9,0.1,0,1,48,2,NA
fcp-trial,96,555177,0.0-57.0-0.0,voc_e2,12441,"[{""event"":""fullscreenenter"",""trial"":1,""time"":1528},{""event"":""blur"",""trial"":31,""time"":223975},{""event"":""focus"",""trial"":31,""time"":227201}]",NA,NA,NA,NA,NA,3,#3386FF,#D89F1C,0,10,0,40,0,705.5999999046326,37,1,439,0,0,experiment,NA,NA,0,0.1,0.9,1,0,49,2,NA
fcp-trial,97,558163,0.0-58.0-0.0,voc_e2,12441,"[{""event"":""fullscreenenter"",""trial"":1,""time"":1528},{""event"":""blur"",""trial"":31,""time"":223975},{""event"":""focus"",""trial"":31,""time"":227201}]",NA,NA,NA,NA,NA,5,#D8271C,#741CD8,0,10,1,40,0,899.2000000476837,39,0,572.5,10,0,experiment,NA,NA,2,0.5,0.5,4,5,50,2,NA
fcp-trial,98,560769,0.0-59.0-0.0,voc_e2,12441,"[{""event"":""fullscreenenter"",""trial"":1,""time"":1528},{""event"":""blur"",""trial"":31,""time"":223975},{""event"":""focus"",""trial"":31,""time"":227201}]",NA,NA,NA,NA,NA,2,#FA92F8,#1CD855,0,0,0,40,0,589.3999998569489,37,1,505.7000000476837,0,0,experiment,NA,NA,1,0.3,0.7,3,2,51,2,NA
fcp-trial,99,563774,0.0-60.0-0.0,voc_e2,12441,"[{""event"":""fullscreenenter"",""trial"":1,""time"":1528},{""event"":""blur"",""trial"":31,""time"":223975},{""event"":""focus"",""trial"":31,""time"":227201}]",NA,NA,NA,NA,NA,0,#741CD8,#D8271C,0,0,0,38,1,1016.8000001907349,39,0,475.7999999523163,0,1,experiment,NA,NA,2,0.5,0.5,5,4,52,2,NA
fcp-trial,100,566466,0.0-61.0-0.0,voc_e2,12441,"[{""event"":""fullscreenenter"",""trial"":1,""time"":1528},{""event"":""blur"",""trial"":31,""time"":223975},{""event"":""focus"",""trial"":31,""time"":227201}]",NA,NA,NA,NA,NA,1,#D8271C,#741CD8,10,0,1,38,1,767.5999999046326,37,1,413.7999999523163,10,1,experiment,NA,NA,2,0.5,0.5,4,5,53,2,NA
fcp-trial,101,569563,0.0-62.0-0.0,voc_e2,12441,"[{""event"":""fullscreenenter"",""trial"":1,""time"":1528},{""event"":""blur"",""trial"":31,""time"":223975},{""event"":""focus"",""trial"":31,""time"":227201}]",NA,NA,NA,NA,NA,1,#3386FF,#D89F1C,0,10,0,38,1,1068.7000000476837,39,0,515.6999998092651,10,1,experiment,NA,NA,0,0.1,0.9,1,0,54,2,NA
fcp-trial,102,572545,0.0-63.0-0.0,voc_e2,12441,"[{""event"":""fullscreenenter"",""trial"":1,""time"":1528},{""event"":""blur"",""trial"":31,""time"":223975},{""event"":""focus"",""trial"":31,""time"":227201}]",NA,NA,NA,NA,NA,0,#1CD855,#FA92F8,10,0,1,38,1,910.2999999523163,37,1,562.6000001430511,10,1,experiment,NA,NA,1,0.7,0.3,2,3,55,2,NA
fcp-trial,103,575691,0.0-64.0-0.0,voc_e2,12441,"[{""event"":""fullscreenenter"",""trial"":1,""time"":1528},{""event"":""blur"",""trial"":31,""time"":223975},{""event"":""focus"",""trial"":31,""time"":227201}]",NA,NA,NA,NA,NA,6,#741CD8,#D8271C,10,0,0,40,0,879.2999999523163,39,0,757.2000000476837,0,1,experiment,NA,NA,2,0.5,0.5,5,4,56,2,NA
fcp-trial,104,578976,0.0-65.0-0.0,voc_e2,12441,"[{""event"":""fullscreenenter"",""trial"":1,""time"":1528},{""event"":""blur"",""trial"":31,""time"":223975},{""event"":""focus"",""trial"":31,""time"":227201}]",NA,NA,NA,NA,NA,3,#FA92F8,#1CD855,10,0,0,40,0,1183.3999998569489,37,1,589.9000000953674,10,0,experiment,NA,NA,1,0.3,0.7,3,2,57,2,NA
fcp-trial,105,582270,0.0-66.0-0.0,voc_e2,12441,"[{""event"":""fullscreenenter"",""trial"":1,""time"":1528},{""event"":""blur"",""trial"":31,""time"":223975},{""event"":""focus"",""trial"":31,""time"":227201}]",NA,NA,NA,NA,NA,2,#D89F1C,#3386FF,10,0,1,40,0,877.7000000476837,37,1,904.7000000476836,10,1,experiment,NA,NA,0,0.9,0.1,0,1,58,2,NA
fcp-trial,106,585121,0.0-67.0-0.0,voc_e2,12441,"[{""event"":""fullscreenenter"",""trial"":1,""time"":1528},{""event"":""blur"",""trial"":31,""time"":223975},{""event"":""focus"",""trial"":31,""time"":227201}]",NA,NA,NA,NA,NA,2,#741CD8,#D8271C,10,10,0,40,0,703,39,0,639.1000001430511,10,1,experiment,NA,NA,2,0.5,0.5,5,4,59,2,NA
fcp-trial,107,587741,0.0-68.0-0.0,voc_e2,12441,"[{""event"":""fullscreenenter"",""trial"":1,""time"":1528},{""event"":""blur"",""trial"":31,""time"":223975},{""event"":""focus"",""trial"":31,""time"":227201}]",NA,NA,NA,NA,NA,3,#D8271C,#741CD8,10,0,1,40,0,592.2000000476837,37,1,518,10,1,experiment,NA,NA,2,0.5,0.5,4,5,60,2,NA
fcp-trial,108,590546,0.0-69.0-0.0,voc_e2,12441,"[{""event"":""fullscreenenter"",""trial"":1,""time"":1528},{""event"":""blur"",""trial"":31,""time"":223975},{""event"":""focus"",""trial"":31,""time"":227201}]",NA,NA,NA,NA,NA,6,#FA92F8,#1CD855,0,0,0,40,0,864.5,39,0,431,0,1,experiment,NA,NA,1,0.3,0.7,3,2,61,2,NA
fcp-trial,109,593373,0.0-70.0-0.0,voc_e2,12441,"[{""event"":""fullscreenenter"",""trial"":1,""time"":1528},{""event"":""blur"",""trial"":31,""time"":223975},{""event"":""focus"",""trial"":31,""time"":227201}]",NA,NA,NA,NA,NA,5,#3386FF,#D89F1C,10,10,0,40,0,602.1000001430511,39,0,715.5999999046326,10,1,experiment,NA,NA,0,0.1,0.9,1,0,62,2,NA
fcp-trial,110,595939,0.0-71.0-0.0,voc_e2,12441,"[{""event"":""fullscreenenter"",""trial"":1,""time"":1528},{""event"":""blur"",""trial"":31,""time"":223975},{""event"":""focus"",""trial"":31,""time"":227201}]",NA,NA,NA,NA,NA,4,#FA92F8,#1CD855,10,0,0,40,0,522.2999999523163,37,1,537.5999999046326,10,0,experiment,NA,NA,1,0.3,0.7,3,2,63,2,NA
fcp-trial,111,598462,0.0-72.0-0.0,voc_e2,12441,"[{""event"":""fullscreenenter"",""trial"":1,""time"":1528},{""event"":""blur"",""trial"":31,""time"":223975},{""event"":""focus"",""trial"":31,""time"":227201}]",NA,NA,NA,NA,NA,3,#D8271C,#741CD8,0,10,1,40,0,553.2000000476837,39,0,460.60000014305115,10,0,experiment,NA,NA,2,0.5,0.5,4,5,64,2,NA
fcp-trial,112,601039,0.0-73.0-0.0,voc_e2,12441,"[{""event"":""fullscreenenter"",""trial"":1,""time"":1528},{""event"":""blur"",""trial"":31,""time"":223975},{""event"":""focus"",""trial"":31,""time"":227201}]",NA,NA,NA,NA,NA,6,#FA92F8,#1CD855,0,10,0,40,0,504.40000009536743,39,0,565.1000001430511,10,1,experiment,NA,NA,1,0.3,0.7,3,2,65,2,NA
fcp-trial,113,603801,0.0-74.0-0.0,voc_e2,12441,"[{""event"":""fullscreenenter"",""trial"":1,""time"":1528},{""event"":""blur"",""trial"":31,""time"":223975},{""event"":""focus"",""trial"":31,""time"":227201}]",NA,NA,NA,NA,NA,1,#D8271C,#741CD8,0,10,1,40,0,670.3999998569489,39,0,584.3999998569489,10,0,experiment,NA,NA,2,0.5,0.5,4,5,66,2,NA
fcp-trial,114,606572,0.0-75.0-0.0,voc_e2,12441,"[{""event"":""fullscreenenter"",""trial"":1,""time"":1528},{""event"":""blur"",""trial"":31,""time"":223975},{""event"":""focus"",""trial"":31,""time"":227201}]",NA,NA,NA,NA,NA,1,#D89F1C,#3386FF,10,0,1,40,0,661.7999999523163,37,1,602,10,1,experiment,NA,NA,0,0.9,0.1,0,1,67,2,NA
fcp-trial,115,609941,0.0-76.0-0.0,voc_e2,12441,"[{""event"":""fullscreenenter"",""trial"":1,""time"":1528},{""event"":""blur"",""trial"":31,""time"":223975},{""event"":""focus"",""trial"":31,""time"":227201}]",NA,NA,NA,NA,NA,0,#3386FF,#D89F1C,10,10,0,38,1,1229.6999998092651,39,0,631.7000000476837,10,1,experiment,NA,NA,0,0.1,0.9,1,0,68,2,NA
fcp-trial,116,612975,0.0-77.0-0.0,voc_e2,12441,"[{""event"":""fullscreenenter"",""trial"":1,""time"":1528},{""event"":""blur"",""trial"":31,""time"":223975},{""event"":""focus"",""trial"":31,""time"":227201}]",NA,NA,NA,NA,NA,2,#D8271C,#741CD8,0,0,1,40,0,1104.8999998569489,37,1,423.39999985694885,0,1,experiment,NA,NA,2,0.5,0.5,4,5,69,2,NA
fcp-trial,117,615778,0.0-78.0-0.0,voc_e2,12441,"[{""event"":""fullscreenenter"",""trial"":1,""time"":1528},{""event"":""blur"",""trial"":31,""time"":223975},{""event"":""focus"",""trial"":31,""time"":227201}]",NA,NA,NA,NA,NA,2,#1CD855,#FA92F8,10,10,1,40,0,836.1000001430511,37,1,458.89999985694885,10,1,experiment,NA,NA,1,0.7,0.3,2,3,70,2,NA
fcp-trial,118,618397,0.0-79.0-0.0,voc_e2,12441,"[{""event"":""fullscreenenter"",""trial"":1,""time"":1528},{""event"":""blur"",""trial"":31,""time"":223975},{""event"":""focus"",""trial"":31,""time"":227201}]",NA,NA,NA,NA,NA,0,#FA92F8,#1CD855,0,10,0,38,1,674.4000000953674,39,0,436.5,10,1,experiment,NA,NA,1,0.3,0.7,3,2,71,2,NA
fcp-trial,119,620959,0.0-80.0-0.0,voc_e2,12441,"[{""event"":""fullscreenenter"",""trial"":1,""time"":1528},{""event"":""blur"",""trial"":31,""time"":223975},{""event"":""focus"",""trial"":31,""time"":227201}]",NA,NA,NA,NA,NA,4,#741CD8,#D8271C,0,0,0,40,0,616.8999998569489,39,0,437.59999990463257,0,1,experiment,NA,NA,2,0.5,0.5,5,4,72,2,NA
fcp-trial,120,623780,0.0-81.0-0.0,voc_e2,12441,"[{""event"":""fullscreenenter"",""trial"":1,""time"":1528},{""event"":""blur"",""trial"":31,""time"":223975},{""event"":""focus"",""trial"":31,""time"":227201}]",NA,NA,NA,NA,NA,5,#3386FF,#D89F1C,10,10,0,40,0,695.2999999523163,39,0,618,10,1,experiment,NA,NA,0,0.1,0.9,1,0,73,2,NA
fcp-trial,121,626371,0.0-82.0-0.0,voc_e2,12441,"[{""event"":""fullscreenenter"",""trial"":1,""time"":1528},{""event"":""blur"",""trial"":31,""time"":223975},{""event"":""focus"",""trial"":31,""time"":227201}]",NA,NA,NA,NA,NA,2,#3386FF,#D89F1C,0,10,0,40,0,572.7999999523163,37,1,511.2000000476837,0,0,experiment,NA,NA,0,0.1,0.9,1,0,74,2,NA
fcp-trial,122,628997,0.0-83.0-0.0,voc_e2,12441,"[{""event"":""fullscreenenter"",""trial"":1,""time"":1528},{""event"":""blur"",""trial"":31,""time"":223975},{""event"":""focus"",""trial"":31,""time"":227201}]",NA,NA,NA,NA,NA,5,#D8271C,#741CD8,10,0,1,40,0,635.2999999523163,37,1,481.7999999523163,10,1,experiment,NA,NA,2,0.5,0.5,4,5,75,2,NA
fcp-trial,123,631408,0.0-84.0-0.0,voc_e2,12441,"[{""event"":""fullscreenenter"",""trial"":1,""time"":1528},{""event"":""blur"",""trial"":31,""time"":223975},{""event"":""focus"",""trial"":31,""time"":227201}]",NA,NA,NA,NA,NA,5,#FA92F8,#1CD855,0,10,0,40,0,426.5,39,0,477.7999999523163,10,1,experiment,NA,NA,1,0.3,0.7,3,2,76,2,NA
fcp-trial,124,634310,0.0-85.0-0.0,voc_e2,12441,"[{""event"":""fullscreenenter"",""trial"":1,""time"":1528},{""event"":""blur"",""trial"":31,""time"":223975},{""event"":""focus"",""trial"":31,""time"":227201}]",NA,NA,NA,NA,NA,1,#1CD855,#FA92F8,0,0,1,38,1,837.6999998092651,37,1,557.2000000476837,0,1,experiment,NA,NA,1,0.7,0.3,2,3,77,2,NA
fcp-trial,125,637154,0.0-86.0-0.0,voc_e2,12441,"[{""event"":""fullscreenenter"",""trial"":1,""time"":1528},{""event"":""blur"",""trial"":31,""time"":223975},{""event"":""focus"",""trial"":31,""time"":227201}]",NA,NA,NA,NA,NA,0,#741CD8,#D8271C,10,0,0,38,1,827.2000000476837,39,0,509.7999999523163,0,1,experiment,NA,NA,2,0.5,0.5,5,4,78,2,NA
fcp-trial,126,639918,0.0-87.0-0.0,voc_e2,12441,"[{""event"":""fullscreenenter"",""trial"":1,""time"":1528},{""event"":""blur"",""trial"":31,""time"":223975},{""event"":""focus"",""trial"":31,""time"":227201}]",NA,NA,NA,NA,NA,3,#D89F1C,#3386FF,10,0,1,40,0,749.4000000953674,39,0,504,0,0,experiment,NA,NA,0,0.9,0.1,0,1,79,2,NA
fcp-trial,127,642444,0.0-88.0-0.0,voc_e2,12441,"[{""event"":""fullscreenenter"",""trial"":1,""time"":1528},{""event"":""blur"",""trial"":31,""time"":223975},{""event"":""focus"",""trial"":31,""time"":227201}]",NA,NA,NA,NA,NA,4,#FA92F8,#1CD855,0,0,0,40,0,559.2000000476837,37,1,457.7000000476837,0,0,experiment,NA,NA,1,0.3,0.7,3,2,80,2,NA
fcp-trial,128,644792,0.0-89.0-0.0,voc_e2,12441,"[{""event"":""fullscreenenter"",""trial"":1,""time"":1528},{""event"":""blur"",""trial"":31,""time"":223975},{""event"":""focus"",""trial"":31,""time"":227201}]",NA,NA,NA,NA,NA,4,#3386FF,#D89F1C,10,10,0,40,0,385.5,39,0,456.19999980926514,10,1,experiment,NA,NA,0,0.1,0.9,1,0,81,2,NA
fcp-trial,129,647227,0.0-90.0-0.0,voc_e2,12441,"[{""event"":""fullscreenenter"",""trial"":1,""time"":1528},{""event"":""blur"",""trial"":31,""time"":223975},{""event"":""focus"",""trial"":31,""time"":227201}]",NA,NA,NA,NA,NA,6,#D8271C,#741CD8,10,0,1,40,0,459.40000009536743,37,1,470.5,10,1,experiment,NA,NA,2,0.5,0.5,4,5,82,2,NA
fcp-trial,130,649844,0.0-91.0-0.0,voc_e2,12441,"[{""event"":""fullscreenenter"",""trial"":1,""time"":1528},{""event"":""blur"",""trial"":31,""time"":223975},{""event"":""focus"",""trial"":31,""time"":227201}]",NA,NA,NA,NA,NA,6,#3386FF,#D89F1C,0,10,0,40,0,642.8999998569489,37,1,466,0,0,experiment,NA,NA,0,0.1,0.9,1,0,83,2,NA
fcp-trial,131,652525,0.0-92.0-0.0,voc_e2,12441,"[{""event"":""fullscreenenter"",""trial"":1,""time"":1528},{""event"":""blur"",""trial"":31,""time"":223975},{""event"":""focus"",""trial"":31,""time"":227201}]",NA,NA,NA,NA,NA,3,#FA92F8,#1CD855,0,10,0,40,0,699.7999999523163,37,1,475,0,0,experiment,NA,NA,1,0.3,0.7,3,2,84,2,NA
fcp-trial,132,654977,0.0-93.0-0.0,voc_e2,12441,"[{""event"":""fullscreenenter"",""trial"":1,""time"":1528},{""event"":""blur"",""trial"":31,""time"":223975},{""event"":""focus"",""trial"":31,""time"":227201}]",NA,NA,NA,NA,NA,5,#D89F1C,#3386FF,10,0,1,40,0,549.5,39,0,396.19999980926514,0,0,experiment,NA,NA,0,0.9,0.1,0,1,85,2,NA
fcp-trial,133,657735,0.0-94.0-0.0,voc_e2,12441,"[{""event"":""fullscreenenter"",""trial"":1,""time"":1528},{""event"":""blur"",""trial"":31,""time"":223975},{""event"":""focus"",""trial"":31,""time"":227201}]",NA,NA,NA,NA,NA,1,#3386FF,#D89F1C,10,10,0,40,0,699.1000001430511,39,0,550.3999998569489,10,1,experiment,NA,NA,0,0.1,0.9,1,0,86,2,NA
fcp-trial,134,660355,0.0-95.0-0.0,voc_e2,12441,"[{""event"":""fullscreenenter"",""trial"":1,""time"":1528},{""event"":""blur"",""trial"":31,""time"":223975},{""event"":""focus"",""trial"":31,""time"":227201}]",NA,NA,NA,NA,NA,4,#D89F1C,#3386FF,10,0,1,40,0,630.4000000953674,39,0,481.90000009536743,0,0,experiment,NA,NA,0,0.9,0.1,0,1,87,2,NA
fcp-trial,135,662806,0.0-96.0-0.0,voc_e2,12441,"[{""event"":""fullscreenenter"",""trial"":1,""time"":1528},{""event"":""blur"",""trial"":31,""time"":223975},{""event"":""focus"",""trial"":31,""time"":227201}]",NA,NA,NA,NA,NA,4,#FA92F8,#1CD855,0,10,0,40,0,542.3999998569489,37,1,402.59999990463257,0,0,experiment,NA,NA,1,0.3,0.7,3,2,88,2,NA
fcp-trial,136,665564,0.0-97.0-0.0,voc_e2,12441,"[{""event"":""fullscreenenter"",""trial"":1,""time"":1528},{""event"":""blur"",""trial"":31,""time"":223975},{""event"":""focus"",""trial"":31,""time"":227201}]",NA,NA,NA,NA,NA,5,#D8271C,#741CD8,0,0,1,40,0,775.6000001430511,37,1,473.09999990463257,0,1,experiment,NA,NA,2,0.5,0.5,4,5,89,2,NA
fcp-trial,137,668404,0.0-98.0-0.0,voc_e2,12441,"[{""event"":""fullscreenenter"",""trial"":1,""time"":1528},{""event"":""blur"",""trial"":31,""time"":223975},{""event"":""focus"",""trial"":31,""time"":227201}]",NA,NA,NA,NA,NA,0,#741CD8,#D8271C,0,0,0,40,0,497.09999990463257,37,1,836,0,0,experiment,NA,NA,2,0.5,0.5,5,4,90,2,NA
fcp-trial,138,671365,0.0-99.0-0.0,voc_e2,12441,"[{""event"":""fullscreenenter"",""trial"":1,""time"":1528},{""event"":""blur"",""trial"":31,""time"":223975},{""event"":""focus"",""trial"":31,""time"":227201}]",NA,NA,NA,NA,NA,2,#3386FF,#D89F1C,0,10,0,40,0,1058.7999999523163,39,0,392.59999990463257,10,1,experiment,NA,NA,0,0.1,0.9,1,0,91,3,NA
fcp-trial,139,673882,0.0-100.0-0.0,voc_e2,12441,"[{""event"":""fullscreenenter"",""trial"":1,""time"":1528},{""event"":""blur"",""trial"":31,""time"":223975},{""event"":""focus"",""trial"":31,""time"":227201}]",NA,NA,NA,NA,NA,1,#1CD855,#FA92F8,10,10,1,40,0,557.9000000953674,39,0,451.2000000476837,10,0,experiment,NA,NA,1,0.7,0.3,2,3,92,3,NA
fcp-trial,140,676539,0.0-101.0-0.0,voc_e2,12441,"[{""event"":""fullscreenenter"",""trial"":1,""time"":1528},{""event"":""blur"",""trial"":31,""time"":223975},{""event"":""focus"",""trial"":31,""time"":227201}]",NA,NA,NA,NA,NA,4,#D8271C,#741CD8,10,0,1,40,0,726.2999999523163,37,1,424.7999999523163,10,1,experiment,NA,NA,2,0.5,0.5,4,5,93,3,NA
fcp-trial,141,679477,0.0-102.0-0.0,voc_e2,12441,"[{""event"":""fullscreenenter"",""trial"":1,""time"":1528},{""event"":""blur"",""trial"":31,""time"":223975},{""event"":""focus"",""trial"":31,""time"":227201}]",NA,NA,NA,NA,NA,0,#D89F1C,#3386FF,10,0,1,38,1,805.7999999523163,39,0,622.5,0,0,experiment,NA,NA,0,0.9,0.1,0,1,94,3,NA
fcp-trial,142,682390,0.0-103.0-0.0,voc_e2,12441,"[{""event"":""fullscreenenter"",""trial"":1,""time"":1528},{""event"":""blur"",""trial"":31,""time"":223975},{""event"":""focus"",""trial"":31,""time"":227201}]",NA,NA,NA,NA,NA,2,#1CD855,#FA92F8,10,0,1,40,0,913.4000000953674,39,0,489.09999990463257,0,0,experiment,NA,NA,1,0.7,0.3,2,3,95,3,NA
fcp-trial,143,685251,0.0-104.0-0.0,voc_e2,12441,"[{""event"":""fullscreenenter"",""trial"":1,""time"":1528},{""event"":""blur"",""trial"":31,""time"":223975},{""event"":""focus"",""trial"":31,""time"":227201}]",NA,NA,NA,NA,NA,5,#FA92F8,#1CD855,0,10,0,40,0,734.5999999046326,39,0,616.0999999046326,10,1,experiment,NA,NA,1,0.3,0.7,3,2,96,3,NA
fcp-trial,144,688521,0.0-105.0-0.0,voc_e2,12441,"[{""event"":""fullscreenenter"",""trial"":1,""time"":1528},{""event"":""blur"",""trial"":31,""time"":223975},{""event"":""focus"",""trial"":31,""time"":227201}]",NA,NA,NA,NA,NA,3,#741CD8,#D8271C,0,0,0,40,0,1301.1999998092651,39,0,461.90000009536743,0,1,experiment,NA,NA,2,0.5,0.5,5,4,97,3,NA
fcp-trial,145,691323,0.0-106.0-0.0,voc_e2,12441,"[{""event"":""fullscreenenter"",""trial"":1,""time"":1528},{""event"":""blur"",""trial"":31,""time"":223975},{""event"":""focus"",""trial"":31,""time"":227201}]",NA,NA,NA,NA,NA,6,#D8271C,#741CD8,10,0,1,40,0,670.2000000476837,39,0,625.9000000953674,0,0,experiment,NA,NA,2,0.5,0.5,4,5,98,3,NA
fcp-trial,146,694262,0.0-107.0-0.0,voc_e2,12441,"[{""event"":""fullscreenenter"",""trial"":1,""time"":1528},{""event"":""blur"",""trial"":31,""time"":223975},{""event"":""focus"",""trial"":31,""time"":227201}]",NA,NA,NA,NA,NA,6,#D89F1C,#3386FF,10,0,1,40,0,966.3000001907349,39,0,464.7000000476837,0,0,experiment,NA,NA,0,0.9,0.1,0,1,99,3,NA
fcp-trial,147,696802,0.0-108.0-0.0,voc_e2,12441,"[{""event"":""fullscreenenter"",""trial"":1,""time"":1528},{""event"":""blur"",""trial"":31,""time"":223975},{""event"":""focus"",""trial"":31,""time"":227201}]",NA,NA,NA,NA,NA,3,#1CD855,#FA92F8,10,0,1,40,0,594.6000001430511,37,1,437.2999999523163,10,1,experiment,NA,NA,1,0.7,0.3,2,3,100,3,NA
fcp-trial,148,699916,0.0-109.0-0.0,voc_e2,12441,"[{""event"":""fullscreenenter"",""trial"":1,""time"":1528},{""event"":""blur"",""trial"":31,""time"":223975},{""event"":""focus"",""trial"":31,""time"":227201}]",NA,NA,NA,NA,NA,0,#FA92F8,#1CD855,10,0,0,38,1,1023.1999998092651,39,0,582.2999999523163,0,1,experiment,NA,NA,1,0.3,0.7,3,2,101,3,NA
fcp-trial,149,702812,0.0-110.0-0.0,voc_e2,12441,"[{""event"":""fullscreenenter"",""trial"":1,""time"":1528},{""event"":""blur"",""trial"":31,""time"":223975},{""event"":""focus"",""trial"":31,""time"":227201}]",NA,NA,NA,NA,NA,6,#1CD855,#FA92F8,10,0,1,40,0,918.2999999523163,39,0,472.09999990463257,0,0,experiment,NA,NA,1,0.7,0.3,2,3,102,3,NA
fcp-trial,150,705463,0.0-111.0-0.0,voc_e2,12441,"[{""event"":""fullscreenenter"",""trial"":1,""time"":1528},{""event"":""blur"",""trial"":31,""time"":223975},{""event"":""focus"",""trial"":31,""time"":227201}]",NA,NA,NA,NA,NA,2,#741CD8,#D8271C,0,0,0,40,0,684.2999999523163,39,0,458.90000009536743,0,1,experiment,NA,NA,2,0.5,0.5,5,4,103,3,NA
fcp-trial,151,707813,0.0-112.0-0.0,voc_e2,12441,"[{""event"":""fullscreenenter"",""trial"":1,""time"":1528},{""event"":""blur"",""trial"":31,""time"":223975},{""event"":""focus"",""trial"":31,""time"":227201}]",NA,NA,NA,NA,NA,3,#3386FF,#D89F1C,0,10,0,40,0,422.59999990463257,39,0,421.5,10,1,experiment,NA,NA,0,0.1,0.9,1,0,104,3,NA
fcp-trial,152,710433,0.0-113.0-0.0,voc_e2,12441,"[{""event"":""fullscreenenter"",""trial"":1,""time"":1528},{""event"":""blur"",""trial"":31,""time"":223975},{""event"":""focus"",""trial"":31,""time"":227201}]",NA,NA,NA,NA,NA,1,#741CD8,#D8271C,0,10,0,40,0,701.6000001430511,39,0,410.5,10,1,experiment,NA,NA,2,0.5,0.5,5,4,105,3,NA
audio-instructions,153,817584,0.0-114.0,voc_e2,12441,"[{""event"":""fullscreenenter"",""trial"":1,""time"":1528},{""event"":""blur"",""trial"":31,""time"":223975},{""event"":""focus"",""trial"":31,""time"":227201}]",NA,102678.79999995232,static/audio/pause.wav,NA,0,NA,NA,NA,NA,NA,NA,NA,NA,NA,NA,NA,NA,NA,NA,NA,NA,NA,NA,NA,NA,NA,NA,NA,NA,NA
fcp-trial,154,821400,0.0-115.0-0.0,voc_e2,12441,"[{""event"":""fullscreenenter"",""trial"":1,""time"":1528},{""event"":""blur"",""trial"":31,""time"":223975},{""event"":""focus"",""trial"":31,""time"":227201}]",NA,NA,NA,NA,NA,5,#3386FF,#D89F1C,10,10,0,40,0,1493.1000001430511,37,1,813.2999999523163,10,0,experiment,NA,NA,0,0.1,0.9,1,0,106,3,NA
fcp-trial,155,825153,0.0-116.0-0.0,voc_e2,12441,"[{""event"":""fullscreenenter"",""trial"":1,""time"":1528},{""event"":""blur"",""trial"":31,""time"":223975},{""event"":""focus"",""trial"":31,""time"":227201}]",NA,NA,NA,NA,NA,6,#1CD855,#FA92F8,10,0,1,40,0,1464.7999999523163,37,1,780.5999999046326,10,1,experiment,NA,NA,1,0.7,0.3,2,3,107,3,NA
fcp-trial,156,828211,0.0-117.0-0.0,voc_e2,12441,"[{""event"":""fullscreenenter"",""trial"":1,""time"":1528},{""event"":""blur"",""trial"":31,""time"":223975},{""event"":""focus"",""trial"":31,""time"":227201}]",NA,NA,NA,NA,NA,3,#FA92F8,#1CD855,0,10,0,40,0,930.8000001907349,39,0,617.2000000476837,10,1,experiment,NA,NA,1,0.3,0.7,3,2,108,3,NA
fcp-trial,157,831161,0.0-118.0-0.0,voc_e2,12441,"[{""event"":""fullscreenenter"",""trial"":1,""time"":1528},{""event"":""blur"",""trial"":31,""time"":223975},{""event"":""focus"",""trial"":31,""time"":227201}]",NA,NA,NA,NA,NA,0,#FA92F8,#1CD855,0,0,0,38,1,941.2000000476837,37,1,497.89999985694885,0,0,experiment,NA,NA,1,0.3,0.7,3,2,109,3,NA
fcp-trial,158,833853,0.0-119.0-0.0,voc_e2,12441,"[{""event"":""fullscreenenter"",""trial"":1,""time"":1528},{""event"":""blur"",""trial"":31,""time"":223975},{""event"":""focus"",""trial"":31,""time"":227201}]",NA,NA,NA,NA,NA,6,#741CD8,#D8271C,0,10,0,40,0,700.3999998569489,37,1,482.5,0,0,experiment,NA,NA,2,0.5,0.5,5,4,110,3,NA
fcp-trial,159,836818,0.0-120.0-0.0,voc_e2,12441,"[{""event"":""fullscreenenter"",""trial"":1,""time"":1528},{""event"":""blur"",""trial"":31,""time"":223975},{""event"":""focus"",""trial"":31,""time"":227201}]",NA,NA,NA,NA,NA,0,#3386FF,#D89F1C,0,10,0,38,1,949.5,39,0,508,10,1,experiment,NA,NA,0,0.1,0.9,1,0,111,3,NA
fcp-trial,160,839722,0.0-121.0-0.0,voc_e2,12441,"[{""event"":""fullscreenenter"",""trial"":1,""time"":1528},{""event"":""blur"",""trial"":31,""time"":223975},{""event"":""focus"",""trial"":31,""time"":227201}]",NA,NA,NA,NA,NA,4,#D89F1C,#3386FF,10,0,1,40,0,788.3999998569489,39,0,607.2999999523163,0,0,experiment,NA,NA,0,0.9,0.1,0,1,112,3,NA
fcp-trial,161,842604,0.0-122.0-0.0,voc_e2,12441,"[{""event"":""fullscreenenter"",""trial"":1,""time"":1528},{""event"":""blur"",""trial"":31,""time"":223975},{""event"":""focus"",""trial"":31,""time"":227201}]",NA,NA,NA,NA,NA,1,#3386FF,#D89F1C,0,10,0,40,0,894,39,0,477.7999999523163,10,1,experiment,NA,NA,0,0.1,0.9,1,0,113,3,NA
fcp-trial,162,845502,0.0-123.0-0.0,voc_e2,12441,"[{""event"":""fullscreenenter"",""trial"":1,""time"":1528},{""event"":""blur"",""trial"":31,""time"":223975},{""event"":""focus"",""trial"":31,""time"":227201}]",NA,NA,NA,NA,NA,2,#1CD855,#FA92F8,10,0,1,40,0,776.5,39,0,614.5999999046326,0,0,experiment,NA,NA,1,0.7,0.3,2,3,114,3,NA
fcp-trial,163,848207,0.0-124.0-0.0,voc_e2,12441,"[{""event"":""fullscreenenter"",""trial"":1,""time"":1528},{""event"":""blur"",""trial"":31,""time"":223975},{""event"":""focus"",""trial"":31,""time"":227201}]",NA,NA,NA,NA,NA,4,#741CD8,#D8271C,10,10,0,40,0,748.7000000476837,39,0,446.60000014305115,10,1,experiment,NA,NA,2,0.5,0.5,5,4,115,3,NA
fcp-trial,164,850763,0.0-125.0-0.0,voc_e2,12441,"[{""event"":""fullscreenenter"",""trial"":1,""time"":1528},{""event"":""blur"",""trial"":31,""time"":223975},{""event"":""focus"",""trial"":31,""time"":227201}]",NA,NA,NA,NA,NA,6,#D89F1C,#3386FF,10,0,1,40,0,629,39,0,418.19999980926514,0,0,experiment,NA,NA,0,0.9,0.1,0,1,116,3,NA
fcp-trial,165,853055,0.0-126.0-0.0,voc_e2,12441,"[{""event"":""fullscreenenter"",""trial"":1,""time"":1528},{""event"":""blur"",""trial"":31,""time"":223975},{""event"":""focus"",""trial"":31,""time"":227201}]",NA,NA,NA,NA,NA,2,#3386FF,#D89F1C,0,10,0,40,0,401.2000000476837,37,1,380.7999999523163,0,0,experiment,NA,NA,0,0.1,0.9,1,0,117,3,NA
fcp-trial,166,855655,0.0-127.0-0.0,voc_e2,12441,"[{""event"":""fullscreenenter"",""trial"":1,""time"":1528},{""event"":""blur"",""trial"":31,""time"":223975},{""event"":""focus"",""trial"":31,""time"":227201}]",NA,NA,NA,NA,NA,5,#D8271C,#741CD8,0,10,1,40,0,603.2000000476837,37,1,487.90000009536743,0,1,experiment,NA,NA,2,0.5,0.5,4,5,118,3,NA
fcp-trial,167,858076,0.0-128.0-0.0,voc_e2,12441,"[{""event"":""fullscreenenter"",""trial"":1,""time"":1528},{""event"":""blur"",""trial"":31,""time"":223975},{""event"":""focus"",""trial"":31,""time"":227201}]",NA,NA,NA,NA,NA,5,#FA92F8,#1CD855,10,10,0,40,0,468.7000000476837,39,0,441.39999985694885,10,1,experiment,NA,NA,1,0.3,0.7,3,2,119,3,NA
fcp-trial,168,860671,0.0-129.0-0.0,voc_e2,12441,"[{""event"":""fullscreenenter"",""trial"":1,""time"":1528},{""event"":""blur"",""trial"":31,""time"":223975},{""event"":""focus"",""trial"":31,""time"":227201}]",NA,NA,NA,NA,NA,3,#D8271C,#741CD8,0,0,1,40,0,697.0999999046326,39,0,388.89999985694885,0,0,experiment,NA,NA,2,0.5,0.5,4,5,120,3,NA
fcp-trial,169,863238,0.0-130.0-0.0,voc_e2,12441,"[{""event"":""fullscreenenter"",""trial"":1,""time"":1528},{""event"":""blur"",""trial"":31,""time"":223975},{""event"":""focus"",""trial"":31,""time"":227201}]",NA,NA,NA,NA,NA,1,#741CD8,#D8271C,10,10,0,40,0,629.0999999046326,39,0,427.7999999523163,10,1,experiment,NA,NA,2,0.5,0.5,5,4,121,3,NA
fcp-trial,170,865590,0.0-131.0-0.0,voc_e2,12441,"[{""event"":""fullscreenenter"",""trial"":1,""time"":1528},{""event"":""blur"",""trial"":31,""time"":223975},{""event"":""focus"",""trial"":31,""time"":227201}]",NA,NA,NA,NA,NA,3,#3386FF,#D89F1C,0,10,0,40,0,443.7999999523163,37,1,400.2000000476837,0,0,experiment,NA,NA,0,0.1,0.9,1,0,122,3,NA
fcp-trial,171,868548,0.0-132.0-0.0,voc_e2,12441,"[{""event"":""fullscreenenter"",""trial"":1,""time"":1528},{""event"":""blur"",""trial"":31,""time"":223975},{""event"":""focus"",""trial"":31,""time"":227201}]",NA,NA,NA,NA,NA,0,#D8271C,#741CD8,10,10,1,38,1,997.8999998569489,39,0,452.59999990463257,10,0,experiment,NA,NA,2,0.5,0.5,4,5,123,3,NA
fcp-trial,172,871407,0.0-133.0-0.0,voc_e2,12441,"[{""event"":""fullscreenenter"",""trial"":1,""time"":1528},{""event"":""blur"",""trial"":31,""time"":223975},{""event"":""focus"",""trial"":31,""time"":227201}]",NA,NA,NA,NA,NA,1,#FA92F8,#1CD855,0,10,0,40,0,887.7000000476837,37,1,460.59999990463257,0,0,experiment,NA,NA,1,0.3,0.7,3,2,124,3,NA
fcp-trial,173,874758,0.0-134.0-0.0,voc_e2,12441,"[{""event"":""fullscreenenter"",""trial"":1,""time"":1528},{""event"":""blur"",""trial"":31,""time"":223975},{""event"":""focus"",""trial"":31,""time"":227201}]",NA,NA,NA,NA,NA,2,#D8271C,#741CD8,10,0,1,38,1,1206.5,37,1,636.2999999523163,10,1,experiment,NA,NA,2,0.5,0.5,4,5,125,3,NA
fcp-trial,174,877916,0.0-135.0-0.0,voc_e2,12441,"[{""event"":""fullscreenenter"",""trial"":1,""time"":1528},{""event"":""blur"",""trial"":31,""time"":223975},{""event"":""focus"",""trial"":31,""time"":227201}]",NA,NA,NA,NA,NA,4,#1CD855,#FA92F8,10,0,1,40,0,894.7000000476837,39,0,751.8999998569489,0,0,experiment,NA,NA,1,0.7,0.3,2,3,126,3,NA
fcp-trial,175,880614,0.0-136.0-0.0,voc_e2,12441,"[{""event"":""fullscreenenter"",""trial"":1,""time"":1528},{""event"":""blur"",""trial"":31,""time"":223975},{""event"":""focus"",""trial"":31,""time"":227201}]",NA,NA,NA,NA,NA,2,#1CD855,#FA92F8,0,10,1,40,0,734.1999998092651,37,1,454.90000009536743,0,1,experiment,NA,NA,1,0.7,0.3,2,3,127,3,NA
fcp-trial,176,883573,0.0-137.0-0.0,voc_e2,12441,"[{""event"":""fullscreenenter"",""trial"":1,""time"":1528},{""event"":""blur"",""trial"":31,""time"":223975},{""event"":""focus"",""trial"":31,""time"":227201}]",NA,NA,NA,NA,NA,0,#3386FF,#D89F1C,0,10,0,38,1,853.8000001907349,37,1,595.2000000476837,0,0,experiment,NA,NA,0,0.1,0.9,1,0,128,3,NA
fcp-trial,177,887621,0.0-138.0-0.0,voc_e2,12441,"[{""event"":""fullscreenenter"",""trial"":1,""time"":1528},{""event"":""blur"",""trial"":31,""time"":223975},{""event"":""focus"",""trial"":31,""time"":227201}]",NA,NA,NA,NA,NA,0,#D8271C,#741CD8,10,10,1,38,1,1444.2999999523163,39,0,1095.5,10,0,experiment,NA,NA,2,0.5,0.5,4,5,129,3,NA
fcp-trial,178,890741,0.0-139.0-0.0,voc_e2,12441,"[{""event"":""fullscreenenter"",""trial"":1,""time"":1528},{""event"":""blur"",""trial"":31,""time"":223975},{""event"":""focus"",""trial"":31,""time"":227201}]",NA,NA,NA,NA,NA,0,#FA92F8,#1CD855,10,10,0,38,1,1299.5,39,0,311.60000014305115,10,1,experiment,NA,NA,1,0.3,0.7,3,2,130,3,NA
fcp-trial,179,893657,0.0-140.0-0.0,voc_e2,12441,"[{""event"":""fullscreenenter"",""trial"":1,""time"":1528},{""event"":""blur"",""trial"":31,""time"":223975},{""event"":""focus"",""trial"":31,""time"":227201}]",NA,NA,NA,NA,NA,2,#3386FF,#D89F1C,0,0,0,38,1,1097,37,1,310.09999990463257,0,0,experiment,NA,NA,0,0.1,0.9,1,0,131,3,NA
fcp-trial,180,896500,0.0-141.0-0.0,voc_e2,12441,"[{""event"":""fullscreenenter"",""trial"":1,""time"":1528},{""event"":""blur"",""trial"":31,""time"":223975},{""event"":""focus"",""trial"":31,""time"":227201}]",NA,NA,NA,NA,NA,3,#1CD855,#FA92F8,10,0,1,40,0,868.2000000476837,39,0,466.90000009536743,0,0,experiment,NA,NA,1,0.7,0.3,2,3,132,3,NA
fcp-trial,181,899371,0.0-142.0-0.0,voc_e2,12441,"[{""event"":""fullscreenenter"",""trial"":1,""time"":1528},{""event"":""blur"",""trial"":31,""time"":223975},{""event"":""focus"",""trial"":31,""time"":227201}]",NA,NA,NA,NA,NA,2,#D8271C,#741CD8,0,0,1,40,0,766.7999999523163,39,0,596.7000000476837,0,0,experiment,NA,NA,2,0.5,0.5,4,5,133,3,NA
fcp-trial,182,901917,0.0-143.0-0.0,voc_e2,12441,"[{""event"":""fullscreenenter"",""trial"":1,""time"":1528},{""event"":""blur"",""trial"":31,""time"":223975},{""event"":""focus"",""trial"":31,""time"":227201}]",NA,NA,NA,NA,NA,5,#FA92F8,#1CD855,10,10,0,40,0,556.6000001430511,37,1,484.10000014305115,10,0,experiment,NA,NA,1,0.3,0.7,3,2,134,3,NA
fcp-trial,183,904585,0.0-144.0-0.0,voc_e2,12441,"[{""event"":""fullscreenenter"",""trial"":1,""time"":1528},{""event"":""blur"",""trial"":31,""time"":223975},{""event"":""focus"",""trial"":31,""time"":227201}]",NA,NA,NA,NA,NA,6,#741CD8,#D8271C,0,0,0,40,0,731.0999999046326,39,0,427.39999985694885,0,1,experiment,NA,NA,2,0.5,0.5,5,4,135,3,NA
fcp-trial,184,906936,0.0-145.0-0.0,voc_e2,12441,"[{""event"":""fullscreenenter"",""trial"":1,""time"":1528},{""event"":""blur"",""trial"":31,""time"":223975},{""event"":""focus"",""trial"":31,""time"":227201}]",NA,NA,NA,NA,NA,5,#D89F1C,#3386FF,10,0,1,40,0,466.7000000476837,37,1,376.59999990463257,10,1,experiment,NA,NA,0,0.9,0.1,0,1,136,4,NA
fcp-trial,185,909648,0.0-146.0-0.0,voc_e2,12441,"[{""event"":""fullscreenenter"",""trial"":1,""time"":1528},{""event"":""blur"",""trial"":31,""time"":223975},{""event"":""focus"",""trial"":31,""time"":227201}]",NA,NA,NA,NA,NA,4,#D8271C,#741CD8,10,10,1,40,0,683.3999998569489,37,1,520.5,10,1,experiment,NA,NA,2,0.5,0.5,4,5,137,4,NA
fcp-trial,186,912073,0.0-147.0-0.0,voc_e2,12441,"[{""event"":""fullscreenenter"",""trial"":1,""time"":1528},{""event"":""blur"",""trial"":31,""time"":223975},{""event"":""focus"",""trial"":31,""time"":227201}]",NA,NA,NA,NA,NA,6,#FA92F8,#1CD855,0,0,0,40,0,504.7999999523163,39,0,412.5,0,1,experiment,NA,NA,1,0.3,0.7,3,2,138,4,NA
fcp-trial,187,914490,0.0-148.0-0.0,voc_e2,12441,"[{""event"":""fullscreenenter"",""trial"":1,""time"":1528},{""event"":""blur"",""trial"":31,""time"":223975},{""event"":""focus"",""trial"":31,""time"":227201}]",NA,NA,NA,NA,NA,4,#D89F1C,#3386FF,10,0,1,40,0,377.40000009536743,39,0,532.2000000476837,0,0,experiment,NA,NA,0,0.9,0.1,0,1,139,4,NA
fcp-trial,188,916824,0.0-149.0-0.0,voc_e2,12441,"[{""event"":""fullscreenenter"",""trial"":1,""time"":1528},{""event"":""blur"",""trial"":31,""time"":223975},{""event"":""focus"",""trial"":31,""time"":227201}]",NA,NA,NA,NA,NA,5,#D8271C,#741CD8,10,0,1,40,0,394.7000000476837,37,1,430,10,1,experiment,NA,NA,2,0.5,0.5,4,5,140,4,NA
fcp-trial,189,919279,0.0-150.0-0.0,voc_e2,12441,"[{""event"":""fullscreenenter"",""trial"":1,""time"":1528},{""event"":""blur"",""trial"":31,""time"":223975},{""event"":""focus"",""trial"":31,""time"":227201}]",NA,NA,NA,NA,NA,3,#D8271C,#741CD8,10,0,1,40,0,537.7999999523163,39,0,407.59999990463257,0,0,experiment,NA,NA,2,0.5,0.5,4,5,141,4,NA
fcp-trial,190,921566,0.0-151.0-0.0,voc_e2,12441,"[{""event"":""fullscreenenter"",""trial"":1,""time"":1528},{""event"":""blur"",""trial"":31,""time"":223975},{""event"":""focus"",""trial"":31,""time"":227201}]",NA,NA,NA,NA,NA,4,#1CD855,#FA92F8,10,0,1,40,0,295.19999980926514,37,1,482.39999985694885,10,1,experiment,NA,NA,1,0.7,0.3,2,3,142,4,NA
fcp-trial,191,923959,0.0-152.0-0.0,voc_e2,12441,"[{""event"":""fullscreenenter"",""trial"":1,""time"":1528},{""event"":""blur"",""trial"":31,""time"":223975},{""event"":""focus"",""trial"":31,""time"":227201}]",NA,NA,NA,NA,NA,6,#3386FF,#D89F1C,0,10,0,40,0,475.7000000476837,39,0,406,10,1,experiment,NA,NA,0,0.1,0.9,1,0,143,4,NA
fcp-trial,192,926353,0.0-153.0-0.0,voc_e2,12441,"[{""event"":""fullscreenenter"",""trial"":1,""time"":1528},{""event"":""blur"",""trial"":31,""time"":223975},{""event"":""focus"",""trial"":31,""time"":227201}]",NA,NA,NA,NA,NA,1,#3386FF,#D89F1C,10,10,0,40,0,410.2000000476837,37,1,475.7999999523163,10,0,experiment,NA,NA,0,0.1,0.9,1,0,144,4,NA
fcp-trial,193,928643,0.0-154.0-0.0,voc_e2,12441,"[{""event"":""fullscreenenter"",""trial"":1,""time"":1528},{""event"":""blur"",""trial"":31,""time"":223975},{""event"":""focus"",""trial"":31,""time"":227201}]",NA,NA,NA,NA,NA,1,#1CD855,#FA92F8,10,0,1,40,0,330.7000000476837,39,0,450.19999980926514,0,0,experiment,NA,NA,1,0.7,0.3,2,3,145,4,NA
fcp-trial,194,931495,0.0-155.0-0.0,voc_e2,12441,"[{""event"":""fullscreenenter"",""trial"":1,""time"":1528},{""event"":""blur"",""trial"":31,""time"":223975},{""event"":""focus"",""trial"":31,""time"":227201}]",NA,NA,NA,NA,NA,1,#D8271C,#741CD8,10,10,1,40,0,485.2999999523163,37,1,858.5,10,1,experiment,NA,NA,2,0.5,0.5,4,5,146,4,NA
fcp-trial,195,934066,0.0-156.0-0.0,voc_e2,12441,"[{""event"":""fullscreenenter"",""trial"":1,""time"":1528},{""event"":""blur"",""trial"":31,""time"":223975},{""event"":""focus"",""trial"":31,""time"":227201}]",NA,NA,NA,NA,NA,3,#D89F1C,#3386FF,10,0,1,40,0,564.2999999523163,37,1,495.59999990463257,10,1,experiment,NA,NA,0,0.9,0.1,0,1,147,4,NA
fcp-trial,196,936667,0.0-157.0-0.0,voc_e2,12441,"[{""event"":""fullscreenenter"",""trial"":1,""time"":1528},{""event"":""blur"",""trial"":31,""time"":223975},{""event"":""focus"",""trial"":31,""time"":227201}]",NA,NA,NA,NA,NA,0,#D89F1C,#3386FF,10,0,1,40,0,471.40000009536743,37,1,621.5999999046326,10,1,experiment,NA,NA,0,0.9,0.1,0,1,148,4,NA
fcp-trial,197,939270,0.0-158.0-0.0,voc_e2,12441,"[{""event"":""fullscreenenter"",""trial"":1,""time"":1528},{""event"":""blur"",""trial"":31,""time"":223975},{""event"":""focus"",""trial"":31,""time"":227201}]",NA,NA,NA,NA,NA,6,#1CD855,#FA92F8,10,0,1,40,0,595.5999999046326,39,0,496.69999980926514,0,0,experiment,NA,NA,1,0.7,0.3,2,3,149,4,NA
fcp-trial,198,941825,0.0-159.0-0.0,voc_e2,12441,"[{""event"":""fullscreenenter"",""trial"":1,""time"":1528},{""event"":""blur"",""trial"":31,""time"":223975},{""event"":""focus"",""trial"":31,""time"":227201}]",NA,NA,NA,NA,NA,2,#D8271C,#741CD8,0,10,1,40,0,540.7000000476837,39,0,505,10,0,experiment,NA,NA,2,0.5,0.5,4,5,150,4,NA
fcp-trial,199,944308,0.0-160.0-0.0,voc_e2,12441,"[{""event"":""fullscreenenter"",""trial"":1,""time"":1528},{""event"":""blur"",""trial"":31,""time"":223975},{""event"":""focus"",""trial"":31,""time"":227201}]",NA,NA,NA,NA,NA,6,#D89F1C,#3386FF,10,10,1,40,0,545.7999999523163,39,0,430.69999980926514,10,0,experiment,NA,NA,0,0.9,0.1,0,1,151,4,NA
fcp-trial,200,946807,0.0-161.0-0.0,voc_e2,12441,"[{""event"":""fullscreenenter"",""trial"":1,""time"":1528},{""event"":""blur"",""trial"":31,""time"":223975},{""event"":""focus"",""trial"":31,""time"":227201}]",NA,NA,NA,NA,NA,3,#D89F1C,#3386FF,10,0,1,40,0,514.5,37,1,476.2999999523163,10,1,experiment,NA,NA,0,0.9,0.1,0,1,152,4,NA
fcp-trial,201,949642,0.0-162.0-0.0,voc_e2,12441,"[{""event"":""fullscreenenter"",""trial"":1,""time"":1528},{""event"":""blur"",""trial"":31,""time"":223975},{""event"":""focus"",""trial"":31,""time"":227201}]",NA,NA,NA,NA,NA,5,#D89F1C,#3386FF,0,0,1,40,0,708,39,0,619.2999999523163,0,0,experiment,NA,NA,0,0.9,0.1,0,1,153,4,NA
fcp-trial,202,953043,0.0-163.0-0.0,voc_e2,12441,"[{""event"":""fullscreenenter"",""trial"":1,""time"":1528},{""event"":""blur"",""trial"":31,""time"":223975},{""event"":""focus"",""trial"":31,""time"":227201}]",NA,NA,NA,NA,NA,2,#FA92F8,#1CD855,0,10,0,38,1,1486.1000001430511,39,0,407.7999999523163,10,1,experiment,NA,NA,1,0.3,0.7,3,2,154,4,NA
fcp-trial,203,957131,0.0-164.0-0.0,voc_e2,12441,"[{""event"":""fullscreenenter"",""trial"":1,""time"":1528},{""event"":""blur"",""trial"":31,""time"":223975},{""event"":""focus"",""trial"":31,""time"":227201}]",NA,NA,NA,NA,NA,3,#741CD8,#D8271C,10,10,0,40,0,2137.5,37,1,441.69999980926514,10,0,experiment,NA,NA,2,0.5,0.5,5,4,155,4,NA
fcp-trial,204,959749,0.0-165.0-0.0,voc_e2,12441,"[{""event"":""fullscreenenter"",""trial"":1,""time"":1528},{""event"":""blur"",""trial"":31,""time"":223975},{""event"":""focus"",""trial"":31,""time"":227201}]",NA,NA,NA,NA,NA,5,#FA92F8,#1CD855,10,10,0,40,0,514.7000000476837,39,0,592,10,1,experiment,NA,NA,1,0.3,0.7,3,2,156,4,NA
fcp-trial,205,963926,0.0-166.0-0.0,voc_e2,12441,"[{""event"":""fullscreenenter"",""trial"":1,""time"":1528},{""event"":""blur"",""trial"":31,""time"":223975},{""event"":""focus"",""trial"":31,""time"":227201}]",NA,NA,NA,NA,NA,2,#D89F1C,#3386FF,10,0,1,40,0,2118.5999999046326,37,1,550.0999999046326,10,1,experiment,NA,NA,0,0.9,0.1,0,1,157,4,NA
fcp-trial,206,966627,0.0-167.0-0.0,voc_e2,12441,"[{""event"":""fullscreenenter"",""trial"":1,""time"":1528},{""event"":""blur"",""trial"":31,""time"":223975},{""event"":""focus"",""trial"":31,""time"":227201}]",NA,NA,NA,NA,NA,4,#D8271C,#741CD8,10,10,1,40,0,752.6999998092651,39,0,440,10,0,experiment,NA,NA,2,0.5,0.5,4,5,158,4,NA
fcp-trial,207,969725,0.0-168.0-0.0,voc_e2,12441,"[{""event"":""fullscreenenter"",""trial"":1,""time"":1528},{""event"":""blur"",""trial"":31,""time"":223975},{""event"":""focus"",""trial"":31,""time"":227201}]",NA,NA,NA,NA,NA,0,#1CD855,#FA92F8,10,10,1,38,1,1179.5999999046326,37,1,410.60000014305115,10,1,experiment,NA,NA,1,0.7,0.3,2,3,159,4,NA
fcp-trial,208,974209,0.0-169.0-0.0,voc_e2,12441,"[{""event"":""fullscreenenter"",""trial"":1,""time"":1528},{""event"":""blur"",""trial"":31,""time"":223975},{""event"":""focus"",""trial"":31,""time"":227201}]",NA,NA,NA,NA,NA,1,#D8271C,#741CD8,10,10,1,38,1,2063.100000143051,39,0,913.2999999523164,10,0,experiment,NA,NA,2,0.5,0.5,4,5,160,4,NA
fcp-trial,209,977977,0.0-170.0-0.0,voc_e2,12441,"[{""event"":""fullscreenenter"",""trial"":1,""time"":1528},{""event"":""blur"",""trial"":31,""time"":223975},{""event"":""focus"",""trial"":31,""time"":227201}]",NA,NA,NA,NA,NA,4,#FA92F8,#1CD855,0,0,0,40,0,1883.5,39,0,376.7999999523163,0,1,experiment,NA,NA,1,0.3,0.7,3,2,161,4,NA
fcp-trial,210,981402,0.0-171.0-0.0,voc_e2,12441,"[{""event"":""fullscreenenter"",""trial"":1,""time"":1528},{""event"":""blur"",""trial"":31,""time"":223975},{""event"":""focus"",""trial"":31,""time"":227201}]",NA,NA,NA,NA,NA,1,#D89F1C,#3386FF,10,0,1,38,1,1393.4000000953674,37,1,521.1999998092651,10,1,experiment,NA,NA,0,0.9,0.1,0,1,162,4,NA
fcp-trial,211,984761,0.0-172.0-0.0,voc_e2,12441,"[{""event"":""fullscreenenter"",""trial"":1,""time"":1528},{""event"":""blur"",""trial"":31,""time"":223975},{""event"":""focus"",""trial"":31,""time"":227201}]",NA,NA,NA,NA,NA,1,#FA92F8,#1CD855,0,10,0,38,1,936.3000001907349,39,0,914.7000000476836,10,1,experiment,NA,NA,1,0.3,0.7,3,2,163,4,NA
fcp-trial,212,987764,0.0-173.0-0.0,voc_e2,12441,"[{""event"":""fullscreenenter"",""trial"":1,""time"":1528},{""event"":""blur"",""trial"":31,""time"":223975},{""event"":""focus"",""trial"":31,""time"":227201}]",NA,NA,NA,NA,NA,0,#741CD8,#D8271C,0,10,0,38,1,1176.4000000953674,37,1,317.90000009536743,0,0,experiment,NA,NA,2,0.5,0.5,5,4,164,4,NA
fcp-trial,213,990497,0.0-174.0-0.0,voc_e2,12441,"[{""event"":""fullscreenenter"",""trial"":1,""time"":1528},{""event"":""blur"",""trial"":31,""time"":223975},{""event"":""focus"",""trial"":31,""time"":227201}]",NA,NA,NA,NA,NA,5,#741CD8,#D8271C,10,10,0,40,0,831.9000000953674,39,0,392.09999990463257,10,1,experiment,NA,NA,2,0.5,0.5,5,4,165,4,NA
fcp-trial,214,994164,0.0-175.0-0.0,voc_e2,12441,"[{""event"":""fullscreenenter"",""trial"":1,""time"":1528},{""event"":""blur"",""trial"":31,""time"":223975},{""event"":""focus"",""trial"":31,""time"":227201}]",NA,NA,NA,NA,NA,4,#D89F1C,#3386FF,10,0,1,40,0,1407.6000001430511,37,1,749.2000000476837,10,1,experiment,NA,NA,0,0.9,0.1,0,1,166,4,NA
fcp-trial,215,997028,0.0-176.0-0.0,voc_e2,12441,"[{""event"":""fullscreenenter"",""trial"":1,""time"":1528},{""event"":""blur"",""trial"":31,""time"":223975},{""event"":""focus"",""trial"":31,""time"":227201}]",NA,NA,NA,NA,NA,6,#D8271C,#741CD8,10,10,1,40,0,724.7999999523163,37,1,630.5999999046326,10,1,experiment,NA,NA,2,0.5,0.5,4,5,167,4,NA
fcp-trial,216,1000461,0.0-177.0-0.0,voc_e2,12441,"[{""event"":""fullscreenenter"",""trial"":1,""time"":1528},{""event"":""blur"",""trial"":31,""time"":223975},{""event"":""focus"",""trial"":31,""time"":227201}]",NA,NA,NA,NA,NA,3,#1CD855,#FA92F8,0,10,1,40,0,1369.8000001907349,37,1,553.7999999523163,0,1,experiment,NA,NA,1,0.7,0.3,2,3,168,4,NA
fcp-trial,217,1003431,0.0-178.0-0.0,voc_e2,12441,"[{""event"":""fullscreenenter"",""trial"":1,""time"":1528},{""event"":""blur"",""trial"":31,""time"":223975},{""event"":""focus"",""trial"":31,""time"":227201}]",NA,NA,NA,NA,NA,4,#3386FF,#D89F1C,0,10,0,40,0,992.4000000953674,37,1,469.5,0,0,experiment,NA,NA,0,0.1,0.9,1,0,169,4,NA
fcp-trial,218,1005936,0.0-179.0-0.0,voc_e2,12441,"[{""event"":""fullscreenenter"",""trial"":1,""time"":1528},{""event"":""blur"",""trial"":31,""time"":223975},{""event"":""focus"",""trial"":31,""time"":227201}]",NA,NA,NA,NA,NA,2,#741CD8,#D8271C,10,10,0,40,0,466.7000000476837,37,1,528.0999999046326,10,0,experiment,NA,NA,2,0.5,0.5,5,4,170,4,NA
fcp-trial,219,1008399,0.0-180.0-0.0,voc_e2,12441,"[{""event"":""fullscreenenter"",""trial"":1,""time"":1528},{""event"":""blur"",""trial"":31,""time"":223975},{""event"":""focus"",""trial"":31,""time"":227201}]",NA,NA,NA,NA,NA,3,#741CD8,#D8271C,0,0,0,40,0,536.2999999523163,39,0,418.09999990463257,0,1,experiment,NA,NA,2,0.5,0.5,5,4,171,4,NA
fcp-trial,220,1010906,0.0-181.0-0.0,voc_e2,12441,"[{""event"":""fullscreenenter"",""trial"":1,""time"":1528},{""event"":""blur"",""trial"":31,""time"":223975},{""event"":""focus"",""trial"":31,""time"":227201}]",NA,NA,NA,NA,NA,2,#3386FF,#D89F1C,0,10,0,40,0,540.7000000476837,37,1,454.7000000476837,0,0,experiment,NA,NA,0,0.1,0.9,1,0,172,4,NA
fcp-trial,221,1013298,0.0-182.0-0.0,voc_e2,12441,"[{""event"":""fullscreenenter"",""trial"":1,""time"":1528},{""event"":""blur"",""trial"":31,""time"":223975},{""event"":""focus"",""trial"":31,""time"":227201}]",NA,NA,NA,NA,NA,2,#1CD855,#FA92F8,0,0,1,40,0,433.39999985694885,37,1,449.10000014305115,0,1,experiment,NA,NA,1,0.7,0.3,2,3,173,4,NA
fcp-trial,222,1015713,0.0-183.0-0.0,voc_e2,12441,"[{""event"":""fullscreenenter"",""trial"":1,""time"":1528},{""event"":""blur"",""trial"":31,""time"":223975},{""event"":""focus"",""trial"":31,""time"":227201}]",NA,NA,NA,NA,NA,6,#D89F1C,#3386FF,10,0,1,40,0,493.40000009536743,39,0,413.7000000476837,0,0,experiment,NA,NA,0,0.9,0.1,0,1,174,4,NA
fcp-trial,223,1018385,0.0-184.0-0.0,voc_e2,12441,"[{""event"":""fullscreenenter"",""trial"":1,""time"":1528},{""event"":""blur"",""trial"":31,""time"":223975},{""event"":""focus"",""trial"":31,""time"":227201}]",NA,NA,NA,NA,NA,4,#D8271C,#741CD8,0,0,1,40,0,782.5,37,1,379.39999985694885,0,1,experiment,NA,NA,2,0.5,0.5,4,5,175,4,NA
fcp-trial,224,1020721,0.0-185.0-0.0,voc_e2,12441,"[{""event"":""fullscreenenter"",""trial"":1,""time"":1528},{""event"":""blur"",""trial"":31,""time"":223975},{""event"":""focus"",""trial"":31,""time"":227201}]",NA,NA,NA,NA,NA,5,#FA92F8,#1CD855,0,0,0,40,0,422.89999985694885,39,0,403.10000014305115,0,1,experiment,NA,NA,1,0.3,0.7,3,2,176,4,NA
fcp-trial,225,1023140,0.0-186.0-0.0,voc_e2,12441,"[{""event"":""fullscreenenter"",""trial"":1,""time"":1528},{""event"":""blur"",""trial"":31,""time"":223975},{""event"":""focus"",""trial"":31,""time"":227201}]",NA,NA,NA,NA,NA,6,#D8271C,#741CD8,10,0,1,40,0,512,37,1,396,10,1,experiment,NA,NA,2,0.5,0.5,4,5,177,4,NA
fcp-trial,226,1025964,0.0-187.0-0.0,voc_e2,12441,"[{""event"":""fullscreenenter"",""trial"":1,""time"":1528},{""event"":""blur"",""trial"":31,""time"":223975},{""event"":""focus"",""trial"":31,""time"":227201}]",NA,NA,NA,NA,NA,6,#FA92F8,#1CD855,0,10,0,40,0,386.7999999523163,39,0,928.5999999046326,10,1,experiment,NA,NA,1,0.3,0.7,3,2,178,4,NA
fcp-trial,227,1028511,0.0-188.0-0.0,voc_e2,12441,"[{""event"":""fullscreenenter"",""trial"":1,""time"":1528},{""event"":""blur"",""trial"":31,""time"":223975},{""event"":""focus"",""trial"":31,""time"":227201}]",NA,NA,NA,NA,NA,3,#3386FF,#D89F1C,0,10,0,40,0,510.5,39,0,528.9000000953674,10,1,experiment,NA,NA,0,0.1,0.9,1,0,179,4,NA
fcp-trial,228,1030858,0.0-189.0-0.0,voc_e2,12441,"[{""event"":""fullscreenenter"",""trial"":1,""time"":1528},{""event"":""blur"",""trial"":31,""time"":223975},{""event"":""focus"",""trial"":31,""time"":227201}]",NA,NA,NA,NA,NA,1,#741CD8,#D8271C,10,0,0,40,0,395.89999985694885,37,1,443,10,0,experiment,NA,NA,2,0.5,0.5,5,4,180,4,NA
fcp-trial,229,1033964,0.0-190.0-0.0,voc_e2,12441,"[{""event"":""fullscreenenter"",""trial"":1,""time"":1528},{""event"":""blur"",""trial"":31,""time"":223975},{""event"":""focus"",""trial"":31,""time"":227201}]",NA,NA,NA,NA,NA,0,#3386FF,#D89F1C,0,10,0,38,1,1184.0999999046326,39,0,415.10000014305115,10,1,experiment,NA,NA,0,0.1,0.9,1,0,181,5,NA
fcp-trial,230,1036881,0.0-191.0-0.0,voc_e2,12441,"[{""event"":""fullscreenenter"",""trial"":1,""time"":1528},{""event"":""blur"",""trial"":31,""time"":223975},{""event"":""focus"",""trial"":31,""time"":227201}]",NA,NA,NA,NA,NA,3,#FA92F8,#1CD855,0,10,0,40,0,935.8999998569489,39,0,471.7000000476837,10,1,experiment,NA,NA,1,0.3,0.7,3,2,182,5,NA
fcp-trial,231,1039912,0.0-192.0-0.0,voc_e2,12441,"[{""event"":""fullscreenenter"",""trial"":1,""time"":1528},{""event"":""blur"",""trial"":31,""time"":223975},{""event"":""focus"",""trial"":31,""time"":227201}]",NA,NA,NA,NA,NA,1,#FA92F8,#1CD855,0,10,0,38,1,1043.9000000953674,39,0,478.80000019073486,10,1,experiment,NA,NA,1,0.3,0.7,3,2,183,5,NA
fcp-trial,232,1043031,0.0-193.0-0.0,voc_e2,12441,"[{""event"":""fullscreenenter"",""trial"":1,""time"":1528},{""event"":""blur"",""trial"":31,""time"":223975},{""event"":""focus"",""trial"":31,""time"":227201}]",NA,NA,NA,NA,NA,0,#741CD8,#D8271C,0,10,0,38,1,931.2000000476837,37,1,680.7999999523163,0,0,experiment,NA,NA,2,0.5,0.5,5,4,184,5,NA
fcp-trial,233,1046083,0.0-194.0-0.0,voc_e2,12441,"[{""event"":""fullscreenenter"",""trial"":1,""time"":1528},{""event"":""blur"",""trial"":31,""time"":223975},{""event"":""focus"",""trial"":31,""time"":227201}]",NA,NA,NA,NA,NA,5,#741CD8,#D8271C,0,10,0,40,0,1012.9000000953674,39,0,529.7999999523163,10,1,experiment,NA,NA,2,0.5,0.5,5,4,185,5,NA
fcp-trial,234,1049224,0.0-195.0-0.0,voc_e2,12441,"[{""event"":""fullscreenenter"",""trial"":1,""time"":1528},{""event"":""blur"",""trial"":31,""time"":223975},{""event"":""focus"",""trial"":31,""time"":227201}]",NA,NA,NA,NA,NA,5,#3386FF,#D89F1C,0,0,0,40,0,1124.5999999046326,37,1,507.39999985694885,0,0,experiment,NA,NA,0,0.1,0.9,1,0,186,5,NA
fcp-trial,235,1052737,0.0-196.0-0.0,voc_e2,12441,"[{""event"":""fullscreenenter"",""trial"":1,""time"":1528},{""event"":""blur"",""trial"":31,""time"":223975},{""event"":""focus"",""trial"":31,""time"":227201}]",NA,NA,NA,NA,NA,4,#1CD855,#FA92F8,10,0,1,40,0,1372,39,0,630.3999998569489,0,0,experiment,NA,NA,1,0.7,0.3,2,3,187,5,NA
fcp-trial,236,1055965,0.0-197.0-0.0,voc_e2,12441,"[{""event"":""fullscreenenter"",""trial"":1,""time"":1528},{""event"":""blur"",""trial"":31,""time"":223975},{""event"":""focus"",""trial"":31,""time"":227201}]",NA,NA,NA,NA,NA,0,#FA92F8,#1CD855,0,0,0,38,1,1259.9000000953674,39,0,460.19999980926514,0,1,experiment,NA,NA,1,0.3,0.7,3,2,188,5,NA
fcp-trial,237,1058953,0.0-198.0-0.0,voc_e2,12441,"[{""event"":""fullscreenenter"",""trial"":1,""time"":1528},{""event"":""blur"",""trial"":31,""time"":223975},{""event"":""focus"",""trial"":31,""time"":227201}]",NA,NA,NA,NA,NA,1,#3386FF,#D89F1C,0,10,0,38,1,937.2999999523163,37,1,542.1000001430511,0,0,experiment,NA,NA,0,0.1,0.9,1,0,189,5,NA
fcp-trial,238,1062122,0.0-199.0-0.0,voc_e2,12441,"[{""event"":""fullscreenenter"",""trial"":1,""time"":1528},{""event"":""blur"",""trial"":31,""time"":223975},{""event"":""focus"",""trial"":31,""time"":227201}]",NA,NA,NA,NA,NA,5,#D8271C,#741CD8,10,10,1,40,0,1156.2999999523163,39,0,502.7999999523163,10,0,experiment,NA,NA,2,0.5,0.5,4,5,190,5,NA
fcp-trial,239,1065216,0.0-200.0-0.0,voc_e2,12441,"[{""event"":""fullscreenenter"",""trial"":1,""time"":1528},{""event"":""blur"",""trial"":31,""time"":223975},{""event"":""focus"",""trial"":31,""time"":227201}]",NA,NA,NA,NA,NA,4,#D89F1C,#3386FF,10,0,1,40,0,1001.6999998092651,37,1,582.7000000476837,10,1,experiment,NA,NA,0,0.9,0.1,0,1,191,5,NA
fcp-trial,240,1068473,0.0-201.0-0.0,voc_e2,12441,"[{""event"":""fullscreenenter"",""trial"":1,""time"":1528},{""event"":""blur"",""trial"":31,""time"":223975},{""event"":""focus"",""trial"":31,""time"":227201}]",NA,NA,NA,NA,NA,2,#D8271C,#741CD8,0,0,1,38,1,1243.7000000476837,39,0,503.7000000476837,0,0,experiment,NA,NA,2,0.5,0.5,4,5,192,5,NA
fcp-trial,241,1070991,0.0-202.0-0.0,voc_e2,12441,"[{""event"":""fullscreenenter"",""trial"":1,""time"":1528},{""event"":""blur"",""trial"":31,""time"":223975},{""event"":""focus"",""trial"":31,""time"":227201}]",NA,NA,NA,NA,NA,6,#D89F1C,#3386FF,10,10,1,40,0,562,39,0,447.59999990463257,10,0,experiment,NA,NA,0,0.9,0.1,0,1,193,5,NA
fcp-trial,242,1073340,0.0-203.0-0.0,voc_e2,12441,"[{""event"":""fullscreenenter"",""trial"":1,""time"":1528},{""event"":""blur"",""trial"":31,""time"":223975},{""event"":""focus"",""trial"":31,""time"":227201}]",NA,NA,NA,NA,NA,1,#1CD855,#FA92F8,10,10,1,40,0,418.69999980926514,39,0,421.19999980926514,10,0,experiment,NA,NA,1,0.7,0.3,2,3,194,5,NA
fcp-trial,243,1075833,0.0-204.0-0.0,voc_e2,12441,"[{""event"":""fullscreenenter"",""trial"":1,""time"":1528},{""event"":""blur"",""trial"":31,""time"":223975},{""event"":""focus"",""trial"":31,""time"":227201}]",NA,NA,NA,NA,NA,4,#741CD8,#D8271C,0,0,0,40,0,418.5,39,0,565.7000000476837,0,1,experiment,NA,NA,2,0.5,0.5,5,4,195,5,NA
fcp-trial,244,1078276,0.0-205.0-0.0,voc_e2,12441,"[{""event"":""fullscreenenter"",""trial"":1,""time"":1528},{""event"":""blur"",""trial"":31,""time"":223975},{""event"":""focus"",""trial"":31,""time"":227201}]",NA,NA,NA,NA,NA,3,#D89F1C,#3386FF,10,0,1,40,0,477.69999980926514,37,1,456.10000014305115,10,1,experiment,NA,NA,0,0.9,0.1,0,1,196,5,NA
fcp-trial,245,1080819,0.0-206.0-0.0,voc_e2,12441,"[{""event"":""fullscreenenter"",""trial"":1,""time"":1528},{""event"":""blur"",""trial"":31,""time"":223975},{""event"":""focus"",""trial"":31,""time"":227201}]",NA,NA,NA,NA,NA,6,#1CD855,#FA92F8,0,0,1,40,0,632,39,0,402,0,0,experiment,NA,NA,1,0.7,0.3,2,3,197,5,NA
fcp-trial,246,1083408,0.0-207.0-0.0,voc_e2,12441,"[{""event"":""fullscreenenter"",""trial"":1,""time"":1528},{""event"":""blur"",""trial"":31,""time"":223975},{""event"":""focus"",""trial"":31,""time"":227201}]",NA,NA,NA,NA,NA,5,#1CD855,#FA92F8,10,0,1,40,0,608.7999999523163,37,1,468.7999999523163,10,1,experiment,NA,NA,1,0.7,0.3,2,3,198,5,NA
fcp-trial,247,1086301,0.0-208.0-0.0,voc_e2,12441,"[{""event"":""fullscreenenter"",""trial"":1,""time"":1528},{""event"":""blur"",""trial"":31,""time"":223975},{""event"":""focus"",""trial"":31,""time"":227201}]",NA,NA,NA,NA,NA,0,#741CD8,#D8271C,0,0,0,38,1,901.8999998569489,39,0,480.5,0,1,experiment,NA,NA,2,0.5,0.5,5,4,199,5,NA
fcp-trial,248,1088966,0.0-209.0-0.0,voc_e2,12441,"[{""event"":""fullscreenenter"",""trial"":1,""time"":1528},{""event"":""blur"",""trial"":31,""time"":223975},{""event"":""focus"",""trial"":31,""time"":227201}]",NA,NA,NA,NA,NA,6,#741CD8,#D8271C,10,0,0,40,0,707.3999998569489,37,1,448.7999999523163,10,0,experiment,NA,NA,2,0.5,0.5,5,4,200,5,NA
fcp-trial,249,1091501,0.0-210.0-0.0,voc_e2,12441,"[{""event"":""fullscreenenter"",""trial"":1,""time"":1528},{""event"":""blur"",""trial"":31,""time"":223975},{""event"":""focus"",""trial"":31,""time"":227201}]",NA,NA,NA,NA,NA,5,#D89F1C,#3386FF,0,0,1,40,0,559.9000000953674,37,1,466.2999999523163,0,1,experiment,NA,NA,0,0.9,0.1,0,1,201,5,NA
fcp-trial,250,1094073,0.0-211.0-0.0,voc_e2,12441,"[{""event"":""fullscreenenter"",""trial"":1,""time"":1528},{""event"":""blur"",""trial"":31,""time"":223975},{""event"":""focus"",""trial"":31,""time"":227201}]",NA,NA,NA,NA,NA,2,#1CD855,#FA92F8,0,0,1,40,0,561.7999999523163,39,0,501.30000019073486,0,0,experiment,NA,NA,1,0.7,0.3,2,3,202,5,NA
fcp-trial,251,1096718,0.0-212.0-0.0,voc_e2,12441,"[{""event"":""fullscreenenter"",""trial"":1,""time"":1528},{""event"":""blur"",""trial"":31,""time"":223975},{""event"":""focus"",""trial"":31,""time"":227201}]",NA,NA,NA,NA,NA,3,#FA92F8,#1CD855,10,10,0,40,0,704.6000001430511,37,1,429.59999990463257,10,0,experiment,NA,NA,1,0.3,0.7,3,2,203,5,NA
fcp-trial,252,1099092,0.0-213.0-0.0,voc_e2,12441,"[{""event"":""fullscreenenter"",""trial"":1,""time"":1528},{""event"":""blur"",""trial"":31,""time"":223975},{""event"":""focus"",""trial"":31,""time"":227201}]",NA,NA,NA,NA,NA,1,#741CD8,#D8271C,0,10,0,40,0,526.5,39,0,337.90000009536743,10,1,experiment,NA,NA,2,0.5,0.5,5,4,204,5,NA
fcp-trial,253,1101668,0.0-214.0-0.0,voc_e2,12441,"[{""event"":""fullscreenenter"",""trial"":1,""time"":1528},{""event"":""blur"",""trial"":31,""time"":223975},{""event"":""focus"",""trial"":31,""time"":227201}]",NA,NA,NA,NA,NA,0,#1CD855,#FA92F8,0,0,1,40,0,585,37,1,481.90000009536743,0,1,experiment,NA,NA,1,0.7,0.3,2,3,205,5,NA
fcp-trial,254,1104367,0.0-215.0-0.0,voc_e2,12441,"[{""event"":""fullscreenenter"",""trial"":1,""time"":1528},{""event"":""blur"",""trial"":31,""time"":223975},{""event"":""focus"",""trial"":31,""time"":227201}]",NA,NA,NA,NA,NA,1,#3386FF,#D89F1C,0,10,0,40,0,612.9000000953674,37,1,577.4000000953674,0,0,experiment,NA,NA,0,0.1,0.9,1,0,206,5,NA
fcp-trial,255,1106948,0.0-216.0-0.0,voc_e2,12441,"[{""event"":""fullscreenenter"",""trial"":1,""time"":1528},{""event"":""blur"",""trial"":31,""time"":223975},{""event"":""focus"",""trial"":31,""time"":227201}]",NA,NA,NA,NA,NA,3,#741CD8,#D8271C,10,10,0,40,0,680.7999999523163,39,0,392.2999999523163,10,1,experiment,NA,NA,2,0.5,0.5,5,4,207,5,NA
fcp-trial,256,1109403,0.0-217.0-0.0,voc_e2,12441,"[{""event"":""fullscreenenter"",""trial"":1,""time"":1528},{""event"":""blur"",""trial"":31,""time"":223975},{""event"":""focus"",""trial"":31,""time"":227201}]",NA,NA,NA,NA,NA,2,#3386FF,#D89F1C,0,10,0,40,0,480.09999990463257,39,0,466.5,10,1,experiment,NA,NA,0,0.1,0.9,1,0,208,5,NA
fcp-trial,257,1112119,0.0-218.0-0.0,voc_e2,12441,"[{""event"":""fullscreenenter"",""trial"":1,""time"":1528},{""event"":""blur"",""trial"":31,""time"":223975},{""event"":""focus"",""trial"":31,""time"":227201}]",NA,NA,NA,NA,NA,4,#1CD855,#FA92F8,10,0,1,40,0,639.5999999046326,37,1,566.3999998569489,10,1,experiment,NA,NA,1,0.7,0.3,2,3,209,5,NA
fcp-trial,258,1115103,0.0-219.0-0.0,voc_e2,12441,"[{""event"":""fullscreenenter"",""trial"":1,""time"":1528},{""event"":""blur"",""trial"":31,""time"":223975},{""event"":""focus"",""trial"":31,""time"":227201}]",NA,NA,NA,NA,NA,0,#D89F1C,#3386FF,10,0,1,38,1,974.6000001430511,37,1,501.69999980926514,10,1,experiment,NA,NA,0,0.9,0.1,0,1,210,5,NA
audio-instructions,259,1123049,0.0-220.0,voc_e2,12441,"[{""event"":""fullscreenenter"",""trial"":1,""time"":1528},{""event"":""blur"",""trial"":31,""time"":223975},{""event"":""focus"",""trial"":31,""time"":227201}]",NA,3469.5,static/audio/pause.wav,NA,0,NA,NA,NA,NA,NA,NA,NA,NA,NA,NA,NA,NA,NA,NA,NA,NA,NA,NA,NA,NA,NA,NA,NA,NA,NA
fcp-trial,260,1126104,0.0-221.0-0.0,voc_e2,12441,"[{""event"":""fullscreenenter"",""trial"":1,""time"":1528},{""event"":""blur"",""trial"":31,""time"":223975},{""event"":""focus"",""trial"":31,""time"":227201}]",NA,NA,NA,NA,NA,5,#FA92F8,#1CD855,0,10,0,40,0,859.5,37,1,686.7000000476837,0,0,experiment,NA,NA,1,0.3,0.7,3,2,211,5,NA
fcp-trial,261,1128519,0.0-222.0-0.0,voc_e2,12441,"[{""event"":""fullscreenenter"",""trial"":1,""time"":1528},{""event"":""blur"",""trial"":31,""time"":223975},{""event"":""focus"",""trial"":31,""time"":227201}]",NA,NA,NA,NA,NA,1,#FA92F8,#1CD855,0,10,0,40,0,515.5999999046326,39,0,392.7999999523163,10,1,experiment,NA,NA,1,0.3,0.7,3,2,212,5,NA
fcp-trial,262,1131269,0.0-223.0-0.0,voc_e2,12441,"[{""event"":""fullscreenenter"",""trial"":1,""time"":1528},{""event"":""blur"",""trial"":31,""time"":223975},{""event"":""focus"",""trial"":31,""time"":227201}]",NA,NA,NA,NA,NA,2,#1CD855,#FA92F8,10,0,1,40,0,695.4000000953674,37,1,546.6000001430511,10,1,experiment,NA,NA,1,0.7,0.3,2,3,213,5,NA
fcp-trial,263,1133888,0.0-224.0-0.0,voc_e2,12441,"[{""event"":""fullscreenenter"",""trial"":1,""time"":1528},{""event"":""blur"",""trial"":31,""time"":223975},{""event"":""focus"",""trial"":31,""time"":227201}]",NA,NA,NA,NA,NA,4,#3386FF,#D89F1C,0,10,0,40,0,588.5,37,1,523.7000000476837,0,0,experiment,NA,NA,0,0.1,0.9,1,0,214,5,NA
fcp-trial,264,1136284,0.0-225.0-0.0,voc_e2,12441,"[{""event"":""fullscreenenter"",""trial"":1,""time"":1528},{""event"":""blur"",""trial"":31,""time"":223975},{""event"":""focus"",""trial"":31,""time"":227201}]",NA,NA,NA,NA,NA,3,#3386FF,#D89F1C,0,10,0,40,0,392,37,1,497.09999990463257,0,0,experiment,NA,NA,0,0.1,0.9,1,0,215,5,NA
fcp-trial,265,1139384,0.0-226.0-0.0,voc_e2,12441,"[{""event"":""fullscreenenter"",""trial"":1,""time"":1528},{""event"":""blur"",""trial"":31,""time"":223975},{""event"":""focus"",""trial"":31,""time"":227201}]",NA,NA,NA,NA,NA,0,#D89F1C,#3386FF,0,0,1,38,1,1013.2000000476837,39,0,581.5,0,0,experiment,NA,NA,0,0.9,0.1,0,1,216,5,NA
fcp-trial,266,1142228,0.0-227.0-0.0,voc_e2,12441,"[{""event"":""fullscreenenter"",""trial"":1,""time"":1528},{""event"":""blur"",""trial"":31,""time"":223975},{""event"":""focus"",""trial"":31,""time"":227201}]",NA,NA,NA,NA,NA,6,#741CD8,#D8271C,10,10,0,40,0,794.5999999046326,39,0,541.7999999523163,10,1,experiment,NA,NA,2,0.5,0.5,5,4,217,5,NA
fcp-trial,267,1145652,0.0-228.0-0.0,voc_e2,12441,"[{""event"":""fullscreenenter"",""trial"":1,""time"":1528},{""event"":""blur"",""trial"":31,""time"":223975},{""event"":""focus"",""trial"":31,""time"":227201}]",NA,NA,NA,NA,NA,6,#1CD855,#FA92F8,10,10,1,40,0,1459.3999998569489,39,0,455.2999999523163,10,0,experiment,NA,NA,1,0.7,0.3,2,3,218,5,NA
fcp-trial,268,1148394,0.0-229.0-0.0,voc_e2,12441,"[{""event"":""fullscreenenter"",""trial"":1,""time"":1528},{""event"":""blur"",""trial"":31,""time"":223975},{""event"":""focus"",""trial"":31,""time"":227201}]",NA,NA,NA,NA,NA,4,#FA92F8,#1CD855,0,10,0,40,0,796.0999999046326,37,1,437.30000019073486,0,0,experiment,NA,NA,1,0.3,0.7,3,2,219,5,NA
fcp-trial,269,1150821,0.0-230.0-0.0,voc_e2,12441,"[{""event"":""fullscreenenter"",""trial"":1,""time"":1528},{""event"":""blur"",""trial"":31,""time"":223975},{""event"":""focus"",""trial"":31,""time"":227201}]",NA,NA,NA,NA,NA,2,#D89F1C,#3386FF,10,0,1,40,0,567.7000000476837,39,0,349.5,0,0,experiment,NA,NA,0,0.9,0.1,0,1,220,5,NA
fcp-trial,270,1153427,0.0-231.0-0.0,voc_e2,12441,"[{""event"":""fullscreenenter"",""trial"":1,""time"":1528},{""event"":""blur"",""trial"":31,""time"":223975},{""event"":""focus"",""trial"":31,""time"":227201}]",NA,NA,NA,NA,NA,4,#741CD8,#D8271C,10,0,0,40,0,736.5999999046326,39,0,360.7000000476837,0,1,experiment,NA,NA,2,0.5,0.5,5,4,221,5,NA
fcp-trial,271,1156213,0.0-232.0-0.0,voc_e2,12441,"[{""event"":""fullscreenenter"",""trial"":1,""time"":1528},{""event"":""blur"",""trial"":31,""time"":223975},{""event"":""focus"",""trial"":31,""time"":227201}]",NA,NA,NA,NA,NA,1,#D8271C,#741CD8,10,10,1,40,0,834.7999999523163,39,0,444.59999990463257,10,0,experiment,NA,NA,2,0.5,0.5,4,5,222,5,NA
fcp-trial,272,1159244,0.0-233.0-0.0,voc_e2,12441,"[{""event"":""fullscreenenter"",""trial"":1,""time"":1528},{""event"":""blur"",""trial"":31,""time"":223975},{""event"":""focus"",""trial"":31,""time"":227201}]",NA,NA,NA,NA,NA,0,#FA92F8,#1CD855,0,10,0,38,1,1113,39,0,410.7999999523163,10,1,experiment,NA,NA,1,0.3,0.7,3,2,223,5,NA
fcp-trial,273,1162272,0.0-234.0-0.0,voc_e2,12441,"[{""event"":""fullscreenenter"",""trial"":1,""time"":1528},{""event"":""blur"",""trial"":31,""time"":223975},{""event"":""focus"",""trial"":31,""time"":227201}]",NA,NA,NA,NA,NA,0,#D8271C,#741CD8,10,10,1,38,1,1203.4000000953674,39,0,314.10000014305115,10,0,experiment,NA,NA,2,0.5,0.5,4,5,224,5,NA
fcp-trial,274,1165784,0.0-235.0-0.0,voc_e2,12441,"[{""event"":""fullscreenenter"",""trial"":1,""time"":1528},{""event"":""blur"",""trial"":31,""time"":223975},{""event"":""focus"",""trial"":31,""time"":227201}]",NA,NA,NA,NA,NA,1,#D89F1C,#3386FF,10,0,1,38,1,1075.6000001430511,39,0,929.3999998569489,0,0,experiment,NA,NA,0,0.9,0.1,0,1,225,5,NA
fcp-trial,275,1169036,0.0-236.0-0.0,voc_e2,12441,"[{""event"":""fullscreenenter"",""trial"":1,""time"":1528},{""event"":""blur"",""trial"":31,""time"":223975},{""event"":""focus"",""trial"":31,""time"":227201}]",NA,NA,NA,NA,NA,5,#D8271C,#741CD8,0,10,1,40,0,1323.9000000953674,39,0,421.7000000476837,10,0,experiment,NA,NA,2,0.5,0.5,4,5,226,6,NA
fcp-trial,276,1172029,0.0-237.0-0.0,voc_e2,12441,"[{""event"":""fullscreenenter"",""trial"":1,""time"":1528},{""event"":""blur"",""trial"":31,""time"":223975},{""event"":""focus"",""trial"":31,""time"":227201}]",NA,NA,NA,NA,NA,5,#3386FF,#D89F1C,0,0,0,40,0,1071.9000000953674,39,0,411.39999985694885,0,1,experiment,NA,NA,0,0.1,0.9,1,0,227,6,NA
fcp-trial,277,1176414,0.0-238.0-0.0,voc_e2,12441,"[{""event"":""fullscreenenter"",""trial"":1,""time"":1528},{""event"":""blur"",""trial"":31,""time"":223975},{""event"":""focus"",""trial"":31,""time"":227201}]",NA,NA,NA,NA,NA,3,#1CD855,#FA92F8,10,0,1,40,0,2418.2000000476837,37,1,456.39999985694885,10,1,experiment,NA,NA,1,0.7,0.3,2,3,228,6,NA
fcp-trial,278,1178972,0.0-239.0-0.0,voc_e2,12441,"[{""event"":""fullscreenenter"",""trial"":1,""time"":1528},{""event"":""blur"",""trial"":31,""time"":223975},{""event"":""focus"",""trial"":31,""time"":227201}]",NA,NA,NA,NA,NA,3,#D8271C,#741CD8,10,0,1,40,0,600.5,37,1,448.5,10,1,experiment,NA,NA,2,0.5,0.5,4,5,229,6,NA
fcp-trial,279,1181509,0.0-240.0-0.0,voc_e2,12441,"[{""event"":""fullscreenenter"",""trial"":1,""time"":1528},{""event"":""blur"",""trial"":31,""time"":223975},{""event"":""focus"",""trial"":31,""time"":227201}]",NA,NA,NA,NA,NA,2,#741CD8,#D8271C,0,10,0,40,0,526,37,1,503.10000014305115,0,0,experiment,NA,NA,2,0.5,0.5,5,4,230,6,NA
fcp-trial,280,1183956,0.0-241.0-0.0,voc_e2,12441,"[{""event"":""fullscreenenter"",""trial"":1,""time"":1528},{""event"":""blur"",""trial"":31,""time"":223975},{""event"":""focus"",""trial"":31,""time"":227201}]",NA,NA,NA,NA,NA,6,#D89F1C,#3386FF,10,0,1,40,0,558.9000000953674,39,0,379.7999999523163,0,0,experiment,NA,NA,0,0.9,0.1,0,1,231,6,NA
fcp-trial,281,1186601,0.0-242.0-0.0,voc_e2,12441,"[{""event"":""fullscreenenter"",""trial"":1,""time"":1528},{""event"":""blur"",""trial"":31,""time"":223975},{""event"":""focus"",""trial"":31,""time"":227201}]",NA,NA,NA,NA,NA,4,#1CD855,#FA92F8,10,0,1,40,0,648.9000000953674,37,1,488.40000009536743,10,1,experiment,NA,NA,1,0.7,0.3,2,3,232,6,NA
fcp-trial,282,1189236,0.0-243.0-0.0,voc_e2,12441,"[{""event"":""fullscreenenter"",""trial"":1,""time"":1528},{""event"":""blur"",""trial"":31,""time"":223975},{""event"":""focus"",""trial"":31,""time"":227201}]",NA,NA,NA,NA,NA,3,#1CD855,#FA92F8,10,10,1,40,0,681.5,37,1,447.2999999523163,10,1,experiment,NA,NA,1,0.7,0.3,2,3,233,6,NA
fcp-trial,283,1191775,0.0-244.0-0.0,voc_e2,12441,"[{""event"":""fullscreenenter"",""trial"":1,""time"":1528},{""event"":""blur"",""trial"":31,""time"":223975},{""event"":""focus"",""trial"":31,""time"":227201}]",NA,NA,NA,NA,NA,2,#1CD855,#FA92F8,10,0,1,40,0,612.0999999046326,37,1,419.80000019073486,10,1,experiment,NA,NA,1,0.7,0.3,2,3,234,6,NA
fcp-trial,284,1194391,0.0-245.0-0.0,voc_e2,12441,"[{""event"":""fullscreenenter"",""trial"":1,""time"":1528},{""event"":""blur"",""trial"":31,""time"":223975},{""event"":""focus"",""trial"":31,""time"":227201}]",NA,NA,NA,NA,NA,3,#3386FF,#D89F1C,0,10,0,40,0,641.5,37,1,468,0,0,experiment,NA,NA,0,0.1,0.9,1,0,235,6,NA
fcp-trial,285,1197443,0.0-246.0-0.0,voc_e2,12441,"[{""event"":""fullscreenenter"",""trial"":1,""time"":1528},{""event"":""blur"",""trial"":31,""time"":223975},{""event"":""focus"",""trial"":31,""time"":227201}]",NA,NA,NA,NA,NA,0,#D89F1C,#3386FF,10,0,1,38,1,1144.3000001907349,37,1,399.89999985694885,10,1,experiment,NA,NA,0,0.9,0.1,0,1,236,6,NA
fcp-trial,286,1200199,0.0-247.0-0.0,voc_e2,12441,"[{""event"":""fullscreenenter"",""trial"":1,""time"":1528},{""event"":""blur"",""trial"":31,""time"":223975},{""event"":""focus"",""trial"":31,""time"":227201}]",NA,NA,NA,NA,NA,5,#741CD8,#D8271C,0,10,0,40,0,855,39,0,392.2999999523163,10,1,experiment,NA,NA,2,0.5,0.5,5,4,237,6,NA
fcp-trial,287,1202773,0.0-248.0-0.0,voc_e2,12441,"[{""event"":""fullscreenenter"",""trial"":1,""time"":1528},{""event"":""blur"",""trial"":31,""time"":223975},{""event"":""focus"",""trial"":31,""time"":227201}]",NA,NA,NA,NA,NA,3,#D8271C,#741CD8,0,0,1,40,0,664.5,37,1,399.89999985694885,0,1,experiment,NA,NA,2,0.5,0.5,4,5,238,6,NA
fcp-trial,288,1205121,0.0-249.0-0.0,voc_e2,12441,"[{""event"":""fullscreenenter"",""trial"":1,""time"":1528},{""event"":""blur"",""trial"":31,""time"":223975},{""event"":""focus"",""trial"":31,""time"":227201}]",NA,NA,NA,NA,NA,6,#FA92F8,#1CD855,10,10,0,40,0,364.09999990463257,39,0,476.5,10,1,experiment,NA,NA,1,0.3,0.7,3,2,239,6,NA
fcp-trial,289,1207429,0.0-250.0-0.0,voc_e2,12441,"[{""event"":""fullscreenenter"",""trial"":1,""time"":1528},{""event"":""blur"",""trial"":31,""time"":223975},{""event"":""focus"",""trial"":31,""time"":227201}]",NA,NA,NA,NA,NA,4,#741CD8,#D8271C,10,0,0,40,0,470.2999999523163,39,0,329.09999990463257,0,1,experiment,NA,NA,2,0.5,0.5,5,4,240,6,NA
fcp-trial,290,1209879,0.0-251.0-0.0,voc_e2,12441,"[{""event"":""fullscreenenter"",""trial"":1,""time"":1528},{""event"":""blur"",""trial"":31,""time"":223975},{""event"":""focus"",""trial"":31,""time"":227201}]",NA,NA,NA,NA,NA,4,#D89F1C,#3386FF,0,0,1,40,0,538.5,39,0,402.2999999523163,0,0,experiment,NA,NA,0,0.9,0.1,0,1,241,6,NA
fcp-trial,291,1212309,0.0-252.0-0.0,voc_e2,12441,"[{""event"":""fullscreenenter"",""trial"":1,""time"":1528},{""event"":""blur"",""trial"":31,""time"":223975},{""event"":""focus"",""trial"":31,""time"":227201}]",NA,NA,NA,NA,NA,1,#741CD8,#D8271C,10,10,0,40,0,540.4000000953674,37,1,380.2999999523163,10,0,experiment,NA,NA,2,0.5,0.5,5,4,242,6,NA
fcp-trial,292,1215090,0.0-253.0-0.0,voc_e2,12441,"[{""event"":""fullscreenenter"",""trial"":1,""time"":1528},{""event"":""blur"",""trial"":31,""time"":223975},{""event"":""focus"",""trial"":31,""time"":227201}]",NA,NA,NA,NA,NA,0,#FA92F8,#1CD855,0,10,0,38,1,829.7999999523163,39,0,442.7999999523163,10,1,experiment,NA,NA,1,0.3,0.7,3,2,243,6,NA
fcp-trial,293,1218104,0.0-254.0-0.0,voc_e2,12441,"[{""event"":""fullscreenenter"",""trial"":1,""time"":1528},{""event"":""blur"",""trial"":31,""time"":223975},{""event"":""focus"",""trial"":31,""time"":227201}]",NA,NA,NA,NA,NA,2,#D89F1C,#3386FF,10,0,1,38,1,877,37,1,632.5,10,1,experiment,NA,NA,0,0.9,0.1,0,1,244,6,NA
fcp-trial,294,1220656,0.0-255.0-0.0,voc_e2,12441,"[{""event"":""fullscreenenter"",""trial"":1,""time"":1528},{""event"":""blur"",""trial"":31,""time"":223975},{""event"":""focus"",""trial"":31,""time"":227201}]",NA,NA,NA,NA,NA,5,#1CD855,#FA92F8,10,0,1,40,0,579.5,39,0,465.5,0,0,experiment,NA,NA,1,0.7,0.3,2,3,245,6,NA
fcp-trial,295,1223047,0.0-256.0-0.0,voc_e2,12441,"[{""event"":""fullscreenenter"",""trial"":1,""time"":1528},{""event"":""blur"",""trial"":31,""time"":223975},{""event"":""focus"",""trial"":31,""time"":227201}]",NA,NA,NA,NA,NA,2,#741CD8,#D8271C,10,0,0,40,0,401.5,37,1,481.40000009536743,10,0,experiment,NA,NA,2,0.5,0.5,5,4,246,6,NA
fcp-trial,296,1225515,0.0-257.0-0.0,voc_e2,12441,"[{""event"":""fullscreenenter"",""trial"":1,""time"":1528},{""event"":""blur"",""trial"":31,""time"":223975},{""event"":""focus"",""trial"":31,""time"":227201}]",NA,NA,NA,NA,NA,1,#3386FF,#D89F1C,0,10,0,40,0,540.3999998569489,37,1,419.2000000476837,0,0,experiment,NA,NA,0,0.1,0.9,1,0,247,6,NA
fcp-trial,297,1228490,0.0-258.0-0.0,voc_e2,12441,"[{""event"":""fullscreenenter"",""trial"":1,""time"":1528},{""event"":""blur"",""trial"":31,""time"":223975},{""event"":""focus"",""trial"":31,""time"":227201}]",NA,NA,NA,NA,NA,1,#1CD855,#FA92F8,10,10,1,38,1,783.9000000953674,37,1,681.3999998569489,10,1,experiment,NA,NA,1,0.7,0.3,2,3,248,6,NA
fcp-trial,298,1231761,0.0-259.0-0.0,voc_e2,12441,"[{""event"":""fullscreenenter"",""trial"":1,""time"":1528},{""event"":""blur"",""trial"":31,""time"":223975},{""event"":""focus"",""trial"":31,""time"":227201}]",NA,NA,NA,NA,NA,5,#D89F1C,#3386FF,10,0,1,40,0,1246,39,0,517.0999999046326,0,0,experiment,NA,NA,0,0.9,0.1,0,1,249,6,NA
fcp-trial,299,1235022,0.0-260.0-0.0,voc_e2,12441,"[{""event"":""fullscreenenter"",""trial"":1,""time"":1528},{""event"":""blur"",""trial"":31,""time"":223975},{""event"":""focus"",""trial"":31,""time"":227201}]",NA,NA,NA,NA,NA,0,#741CD8,#D8271C,10,10,0,38,1,729.5,37,1,1023.2000000476836,10,0,experiment,NA,NA,2,0.5,0.5,5,4,250,6,NA
fcp-trial,300,1237725,0.0-261.0-0.0,voc_e2,12441,"[{""event"":""fullscreenenter"",""trial"":1,""time"":1528},{""event"":""blur"",""trial"":31,""time"":223975},{""event"":""focus"",""trial"":31,""time"":227201}]",NA,NA,NA,NA,NA,6,#3386FF,#D89F1C,0,10,0,40,0,730,37,1,465.80000019073486,0,0,experiment,NA,NA,0,0.1,0.9,1,0,251,6,NA
fcp-trial,301,1240256,0.0-262.0-0.0,voc_e2,12441,"[{""event"":""fullscreenenter"",""trial"":1,""time"":1528},{""event"":""blur"",""trial"":31,""time"":223975},{""event"":""focus"",""trial"":31,""time"":227201}]",NA,NA,NA,NA,NA,6,#D8271C,#741CD8,10,10,1,40,0,520.8999998569489,37,1,504.09999990463257,10,1,experiment,NA,NA,2,0.5,0.5,4,5,252,6,NA
fcp-trial,302,1242750,0.0-263.0-0.0,voc_e2,12441,"[{""event"":""fullscreenenter"",""trial"":1,""time"":1528},{""event"":""blur"",""trial"":31,""time"":223975},{""event"":""focus"",""trial"":31,""time"":227201}]",NA,NA,NA,NA,NA,3,#FA92F8,#1CD855,0,10,0,40,0,556.0999999046326,37,1,428.60000014305115,0,0,experiment,NA,NA,1,0.3,0.7,3,2,253,6,NA
fcp-trial,303,1245276,0.0-264.0-0.0,voc_e2,12441,"[{""event"":""fullscreenenter"",""trial"":1,""time"":1528},{""event"":""blur"",""trial"":31,""time"":223975},{""event"":""focus"",""trial"":31,""time"":227201}]",NA,NA,NA,NA,NA,6,#D89F1C,#3386FF,10,0,1,40,0,557.2000000476837,37,1,458.59999990463257,10,1,experiment,NA,NA,0,0.9,0.1,0,1,254,6,NA
fcp-trial,304,1247757,0.0-265.0-0.0,voc_e2,12441,"[{""event"":""fullscreenenter"",""trial"":1,""time"":1528},{""event"":""blur"",""trial"":31,""time"":223975},{""event"":""focus"",""trial"":31,""time"":227201}]",NA,NA,NA,NA,NA,2,#3386FF,#D89F1C,0,10,0,40,0,497.5,39,0,474.89999985694885,10,1,experiment,NA,NA,0,0.1,0.9,1,0,255,6,NA
