trial_type,trial_index,time_elapsed,internal_node_id,task_version,subject_id,interactions,success,rt,stimulus,key_press,button_pressed,offer,arcade_color_L,arcade_color_R,arcade_outcome_L,arcade_outcome_R,correct,stage_1_key,stage_1_choice,stage_1_rt,stage_2_key,stage_2_choice,stage_2_rt,stage_3_outcome,accuracy,phase,responses,num_errors,context,reward_prob_L,reward_prob_R,arcade_id_L,arcade_id_R,trial,block,response
pavlovia,0,13,0.0-0.0,voc_e2,11738,[],NA,NA,NA,NA,NA,NA,NA,NA,NA,NA,NA,NA,NA,NA,NA,NA,NA,NA,NA,NA,NA,NA,NA,NA,NA,NA,NA,NA,NA,NA
fullscreen,1,22620,0.0-1.0,voc_e2,11738,"[{""event"":""fullscreenenter"",""trial"":1,""time"":21645}]",TRUE,NA,NA,NA,NA,NA,NA,NA,NA,NA,NA,NA,NA,NA,NA,NA,NA,NA,NA,NA,NA,NA,NA,NA,NA,NA,NA,NA,NA,NA
audio-keyboard-response,2,28166,0.0-2.0,voc_e2,11738,"[{""event"":""fullscreenenter"",""trial"":1,""time"":21645}]",NA,4851,static/audio/beep_loop.wav,32,NA,NA,NA,NA,NA,NA,NA,NA,NA,NA,NA,NA,NA,NA,NA,NA,NA,NA,NA,NA,NA,NA,NA,NA,NA,NA
audio-test,3,41211,0.0-3.0,voc_e2,11738,"[{""event"":""fullscreenenter"",""trial"":1,""time"":21645}]",NA,NA,static/audio/turtle.wav,NA,3,NA,NA,NA,NA,NA,NA,NA,NA,NA,NA,NA,NA,NA,NA,NA,NA,NA,NA,NA,NA,NA,NA,NA,NA,NA
audio-test,4,49562,0.0-4.0,voc_e2,11738,"[{""event"":""fullscreenenter"",""trial"":1,""time"":21645}]",NA,NA,static/audio/shark.wav,NA,2,NA,NA,NA,NA,NA,NA,NA,NA,NA,NA,NA,NA,NA,NA,NA,NA,NA,NA,NA,NA,NA,NA,NA,NA,NA
audio-instructions,5,57370,0.0-5.0-0.0,voc_e2,11738,"[{""event"":""fullscreenenter"",""trial"":1,""time"":21645}]",NA,2011,static/audio/instructions1.wav,NA,0,NA,NA,NA,NA,NA,NA,NA,NA,NA,NA,NA,NA,NA,NA,NA,NA,NA,NA,NA,NA,NA,NA,NA,NA,NA
audio-instructions,6,70418,0.0-5.0-1.0,voc_e2,11738,"[{""event"":""fullscreenenter"",""trial"":1,""time"":21645}]",NA,6302.20000000007,static/audio/instructions2.wav,NA,0,NA,NA,NA,NA,NA,NA,NA,NA,NA,NA,NA,NA,NA,NA,NA,NA,NA,NA,NA,NA,NA,NA,NA,NA,NA
audio-instructions,7,78690,0.0-5.0-2.0,voc_e2,11738,"[{""event"":""fullscreenenter"",""trial"":1,""time"":21645}]",NA,2462.29999999993,static/audio/instructions3.wav,NA,0,NA,NA,NA,NA,NA,NA,NA,NA,NA,NA,NA,NA,NA,NA,NA,NA,NA,NA,NA,NA,NA,NA,NA,NA,NA
audio-instructions,8,95665,0.0-5.0-3.0,voc_e2,11738,"[{""event"":""fullscreenenter"",""trial"":1,""time"":21645}]",NA,3748.5,static/audio/instructions4.wav,NA,0,NA,NA,NA,NA,NA,NA,NA,NA,NA,NA,NA,NA,NA,NA,NA,NA,NA,NA,NA,NA,NA,NA,NA,NA,NA
audio-instructions,9,113747,0.0-5.0-4.0,voc_e2,11738,"[{""event"":""fullscreenenter"",""trial"":1,""time"":21645}]",NA,8687.5,static/audio/instructions5.wav,NA,0,NA,NA,NA,NA,NA,NA,NA,NA,NA,NA,NA,NA,NA,NA,NA,NA,NA,NA,NA,NA,NA,NA,NA,NA,NA
fcp-practice,10,116768,0.0-5.0-5.0-0.0,voc_e2,11738,"[{""event"":""fullscreenenter"",""trial"":1,""time"":21645}]",NA,NA,NA,NA,NA,NA,#EDC948,#46d3c8,10,0,1,null,null,null,37,1,1508.7999999999302,10,1,practice,NA,NA,NA,NA,NA,NA,NA,NA,NA,NA
fcp-practice,11,118995,0.0-5.0-5.0-1.0,voc_e2,11738,"[{""event"":""fullscreenenter"",""trial"":1,""time"":21645}]",NA,NA,NA,NA,NA,NA,#EDC948,#46d3c8,10,0,1,null,null,null,37,1,720.0999999999767,10,1,practice,NA,NA,NA,NA,NA,NA,NA,NA,NA,NA
fcp-practice,12,120945,0.0-5.0-5.0-2.0,voc_e2,11738,"[{""event"":""fullscreenenter"",""trial"":1,""time"":21645}]",NA,NA,NA,NA,NA,NA,#EDC948,#46d3c8,0,10,1,null,null,null,37,1,442.19999999995343,0,1,practice,NA,NA,NA,NA,NA,NA,NA,NA,NA,NA
fcp-practice,13,122914,0.0-5.0-5.0-3.0,voc_e2,11738,"[{""event"":""fullscreenenter"",""trial"":1,""time"":21645}]",NA,NA,NA,NA,NA,NA,#EDC948,#46d3c8,10,0,1,null,null,null,37,1,460.69999999995343,10,1,practice,NA,NA,NA,NA,NA,NA,NA,NA,NA,NA
fcp-practice,14,124944,0.0-5.0-5.0-4.0,voc_e2,11738,"[{""event"":""fullscreenenter"",""trial"":1,""time"":21645}]",NA,NA,NA,NA,NA,NA,#EDC948,#46d3c8,10,0,1,null,null,null,37,1,525.5,10,1,practice,NA,NA,NA,NA,NA,NA,NA,NA,NA,NA
audio-instructions,15,146507,0.0-5.0-6.0,voc_e2,11738,"[{""event"":""fullscreenenter"",""trial"":1,""time"":21645}]",NA,3557,static/audio/instructions6.wav,NA,0,NA,NA,NA,NA,NA,NA,NA,NA,NA,NA,NA,NA,NA,NA,NA,NA,NA,NA,NA,NA,NA,NA,NA,NA,NA
audio-instructions,16,168307,0.0-5.0-7.0,voc_e2,11738,"[{""event"":""fullscreenenter"",""trial"":1,""time"":21645}]",NA,2600.4000000000233,static/audio/instructions7.wav,NA,0,NA,NA,NA,NA,NA,NA,NA,NA,NA,NA,NA,NA,NA,NA,NA,NA,NA,NA,NA,NA,NA,NA,NA,NA,NA
audio-instructions,17,178627,0.0-5.0-8.0,voc_e2,11738,"[{""event"":""fullscreenenter"",""trial"":1,""time"":21645}]",NA,838.9000000000233,static/audio/instructions8.wav,NA,0,NA,NA,NA,NA,NA,NA,NA,NA,NA,NA,NA,NA,NA,NA,NA,NA,NA,NA,NA,NA,NA,NA,NA,NA,NA
fcp-comprehension,18,192971,0.0-5.0-9.0,voc_e2,11738,"[{""event"":""fullscreenenter"",""trial"":1,""time"":21645}]",NA,14342.400000000023,NA,NA,NA,NA,NA,NA,NA,NA,NA,NA,NA,NA,NA,NA,NA,NA,NA,NA,"true,true",0,NA,NA,NA,NA,NA,NA,NA,NA
audio-instructions,19,199771,0.0-6.0-0.0,voc_e2,11738,"[{""event"":""fullscreenenter"",""trial"":1,""time"":21645}]",NA,1255.1999999999534,static/audio/instructions9.wav,NA,0,NA,NA,NA,NA,NA,NA,NA,NA,NA,NA,NA,NA,NA,NA,NA,NA,NA,NA,NA,NA,NA,NA,NA,NA,NA
audio-instructions,20,219619,0.0-6.0-1.0,voc_e2,11738,"[{""event"":""fullscreenenter"",""trial"":1,""time"":21645}]",NA,7729.5,static/audio/instructions10.wav,NA,0,NA,NA,NA,NA,NA,NA,NA,NA,NA,NA,NA,NA,NA,NA,NA,NA,NA,NA,NA,NA,NA,NA,NA,NA,NA
fcp-trial,21,226755,0.0-6.0-2.0,voc_e2,11738,"[{""event"":""fullscreenenter"",""trial"":1,""time"":21645}]",NA,NA,NA,NA,NA,0,#EDC948,#46d3c8,10,10,1,38,1,3052.9000000000233,39,0,2559.8000000000466,10,0,practice,NA,NA,NA,NA,NA,NA,NA,NA,NA,NA
audio-instructions,22,239003,0.0-6.0-3.0,voc_e2,11738,"[{""event"":""fullscreenenter"",""trial"":1,""time"":21645}]",NA,1233.6999999999534,static/audio/instructions11.wav,NA,0,NA,NA,NA,NA,NA,NA,NA,NA,NA,NA,NA,NA,NA,NA,NA,NA,NA,NA,NA,NA,NA,NA,NA,NA,NA
fcp-trial,23,244894,0.0-6.0-4.0,voc_e2,11738,"[{""event"":""fullscreenenter"",""trial"":1,""time"":21645}]",NA,NA,NA,NA,NA,6,#EDC948,#46d3c8,10,10,1,40,0,2434.6999999999534,37,1,1935.1999999999534,10,1,practice,NA,NA,NA,NA,NA,NA,NA,NA,NA,NA
audio-instructions,24,290003,0.0-6.0-5.0,voc_e2,11738,"[{""event"":""fullscreenenter"",""trial"":1,""time"":21645}]",NA,26423,static/audio/instructions12.wav,NA,0,NA,NA,NA,NA,NA,NA,NA,NA,NA,NA,NA,NA,NA,NA,NA,NA,NA,NA,NA,NA,NA,NA,NA,NA,NA
audio-instructions,25,298299,0.0-6.0-6.0,voc_e2,11738,"[{""event"":""fullscreenenter"",""trial"":1,""time"":21645}]",NA,701.9000000000233,static/audio/instructions13.wav,NA,0,NA,NA,NA,NA,NA,NA,NA,NA,NA,NA,NA,NA,NA,NA,NA,NA,NA,NA,NA,NA,NA,NA,NA,NA,NA
audio-instructions,26,308835,0.0-6.0-7.0,voc_e2,11738,"[{""event"":""fullscreenenter"",""trial"":1,""time"":21645}]",NA,2085.0999999999767,static/audio/instructions14.wav,NA,0,NA,NA,NA,NA,NA,NA,NA,NA,NA,NA,NA,NA,NA,NA,NA,NA,NA,NA,NA,NA,NA,NA,NA,NA,NA
audio-instructions,27,316763,0.0-7.0-0.0,voc_e2,11738,"[{""event"":""fullscreenenter"",""trial"":1,""time"":21645}]",NA,1003,static/audio/instructions15.wav,NA,0,NA,NA,NA,NA,NA,NA,NA,NA,NA,NA,NA,NA,NA,NA,NA,NA,NA,NA,NA,NA,NA,NA,NA,NA,NA
audio-instructions,28,325531,0.0-7.0-1.0,voc_e2,11738,"[{""event"":""fullscreenenter"",""trial"":1,""time"":21645}]",NA,1943.4000000000233,static/audio/instructions16.wav,NA,0,NA,NA,NA,NA,NA,NA,NA,NA,NA,NA,NA,NA,NA,NA,NA,NA,NA,NA,NA,NA,NA,NA,NA,NA,NA
audio-instructions,29,335276,0.0-7.0-2.0,voc_e2,11738,"[{""event"":""fullscreenenter"",""trial"":1,""time"":21645}]",NA,2068.1999999999534,static/audio/instructions17.wav,NA,0,NA,NA,NA,NA,NA,NA,NA,NA,NA,NA,NA,NA,NA,NA,NA,NA,NA,NA,NA,NA,NA,NA,NA,NA,NA
audio-instructions,30,344995,0.0-7.0-3.0,voc_e2,11738,"[{""event"":""fullscreenenter"",""trial"":1,""time"":21645}]",NA,1946.1999999999537,static/audio/instructions18.wav,NA,0,NA,NA,NA,NA,NA,NA,NA,NA,NA,NA,NA,NA,NA,NA,NA,NA,NA,NA,NA,NA,NA,NA,NA,NA,NA
audio-instructions,31,352276,0.0-7.0-4.0,voc_e2,11738,"[{""event"":""fullscreenenter"",""trial"":1,""time"":21645}]",NA,545.5999999999767,static/audio/instructions19.wav,NA,0,NA,NA,NA,NA,NA,NA,NA,NA,NA,NA,NA,NA,NA,NA,NA,NA,NA,NA,NA,NA,NA,NA,NA,NA,NA
fcp-comprehension,32,384523,0.0-7.0-5.0,voc_e2,11738,"[{""event"":""fullscreenenter"",""trial"":1,""time"":21645}]",NA,32246.70000000007,NA,NA,NA,NA,NA,NA,NA,NA,NA,NA,NA,NA,NA,NA,NA,NA,NA,NA,"false,true,false,true",1,NA,NA,NA,NA,NA,NA,NA,NA
audio-instructions,33,392843,0.0-7.1-0.1,voc_e2,11738,"[{""event"":""fullscreenenter"",""trial"":1,""time"":21645}]",NA,1343.1999999999534,static/audio/instructions15.wav,NA,0,NA,NA,NA,NA,NA,NA,NA,NA,NA,NA,NA,NA,NA,NA,NA,NA,NA,NA,NA,NA,NA,NA,NA,NA,NA
audio-instructions,34,401059,0.0-7.1-1.1,voc_e2,11738,"[{""event"":""fullscreenenter"",""trial"":1,""time"":21645}]",NA,1391,static/audio/instructions16.wav,NA,0,NA,NA,NA,NA,NA,NA,NA,NA,NA,NA,NA,NA,NA,NA,NA,NA,NA,NA,NA,NA,NA,NA,NA,NA,NA
audio-instructions,35,410083,0.0-7.1-2.1,voc_e2,11738,"[{""event"":""fullscreenenter"",""trial"":1,""time"":21645}]",NA,1340.2999999999302,static/audio/instructions17.wav,NA,0,NA,NA,NA,NA,NA,NA,NA,NA,NA,NA,NA,NA,NA,NA,NA,NA,NA,NA,NA,NA,NA,NA,NA,NA,NA
audio-instructions,36,421795,0.0-7.1-3.1,voc_e2,11738,"[{""event"":""fullscreenenter"",""trial"":1,""time"":21645}]",NA,3945.100000000093,static/audio/instructions18.wav,NA,0,NA,NA,NA,NA,NA,NA,NA,NA,NA,NA,NA,NA,NA,NA,NA,NA,NA,NA,NA,NA,NA,NA,NA,NA,NA
audio-instructions,37,429099,0.0-7.1-4.1,voc_e2,11738,"[{""event"":""fullscreenenter"",""trial"":1,""time"":21645}]",NA,567.3000000000466,static/audio/instructions19.wav,NA,0,NA,NA,NA,NA,NA,NA,NA,NA,NA,NA,NA,NA,NA,NA,NA,NA,NA,NA,NA,NA,NA,NA,NA,NA,NA
fcp-comprehension,38,457540,0.0-7.1-5.1,voc_e2,11738,"[{""event"":""fullscreenenter"",""trial"":1,""time"":21645}]",NA,28439,NA,NA,NA,NA,NA,NA,NA,NA,NA,NA,NA,NA,NA,NA,NA,NA,NA,NA,"false,false,false,true",0,NA,NA,NA,NA,NA,NA,NA,NA
audio-instructions,39,476467,0.0-8.0,voc_e2,11738,"[{""event"":""fullscreenenter"",""trial"":1,""time"":21645}]",NA,9709,static/audio/ready.wav,NA,0,NA,NA,NA,NA,NA,NA,NA,NA,NA,NA,NA,NA,NA,NA,NA,NA,NA,NA,NA,NA,NA,NA,NA,NA,NA
fcp-trial,40,480865,0.0-9.0-0.0,voc_e2,11738,"[{""event"":""fullscreenenter"",""trial"":1,""time"":21645}]",NA,NA,NA,NA,NA,2,#D89F1C,#3386FF,10,0,1,38,1,1130.9000000000233,39,0,1754.2000000000698,0,0,experiment,NA,NA,1,0.7,0.3,2,3,1,1,NA
fcp-trial,41,485457,0.0-10.0-0.0,voc_e2,11738,"[{""event"":""fullscreenenter"",""trial"":1,""time"":21645}]",NA,NA,NA,NA,NA,5,#FA92F8,#1CD855,10,0,1,38,1,2429.0999999999767,37,1,654.5,10,1,experiment,NA,NA,0,0.9,0.1,0,1,2,1,NA
fcp-trial,42,491590,0.0-11.0-0.0,voc_e2,11738,"[{""event"":""fullscreenenter"",""trial"":1,""time"":21645}]",NA,NA,NA,NA,NA,3,#D89F1C,#3386FF,10,0,1,38,1,3197.20000000007,37,1,1410,10,1,experiment,NA,NA,1,0.7,0.3,2,3,3,1,NA
fcp-trial,43,496394,0.0-12.0-0.0,voc_e2,11738,"[{""event"":""fullscreenenter"",""trial"":1,""time"":21645}]",NA,NA,NA,NA,NA,2,#D8271C,#741CD8,10,0,1,38,1,2229.5999999999767,39,0,1055.5,0,0,experiment,NA,NA,2,0.5,0.5,4,5,4,1,NA
fcp-trial,44,500992,0.0-13.0-0.0,voc_e2,11738,"[{""event"":""fullscreenenter"",""trial"":1,""time"":21645}]",NA,NA,NA,NA,NA,0,#741CD8,#D8271C,10,0,0,38,1,2068.8000000000466,39,0,1022.5999999999767,0,1,experiment,NA,NA,2,0.5,0.5,5,4,5,1,NA
fcp-trial,45,504928,0.0-14.0-0.0,voc_e2,11738,"[{""event"":""fullscreenenter"",""trial"":1,""time"":21645}]",NA,NA,NA,NA,NA,5,#D89F1C,#3386FF,0,0,1,38,1,1710,37,1,717.7000000000698,0,1,experiment,NA,NA,1,0.7,0.3,2,3,6,1,NA
fcp-trial,46,514544,0.0-15.0-0.0,voc_e2,11738,"[{""event"":""fullscreenenter"",""trial"":1,""time"":21645}]",NA,NA,NA,NA,NA,1,#FA92F8,#1CD855,10,0,1,40,0,6045.400000000023,37,1,2061.5999999999767,10,1,experiment,NA,NA,0,0.9,0.1,0,1,7,1,NA
fcp-trial,47,519714,0.0-16.0-0.0,voc_e2,11738,"[{""event"":""fullscreenenter"",""trial"":1,""time"":21645}]",NA,NA,NA,NA,NA,3,#1CD855,#FA92F8,0,10,0,40,0,2431.899999999907,37,1,1228,0,0,experiment,NA,NA,0,0.1,0.9,1,0,8,1,NA
fcp-trial,48,525680,0.0-17.0-0.0,voc_e2,11738,"[{""event"":""fullscreenenter"",""trial"":1,""time"":21645}]",NA,NA,NA,NA,NA,6,#D89F1C,#3386FF,0,0,1,40,0,3056.29999999993,39,0,1405.3000000000466,0,0,experiment,NA,NA,1,0.7,0.3,2,3,9,1,NA
fcp-trial,49,530480,0.0-18.0-0.0,voc_e2,11738,"[{""event"":""fullscreenenter"",""trial"":1,""time"":21645}]",NA,NA,NA,NA,NA,6,#741CD8,#D8271C,0,10,0,40,0,1839.5999999999767,37,1,1455.1000000000931,0,0,experiment,NA,NA,2,0.5,0.5,5,4,10,1,NA
fcp-trial,50,536288,0.0-19.0-0.0,voc_e2,11738,"[{""event"":""fullscreenenter"",""trial"":1,""time"":21645}]",NA,NA,NA,NA,NA,4,#D89F1C,#3386FF,10,10,1,38,1,3292.8000000000466,39,0,1006.7999999999302,10,0,experiment,NA,NA,1,0.7,0.3,2,3,11,1,NA
fcp-trial,51,542383,0.0-20.0-0.0,voc_e2,11738,"[{""event"":""fullscreenenter"",""trial"":1,""time"":21645}]",NA,NA,NA,NA,NA,4,#1CD855,#FA92F8,0,10,0,40,0,1983.9000000000233,39,0,2607.8000000000466,10,1,experiment,NA,NA,0,0.1,0.9,1,0,12,1,NA
fcp-trial,52,547968,0.0-21.0-0.0,voc_e2,11738,"[{""event"":""fullscreenenter"",""trial"":1,""time"":21645}]",NA,NA,NA,NA,NA,6,#FA92F8,#1CD855,10,0,1,38,1,2845.5,37,1,1230.5,10,1,experiment,NA,NA,0,0.9,0.1,0,1,13,1,NA
fcp-trial,53,552832,0.0-22.0-0.0,voc_e2,11738,"[{""event"":""fullscreenenter"",""trial"":1,""time"":21645}]",NA,NA,NA,NA,NA,4,#D8271C,#741CD8,0,0,1,40,0,2317.0999999999767,39,0,1038.5,0,0,experiment,NA,NA,2,0.5,0.5,4,5,14,1,NA
fcp-trial,54,558575,0.0-23.0-0.0,voc_e2,11738,"[{""event"":""fullscreenenter"",""trial"":1,""time"":21645}]",NA,NA,NA,NA,NA,0,#3386FF,#D89F1C,0,10,0,38,1,2347.5999999999767,37,1,1886.3000000000466,0,0,experiment,NA,NA,1,0.3,0.7,3,2,15,1,NA
fcp-trial,55,562912,0.0-24.0-0.0,voc_e2,11738,"[{""event"":""fullscreenenter"",""trial"":1,""time"":21645}]",NA,NA,NA,NA,NA,5,#D8271C,#741CD8,10,0,1,40,0,1472.5,39,0,1358.3000000000466,0,0,experiment,NA,NA,2,0.5,0.5,4,5,16,1,NA
fcp-trial,56,568975,0.0-25.0-0.0,voc_e2,11738,"[{""event"":""fullscreenenter"",""trial"":1,""time"":21645}]",NA,NA,NA,NA,NA,2,#1CD855,#FA92F8,0,10,0,38,1,3280.5,37,1,1278.7999999998137,0,0,experiment,NA,NA,0,0.1,0.9,1,0,17,1,NA
fcp-trial,57,577583,0.0-26.0-0.0,voc_e2,11738,"[{""event"":""fullscreenenter"",""trial"":1,""time"":21645}]",NA,NA,NA,NA,NA,0,#FA92F8,#1CD855,10,0,1,38,1,6127.300000000047,39,0,973.9000000001397,0,0,experiment,NA,NA,0,0.9,0.1,0,1,18,1,NA
fcp-trial,58,585824,0.0-27.0-0.0,voc_e2,11738,"[{""event"":""fullscreenenter"",""trial"":1,""time"":21645}]",NA,NA,NA,NA,NA,1,#741CD8,#D8271C,0,0,0,38,1,5856.90000000014,37,1,877.1999999999534,0,0,experiment,NA,NA,2,0.5,0.5,5,4,19,1,NA
fcp-trial,59,589967,0.0-28.0-0.0,voc_e2,11738,"[{""event"":""fullscreenenter"",""trial"":1,""time"":21645}]",NA,NA,NA,NA,NA,1,#D89F1C,#3386FF,0,10,1,38,1,1691.8999999999069,39,0,943.3000000000466,10,0,experiment,NA,NA,1,0.7,0.3,2,3,20,1,NA
fcp-trial,60,593680,0.0-29.0-0.0,voc_e2,11738,"[{""event"":""fullscreenenter"",""trial"":1,""time"":21645}]",NA,NA,NA,NA,NA,3,#741CD8,#D8271C,10,0,0,38,1,1312.1000000000931,37,1,894.3000000000466,10,0,experiment,NA,NA,2,0.5,0.5,5,4,21,1,NA
fcp-trial,61,598367,0.0-30.0-0.0,voc_e2,11738,"[{""event"":""fullscreenenter"",""trial"":1,""time"":21645}]",NA,NA,NA,NA,NA,5,#D8271C,#741CD8,0,10,1,40,0,2142.899999999907,39,0,1037.1999999999534,10,0,experiment,NA,NA,2,0.5,0.5,4,5,22,1,NA
fcp-trial,62,604175,0.0-31.0-0.0,voc_e2,11738,"[{""event"":""fullscreenenter"",""trial"":1,""time"":21645}]",NA,NA,NA,NA,NA,6,#1CD855,#FA92F8,0,10,0,40,0,2705.100000000093,37,1,1598.5,0,0,experiment,NA,NA,0,0.1,0.9,1,0,23,1,NA
fcp-trial,63,611265,0.0-32.0-0.0,voc_e2,11738,"[{""event"":""fullscreenenter"",""trial"":1,""time"":21645}]",NA,NA,NA,NA,NA,0,#3386FF,#D89F1C,10,0,0,38,1,4352.90000000014,39,0,1231,0,1,experiment,NA,NA,1,0.3,0.7,3,2,24,1,NA
fcp-trial,64,616466,0.0-33.0-0.0,voc_e2,11738,"[{""event"":""fullscreenenter"",""trial"":1,""time"":21645}]",NA,NA,NA,NA,NA,4,#FA92F8,#1CD855,10,0,1,40,0,2716.1999999999534,37,1,977.1999999999534,10,1,experiment,NA,NA,0,0.9,0.1,0,1,25,1,NA
fcp-trial,65,621584,0.0-34.0-0.0,voc_e2,11738,"[{""event"":""fullscreenenter"",""trial"":1,""time"":21645}]",NA,NA,NA,NA,NA,0,#D8271C,#741CD8,0,10,1,38,1,2735.0999999998603,39,0,876.6000000000931,10,0,experiment,NA,NA,2,0.5,0.5,4,5,26,1,NA
fcp-trial,66,624992,0.0-35.0-0.0,voc_e2,11738,"[{""event"":""fullscreenenter"",""trial"":1,""time"":21645}]",NA,NA,NA,NA,NA,3,#3386FF,#D89F1C,0,10,0,38,1,1165.6999999999534,37,1,734.0999999998603,0,0,experiment,NA,NA,1,0.3,0.7,3,2,27,1,NA
fcp-trial,67,630785,0.0-36.0-0.0,voc_e2,11738,"[{""event"":""fullscreenenter"",""trial"":1,""time"":21645}]",NA,NA,NA,NA,NA,3,#741CD8,#D8271C,0,0,0,38,1,2796.2000000001863,39,0,1487.1999999999534,0,1,experiment,NA,NA,2,0.5,0.5,5,4,28,1,NA
fcp-trial,68,634847,0.0-37.0-0.0,voc_e2,11738,"[{""event"":""fullscreenenter"",""trial"":1,""time"":21645}]",NA,NA,NA,NA,NA,3,#FA92F8,#1CD855,10,0,1,38,1,1728.1000000000931,37,1,829.3999999999069,10,1,experiment,NA,NA,0,0.9,0.1,0,1,29,1,NA
fcp-trial,69,638801,0.0-38.0-0.0,voc_e2,11738,"[{""event"":""fullscreenenter"",""trial"":1,""time"":21645}]",NA,NA,NA,NA,NA,5,#1CD855,#FA92F8,0,0,0,38,1,1536.5,39,0,911.6999999999534,0,1,experiment,NA,NA,0,0.1,0.9,1,0,30,1,NA
fcp-trial,70,648465,0.0-39.0-0.0,voc_e2,11738,"[{""event"":""fullscreenenter"",""trial"":1,""time"":21645}]",NA,NA,NA,NA,NA,2,#3386FF,#D89F1C,0,10,0,38,1,7278.199999999953,37,1,880,0,0,experiment,NA,NA,1,0.3,0.7,3,2,31,1,NA
fcp-trial,71,653003,0.0-40.0-0.0,voc_e2,11738,"[{""event"":""fullscreenenter"",""trial"":1,""time"":21645}]",NA,NA,NA,NA,NA,1,#3386FF,#D89F1C,0,0,0,38,1,2273.100000000093,39,0,749.3000000000466,0,1,experiment,NA,NA,1,0.3,0.7,3,2,32,1,NA
fcp-trial,72,657296,0.0-41.0-0.0,voc_e2,11738,"[{""event"":""fullscreenenter"",""trial"":1,""time"":21645}]",NA,NA,NA,NA,NA,2,#D8271C,#741CD8,0,0,1,38,1,2073.1999999999534,37,1,702.0999999998603,0,1,experiment,NA,NA,2,0.5,0.5,4,5,33,1,NA
fcp-trial,73,663522,0.0-42.0-0.0,voc_e2,11738,"[{""event"":""fullscreenenter"",""trial"":1,""time"":21645}]",NA,NA,NA,NA,NA,6,#D8271C,#741CD8,10,10,1,40,0,3135.6999999999534,37,1,1581.4000000001397,10,1,experiment,NA,NA,2,0.5,0.5,4,5,34,1,NA
fcp-trial,74,673906,0.0-43.0-0.0,voc_e2,11738,"[{""event"":""fullscreenenter"",""trial"":1,""time"":21645}]",NA,NA,NA,NA,NA,0,#FA92F8,#1CD855,10,0,1,38,1,7749.700000000186,39,0,1118.0999999998603,0,0,experiment,NA,NA,0,0.9,0.1,0,1,35,1,NA
fcp-trial,75,678241,0.0-44.0-0.0,voc_e2,11738,"[{""event"":""fullscreenenter"",""trial"":1,""time"":21645}]",NA,NA,NA,NA,NA,5,#3386FF,#D89F1C,0,10,0,40,0,1894.3000000000466,39,0,925.6000000000931,10,1,experiment,NA,NA,1,0.3,0.7,3,2,36,1,NA
fcp-trial,76,683302,0.0-45.0-0.0,voc_e2,11738,"[{""event"":""fullscreenenter"",""trial"":1,""time"":21645}]",NA,NA,NA,NA,NA,2,#1CD855,#FA92F8,0,10,0,38,1,2944.5,37,1,608.7000000001863,0,0,experiment,NA,NA,0,0.1,0.9,1,0,37,1,NA
fcp-trial,77,687506,0.0-46.0-0.0,voc_e2,11738,"[{""event"":""fullscreenenter"",""trial"":1,""time"":21645}]",NA,NA,NA,NA,NA,4,#741CD8,#D8271C,10,10,0,40,0,1815.3999999999069,37,1,878.1999999999534,10,0,experiment,NA,NA,2,0.5,0.5,5,4,38,1,NA
fcp-trial,78,691633,0.0-47.0-0.0,voc_e2,11738,"[{""event"":""fullscreenenter"",""trial"":1,""time"":21645}]",NA,NA,NA,NA,NA,1,#FA92F8,#1CD855,10,0,1,38,1,1995.7000000001863,39,0,622.3999999999069,0,0,experiment,NA,NA,0,0.9,0.1,0,1,39,1,NA
fcp-trial,79,696593,0.0-48.0-0.0,voc_e2,11738,"[{""event"":""fullscreenenter"",""trial"":1,""time"":21645}]",NA,NA,NA,NA,NA,6,#D89F1C,#3386FF,10,0,1,40,0,2462.2000000001863,37,1,991.0999999998603,10,1,experiment,NA,NA,1,0.7,0.3,2,3,40,1,NA
fcp-trial,80,703808,0.0-49.0-0.0,voc_e2,11738,"[{""event"":""fullscreenenter"",""trial"":1,""time"":21645}]",NA,NA,NA,NA,NA,1,#741CD8,#D8271C,0,10,0,38,1,1707,39,0,3999.1999999999534,10,1,experiment,NA,NA,2,0.5,0.5,5,4,41,1,NA
fcp-trial,81,709263,0.0-50.0-0.0,voc_e2,11738,"[{""event"":""fullscreenenter"",""trial"":1,""time"":21645}]",NA,NA,NA,NA,NA,4,#D89F1C,#3386FF,10,0,1,40,0,2222.8000000000466,39,0,1727.5,0,0,experiment,NA,NA,1,0.7,0.3,2,3,42,1,NA
fcp-trial,82,718436,0.0-51.0-0.0,voc_e2,11738,"[{""event"":""fullscreenenter"",""trial"":1,""time"":21645}]",NA,NA,NA,NA,NA,3,#D89F1C,#3386FF,0,0,1,38,1,3550.6999999999534,39,0,4113.200000000186,0,0,experiment,NA,NA,1,0.7,0.3,2,3,43,1,NA
fcp-trial,83,723968,0.0-52.0-0.0,voc_e2,11738,"[{""event"":""fullscreenenter"",""trial"":1,""time"":21645}]",NA,NA,NA,NA,NA,0,#D89F1C,#3386FF,0,0,1,38,1,2812.6999999999534,39,0,1211.4000000001397,0,0,experiment,NA,NA,1,0.7,0.3,2,3,44,1,NA
fcp-trial,84,728241,0.0-53.0-0.0,voc_e2,11738,"[{""event"":""fullscreenenter"",""trial"":1,""time"":21645}]",NA,NA,NA,NA,NA,6,#3386FF,#D89F1C,10,10,0,40,0,2062.8000000000466,39,0,702.8000000000466,10,1,experiment,NA,NA,1,0.3,0.7,3,2,45,1,NA
fcp-trial,85,736033,0.0-54.0-0.0,voc_e2,11738,"[{""event"":""fullscreenenter"",""trial"":1,""time"":21645}]",NA,NA,NA,NA,NA,5,#3386FF,#D89F1C,10,0,0,40,0,5115.799999999814,37,1,1166.9000000001397,10,0,experiment,NA,NA,1,0.3,0.7,3,2,46,2,NA
fcp-trial,86,740336,0.0-55.0-0.0,voc_e2,11738,"[{""event"":""fullscreenenter"",""trial"":1,""time"":21645}]",NA,NA,NA,NA,NA,6,#1CD855,#FA92F8,0,10,0,40,0,1828.5,37,1,958.3000000000466,0,0,experiment,NA,NA,0,0.1,0.9,1,0,47,2,NA
fcp-trial,87,744336,0.0-56.0-0.0,voc_e2,11738,"[{""event"":""fullscreenenter"",""trial"":1,""time"":21645}]",NA,NA,NA,NA,NA,0,#FA92F8,#1CD855,10,0,1,38,1,1732.5,39,0,748.8999999999069,0,0,experiment,NA,NA,0,0.9,0.1,0,1,48,2,NA
fcp-trial,88,748836,0.0-57.0-0.0,voc_e2,11738,"[{""event"":""fullscreenenter"",""trial"":1,""time"":21645}]",NA,NA,NA,NA,NA,5,#741CD8,#D8271C,10,0,0,40,0,1566.4000000001397,39,0,1426.4000000001397,0,1,experiment,NA,NA,2,0.5,0.5,5,4,49,2,NA
fcp-trial,89,752912,0.0-58.0-0.0,voc_e2,11738,"[{""event"":""fullscreenenter"",""trial"":1,""time"":21645}]",NA,NA,NA,NA,NA,2,#1CD855,#FA92F8,0,10,0,38,1,1915.9000000001397,37,1,652.9000000001397,0,0,experiment,NA,NA,0,0.1,0.9,1,0,50,2,NA
fcp-trial,90,757408,0.0-59.0-0.0,voc_e2,11738,"[{""event"":""fullscreenenter"",""trial"":1,""time"":21645}]",NA,NA,NA,NA,NA,4,#D89F1C,#3386FF,10,0,1,40,0,1917.8000000000466,37,1,1071,10,1,experiment,NA,NA,1,0.7,0.3,2,3,51,2,NA
fcp-trial,91,766594,0.0-60.0-0.0,voc_e2,11738,"[{""event"":""fullscreenenter"",""trial"":1,""time"":21645}]",NA,NA,NA,NA,NA,2,#D8271C,#741CD8,10,10,1,40,0,5520.699999999953,39,0,2158.5,10,0,experiment,NA,NA,2,0.5,0.5,4,5,52,2,NA
fcp-trial,92,771617,0.0-61.0-0.0,voc_e2,11738,"[{""event"":""fullscreenenter"",""trial"":1,""time"":21645}]",NA,NA,NA,NA,NA,3,#D8271C,#741CD8,0,10,1,38,1,2767.8000000000466,37,1,749.7000000001863,0,1,experiment,NA,NA,2,0.5,0.5,4,5,53,2,NA
fcp-trial,93,780466,0.0-62.0-0.0,voc_e2,11738,"[{""event"":""fullscreenenter"",""trial"":1,""time"":21645}]",NA,NA,NA,NA,NA,5,#1CD855,#FA92F8,0,10,0,40,0,4572.600000000093,37,1,2768.8000000000466,0,0,experiment,NA,NA,0,0.1,0.9,1,0,54,2,NA
fcp-trial,94,784611,0.0-63.0-0.0,voc_e2,11738,"[{""event"":""fullscreenenter"",""trial"":1,""time"":21645}]",NA,NA,NA,NA,NA,1,#D89F1C,#3386FF,0,0,1,38,1,1707.6000000000931,39,0,927.3999999999069,0,0,experiment,NA,NA,1,0.7,0.3,2,3,55,2,NA
fcp-trial,95,788275,0.0-64.0-0.0,voc_e2,11738,"[{""event"":""fullscreenenter"",""trial"":1,""time"":21645}]",NA,NA,NA,NA,NA,3,#FA92F8,#1CD855,10,0,1,38,1,1523.1000000000931,37,1,621.8000000000466,10,1,experiment,NA,NA,0,0.9,0.1,0,1,56,2,NA
fcp-trial,96,795521,0.0-65.0-0.0,voc_e2,11738,"[{""event"":""fullscreenenter"",""trial"":1,""time"":21645}]",NA,NA,NA,NA,NA,0,#D8271C,#741CD8,0,0,1,38,1,2631.399999999907,39,0,3102.4000000001397,0,0,experiment,NA,NA,2,0.5,0.5,4,5,57,2,NA
fcp-trial,97,799952,0.0-66.0-0.0,voc_e2,11738,"[{""event"":""fullscreenenter"",""trial"":1,""time"":21645}]",NA,NA,NA,NA,NA,1,#FA92F8,#1CD855,10,0,1,38,1,2301.600000000093,37,1,622,10,1,experiment,NA,NA,0,0.9,0.1,0,1,58,2,NA
fcp-trial,98,804739,0.0-67.0-0.0,voc_e2,11738,"[{""event"":""fullscreenenter"",""trial"":1,""time"":21645}]",NA,NA,NA,NA,NA,2,#3386FF,#D89F1C,0,10,0,38,1,2463,37,1,815.6000000000931,0,0,experiment,NA,NA,1,0.3,0.7,3,2,59,2,NA
fcp-trial,99,816530,0.0-68.0-0.0,voc_e2,11738,"[{""event"":""fullscreenenter"",""trial"":1,""time"":21645}]",NA,NA,NA,NA,NA,6,#D8271C,#741CD8,0,10,1,40,0,9082.800000000047,39,0,1200.3999999999069,10,0,experiment,NA,NA,2,0.5,0.5,4,5,60,2,NA
fcp-trial,100,821361,0.0-69.0-0.0,voc_e2,11738,"[{""event"":""fullscreenenter"",""trial"":1,""time"":21645}]",NA,NA,NA,NA,NA,1,#741CD8,#D8271C,0,0,0,38,1,2028.8999999999069,37,1,1294.8999999999069,0,0,experiment,NA,NA,2,0.5,0.5,5,4,61,2,NA
fcp-trial,101,826196,0.0-70.0-0.0,voc_e2,11738,"[{""event"":""fullscreenenter"",""trial"":1,""time"":21645}]",NA,NA,NA,NA,NA,4,#1CD855,#FA92F8,0,10,0,40,0,2363,37,1,959.3999999999069,0,0,experiment,NA,NA,0,0.1,0.9,1,0,62,2,NA
fcp-trial,102,830292,0.0-71.0-0.0,voc_e2,11738,"[{""event"":""fullscreenenter"",""trial"":1,""time"":21645}]",NA,NA,NA,NA,NA,4,#D8271C,#741CD8,10,10,1,40,0,1765.0999999998603,37,1,816.3999999999069,10,1,experiment,NA,NA,2,0.5,0.5,4,5,63,2,NA
fcp-trial,103,835617,0.0-72.0-0.0,voc_e2,11738,"[{""event"":""fullscreenenter"",""trial"":1,""time"":21645}]",NA,NA,NA,NA,NA,2,#741CD8,#D8271C,0,10,0,38,1,2945.6999999999534,39,0,859.8999999999069,10,1,experiment,NA,NA,2,0.5,0.5,5,4,64,2,NA
fcp-trial,104,843011,0.0-73.0-0.0,voc_e2,11738,"[{""event"":""fullscreenenter"",""trial"":1,""time"":21645}]",NA,NA,NA,NA,NA,0,#FA92F8,#1CD855,10,0,1,40,0,5093.300000000047,37,1,781.8000000000466,10,1,experiment,NA,NA,0,0.9,0.1,0,1,65,2,NA
fcp-trial,105,849636,0.0-74.0-0.0,voc_e2,11738,"[{""event"":""fullscreenenter"",""trial"":1,""time"":21645}]",NA,NA,NA,NA,NA,2,#3386FF,#D89F1C,0,10,0,38,1,3831.6999999999534,39,0,1280.6999999999534,10,1,experiment,NA,NA,1,0.3,0.7,3,2,66,2,NA
fcp-trial,106,855397,0.0-75.0-0.0,voc_e2,11738,"[{""event"":""fullscreenenter"",""trial"":1,""time"":21645}]",NA,NA,NA,NA,NA,3,#D8271C,#741CD8,0,10,1,38,1,3174.8000000000466,37,1,1069.1000000000931,0,1,experiment,NA,NA,2,0.5,0.5,4,5,67,2,NA
fcp-trial,107,859042,0.0-76.0-0.0,voc_e2,11738,"[{""event"":""fullscreenenter"",""trial"":1,""time"":21645}]",NA,NA,NA,NA,NA,2,#1CD855,#FA92F8,0,10,0,38,1,891.5,39,0,1246.5,10,1,experiment,NA,NA,0,0.1,0.9,1,0,68,2,NA
fcp-trial,108,863905,0.0-77.0-0.0,voc_e2,11738,"[{""event"":""fullscreenenter"",""trial"":1,""time"":21645}]",NA,NA,NA,NA,NA,6,#FA92F8,#1CD855,10,0,1,40,0,2590.8000000000466,37,1,767.5,10,1,experiment,NA,NA,0,0.9,0.1,0,1,69,2,NA
fcp-trial,109,868081,0.0-78.0-0.0,voc_e2,11738,"[{""event"":""fullscreenenter"",""trial"":1,""time"":21645}]",NA,NA,NA,NA,NA,5,#1CD855,#FA92F8,0,10,0,40,0,1899.9000000001397,37,1,768,0,0,experiment,NA,NA,0,0.1,0.9,1,0,70,2,NA
fcp-trial,110,873921,0.0-79.0-0.0,voc_e2,11738,"[{""event"":""fullscreenenter"",""trial"":1,""time"":21645}]",NA,NA,NA,NA,NA,0,#3386FF,#D89F1C,10,0,0,38,1,3054.600000000093,37,1,1275.1000000000931,10,0,experiment,NA,NA,1,0.3,0.7,3,2,71,2,NA
fcp-trial,111,879490,0.0-80.0-0.0,voc_e2,11738,"[{""event"":""fullscreenenter"",""trial"":1,""time"":21645}]",NA,NA,NA,NA,NA,4,#741CD8,#D8271C,10,0,0,40,0,2683.5999999998603,39,0,1374.1000000000931,0,1,experiment,NA,NA,2,0.5,0.5,5,4,72,2,NA
fcp-trial,112,887456,0.0-81.0-0.0,voc_e2,11738,"[{""event"":""fullscreenenter"",""trial"":1,""time"":21645}]",NA,NA,NA,NA,NA,3,#1CD855,#FA92F8,0,10,0,38,1,3343.0999999998603,37,1,3117.100000000093,0,0,experiment,NA,NA,0,0.1,0.9,1,0,73,2,NA
fcp-trial,113,896819,0.0-82.0-0.0,voc_e2,11738,"[{""event"":""fullscreenenter"",""trial"":1,""time"":21645}]",NA,NA,NA,NA,NA,5,#741CD8,#D8271C,0,10,0,40,0,6717.199999999953,37,1,1137.3000000000466,0,0,experiment,NA,NA,2,0.5,0.5,5,4,74,2,NA
fcp-trial,114,911830,0.0-83.0-0.0,voc_e2,11738,"[{""event"":""fullscreenenter"",""trial"":1,""time"":21645}]",NA,NA,NA,NA,NA,1,#1CD855,#FA92F8,0,0,0,null,null,null,null,null,null,NA,0,experiment,NA,NA,0,0.1,0.9,1,0,75,2,NA
fcp-trial,115,916322,0.0-84.0-0.0,voc_e2,11738,"[{""event"":""fullscreenenter"",""trial"":1,""time"":21645}]",NA,NA,NA,NA,NA,5,#D89F1C,#3386FF,0,10,1,40,0,1876.5999999998603,39,0,1100.5,10,0,experiment,NA,NA,1,0.7,0.3,2,3,76,2,NA
fcp-trial,116,923091,0.0-85.0-0.0,voc_e2,11738,"[{""event"":""fullscreenenter"",""trial"":1,""time"":21645}]",NA,NA,NA,NA,NA,6,#D89F1C,#3386FF,10,0,1,40,0,4558.800000000047,39,0,698,0,0,experiment,NA,NA,1,0.7,0.3,2,3,77,2,NA
fcp-trial,117,926705,0.0-86.0-0.0,voc_e2,11738,"[{""event"":""fullscreenenter"",""trial"":1,""time"":21645}]",NA,NA,NA,NA,NA,6,#D8271C,#741CD8,0,10,1,40,0,1324.3999999999069,37,1,783.3999999999069,0,1,experiment,NA,NA,2,0.5,0.5,4,5,78,2,NA
fcp-trial,118,930641,0.0-87.0-0.0,voc_e2,11738,"[{""event"":""fullscreenenter"",""trial"":1,""time"":21645}]",NA,NA,NA,NA,NA,4,#D89F1C,#3386FF,10,0,1,40,0,1787.6999999999534,39,0,639,0,0,experiment,NA,NA,1,0.7,0.3,2,3,79,2,NA
fcp-trial,119,933874,0.0-88.0-0.0,voc_e2,11738,"[{""event"":""fullscreenenter"",""trial"":1,""time"":21645}]",NA,NA,NA,NA,NA,4,#1CD855,#FA92F8,0,10,0,40,0,957.5,37,1,766.2999999998137,0,0,experiment,NA,NA,0,0.1,0.9,1,0,80,2,NA
fcp-trial,120,938817,0.0-89.0-0.0,voc_e2,11738,"[{""event"":""fullscreenenter"",""trial"":1,""time"":21645}]",NA,NA,NA,NA,NA,1,#D8271C,#741CD8,0,0,1,38,1,2252.3000000000466,39,0,1182.5,0,0,experiment,NA,NA,2,0.5,0.5,4,5,81,2,NA
fcp-trial,121,943921,0.0-90.0-0.0,voc_e2,11738,"[{""event"":""fullscreenenter"",""trial"":1,""time"":21645}]",NA,NA,NA,NA,NA,0,#741CD8,#D8271C,10,10,0,38,1,2878.8000000000466,37,1,719.4000000001397,10,0,experiment,NA,NA,2,0.5,0.5,5,4,82,2,NA
fcp-trial,122,949682,0.0-91.0-0.0,voc_e2,11738,"[{""event"":""fullscreenenter"",""trial"":1,""time"":21645}]",NA,NA,NA,NA,NA,1,#D89F1C,#3386FF,10,0,1,38,1,2924.100000000093,39,0,1328.1999999999534,0,0,experiment,NA,NA,1,0.7,0.3,2,3,83,2,NA
fcp-trial,123,955378,0.0-92.0-0.0,voc_e2,11738,"[{""event"":""fullscreenenter"",""trial"":1,""time"":21645}]",NA,NA,NA,NA,NA,3,#3386FF,#D89F1C,0,0,0,38,1,3203.1999999999534,37,1,975.1000000000931,0,0,experiment,NA,NA,1,0.3,0.7,3,2,84,2,NA
fcp-trial,124,959634,0.0-93.0-0.0,voc_e2,11738,"[{""event"":""fullscreenenter"",""trial"":1,""time"":21645}]",NA,NA,NA,NA,NA,6,#D89F1C,#3386FF,10,0,1,40,0,1870.3999999999069,37,1,880.3000000000466,10,1,experiment,NA,NA,1,0.7,0.3,2,3,85,2,NA
fcp-trial,125,976096,0.0-94.0-0.0,voc_e2,11738,"[{""event"":""fullscreenenter"",""trial"":1,""time"":21645}]",NA,NA,NA,NA,NA,0,#D89F1C,#3386FF,10,10,1,38,1,6975.199999999953,37,1,7982.600000000093,10,1,experiment,NA,NA,1,0.7,0.3,2,3,86,2,NA
fcp-trial,126,981378,0.0-95.0-0.0,voc_e2,11738,"[{""event"":""fullscreenenter"",""trial"":1,""time"":21645}]",NA,NA,NA,NA,NA,6,#D8271C,#741CD8,10,0,1,40,0,2558.399999999907,37,1,1211.3000000000466,10,1,experiment,NA,NA,2,0.5,0.5,4,5,87,2,NA
fcp-trial,127,989492,0.0-96.0-0.0,voc_e2,11738,"[{""event"":""fullscreenenter"",""trial"":1,""time"":21645}]",NA,NA,NA,NA,NA,3,#741CD8,#D8271C,0,0,0,38,1,5956,39,0,640.9000000001397,0,1,experiment,NA,NA,2,0.5,0.5,5,4,88,2,NA
fcp-trial,128,996737,0.0-97.0-0.0,voc_e2,11738,"[{""event"":""fullscreenenter"",""trial"":1,""time"":21645}]",NA,NA,NA,NA,NA,0,#1CD855,#FA92F8,0,10,0,38,1,5157.59999999986,39,0,571,10,1,experiment,NA,NA,0,0.1,0.9,1,0,89,2,NA
fcp-trial,129,1004001,0.0-98.0-0.0,voc_e2,11738,"[{""event"":""fullscreenenter"",""trial"":1,""time"":21645}]",NA,NA,NA,NA,NA,1,#741CD8,#D8271C,10,10,0,38,1,4232.5,39,0,1518.5999999998603,10,1,experiment,NA,NA,2,0.5,0.5,5,4,90,2,NA
fcp-trial,130,1008595,0.0-99.0-0.0,voc_e2,11738,"[{""event"":""fullscreenenter"",""trial"":1,""time"":21645}]",NA,NA,NA,NA,NA,4,#D89F1C,#3386FF,0,10,1,38,1,2458.0999999998603,37,1,622.7999999998137,0,1,experiment,NA,NA,1,0.7,0.3,2,3,91,3,NA
fcp-trial,131,1014145,0.0-100.0-0.0,voc_e2,11738,"[{""event"":""fullscreenenter"",""trial"":1,""time"":21645}]",NA,NA,NA,NA,NA,1,#3386FF,#D89F1C,10,10,0,38,1,3494.0999999998603,39,0,543.1000000000931,10,1,experiment,NA,NA,1,0.3,0.7,3,2,92,3,NA
fcp-trial,132,1019857,0.0-101.0-0.0,voc_e2,11738,"[{""event"":""fullscreenenter"",""trial"":1,""time"":21645}]",NA,NA,NA,NA,NA,2,#741CD8,#D8271C,0,10,0,38,1,3308.6999999999534,39,0,893.5999999998603,10,1,experiment,NA,NA,2,0.5,0.5,5,4,93,3,NA
fcp-trial,133,1024432,0.0-102.0-0.0,voc_e2,11738,"[{""event"":""fullscreenenter"",""trial"":1,""time"":21645}]",NA,NA,NA,NA,NA,2,#1CD855,#FA92F8,0,0,0,38,1,2445.100000000093,39,0,620.1999999999534,0,1,experiment,NA,NA,0,0.1,0.9,1,0,94,3,NA
fcp-trial,134,1028816,0.0-103.0-0.0,voc_e2,11738,"[{""event"":""fullscreenenter"",""trial"":1,""time"":21645}]",NA,NA,NA,NA,NA,3,#1CD855,#FA92F8,0,10,0,38,1,2269.899999999907,39,0,600.8999999999069,10,1,experiment,NA,NA,0,0.1,0.9,1,0,95,3,NA
fcp-trial,135,1032641,0.0-104.0-0.0,voc_e2,11738,"[{""event"":""fullscreenenter"",""trial"":1,""time"":21645}]",NA,NA,NA,NA,NA,1,#FA92F8,#1CD855,10,0,1,38,1,1760.6999999999534,37,1,555.5,10,1,experiment,NA,NA,0,0.9,0.1,0,1,96,3,NA
fcp-trial,136,1037824,0.0-105.0-0.0,voc_e2,11738,"[{""event"":""fullscreenenter"",""trial"":1,""time"":21645}]",NA,NA,NA,NA,NA,3,#D89F1C,#3386FF,0,0,1,38,1,2879.600000000093,37,1,799,0,1,experiment,NA,NA,1,0.7,0.3,2,3,97,3,NA
fcp-trial,137,1044484,0.0-106.0-0.0,voc_e2,11738,"[{""event"":""fullscreenenter"",""trial"":1,""time"":21645}]",NA,NA,NA,NA,NA,5,#D8271C,#741CD8,0,10,1,40,0,3788.5,39,0,1363.1999999999534,10,0,experiment,NA,NA,2,0.5,0.5,4,5,98,3,NA
fcp-trial,138,1053189,0.0-107.0-0.0,voc_e2,11738,"[{""event"":""fullscreenenter"",""trial"":1,""time"":21645}]",NA,NA,NA,NA,NA,4,#FA92F8,#1CD855,10,0,1,40,0,4348.600000000093,39,0,2849.5,0,0,experiment,NA,NA,0,0.9,0.1,0,1,99,3,NA
fcp-trial,139,1068195,0.0-108.0-0.0,voc_e2,11738,"[{""event"":""fullscreenenter"",""trial"":1,""time"":21645}]",NA,NA,NA,NA,NA,5,#3386FF,#D89F1C,0,10,0,null,null,null,null,null,null,NA,0,experiment,NA,NA,1,0.3,0.7,3,2,100,3,NA
fcp-trial,140,1076558,0.0-109.0-0.0,voc_e2,11738,"[{""event"":""fullscreenenter"",""trial"":1,""time"":21645}]",NA,NA,NA,NA,NA,6,#1CD855,#FA92F8,0,10,0,40,0,5325.399999999907,39,0,1524,10,1,experiment,NA,NA,0,0.1,0.9,1,0,101,3,NA
fcp-trial,141,1082721,0.0-110.0-0.0,voc_e2,11738,"[{""event"":""fullscreenenter"",""trial"":1,""time"":21645}]",NA,NA,NA,NA,NA,0,#741CD8,#D8271C,0,0,0,38,1,3456.899999999907,39,0,1197.3999999999069,0,1,experiment,NA,NA,2,0.5,0.5,5,4,102,3,NA
fcp-trial,142,1091746,0.0-111.0-0.0,voc_e2,11738,"[{""event"":""fullscreenenter"",""trial"":1,""time"":21645}]",NA,NA,NA,NA,NA,5,#FA92F8,#1CD855,10,0,1,40,0,6574.199999999953,37,1,942.6999999999534,10,1,experiment,NA,NA,0,0.9,0.1,0,1,103,3,NA
fcp-trial,143,1095266,0.0-112.0-0.0,voc_e2,11738,"[{""event"":""fullscreenenter"",""trial"":1,""time"":21645}]",NA,NA,NA,NA,NA,4,#741CD8,#D8271C,10,0,0,40,0,1416.0999999998603,39,0,591.5999999998603,0,1,experiment,NA,NA,2,0.5,0.5,5,4,104,3,NA
fcp-trial,144,1101267,0.0-113.0-0.0,voc_e2,11738,"[{""event"":""fullscreenenter"",""trial"":1,""time"":21645}]",NA,NA,NA,NA,NA,2,#3386FF,#D89F1C,0,10,0,38,1,3749,39,0,735.6999999999534,10,1,experiment,NA,NA,1,0.3,0.7,3,2,105,3,NA
audio-instructions,145,1187404,0.0-114.0,voc_e2,11738,"[{""event"":""fullscreenenter"",""trial"":1,""time"":21645}]",NA,80962.30000000005,static/audio/pause.wav,NA,0,NA,NA,NA,NA,NA,NA,NA,NA,NA,NA,NA,NA,NA,NA,NA,NA,NA,NA,NA,NA,NA,NA,NA,NA,NA
fcp-trial,146,1194817,0.0-115.0-0.0,voc_e2,11738,"[{""event"":""fullscreenenter"",""trial"":1,""time"":21645}]",NA,NA,NA,NA,NA,2,#741CD8,#D8271C,10,10,0,38,1,3908.399999999907,39,0,1999,10,1,experiment,NA,NA,2,0.5,0.5,5,4,106,3,NA
fcp-trial,147,1198866,0.0-116.0-0.0,voc_e2,11738,"[{""event"":""fullscreenenter"",""trial"":1,""time"":21645}]",NA,NA,NA,NA,NA,0,#3386FF,#D89F1C,0,10,0,38,1,1774.2999999998137,39,0,766.2999999998137,10,1,experiment,NA,NA,1,0.3,0.7,3,2,107,3,NA
fcp-trial,148,1204177,0.0-117.0-0.0,voc_e2,11738,"[{""event"":""fullscreenenter"",""trial"":1,""time"":21645}]",NA,NA,NA,NA,NA,1,#D8271C,#741CD8,0,10,1,38,1,3164.8000000000466,37,1,639.3000000000466,0,1,experiment,NA,NA,2,0.5,0.5,4,5,108,3,NA
fcp-trial,149,1209812,0.0-118.0-0.0,voc_e2,11738,"[{""event"":""fullscreenenter"",""trial"":1,""time"":21645}]",NA,NA,NA,NA,NA,0,#FA92F8,#1CD855,10,10,1,38,1,1906.8999999999069,37,1,2217,10,1,experiment,NA,NA,0,0.9,0.1,0,1,109,3,NA
fcp-trial,150,1215251,0.0-119.0-0.0,voc_e2,11738,"[{""event"":""fullscreenenter"",""trial"":1,""time"":21645}]",NA,NA,NA,NA,NA,3,#3386FF,#D89F1C,0,0,0,40,0,3126.8000000000466,37,1,798.1000000000931,0,0,experiment,NA,NA,1,0.3,0.7,3,2,110,3,NA
fcp-trial,151,1221905,0.0-120.0-0.0,voc_e2,11738,"[{""event"":""fullscreenenter"",""trial"":1,""time"":21645}]",NA,NA,NA,NA,NA,4,#741CD8,#D8271C,0,10,0,40,0,3317.600000000093,39,0,1822.4000000001397,10,1,experiment,NA,NA,2,0.5,0.5,5,4,111,3,NA
fcp-trial,152,1227538,0.0-121.0-0.0,voc_e2,11738,"[{""event"":""fullscreenenter"",""trial"":1,""time"":21645}]",NA,NA,NA,NA,NA,5,#D8271C,#741CD8,10,10,1,40,0,3485.8000000000466,37,1,639.8000000000466,10,1,experiment,NA,NA,2,0.5,0.5,4,5,112,3,NA
fcp-trial,153,1237556,0.0-122.0-0.0,voc_e2,11738,"[{""event"":""fullscreenenter"",""trial"":1,""time"":21645}]",NA,NA,NA,NA,NA,5,#D89F1C,#3386FF,0,10,1,40,0,7512.299999999814,37,1,992.3000000000466,0,1,experiment,NA,NA,1,0.7,0.3,2,3,113,3,NA
fcp-trial,154,1245234,0.0-123.0-0.0,voc_e2,11738,"[{""event"":""fullscreenenter"",""trial"":1,""time"":21645}]",NA,NA,NA,NA,NA,3,#1CD855,#FA92F8,0,10,0,38,1,5735.699999999953,39,0,429.5,10,1,experiment,NA,NA,0,0.1,0.9,1,0,114,3,NA
fcp-trial,155,1260245,0.0-124.0-0.0,voc_e2,11738,"[{""event"":""fullscreenenter"",""trial"":1,""time"":21645}]",NA,NA,NA,NA,NA,1,#3386FF,#D89F1C,10,10,0,null,null,null,null,null,null,NA,0,experiment,NA,NA,1,0.3,0.7,3,2,115,3,NA
fcp-trial,156,1264739,0.0-125.0-0.0,voc_e2,11738,"[{""event"":""fullscreenenter"",""trial"":1,""time"":21645}]",NA,NA,NA,NA,NA,5,#FA92F8,#1CD855,10,0,1,40,0,2244.100000000093,39,0,733.1000000000931,0,0,experiment,NA,NA,0,0.9,0.1,0,1,116,3,NA
fcp-trial,157,1270195,0.0-126.0-0.0,voc_e2,11738,"[{""event"":""fullscreenenter"",""trial"":1,""time"":21645}]",NA,NA,NA,NA,NA,6,#D8271C,#741CD8,10,10,1,40,0,3150.4000000001397,37,1,799.6000000000931,10,1,experiment,NA,NA,2,0.5,0.5,4,5,117,3,NA
fcp-trial,158,1273986,0.0-127.0-0.0,voc_e2,11738,"[{""event"":""fullscreenenter"",""trial"":1,""time"":21645}]",NA,NA,NA,NA,NA,6,#3386FF,#D89F1C,0,10,0,40,0,1267.5999999998603,39,0,1018,10,1,experiment,NA,NA,1,0.3,0.7,3,2,118,3,NA
fcp-trial,159,1278323,0.0-128.0-0.0,voc_e2,11738,"[{""event"":""fullscreenenter"",""trial"":1,""time"":21645}]",NA,NA,NA,NA,NA,6,#FA92F8,#1CD855,10,0,1,40,0,1330.5,39,0,1487,0,0,experiment,NA,NA,0,0.9,0.1,0,1,119,3,NA
fcp-trial,160,1282211,0.0-129.0-0.0,voc_e2,11738,"[{""event"":""fullscreenenter"",""trial"":1,""time"":21645}]",NA,NA,NA,NA,NA,0,#D8271C,#741CD8,10,10,1,40,0,1327,37,1,1055.6999999999534,10,1,experiment,NA,NA,2,0.5,0.5,4,5,120,3,NA
fcp-trial,161,1286498,0.0-130.0-0.0,voc_e2,11738,"[{""event"":""fullscreenenter"",""trial"":1,""time"":21645}]",NA,NA,NA,NA,NA,4,#3386FF,#D89F1C,10,0,0,40,0,1921.5999999998603,37,1,860.6999999999534,10,0,experiment,NA,NA,1,0.3,0.7,3,2,121,3,NA
fcp-trial,162,1291985,0.0-131.0-0.0,voc_e2,11738,"[{""event"":""fullscreenenter"",""trial"":1,""time"":21645}]",NA,NA,NA,NA,NA,3,#741CD8,#D8271C,10,0,0,38,1,1760.1999999999534,39,0,2221.5,0,1,experiment,NA,NA,2,0.5,0.5,5,4,122,3,NA
fcp-trial,163,1297732,0.0-132.0-0.0,voc_e2,11738,"[{""event"":""fullscreenenter"",""trial"":1,""time"":21645}]",NA,NA,NA,NA,NA,2,#3386FF,#D89F1C,10,10,0,38,1,3459.899999999907,37,1,778.6000000000931,10,0,experiment,NA,NA,1,0.3,0.7,3,2,123,3,NA
fcp-trial,164,1304961,0.0-133.0-0.0,voc_e2,11738,"[{""event"":""fullscreenenter"",""trial"":1,""time"":21645}]",NA,NA,NA,NA,NA,4,#1CD855,#FA92F8,0,10,0,38,1,2510.5999999998603,39,0,3214,10,1,experiment,NA,NA,0,0.1,0.9,1,0,124,3,NA
fcp-trial,165,1311266,0.0-134.0-0.0,voc_e2,11738,"[{""event"":""fullscreenenter"",""trial"":1,""time"":21645}]",NA,NA,NA,NA,NA,2,#1CD855,#FA92F8,0,10,0,38,1,3873.600000000093,37,1,925.2999999998137,0,0,experiment,NA,NA,0,0.1,0.9,1,0,125,3,NA
fcp-trial,166,1314928,0.0-135.0-0.0,voc_e2,11738,"[{""event"":""fullscreenenter"",""trial"":1,""time"":21645}]",NA,NA,NA,NA,NA,1,#1CD855,#FA92F8,0,10,0,38,1,1597.8999999999069,39,0,558.3000000000466,10,1,experiment,NA,NA,0,0.1,0.9,1,0,126,3,NA
fcp-trial,167,1321649,0.0-136.0-0.0,voc_e2,11738,"[{""event"":""fullscreenenter"",""trial"":1,""time"":21645}]",NA,NA,NA,NA,NA,5,#741CD8,#D8271C,10,10,0,40,0,2874.5,39,0,2334.4000000001397,10,1,experiment,NA,NA,2,0.5,0.5,5,4,127,3,NA
fcp-trial,168,1326321,0.0-137.0-0.0,voc_e2,11738,"[{""event"":""fullscreenenter"",""trial"":1,""time"":21645}]",NA,NA,NA,NA,NA,2,#3386FF,#D89F1C,0,10,0,38,1,2593.8000000000466,37,1,574.0999999998603,0,0,experiment,NA,NA,1,0.3,0.7,3,2,128,3,NA
fcp-trial,169,1332690,0.0-138.0-0.0,voc_e2,11738,"[{""event"":""fullscreenenter"",""trial"":1,""time"":21645}]",NA,NA,NA,NA,NA,4,#D8271C,#741CD8,0,10,1,40,0,2833.2000000001863,37,1,2030.3000000000466,0,1,experiment,NA,NA,2,0.5,0.5,4,5,129,3,NA
fcp-trial,170,1338528,0.0-139.0-0.0,voc_e2,11738,"[{""event"":""fullscreenenter"",""trial"":1,""time"":21645}]",NA,NA,NA,NA,NA,0,#1CD855,#FA92F8,0,10,0,38,1,2993,39,0,1336.1999999999534,10,1,experiment,NA,NA,0,0.1,0.9,1,0,130,3,NA
fcp-trial,171,1343075,0.0-140.0-0.0,voc_e2,11738,"[{""event"":""fullscreenenter"",""trial"":1,""time"":21645}]",NA,NA,NA,NA,NA,0,#741CD8,#D8271C,0,10,0,38,1,2257.5999999998603,39,0,780,10,1,experiment,NA,NA,2,0.5,0.5,5,4,131,3,NA
fcp-trial,172,1347475,0.0-141.0-0.0,voc_e2,11738,"[{""event"":""fullscreenenter"",""trial"":1,""time"":21645}]",NA,NA,NA,NA,NA,4,#3386FF,#D89F1C,10,10,0,40,0,1984.7999999998137,39,0,890.3000000000466,10,1,experiment,NA,NA,1,0.3,0.7,3,2,132,3,NA
fcp-trial,173,1354147,0.0-142.0-0.0,voc_e2,11738,"[{""event"":""fullscreenenter"",""trial"":1,""time"":21645}]",NA,NA,NA,NA,NA,3,#3386FF,#D89F1C,0,10,0,40,0,3583.9000000001397,37,1,1584.1999999999534,0,0,experiment,NA,NA,1,0.3,0.7,3,2,133,3,NA
fcp-trial,174,1358434,0.0-143.0-0.0,voc_e2,11738,"[{""event"":""fullscreenenter"",""trial"":1,""time"":21645}]",NA,NA,NA,NA,NA,1,#741CD8,#D8271C,10,0,0,38,1,1373.6999999999534,39,0,1407.5999999998603,0,1,experiment,NA,NA,2,0.5,0.5,5,4,134,3,NA
fcp-trial,175,1361617,0.0-144.0-0.0,voc_e2,11738,"[{""event"":""fullscreenenter"",""trial"":1,""time"":21645}]",NA,NA,NA,NA,NA,1,#FA92F8,#1CD855,10,0,1,38,1,1074.1000000000931,37,1,603.3000000000466,10,1,experiment,NA,NA,0,0.9,0.1,0,1,135,3,NA
fcp-trial,176,1365570,0.0-145.0-0.0,voc_e2,11738,"[{""event"":""fullscreenenter"",""trial"":1,""time"":21645}]",NA,NA,NA,NA,NA,6,#FA92F8,#1CD855,10,0,1,40,0,1601.2000000001863,37,1,847,10,1,experiment,NA,NA,0,0.9,0.1,0,1,136,4,NA
fcp-trial,177,1369409,0.0-146.0-0.0,voc_e2,11738,"[{""event"":""fullscreenenter"",""trial"":1,""time"":21645}]",NA,NA,NA,NA,NA,6,#3386FF,#D89F1C,0,10,0,40,0,1551.9000000001397,37,1,783.6999999999534,0,0,experiment,NA,NA,1,0.3,0.7,3,2,137,4,NA
fcp-trial,178,1373744,0.0-147.0-0.0,voc_e2,11738,"[{""event"":""fullscreenenter"",""trial"":1,""time"":21645}]",NA,NA,NA,NA,NA,2,#741CD8,#D8271C,10,10,0,38,1,2048.0999999998603,39,0,782.9000000001397,10,1,experiment,NA,NA,2,0.5,0.5,5,4,138,4,NA
fcp-trial,179,1380320,0.0-148.0-0.0,voc_e2,11738,"[{""event"":""fullscreenenter"",""trial"":1,""time"":21645}]",NA,NA,NA,NA,NA,2,#1CD855,#FA92F8,0,10,0,38,1,3106.5,39,0,1965.5999999998603,10,1,experiment,NA,NA,0,0.1,0.9,1,0,139,4,NA
fcp-trial,180,1385296,0.0-149.0-0.0,voc_e2,11738,"[{""event"":""fullscreenenter"",""trial"":1,""time"":21645}]",NA,NA,NA,NA,NA,5,#D89F1C,#3386FF,10,10,1,38,1,1346.1999999999534,39,0,2127.3000000000466,10,0,experiment,NA,NA,1,0.7,0.3,2,3,140,4,NA
fcp-trial,181,1391010,0.0-150.0-0.0,voc_e2,11738,"[{""event"":""fullscreenenter"",""trial"":1,""time"":21645}]",NA,NA,NA,NA,NA,3,#1CD855,#FA92F8,0,10,0,38,1,2227.7000000001863,39,0,1980.6999999999534,10,1,experiment,NA,NA,0,0.1,0.9,1,0,141,4,NA
fcp-trial,182,1398772,0.0-151.0-0.0,voc_e2,11738,"[{""event"":""fullscreenenter"",""trial"":1,""time"":21645}]",NA,NA,NA,NA,NA,6,#D8271C,#741CD8,10,0,1,40,0,1616.5999999998603,39,0,4639.299999999814,0,0,experiment,NA,NA,2,0.5,0.5,4,5,142,4,NA
fcp-trial,183,1405844,0.0-152.0-0.0,voc_e2,11738,"[{""event"":""fullscreenenter"",""trial"":1,""time"":21645}]",NA,NA,NA,NA,NA,3,#741CD8,#D8271C,0,10,0,38,1,4924.600000000093,39,0,638.5,10,1,experiment,NA,NA,2,0.5,0.5,5,4,143,4,NA
fcp-trial,184,1410402,0.0-153.0-0.0,voc_e2,11738,"[{""event"":""fullscreenenter"",""trial"":1,""time"":21645}]",NA,NA,NA,NA,NA,5,#FA92F8,#1CD855,10,0,1,40,0,2048,39,0,1002.3999999999069,0,0,experiment,NA,NA,0,0.9,0.1,0,1,144,4,NA
fcp-trial,185,1417489,0.0-154.0-0.0,voc_e2,11738,"[{""event"":""fullscreenenter"",""trial"":1,""time"":21645}]",NA,NA,NA,NA,NA,0,#D89F1C,#3386FF,10,0,1,38,1,3024.100000000093,37,1,2559.1999999999534,10,1,experiment,NA,NA,1,0.7,0.3,2,3,145,4,NA
fcp-trial,186,1422662,0.0-155.0-0.0,voc_e2,11738,"[{""event"":""fullscreenenter"",""trial"":1,""time"":21645}]",NA,NA,NA,NA,NA,4,#1CD855,#FA92F8,0,10,0,40,0,2433.7999999998137,37,1,1233.5,0,0,experiment,NA,NA,0,0.1,0.9,1,0,146,4,NA
fcp-trial,187,1427630,0.0-156.0-0.0,voc_e2,11738,"[{""event"":""fullscreenenter"",""trial"":1,""time"":21645}]",NA,NA,NA,NA,NA,1,#3386FF,#D89F1C,0,10,0,38,1,1931.4000000001397,39,0,1518.5,10,1,experiment,NA,NA,1,0.3,0.7,3,2,147,4,NA
fcp-trial,188,1434022,0.0-157.0-0.0,voc_e2,11738,"[{""event"":""fullscreenenter"",""trial"":1,""time"":21645}]",NA,NA,NA,NA,NA,6,#FA92F8,#1CD855,10,10,1,40,0,2181,39,0,2701.7000000001863,10,0,experiment,NA,NA,0,0.9,0.1,0,1,148,4,NA
fcp-trial,189,1437959,0.0-158.0-0.0,voc_e2,11738,"[{""event"":""fullscreenenter"",""trial"":1,""time"":21645}]",NA,NA,NA,NA,NA,4,#741CD8,#D8271C,10,10,0,40,0,1674.5999999998603,39,0,753.8000000000466,10,1,experiment,NA,NA,2,0.5,0.5,5,4,149,4,NA
fcp-trial,190,1443474,0.0-159.0-0.0,voc_e2,11738,"[{""event"":""fullscreenenter"",""trial"":1,""time"":21645}]",NA,NA,NA,NA,NA,0,#D89F1C,#3386FF,10,0,1,38,1,2795.3000000000466,37,1,1212.6999999999534,10,1,experiment,NA,NA,1,0.7,0.3,2,3,150,4,NA
fcp-trial,191,1451010,0.0-160.0-0.0,voc_e2,11738,"[{""event"":""fullscreenenter"",""trial"":1,""time"":21645}]",NA,NA,NA,NA,NA,2,#1CD855,#FA92F8,0,10,0,38,1,5130,37,1,894,0,0,experiment,NA,NA,0,0.1,0.9,1,0,151,4,NA
fcp-trial,192,1455730,0.0-161.0-0.0,voc_e2,11738,"[{""event"":""fullscreenenter"",""trial"":1,""time"":21645}]",NA,NA,NA,NA,NA,1,#1CD855,#FA92F8,0,10,0,38,1,2510.5,39,0,702.5,10,1,experiment,NA,NA,0,0.1,0.9,1,0,152,4,NA
fcp-trial,193,1462625,0.0-162.0-0.0,voc_e2,11738,"[{""event"":""fullscreenenter"",""trial"":1,""time"":21645}]",NA,NA,NA,NA,NA,0,#D8271C,#741CD8,10,10,1,38,1,4271.5,37,1,1118.9000000001397,10,1,experiment,NA,NA,2,0.5,0.5,4,5,153,4,NA
fcp-trial,194,1466292,0.0-163.0-0.0,voc_e2,11738,"[{""event"":""fullscreenenter"",""trial"":1,""time"":21645}]",NA,NA,NA,NA,NA,5,#D89F1C,#3386FF,10,0,1,40,0,1426.1999999999534,39,0,735.5,0,0,experiment,NA,NA,1,0.7,0.3,2,3,154,4,NA
fcp-trial,195,1470036,0.0-164.0-0.0,voc_e2,11738,"[{""event"":""fullscreenenter"",""trial"":1,""time"":21645}]",NA,NA,NA,NA,NA,5,#FA92F8,#1CD855,10,0,1,40,0,1452.5999999998603,39,0,780.1999999999534,0,0,experiment,NA,NA,0,0.9,0.1,0,1,155,4,NA
fcp-trial,196,1478386,0.0-165.0-0.0,voc_e2,11738,"[{""event"":""fullscreenenter"",""trial"":1,""time"":21645}]",NA,NA,NA,NA,NA,5,#741CD8,#D8271C,0,10,0,38,1,2288.4000000001397,39,0,4541.90000000014,10,1,experiment,NA,NA,2,0.5,0.5,5,4,156,4,NA
fcp-trial,197,1487459,0.0-166.0-0.0,voc_e2,11738,"[{""event"":""fullscreenenter"",""trial"":1,""time"":21645}]",NA,NA,NA,NA,NA,1,#3386FF,#D89F1C,0,0,0,38,1,1569.1999999999534,39,0,5998.800000000047,0,1,experiment,NA,NA,1,0.3,0.7,3,2,157,4,NA
fcp-trial,198,1492641,0.0-167.0-0.0,voc_e2,11738,"[{""event"":""fullscreenenter"",""trial"":1,""time"":21645}]",NA,NA,NA,NA,NA,2,#D8271C,#741CD8,10,0,1,38,1,2925.6999999999534,37,1,751.1000000000931,10,1,experiment,NA,NA,2,0.5,0.5,4,5,158,4,NA
fcp-trial,199,1497235,0.0-168.0-0.0,voc_e2,11738,"[{""event"":""fullscreenenter"",""trial"":1,""time"":21645}]",NA,NA,NA,NA,NA,3,#1CD855,#FA92F8,0,0,0,40,0,2266.6999999999534,39,0,813.6999999999534,0,1,experiment,NA,NA,0,0.1,0.9,1,0,159,4,NA
fcp-trial,200,1504804,0.0-169.0-0.0,voc_e2,11738,"[{""event"":""fullscreenenter"",""trial"":1,""time"":21645}]",NA,NA,NA,NA,NA,1,#741CD8,#D8271C,10,10,0,38,1,3327.6999999999534,39,0,2732.5,10,1,experiment,NA,NA,2,0.5,0.5,5,4,160,4,NA
fcp-trial,201,1512819,0.0-170.0-0.0,voc_e2,11738,"[{""event"":""fullscreenenter"",""trial"":1,""time"":21645}]",NA,NA,NA,NA,NA,2,#3386FF,#D89F1C,10,10,0,38,1,4471.600000000093,39,0,2031.7000000001863,10,1,experiment,NA,NA,1,0.3,0.7,3,2,161,4,NA
fcp-trial,202,1520435,0.0-171.0-0.0,voc_e2,11738,"[{""event"":""fullscreenenter"",""trial"":1,""time"":21645}]",NA,NA,NA,NA,NA,0,#1CD855,#FA92F8,0,10,0,38,1,4989,39,0,1119.8000000000466,10,1,experiment,NA,NA,0,0.1,0.9,1,0,162,4,NA
fcp-trial,203,1525169,0.0-172.0-0.0,voc_e2,11738,"[{""event"":""fullscreenenter"",""trial"":1,""time"":21645}]",NA,NA,NA,NA,NA,3,#741CD8,#D8271C,0,10,0,38,1,2680.6999999999534,39,0,543.1000000000931,10,1,experiment,NA,NA,2,0.5,0.5,5,4,163,4,NA
fcp-trial,204,1530135,0.0-173.0-0.0,voc_e2,11738,"[{""event"":""fullscreenenter"",""trial"":1,""time"":21645}]",NA,NA,NA,NA,NA,6,#3386FF,#D89F1C,0,10,0,40,0,2529.3000000000466,39,0,929.5,10,1,experiment,NA,NA,1,0.3,0.7,3,2,164,4,NA
fcp-trial,205,1534756,0.0-174.0-0.0,voc_e2,11738,"[{""event"":""fullscreenenter"",""trial"":1,""time"":21645}]",NA,NA,NA,NA,NA,4,#D89F1C,#3386FF,10,0,1,40,0,2346.899999999907,39,0,768.8000000000466,0,0,experiment,NA,NA,1,0.7,0.3,2,3,165,4,NA
fcp-trial,206,1540385,0.0-175.0-0.0,voc_e2,11738,"[{""event"":""fullscreenenter"",""trial"":1,""time"":21645}]",NA,NA,NA,NA,NA,4,#FA92F8,#1CD855,0,0,1,40,0,3263.5,37,1,857.4000000001397,0,1,experiment,NA,NA,0,0.9,0.1,0,1,166,4,NA
fcp-trial,207,1544882,0.0-176.0-0.0,voc_e2,11738,"[{""event"":""fullscreenenter"",""trial"":1,""time"":21645}]",NA,NA,NA,NA,NA,6,#741CD8,#D8271C,0,10,0,40,0,1971.3000000000466,37,1,1021,0,0,experiment,NA,NA,2,0.5,0.5,5,4,167,4,NA
fcp-trial,208,1550501,0.0-177.0-0.0,voc_e2,11738,"[{""event"":""fullscreenenter"",""trial"":1,""time"":21645}]",NA,NA,NA,NA,NA,3,#3386FF,#D89F1C,0,10,0,38,1,2687.4000000001397,39,0,1424.5,10,1,experiment,NA,NA,1,0.3,0.7,3,2,168,4,NA
fcp-trial,209,1556257,0.0-178.0-0.0,voc_e2,11738,"[{""event"":""fullscreenenter"",""trial"":1,""time"":21645}]",NA,NA,NA,NA,NA,0,#3386FF,#D89F1C,10,10,0,38,1,2349.9000000001397,39,0,1901.2000000001863,10,1,experiment,NA,NA,1,0.3,0.7,3,2,169,4,NA
fcp-trial,210,1567922,0.0-179.0-0.0,voc_e2,11738,"[{""event"":""fullscreenenter"",""trial"":1,""time"":21645}]",NA,NA,NA,NA,NA,1,#1CD855,#FA92F8,0,10,0,40,0,9493.09999999986,39,0,667.3999999999069,10,1,experiment,NA,NA,0,0.1,0.9,1,0,170,4,NA
fcp-trial,211,1574834,0.0-180.0-0.0,voc_e2,11738,"[{""event"":""fullscreenenter"",""trial"":1,""time"":21645}]",NA,NA,NA,NA,NA,2,#D8271C,#741CD8,10,0,1,38,1,3679.5,37,1,1725.8999999999069,10,1,experiment,NA,NA,2,0.5,0.5,4,5,171,4,NA
fcp-trial,212,1579382,0.0-181.0-0.0,voc_e2,11738,"[{""event"":""fullscreenenter"",""trial"":1,""time"":21645}]",NA,NA,NA,NA,NA,3,#D89F1C,#3386FF,0,10,1,38,1,1774.3000000000466,37,1,1265.1999999999534,0,1,experiment,NA,NA,1,0.7,0.3,2,3,172,4,NA
fcp-trial,213,1583825,0.0-182.0-0.0,voc_e2,11738,"[{""event"":""fullscreenenter"",""trial"":1,""time"":21645}]",NA,NA,NA,NA,NA,5,#FA92F8,#1CD855,10,0,1,40,0,2266.8000000000466,39,0,671.1000000000931,0,0,experiment,NA,NA,0,0.9,0.1,0,1,173,4,NA
fcp-trial,214,1588625,0.0-183.0-0.0,voc_e2,11738,"[{""event"":""fullscreenenter"",""trial"":1,""time"":21645}]",NA,NA,NA,NA,NA,4,#D89F1C,#3386FF,0,0,1,40,0,2305,39,0,990,0,0,experiment,NA,NA,1,0.7,0.3,2,3,174,4,NA
fcp-trial,215,1592337,0.0-184.0-0.0,voc_e2,11738,"[{""event"":""fullscreenenter"",""trial"":1,""time"":21645}]",NA,NA,NA,NA,NA,6,#D8271C,#741CD8,10,0,1,40,0,1216.5,39,0,991.5999999998603,0,0,experiment,NA,NA,2,0.5,0.5,4,5,175,4,NA
fcp-trial,216,1595749,0.0-185.0-0.0,voc_e2,11738,"[{""event"":""fullscreenenter"",""trial"":1,""time"":21645}]",NA,NA,NA,NA,NA,4,#D8271C,#741CD8,0,0,1,40,0,1089,37,1,816.5,0,1,experiment,NA,NA,2,0.5,0.5,4,5,176,4,NA
fcp-trial,217,1599810,0.0-186.0-0.0,voc_e2,11738,"[{""event"":""fullscreenenter"",""trial"":1,""time"":21645}]",NA,NA,NA,NA,NA,1,#D89F1C,#3386FF,0,0,1,38,1,1708,39,0,847.5,0,0,experiment,NA,NA,1,0.7,0.3,2,3,177,4,NA
fcp-trial,218,1603025,0.0-187.0-0.0,voc_e2,11738,"[{""event"":""fullscreenenter"",""trial"":1,""time"":21645}]",NA,NA,NA,NA,NA,4,#FA92F8,#1CD855,10,0,1,40,0,1245.3999999999069,37,1,461.69999999995343,10,1,experiment,NA,NA,0,0.9,0.1,0,1,178,4,NA
fcp-trial,219,1609461,0.0-188.0-0.0,voc_e2,11738,"[{""event"":""fullscreenenter"",""trial"":1,""time"":21645}]",NA,NA,NA,NA,NA,0,#1CD855,#FA92F8,0,10,0,38,1,3297.0999999998603,39,0,1628.7999999998137,10,1,experiment,NA,NA,0,0.1,0.9,1,0,179,4,NA
fcp-trial,220,1613010,0.0-189.0-0.0,voc_e2,11738,"[{""event"":""fullscreenenter"",""trial"":1,""time"":21645}]",NA,NA,NA,NA,NA,6,#3386FF,#D89F1C,0,10,0,40,0,1276.8000000000466,39,0,766.4000000001397,10,1,experiment,NA,NA,1,0.3,0.7,3,2,180,4,NA
fcp-trial,221,1616518,0.0-190.0-0.0,voc_e2,11738,"[{""event"":""fullscreenenter"",""trial"":1,""time"":21645}]",NA,NA,NA,NA,NA,5,#741CD8,#D8271C,10,10,0,40,0,1317.3999999999069,37,1,671.5,10,0,experiment,NA,NA,2,0.5,0.5,5,4,181,5,NA
fcp-trial,222,1621681,0.0-191.0-0.0,voc_e2,11738,"[{""event"":""fullscreenenter"",""trial"":1,""time"":21645}]",NA,NA,NA,NA,NA,0,#D8271C,#741CD8,10,0,1,38,1,3019.399999999907,39,0,638.3999999999069,0,0,experiment,NA,NA,2,0.5,0.5,4,5,182,5,NA
fcp-trial,223,1625813,0.0-192.0-0.0,voc_e2,11738,"[{""event"":""fullscreenenter"",""trial"":1,""time"":21645}]",NA,NA,NA,NA,NA,2,#D89F1C,#3386FF,10,0,1,38,1,1905.8999999999069,37,1,716,10,1,experiment,NA,NA,1,0.7,0.3,2,3,183,5,NA
fcp-trial,224,1628999,0.0-193.0-0.0,voc_e2,11738,"[{""event"":""fullscreenenter"",""trial"":1,""time"":21645}]",NA,NA,NA,NA,NA,6,#1CD855,#FA92F8,0,10,0,40,0,1020,39,0,656.8000000002794,10,1,experiment,NA,NA,0,0.1,0.9,1,0,184,5,NA
fcp-trial,225,1632962,0.0-194.0-0.0,voc_e2,11738,"[{""event"":""fullscreenenter"",""trial"":1,""time"":21645}]",NA,NA,NA,NA,NA,3,#741CD8,#D8271C,10,10,0,38,1,1913.7000000001863,37,1,540.5,10,0,experiment,NA,NA,2,0.5,0.5,5,4,185,5,NA
fcp-trial,226,1636306,0.0-195.0-0.0,voc_e2,11738,"[{""event"":""fullscreenenter"",""trial"":1,""time"":21645}]",NA,NA,NA,NA,NA,1,#741CD8,#D8271C,0,0,0,38,1,1298.6999999997206,39,0,525.9000000003725,0,1,experiment,NA,NA,2,0.5,0.5,5,4,186,5,NA
fcp-trial,227,1647185,0.0-196.0-0.0,voc_e2,11738,"[{""event"":""fullscreenenter"",""trial"":1,""time"":21645}]",NA,NA,NA,NA,NA,2,#FA92F8,#1CD855,10,0,1,38,1,8318.899999999907,37,1,1053.5,10,1,experiment,NA,NA,0,0.9,0.1,0,1,187,5,NA
fcp-trial,228,1651923,0.0-197.0-0.0,voc_e2,11738,"[{""event"":""fullscreenenter"",""trial"":1,""time"":21645}]",NA,NA,NA,NA,NA,5,#D89F1C,#3386FF,10,0,1,40,0,1904.2999999998137,37,1,1327.5,10,1,experiment,NA,NA,1,0.7,0.3,2,3,188,5,NA
fcp-trial,229,1658546,0.0-198.0-0.0,voc_e2,11738,"[{""event"":""fullscreenenter"",""trial"":1,""time"":21645}]",NA,NA,NA,NA,NA,3,#FA92F8,#1CD855,10,0,1,38,1,3680.2000000001863,37,1,1434.7000000001863,10,1,experiment,NA,NA,0,0.9,0.1,0,1,189,5,NA
fcp-trial,230,1663489,0.0-199.0-0.0,voc_e2,11738,"[{""event"":""fullscreenenter"",""trial"":1,""time"":21645}]",NA,NA,NA,NA,NA,2,#FA92F8,#1CD855,0,10,1,38,1,1648.8999999999069,37,1,1788.7000000001863,0,1,experiment,NA,NA,0,0.9,0.1,0,1,190,5,NA
fcp-trial,231,1670579,0.0-200.0-0.0,voc_e2,11738,"[{""event"":""fullscreenenter"",""trial"":1,""time"":21645}]",NA,NA,NA,NA,NA,3,#3386FF,#D89F1C,10,10,0,38,1,4831.300000000279,37,1,752,10,0,experiment,NA,NA,1,0.3,0.7,3,2,191,5,NA
fcp-trial,232,1674610,0.0-201.0-0.0,voc_e2,11738,"[{""event"":""fullscreenenter"",""trial"":1,""time"":21645}]",NA,NA,NA,NA,NA,2,#3386FF,#D89F1C,10,10,0,38,1,1517.5,39,0,1006,10,1,experiment,NA,NA,1,0.3,0.7,3,2,192,5,NA
fcp-trial,233,1680531,0.0-202.0-0.0,voc_e2,11738,"[{""event"":""fullscreenenter"",""trial"":1,""time"":21645}]",NA,NA,NA,NA,NA,1,#741CD8,#D8271C,10,0,0,38,1,3888.7000000001863,37,1,526.6000000000931,10,0,experiment,NA,NA,2,0.5,0.5,5,4,193,5,NA
fcp-trial,234,1685009,0.0-203.0-0.0,voc_e2,11738,"[{""event"":""fullscreenenter"",""trial"":1,""time"":21645}]",NA,NA,NA,NA,NA,6,#D8271C,#741CD8,0,0,1,40,0,1295.0999999996275,37,1,1678.3000000002794,0,1,experiment,NA,NA,2,0.5,0.5,4,5,194,5,NA
fcp-trial,235,1691010,0.0-204.0-0.0,voc_e2,11738,"[{""event"":""fullscreenenter"",""trial"":1,""time"":21645}]",NA,NA,NA,NA,NA,1,#1CD855,#FA92F8,0,10,0,38,1,2767.100000000093,39,0,1726.8000000002794,10,1,experiment,NA,NA,0,0.1,0.9,1,0,195,5,NA
fcp-trial,236,1696241,0.0-205.0-0.0,voc_e2,11738,"[{""event"":""fullscreenenter"",""trial"":1,""time"":21645}]",NA,NA,NA,NA,NA,1,#D89F1C,#3386FF,10,0,1,38,1,2576,37,1,1150.3999999999069,10,1,experiment,NA,NA,1,0.7,0.3,2,3,196,5,NA
fcp-trial,237,1702242,0.0-206.0-0.0,voc_e2,11738,"[{""event"":""fullscreenenter"",""trial"":1,""time"":21645}]",NA,NA,NA,NA,NA,3,#FA92F8,#1CD855,10,0,1,38,1,2769.399999999907,37,1,1726.7000000001863,10,1,experiment,NA,NA,0,0.9,0.1,0,1,197,5,NA
fcp-trial,238,1711090,0.0-207.0-0.0,voc_e2,11738,"[{""event"":""fullscreenenter"",""trial"":1,""time"":21645}]",NA,NA,NA,NA,NA,0,#741CD8,#D8271C,10,0,0,38,1,6207.5999999996275,39,0,1134.8000000002794,0,1,experiment,NA,NA,2,0.5,0.5,5,4,198,5,NA
fcp-trial,239,1714900,0.0-208.0-0.0,voc_e2,11738,"[{""event"":""fullscreenenter"",""trial"":1,""time"":21645}]",NA,NA,NA,NA,NA,5,#1CD855,#FA92F8,0,10,0,40,0,1510.6000000000931,39,0,778.6999999997206,10,1,experiment,NA,NA,0,0.1,0.9,1,0,199,5,NA
fcp-trial,240,1719265,0.0-209.0-0.0,voc_e2,11738,"[{""event"":""fullscreenenter"",""trial"":1,""time"":21645}]",NA,NA,NA,NA,NA,0,#FA92F8,#1CD855,10,0,1,38,1,1734.1999999997206,37,1,1119.6000000000931,10,1,experiment,NA,NA,0,0.9,0.1,0,1,200,5,NA
fcp-trial,241,1722562,0.0-210.0-0.0,voc_e2,11738,"[{""event"":""fullscreenenter"",""trial"":1,""time"":21645}]",NA,NA,NA,NA,NA,4,#3386FF,#D89F1C,10,0,0,40,0,1079,39,0,703.2000000001863,0,1,experiment,NA,NA,1,0.3,0.7,3,2,201,5,NA
fcp-trial,242,1730497,0.0-211.0-0.0,voc_e2,11738,"[{""event"":""fullscreenenter"",""trial"":1,""time"":21645}]",NA,NA,NA,NA,NA,0,#3386FF,#D89F1C,0,10,0,38,1,4050.399999999907,39,0,2379.7000000001863,10,1,experiment,NA,NA,1,0.3,0.7,3,2,202,5,NA
fcp-trial,243,1735697,0.0-212.0-0.0,voc_e2,11738,"[{""event"":""fullscreenenter"",""trial"":1,""time"":21645}]",NA,NA,NA,NA,NA,4,#D8271C,#741CD8,0,0,1,40,0,2976.600000000093,39,0,719.3000000002794,0,0,experiment,NA,NA,2,0.5,0.5,4,5,203,5,NA
fcp-trial,244,1740820,0.0-213.0-0.0,voc_e2,11738,"[{""event"":""fullscreenenter"",""trial"":1,""time"":21645}]",NA,NA,NA,NA,NA,6,#D89F1C,#3386FF,10,10,1,38,1,2051.100000000093,37,1,1566.5,10,1,experiment,NA,NA,1,0.7,0.3,2,3,204,5,NA
fcp-trial,245,1745475,0.0-214.0-0.0,voc_e2,11738,"[{""event"":""fullscreenenter"",""trial"":1,""time"":21645}]",NA,NA,NA,NA,NA,4,#FA92F8,#1CD855,10,0,1,40,0,2354.9000000003725,39,0,783.2000000001863,0,0,experiment,NA,NA,0,0.9,0.1,0,1,205,5,NA
fcp-trial,246,1751297,0.0-215.0-0.0,voc_e2,11738,"[{""event"":""fullscreenenter"",""trial"":1,""time"":21645}]",NA,NA,NA,NA,NA,3,#D8271C,#741CD8,10,0,1,38,1,3795.5,37,1,509.8000000002794,10,1,experiment,NA,NA,2,0.5,0.5,4,5,206,5,NA
fcp-trial,247,1757139,0.0-216.0-0.0,voc_e2,11738,"[{""event"":""fullscreenenter"",""trial"":1,""time"":21645}]",NA,NA,NA,NA,NA,5,#741CD8,#D8271C,0,10,0,40,0,3075.5,37,1,1248.1999999997206,0,0,experiment,NA,NA,2,0.5,0.5,5,4,207,5,NA
fcp-trial,248,1760628,0.0-217.0-0.0,voc_e2,11738,"[{""event"":""fullscreenenter"",""trial"":1,""time"":21645}]",NA,NA,NA,NA,NA,5,#3386FF,#D89F1C,0,10,0,40,0,1233.7000000001863,37,1,738.1999999997206,0,0,experiment,NA,NA,1,0.3,0.7,3,2,208,5,NA
fcp-trial,249,1764961,0.0-218.0-0.0,voc_e2,11738,"[{""event"":""fullscreenenter"",""trial"":1,""time"":21645}]",NA,NA,NA,NA,NA,2,#D8271C,#741CD8,10,0,1,38,1,2125.3000000002794,37,1,702.8000000002794,10,1,experiment,NA,NA,2,0.5,0.5,4,5,209,5,NA
fcp-trial,250,1768914,0.0-219.0-0.0,voc_e2,11738,"[{""event"":""fullscreenenter"",""trial"":1,""time"":21645}]",NA,NA,NA,NA,NA,6,#FA92F8,#1CD855,10,0,1,40,0,1806.2999999998137,37,1,637.5,10,1,experiment,NA,NA,0,0.9,0.1,0,1,210,5,NA
audio-instructions,251,1806421,0.0-220.0,voc_e2,11738,"[{""event"":""fullscreenenter"",""trial"":1,""time"":21645}]",NA,32230.5,static/audio/pause.wav,NA,0,NA,NA,NA,NA,NA,NA,NA,NA,NA,NA,NA,NA,NA,NA,NA,NA,NA,NA,NA,NA,NA,NA,NA,NA,NA
fcp-trial,252,1811650,0.0-221.0-0.0,voc_e2,11738,"[{""event"":""fullscreenenter"",""trial"":1,""time"":21645}]",NA,NA,NA,NA,NA,3,#3386FF,#D89F1C,0,10,0,38,1,2762.7999999998137,39,0,958.9000000003725,10,1,experiment,NA,NA,1,0.3,0.7,3,2,211,5,NA
fcp-trial,253,1815282,0.0-222.0-0.0,voc_e2,11738,"[{""event"":""fullscreenenter"",""trial"":1,""time"":21645}]",NA,NA,NA,NA,NA,6,#3386FF,#D89F1C,10,10,0,40,0,1455.8000000002794,39,0,671.1999999997206,10,1,experiment,NA,NA,1,0.3,0.7,3,2,212,5,NA
fcp-trial,254,1818484,0.0-223.0-0.0,voc_e2,11738,"[{""event"":""fullscreenenter"",""trial"":1,""time"":21645}]",NA,NA,NA,NA,NA,6,#D8271C,#741CD8,0,10,1,40,0,943.9000000003725,37,1,750.7999999998137,0,1,experiment,NA,NA,2,0.5,0.5,4,5,213,5,NA
fcp-trial,255,1823825,0.0-224.0-0.0,voc_e2,11738,"[{""event"":""fullscreenenter"",""trial"":1,""time"":21645}]",NA,NA,NA,NA,NA,2,#1CD855,#FA92F8,10,10,0,38,1,2203,39,0,1630.5999999996275,10,1,experiment,NA,NA,0,0.1,0.9,1,0,214,5,NA
fcp-trial,256,1828530,0.0-225.0-0.0,voc_e2,11738,"[{""event"":""fullscreenenter"",""trial"":1,""time"":21645}]",NA,NA,NA,NA,NA,2,#D8271C,#741CD8,0,10,1,40,0,2094.2999999998137,39,0,1100.5999999996275,10,0,experiment,NA,NA,2,0.5,0.5,4,5,215,5,NA
fcp-trial,257,1832129,0.0-226.0-0.0,voc_e2,11738,"[{""event"":""fullscreenenter"",""trial"":1,""time"":21645}]",NA,NA,NA,NA,NA,0,#FA92F8,#1CD855,10,0,1,38,1,1408.1000000000931,37,1,686.3999999999069,10,1,experiment,NA,NA,0,0.9,0.1,0,1,216,5,NA
fcp-trial,258,1842434,0.0-227.0-0.0,voc_e2,11738,"[{""event"":""fullscreenenter"",""trial"":1,""time"":21645}]",NA,NA,NA,NA,NA,0,#D89F1C,#3386FF,10,0,1,38,1,8143.600000000093,37,1,654,10,1,experiment,NA,NA,1,0.7,0.3,2,3,217,5,NA
fcp-trial,259,1846657,0.0-228.0-0.0,voc_e2,11738,"[{""event"":""fullscreenenter"",""trial"":1,""time"":21645}]",NA,NA,NA,NA,NA,5,#FA92F8,#1CD855,10,0,1,40,0,1870.2000000001863,39,0,847.2999999998137,0,0,experiment,NA,NA,0,0.9,0.1,0,1,218,5,NA
fcp-trial,260,1850147,0.0-229.0-0.0,voc_e2,11738,"[{""event"":""fullscreenenter"",""trial"":1,""time"":21645}]",NA,NA,NA,NA,NA,5,#741CD8,#D8271C,0,10,0,40,0,1137.1999999997206,39,0,846.3999999999069,10,1,experiment,NA,NA,2,0.5,0.5,5,4,219,5,NA
fcp-trial,261,1853746,0.0-230.0-0.0,voc_e2,11738,"[{""event"":""fullscreenenter"",""trial"":1,""time"":21645}]",NA,NA,NA,NA,NA,0,#D8271C,#741CD8,0,10,1,38,1,1565.7999999998137,37,1,527.1000000000931,0,1,experiment,NA,NA,2,0.5,0.5,4,5,220,5,NA
fcp-trial,262,1858178,0.0-231.0-0.0,voc_e2,11738,"[{""event"":""fullscreenenter"",""trial"":1,""time"":21645}]",NA,NA,NA,NA,NA,5,#3386FF,#D89F1C,0,0,0,40,0,1502.4000000003725,37,1,1422.5,0,0,experiment,NA,NA,1,0.3,0.7,3,2,221,5,NA
fcp-trial,263,1862097,0.0-232.0-0.0,voc_e2,11738,"[{""event"":""fullscreenenter"",""trial"":1,""time"":21645}]",NA,NA,NA,NA,NA,4,#1CD855,#FA92F8,0,10,0,40,0,1631.3999999999069,37,1,783.0999999996275,0,0,experiment,NA,NA,0,0.1,0.9,1,0,222,5,NA
fcp-trial,264,1865842,0.0-233.0-0.0,voc_e2,11738,"[{""event"":""fullscreenenter"",""trial"":1,""time"":21645}]",NA,NA,NA,NA,NA,4,#741CD8,#D8271C,0,10,0,40,0,1247.8000000002794,37,1,990.1999999997206,0,0,experiment,NA,NA,2,0.5,0.5,5,4,223,5,NA
fcp-trial,265,1869603,0.0-234.0-0.0,voc_e2,11738,"[{""event"":""fullscreenenter"",""trial"":1,""time"":21645}]",NA,NA,NA,NA,NA,3,#D8271C,#741CD8,10,0,1,40,0,1358.2000000001863,37,1,896.3999999999069,10,1,experiment,NA,NA,2,0.5,0.5,4,5,224,5,NA
fcp-trial,266,1874801,0.0-235.0-0.0,voc_e2,11738,"[{""event"":""fullscreenenter"",""trial"":1,""time"":21645}]",NA,NA,NA,NA,NA,6,#1CD855,#FA92F8,0,10,0,38,1,1566.3999999999069,39,0,2126.2000000001863,10,1,experiment,NA,NA,0,0.1,0.9,1,0,225,5,NA
fcp-trial,267,1878785,0.0-236.0-0.0,voc_e2,11738,"[{""event"":""fullscreenenter"",""trial"":1,""time"":21645}]",NA,NA,NA,NA,NA,4,#3386FF,#D89F1C,10,10,0,40,0,1648,37,1,831.3999999999069,10,0,experiment,NA,NA,1,0.3,0.7,3,2,226,6,NA
fcp-trial,268,1883281,0.0-237.0-0.0,voc_e2,11738,"[{""event"":""fullscreenenter"",""trial"":1,""time"":21645}]",NA,NA,NA,NA,NA,1,#D89F1C,#3386FF,10,0,1,38,1,1262.5999999996275,37,1,1728.2999999998137,10,1,experiment,NA,NA,1,0.7,0.3,2,3,227,6,NA
fcp-trial,269,1887299,0.0-238.0-0.0,voc_e2,11738,"[{""event"":""fullscreenenter"",""trial"":1,""time"":21645}]",NA,NA,NA,NA,NA,3,#FA92F8,#1CD855,10,0,1,38,1,1421.6999999997206,37,1,1087.5,10,1,experiment,NA,NA,0,0.9,0.1,0,1,228,6,NA
fcp-trial,270,1894705,0.0-239.0-0.0,voc_e2,11738,"[{""event"":""fullscreenenter"",""trial"":1,""time"":21645}]",NA,NA,NA,NA,NA,1,#741CD8,#D8271C,0,0,0,38,1,3649.4000000003725,39,0,2252.6999999997206,0,1,experiment,NA,NA,2,0.5,0.5,5,4,229,6,NA
fcp-trial,271,1898866,0.0-240.0-0.0,voc_e2,11738,"[{""event"":""fullscreenenter"",""trial"":1,""time"":21645}]",NA,NA,NA,NA,NA,1,#FA92F8,#1CD855,10,0,1,38,1,1678.5,37,1,975.3999999999069,10,1,experiment,NA,NA,0,0.9,0.1,0,1,230,6,NA
fcp-trial,272,1904578,0.0-241.0-0.0,voc_e2,11738,"[{""event"":""fullscreenenter"",""trial"":1,""time"":21645}]",NA,NA,NA,NA,NA,2,#3386FF,#D89F1C,0,10,0,38,1,3246.8000000002794,39,0,958.8999999999069,10,1,experiment,NA,NA,1,0.3,0.7,3,2,231,6,NA
fcp-trial,273,1908705,0.0-242.0-0.0,voc_e2,11738,"[{""event"":""fullscreenenter"",""trial"":1,""time"":21645}]",NA,NA,NA,NA,NA,6,#D8271C,#741CD8,0,10,1,40,0,1870.2000000001863,37,1,750.0999999996275,0,1,experiment,NA,NA,2,0.5,0.5,4,5,232,6,NA
fcp-trial,274,1914802,0.0-243.0-0.0,voc_e2,11738,"[{""event"":""fullscreenenter"",""trial"":1,""time"":21645}]",NA,NA,NA,NA,NA,4,#D89F1C,#3386FF,10,0,1,40,0,3391.1999999997206,39,0,1198.8999999999069,0,0,experiment,NA,NA,1,0.7,0.3,2,3,233,6,NA
fcp-trial,275,1919441,0.0-244.0-0.0,voc_e2,11738,"[{""event"":""fullscreenenter"",""trial"":1,""time"":21645}]",NA,NA,NA,NA,NA,5,#3386FF,#D89F1C,10,0,0,40,0,2205.6999999997206,39,0,926.0999999996275,0,1,experiment,NA,NA,1,0.3,0.7,3,2,234,6,NA
fcp-trial,276,1923666,0.0-245.0-0.0,voc_e2,11738,"[{""event"":""fullscreenenter"",""trial"":1,""time"":21645}]",NA,NA,NA,NA,NA,4,#741CD8,#D8271C,0,0,0,40,0,1486.8999999999069,37,1,1230.1000000000931,0,0,experiment,NA,NA,2,0.5,0.5,5,4,235,6,NA
fcp-trial,277,1930913,0.0-246.0-0.0,voc_e2,11738,"[{""event"":""fullscreenenter"",""trial"":1,""time"":21645}]",NA,NA,NA,NA,NA,3,#FA92F8,#1CD855,10,0,1,38,1,4510.300000000279,37,1,1230.5,10,1,experiment,NA,NA,0,0.9,0.1,0,1,236,6,NA
fcp-trial,278,1935921,0.0-247.0-0.0,voc_e2,11738,"[{""event"":""fullscreenenter"",""trial"":1,""time"":21645}]",NA,NA,NA,NA,NA,1,#1CD855,#FA92F8,0,10,0,38,1,1934.1999999997206,39,0,1566.5,10,1,experiment,NA,NA,0,0.1,0.9,1,0,237,6,NA
fcp-trial,279,1938977,0.0-248.0-0.0,voc_e2,11738,"[{""event"":""fullscreenenter"",""trial"":1,""time"":21645}]",NA,NA,NA,NA,NA,6,#3386FF,#D89F1C,0,10,0,40,0,958.2999999998137,37,1,591.3999999999069,0,0,experiment,NA,NA,1,0.3,0.7,3,2,238,6,NA
fcp-trial,280,1947090,0.0-249.0-0.0,voc_e2,11738,"[{""event"":""fullscreenenter"",""trial"":1,""time"":21645}]",NA,NA,NA,NA,NA,3,#D8271C,#741CD8,0,0,1,38,1,2351.100000000093,37,1,4254.200000000186,0,1,experiment,NA,NA,2,0.5,0.5,4,5,239,6,NA
fcp-trial,281,1952560,0.0-250.0-0.0,voc_e2,11738,"[{""event"":""fullscreenenter"",""trial"":1,""time"":21645}]",NA,NA,NA,NA,NA,1,#3386FF,#D89F1C,10,10,0,38,1,2094.100000000093,39,0,1871.6000000000931,10,1,experiment,NA,NA,1,0.3,0.7,3,2,240,6,NA
fcp-trial,282,1957248,0.0-251.0-0.0,voc_e2,11738,"[{""event"":""fullscreenenter"",""trial"":1,""time"":21645}]",NA,NA,NA,NA,NA,6,#1CD855,#FA92F8,0,0,0,40,0,1136.2999999998137,39,0,2046.1000000000931,0,1,experiment,NA,NA,0,0.1,0.9,1,0,241,6,NA
fcp-trial,283,1961995,0.0-252.0-0.0,voc_e2,11738,"[{""event"":""fullscreenenter"",""trial"":1,""time"":21645}]",NA,NA,NA,NA,NA,4,#FA92F8,#1CD855,10,0,1,40,0,1519.3999999999069,39,0,1710.2999999998137,0,0,experiment,NA,NA,0,0.9,0.1,0,1,242,6,NA
fcp-trial,284,1967857,0.0-253.0-0.0,voc_e2,11738,"[{""event"":""fullscreenenter"",""trial"":1,""time"":21645}]",NA,NA,NA,NA,NA,0,#741CD8,#D8271C,10,0,0,38,1,2772.899999999907,39,0,1581.7000000001863,0,1,experiment,NA,NA,2,0.5,0.5,5,4,243,6,NA
fcp-trial,285,1972674,0.0-254.0-0.0,voc_e2,11738,"[{""event"":""fullscreenenter"",""trial"":1,""time"":21645}]",NA,NA,NA,NA,NA,3,#3386FF,#D89F1C,10,10,0,38,1,2526.7000000001863,37,1,783.7000000001863,10,0,experiment,NA,NA,1,0.3,0.7,3,2,244,6,NA
fcp-trial,286,1979249,0.0-255.0-0.0,voc_e2,11738,"[{""event"":""fullscreenenter"",""trial"":1,""time"":21645}]",NA,NA,NA,NA,NA,2,#D8271C,#741CD8,10,10,1,38,1,2382.5,37,1,2686.600000000093,10,1,experiment,NA,NA,2,0.5,0.5,4,5,245,6,NA
fcp-trial,287,1988851,0.0-256.0-0.0,voc_e2,11738,"[{""event"":""fullscreenenter"",""trial"":1,""time"":21645}]",NA,NA,NA,NA,NA,0,#1CD855,#FA92F8,0,10,0,38,1,7455.5,39,0,638.7000000001863,10,1,experiment,NA,NA,0,0.1,0.9,1,0,246,6,NA
fcp-trial,288,1993393,0.0-257.0-0.0,voc_e2,11738,"[{""event"":""fullscreenenter"",""trial"":1,""time"":21645}]",NA,NA,NA,NA,NA,0,#D89F1C,#3386FF,10,0,1,38,1,1453.3000000002794,37,1,1582.7999999998137,10,1,experiment,NA,NA,1,0.7,0.3,2,3,247,6,NA
fcp-trial,289,1999201,0.0-258.0-0.0,voc_e2,11738,"[{""event"":""fullscreenenter"",""trial"":1,""time"":21645}]",NA,NA,NA,NA,NA,1,#D8271C,#741CD8,10,10,1,38,1,3056.6999999997206,37,1,1247,10,1,experiment,NA,NA,2,0.5,0.5,4,5,248,6,NA
fcp-trial,290,2006339,0.0-259.0-0.0,voc_e2,11738,"[{""event"":""fullscreenenter"",""trial"":1,""time"":21645}]",NA,NA,NA,NA,NA,5,#FA92F8,#1CD855,10,0,1,40,0,3024.5999999996275,37,1,2608.1999999997206,10,1,experiment,NA,NA,0,0.9,0.1,0,1,249,6,NA
fcp-trial,291,2011634,0.0-260.0-0.0,voc_e2,11738,"[{""event"":""fullscreenenter"",""trial"":1,""time"":21645}]",NA,NA,NA,NA,NA,5,#741CD8,#D8271C,0,10,0,40,0,2956.5,37,1,830.8999999999069,0,0,experiment,NA,NA,2,0.5,0.5,5,4,250,6,NA
fcp-trial,292,2019138,0.0-261.0-0.0,voc_e2,11738,"[{""event"":""fullscreenenter"",""trial"":1,""time"":21645}]",NA,NA,NA,NA,NA,2,#D89F1C,#3386FF,10,10,1,38,1,3180.600000000093,37,1,2813.2000000001863,10,1,experiment,NA,NA,1,0.7,0.3,2,3,251,6,NA
fcp-trial,293,2028851,0.0-262.0-0.0,voc_e2,11738,"[{""event"":""fullscreenenter"",""trial"":1,""time"":21645}]",NA,NA,NA,NA,NA,2,#FA92F8,#1CD855,10,0,1,38,1,7230.5,37,1,971.1999999997206,10,1,experiment,NA,NA,0,0.9,0.1,0,1,252,6,NA
fcp-trial,294,2034593,0.0-263.0-0.0,voc_e2,11738,"[{""event"":""fullscreenenter"",""trial"":1,""time"":21645}]",NA,NA,NA,NA,NA,0,#D89F1C,#3386FF,0,0,1,38,1,2056.8000000002794,37,1,2175.2000000001863,0,1,experiment,NA,NA,1,0.7,0.3,2,3,253,6,NA
fcp-trial,295,2038499,0.0-264.0-0.0,voc_e2,11738,"[{""event"":""fullscreenenter"",""trial"":1,""time"":21645}]",NA,NA,NA,NA,NA,1,#D8271C,#741CD8,10,10,1,38,1,1393.1999999997206,37,1,998.6000000000931,10,1,experiment,NA,NA,2,0.5,0.5,4,5,254,6,NA
fcp-trial,296,2041971,0.0-265.0-0.0,voc_e2,11738,"[{""event"":""fullscreenenter"",""trial"":1,""time"":21645}]",NA,NA,NA,NA,NA,6,#741CD8,#D8271C,10,10,0,40,0,1181.1000000000931,37,1,783.3999999999069,10,0,experiment,NA,NA,2,0.5,0.5,5,4,255,6,NA
fcp-trial,297,2045764,0.0-266.0-0.0,voc_e2,11738,"[{""event"":""fullscreenenter"",""trial"":1,""time"":21645}]",NA,NA,NA,NA,NA,4,#FA92F8,#1CD855,10,0,1,40,0,1482,37,1,796.5,10,1,experiment,NA,NA,0,0.9,0.1,0,1,256,6,NA
fcp-trial,298,2049811,0.0-267.0-0.0,voc_e2,11738,"[{""event"":""fullscreenenter"",""trial"":1,""time"":21645}]",NA,NA,NA,NA,NA,5,#D89F1C,#3386FF,0,10,1,40,0,1802.6000000000931,39,0,734.8999999999069,10,0,experiment,NA,NA,1,0.7,0.3,2,3,257,6,NA
fcp-trial,299,2053873,0.0-268.0-0.0,voc_e2,11738,"[{""event"":""fullscreenenter"",""trial"":1,""time"":21645}]",NA,NA,NA,NA,NA,5,#D8271C,#741CD8,10,10,1,40,0,1823,39,0,733.5,10,0,experiment,NA,NA,2,0.5,0.5,4,5,258,6,NA
fcp-trial,300,2058002,0.0-269.0-0.0,voc_e2,11738,"[{""event"":""fullscreenenter"",""trial"":1,""time"":21645}]",NA,NA,NA,NA,NA,5,#1CD855,#FA92F8,0,0,0,40,0,1377.3999999999069,39,0,1247.1000000000931,0,1,experiment,NA,NA,0,0.1,0.9,1,0,259,6,NA
fcp-trial,301,2063346,0.0-270.0-0.0,voc_e2,11738,"[{""event"":""fullscreenenter"",""trial"":1,""time"":21645}]",NA,NA,NA,NA,NA,6,#3386FF,#D89F1C,0,10,0,40,0,2235.399999999907,39,0,1599.5,10,1,experiment,NA,NA,1,0.3,0.7,3,2,260,6,NA
fcp-trial,302,2078351,0.0-271.0-0.0,voc_e2,11738,"[{""event"":""fullscreenenter"",""trial"":1,""time"":21645}]",NA,NA,NA,NA,NA,0,#FA92F8,#1CD855,10,0,1,null,null,null,null,null,null,NA,0,experiment,NA,NA,0,0.9,0.1,0,1,261,6,NA
fcp-trial,303,2081299,0.0-272.0-0.0,voc_e2,11738,"[{""event"":""fullscreenenter"",""trial"":1,""time"":21645}]",NA,NA,NA,NA,NA,4,#D8271C,#741CD8,0,10,1,40,0,168.09999999962747,37,1,1264.1000000000931,0,1,experiment,NA,NA,2,0.5,0.5,4,5,262,6,NA
fcp-trial,304,2086675,0.0-273.0-0.0,voc_e2,11738,"[{""event"":""fullscreenenter"",""trial"":1,""time"":21645}]",NA,NA,NA,NA,NA,1,#FA92F8,#1CD855,10,0,1,38,1,2782.7000000001863,37,1,1088.2000000001863,10,1,experiment,NA,NA,0,0.9,0.1,0,1,263,6,NA
fcp-trial,305,2095186,0.0-274.0-0.0,voc_e2,11738,"[{""event"":""fullscreenenter"",""trial"":1,""time"":21645}]",NA,NA,NA,NA,NA,2,#FA92F8,#1CD855,10,0,1,38,1,4636.699999999721,37,1,2366,10,1,experiment,NA,NA,0,0.9,0.1,0,1,264,6,NA
fcp-trial,306,2106227,0.0-275.0-0.0,voc_e2,11738,"[{""event"":""fullscreenenter"",""trial"":1,""time"":21645}]",NA,NA,NA,NA,NA,1,#3386FF,#D89F1C,10,10,0,38,1,8093.800000000279,39,0,1439.6999999997206,10,1,experiment,NA,NA,1,0.3,0.7,3,2,265,6,NA
fcp-trial,307,2111272,0.0-276.0-0.0,voc_e2,11738,"[{""event"":""fullscreenenter"",""trial"":1,""time"":21645}]",NA,NA,NA,NA,NA,2,#741CD8,#D8271C,10,10,0,38,1,1465.5,39,0,2066.7000000001863,10,1,experiment,NA,NA,2,0.5,0.5,5,4,266,6,NA
fcp-trial,308,2123126,0.0-277.0-0.0,voc_e2,11738,"[{""event"":""fullscreenenter"",""trial"":1,""time"":21645}]",NA,NA,NA,NA,NA,0,#741CD8,#D8271C,10,10,0,38,1,2241.100000000093,39,0,8098.199999999721,10,1,experiment,NA,NA,2,0.5,0.5,5,4,267,6,NA
fcp-trial,309,2128133,0.0-278.0-0.0,voc_e2,11738,"[{""event"":""fullscreenenter"",""trial"":1,""time"":21645}]",NA,NA,NA,NA,NA,2,#D89F1C,#3386FF,10,0,1,38,1,1865.1000000000931,37,1,1630.7000000001863,10,1,experiment,NA,NA,1,0.7,0.3,2,3,268,6,NA
fcp-trial,310,2132883,0.0-279.0-0.0,voc_e2,11738,"[{""event"":""fullscreenenter"",""trial"":1,""time"":21645}]",NA,NA,NA,NA,NA,3,#FA92F8,#1CD855,10,10,1,38,1,1828.1000000000931,37,1,1402.3999999999069,10,1,experiment,NA,NA,0,0.9,0.1,0,1,269,6,NA
fcp-trial,311,2138483,0.0-280.0-0.0,voc_e2,11738,"[{""event"":""fullscreenenter"",""trial"":1,""time"":21645}]",NA,NA,NA,NA,NA,3,#D8271C,#741CD8,0,0,1,38,1,1731.4000000003725,37,1,2351.600000000093,0,1,experiment,NA,NA,2,0.5,0.5,4,5,270,6,NA
fcp-trial,312,2143285,0.0-281.0-0.0,voc_e2,11738,"[{""event"":""fullscreenenter"",""trial"":1,""time"":21645}]",NA,NA,NA,NA,NA,3,#D89F1C,#3386FF,0,0,1,38,1,1435.8000000002794,37,1,1855.1999999997206,0,1,experiment,NA,NA,1,0.7,0.3,2,3,271,7,NA
fcp-trial,313,2147156,0.0-282.0-0.0,voc_e2,11738,"[{""event"":""fullscreenenter"",""trial"":1,""time"":21645}]",NA,NA,NA,NA,NA,4,#D89F1C,#3386FF,10,0,1,40,0,1333.6999999997206,39,0,1022.3000000002794,0,0,experiment,NA,NA,1,0.7,0.3,2,3,272,7,NA
fcp-trial,314,2156101,0.0-283.0-0.0,voc_e2,11738,"[{""event"":""fullscreenenter"",""trial"":1,""time"":21645}]",NA,NA,NA,NA,NA,6,#FA92F8,#1CD855,0,0,1,40,0,6731.199999999721,39,0,702.7999999998137,0,0,experiment,NA,NA,0,0.9,0.1,0,1,273,7,NA
fcp-trial,315,2163351,0.0-284.0-0.0,voc_e2,11738,"[{""event"":""fullscreenenter"",""trial"":1,""time"":21645}]",NA,NA,NA,NA,NA,0,#D89F1C,#3386FF,10,0,1,38,1,4488.600000000093,37,1,1246.7000000001863,10,1,experiment,NA,NA,1,0.7,0.3,2,3,274,7,NA
fcp-trial,316,2167780,0.0-285.0-0.0,voc_e2,11738,"[{""event"":""fullscreenenter"",""trial"":1,""time"":21645}]",NA,NA,NA,NA,NA,3,#FA92F8,#1CD855,10,0,1,38,1,2349.8000000002794,37,1,557.7000000001863,10,1,experiment,NA,NA,0,0.9,0.1,0,1,275,7,NA
fcp-trial,317,2172309,0.0-286.0-0.0,voc_e2,11738,"[{""event"":""fullscreenenter"",""trial"":1,""time"":21645}]",NA,NA,NA,NA,NA,2,#741CD8,#D8271C,0,10,0,38,1,1812.4000000003725,39,0,1195.7999999998137,10,1,experiment,NA,NA,2,0.5,0.5,5,4,276,7,NA
fcp-trial,318,2176003,0.0-287.0-0.0,voc_e2,11738,"[{""event"":""fullscreenenter"",""trial"":1,""time"":21645}]",NA,NA,NA,NA,NA,6,#741CD8,#D8271C,10,10,0,40,0,1481.5,39,0,703,10,1,experiment,NA,NA,2,0.5,0.5,5,4,277,7,NA
fcp-trial,319,2179783,0.0-288.0-0.0,voc_e2,11738,"[{""event"":""fullscreenenter"",""trial"":1,""time"":21645}]",NA,NA,NA,NA,NA,4,#741CD8,#D8271C,10,0,0,40,0,1557.8000000002794,37,1,704.3000000002794,10,0,experiment,NA,NA,2,0.5,0.5,5,4,278,7,NA
fcp-trial,320,2183989,0.0-289.0-0.0,voc_e2,11738,"[{""event"":""fullscreenenter"",""trial"":1,""time"":21645}]",NA,NA,NA,NA,NA,4,#D89F1C,#3386FF,0,0,1,40,0,1862.1999999997206,39,0,831.0999999996275,0,0,experiment,NA,NA,1,0.7,0.3,2,3,279,7,NA
fcp-trial,321,2187828,0.0-290.0-0.0,voc_e2,11738,"[{""event"":""fullscreenenter"",""trial"":1,""time"":21645}]",NA,NA,NA,NA,NA,4,#FA92F8,#1CD855,10,10,1,40,0,1559.5,37,1,765.7999999998137,10,1,experiment,NA,NA,0,0.9,0.1,0,1,280,7,NA
fcp-trial,322,2191733,0.0-291.0-0.0,voc_e2,11738,"[{""event"":""fullscreenenter"",""trial"":1,""time"":21645}]",NA,NA,NA,NA,NA,3,#D8271C,#741CD8,0,0,1,38,1,1384,37,1,1005,0,1,experiment,NA,NA,2,0.5,0.5,4,5,281,7,NA
fcp-trial,323,2195157,0.0-292.0-0.0,voc_e2,11738,"[{""event"":""fullscreenenter"",""trial"":1,""time"":21645}]",NA,NA,NA,NA,NA,5,#1CD855,#FA92F8,0,10,0,40,0,1107,39,0,798.3999999999069,10,1,experiment,NA,NA,0,0.1,0.9,1,0,282,7,NA
fcp-trial,324,2199285,0.0-293.0-0.0,voc_e2,11738,"[{""event"":""fullscreenenter"",""trial"":1,""time"":21645}]",NA,NA,NA,NA,NA,3,#3386FF,#D89F1C,10,0,0,38,1,2089.600000000093,37,1,529,10,0,experiment,NA,NA,1,0.3,0.7,3,2,283,7,NA
fcp-trial,325,2203716,0.0-294.0-0.0,voc_e2,11738,"[{""event"":""fullscreenenter"",""trial"":1,""time"":21645}]",NA,NA,NA,NA,NA,6,#1CD855,#FA92F8,0,10,0,40,0,2252.5,39,0,671.5,10,1,experiment,NA,NA,0,0.1,0.9,1,0,284,7,NA
fcp-trial,326,2209029,0.0-295.0-0.0,voc_e2,11738,"[{""event"":""fullscreenenter"",""trial"":1,""time"":21645}]",NA,NA,NA,NA,NA,1,#D8271C,#741CD8,10,10,1,38,1,3153.0999999996275,37,1,640.1999999997206,10,1,experiment,NA,NA,2,0.5,0.5,4,5,285,7,NA
fcp-trial,327,2212501,0.0-296.0-0.0,voc_e2,11738,"[{""event"":""fullscreenenter"",""trial"":1,""time"":21645}]",NA,NA,NA,NA,NA,1,#FA92F8,#1CD855,10,0,1,38,1,1225.0999999996275,37,1,734.5,10,1,experiment,NA,NA,0,0.9,0.1,0,1,286,7,NA
fcp-trial,328,2216148,0.0-297.0-0.0,voc_e2,11738,"[{""event"":""fullscreenenter"",""trial"":1,""time"":21645}]",NA,NA,NA,NA,NA,6,#D89F1C,#3386FF,10,0,1,40,0,1434.7999999998137,39,0,701.2999999998137,0,0,experiment,NA,NA,1,0.7,0.3,2,3,287,7,NA
fcp-trial,329,2222001,0.0-298.0-0.0,voc_e2,11738,"[{""event"":""fullscreenenter"",""trial"":1,""time"":21645}]",NA,NA,NA,NA,NA,0,#FA92F8,#1CD855,10,0,1,38,1,3217.5,37,1,1118.8000000002794,10,1,experiment,NA,NA,0,0.9,0.1,0,1,288,7,NA
fcp-trial,330,2227538,0.0-299.0-0.0,voc_e2,11738,"[{""event"":""fullscreenenter"",""trial"":1,""time"":21645}]",NA,NA,NA,NA,NA,2,#3386FF,#D89F1C,0,10,0,38,1,3067.5,39,0,957.8999999999069,10,1,experiment,NA,NA,1,0.3,0.7,3,2,289,7,NA
fcp-trial,331,2233009,0.0-300.0-0.0,voc_e2,11738,"[{""event"":""fullscreenenter"",""trial"":1,""time"":21645}]",NA,NA,NA,NA,NA,5,#741CD8,#D8271C,10,10,0,40,0,3037.899999999907,39,0,922.8999999999069,10,1,experiment,NA,NA,2,0.5,0.5,5,4,290,7,NA
fcp-trial,332,2237683,0.0-301.0-0.0,voc_e2,11738,"[{""event"":""fullscreenenter"",""trial"":1,""time"":21645}]",NA,NA,NA,NA,NA,0,#741CD8,#D8271C,10,10,0,38,1,2001.3999999999069,39,0,1166.8999999999069,10,1,experiment,NA,NA,2,0.5,0.5,5,4,291,7,NA
fcp-trial,333,2241587,0.0-302.0-0.0,voc_e2,11738,"[{""event"":""fullscreenenter"",""trial"":1,""time"":21645}]",NA,NA,NA,NA,NA,5,#D89F1C,#3386FF,0,0,1,40,0,1542.8000000002794,39,0,844.6000000000931,0,0,experiment,NA,NA,1,0.7,0.3,2,3,292,7,NA
fcp-trial,334,2245539,0.0-303.0-0.0,voc_e2,11738,"[{""event"":""fullscreenenter"",""trial"":1,""time"":21645}]",NA,NA,NA,NA,NA,2,#1CD855,#FA92F8,0,10,0,38,1,1947.7000000001863,37,1,496,0,0,experiment,NA,NA,0,0.1,0.9,1,0,293,7,NA
fcp-trial,335,2249475,0.0-304.0-0.0,voc_e2,11738,"[{""event"":""fullscreenenter"",""trial"":1,""time"":21645}]",NA,NA,NA,NA,NA,1,#D89F1C,#3386FF,10,0,1,38,1,1769.8999999999069,37,1,653.8000000002794,10,1,experiment,NA,NA,1,0.7,0.3,2,3,294,7,NA
fcp-trial,336,2255251,0.0-305.0-0.0,voc_e2,11738,"[{""event"":""fullscreenenter"",""trial"":1,""time"":21645}]",NA,NA,NA,NA,NA,4,#FA92F8,#1CD855,0,10,1,40,0,1292.5,37,1,2975,0,1,experiment,NA,NA,0,0.9,0.1,0,1,295,7,NA
fcp-trial,337,2264403,0.0-306.0-0.0,voc_e2,11738,"[{""event"":""fullscreenenter"",""trial"":1,""time"":21645}]",NA,NA,NA,NA,NA,0,#3386FF,#D89F1C,10,10,0,38,1,6257.800000000279,37,1,1375.5,10,0,experiment,NA,NA,1,0.3,0.7,3,2,296,7,NA
fcp-trial,338,2268084,0.0-307.0-0.0,voc_e2,11738,"[{""event"":""fullscreenenter"",""trial"":1,""time"":21645}]",NA,NA,NA,NA,NA,6,#741CD8,#D8271C,0,10,0,40,0,1390,37,1,778.1999999997206,0,0,experiment,NA,NA,2,0.5,0.5,5,4,297,7,NA
fcp-trial,339,2277383,0.0-308.0-0.0,voc_e2,11738,"[{""event"":""fullscreenenter"",""trial"":1,""time"":21645}]",NA,NA,NA,NA,NA,3,#D8271C,#741CD8,10,0,1,38,1,3344.899999999907,37,1,4431.899999999907,10,1,experiment,NA,NA,2,0.5,0.5,4,5,298,7,NA
fcp-trial,340,2289731,0.0-309.0-0.0,voc_e2,11738,"[{""event"":""fullscreenenter"",""trial"":1,""time"":21645}]",NA,NA,NA,NA,NA,3,#3386FF,#D89F1C,0,10,0,38,1,3523.100000000093,39,0,7311.100000000093,10,1,experiment,NA,NA,1,0.3,0.7,3,2,299,7,NA
fcp-trial,341,2294583,0.0-310.0-0.0,voc_e2,11738,"[{""event"":""fullscreenenter"",""trial"":1,""time"":21645}]",NA,NA,NA,NA,NA,6,#FA92F8,#1CD855,10,10,1,40,0,2283.7000000001863,39,0,1056.8000000002794,10,0,experiment,NA,NA,0,0.9,0.1,0,1,300,7,NA
fcp-trial,342,2298562,0.0-311.0-0.0,voc_e2,11738,"[{""event"":""fullscreenenter"",""trial"":1,""time"":21645}]",NA,NA,NA,NA,NA,2,#741CD8,#D8271C,10,10,0,38,1,1253.5,39,0,1211.8999999999069,10,1,experiment,NA,NA,2,0.5,0.5,5,4,301,7,NA
fcp-trial,343,2302040,0.0-312.0-0.0,voc_e2,11738,"[{""event"":""fullscreenenter"",""trial"":1,""time"":21645}]",NA,NA,NA,NA,NA,6,#3386FF,#D89F1C,0,0,0,40,0,1292.7000000001863,39,0,672.6999999997206,0,1,experiment,NA,NA,1,0.3,0.7,3,2,302,7,NA
fcp-trial,344,2310290,0.0-313.0-0.0,voc_e2,11738,"[{""event"":""fullscreenenter"",""trial"":1,""time"":21645}]",NA,NA,NA,NA,NA,2,#D89F1C,#3386FF,10,0,1,38,1,1604.5,37,1,5132.800000000279,10,1,experiment,NA,NA,1,0.7,0.3,2,3,303,7,NA
fcp-trial,345,2316868,0.0-314.0-0.0,voc_e2,11738,"[{""event"":""fullscreenenter"",""trial"":1,""time"":21645}]",NA,NA,NA,NA,NA,5,#D8271C,#741CD8,0,0,1,40,0,3641,39,0,1423.6999999997206,0,0,experiment,NA,NA,2,0.5,0.5,4,5,304,7,NA
fcp-trial,346,2321458,0.0-315.0-0.0,voc_e2,11738,"[{""event"":""fullscreenenter"",""trial"":1,""time"":21645}]",NA,NA,NA,NA,NA,2,#1CD855,#FA92F8,0,10,0,38,1,2062.7000000001863,39,0,1017.3000000002794,10,1,experiment,NA,NA,0,0.1,0.9,1,0,305,7,NA
fcp-trial,347,2328117,0.0-316.0-0.0,voc_e2,11738,"[{""event"":""fullscreenenter"",""trial"":1,""time"":21645}]",NA,NA,NA,NA,NA,0,#1CD855,#FA92F8,0,10,0,38,1,4193,39,0,958.3000000002794,10,1,experiment,NA,NA,0,0.1,0.9,1,0,306,7,NA
fcp-trial,348,2333092,0.0-317.0-0.0,voc_e2,11738,"[{""event"":""fullscreenenter"",""trial"":1,""time"":21645}]",NA,NA,NA,NA,NA,4,#3386FF,#D89F1C,0,10,0,40,0,2807.100000000093,39,0,652.3999999999069,10,1,experiment,NA,NA,1,0.3,0.7,3,2,307,7,NA
fcp-trial,349,2337715,0.0-318.0-0.0,voc_e2,11738,"[{""event"":""fullscreenenter"",""trial"":1,""time"":21645}]",NA,NA,NA,NA,NA,0,#741CD8,#D8271C,0,0,0,38,1,2006.8000000002794,39,0,1101.8000000002794,0,1,experiment,NA,NA,2,0.5,0.5,5,4,308,7,NA
fcp-trial,350,2341410,0.0-319.0-0.0,voc_e2,11738,"[{""event"":""fullscreenenter"",""trial"":1,""time"":21645}]",NA,NA,NA,NA,NA,3,#FA92F8,#1CD855,10,0,1,38,1,1478.6999999997206,37,1,699.7000000001863,10,1,experiment,NA,NA,0,0.9,0.1,0,1,309,7,NA
fcp-trial,351,2348004,0.0-320.0-0.0,voc_e2,11738,"[{""event"":""fullscreenenter"",""trial"":1,""time"":21645}]",NA,NA,NA,NA,NA,1,#1CD855,#FA92F8,0,10,0,38,1,4365.700000000186,39,0,715.5999999996275,10,1,experiment,NA,NA,0,0.1,0.9,1,0,310,7,NA
fcp-trial,352,2351603,0.0-321.0-0.0,voc_e2,11738,"[{""event"":""fullscreenenter"",""trial"":1,""time"":21645}]",NA,NA,NA,NA,NA,5,#FA92F8,#1CD855,0,0,1,40,0,1482.3000000002794,39,0,606.8999999999069,0,0,experiment,NA,NA,0,0.9,0.1,0,1,311,7,NA
fcp-trial,353,2355411,0.0-322.0-0.0,voc_e2,11738,"[{""event"":""fullscreenenter"",""trial"":1,""time"":21645}]",NA,NA,NA,NA,NA,5,#D89F1C,#3386FF,10,10,1,38,1,1452.6999999997206,37,1,846.1999999997206,10,1,experiment,NA,NA,1,0.7,0.3,2,3,312,7,NA
fcp-trial,354,2359299,0.0-323.0-0.0,voc_e2,11738,"[{""event"":""fullscreenenter"",""trial"":1,""time"":21645}]",NA,NA,NA,NA,NA,4,#D8271C,#741CD8,10,0,1,40,0,1565.2999999998137,37,1,815.5999999996275,10,1,experiment,NA,NA,2,0.5,0.5,4,5,313,7,NA
fcp-trial,355,2374306,0.0-324.0-0.0,voc_e2,11738,"[{""event"":""fullscreenenter"",""trial"":1,""time"":21645}]",NA,NA,NA,NA,NA,1,#D8271C,#741CD8,10,0,1,null,null,null,null,null,null,NA,0,experiment,NA,NA,2,0.5,0.5,4,5,314,7,NA
fcp-trial,356,2377508,0.0-325.0-0.0,voc_e2,11738,"[{""event"":""fullscreenenter"",""trial"":1,""time"":21645}]",NA,NA,NA,NA,NA,1,#3386FF,#D89F1C,0,10,0,38,1,64.60000000009313,39,0,1628.5,10,1,experiment,NA,NA,1,0.3,0.7,3,2,315,7,NA
audio-instructions,357,2391413,0.0-326.0,voc_e2,11738,"[{""event"":""fullscreenenter"",""trial"":1,""time"":21645}]",NA,7494.799999999814,static/audio/finished.wav,NA,0,NA,NA,NA,NA,NA,NA,NA,NA,NA,NA,NA,NA,NA,NA,NA,NA,NA,NA,NA,NA,NA,NA,NA,NA,NA
audio-instructions,358,2410301,0.0-327.0-0.0,voc_e2,11738,"[{""event"":""fullscreenenter"",""trial"":1,""time"":21645}]",NA,8054.0999999996275,static/audio/explicit1.wav,NA,0,NA,NA,NA,NA,NA,NA,NA,NA,NA,NA,NA,NA,NA,NA,NA,NA,NA,NA,NA,NA,NA,NA,NA,NA,NA
audio-instructions,359,2418534,0.0-327.0-1.0,voc_e2,11738,"[{""event"":""fullscreenenter"",""trial"":1,""time"":21645}]",NA,635.6000000000931,static/audio/explicit2.wav,NA,0,NA,NA,NA,NA,NA,NA,NA,NA,NA,NA,NA,NA,NA,NA,NA,NA,NA,NA,NA,NA,NA,NA,NA,NA,NA
image-slider-response,360,2428621,0.0-328.0,voc_e2,11738,"[{""event"":""fullscreenenter"",""trial"":1,""time"":21645}]",NA,10085.700000000186,static/img/machines/machine6.png,NA,NA,NA,NA,NA,NA,NA,NA,NA,NA,NA,NA,NA,NA,NA,NA,explicit,NA,NA,NA,NA,NA,NA,NA,NA,NA,4
image-slider-response,361,2435981,0.0-329.0,voc_e2,11738,"[{""event"":""fullscreenenter"",""trial"":1,""time"":21645}]",NA,7358.299999999814,static/img/machines/machine4.png,NA,NA,NA,NA,NA,NA,NA,NA,NA,NA,NA,NA,NA,NA,NA,NA,explicit,NA,NA,NA,NA,NA,NA,NA,NA,NA,7
image-slider-response,362,2446957,0.0-330.0,voc_e2,11738,"[{""event"":""fullscreenenter"",""trial"":1,""time"":21645}]",NA,10974.399999999909,static/img/machines/machine2.png,NA,NA,NA,NA,NA,NA,NA,NA,NA,NA,NA,NA,NA,NA,NA,NA,explicit,NA,NA,NA,NA,NA,NA,NA,NA,NA,3
image-slider-response,363,2453277,0.0-331.0,voc_e2,11738,"[{""event"":""fullscreenenter"",""trial"":1,""time"":21645}]",NA,6318.800000000279,static/img/machines/machine3.png,NA,NA,NA,NA,NA,NA,NA,NA,NA,NA,NA,NA,NA,NA,NA,NA,explicit,NA,NA,NA,NA,NA,NA,NA,NA,NA,5
image-slider-response,364,2459085,0.0-332.0,voc_e2,11738,"[{""event"":""fullscreenenter"",""trial"":1,""time"":21645}]",NA,5806.5,static/img/machines/machine5.png,NA,NA,NA,NA,NA,NA,NA,NA,NA,NA,NA,NA,NA,NA,NA,NA,explicit,NA,NA,NA,NA,NA,NA,NA,NA,NA,8
image-slider-response,365,2465013,0.0-333.0,voc_e2,11738,"[{""event"":""fullscreenenter"",""trial"":1,""time"":21645}]",NA,5926.5,static/img/machines/machine1.png,NA,NA,NA,NA,NA,NA,NA,NA,NA,NA,NA,NA,NA,NA,NA,NA,explicit,NA,NA,NA,NA,NA,NA,NA,NA,NA,6
