trial_type,trial_index,time_elapsed,internal_node_id,task_version,subject_id,interactions,success,rt,stimulus,key_press,button_pressed,offer,arcade_color_L,arcade_color_R,arcade_outcome_L,arcade_outcome_R,correct,stage_1_key,stage_1_choice,stage_1_rt,stage_2_key,stage_2_choice,stage_2_rt,stage_3_outcome,accuracy,phase,responses,num_errors,context,reward_prob_L,reward_prob_R,arcade_id_L,arcade_id_R,trial,block,response
pavlovia,0,347,0.0-0.0,voc_e2,11743,[],NA,NA,NA,NA,NA,NA,NA,NA,NA,NA,NA,NA,NA,NA,NA,NA,NA,NA,NA,NA,NA,NA,NA,NA,NA,NA,NA,NA,NA,NA
fullscreen,1,4714,0.0-1.0,voc_e2,11743,"[{""event"":""fullscreenenter"",""trial"":1,""time"":3782}]",TRUE,NA,NA,NA,NA,NA,NA,NA,NA,NA,NA,NA,NA,NA,NA,NA,NA,NA,NA,NA,NA,NA,NA,NA,NA,NA,NA,NA,NA,NA
audio-keyboard-response,2,8627,0.0-2.0,voc_e2,11743,"[{""event"":""fullscreenenter"",""trial"":1,""time"":3782}]",NA,3553,static/audio/beep_loop.wav,32,NA,NA,NA,NA,NA,NA,NA,NA,NA,NA,NA,NA,NA,NA,NA,NA,NA,NA,NA,NA,NA,NA,NA,NA,NA,NA
audio-test,3,11427,0.0-3.0,voc_e2,11743,"[{""event"":""fullscreenenter"",""trial"":1,""time"":3782}]",NA,NA,static/audio/turtle.wav,NA,3,NA,NA,NA,NA,NA,NA,NA,NA,NA,NA,NA,NA,NA,NA,NA,NA,NA,NA,NA,NA,NA,NA,NA,NA,NA
audio-test,4,13934,0.0-4.0,voc_e2,11743,"[{""event"":""fullscreenenter"",""trial"":1,""time"":3782}]",NA,NA,static/audio/shark.wav,NA,2,NA,NA,NA,NA,NA,NA,NA,NA,NA,NA,NA,NA,NA,NA,NA,NA,NA,NA,NA,NA,NA,NA,NA,NA,NA
audio-instructions,5,28660,0.0-5.0-0.0,voc_e2,11743,"[{""event"":""fullscreenenter"",""trial"":1,""time"":3782}]",NA,8931.59999999404,static/audio/instructions1.wav,NA,0,NA,NA,NA,NA,NA,NA,NA,NA,NA,NA,NA,NA,NA,NA,NA,NA,NA,NA,NA,NA,NA,NA,NA,NA,NA
audio-instructions,6,36931,0.0-5.0-1.0,voc_e2,11743,"[{""event"":""fullscreenenter"",""trial"":1,""time"":3782}]",NA,1524.0999999940395,static/audio/instructions2.wav,NA,0,NA,NA,NA,NA,NA,NA,NA,NA,NA,NA,NA,NA,NA,NA,NA,NA,NA,NA,NA,NA,NA,NA,NA,NA,NA
audio-instructions,7,44081,0.0-5.0-2.0,voc_e2,11743,"[{""event"":""fullscreenenter"",""trial"":1,""time"":3782}]",NA,1344.7999999821186,static/audio/instructions3.wav,NA,0,NA,NA,NA,NA,NA,NA,NA,NA,NA,NA,NA,NA,NA,NA,NA,NA,NA,NA,NA,NA,NA,NA,NA,NA,NA
audio-instructions,8,58822,0.0-5.0-3.0,voc_e2,11743,"[{""event"":""fullscreenenter"",""trial"":1,""time"":3782}]",NA,1508.2000000178814,static/audio/instructions4.wav,NA,0,NA,NA,NA,NA,NA,NA,NA,NA,NA,NA,NA,NA,NA,NA,NA,NA,NA,NA,NA,NA,NA,NA,NA,NA,NA
audio-instructions,9,70597,0.0-5.0-4.0,voc_e2,11743,"[{""event"":""fullscreenenter"",""trial"":1,""time"":3782}]",NA,2384.4000000059605,static/audio/instructions5.wav,NA,0,NA,NA,NA,NA,NA,NA,NA,NA,NA,NA,NA,NA,NA,NA,NA,NA,NA,NA,NA,NA,NA,NA,NA,NA,NA
fcp-practice,10,75131,0.0-5.0-5.0-0.0,voc_e2,11743,"[{""event"":""fullscreenenter"",""trial"":1,""time"":3782}]",NA,NA,NA,NA,NA,NA,#EDC948,#46d3c8,10,0,1,null,null,null,37,1,2870.300000011921,10,1,practice,NA,NA,NA,NA,NA,NA,NA,NA,NA,NA
fcp-practice,11,78469,0.0-5.0-5.0-1.0,voc_e2,11743,"[{""event"":""fullscreenenter"",""trial"":1,""time"":3782}]",NA,NA,NA,NA,NA,NA,#EDC948,#46d3c8,10,0,1,null,null,null,37,1,1832,10,1,practice,NA,NA,NA,NA,NA,NA,NA,NA,NA,NA
fcp-practice,12,80679,0.0-5.0-5.0-2.0,voc_e2,11743,"[{""event"":""fullscreenenter"",""trial"":1,""time"":3782}]",NA,NA,NA,NA,NA,NA,#EDC948,#46d3c8,0,10,1,null,null,null,37,1,700.0999999940395,0,1,practice,NA,NA,NA,NA,NA,NA,NA,NA,NA,NA
fcp-practice,13,82836,0.0-5.0-5.0-3.0,voc_e2,11743,"[{""event"":""fullscreenenter"",""trial"":1,""time"":3782}]",NA,NA,NA,NA,NA,NA,#EDC948,#46d3c8,10,0,1,null,null,null,37,1,649.8999999761581,10,1,practice,NA,NA,NA,NA,NA,NA,NA,NA,NA,NA
fcp-practice,14,84774,0.0-5.0-5.0-4.0,voc_e2,11743,"[{""event"":""fullscreenenter"",""trial"":1,""time"":3782}]",NA,NA,NA,NA,NA,NA,#EDC948,#46d3c8,10,0,1,null,null,null,37,1,433.7999999821186,10,1,practice,NA,NA,NA,NA,NA,NA,NA,NA,NA,NA
audio-instructions,15,105698,0.0-5.0-6.0,voc_e2,11743,"[{""event"":""fullscreenenter"",""trial"":1,""time"":3782}]",NA,2918.300000011921,static/audio/instructions6.wav,NA,0,NA,NA,NA,NA,NA,NA,NA,NA,NA,NA,NA,NA,NA,NA,NA,NA,NA,NA,NA,NA,NA,NA,NA,NA,NA
audio-instructions,16,127708,0.0-5.0-7.0,voc_e2,11743,"[{""event"":""fullscreenenter"",""trial"":1,""time"":3782}]",NA,2805.199999988079,static/audio/instructions7.wav,NA,0,NA,NA,NA,NA,NA,NA,NA,NA,NA,NA,NA,NA,NA,NA,NA,NA,NA,NA,NA,NA,NA,NA,NA,NA,NA
audio-instructions,17,138269,0.0-5.0-8.0,voc_e2,11743,"[{""event"":""fullscreenenter"",""trial"":1,""time"":3782}]",NA,1088.199999988079,static/audio/instructions8.wav,NA,0,NA,NA,NA,NA,NA,NA,NA,NA,NA,NA,NA,NA,NA,NA,NA,NA,NA,NA,NA,NA,NA,NA,NA,NA,NA
fcp-comprehension,18,152460,0.0-5.0-9.0,voc_e2,11743,"[{""event"":""fullscreenenter"",""trial"":1,""time"":3782}]",NA,14176.90000000596,NA,NA,NA,NA,NA,NA,NA,NA,NA,NA,NA,NA,NA,NA,NA,NA,NA,NA,"true,true",0,NA,NA,NA,NA,NA,NA,NA,NA
audio-instructions,19,162753,0.0-6.0-0.0,voc_e2,11743,"[{""event"":""fullscreenenter"",""trial"":1,""time"":3782}]",NA,4736.9000000059605,static/audio/instructions9.wav,NA,0,NA,NA,NA,NA,NA,NA,NA,NA,NA,NA,NA,NA,NA,NA,NA,NA,NA,NA,NA,NA,NA,NA,NA,NA,NA
audio-instructions,20,176573,0.0-6.0-1.0,voc_e2,11743,"[{""event"":""fullscreenenter"",""trial"":1,""time"":3782}]",NA,1698.9000000059605,static/audio/instructions10.wav,NA,0,NA,NA,NA,NA,NA,NA,NA,NA,NA,NA,NA,NA,NA,NA,NA,NA,NA,NA,NA,NA,NA,NA,NA,NA,NA
fcp-trial,21,189664,0.0-6.0-2.0,voc_e2,11743,"[{""event"":""fullscreenenter"",""trial"":1,""time"":3782}]",NA,NA,NA,NA,NA,0,#EDC948,#46d3c8,10,10,1,38,1,8754,39,0,2808.5999999940395,10,0,practice,NA,NA,NA,NA,NA,NA,NA,NA,NA,NA
audio-instructions,22,203195,0.0-6.0-3.0,voc_e2,11743,"[{""event"":""fullscreenenter"",""trial"":1,""time"":3782}]",NA,2516.5,static/audio/instructions11.wav,NA,0,NA,NA,NA,NA,NA,NA,NA,NA,NA,NA,NA,NA,NA,NA,NA,NA,NA,NA,NA,NA,NA,NA,NA,NA,NA
fcp-trial,23,214070,0.0-6.0-4.0,voc_e2,11743,"[{""event"":""fullscreenenter"",""trial"":1,""time"":3782}]",NA,NA,NA,NA,NA,6,#EDC948,#46d3c8,10,10,1,40,0,7573.199999988079,39,0,1789,10,0,practice,NA,NA,NA,NA,NA,NA,NA,NA,NA,NA
audio-instructions,24,234596,0.0-6.0-5.0,voc_e2,11743,"[{""event"":""fullscreenenter"",""trial"":1,""time"":3782}]",NA,1833.0999999940395,static/audio/instructions12.wav,NA,0,NA,NA,NA,NA,NA,NA,NA,NA,NA,NA,NA,NA,NA,NA,NA,NA,NA,NA,NA,NA,NA,NA,NA,NA,NA
audio-instructions,25,243220,0.0-6.0-6.0,voc_e2,11743,"[{""event"":""fullscreenenter"",""trial"":1,""time"":3782}]",NA,1023.1999999880792,static/audio/instructions13.wav,NA,0,NA,NA,NA,NA,NA,NA,NA,NA,NA,NA,NA,NA,NA,NA,NA,NA,NA,NA,NA,NA,NA,NA,NA,NA,NA
audio-instructions,26,252963,0.0-6.0-7.0,voc_e2,11743,"[{""event"":""fullscreenenter"",""trial"":1,""time"":3782}]",NA,1291.899999976158,static/audio/instructions14.wav,NA,0,NA,NA,NA,NA,NA,NA,NA,NA,NA,NA,NA,NA,NA,NA,NA,NA,NA,NA,NA,NA,NA,NA,NA,NA,NA
audio-instructions,27,261001,0.0-7.0-0.0,voc_e2,11743,"[{""event"":""fullscreenenter"",""trial"":1,""time"":3782}]",NA,1122.0999999940395,static/audio/instructions15.wav,NA,0,NA,NA,NA,NA,NA,NA,NA,NA,NA,NA,NA,NA,NA,NA,NA,NA,NA,NA,NA,NA,NA,NA,NA,NA,NA
audio-instructions,28,270391,0.0-7.0-1.0,voc_e2,11743,"[{""event"":""fullscreenenter"",""trial"":1,""time"":3782}]",NA,2565.5,static/audio/instructions16.wav,NA,0,NA,NA,NA,NA,NA,NA,NA,NA,NA,NA,NA,NA,NA,NA,NA,NA,NA,NA,NA,NA,NA,NA,NA,NA,NA
audio-instructions,29,280136,0.0-7.0-2.0,voc_e2,11743,"[{""event"":""fullscreenenter"",""trial"":1,""time"":3782}]",NA,2063.7999999821186,static/audio/instructions17.wav,NA,0,NA,NA,NA,NA,NA,NA,NA,NA,NA,NA,NA,NA,NA,NA,NA,NA,NA,NA,NA,NA,NA,NA,NA,NA,NA
audio-instructions,30,289729,0.0-7.0-3.0,voc_e2,11743,"[{""event"":""fullscreenenter"",""trial"":1,""time"":3782}]",NA,1828,static/audio/instructions18.wav,NA,0,NA,NA,NA,NA,NA,NA,NA,NA,NA,NA,NA,NA,NA,NA,NA,NA,NA,NA,NA,NA,NA,NA,NA,NA,NA
audio-instructions,31,298619,0.0-7.0-4.0,voc_e2,11743,"[{""event"":""fullscreenenter"",""trial"":1,""time"":3782}]",NA,2144.4000000059605,static/audio/instructions19.wav,NA,0,NA,NA,NA,NA,NA,NA,NA,NA,NA,NA,NA,NA,NA,NA,NA,NA,NA,NA,NA,NA,NA,NA,NA,NA,NA
fcp-comprehension,32,326345,0.0-7.0-5.0,voc_e2,11743,"[{""event"":""fullscreenenter"",""trial"":1,""time"":3782}]",NA,27723.59999999404,NA,NA,NA,NA,NA,NA,NA,NA,NA,NA,NA,NA,NA,NA,NA,NA,NA,NA,"false,false,false,true",0,NA,NA,NA,NA,NA,NA,NA,NA
audio-instructions,33,337924,0.0-8.0,voc_e2,11743,"[{""event"":""fullscreenenter"",""trial"":1,""time"":3782}]",NA,2339.4000000059605,static/audio/ready.wav,NA,0,NA,NA,NA,NA,NA,NA,NA,NA,NA,NA,NA,NA,NA,NA,NA,NA,NA,NA,NA,NA,NA,NA,NA,NA,NA
fcp-trial,34,346947,0.0-9.0-0.0,voc_e2,11743,"[{""event"":""fullscreenenter"",""trial"":1,""time"":3782}]",NA,NA,NA,NA,NA,4,#D89F1C,#3386FF,0,0,1,38,1,6017.199999988079,37,1,1491,0,1,experiment,NA,NA,1,0.7,0.3,2,3,1,1,NA
fcp-trial,35,354277,0.0-10.0-0.0,voc_e2,11743,"[{""event"":""fullscreenenter"",""trial"":1,""time"":3782}]",NA,NA,NA,NA,NA,2,#FA92F8,#1CD855,10,0,1,40,0,4861,39,0,958.8000000119209,0,0,experiment,NA,NA,0,0.9,0.1,0,1,2,1,NA
fcp-trial,36,361787,0.0-11.0-0.0,voc_e2,11743,"[{""event"":""fullscreenenter"",""trial"":1,""time"":3782}]",NA,NA,NA,NA,NA,0,#D8271C,#741CD8,0,10,1,38,1,3845.699999988079,37,1,2150.5,0,1,experiment,NA,NA,2,0.5,0.5,4,5,3,1,NA
fcp-trial,37,367788,0.0-12.0-0.0,voc_e2,11743,"[{""event"":""fullscreenenter"",""trial"":1,""time"":3782}]",NA,NA,NA,NA,NA,6,#741CD8,#D8271C,0,10,0,40,0,2787,37,1,1705.4000000059605,0,0,experiment,NA,NA,2,0.5,0.5,5,4,4,1,NA
fcp-trial,38,374872,0.0-13.0-0.0,voc_e2,11743,"[{""event"":""fullscreenenter"",""trial"":1,""time"":3782}]",NA,NA,NA,NA,NA,2,#3386FF,#D89F1C,10,0,0,38,1,5143.100000023842,39,0,435.90000000596046,0,1,experiment,NA,NA,1,0.3,0.7,3,2,5,1,NA
fcp-trial,39,379321,0.0-14.0-0.0,voc_e2,11743,"[{""event"":""fullscreenenter"",""trial"":1,""time"":3782}]",NA,NA,NA,NA,NA,3,#FA92F8,#1CD855,10,0,1,40,0,1735.199999988079,37,1,1207.4000000059605,10,1,experiment,NA,NA,0,0.9,0.1,0,1,6,1,NA
fcp-trial,40,385352,0.0-15.0-0.0,voc_e2,11743,"[{""event"":""fullscreenenter"",""trial"":1,""time"":3782}]",NA,NA,NA,NA,NA,1,#D8271C,#741CD8,0,0,1,38,1,3937.5,39,0,584.2000000178814,0,0,experiment,NA,NA,2,0.5,0.5,4,5,7,1,NA
fcp-trial,41,389326,0.0-16.0-0.0,voc_e2,11743,"[{""event"":""fullscreenenter"",""trial"":1,""time"":3782}]",NA,NA,NA,NA,NA,3,#D8271C,#741CD8,0,0,1,40,0,1651.2000000178814,37,1,813.1000000238419,0,1,experiment,NA,NA,2,0.5,0.5,4,5,8,1,NA
fcp-trial,42,394543,0.0-17.0-0.0,voc_e2,11743,"[{""event"":""fullscreenenter"",""trial"":1,""time"":3782}]",NA,NA,NA,NA,NA,3,#3386FF,#D89F1C,10,10,0,40,0,2721.699999988079,39,0,986.5999999940395,10,1,experiment,NA,NA,1,0.3,0.7,3,2,9,1,NA
fcp-trial,43,399069,0.0-18.0-0.0,voc_e2,11743,"[{""event"":""fullscreenenter"",""trial"":1,""time"":3782}]",NA,NA,NA,NA,NA,5,#741CD8,#D8271C,10,0,0,40,0,2126.399999976158,39,0,892.5999999940395,0,1,experiment,NA,NA,2,0.5,0.5,5,4,10,1,NA
fcp-trial,44,404046,0.0-19.0-0.0,voc_e2,11743,"[{""event"":""fullscreenenter"",""trial"":1,""time"":3782}]",NA,NA,NA,NA,NA,6,#FA92F8,#1CD855,10,0,1,40,0,2239.699999988079,37,1,1225.9000000059605,10,1,experiment,NA,NA,0,0.9,0.1,0,1,11,1,NA
fcp-trial,45,419054,0.0-20.0-0.0,voc_e2,11743,"[{""event"":""fullscreenenter"",""trial"":1,""time"":3782}]",NA,NA,NA,NA,NA,5,#3386FF,#D89F1C,10,0,0,null,null,null,null,null,null,NA,0,experiment,NA,NA,1,0.3,0.7,3,2,12,1,NA
fcp-trial,46,424307,0.0-21.0-0.0,voc_e2,11743,"[{""event"":""fullscreenenter"",""trial"":1,""time"":3782}]",NA,NA,NA,NA,NA,1,#FA92F8,#1CD855,10,0,1,38,1,2713.5,37,1,1035.5,10,1,experiment,NA,NA,0,0.9,0.1,0,1,13,1,NA
fcp-trial,47,430585,0.0-22.0-0.0,voc_e2,11743,"[{""event"":""fullscreenenter"",""trial"":1,""time"":3782}]",NA,NA,NA,NA,NA,1,#3386FF,#D89F1C,10,0,0,40,0,2601.5,37,1,2170.600000023842,10,0,experiment,NA,NA,1,0.3,0.7,3,2,14,1,NA
fcp-trial,48,435352,0.0-23.0-0.0,voc_e2,11743,"[{""event"":""fullscreenenter"",""trial"":1,""time"":3782}]",NA,NA,NA,NA,NA,2,#D8271C,#741CD8,10,10,1,38,1,2168.4000000059605,39,0,1090.2000000178814,10,0,experiment,NA,NA,2,0.5,0.5,4,5,15,1,NA
fcp-trial,49,440122,0.0-24.0-0.0,voc_e2,11743,"[{""event"":""fullscreenenter"",""trial"":1,""time"":3782}]",NA,NA,NA,NA,NA,5,#1CD855,#FA92F8,0,10,0,40,0,2459.2000000178814,37,1,801,0,0,experiment,NA,NA,0,0.1,0.9,1,0,16,1,NA
fcp-trial,50,444455,0.0-25.0-0.0,voc_e2,11743,"[{""event"":""fullscreenenter"",""trial"":1,""time"":3782}]",NA,NA,NA,NA,NA,0,#FA92F8,#1CD855,10,0,1,38,1,2344.800000011921,37,1,481.09999999403954,10,1,experiment,NA,NA,0,0.9,0.1,0,1,17,1,NA
fcp-trial,51,449475,0.0-26.0-0.0,voc_e2,11743,"[{""event"":""fullscreenenter"",""trial"":1,""time"":3782}]",NA,NA,NA,NA,NA,4,#D8271C,#741CD8,10,10,1,40,0,2890.699999988079,39,0,618.5,10,0,experiment,NA,NA,2,0.5,0.5,4,5,18,1,NA
fcp-trial,52,453577,0.0-27.0-0.0,voc_e2,11743,"[{""event"":""fullscreenenter"",""trial"":1,""time"":3782}]",NA,NA,NA,NA,NA,6,#D89F1C,#3386FF,10,10,1,40,0,2002.9000000059605,37,1,591.2000000178814,10,1,experiment,NA,NA,1,0.7,0.3,2,3,19,1,NA
fcp-trial,53,457524,0.0-28.0-0.0,voc_e2,11743,"[{""event"":""fullscreenenter"",""trial"":1,""time"":3782}]",NA,NA,NA,NA,NA,4,#1CD855,#FA92F8,10,0,0,40,0,1375.300000011921,37,1,1058,10,0,experiment,NA,NA,0,0.1,0.9,1,0,20,1,NA
fcp-trial,54,462761,0.0-29.0-0.0,voc_e2,11743,"[{""event"":""fullscreenenter"",""trial"":1,""time"":3782}]",NA,NA,NA,NA,NA,0,#3386FF,#D89F1C,0,10,0,38,1,3125.9000000059605,39,0,603.0999999940395,10,1,experiment,NA,NA,1,0.3,0.7,3,2,21,1,NA
fcp-trial,55,467191,0.0-30.0-0.0,voc_e2,11743,"[{""event"":""fullscreenenter"",""trial"":1,""time"":3782}]",NA,NA,NA,NA,NA,4,#3386FF,#D89F1C,0,10,0,38,1,2353.4000000059605,37,1,569.0999999940395,0,0,experiment,NA,NA,1,0.3,0.7,3,2,22,1,NA
fcp-trial,56,473734,0.0-31.0-0.0,voc_e2,11743,"[{""event"":""fullscreenenter"",""trial"":1,""time"":3782}]",NA,NA,NA,NA,NA,0,#FA92F8,#1CD855,10,10,1,38,1,3971.800000011921,39,0,1060.2999999821186,10,0,experiment,NA,NA,0,0.9,0.1,0,1,23,1,NA
fcp-trial,57,479470,0.0-32.0-0.0,voc_e2,11743,"[{""event"":""fullscreenenter"",""trial"":1,""time"":3782}]",NA,NA,NA,NA,NA,2,#D8271C,#741CD8,10,10,1,40,0,3493.199999988079,39,0,731.5999999940395,10,0,experiment,NA,NA,2,0.5,0.5,4,5,24,1,NA
fcp-trial,58,483934,0.0-33.0-0.0,voc_e2,11743,"[{""event"":""fullscreenenter"",""trial"":1,""time"":3782}]",NA,NA,NA,NA,NA,5,#741CD8,#D8271C,10,10,0,40,0,2250.800000011921,37,1,703.9000000059605,10,0,experiment,NA,NA,2,0.5,0.5,5,4,25,1,NA
fcp-trial,59,489097,0.0-34.0-0.0,voc_e2,11743,"[{""event"":""fullscreenenter"",""trial"":1,""time"":3782}]",NA,NA,NA,NA,NA,2,#3386FF,#D89F1C,10,0,0,40,0,2804,37,1,849.5999999940395,10,0,experiment,NA,NA,1,0.3,0.7,3,2,26,1,NA
fcp-trial,60,492397,0.0-35.0-0.0,voc_e2,11743,"[{""event"":""fullscreenenter"",""trial"":1,""time"":3782}]",NA,NA,NA,NA,NA,5,#1CD855,#FA92F8,0,10,0,38,1,1116.300000011921,39,0,673.1999999880791,10,1,experiment,NA,NA,0,0.1,0.9,1,0,27,1,NA
fcp-trial,61,496884,0.0-36.0-0.0,voc_e2,11743,"[{""event"":""fullscreenenter"",""trial"":1,""time"":3782}]",NA,NA,NA,NA,NA,1,#3386FF,#D89F1C,0,0,0,38,1,2278.5,37,1,698.8000000119209,0,0,experiment,NA,NA,1,0.3,0.7,3,2,28,1,NA
fcp-trial,62,500997,0.0-37.0-0.0,voc_e2,11743,"[{""event"":""fullscreenenter"",""trial"":1,""time"":3782}]",NA,NA,NA,NA,NA,5,#3386FF,#D89F1C,10,10,0,38,1,1964,39,0,640.7999999821186,10,1,experiment,NA,NA,1,0.3,0.7,3,2,29,1,NA
fcp-trial,63,507330,0.0-38.0-0.0,voc_e2,11743,"[{""event"":""fullscreenenter"",""trial"":1,""time"":3782}]",NA,NA,NA,NA,NA,3,#741CD8,#D8271C,0,10,0,40,0,4075.600000023842,39,0,750.6999999880791,10,1,experiment,NA,NA,2,0.5,0.5,5,4,30,1,NA
fcp-trial,64,511427,0.0-39.0-0.0,voc_e2,11743,"[{""event"":""fullscreenenter"",""trial"":1,""time"":3782}]",NA,NA,NA,NA,NA,2,#1CD855,#FA92F8,0,10,0,40,0,1677.9000000059605,39,0,908.0999999940395,10,1,experiment,NA,NA,0,0.1,0.9,1,0,31,1,NA
fcp-trial,65,517892,0.0-40.0-0.0,voc_e2,11743,"[{""event"":""fullscreenenter"",""trial"":1,""time"":3782}]",NA,NA,NA,NA,NA,6,#FA92F8,#1CD855,10,10,1,40,0,3883.800000011921,39,0,1072,10,0,experiment,NA,NA,0,0.9,0.1,0,1,32,1,NA
fcp-trial,66,523317,0.0-41.0-0.0,voc_e2,11743,"[{""event"":""fullscreenenter"",""trial"":1,""time"":3782}]",NA,NA,NA,NA,NA,4,#D8271C,#741CD8,10,10,1,38,1,2907.600000023842,37,1,1007,10,1,experiment,NA,NA,2,0.5,0.5,4,5,33,1,NA
fcp-trial,67,528403,0.0-42.0-0.0,voc_e2,11743,"[{""event"":""fullscreenenter"",""trial"":1,""time"":3782}]",NA,NA,NA,NA,NA,0,#3386FF,#D89F1C,0,10,0,38,1,1937.3999999761581,39,0,1638.7999999821186,10,1,experiment,NA,NA,1,0.3,0.7,3,2,34,1,NA
fcp-trial,68,533582,0.0-43.0-0.0,voc_e2,11743,"[{""event"":""fullscreenenter"",""trial"":1,""time"":3782}]",NA,NA,NA,NA,NA,1,#FA92F8,#1CD855,10,0,1,38,1,2924.800000011921,37,1,742.1999999880791,10,1,experiment,NA,NA,0,0.9,0.1,0,1,35,1,NA
fcp-trial,69,538103,0.0-44.0-0.0,voc_e2,11743,"[{""event"":""fullscreenenter"",""trial"":1,""time"":3782}]",NA,NA,NA,NA,NA,4,#FA92F8,#1CD855,10,0,1,38,1,2456.2000000178814,37,1,558,10,1,experiment,NA,NA,0,0.9,0.1,0,1,36,1,NA
fcp-trial,70,541771,0.0-45.0-0.0,voc_e2,11743,"[{""event"":""fullscreenenter"",""trial"":1,""time"":3782}]",NA,NA,NA,NA,NA,1,#741CD8,#D8271C,0,0,0,40,0,1047.5,37,1,1115.199999988079,0,0,experiment,NA,NA,2,0.5,0.5,5,4,37,1,NA
fcp-trial,71,546601,0.0-46.0-0.0,voc_e2,11743,"[{""event"":""fullscreenenter"",""trial"":1,""time"":3782}]",NA,NA,NA,NA,NA,6,#3386FF,#D89F1C,0,10,0,40,0,2108.0999999940395,37,1,1211.9000000059605,0,0,experiment,NA,NA,1,0.3,0.7,3,2,38,1,NA
fcp-trial,72,551834,0.0-47.0-0.0,voc_e2,11743,"[{""event"":""fullscreenenter"",""trial"":1,""time"":3782}]",NA,NA,NA,NA,NA,6,#D8271C,#741CD8,0,10,1,38,1,2127.5999999940395,39,0,1595.1000000238419,10,0,experiment,NA,NA,2,0.5,0.5,4,5,39,1,NA
fcp-trial,73,556498,0.0-48.0-0.0,voc_e2,11743,"[{""event"":""fullscreenenter"",""trial"":1,""time"":3782}]",NA,NA,NA,NA,NA,3,#D89F1C,#3386FF,10,10,1,38,1,2422.5999999940395,37,1,734,10,1,experiment,NA,NA,1,0.7,0.3,2,3,40,1,NA
fcp-trial,74,562383,0.0-49.0-0.0,voc_e2,11743,"[{""event"":""fullscreenenter"",""trial"":1,""time"":3782}]",NA,NA,NA,NA,NA,3,#1CD855,#FA92F8,0,10,0,38,1,2151.399999976158,39,0,2223.5999999940395,10,1,experiment,NA,NA,0,0.1,0.9,1,0,41,1,NA
fcp-trial,75,566502,0.0-50.0-0.0,voc_e2,11743,"[{""event"":""fullscreenenter"",""trial"":1,""time"":3782}]",NA,NA,NA,NA,NA,0,#741CD8,#D8271C,0,10,0,38,1,1598.9000000059605,37,1,1011.8999999761581,0,0,experiment,NA,NA,2,0.5,0.5,5,4,42,1,NA
fcp-trial,76,570684,0.0-51.0-0.0,voc_e2,11743,"[{""event"":""fullscreenenter"",""trial"":1,""time"":3782}]",NA,NA,NA,NA,NA,4,#FA92F8,#1CD855,10,0,1,38,1,2136.2000000178814,39,0,533.0999999940395,0,0,experiment,NA,NA,0,0.9,0.1,0,1,43,1,NA
fcp-trial,77,575559,0.0-52.0-0.0,voc_e2,11743,"[{""event"":""fullscreenenter"",""trial"":1,""time"":3782}]",NA,NA,NA,NA,NA,0,#D8271C,#741CD8,0,0,1,38,1,2575,37,1,787.6999999880791,0,1,experiment,NA,NA,2,0.5,0.5,4,5,44,1,NA
fcp-trial,78,580973,0.0-53.0-0.0,voc_e2,11743,"[{""event"":""fullscreenenter"",""trial"":1,""time"":3782}]",NA,NA,NA,NA,NA,0,#3386FF,#D89F1C,0,0,0,38,1,2400.199999988079,39,0,1501.800000011921,0,1,experiment,NA,NA,1,0.3,0.7,3,2,45,1,NA
fcp-trial,79,587451,0.0-54.0-0.0,voc_e2,11743,"[{""event"":""fullscreenenter"",""trial"":1,""time"":3782}]",NA,NA,NA,NA,NA,1,#1CD855,#FA92F8,0,10,0,40,0,3694.199999988079,39,0,1269.800000011921,10,1,experiment,NA,NA,0,0.1,0.9,1,0,46,2,NA
fcp-trial,80,594824,0.0-55.0-0.0,voc_e2,11743,"[{""event"":""fullscreenenter"",""trial"":1,""time"":3782}]",NA,NA,NA,NA,NA,6,#3386FF,#D89F1C,0,10,0,40,0,5172.4000000059605,39,0,691,10,1,experiment,NA,NA,1,0.3,0.7,3,2,47,2,NA
fcp-trial,81,603160,0.0-56.0-0.0,voc_e2,11743,"[{""event"":""fullscreenenter"",""trial"":1,""time"":3782}]",NA,NA,NA,NA,NA,5,#D8271C,#741CD8,10,10,1,38,1,4870.800000011921,37,1,1956.7000000178814,10,1,experiment,NA,NA,2,0.5,0.5,4,5,48,2,NA
fcp-trial,82,608394,0.0-57.0-0.0,voc_e2,11743,"[{""event"":""fullscreenenter"",""trial"":1,""time"":3782}]",NA,NA,NA,NA,NA,5,#FA92F8,#1CD855,10,10,1,38,1,2583.7000000178814,37,1,1140.199999988079,10,1,experiment,NA,NA,0,0.9,0.1,0,1,49,2,NA
fcp-trial,83,618167,0.0-58.0-0.0,voc_e2,11743,"[{""event"":""fullscreenenter"",""trial"":1,""time"":3782}]",NA,NA,NA,NA,NA,6,#1CD855,#FA92F8,0,10,0,40,0,7527.800000011921,39,0,734.9000000059605,10,1,experiment,NA,NA,0,0.1,0.9,1,0,50,2,NA
fcp-trial,84,622928,0.0-59.0-0.0,voc_e2,11743,"[{""event"":""fullscreenenter"",""trial"":1,""time"":3782}]",NA,NA,NA,NA,NA,1,#D8271C,#741CD8,10,10,1,40,0,2403.2999999821186,37,1,851.0999999940395,10,1,experiment,NA,NA,2,0.5,0.5,4,5,51,2,NA
fcp-trial,85,627623,0.0-60.0-0.0,voc_e2,11743,"[{""event"":""fullscreenenter"",""trial"":1,""time"":3782}]",NA,NA,NA,NA,NA,5,#D89F1C,#3386FF,10,10,1,38,1,1856.2000000178814,37,1,1332.2000000178814,10,1,experiment,NA,NA,1,0.7,0.3,2,3,52,2,NA
fcp-trial,86,633660,0.0-61.0-0.0,voc_e2,11743,"[{""event"":""fullscreenenter"",""trial"":1,""time"":3782}]",NA,NA,NA,NA,NA,2,#FA92F8,#1CD855,10,0,1,38,1,2134.0999999940395,37,1,2393.5999999940395,10,1,experiment,NA,NA,0,0.9,0.1,0,1,53,2,NA
fcp-trial,87,637682,0.0-62.0-0.0,voc_e2,11743,"[{""event"":""fullscreenenter"",""trial"":1,""time"":3782}]",NA,NA,NA,NA,NA,3,#741CD8,#D8271C,10,0,0,40,0,1579.5,37,1,934.2999999821186,10,0,experiment,NA,NA,2,0.5,0.5,5,4,54,2,NA
fcp-trial,88,641258,0.0-63.0-0.0,voc_e2,11743,"[{""event"":""fullscreenenter"",""trial"":1,""time"":3782}]",NA,NA,NA,NA,NA,2,#D8271C,#741CD8,10,10,1,40,0,1343.5999999940395,39,0,722.5999999940395,10,0,experiment,NA,NA,2,0.5,0.5,4,5,55,2,NA
fcp-trial,89,646572,0.0-64.0-0.0,voc_e2,11743,"[{""event"":""fullscreenenter"",""trial"":1,""time"":3782}]",NA,NA,NA,NA,NA,4,#D8271C,#741CD8,0,0,1,38,1,2738,37,1,1068.2000000178814,0,1,experiment,NA,NA,2,0.5,0.5,4,5,56,2,NA
fcp-trial,90,649614,0.0-65.0-0.0,voc_e2,11743,"[{""event"":""fullscreenenter"",""trial"":1,""time"":3782}]",NA,NA,NA,NA,NA,2,#D89F1C,#3386FF,0,0,1,40,0,868.8999999761581,39,0,663.5999999940395,0,0,experiment,NA,NA,1,0.7,0.3,2,3,57,2,NA
fcp-trial,91,654796,0.0-66.0-0.0,voc_e2,11743,"[{""event"":""fullscreenenter"",""trial"":1,""time"":3782}]",NA,NA,NA,NA,NA,0,#1CD855,#FA92F8,0,10,0,38,1,2746.5999999940395,39,0,925.9000000059605,10,1,experiment,NA,NA,0,0.1,0.9,1,0,58,2,NA
fcp-trial,92,659640,0.0-67.0-0.0,voc_e2,11743,"[{""event"":""fullscreenenter"",""trial"":1,""time"":3782}]",NA,NA,NA,NA,NA,6,#741CD8,#D8271C,0,10,0,40,0,2391,37,1,945.4000000059605,0,0,experiment,NA,NA,2,0.5,0.5,5,4,59,2,NA
fcp-trial,93,665358,0.0-68.0-0.0,voc_e2,11743,"[{""event"":""fullscreenenter"",""trial"":1,""time"":3782}]",NA,NA,NA,NA,NA,1,#3386FF,#D89F1C,0,10,0,38,1,1469.0999999940395,39,0,2738.5999999940395,10,1,experiment,NA,NA,1,0.3,0.7,3,2,60,2,NA
fcp-trial,94,671381,0.0-69.0-0.0,voc_e2,11743,"[{""event"":""fullscreenenter"",""trial"":1,""time"":3782}]",NA,NA,NA,NA,NA,3,#D89F1C,#3386FF,0,0,1,38,1,3450.5999999940395,37,1,1063.0999999940395,0,1,experiment,NA,NA,1,0.7,0.3,2,3,61,2,NA
fcp-trial,95,676096,0.0-70.0-0.0,voc_e2,11743,"[{""event"":""fullscreenenter"",""trial"":1,""time"":3782}]",NA,NA,NA,NA,NA,4,#3386FF,#D89F1C,0,0,0,40,0,2306.199999988079,37,1,898.3000000119209,0,0,experiment,NA,NA,1,0.3,0.7,3,2,62,2,NA
fcp-trial,96,680526,0.0-71.0-0.0,voc_e2,11743,"[{""event"":""fullscreenenter"",""trial"":1,""time"":3782}]",NA,NA,NA,NA,NA,3,#1CD855,#FA92F8,0,10,0,38,1,2170.4000000059605,39,0,745.6999999880791,10,1,experiment,NA,NA,0,0.1,0.9,1,0,63,2,NA
fcp-trial,97,685732,0.0-72.0-0.0,voc_e2,11743,"[{""event"":""fullscreenenter"",""trial"":1,""time"":3782}]",NA,NA,NA,NA,NA,0,#1CD855,#FA92F8,0,10,0,38,1,2747.9000000059605,39,0,948.8000000119209,10,1,experiment,NA,NA,0,0.1,0.9,1,0,64,2,NA
fcp-trial,98,691639,0.0-73.0-0.0,voc_e2,11743,"[{""event"":""fullscreenenter"",""trial"":1,""time"":3782}]",NA,NA,NA,NA,NA,0,#D8271C,#741CD8,0,10,1,38,1,3266.899999976158,37,1,1129.4000000059605,0,1,experiment,NA,NA,2,0.5,0.5,4,5,65,2,NA
fcp-trial,99,695895,0.0-74.0-0.0,voc_e2,11743,"[{""event"":""fullscreenenter"",""trial"":1,""time"":3782}]",NA,NA,NA,NA,NA,6,#1CD855,#FA92F8,0,10,0,38,1,2055,39,0,683.1000000238419,10,1,experiment,NA,NA,0,0.1,0.9,1,0,66,2,NA
fcp-trial,100,700026,0.0-75.0-0.0,voc_e2,11743,"[{""event"":""fullscreenenter"",""trial"":1,""time"":3782}]",NA,NA,NA,NA,NA,1,#D89F1C,#3386FF,10,0,1,40,0,1784.2999999821186,37,1,780.2000000178814,10,1,experiment,NA,NA,1,0.7,0.3,2,3,67,2,NA
fcp-trial,101,706422,0.0-76.0-0.0,voc_e2,11743,"[{""event"":""fullscreenenter"",""trial"":1,""time"":3782}]",NA,NA,NA,NA,NA,1,#741CD8,#D8271C,10,10,0,38,1,2513.7999999821186,37,1,2375.5999999940395,10,0,experiment,NA,NA,2,0.5,0.5,5,4,68,2,NA
fcp-trial,102,711319,0.0-77.0-0.0,voc_e2,11743,"[{""event"":""fullscreenenter"",""trial"":1,""time"":3782}]",NA,NA,NA,NA,NA,4,#FA92F8,#1CD855,10,10,1,40,0,2708.9000000059605,37,1,679.3999999761581,10,1,experiment,NA,NA,0,0.9,0.1,0,1,69,2,NA
fcp-trial,103,715079,0.0-78.0-0.0,voc_e2,11743,"[{""event"":""fullscreenenter"",""trial"":1,""time"":3782}]",NA,NA,NA,NA,NA,3,#D89F1C,#3386FF,10,10,1,40,0,1730,37,1,521,10,1,experiment,NA,NA,1,0.7,0.3,2,3,70,2,NA
fcp-trial,104,720138,0.0-79.0-0.0,voc_e2,11743,"[{""event"":""fullscreenenter"",""trial"":1,""time"":3782}]",NA,NA,NA,NA,NA,5,#3386FF,#D89F1C,10,0,0,38,1,1669.800000011921,39,0,1879.699999988079,0,1,experiment,NA,NA,1,0.3,0.7,3,2,71,2,NA
fcp-trial,105,723587,0.0-80.0-0.0,voc_e2,11743,"[{""event"":""fullscreenenter"",""trial"":1,""time"":3782}]",NA,NA,NA,NA,NA,4,#D8271C,#741CD8,0,10,1,40,0,1520.0999999940395,37,1,415.40000000596046,0,1,experiment,NA,NA,2,0.5,0.5,4,5,72,2,NA
fcp-trial,106,727805,0.0-81.0-0.0,voc_e2,11743,"[{""event"":""fullscreenenter"",""trial"":1,""time"":3782}]",NA,NA,NA,NA,NA,3,#FA92F8,#1CD855,10,10,1,40,0,2170.199999988079,39,0,538.7000000178814,10,0,experiment,NA,NA,0,0.9,0.1,0,1,73,2,NA
fcp-trial,107,732227,0.0-82.0-0.0,voc_e2,11743,"[{""event"":""fullscreenenter"",""trial"":1,""time"":3782}]",NA,NA,NA,NA,NA,6,#3386FF,#D89F1C,0,10,0,38,1,976.3000000119209,39,0,1937.4000000059605,10,1,experiment,NA,NA,1,0.3,0.7,3,2,74,2,NA
fcp-trial,108,736155,0.0-83.0-0.0,voc_e2,11743,"[{""event"":""fullscreenenter"",""trial"":1,""time"":3782}]",NA,NA,NA,NA,NA,2,#3386FF,#D89F1C,0,10,0,38,1,2091.199999988079,39,0,327.30000001192093,10,1,experiment,NA,NA,1,0.3,0.7,3,2,75,2,NA
fcp-trial,109,744863,0.0-84.0-0.0,voc_e2,11743,"[{""event"":""fullscreenenter"",""trial"":1,""time"":3782}]",NA,NA,NA,NA,NA,5,#FA92F8,#1CD855,10,0,1,40,0,6267.800000011921,39,0,930.6999999880791,0,0,experiment,NA,NA,0,0.9,0.1,0,1,76,2,NA
fcp-trial,110,751548,0.0-85.0-0.0,voc_e2,11743,"[{""event"":""fullscreenenter"",""trial"":1,""time"":3782}]",NA,NA,NA,NA,NA,2,#D8271C,#741CD8,10,10,1,38,1,4563.4000000059605,37,1,611.8999999761581,10,1,experiment,NA,NA,2,0.5,0.5,4,5,77,2,NA
fcp-trial,111,755909,0.0-86.0-0.0,voc_e2,11743,"[{""event"":""fullscreenenter"",""trial"":1,""time"":3782}]",NA,NA,NA,NA,NA,5,#741CD8,#D8271C,10,0,0,38,1,2575.9000000059605,39,0,277.2999999821186,0,1,experiment,NA,NA,2,0.5,0.5,5,4,78,2,NA
fcp-trial,112,759520,0.0-87.0-0.0,voc_e2,11743,"[{""event"":""fullscreenenter"",""trial"":1,""time"":3782}]",NA,NA,NA,NA,NA,4,#D89F1C,#3386FF,10,0,1,38,1,1737.300000011921,37,1,368.2000000178814,10,1,experiment,NA,NA,1,0.7,0.3,2,3,79,2,NA
fcp-trial,113,763757,0.0-88.0-0.0,voc_e2,11743,"[{""event"":""fullscreenenter"",""trial"":1,""time"":3782}]",NA,NA,NA,NA,NA,2,#1CD855,#FA92F8,0,10,0,40,0,1138.5,37,1,1591.4000000059605,0,0,experiment,NA,NA,0,0.1,0.9,1,0,80,2,NA
fcp-trial,114,767675,0.0-89.0-0.0,voc_e2,11743,"[{""event"":""fullscreenenter"",""trial"":1,""time"":3782}]",NA,NA,NA,NA,NA,0,#3386FF,#D89F1C,10,0,0,38,1,1573.800000011921,39,0,829.6999999880791,0,1,experiment,NA,NA,1,0.3,0.7,3,2,81,2,NA
fcp-trial,115,772424,0.0-90.0-0.0,voc_e2,11743,"[{""event"":""fullscreenenter"",""trial"":1,""time"":3782}]",NA,NA,NA,NA,NA,1,#1CD855,#FA92F8,0,10,0,40,0,2171.100000023842,39,0,1068.5,10,1,experiment,NA,NA,0,0.1,0.9,1,0,82,2,NA
fcp-trial,116,777097,0.0-91.0-0.0,voc_e2,11743,"[{""event"":""fullscreenenter"",""trial"":1,""time"":3782}]",NA,NA,NA,NA,NA,3,#D8271C,#741CD8,0,10,1,40,0,2196.9000000059605,39,0,968.3999999761581,10,0,experiment,NA,NA,2,0.5,0.5,4,5,83,2,NA
fcp-trial,117,782347,0.0-92.0-0.0,voc_e2,11743,"[{""event"":""fullscreenenter"",""trial"":1,""time"":3782}]",NA,NA,NA,NA,NA,6,#D8271C,#741CD8,0,10,1,40,0,1946.2999999821186,39,0,1795.0999999940395,10,0,experiment,NA,NA,2,0.5,0.5,4,5,84,2,NA
fcp-trial,118,786763,0.0-93.0-0.0,voc_e2,11743,"[{""event"":""fullscreenenter"",""trial"":1,""time"":3782}]",NA,NA,NA,NA,NA,1,#1CD855,#FA92F8,0,10,0,38,1,2306.4000000059605,37,1,598.5,0,0,experiment,NA,NA,0,0.1,0.9,1,0,85,2,NA
fcp-trial,119,791370,0.0-94.0-0.0,voc_e2,11743,"[{""event"":""fullscreenenter"",""trial"":1,""time"":3782}]",NA,NA,NA,NA,NA,2,#D8271C,#741CD8,10,10,1,40,0,2414.600000023842,39,0,685.3999999761581,10,0,experiment,NA,NA,2,0.5,0.5,4,5,86,2,NA
fcp-trial,120,796118,0.0-95.0-0.0,voc_e2,11743,"[{""event"":""fullscreenenter"",""trial"":1,""time"":3782}]",NA,NA,NA,NA,NA,0,#D89F1C,#3386FF,0,0,1,38,1,2367.2000000178814,37,1,869.7000000178814,0,1,experiment,NA,NA,1,0.7,0.3,2,3,87,2,NA
fcp-trial,121,802465,0.0-96.0-0.0,voc_e2,11743,"[{""event"":""fullscreenenter"",""trial"":1,""time"":3782}]",NA,NA,NA,NA,NA,2,#D89F1C,#3386FF,10,10,1,40,0,3807.199999988079,37,1,1031.7999999821186,10,1,experiment,NA,NA,1,0.7,0.3,2,3,88,2,NA
fcp-trial,122,808542,0.0-97.0-0.0,voc_e2,11743,"[{""event"":""fullscreenenter"",""trial"":1,""time"":3782}]",NA,NA,NA,NA,NA,4,#FA92F8,#1CD855,10,0,1,40,0,3499.5999999940395,39,0,1063.3999999761581,0,0,experiment,NA,NA,0,0.9,0.1,0,1,89,2,NA
fcp-trial,123,813784,0.0-98.0-0.0,voc_e2,11743,"[{""event"":""fullscreenenter"",""trial"":1,""time"":3782}]",NA,NA,NA,NA,NA,3,#741CD8,#D8271C,10,0,0,38,1,1929.9000000059605,39,0,1801,0,1,experiment,NA,NA,2,0.5,0.5,5,4,90,2,NA
fcp-trial,124,818294,0.0-99.0-0.0,voc_e2,11743,"[{""event"":""fullscreenenter"",""trial"":1,""time"":3782}]",NA,NA,NA,NA,NA,0,#D8271C,#741CD8,0,0,1,40,0,1959.0999999940395,39,0,1041.7000000178814,0,0,experiment,NA,NA,2,0.5,0.5,4,5,91,3,NA
fcp-trial,125,822638,0.0-100.0-0.0,voc_e2,11743,"[{""event"":""fullscreenenter"",""trial"":1,""time"":3782}]",NA,NA,NA,NA,NA,6,#D89F1C,#3386FF,10,0,1,40,0,2074.7000000178814,39,0,761.3000000119209,0,0,experiment,NA,NA,1,0.7,0.3,2,3,92,3,NA
fcp-trial,126,827464,0.0-101.0-0.0,voc_e2,11743,"[{""event"":""fullscreenenter"",""trial"":1,""time"":3782}]",NA,NA,NA,NA,NA,6,#741CD8,#D8271C,10,0,0,40,0,2261.7000000178814,37,1,1054.800000011921,10,0,experiment,NA,NA,2,0.5,0.5,5,4,93,3,NA
fcp-trial,127,832007,0.0-102.0-0.0,voc_e2,11743,"[{""event"":""fullscreenenter"",""trial"":1,""time"":3782}]",NA,NA,NA,NA,NA,2,#1CD855,#FA92F8,0,10,0,38,1,2102.300000011921,39,0,927.6000000238419,10,1,experiment,NA,NA,0,0.1,0.9,1,0,94,3,NA
fcp-trial,128,837081,0.0-103.0-0.0,voc_e2,11743,"[{""event"":""fullscreenenter"",""trial"":1,""time"":3782}]",NA,NA,NA,NA,NA,3,#D89F1C,#3386FF,10,10,1,38,1,2876.4000000059605,39,0,682.3000000119209,10,0,experiment,NA,NA,1,0.7,0.3,2,3,95,3,NA
fcp-trial,129,841748,0.0-104.0-0.0,voc_e2,11743,"[{""event"":""fullscreenenter"",""trial"":1,""time"":3782}]",NA,NA,NA,NA,NA,4,#741CD8,#D8271C,0,10,0,40,0,2255.5,37,1,903,0,0,experiment,NA,NA,2,0.5,0.5,5,4,96,3,NA
fcp-trial,130,846328,0.0-105.0-0.0,voc_e2,11743,"[{""event"":""fullscreenenter"",""trial"":1,""time"":3782}]",NA,NA,NA,NA,NA,3,#FA92F8,#1CD855,0,0,1,38,1,2133.4000000059605,39,0,936,0,0,experiment,NA,NA,0,0.9,0.1,0,1,97,3,NA
fcp-trial,131,850458,0.0-106.0-0.0,voc_e2,11743,"[{""event"":""fullscreenenter"",""trial"":1,""time"":3782}]",NA,NA,NA,NA,NA,6,#FA92F8,#1CD855,10,0,1,40,0,1698.800000011921,39,0,921.2000000178814,0,0,experiment,NA,NA,0,0.9,0.1,0,1,98,3,NA
fcp-trial,132,855622,0.0-107.0-0.0,voc_e2,11743,"[{""event"":""fullscreenenter"",""trial"":1,""time"":3782}]",NA,NA,NA,NA,NA,4,#3386FF,#D89F1C,0,0,0,38,1,2516.0999999940395,39,0,1134.5999999940395,0,1,experiment,NA,NA,1,0.3,0.7,3,2,99,3,NA
fcp-trial,133,861129,0.0-108.0-0.0,voc_e2,11743,"[{""event"":""fullscreenenter"",""trial"":1,""time"":3782}]",NA,NA,NA,NA,NA,0,#1CD855,#FA92F8,0,10,0,38,1,3128,37,1,869.7999999821186,0,0,experiment,NA,NA,0,0.1,0.9,1,0,100,3,NA
fcp-trial,134,868943,0.0-109.0-0.0,voc_e2,11743,"[{""event"":""fullscreenenter"",""trial"":1,""time"":3782}]",NA,NA,NA,NA,NA,1,#D8271C,#741CD8,0,0,1,40,0,5237.899999976158,39,0,1069,0,0,experiment,NA,NA,2,0.5,0.5,4,5,101,3,NA
fcp-trial,135,873661,0.0-110.0-0.0,voc_e2,11743,"[{""event"":""fullscreenenter"",""trial"":1,""time"":3782}]",NA,NA,NA,NA,NA,1,#3386FF,#D89F1C,0,10,0,38,1,2744.5999999940395,39,0,457.59999999403954,10,1,experiment,NA,NA,1,0.3,0.7,3,2,102,3,NA
fcp-trial,136,877349,0.0-111.0-0.0,voc_e2,11743,"[{""event"":""fullscreenenter"",""trial"":1,""time"":3782}]",NA,NA,NA,NA,NA,5,#D89F1C,#3386FF,10,0,1,38,1,1764.7000000178814,39,0,410.40000000596046,0,0,experiment,NA,NA,1,0.7,0.3,2,3,103,3,NA
fcp-trial,137,880922,0.0-112.0-0.0,voc_e2,11743,"[{""event"":""fullscreenenter"",""trial"":1,""time"":3782}]",NA,NA,NA,NA,NA,5,#741CD8,#D8271C,10,0,0,40,0,1350.7000000178814,37,1,708.9000000059605,10,0,experiment,NA,NA,2,0.5,0.5,5,4,104,3,NA
fcp-trial,138,886370,0.0-113.0-0.0,voc_e2,11743,"[{""event"":""fullscreenenter"",""trial"":1,""time"":3782}]",NA,NA,NA,NA,NA,5,#1CD855,#FA92F8,10,10,0,40,0,2663.9000000059605,37,1,1270.300000011921,10,0,experiment,NA,NA,0,0.1,0.9,1,0,105,3,NA
audio-instructions,139,895756,0.0-114.0,voc_e2,11743,"[{""event"":""fullscreenenter"",""trial"":1,""time"":3782}]",NA,4794.5,static/audio/pause.wav,NA,0,NA,NA,NA,NA,NA,NA,NA,NA,NA,NA,NA,NA,NA,NA,NA,NA,NA,NA,NA,NA,NA,NA,NA,NA,NA
fcp-trial,140,903247,0.0-115.0-0.0,voc_e2,11743,"[{""event"":""fullscreenenter"",""trial"":1,""time"":3782}]",NA,NA,NA,NA,NA,3,#741CD8,#D8271C,0,10,0,40,0,5419.4000000059605,39,0,558.9000000059605,10,1,experiment,NA,NA,2,0.5,0.5,5,4,106,3,NA
fcp-trial,141,907486,0.0-116.0-0.0,voc_e2,11743,"[{""event"":""fullscreenenter"",""trial"":1,""time"":3782}]",NA,NA,NA,NA,NA,1,#741CD8,#D8271C,10,0,0,38,1,2334.300000011921,39,0,395.7999999821186,0,1,experiment,NA,NA,2,0.5,0.5,5,4,107,3,NA
fcp-trial,142,910967,0.0-117.0-0.0,voc_e2,11743,"[{""event"":""fullscreenenter"",""trial"":1,""time"":3782}]",NA,NA,NA,NA,NA,0,#3386FF,#D89F1C,0,0,0,40,0,1481.199999988079,39,0,491.89999997615814,0,1,experiment,NA,NA,1,0.3,0.7,3,2,108,3,NA
fcp-trial,143,915703,0.0-118.0-0.0,voc_e2,11743,"[{""event"":""fullscreenenter"",""trial"":1,""time"":3782}]",NA,NA,NA,NA,NA,4,#741CD8,#D8271C,0,0,0,40,0,2381.0999999940395,37,1,847.3000000119209,0,0,experiment,NA,NA,2,0.5,0.5,5,4,109,3,NA
fcp-trial,144,921017,0.0-119.0-0.0,voc_e2,11743,"[{""event"":""fullscreenenter"",""trial"":1,""time"":3782}]",NA,NA,NA,NA,NA,0,#FA92F8,#1CD855,10,0,1,38,1,2648,39,0,1152.800000011921,0,0,experiment,NA,NA,0,0.9,0.1,0,1,110,3,NA
fcp-trial,145,924951,0.0-120.0-0.0,voc_e2,11743,"[{""event"":""fullscreenenter"",""trial"":1,""time"":3782}]",NA,NA,NA,NA,NA,6,#3386FF,#D89F1C,10,0,0,38,1,1976,39,0,448.90000000596046,0,1,experiment,NA,NA,1,0.3,0.7,3,2,111,3,NA
fcp-trial,146,928927,0.0-121.0-0.0,voc_e2,11743,"[{""event"":""fullscreenenter"",""trial"":1,""time"":3782}]",NA,NA,NA,NA,NA,4,#1CD855,#FA92F8,0,10,0,40,0,1281.199999988079,37,1,1185.300000011921,0,0,experiment,NA,NA,0,0.1,0.9,1,0,112,3,NA
fcp-trial,147,932492,0.0-122.0-0.0,voc_e2,11743,"[{""event"":""fullscreenenter"",""trial"":1,""time"":3782}]",NA,NA,NA,NA,NA,6,#FA92F8,#1CD855,10,0,1,40,0,1652.699999988079,39,0,401.89999997615814,0,0,experiment,NA,NA,0,0.9,0.1,0,1,113,3,NA
fcp-trial,148,936576,0.0-123.0-0.0,voc_e2,11743,"[{""event"":""fullscreenenter"",""trial"":1,""time"":3782}]",NA,NA,NA,NA,NA,5,#741CD8,#D8271C,0,10,0,38,1,2184.0999999940395,39,0,368.59999999403954,10,1,experiment,NA,NA,2,0.5,0.5,5,4,114,3,NA
fcp-trial,149,940770,0.0-124.0-0.0,voc_e2,11743,"[{""event"":""fullscreenenter"",""trial"":1,""time"":3782}]",NA,NA,NA,NA,NA,1,#3386FF,#D89F1C,0,10,0,40,0,2071.2000000178814,39,0,612.1999999880791,10,1,experiment,NA,NA,1,0.3,0.7,3,2,115,3,NA
fcp-trial,150,943520,0.0-125.0-0.0,voc_e2,11743,"[{""event"":""fullscreenenter"",""trial"":1,""time"":3782}]",NA,NA,NA,NA,NA,2,#1CD855,#FA92F8,0,10,0,40,0,6.4000000059604645,37,1,1231.199999988079,0,0,experiment,NA,NA,0,0.1,0.9,1,0,116,3,NA
fcp-trial,151,947696,0.0-126.0-0.0,voc_e2,11743,"[{""event"":""fullscreenenter"",""trial"":1,""time"":3782}]",NA,NA,NA,NA,NA,4,#3386FF,#D89F1C,10,10,0,40,0,2131.0999999940395,39,0,532.7999999821186,10,1,experiment,NA,NA,1,0.3,0.7,3,2,117,3,NA
fcp-trial,152,950931,0.0-127.0-0.0,voc_e2,11743,"[{""event"":""fullscreenenter"",""trial"":1,""time"":3782}]",NA,NA,NA,NA,NA,0,#D8271C,#741CD8,10,10,1,38,1,943.5999999940395,37,1,778.7999999821186,10,1,experiment,NA,NA,2,0.5,0.5,4,5,118,3,NA
fcp-trial,153,954435,0.0-128.0-0.0,voc_e2,11743,"[{""event"":""fullscreenenter"",""trial"":1,""time"":3782}]",NA,NA,NA,NA,NA,5,#D89F1C,#3386FF,10,0,1,38,1,1614.9000000059605,39,0,379.09999999403954,0,0,experiment,NA,NA,1,0.7,0.3,2,3,119,3,NA
fcp-trial,154,958339,0.0-129.0-0.0,voc_e2,11743,"[{""event"":""fullscreenenter"",""trial"":1,""time"":3782}]",NA,NA,NA,NA,NA,1,#FA92F8,#1CD855,10,0,1,40,0,1362.5999999940395,39,0,1021.1999999880791,0,0,experiment,NA,NA,0,0.9,0.1,0,1,120,3,NA
fcp-trial,155,962034,0.0-130.0-0.0,voc_e2,11743,"[{""event"":""fullscreenenter"",""trial"":1,""time"":3782}]",NA,NA,NA,NA,NA,6,#741CD8,#D8271C,0,0,0,38,1,1869.6000000238419,37,1,315.2999999821186,0,0,experiment,NA,NA,2,0.5,0.5,5,4,121,3,NA
fcp-trial,156,966277,0.0-131.0-0.0,voc_e2,11743,"[{""event"":""fullscreenenter"",""trial"":1,""time"":3782}]",NA,NA,NA,NA,NA,3,#1CD855,#FA92F8,0,10,0,40,0,1904.2000000178814,39,0,828.7999999821186,10,1,experiment,NA,NA,0,0.1,0.9,1,0,122,3,NA
fcp-trial,157,970852,0.0-132.0-0.0,voc_e2,11743,"[{""event"":""fullscreenenter"",""trial"":1,""time"":3782}]",NA,NA,NA,NA,NA,5,#1CD855,#FA92F8,0,10,0,38,1,2508,39,0,555.5999999940395,10,1,experiment,NA,NA,0,0.1,0.9,1,0,123,3,NA
fcp-trial,158,974749,0.0-133.0-0.0,voc_e2,11743,"[{""event"":""fullscreenenter"",""trial"":1,""time"":3782}]",NA,NA,NA,NA,NA,2,#3386FF,#D89F1C,10,0,0,38,1,1526.199999988079,37,1,858.8000000119209,10,0,experiment,NA,NA,1,0.3,0.7,3,2,124,3,NA
fcp-trial,159,979026,0.0-134.0-0.0,voc_e2,11743,"[{""event"":""fullscreenenter"",""trial"":1,""time"":3782}]",NA,NA,NA,NA,NA,3,#3386FF,#D89F1C,10,10,0,40,0,1786.7999999821186,39,0,982.5,10,1,experiment,NA,NA,1,0.3,0.7,3,2,125,3,NA
fcp-trial,160,984070,0.0-135.0-0.0,voc_e2,11743,"[{""event"":""fullscreenenter"",""trial"":1,""time"":3782}]",NA,NA,NA,NA,NA,2,#D8271C,#741CD8,10,10,1,38,1,2821.199999988079,37,1,715.5,10,1,experiment,NA,NA,2,0.5,0.5,4,5,126,3,NA
fcp-trial,161,988025,0.0-136.0-0.0,voc_e2,11743,"[{""event"":""fullscreenenter"",""trial"":1,""time"":3782}]",NA,NA,NA,NA,NA,5,#D8271C,#741CD8,0,10,1,38,1,1999.0999999940395,37,1,444.2000000178814,0,1,experiment,NA,NA,2,0.5,0.5,4,5,127,3,NA
fcp-trial,162,991794,0.0-137.0-0.0,voc_e2,11743,"[{""event"":""fullscreenenter"",""trial"":1,""time"":3782}]",NA,NA,NA,NA,NA,5,#3386FF,#D89F1C,0,0,0,38,1,1849.5999999940395,37,1,411.80000001192093,0,0,experiment,NA,NA,1,0.3,0.7,3,2,128,3,NA
fcp-trial,163,995124,0.0-138.0-0.0,voc_e2,11743,"[{""event"":""fullscreenenter"",""trial"":1,""time"":3782}]",NA,NA,NA,NA,NA,6,#FA92F8,#1CD855,10,0,1,40,0,1264.199999988079,39,0,553.9000000059605,0,0,experiment,NA,NA,0,0.9,0.1,0,1,129,3,NA
fcp-trial,164,998554,0.0-139.0-0.0,voc_e2,11743,"[{""event"":""fullscreenenter"",""trial"":1,""time"":3782}]",NA,NA,NA,NA,NA,4,#3386FF,#D89F1C,0,10,0,38,1,1557.199999988079,37,1,362.80000001192093,0,0,experiment,NA,NA,1,0.3,0.7,3,2,130,3,NA
fcp-trial,165,1002566,0.0-140.0-0.0,voc_e2,11743,"[{""event"":""fullscreenenter"",""trial"":1,""time"":3782}]",NA,NA,NA,NA,NA,2,#D8271C,#741CD8,10,10,1,40,0,1791.5,39,0,709,10,0,experiment,NA,NA,2,0.5,0.5,4,5,131,3,NA
fcp-trial,166,1006508,0.0-141.0-0.0,voc_e2,11743,"[{""event"":""fullscreenenter"",""trial"":1,""time"":3782}]",NA,NA,NA,NA,NA,1,#3386FF,#D89F1C,10,10,0,38,1,1678.0999999940395,37,1,755.0999999940395,10,0,experiment,NA,NA,1,0.3,0.7,3,2,132,3,NA
fcp-trial,167,1013789,0.0-142.0-0.0,voc_e2,11743,"[{""event"":""fullscreenenter"",""trial"":1,""time"":3782}]",NA,NA,NA,NA,NA,2,#1CD855,#FA92F8,0,10,0,40,0,4155.399999976158,39,0,1616.5,10,1,experiment,NA,NA,0,0.1,0.9,1,0,133,3,NA
fcp-trial,168,1019606,0.0-143.0-0.0,voc_e2,11743,"[{""event"":""fullscreenenter"",""trial"":1,""time"":3782}]",NA,NA,NA,NA,NA,2,#3386FF,#D89F1C,10,10,0,40,0,3756.5,37,1,552,10,0,experiment,NA,NA,1,0.3,0.7,3,2,134,3,NA
fcp-trial,169,1023099,0.0-144.0-0.0,voc_e2,11743,"[{""event"":""fullscreenenter"",""trial"":1,""time"":3782}]",NA,NA,NA,NA,NA,6,#D8271C,#741CD8,10,0,1,38,1,1348.5,39,0,635.0999999940395,0,0,experiment,NA,NA,2,0.5,0.5,4,5,135,3,NA
fcp-trial,170,1026572,0.0-145.0-0.0,voc_e2,11743,"[{""event"":""fullscreenenter"",""trial"":1,""time"":3782}]",NA,NA,NA,NA,NA,4,#D8271C,#741CD8,0,0,1,40,0,1288.5,37,1,673,0,1,experiment,NA,NA,2,0.5,0.5,4,5,136,4,NA
fcp-trial,171,1032125,0.0-146.0-0.0,voc_e2,11743,"[{""event"":""fullscreenenter"",""trial"":1,""time"":3782}]",NA,NA,NA,NA,NA,0,#1CD855,#FA92F8,0,10,0,38,1,3222.7999999821186,39,0,820.8999999761581,10,1,experiment,NA,NA,0,0.1,0.9,1,0,137,4,NA
fcp-trial,172,1035801,0.0-147.0-0.0,voc_e2,11743,"[{""event"":""fullscreenenter"",""trial"":1,""time"":3782}]",NA,NA,NA,NA,NA,1,#FA92F8,#1CD855,10,0,1,38,1,1803.699999988079,39,0,360.59999999403954,0,0,experiment,NA,NA,0,0.9,0.1,0,1,138,4,NA
fcp-trial,173,1040183,0.0-148.0-0.0,voc_e2,11743,"[{""event"":""fullscreenenter"",""trial"":1,""time"":3782}]",NA,NA,NA,NA,NA,6,#D89F1C,#3386FF,10,0,1,40,0,1931.0999999940395,37,1,939.4000000059605,10,1,experiment,NA,NA,1,0.7,0.3,2,3,139,4,NA
fcp-trial,174,1044078,0.0-149.0-0.0,voc_e2,11743,"[{""event"":""fullscreenenter"",""trial"":1,""time"":3782}]",NA,NA,NA,NA,NA,4,#1CD855,#FA92F8,0,10,0,38,1,307,39,0,2079.100000023842,10,1,experiment,NA,NA,0,0.1,0.9,1,0,140,4,NA
fcp-trial,175,1047445,0.0-150.0-0.0,voc_e2,11743,"[{""event"":""fullscreenenter"",""trial"":1,""time"":3782}]",NA,NA,NA,NA,NA,1,#741CD8,#D8271C,0,0,0,38,1,1460.7000000178814,39,0,397.59999999403954,0,1,experiment,NA,NA,2,0.5,0.5,5,4,141,4,NA
fcp-trial,176,1054340,0.0-151.0-0.0,voc_e2,11743,"[{""event"":""fullscreenenter"",""trial"":1,""time"":3782}]",NA,NA,NA,NA,NA,3,#D8271C,#741CD8,0,10,1,40,0,4404.399999976158,39,0,979,10,0,experiment,NA,NA,2,0.5,0.5,4,5,142,4,NA
fcp-trial,177,1057558,0.0-152.0-0.0,voc_e2,11743,"[{""event"":""fullscreenenter"",""trial"":1,""time"":3782}]",NA,NA,NA,NA,NA,3,#3386FF,#D89F1C,0,10,0,38,1,1325.2999999821186,37,1,383.59999999403954,0,0,experiment,NA,NA,1,0.3,0.7,3,2,143,4,NA
fcp-trial,178,1061169,0.0-153.0-0.0,voc_e2,11743,"[{""event"":""fullscreenenter"",""trial"":1,""time"":3782}]",NA,NA,NA,NA,NA,3,#FA92F8,#1CD855,10,10,1,40,0,1659.2000000178814,39,0,442,10,0,experiment,NA,NA,0,0.9,0.1,0,1,144,4,NA
fcp-trial,179,1065018,0.0-154.0-0.0,voc_e2,11743,"[{""event"":""fullscreenenter"",""trial"":1,""time"":3782}]",NA,NA,NA,NA,NA,5,#FA92F8,#1CD855,10,10,1,40,0,1892.800000011921,39,0,444.40000000596046,10,0,experiment,NA,NA,0,0.9,0.1,0,1,145,4,NA
fcp-trial,180,1070260,0.0-155.0-0.0,voc_e2,11743,"[{""event"":""fullscreenenter"",""trial"":1,""time"":3782}]",NA,NA,NA,NA,NA,0,#D8271C,#741CD8,0,0,1,38,1,2044.0999999940395,37,1,1683.5,0,1,experiment,NA,NA,2,0.5,0.5,4,5,146,4,NA
fcp-trial,181,1074401,0.0-156.0-0.0,voc_e2,11743,"[{""event"":""fullscreenenter"",""trial"":1,""time"":3782}]",NA,NA,NA,NA,NA,0,#3386FF,#D89F1C,10,10,0,40,0,1407.8999999761581,37,1,1221.7000000178814,10,0,experiment,NA,NA,1,0.3,0.7,3,2,147,4,NA
fcp-trial,182,1078515,0.0-157.0-0.0,voc_e2,11743,"[{""event"":""fullscreenenter"",""trial"":1,""time"":3782}]",NA,NA,NA,NA,NA,4,#741CD8,#D8271C,10,0,0,40,0,1896.7000000178814,39,0,704.2999999821186,0,1,experiment,NA,NA,2,0.5,0.5,5,4,148,4,NA
fcp-trial,183,1083138,0.0-158.0-0.0,voc_e2,11743,"[{""event"":""fullscreenenter"",""trial"":1,""time"":3782}]",NA,NA,NA,NA,NA,3,#D89F1C,#3386FF,10,0,1,40,0,2413.100000023842,37,1,700.6999999880791,10,1,experiment,NA,NA,1,0.7,0.3,2,3,149,4,NA
fcp-trial,184,1095358,0.0-159.0-0.0,voc_e2,11743,"[{""event"":""fullscreenenter"",""trial"":1,""time"":3782}]",NA,NA,NA,NA,NA,6,#3386FF,#D89F1C,10,10,0,40,0,9976.90000000596,39,0,731.4000000059605,10,1,experiment,NA,NA,1,0.3,0.7,3,2,150,4,NA
fcp-trial,185,1100858,0.0-160.0-0.0,voc_e2,11743,"[{""event"":""fullscreenenter"",""trial"":1,""time"":3782}]",NA,NA,NA,NA,NA,1,#FA92F8,#1CD855,10,0,1,38,1,3104.699999988079,39,0,888.1999999880791,0,0,experiment,NA,NA,0,0.9,0.1,0,1,151,4,NA
fcp-trial,186,1105248,0.0-161.0-0.0,voc_e2,11743,"[{""event"":""fullscreenenter"",""trial"":1,""time"":3782}]",NA,NA,NA,NA,NA,2,#741CD8,#D8271C,10,0,0,40,0,2121.800000011921,39,0,758.3999999761581,0,1,experiment,NA,NA,2,0.5,0.5,5,4,152,4,NA
fcp-trial,187,1109493,0.0-162.0-0.0,voc_e2,11743,"[{""event"":""fullscreenenter"",""trial"":1,""time"":3782}]",NA,NA,NA,NA,NA,3,#1CD855,#FA92F8,0,10,0,40,0,1849.800000011921,37,1,882.2999999821186,0,0,experiment,NA,NA,0,0.1,0.9,1,0,153,4,NA
fcp-trial,188,1114731,0.0-163.0-0.0,voc_e2,11743,"[{""event"":""fullscreenenter"",""trial"":1,""time"":3782}]",NA,NA,NA,NA,NA,0,#D89F1C,#3386FF,10,0,1,38,1,2707.899999976158,39,0,1019.7000000178814,0,0,experiment,NA,NA,1,0.7,0.3,2,3,154,4,NA
fcp-trial,189,1118651,0.0-164.0-0.0,voc_e2,11743,"[{""event"":""fullscreenenter"",""trial"":1,""time"":3782}]",NA,NA,NA,NA,NA,3,#741CD8,#D8271C,0,10,0,40,0,1614.699999988079,37,1,796.0999999940395,0,0,experiment,NA,NA,2,0.5,0.5,5,4,155,4,NA
fcp-trial,190,1126903,0.0-165.0-0.0,voc_e2,11743,"[{""event"":""fullscreenenter"",""trial"":1,""time"":3782}]",NA,NA,NA,NA,NA,1,#741CD8,#D8271C,0,0,0,38,1,6169.0999999940395,39,0,568.5999999940395,0,1,experiment,NA,NA,2,0.5,0.5,5,4,156,4,NA
fcp-trial,191,1137327,0.0-166.0-0.0,voc_e2,11743,"[{""event"":""fullscreenenter"",""trial"":1,""time"":3782}]",NA,NA,NA,NA,NA,1,#3386FF,#D89F1C,0,10,0,40,0,3996.4000000059605,37,1,4913.5999999940395,0,0,experiment,NA,NA,1,0.3,0.7,3,2,157,4,NA
fcp-trial,192,1142017,0.0-167.0-0.0,voc_e2,11743,"[{""event"":""fullscreenenter"",""trial"":1,""time"":3782}]",NA,NA,NA,NA,NA,0,#1CD855,#FA92F8,0,10,0,38,1,2073.800000011921,39,0,1107.5999999940395,10,1,experiment,NA,NA,0,0.1,0.9,1,0,158,4,NA
fcp-trial,193,1145697,0.0-168.0-0.0,voc_e2,11743,"[{""event"":""fullscreenenter"",""trial"":1,""time"":3782}]",NA,NA,NA,NA,NA,5,#1CD855,#FA92F8,0,10,0,38,1,1687,39,0,481.40000000596046,10,1,experiment,NA,NA,0,0.1,0.9,1,0,159,4,NA
fcp-trial,194,1150557,0.0-169.0-0.0,voc_e2,11743,"[{""event"":""fullscreenenter"",""trial"":1,""time"":3782}]",NA,NA,NA,NA,NA,6,#D8271C,#741CD8,10,0,1,40,0,2567.0999999940395,39,0,784.6999999880791,0,0,experiment,NA,NA,2,0.5,0.5,4,5,160,4,NA
fcp-trial,195,1155555,0.0-170.0-0.0,voc_e2,11743,"[{""event"":""fullscreenenter"",""trial"":1,""time"":3782}]",NA,NA,NA,NA,NA,0,#D8271C,#741CD8,10,0,1,38,1,3071.5,37,1,414.39999997615814,10,1,experiment,NA,NA,2,0.5,0.5,4,5,161,4,NA
fcp-trial,196,1161484,0.0-171.0-0.0,voc_e2,11743,"[{""event"":""fullscreenenter"",""trial"":1,""time"":3782}]",NA,NA,NA,NA,NA,2,#3386FF,#D89F1C,0,10,0,40,0,3847.5,39,0,571.7000000178814,10,1,experiment,NA,NA,1,0.3,0.7,3,2,162,4,NA
fcp-trial,197,1166106,0.0-172.0-0.0,voc_e2,11743,"[{""event"":""fullscreenenter"",""trial"":1,""time"":3782}]",NA,NA,NA,NA,NA,2,#1CD855,#FA92F8,10,10,0,40,0,2433.5,37,1,677,10,0,experiment,NA,NA,0,0.1,0.9,1,0,163,4,NA
fcp-trial,198,1169998,0.0-173.0-0.0,voc_e2,11743,"[{""event"":""fullscreenenter"",""trial"":1,""time"":3782}]",NA,NA,NA,NA,NA,5,#741CD8,#D8271C,10,10,0,38,1,1572.5,39,0,810.5,10,1,experiment,NA,NA,2,0.5,0.5,5,4,164,4,NA
fcp-trial,199,1174877,0.0-174.0-0.0,voc_e2,11743,"[{""event"":""fullscreenenter"",""trial"":1,""time"":3782}]",NA,NA,NA,NA,NA,4,#D89F1C,#3386FF,10,10,1,38,1,1713.5,39,0,1653.4000000059605,10,0,experiment,NA,NA,1,0.7,0.3,2,3,165,4,NA
fcp-trial,200,1180317,0.0-175.0-0.0,voc_e2,11743,"[{""event"":""fullscreenenter"",""trial"":1,""time"":3782}]",NA,NA,NA,NA,NA,4,#FA92F8,#1CD855,10,0,1,40,0,3257.5,37,1,670.6000000238419,10,1,experiment,NA,NA,0,0.9,0.1,0,1,166,4,NA
fcp-trial,201,1186259,0.0-176.0-0.0,voc_e2,11743,"[{""event"":""fullscreenenter"",""trial"":1,""time"":3782}]",NA,NA,NA,NA,NA,6,#FA92F8,#1CD855,10,0,1,40,0,3464.199999988079,39,0,966.5999999940395,0,0,experiment,NA,NA,0,0.9,0.1,0,1,167,4,NA
fcp-trial,202,1190334,0.0-177.0-0.0,voc_e2,11743,"[{""event"":""fullscreenenter"",""trial"":1,""time"":3782}]",NA,NA,NA,NA,NA,5,#D89F1C,#3386FF,0,10,1,40,0,895.5999999940395,37,1,1668.699999988079,0,1,experiment,NA,NA,1,0.7,0.3,2,3,168,4,NA
fcp-trial,203,1194651,0.0-178.0-0.0,voc_e2,11743,"[{""event"":""fullscreenenter"",""trial"":1,""time"":3782}]",NA,NA,NA,NA,NA,4,#3386FF,#D89F1C,0,10,0,38,1,1509.6000000238419,39,0,1301,10,1,experiment,NA,NA,1,0.3,0.7,3,2,169,4,NA
fcp-trial,204,1200455,0.0-179.0-0.0,voc_e2,11743,"[{""event"":""fullscreenenter"",""trial"":1,""time"":3782}]",NA,NA,NA,NA,NA,6,#741CD8,#D8271C,0,10,0,40,0,2686.699999988079,37,1,1606.5,0,0,experiment,NA,NA,2,0.5,0.5,5,4,170,4,NA
fcp-trial,205,1207285,0.0-180.0-0.0,voc_e2,11743,"[{""event"":""fullscreenenter"",""trial"":1,""time"":3782}]",NA,NA,NA,NA,NA,5,#FA92F8,#1CD855,10,0,1,40,0,3346.5,37,1,1968.7999999821186,10,1,experiment,NA,NA,0,0.9,0.1,0,1,171,4,NA
fcp-trial,206,1211047,0.0-181.0-0.0,voc_e2,11743,"[{""event"":""fullscreenenter"",""trial"":1,""time"":3782}]",NA,NA,NA,NA,NA,6,#D89F1C,#3386FF,0,0,1,40,0,1292.0999999940395,37,1,960.2999999821186,0,1,experiment,NA,NA,1,0.7,0.3,2,3,172,4,NA
fcp-trial,207,1215617,0.0-182.0-0.0,voc_e2,11743,"[{""event"":""fullscreenenter"",""trial"":1,""time"":3782}]",NA,NA,NA,NA,NA,4,#FA92F8,#1CD855,10,10,1,40,0,2384.0999999940395,37,1,676.5999999940395,10,1,experiment,NA,NA,0,0.9,0.1,0,1,173,4,NA
fcp-trial,208,1220550,0.0-183.0-0.0,voc_e2,11743,"[{""event"":""fullscreenenter"",""trial"":1,""time"":3782}]",NA,NA,NA,NA,NA,1,#D8271C,#741CD8,0,0,1,38,1,2912.199999988079,39,0,506.90000000596046,0,0,experiment,NA,NA,2,0.5,0.5,4,5,174,4,NA
fcp-trial,209,1226876,0.0-184.0-0.0,voc_e2,11743,"[{""event"":""fullscreenenter"",""trial"":1,""time"":3782}]",NA,NA,NA,NA,NA,5,#741CD8,#D8271C,10,10,0,40,0,4046,37,1,769.7999999821186,10,0,experiment,NA,NA,2,0.5,0.5,5,4,175,4,NA
fcp-trial,210,1230959,0.0-185.0-0.0,voc_e2,11743,"[{""event"":""fullscreenenter"",""trial"":1,""time"":3782}]",NA,NA,NA,NA,NA,0,#FA92F8,#1CD855,10,0,1,38,1,1539.5,39,0,1029.2000000178814,0,0,experiment,NA,NA,0,0.9,0.1,0,1,176,4,NA
fcp-trial,211,1236160,0.0-186.0-0.0,voc_e2,11743,"[{""event"":""fullscreenenter"",""trial"":1,""time"":3782}]",NA,NA,NA,NA,NA,5,#D89F1C,#3386FF,10,10,1,40,0,3218.4000000059605,39,0,472.2999999821186,10,0,experiment,NA,NA,1,0.7,0.3,2,3,177,4,NA
fcp-trial,212,1240998,0.0-187.0-0.0,voc_e2,11743,"[{""event"":""fullscreenenter"",""trial"":1,""time"":3782}]",NA,NA,NA,NA,NA,2,#FA92F8,#1CD855,10,0,1,40,0,2916.5,37,1,413.2000000178814,10,1,experiment,NA,NA,0,0.9,0.1,0,1,178,4,NA
fcp-trial,213,1245105,0.0-188.0-0.0,voc_e2,11743,"[{""event"":""fullscreenenter"",""trial"":1,""time"":3782}]",NA,NA,NA,NA,NA,3,#D8271C,#741CD8,10,0,1,40,0,2050.800000011921,37,1,542.9000000059605,10,1,experiment,NA,NA,2,0.5,0.5,4,5,179,4,NA
fcp-trial,214,1251282,0.0-189.0-0.0,voc_e2,11743,"[{""event"":""fullscreenenter"",""trial"":1,""time"":3782}]",NA,NA,NA,NA,NA,3,#D89F1C,#3386FF,10,10,1,40,0,2798,37,1,1867.9000000059605,10,1,experiment,NA,NA,1,0.7,0.3,2,3,180,4,NA
fcp-trial,215,1255867,0.0-190.0-0.0,voc_e2,11743,"[{""event"":""fullscreenenter"",""trial"":1,""time"":3782}]",NA,NA,NA,NA,NA,1,#FA92F8,#1CD855,10,0,1,40,0,2311.300000011921,37,1,761.5999999940395,10,1,experiment,NA,NA,0,0.9,0.1,0,1,181,5,NA
fcp-trial,216,1259642,0.0-191.0-0.0,voc_e2,11743,"[{""event"":""fullscreenenter"",""trial"":1,""time"":3782}]",NA,NA,NA,NA,NA,1,#D89F1C,#3386FF,10,0,1,38,1,1838.5,39,0,428.59999999403954,0,0,experiment,NA,NA,1,0.7,0.3,2,3,182,5,NA
fcp-trial,217,1263386,0.0-192.0-0.0,voc_e2,11743,"[{""event"":""fullscreenenter"",""trial"":1,""time"":3782}]",NA,NA,NA,NA,NA,4,#741CD8,#D8271C,10,0,0,40,0,1772.2000000178814,37,1,463.09999999403954,10,0,experiment,NA,NA,2,0.5,0.5,5,4,183,5,NA
fcp-trial,218,1267264,0.0-193.0-0.0,voc_e2,11743,"[{""event"":""fullscreenenter"",""trial"":1,""time"":3782}]",NA,NA,NA,NA,NA,2,#3386FF,#D89F1C,0,0,0,40,0,1918.199999988079,39,0,446,0,1,experiment,NA,NA,1,0.3,0.7,3,2,184,5,NA
fcp-trial,219,1270985,0.0-194.0-0.0,voc_e2,11743,"[{""event"":""fullscreenenter"",""trial"":1,""time"":3782}]",NA,NA,NA,NA,NA,6,#1CD855,#FA92F8,0,10,0,38,1,127.19999998807907,37,1,2083.4000000059605,0,0,experiment,NA,NA,0,0.1,0.9,1,0,185,5,NA
fcp-trial,220,1277557,0.0-195.0-0.0,voc_e2,11743,"[{""event"":""fullscreenenter"",""trial"":1,""time"":3782}]",NA,NA,NA,NA,NA,0,#3386FF,#D89F1C,0,10,0,38,1,4057.9000000059605,39,0,1001.4000000059605,10,1,experiment,NA,NA,1,0.3,0.7,3,2,186,5,NA
fcp-trial,221,1281769,0.0-196.0-0.0,voc_e2,11743,"[{""event"":""fullscreenenter"",""trial"":1,""time"":3782}]",NA,NA,NA,NA,NA,3,#1CD855,#FA92F8,0,10,0,40,0,2170.600000023842,37,1,527.5,0,0,experiment,NA,NA,0,0.1,0.9,1,0,187,5,NA
fcp-trial,222,1286106,0.0-197.0-0.0,voc_e2,11743,"[{""event"":""fullscreenenter"",""trial"":1,""time"":3782}]",NA,NA,NA,NA,NA,2,#D8271C,#741CD8,10,0,1,38,1,1973.6000000238419,39,0,847.9000000059605,0,0,experiment,NA,NA,2,0.5,0.5,4,5,188,5,NA
fcp-trial,223,1292803,0.0-198.0-0.0,voc_e2,11743,"[{""event"":""fullscreenenter"",""trial"":1,""time"":3782}]",NA,NA,NA,NA,NA,0,#D8271C,#741CD8,10,10,1,40,0,3591,39,0,1596.0999999940395,10,0,experiment,NA,NA,2,0.5,0.5,4,5,189,5,NA
fcp-trial,224,1298878,0.0-199.0-0.0,voc_e2,11743,"[{""event"":""fullscreenenter"",""trial"":1,""time"":3782}]",NA,NA,NA,NA,NA,2,#FA92F8,#1CD855,10,0,1,40,0,2965.0999999940395,39,0,1595.0999999940395,0,0,experiment,NA,NA,0,0.9,0.1,0,1,190,5,NA
fcp-trial,225,1304084,0.0-200.0-0.0,voc_e2,11743,"[{""event"":""fullscreenenter"",""trial"":1,""time"":3782}]",NA,NA,NA,NA,NA,0,#3386FF,#D89F1C,0,10,0,38,1,2366.699999988079,37,1,1329.9000000059605,0,0,experiment,NA,NA,1,0.3,0.7,3,2,191,5,NA
fcp-trial,226,1307885,0.0-201.0-0.0,voc_e2,11743,"[{""event"":""fullscreenenter"",""trial"":1,""time"":3782}]",NA,NA,NA,NA,NA,4,#3386FF,#D89F1C,0,0,0,38,1,1976.199999988079,39,0,312.40000000596046,0,1,experiment,NA,NA,1,0.3,0.7,3,2,192,5,NA
fcp-trial,227,1311952,0.0-202.0-0.0,voc_e2,11743,"[{""event"":""fullscreenenter"",""trial"":1,""time"":3782}]",NA,NA,NA,NA,NA,6,#D89F1C,#3386FF,10,0,1,40,0,1493.300000011921,39,0,1061.199999988079,0,0,experiment,NA,NA,1,0.7,0.3,2,3,193,5,NA
fcp-trial,228,1317937,0.0-203.0-0.0,voc_e2,11743,"[{""event"":""fullscreenenter"",""trial"":1,""time"":3782}]",NA,NA,NA,NA,NA,3,#741CD8,#D8271C,0,0,0,38,1,2698.7000000178814,39,0,1769.9000000059605,0,1,experiment,NA,NA,2,0.5,0.5,5,4,194,5,NA
fcp-trial,229,1324089,0.0-204.0-0.0,voc_e2,11743,"[{""event"":""fullscreenenter"",""trial"":1,""time"":3782}]",NA,NA,NA,NA,NA,0,#1CD855,#FA92F8,0,10,0,38,1,4010.9000000059605,37,1,625.3000000119209,0,0,experiment,NA,NA,0,0.1,0.9,1,0,195,5,NA
fcp-trial,230,1331313,0.0-205.0-0.0,voc_e2,11743,"[{""event"":""fullscreenenter"",""trial"":1,""time"":3782}]",NA,NA,NA,NA,NA,4,#741CD8,#D8271C,10,0,0,40,0,4090,39,0,1622.7000000178814,0,1,experiment,NA,NA,2,0.5,0.5,5,4,196,5,NA
fcp-trial,231,1336011,0.0-206.0-0.0,voc_e2,11743,"[{""event"":""fullscreenenter"",""trial"":1,""time"":3782}]",NA,NA,NA,NA,NA,3,#FA92F8,#1CD855,10,10,1,40,0,2281.2000000178814,37,1,908.5,10,1,experiment,NA,NA,0,0.9,0.1,0,1,197,5,NA
fcp-trial,232,1340619,0.0-207.0-0.0,voc_e2,11743,"[{""event"":""fullscreenenter"",""trial"":1,""time"":3782}]",NA,NA,NA,NA,NA,3,#D89F1C,#3386FF,0,0,1,38,1,2441.699999988079,39,0,655.3999999761581,0,0,experiment,NA,NA,1,0.7,0.3,2,3,198,5,NA
fcp-trial,233,1348919,0.0-208.0-0.0,voc_e2,11743,"[{""event"":""fullscreenenter"",""trial"":1,""time"":3782}]",NA,NA,NA,NA,NA,0,#D8271C,#741CD8,0,10,1,38,1,6246.300000011921,37,1,543.5,0,1,experiment,NA,NA,2,0.5,0.5,4,5,199,5,NA
fcp-trial,234,1353739,0.0-209.0-0.0,voc_e2,11743,"[{""event"":""fullscreenenter"",""trial"":1,""time"":3782}]",NA,NA,NA,NA,NA,1,#3386FF,#D89F1C,10,10,0,38,1,2459.899999976158,37,1,849.5,10,0,experiment,NA,NA,1,0.3,0.7,3,2,200,5,NA
fcp-trial,235,1358340,0.0-210.0-0.0,voc_e2,11743,"[{""event"":""fullscreenenter"",""trial"":1,""time"":3782}]",NA,NA,NA,NA,NA,4,#FA92F8,#1CD855,10,0,1,38,1,2624.5,39,0,465.90000000596046,0,0,experiment,NA,NA,0,0.9,0.1,0,1,201,5,NA
fcp-trial,236,1362488,0.0-211.0-0.0,voc_e2,11743,"[{""event"":""fullscreenenter"",""trial"":1,""time"":3782}]",NA,NA,NA,NA,NA,6,#D8271C,#741CD8,10,10,1,40,0,1747.7999999821186,39,0,892.8999999761581,10,0,experiment,NA,NA,2,0.5,0.5,4,5,202,5,NA
fcp-trial,237,1366494,0.0-212.0-0.0,voc_e2,11743,"[{""event"":""fullscreenenter"",""trial"":1,""time"":3782}]",NA,NA,NA,NA,NA,1,#1CD855,#FA92F8,0,10,0,38,1,1812.0999999940395,39,0,685,10,1,experiment,NA,NA,0,0.1,0.9,1,0,203,5,NA
fcp-trial,238,1370688,0.0-213.0-0.0,voc_e2,11743,"[{""event"":""fullscreenenter"",""trial"":1,""time"":3782}]",NA,NA,NA,NA,NA,2,#D8271C,#741CD8,10,0,1,40,0,1890.0999999940395,39,0,791.4000000059605,0,0,experiment,NA,NA,2,0.5,0.5,4,5,204,5,NA
fcp-trial,239,1374706,0.0-214.0-0.0,voc_e2,11743,"[{""event"":""fullscreenenter"",""trial"":1,""time"":3782}]",NA,NA,NA,NA,NA,5,#3386FF,#D89F1C,10,10,0,38,1,1450.5,37,1,1052.9000000059605,10,0,experiment,NA,NA,1,0.3,0.7,3,2,205,5,NA
fcp-trial,240,1379627,0.0-215.0-0.0,voc_e2,11743,"[{""event"":""fullscreenenter"",""trial"":1,""time"":3782}]",NA,NA,NA,NA,NA,5,#D8271C,#741CD8,0,10,1,40,0,2750.0999999940395,39,0,659.8000000119209,10,0,experiment,NA,NA,2,0.5,0.5,4,5,206,5,NA
fcp-trial,241,1386109,0.0-216.0-0.0,voc_e2,11743,"[{""event"":""fullscreenenter"",""trial"":1,""time"":3782}]",NA,NA,NA,NA,NA,5,#FA92F8,#1CD855,10,10,1,40,0,4206.5,39,0,766.1999999880791,10,0,experiment,NA,NA,0,0.9,0.1,0,1,207,5,NA
fcp-trial,242,1390089,0.0-217.0-0.0,voc_e2,11743,"[{""event"":""fullscreenenter"",""trial"":1,""time"":3782}]",NA,NA,NA,NA,NA,2,#D89F1C,#3386FF,0,0,1,40,0,1786.5,39,0,685,0,0,experiment,NA,NA,1,0.7,0.3,2,3,208,5,NA
fcp-trial,243,1396544,0.0-218.0-0.0,voc_e2,11743,"[{""event"":""fullscreenenter"",""trial"":1,""time"":3782}]",NA,NA,NA,NA,NA,1,#D8271C,#741CD8,10,10,1,38,1,3806.300000011921,37,1,1137.800000011921,10,1,experiment,NA,NA,2,0.5,0.5,4,5,209,5,NA
fcp-trial,244,1401537,0.0-219.0-0.0,voc_e2,11743,"[{""event"":""fullscreenenter"",""trial"":1,""time"":3782}]",NA,NA,NA,NA,NA,6,#1CD855,#FA92F8,0,10,0,40,0,1914.1000000238419,37,1,1567.5,0,0,experiment,NA,NA,0,0.1,0.9,1,0,210,5,NA
audio-instructions,245,1471694,0.0-220.0,voc_e2,11743,"[{""event"":""fullscreenenter"",""trial"":1,""time"":3782}]",NA,65590.69999998808,static/audio/pause.wav,NA,0,NA,NA,NA,NA,NA,NA,NA,NA,NA,NA,NA,NA,NA,NA,NA,NA,NA,NA,NA,NA,NA,NA,NA,NA,NA
fcp-trial,246,1476253,0.0-221.0-0.0,voc_e2,11743,"[{""event"":""fullscreenenter"",""trial"":1,""time"":3782}]",NA,NA,NA,NA,NA,4,#1CD855,#FA92F8,0,10,0,40,0,1998.199999988079,37,1,1047.7000000178814,0,0,experiment,NA,NA,0,0.1,0.9,1,0,211,5,NA
fcp-trial,247,1481755,0.0-222.0-0.0,voc_e2,11743,"[{""event"":""fullscreenenter"",""trial"":1,""time"":3782}]",NA,NA,NA,NA,NA,3,#3386FF,#D89F1C,0,0,0,40,0,3567.199999988079,39,0,427.39999997615814,0,1,experiment,NA,NA,1,0.3,0.7,3,2,212,5,NA
fcp-trial,248,1486005,0.0-223.0-0.0,voc_e2,11743,"[{""event"":""fullscreenenter"",""trial"":1,""time"":3782}]",NA,NA,NA,NA,NA,1,#1CD855,#FA92F8,0,0,0,38,1,2136.5999999940395,37,1,600.9000000059605,0,0,experiment,NA,NA,0,0.1,0.9,1,0,213,5,NA
fcp-trial,249,1489771,0.0-224.0-0.0,voc_e2,11743,"[{""event"":""fullscreenenter"",""trial"":1,""time"":3782}]",NA,NA,NA,NA,NA,0,#D89F1C,#3386FF,0,0,1,40,0,943.6999999880791,37,1,1312.199999988079,0,1,experiment,NA,NA,1,0.7,0.3,2,3,214,5,NA
fcp-trial,250,1493919,0.0-225.0-0.0,voc_e2,11743,"[{""event"":""fullscreenenter"",""trial"":1,""time"":3782}]",NA,NA,NA,NA,NA,4,#741CD8,#D8271C,10,0,0,38,1,276.19999998807907,39,0,2359,0,1,experiment,NA,NA,2,0.5,0.5,5,4,215,5,NA
fcp-trial,251,1497188,0.0-226.0-0.0,voc_e2,11743,"[{""event"":""fullscreenenter"",""trial"":1,""time"":3782}]",NA,NA,NA,NA,NA,6,#D8271C,#741CD8,0,10,1,40,0,1203.5,37,1,557.1999999880791,0,1,experiment,NA,NA,2,0.5,0.5,4,5,216,5,NA
fcp-trial,252,1501014,0.0-227.0-0.0,voc_e2,11743,"[{""event"":""fullscreenenter"",""trial"":1,""time"":3782}]",NA,NA,NA,NA,NA,2,#FA92F8,#1CD855,10,0,1,40,0,1277.0999999940395,37,1,1038.5,10,1,experiment,NA,NA,0,0.9,0.1,0,1,217,5,NA
fcp-trial,253,1504157,0.0-228.0-0.0,voc_e2,11743,"[{""event"":""fullscreenenter"",""trial"":1,""time"":3782}]",NA,NA,NA,NA,NA,3,#FA92F8,#1CD855,10,0,1,38,1,1153.5999999940395,39,0,479.60000002384186,0,0,experiment,NA,NA,0,0.9,0.1,0,1,218,5,NA
fcp-trial,254,1508240,0.0-229.0-0.0,voc_e2,11743,"[{""event"":""fullscreenenter"",""trial"":1,""time"":3782}]",NA,NA,NA,NA,NA,6,#D89F1C,#3386FF,10,10,1,40,0,2035.199999988079,37,1,535.5,10,1,experiment,NA,NA,1,0.7,0.3,2,3,219,5,NA
fcp-trial,255,1513138,0.0-230.0-0.0,voc_e2,11743,"[{""event"":""fullscreenenter"",""trial"":1,""time"":3782}]",NA,NA,NA,NA,NA,2,#D8271C,#741CD8,10,10,1,38,1,2973.2000000178814,39,0,417,10,0,experiment,NA,NA,2,0.5,0.5,4,5,220,5,NA
fcp-trial,256,1516262,0.0-231.0-0.0,voc_e2,11743,"[{""event"":""fullscreenenter"",""trial"":1,""time"":3782}]",NA,NA,NA,NA,NA,2,#D89F1C,#3386FF,10,0,1,40,0,1035,37,1,578.9000000059605,10,1,experiment,NA,NA,1,0.7,0.3,2,3,221,5,NA
fcp-trial,257,1520760,0.0-232.0-0.0,voc_e2,11743,"[{""event"":""fullscreenenter"",""trial"":1,""time"":3782}]",NA,NA,NA,NA,NA,5,#D89F1C,#3386FF,0,10,1,40,0,2150.0999999940395,37,1,835.3000000119209,0,1,experiment,NA,NA,1,0.7,0.3,2,3,222,5,NA
fcp-trial,258,1524243,0.0-233.0-0.0,voc_e2,11743,"[{""event"":""fullscreenenter"",""trial"":1,""time"":3782}]",NA,NA,NA,NA,NA,5,#1CD855,#FA92F8,0,10,0,40,0,1657.2999999821186,37,1,314,0,0,experiment,NA,NA,0,0.1,0.9,1,0,223,5,NA
fcp-trial,259,1528435,0.0-234.0-0.0,voc_e2,11743,"[{""event"":""fullscreenenter"",""trial"":1,""time"":3782}]",NA,NA,NA,NA,NA,0,#741CD8,#D8271C,10,0,0,40,0,1603.800000011921,37,1,1077,10,0,experiment,NA,NA,2,0.5,0.5,5,4,224,5,NA
fcp-trial,260,1532539,0.0-235.0-0.0,voc_e2,11743,"[{""event"":""fullscreenenter"",""trial"":1,""time"":3782}]",NA,NA,NA,NA,NA,1,#741CD8,#D8271C,10,0,0,40,0,1451.7999999821186,39,0,1142.9000000059605,0,1,experiment,NA,NA,2,0.5,0.5,5,4,225,5,NA
fcp-trial,261,1535724,0.0-236.0-0.0,voc_e2,11743,"[{""event"":""fullscreenenter"",""trial"":1,""time"":3782}]",NA,NA,NA,NA,NA,6,#FA92F8,#1CD855,10,0,1,38,1,1407.9000000059605,37,1,266.59999999403954,10,1,experiment,NA,NA,0,0.9,0.1,0,1,226,6,NA
fcp-trial,262,1540077,0.0-237.0-0.0,voc_e2,11743,"[{""event"":""fullscreenenter"",""trial"":1,""time"":3782}]",NA,NA,NA,NA,NA,1,#D89F1C,#3386FF,10,10,1,38,1,2460.199999988079,37,1,386.5,10,1,experiment,NA,NA,1,0.7,0.3,2,3,227,6,NA
fcp-trial,263,1544857,0.0-238.0-0.0,voc_e2,11743,"[{""event"":""fullscreenenter"",""trial"":1,""time"":3782}]",NA,NA,NA,NA,NA,4,#3386FF,#D89F1C,10,10,0,38,1,2952.2999999821186,37,1,319.09999999403954,10,0,experiment,NA,NA,1,0.3,0.7,3,2,228,6,NA
fcp-trial,264,1548114,0.0-239.0-0.0,voc_e2,11743,"[{""event"":""fullscreenenter"",""trial"":1,""time"":3782}]",NA,NA,NA,NA,NA,3,#D8271C,#741CD8,10,0,1,38,1,1393.7999999821186,39,0,353,0,0,experiment,NA,NA,2,0.5,0.5,4,5,229,6,NA
fcp-trial,265,1552206,0.0-240.0-0.0,voc_e2,11743,"[{""event"":""fullscreenenter"",""trial"":1,""time"":3782}]",NA,NA,NA,NA,NA,5,#D8271C,#741CD8,10,0,1,38,1,2306.5,37,1,276.09999999403954,10,1,experiment,NA,NA,2,0.5,0.5,4,5,230,6,NA
fcp-trial,266,1556061,0.0-241.0-0.0,voc_e2,11743,"[{""event"":""fullscreenenter"",""trial"":1,""time"":3782}]",NA,NA,NA,NA,NA,0,#FA92F8,#1CD855,10,0,1,40,0,1986.800000011921,37,1,358.09999999403954,10,1,experiment,NA,NA,0,0.9,0.1,0,1,231,6,NA
fcp-trial,267,1561076,0.0-242.0-0.0,voc_e2,11743,"[{""event"":""fullscreenenter"",""trial"":1,""time"":3782}]",NA,NA,NA,NA,NA,1,#D8271C,#741CD8,10,10,1,38,1,2705,37,1,799.9000000059605,10,1,experiment,NA,NA,2,0.5,0.5,4,5,232,6,NA
fcp-trial,268,1564482,0.0-243.0-0.0,voc_e2,11743,"[{""event"":""fullscreenenter"",""trial"":1,""time"":3782}]",NA,NA,NA,NA,NA,6,#FA92F8,#1CD855,10,0,1,38,1,1433.4000000059605,37,1,459.2000000178814,10,1,experiment,NA,NA,0,0.9,0.1,0,1,233,6,NA
fcp-trial,269,1571334,0.0-244.0-0.0,voc_e2,11743,"[{""event"":""fullscreenenter"",""trial"":1,""time"":3782}]",NA,NA,NA,NA,NA,4,#FA92F8,#1CD855,10,10,1,40,0,1286.5,39,0,4052.4000000059605,10,0,experiment,NA,NA,0,0.9,0.1,0,1,234,6,NA
fcp-trial,270,1575534,0.0-245.0-0.0,voc_e2,11743,"[{""event"":""fullscreenenter"",""trial"":1,""time"":3782}]",NA,NA,NA,NA,NA,6,#D8271C,#741CD8,10,0,1,40,0,1698.800000011921,39,0,988,0,0,experiment,NA,NA,2,0.5,0.5,4,5,235,6,NA
fcp-trial,271,1579132,0.0-246.0-0.0,voc_e2,11743,"[{""event"":""fullscreenenter"",""trial"":1,""time"":3782}]",NA,NA,NA,NA,NA,5,#3386FF,#D89F1C,0,10,0,38,1,1496.300000011921,37,1,588.4000000059605,0,0,experiment,NA,NA,1,0.3,0.7,3,2,236,6,NA
fcp-trial,272,1589438,0.0-247.0-0.0,voc_e2,11743,"[{""event"":""fullscreenenter"",""trial"":1,""time"":3782}]",NA,NA,NA,NA,NA,3,#741CD8,#D8271C,10,0,0,40,0,8169.200000017881,39,0,624,0,1,experiment,NA,NA,2,0.5,0.5,5,4,237,6,NA
fcp-trial,273,1596812,0.0-248.0-0.0,voc_e2,11743,"[{""event"":""fullscreenenter"",""trial"":1,""time"":3782}]",NA,NA,NA,NA,NA,2,#741CD8,#D8271C,10,0,0,40,0,4583.200000017881,37,1,1278.300000011921,10,0,experiment,NA,NA,2,0.5,0.5,5,4,238,6,NA
fcp-trial,274,1602511,0.0-249.0-0.0,voc_e2,11743,"[{""event"":""fullscreenenter"",""trial"":1,""time"":3782}]",NA,NA,NA,NA,NA,3,#1CD855,#FA92F8,0,10,0,38,1,18,37,1,4171,0,0,experiment,NA,NA,0,0.1,0.9,1,0,239,6,NA
fcp-trial,275,1606322,0.0-250.0-0.0,voc_e2,11743,"[{""event"":""fullscreenenter"",""trial"":1,""time"":3782}]",NA,NA,NA,NA,NA,4,#3386FF,#D89F1C,10,10,0,38,1,1520.699999988079,37,1,782,10,0,experiment,NA,NA,1,0.3,0.7,3,2,240,6,NA
fcp-trial,276,1609966,0.0-251.0-0.0,voc_e2,11743,"[{""event"":""fullscreenenter"",""trial"":1,""time"":3782}]",NA,NA,NA,NA,NA,3,#3386FF,#D89F1C,10,10,0,40,0,1431.4000000059605,37,1,703,10,0,experiment,NA,NA,1,0.3,0.7,3,2,241,6,NA
fcp-trial,277,1613701,0.0-252.0-0.0,voc_e2,11743,"[{""event"":""fullscreenenter"",""trial"":1,""time"":3782}]",NA,NA,NA,NA,NA,0,#3386FF,#D89F1C,10,0,0,38,1,1966.5,37,1,254.2999999821186,10,0,experiment,NA,NA,1,0.3,0.7,3,2,242,6,NA
fcp-trial,278,1617376,0.0-253.0-0.0,voc_e2,11743,"[{""event"":""fullscreenenter"",""trial"":1,""time"":3782}]",NA,NA,NA,NA,NA,4,#D8271C,#741CD8,0,10,1,38,1,1534.5,37,1,624.9000000059605,0,1,experiment,NA,NA,2,0.5,0.5,4,5,243,6,NA
fcp-trial,279,1623070,0.0-254.0-0.0,voc_e2,11743,"[{""event"":""fullscreenenter"",""trial"":1,""time"":3782}]",NA,NA,NA,NA,NA,5,#FA92F8,#1CD855,10,0,1,40,0,1255.7999999821186,39,0,2926.199999988079,0,0,experiment,NA,NA,0,0.9,0.1,0,1,244,6,NA
fcp-trial,280,1627846,0.0-255.0-0.0,voc_e2,11743,"[{""event"":""fullscreenenter"",""trial"":1,""time"":3782}]",NA,NA,NA,NA,NA,0,#D8271C,#741CD8,0,0,1,38,1,2530.300000011921,39,0,737.6999999880791,0,0,experiment,NA,NA,2,0.5,0.5,4,5,245,6,NA
fcp-trial,281,1632817,0.0-256.0-0.0,voc_e2,11743,"[{""event"":""fullscreenenter"",""trial"":1,""time"":3782}]",NA,NA,NA,NA,NA,2,#FA92F8,#1CD855,10,0,1,38,1,3054,37,1,405.40000000596046,10,1,experiment,NA,NA,0,0.9,0.1,0,1,246,6,NA
fcp-trial,282,1636533,0.0-257.0-0.0,voc_e2,11743,"[{""event"":""fullscreenenter"",""trial"":1,""time"":3782}]",NA,NA,NA,NA,NA,1,#D89F1C,#3386FF,10,0,1,38,1,1737.2000000178814,37,1,473.5,10,1,experiment,NA,NA,1,0.7,0.3,2,3,247,6,NA
fcp-trial,283,1641036,0.0-258.0-0.0,voc_e2,11743,"[{""event"":""fullscreenenter"",""trial"":1,""time"":3782}]",NA,NA,NA,NA,NA,5,#D8271C,#741CD8,0,0,1,38,1,2360.300000011921,39,0,631.5,0,0,experiment,NA,NA,2,0.5,0.5,4,5,248,6,NA
fcp-trial,284,1644255,0.0-259.0-0.0,voc_e2,11743,"[{""event"":""fullscreenenter"",""trial"":1,""time"":3782}]",NA,NA,NA,NA,NA,0,#FA92F8,#1CD855,10,0,1,38,1,1438.7000000178814,37,1,265.69999998807907,10,1,experiment,NA,NA,0,0.9,0.1,0,1,249,6,NA
fcp-trial,285,1648264,0.0-260.0-0.0,voc_e2,11743,"[{""event"":""fullscreenenter"",""trial"":1,""time"":3782}]",NA,NA,NA,NA,NA,2,#3386FF,#D89F1C,0,10,0,38,1,1244.300000011921,37,1,1257.9000000059605,0,0,experiment,NA,NA,1,0.3,0.7,3,2,250,6,NA
fcp-trial,286,1651398,0.0-261.0-0.0,voc_e2,11743,"[{""event"":""fullscreenenter"",""trial"":1,""time"":3782}]",NA,NA,NA,NA,NA,6,#D89F1C,#3386FF,10,0,1,38,1,1371.5,37,1,251.2999999821186,10,1,experiment,NA,NA,1,0.7,0.3,2,3,251,6,NA
fcp-trial,287,1655343,0.0-262.0-0.0,voc_e2,11743,"[{""event"":""fullscreenenter"",""trial"":1,""time"":3782}]",NA,NA,NA,NA,NA,1,#FA92F8,#1CD855,10,0,1,38,1,1973.7000000178814,37,1,458.89999997615814,10,1,experiment,NA,NA,0,0.9,0.1,0,1,252,6,NA
fcp-trial,288,1659026,0.0-263.0-0.0,voc_e2,11743,"[{""event"":""fullscreenenter"",""trial"":1,""time"":3782}]",NA,NA,NA,NA,NA,0,#1CD855,#FA92F8,0,0,0,38,1,1855.9000000059605,37,1,317.7000000178814,0,0,experiment,NA,NA,0,0.1,0.9,1,0,253,6,NA
fcp-trial,289,1662159,0.0-264.0-0.0,voc_e2,11743,"[{""event"":""fullscreenenter"",""trial"":1,""time"":3782}]",NA,NA,NA,NA,NA,3,#1CD855,#FA92F8,0,10,0,38,1,1279.5,37,1,344.40000000596046,0,0,experiment,NA,NA,0,0.1,0.9,1,0,254,6,NA
fcp-trial,290,1665888,0.0-265.0-0.0,voc_e2,11743,"[{""event"":""fullscreenenter"",""trial"":1,""time"":3782}]",NA,NA,NA,NA,NA,6,#3386FF,#D89F1C,10,10,0,38,1,1966.5,37,1,253.30000001192093,10,0,experiment,NA,NA,1,0.3,0.7,3,2,255,6,NA
fcp-trial,291,1668901,0.0-266.0-0.0,voc_e2,11743,"[{""event"":""fullscreenenter"",""trial"":1,""time"":3782}]",NA,NA,NA,NA,NA,1,#FA92F8,#1CD855,10,0,1,38,1,1193.4000000059605,37,1,308,10,1,experiment,NA,NA,0,0.9,0.1,0,1,256,6,NA
fcp-trial,292,1672897,0.0-267.0-0.0,voc_e2,11743,"[{""event"":""fullscreenenter"",""trial"":1,""time"":3782}]",NA,NA,NA,NA,NA,3,#3386FF,#D89F1C,0,10,0,40,0,2000.9000000059605,39,0,481.59999999403954,10,1,experiment,NA,NA,1,0.3,0.7,3,2,257,6,NA
fcp-trial,293,1677000,0.0-268.0-0.0,voc_e2,11743,"[{""event"":""fullscreenenter"",""trial"":1,""time"":3782}]",NA,NA,NA,NA,NA,5,#D8271C,#741CD8,0,10,1,40,0,2173.7000000178814,37,1,420.7999999821186,0,1,experiment,NA,NA,2,0.5,0.5,4,5,258,6,NA
fcp-trial,294,1680571,0.0-269.0-0.0,voc_e2,11743,"[{""event"":""fullscreenenter"",""trial"":1,""time"":3782}]",NA,NA,NA,NA,NA,5,#3386FF,#D89F1C,10,10,0,38,1,1240.7999999821186,37,1,821.4000000059605,10,0,experiment,NA,NA,1,0.3,0.7,3,2,259,6,NA
fcp-trial,295,1685348,0.0-270.0-0.0,voc_e2,11743,"[{""event"":""fullscreenenter"",""trial"":1,""time"":3782}]",NA,NA,NA,NA,NA,6,#741CD8,#D8271C,10,10,0,40,0,2814.199999988079,39,0,453.09999999403954,10,1,experiment,NA,NA,2,0.5,0.5,5,4,260,6,NA
fcp-trial,296,1689610,0.0-271.0-0.0,voc_e2,11743,"[{""event"":""fullscreenenter"",""trial"":1,""time"":3782}]",NA,NA,NA,NA,NA,4,#1CD855,#FA92F8,0,10,0,38,1,2467.5,37,1,281.10000002384186,0,0,experiment,NA,NA,0,0.1,0.9,1,0,261,6,NA
fcp-trial,297,1703742,0.0-272.0-0.0,voc_e2,11743,"[{""event"":""fullscreenenter"",""trial"":1,""time"":3782}]",NA,NA,NA,NA,NA,3,#D8271C,#741CD8,0,0,1,38,1,8385,39,0,4234.0999999940395,0,0,experiment,NA,NA,2,0.5,0.5,4,5,262,6,NA
fcp-trial,298,1712377,0.0-273.0-0.0,voc_e2,11743,"[{""event"":""fullscreenenter"",""trial"":1,""time"":3782}]",NA,NA,NA,NA,NA,4,#3386FF,#D89F1C,0,10,0,40,0,5032.300000011921,37,1,2093.300000011921,0,0,experiment,NA,NA,1,0.3,0.7,3,2,263,6,NA
fcp-trial,299,1715660,0.0-274.0-0.0,voc_e2,11743,"[{""event"":""fullscreenenter"",""trial"":1,""time"":3782}]",NA,NA,NA,NA,NA,0,#D89F1C,#3386FF,10,0,1,38,1,1316.5,39,0,451.2999999821186,0,0,experiment,NA,NA,1,0.7,0.3,2,3,264,6,NA
fcp-trial,300,1721407,0.0-275.0-0.0,voc_e2,11743,"[{""event"":""fullscreenenter"",""trial"":1,""time"":3782}]",NA,NA,NA,NA,NA,2,#D8271C,#741CD8,0,0,1,38,1,3847.800000011921,37,1,386.19999998807907,0,1,experiment,NA,NA,2,0.5,0.5,4,5,265,6,NA
fcp-trial,301,1725569,0.0-276.0-0.0,voc_e2,11743,"[{""event"":""fullscreenenter"",""trial"":1,""time"":3782}]",NA,NA,NA,NA,NA,2,#FA92F8,#1CD855,10,0,1,38,1,2398.9000000059605,37,1,254.30000001192093,10,1,experiment,NA,NA,0,0.9,0.1,0,1,266,6,NA
fcp-trial,302,1732587,0.0-277.0-0.0,voc_e2,11743,"[{""event"":""fullscreenenter"",""trial"":1,""time"":3782}]",NA,NA,NA,NA,NA,0,#741CD8,#D8271C,10,10,0,38,1,4955,37,1,553.4000000059605,10,0,experiment,NA,NA,2,0.5,0.5,5,4,267,6,NA
fcp-trial,303,1735636,0.0-278.0-0.0,voc_e2,11743,"[{""event"":""fullscreenenter"",""trial"":1,""time"":3782}]",NA,NA,NA,NA,NA,5,#FA92F8,#1CD855,10,0,1,38,1,1148.5,37,1,386.7999999821186,10,1,experiment,NA,NA,0,0.9,0.1,0,1,268,6,NA
fcp-trial,304,1739243,0.0-279.0-0.0,voc_e2,11743,"[{""event"":""fullscreenenter"",""trial"":1,""time"":3782}]",NA,NA,NA,NA,NA,2,#D89F1C,#3386FF,10,0,1,38,1,1810.4000000059605,39,0,287,0,0,experiment,NA,NA,1,0.7,0.3,2,3,269,6,NA
fcp-trial,305,1742166,0.0-280.0-0.0,voc_e2,11743,"[{""event"":""fullscreenenter"",""trial"":1,""time"":3782}]",NA,NA,NA,NA,NA,1,#741CD8,#D8271C,10,10,0,40,0,964.6999999880791,37,1,443.7999999821186,10,0,experiment,NA,NA,2,0.5,0.5,5,4,270,6,NA
fcp-trial,306,1746439,0.0-281.0-0.0,voc_e2,11743,"[{""event"":""fullscreenenter"",""trial"":1,""time"":3782}]",NA,NA,NA,NA,NA,6,#FA92F8,#1CD855,10,0,1,40,0,2323,39,0,435.5,0,0,experiment,NA,NA,0,0.9,0.1,0,1,271,7,NA
fcp-trial,307,1752157,0.0-282.0-0.0,voc_e2,11743,"[{""event"":""fullscreenenter"",""trial"":1,""time"":3782}]",NA,NA,NA,NA,NA,1,#3386FF,#D89F1C,0,10,0,38,1,2737.699999988079,39,0,1471.300000011921,10,1,experiment,NA,NA,1,0.3,0.7,3,2,272,7,NA
fcp-trial,308,1755914,0.0-283.0-0.0,voc_e2,11743,"[{""event"":""fullscreenenter"",""trial"":1,""time"":3782}]",NA,NA,NA,NA,NA,4,#D8271C,#741CD8,10,10,1,40,0,1862,37,1,387.09999999403954,10,1,experiment,NA,NA,2,0.5,0.5,4,5,273,7,NA
fcp-trial,309,1760644,0.0-284.0-0.0,voc_e2,11743,"[{""event"":""fullscreenenter"",""trial"":1,""time"":3782}]",NA,NA,NA,NA,NA,5,#FA92F8,#1CD855,10,0,1,38,1,2401.5,37,1,815.0999999940395,10,1,experiment,NA,NA,0,0.9,0.1,0,1,274,7,NA
fcp-trial,310,1765461,0.0-285.0-0.0,voc_e2,11743,"[{""event"":""fullscreenenter"",""trial"":1,""time"":3782}]",NA,NA,NA,NA,NA,1,#3386FF,#D89F1C,10,10,0,38,1,1608.5,39,0,1695,10,1,experiment,NA,NA,1,0.3,0.7,3,2,275,7,NA
fcp-trial,311,1769342,0.0-286.0-0.0,voc_e2,11743,"[{""event"":""fullscreenenter"",""trial"":1,""time"":3782}]",NA,NA,NA,NA,NA,4,#D8271C,#741CD8,0,10,1,38,1,1344.4000000059605,39,0,1020.9000000059605,10,0,experiment,NA,NA,2,0.5,0.5,4,5,276,7,NA
fcp-trial,312,1774540,0.0-287.0-0.0,voc_e2,11743,"[{""event"":""fullscreenenter"",""trial"":1,""time"":3782}]",NA,NA,NA,NA,NA,0,#741CD8,#D8271C,0,10,0,38,1,3370.9000000059605,39,0,314.7000000178814,10,1,experiment,NA,NA,2,0.5,0.5,5,4,277,7,NA
fcp-trial,313,1779036,0.0-288.0-0.0,voc_e2,11743,"[{""event"":""fullscreenenter"",""trial"":1,""time"":3782}]",NA,NA,NA,NA,NA,0,#FA92F8,#1CD855,10,0,1,38,1,1587.0999999940395,37,1,1398.5,10,1,experiment,NA,NA,0,0.9,0.1,0,1,278,7,NA
fcp-trial,314,1782871,0.0-289.0-0.0,voc_e2,11743,"[{""event"":""fullscreenenter"",""trial"":1,""time"":3782}]",NA,NA,NA,NA,NA,4,#FA92F8,#1CD855,10,0,1,38,1,1610,37,1,714.5,10,1,experiment,NA,NA,0,0.9,0.1,0,1,279,7,NA
fcp-trial,315,1786238,0.0-290.0-0.0,voc_e2,11743,"[{""event"":""fullscreenenter"",""trial"":1,""time"":3782}]",NA,NA,NA,NA,NA,6,#D89F1C,#3386FF,10,0,1,38,1,1507.5,39,0,347.80000001192093,0,0,experiment,NA,NA,1,0.7,0.3,2,3,280,7,NA
fcp-trial,316,1789163,0.0-291.0-0.0,voc_e2,11743,"[{""event"":""fullscreenenter"",""trial"":1,""time"":3782}]",NA,NA,NA,NA,NA,1,#741CD8,#D8271C,10,0,0,38,1,1151.4000000059605,37,1,263.39999997615814,10,0,experiment,NA,NA,2,0.5,0.5,5,4,281,7,NA
fcp-trial,317,1792833,0.0-292.0-0.0,voc_e2,11743,"[{""event"":""fullscreenenter"",""trial"":1,""time"":3782}]",NA,NA,NA,NA,NA,4,#3386FF,#D89F1C,0,10,0,40,0,1755.5999999940395,39,0,407,10,1,experiment,NA,NA,1,0.3,0.7,3,2,282,7,NA
fcp-trial,318,1797054,0.0-293.0-0.0,voc_e2,11743,"[{""event"":""fullscreenenter"",""trial"":1,""time"":3782}]",NA,NA,NA,NA,NA,2,#FA92F8,#1CD855,10,0,1,38,1,1975.0999999940395,37,1,735.9000000059605,10,1,experiment,NA,NA,0,0.9,0.1,0,1,283,7,NA
fcp-trial,319,1801383,0.0-294.0-0.0,voc_e2,11743,"[{""event"":""fullscreenenter"",""trial"":1,""time"":3782}]",NA,NA,NA,NA,NA,6,#D8271C,#741CD8,0,10,1,40,0,2141.5999999940395,39,0,679.5999999940395,10,0,experiment,NA,NA,2,0.5,0.5,4,5,284,7,NA
fcp-trial,320,1806744,0.0-295.0-0.0,voc_e2,11743,"[{""event"":""fullscreenenter"",""trial"":1,""time"":3782}]",NA,NA,NA,NA,NA,2,#D89F1C,#3386FF,10,0,1,38,1,2088,37,1,1757,10,1,experiment,NA,NA,1,0.7,0.3,2,3,285,7,NA
fcp-trial,321,1810620,0.0-296.0-0.0,voc_e2,11743,"[{""event"":""fullscreenenter"",""trial"":1,""time"":3782}]",NA,NA,NA,NA,NA,1,#1CD855,#FA92F8,0,10,0,38,1,1934.0999999940395,39,0,435.90000000596046,10,1,experiment,NA,NA,0,0.1,0.9,1,0,286,7,NA
fcp-trial,322,1814798,0.0-297.0-0.0,voc_e2,11743,"[{""event"":""fullscreenenter"",""trial"":1,""time"":3782}]",NA,NA,NA,NA,NA,0,#3386FF,#D89F1C,0,10,0,38,1,1746,39,0,920.9000000059605,10,1,experiment,NA,NA,1,0.3,0.7,3,2,287,7,NA
fcp-trial,323,1818184,0.0-298.0-0.0,voc_e2,11743,"[{""event"":""fullscreenenter"",""trial"":1,""time"":3782}]",NA,NA,NA,NA,NA,5,#741CD8,#D8271C,0,0,0,38,1,1012.1999999880791,37,1,861.5,0,0,experiment,NA,NA,2,0.5,0.5,5,4,288,7,NA
fcp-trial,324,1821191,0.0-299.0-0.0,voc_e2,11743,"[{""event"":""fullscreenenter"",""trial"":1,""time"":3782}]",NA,NA,NA,NA,NA,3,#FA92F8,#1CD855,10,0,1,40,0,1094.0999999940395,39,0,403.5,0,0,experiment,NA,NA,0,0.9,0.1,0,1,289,7,NA
fcp-trial,325,1824702,0.0-300.0-0.0,voc_e2,11743,"[{""event"":""fullscreenenter"",""trial"":1,""time"":3782}]",NA,NA,NA,NA,NA,6,#1CD855,#FA92F8,10,10,0,40,0,1614.5,37,1,387.69999998807907,10,0,experiment,NA,NA,0,0.1,0.9,1,0,290,7,NA
fcp-trial,326,1829239,0.0-301.0-0.0,voc_e2,11743,"[{""event"":""fullscreenenter"",""trial"":1,""time"":3782}]",NA,NA,NA,NA,NA,5,#D89F1C,#3386FF,10,0,1,40,0,1881.199999988079,37,1,1147.800000011921,10,1,experiment,NA,NA,1,0.7,0.3,2,3,291,7,NA
fcp-trial,327,1834310,0.0-302.0-0.0,voc_e2,11743,"[{""event"":""fullscreenenter"",""trial"":1,""time"":3782}]",NA,NA,NA,NA,NA,2,#741CD8,#D8271C,10,10,0,38,1,2991.7000000178814,39,0,567.1999999880791,10,1,experiment,NA,NA,2,0.5,0.5,5,4,292,7,NA
fcp-trial,328,1838008,0.0-303.0-0.0,voc_e2,11743,"[{""event"":""fullscreenenter"",""trial"":1,""time"":3782}]",NA,NA,NA,NA,NA,3,#D89F1C,#3386FF,0,10,1,38,1,1775.5,37,1,413.80000001192093,0,1,experiment,NA,NA,1,0.7,0.3,2,3,293,7,NA
fcp-trial,329,1843860,0.0-304.0-0.0,voc_e2,11743,"[{""event"":""fullscreenenter"",""trial"":1,""time"":3782}]",NA,NA,NA,NA,NA,3,#741CD8,#D8271C,10,0,0,40,0,1897,37,1,2444.0999999940395,10,0,experiment,NA,NA,2,0.5,0.5,5,4,294,7,NA
fcp-trial,330,1849183,0.0-305.0-0.0,voc_e2,11743,"[{""event"":""fullscreenenter"",""trial"":1,""time"":3782}]",NA,NA,NA,NA,NA,1,#1CD855,#FA92F8,0,10,0,38,1,3061.4000000059605,39,0,750.9000000059605,10,1,experiment,NA,NA,0,0.1,0.9,1,0,295,7,NA
fcp-trial,331,1853506,0.0-306.0-0.0,voc_e2,11743,"[{""event"":""fullscreenenter"",""trial"":1,""time"":3782}]",NA,NA,NA,NA,NA,0,#D8271C,#741CD8,0,0,1,38,1,1912.5999999940395,37,1,898.9000000059605,0,1,experiment,NA,NA,2,0.5,0.5,4,5,296,7,NA
fcp-trial,332,1856813,0.0-307.0-0.0,voc_e2,11743,"[{""event"":""fullscreenenter"",""trial"":1,""time"":3782}]",NA,NA,NA,NA,NA,2,#3386FF,#D89F1C,0,10,0,38,1,1513.699999988079,39,0,283,10,1,experiment,NA,NA,1,0.3,0.7,3,2,297,7,NA
fcp-trial,333,1860779,0.0-308.0-0.0,voc_e2,11743,"[{""event"":""fullscreenenter"",""trial"":1,""time"":3782}]",NA,NA,NA,NA,NA,6,#1CD855,#FA92F8,0,10,0,40,0,2006,37,1,446.5,0,0,experiment,NA,NA,0,0.1,0.9,1,0,298,7,NA
fcp-trial,334,1864724,0.0-309.0-0.0,voc_e2,11743,"[{""event"":""fullscreenenter"",""trial"":1,""time"":3782}]",NA,NA,NA,NA,NA,6,#3386FF,#D89F1C,0,0,0,40,0,1985.5999999940395,39,0,446,0,1,experiment,NA,NA,1,0.3,0.7,3,2,299,7,NA
fcp-trial,335,1868144,0.0-310.0-0.0,voc_e2,11743,"[{""event"":""fullscreenenter"",""trial"":1,""time"":3782}]",NA,NA,NA,NA,NA,1,#D89F1C,#3386FF,0,0,1,38,1,1478.1000000238419,37,1,432.59999999403954,0,1,experiment,NA,NA,1,0.7,0.3,2,3,300,7,NA
fcp-trial,336,1874348,0.0-311.0-0.0,voc_e2,11743,"[{""event"":""fullscreenenter"",""trial"":1,""time"":3782}]",NA,NA,NA,NA,NA,6,#741CD8,#D8271C,10,10,0,40,0,2998,37,1,1695.199999988079,10,0,experiment,NA,NA,2,0.5,0.5,5,4,301,7,NA
fcp-trial,337,1878626,0.0-312.0-0.0,voc_e2,11743,"[{""event"":""fullscreenenter"",""trial"":1,""time"":3782}]",NA,NA,NA,NA,NA,2,#D8271C,#741CD8,0,10,1,38,1,2098.9000000059605,37,1,671.5,0,1,experiment,NA,NA,2,0.5,0.5,4,5,302,7,NA
fcp-trial,338,1882493,0.0-313.0-0.0,voc_e2,11743,"[{""event"":""fullscreenenter"",""trial"":1,""time"":3782}]",NA,NA,NA,NA,NA,2,#1CD855,#FA92F8,0,10,0,38,1,1722,39,0,635.2999999821186,10,1,experiment,NA,NA,0,0.1,0.9,1,0,303,7,NA
fcp-trial,339,1887073,0.0-314.0-0.0,voc_e2,11743,"[{""event"":""fullscreenenter"",""trial"":1,""time"":3782}]",NA,NA,NA,NA,NA,0,#D89F1C,#3386FF,10,10,1,38,1,2644.5999999940395,37,1,425.90000000596046,10,1,experiment,NA,NA,1,0.7,0.3,2,3,304,7,NA
fcp-trial,340,1892030,0.0-315.0-0.0,voc_e2,11743,"[{""event"":""fullscreenenter"",""trial"":1,""time"":3782}]",NA,NA,NA,NA,NA,3,#D8271C,#741CD8,0,10,1,38,1,2801.800000011921,37,1,644.7999999821186,0,1,experiment,NA,NA,2,0.5,0.5,4,5,305,7,NA
fcp-trial,341,1895666,0.0-316.0-0.0,voc_e2,11743,"[{""event"":""fullscreenenter"",""trial"":1,""time"":3782}]",NA,NA,NA,NA,NA,4,#741CD8,#D8271C,0,0,0,40,0,1582.2999999821186,39,0,542.4000000059605,0,1,experiment,NA,NA,2,0.5,0.5,5,4,306,7,NA
fcp-trial,342,1899989,0.0-317.0-0.0,voc_e2,11743,"[{""event"":""fullscreenenter"",""trial"":1,""time"":3782}]",NA,NA,NA,NA,NA,5,#D89F1C,#3386FF,0,0,1,38,1,1954.699999988079,37,1,855.0999999940395,0,1,experiment,NA,NA,1,0.7,0.3,2,3,307,7,NA
fcp-trial,343,1902809,0.0-318.0-0.0,voc_e2,11743,"[{""event"":""fullscreenenter"",""trial"":1,""time"":3782}]",NA,NA,NA,NA,NA,5,#1CD855,#FA92F8,0,10,0,40,0,1003.4000000059605,39,0,303.80000001192093,10,1,experiment,NA,NA,0,0.1,0.9,1,0,308,7,NA
fcp-trial,344,1906478,0.0-319.0-0.0,voc_e2,11743,"[{""event"":""fullscreenenter"",""trial"":1,""time"":3782}]",NA,NA,NA,NA,NA,4,#1CD855,#FA92F8,0,10,0,38,1,1867,39,0,291.09999999403954,10,1,experiment,NA,NA,0,0.1,0.9,1,0,309,7,NA
fcp-trial,345,1910124,0.0-320.0-0.0,voc_e2,11743,"[{""event"":""fullscreenenter"",""trial"":1,""time"":3782}]",NA,NA,NA,NA,NA,0,#FA92F8,#1CD855,10,0,1,38,1,1825.4000000059605,37,1,306.5,10,1,experiment,NA,NA,0,0.9,0.1,0,1,310,7,NA
fcp-trial,346,1913660,0.0-321.0-0.0,voc_e2,11743,"[{""event"":""fullscreenenter"",""trial"":1,""time"":3782}]",NA,NA,NA,NA,NA,5,#D8271C,#741CD8,10,10,1,38,1,1769.9000000059605,37,1,253.40000000596046,10,1,experiment,NA,NA,2,0.5,0.5,4,5,311,7,NA
fcp-trial,347,1917530,0.0-322.0-0.0,voc_e2,11743,"[{""event"":""fullscreenenter"",""trial"":1,""time"":3782}]",NA,NA,NA,NA,NA,4,#3386FF,#D89F1C,0,10,0,38,1,2078.699999988079,39,0,279.09999999403954,10,1,experiment,NA,NA,1,0.3,0.7,3,2,312,7,NA
fcp-trial,348,1920752,0.0-323.0-0.0,voc_e2,11743,"[{""event"":""fullscreenenter"",""trial"":1,""time"":3782}]",NA,NA,NA,NA,NA,3,#1CD855,#FA92F8,0,10,0,38,1,1305.5,39,0,407,10,1,experiment,NA,NA,0,0.1,0.9,1,0,313,7,NA
fcp-trial,349,1923248,0.0-324.0-0.0,voc_e2,11743,"[{""event"":""fullscreenenter"",""trial"":1,""time"":3782}]",NA,NA,NA,NA,NA,1,#741CD8,#D8271C,0,0,0,38,1,639.3000000119209,37,1,341.5,0,0,experiment,NA,NA,2,0.5,0.5,5,4,314,7,NA
fcp-trial,350,1926223,0.0-325.0-0.0,voc_e2,11743,"[{""event"":""fullscreenenter"",""trial"":1,""time"":3782}]",NA,NA,NA,NA,NA,3,#D89F1C,#3386FF,10,0,1,38,1,1059,37,1,404.30000001192093,10,1,experiment,NA,NA,1,0.7,0.3,2,3,315,7,NA
audio-instructions,351,1933743,0.0-326.0,voc_e2,11743,"[{""event"":""fullscreenenter"",""trial"":1,""time"":3782}]",NA,1764.7000000178814,static/audio/finished.wav,NA,0,NA,NA,NA,NA,NA,NA,NA,NA,NA,NA,NA,NA,NA,NA,NA,NA,NA,NA,NA,NA,NA,NA,NA,NA,NA
audio-instructions,352,1945926,0.0-327.0-0.0,voc_e2,11743,"[{""event"":""fullscreenenter"",""trial"":1,""time"":3782}]",NA,1344.5999999940395,static/audio/explicit1.wav,NA,0,NA,NA,NA,NA,NA,NA,NA,NA,NA,NA,NA,NA,NA,NA,NA,NA,NA,NA,NA,NA,NA,NA,NA,NA,NA
audio-instructions,353,1954465,0.0-327.0-1.0,voc_e2,11743,"[{""event"":""fullscreenenter"",""trial"":1,""time"":3782}]",NA,938.5,static/audio/explicit2.wav,NA,0,NA,NA,NA,NA,NA,NA,NA,NA,NA,NA,NA,NA,NA,NA,NA,NA,NA,NA,NA,NA,NA,NA,NA,NA,NA
image-slider-response,354,1961940,0.0-328.0,voc_e2,11743,"[{""event"":""fullscreenenter"",""trial"":1,""time"":3782}]",NA,7460,static/img/machines/machine4.png,NA,NA,NA,NA,NA,NA,NA,NA,NA,NA,NA,NA,NA,NA,NA,NA,explicit,NA,NA,NA,NA,NA,NA,NA,NA,NA,7
image-slider-response,355,1966982,0.0-329.0,voc_e2,11743,"[{""event"":""fullscreenenter"",""trial"":1,""time"":3782}]",NA,5039,static/img/machines/machine2.png,NA,NA,NA,NA,NA,NA,NA,NA,NA,NA,NA,NA,NA,NA,NA,NA,explicit,NA,NA,NA,NA,NA,NA,NA,NA,NA,4
image-slider-response,356,1972180,0.0-330.0,voc_e2,11743,"[{""event"":""fullscreenenter"",""trial"":1,""time"":3782}]",NA,5194.699999988079,static/img/machines/machine6.png,NA,NA,NA,NA,NA,NA,NA,NA,NA,NA,NA,NA,NA,NA,NA,NA,explicit,NA,NA,NA,NA,NA,NA,NA,NA,NA,2
image-slider-response,357,1977644,0.0-331.0,voc_e2,11743,"[{""event"":""fullscreenenter"",""trial"":1,""time"":3782}]",NA,5461.800000011921,static/img/machines/machine1.png,NA,NA,NA,NA,NA,NA,NA,NA,NA,NA,NA,NA,NA,NA,NA,NA,explicit,NA,NA,NA,NA,NA,NA,NA,NA,NA,6
image-slider-response,358,1982508,0.0-332.0,voc_e2,11743,"[{""event"":""fullscreenenter"",""trial"":1,""time"":3782}]",NA,4860.5,static/img/machines/machine3.png,NA,NA,NA,NA,NA,NA,NA,NA,NA,NA,NA,NA,NA,NA,NA,NA,explicit,NA,NA,NA,NA,NA,NA,NA,NA,NA,3
image-slider-response,359,1988022,0.0-333.0,voc_e2,11743,"[{""event"":""fullscreenenter"",""trial"":1,""time"":3782}]",NA,5511.5999999940395,static/img/machines/machine5.png,NA,NA,NA,NA,NA,NA,NA,NA,NA,NA,NA,NA,NA,NA,NA,NA,explicit,NA,NA,NA,NA,NA,NA,NA,NA,NA,5
