trial_type,trial_index,time_elapsed,internal_node_id,task_version,subject_id,interactions,success,rt,stimulus,key_press,button_pressed,offer,arcade_color_L,arcade_color_R,arcade_outcome_L,arcade_outcome_R,correct,stage_1_key,stage_1_choice,stage_1_rt,stage_2_key,stage_2_choice,stage_2_rt,stage_3_outcome,accuracy,phase,responses,num_errors,context,reward_prob_L,reward_prob_R,arcade_id_L,arcade_id_R,trial,block,response
pavlovia,0,12,0.0-0.0,voc_e2,11841,[],NA,NA,NA,NA,NA,NA,NA,NA,NA,NA,NA,NA,NA,NA,NA,NA,NA,NA,NA,NA,NA,NA,NA,NA,NA,NA,NA,NA,NA,NA
fullscreen,1,33076,0.0-1.0,voc_e2,11841,"[{""event"":""fullscreenenter"",""trial"":1,""time"":32095}]",TRUE,NA,NA,NA,NA,NA,NA,NA,NA,NA,NA,NA,NA,NA,NA,NA,NA,NA,NA,NA,NA,NA,NA,NA,NA,NA,NA,NA,NA,NA
audio-keyboard-response,2,39166,0.0-2.0,voc_e2,11841,"[{""event"":""fullscreenenter"",""trial"":1,""time"":32095}]",NA,6080,static/audio/beep_loop.wav,32,NA,NA,NA,NA,NA,NA,NA,NA,NA,NA,NA,NA,NA,NA,NA,NA,NA,NA,NA,NA,NA,NA,NA,NA,NA,NA
audio-test,3,41233,0.0-3.0,voc_e2,11841,"[{""event"":""fullscreenenter"",""trial"":1,""time"":32095}]",NA,NA,static/audio/turtle.wav,NA,3,NA,NA,NA,NA,NA,NA,NA,NA,NA,NA,NA,NA,NA,NA,NA,NA,NA,NA,NA,NA,NA,NA,NA,NA,NA
audio-test,4,43439,0.0-4.0,voc_e2,11841,"[{""event"":""fullscreenenter"",""trial"":1,""time"":32095}]",NA,NA,static/audio/shark.wav,NA,2,NA,NA,NA,NA,NA,NA,NA,NA,NA,NA,NA,NA,NA,NA,NA,NA,NA,NA,NA,NA,NA,NA,NA,NA,NA
audio-instructions,5,51598,0.0-5.0-0.0,voc_e2,11841,"[{""event"":""fullscreenenter"",""trial"":1,""time"":32095}]",NA,2380.4000000003725,static/audio/instructions1.wav,NA,0,NA,NA,NA,NA,NA,NA,NA,NA,NA,NA,NA,NA,NA,NA,NA,NA,NA,NA,NA,NA,NA,NA,NA,NA,NA
audio-instructions,6,63962,0.0-5.0-1.0,voc_e2,11841,"[{""event"":""fullscreenenter"",""trial"":1,""time"":32095}]",NA,5624.700000000186,static/audio/instructions2.wav,NA,0,NA,NA,NA,NA,NA,NA,NA,NA,NA,NA,NA,NA,NA,NA,NA,NA,NA,NA,NA,NA,NA,NA,NA,NA,NA
audio-instructions,7,71064,0.0-5.0-2.0,voc_e2,11841,"[{""event"":""fullscreenenter"",""trial"":1,""time"":32095}]",NA,1303.5999999996277,static/audio/instructions3.wav,NA,0,NA,NA,NA,NA,NA,NA,NA,NA,NA,NA,NA,NA,NA,NA,NA,NA,NA,NA,NA,NA,NA,NA,NA,NA,NA
audio-instructions,8,85923,0.0-5.0-3.0,voc_e2,11841,"[{""event"":""fullscreenenter"",""trial"":1,""time"":32095}]",NA,1634,static/audio/instructions4.wav,NA,0,NA,NA,NA,NA,NA,NA,NA,NA,NA,NA,NA,NA,NA,NA,NA,NA,NA,NA,NA,NA,NA,NA,NA,NA,NA
audio-instructions,9,104263,0.0-5.0-4.0,voc_e2,11841,"[{""event"":""fullscreenenter"",""trial"":1,""time"":32095}]",NA,8954.600000000559,static/audio/instructions5.wav,NA,0,NA,NA,NA,NA,NA,NA,NA,NA,NA,NA,NA,NA,NA,NA,NA,NA,NA,NA,NA,NA,NA,NA,NA,NA,NA
fcp-practice,10,109597,0.0-5.0-5.0-0.0,voc_e2,11841,"[{""event"":""fullscreenenter"",""trial"":1,""time"":32095}]",NA,NA,NA,NA,NA,NA,#EDC948,#46d3c8,10,0,1,null,null,null,37,1,3810.2999999998137,10,1,practice,NA,NA,NA,NA,NA,NA,NA,NA,NA,NA
fcp-practice,11,112076,0.0-5.0-5.0-1.0,voc_e2,11841,"[{""event"":""fullscreenenter"",""trial"":1,""time"":32095}]",NA,NA,NA,NA,NA,NA,#EDC948,#46d3c8,10,0,1,null,null,null,37,1,974.8000000007452,10,1,practice,NA,NA,NA,NA,NA,NA,NA,NA,NA,NA
fcp-practice,12,114125,0.0-5.0-5.0-2.0,voc_e2,11841,"[{""event"":""fullscreenenter"",""trial"":1,""time"":32095}]",NA,NA,NA,NA,NA,NA,#EDC948,#46d3c8,0,10,1,null,null,null,37,1,545.7999999998137,0,1,practice,NA,NA,NA,NA,NA,NA,NA,NA,NA,NA
fcp-practice,13,116739,0.0-5.0-5.0-3.0,voc_e2,11841,"[{""event"":""fullscreenenter"",""trial"":1,""time"":32095}]",NA,NA,NA,NA,NA,NA,#EDC948,#46d3c8,10,0,1,null,null,null,37,1,1110.300000000745,10,1,practice,NA,NA,NA,NA,NA,NA,NA,NA,NA,NA
fcp-practice,14,118835,0.0-5.0-5.0-4.0,voc_e2,11841,"[{""event"":""fullscreenenter"",""trial"":1,""time"":32095}]",NA,NA,NA,NA,NA,NA,#EDC948,#46d3c8,10,0,1,null,null,null,37,1,585.7000000001863,10,1,practice,NA,NA,NA,NA,NA,NA,NA,NA,NA,NA
audio-instructions,15,140818,0.0-5.0-6.0,voc_e2,11841,"[{""event"":""fullscreenenter"",""trial"":1,""time"":32095}]",NA,3975.300000000745,static/audio/instructions6.wav,NA,0,NA,NA,NA,NA,NA,NA,NA,NA,NA,NA,NA,NA,NA,NA,NA,NA,NA,NA,NA,NA,NA,NA,NA,NA,NA
audio-instructions,16,189749,0.0-5.0-7.0,voc_e2,11841,"[{""event"":""fullscreenenter"",""trial"":1,""time"":32095}]",NA,29726.799999999817,static/audio/instructions7.wav,NA,0,NA,NA,NA,NA,NA,NA,NA,NA,NA,NA,NA,NA,NA,NA,NA,NA,NA,NA,NA,NA,NA,NA,NA,NA,NA
audio-instructions,17,201072,0.0-5.0-8.0,voc_e2,11841,"[{""event"":""fullscreenenter"",""trial"":1,""time"":32095}]",NA,1867.300000000745,static/audio/instructions8.wav,NA,0,NA,NA,NA,NA,NA,NA,NA,NA,NA,NA,NA,NA,NA,NA,NA,NA,NA,NA,NA,NA,NA,NA,NA,NA,NA
fcp-comprehension,18,211851,0.0-5.0-9.0,voc_e2,11841,"[{""event"":""fullscreenenter"",""trial"":1,""time"":32095}]",NA,10774.60000000056,NA,NA,NA,NA,NA,NA,NA,NA,NA,NA,NA,NA,NA,NA,NA,NA,NA,NA,"false,true",1,NA,NA,NA,NA,NA,NA,NA,NA
audio-instructions,19,220218,0.0-5.1-0.1,voc_e2,11841,"[{""event"":""fullscreenenter"",""trial"":1,""time"":32095}]",NA,3583.7999999998137,static/audio/instructions1.wav,NA,0,NA,NA,NA,NA,NA,NA,NA,NA,NA,NA,NA,NA,NA,NA,NA,NA,NA,NA,NA,NA,NA,NA,NA,NA,NA
audio-instructions,20,234022,0.0-5.1-1.1,voc_e2,11841,"[{""event"":""fullscreenenter"",""trial"":1,""time"":32095}]",NA,7063,static/audio/instructions2.wav,NA,0,NA,NA,NA,NA,NA,NA,NA,NA,NA,NA,NA,NA,NA,NA,NA,NA,NA,NA,NA,NA,NA,NA,NA,NA,NA
audio-instructions,21,251016,0.0-5.1-2.1,voc_e2,11841,"[{""event"":""fullscreenenter"",""trial"":1,""time"":32095}]",NA,11192.39999999944,static/audio/instructions3.wav,NA,0,NA,NA,NA,NA,NA,NA,NA,NA,NA,NA,NA,NA,NA,NA,NA,NA,NA,NA,NA,NA,NA,NA,NA,NA,NA
audio-instructions,22,266875,0.0-5.1-3.1,voc_e2,11841,"[{""event"":""fullscreenenter"",""trial"":1,""time"":32095}]",NA,2635.600000000559,static/audio/instructions4.wav,NA,0,NA,NA,NA,NA,NA,NA,NA,NA,NA,NA,NA,NA,NA,NA,NA,NA,NA,NA,NA,NA,NA,NA,NA,NA,NA
audio-instructions,23,279446,0.0-5.1-4.1,voc_e2,11841,"[{""event"":""fullscreenenter"",""trial"":1,""time"":32095}]",NA,3185.399999999441,static/audio/instructions5.wav,NA,0,NA,NA,NA,NA,NA,NA,NA,NA,NA,NA,NA,NA,NA,NA,NA,NA,NA,NA,NA,NA,NA,NA,NA,NA,NA
fcp-practice,24,282497,0.0-5.1-5.1-0.1,voc_e2,11841,"[{""event"":""fullscreenenter"",""trial"":1,""time"":32095}]",NA,NA,NA,NA,NA,NA,#EDC948,#46d3c8,10,0,1,null,null,null,37,1,1541.7000000001865,10,1,practice,NA,NA,NA,NA,NA,NA,NA,NA,NA,NA
fcp-practice,25,284784,0.0-5.1-5.1-1.1,voc_e2,11841,"[{""event"":""fullscreenenter"",""trial"":1,""time"":32095}]",NA,NA,NA,NA,NA,NA,#EDC948,#46d3c8,10,0,1,null,null,null,37,1,781.1000000005588,10,1,practice,NA,NA,NA,NA,NA,NA,NA,NA,NA,NA
fcp-practice,26,286862,0.0-5.1-5.1-2.1,voc_e2,11841,"[{""event"":""fullscreenenter"",""trial"":1,""time"":32095}]",NA,NA,NA,NA,NA,NA,#EDC948,#46d3c8,0,10,1,null,null,null,37,1,562.4000000003725,0,1,practice,NA,NA,NA,NA,NA,NA,NA,NA,NA,NA
fcp-practice,27,288893,0.0-5.1-5.1-3.1,voc_e2,11841,"[{""event"":""fullscreenenter"",""trial"":1,""time"":32095}]",NA,NA,NA,NA,NA,NA,#EDC948,#46d3c8,10,0,1,null,null,null,37,1,519.2999999998137,10,1,practice,NA,NA,NA,NA,NA,NA,NA,NA,NA,NA
fcp-practice,28,291320,0.0-5.1-5.1-4.1,voc_e2,11841,"[{""event"":""fullscreenenter"",""trial"":1,""time"":32095}]",NA,NA,NA,NA,NA,NA,#EDC948,#46d3c8,10,0,1,null,null,null,37,1,914.7999999998136,10,1,practice,NA,NA,NA,NA,NA,NA,NA,NA,NA,NA
audio-instructions,29,312911,0.0-5.1-6.1,voc_e2,11841,"[{""event"":""fullscreenenter"",""trial"":1,""time"":32095}]",NA,3583.7999999998137,static/audio/instructions6.wav,NA,0,NA,NA,NA,NA,NA,NA,NA,NA,NA,NA,NA,NA,NA,NA,NA,NA,NA,NA,NA,NA,NA,NA,NA,NA,NA
audio-instructions,30,333934,0.0-5.1-7.1,voc_e2,11841,"[{""event"":""fullscreenenter"",""trial"":1,""time"":32095}]",NA,1823,static/audio/instructions7.wav,NA,0,NA,NA,NA,NA,NA,NA,NA,NA,NA,NA,NA,NA,NA,NA,NA,NA,NA,NA,NA,NA,NA,NA,NA,NA,NA
audio-instructions,31,345237,0.0-5.1-8.1,voc_e2,11841,"[{""event"":""fullscreenenter"",""trial"":1,""time"":32095}]",NA,1830.5,static/audio/instructions8.wav,NA,0,NA,NA,NA,NA,NA,NA,NA,NA,NA,NA,NA,NA,NA,NA,NA,NA,NA,NA,NA,NA,NA,NA,NA,NA,NA
fcp-comprehension,32,358282,0.0-5.1-9.1,voc_e2,11841,"[{""event"":""fullscreenenter"",""trial"":1,""time"":32095}]",NA,13040.10000000056,NA,NA,NA,NA,NA,NA,NA,NA,NA,NA,NA,NA,NA,NA,NA,NA,NA,NA,"false,true",1,NA,NA,NA,NA,NA,NA,NA,NA
audio-instructions,33,365179,0.0-5.2-0.2,voc_e2,11841,"[{""event"":""fullscreenenter"",""trial"":1,""time"":32095}]",NA,2112.899999999441,static/audio/instructions1.wav,NA,0,NA,NA,NA,NA,NA,NA,NA,NA,NA,NA,NA,NA,NA,NA,NA,NA,NA,NA,NA,NA,NA,NA,NA,NA,NA
audio-instructions,34,374385,0.0-5.2-1.2,voc_e2,11841,"[{""event"":""fullscreenenter"",""trial"":1,""time"":32095}]",NA,2465.5,static/audio/instructions2.wav,NA,0,NA,NA,NA,NA,NA,NA,NA,NA,NA,NA,NA,NA,NA,NA,NA,NA,NA,NA,NA,NA,NA,NA,NA,NA,NA
audio-instructions,35,381012,0.0-5.2-2.2,voc_e2,11841,"[{""event"":""fullscreenenter"",""trial"":1,""time"":32095}]",NA,826.0999999996275,static/audio/instructions3.wav,NA,0,NA,NA,NA,NA,NA,NA,NA,NA,NA,NA,NA,NA,NA,NA,NA,NA,NA,NA,NA,NA,NA,NA,NA,NA,NA
audio-instructions,36,396078,0.0-5.2-3.2,voc_e2,11841,"[{""event"":""fullscreenenter"",""trial"":1,""time"":32095}]",NA,1843.2000000001865,static/audio/instructions4.wav,NA,0,NA,NA,NA,NA,NA,NA,NA,NA,NA,NA,NA,NA,NA,NA,NA,NA,NA,NA,NA,NA,NA,NA,NA,NA,NA
audio-instructions,37,406517,0.0-5.2-4.2,voc_e2,11841,"[{""event"":""fullscreenenter"",""trial"":1,""time"":32095}]",NA,1051.2000000001865,static/audio/instructions5.wav,NA,0,NA,NA,NA,NA,NA,NA,NA,NA,NA,NA,NA,NA,NA,NA,NA,NA,NA,NA,NA,NA,NA,NA,NA,NA,NA
fcp-practice,38,409358,0.0-5.2-5.2-0.2,voc_e2,11841,"[{""event"":""fullscreenenter"",""trial"":1,""time"":32095}]",NA,NA,NA,NA,NA,NA,#EDC948,#46d3c8,10,0,1,null,null,null,37,1,1330.0999999996277,10,1,practice,NA,NA,NA,NA,NA,NA,NA,NA,NA,NA
fcp-practice,39,411325,0.0-5.2-5.2-1.2,voc_e2,11841,"[{""event"":""fullscreenenter"",""trial"":1,""time"":32095}]",NA,NA,NA,NA,NA,NA,#EDC948,#46d3c8,10,0,1,null,null,null,37,1,454.70000000018626,10,1,practice,NA,NA,NA,NA,NA,NA,NA,NA,NA,NA
fcp-practice,40,413340,0.0-5.2-5.2-2.2,voc_e2,11841,"[{""event"":""fullscreenenter"",""trial"":1,""time"":32095}]",NA,NA,NA,NA,NA,NA,#EDC948,#46d3c8,0,10,1,null,null,null,37,1,510.0999999996274,0,1,practice,NA,NA,NA,NA,NA,NA,NA,NA,NA,NA
fcp-practice,41,415393,0.0-5.2-5.2-3.2,voc_e2,11841,"[{""event"":""fullscreenenter"",""trial"":1,""time"":32095}]",NA,NA,NA,NA,NA,NA,#EDC948,#46d3c8,10,0,1,null,null,null,37,1,548.5,10,1,practice,NA,NA,NA,NA,NA,NA,NA,NA,NA,NA
fcp-practice,42,417373,0.0-5.2-5.2-4.2,voc_e2,11841,"[{""event"":""fullscreenenter"",""trial"":1,""time"":32095}]",NA,NA,NA,NA,NA,NA,#EDC948,#46d3c8,10,0,1,null,null,null,37,1,471.70000000018626,10,1,practice,NA,NA,NA,NA,NA,NA,NA,NA,NA,NA
audio-instructions,43,438731,0.0-5.2-6.2,voc_e2,11841,"[{""event"":""fullscreenenter"",""trial"":1,""time"":32095}]",NA,3355.7999999998137,static/audio/instructions6.wav,NA,0,NA,NA,NA,NA,NA,NA,NA,NA,NA,NA,NA,NA,NA,NA,NA,NA,NA,NA,NA,NA,NA,NA,NA,NA,NA
audio-instructions,44,459111,0.0-5.2-7.2,voc_e2,11841,"[{""event"":""fullscreenenter"",""trial"":1,""time"":32095}]",NA,1175.1000000005588,static/audio/instructions7.wav,NA,0,NA,NA,NA,NA,NA,NA,NA,NA,NA,NA,NA,NA,NA,NA,NA,NA,NA,NA,NA,NA,NA,NA,NA,NA,NA
audio-instructions,45,469857,0.0-5.2-8.2,voc_e2,11841,"[{""event"":""fullscreenenter"",""trial"":1,""time"":32095}]",NA,1275.199999999255,static/audio/instructions8.wav,NA,0,NA,NA,NA,NA,NA,NA,NA,NA,NA,NA,NA,NA,NA,NA,NA,NA,NA,NA,NA,NA,NA,NA,NA,NA,NA
fcp-comprehension,46,486108,0.0-5.2-9.2,voc_e2,11841,"[{""event"":""fullscreenenter"",""trial"":1,""time"":32095}]",NA,16246,NA,NA,NA,NA,NA,NA,NA,NA,NA,NA,NA,NA,NA,NA,NA,NA,NA,NA,"true,true",0,NA,NA,NA,NA,NA,NA,NA,NA
audio-instructions,47,494365,0.0-6.0-0.0,voc_e2,11841,"[{""event"":""fullscreenenter"",""trial"":1,""time"":32095}]",NA,2710.7999999998137,static/audio/instructions9.wav,NA,0,NA,NA,NA,NA,NA,NA,NA,NA,NA,NA,NA,NA,NA,NA,NA,NA,NA,NA,NA,NA,NA,NA,NA,NA,NA
audio-instructions,48,509177,0.0-6.0-1.0,voc_e2,11841,"[{""event"":""fullscreenenter"",""trial"":1,""time"":32095}]",NA,2698.7000000001863,static/audio/instructions10.wav,NA,0,NA,NA,NA,NA,NA,NA,NA,NA,NA,NA,NA,NA,NA,NA,NA,NA,NA,NA,NA,NA,NA,NA,NA,NA,NA
fcp-trial,49,520954,0.0-6.0-2.0,voc_e2,11841,"[{""event"":""fullscreenenter"",""trial"":1,""time"":32095}]",NA,NA,NA,NA,NA,0,#EDC948,#46d3c8,10,10,1,38,1,8759.600000000559,37,1,1492.5,10,1,practice,NA,NA,NA,NA,NA,NA,NA,NA,NA,NA
audio-instructions,50,534394,0.0-6.0-3.0,voc_e2,11841,"[{""event"":""fullscreenenter"",""trial"":1,""time"":32095}]",NA,2431.2999999998137,static/audio/instructions11.wav,NA,0,NA,NA,NA,NA,NA,NA,NA,NA,NA,NA,NA,NA,NA,NA,NA,NA,NA,NA,NA,NA,NA,NA,NA,NA,NA
fcp-trial,51,546047,0.0-6.0-4.0,voc_e2,11841,"[{""event"":""fullscreenenter"",""trial"":1,""time"":32095}]",NA,NA,NA,NA,NA,6,#EDC948,#46d3c8,10,10,1,40,0,1786.9000000003725,37,1,8353.299999999814,10,1,practice,NA,NA,NA,NA,NA,NA,NA,NA,NA,NA
audio-instructions,52,567896,0.0-6.0-5.0,voc_e2,11841,"[{""event"":""fullscreenenter"",""trial"":1,""time"":32095}]",NA,3165.0999999996275,static/audio/instructions12.wav,NA,0,NA,NA,NA,NA,NA,NA,NA,NA,NA,NA,NA,NA,NA,NA,NA,NA,NA,NA,NA,NA,NA,NA,NA,NA,NA
audio-instructions,53,576379,0.0-6.0-6.0,voc_e2,11841,"[{""event"":""fullscreenenter"",""trial"":1,""time"":32095}]",NA,885.9000000003725,static/audio/instructions13.wav,NA,0,NA,NA,NA,NA,NA,NA,NA,NA,NA,NA,NA,NA,NA,NA,NA,NA,NA,NA,NA,NA,NA,NA,NA,NA,NA
audio-instructions,54,586372,0.0-6.0-7.0,voc_e2,11841,"[{""event"":""fullscreenenter"",""trial"":1,""time"":32095}]",NA,1546.199999999255,static/audio/instructions14.wav,NA,0,NA,NA,NA,NA,NA,NA,NA,NA,NA,NA,NA,NA,NA,NA,NA,NA,NA,NA,NA,NA,NA,NA,NA,NA,NA
audio-instructions,55,595503,0.0-7.0-0.0,voc_e2,11841,"[{""event"":""fullscreenenter"",""trial"":1,""time"":32095}]",NA,2218.399999999441,static/audio/instructions15.wav,NA,0,NA,NA,NA,NA,NA,NA,NA,NA,NA,NA,NA,NA,NA,NA,NA,NA,NA,NA,NA,NA,NA,NA,NA,NA,NA
audio-instructions,56,605265,0.0-7.0-1.0,voc_e2,11841,"[{""event"":""fullscreenenter"",""trial"":1,""time"":32095}]",NA,2933.5999999996275,static/audio/instructions16.wav,NA,0,NA,NA,NA,NA,NA,NA,NA,NA,NA,NA,NA,NA,NA,NA,NA,NA,NA,NA,NA,NA,NA,NA,NA,NA,NA
audio-instructions,57,621162,0.0-7.0-2.0,voc_e2,11841,"[{""event"":""fullscreenenter"",""trial"":1,""time"":32095}]",NA,8217.099999999627,static/audio/instructions17.wav,NA,0,NA,NA,NA,NA,NA,NA,NA,NA,NA,NA,NA,NA,NA,NA,NA,NA,NA,NA,NA,NA,NA,NA,NA,NA,NA
audio-instructions,58,630933,0.0-7.0-3.0,voc_e2,11841,"[{""event"":""fullscreenenter"",""trial"":1,""time"":32095}]",NA,2009.7999999998135,static/audio/instructions18.wav,NA,0,NA,NA,NA,NA,NA,NA,NA,NA,NA,NA,NA,NA,NA,NA,NA,NA,NA,NA,NA,NA,NA,NA,NA,NA,NA
audio-instructions,59,639947,0.0-7.0-4.0,voc_e2,11841,"[{""event"":""fullscreenenter"",""trial"":1,""time"":32095}]",NA,2278.5,static/audio/instructions19.wav,NA,0,NA,NA,NA,NA,NA,NA,NA,NA,NA,NA,NA,NA,NA,NA,NA,NA,NA,NA,NA,NA,NA,NA,NA,NA,NA
fcp-comprehension,60,665155,0.0-7.0-5.0,voc_e2,11841,"[{""event"":""fullscreenenter"",""trial"":1,""time"":32095}]",NA,25202.299999999817,NA,NA,NA,NA,NA,NA,NA,NA,NA,NA,NA,NA,NA,NA,NA,NA,NA,NA,"false,false,true,true",1,NA,NA,NA,NA,NA,NA,NA,NA
audio-instructions,61,673385,0.0-7.1-0.1,voc_e2,11841,"[{""event"":""fullscreenenter"",""trial"":1,""time"":32095}]",NA,1315.5999999996277,static/audio/instructions15.wav,NA,0,NA,NA,NA,NA,NA,NA,NA,NA,NA,NA,NA,NA,NA,NA,NA,NA,NA,NA,NA,NA,NA,NA,NA,NA,NA
audio-instructions,62,682712,0.0-7.1-1.1,voc_e2,11841,"[{""event"":""fullscreenenter"",""trial"":1,""time"":32095}]",NA,2503.7999999998137,static/audio/instructions16.wav,NA,0,NA,NA,NA,NA,NA,NA,NA,NA,NA,NA,NA,NA,NA,NA,NA,NA,NA,NA,NA,NA,NA,NA,NA,NA,NA
audio-instructions,63,693017,0.0-7.1-2.1,voc_e2,11841,"[{""event"":""fullscreenenter"",""trial"":1,""time"":32095}]",NA,2622.7000000001863,static/audio/instructions17.wav,NA,0,NA,NA,NA,NA,NA,NA,NA,NA,NA,NA,NA,NA,NA,NA,NA,NA,NA,NA,NA,NA,NA,NA,NA,NA,NA
audio-instructions,64,701813,0.0-7.1-3.1,voc_e2,11841,"[{""event"":""fullscreenenter"",""trial"":1,""time"":32095}]",NA,1028.3999999994412,static/audio/instructions18.wav,NA,0,NA,NA,NA,NA,NA,NA,NA,NA,NA,NA,NA,NA,NA,NA,NA,NA,NA,NA,NA,NA,NA,NA,NA,NA,NA
audio-instructions,65,710076,0.0-7.1-4.1,voc_e2,11841,"[{""event"":""fullscreenenter"",""trial"":1,""time"":32095}]",NA,1527,static/audio/instructions19.wav,NA,0,NA,NA,NA,NA,NA,NA,NA,NA,NA,NA,NA,NA,NA,NA,NA,NA,NA,NA,NA,NA,NA,NA,NA,NA,NA
fcp-comprehension,66,748890,0.0-7.1-5.1,voc_e2,11841,"[{""event"":""fullscreenenter"",""trial"":1,""time"":32095}]",NA,38808.700000000186,NA,NA,NA,NA,NA,NA,NA,NA,NA,NA,NA,NA,NA,NA,NA,NA,NA,NA,"false,false,false,true",0,NA,NA,NA,NA,NA,NA,NA,NA
audio-instructions,67,765308,0.0-8.0,voc_e2,11841,"[{""event"":""fullscreenenter"",""trial"":1,""time"":32095}]",NA,7198.9000000003725,static/audio/ready.wav,NA,0,NA,NA,NA,NA,NA,NA,NA,NA,NA,NA,NA,NA,NA,NA,NA,NA,NA,NA,NA,NA,NA,NA,NA,NA,NA
fcp-trial,68,774686,0.0-9.0-0.0,voc_e2,11841,"[{""event"":""fullscreenenter"",""trial"":1,""time"":32095}]",NA,NA,NA,NA,NA,3,#D8271C,#741CD8,10,0,0,38,1,6378.799999999814,37,1,1486.2000000001865,10,0,experiment,NA,NA,2,0.5,0.5,5,4,1,1,NA
fcp-trial,69,779397,0.0-10.0-0.0,voc_e2,11841,"[{""event"":""fullscreenenter"",""trial"":1,""time"":32095}]",NA,NA,NA,NA,NA,2,#3386FF,#D89F1C,10,0,1,38,1,1993.5999999996275,37,1,1200.1000000005588,10,1,experiment,NA,NA,0,0.9,0.1,0,1,2,1,NA
fcp-trial,70,784733,0.0-11.0-0.0,voc_e2,11841,"[{""event"":""fullscreenenter"",""trial"":1,""time"":32095}]",NA,NA,NA,NA,NA,5,#741CD8,#D8271C,0,10,1,38,1,2870.5999999996275,37,1,953.0999999996276,0,1,experiment,NA,NA,2,0.5,0.5,4,5,3,1,NA
fcp-trial,71,791222,0.0-12.0-0.0,voc_e2,11841,"[{""event"":""fullscreenenter"",""trial"":1,""time"":32095}]",NA,NA,NA,NA,NA,5,#FA92F8,#1CD855,0,0,0,38,1,1912.6000000005588,39,0,3070.4000000003725,0,1,experiment,NA,NA,1,0.3,0.7,3,2,4,1,NA
fcp-trial,72,795872,0.0-13.0-0.0,voc_e2,11841,"[{""event"":""fullscreenenter"",""trial"":1,""time"":32095}]",NA,NA,NA,NA,NA,2,#1CD855,#FA92F8,10,0,1,38,1,2048.100000000559,39,0,1087.2999999998135,0,0,experiment,NA,NA,1,0.7,0.3,2,3,5,1,NA
fcp-trial,73,801871,0.0-14.0-0.0,voc_e2,11841,"[{""event"":""fullscreenenter"",""trial"":1,""time"":32095}]",NA,NA,NA,NA,NA,3,#1CD855,#FA92F8,10,10,1,38,1,3691.2999999998137,37,1,800.7999999998137,10,1,experiment,NA,NA,1,0.7,0.3,2,3,6,1,NA
fcp-trial,74,806971,0.0-15.0-0.0,voc_e2,11841,"[{""event"":""fullscreenenter"",""trial"":1,""time"":32095}]",NA,NA,NA,NA,NA,3,#3386FF,#D89F1C,10,0,1,38,1,2696,37,1,893.2000000001863,10,1,experiment,NA,NA,0,0.9,0.1,0,1,7,1,NA
fcp-trial,75,812448,0.0-16.0-0.0,voc_e2,11841,"[{""event"":""fullscreenenter"",""trial"":1,""time"":32095}]",NA,NA,NA,NA,NA,2,#D8271C,#741CD8,10,10,0,38,1,3379.2000000001863,39,0,591,10,1,experiment,NA,NA,2,0.5,0.5,5,4,8,1,NA
fcp-trial,76,816441,0.0-17.0-0.0,voc_e2,11841,"[{""event"":""fullscreenenter"",""trial"":1,""time"":32095}]",NA,NA,NA,NA,NA,1,#D89F1C,#3386FF,10,10,0,38,1,1920.2999999998137,39,0,566.2000000001863,10,1,experiment,NA,NA,0,0.1,0.9,1,0,9,1,NA
fcp-trial,77,823026,0.0-18.0-0.0,voc_e2,11841,"[{""event"":""fullscreenenter"",""trial"":1,""time"":32095}]",NA,NA,NA,NA,NA,1,#FA92F8,#1CD855,0,10,0,38,1,3991,37,1,1089.2000000001865,0,0,experiment,NA,NA,1,0.3,0.7,3,2,10,1,NA
fcp-trial,78,829298,0.0-19.0-0.0,voc_e2,11841,"[{""event"":""fullscreenenter"",""trial"":1,""time"":32095}]",NA,NA,NA,NA,NA,0,#FA92F8,#1CD855,0,10,0,38,1,3431.7999999998137,37,1,1328.3999999994412,0,0,experiment,NA,NA,1,0.3,0.7,3,2,11,1,NA
fcp-trial,79,838294,0.0-20.0-0.0,voc_e2,11841,"[{""event"":""fullscreenenter"",""trial"":1,""time"":32095}]",NA,NA,NA,NA,NA,1,#D8271C,#741CD8,10,0,0,38,1,6204.5,39,0,1284.9000000003723,0,1,experiment,NA,NA,2,0.5,0.5,5,4,12,1,NA
fcp-trial,80,842553,0.0-21.0-0.0,voc_e2,11841,"[{""event"":""fullscreenenter"",""trial"":1,""time"":32095}]",NA,NA,NA,NA,NA,6,#3386FF,#D89F1C,10,0,1,38,1,1921.0999999996275,37,1,832,10,1,experiment,NA,NA,0,0.9,0.1,0,1,13,1,NA
fcp-trial,81,849138,0.0-22.0-0.0,voc_e2,11841,"[{""event"":""fullscreenenter"",""trial"":1,""time"":32095}]",NA,NA,NA,NA,NA,6,#FA92F8,#1CD855,0,10,0,38,1,2845.2999999998137,37,1,2233.2999999998137,0,0,experiment,NA,NA,1,0.3,0.7,3,2,14,1,NA
fcp-trial,82,853195,0.0-23.0-0.0,voc_e2,11841,"[{""event"":""fullscreenenter"",""trial"":1,""time"":32095}]",NA,NA,NA,NA,NA,4,#D89F1C,#3386FF,0,10,0,38,1,1777.7000000001863,39,0,767.5,10,1,experiment,NA,NA,0,0.1,0.9,1,0,15,1,NA
fcp-trial,83,858818,0.0-24.0-0.0,voc_e2,11841,"[{""event"":""fullscreenenter"",""trial"":1,""time"":32095}]",NA,NA,NA,NA,NA,0,#D8271C,#741CD8,10,0,0,38,1,3164.699999999255,37,1,950.5,10,0,experiment,NA,NA,2,0.5,0.5,5,4,16,1,NA
fcp-trial,84,863289,0.0-25.0-0.0,voc_e2,11841,"[{""event"":""fullscreenenter"",""trial"":1,""time"":32095}]",NA,NA,NA,NA,NA,5,#3386FF,#D89F1C,10,0,1,38,1,1922.5,37,1,1043.5,10,1,experiment,NA,NA,0,0.9,0.1,0,1,17,1,NA
fcp-trial,85,866624,0.0-26.0-0.0,voc_e2,11841,"[{""event"":""fullscreenenter"",""trial"":1,""time"":32095}]",NA,NA,NA,NA,NA,0,#3386FF,#D89F1C,10,0,1,38,1,1169.7999999998137,37,1,658.0999999996275,10,1,experiment,NA,NA,0,0.9,0.1,0,1,18,1,NA
fcp-trial,86,870146,0.0-27.0-0.0,voc_e2,11841,"[{""event"":""fullscreenenter"",""trial"":1,""time"":32095}]",NA,NA,NA,NA,NA,4,#FA92F8,#1CD855,0,0,0,38,1,1049.2000000001863,39,0,960.6999999992548,0,1,experiment,NA,NA,1,0.3,0.7,3,2,19,1,NA
fcp-trial,87,878407,0.0-28.0-0.0,voc_e2,11841,"[{""event"":""fullscreenenter"",""trial"":1,""time"":32095}]",NA,NA,NA,NA,NA,6,#741CD8,#D8271C,0,0,1,38,1,5194.5,39,0,1560.5,0,0,experiment,NA,NA,2,0.5,0.5,4,5,20,1,NA
fcp-trial,88,884084,0.0-29.0-0.0,voc_e2,11841,"[{""event"":""fullscreenenter"",""trial"":1,""time"":32095}]",NA,NA,NA,NA,NA,4,#741CD8,#D8271C,0,10,1,38,1,3271,39,0,899.2000000001863,10,0,experiment,NA,NA,2,0.5,0.5,4,5,21,1,NA
fcp-trial,89,889979,0.0-30.0-0.0,voc_e2,11841,"[{""event"":""fullscreenenter"",""trial"":1,""time"":32095}]",NA,NA,NA,NA,NA,0,#3386FF,#D89F1C,10,0,1,38,1,2844.899999999441,37,1,1533,10,1,experiment,NA,NA,0,0.9,0.1,0,1,22,1,NA
fcp-trial,90,893420,0.0-31.0-0.0,voc_e2,11841,"[{""event"":""fullscreenenter"",""trial"":1,""time"":32095}]",NA,NA,NA,NA,NA,2,#1CD855,#FA92F8,10,0,1,38,1,1192.2999999998137,37,1,743.2999999998137,10,1,experiment,NA,NA,1,0.7,0.3,2,3,23,1,NA
fcp-trial,91,898389,0.0-32.0-0.0,voc_e2,11841,"[{""event"":""fullscreenenter"",""trial"":1,""time"":32095}]",NA,NA,NA,NA,NA,0,#D8271C,#741CD8,10,0,0,38,1,2527.7000000001863,37,1,934.3999999994412,10,0,experiment,NA,NA,2,0.5,0.5,5,4,24,1,NA
fcp-trial,92,904266,0.0-33.0-0.0,voc_e2,11841,"[{""event"":""fullscreenenter"",""trial"":1,""time"":32095}]",NA,NA,NA,NA,NA,3,#D89F1C,#3386FF,0,10,0,38,1,2441.2999999998137,39,0,1931,10,1,experiment,NA,NA,0,0.1,0.9,1,0,25,1,NA
fcp-trial,93,908511,0.0-34.0-0.0,voc_e2,11841,"[{""event"":""fullscreenenter"",""trial"":1,""time"":32095}]",NA,NA,NA,NA,NA,6,#FA92F8,#1CD855,0,10,0,38,1,2141.2999999998137,39,0,598.7999999998137,10,1,experiment,NA,NA,1,0.3,0.7,3,2,26,1,NA
fcp-trial,94,912737,0.0-35.0-0.0,voc_e2,11841,"[{""event"":""fullscreenenter"",""trial"":1,""time"":32095}]",NA,NA,NA,NA,NA,2,#D8271C,#741CD8,10,10,0,38,1,1650,37,1,1067.800000000745,10,0,experiment,NA,NA,2,0.5,0.5,5,4,27,1,NA
fcp-trial,95,917702,0.0-36.0-0.0,voc_e2,11841,"[{""event"":""fullscreenenter"",""trial"":1,""time"":32095}]",NA,NA,NA,NA,NA,1,#1CD855,#FA92F8,0,0,1,38,1,871.1000000005588,37,1,2587.7000000001863,0,1,experiment,NA,NA,1,0.7,0.3,2,3,28,1,NA
fcp-trial,96,921602,0.0-37.0-0.0,voc_e2,11841,"[{""event"":""fullscreenenter"",""trial"":1,""time"":32095}]",NA,NA,NA,NA,NA,6,#3386FF,#D89F1C,10,0,1,38,1,964.7000000001863,37,1,1429.800000000745,10,1,experiment,NA,NA,0,0.9,0.1,0,1,29,1,NA
fcp-trial,97,925859,0.0-38.0-0.0,voc_e2,11841,"[{""event"":""fullscreenenter"",""trial"":1,""time"":32095}]",NA,NA,NA,NA,NA,5,#741CD8,#D8271C,0,10,1,38,1,907.7999999998137,37,1,1841.5999999996277,0,1,experiment,NA,NA,2,0.5,0.5,4,5,30,1,NA
fcp-trial,98,930625,0.0-39.0-0.0,voc_e2,11841,"[{""event"":""fullscreenenter"",""trial"":1,""time"":32095}]",NA,NA,NA,NA,NA,3,#D8271C,#741CD8,10,10,0,38,1,1912,37,1,1347.5,10,0,experiment,NA,NA,2,0.5,0.5,5,4,31,1,NA
fcp-trial,99,934986,0.0-40.0-0.0,voc_e2,11841,"[{""event"":""fullscreenenter"",""trial"":1,""time"":32095}]",NA,NA,NA,NA,NA,1,#D89F1C,#3386FF,0,10,0,38,1,849.7999999998137,39,0,2003.2000000001865,10,1,experiment,NA,NA,0,0.1,0.9,1,0,32,1,NA
fcp-trial,100,939869,0.0-41.0-0.0,voc_e2,11841,"[{""event"":""fullscreenenter"",""trial"":1,""time"":32095}]",NA,NA,NA,NA,NA,5,#FA92F8,#1CD855,0,10,0,38,1,2278.5,37,1,1099,0,0,experiment,NA,NA,1,0.3,0.7,3,2,33,1,NA
fcp-trial,101,946245,0.0-42.0-0.0,voc_e2,11841,"[{""event"":""fullscreenenter"",""trial"":1,""time"":32095}]",NA,NA,NA,NA,NA,1,#741CD8,#D8271C,10,10,1,38,1,2825.899999999441,39,0,2045.7000000001865,10,0,experiment,NA,NA,2,0.5,0.5,4,5,34,1,NA
fcp-trial,102,949795,0.0-43.0-0.0,voc_e2,11841,"[{""event"":""fullscreenenter"",""trial"":1,""time"":32095}]",NA,NA,NA,NA,NA,6,#741CD8,#D8271C,0,10,1,38,1,1337.7000000001863,39,0,704.1999999992549,10,0,experiment,NA,NA,2,0.5,0.5,4,5,35,1,NA
fcp-trial,103,953429,0.0-44.0-0.0,voc_e2,11841,"[{""event"":""fullscreenenter"",""trial"":1,""time"":32095}]",NA,NA,NA,NA,NA,5,#3386FF,#D89F1C,10,0,1,38,1,843.0999999996275,37,1,1284.5,10,1,experiment,NA,NA,0,0.9,0.1,0,1,36,1,NA
fcp-trial,104,957351,0.0-45.0-0.0,voc_e2,11841,"[{""event"":""fullscreenenter"",""trial"":1,""time"":32095}]",NA,NA,NA,NA,NA,3,#FA92F8,#1CD855,10,0,0,38,1,844.1000000005588,37,1,1564.7000000001865,10,0,experiment,NA,NA,1,0.3,0.7,3,2,37,1,NA
fcp-trial,105,963084,0.0-46.0-0.0,voc_e2,11841,"[{""event"":""fullscreenenter"",""trial"":1,""time"":32095}]",NA,NA,NA,NA,NA,4,#741CD8,#D8271C,0,0,1,38,1,3052.4000000003725,37,1,1175.5999999996277,0,1,experiment,NA,NA,2,0.5,0.5,4,5,38,1,NA
fcp-trial,106,966030,0.0-47.0-0.0,voc_e2,11841,"[{""event"":""fullscreenenter"",""trial"":1,""time"":32095}]",NA,NA,NA,NA,NA,4,#1CD855,#FA92F8,10,10,1,38,1,660.5,39,0,779.3999999994412,10,0,experiment,NA,NA,1,0.7,0.3,2,3,39,1,NA
fcp-trial,107,969986,0.0-48.0-0.0,voc_e2,11841,"[{""event"":""fullscreenenter"",""trial"":1,""time"":32095}]",NA,NA,NA,NA,NA,4,#D89F1C,#3386FF,0,10,0,38,1,1193.699999999255,39,0,1254.9000000003723,10,1,experiment,NA,NA,0,0.1,0.9,1,0,40,1,NA
fcp-trial,108,973273,0.0-49.0-0.0,voc_e2,11841,"[{""event"":""fullscreenenter"",""trial"":1,""time"":32095}]",NA,NA,NA,NA,NA,0,#1CD855,#FA92F8,10,0,1,38,1,794.7000000001863,37,1,982.2000000001864,10,1,experiment,NA,NA,1,0.7,0.3,2,3,41,1,NA
fcp-trial,109,976673,0.0-50.0-0.0,voc_e2,11841,"[{""event"":""fullscreenenter"",""trial"":1,""time"":32095}]",NA,NA,NA,NA,NA,2,#D89F1C,#3386FF,0,10,0,38,1,674,37,1,1219.7999999998135,0,0,experiment,NA,NA,0,0.1,0.9,1,0,42,1,NA
fcp-trial,110,980803,0.0-51.0-0.0,voc_e2,11841,"[{""event"":""fullscreenenter"",""trial"":1,""time"":32095}]",NA,NA,NA,NA,NA,0,#3386FF,#D89F1C,10,0,1,38,1,1494.300000000745,37,1,1129.7999999998135,10,1,experiment,NA,NA,0,0.9,0.1,0,1,43,1,NA
fcp-trial,111,985826,0.0-52.0-0.0,voc_e2,11841,"[{""event"":""fullscreenenter"",""trial"":1,""time"":32095}]",NA,NA,NA,NA,NA,2,#741CD8,#D8271C,10,10,1,38,1,2230.100000000559,39,0,1278.6000000005588,10,0,experiment,NA,NA,2,0.5,0.5,4,5,44,1,NA
fcp-trial,112,989745,0.0-53.0-0.0,voc_e2,11841,"[{""event"":""fullscreenenter"",""trial"":1,""time"":32095}]",NA,NA,NA,NA,NA,3,#FA92F8,#1CD855,10,0,0,38,1,895.2000000001863,39,0,1517.7000000001865,0,1,experiment,NA,NA,1,0.3,0.7,3,2,45,1,NA
fcp-trial,113,995026,0.0-54.0-0.0,voc_e2,11841,"[{""event"":""fullscreenenter"",""trial"":1,""time"":32095}]",NA,NA,NA,NA,NA,3,#D8271C,#741CD8,10,10,0,38,1,2429.7000000001863,37,1,1337.7999999998135,10,0,experiment,NA,NA,2,0.5,0.5,5,4,46,2,NA
fcp-trial,114,1000779,0.0-55.0-0.0,voc_e2,11841,"[{""event"":""fullscreenenter"",""trial"":1,""time"":32095}]",NA,NA,NA,NA,NA,6,#D89F1C,#3386FF,0,10,0,38,1,2894.5,39,0,1339.7999999998135,10,1,experiment,NA,NA,0,0.1,0.9,1,0,47,2,NA
fcp-trial,115,1007100,0.0-56.0-0.0,voc_e2,11841,"[{""event"":""fullscreenenter"",""trial"":1,""time"":32095}]",NA,NA,NA,NA,NA,0,#FA92F8,#1CD855,10,10,0,38,1,4164.300000000745,39,0,650.7999999998137,10,1,experiment,NA,NA,1,0.3,0.7,3,2,48,2,NA
fcp-trial,116,1012587,0.0-57.0-0.0,voc_e2,11841,"[{""event"":""fullscreenenter"",""trial"":1,""time"":32095}]",NA,NA,NA,NA,NA,0,#741CD8,#D8271C,10,10,1,38,1,1678.7999999998137,39,0,2295.5,10,0,experiment,NA,NA,2,0.5,0.5,4,5,49,2,NA
fcp-trial,117,1018106,0.0-58.0-0.0,voc_e2,11841,"[{""event"":""fullscreenenter"",""trial"":1,""time"":32095}]",NA,NA,NA,NA,NA,4,#1CD855,#FA92F8,10,10,1,38,1,1577.7000000001863,37,1,2435.7999999998137,10,1,experiment,NA,NA,1,0.7,0.3,2,3,50,2,NA
fcp-trial,118,1024610,0.0-59.0-0.0,voc_e2,11841,"[{""event"":""fullscreenenter"",""trial"":1,""time"":32095}]",NA,NA,NA,NA,NA,2,#D89F1C,#3386FF,0,0,0,38,1,3666.2000000001863,39,0,1326.199999999255,0,1,experiment,NA,NA,0,0.1,0.9,1,0,51,2,NA
fcp-trial,119,1028012,0.0-60.0-0.0,voc_e2,11841,"[{""event"":""fullscreenenter"",""trial"":1,""time"":32095}]",NA,NA,NA,NA,NA,6,#FA92F8,#1CD855,0,0,0,38,1,1087.300000000745,39,0,809.9000000003725,0,1,experiment,NA,NA,1,0.3,0.7,3,2,52,2,NA
fcp-trial,120,1032091,0.0-61.0-0.0,voc_e2,11841,"[{""event"":""fullscreenenter"",""trial"":1,""time"":32095}]",NA,NA,NA,NA,NA,1,#D8271C,#741CD8,0,0,0,38,1,1021.9000000003725,37,1,1545.5,0,0,experiment,NA,NA,2,0.5,0.5,5,4,53,2,NA
fcp-trial,121,1037121,0.0-62.0-0.0,voc_e2,11841,"[{""event"":""fullscreenenter"",""trial"":1,""time"":32095}]",NA,NA,NA,NA,NA,3,#3386FF,#D89F1C,10,0,1,38,1,2293.100000000559,37,1,1221.0999999996277,10,1,experiment,NA,NA,0,0.9,0.1,0,1,54,2,NA
fcp-trial,122,1041810,0.0-63.0-0.0,voc_e2,11841,"[{""event"":""fullscreenenter"",""trial"":1,""time"":32095}]",NA,NA,NA,NA,NA,2,#1CD855,#FA92F8,0,0,1,38,1,2165.899999999441,37,1,1009.9000000003724,0,1,experiment,NA,NA,1,0.7,0.3,2,3,55,2,NA
fcp-trial,123,1045372,0.0-64.0-0.0,voc_e2,11841,"[{""event"":""fullscreenenter"",""trial"":1,""time"":32095}]",NA,NA,NA,NA,NA,6,#D8271C,#741CD8,0,0,0,38,1,1210.2000000001863,37,1,845.5999999996275,0,0,experiment,NA,NA,2,0.5,0.5,5,4,56,2,NA
fcp-trial,124,1051134,0.0-65.0-0.0,voc_e2,11841,"[{""event"":""fullscreenenter"",""trial"":1,""time"":32095}]",NA,NA,NA,NA,NA,5,#FA92F8,#1CD855,0,10,0,38,1,1839.5999999996275,39,0,2402,10,1,experiment,NA,NA,1,0.3,0.7,3,2,57,2,NA
fcp-trial,125,1055309,0.0-66.0-0.0,voc_e2,11841,"[{""event"":""fullscreenenter"",""trial"":1,""time"":32095}]",NA,NA,NA,NA,NA,5,#741CD8,#D8271C,0,0,1,38,1,1937.3999999994412,37,1,730.6000000005588,0,1,experiment,NA,NA,2,0.5,0.5,4,5,58,2,NA
fcp-trial,126,1059310,0.0-67.0-0.0,voc_e2,11841,"[{""event"":""fullscreenenter"",""trial"":1,""time"":32095}]",NA,NA,NA,NA,NA,4,#D89F1C,#3386FF,0,0,0,38,1,1876.5,39,0,610.7999999998137,0,1,experiment,NA,NA,0,0.1,0.9,1,0,59,2,NA
fcp-trial,127,1062695,0.0-68.0-0.0,voc_e2,11841,"[{""event"":""fullscreenenter"",""trial"":1,""time"":32095}]",NA,NA,NA,NA,NA,1,#3386FF,#D89F1C,10,0,1,38,1,1159.800000000745,39,0,716.3000000007451,0,0,experiment,NA,NA,0,0.9,0.1,0,1,60,2,NA
fcp-trial,128,1066295,0.0-69.0-0.0,voc_e2,11841,"[{""event"":""fullscreenenter"",""trial"":1,""time"":32095}]",NA,NA,NA,NA,NA,1,#1CD855,#FA92F8,10,0,1,38,1,837.7999999998137,37,1,1252.7999999998135,10,1,experiment,NA,NA,1,0.7,0.3,2,3,61,2,NA
fcp-trial,129,1069889,0.0-70.0-0.0,voc_e2,11841,"[{""event"":""fullscreenenter"",""trial"":1,""time"":32095}]",NA,NA,NA,NA,NA,5,#D89F1C,#3386FF,0,10,0,38,1,1061.2999999998137,37,1,1027.5,0,0,experiment,NA,NA,0,0.1,0.9,1,0,62,2,NA
fcp-trial,130,1073800,0.0-71.0-0.0,voc_e2,11841,"[{""event"":""fullscreenenter"",""trial"":1,""time"":32095}]",NA,NA,NA,NA,NA,4,#741CD8,#D8271C,10,0,1,38,1,1714.6000000005588,39,0,690.7999999998137,0,0,experiment,NA,NA,2,0.5,0.5,4,5,63,2,NA
fcp-trial,131,1078142,0.0-72.0-0.0,voc_e2,11841,"[{""event"":""fullscreenenter"",""trial"":1,""time"":32095}]",NA,NA,NA,NA,NA,2,#3386FF,#D89F1C,10,0,1,38,1,1974.2000000001863,37,1,860,10,1,experiment,NA,NA,0,0.9,0.1,0,1,64,2,NA
fcp-trial,132,1081307,0.0-73.0-0.0,voc_e2,11841,"[{""event"":""fullscreenenter"",""trial"":1,""time"":32095}]",NA,NA,NA,NA,NA,3,#3386FF,#D89F1C,10,0,1,38,1,891.2000000001863,37,1,762.7999999998137,10,1,experiment,NA,NA,0,0.9,0.1,0,1,65,2,NA
fcp-trial,133,1086629,0.0-74.0-0.0,voc_e2,11841,"[{""event"":""fullscreenenter"",""trial"":1,""time"":32095}]",NA,NA,NA,NA,NA,4,#741CD8,#D8271C,10,10,1,38,1,2735.5999999996275,39,0,1080.7999999998135,10,0,experiment,NA,NA,2,0.5,0.5,4,5,66,2,NA
fcp-trial,134,1090534,0.0-75.0-0.0,voc_e2,11841,"[{""event"":""fullscreenenter"",""trial"":1,""time"":32095}]",NA,NA,NA,NA,NA,3,#FA92F8,#1CD855,10,10,0,38,1,863.0999999996275,39,0,1530.5,10,1,experiment,NA,NA,1,0.3,0.7,3,2,67,2,NA
fcp-trial,135,1096488,0.0-76.0-0.0,voc_e2,11841,"[{""event"":""fullscreenenter"",""trial"":1,""time"":32095}]",NA,NA,NA,NA,NA,2,#741CD8,#D8271C,0,0,1,38,1,3735.2000000001863,39,0,713.5,0,0,experiment,NA,NA,2,0.5,0.5,4,5,68,2,NA
fcp-trial,136,1099795,0.0-77.0-0.0,voc_e2,11841,"[{""event"":""fullscreenenter"",""trial"":1,""time"":32095}]",NA,NA,NA,NA,NA,1,#741CD8,#D8271C,10,10,1,38,1,805.8000000007451,37,1,990.2000000001864,10,1,experiment,NA,NA,2,0.5,0.5,4,5,69,2,NA
fcp-trial,137,1103515,0.0-78.0-0.0,voc_e2,11841,"[{""event"":""fullscreenenter"",""trial"":1,""time"":32095}]",NA,NA,NA,NA,NA,4,#3386FF,#D89F1C,10,0,1,38,1,1154.9000000003725,37,1,1058.2000000001865,10,1,experiment,NA,NA,0,0.9,0.1,0,1,70,2,NA
fcp-trial,138,1106471,0.0-79.0-0.0,voc_e2,11841,"[{""event"":""fullscreenenter"",""trial"":1,""time"":32095}]",NA,NA,NA,NA,NA,2,#FA92F8,#1CD855,0,0,0,38,1,706,39,0,739.4000000003725,0,1,experiment,NA,NA,1,0.3,0.7,3,2,71,2,NA
fcp-trial,139,1109631,0.0-80.0-0.0,voc_e2,11841,"[{""event"":""fullscreenenter"",""trial"":1,""time"":32095}]",NA,NA,NA,NA,NA,6,#1CD855,#FA92F8,10,0,1,38,1,896.4000000003725,37,1,758.5999999996275,10,1,experiment,NA,NA,1,0.7,0.3,2,3,72,2,NA
fcp-trial,140,1112914,0.0-81.0-0.0,voc_e2,11841,"[{""event"":""fullscreenenter"",""trial"":1,""time"":32095}]",NA,NA,NA,NA,NA,6,#3386FF,#D89F1C,10,0,1,38,1,817.5,37,1,957.3000000007452,10,1,experiment,NA,NA,0,0.9,0.1,0,1,73,2,NA
fcp-trial,141,1116187,0.0-82.0-0.0,voc_e2,11841,"[{""event"":""fullscreenenter"",""trial"":1,""time"":32095}]",NA,NA,NA,NA,NA,0,#741CD8,#D8271C,10,10,1,38,1,1107.7999999998137,39,0,658.4000000003725,10,0,experiment,NA,NA,2,0.5,0.5,4,5,74,2,NA
fcp-trial,142,1119841,0.0-83.0-0.0,voc_e2,11841,"[{""event"":""fullscreenenter"",""trial"":1,""time"":32095}]",NA,NA,NA,NA,NA,4,#1CD855,#FA92F8,0,10,1,38,1,1212.7999999998137,37,1,929.2000000001864,0,1,experiment,NA,NA,1,0.7,0.3,2,3,75,2,NA
fcp-trial,143,1123018,0.0-84.0-0.0,voc_e2,11841,"[{""event"":""fullscreenenter"",""trial"":1,""time"":32095}]",NA,NA,NA,NA,NA,0,#D89F1C,#3386FF,0,10,0,38,1,794.0999999996275,39,0,876.2999999998137,10,1,experiment,NA,NA,0,0.1,0.9,1,0,76,2,NA
fcp-trial,144,1127172,0.0-85.0-0.0,voc_e2,11841,"[{""event"":""fullscreenenter"",""trial"":1,""time"":32095}]",NA,NA,NA,NA,NA,6,#D8271C,#741CD8,10,0,0,38,1,1827.9000000003725,37,1,816,10,0,experiment,NA,NA,2,0.5,0.5,5,4,77,2,NA
fcp-trial,145,1131593,0.0-86.0-0.0,voc_e2,11841,"[{""event"":""fullscreenenter"",""trial"":1,""time"":32095}]",NA,NA,NA,NA,NA,5,#1CD855,#FA92F8,10,10,1,38,1,713.7999999998137,37,1,2200.4000000003725,10,1,experiment,NA,NA,1,0.7,0.3,2,3,78,2,NA
fcp-trial,146,1135219,0.0-87.0-0.0,voc_e2,11841,"[{""event"":""fullscreenenter"",""trial"":1,""time"":32095}]",NA,NA,NA,NA,NA,1,#D89F1C,#3386FF,0,10,0,38,1,736.1999999992549,39,0,1376.7999999998135,10,1,experiment,NA,NA,0,0.1,0.9,1,0,79,2,NA
fcp-trial,147,1139743,0.0-88.0-0.0,voc_e2,11841,"[{""event"":""fullscreenenter"",""trial"":1,""time"":32095}]",NA,NA,NA,NA,NA,3,#741CD8,#D8271C,10,10,1,38,1,1529.7999999998137,39,0,1482.300000000745,10,0,experiment,NA,NA,2,0.5,0.5,4,5,80,2,NA
fcp-trial,148,1143981,0.0-89.0-0.0,voc_e2,11841,"[{""event"":""fullscreenenter"",""trial"":1,""time"":32095}]",NA,NA,NA,NA,NA,1,#1CD855,#FA92F8,10,0,1,38,1,1625.800000000745,39,0,1104.4000000003723,0,0,experiment,NA,NA,1,0.7,0.3,2,3,81,2,NA
fcp-trial,149,1146968,0.0-90.0-0.0,voc_e2,11841,"[{""event"":""fullscreenenter"",""trial"":1,""time"":32095}]",NA,NA,NA,NA,NA,0,#1CD855,#FA92F8,0,10,1,38,1,694.0999999996275,37,1,778.7999999998137,0,1,experiment,NA,NA,1,0.7,0.3,2,3,82,2,NA
fcp-trial,150,1151401,0.0-91.0-0.0,voc_e2,11841,"[{""event"":""fullscreenenter"",""trial"":1,""time"":32095}]",NA,NA,NA,NA,NA,5,#D8271C,#741CD8,10,10,0,38,1,670.6999999992549,37,1,2255.5,10,0,experiment,NA,NA,2,0.5,0.5,5,4,83,2,NA
fcp-trial,151,1154662,0.0-92.0-0.0,voc_e2,11841,"[{""event"":""fullscreenenter"",""trial"":1,""time"":32095}]",NA,NA,NA,NA,NA,5,#D89F1C,#3386FF,0,0,0,38,1,968.3999999994412,39,0,777.4000000003725,0,1,experiment,NA,NA,0,0.1,0.9,1,0,84,2,NA
fcp-trial,152,1159097,0.0-93.0-0.0,voc_e2,11841,"[{""event"":""fullscreenenter"",""trial"":1,""time"":32095}]",NA,NA,NA,NA,NA,2,#1CD855,#FA92F8,10,0,1,38,1,1166.7999999998137,37,1,1761.5999999996277,10,1,experiment,NA,NA,1,0.7,0.3,2,3,85,2,NA
fcp-trial,153,1163971,0.0-94.0-0.0,voc_e2,11841,"[{""event"":""fullscreenenter"",""trial"":1,""time"":32095}]",NA,NA,NA,NA,NA,6,#D89F1C,#3386FF,0,10,0,38,1,1598.6000000005588,39,0,1766.7000000001865,10,1,experiment,NA,NA,0,0.1,0.9,1,0,86,2,NA
fcp-trial,154,1167640,0.0-95.0-0.0,voc_e2,11841,"[{""event"":""fullscreenenter"",""trial"":1,""time"":32095}]",NA,NA,NA,NA,NA,6,#1CD855,#FA92F8,10,0,1,38,1,1127,37,1,1036.4000000003723,10,1,experiment,NA,NA,1,0.7,0.3,2,3,87,2,NA
fcp-trial,155,1171624,0.0-96.0-0.0,voc_e2,11841,"[{""event"":""fullscreenenter"",""trial"":1,""time"":32095}]",NA,NA,NA,NA,NA,1,#D89F1C,#3386FF,0,0,0,38,1,1349,39,0,1121.8999999994412,0,1,experiment,NA,NA,0,0.1,0.9,1,0,88,2,NA
fcp-trial,156,1174564,0.0-97.0-0.0,voc_e2,11841,"[{""event"":""fullscreenenter"",""trial"":1,""time"":32095}]",NA,NA,NA,NA,NA,2,#D89F1C,#3386FF,0,10,0,38,1,763.5,39,0,659.2000000001863,10,1,experiment,NA,NA,0,0.1,0.9,1,0,89,2,NA
fcp-trial,157,1178557,0.0-98.0-0.0,voc_e2,11841,"[{""event"":""fullscreenenter"",""trial"":1,""time"":32095}]",NA,NA,NA,NA,NA,0,#741CD8,#D8271C,0,10,1,38,1,1930.5,39,0,557.0999999996275,10,0,experiment,NA,NA,2,0.5,0.5,4,5,90,2,NA
fcp-trial,158,1182135,0.0-99.0-0.0,voc_e2,11841,"[{""event"":""fullscreenenter"",""trial"":1,""time"":32095}]",NA,NA,NA,NA,NA,4,#1CD855,#FA92F8,10,0,1,38,1,1062.7999999998137,37,1,1008.4000000003724,10,1,experiment,NA,NA,1,0.7,0.3,2,3,91,3,NA
fcp-trial,159,1186573,0.0-100.0-0.0,voc_e2,11841,"[{""event"":""fullscreenenter"",""trial"":1,""time"":32095}]",NA,NA,NA,NA,NA,5,#3386FF,#D89F1C,0,0,1,38,1,2243,37,1,688,0,1,experiment,NA,NA,0,0.9,0.1,0,1,92,3,NA
fcp-trial,160,1191468,0.0-101.0-0.0,voc_e2,11841,"[{""event"":""fullscreenenter"",""trial"":1,""time"":32095}]",NA,NA,NA,NA,NA,3,#FA92F8,#1CD855,0,0,0,38,1,2111.2999999998137,37,1,1278.2000000001865,0,0,experiment,NA,NA,1,0.3,0.7,3,2,93,3,NA
fcp-trial,161,1196330,0.0-102.0-0.0,voc_e2,11841,"[{""event"":""fullscreenenter"",""trial"":1,""time"":32095}]",NA,NA,NA,NA,NA,6,#D8271C,#741CD8,10,0,0,38,1,2125.7999999998137,37,1,1230.1000000005588,10,0,experiment,NA,NA,2,0.5,0.5,5,4,94,3,NA
fcp-trial,162,1200873,0.0-103.0-0.0,voc_e2,11841,"[{""event"":""fullscreenenter"",""trial"":1,""time"":32095}]",NA,NA,NA,NA,NA,4,#3386FF,#D89F1C,10,0,1,38,1,1887.7000000001863,37,1,1148.2999999998135,10,1,experiment,NA,NA,0,0.9,0.1,0,1,95,3,NA
fcp-trial,163,1204495,0.0-104.0-0.0,voc_e2,11841,"[{""event"":""fullscreenenter"",""trial"":1,""time"":32095}]",NA,NA,NA,NA,NA,1,#741CD8,#D8271C,10,0,1,38,1,1256.9000000003725,39,0,858.2000000001863,0,0,experiment,NA,NA,2,0.5,0.5,4,5,96,3,NA
fcp-trial,164,1210427,0.0-105.0-0.0,voc_e2,11841,"[{""event"":""fullscreenenter"",""trial"":1,""time"":32095}]",NA,NA,NA,NA,NA,5,#1CD855,#FA92F8,10,0,1,38,1,1179.1000000005588,37,1,3237.2999999998137,10,1,experiment,NA,NA,1,0.7,0.3,2,3,97,3,NA
fcp-trial,165,1216443,0.0-106.0-0.0,voc_e2,11841,"[{""event"":""fullscreenenter"",""trial"":1,""time"":32095}]",NA,NA,NA,NA,NA,3,#741CD8,#D8271C,10,0,1,38,1,2045.3999999994412,39,0,2463.2000000001863,0,0,experiment,NA,NA,2,0.5,0.5,4,5,98,3,NA
fcp-trial,166,1221584,0.0-107.0-0.0,voc_e2,11841,"[{""event"":""fullscreenenter"",""trial"":1,""time"":32095}]",NA,NA,NA,NA,NA,0,#D89F1C,#3386FF,0,10,0,38,1,1992.2000000001863,39,0,1639.4000000003723,10,1,experiment,NA,NA,0,0.1,0.9,1,0,99,3,NA
fcp-trial,167,1226083,0.0-108.0-0.0,voc_e2,11841,"[{""event"":""fullscreenenter"",""trial"":1,""time"":32095}]",NA,NA,NA,NA,NA,1,#FA92F8,#1CD855,0,0,0,38,1,1829.7000000001863,39,0,1165.0999999996277,0,1,experiment,NA,NA,1,0.3,0.7,3,2,100,3,NA
fcp-trial,168,1230231,0.0-109.0-0.0,voc_e2,11841,"[{""event"":""fullscreenenter"",""trial"":1,""time"":32095}]",NA,NA,NA,NA,NA,3,#D89F1C,#3386FF,0,10,0,38,1,1808.2000000001863,39,0,831.9000000003725,10,1,experiment,NA,NA,0,0.1,0.9,1,0,101,3,NA
fcp-trial,169,1236408,0.0-110.0-0.0,voc_e2,11841,"[{""event"":""fullscreenenter"",""trial"":1,""time"":32095}]",NA,NA,NA,NA,NA,5,#D8271C,#741CD8,0,10,0,38,1,2375.4000000003725,37,1,2295.2999999998137,0,0,experiment,NA,NA,2,0.5,0.5,5,4,102,3,NA
fcp-trial,170,1241438,0.0-111.0-0.0,voc_e2,11841,"[{""event"":""fullscreenenter"",""trial"":1,""time"":32095}]",NA,NA,NA,NA,NA,2,#D8271C,#741CD8,10,0,0,38,1,1165.7999999998137,37,1,2358,10,0,experiment,NA,NA,2,0.5,0.5,5,4,103,3,NA
fcp-trial,171,1246989,0.0-112.0-0.0,voc_e2,11841,"[{""event"":""fullscreenenter"",""trial"":1,""time"":32095}]",NA,NA,NA,NA,NA,4,#741CD8,#D8271C,0,10,1,38,1,876.4000000003725,39,0,3168.800000000745,10,0,experiment,NA,NA,2,0.5,0.5,4,5,104,3,NA
fcp-trial,172,1256828,0.0-113.0-0.0,voc_e2,11841,"[{""event"":""fullscreenenter"",""trial"":1,""time"":32095}]",NA,NA,NA,NA,NA,0,#1CD855,#FA92F8,0,0,1,38,1,4764.199999999255,37,1,3561.2999999998137,0,1,experiment,NA,NA,1,0.7,0.3,2,3,105,3,NA
audio-instructions,173,1392822,0.0-114.0,voc_e2,11841,"[{""event"":""fullscreenenter"",""trial"":1,""time"":32095}]",NA,131559.39999999944,static/audio/pause.wav,NA,0,NA,NA,NA,NA,NA,NA,NA,NA,NA,NA,NA,NA,NA,NA,NA,NA,NA,NA,NA,NA,NA,NA,NA,NA,NA
fcp-trial,174,1398387,0.0-115.0-0.0,voc_e2,11841,"[{""event"":""fullscreenenter"",""trial"":1,""time"":32095}]",NA,NA,NA,NA,NA,1,#D8271C,#741CD8,0,0,0,38,1,2836.5,37,1,1214.2000000001865,0,0,experiment,NA,NA,2,0.5,0.5,5,4,106,3,NA
fcp-trial,175,1401986,0.0-116.0-0.0,voc_e2,11841,"[{""event"":""fullscreenenter"",""trial"":1,""time"":32095}]",NA,NA,NA,NA,NA,5,#D8271C,#741CD8,10,0,0,38,1,1346.8999999994412,37,1,746.0999999996275,10,0,experiment,NA,NA,2,0.5,0.5,5,4,107,3,NA
fcp-trial,176,1405356,0.0-117.0-0.0,voc_e2,11841,"[{""event"":""fullscreenenter"",""trial"":1,""time"":32095}]",NA,NA,NA,NA,NA,4,#D89F1C,#3386FF,0,10,0,38,1,1164.9000000003725,39,0,692.5999999996275,10,1,experiment,NA,NA,0,0.1,0.9,1,0,108,3,NA
fcp-trial,177,1408658,0.0-118.0-0.0,voc_e2,11841,"[{""event"":""fullscreenenter"",""trial"":1,""time"":32095}]",NA,NA,NA,NA,NA,3,#3386FF,#D89F1C,10,0,1,38,1,739,37,1,1049.7999999998135,10,1,experiment,NA,NA,0,0.9,0.1,0,1,109,3,NA
fcp-trial,178,1412946,0.0-119.0-0.0,voc_e2,11841,"[{""event"":""fullscreenenter"",""trial"":1,""time"":32095}]",NA,NA,NA,NA,NA,0,#1CD855,#FA92F8,0,10,1,38,1,982.5,37,1,1796.5999999996277,0,1,experiment,NA,NA,1,0.7,0.3,2,3,110,3,NA
fcp-trial,179,1416807,0.0-120.0-0.0,voc_e2,11841,"[{""event"":""fullscreenenter"",""trial"":1,""time"":32095}]",NA,NA,NA,NA,NA,2,#741CD8,#D8271C,10,0,1,38,1,915.5,39,0,1430.2000000001865,0,0,experiment,NA,NA,2,0.5,0.5,4,5,111,3,NA
fcp-trial,180,1420085,0.0-121.0-0.0,voc_e2,11841,"[{""event"":""fullscreenenter"",""trial"":1,""time"":32095}]",NA,NA,NA,NA,NA,5,#3386FF,#D89F1C,10,0,1,38,1,690.4000000003725,37,1,1069.7000000001865,10,1,experiment,NA,NA,0,0.9,0.1,0,1,112,3,NA
fcp-trial,181,1423762,0.0-122.0-0.0,voc_e2,11841,"[{""event"":""fullscreenenter"",""trial"":1,""time"":32095}]",NA,NA,NA,NA,NA,4,#D8271C,#741CD8,10,0,0,38,1,730,37,1,1439.699999999255,10,0,experiment,NA,NA,2,0.5,0.5,5,4,113,3,NA
fcp-trial,182,1426612,0.0-123.0-0.0,voc_e2,11841,"[{""event"":""fullscreenenter"",""trial"":1,""time"":32095}]",NA,NA,NA,NA,NA,1,#FA92F8,#1CD855,0,10,0,38,1,769.5999999996275,39,0,570.5,10,1,experiment,NA,NA,1,0.3,0.7,3,2,114,3,NA
fcp-trial,183,1429952,0.0-124.0-0.0,voc_e2,11841,"[{""event"":""fullscreenenter"",""trial"":1,""time"":32095}]",NA,NA,NA,NA,NA,0,#D89F1C,#3386FF,0,10,0,38,1,812.0999999996275,39,0,1017.6000000005588,10,1,experiment,NA,NA,0,0.1,0.9,1,0,115,3,NA
fcp-trial,184,1433525,0.0-125.0-0.0,voc_e2,11841,"[{""event"":""fullscreenenter"",""trial"":1,""time"":32095}]",NA,NA,NA,NA,NA,2,#1CD855,#FA92F8,0,0,1,38,1,640,37,1,1427.7999999998135,0,1,experiment,NA,NA,1,0.7,0.3,2,3,116,3,NA
fcp-trial,185,1436202,0.0-126.0-0.0,voc_e2,11841,"[{""event"":""fullscreenenter"",""trial"":1,""time"":32095}]",NA,NA,NA,NA,NA,6,#D89F1C,#3386FF,0,0,0,38,1,520,39,0,644,0,1,experiment,NA,NA,0,0.1,0.9,1,0,117,3,NA
fcp-trial,186,1440512,0.0-127.0-0.0,voc_e2,11841,"[{""event"":""fullscreenenter"",""trial"":1,""time"":32095}]",NA,NA,NA,NA,NA,6,#741CD8,#D8271C,10,0,1,38,1,841.1999999992549,39,0,1963.2999999998135,0,0,experiment,NA,NA,2,0.5,0.5,4,5,118,3,NA
fcp-trial,187,1444089,0.0-128.0-0.0,voc_e2,11841,"[{""event"":""fullscreenenter"",""trial"":1,""time"":32095}]",NA,NA,NA,NA,NA,4,#FA92F8,#1CD855,0,10,0,38,1,778.1000000005588,37,1,1292.0999999996277,0,0,experiment,NA,NA,1,0.3,0.7,3,2,119,3,NA
fcp-trial,188,1447022,0.0-129.0-0.0,voc_e2,11841,"[{""event"":""fullscreenenter"",""trial"":1,""time"":32095}]",NA,NA,NA,NA,NA,3,#1CD855,#FA92F8,0,0,1,38,1,749.2000000001863,39,0,678.6000000005588,0,0,experiment,NA,NA,1,0.7,0.3,2,3,120,3,NA
fcp-trial,189,1449958,0.0-130.0-0.0,voc_e2,11841,"[{""event"":""fullscreenenter"",""trial"":1,""time"":32095}]",NA,NA,NA,NA,NA,1,#D89F1C,#3386FF,0,10,0,38,1,832.2000000001863,39,0,599.5999999996275,10,1,experiment,NA,NA,0,0.1,0.9,1,0,121,3,NA
fcp-trial,190,1452968,0.0-131.0-0.0,voc_e2,11841,"[{""event"":""fullscreenenter"",""trial"":1,""time"":32095}]",NA,NA,NA,NA,NA,0,#D8271C,#741CD8,0,0,0,38,1,672.9000000003725,37,1,832.4000000003725,0,0,experiment,NA,NA,2,0.5,0.5,5,4,122,3,NA
fcp-trial,191,1456181,0.0-132.0-0.0,voc_e2,11841,"[{""event"":""fullscreenenter"",""trial"":1,""time"":32095}]",NA,NA,NA,NA,NA,5,#FA92F8,#1CD855,0,10,0,38,1,694,39,0,1013.4000000003724,10,1,experiment,NA,NA,1,0.3,0.7,3,2,123,3,NA
fcp-trial,192,1459032,0.0-133.0-0.0,voc_e2,11841,"[{""event"":""fullscreenenter"",""trial"":1,""time"":32095}]",NA,NA,NA,NA,NA,3,#D8271C,#741CD8,10,0,0,38,1,623.7000000001863,37,1,718.2000000001863,10,0,experiment,NA,NA,2,0.5,0.5,5,4,124,3,NA
fcp-trial,193,1462346,0.0-134.0-0.0,voc_e2,11841,"[{""event"":""fullscreenenter"",""trial"":1,""time"":32095}]",NA,NA,NA,NA,NA,6,#1CD855,#FA92F8,10,0,1,38,1,559.5,37,1,1247.2999999998135,10,1,experiment,NA,NA,1,0.7,0.3,2,3,125,3,NA
fcp-trial,194,1465591,0.0-135.0-0.0,voc_e2,11841,"[{""event"":""fullscreenenter"",""trial"":1,""time"":32095}]",NA,NA,NA,NA,NA,2,#D89F1C,#3386FF,10,10,0,38,1,1149.2999999998137,39,0,583,10,1,experiment,NA,NA,0,0.1,0.9,1,0,126,3,NA
fcp-trial,195,1469770,0.0-136.0-0.0,voc_e2,11841,"[{""event"":""fullscreenenter"",""trial"":1,""time"":32095}]",NA,NA,NA,NA,NA,4,#FA92F8,#1CD855,0,0,0,38,1,711.5999999996275,39,0,1962.5,0,1,experiment,NA,NA,1,0.3,0.7,3,2,127,3,NA
fcp-trial,196,1473404,0.0-137.0-0.0,voc_e2,11841,"[{""event"":""fullscreenenter"",""trial"":1,""time"":32095}]",NA,NA,NA,NA,NA,3,#D8271C,#741CD8,10,10,0,38,1,1154.5999999996275,37,1,971.7000000001864,10,0,experiment,NA,NA,2,0.5,0.5,5,4,128,3,NA
fcp-trial,197,1476570,0.0-138.0-0.0,voc_e2,11841,"[{""event"":""fullscreenenter"",""trial"":1,""time"":32095}]",NA,NA,NA,NA,NA,1,#741CD8,#D8271C,0,10,1,38,1,952.7000000001863,39,0,704.4000000003725,10,0,experiment,NA,NA,2,0.5,0.5,4,5,129,3,NA
fcp-trial,198,1479411,0.0-139.0-0.0,voc_e2,11841,"[{""event"":""fullscreenenter"",""trial"":1,""time"":32095}]",NA,NA,NA,NA,NA,6,#741CD8,#D8271C,0,10,1,38,1,677.5999999996275,39,0,649.7000000001863,10,0,experiment,NA,NA,2,0.5,0.5,4,5,130,3,NA
fcp-trial,199,1482345,0.0-140.0-0.0,voc_e2,11841,"[{""event"":""fullscreenenter"",""trial"":1,""time"":32095}]",NA,NA,NA,NA,NA,4,#D89F1C,#3386FF,0,10,0,38,1,604.7000000001863,39,0,824.7000000001863,10,1,experiment,NA,NA,0,0.1,0.9,1,0,131,3,NA
fcp-trial,200,1486132,0.0-141.0-0.0,voc_e2,11841,"[{""event"":""fullscreenenter"",""trial"":1,""time"":32095}]",NA,NA,NA,NA,NA,5,#FA92F8,#1CD855,10,10,0,38,1,1097,39,0,1183.2000000001865,10,1,experiment,NA,NA,1,0.3,0.7,3,2,132,3,NA
fcp-trial,201,1490002,0.0-142.0-0.0,voc_e2,11841,"[{""event"":""fullscreenenter"",""trial"":1,""time"":32095}]",NA,NA,NA,NA,NA,2,#3386FF,#D89F1C,10,0,1,38,1,1001.2000000001863,37,1,1352,10,1,experiment,NA,NA,0,0.9,0.1,0,1,133,3,NA
fcp-trial,202,1495876,0.0-143.0-0.0,voc_e2,11841,"[{""event"":""fullscreenenter"",""trial"":1,""time"":32095}]",NA,NA,NA,NA,NA,6,#3386FF,#D89F1C,10,0,1,38,1,3108,37,1,1257.7999999998135,10,1,experiment,NA,NA,0,0.9,0.1,0,1,134,3,NA
fcp-trial,203,1499677,0.0-144.0-0.0,voc_e2,11841,"[{""event"":""fullscreenenter"",""trial"":1,""time"":32095}]",NA,NA,NA,NA,NA,4,#741CD8,#D8271C,0,0,1,38,1,1466.4000000003725,39,0,828.2000000001863,0,0,experiment,NA,NA,2,0.5,0.5,4,5,135,3,NA
fcp-trial,204,1503130,0.0-145.0-0.0,voc_e2,11841,"[{""event"":""fullscreenenter"",""trial"":1,""time"":32095}]",NA,NA,NA,NA,NA,0,#FA92F8,#1CD855,0,0,0,38,1,644.4000000003725,39,0,1304.4000000003723,0,1,experiment,NA,NA,1,0.3,0.7,3,2,136,4,NA
fcp-trial,205,1512465,0.0-146.0-0.0,voc_e2,11841,"[{""event"":""fullscreenenter"",""trial"":1,""time"":32095}]",NA,NA,NA,NA,NA,2,#D8271C,#741CD8,10,0,0,38,1,1303.9000000003725,37,1,6511.199999999255,10,0,experiment,NA,NA,2,0.5,0.5,5,4,137,4,NA
fcp-trial,206,1521554,0.0-147.0-0.0,voc_e2,11841,"[{""event"":""fullscreenenter"",""trial"":1,""time"":32095}]",NA,NA,NA,NA,NA,1,#D89F1C,#3386FF,0,10,0,38,1,6899.700000000186,39,0,684.2999999998137,10,1,experiment,NA,NA,0,0.1,0.9,1,0,138,4,NA
fcp-trial,207,1525364,0.0-148.0-0.0,voc_e2,11841,"[{""event"":""fullscreenenter"",""trial"":1,""time"":32095}]",NA,NA,NA,NA,NA,5,#741CD8,#D8271C,10,10,1,38,1,1373.2000000001863,39,0,930.7999999998136,10,0,experiment,NA,NA,2,0.5,0.5,4,5,139,4,NA
fcp-trial,208,1532553,0.0-149.0-0.0,voc_e2,11841,"[{""event"":""fullscreenenter"",""trial"":1,""time"":32095}]",NA,NA,NA,NA,NA,0,#3386FF,#D89F1C,0,0,1,38,1,2425.100000000559,37,1,3248.5,0,1,experiment,NA,NA,0,0.9,0.1,0,1,140,4,NA
fcp-trial,209,1535819,0.0-150.0-0.0,voc_e2,11841,"[{""event"":""fullscreenenter"",""trial"":1,""time"":32095}]",NA,NA,NA,NA,NA,1,#1CD855,#FA92F8,10,0,1,38,1,714.3999999994412,37,1,1045.8999999994412,10,1,experiment,NA,NA,1,0.7,0.3,2,3,141,4,NA
fcp-trial,210,1539374,0.0-151.0-0.0,voc_e2,11841,"[{""event"":""fullscreenenter"",""trial"":1,""time"":32095}]",NA,NA,NA,NA,NA,3,#1CD855,#FA92F8,10,10,1,38,1,1062.2000000001863,37,1,979.5999999996276,10,1,experiment,NA,NA,1,0.7,0.3,2,3,142,4,NA
fcp-trial,211,1543676,0.0-152.0-0.0,voc_e2,11841,"[{""event"":""fullscreenenter"",""trial"":1,""time"":32095}]",NA,NA,NA,NA,NA,5,#D89F1C,#3386FF,0,10,0,38,1,1357.300000000745,39,0,1435.2999999998135,10,1,experiment,NA,NA,0,0.1,0.9,1,0,143,4,NA
fcp-trial,212,1548843,0.0-153.0-0.0,voc_e2,11841,"[{""event"":""fullscreenenter"",""trial"":1,""time"":32095}]",NA,NA,NA,NA,NA,0,#741CD8,#D8271C,10,10,1,38,1,1435.5,39,0,2222.600000000559,10,0,experiment,NA,NA,2,0.5,0.5,4,5,144,4,NA
fcp-trial,213,1552298,0.0-154.0-0.0,voc_e2,11841,"[{""event"":""fullscreenenter"",""trial"":1,""time"":32095}]",NA,NA,NA,NA,NA,6,#FA92F8,#1CD855,0,0,0,38,1,715.9000000003725,39,0,1226.7999999998135,0,1,experiment,NA,NA,1,0.3,0.7,3,2,145,4,NA
fcp-trial,214,1555768,0.0-155.0-0.0,voc_e2,11841,"[{""event"":""fullscreenenter"",""trial"":1,""time"":32095}]",NA,NA,NA,NA,NA,2,#FA92F8,#1CD855,0,0,0,38,1,797.3999999994412,39,0,1166.8999999994412,0,1,experiment,NA,NA,1,0.3,0.7,3,2,146,4,NA
fcp-trial,215,1559957,0.0-156.0-0.0,voc_e2,11841,"[{""event"":""fullscreenenter"",""trial"":1,""time"":32095}]",NA,NA,NA,NA,NA,3,#D89F1C,#3386FF,0,10,0,38,1,816.1000000005588,39,0,1858.300000000745,10,1,experiment,NA,NA,0,0.1,0.9,1,0,147,4,NA
fcp-trial,216,1563004,0.0-157.0-0.0,voc_e2,11841,"[{""event"":""fullscreenenter"",""trial"":1,""time"":32095}]",NA,NA,NA,NA,NA,5,#1CD855,#FA92F8,10,0,1,38,1,732.7999999998137,37,1,809.4000000003725,10,1,experiment,NA,NA,1,0.7,0.3,2,3,148,4,NA
fcp-trial,217,1566101,0.0-158.0-0.0,voc_e2,11841,"[{""event"":""fullscreenenter"",""trial"":1,""time"":32095}]",NA,NA,NA,NA,NA,1,#3386FF,#D89F1C,10,0,1,38,1,692.2000000001863,37,1,899.9000000003725,10,1,experiment,NA,NA,0,0.9,0.1,0,1,149,4,NA
fcp-trial,218,1569179,0.0-159.0-0.0,voc_e2,11841,"[{""event"":""fullscreenenter"",""trial"":1,""time"":32095}]",NA,NA,NA,NA,NA,0,#D89F1C,#3386FF,0,10,0,38,1,605.8999999994412,39,0,964.7999999998136,10,1,experiment,NA,NA,0,0.1,0.9,1,0,150,4,NA
fcp-trial,219,1573371,0.0-160.0-0.0,voc_e2,11841,"[{""event"":""fullscreenenter"",""trial"":1,""time"":32095}]",NA,NA,NA,NA,NA,4,#1CD855,#FA92F8,0,0,1,38,1,1745.8999999994412,37,1,940.4000000003724,0,1,experiment,NA,NA,1,0.7,0.3,2,3,151,4,NA
fcp-trial,220,1576219,0.0-161.0-0.0,voc_e2,11841,"[{""event"":""fullscreenenter"",""trial"":1,""time"":32095}]",NA,NA,NA,NA,NA,5,#741CD8,#D8271C,0,10,1,38,1,548.4000000003725,39,0,786.5,10,0,experiment,NA,NA,2,0.5,0.5,4,5,152,4,NA
fcp-trial,221,1579481,0.0-162.0-0.0,voc_e2,11841,"[{""event"":""fullscreenenter"",""trial"":1,""time"":32095}]",NA,NA,NA,NA,NA,5,#3386FF,#D89F1C,10,0,1,38,1,789.2999999998137,37,1,955.2000000001864,10,1,experiment,NA,NA,0,0.9,0.1,0,1,153,4,NA
fcp-trial,222,1584085,0.0-163.0-0.0,voc_e2,11841,"[{""event"":""fullscreenenter"",""trial"":1,""time"":32095}]",NA,NA,NA,NA,NA,3,#FA92F8,#1CD855,0,0,0,38,1,1606.800000000745,37,1,1480.5999999996277,0,0,experiment,NA,NA,1,0.3,0.7,3,2,154,4,NA
fcp-trial,223,1587019,0.0-164.0-0.0,voc_e2,11841,"[{""event"":""fullscreenenter"",""trial"":1,""time"":32095}]",NA,NA,NA,NA,NA,1,#741CD8,#D8271C,10,10,1,38,1,663.1000000005588,39,0,766.7000000001863,10,0,experiment,NA,NA,2,0.5,0.5,4,5,155,4,NA
fcp-trial,224,1589977,0.0-165.0-0.0,voc_e2,11841,"[{""event"":""fullscreenenter"",""trial"":1,""time"":32095}]",NA,NA,NA,NA,NA,6,#D89F1C,#3386FF,0,10,0,38,1,691,39,0,758.2999999998137,10,1,experiment,NA,NA,0,0.1,0.9,1,0,156,4,NA
fcp-trial,225,1593464,0.0-166.0-0.0,voc_e2,11841,"[{""event"":""fullscreenenter"",""trial"":1,""time"":32095}]",NA,NA,NA,NA,NA,3,#D8271C,#741CD8,10,10,0,38,1,1087.0999999996275,37,1,893.2999999998137,10,0,experiment,NA,NA,2,0.5,0.5,5,4,157,4,NA
fcp-trial,226,1597867,0.0-167.0-0.0,voc_e2,11841,"[{""event"":""fullscreenenter"",""trial"":1,""time"":32095}]",NA,NA,NA,NA,NA,6,#1CD855,#FA92F8,10,0,1,38,1,787.5999999996275,37,1,2108.699999999255,10,1,experiment,NA,NA,1,0.7,0.3,2,3,158,4,NA
fcp-trial,227,1601968,0.0-168.0-0.0,voc_e2,11841,"[{""event"":""fullscreenenter"",""trial"":1,""time"":32095}]",NA,NA,NA,NA,NA,2,#D89F1C,#3386FF,0,10,0,38,1,884.7999999998137,39,0,1699.5999999996277,10,1,experiment,NA,NA,0,0.1,0.9,1,0,159,4,NA
fcp-trial,228,1605661,0.0-169.0-0.0,voc_e2,11841,"[{""event"":""fullscreenenter"",""trial"":1,""time"":32095}]",NA,NA,NA,NA,NA,6,#741CD8,#D8271C,10,10,1,38,1,796,39,0,1391.5999999996277,10,0,experiment,NA,NA,2,0.5,0.5,4,5,160,4,NA
fcp-trial,229,1610285,0.0-170.0-0.0,voc_e2,11841,"[{""event"":""fullscreenenter"",""trial"":1,""time"":32095}]",NA,NA,NA,NA,NA,2,#FA92F8,#1CD855,0,10,0,38,1,2359.7000000001863,39,0,751.8999999994412,10,1,experiment,NA,NA,1,0.3,0.7,3,2,161,4,NA
fcp-trial,230,1613423,0.0-171.0-0.0,voc_e2,11841,"[{""event"":""fullscreenenter"",""trial"":1,""time"":32095}]",NA,NA,NA,NA,NA,4,#741CD8,#D8271C,0,0,1,38,1,1033.8999999994412,39,0,594.7000000001863,0,0,experiment,NA,NA,2,0.5,0.5,4,5,162,4,NA
fcp-trial,231,1616176,0.0-172.0-0.0,voc_e2,11841,"[{""event"":""fullscreenenter"",""trial"":1,""time"":32095}]",NA,NA,NA,NA,NA,4,#D89F1C,#3386FF,0,10,0,38,1,646,39,0,597.8999999994412,10,1,experiment,NA,NA,0,0.1,0.9,1,0,163,4,NA
fcp-trial,232,1619803,0.0-173.0-0.0,voc_e2,11841,"[{""event"":""fullscreenenter"",""trial"":1,""time"":32095}]",NA,NA,NA,NA,NA,1,#FA92F8,#1CD855,0,10,0,38,1,418.70000000018626,39,0,1699.6000000005588,10,1,experiment,NA,NA,1,0.3,0.7,3,2,164,4,NA
fcp-trial,233,1622612,0.0-174.0-0.0,voc_e2,11841,"[{""event"":""fullscreenenter"",""trial"":1,""time"":32095}]",NA,NA,NA,NA,NA,2,#741CD8,#D8271C,0,0,1,38,1,623.2999999998137,39,0,679.8000000007451,0,0,experiment,NA,NA,2,0.5,0.5,4,5,165,4,NA
fcp-trial,234,1626021,0.0-175.0-0.0,voc_e2,11841,"[{""event"":""fullscreenenter"",""trial"":1,""time"":32095}]",NA,NA,NA,NA,NA,0,#D8271C,#741CD8,0,0,0,38,1,961.5,39,0,936.0999999996276,0,1,experiment,NA,NA,2,0.5,0.5,5,4,166,4,NA
fcp-trial,235,1630120,0.0-176.0-0.0,voc_e2,11841,"[{""event"":""fullscreenenter"",""trial"":1,""time"":32095}]",NA,NA,NA,NA,NA,0,#1CD855,#FA92F8,0,0,1,38,1,1761.7999999998137,37,1,830.7999999998137,0,1,experiment,NA,NA,1,0.7,0.3,2,3,167,4,NA
fcp-trial,236,1633214,0.0-177.0-0.0,voc_e2,11841,"[{""event"":""fullscreenenter"",""trial"":1,""time"":32095}]",NA,NA,NA,NA,NA,3,#D89F1C,#3386FF,0,10,0,38,1,942,39,0,645.8999999994412,10,1,experiment,NA,NA,0,0.1,0.9,1,0,168,4,NA
fcp-trial,237,1635994,0.0-178.0-0.0,voc_e2,11841,"[{""event"":""fullscreenenter"",""trial"":1,""time"":32095}]",NA,NA,NA,NA,NA,2,#D89F1C,#3386FF,0,10,0,38,1,789,39,0,484.4000000003726,10,1,experiment,NA,NA,0,0.1,0.9,1,0,169,4,NA
fcp-trial,238,1639531,0.0-179.0-0.0,voc_e2,11841,"[{""event"":""fullscreenenter"",""trial"":1,""time"":32095}]",NA,NA,NA,NA,NA,4,#1CD855,#FA92F8,10,0,1,38,1,1287.2999999998137,37,1,741.5,10,1,experiment,NA,NA,1,0.7,0.3,2,3,170,4,NA
fcp-trial,239,1642851,0.0-180.0-0.0,voc_e2,11841,"[{""event"":""fullscreenenter"",""trial"":1,""time"":32095}]",NA,NA,NA,NA,NA,3,#D89F1C,#3386FF,0,10,0,38,1,1093.2999999998137,39,0,714.7999999998137,10,1,experiment,NA,NA,0,0.1,0.9,1,0,171,4,NA
fcp-trial,240,1646864,0.0-181.0-0.0,voc_e2,11841,"[{""event"":""fullscreenenter"",""trial"":1,""time"":32095}]",NA,NA,NA,NA,NA,2,#741CD8,#D8271C,10,0,1,38,1,1939.3999999994412,39,0,567.6000000005588,0,0,experiment,NA,NA,2,0.5,0.5,4,5,172,4,NA
fcp-trial,241,1650630,0.0-182.0-0.0,voc_e2,11841,"[{""event"":""fullscreenenter"",""trial"":1,""time"":32095}]",NA,NA,NA,NA,NA,0,#D89F1C,#3386FF,0,10,0,38,1,1351.2999999998137,39,0,908.0999999996276,10,1,experiment,NA,NA,0,0.1,0.9,1,0,173,4,NA
fcp-trial,242,1653542,0.0-183.0-0.0,voc_e2,11841,"[{""event"":""fullscreenenter"",""trial"":1,""time"":32095}]",NA,NA,NA,NA,NA,1,#D89F1C,#3386FF,0,10,0,38,1,798.4000000003725,39,0,607.4000000003725,10,1,experiment,NA,NA,0,0.1,0.9,1,0,174,4,NA
fcp-trial,243,1659011,0.0-184.0-0.0,voc_e2,11841,"[{""event"":""fullscreenenter"",""trial"":1,""time"":32095}]",NA,NA,NA,NA,NA,1,#1CD855,#FA92F8,0,10,1,38,1,3142.399999999441,37,1,822.7999999998137,0,1,experiment,NA,NA,1,0.7,0.3,2,3,175,4,NA
fcp-trial,244,1662871,0.0-185.0-0.0,voc_e2,11841,"[{""event"":""fullscreenenter"",""trial"":1,""time"":32095}]",NA,NA,NA,NA,NA,5,#741CD8,#D8271C,0,10,1,38,1,1616.8999999994412,39,0,729.3999999994412,10,0,experiment,NA,NA,2,0.5,0.5,4,5,176,4,NA
fcp-trial,245,1666980,0.0-186.0-0.0,voc_e2,11841,"[{""event"":""fullscreenenter"",""trial"":1,""time"":32095}]",NA,NA,NA,NA,NA,0,#1CD855,#FA92F8,0,0,1,38,1,881.2000000001863,37,1,1721.5999999996277,0,1,experiment,NA,NA,1,0.7,0.3,2,3,177,4,NA
fcp-trial,246,1670274,0.0-187.0-0.0,voc_e2,11841,"[{""event"":""fullscreenenter"",""trial"":1,""time"":32095}]",NA,NA,NA,NA,NA,3,#741CD8,#D8271C,0,0,1,38,1,843.6999999992549,39,0,942.7000000001864,0,0,experiment,NA,NA,2,0.5,0.5,4,5,178,4,NA
fcp-trial,247,1674055,0.0-188.0-0.0,voc_e2,11841,"[{""event"":""fullscreenenter"",""trial"":1,""time"":32095}]",NA,NA,NA,NA,NA,5,#3386FF,#D89F1C,10,10,1,38,1,784.7000000001863,37,1,1489.5999999996277,10,1,experiment,NA,NA,0,0.9,0.1,0,1,179,4,NA
fcp-trial,248,1677710,0.0-189.0-0.0,voc_e2,11841,"[{""event"":""fullscreenenter"",""trial"":1,""time"":32095}]",NA,NA,NA,NA,NA,6,#741CD8,#D8271C,10,10,1,38,1,1509.6000000005588,39,0,638.8000000007451,10,0,experiment,NA,NA,2,0.5,0.5,4,5,180,4,NA
fcp-trial,249,1681535,0.0-190.0-0.0,voc_e2,11841,"[{""event"":""fullscreenenter"",""trial"":1,""time"":32095}]",NA,NA,NA,NA,NA,4,#D89F1C,#3386FF,0,10,0,38,1,1427.5,39,0,881.2000000001863,10,1,experiment,NA,NA,0,0.1,0.9,1,0,181,5,NA
fcp-trial,250,1685598,0.0-191.0-0.0,voc_e2,11841,"[{""event"":""fullscreenenter"",""trial"":1,""time"":32095}]",NA,NA,NA,NA,NA,6,#FA92F8,#1CD855,0,10,0,38,1,2010.7999999998137,39,0,547.3999999994412,10,1,experiment,NA,NA,1,0.3,0.7,3,2,182,5,NA
fcp-trial,251,1689324,0.0-192.0-0.0,voc_e2,11841,"[{""event"":""fullscreenenter"",""trial"":1,""time"":32095}]",NA,NA,NA,NA,NA,5,#1CD855,#FA92F8,10,0,1,38,1,902.2000000001863,39,0,1316.800000000745,0,0,experiment,NA,NA,1,0.7,0.3,2,3,183,5,NA
fcp-trial,252,1692334,0.0-193.0-0.0,voc_e2,11841,"[{""event"":""fullscreenenter"",""trial"":1,""time"":32095}]",NA,NA,NA,NA,NA,0,#741CD8,#D8271C,0,10,1,38,1,833.7000000001863,39,0,669.2999999998137,10,0,experiment,NA,NA,2,0.5,0.5,4,5,184,5,NA
fcp-trial,253,1695754,0.0-194.0-0.0,voc_e2,11841,"[{""event"":""fullscreenenter"",""trial"":1,""time"":32095}]",NA,NA,NA,NA,NA,6,#D89F1C,#3386FF,10,0,0,38,1,738,39,0,1165.0999999996277,0,1,experiment,NA,NA,0,0.1,0.9,1,0,185,5,NA
fcp-trial,254,1699778,0.0-195.0-0.0,voc_e2,11841,"[{""event"":""fullscreenenter"",""trial"":1,""time"":32095}]",NA,NA,NA,NA,NA,1,#D8271C,#741CD8,10,10,0,38,1,1416.300000000745,37,1,1101.7999999998135,10,0,experiment,NA,NA,2,0.5,0.5,5,4,186,5,NA
fcp-trial,255,1704398,0.0-196.0-0.0,voc_e2,11841,"[{""event"":""fullscreenenter"",""trial"":1,""time"":32095}]",NA,NA,NA,NA,NA,3,#1CD855,#FA92F8,10,0,1,38,1,2310.0999999996275,37,1,796.5,10,1,experiment,NA,NA,1,0.7,0.3,2,3,187,5,NA
fcp-trial,256,1708632,0.0-197.0-0.0,voc_e2,11841,"[{""event"":""fullscreenenter"",""trial"":1,""time"":32095}]",NA,NA,NA,NA,NA,2,#1CD855,#FA92F8,10,0,1,38,1,1991.7999999998137,37,1,736,10,1,experiment,NA,NA,1,0.7,0.3,2,3,188,5,NA
fcp-trial,257,1712173,0.0-198.0-0.0,voc_e2,11841,"[{""event"":""fullscreenenter"",""trial"":1,""time"":32095}]",NA,NA,NA,NA,NA,4,#D8271C,#741CD8,0,0,0,38,1,877.8000000007451,37,1,1158.2000000001865,0,0,experiment,NA,NA,2,0.5,0.5,5,4,189,5,NA
fcp-trial,258,1716107,0.0-199.0-0.0,voc_e2,11841,"[{""event"":""fullscreenenter"",""trial"":1,""time"":32095}]",NA,NA,NA,NA,NA,3,#1CD855,#FA92F8,10,10,1,38,1,980.1000000005588,37,1,1448.7999999998135,10,1,experiment,NA,NA,1,0.7,0.3,2,3,190,5,NA
fcp-trial,259,1718951,0.0-200.0-0.0,voc_e2,11841,"[{""event"":""fullscreenenter"",""trial"":1,""time"":32095}]",NA,NA,NA,NA,NA,2,#D89F1C,#3386FF,0,0,0,38,1,648.2000000001863,39,0,689.9000000003725,0,1,experiment,NA,NA,0,0.1,0.9,1,0,191,5,NA
fcp-trial,260,1722119,0.0-201.0-0.0,voc_e2,11841,"[{""event"":""fullscreenenter"",""trial"":1,""time"":32095}]",NA,NA,NA,NA,NA,1,#3386FF,#D89F1C,10,0,1,38,1,1031.6000000005588,37,1,631.5,10,1,experiment,NA,NA,0,0.9,0.1,0,1,192,5,NA
fcp-trial,261,1725029,0.0-202.0-0.0,voc_e2,11841,"[{""event"":""fullscreenenter"",""trial"":1,""time"":32095}]",NA,NA,NA,NA,NA,2,#741CD8,#D8271C,10,10,1,38,1,791.5999999996275,39,0,613.5,10,0,experiment,NA,NA,2,0.5,0.5,4,5,193,5,NA
fcp-trial,262,1727993,0.0-203.0-0.0,voc_e2,11841,"[{""event"":""fullscreenenter"",""trial"":1,""time"":32095}]",NA,NA,NA,NA,NA,1,#FA92F8,#1CD855,10,10,0,38,1,711,39,0,746.1000000005588,10,1,experiment,NA,NA,1,0.3,0.7,3,2,194,5,NA
fcp-trial,263,1731197,0.0-204.0-0.0,voc_e2,11841,"[{""event"":""fullscreenenter"",""trial"":1,""time"":32095}]",NA,NA,NA,NA,NA,3,#D89F1C,#3386FF,0,0,0,38,1,1089.2999999998137,39,0,606.8000000007451,0,1,experiment,NA,NA,0,0.1,0.9,1,0,195,5,NA
fcp-trial,264,1734884,0.0-205.0-0.0,voc_e2,11841,"[{""event"":""fullscreenenter"",""trial"":1,""time"":32095}]",NA,NA,NA,NA,NA,3,#741CD8,#D8271C,0,0,1,38,1,1631.7000000001863,39,0,539.2999999998137,0,0,experiment,NA,NA,2,0.5,0.5,4,5,196,5,NA
fcp-trial,265,1737992,0.0-206.0-0.0,voc_e2,11841,"[{""event"":""fullscreenenter"",""trial"":1,""time"":32095}]",NA,NA,NA,NA,NA,5,#D89F1C,#3386FF,0,10,0,38,1,966,39,0,635.7000000001863,10,1,experiment,NA,NA,0,0.1,0.9,1,0,197,5,NA
fcp-trial,266,1741065,0.0-207.0-0.0,voc_e2,11841,"[{""event"":""fullscreenenter"",""trial"":1,""time"":32095}]",NA,NA,NA,NA,NA,4,#FA92F8,#1CD855,0,0,0,38,1,644.8999999994412,39,0,914.2000000001864,0,1,experiment,NA,NA,1,0.3,0.7,3,2,198,5,NA
fcp-trial,267,1744465,0.0-208.0-0.0,voc_e2,11841,"[{""event"":""fullscreenenter"",""trial"":1,""time"":32095}]",NA,NA,NA,NA,NA,6,#741CD8,#D8271C,10,10,1,38,1,985.5,39,0,908.8999999994412,10,0,experiment,NA,NA,2,0.5,0.5,4,5,199,5,NA
fcp-trial,268,1750241,0.0-209.0-0.0,voc_e2,11841,"[{""event"":""fullscreenenter"",""trial"":1,""time"":32095}]",NA,NA,NA,NA,NA,0,#741CD8,#D8271C,10,0,1,38,1,3572.7999999998137,39,0,697,0,0,experiment,NA,NA,2,0.5,0.5,4,5,200,5,NA
fcp-trial,269,1753337,0.0-210.0-0.0,voc_e2,11841,"[{""event"":""fullscreenenter"",""trial"":1,""time"":32095}]",NA,NA,NA,NA,NA,0,#3386FF,#D89F1C,0,0,1,38,1,594,37,1,995.0999999996276,0,1,experiment,NA,NA,0,0.9,0.1,0,1,201,5,NA
fcp-trial,270,1756776,0.0-211.0-0.0,voc_e2,11841,"[{""event"":""fullscreenenter"",""trial"":1,""time"":32095}]",NA,NA,NA,NA,NA,0,#FA92F8,#1CD855,0,10,0,38,1,1253.5,39,0,680.1000000005588,10,1,experiment,NA,NA,1,0.3,0.7,3,2,202,5,NA
fcp-trial,271,1761931,0.0-212.0-0.0,voc_e2,11841,"[{""event"":""fullscreenenter"",""trial"":1,""time"":32095}]",NA,NA,NA,NA,NA,6,#D89F1C,#3386FF,0,10,0,38,1,3043.7000000001863,39,0,604.4000000003725,10,1,experiment,NA,NA,0,0.1,0.9,1,0,203,5,NA
fcp-trial,272,1766049,0.0-213.0-0.0,voc_e2,11841,"[{""event"":""fullscreenenter"",""trial"":1,""time"":32095}]",NA,NA,NA,NA,NA,5,#1CD855,#FA92F8,10,0,1,38,1,732.2999999998137,37,1,1880.0999999996277,10,1,experiment,NA,NA,1,0.7,0.3,2,3,204,5,NA
fcp-trial,273,1769846,0.0-214.0-0.0,voc_e2,11841,"[{""event"":""fullscreenenter"",""trial"":1,""time"":32095}]",NA,NA,NA,NA,NA,4,#D8271C,#741CD8,10,0,0,38,1,1640.3999999994412,39,0,644,0,1,experiment,NA,NA,2,0.5,0.5,5,4,205,5,NA
fcp-trial,274,1773286,0.0-215.0-0.0,voc_e2,11841,"[{""event"":""fullscreenenter"",""trial"":1,""time"":32095}]",NA,NA,NA,NA,NA,5,#741CD8,#D8271C,10,10,1,38,1,1320,39,0,614.1000000005588,10,0,experiment,NA,NA,2,0.5,0.5,4,5,206,5,NA
fcp-trial,275,1776502,0.0-216.0-0.0,voc_e2,11841,"[{""event"":""fullscreenenter"",""trial"":1,""time"":32095}]",NA,NA,NA,NA,NA,2,#1CD855,#FA92F8,10,10,1,38,1,718.4000000003725,39,0,992.60000000149,10,0,experiment,NA,NA,1,0.7,0.3,2,3,207,5,NA
fcp-trial,276,1780191,0.0-217.0-0.0,voc_e2,11841,"[{""event"":""fullscreenenter"",""trial"":1,""time"":32095}]",NA,NA,NA,NA,NA,4,#3386FF,#D89F1C,10,0,1,38,1,761.0999999996275,37,1,1421.7000000011176,10,1,experiment,NA,NA,0,0.9,0.1,0,1,208,5,NA
fcp-trial,277,1783909,0.0-218.0-0.0,voc_e2,11841,"[{""event"":""fullscreenenter"",""trial"":1,""time"":32095}]",NA,NA,NA,NA,NA,6,#1CD855,#FA92F8,10,0,1,38,1,1253.800000000745,37,1,941.7999999988824,10,1,experiment,NA,NA,1,0.7,0.3,2,3,209,5,NA
fcp-trial,278,1787112,0.0-219.0-0.0,voc_e2,11841,"[{""event"":""fullscreenenter"",""trial"":1,""time"":32095}]",NA,NA,NA,NA,NA,1,#D8271C,#741CD8,0,10,0,38,1,721.5,37,1,976.4000000003724,0,0,experiment,NA,NA,2,0.5,0.5,5,4,210,5,NA
audio-instructions,279,1820562,0.0-220.0,voc_e2,11841,"[{""event"":""fullscreenenter"",""trial"":1,""time"":32095}]",NA,29018.699999999255,static/audio/pause.wav,NA,0,NA,NA,NA,NA,NA,NA,NA,NA,NA,NA,NA,NA,NA,NA,NA,NA,NA,NA,NA,NA,NA,NA,NA,NA,NA
fcp-trial,280,1829064,0.0-221.0-0.0,voc_e2,11841,"[{""event"":""fullscreenenter"",""trial"":1,""time"":32095}]",NA,NA,NA,NA,NA,0,#3386FF,#D89F1C,10,0,1,38,1,5610.5,37,1,1378.9000000003723,10,1,experiment,NA,NA,0,0.9,0.1,0,1,211,5,NA
fcp-trial,281,1832099,0.0-222.0-0.0,voc_e2,11841,"[{""event"":""fullscreenenter"",""trial"":1,""time"":32095}]",NA,NA,NA,NA,NA,4,#FA92F8,#1CD855,0,10,0,38,1,505.69999999925494,39,0,1013.6999999992548,10,1,experiment,NA,NA,1,0.3,0.7,3,2,212,5,NA
fcp-trial,282,1834814,0.0-223.0-0.0,voc_e2,11841,"[{""event"":""fullscreenenter"",""trial"":1,""time"":32095}]",NA,NA,NA,NA,NA,2,#3386FF,#D89F1C,10,0,1,38,1,539.8000000007451,37,1,665.6999999992549,10,1,experiment,NA,NA,0,0.9,0.1,0,1,213,5,NA
fcp-trial,283,1837627,0.0-224.0-0.0,voc_e2,11841,"[{""event"":""fullscreenenter"",""trial"":1,""time"":32095}]",NA,NA,NA,NA,NA,3,#1CD855,#FA92F8,0,10,1,38,1,483.09999999962747,39,0,823.0999999996275,10,0,experiment,NA,NA,1,0.7,0.3,2,3,214,5,NA
fcp-trial,284,1841491,0.0-225.0-0.0,voc_e2,11841,"[{""event"":""fullscreenenter"",""trial"":1,""time"":32095}]",NA,NA,NA,NA,NA,0,#741CD8,#D8271C,0,0,1,38,1,714.0999999996275,39,0,1640.2000000011176,0,0,experiment,NA,NA,2,0.5,0.5,4,5,215,5,NA
fcp-trial,285,1844548,0.0-226.0-0.0,voc_e2,11841,"[{""event"":""fullscreenenter"",""trial"":1,""time"":32095}]",NA,NA,NA,NA,NA,3,#D89F1C,#3386FF,0,10,0,38,1,780.5999999996275,39,0,769.5,10,1,experiment,NA,NA,0,0.1,0.9,1,0,216,5,NA
fcp-trial,286,1847411,0.0-227.0-0.0,voc_e2,11841,"[{""event"":""fullscreenenter"",""trial"":1,""time"":32095}]",NA,NA,NA,NA,NA,1,#D89F1C,#3386FF,10,0,0,38,1,647.8000000007451,39,0,700.3000000007451,0,1,experiment,NA,NA,0,0.1,0.9,1,0,217,5,NA
fcp-trial,287,1850110,0.0-228.0-0.0,voc_e2,11841,"[{""event"":""fullscreenenter"",""trial"":1,""time"":32095}]",NA,NA,NA,NA,NA,2,#741CD8,#D8271C,0,0,1,38,1,557.5999999996275,39,0,635.5999999996275,0,0,experiment,NA,NA,2,0.5,0.5,4,5,218,5,NA
fcp-trial,288,1853337,0.0-229.0-0.0,voc_e2,11841,"[{""event"":""fullscreenenter"",""trial"":1,""time"":32095}]",NA,NA,NA,NA,NA,5,#1CD855,#FA92F8,10,0,1,38,1,632,39,0,1082.0999999996277,0,0,experiment,NA,NA,1,0.7,0.3,2,3,219,5,NA
fcp-trial,289,1856931,0.0-230.0-0.0,voc_e2,11841,"[{""event"":""fullscreenenter"",""trial"":1,""time"":32095}]",NA,NA,NA,NA,NA,3,#741CD8,#D8271C,10,10,1,38,1,626,39,0,1462.800000000745,10,0,experiment,NA,NA,2,0.5,0.5,4,5,220,5,NA
fcp-trial,290,1860287,0.0-231.0-0.0,voc_e2,11841,"[{""event"":""fullscreenenter"",""trial"":1,""time"":32095}]",NA,NA,NA,NA,NA,1,#D8271C,#741CD8,0,10,0,38,1,1142.300000000745,37,1,706.4000000003725,0,0,experiment,NA,NA,2,0.5,0.5,5,4,221,5,NA
fcp-trial,291,1863525,0.0-232.0-0.0,voc_e2,11841,"[{""event"":""fullscreenenter"",""trial"":1,""time"":32095}]",NA,NA,NA,NA,NA,4,#D89F1C,#3386FF,0,0,0,38,1,774.8000000007451,39,0,946.4000000003724,0,1,experiment,NA,NA,0,0.1,0.9,1,0,222,5,NA
fcp-trial,292,1867097,0.0-233.0-0.0,voc_e2,11841,"[{""event"":""fullscreenenter"",""trial"":1,""time"":32095}]",NA,NA,NA,NA,NA,6,#FA92F8,#1CD855,0,0,0,38,1,943.2000000011176,39,0,1122.699999999255,0,1,experiment,NA,NA,1,0.3,0.7,3,2,223,5,NA
fcp-trial,293,1871116,0.0-234.0-0.0,voc_e2,11841,"[{""event"":""fullscreenenter"",""trial"":1,""time"":32095}]",NA,NA,NA,NA,NA,2,#1CD855,#FA92F8,10,0,1,38,1,477,39,0,2025.7000000011176,0,0,experiment,NA,NA,1,0.7,0.3,2,3,224,5,NA
fcp-trial,294,1874851,0.0-235.0-0.0,voc_e2,11841,"[{""event"":""fullscreenenter"",""trial"":1,""time"":32095}]",NA,NA,NA,NA,NA,5,#741CD8,#D8271C,0,10,1,38,1,1637,39,0,592.7999999988824,10,0,experiment,NA,NA,2,0.5,0.5,4,5,225,5,NA
fcp-trial,295,1878380,0.0-236.0-0.0,voc_e2,11841,"[{""event"":""fullscreenenter"",""trial"":1,""time"":32095}]",NA,NA,NA,NA,NA,5,#3386FF,#D89F1C,10,0,1,38,1,857.1999999992549,37,1,1165.5,10,1,experiment,NA,NA,0,0.9,0.1,0,1,226,6,NA
fcp-trial,296,1881392,0.0-237.0-0.0,voc_e2,11841,"[{""event"":""fullscreenenter"",""trial"":1,""time"":32095}]",NA,NA,NA,NA,NA,1,#FA92F8,#1CD855,10,10,0,38,1,641.5999999996275,37,1,865,10,0,experiment,NA,NA,1,0.3,0.7,3,2,227,6,NA
fcp-trial,297,1884681,0.0-238.0-0.0,voc_e2,11841,"[{""event"":""fullscreenenter"",""trial"":1,""time"":32095}]",NA,NA,NA,NA,NA,0,#FA92F8,#1CD855,0,10,0,38,1,1063.7999999988824,39,0,719.4000000003725,10,1,experiment,NA,NA,1,0.3,0.7,3,2,228,6,NA
fcp-trial,298,1887653,0.0-239.0-0.0,voc_e2,11841,"[{""event"":""fullscreenenter"",""trial"":1,""time"":32095}]",NA,NA,NA,NA,NA,6,#D8271C,#741CD8,10,10,0,38,1,629.8000000007451,37,1,829,10,0,experiment,NA,NA,2,0.5,0.5,5,4,229,6,NA
fcp-trial,299,1891481,0.0-240.0-0.0,voc_e2,11841,"[{""event"":""fullscreenenter"",""trial"":1,""time"":32095}]",NA,NA,NA,NA,NA,4,#741CD8,#D8271C,10,0,1,38,1,1665.5,39,0,654.0999999996275,0,0,experiment,NA,NA,2,0.5,0.5,4,5,230,6,NA
fcp-trial,300,1894611,0.0-241.0-0.0,voc_e2,11841,"[{""event"":""fullscreenenter"",""trial"":1,""time"":32095}]",NA,NA,NA,NA,NA,6,#D89F1C,#3386FF,0,10,0,38,1,697.7999999988824,39,0,924.1999999992548,10,1,experiment,NA,NA,0,0.1,0.9,1,0,231,6,NA
fcp-trial,301,1897862,0.0-242.0-0.0,voc_e2,11841,"[{""event"":""fullscreenenter"",""trial"":1,""time"":32095}]",NA,NA,NA,NA,NA,4,#741CD8,#D8271C,0,10,1,38,1,679.7000000011176,39,0,1064.800000000745,10,0,experiment,NA,NA,2,0.5,0.5,4,5,232,6,NA
fcp-trial,302,1901213,0.0-243.0-0.0,voc_e2,11841,"[{""event"":""fullscreenenter"",""trial"":1,""time"":32095}]",NA,NA,NA,NA,NA,3,#741CD8,#D8271C,10,10,1,38,1,917.5999999996275,39,0,926.7000000011176,10,0,experiment,NA,NA,2,0.5,0.5,4,5,233,6,NA
fcp-trial,303,1904316,0.0-244.0-0.0,voc_e2,11841,"[{""event"":""fullscreenenter"",""trial"":1,""time"":32095}]",NA,NA,NA,NA,NA,5,#3386FF,#D89F1C,10,0,1,38,1,751.1999999992549,37,1,842.4000000003725,10,1,experiment,NA,NA,0,0.9,0.1,0,1,234,6,NA
fcp-trial,304,1909121,0.0-245.0-0.0,voc_e2,11841,"[{""event"":""fullscreenenter"",""trial"":1,""time"":32095}]",NA,NA,NA,NA,NA,6,#1CD855,#FA92F8,0,0,1,38,1,2690.800000000745,37,1,600.7999999988824,0,1,experiment,NA,NA,1,0.7,0.3,2,3,235,6,NA
fcp-trial,305,1912576,0.0-246.0-0.0,voc_e2,11841,"[{""event"":""fullscreenenter"",""trial"":1,""time"":32095}]",NA,NA,NA,NA,NA,3,#3386FF,#D89F1C,10,0,1,38,1,1161.800000000745,37,1,786.2999999988824,10,1,experiment,NA,NA,0,0.9,0.1,0,1,236,6,NA
fcp-trial,306,1915691,0.0-247.0-0.0,voc_e2,11841,"[{""event"":""fullscreenenter"",""trial"":1,""time"":32095}]",NA,NA,NA,NA,NA,0,#D8271C,#741CD8,10,0,0,38,1,966.5999999996275,37,1,626.4000000003725,10,0,experiment,NA,NA,2,0.5,0.5,5,4,237,6,NA
fcp-trial,307,1918558,0.0-248.0-0.0,voc_e2,11841,"[{""event"":""fullscreenenter"",""trial"":1,""time"":32095}]",NA,NA,NA,NA,NA,1,#1CD855,#FA92F8,0,10,1,38,1,676.9000000003725,37,1,676.2999999988824,0,1,experiment,NA,NA,1,0.7,0.3,2,3,238,6,NA
fcp-trial,308,1921576,0.0-249.0-0.0,voc_e2,11841,"[{""event"":""fullscreenenter"",""trial"":1,""time"":32095}]",NA,NA,NA,NA,NA,6,#3386FF,#D89F1C,10,0,1,38,1,533.5999999996275,37,1,978,10,1,experiment,NA,NA,0,0.9,0.1,0,1,239,6,NA
fcp-trial,309,1924362,0.0-250.0-0.0,voc_e2,11841,"[{""event"":""fullscreenenter"",""trial"":1,""time"":32095}]",NA,NA,NA,NA,NA,0,#3386FF,#D89F1C,0,0,1,38,1,543.9000000003725,37,1,736.0999999996275,0,1,experiment,NA,NA,0,0.9,0.1,0,1,240,6,NA
fcp-trial,310,1928066,0.0-251.0-0.0,voc_e2,11841,"[{""event"":""fullscreenenter"",""trial"":1,""time"":32095}]",NA,NA,NA,NA,NA,4,#FA92F8,#1CD855,0,10,0,38,1,613.8000000007451,39,0,1576.2999999988824,10,1,experiment,NA,NA,1,0.3,0.7,3,2,241,6,NA
fcp-trial,311,1931366,0.0-252.0-0.0,voc_e2,11841,"[{""event"":""fullscreenenter"",""trial"":1,""time"":32095}]",NA,NA,NA,NA,NA,6,#D8271C,#741CD8,10,0,0,38,1,762.1999999992549,37,1,1030.9000000003723,10,0,experiment,NA,NA,2,0.5,0.5,5,4,242,6,NA
fcp-trial,312,1935104,0.0-253.0-0.0,voc_e2,11841,"[{""event"":""fullscreenenter"",""trial"":1,""time"":32095}]",NA,NA,NA,NA,NA,5,#FA92F8,#1CD855,10,10,0,38,1,1221.7000000011176,39,0,1006.1999999992548,10,1,experiment,NA,NA,1,0.3,0.7,3,2,243,6,NA
fcp-trial,313,1939149,0.0-254.0-0.0,voc_e2,11841,"[{""event"":""fullscreenenter"",""trial"":1,""time"":32095}]",NA,NA,NA,NA,NA,0,#1CD855,#FA92F8,10,10,1,38,1,845.5,37,1,1685.0999999996277,10,1,experiment,NA,NA,1,0.7,0.3,2,3,244,6,NA
fcp-trial,314,1943209,0.0-255.0-0.0,voc_e2,11841,"[{""event"":""fullscreenenter"",""trial"":1,""time"":32095}]",NA,NA,NA,NA,NA,4,#3386FF,#D89F1C,10,0,1,38,1,2048.39999999851,37,1,502,10,1,experiment,NA,NA,0,0.9,0.1,0,1,245,6,NA
fcp-trial,315,1947338,0.0-256.0-0.0,voc_e2,11841,"[{""event"":""fullscreenenter"",""trial"":1,""time"":32095}]",NA,NA,NA,NA,NA,2,#D89F1C,#3386FF,0,10,0,38,1,1056.800000000745,39,0,1565.800000000745,10,1,experiment,NA,NA,0,0.1,0.9,1,0,246,6,NA
fcp-trial,316,1951051,0.0-257.0-0.0,voc_e2,11841,"[{""event"":""fullscreenenter"",""trial"":1,""time"":32095}]",NA,NA,NA,NA,NA,1,#D8271C,#741CD8,0,10,0,38,1,732.1999999992549,37,1,1473.4000000003723,0,0,experiment,NA,NA,2,0.5,0.5,5,4,247,6,NA
fcp-trial,317,1954848,0.0-258.0-0.0,voc_e2,11841,"[{""event"":""fullscreenenter"",""trial"":1,""time"":32095}]",NA,NA,NA,NA,NA,2,#FA92F8,#1CD855,0,0,0,38,1,1473.5999999996275,39,0,815.8000000007451,0,1,experiment,NA,NA,1,0.3,0.7,3,2,248,6,NA
fcp-trial,318,1959709,0.0-259.0-0.0,voc_e2,11841,"[{""event"":""fullscreenenter"",""trial"":1,""time"":32095}]",NA,NA,NA,NA,NA,2,#741CD8,#D8271C,0,10,1,38,1,2729.5999999996275,39,0,624.6999999992549,10,0,experiment,NA,NA,2,0.5,0.5,4,5,249,6,NA
fcp-trial,319,1965561,0.0-260.0-0.0,voc_e2,11841,"[{""event"":""fullscreenenter"",""trial"":1,""time"":32095}]",NA,NA,NA,NA,NA,5,#D8271C,#741CD8,0,0,0,38,1,1382.300000000745,37,1,2964,0,0,experiment,NA,NA,2,0.5,0.5,5,4,250,6,NA
fcp-trial,320,1974404,0.0-261.0-0.0,voc_e2,11841,"[{""event"":""fullscreenenter"",""trial"":1,""time"":32095}]",NA,NA,NA,NA,NA,1,#3386FF,#D89F1C,10,0,1,38,1,6356,37,1,975.5,10,1,experiment,NA,NA,0,0.9,0.1,0,1,251,6,NA
fcp-trial,321,1978074,0.0-262.0-0.0,voc_e2,11841,"[{""event"":""fullscreenenter"",""trial"":1,""time"":32095}]",NA,NA,NA,NA,NA,3,#1CD855,#FA92F8,10,10,1,38,1,768.4000000003725,37,1,1396.9000000003723,10,1,experiment,NA,NA,1,0.7,0.3,2,3,252,6,NA
fcp-trial,322,1983327,0.0-263.0-0.0,voc_e2,11841,"[{""event"":""fullscreenenter"",""trial"":1,""time"":32095}]",NA,NA,NA,NA,NA,0,#D89F1C,#3386FF,0,10,0,38,1,1256.0999999996275,39,0,2489.5999999996275,10,1,experiment,NA,NA,0,0.1,0.9,1,0,253,6,NA
fcp-trial,323,1987913,0.0-264.0-0.0,voc_e2,11841,"[{""event"":""fullscreenenter"",""trial"":1,""time"":32095}]",NA,NA,NA,NA,NA,4,#741CD8,#D8271C,0,10,1,40,0,1006.9000000003725,37,1,2065.9000000003725,0,1,experiment,NA,NA,2,0.5,0.5,4,5,254,6,NA
fcp-trial,324,1991519,0.0-265.0-0.0,voc_e2,11841,"[{""event"":""fullscreenenter"",""trial"":1,""time"":32095}]",NA,NA,NA,NA,NA,3,#3386FF,#D89F1C,10,0,1,38,1,831.7999999988824,37,1,1268.699999999255,10,1,experiment,NA,NA,0,0.9,0.1,0,1,255,6,NA
fcp-trial,325,1995262,0.0-266.0-0.0,voc_e2,11841,"[{""event"":""fullscreenenter"",""trial"":1,""time"":32095}]",NA,NA,NA,NA,NA,4,#FA92F8,#1CD855,0,10,0,38,1,748,39,0,1483.9000000003723,10,1,experiment,NA,NA,1,0.3,0.7,3,2,256,6,NA
fcp-trial,326,1998467,0.0-267.0-0.0,voc_e2,11841,"[{""event"":""fullscreenenter"",""trial"":1,""time"":32095}]",NA,NA,NA,NA,NA,1,#FA92F8,#1CD855,0,10,0,38,1,551.5999999996275,39,0,1148,10,1,experiment,NA,NA,1,0.3,0.7,3,2,257,6,NA
fcp-trial,327,2001319,0.0-268.0-0.0,voc_e2,11841,"[{""event"":""fullscreenenter"",""trial"":1,""time"":32095}]",NA,NA,NA,NA,NA,5,#D8271C,#741CD8,0,10,0,38,1,573.6000000014901,37,1,765.5,0,0,experiment,NA,NA,2,0.5,0.5,5,4,258,6,NA
fcp-trial,328,2004444,0.0-269.0-0.0,voc_e2,11841,"[{""event"":""fullscreenenter"",""trial"":1,""time"":32095}]",NA,NA,NA,NA,NA,5,#3386FF,#D89F1C,10,0,1,38,1,481.19999999925494,37,1,1137.9000000003723,10,1,experiment,NA,NA,0,0.9,0.1,0,1,259,6,NA
fcp-trial,329,2008064,0.0-270.0-0.0,voc_e2,11841,"[{""event"":""fullscreenenter"",""trial"":1,""time"":32095}]",NA,NA,NA,NA,NA,5,#FA92F8,#1CD855,10,0,0,38,1,632.0999999996275,39,0,1476.5,0,1,experiment,NA,NA,1,0.3,0.7,3,2,260,6,NA
fcp-trial,330,2013048,0.0-271.0-0.0,voc_e2,11841,"[{""event"":""fullscreenenter"",""trial"":1,""time"":32095}]",NA,NA,NA,NA,NA,6,#1CD855,#FA92F8,10,0,1,38,1,1605.800000000745,37,1,1870.2000000011176,10,1,experiment,NA,NA,1,0.7,0.3,2,3,261,6,NA
fcp-trial,331,2018662,0.0-272.0-0.0,voc_e2,11841,"[{""event"":""fullscreenenter"",""trial"":1,""time"":32095}]",NA,NA,NA,NA,NA,2,#D8271C,#741CD8,0,10,0,38,1,2994.89999999851,37,1,1112.699999999255,0,0,experiment,NA,NA,2,0.5,0.5,5,4,262,6,NA
fcp-trial,332,2022866,0.0-273.0-0.0,voc_e2,11841,"[{""event"":""fullscreenenter"",""trial"":1,""time"":32095}]",NA,NA,NA,NA,NA,6,#741CD8,#D8271C,10,0,1,38,1,966.4000000003725,39,0,1722,0,0,experiment,NA,NA,2,0.5,0.5,4,5,263,6,NA
fcp-trial,333,2026399,0.0-274.0-0.0,voc_e2,11841,"[{""event"":""fullscreenenter"",""trial"":1,""time"":32095}]",NA,NA,NA,NA,NA,6,#D89F1C,#3386FF,10,10,0,38,1,847.9000000003725,39,0,1180,10,1,experiment,NA,NA,0,0.1,0.9,1,0,264,6,NA
fcp-trial,334,2032045,0.0-275.0-0.0,voc_e2,11841,"[{""event"":""fullscreenenter"",""trial"":1,""time"":32095}]",NA,NA,NA,NA,NA,2,#D89F1C,#3386FF,0,10,0,38,1,2891.4000000003725,39,0,1248.60000000149,10,1,experiment,NA,NA,0,0.1,0.9,1,0,265,6,NA
fcp-trial,335,2037439,0.0-276.0-0.0,voc_e2,11841,"[{""event"":""fullscreenenter"",""trial"":1,""time"":32095}]",NA,NA,NA,NA,NA,2,#FA92F8,#1CD855,0,10,0,38,1,857.7000000011176,39,0,3030.5,10,1,experiment,NA,NA,1,0.3,0.7,3,2,266,6,NA
fcp-trial,336,2041874,0.0-277.0-0.0,voc_e2,11841,"[{""event"":""fullscreenenter"",""trial"":1,""time"":32095}]",NA,NA,NA,NA,NA,3,#741CD8,#D8271C,10,0,1,38,1,2176.5999999996275,39,0,753.5,0,0,experiment,NA,NA,2,0.5,0.5,4,5,267,6,NA
fcp-trial,337,2046136,0.0-278.0-0.0,voc_e2,11841,"[{""event"":""fullscreenenter"",""trial"":1,""time"":32095}]",NA,NA,NA,NA,NA,1,#D89F1C,#3386FF,0,10,0,38,1,1962.800000000745,39,0,792.6000000014901,10,1,experiment,NA,NA,0,0.1,0.9,1,0,268,6,NA
fcp-trial,338,2050194,0.0-279.0-0.0,voc_e2,11841,"[{""event"":""fullscreenenter"",""trial"":1,""time"":32095}]",NA,NA,NA,NA,NA,3,#1CD855,#FA92F8,0,0,1,38,1,1706.7000000011176,37,1,844.9000000003725,0,1,experiment,NA,NA,1,0.7,0.3,2,3,269,6,NA
fcp-trial,339,2055231,0.0-280.0-0.0,voc_e2,11841,"[{""event"":""fullscreenenter"",""trial"":1,""time"":32095}]",NA,NA,NA,NA,NA,4,#3386FF,#D89F1C,10,0,1,38,1,886.9000000003725,37,1,2643.800000000745,10,1,experiment,NA,NA,0,0.9,0.1,0,1,270,6,NA
fcp-trial,340,2058817,0.0-281.0-0.0,voc_e2,11841,"[{""event"":""fullscreenenter"",""trial"":1,""time"":32095}]",NA,NA,NA,NA,NA,0,#741CD8,#D8271C,0,10,1,38,1,851.7999999988824,39,0,1213.89999999851,10,0,experiment,NA,NA,2,0.5,0.5,4,5,271,7,NA
fcp-trial,341,2062811,0.0-282.0-0.0,voc_e2,11841,"[{""event"":""fullscreenenter"",""trial"":1,""time"":32095}]",NA,NA,NA,NA,NA,1,#D8271C,#741CD8,10,10,0,38,1,1340.2999999988824,37,1,1142.5999999996277,10,0,experiment,NA,NA,2,0.5,0.5,5,4,272,7,NA
fcp-trial,342,2069568,0.0-283.0-0.0,voc_e2,11841,"[{""event"":""fullscreenenter"",""trial"":1,""time"":32095}]",NA,NA,NA,NA,NA,0,#1CD855,#FA92F8,0,0,1,38,1,2833.0999999996275,37,1,2411.2000000011176,0,1,experiment,NA,NA,1,0.7,0.3,2,3,273,7,NA
fcp-trial,343,2078518,0.0-284.0-0.0,voc_e2,11841,"[{""event"":""fullscreenenter"",""trial"":1,""time"":32095}]",NA,NA,NA,NA,NA,1,#FA92F8,#1CD855,0,10,0,38,1,949.5,39,0,6492.300000000745,10,1,experiment,NA,NA,1,0.3,0.7,3,2,274,7,NA
fcp-trial,344,2084734,0.0-285.0-0.0,voc_e2,11841,"[{""event"":""fullscreenenter"",""trial"":1,""time"":32095}]",NA,NA,NA,NA,NA,5,#FA92F8,#1CD855,10,10,0,38,1,2795,39,0,1915.7999999988824,10,1,experiment,NA,NA,1,0.3,0.7,3,2,275,7,NA
fcp-trial,345,2090106,0.0-286.0-0.0,voc_e2,11841,"[{""event"":""fullscreenenter"",""trial"":1,""time"":32095}]",NA,NA,NA,NA,NA,0,#1CD855,#FA92F8,10,0,1,38,1,2756,37,1,1107.5999999996277,10,1,experiment,NA,NA,1,0.7,0.3,2,3,276,7,NA
fcp-trial,346,2093471,0.0-287.0-0.0,voc_e2,11841,"[{""event"":""fullscreenenter"",""trial"":1,""time"":32095}]",NA,NA,NA,NA,NA,4,#D8271C,#741CD8,0,10,0,38,1,1013,37,1,844.7000000011176,0,0,experiment,NA,NA,2,0.5,0.5,5,4,277,7,NA
fcp-trial,347,2096498,0.0-288.0-0.0,voc_e2,11841,"[{""event"":""fullscreenenter"",""trial"":1,""time"":32095}]",NA,NA,NA,NA,NA,6,#3386FF,#D89F1C,10,10,1,38,1,695.6000000014901,37,1,825.4000000003725,10,1,experiment,NA,NA,0,0.9,0.1,0,1,278,7,NA
fcp-trial,348,2101210,0.0-289.0-0.0,voc_e2,11841,"[{""event"":""fullscreenenter"",""trial"":1,""time"":32095}]",NA,NA,NA,NA,NA,2,#741CD8,#D8271C,0,10,1,38,1,1874.5,39,0,1324.89999999851,10,0,experiment,NA,NA,2,0.5,0.5,4,5,279,7,NA
fcp-trial,349,2105317,0.0-290.0-0.0,voc_e2,11841,"[{""event"":""fullscreenenter"",""trial"":1,""time"":32095}]",NA,NA,NA,NA,NA,3,#1CD855,#FA92F8,10,0,1,38,1,1110.300000000745,37,1,1484.7000000011176,10,1,experiment,NA,NA,1,0.7,0.3,2,3,280,7,NA
fcp-trial,350,2108695,0.0-291.0-0.0,voc_e2,11841,"[{""event"":""fullscreenenter"",""trial"":1,""time"":32095}]",NA,NA,NA,NA,NA,0,#741CD8,#D8271C,10,10,1,38,1,1024.5,39,0,848.5,10,0,experiment,NA,NA,2,0.5,0.5,4,5,281,7,NA
fcp-trial,351,2113137,0.0-292.0-0.0,voc_e2,11841,"[{""event"":""fullscreenenter"",""trial"":1,""time"":32095}]",NA,NA,NA,NA,NA,4,#D89F1C,#3386FF,0,10,0,38,1,1111.0999999996275,39,0,1824.699999999255,10,1,experiment,NA,NA,0,0.1,0.9,1,0,282,7,NA
fcp-trial,352,2116041,0.0-293.0-0.0,voc_e2,11841,"[{""event"":""fullscreenenter"",""trial"":1,""time"":32095}]",NA,NA,NA,NA,NA,6,#741CD8,#D8271C,0,0,1,38,1,753,39,0,645,0,0,experiment,NA,NA,2,0.5,0.5,4,5,283,7,NA
fcp-trial,353,2119503,0.0-294.0-0.0,voc_e2,11841,"[{""event"":""fullscreenenter"",""trial"":1,""time"":32095}]",NA,NA,NA,NA,NA,4,#FA92F8,#1CD855,10,0,0,38,1,686.5,39,0,1267.800000000745,0,1,experiment,NA,NA,1,0.3,0.7,3,2,284,7,NA
fcp-trial,354,2123639,0.0-295.0-0.0,voc_e2,11841,"[{""event"":""fullscreenenter"",""trial"":1,""time"":32095}]",NA,NA,NA,NA,NA,5,#D89F1C,#3386FF,10,10,0,38,1,1737.199999999255,39,0,891.3000000007451,10,1,experiment,NA,NA,0,0.1,0.9,1,0,285,7,NA
fcp-trial,355,2128077,0.0-296.0-0.0,voc_e2,11841,"[{""event"":""fullscreenenter"",""trial"":1,""time"":32095}]",NA,NA,NA,NA,NA,1,#3386FF,#D89F1C,10,0,1,38,1,1363.9000000003725,37,1,1562.199999999255,10,1,experiment,NA,NA,0,0.9,0.1,0,1,286,7,NA
fcp-trial,356,2131110,0.0-297.0-0.0,voc_e2,11841,"[{""event"":""fullscreenenter"",""trial"":1,""time"":32095}]",NA,NA,NA,NA,NA,3,#741CD8,#D8271C,10,0,1,38,1,882.7999999988824,39,0,644.0999999996275,0,0,experiment,NA,NA,2,0.5,0.5,4,5,287,7,NA
fcp-trial,357,2133838,0.0-298.0-0.0,voc_e2,11841,"[{""event"":""fullscreenenter"",""trial"":1,""time"":32095}]",NA,NA,NA,NA,NA,1,#D8271C,#741CD8,10,0,0,38,1,684.9000000003725,39,0,538.2000000011176,0,1,experiment,NA,NA,2,0.5,0.5,5,4,288,7,NA
fcp-trial,358,2136818,0.0-299.0-0.0,voc_e2,11841,"[{""event"":""fullscreenenter"",""trial"":1,""time"":32095}]",NA,NA,NA,NA,NA,6,#1CD855,#FA92F8,0,0,1,38,1,719.4000000003725,37,1,749.6999999992549,0,1,experiment,NA,NA,1,0.7,0.3,2,3,289,7,NA
fcp-trial,359,2139610,0.0-300.0-0.0,voc_e2,11841,"[{""event"":""fullscreenenter"",""trial"":1,""time"":32095}]",NA,NA,NA,NA,NA,5,#D8271C,#741CD8,10,10,0,38,1,643.9000000003725,37,1,641.4000000003725,10,0,experiment,NA,NA,2,0.5,0.5,5,4,290,7,NA
fcp-trial,360,2142779,0.0-301.0-0.0,voc_e2,11841,"[{""event"":""fullscreenenter"",""trial"":1,""time"":32095}]",NA,NA,NA,NA,NA,3,#3386FF,#D89F1C,10,0,1,38,1,713.2000000011176,37,1,943,10,1,experiment,NA,NA,0,0.9,0.1,0,1,291,7,NA
fcp-trial,361,2145611,0.0-302.0-0.0,voc_e2,11841,"[{""event"":""fullscreenenter"",""trial"":1,""time"":32095}]",NA,NA,NA,NA,NA,0,#3386FF,#D89F1C,0,0,1,38,1,827.0999999996275,37,1,499.2000000011176,0,1,experiment,NA,NA,0,0.9,0.1,0,1,292,7,NA
fcp-trial,362,2148819,0.0-303.0-0.0,voc_e2,11841,"[{""event"":""fullscreenenter"",""trial"":1,""time"":32095}]",NA,NA,NA,NA,NA,2,#1CD855,#FA92F8,10,0,1,38,1,986.5999999996275,37,1,715.3000000007451,10,1,experiment,NA,NA,1,0.7,0.3,2,3,293,7,NA
fcp-trial,363,2152169,0.0-304.0-0.0,voc_e2,11841,"[{""event"":""fullscreenenter"",""trial"":1,""time"":32095}]",NA,NA,NA,NA,NA,2,#D89F1C,#3386FF,0,10,0,38,1,1192,39,0,642.8000000007451,10,1,experiment,NA,NA,0,0.1,0.9,1,0,294,7,NA
fcp-trial,364,2156252,0.0-305.0-0.0,voc_e2,11841,"[{""event"":""fullscreenenter"",""trial"":1,""time"":32095}]",NA,NA,NA,NA,NA,5,#D8271C,#741CD8,10,10,0,38,1,1751.300000000745,37,1,825,10,0,experiment,NA,NA,2,0.5,0.5,5,4,295,7,NA
fcp-trial,365,2159755,0.0-306.0-0.0,voc_e2,11841,"[{""event"":""fullscreenenter"",""trial"":1,""time"":32095}]",NA,NA,NA,NA,NA,4,#1CD855,#FA92F8,0,0,1,38,1,1342.300000000745,37,1,654.0999999996275,0,1,experiment,NA,NA,1,0.7,0.3,2,3,296,7,NA
fcp-trial,366,2162524,0.0-307.0-0.0,voc_e2,11841,"[{""event"":""fullscreenenter"",""trial"":1,""time"":32095}]",NA,NA,NA,NA,NA,3,#D8271C,#741CD8,10,0,0,38,1,497.59999999962747,37,1,754.5999999996275,10,0,experiment,NA,NA,2,0.5,0.5,5,4,297,7,NA
fcp-trial,367,2165758,0.0-308.0-0.0,voc_e2,11841,"[{""event"":""fullscreenenter"",""trial"":1,""time"":32095}]",NA,NA,NA,NA,NA,5,#3386FF,#D89F1C,10,0,1,38,1,932.5,37,1,786.6999999992549,10,1,experiment,NA,NA,0,0.9,0.1,0,1,298,7,NA
fcp-trial,368,2168715,0.0-309.0-0.0,voc_e2,11841,"[{""event"":""fullscreenenter"",""trial"":1,""time"":32095}]",NA,NA,NA,NA,NA,1,#3386FF,#D89F1C,10,0,1,38,1,781.0999999996275,37,1,670.4000000003725,10,1,experiment,NA,NA,0,0.9,0.1,0,1,299,7,NA
fcp-trial,369,2172628,0.0-310.0-0.0,voc_e2,11841,"[{""event"":""fullscreenenter"",""trial"":1,""time"":32095}]",NA,NA,NA,NA,NA,2,#FA92F8,#1CD855,10,0,0,38,1,1304,39,0,1095.5,0,1,experiment,NA,NA,1,0.3,0.7,3,2,300,7,NA
fcp-trial,370,2179016,0.0-311.0-0.0,voc_e2,11841,"[{""event"":""fullscreenenter"",""trial"":1,""time"":32095}]",NA,NA,NA,NA,NA,0,#D8271C,#741CD8,0,0,0,38,1,666.7999999988824,37,1,4209.5,0,0,experiment,NA,NA,2,0.5,0.5,5,4,301,7,NA
fcp-trial,371,2191219,0.0-312.0-0.0,voc_e2,11841,"[{""event"":""fullscreenenter"",""trial"":1,""time"":32095}]",NA,NA,NA,NA,NA,4,#D89F1C,#3386FF,0,10,0,38,1,9464.900000000373,39,0,1228.2000000011176,10,1,experiment,NA,NA,0,0.1,0.9,1,0,302,7,NA
fcp-trial,372,2197151,0.0-313.0-0.0,voc_e2,11841,"[{""event"":""fullscreenenter"",""trial"":1,""time"":32095}]",NA,NA,NA,NA,NA,3,#1CD855,#FA92F8,10,0,1,38,1,2574.300000000745,37,1,1847.5999999996277,10,1,experiment,NA,NA,1,0.7,0.3,2,3,303,7,NA
fcp-trial,373,2207833,0.0-314.0-0.0,voc_e2,11841,"[{""event"":""fullscreenenter"",""trial"":1,""time"":32095}]",NA,NA,NA,NA,NA,2,#3386FF,#D89F1C,10,0,1,38,1,8455.400000000373,37,1,720.3000000007451,10,1,experiment,NA,NA,0,0.9,0.1,0,1,304,7,NA
fcp-trial,374,2212079,0.0-315.0-0.0,voc_e2,11841,"[{""event"":""fullscreenenter"",""trial"":1,""time"":32095}]",NA,NA,NA,NA,NA,4,#741CD8,#D8271C,0,10,1,38,1,2052.0999999996275,39,0,681.3999999985099,10,0,experiment,NA,NA,2,0.5,0.5,4,5,305,7,NA
fcp-trial,375,2218483,0.0-316.0-0.0,voc_e2,11841,"[{""event"":""fullscreenenter"",""trial"":1,""time"":32095}]",NA,NA,NA,NA,NA,1,#FA92F8,#1CD855,0,10,0,38,1,3331.199999999255,39,0,1560.800000000745,10,1,experiment,NA,NA,1,0.3,0.7,3,2,306,7,NA
fcp-trial,376,2223383,0.0-317.0-0.0,voc_e2,11841,"[{""event"":""fullscreenenter"",""trial"":1,""time"":32095}]",NA,NA,NA,NA,NA,6,#3386FF,#D89F1C,10,0,1,38,1,2711.4000000003725,37,1,682.6999999992549,10,1,experiment,NA,NA,0,0.9,0.1,0,1,307,7,NA
fcp-trial,377,2227108,0.0-318.0-0.0,voc_e2,11841,"[{""event"":""fullscreenenter"",""trial"":1,""time"":32095}]",NA,NA,NA,NA,NA,6,#741CD8,#D8271C,0,0,1,38,1,975.5,39,0,1233.4000000003723,0,0,experiment,NA,NA,2,0.5,0.5,4,5,308,7,NA
fcp-trial,378,2230075,0.0-319.0-0.0,voc_e2,11841,"[{""event"":""fullscreenenter"",""trial"":1,""time"":32095}]",NA,NA,NA,NA,NA,1,#741CD8,#D8271C,0,10,1,38,1,719.0999999996275,37,1,735.0999999996275,0,1,experiment,NA,NA,2,0.5,0.5,4,5,309,7,NA
fcp-trial,379,2233032,0.0-320.0-0.0,voc_e2,11841,"[{""event"":""fullscreenenter"",""trial"":1,""time"":32095}]",NA,NA,NA,NA,NA,3,#D89F1C,#3386FF,0,10,0,38,1,651.5,39,0,796.6999999992549,10,1,experiment,NA,NA,0,0.1,0.9,1,0,310,7,NA
fcp-trial,380,2236621,0.0-321.0-0.0,voc_e2,11841,"[{""event"":""fullscreenenter"",""trial"":1,""time"":32095}]",NA,NA,NA,NA,NA,0,#1CD855,#FA92F8,10,10,1,38,1,862.4000000003725,37,1,1220.199999999255,10,1,experiment,NA,NA,1,0.7,0.3,2,3,311,7,NA
fcp-trial,381,2239527,0.0-322.0-0.0,voc_e2,11841,"[{""event"":""fullscreenenter"",""trial"":1,""time"":32095}]",NA,NA,NA,NA,NA,0,#3386FF,#D89F1C,10,0,1,38,1,605.5999999996275,37,1,794.0999999996275,10,1,experiment,NA,NA,0,0.9,0.1,0,1,312,7,NA
fcp-trial,382,2242191,0.0-323.0-0.0,voc_e2,11841,"[{""event"":""fullscreenenter"",""trial"":1,""time"":32095}]",NA,NA,NA,NA,NA,2,#741CD8,#D8271C,10,10,1,38,1,689.7999999988824,39,0,462.2000000011176,10,0,experiment,NA,NA,2,0.5,0.5,4,5,313,7,NA
fcp-trial,383,2245284,0.0-324.0-0.0,voc_e2,11841,"[{""event"":""fullscreenenter"",""trial"":1,""time"":32095}]",NA,NA,NA,NA,NA,5,#1CD855,#FA92F8,10,0,1,38,1,964.9000000003725,37,1,622.9000000003725,10,1,experiment,NA,NA,1,0.7,0.3,2,3,314,7,NA
fcp-trial,384,2248840,0.0-325.0-0.0,voc_e2,11841,"[{""event"":""fullscreenenter"",""trial"":1,""time"":32095}]",NA,NA,NA,NA,NA,6,#FA92F8,#1CD855,0,10,0,38,1,1454.699999999255,39,0,590.0999999996275,10,1,experiment,NA,NA,1,0.3,0.7,3,2,315,7,NA
audio-instructions,385,2258176,0.0-326.0,voc_e2,11841,"[{""event"":""fullscreenenter"",""trial"":1,""time"":32095}]",NA,3704.099999999627,static/audio/finished.wav,NA,0,NA,NA,NA,NA,NA,NA,NA,NA,NA,NA,NA,NA,NA,NA,NA,NA,NA,NA,NA,NA,NA,NA,NA,NA,NA
audio-instructions,386,2272065,0.0-327.0-0.0,voc_e2,11841,"[{""event"":""fullscreenenter"",""trial"":1,""time"":32095}]",NA,3055,static/audio/explicit1.wav,NA,0,NA,NA,NA,NA,NA,NA,NA,NA,NA,NA,NA,NA,NA,NA,NA,NA,NA,NA,NA,NA,NA,NA,NA,NA,NA
audio-instructions,387,2281643,0.0-327.0-1.0,voc_e2,11841,"[{""event"":""fullscreenenter"",""trial"":1,""time"":32095}]",NA,1987,static/audio/explicit2.wav,NA,0,NA,NA,NA,NA,NA,NA,NA,NA,NA,NA,NA,NA,NA,NA,NA,NA,NA,NA,NA,NA,NA,NA,NA,NA,NA
image-slider-response,388,2292459,0.0-328.0,voc_e2,11841,"[{""event"":""fullscreenenter"",""trial"":1,""time"":32095}]",NA,10809.900000000373,static/img/machines/machine6.png,NA,NA,NA,NA,NA,NA,NA,NA,NA,NA,NA,NA,NA,NA,NA,NA,explicit,NA,NA,NA,NA,NA,NA,NA,NA,NA,7
image-slider-response,389,2299799,0.0-329.0,voc_e2,11841,"[{""event"":""fullscreenenter"",""trial"":1,""time"":32095}]",NA,7335,static/img/machines/machine5.png,NA,NA,NA,NA,NA,NA,NA,NA,NA,NA,NA,NA,NA,NA,NA,NA,explicit,NA,NA,NA,NA,NA,NA,NA,NA,NA,3
image-slider-response,390,2305567,0.0-330.0,voc_e2,11841,"[{""event"":""fullscreenenter"",""trial"":1,""time"":32095}]",NA,5760.39999999851,static/img/machines/machine4.png,NA,NA,NA,NA,NA,NA,NA,NA,NA,NA,NA,NA,NA,NA,NA,NA,explicit,NA,NA,NA,NA,NA,NA,NA,NA,NA,3
image-slider-response,391,2315246,0.0-331.0,voc_e2,11841,"[{""event"":""fullscreenenter"",""trial"":1,""time"":32095}]",NA,9675.199999999257,static/img/machines/machine3.png,NA,NA,NA,NA,NA,NA,NA,NA,NA,NA,NA,NA,NA,NA,NA,NA,explicit,NA,NA,NA,NA,NA,NA,NA,NA,NA,7
image-slider-response,392,2325010,0.0-332.0,voc_e2,11841,"[{""event"":""fullscreenenter"",""trial"":1,""time"":32095}]",NA,9759.299999998882,static/img/machines/machine1.png,NA,NA,NA,NA,NA,NA,NA,NA,NA,NA,NA,NA,NA,NA,NA,NA,explicit,NA,NA,NA,NA,NA,NA,NA,NA,NA,6
image-slider-response,393,2335199,0.0-333.0,voc_e2,11841,"[{""event"":""fullscreenenter"",""trial"":1,""time"":32095}]",NA,10183.700000001118,static/img/machines/machine2.png,NA,NA,NA,NA,NA,NA,NA,NA,NA,NA,NA,NA,NA,NA,NA,NA,explicit,NA,NA,NA,NA,NA,NA,NA,NA,NA,3
