trial_type,trial_index,time_elapsed,internal_node_id,task_version,subject_id,interactions,success,rt,stimulus,key_press,button_pressed,offer,arcade_color_L,arcade_color_R,arcade_outcome_L,arcade_outcome_R,correct,stage_1_key,stage_1_choice,stage_1_rt,stage_2_key,stage_2_choice,stage_2_rt,stage_3_outcome,accuracy,phase,responses,num_errors,context,reward_prob_L,reward_prob_R,arcade_id_L,arcade_id_R,trial,block,response
pavlovia,0,7,0.0-0.0,voc_e2,12218,[],NA,NA,NA,NA,NA,NA,NA,NA,NA,NA,NA,NA,NA,NA,NA,NA,NA,NA,NA,NA,NA,NA,NA,NA,NA,NA,NA,NA,NA,NA
fullscreen,1,2429,0.0-1.0,voc_e2,12218,"[{""event"":""fullscreenenter"",""trial"":1,""time"":1438}]",TRUE,NA,NA,NA,NA,NA,NA,NA,NA,NA,NA,NA,NA,NA,NA,NA,NA,NA,NA,NA,NA,NA,NA,NA,NA,NA,NA,NA,NA,NA
audio-keyboard-response,2,4943,0.0-2.0,voc_e2,12218,"[{""event"":""fullscreenenter"",""trial"":1,""time"":1438}]",NA,2480,static/audio/beep_loop.wav,32,NA,NA,NA,NA,NA,NA,NA,NA,NA,NA,NA,NA,NA,NA,NA,NA,NA,NA,NA,NA,NA,NA,NA,NA,NA,NA
audio-test,3,6101,0.0-3.0,voc_e2,12218,"[{""event"":""fullscreenenter"",""trial"":1,""time"":1438}]",NA,NA,static/audio/turtle.wav,NA,3,NA,NA,NA,NA,NA,NA,NA,NA,NA,NA,NA,NA,NA,NA,NA,NA,NA,NA,NA,NA,NA,NA,NA,NA,NA
audio-test,4,8039,0.0-4.0,voc_e2,12218,"[{""event"":""fullscreenenter"",""trial"":1,""time"":1438}]",NA,NA,static/audio/shark.wav,NA,2,NA,NA,NA,NA,NA,NA,NA,NA,NA,NA,NA,NA,NA,NA,NA,NA,NA,NA,NA,NA,NA,NA,NA,NA,NA
audio-instructions,5,15037,0.0-5.0-0.0,voc_e2,12218,"[{""event"":""fullscreenenter"",""trial"":1,""time"":1438}]",NA,1202.3000001907349,static/audio/instructions1.wav,NA,0,NA,NA,NA,NA,NA,NA,NA,NA,NA,NA,NA,NA,NA,NA,NA,NA,NA,NA,NA,NA,NA,NA,NA,NA,NA
audio-instructions,6,24858,0.0-5.0-1.0,voc_e2,12218,"[{""event"":""fullscreenenter"",""trial"":1,""time"":1438}]",NA,3073.199999809265,static/audio/instructions2.wav,NA,0,NA,NA,NA,NA,NA,NA,NA,NA,NA,NA,NA,NA,NA,NA,NA,NA,NA,NA,NA,NA,NA,NA,NA,NA,NA
audio-instructions,7,33449,0.0-5.0-2.0,voc_e2,12218,"[{""event"":""fullscreenenter"",""trial"":1,""time"":1438}]",NA,2783.900000095367,static/audio/instructions3.wav,NA,0,NA,NA,NA,NA,NA,NA,NA,NA,NA,NA,NA,NA,NA,NA,NA,NA,NA,NA,NA,NA,NA,NA,NA,NA,NA
audio-instructions,8,48495,0.0-5.0-3.0,voc_e2,12218,"[{""event"":""fullscreenenter"",""trial"":1,""time"":1438}]",NA,1819.7000000476835,static/audio/instructions4.wav,NA,0,NA,NA,NA,NA,NA,NA,NA,NA,NA,NA,NA,NA,NA,NA,NA,NA,NA,NA,NA,NA,NA,NA,NA,NA,NA
audio-instructions,9,60178,0.0-5.0-4.0,voc_e2,12218,"[{""event"":""fullscreenenter"",""trial"":1,""time"":1438}]",NA,2292.7999999523163,static/audio/instructions5.wav,NA,0,NA,NA,NA,NA,NA,NA,NA,NA,NA,NA,NA,NA,NA,NA,NA,NA,NA,NA,NA,NA,NA,NA,NA,NA,NA
fcp-practice,10,62794,0.0-5.0-5.0-0.0,voc_e2,12218,"[{""event"":""fullscreenenter"",""trial"":1,""time"":1438}]",NA,NA,NA,NA,NA,NA,#EDC948,#46d3c8,10,0,1,null,null,null,37,1,1108.8999998569489,10,1,practice,NA,NA,NA,NA,NA,NA,NA,NA,NA,NA
fcp-practice,11,64949,0.0-5.0-5.0-1.0,voc_e2,12218,"[{""event"":""fullscreenenter"",""trial"":1,""time"":1438}]",NA,NA,NA,NA,NA,NA,#EDC948,#46d3c8,10,0,1,null,null,null,37,1,648.7999999523163,10,1,practice,NA,NA,NA,NA,NA,NA,NA,NA,NA,NA
fcp-practice,12,66956,0.0-5.0-5.0-2.0,voc_e2,12218,"[{""event"":""fullscreenenter"",""trial"":1,""time"":1438}]",NA,NA,NA,NA,NA,NA,#EDC948,#46d3c8,0,10,1,null,null,null,37,1,494.2999999523163,0,1,practice,NA,NA,NA,NA,NA,NA,NA,NA,NA,NA
fcp-practice,13,68939,0.0-5.0-5.0-3.0,voc_e2,12218,"[{""event"":""fullscreenenter"",""trial"":1,""time"":1438}]",NA,NA,NA,NA,NA,NA,#EDC948,#46d3c8,10,0,1,null,null,null,37,1,471,10,1,practice,NA,NA,NA,NA,NA,NA,NA,NA,NA,NA
fcp-practice,14,70907,0.0-5.0-5.0-4.0,voc_e2,12218,"[{""event"":""fullscreenenter"",""trial"":1,""time"":1438}]",NA,NA,NA,NA,NA,NA,#EDC948,#46d3c8,10,0,1,null,null,null,37,1,463.2999999523163,10,1,practice,NA,NA,NA,NA,NA,NA,NA,NA,NA,NA
audio-instructions,15,95964,0.0-5.0-6.0,voc_e2,12218,"[{""event"":""fullscreenenter"",""trial"":1,""time"":1438}]",NA,7048.900000095367,static/audio/instructions6.wav,NA,0,NA,NA,NA,NA,NA,NA,NA,NA,NA,NA,NA,NA,NA,NA,NA,NA,NA,NA,NA,NA,NA,NA,NA,NA,NA
audio-instructions,16,116555,0.0-5.0-7.0,voc_e2,12218,"[{""event"":""fullscreenenter"",""trial"":1,""time"":1438}]",NA,1390.2000000476835,static/audio/instructions7.wav,NA,0,NA,NA,NA,NA,NA,NA,NA,NA,NA,NA,NA,NA,NA,NA,NA,NA,NA,NA,NA,NA,NA,NA,NA,NA,NA
audio-instructions,17,126603,0.0-5.0-8.0,voc_e2,12218,"[{""event"":""fullscreenenter"",""trial"":1,""time"":1438}]",NA,568.7999999523163,static/audio/instructions8.wav,NA,0,NA,NA,NA,NA,NA,NA,NA,NA,NA,NA,NA,NA,NA,NA,NA,NA,NA,NA,NA,NA,NA,NA,NA,NA,NA
fcp-comprehension,18,135535,0.0-5.0-9.0,voc_e2,12218,"[{""event"":""fullscreenenter"",""trial"":1,""time"":1438}]",NA,8930.5,NA,NA,NA,NA,NA,NA,NA,NA,NA,NA,NA,NA,NA,NA,NA,NA,NA,NA,"true,true",0,NA,NA,NA,NA,NA,NA,NA,NA
audio-instructions,19,142852,0.0-6.0-0.0,voc_e2,12218,"[{""event"":""fullscreenenter"",""trial"":1,""time"":1438}]",NA,1767.7999999523165,static/audio/instructions9.wav,NA,0,NA,NA,NA,NA,NA,NA,NA,NA,NA,NA,NA,NA,NA,NA,NA,NA,NA,NA,NA,NA,NA,NA,NA,NA,NA
audio-instructions,20,157110,0.0-6.0-1.0,voc_e2,12218,"[{""event"":""fullscreenenter"",""trial"":1,""time"":1438}]",NA,2144.7999999523163,static/audio/instructions10.wav,NA,0,NA,NA,NA,NA,NA,NA,NA,NA,NA,NA,NA,NA,NA,NA,NA,NA,NA,NA,NA,NA,NA,NA,NA,NA,NA
fcp-trial,21,165108,0.0-6.0-2.0,voc_e2,12218,"[{""event"":""fullscreenenter"",""trial"":1,""time"":1438}]",NA,NA,NA,NA,NA,0,#EDC948,#46d3c8,10,10,1,38,1,4698.799999952316,37,1,1780.2000000476835,10,1,practice,NA,NA,NA,NA,NA,NA,NA,NA,NA,NA
audio-instructions,22,177725,0.0-6.0-3.0,voc_e2,12218,"[{""event"":""fullscreenenter"",""trial"":1,""time"":1438}]",NA,1610.2000000476835,static/audio/instructions11.wav,NA,0,NA,NA,NA,NA,NA,NA,NA,NA,NA,NA,NA,NA,NA,NA,NA,NA,NA,NA,NA,NA,NA,NA,NA,NA,NA
fcp-trial,23,183218,0.0-6.0-4.0,voc_e2,12218,"[{""event"":""fullscreenenter"",""trial"":1,""time"":1438}]",NA,NA,NA,NA,NA,6,#EDC948,#46d3c8,10,10,1,40,0,1589.1999998092651,37,1,2389,10,1,practice,NA,NA,NA,NA,NA,NA,NA,NA,NA,NA
audio-instructions,24,203426,0.0-6.0-5.0,voc_e2,12218,"[{""event"":""fullscreenenter"",""trial"":1,""time"":1438}]",NA,1520.6999998092651,static/audio/instructions12.wav,NA,0,NA,NA,NA,NA,NA,NA,NA,NA,NA,NA,NA,NA,NA,NA,NA,NA,NA,NA,NA,NA,NA,NA,NA,NA,NA
audio-instructions,25,211509,0.0-6.0-6.0,voc_e2,12218,"[{""event"":""fullscreenenter"",""trial"":1,""time"":1438}]",NA,483.89999985694885,static/audio/instructions13.wav,NA,0,NA,NA,NA,NA,NA,NA,NA,NA,NA,NA,NA,NA,NA,NA,NA,NA,NA,NA,NA,NA,NA,NA,NA,NA,NA
audio-instructions,26,220477,0.0-6.0-7.0,voc_e2,12218,"[{""event"":""fullscreenenter"",""trial"":1,""time"":1438}]",NA,522.2999999523163,static/audio/instructions14.wav,NA,0,NA,NA,NA,NA,NA,NA,NA,NA,NA,NA,NA,NA,NA,NA,NA,NA,NA,NA,NA,NA,NA,NA,NA,NA,NA
audio-instructions,27,227984,0.0-7.0-0.0,voc_e2,12218,"[{""event"":""fullscreenenter"",""trial"":1,""time"":1438}]",NA,589.7999999523163,static/audio/instructions15.wav,NA,0,NA,NA,NA,NA,NA,NA,NA,NA,NA,NA,NA,NA,NA,NA,NA,NA,NA,NA,NA,NA,NA,NA,NA,NA,NA
audio-instructions,28,236349,0.0-7.0-1.0,voc_e2,12218,"[{""event"":""fullscreenenter"",""trial"":1,""time"":1438}]",NA,1534.2999999523165,static/audio/instructions16.wav,NA,0,NA,NA,NA,NA,NA,NA,NA,NA,NA,NA,NA,NA,NA,NA,NA,NA,NA,NA,NA,NA,NA,NA,NA,NA,NA
audio-instructions,29,244593,0.0-7.0-2.0,voc_e2,12218,"[{""event"":""fullscreenenter"",""trial"":1,""time"":1438}]",NA,568.4000000953674,static/audio/instructions17.wav,NA,0,NA,NA,NA,NA,NA,NA,NA,NA,NA,NA,NA,NA,NA,NA,NA,NA,NA,NA,NA,NA,NA,NA,NA,NA,NA
audio-instructions,30,252780,0.0-7.0-3.0,voc_e2,12218,"[{""event"":""fullscreenenter"",""trial"":1,""time"":1438}]",NA,425,static/audio/instructions18.wav,NA,0,NA,NA,NA,NA,NA,NA,NA,NA,NA,NA,NA,NA,NA,NA,NA,NA,NA,NA,NA,NA,NA,NA,NA,NA,NA
audio-instructions,31,259938,0.0-7.0-4.0,voc_e2,12218,"[{""event"":""fullscreenenter"",""trial"":1,""time"":1438}]",NA,423.7999999523163,static/audio/instructions19.wav,NA,0,NA,NA,NA,NA,NA,NA,NA,NA,NA,NA,NA,NA,NA,NA,NA,NA,NA,NA,NA,NA,NA,NA,NA,NA,NA
fcp-comprehension,32,269917,0.0-7.0-5.0,voc_e2,12218,"[{""event"":""fullscreenenter"",""trial"":1,""time"":1438}]",NA,9977.600000143051,NA,NA,NA,NA,NA,NA,NA,NA,NA,NA,NA,NA,NA,NA,NA,NA,NA,NA,"false,false,false,true",0,NA,NA,NA,NA,NA,NA,NA,NA
audio-instructions,33,281360,0.0-8.0,voc_e2,12218,"[{""event"":""fullscreenenter"",""trial"":1,""time"":1438}]",NA,2224.899999856949,static/audio/ready.wav,NA,0,NA,NA,NA,NA,NA,NA,NA,NA,NA,NA,NA,NA,NA,NA,NA,NA,NA,NA,NA,NA,NA,NA,NA,NA,NA
fcp-trial,34,286606,0.0-9.0-0.0,voc_e2,12218,"[{""event"":""fullscreenenter"",""trial"":1,""time"":1438}]",NA,NA,NA,NA,NA,0,#D89F1C,#3386FF,0,10,1,38,1,2545.7999999523163,37,1,1183.2999999523165,0,1,experiment,NA,NA,1,0.7,0.3,2,3,1,1,NA
fcp-trial,35,291342,0.0-10.0-0.0,voc_e2,12218,"[{""event"":""fullscreenenter"",""trial"":1,""time"":1438}]",NA,NA,NA,NA,NA,6,#1CD855,#FA92F8,10,0,1,40,0,2147.7000000476837,39,0,1073.1000001430511,0,0,experiment,NA,NA,2,0.5,0.5,4,5,2,1,NA
fcp-trial,36,295230,0.0-11.0-0.0,voc_e2,12218,"[{""event"":""fullscreenenter"",""trial"":1,""time"":1438}]",NA,NA,NA,NA,NA,0,#FA92F8,#1CD855,10,10,0,38,1,1653.0999999046326,39,0,726.5,10,1,experiment,NA,NA,2,0.5,0.5,5,4,3,1,NA
fcp-trial,37,299179,0.0-12.0-0.0,voc_e2,12218,"[{""event"":""fullscreenenter"",""trial"":1,""time"":1438}]",NA,NA,NA,NA,NA,3,#741CD8,#D8271C,0,10,0,40,0,1812.1000001430511,39,0,628.0999999046326,10,1,experiment,NA,NA,0,0.1,0.9,1,0,4,1,NA
fcp-trial,38,304977,0.0-13.0-0.0,voc_e2,12218,"[{""event"":""fullscreenenter"",""trial"":1,""time"":1438}]",NA,NA,NA,NA,NA,4,#1CD855,#FA92F8,0,10,1,38,1,3207,37,1,1074.2999999523165,0,1,experiment,NA,NA,2,0.5,0.5,4,5,5,1,NA
fcp-trial,39,309898,0.0-14.0-0.0,voc_e2,12218,"[{""event"":""fullscreenenter"",""trial"":1,""time"":1438}]",NA,NA,NA,NA,NA,6,#D89F1C,#3386FF,10,0,1,40,0,2721.5,37,1,691.7000000476837,10,1,experiment,NA,NA,1,0.7,0.3,2,3,6,1,NA
fcp-trial,40,314025,0.0-15.0-0.0,voc_e2,12218,"[{""event"":""fullscreenenter"",""trial"":1,""time"":1438}]",NA,NA,NA,NA,NA,0,#741CD8,#D8271C,0,10,0,38,1,1672.7999999523163,39,0,951.5,10,1,experiment,NA,NA,0,0.1,0.9,1,0,7,1,NA
fcp-trial,41,319539,0.0-16.0-0.0,voc_e2,12218,"[{""event"":""fullscreenenter"",""trial"":1,""time"":1438}]",NA,NA,NA,NA,NA,5,#D89F1C,#3386FF,0,0,1,38,1,3169.7000000476837,37,1,838.5,0,1,experiment,NA,NA,1,0.7,0.3,2,3,8,1,NA
fcp-trial,42,324658,0.0-17.0-0.0,voc_e2,12218,"[{""event"":""fullscreenenter"",""trial"":1,""time"":1438}]",NA,NA,NA,NA,NA,1,#D8271C,#741CD8,10,0,1,38,1,2391.7999999523163,37,1,1223.3999998569489,10,1,experiment,NA,NA,0,0.9,0.1,0,1,9,1,NA
fcp-trial,43,328305,0.0-18.0-0.0,voc_e2,12218,"[{""event"":""fullscreenenter"",""trial"":1,""time"":1438}]",NA,NA,NA,NA,NA,3,#FA92F8,#1CD855,0,10,0,38,1,1727.7999999523163,39,0,415.10000014305115,10,1,experiment,NA,NA,2,0.5,0.5,5,4,10,1,NA
fcp-trial,44,332186,0.0-19.0-0.0,voc_e2,12218,"[{""event"":""fullscreenenter"",""trial"":1,""time"":1438}]",NA,NA,NA,NA,NA,1,#D89F1C,#3386FF,10,10,1,38,1,1529.9000000953674,37,1,846.4000000953674,10,1,experiment,NA,NA,1,0.7,0.3,2,3,11,1,NA
fcp-trial,45,336017,0.0-20.0-0.0,voc_e2,12218,"[{""event"":""fullscreenenter"",""trial"":1,""time"":1438}]",NA,NA,NA,NA,NA,4,#D89F1C,#3386FF,0,0,1,38,1,1697.1000001430511,37,1,632,0,1,experiment,NA,NA,1,0.7,0.3,2,3,12,1,NA
fcp-trial,46,340961,0.0-21.0-0.0,voc_e2,12218,"[{""event"":""fullscreenenter"",""trial"":1,""time"":1438}]",NA,NA,NA,NA,NA,6,#741CD8,#D8271C,0,10,0,40,0,2633.399999856949,37,1,806.5999999046326,0,0,experiment,NA,NA,0,0.1,0.9,1,0,13,1,NA
fcp-trial,47,344475,0.0-22.0-0.0,voc_e2,12218,"[{""event"":""fullscreenenter"",""trial"":1,""time"":1438}]",NA,NA,NA,NA,NA,2,#741CD8,#D8271C,0,10,0,38,1,1465.7000000476837,39,0,534,10,1,experiment,NA,NA,0,0.1,0.9,1,0,14,1,NA
fcp-trial,48,347337,0.0-23.0-0.0,voc_e2,12218,"[{""event"":""fullscreenenter"",""trial"":1,""time"":1438}]",NA,NA,NA,NA,NA,5,#1CD855,#FA92F8,10,0,1,38,1,1070.7999999523163,37,1,287.5,10,1,experiment,NA,NA,2,0.5,0.5,4,5,15,1,NA
fcp-trial,49,350473,0.0-24.0-0.0,voc_e2,12218,"[{""event"":""fullscreenenter"",""trial"":1,""time"":1438}]",NA,NA,NA,NA,NA,3,#D89F1C,#3386FF,0,0,1,38,1,1257.7000000476837,39,0,375.2000000476837,0,0,experiment,NA,NA,1,0.7,0.3,2,3,16,1,NA
fcp-trial,50,353313,0.0-25.0-0.0,voc_e2,12218,"[{""event"":""fullscreenenter"",""trial"":1,""time"":1438}]",NA,NA,NA,NA,NA,1,#FA92F8,#1CD855,0,0,0,38,1,1033.3999998569489,39,0,302.2999999523163,0,1,experiment,NA,NA,2,0.5,0.5,5,4,17,1,NA
fcp-trial,51,356353,0.0-26.0-0.0,voc_e2,12218,"[{""event"":""fullscreenenter"",""trial"":1,""time"":1438}]",NA,NA,NA,NA,NA,2,#D89F1C,#3386FF,0,10,1,38,1,921.7000000476837,37,1,615.0999999046326,0,1,experiment,NA,NA,1,0.7,0.3,2,3,18,1,NA
fcp-trial,52,363018,0.0-27.0-0.0,voc_e2,12218,"[{""event"":""fullscreenenter"",""trial"":1,""time"":1438}]",NA,NA,NA,NA,NA,4,#741CD8,#D8271C,0,0,0,38,1,2553.5,39,0,2607.2999999523163,0,1,experiment,NA,NA,0,0.1,0.9,1,0,19,1,NA
fcp-trial,53,366184,0.0-28.0-0.0,voc_e2,12218,"[{""event"":""fullscreenenter"",""trial"":1,""time"":1438}]",NA,NA,NA,NA,NA,5,#D8271C,#741CD8,10,0,1,38,1,1199.6000001430511,37,1,463.19999980926514,10,1,experiment,NA,NA,0,0.9,0.1,0,1,20,1,NA
fcp-trial,54,369841,0.0-29.0-0.0,voc_e2,12218,"[{""event"":""fullscreenenter"",""trial"":1,""time"":1438}]",NA,NA,NA,NA,NA,2,#FA92F8,#1CD855,10,10,0,38,1,1209.5999999046326,39,0,942.4000000953674,10,1,experiment,NA,NA,2,0.5,0.5,5,4,21,1,NA
fcp-trial,55,373153,0.0-30.0-0.0,voc_e2,12218,"[{""event"":""fullscreenenter"",""trial"":1,""time"":1438}]",NA,NA,NA,NA,NA,4,#D8271C,#741CD8,10,0,1,40,0,1201.2999999523163,37,1,606.9000000953674,10,1,experiment,NA,NA,0,0.9,0.1,0,1,22,1,NA
fcp-trial,56,376777,0.0-31.0-0.0,voc_e2,12218,"[{""event"":""fullscreenenter"",""trial"":1,""time"":1438}]",NA,NA,NA,NA,NA,0,#1CD855,#FA92F8,0,0,1,38,1,1713.2000000476837,37,1,406.09999990463257,0,1,experiment,NA,NA,2,0.5,0.5,4,5,23,1,NA
fcp-trial,57,380043,0.0-32.0-0.0,voc_e2,12218,"[{""event"":""fullscreenenter"",""trial"":1,""time"":1438}]",NA,NA,NA,NA,NA,0,#3386FF,#D89F1C,0,10,0,38,1,1337.1999998092651,37,1,422.2000000476837,0,0,experiment,NA,NA,1,0.3,0.7,3,2,24,1,NA
fcp-trial,58,383634,0.0-33.0-0.0,voc_e2,12218,"[{""event"":""fullscreenenter"",""trial"":1,""time"":1438}]",NA,NA,NA,NA,NA,6,#FA92F8,#1CD855,0,10,0,40,0,1655.5999999046326,37,1,431.10000014305115,0,0,experiment,NA,NA,2,0.5,0.5,5,4,25,1,NA
fcp-trial,59,387242,0.0-34.0-0.0,voc_e2,12218,"[{""event"":""fullscreenenter"",""trial"":1,""time"":1438}]",NA,NA,NA,NA,NA,5,#D8271C,#741CD8,10,0,1,40,0,1528.4000000953674,39,0,574.5999999046326,0,0,experiment,NA,NA,0,0.9,0.1,0,1,26,1,NA
fcp-trial,60,390770,0.0-35.0-0.0,voc_e2,12218,"[{""event"":""fullscreenenter"",""trial"":1,""time"":1438}]",NA,NA,NA,NA,NA,3,#741CD8,#D8271C,0,0,0,38,1,1377,39,0,645.2000000476837,0,1,experiment,NA,NA,0,0.1,0.9,1,0,27,1,NA
fcp-trial,61,393866,0.0-36.0-0.0,voc_e2,12218,"[{""event"":""fullscreenenter"",""trial"":1,""time"":1438}]",NA,NA,NA,NA,NA,2,#FA92F8,#1CD855,10,0,0,38,1,952.6000001430511,39,0,632.5,0,1,experiment,NA,NA,2,0.5,0.5,5,4,28,1,NA
fcp-trial,62,396689,0.0-37.0-0.0,voc_e2,12218,"[{""event"":""fullscreenenter"",""trial"":1,""time"":1438}]",NA,NA,NA,NA,NA,1,#3386FF,#D89F1C,0,10,0,38,1,897.0999999046326,37,1,423.5,0,0,experiment,NA,NA,1,0.3,0.7,3,2,29,1,NA
fcp-trial,63,399890,0.0-38.0-0.0,voc_e2,12218,"[{""event"":""fullscreenenter"",""trial"":1,""time"":1438}]",NA,NA,NA,NA,NA,3,#3386FF,#D89F1C,0,0,0,40,0,1329.2999999523163,37,1,366.09999990463257,0,0,experiment,NA,NA,1,0.3,0.7,3,2,30,1,NA
fcp-trial,64,403370,0.0-39.0-0.0,voc_e2,12218,"[{""event"":""fullscreenenter"",""trial"":1,""time"":1438}]",NA,NA,NA,NA,NA,6,#741CD8,#D8271C,0,10,0,40,0,1488.5999999046326,39,0,487.39999985694885,10,1,experiment,NA,NA,0,0.1,0.9,1,0,31,1,NA
fcp-trial,65,406394,0.0-40.0-0.0,voc_e2,12218,"[{""event"":""fullscreenenter"",""trial"":1,""time"":1438}]",NA,NA,NA,NA,NA,1,#D8271C,#741CD8,10,0,1,38,1,1137.1999998092651,37,1,382.7000000476837,10,1,experiment,NA,NA,0,0.9,0.1,0,1,32,1,NA
fcp-trial,66,409073,0.0-41.0-0.0,voc_e2,12218,"[{""event"":""fullscreenenter"",""trial"":1,""time"":1438}]",NA,NA,NA,NA,NA,5,#1CD855,#FA92F8,0,0,1,38,1,793.0999999046326,37,1,382.80000019073486,0,1,experiment,NA,NA,2,0.5,0.5,4,5,33,1,NA
fcp-trial,67,412137,0.0-42.0-0.0,voc_e2,12218,"[{""event"":""fullscreenenter"",""trial"":1,""time"":1438}]",NA,NA,NA,NA,NA,5,#D89F1C,#3386FF,10,0,1,40,0,1105.2999999523163,37,1,454.5,10,1,experiment,NA,NA,1,0.7,0.3,2,3,34,1,NA
fcp-trial,68,415098,0.0-43.0-0.0,voc_e2,12218,"[{""event"":""fullscreenenter"",""trial"":1,""time"":1438}]",NA,NA,NA,NA,NA,4,#3386FF,#D89F1C,0,10,0,40,0,993.4000000953674,39,0,463.40000009536743,10,1,experiment,NA,NA,1,0.3,0.7,3,2,35,1,NA
fcp-trial,69,418362,0.0-44.0-0.0,voc_e2,12218,"[{""event"":""fullscreenenter"",""trial"":1,""time"":1438}]",NA,NA,NA,NA,NA,2,#D8271C,#741CD8,10,0,1,38,1,1120.7999999523163,37,1,639.1000001430511,10,1,experiment,NA,NA,0,0.9,0.1,0,1,36,1,NA
fcp-trial,70,421809,0.0-45.0-0.0,voc_e2,12218,"[{""event"":""fullscreenenter"",""trial"":1,""time"":1438}]",NA,NA,NA,NA,NA,4,#1CD855,#FA92F8,0,10,1,38,1,1144.5999999046326,37,1,798.4000000953674,0,1,experiment,NA,NA,2,0.5,0.5,4,5,37,1,NA
fcp-trial,71,424706,0.0-46.0-0.0,voc_e2,12218,"[{""event"":""fullscreenenter"",""trial"":1,""time"":1438}]",NA,NA,NA,NA,NA,3,#1CD855,#FA92F8,10,0,1,38,1,897.5,37,1,495.40000009536743,10,1,experiment,NA,NA,2,0.5,0.5,4,5,38,1,NA
fcp-trial,72,427994,0.0-47.0-0.0,voc_e2,12218,"[{""event"":""fullscreenenter"",""trial"":1,""time"":1438}]",NA,NA,NA,NA,NA,0,#741CD8,#D8271C,0,10,0,38,1,1361.5999999046326,39,0,422.2000000476837,10,1,experiment,NA,NA,0,0.1,0.9,1,0,39,1,NA
fcp-trial,73,430929,0.0-48.0-0.0,voc_e2,12218,"[{""event"":""fullscreenenter"",""trial"":1,""time"":1438}]",NA,NA,NA,NA,NA,2,#3386FF,#D89F1C,0,10,0,38,1,928.5999999046326,37,1,503,0,0,experiment,NA,NA,1,0.3,0.7,3,2,40,1,NA
fcp-trial,74,434057,0.0-49.0-0.0,voc_e2,12218,"[{""event"":""fullscreenenter"",""trial"":1,""time"":1438}]",NA,NA,NA,NA,NA,6,#3386FF,#D89F1C,0,10,0,40,0,1241.0999999046326,39,0,383.5,10,1,experiment,NA,NA,1,0.3,0.7,3,2,41,1,NA
fcp-trial,75,437137,0.0-50.0-0.0,voc_e2,12218,"[{""event"":""fullscreenenter"",""trial"":1,""time"":1438}]",NA,NA,NA,NA,NA,1,#FA92F8,#1CD855,0,10,0,38,1,1096.5999999046326,39,0,479.60000014305115,10,1,experiment,NA,NA,2,0.5,0.5,5,4,42,1,NA
fcp-trial,76,440130,0.0-51.0-0.0,voc_e2,12218,"[{""event"":""fullscreenenter"",""trial"":1,""time"":1438}]",NA,NA,NA,NA,NA,1,#1CD855,#FA92F8,10,10,1,38,1,825.5999999046326,37,1,662.6000001430511,10,1,experiment,NA,NA,2,0.5,0.5,4,5,43,1,NA
fcp-trial,77,443273,0.0-52.0-0.0,voc_e2,12218,"[{""event"":""fullscreenenter"",""trial"":1,""time"":1438}]",NA,NA,NA,NA,NA,4,#D89F1C,#3386FF,10,0,1,38,1,1249,37,1,391.90000009536743,10,1,experiment,NA,NA,1,0.7,0.3,2,3,44,1,NA
fcp-trial,78,446129,0.0-53.0-0.0,voc_e2,12218,"[{""event"":""fullscreenenter"",""trial"":1,""time"":1438}]",NA,NA,NA,NA,NA,3,#D8271C,#741CD8,10,10,1,38,1,817.8000001907349,37,1,534.7000000476837,10,1,experiment,NA,NA,0,0.9,0.1,0,1,45,1,NA
fcp-trial,79,448777,0.0-54.0-0.0,voc_e2,12218,"[{""event"":""fullscreenenter"",""trial"":1,""time"":1438}]",NA,NA,NA,NA,NA,3,#3386FF,#D89F1C,10,10,0,38,1,865,39,0,279.5,10,1,experiment,NA,NA,1,0.3,0.7,3,2,46,2,NA
fcp-trial,80,451498,0.0-55.0-0.0,voc_e2,12218,"[{""event"":""fullscreenenter"",""trial"":1,""time"":1438}]",NA,NA,NA,NA,NA,3,#1CD855,#FA92F8,0,10,1,38,1,841.5999999046326,37,1,374.7000000476837,0,1,experiment,NA,NA,2,0.5,0.5,4,5,47,2,NA
fcp-trial,81,454378,0.0-56.0-0.0,voc_e2,12218,"[{""event"":""fullscreenenter"",""trial"":1,""time"":1438}]",NA,NA,NA,NA,NA,0,#D89F1C,#3386FF,10,0,1,38,1,1088.9000000953674,37,1,287.5,10,1,experiment,NA,NA,1,0.7,0.3,2,3,48,2,NA
fcp-trial,82,457409,0.0-57.0-0.0,voc_e2,12218,"[{""event"":""fullscreenenter"",""trial"":1,""time"":1438}]",NA,NA,NA,NA,NA,2,#FA92F8,#1CD855,10,10,0,38,1,928.3999998569489,39,0,598.5,10,1,experiment,NA,NA,2,0.5,0.5,5,4,49,2,NA
fcp-trial,83,460194,0.0-58.0-0.0,voc_e2,12218,"[{""event"":""fullscreenenter"",""trial"":1,""time"":1438}]",NA,NA,NA,NA,NA,0,#741CD8,#D8271C,0,10,0,38,1,712.7000000476837,39,0,567.5,10,1,experiment,NA,NA,0,0.1,0.9,1,0,50,2,NA
fcp-trial,84,463994,0.0-59.0-0.0,voc_e2,12218,"[{""event"":""fullscreenenter"",""trial"":1,""time"":1438}]",NA,NA,NA,NA,NA,4,#FA92F8,#1CD855,0,0,0,40,0,1648.9000000953674,37,1,646.8999998569489,0,0,experiment,NA,NA,2,0.5,0.5,5,4,51,2,NA
fcp-trial,85,466914,0.0-60.0-0.0,voc_e2,12218,"[{""event"":""fullscreenenter"",""trial"":1,""time"":1438}]",NA,NA,NA,NA,NA,1,#D8271C,#741CD8,0,0,1,38,1,848.5999999046326,37,1,566.7999999523163,0,1,experiment,NA,NA,0,0.9,0.1,0,1,52,2,NA
fcp-trial,86,469424,0.0-61.0-0.0,voc_e2,12218,"[{""event"":""fullscreenenter"",""trial"":1,""time"":1438}]",NA,NA,NA,NA,NA,1,#3386FF,#D89F1C,0,10,0,38,1,608.9000000953674,39,0,398.90000009536743,10,1,experiment,NA,NA,1,0.3,0.7,3,2,53,2,NA
fcp-trial,87,472313,0.0-62.0-0.0,voc_e2,12218,"[{""event"":""fullscreenenter"",""trial"":1,""time"":1438}]",NA,NA,NA,NA,NA,5,#FA92F8,#1CD855,0,10,0,38,1,977.7000000476837,39,0,407.10000014305115,10,1,experiment,NA,NA,2,0.5,0.5,5,4,54,2,NA
fcp-trial,88,474963,0.0-63.0-0.0,voc_e2,12218,"[{""event"":""fullscreenenter"",""trial"":1,""time"":1438}]",NA,NA,NA,NA,NA,5,#741CD8,#D8271C,0,10,0,38,1,577.2000000476837,39,0,565.9000000953674,10,1,experiment,NA,NA,0,0.1,0.9,1,0,55,2,NA
fcp-trial,89,477289,0.0-64.0-0.0,voc_e2,12218,"[{""event"":""fullscreenenter"",""trial"":1,""time"":1438}]",NA,NA,NA,NA,NA,2,#D89F1C,#3386FF,10,10,1,38,1,367.40000009536743,39,0,455.7000000476837,10,0,experiment,NA,NA,1,0.7,0.3,2,3,56,2,NA
fcp-trial,90,479953,0.0-65.0-0.0,voc_e2,12218,"[{""event"":""fullscreenenter"",""trial"":1,""time"":1438}]",NA,NA,NA,NA,NA,6,#D89F1C,#3386FF,10,10,1,38,1,593.3999998569489,37,1,567.2999999523163,10,1,experiment,NA,NA,1,0.7,0.3,2,3,57,2,NA
fcp-trial,91,482593,0.0-66.0-0.0,voc_e2,12218,"[{""event"":""fullscreenenter"",""trial"":1,""time"":1438}]",NA,NA,NA,NA,NA,0,#FA92F8,#1CD855,10,0,0,38,1,713.6000001430511,39,0,422,0,1,experiment,NA,NA,2,0.5,0.5,5,4,58,2,NA
fcp-trial,92,485545,0.0-67.0-0.0,voc_e2,12218,"[{""event"":""fullscreenenter"",""trial"":1,""time"":1438}]",NA,NA,NA,NA,NA,4,#741CD8,#D8271C,0,10,0,40,0,937.4000000953674,37,1,510.2000000476837,0,0,experiment,NA,NA,0,0.1,0.9,1,0,59,2,NA
fcp-trial,93,488697,0.0-68.0-0.0,voc_e2,12218,"[{""event"":""fullscreenenter"",""trial"":1,""time"":1438}]",NA,NA,NA,NA,NA,2,#D8271C,#741CD8,10,0,1,38,1,1241.5,37,1,407,10,1,experiment,NA,NA,0,0.9,0.1,0,1,60,2,NA
fcp-trial,94,491665,0.0-69.0-0.0,voc_e2,12218,"[{""event"":""fullscreenenter"",""trial"":1,""time"":1438}]",NA,NA,NA,NA,NA,6,#1CD855,#FA92F8,10,10,1,38,1,952.4000000953674,37,1,510.7000000476837,10,1,experiment,NA,NA,2,0.5,0.5,4,5,61,2,NA
fcp-trial,95,494530,0.0-70.0-0.0,voc_e2,12218,"[{""event"":""fullscreenenter"",""trial"":1,""time"":1438}]",NA,NA,NA,NA,NA,5,#D89F1C,#3386FF,10,10,1,38,1,905.6999998092651,37,1,454.69999980926514,10,1,experiment,NA,NA,1,0.7,0.3,2,3,62,2,NA
fcp-trial,96,497481,0.0-71.0-0.0,voc_e2,12218,"[{""event"":""fullscreenenter"",""trial"":1,""time"":1438}]",NA,NA,NA,NA,NA,6,#741CD8,#D8271C,0,10,0,38,1,976,39,0,470.7000000476837,10,1,experiment,NA,NA,0,0.1,0.9,1,0,63,2,NA
fcp-trial,97,500176,0.0-72.0-0.0,voc_e2,12218,"[{""event"":""fullscreenenter"",""trial"":1,""time"":1438}]",NA,NA,NA,NA,NA,1,#741CD8,#D8271C,0,10,0,38,1,785.7999999523163,39,0,406.90000009536743,10,1,experiment,NA,NA,0,0.1,0.9,1,0,64,2,NA
fcp-trial,98,503225,0.0-73.0-0.0,voc_e2,12218,"[{""event"":""fullscreenenter"",""trial"":1,""time"":1438}]",NA,NA,NA,NA,NA,0,#FA92F8,#1CD855,0,0,0,38,1,1176.7999999523163,39,0,366.5,0,1,experiment,NA,NA,2,0.5,0.5,5,4,65,2,NA
fcp-trial,99,506376,0.0-74.0-0.0,voc_e2,12218,"[{""event"":""fullscreenenter"",""trial"":1,""time"":1438}]",NA,NA,NA,NA,NA,3,#D89F1C,#3386FF,10,0,1,40,0,1089.4000000953674,39,0,558.5999999046326,0,0,experiment,NA,NA,1,0.7,0.3,2,3,66,2,NA
fcp-trial,100,509017,0.0-75.0-0.0,voc_e2,12218,"[{""event"":""fullscreenenter"",""trial"":1,""time"":1438}]",NA,NA,NA,NA,NA,3,#741CD8,#D8271C,0,10,0,38,1,722.0999999046326,39,0,414.40000009536743,10,1,experiment,NA,NA,0,0.1,0.9,1,0,67,2,NA
fcp-trial,101,511752,0.0-76.0-0.0,voc_e2,12218,"[{""event"":""fullscreenenter"",""trial"":1,""time"":1438}]",NA,NA,NA,NA,NA,5,#FA92F8,#1CD855,0,0,0,38,1,761.2000000476837,39,0,460.7000000476837,0,1,experiment,NA,NA,2,0.5,0.5,5,4,68,2,NA
fcp-trial,102,514577,0.0-77.0-0.0,voc_e2,12218,"[{""event"":""fullscreenenter"",""trial"":1,""time"":1438}]",NA,NA,NA,NA,NA,5,#3386FF,#D89F1C,0,0,0,40,0,858.7000000476837,37,1,461.2999999523163,0,0,experiment,NA,NA,1,0.3,0.7,3,2,69,2,NA
fcp-trial,103,517360,0.0-78.0-0.0,voc_e2,12218,"[{""event"":""fullscreenenter"",""trial"":1,""time"":1438}]",NA,NA,NA,NA,NA,2,#D89F1C,#3386FF,10,0,1,40,0,753,39,0,526.9000000953674,0,0,experiment,NA,NA,1,0.7,0.3,2,3,70,2,NA
fcp-trial,104,520529,0.0-79.0-0.0,voc_e2,12218,"[{""event"":""fullscreenenter"",""trial"":1,""time"":1438}]",NA,NA,NA,NA,NA,4,#D8271C,#741CD8,10,0,1,40,0,938.7000000476837,39,0,727.1999998092651,0,0,experiment,NA,NA,0,0.9,0.1,0,1,71,2,NA
fcp-trial,105,523234,0.0-80.0-0.0,voc_e2,12218,"[{""event"":""fullscreenenter"",""trial"":1,""time"":1438}]",NA,NA,NA,NA,NA,3,#FA92F8,#1CD855,10,10,0,38,1,849.5,39,0,351.09999990463257,10,1,experiment,NA,NA,2,0.5,0.5,5,4,72,2,NA
fcp-trial,106,525850,0.0-81.0-0.0,voc_e2,12218,"[{""event"":""fullscreenenter"",""trial"":1,""time"":1438}]",NA,NA,NA,NA,NA,2,#1CD855,#FA92F8,10,10,1,38,1,752.3999998569489,37,1,360.09999990463257,10,1,experiment,NA,NA,2,0.5,0.5,4,5,73,2,NA
fcp-trial,107,528897,0.0-82.0-0.0,voc_e2,12218,"[{""event"":""fullscreenenter"",""trial"":1,""time"":1438}]",NA,NA,NA,NA,NA,2,#741CD8,#D8271C,0,10,0,38,1,784,39,0,758.6000001430511,10,1,experiment,NA,NA,0,0.1,0.9,1,0,74,2,NA
fcp-trial,108,532065,0.0-83.0-0.0,voc_e2,12218,"[{""event"":""fullscreenenter"",""trial"":1,""time"":1438}]",NA,NA,NA,NA,NA,1,#3386FF,#D89F1C,10,10,0,38,1,624.7999999523163,39,0,1039.2000000476835,10,1,experiment,NA,NA,1,0.3,0.7,3,2,75,2,NA
fcp-trial,109,534873,0.0-84.0-0.0,voc_e2,12218,"[{""event"":""fullscreenenter"",""trial"":1,""time"":1438}]",NA,NA,NA,NA,NA,0,#3386FF,#D89F1C,0,10,0,38,1,945.6999998092651,39,0,359.09999990463257,10,1,experiment,NA,NA,1,0.3,0.7,3,2,76,2,NA
fcp-trial,110,537977,0.0-85.0-0.0,voc_e2,12218,"[{""event"":""fullscreenenter"",""trial"":1,""time"":1438}]",NA,NA,NA,NA,NA,6,#741CD8,#D8271C,0,10,0,38,1,601.3999998569489,39,0,998.4000000953674,10,1,experiment,NA,NA,0,0.1,0.9,1,0,77,2,NA
fcp-trial,111,540681,0.0-86.0-0.0,voc_e2,12218,"[{""event"":""fullscreenenter"",""trial"":1,""time"":1438}]",NA,NA,NA,NA,NA,1,#1CD855,#FA92F8,0,10,1,38,1,872.9000000953674,37,1,326.7999999523163,0,1,experiment,NA,NA,2,0.5,0.5,4,5,78,2,NA
fcp-trial,112,543881,0.0-87.0-0.0,voc_e2,12218,"[{""event"":""fullscreenenter"",""trial"":1,""time"":1438}]",NA,NA,NA,NA,NA,6,#D89F1C,#3386FF,10,0,1,40,0,1185.3999998569489,37,1,507.7000000476837,10,1,experiment,NA,NA,1,0.7,0.3,2,3,79,2,NA
fcp-trial,113,546560,0.0-88.0-0.0,voc_e2,12218,"[{""event"":""fullscreenenter"",""trial"":1,""time"":1438}]",NA,NA,NA,NA,NA,4,#FA92F8,#1CD855,0,0,0,38,1,730.3000001907349,39,0,446.30000019073486,0,1,experiment,NA,NA,2,0.5,0.5,5,4,80,2,NA
fcp-trial,114,549441,0.0-89.0-0.0,voc_e2,12218,"[{""event"":""fullscreenenter"",""trial"":1,""time"":1438}]",NA,NA,NA,NA,NA,5,#D8271C,#741CD8,10,0,1,40,0,928.8000001907349,37,1,447.7000000476837,10,1,experiment,NA,NA,0,0.9,0.1,0,1,81,2,NA
fcp-trial,115,552241,0.0-90.0-0.0,voc_e2,12218,"[{""event"":""fullscreenenter"",""trial"":1,""time"":1438}]",NA,NA,NA,NA,NA,0,#D8271C,#741CD8,10,0,1,38,1,961.4000000953674,37,1,329.09999990463257,10,1,experiment,NA,NA,0,0.9,0.1,0,1,82,2,NA
fcp-trial,116,555554,0.0-91.0-0.0,voc_e2,12218,"[{""event"":""fullscreenenter"",""trial"":1,""time"":1438}]",NA,NA,NA,NA,NA,6,#FA92F8,#1CD855,10,0,0,40,0,1177.3999998569489,37,1,631.0999999046326,10,0,experiment,NA,NA,2,0.5,0.5,5,4,83,2,NA
fcp-trial,117,558521,0.0-92.0-0.0,voc_e2,12218,"[{""event"":""fullscreenenter"",""trial"":1,""time"":1438}]",NA,NA,NA,NA,NA,4,#D89F1C,#3386FF,10,0,1,40,0,978.0999999046326,37,1,485.5,10,1,experiment,NA,NA,1,0.7,0.3,2,3,84,2,NA
fcp-trial,118,561482,0.0-93.0-0.0,voc_e2,12218,"[{""event"":""fullscreenenter"",""trial"":1,""time"":1438}]",NA,NA,NA,NA,NA,0,#741CD8,#D8271C,0,10,0,38,1,960.7999999523163,39,0,496,10,1,experiment,NA,NA,0,0.1,0.9,1,0,85,2,NA
fcp-trial,119,564306,0.0-94.0-0.0,voc_e2,12218,"[{""event"":""fullscreenenter"",""trial"":1,""time"":1438}]",NA,NA,NA,NA,NA,4,#FA92F8,#1CD855,0,10,0,38,1,824,39,0,495.2999999523163,10,1,experiment,NA,NA,2,0.5,0.5,5,4,86,2,NA
fcp-trial,120,567248,0.0-95.0-0.0,voc_e2,12218,"[{""event"":""fullscreenenter"",""trial"":1,""time"":1438}]",NA,NA,NA,NA,NA,4,#3386FF,#D89F1C,0,10,0,40,0,903.5,37,1,535.4000000953674,0,0,experiment,NA,NA,1,0.3,0.7,3,2,87,2,NA
fcp-trial,121,569945,0.0-96.0-0.0,voc_e2,12218,"[{""event"":""fullscreenenter"",""trial"":1,""time"":1438}]",NA,NA,NA,NA,NA,2,#3386FF,#D89F1C,0,10,0,38,1,818,39,0,375,10,1,experiment,NA,NA,1,0.3,0.7,3,2,88,2,NA
fcp-trial,122,572873,0.0-97.0-0.0,voc_e2,12218,"[{""event"":""fullscreenenter"",""trial"":1,""time"":1438}]",NA,NA,NA,NA,NA,3,#741CD8,#D8271C,0,10,0,38,1,769,39,0,654.7000000476837,10,1,experiment,NA,NA,0,0.1,0.9,1,0,89,2,NA
fcp-trial,123,575890,0.0-98.0-0.0,voc_e2,12218,"[{""event"":""fullscreenenter"",""trial"":1,""time"":1438}]",NA,NA,NA,NA,NA,1,#FA92F8,#1CD855,10,10,0,38,1,1209.5999999046326,39,0,303,10,1,experiment,NA,NA,2,0.5,0.5,5,4,90,2,NA
fcp-trial,124,578721,0.0-99.0-0.0,voc_e2,12218,"[{""event"":""fullscreenenter"",""trial"":1,""time"":1438}]",NA,NA,NA,NA,NA,6,#741CD8,#D8271C,0,10,0,38,1,648.4000000953674,39,0,679.6000001430511,10,1,experiment,NA,NA,0,0.1,0.9,1,0,91,3,NA
fcp-trial,125,581305,0.0-100.0-0.0,voc_e2,12218,"[{""event"":""fullscreenenter"",""trial"":1,""time"":1438}]",NA,NA,NA,NA,NA,0,#1CD855,#FA92F8,0,10,1,38,1,657.2000000476837,37,1,422.5,0,1,experiment,NA,NA,2,0.5,0.5,4,5,92,3,NA
fcp-trial,126,584161,0.0-101.0-0.0,voc_e2,12218,"[{""event"":""fullscreenenter"",""trial"":1,""time"":1438}]",NA,NA,NA,NA,NA,3,#3386FF,#D89F1C,10,10,0,38,1,728.7000000476837,39,0,623.7999999523163,10,1,experiment,NA,NA,1,0.3,0.7,3,2,93,3,NA
fcp-trial,127,587169,0.0-102.0-0.0,voc_e2,12218,"[{""event"":""fullscreenenter"",""trial"":1,""time"":1438}]",NA,NA,NA,NA,NA,0,#3386FF,#D89F1C,0,10,0,38,1,1072.7000000476837,39,0,431.5,10,1,experiment,NA,NA,1,0.3,0.7,3,2,94,3,NA
fcp-trial,128,589634,0.0-103.0-0.0,voc_e2,12218,"[{""event"":""fullscreenenter"",""trial"":1,""time"":1438}]",NA,NA,NA,NA,NA,1,#3386FF,#D89F1C,0,0,0,38,1,617.5,39,0,343.30000019073486,0,1,experiment,NA,NA,1,0.3,0.7,3,2,95,3,NA
fcp-trial,129,592537,0.0-104.0-0.0,voc_e2,12218,"[{""event"":""fullscreenenter"",""trial"":1,""time"":1438}]",NA,NA,NA,NA,NA,2,#741CD8,#D8271C,0,10,0,38,1,720.7999999523163,39,0,679.0999999046326,10,1,experiment,NA,NA,0,0.1,0.9,1,0,96,3,NA
fcp-trial,130,595585,0.0-105.0-0.0,voc_e2,12218,"[{""event"":""fullscreenenter"",""trial"":1,""time"":1438}]",NA,NA,NA,NA,NA,5,#FA92F8,#1CD855,0,10,0,40,0,1129.5,39,0,414.90000009536743,10,1,experiment,NA,NA,2,0.5,0.5,5,4,97,3,NA
fcp-trial,131,598658,0.0-106.0-0.0,voc_e2,12218,"[{""event"":""fullscreenenter"",""trial"":1,""time"":1438}]",NA,NA,NA,NA,NA,5,#D8271C,#741CD8,10,10,1,40,0,1104.6999998092651,37,1,462.40000009536743,10,1,experiment,NA,NA,0,0.9,0.1,0,1,98,3,NA
fcp-trial,132,601714,0.0-107.0-0.0,voc_e2,12218,"[{""event"":""fullscreenenter"",""trial"":1,""time"":1438}]",NA,NA,NA,NA,NA,6,#1CD855,#FA92F8,0,10,1,40,0,1160.5999999046326,37,1,391.80000019073486,0,1,experiment,NA,NA,2,0.5,0.5,4,5,99,3,NA
fcp-trial,133,604554,0.0-108.0-0.0,voc_e2,12218,"[{""event"":""fullscreenenter"",""trial"":1,""time"":1438}]",NA,NA,NA,NA,NA,5,#D89F1C,#3386FF,0,0,1,40,0,887.7999999523163,39,0,447.5,0,0,experiment,NA,NA,1,0.7,0.3,2,3,100,3,NA
fcp-trial,134,607585,0.0-109.0-0.0,voc_e2,12218,"[{""event"":""fullscreenenter"",""trial"":1,""time"":1438}]",NA,NA,NA,NA,NA,1,#741CD8,#D8271C,0,10,0,38,1,1144.5999999046326,39,0,383.7999999523163,10,1,experiment,NA,NA,0,0.1,0.9,1,0,101,3,NA
fcp-trial,135,610009,0.0-110.0-0.0,voc_e2,12218,"[{""event"":""fullscreenenter"",""trial"":1,""time"":1438}]",NA,NA,NA,NA,NA,4,#741CD8,#D8271C,0,10,0,38,1,529.2999999523163,39,0,391.5,10,1,experiment,NA,NA,0,0.1,0.9,1,0,102,3,NA
fcp-trial,136,613312,0.0-111.0-0.0,voc_e2,12218,"[{""event"":""fullscreenenter"",""trial"":1,""time"":1438}]",NA,NA,NA,NA,NA,2,#FA92F8,#1CD855,0,10,0,38,1,1217.2999999523163,39,0,580.2999999523163,10,1,experiment,NA,NA,2,0.5,0.5,5,4,103,3,NA
fcp-trial,137,616145,0.0-112.0-0.0,voc_e2,12218,"[{""event"":""fullscreenenter"",""trial"":1,""time"":1438}]",NA,NA,NA,NA,NA,6,#3386FF,#D89F1C,0,10,0,40,0,913.9000000953674,37,1,414.40000009536743,0,0,experiment,NA,NA,1,0.3,0.7,3,2,104,3,NA
fcp-trial,138,619065,0.0-113.0-0.0,voc_e2,12218,"[{""event"":""fullscreenenter"",""trial"":1,""time"":1438}]",NA,NA,NA,NA,NA,3,#FA92F8,#1CD855,0,10,0,38,1,985.0999999046326,39,0,423.5,10,1,experiment,NA,NA,2,0.5,0.5,5,4,105,3,NA
audio-instructions,139,626070,0.0-114.0,voc_e2,12218,"[{""event"":""fullscreenenter"",""trial"":1,""time"":1438}]",NA,2555.2000000476837,static/audio/pause.wav,NA,0,NA,NA,NA,NA,NA,NA,NA,NA,NA,NA,NA,NA,NA,NA,NA,NA,NA,NA,NA,NA,NA,NA,NA,NA,NA
fcp-trial,140,629418,0.0-115.0-0.0,voc_e2,12218,"[{""event"":""fullscreenenter"",""trial"":1,""time"":1438}]",NA,NA,NA,NA,NA,2,#3386FF,#D89F1C,0,0,0,38,1,1508,39,0,333.2000000476837,0,1,experiment,NA,NA,1,0.3,0.7,3,2,106,3,NA
fcp-trial,141,633410,0.0-116.0-0.0,voc_e2,12218,"[{""event"":""fullscreenenter"",""trial"":1,""time"":1438}]",NA,NA,NA,NA,NA,0,#741CD8,#D8271C,0,10,0,38,1,1792.6999998092651,39,0,692,10,1,experiment,NA,NA,0,0.1,0.9,1,0,107,3,NA
fcp-trial,142,636026,0.0-117.0-0.0,voc_e2,12218,"[{""event"":""fullscreenenter"",""trial"":1,""time"":1438}]",NA,NA,NA,NA,NA,6,#FA92F8,#1CD855,10,10,0,40,0,656.7000000476837,39,0,436.7000000476837,10,1,experiment,NA,NA,2,0.5,0.5,5,4,108,3,NA
fcp-trial,143,639182,0.0-118.0-0.0,voc_e2,12218,"[{""event"":""fullscreenenter"",""trial"":1,""time"":1438}]",NA,NA,NA,NA,NA,4,#1CD855,#FA92F8,0,10,1,40,0,1016.0999999046326,39,0,627.8000001907349,10,0,experiment,NA,NA,2,0.5,0.5,4,5,109,3,NA
fcp-trial,144,642221,0.0-119.0-0.0,voc_e2,12218,"[{""event"":""fullscreenenter"",""trial"":1,""time"":1438}]",NA,NA,NA,NA,NA,3,#D8271C,#741CD8,0,10,1,38,1,933.0999999046326,37,1,589.8999998569489,0,1,experiment,NA,NA,0,0.9,0.1,0,1,110,3,NA
fcp-trial,145,645662,0.0-120.0-0.0,voc_e2,12218,"[{""event"":""fullscreenenter"",""trial"":1,""time"":1438}]",NA,NA,NA,NA,NA,1,#D89F1C,#3386FF,10,0,1,38,1,1221.7999999523163,37,1,709.2000000476837,10,1,experiment,NA,NA,1,0.7,0.3,2,3,111,3,NA
fcp-trial,146,648897,0.0-121.0-0.0,voc_e2,12218,"[{""event"":""fullscreenenter"",""trial"":1,""time"":1438}]",NA,NA,NA,NA,NA,5,#1CD855,#FA92F8,0,10,1,40,0,1276.6999998092651,37,1,452.10000014305115,0,1,experiment,NA,NA,2,0.5,0.5,4,5,112,3,NA
fcp-trial,147,652077,0.0-122.0-0.0,voc_e2,12218,"[{""event"":""fullscreenenter"",""trial"":1,""time"":1438}]",NA,NA,NA,NA,NA,4,#3386FF,#D89F1C,0,10,0,40,0,1152.1000001430511,37,1,517,0,0,experiment,NA,NA,1,0.3,0.7,3,2,113,3,NA
fcp-trial,148,654825,0.0-123.0-0.0,voc_e2,12218,"[{""event"":""fullscreenenter"",""trial"":1,""time"":1438}]",NA,NA,NA,NA,NA,0,#3386FF,#D89F1C,10,10,0,38,1,844.5999999046326,39,0,396.7999999523163,10,1,experiment,NA,NA,1,0.3,0.7,3,2,114,3,NA
fcp-trial,149,657650,0.0-124.0-0.0,voc_e2,12218,"[{""event"":""fullscreenenter"",""trial"":1,""time"":1438}]",NA,NA,NA,NA,NA,2,#D8271C,#741CD8,10,0,1,38,1,616.7000000476837,37,1,702.8000001907349,10,1,experiment,NA,NA,0,0.9,0.1,0,1,115,3,NA
fcp-trial,150,660601,0.0-125.0-0.0,voc_e2,12218,"[{""event"":""fullscreenenter"",""trial"":1,""time"":1438}]",NA,NA,NA,NA,NA,3,#1CD855,#FA92F8,0,0,1,38,1,1104.2000000476837,37,1,342.39999985694885,0,1,experiment,NA,NA,2,0.5,0.5,4,5,116,3,NA
fcp-trial,151,663730,0.0-126.0-0.0,voc_e2,12218,"[{""event"":""fullscreenenter"",""trial"":1,""time"":1438}]",NA,NA,NA,NA,NA,4,#D8271C,#741CD8,10,0,1,40,0,1089.7000000476837,39,0,535.7000000476837,0,0,experiment,NA,NA,0,0.9,0.1,0,1,117,3,NA
fcp-trial,152,667017,0.0-127.0-0.0,voc_e2,12218,"[{""event"":""fullscreenenter"",""trial"":1,""time"":1438}]",NA,NA,NA,NA,NA,5,#3386FF,#D89F1C,0,10,0,40,0,1320.9000000953674,37,1,463,0,0,experiment,NA,NA,1,0.3,0.7,3,2,118,3,NA
fcp-trial,153,669673,0.0-128.0-0.0,voc_e2,12218,"[{""event"":""fullscreenenter"",""trial"":1,""time"":1438}]",NA,NA,NA,NA,NA,0,#FA92F8,#1CD855,10,0,0,38,1,769.2999999523163,39,0,383.09999990463257,0,1,experiment,NA,NA,2,0.5,0.5,5,4,119,3,NA
fcp-trial,154,672385,0.0-129.0-0.0,voc_e2,12218,"[{""event"":""fullscreenenter"",""trial"":1,""time"":1438}]",NA,NA,NA,NA,NA,1,#FA92F8,#1CD855,0,0,0,38,1,865.1999998092651,39,0,343.39999985694885,0,1,experiment,NA,NA,2,0.5,0.5,5,4,120,3,NA
fcp-trial,155,675802,0.0-130.0-0.0,voc_e2,12218,"[{""event"":""fullscreenenter"",""trial"":1,""time"":1438}]",NA,NA,NA,NA,NA,1,#741CD8,#D8271C,0,10,0,38,1,1288.2000000476837,39,0,623.7999999523163,10,1,experiment,NA,NA,0,0.1,0.9,1,0,121,3,NA
fcp-trial,156,678353,0.0-131.0-0.0,voc_e2,12218,"[{""event"":""fullscreenenter"",""trial"":1,""time"":1438}]",NA,NA,NA,NA,NA,5,#741CD8,#D8271C,0,10,0,38,1,656.3999998569489,39,0,389.5,10,1,experiment,NA,NA,0,0.1,0.9,1,0,122,3,NA
fcp-trial,157,681146,0.0-132.0-0.0,voc_e2,12218,"[{""event"":""fullscreenenter"",""trial"":1,""time"":1438}]",NA,NA,NA,NA,NA,3,#3386FF,#D89F1C,10,10,0,38,1,865.6999998092651,39,0,423.5,10,1,experiment,NA,NA,1,0.3,0.7,3,2,123,3,NA
fcp-trial,158,683873,0.0-133.0-0.0,voc_e2,12218,"[{""event"":""fullscreenenter"",""trial"":1,""time"":1438}]",NA,NA,NA,NA,NA,2,#FA92F8,#1CD855,10,10,0,38,1,864.5,39,0,358.5,10,1,experiment,NA,NA,2,0.5,0.5,5,4,124,3,NA
fcp-trial,159,687642,0.0-134.0-0.0,voc_e2,12218,"[{""event"":""fullscreenenter"",""trial"":1,""time"":1438}]",NA,NA,NA,NA,NA,6,#D8271C,#741CD8,10,10,1,40,0,1729.2999999523163,37,1,534.7999999523163,10,1,experiment,NA,NA,0,0.9,0.1,0,1,125,3,NA
fcp-trial,160,690505,0.0-135.0-0.0,voc_e2,12218,"[{""event"":""fullscreenenter"",""trial"":1,""time"":1438}]",NA,NA,NA,NA,NA,6,#3386FF,#D89F1C,0,10,0,40,0,864.4000000953674,39,0,494.2000000476837,10,1,experiment,NA,NA,1,0.3,0.7,3,2,126,3,NA
fcp-trial,161,693249,0.0-136.0-0.0,voc_e2,12218,"[{""event"":""fullscreenenter"",""trial"":1,""time"":1438}]",NA,NA,NA,NA,NA,0,#D8271C,#741CD8,0,0,1,38,1,881,37,1,359.59999990463257,0,1,experiment,NA,NA,0,0.9,0.1,0,1,127,3,NA
fcp-trial,162,696770,0.0-137.0-0.0,voc_e2,12218,"[{""event"":""fullscreenenter"",""trial"":1,""time"":1438}]",NA,NA,NA,NA,NA,4,#D89F1C,#3386FF,10,0,1,40,0,1513.5,39,0,503.5,0,0,experiment,NA,NA,1,0.7,0.3,2,3,128,3,NA
fcp-trial,163,699594,0.0-138.0-0.0,voc_e2,12218,"[{""event"":""fullscreenenter"",""trial"":1,""time"":1438}]",NA,NA,NA,NA,NA,1,#D89F1C,#3386FF,10,0,1,38,1,1056.5,37,1,263.2999999523163,10,1,experiment,NA,NA,1,0.7,0.3,2,3,129,3,NA
fcp-trial,164,702617,0.0-139.0-0.0,voc_e2,12218,"[{""event"":""fullscreenenter"",""trial"":1,""time"":1438}]",NA,NA,NA,NA,NA,3,#1CD855,#FA92F8,10,0,1,38,1,832.0999999046326,37,1,687.7000000476837,10,1,experiment,NA,NA,2,0.5,0.5,4,5,130,3,NA
fcp-trial,165,705585,0.0-140.0-0.0,voc_e2,12218,"[{""event"":""fullscreenenter"",""trial"":1,""time"":1438}]",NA,NA,NA,NA,NA,2,#D89F1C,#3386FF,10,0,1,38,1,1089.7000000476837,37,1,375.10000014305115,10,1,experiment,NA,NA,1,0.7,0.3,2,3,131,3,NA
fcp-trial,166,708682,0.0-141.0-0.0,voc_e2,12218,"[{""event"":""fullscreenenter"",""trial"":1,""time"":1438}]",NA,NA,NA,NA,NA,3,#D8271C,#741CD8,10,0,1,38,1,1040.9000000953674,37,1,550,10,1,experiment,NA,NA,0,0.9,0.1,0,1,132,3,NA
fcp-trial,167,711738,0.0-142.0-0.0,voc_e2,12218,"[{""event"":""fullscreenenter"",""trial"":1,""time"":1438}]",NA,NA,NA,NA,NA,6,#3386FF,#D89F1C,10,10,0,40,0,928.1999998092651,37,1,622.1000001430511,10,0,experiment,NA,NA,1,0.3,0.7,3,2,133,3,NA
fcp-trial,168,714521,0.0-143.0-0.0,voc_e2,12218,"[{""event"":""fullscreenenter"",""trial"":1,""time"":1438}]",NA,NA,NA,NA,NA,6,#FA92F8,#1CD855,10,10,0,40,0,808,39,0,471.60000014305115,10,1,experiment,NA,NA,2,0.5,0.5,5,4,134,3,NA
fcp-trial,169,717689,0.0-144.0-0.0,voc_e2,12218,"[{""event"":""fullscreenenter"",""trial"":1,""time"":1438}]",NA,NA,NA,NA,NA,2,#D8271C,#741CD8,10,0,1,38,1,1240.8999998569489,37,1,422,10,1,experiment,NA,NA,0,0.9,0.1,0,1,135,3,NA
fcp-trial,170,721113,0.0-145.0-0.0,voc_e2,12218,"[{""event"":""fullscreenenter"",""trial"":1,""time"":1438}]",NA,NA,NA,NA,NA,4,#741CD8,#D8271C,0,10,0,40,0,1281.9000000953674,37,1,639.5999999046326,0,0,experiment,NA,NA,0,0.1,0.9,1,0,136,4,NA
fcp-trial,171,724201,0.0-146.0-0.0,voc_e2,12218,"[{""event"":""fullscreenenter"",""trial"":1,""time"":1438}]",NA,NA,NA,NA,NA,0,#1CD855,#FA92F8,0,0,1,38,1,1009.5,37,1,574.9000000953674,0,1,experiment,NA,NA,2,0.5,0.5,4,5,137,4,NA
fcp-trial,172,727025,0.0-147.0-0.0,voc_e2,12218,"[{""event"":""fullscreenenter"",""trial"":1,""time"":1438}]",NA,NA,NA,NA,NA,5,#3386FF,#D89F1C,0,0,0,40,0,865,37,1,455.2999999523163,0,0,experiment,NA,NA,1,0.3,0.7,3,2,138,4,NA
fcp-trial,173,729928,0.0-148.0-0.0,voc_e2,12218,"[{""event"":""fullscreenenter"",""trial"":1,""time"":1438}]",NA,NA,NA,NA,NA,5,#FA92F8,#1CD855,0,0,0,40,0,865.2999999523163,37,1,534.3000001907349,0,0,experiment,NA,NA,2,0.5,0.5,5,4,139,4,NA
fcp-trial,174,732649,0.0-149.0-0.0,voc_e2,12218,"[{""event"":""fullscreenenter"",""trial"":1,""time"":1438}]",NA,NA,NA,NA,NA,1,#D8271C,#741CD8,10,0,1,38,1,818,37,1,398.5,10,1,experiment,NA,NA,0,0.9,0.1,0,1,140,4,NA
fcp-trial,175,735586,0.0-150.0-0.0,voc_e2,12218,"[{""event"":""fullscreenenter"",""trial"":1,""time"":1438}]",NA,NA,NA,NA,NA,4,#FA92F8,#1CD855,10,0,0,40,0,1049.6999998092651,39,0,383.7999999523163,0,1,experiment,NA,NA,2,0.5,0.5,5,4,141,4,NA
fcp-trial,176,738866,0.0-151.0-0.0,voc_e2,12218,"[{""event"":""fullscreenenter"",""trial"":1,""time"":1438}]",NA,NA,NA,NA,NA,0,#D89F1C,#3386FF,10,0,1,38,1,1263.7000000476837,37,1,512,10,1,experiment,NA,NA,1,0.7,0.3,2,3,142,4,NA
fcp-trial,177,741576,0.0-152.0-0.0,voc_e2,12218,"[{""event"":""fullscreenenter"",""trial"":1,""time"":1438}]",NA,NA,NA,NA,NA,2,#1CD855,#FA92F8,0,0,1,38,1,952.0999999046326,37,1,254.89999985694885,0,1,experiment,NA,NA,2,0.5,0.5,4,5,143,4,NA
fcp-trial,178,745378,0.0-153.0-0.0,voc_e2,12218,"[{""event"":""fullscreenenter"",""trial"":1,""time"":1438}]",NA,NA,NA,NA,NA,6,#741CD8,#D8271C,0,0,0,40,0,1074.2000000476837,37,1,1222.1999998092651,0,0,experiment,NA,NA,0,0.1,0.9,1,0,144,4,NA
fcp-trial,179,748218,0.0-154.0-0.0,voc_e2,12218,"[{""event"":""fullscreenenter"",""trial"":1,""time"":1438}]",NA,NA,NA,NA,NA,5,#741CD8,#D8271C,0,10,0,40,0,840.1000001430511,37,1,494.2000000476837,0,0,experiment,NA,NA,0,0.1,0.9,1,0,145,4,NA
fcp-trial,180,750921,0.0-155.0-0.0,voc_e2,12218,"[{""event"":""fullscreenenter"",""trial"":1,""time"":1438}]",NA,NA,NA,NA,NA,3,#D89F1C,#3386FF,10,10,1,38,1,936.7999999523163,37,1,263.39999985694885,10,1,experiment,NA,NA,1,0.7,0.3,2,3,146,4,NA
fcp-trial,181,754681,0.0-156.0-0.0,voc_e2,12218,"[{""event"":""fullscreenenter"",""trial"":1,""time"":1438}]",NA,NA,NA,NA,NA,1,#1CD855,#FA92F8,10,0,1,38,1,1866.1000001430511,37,1,391.40000009536743,10,1,experiment,NA,NA,2,0.5,0.5,4,5,147,4,NA
fcp-trial,182,757961,0.0-157.0-0.0,voc_e2,12218,"[{""event"":""fullscreenenter"",""trial"":1,""time"":1438}]",NA,NA,NA,NA,NA,4,#D8271C,#741CD8,10,0,1,40,0,1297.7000000476837,39,0,477.2999999523163,0,0,experiment,NA,NA,0,0.9,0.1,0,1,148,4,NA
fcp-trial,183,761105,0.0-158.0-0.0,voc_e2,12218,"[{""event"":""fullscreenenter"",""trial"":1,""time"":1438}]",NA,NA,NA,NA,NA,3,#3386FF,#D89F1C,10,0,0,38,1,1265.3999998569489,39,0,375.09999990463257,0,1,experiment,NA,NA,1,0.3,0.7,3,2,149,4,NA
fcp-trial,184,764001,0.0-159.0-0.0,voc_e2,12218,"[{""event"":""fullscreenenter"",""trial"":1,""time"":1438}]",NA,NA,NA,NA,NA,2,#D8271C,#741CD8,10,0,1,38,1,1024.2999999523163,37,1,367.59999990463257,10,1,experiment,NA,NA,0,0.9,0.1,0,1,150,4,NA
fcp-trial,185,766913,0.0-160.0-0.0,voc_e2,12218,"[{""event"":""fullscreenenter"",""trial"":1,""time"":1438}]",NA,NA,NA,NA,NA,3,#741CD8,#D8271C,0,0,0,38,1,1065.3999998569489,39,0,339.7999999523163,0,1,experiment,NA,NA,0,0.1,0.9,1,0,151,4,NA
fcp-trial,186,769769,0.0-161.0-0.0,voc_e2,12218,"[{""event"":""fullscreenenter"",""trial"":1,""time"":1438}]",NA,NA,NA,NA,NA,6,#741CD8,#D8271C,0,10,0,40,0,913.2000000476837,37,1,439.2000000476837,0,0,experiment,NA,NA,0,0.1,0.9,1,0,152,4,NA
fcp-trial,187,772929,0.0-162.0-0.0,voc_e2,12218,"[{""event"":""fullscreenenter"",""trial"":1,""time"":1438}]",NA,NA,NA,NA,NA,6,#D89F1C,#3386FF,0,10,1,40,0,992.5999999046326,39,0,663.5999999046326,10,0,experiment,NA,NA,1,0.7,0.3,2,3,153,4,NA
fcp-trial,188,775625,0.0-163.0-0.0,voc_e2,12218,"[{""event"":""fullscreenenter"",""trial"":1,""time"":1438}]",NA,NA,NA,NA,NA,5,#1CD855,#FA92F8,0,10,1,40,0,817.2999999523163,37,1,375.59999990463257,0,1,experiment,NA,NA,2,0.5,0.5,4,5,154,4,NA
fcp-trial,189,778338,0.0-164.0-0.0,voc_e2,12218,"[{""event"":""fullscreenenter"",""trial"":1,""time"":1438}]",NA,NA,NA,NA,NA,6,#1CD855,#FA92F8,0,10,1,40,0,729.2999999523163,39,0,479.2000000476837,10,0,experiment,NA,NA,2,0.5,0.5,4,5,155,4,NA
fcp-trial,190,781185,0.0-165.0-0.0,voc_e2,12218,"[{""event"":""fullscreenenter"",""trial"":1,""time"":1438}]",NA,NA,NA,NA,NA,4,#1CD855,#FA92F8,0,0,1,40,0,824.0999999046326,39,0,518.9000000953674,0,0,experiment,NA,NA,2,0.5,0.5,4,5,156,4,NA
fcp-trial,191,784313,0.0-166.0-0.0,voc_e2,12218,"[{""event"":""fullscreenenter"",""trial"":1,""time"":1438}]",NA,NA,NA,NA,NA,0,#D8271C,#741CD8,10,0,1,38,1,1233.5,37,1,390.59999990463257,10,1,experiment,NA,NA,0,0.9,0.1,0,1,157,4,NA
fcp-trial,192,787169,0.0-167.0-0.0,voc_e2,12218,"[{""event"":""fullscreenenter"",""trial"":1,""time"":1438}]",NA,NA,NA,NA,NA,2,#3386FF,#D89F1C,10,10,0,38,1,897.0999999046326,39,0,454.90000009536743,10,1,experiment,NA,NA,1,0.3,0.7,3,2,158,4,NA
fcp-trial,193,790193,0.0-168.0-0.0,voc_e2,12218,"[{""event"":""fullscreenenter"",""trial"":1,""time"":1438}]",NA,NA,NA,NA,NA,1,#3386FF,#D89F1C,10,0,0,38,1,1097.3999998569489,39,0,417,0,1,experiment,NA,NA,1,0.3,0.7,3,2,159,4,NA
fcp-trial,194,793203,0.0-169.0-0.0,voc_e2,12218,"[{""event"":""fullscreenenter"",""trial"":1,""time"":1438}]",NA,NA,NA,NA,NA,1,#FA92F8,#1CD855,0,10,0,38,1,969.5,39,0,535.3999998569489,10,1,experiment,NA,NA,2,0.5,0.5,5,4,160,4,NA
fcp-trial,195,796288,0.0-170.0-0.0,voc_e2,12218,"[{""event"":""fullscreenenter"",""trial"":1,""time"":1438}]",NA,NA,NA,NA,NA,5,#741CD8,#D8271C,0,10,0,40,0,1119.7000000476837,37,1,463.10000014305115,0,0,experiment,NA,NA,0,0.1,0.9,1,0,161,4,NA
fcp-trial,196,798977,0.0-171.0-0.0,voc_e2,12218,"[{""event"":""fullscreenenter"",""trial"":1,""time"":1438}]",NA,NA,NA,NA,NA,0,#D89F1C,#3386FF,10,10,1,38,1,833.7999999523163,37,1,351.09999990463257,10,1,experiment,NA,NA,1,0.7,0.3,2,3,162,4,NA
fcp-trial,197,802161,0.0-172.0-0.0,voc_e2,12218,"[{""event"":""fullscreenenter"",""trial"":1,""time"":1438}]",NA,NA,NA,NA,NA,3,#FA92F8,#1CD855,10,10,0,38,1,1161.7999999523163,39,0,518.2000000476837,10,1,experiment,NA,NA,2,0.5,0.5,5,4,163,4,NA
fcp-trial,198,804890,0.0-173.0-0.0,voc_e2,12218,"[{""event"":""fullscreenenter"",""trial"":1,""time"":1438}]",NA,NA,NA,NA,NA,2,#FA92F8,#1CD855,0,0,0,38,1,737.2999999523163,39,0,486.90000009536743,0,1,experiment,NA,NA,2,0.5,0.5,5,4,164,4,NA
fcp-trial,199,807441,0.0-174.0-0.0,voc_e2,12218,"[{""event"":""fullscreenenter"",""trial"":1,""time"":1438}]",NA,NA,NA,NA,NA,1,#D8271C,#741CD8,10,0,1,38,1,632.3999998569489,37,1,415.10000014305115,10,1,experiment,NA,NA,0,0.9,0.1,0,1,165,4,NA
fcp-trial,200,810386,0.0-175.0-0.0,voc_e2,12218,"[{""event"":""fullscreenenter"",""trial"":1,""time"":1438}]",NA,NA,NA,NA,NA,5,#D89F1C,#3386FF,10,0,1,40,0,977.2999999523163,39,0,463.59999990463257,0,0,experiment,NA,NA,1,0.7,0.3,2,3,166,4,NA
fcp-trial,201,813057,0.0-176.0-0.0,voc_e2,12218,"[{""event"":""fullscreenenter"",""trial"":1,""time"":1438}]",NA,NA,NA,NA,NA,0,#1CD855,#FA92F8,0,0,1,38,1,776.5,37,1,391.2999999523163,0,1,experiment,NA,NA,2,0.5,0.5,4,5,167,4,NA
fcp-trial,202,816105,0.0-177.0-0.0,voc_e2,12218,"[{""event"":""fullscreenenter"",""trial"":1,""time"":1438}]",NA,NA,NA,NA,NA,4,#3386FF,#D89F1C,0,10,0,40,0,993.2999999523163,37,1,550.8000001907349,0,0,experiment,NA,NA,1,0.3,0.7,3,2,168,4,NA
fcp-trial,203,818961,0.0-178.0-0.0,voc_e2,12218,"[{""event"":""fullscreenenter"",""trial"":1,""time"":1438}]",NA,NA,NA,NA,NA,1,#D89F1C,#3386FF,10,0,1,38,1,817.0999999046326,37,1,534.3000001907349,10,1,experiment,NA,NA,1,0.7,0.3,2,3,169,4,NA
fcp-trial,204,821941,0.0-179.0-0.0,voc_e2,12218,"[{""event"":""fullscreenenter"",""trial"":1,""time"":1438}]",NA,NA,NA,NA,NA,4,#D8271C,#741CD8,10,0,1,40,0,969.2999999523163,39,0,506.59999990463257,0,0,experiment,NA,NA,0,0.9,0.1,0,1,170,4,NA
fcp-trial,205,824762,0.0-180.0-0.0,voc_e2,12218,"[{""event"":""fullscreenenter"",""trial"":1,""time"":1438}]",NA,NA,NA,NA,NA,0,#3386FF,#D89F1C,0,10,0,38,1,757.2000000476837,39,0,558.4000000953674,10,1,experiment,NA,NA,1,0.3,0.7,3,2,171,4,NA
fcp-trial,206,827290,0.0-181.0-0.0,voc_e2,12218,"[{""event"":""fullscreenenter"",""trial"":1,""time"":1438}]",NA,NA,NA,NA,NA,5,#D89F1C,#3386FF,0,10,1,38,1,664.2000000476837,37,1,359.59999990463257,0,1,experiment,NA,NA,1,0.7,0.3,2,3,172,4,NA
fcp-trial,207,830329,0.0-182.0-0.0,voc_e2,12218,"[{""event"":""fullscreenenter"",""trial"":1,""time"":1438}]",NA,NA,NA,NA,NA,6,#1CD855,#FA92F8,0,10,1,40,0,1032.5,39,0,503.5,10,0,experiment,NA,NA,2,0.5,0.5,4,5,173,4,NA
fcp-trial,208,834338,0.0-183.0-0.0,voc_e2,12218,"[{""event"":""fullscreenenter"",""trial"":1,""time"":1438}]",NA,NA,NA,NA,NA,0,#D8271C,#741CD8,10,0,1,38,1,2017.1999998092651,37,1,487.7999999523163,10,1,experiment,NA,NA,0,0.9,0.1,0,1,174,4,NA
fcp-trial,209,837034,0.0-184.0-0.0,voc_e2,12218,"[{""event"":""fullscreenenter"",""trial"":1,""time"":1438}]",NA,NA,NA,NA,NA,3,#D8271C,#741CD8,10,0,1,38,1,864.7999999523163,37,1,327.2000000476837,10,1,experiment,NA,NA,0,0.9,0.1,0,1,175,4,NA
fcp-trial,210,840418,0.0-185.0-0.0,voc_e2,12218,"[{""event"":""fullscreenenter"",""trial"":1,""time"":1438}]",NA,NA,NA,NA,NA,3,#1CD855,#FA92F8,0,10,1,40,0,1456.7000000476837,37,1,422.5,0,1,experiment,NA,NA,2,0.5,0.5,4,5,176,4,NA
fcp-trial,211,843178,0.0-186.0-0.0,voc_e2,12218,"[{""event"":""fullscreenenter"",""trial"":1,""time"":1438}]",NA,NA,NA,NA,NA,6,#D89F1C,#3386FF,10,0,1,40,0,832.7999999523163,37,1,423.2999999523163,10,1,experiment,NA,NA,1,0.7,0.3,2,3,177,4,NA
fcp-trial,212,846026,0.0-187.0-0.0,voc_e2,12218,"[{""event"":""fullscreenenter"",""trial"":1,""time"":1438}]",NA,NA,NA,NA,NA,2,#FA92F8,#1CD855,10,0,0,38,1,919.0999999046326,39,0,423.10000014305115,0,1,experiment,NA,NA,2,0.5,0.5,5,4,178,4,NA
fcp-trial,213,849498,0.0-188.0-0.0,voc_e2,12218,"[{""event"":""fullscreenenter"",""trial"":1,""time"":1438}]",NA,NA,NA,NA,NA,4,#FA92F8,#1CD855,10,0,0,40,0,1104.4000000953674,37,1,863.4000000953674,10,0,experiment,NA,NA,2,0.5,0.5,5,4,179,4,NA
fcp-trial,214,852408,0.0-189.0-0.0,voc_e2,12218,"[{""event"":""fullscreenenter"",""trial"":1,""time"":1438}]",NA,NA,NA,NA,NA,5,#D8271C,#741CD8,10,0,1,40,0,904.0999999046326,39,0,503.09999990463257,0,0,experiment,NA,NA,0,0.9,0.1,0,1,180,4,NA
fcp-trial,215,855450,0.0-190.0-0.0,voc_e2,12218,"[{""event"":""fullscreenenter"",""trial"":1,""time"":1438}]",NA,NA,NA,NA,NA,2,#3386FF,#D89F1C,0,10,0,38,1,889.1000001430511,39,0,647.2999999523163,10,1,experiment,NA,NA,1,0.3,0.7,3,2,181,5,NA
fcp-trial,216,858185,0.0-191.0-0.0,voc_e2,12218,"[{""event"":""fullscreenenter"",""trial"":1,""time"":1438}]",NA,NA,NA,NA,NA,6,#D8271C,#741CD8,10,10,1,40,0,768.4000000953674,39,0,463.19999980926514,10,0,experiment,NA,NA,0,0.9,0.1,0,1,182,5,NA
fcp-trial,217,861033,0.0-192.0-0.0,voc_e2,12218,"[{""event"":""fullscreenenter"",""trial"":1,""time"":1438}]",NA,NA,NA,NA,NA,3,#3386FF,#D89F1C,0,0,0,38,1,866.2000000476837,39,0,478.30000019073486,0,1,experiment,NA,NA,1,0.3,0.7,3,2,183,5,NA
fcp-trial,218,863738,0.0-193.0-0.0,voc_e2,12218,"[{""event"":""fullscreenenter"",""trial"":1,""time"":1438}]",NA,NA,NA,NA,NA,0,#1CD855,#FA92F8,0,0,1,38,1,753.5,37,1,447.2000000476837,0,1,experiment,NA,NA,2,0.5,0.5,4,5,184,5,NA
fcp-trial,219,866689,0.0-194.0-0.0,voc_e2,12218,"[{""event"":""fullscreenenter"",""trial"":1,""time"":1438}]",NA,NA,NA,NA,NA,2,#741CD8,#D8271C,0,10,0,38,1,855.2000000476837,39,0,591.8000001907349,10,1,experiment,NA,NA,0,0.1,0.9,1,0,185,5,NA
fcp-trial,220,869553,0.0-195.0-0.0,voc_e2,12218,"[{""event"":""fullscreenenter"",""trial"":1,""time"":1438}]",NA,NA,NA,NA,NA,4,#D89F1C,#3386FF,10,10,1,40,0,905,39,0,455.30000019073486,10,0,experiment,NA,NA,1,0.7,0.3,2,3,186,5,NA
fcp-trial,221,872898,0.0-196.0-0.0,voc_e2,12218,"[{""event"":""fullscreenenter"",""trial"":1,""time"":1438}]",NA,NA,NA,NA,NA,1,#FA92F8,#1CD855,0,10,0,38,1,769.3999998569489,39,0,1070.5,10,1,experiment,NA,NA,2,0.5,0.5,5,4,187,5,NA
fcp-trial,222,875689,0.0-197.0-0.0,voc_e2,12218,"[{""event"":""fullscreenenter"",""trial"":1,""time"":1438}]",NA,NA,NA,NA,NA,5,#FA92F8,#1CD855,0,10,0,40,0,848.3000001907349,39,0,439.39999985694885,10,1,experiment,NA,NA,2,0.5,0.5,5,4,188,5,NA
fcp-trial,223,878521,0.0-198.0-0.0,voc_e2,12218,"[{""event"":""fullscreenenter"",""trial"":1,""time"":1438}]",NA,NA,NA,NA,NA,1,#741CD8,#D8271C,0,0,0,38,1,969.7000000476837,39,0,359.5,0,1,experiment,NA,NA,0,0.1,0.9,1,0,189,5,NA
fcp-trial,224,881257,0.0-199.0-0.0,voc_e2,12218,"[{""event"":""fullscreenenter"",""trial"":1,""time"":1438}]",NA,NA,NA,NA,NA,5,#D89F1C,#3386FF,10,0,1,38,1,737.0999999046326,39,0,495.10000014305115,0,0,experiment,NA,NA,1,0.7,0.3,2,3,190,5,NA
fcp-trial,225,884122,0.0-200.0-0.0,voc_e2,12218,"[{""event"":""fullscreenenter"",""trial"":1,""time"":1438}]",NA,NA,NA,NA,NA,4,#741CD8,#D8271C,0,10,0,38,1,993.5999999046326,39,0,367.7999999523163,10,1,experiment,NA,NA,0,0.1,0.9,1,0,191,5,NA
fcp-trial,226,887234,0.0-201.0-0.0,voc_e2,12218,"[{""event"":""fullscreenenter"",""trial"":1,""time"":1438}]",NA,NA,NA,NA,NA,2,#D89F1C,#3386FF,10,0,1,38,1,1104.2000000476837,37,1,500.7999999523163,10,1,experiment,NA,NA,1,0.7,0.3,2,3,192,5,NA
fcp-trial,227,890090,0.0-202.0-0.0,voc_e2,12218,"[{""event"":""fullscreenenter"",""trial"":1,""time"":1438}]",NA,NA,NA,NA,NA,2,#1CD855,#FA92F8,0,10,1,38,1,944.7999999523163,37,1,407.40000009536743,0,1,experiment,NA,NA,2,0.5,0.5,4,5,193,5,NA
fcp-trial,228,893065,0.0-203.0-0.0,voc_e2,12218,"[{""event"":""fullscreenenter"",""trial"":1,""time"":1438}]",NA,NA,NA,NA,NA,5,#FA92F8,#1CD855,10,10,0,40,0,912.2999999523163,37,1,558.2000000476837,10,0,experiment,NA,NA,2,0.5,0.5,5,4,194,5,NA
fcp-trial,229,896043,0.0-204.0-0.0,voc_e2,12218,"[{""event"":""fullscreenenter"",""trial"":1,""time"":1438}]",NA,NA,NA,NA,NA,6,#D8271C,#741CD8,10,0,1,40,0,1097,37,1,375.10000014305115,10,1,experiment,NA,NA,0,0.9,0.1,0,1,195,5,NA
fcp-trial,230,898793,0.0-205.0-0.0,voc_e2,12218,"[{""event"":""fullscreenenter"",""trial"":1,""time"":1438}]",NA,NA,NA,NA,NA,0,#D89F1C,#3386FF,10,0,1,38,1,911,37,1,334.7999999523163,10,1,experiment,NA,NA,1,0.7,0.3,2,3,196,5,NA
fcp-trial,231,901570,0.0-206.0-0.0,voc_e2,12218,"[{""event"":""fullscreenenter"",""trial"":1,""time"":1438}]",NA,NA,NA,NA,NA,1,#FA92F8,#1CD855,10,10,0,38,1,872.6000001430511,39,0,398.09999990463257,10,1,experiment,NA,NA,2,0.5,0.5,5,4,197,5,NA
fcp-trial,232,904434,0.0-207.0-0.0,voc_e2,12218,"[{""event"":""fullscreenenter"",""trial"":1,""time"":1438}]",NA,NA,NA,NA,NA,6,#D89F1C,#3386FF,10,10,1,40,0,872.3999998569489,39,0,487.2000000476837,10,0,experiment,NA,NA,1,0.7,0.3,2,3,198,5,NA
fcp-trial,233,907136,0.0-208.0-0.0,voc_e2,12218,"[{""event"":""fullscreenenter"",""trial"":1,""time"":1438}]",NA,NA,NA,NA,NA,2,#741CD8,#D8271C,0,10,0,38,1,817.7999999523163,39,0,381.30000019073486,10,1,experiment,NA,NA,0,0.1,0.9,1,0,199,5,NA
fcp-trial,234,910465,0.0-209.0-0.0,voc_e2,12218,"[{""event"":""fullscreenenter"",""trial"":1,""time"":1438}]",NA,NA,NA,NA,NA,6,#FA92F8,#1CD855,10,0,0,40,0,857.7999999523163,37,1,966.5999999046326,10,0,experiment,NA,NA,2,0.5,0.5,5,4,200,5,NA
fcp-trial,235,913353,0.0-210.0-0.0,voc_e2,12218,"[{""event"":""fullscreenenter"",""trial"":1,""time"":1438}]",NA,NA,NA,NA,NA,5,#741CD8,#D8271C,0,10,0,40,0,945.4000000953674,39,0,439.5,10,1,experiment,NA,NA,0,0.1,0.9,1,0,201,5,NA
fcp-trial,236,916408,0.0-211.0-0.0,voc_e2,12218,"[{""event"":""fullscreenenter"",""trial"":1,""time"":1438}]",NA,NA,NA,NA,NA,0,#FA92F8,#1CD855,10,10,0,38,1,969.5,39,0,582.4000000953674,10,1,experiment,NA,NA,2,0.5,0.5,5,4,202,5,NA
fcp-trial,237,919201,0.0-212.0-0.0,voc_e2,12218,"[{""event"":""fullscreenenter"",""trial"":1,""time"":1438}]",NA,NA,NA,NA,NA,4,#D89F1C,#3386FF,0,0,1,40,0,777.7000000476837,39,0,511.7000000476837,0,0,experiment,NA,NA,1,0.7,0.3,2,3,203,5,NA
fcp-trial,238,921961,0.0-213.0-0.0,voc_e2,12218,"[{""event"":""fullscreenenter"",""trial"":1,""time"":1438}]",NA,NA,NA,NA,NA,3,#1CD855,#FA92F8,10,10,1,38,1,784.7000000476837,37,1,471.7999999523163,10,1,experiment,NA,NA,2,0.5,0.5,4,5,204,5,NA
fcp-trial,239,924794,0.0-214.0-0.0,voc_e2,12218,"[{""event"":""fullscreenenter"",""trial"":1,""time"":1438}]",NA,NA,NA,NA,NA,1,#741CD8,#D8271C,0,10,0,38,1,841.3000001907349,39,0,487.39999985694885,10,1,experiment,NA,NA,0,0.1,0.9,1,0,205,5,NA
fcp-trial,240,927738,0.0-215.0-0.0,voc_e2,12218,"[{""event"":""fullscreenenter"",""trial"":1,""time"":1438}]",NA,NA,NA,NA,NA,4,#FA92F8,#1CD855,0,0,0,40,0,745.2999999523163,37,1,695.6000001430511,0,0,experiment,NA,NA,2,0.5,0.5,5,4,206,5,NA
fcp-trial,241,930753,0.0-216.0-0.0,voc_e2,12218,"[{""event"":""fullscreenenter"",""trial"":1,""time"":1438}]",NA,NA,NA,NA,NA,3,#D89F1C,#3386FF,10,10,1,38,1,769.3999998569489,37,1,742.9000000953674,10,1,experiment,NA,NA,1,0.7,0.3,2,3,207,5,NA
fcp-trial,242,933882,0.0-217.0-0.0,voc_e2,12218,"[{""event"":""fullscreenenter"",""trial"":1,""time"":1438}]",NA,NA,NA,NA,NA,0,#D8271C,#741CD8,10,0,1,40,0,865.5,37,1,759.2000000476837,10,1,experiment,NA,NA,0,0.9,0.1,0,1,208,5,NA
fcp-trial,243,937842,0.0-218.0-0.0,voc_e2,12218,"[{""event"":""fullscreenenter"",""trial"":1,""time"":1438}]",NA,NA,NA,NA,NA,1,#D89F1C,#3386FF,10,0,1,38,1,1288.4000000953674,37,1,1159.2999999523165,10,1,experiment,NA,NA,1,0.7,0.3,2,3,209,5,NA
fcp-trial,244,940913,0.0-219.0-0.0,voc_e2,12218,"[{""event"":""fullscreenenter"",""trial"":1,""time"":1438}]",NA,NA,NA,NA,NA,3,#D8271C,#741CD8,10,0,1,40,0,953.2999999523163,39,0,615.4000000953674,0,0,experiment,NA,NA,0,0.9,0.1,0,1,210,5,NA
audio-instructions,245,964718,0.0-220.0,voc_e2,12218,"[{""event"":""fullscreenenter"",""trial"":1,""time"":1438},{""event"":""blur"",""trial"":245,""time"":943752},{""event"":""focus"",""trial"":245,""time"":963683}]",NA,19363.400000095367,static/audio/pause.wav,NA,0,NA,NA,NA,NA,NA,NA,NA,NA,NA,NA,NA,NA,NA,NA,NA,NA,NA,NA,NA,NA,NA,NA,NA,NA,NA
fcp-trial,246,968766,0.0-221.0-0.0,voc_e2,12218,"[{""event"":""fullscreenenter"",""trial"":1,""time"":1438},{""event"":""blur"",""trial"":245,""time"":943752},{""event"":""focus"",""trial"":245,""time"":963683}]",NA,NA,NA,NA,NA,3,#1CD855,#FA92F8,10,0,1,40,0,2075.7999999523163,39,0,460.09999990463257,0,0,experiment,NA,NA,2,0.5,0.5,4,5,211,5,NA
fcp-trial,247,971618,0.0-222.0-0.0,voc_e2,12218,"[{""event"":""fullscreenenter"",""trial"":1,""time"":1438},{""event"":""blur"",""trial"":245,""time"":943752},{""event"":""focus"",""trial"":245,""time"":963683}]",NA,NA,NA,NA,NA,4,#D8271C,#741CD8,10,10,1,40,0,917.2999999523163,37,1,423.30000019073486,10,1,experiment,NA,NA,0,0.9,0.1,0,1,212,5,NA
fcp-trial,248,974279,0.0-223.0-0.0,voc_e2,12218,"[{""event"":""fullscreenenter"",""trial"":1,""time"":1438},{""event"":""blur"",""trial"":245,""time"":943752},{""event"":""focus"",""trial"":245,""time"":963683}]",NA,NA,NA,NA,NA,5,#FA92F8,#1CD855,0,0,0,40,0,664.4000000953674,37,1,487,0,0,experiment,NA,NA,2,0.5,0.5,5,4,213,5,NA
fcp-trial,249,977257,0.0-224.0-0.0,voc_e2,12218,"[{""event"":""fullscreenenter"",""trial"":1,""time"":1438},{""event"":""blur"",""trial"":245,""time"":943752},{""event"":""focus"",""trial"":245,""time"":963683}]",NA,NA,NA,NA,NA,2,#D8271C,#741CD8,10,0,1,38,1,1028.1999998092651,37,1,446.7999999523163,10,1,experiment,NA,NA,0,0.9,0.1,0,1,214,5,NA
fcp-trial,250,980450,0.0-225.0-0.0,voc_e2,12218,"[{""event"":""fullscreenenter"",""trial"":1,""time"":1438},{""event"":""blur"",""trial"":245,""time"":943752},{""event"":""focus"",""trial"":245,""time"":963683}]",NA,NA,NA,NA,NA,2,#3386FF,#D89F1C,0,0,0,38,1,1233.3999998569489,39,0,455.89999985694885,0,1,experiment,NA,NA,1,0.3,0.7,3,2,215,5,NA
fcp-trial,251,983265,0.0-226.0-0.0,voc_e2,12218,"[{""event"":""fullscreenenter"",""trial"":1,""time"":1438},{""event"":""blur"",""trial"":245,""time"":943752},{""event"":""focus"",""trial"":245,""time"":963683}]",NA,NA,NA,NA,NA,0,#1CD855,#FA92F8,0,10,1,38,1,929.8999998569489,37,1,382.09999990463257,0,1,experiment,NA,NA,2,0.5,0.5,4,5,216,5,NA
fcp-trial,252,985930,0.0-227.0-0.0,voc_e2,12218,"[{""event"":""fullscreenenter"",""trial"":1,""time"":1438},{""event"":""blur"",""trial"":245,""time"":943752},{""event"":""focus"",""trial"":245,""time"":963683}]",NA,NA,NA,NA,NA,6,#741CD8,#D8271C,0,10,0,40,0,785.1999998092651,39,0,374.5,10,1,experiment,NA,NA,0,0.1,0.9,1,0,217,5,NA
fcp-trial,253,988658,0.0-228.0-0.0,voc_e2,12218,"[{""event"":""fullscreenenter"",""trial"":1,""time"":1438},{""event"":""blur"",""trial"":245,""time"":943752},{""event"":""focus"",""trial"":245,""time"":963683}]",NA,NA,NA,NA,NA,1,#D89F1C,#3386FF,10,0,1,38,1,944.5,37,1,279.10000014305115,10,1,experiment,NA,NA,1,0.7,0.3,2,3,218,5,NA
fcp-trial,254,991658,0.0-229.0-0.0,voc_e2,12218,"[{""event"":""fullscreenenter"",""trial"":1,""time"":1438},{""event"":""blur"",""trial"":245,""time"":943752},{""event"":""focus"",""trial"":245,""time"":963683}]",NA,NA,NA,NA,NA,0,#D8271C,#741CD8,10,10,1,38,1,1089.2000000476837,37,1,408.10000014305115,10,1,experiment,NA,NA,0,0.9,0.1,0,1,219,5,NA
fcp-trial,255,994818,0.0-230.0-0.0,voc_e2,12218,"[{""event"":""fullscreenenter"",""trial"":1,""time"":1438},{""event"":""blur"",""trial"":245,""time"":943752},{""event"":""focus"",""trial"":245,""time"":963683}]",NA,NA,NA,NA,NA,3,#D89F1C,#3386FF,0,0,1,40,0,1081.5,39,0,575,0,0,experiment,NA,NA,1,0.7,0.3,2,3,220,5,NA
fcp-trial,256,997586,0.0-231.0-0.0,voc_e2,12218,"[{""event"":""fullscreenenter"",""trial"":1,""time"":1438},{""event"":""blur"",""trial"":245,""time"":943752},{""event"":""focus"",""trial"":245,""time"":963683}]",NA,NA,NA,NA,NA,1,#1CD855,#FA92F8,0,0,1,38,1,857.5,37,1,406.2999999523163,0,1,experiment,NA,NA,2,0.5,0.5,4,5,221,5,NA
fcp-trial,257,1000978,0.0-232.0-0.0,voc_e2,12218,"[{""event"":""fullscreenenter"",""trial"":1,""time"":1438},{""event"":""blur"",""trial"":245,""time"":943752},{""event"":""focus"",""trial"":245,""time"":963683}]",NA,NA,NA,NA,NA,0,#3386FF,#D89F1C,0,10,0,38,1,1537.4000000953674,39,0,351.5,10,1,experiment,NA,NA,1,0.3,0.7,3,2,222,5,NA
fcp-trial,258,1004657,0.0-233.0-0.0,voc_e2,12218,"[{""event"":""fullscreenenter"",""trial"":1,""time"":1438},{""event"":""blur"",""trial"":245,""time"":943752},{""event"":""focus"",""trial"":245,""time"":963683}]",NA,NA,NA,NA,NA,3,#741CD8,#D8271C,0,0,0,38,1,1096.7999999523163,39,0,1078.4000000953674,0,1,experiment,NA,NA,0,0.1,0.9,1,0,223,5,NA
fcp-trial,259,1007874,0.0-234.0-0.0,voc_e2,12218,"[{""event"":""fullscreenenter"",""trial"":1,""time"":1438},{""event"":""blur"",""trial"":245,""time"":943752},{""event"":""focus"",""trial"":245,""time"":963683}]",NA,NA,NA,NA,NA,5,#3386FF,#D89F1C,0,10,0,40,0,785.5,37,1,927.5,0,0,experiment,NA,NA,1,0.3,0.7,3,2,224,5,NA
fcp-trial,260,1010490,0.0-235.0-0.0,voc_e2,12218,"[{""event"":""fullscreenenter"",""trial"":1,""time"":1438},{""event"":""blur"",""trial"":245,""time"":943752},{""event"":""focus"",""trial"":245,""time"":963683}]",NA,NA,NA,NA,NA,2,#FA92F8,#1CD855,0,0,0,38,1,794.2000000476837,39,0,319,0,1,experiment,NA,NA,2,0.5,0.5,5,4,225,5,NA
fcp-trial,261,1013066,0.0-236.0-0.0,voc_e2,12218,"[{""event"":""fullscreenenter"",""trial"":1,""time"":1438},{""event"":""blur"",""trial"":245,""time"":943752},{""event"":""focus"",""trial"":245,""time"":963683}]",NA,NA,NA,NA,NA,5,#741CD8,#D8271C,0,10,0,40,0,672.2999999523163,39,0,398.80000019073486,10,1,experiment,NA,NA,0,0.1,0.9,1,0,226,6,NA
fcp-trial,262,1015771,0.0-237.0-0.0,voc_e2,12218,"[{""event"":""fullscreenenter"",""trial"":1,""time"":1438},{""event"":""blur"",""trial"":245,""time"":943752},{""event"":""focus"",""trial"":245,""time"":963683}]",NA,NA,NA,NA,NA,6,#FA92F8,#1CD855,0,0,0,40,0,760.3999998569489,39,0,439.7000000476837,0,1,experiment,NA,NA,2,0.5,0.5,5,4,227,6,NA
fcp-trial,263,1018682,0.0-238.0-0.0,voc_e2,12218,"[{""event"":""fullscreenenter"",""trial"":1,""time"":1438},{""event"":""blur"",""trial"":245,""time"":943752},{""event"":""focus"",""trial"":245,""time"":963683}]",NA,NA,NA,NA,NA,4,#D89F1C,#3386FF,10,0,1,40,0,823.5999999046326,39,0,583,0,0,experiment,NA,NA,1,0.7,0.3,2,3,228,6,NA
fcp-trial,264,1021481,0.0-239.0-0.0,voc_e2,12218,"[{""event"":""fullscreenenter"",""trial"":1,""time"":1438},{""event"":""blur"",""trial"":245,""time"":943752},{""event"":""focus"",""trial"":245,""time"":963683}]",NA,NA,NA,NA,NA,1,#D8271C,#741CD8,0,0,1,38,1,808.3999998569489,39,0,487.40000009536743,0,0,experiment,NA,NA,0,0.9,0.1,0,1,229,6,NA
fcp-trial,265,1024626,0.0-240.0-0.0,voc_e2,12218,"[{""event"":""fullscreenenter"",""trial"":1,""time"":1438},{""event"":""blur"",""trial"":245,""time"":943752},{""event"":""focus"",""trial"":245,""time"":963683}]",NA,NA,NA,NA,NA,4,#FA92F8,#1CD855,0,0,0,40,0,905.7999999523163,37,1,732.2000000476837,0,0,experiment,NA,NA,2,0.5,0.5,5,4,230,6,NA
fcp-trial,266,1027602,0.0-241.0-0.0,voc_e2,12218,"[{""event"":""fullscreenenter"",""trial"":1,""time"":1438},{""event"":""blur"",""trial"":245,""time"":943752},{""event"":""focus"",""trial"":245,""time"":963683}]",NA,NA,NA,NA,NA,6,#3386FF,#D89F1C,0,0,0,40,0,1017.4000000953674,37,1,454.90000009536743,0,0,experiment,NA,NA,1,0.3,0.7,3,2,231,6,NA
fcp-trial,267,1030706,0.0-242.0-0.0,voc_e2,12218,"[{""event"":""fullscreenenter"",""trial"":1,""time"":1438},{""event"":""blur"",""trial"":245,""time"":943752},{""event"":""focus"",""trial"":245,""time"":963683}]",NA,NA,NA,NA,NA,2,#D89F1C,#3386FF,10,0,1,38,1,1217.5999999046326,37,1,382,10,1,experiment,NA,NA,1,0.7,0.3,2,3,232,6,NA
fcp-trial,268,1033721,0.0-243.0-0.0,voc_e2,12218,"[{""event"":""fullscreenenter"",""trial"":1,""time"":1438},{""event"":""blur"",""trial"":245,""time"":943752},{""event"":""focus"",""trial"":245,""time"":963683}]",NA,NA,NA,NA,NA,1,#1CD855,#FA92F8,0,0,1,38,1,1136.8999998569489,37,1,374.5,0,1,experiment,NA,NA,2,0.5,0.5,4,5,233,6,NA
fcp-trial,269,1037105,0.0-244.0-0.0,voc_e2,12218,"[{""event"":""fullscreenenter"",""trial"":1,""time"":1438},{""event"":""blur"",""trial"":245,""time"":943752},{""event"":""focus"",""trial"":245,""time"":963683}]",NA,NA,NA,NA,NA,2,#FA92F8,#1CD855,0,10,0,38,1,1097.7000000476837,39,0,783,10,1,experiment,NA,NA,2,0.5,0.5,5,4,234,6,NA
fcp-trial,270,1039802,0.0-245.0-0.0,voc_e2,12218,"[{""event"":""fullscreenenter"",""trial"":1,""time"":1438},{""event"":""blur"",""trial"":245,""time"":943752},{""event"":""focus"",""trial"":245,""time"":963683}]",NA,NA,NA,NA,NA,3,#3386FF,#D89F1C,10,10,0,38,1,809.2999999523163,39,0,382.7999999523163,10,1,experiment,NA,NA,1,0.3,0.7,3,2,235,6,NA
fcp-trial,271,1042746,0.0-246.0-0.0,voc_e2,12218,"[{""event"":""fullscreenenter"",""trial"":1,""time"":1438},{""event"":""blur"",""trial"":245,""time"":943752},{""event"":""focus"",""trial"":245,""time"":963683}]",NA,NA,NA,NA,NA,6,#741CD8,#D8271C,0,10,0,40,0,921,37,1,519.5,0,0,experiment,NA,NA,0,0.1,0.9,1,0,236,6,NA
fcp-trial,272,1045667,0.0-247.0-0.0,voc_e2,12218,"[{""event"":""fullscreenenter"",""trial"":1,""time"":1438},{""event"":""blur"",""trial"":245,""time"":943752},{""event"":""focus"",""trial"":245,""time"":963683}]",NA,NA,NA,NA,NA,6,#1CD855,#FA92F8,10,0,1,40,0,1041.5,37,1,374.7000000476837,10,1,experiment,NA,NA,2,0.5,0.5,4,5,237,6,NA
fcp-trial,273,1048433,0.0-248.0-0.0,voc_e2,12218,"[{""event"":""fullscreenenter"",""trial"":1,""time"":1438},{""event"":""blur"",""trial"":245,""time"":943752},{""event"":""focus"",""trial"":245,""time"":963683}]",NA,NA,NA,NA,NA,4,#D8271C,#741CD8,10,0,1,40,0,864.5,37,1,398.7000000476837,10,1,experiment,NA,NA,0,0.9,0.1,0,1,238,6,NA
fcp-trial,274,1051570,0.0-249.0-0.0,voc_e2,12218,"[{""event"":""fullscreenenter"",""trial"":1,""time"":1438},{""event"":""blur"",""trial"":245,""time"":943752},{""event"":""focus"",""trial"":245,""time"":963683}]",NA,NA,NA,NA,NA,5,#3386FF,#D89F1C,0,0,0,40,0,754,37,1,879.2000000476837,0,0,experiment,NA,NA,1,0.3,0.7,3,2,239,6,NA
fcp-trial,275,1054788,0.0-250.0-0.0,voc_e2,12218,"[{""event"":""fullscreenenter"",""trial"":1,""time"":1438},{""event"":""blur"",""trial"":245,""time"":943752},{""event"":""focus"",""trial"":245,""time"":963683}]",NA,NA,NA,NA,NA,3,#FA92F8,#1CD855,10,0,0,38,1,1176.5,39,0,536.8999998569489,0,1,experiment,NA,NA,2,0.5,0.5,5,4,240,6,NA
fcp-trial,276,1057690,0.0-251.0-0.0,voc_e2,12218,"[{""event"":""fullscreenenter"",""trial"":1,""time"":1438},{""event"":""blur"",""trial"":245,""time"":943752},{""event"":""focus"",""trial"":245,""time"":963683}]",NA,NA,NA,NA,NA,4,#3386FF,#D89F1C,10,10,0,38,1,919.0999999046326,39,0,478.60000014305115,10,1,experiment,NA,NA,1,0.3,0.7,3,2,241,6,NA
fcp-trial,277,1060154,0.0-252.0-0.0,voc_e2,12218,"[{""event"":""fullscreenenter"",""trial"":1,""time"":1438},{""event"":""blur"",""trial"":245,""time"":943752},{""event"":""focus"",""trial"":245,""time"":963683}]",NA,NA,NA,NA,NA,6,#3386FF,#D89F1C,10,10,0,38,1,625.0999999046326,39,0,335.69999980926514,10,1,experiment,NA,NA,1,0.3,0.7,3,2,242,6,NA
fcp-trial,278,1064257,0.0-253.0-0.0,voc_e2,12218,"[{""event"":""fullscreenenter"",""trial"":1,""time"":1438},{""event"":""blur"",""trial"":245,""time"":943752},{""event"":""focus"",""trial"":245,""time"":963683}]",NA,NA,NA,NA,NA,2,#D8271C,#741CD8,10,0,1,38,1,1423.8999998569489,39,0,1174.5,0,0,experiment,NA,NA,0,0.9,0.1,0,1,243,6,NA
fcp-trial,279,1067306,0.0-254.0-0.0,voc_e2,12218,"[{""event"":""fullscreenenter"",""trial"":1,""time"":1438},{""event"":""blur"",""trial"":245,""time"":943752},{""event"":""focus"",""trial"":245,""time"":963683}]",NA,NA,NA,NA,NA,4,#FA92F8,#1CD855,0,0,0,38,1,985.5,39,0,559.6000001430511,0,1,experiment,NA,NA,2,0.5,0.5,5,4,244,6,NA
fcp-trial,280,1070233,0.0-255.0-0.0,voc_e2,12218,"[{""event"":""fullscreenenter"",""trial"":1,""time"":1438},{""event"":""blur"",""trial"":245,""time"":943752},{""event"":""focus"",""trial"":245,""time"":963683}]",NA,NA,NA,NA,NA,1,#D89F1C,#3386FF,10,0,1,38,1,921.5,37,1,503.2000000476837,10,1,experiment,NA,NA,1,0.7,0.3,2,3,245,6,NA
fcp-trial,281,1072977,0.0-256.0-0.0,voc_e2,12218,"[{""event"":""fullscreenenter"",""trial"":1,""time"":1438},{""event"":""blur"",""trial"":245,""time"":943752},{""event"":""focus"",""trial"":245,""time"":963683}]",NA,NA,NA,NA,NA,5,#1CD855,#FA92F8,0,0,1,40,0,825.2999999523163,37,1,415.5,0,1,experiment,NA,NA,2,0.5,0.5,4,5,246,6,NA
fcp-trial,282,1076082,0.0-257.0-0.0,voc_e2,12218,"[{""event"":""fullscreenenter"",""trial"":1,""time"":1438},{""event"":""blur"",""trial"":245,""time"":943752},{""event"":""focus"",""trial"":245,""time"":963683}]",NA,NA,NA,NA,NA,0,#741CD8,#D8271C,0,10,0,38,1,1225.8999998569489,39,0,373.7000000476837,10,1,experiment,NA,NA,0,0.1,0.9,1,0,247,6,NA
fcp-trial,283,1078882,0.0-258.0-0.0,voc_e2,12218,"[{""event"":""fullscreenenter"",""trial"":1,""time"":1438},{""event"":""blur"",""trial"":245,""time"":943752},{""event"":""focus"",""trial"":245,""time"":963683}]",NA,NA,NA,NA,NA,0,#1CD855,#FA92F8,0,10,1,38,1,937.0999999046326,37,1,359.19999980926514,0,1,experiment,NA,NA,2,0.5,0.5,4,5,248,6,NA
fcp-trial,284,1081954,0.0-259.0-0.0,voc_e2,12218,"[{""event"":""fullscreenenter"",""trial"":1,""time"":1438},{""event"":""blur"",""trial"":245,""time"":943752},{""event"":""focus"",""trial"":245,""time"":963683}]",NA,NA,NA,NA,NA,5,#D8271C,#741CD8,10,0,1,40,0,1000.2999999523163,39,0,567.7999999523163,0,0,experiment,NA,NA,0,0.9,0.1,0,1,249,6,NA
fcp-trial,285,1084634,0.0-260.0-0.0,voc_e2,12218,"[{""event"":""fullscreenenter"",""trial"":1,""time"":1438},{""event"":""blur"",""trial"":245,""time"":943752},{""event"":""focus"",""trial"":245,""time"":963683}]",NA,NA,NA,NA,NA,0,#3386FF,#D89F1C,10,10,0,38,1,673.2999999523163,39,0,502.2000000476837,10,1,experiment,NA,NA,1,0.3,0.7,3,2,250,6,NA
fcp-trial,286,1087418,0.0-261.0-0.0,voc_e2,12218,"[{""event"":""fullscreenenter"",""trial"":1,""time"":1438},{""event"":""blur"",""trial"":245,""time"":943752},{""event"":""focus"",""trial"":245,""time"":963683}]",NA,NA,NA,NA,NA,1,#741CD8,#D8271C,0,10,0,38,1,905.1999998092651,39,0,373.89999985694885,10,1,experiment,NA,NA,0,0.1,0.9,1,0,251,6,NA
fcp-trial,287,1090018,0.0-262.0-0.0,voc_e2,12218,"[{""event"":""fullscreenenter"",""trial"":1,""time"":1438},{""event"":""blur"",""trial"":245,""time"":943752},{""event"":""focus"",""trial"":245,""time"":963683}]",NA,NA,NA,NA,NA,3,#741CD8,#D8271C,0,10,0,38,1,689.5,39,0,405.7999999523163,10,1,experiment,NA,NA,0,0.1,0.9,1,0,252,6,NA
fcp-trial,288,1092747,0.0-263.0-0.0,voc_e2,12218,"[{""event"":""fullscreenenter"",""trial"":1,""time"":1438},{""event"":""blur"",""trial"":245,""time"":943752},{""event"":""focus"",""trial"":245,""time"":963683}]",NA,NA,NA,NA,NA,2,#1CD855,#FA92F8,0,10,1,38,1,817.5,39,0,406.5,10,0,experiment,NA,NA,2,0.5,0.5,4,5,253,6,NA
fcp-trial,289,1095690,0.0-264.0-0.0,voc_e2,12218,"[{""event"":""fullscreenenter"",""trial"":1,""time"":1438},{""event"":""blur"",""trial"":245,""time"":943752},{""event"":""focus"",""trial"":245,""time"":963683}]",NA,NA,NA,NA,NA,6,#FA92F8,#1CD855,10,10,0,40,0,976.0999999046326,39,0,463.7999999523163,10,1,experiment,NA,NA,2,0.5,0.5,5,4,254,6,NA
fcp-trial,290,1098706,0.0-265.0-0.0,voc_e2,12218,"[{""event"":""fullscreenenter"",""trial"":1,""time"":1438},{""event"":""blur"",""trial"":245,""time"":943752},{""event"":""focus"",""trial"":245,""time"":963683}]",NA,NA,NA,NA,NA,4,#D8271C,#741CD8,10,0,1,38,1,1073.1999998092651,39,0,439,0,0,experiment,NA,NA,0,0.9,0.1,0,1,255,6,NA
fcp-trial,291,1101442,0.0-266.0-0.0,voc_e2,12218,"[{""event"":""fullscreenenter"",""trial"":1,""time"":1438},{""event"":""blur"",""trial"":245,""time"":943752},{""event"":""focus"",""trial"":245,""time"":963683}]",NA,NA,NA,NA,NA,0,#D89F1C,#3386FF,0,0,1,38,1,784.6000001430511,37,1,446.60000014305115,0,1,experiment,NA,NA,1,0.7,0.3,2,3,256,6,NA
fcp-trial,292,1103873,0.0-267.0-0.0,voc_e2,12218,"[{""event"":""fullscreenenter"",""trial"":1,""time"":1438},{""event"":""blur"",""trial"":245,""time"":943752},{""event"":""focus"",""trial"":245,""time"":963683}]",NA,NA,NA,NA,NA,1,#D89F1C,#3386FF,10,0,1,38,1,601,37,1,326.2999999523163,10,1,experiment,NA,NA,1,0.7,0.3,2,3,257,6,NA
fcp-trial,293,1107224,0.0-268.0-0.0,voc_e2,12218,"[{""event"":""fullscreenenter"",""trial"":1,""time"":1438},{""event"":""blur"",""trial"":245,""time"":943752},{""event"":""focus"",""trial"":245,""time"":963683}]",NA,NA,NA,NA,NA,5,#741CD8,#D8271C,0,10,0,40,0,1144.0999999046326,37,1,703.5,0,0,experiment,NA,NA,0,0.1,0.9,1,0,258,6,NA
fcp-trial,294,1110112,0.0-269.0-0.0,voc_e2,12218,"[{""event"":""fullscreenenter"",""trial"":1,""time"":1438},{""event"":""blur"",""trial"":245,""time"":943752},{""event"":""focus"",""trial"":245,""time"":963683}]",NA,NA,NA,NA,NA,0,#FA92F8,#1CD855,0,0,0,38,1,857.8999998569489,39,0,527.3999998569489,0,1,experiment,NA,NA,2,0.5,0.5,5,4,259,6,NA
fcp-trial,295,1112617,0.0-270.0-0.0,voc_e2,12218,"[{""event"":""fullscreenenter"",""trial"":1,""time"":1438},{""event"":""blur"",""trial"":245,""time"":943752},{""event"":""focus"",""trial"":245,""time"":963683}]",NA,NA,NA,NA,NA,1,#FA92F8,#1CD855,10,0,0,38,1,625.5,39,0,375.90000009536743,0,1,experiment,NA,NA,2,0.5,0.5,5,4,260,6,NA
fcp-trial,296,1115377,0.0-271.0-0.0,voc_e2,12218,"[{""event"":""fullscreenenter"",""trial"":1,""time"":1438},{""event"":""blur"",""trial"":245,""time"":943752},{""event"":""focus"",""trial"":245,""time"":963683}]",NA,NA,NA,NA,NA,1,#D8271C,#741CD8,0,10,1,38,1,793.2000000476837,37,1,463.59999990463257,0,1,experiment,NA,NA,0,0.9,0.1,0,1,261,6,NA
fcp-trial,297,1118249,0.0-272.0-0.0,voc_e2,12218,"[{""event"":""fullscreenenter"",""trial"":1,""time"":1438},{""event"":""blur"",""trial"":245,""time"":943752},{""event"":""focus"",""trial"":245,""time"":963683}]",NA,NA,NA,NA,NA,4,#3386FF,#D89F1C,10,10,0,40,0,880.7000000476837,39,0,487.59999990463257,10,1,experiment,NA,NA,1,0.3,0.7,3,2,262,6,NA
fcp-trial,298,1121337,0.0-273.0-0.0,voc_e2,12218,"[{""event"":""fullscreenenter"",""trial"":1,""time"":1438},{""event"":""blur"",""trial"":245,""time"":943752},{""event"":""focus"",""trial"":245,""time"":963683}]",NA,NA,NA,NA,NA,0,#741CD8,#D8271C,0,10,0,38,1,1240.2000000476837,39,0,342.2000000476837,10,1,experiment,NA,NA,0,0.1,0.9,1,0,263,6,NA
fcp-trial,299,1124192,0.0-274.0-0.0,voc_e2,12218,"[{""event"":""fullscreenenter"",""trial"":1,""time"":1438},{""event"":""blur"",""trial"":245,""time"":943752},{""event"":""focus"",""trial"":245,""time"":963683}]",NA,NA,NA,NA,NA,3,#FA92F8,#1CD855,0,10,0,38,1,960.7000000476837,39,0,390.90000009536743,10,1,experiment,NA,NA,2,0.5,0.5,5,4,264,6,NA
fcp-trial,300,1127089,0.0-275.0-0.0,voc_e2,12218,"[{""event"":""fullscreenenter"",""trial"":1,""time"":1438},{""event"":""blur"",""trial"":245,""time"":943752},{""event"":""focus"",""trial"":245,""time"":963683}]",NA,NA,NA,NA,NA,5,#D89F1C,#3386FF,0,0,1,40,0,993.7999999523163,37,1,398.59999990463257,0,1,experiment,NA,NA,1,0.7,0.3,2,3,265,6,NA
fcp-trial,301,1130193,0.0-276.0-0.0,voc_e2,12218,"[{""event"":""fullscreenenter"",""trial"":1,""time"":1438},{""event"":""blur"",""trial"":245,""time"":943752},{""event"":""focus"",""trial"":245,""time"":963683}]",NA,NA,NA,NA,NA,3,#3386FF,#D89F1C,10,10,0,40,0,1024.5999999046326,37,1,575.0999999046326,10,0,experiment,NA,NA,1,0.3,0.7,3,2,266,6,NA
fcp-trial,302,1133209,0.0-277.0-0.0,voc_e2,12218,"[{""event"":""fullscreenenter"",""trial"":1,""time"":1438},{""event"":""blur"",""trial"":245,""time"":943752},{""event"":""focus"",""trial"":245,""time"":963683}]",NA,NA,NA,NA,NA,4,#1CD855,#FA92F8,10,10,1,40,0,1105.5999999046326,37,1,407.7999999523163,10,1,experiment,NA,NA,2,0.5,0.5,4,5,267,6,NA
fcp-trial,303,1136185,0.0-278.0-0.0,voc_e2,12218,"[{""event"":""fullscreenenter"",""trial"":1,""time"":1438},{""event"":""blur"",""trial"":245,""time"":943752},{""event"":""focus"",""trial"":245,""time"":963683}]",NA,NA,NA,NA,NA,6,#741CD8,#D8271C,0,10,0,40,0,1088.7000000476837,39,0,383.7000000476837,10,1,experiment,NA,NA,0,0.1,0.9,1,0,268,6,NA
fcp-trial,304,1139105,0.0-279.0-0.0,voc_e2,12218,"[{""event"":""fullscreenenter"",""trial"":1,""time"":1438},{""event"":""blur"",""trial"":245,""time"":943752},{""event"":""focus"",""trial"":245,""time"":963683}]",NA,NA,NA,NA,NA,2,#741CD8,#D8271C,0,10,0,38,1,1017.3999998569489,39,0,399.10000014305115,10,1,experiment,NA,NA,0,0.1,0.9,1,0,269,6,NA
fcp-trial,305,1141849,0.0-280.0-0.0,voc_e2,12218,"[{""event"":""fullscreenenter"",""trial"":1,""time"":1438},{""event"":""blur"",""trial"":245,""time"":943752},{""event"":""focus"",""trial"":245,""time"":963683}]",NA,NA,NA,NA,NA,2,#3386FF,#D89F1C,0,10,0,38,1,815.5999999046326,39,0,422.60000014305115,10,1,experiment,NA,NA,1,0.3,0.7,3,2,270,6,NA
fcp-trial,306,1144873,0.0-281.0-0.0,voc_e2,12218,"[{""event"":""fullscreenenter"",""trial"":1,""time"":1438},{""event"":""blur"",""trial"":245,""time"":943752},{""event"":""focus"",""trial"":245,""time"":963683}]",NA,NA,NA,NA,NA,3,#D8271C,#741CD8,10,0,1,38,1,1008.7000000476837,37,1,511.2999999523163,10,1,experiment,NA,NA,0,0.9,0.1,0,1,271,7,NA
fcp-trial,307,1147585,0.0-282.0-0.0,voc_e2,12218,"[{""event"":""fullscreenenter"",""trial"":1,""time"":1438},{""event"":""blur"",""trial"":245,""time"":943752},{""event"":""focus"",""trial"":245,""time"":963683}]",NA,NA,NA,NA,NA,5,#FA92F8,#1CD855,0,10,0,40,0,682.8999998569489,37,1,525.2000000476837,0,0,experiment,NA,NA,2,0.5,0.5,5,4,272,7,NA
fcp-trial,308,1150305,0.0-283.0-0.0,voc_e2,12218,"[{""event"":""fullscreenenter"",""trial"":1,""time"":1438},{""event"":""blur"",""trial"":245,""time"":943752},{""event"":""focus"",""trial"":245,""time"":963683}]",NA,NA,NA,NA,NA,6,#3386FF,#D89F1C,0,10,0,40,0,793.2000000476837,39,0,421.7999999523163,10,1,experiment,NA,NA,1,0.3,0.7,3,2,273,7,NA
fcp-trial,309,1153001,0.0-284.0-0.0,voc_e2,12218,"[{""event"":""fullscreenenter"",""trial"":1,""time"":1438},{""event"":""blur"",""trial"":245,""time"":943752},{""event"":""focus"",""trial"":245,""time"":963683}]",NA,NA,NA,NA,NA,6,#FA92F8,#1CD855,0,0,0,40,0,680.7999999523163,39,0,511.69999980926514,0,1,experiment,NA,NA,2,0.5,0.5,5,4,274,7,NA
fcp-trial,310,1155610,0.0-285.0-0.0,voc_e2,12218,"[{""event"":""fullscreenenter"",""trial"":1,""time"":1438},{""event"":""blur"",""trial"":245,""time"":943752},{""event"":""focus"",""trial"":245,""time"":963683}]",NA,NA,NA,NA,NA,1,#1CD855,#FA92F8,10,10,1,38,1,840.8999998569489,37,1,263.09999990463257,10,1,experiment,NA,NA,2,0.5,0.5,4,5,275,7,NA
fcp-trial,311,1158425,0.0-286.0-0.0,voc_e2,12218,"[{""event"":""fullscreenenter"",""trial"":1,""time"":1438},{""event"":""blur"",""trial"":245,""time"":943752},{""event"":""focus"",""trial"":245,""time"":963683}]",NA,NA,NA,NA,NA,3,#D89F1C,#3386FF,0,0,1,40,0,847.8999998569489,39,0,462.89999985694885,0,0,experiment,NA,NA,1,0.7,0.3,2,3,276,7,NA
fcp-trial,312,1161152,0.0-287.0-0.0,voc_e2,12218,"[{""event"":""fullscreenenter"",""trial"":1,""time"":1438},{""event"":""blur"",""trial"":245,""time"":943752},{""event"":""focus"",""trial"":245,""time"":963683}]",NA,NA,NA,NA,NA,1,#741CD8,#D8271C,0,10,0,38,1,825,39,0,398.7999999523163,10,1,experiment,NA,NA,0,0.1,0.9,1,0,277,7,NA
fcp-trial,313,1164377,0.0-288.0-0.0,voc_e2,12218,"[{""event"":""fullscreenenter"",""trial"":1,""time"":1438},{""event"":""blur"",""trial"":245,""time"":943752},{""event"":""focus"",""trial"":245,""time"":963683}]",NA,NA,NA,NA,NA,4,#741CD8,#D8271C,0,10,0,40,0,825.5999999046326,39,0,895.2999999523163,10,1,experiment,NA,NA,0,0.1,0.9,1,0,278,7,NA
fcp-trial,314,1167264,0.0-289.0-0.0,voc_e2,12218,"[{""event"":""fullscreenenter"",""trial"":1,""time"":1438},{""event"":""blur"",""trial"":245,""time"":943752},{""event"":""focus"",""trial"":245,""time"":963683}]",NA,NA,NA,NA,NA,0,#FA92F8,#1CD855,10,0,0,38,1,961.4000000953674,39,0,422.90000009536743,0,1,experiment,NA,NA,2,0.5,0.5,5,4,279,7,NA
fcp-trial,315,1170301,0.0-290.0-0.0,voc_e2,12218,"[{""event"":""fullscreenenter"",""trial"":1,""time"":1438},{""event"":""blur"",""trial"":245,""time"":943752},{""event"":""focus"",""trial"":245,""time"":963683}]",NA,NA,NA,NA,NA,0,#741CD8,#D8271C,0,10,0,38,1,978.1000001430511,39,0,550.9000000953674,10,1,experiment,NA,NA,0,0.1,0.9,1,0,280,7,NA
fcp-trial,316,1173130,0.0-291.0-0.0,voc_e2,12218,"[{""event"":""fullscreenenter"",""trial"":1,""time"":1438},{""event"":""blur"",""trial"":245,""time"":943752},{""event"":""focus"",""trial"":245,""time"":963683}]",NA,NA,NA,NA,NA,5,#3386FF,#D89F1C,0,10,0,40,0,837.7999999523163,37,1,487.09999990463257,0,0,experiment,NA,NA,1,0.3,0.7,3,2,281,7,NA
fcp-trial,317,1175888,0.0-292.0-0.0,voc_e2,12218,"[{""event"":""fullscreenenter"",""trial"":1,""time"":1438},{""event"":""blur"",""trial"":245,""time"":943752},{""event"":""focus"",""trial"":245,""time"":963683}]",NA,NA,NA,NA,NA,4,#D89F1C,#3386FF,0,0,1,40,0,808.6000001430511,37,1,447.5,0,1,experiment,NA,NA,1,0.7,0.3,2,3,282,7,NA
fcp-trial,318,1178776,0.0-293.0-0.0,voc_e2,12218,"[{""event"":""fullscreenenter"",""trial"":1,""time"":1438},{""event"":""blur"",""trial"":245,""time"":943752},{""event"":""focus"",""trial"":245,""time"":963683}]",NA,NA,NA,NA,NA,2,#741CD8,#D8271C,0,0,0,38,1,946,39,0,438.90000009536743,0,1,experiment,NA,NA,0,0.1,0.9,1,0,283,7,NA
fcp-trial,319,1182018,0.0-294.0-0.0,voc_e2,12218,"[{""event"":""fullscreenenter"",""trial"":1,""time"":1438},{""event"":""blur"",""trial"":245,""time"":943752},{""event"":""focus"",""trial"":245,""time"":963683}]",NA,NA,NA,NA,NA,3,#FA92F8,#1CD855,0,0,0,38,1,1266,39,0,471.7000000476837,0,1,experiment,NA,NA,2,0.5,0.5,5,4,284,7,NA
fcp-trial,320,1184857,0.0-295.0-0.0,voc_e2,12218,"[{""event"":""fullscreenenter"",""trial"":1,""time"":1438},{""event"":""blur"",""trial"":245,""time"":943752},{""event"":""focus"",""trial"":245,""time"":963683}]",NA,NA,NA,NA,NA,2,#3386FF,#D89F1C,0,10,0,38,1,1001.0999999046326,39,0,334.2000000476837,10,1,experiment,NA,NA,1,0.3,0.7,3,2,285,7,NA
fcp-trial,321,1188002,0.0-296.0-0.0,voc_e2,12218,"[{""event"":""fullscreenenter"",""trial"":1,""time"":1438},{""event"":""blur"",""trial"":245,""time"":943752},{""event"":""focus"",""trial"":245,""time"":963683}]",NA,NA,NA,NA,NA,5,#FA92F8,#1CD855,0,10,0,40,0,1017.3999998569489,37,1,623.2999999523163,0,0,experiment,NA,NA,2,0.5,0.5,5,4,286,7,NA
fcp-trial,322,1190769,0.0-297.0-0.0,voc_e2,12218,"[{""event"":""fullscreenenter"",""trial"":1,""time"":1438},{""event"":""blur"",""trial"":245,""time"":943752},{""event"":""focus"",""trial"":245,""time"":963683}]",NA,NA,NA,NA,NA,6,#D89F1C,#3386FF,10,0,1,40,0,840.8999998569489,37,1,423,10,1,experiment,NA,NA,1,0.7,0.3,2,3,287,7,NA
fcp-trial,323,1193569,0.0-298.0-0.0,voc_e2,12218,"[{""event"":""fullscreenenter"",""trial"":1,""time"":1438},{""event"":""blur"",""trial"":245,""time"":943752},{""event"":""focus"",""trial"":245,""time"":963683}]",NA,NA,NA,NA,NA,3,#741CD8,#D8271C,0,0,0,38,1,905.8999998569489,39,0,391,0,1,experiment,NA,NA,0,0.1,0.9,1,0,288,7,NA
fcp-trial,324,1196369,0.0-299.0-0.0,voc_e2,12218,"[{""event"":""fullscreenenter"",""trial"":1,""time"":1438},{""event"":""blur"",""trial"":245,""time"":943752},{""event"":""focus"",""trial"":245,""time"":963683}]",NA,NA,NA,NA,NA,2,#FA92F8,#1CD855,10,10,0,40,0,849.4000000953674,39,0,447.09999990463257,10,1,experiment,NA,NA,2,0.5,0.5,5,4,289,7,NA
fcp-trial,325,1199354,0.0-300.0-0.0,voc_e2,12218,"[{""event"":""fullscreenenter"",""trial"":1,""time"":1438},{""event"":""blur"",""trial"":245,""time"":943752},{""event"":""focus"",""trial"":245,""time"":963683}]",NA,NA,NA,NA,NA,6,#741CD8,#D8271C,0,10,0,40,0,865.1999998092651,37,1,615.2999999523163,0,0,experiment,NA,NA,0,0.1,0.9,1,0,290,7,NA
fcp-trial,326,1202129,0.0-301.0-0.0,voc_e2,12218,"[{""event"":""fullscreenenter"",""trial"":1,""time"":1438},{""event"":""blur"",""trial"":245,""time"":943752},{""event"":""focus"",""trial"":245,""time"":963683}]",NA,NA,NA,NA,NA,4,#FA92F8,#1CD855,0,10,0,40,0,888.6999998092651,39,0,381.7000000476837,10,1,experiment,NA,NA,2,0.5,0.5,5,4,291,7,NA
fcp-trial,327,1204841,0.0-302.0-0.0,voc_e2,12218,"[{""event"":""fullscreenenter"",""trial"":1,""time"":1438},{""event"":""blur"",""trial"":245,""time"":943752},{""event"":""focus"",""trial"":245,""time"":963683}]",NA,NA,NA,NA,NA,1,#D89F1C,#3386FF,10,0,1,38,1,753.6000001430511,37,1,456.2000000476837,10,1,experiment,NA,NA,1,0.7,0.3,2,3,292,7,NA
fcp-trial,328,1207874,0.0-303.0-0.0,voc_e2,12218,"[{""event"":""fullscreenenter"",""trial"":1,""time"":1438},{""event"":""blur"",""trial"":245,""time"":943752},{""event"":""focus"",""trial"":245,""time"":963683}]",NA,NA,NA,NA,NA,0,#D89F1C,#3386FF,10,0,1,38,1,1145.3999998569489,37,1,383.2999999523163,10,1,experiment,NA,NA,1,0.7,0.3,2,3,293,7,NA
fcp-trial,329,1211210,0.0-304.0-0.0,voc_e2,12218,"[{""event"":""fullscreenenter"",""trial"":1,""time"":1438},{""event"":""blur"",""trial"":245,""time"":943752},{""event"":""focus"",""trial"":245,""time"":963683}]",NA,NA,NA,NA,NA,5,#D8271C,#741CD8,10,0,1,40,0,1392.1999998092651,37,1,439.5,10,1,experiment,NA,NA,0,0.9,0.1,0,1,294,7,NA
fcp-trial,330,1214185,0.0-305.0-0.0,voc_e2,12218,"[{""event"":""fullscreenenter"",""trial"":1,""time"":1438},{""event"":""blur"",""trial"":245,""time"":943752},{""event"":""focus"",""trial"":245,""time"":963683}]",NA,NA,NA,NA,NA,1,#D8271C,#741CD8,10,0,1,38,1,1184.2000000476837,37,1,287.7000000476837,10,1,experiment,NA,NA,0,0.9,0.1,0,1,295,7,NA
fcp-trial,331,1217273,0.0-306.0-0.0,voc_e2,12218,"[{""event"":""fullscreenenter"",""trial"":1,""time"":1438},{""event"":""blur"",""trial"":245,""time"":943752},{""event"":""focus"",""trial"":245,""time"":963683}]",NA,NA,NA,NA,NA,0,#D89F1C,#3386FF,0,0,1,38,1,1240.0999999046326,37,1,342.7999999523163,0,1,experiment,NA,NA,1,0.7,0.3,2,3,296,7,NA
fcp-trial,332,1220209,0.0-307.0-0.0,voc_e2,12218,"[{""event"":""fullscreenenter"",""trial"":1,""time"":1438},{""event"":""blur"",""trial"":245,""time"":943752},{""event"":""focus"",""trial"":245,""time"":963683}]",NA,NA,NA,NA,NA,0,#D8271C,#741CD8,10,0,1,38,1,1129.4000000953674,37,1,302.89999985694885,10,1,experiment,NA,NA,0,0.9,0.1,0,1,297,7,NA
fcp-trial,333,1225369,0.0-308.0-0.0,voc_e2,12218,"[{""event"":""fullscreenenter"",""trial"":1,""time"":1438},{""event"":""blur"",""trial"":245,""time"":943752},{""event"":""focus"",""trial"":245,""time"":963683}]",NA,NA,NA,NA,NA,1,#FA92F8,#1CD855,0,10,0,38,1,3249.2999999523163,39,0,407.09999990463257,10,1,experiment,NA,NA,2,0.5,0.5,5,4,298,7,NA
fcp-trial,334,1228122,0.0-309.0-0.0,voc_e2,12218,"[{""event"":""fullscreenenter"",""trial"":1,""time"":1438},{""event"":""blur"",""trial"":245,""time"":943752},{""event"":""focus"",""trial"":245,""time"":963683}]",NA,NA,NA,NA,NA,2,#FA92F8,#1CD855,0,10,0,38,1,937.7999999523163,39,0,311.2999999523163,10,1,experiment,NA,NA,2,0.5,0.5,5,4,299,7,NA
fcp-trial,335,1231226,0.0-310.0-0.0,voc_e2,12218,"[{""event"":""fullscreenenter"",""trial"":1,""time"":1438},{""event"":""blur"",""trial"":245,""time"":943752},{""event"":""focus"",""trial"":245,""time"":963683}]",NA,NA,NA,NA,NA,3,#D89F1C,#3386FF,10,0,1,40,0,1081.5999999046326,39,0,518.4000000953674,0,0,experiment,NA,NA,1,0.7,0.3,2,3,300,7,NA
fcp-trial,336,1234226,0.0-311.0-0.0,voc_e2,12218,"[{""event"":""fullscreenenter"",""trial"":1,""time"":1438},{""event"":""blur"",""trial"":245,""time"":943752},{""event"":""focus"",""trial"":245,""time"":963683}]",NA,NA,NA,NA,NA,3,#1CD855,#FA92F8,0,0,1,38,1,1120.5,37,1,374.39999985694885,0,1,experiment,NA,NA,2,0.5,0.5,4,5,301,7,NA
fcp-trial,337,1237146,0.0-312.0-0.0,voc_e2,12218,"[{""event"":""fullscreenenter"",""trial"":1,""time"":1438},{""event"":""blur"",""trial"":245,""time"":943752},{""event"":""focus"",""trial"":245,""time"":963683}]",NA,NA,NA,NA,NA,6,#741CD8,#D8271C,0,10,0,40,0,1008.5999999046326,39,0,407,10,1,experiment,NA,NA,0,0.1,0.9,1,0,302,7,NA
fcp-trial,338,1240026,0.0-313.0-0.0,voc_e2,12218,"[{""event"":""fullscreenenter"",""trial"":1,""time"":1438},{""event"":""blur"",""trial"":245,""time"":943752},{""event"":""focus"",""trial"":245,""time"":963683}]",NA,NA,NA,NA,NA,5,#D8271C,#741CD8,10,0,1,40,0,1000.8999998569489,37,1,376,10,1,experiment,NA,NA,0,0.9,0.1,0,1,303,7,NA
fcp-trial,339,1242921,0.0-314.0-0.0,voc_e2,12218,"[{""event"":""fullscreenenter"",""trial"":1,""time"":1438},{""event"":""blur"",""trial"":245,""time"":943752},{""event"":""focus"",""trial"":245,""time"":963683}]",NA,NA,NA,NA,NA,5,#3386FF,#D89F1C,0,0,0,40,0,823.7999999523163,37,1,566.7999999523163,0,0,experiment,NA,NA,1,0.3,0.7,3,2,304,7,NA
fcp-trial,340,1246161,0.0-315.0-0.0,voc_e2,12218,"[{""event"":""fullscreenenter"",""trial"":1,""time"":1438},{""event"":""blur"",""trial"":245,""time"":943752},{""event"":""focus"",""trial"":245,""time"":963683}]",NA,NA,NA,NA,NA,4,#1CD855,#FA92F8,0,10,1,40,0,985.7000000476837,39,0,750.5999999046326,10,0,experiment,NA,NA,2,0.5,0.5,4,5,305,7,NA
fcp-trial,341,1248913,0.0-316.0-0.0,voc_e2,12218,"[{""event"":""fullscreenenter"",""trial"":1,""time"":1438},{""event"":""blur"",""trial"":245,""time"":943752},{""event"":""focus"",""trial"":245,""time"":963683}]",NA,NA,NA,NA,NA,2,#D8271C,#741CD8,10,0,1,40,0,802.2000000476837,37,1,445.90000009536743,10,1,experiment,NA,NA,0,0.9,0.1,0,1,306,7,NA
fcp-trial,342,1251658,0.0-317.0-0.0,voc_e2,12218,"[{""event"":""fullscreenenter"",""trial"":1,""time"":1438},{""event"":""blur"",""trial"":245,""time"":943752},{""event"":""focus"",""trial"":245,""time"":963683}]",NA,NA,NA,NA,NA,4,#D89F1C,#3386FF,0,0,1,40,0,737.5,39,0,503.40000009536743,0,0,experiment,NA,NA,1,0.7,0.3,2,3,307,7,NA
fcp-trial,343,1254530,0.0-318.0-0.0,voc_e2,12218,"[{""event"":""fullscreenenter"",""trial"":1,""time"":1438},{""event"":""blur"",""trial"":245,""time"":943752},{""event"":""focus"",""trial"":245,""time"":963683}]",NA,NA,NA,NA,NA,3,#741CD8,#D8271C,0,10,0,38,1,1041.4000000953674,39,0,327.30000019073486,10,1,experiment,NA,NA,0,0.1,0.9,1,0,308,7,NA
fcp-trial,344,1257235,0.0-319.0-0.0,voc_e2,12218,"[{""event"":""fullscreenenter"",""trial"":1,""time"":1438},{""event"":""blur"",""trial"":245,""time"":943752},{""event"":""focus"",""trial"":245,""time"":963683}]",NA,NA,NA,NA,NA,0,#1CD855,#FA92F8,0,10,1,38,1,904.9000000953674,37,1,295.7000000476837,0,1,experiment,NA,NA,2,0.5,0.5,4,5,309,7,NA
fcp-trial,345,1260089,0.0-320.0-0.0,voc_e2,12218,"[{""event"":""fullscreenenter"",""trial"":1,""time"":1438},{""event"":""blur"",""trial"":245,""time"":943752},{""event"":""focus"",""trial"":245,""time"":963683}]",NA,NA,NA,NA,NA,6,#D89F1C,#3386FF,0,10,1,40,0,840.2000000476837,39,0,511.60000014305115,10,0,experiment,NA,NA,1,0.7,0.3,2,3,310,7,NA
fcp-trial,346,1263010,0.0-321.0-0.0,voc_e2,12218,"[{""event"":""fullscreenenter"",""trial"":1,""time"":1438},{""event"":""blur"",""trial"":245,""time"":943752},{""event"":""focus"",""trial"":245,""time"":963683}]",NA,NA,NA,NA,NA,1,#D89F1C,#3386FF,10,10,1,38,1,1097.5999999046326,37,1,319,10,1,experiment,NA,NA,1,0.7,0.3,2,3,311,7,NA
fcp-trial,347,1265769,0.0-322.0-0.0,voc_e2,12218,"[{""event"":""fullscreenenter"",""trial"":1,""time"":1438},{""event"":""blur"",""trial"":245,""time"":943752},{""event"":""focus"",""trial"":245,""time"":963683}]",NA,NA,NA,NA,NA,5,#1CD855,#FA92F8,0,10,1,40,0,792.9000000953674,39,0,463.5,10,0,experiment,NA,NA,2,0.5,0.5,4,5,312,7,NA
fcp-trial,348,1268514,0.0-323.0-0.0,voc_e2,12218,"[{""event"":""fullscreenenter"",""trial"":1,""time"":1438},{""event"":""blur"",""trial"":245,""time"":943752},{""event"":""focus"",""trial"":245,""time"":963683}]",NA,NA,NA,NA,NA,4,#D8271C,#741CD8,10,0,1,40,0,841.2000000476837,39,0,399.40000009536743,0,0,experiment,NA,NA,0,0.9,0.1,0,1,313,7,NA
fcp-trial,349,1271282,0.0-324.0-0.0,voc_e2,12218,"[{""event"":""fullscreenenter"",""trial"":1,""time"":1438},{""event"":""blur"",""trial"":245,""time"":943752},{""event"":""focus"",""trial"":245,""time"":963683}]",NA,NA,NA,NA,NA,2,#3386FF,#D89F1C,10,0,0,38,1,801.0999999046326,39,0,462.60000014305115,0,1,experiment,NA,NA,1,0.3,0.7,3,2,314,7,NA
fcp-trial,350,1274305,0.0-325.0-0.0,voc_e2,12218,"[{""event"":""fullscreenenter"",""trial"":1,""time"":1438},{""event"":""blur"",""trial"":245,""time"":943752},{""event"":""focus"",""trial"":245,""time"":963683}]",NA,NA,NA,NA,NA,6,#FA92F8,#1CD855,0,10,0,40,0,864.9000000953674,37,1,655.3999998569489,0,0,experiment,NA,NA,2,0.5,0.5,5,4,315,7,NA
audio-instructions,351,1281164,0.0-326.0,voc_e2,12218,"[{""event"":""fullscreenenter"",""trial"":1,""time"":1438},{""event"":""blur"",""trial"":245,""time"":943752},{""event"":""focus"",""trial"":245,""time"":963683}]",NA,1213.8999998569489,static/audio/finished.wav,NA,0,NA,NA,NA,NA,NA,NA,NA,NA,NA,NA,NA,NA,NA,NA,NA,NA,NA,NA,NA,NA,NA,NA,NA,NA,NA
audio-instructions,352,1292532,0.0-327.0-0.0,voc_e2,12218,"[{""event"":""fullscreenenter"",""trial"":1,""time"":1438},{""event"":""blur"",""trial"":245,""time"":943752},{""event"":""focus"",""trial"":245,""time"":963683}]",NA,533.0999999046326,static/audio/explicit1.wav,NA,0,NA,NA,NA,NA,NA,NA,NA,NA,NA,NA,NA,NA,NA,NA,NA,NA,NA,NA,NA,NA,NA,NA,NA,NA,NA
audio-instructions,353,1300626,0.0-327.0-1.0,voc_e2,12218,"[{""event"":""fullscreenenter"",""trial"":1,""time"":1438},{""event"":""blur"",""trial"":245,""time"":943752},{""event"":""focus"",""trial"":245,""time"":963683}]",NA,496.7999999523163,static/audio/explicit2.wav,NA,0,NA,NA,NA,NA,NA,NA,NA,NA,NA,NA,NA,NA,NA,NA,NA,NA,NA,NA,NA,NA,NA,NA,NA,NA,NA
image-slider-response,354,1305218,0.0-328.0,voc_e2,12218,"[{""event"":""fullscreenenter"",""trial"":1,""time"":1438},{""event"":""blur"",""trial"":245,""time"":943752},{""event"":""focus"",""trial"":245,""time"":963683}]",NA,4589.700000047684,static/img/machines/machine6.png,NA,NA,NA,NA,NA,NA,NA,NA,NA,NA,NA,NA,NA,NA,NA,NA,explicit,NA,NA,NA,NA,NA,NA,NA,NA,NA,6
image-slider-response,355,1307767,0.0-329.0,voc_e2,12218,"[{""event"":""fullscreenenter"",""trial"":1,""time"":1438},{""event"":""blur"",""trial"":245,""time"":943752},{""event"":""focus"",""trial"":245,""time"":963683}]",NA,2548.5,static/img/machines/machine4.png,NA,NA,NA,NA,NA,NA,NA,NA,NA,NA,NA,NA,NA,NA,NA,NA,explicit,NA,NA,NA,NA,NA,NA,NA,NA,NA,5
image-slider-response,356,1310867,0.0-330.0,voc_e2,12218,"[{""event"":""fullscreenenter"",""trial"":1,""time"":1438},{""event"":""blur"",""trial"":245,""time"":943752},{""event"":""focus"",""trial"":245,""time"":963683}]",NA,3098.900000095367,static/img/machines/machine1.png,NA,NA,NA,NA,NA,NA,NA,NA,NA,NA,NA,NA,NA,NA,NA,NA,explicit,NA,NA,NA,NA,NA,NA,NA,NA,NA,8
image-slider-response,357,1315446,0.0-331.0,voc_e2,12218,"[{""event"":""fullscreenenter"",""trial"":1,""time"":1438},{""event"":""blur"",""trial"":245,""time"":943752},{""event"":""focus"",""trial"":245,""time"":963683}]",NA,4577.699999809265,static/img/machines/machine2.png,NA,NA,NA,NA,NA,NA,NA,NA,NA,NA,NA,NA,NA,NA,NA,NA,explicit,NA,NA,NA,NA,NA,NA,NA,NA,NA,3
image-slider-response,358,1318459,0.0-332.0,voc_e2,12218,"[{""event"":""fullscreenenter"",""trial"":1,""time"":1438},{""event"":""blur"",""trial"":245,""time"":943752},{""event"":""focus"",""trial"":245,""time"":963683}]",NA,3011.2999999523163,static/img/machines/machine3.png,NA,NA,NA,NA,NA,NA,NA,NA,NA,NA,NA,NA,NA,NA,NA,NA,explicit,NA,NA,NA,NA,NA,NA,NA,NA,NA,4
image-slider-response,359,1321992,0.0-333.0,voc_e2,12218,"[{""event"":""fullscreenenter"",""trial"":1,""time"":1438},{""event"":""blur"",""trial"":245,""time"":943752},{""event"":""focus"",""trial"":245,""time"":963683}]",NA,3532.5,static/img/machines/machine5.png,NA,NA,NA,NA,NA,NA,NA,NA,NA,NA,NA,NA,NA,NA,NA,NA,explicit,NA,NA,NA,NA,NA,NA,NA,NA,NA,2
