trial_type,trial_index,time_elapsed,internal_node_id,task_version,subject_id,interactions,success,rt,stimulus,key_press,button_pressed,offer,arcade_color_L,arcade_color_R,arcade_outcome_L,arcade_outcome_R,correct,stage_1_key,stage_1_choice,stage_1_rt,stage_2_key,stage_2_choice,stage_2_rt,stage_3_outcome,accuracy,phase,responses,num_errors,context,reward_prob_L,reward_prob_R,arcade_id_L,arcade_id_R,trial,block,response
pavlovia,0,13,0.0-0.0,voc_e2,12219,[],NA,NA,NA,NA,NA,NA,NA,NA,NA,NA,NA,NA,NA,NA,NA,NA,NA,NA,NA,NA,NA,NA,NA,NA,NA,NA,NA,NA,NA,NA
fullscreen,1,3008,0.0-1.0,voc_e2,12219,"[{""event"":""fullscreenenter"",""trial"":1,""time"":2014}]",TRUE,NA,NA,NA,NA,NA,NA,NA,NA,NA,NA,NA,NA,NA,NA,NA,NA,NA,NA,NA,NA,NA,NA,NA,NA,NA,NA,NA,NA,NA
audio-keyboard-response,2,5722,0.0-2.0,voc_e2,12219,"[{""event"":""fullscreenenter"",""trial"":1,""time"":2014}]",NA,2635,static/audio/beep_loop.wav,32,NA,NA,NA,NA,NA,NA,NA,NA,NA,NA,NA,NA,NA,NA,NA,NA,NA,NA,NA,NA,NA,NA,NA,NA,NA,NA
audio-test,3,7369,0.0-3.0,voc_e2,12219,"[{""event"":""fullscreenenter"",""trial"":1,""time"":2014}]",NA,NA,static/audio/turtle.wav,NA,3,NA,NA,NA,NA,NA,NA,NA,NA,NA,NA,NA,NA,NA,NA,NA,NA,NA,NA,NA,NA,NA,NA,NA,NA,NA
audio-test,4,9710,0.0-4.0,voc_e2,12219,"[{""event"":""fullscreenenter"",""trial"":1,""time"":2014}]",NA,NA,static/audio/shark.wav,NA,2,NA,NA,NA,NA,NA,NA,NA,NA,NA,NA,NA,NA,NA,NA,NA,NA,NA,NA,NA,NA,NA,NA,NA,NA,NA
audio-instructions,5,19240,0.0-5.0-0.0,voc_e2,12219,"[{""event"":""fullscreenenter"",""trial"":1,""time"":2014}]",NA,3749.20000000298,static/audio/instructions1.wav,NA,0,NA,NA,NA,NA,NA,NA,NA,NA,NA,NA,NA,NA,NA,NA,NA,NA,NA,NA,NA,NA,NA,NA,NA,NA,NA
audio-instructions,6,27471,0.0-5.0-1.0,voc_e2,12219,"[{""event"":""fullscreenenter"",""trial"":1,""time"":2014}]",NA,1489.7999999970198,static/audio/instructions2.wav,NA,0,NA,NA,NA,NA,NA,NA,NA,NA,NA,NA,NA,NA,NA,NA,NA,NA,NA,NA,NA,NA,NA,NA,NA,NA,NA
audio-instructions,7,34223,0.0-5.0-2.0,voc_e2,12219,"[{""event"":""fullscreenenter"",""trial"":1,""time"":2014}]",NA,952.1999999880792,static/audio/instructions3.wav,NA,0,NA,NA,NA,NA,NA,NA,NA,NA,NA,NA,NA,NA,NA,NA,NA,NA,NA,NA,NA,NA,NA,NA,NA,NA,NA
audio-instructions,8,48513,0.0-5.0-3.0,voc_e2,12219,"[{""event"":""fullscreenenter"",""trial"":1,""time"":2014}]",NA,1066.2000000029802,static/audio/instructions4.wav,NA,0,NA,NA,NA,NA,NA,NA,NA,NA,NA,NA,NA,NA,NA,NA,NA,NA,NA,NA,NA,NA,NA,NA,NA,NA,NA
audio-instructions,9,60088,0.0-5.0-4.0,voc_e2,12219,"[{""event"":""fullscreenenter"",""trial"":1,""time"":2014}]",NA,2188.5,static/audio/instructions5.wav,NA,0,NA,NA,NA,NA,NA,NA,NA,NA,NA,NA,NA,NA,NA,NA,NA,NA,NA,NA,NA,NA,NA,NA,NA,NA,NA
fcp-practice,10,62606,0.0-5.0-5.0-0.0,voc_e2,12219,"[{""event"":""fullscreenenter"",""trial"":1,""time"":2014}]",NA,NA,NA,NA,NA,NA,#EDC948,#46d3c8,10,0,1,null,null,null,37,1,1006.5,10,1,practice,NA,NA,NA,NA,NA,NA,NA,NA,NA,NA
fcp-practice,11,64751,0.0-5.0-5.0-1.0,voc_e2,12219,"[{""event"":""fullscreenenter"",""trial"":1,""time"":2014}]",NA,NA,NA,NA,NA,NA,#EDC948,#46d3c8,10,0,1,null,null,null,37,1,639.1000000089407,10,1,practice,NA,NA,NA,NA,NA,NA,NA,NA,NA,NA
fcp-practice,12,66817,0.0-5.0-5.0-2.0,voc_e2,12219,"[{""event"":""fullscreenenter"",""trial"":1,""time"":2014}]",NA,NA,NA,NA,NA,NA,#EDC948,#46d3c8,0,10,1,null,null,null,37,1,558.7000000029802,0,1,practice,NA,NA,NA,NA,NA,NA,NA,NA,NA,NA
fcp-practice,13,68754,0.0-5.0-5.0-3.0,voc_e2,12219,"[{""event"":""fullscreenenter"",""trial"":1,""time"":2014}]",NA,NA,NA,NA,NA,NA,#EDC948,#46d3c8,10,0,1,null,null,null,37,1,430.5,10,1,practice,NA,NA,NA,NA,NA,NA,NA,NA,NA,NA
fcp-practice,14,70880,0.0-5.0-5.0-4.0,voc_e2,12219,"[{""event"":""fullscreenenter"",""trial"":1,""time"":2014}]",NA,NA,NA,NA,NA,NA,#EDC948,#46d3c8,10,0,1,null,null,null,37,1,618.2000000029802,10,1,practice,NA,NA,NA,NA,NA,NA,NA,NA,NA,NA
audio-instructions,15,89993,0.0-5.0-6.0,voc_e2,12219,"[{""event"":""fullscreenenter"",""trial"":1,""time"":2014}]",NA,1107.2999999970198,static/audio/instructions6.wav,NA,0,NA,NA,NA,NA,NA,NA,NA,NA,NA,NA,NA,NA,NA,NA,NA,NA,NA,NA,NA,NA,NA,NA,NA,NA,NA
audio-instructions,16,111682,0.0-5.0-7.0,voc_e2,12219,"[{""event"":""fullscreenenter"",""trial"":1,""time"":2014}]",NA,2488.29999999702,static/audio/instructions7.wav,NA,0,NA,NA,NA,NA,NA,NA,NA,NA,NA,NA,NA,NA,NA,NA,NA,NA,NA,NA,NA,NA,NA,NA,NA,NA,NA
audio-instructions,17,124659,0.0-5.0-8.0,voc_e2,12219,"[{""event"":""fullscreenenter"",""trial"":1,""time"":2014}]",NA,3508.0999999940395,static/audio/instructions8.wav,NA,0,NA,NA,NA,NA,NA,NA,NA,NA,NA,NA,NA,NA,NA,NA,NA,NA,NA,NA,NA,NA,NA,NA,NA,NA,NA
fcp-comprehension,18,139559,0.0-5.0-9.0,voc_e2,12219,"[{""event"":""fullscreenenter"",""trial"":1,""time"":2014}]",NA,14898.5,NA,NA,NA,NA,NA,NA,NA,NA,NA,NA,NA,NA,NA,NA,NA,NA,NA,NA,"false,true",1,NA,NA,NA,NA,NA,NA,NA,NA
audio-instructions,19,145196,0.0-5.1-0.1,voc_e2,12219,"[{""event"":""fullscreenenter"",""trial"":1,""time"":2014}]",NA,857.2000000029802,static/audio/instructions1.wav,NA,0,NA,NA,NA,NA,NA,NA,NA,NA,NA,NA,NA,NA,NA,NA,NA,NA,NA,NA,NA,NA,NA,NA,NA,NA,NA
audio-instructions,20,152643,0.0-5.1-1.1,voc_e2,12219,"[{""event"":""fullscreenenter"",""trial"":1,""time"":2014}]",NA,704.2999999970198,static/audio/instructions2.wav,NA,0,NA,NA,NA,NA,NA,NA,NA,NA,NA,NA,NA,NA,NA,NA,NA,NA,NA,NA,NA,NA,NA,NA,NA,NA,NA
audio-instructions,21,158890,0.0-5.1-2.1,voc_e2,12219,"[{""event"":""fullscreenenter"",""trial"":1,""time"":2014}]",NA,444.59999999403954,static/audio/instructions3.wav,NA,0,NA,NA,NA,NA,NA,NA,NA,NA,NA,NA,NA,NA,NA,NA,NA,NA,NA,NA,NA,NA,NA,NA,NA,NA,NA
audio-instructions,22,173103,0.0-5.1-3.1,voc_e2,12219,"[{""event"":""fullscreenenter"",""trial"":1,""time"":2014}]",NA,988.1999999880792,static/audio/instructions4.wav,NA,0,NA,NA,NA,NA,NA,NA,NA,NA,NA,NA,NA,NA,NA,NA,NA,NA,NA,NA,NA,NA,NA,NA,NA,NA,NA
audio-instructions,23,184418,0.0-5.1-4.1,voc_e2,12219,"[{""event"":""fullscreenenter"",""trial"":1,""time"":2014}]",NA,1930.79999999702,static/audio/instructions5.wav,NA,0,NA,NA,NA,NA,NA,NA,NA,NA,NA,NA,NA,NA,NA,NA,NA,NA,NA,NA,NA,NA,NA,NA,NA,NA,NA
fcp-practice,24,186549,0.0-5.1-5.1-0.1,voc_e2,12219,"[{""event"":""fullscreenenter"",""trial"":1,""time"":2014}]",NA,NA,NA,NA,NA,NA,#EDC948,#46d3c8,10,0,1,null,null,null,37,1,627.6000000089407,10,1,practice,NA,NA,NA,NA,NA,NA,NA,NA,NA,NA
fcp-practice,25,188468,0.0-5.1-5.1-1.1,voc_e2,12219,"[{""event"":""fullscreenenter"",""trial"":1,""time"":2014}]",NA,NA,NA,NA,NA,NA,#EDC948,#46d3c8,10,0,1,null,null,null,37,1,412.20000000298023,10,1,practice,NA,NA,NA,NA,NA,NA,NA,NA,NA,NA
fcp-practice,26,190339,0.0-5.1-5.1-2.1,voc_e2,12219,"[{""event"":""fullscreenenter"",""trial"":1,""time"":2014}]",NA,NA,NA,NA,NA,NA,#EDC948,#46d3c8,0,10,1,null,null,null,37,1,366.09999999403954,0,1,practice,NA,NA,NA,NA,NA,NA,NA,NA,NA,NA
fcp-practice,27,192097,0.0-5.1-5.1-3.1,voc_e2,12219,"[{""event"":""fullscreenenter"",""trial"":1,""time"":2014}]",NA,NA,NA,NA,NA,NA,#EDC948,#46d3c8,10,0,1,null,null,null,37,1,253,10,1,practice,NA,NA,NA,NA,NA,NA,NA,NA,NA,NA
fcp-practice,28,193702,0.0-5.1-5.1-4.1,voc_e2,12219,"[{""event"":""fullscreenenter"",""trial"":1,""time"":2014}]",NA,NA,NA,NA,NA,NA,#EDC948,#46d3c8,10,0,1,null,null,null,37,1,100.40000000596046,10,1,practice,NA,NA,NA,NA,NA,NA,NA,NA,NA,NA
audio-instructions,29,212546,0.0-5.1-6.1,voc_e2,12219,"[{""event"":""fullscreenenter"",""trial"":1,""time"":2014}]",NA,839.3000000119209,static/audio/instructions6.wav,NA,0,NA,NA,NA,NA,NA,NA,NA,NA,NA,NA,NA,NA,NA,NA,NA,NA,NA,NA,NA,NA,NA,NA,NA,NA,NA
audio-instructions,30,232395,0.0-5.1-7.1,voc_e2,12219,"[{""event"":""fullscreenenter"",""trial"":1,""time"":2014}]",NA,650.5,static/audio/instructions7.wav,NA,0,NA,NA,NA,NA,NA,NA,NA,NA,NA,NA,NA,NA,NA,NA,NA,NA,NA,NA,NA,NA,NA,NA,NA,NA,NA
audio-instructions,31,242807,0.0-5.1-8.1,voc_e2,12219,"[{""event"":""fullscreenenter"",""trial"":1,""time"":2014}]",NA,941.1000000089408,static/audio/instructions8.wav,NA,0,NA,NA,NA,NA,NA,NA,NA,NA,NA,NA,NA,NA,NA,NA,NA,NA,NA,NA,NA,NA,NA,NA,NA,NA,NA
fcp-comprehension,32,247603,0.0-5.1-9.1,voc_e2,12219,"[{""event"":""fullscreenenter"",""trial"":1,""time"":2014}]",NA,4794.5999999940395,NA,NA,NA,NA,NA,NA,NA,NA,NA,NA,NA,NA,NA,NA,NA,NA,NA,NA,"true,true",0,NA,NA,NA,NA,NA,NA,NA,NA
audio-instructions,33,254682,0.0-6.0-0.0,voc_e2,12219,"[{""event"":""fullscreenenter"",""trial"":1,""time"":2014}]",NA,1530.7999999970198,static/audio/instructions9.wav,NA,0,NA,NA,NA,NA,NA,NA,NA,NA,NA,NA,NA,NA,NA,NA,NA,NA,NA,NA,NA,NA,NA,NA,NA,NA,NA
audio-instructions,34,268043,0.0-6.0-1.0,voc_e2,12219,"[{""event"":""fullscreenenter"",""trial"":1,""time"":2014}]",NA,1244.5,static/audio/instructions10.wav,NA,0,NA,NA,NA,NA,NA,NA,NA,NA,NA,NA,NA,NA,NA,NA,NA,NA,NA,NA,NA,NA,NA,NA,NA,NA,NA
fcp-trial,35,272131,0.0-6.0-2.0,voc_e2,12219,"[{""event"":""fullscreenenter"",""trial"":1,""time"":2014}]",NA,NA,NA,NA,NA,0,#EDC948,#46d3c8,10,10,1,38,1,1592.2999999970198,37,1,982.5999999940396,10,1,practice,NA,NA,NA,NA,NA,NA,NA,NA,NA,NA
audio-instructions,36,284765,0.0-6.0-3.0,voc_e2,12219,"[{""event"":""fullscreenenter"",""trial"":1,""time"":2014}]",NA,1625.2000000029802,static/audio/instructions11.wav,NA,0,NA,NA,NA,NA,NA,NA,NA,NA,NA,NA,NA,NA,NA,NA,NA,NA,NA,NA,NA,NA,NA,NA,NA,NA,NA
fcp-trial,37,288849,0.0-6.0-4.0,voc_e2,12219,"[{""event"":""fullscreenenter"",""trial"":1,""time"":2014}]",NA,NA,NA,NA,NA,6,#EDC948,#46d3c8,10,10,1,40,0,1484.5999999940395,37,1,1092.2000000029802,10,1,practice,NA,NA,NA,NA,NA,NA,NA,NA,NA,NA
audio-instructions,38,308279,0.0-6.0-5.0,voc_e2,12219,"[{""event"":""fullscreenenter"",""trial"":1,""time"":2014}]",NA,740.8000000119209,static/audio/instructions12.wav,NA,0,NA,NA,NA,NA,NA,NA,NA,NA,NA,NA,NA,NA,NA,NA,NA,NA,NA,NA,NA,NA,NA,NA,NA,NA,NA
audio-instructions,39,316540,0.0-6.0-6.0,voc_e2,12219,"[{""event"":""fullscreenenter"",""trial"":1,""time"":2014}]",NA,665.5,static/audio/instructions13.wav,NA,0,NA,NA,NA,NA,NA,NA,NA,NA,NA,NA,NA,NA,NA,NA,NA,NA,NA,NA,NA,NA,NA,NA,NA,NA,NA
audio-instructions,40,325715,0.0-6.0-7.0,voc_e2,12219,"[{""event"":""fullscreenenter"",""trial"":1,""time"":2014}]",NA,726.9000000059605,static/audio/instructions14.wav,NA,0,NA,NA,NA,NA,NA,NA,NA,NA,NA,NA,NA,NA,NA,NA,NA,NA,NA,NA,NA,NA,NA,NA,NA,NA,NA
audio-instructions,41,333282,0.0-7.0-0.0,voc_e2,12219,"[{""event"":""fullscreenenter"",""trial"":1,""time"":2014}]",NA,656.3000000119209,static/audio/instructions15.wav,NA,0,NA,NA,NA,NA,NA,NA,NA,NA,NA,NA,NA,NA,NA,NA,NA,NA,NA,NA,NA,NA,NA,NA,NA,NA,NA
audio-instructions,42,340675,0.0-7.0-1.0,voc_e2,12219,"[{""event"":""fullscreenenter"",""trial"":1,""time"":2014}]",NA,566.8999999910593,static/audio/instructions16.wav,NA,0,NA,NA,NA,NA,NA,NA,NA,NA,NA,NA,NA,NA,NA,NA,NA,NA,NA,NA,NA,NA,NA,NA,NA,NA,NA
audio-instructions,43,348959,0.0-7.0-2.0,voc_e2,12219,"[{""event"":""fullscreenenter"",""trial"":1,""time"":2014}]",NA,605.6000000089407,static/audio/instructions17.wav,NA,0,NA,NA,NA,NA,NA,NA,NA,NA,NA,NA,NA,NA,NA,NA,NA,NA,NA,NA,NA,NA,NA,NA,NA,NA,NA
audio-instructions,44,357151,0.0-7.0-3.0,voc_e2,12219,"[{""event"":""fullscreenenter"",""trial"":1,""time"":2014}]",NA,429.90000000596046,static/audio/instructions18.wav,NA,0,NA,NA,NA,NA,NA,NA,NA,NA,NA,NA,NA,NA,NA,NA,NA,NA,NA,NA,NA,NA,NA,NA,NA,NA,NA
audio-instructions,45,364494,0.0-7.0-4.0,voc_e2,12219,"[{""event"":""fullscreenenter"",""trial"":1,""time"":2014}]",NA,605.3000000119209,static/audio/instructions19.wav,NA,0,NA,NA,NA,NA,NA,NA,NA,NA,NA,NA,NA,NA,NA,NA,NA,NA,NA,NA,NA,NA,NA,NA,NA,NA,NA
fcp-comprehension,46,375112,0.0-7.0-5.0,voc_e2,12219,"[{""event"":""fullscreenenter"",""trial"":1,""time"":2014}]",NA,10616.70000000298,NA,NA,NA,NA,NA,NA,NA,NA,NA,NA,NA,NA,NA,NA,NA,NA,NA,NA,"false,false,false,true",0,NA,NA,NA,NA,NA,NA,NA,NA
audio-instructions,47,386000,0.0-8.0,voc_e2,12219,"[{""event"":""fullscreenenter"",""trial"":1,""time"":2014}]",NA,1669.0999999940395,static/audio/ready.wav,NA,0,NA,NA,NA,NA,NA,NA,NA,NA,NA,NA,NA,NA,NA,NA,NA,NA,NA,NA,NA,NA,NA,NA,NA,NA,NA
fcp-trial,48,390267,0.0-9.0-0.0,voc_e2,12219,"[{""event"":""fullscreenenter"",""trial"":1,""time"":2014}]",NA,NA,NA,NA,NA,3,#FA92F8,#1CD855,0,0,0,40,0,2079.2999999970198,37,1,679.7999999970198,0,0,experiment,NA,NA,1,0.3,0.7,3,2,1,1,NA
fcp-trial,49,394971,0.0-10.0-0.0,voc_e2,12219,"[{""event"":""fullscreenenter"",""trial"":1,""time"":2014}]",NA,NA,NA,NA,NA,1,#741CD8,#D8271C,0,10,0,40,0,2283.5,39,0,914.5,10,1,experiment,NA,NA,0,0.1,0.9,1,0,2,1,NA
fcp-trial,50,398972,0.0-11.0-0.0,voc_e2,12219,"[{""event"":""fullscreenenter"",""trial"":1,""time"":2014}]",NA,NA,NA,NA,NA,4,#FA92F8,#1CD855,0,10,0,40,0,1836.4000000059605,39,0,658.3999999910593,10,1,experiment,NA,NA,1,0.3,0.7,3,2,3,1,NA
fcp-trial,51,402668,0.0-12.0-0.0,voc_e2,12219,"[{""event"":""fullscreenenter"",""trial"":1,""time"":2014}]",NA,NA,NA,NA,NA,2,#D89F1C,#3386FF,10,10,0,40,0,1536.2000000029802,37,1,652.9000000059605,10,0,experiment,NA,NA,2,0.5,0.5,5,4,4,1,NA
fcp-trial,52,406503,0.0-13.0-0.0,voc_e2,12219,"[{""event"":""fullscreenenter"",""trial"":1,""time"":2014}]",NA,NA,NA,NA,NA,5,#1CD855,#FA92F8,10,10,1,40,0,1597.5,37,1,732.5999999940395,10,1,experiment,NA,NA,1,0.7,0.3,2,3,5,1,NA
fcp-trial,53,410055,0.0-14.0-0.0,voc_e2,12219,"[{""event"":""fullscreenenter"",""trial"":1,""time"":2014}]",NA,NA,NA,NA,NA,5,#741CD8,#D8271C,0,10,0,40,0,1212.6000000089407,37,1,834.0999999940395,0,0,experiment,NA,NA,0,0.1,0.9,1,0,6,1,NA
fcp-trial,54,414187,0.0-15.0-0.0,voc_e2,12219,"[{""event"":""fullscreenenter"",""trial"":1,""time"":2014}]",NA,NA,NA,NA,NA,5,#D89F1C,#3386FF,10,10,0,40,0,1111,37,1,1516.2999999970198,10,0,experiment,NA,NA,2,0.5,0.5,5,4,7,1,NA
fcp-trial,55,420749,0.0-16.0-0.0,voc_e2,12219,"[{""event"":""fullscreenenter"",""trial"":1,""time"":2014}]",NA,NA,NA,NA,NA,0,#741CD8,#D8271C,0,10,0,38,1,3571.8999999910593,39,0,1485.2999999970198,10,1,experiment,NA,NA,0,0.1,0.9,1,0,8,1,NA
fcp-trial,56,425475,0.0-17.0-0.0,voc_e2,12219,"[{""event"":""fullscreenenter"",""trial"":1,""time"":2014}]",NA,NA,NA,NA,NA,3,#741CD8,#D8271C,0,10,0,40,0,2585.5,39,0,633.7000000029802,10,1,experiment,NA,NA,0,0.1,0.9,1,0,9,1,NA
fcp-trial,57,430536,0.0-18.0-0.0,voc_e2,12219,"[{""event"":""fullscreenenter"",""trial"":1,""time"":2014}]",NA,NA,NA,NA,NA,0,#FA92F8,#1CD855,10,10,0,38,1,2293.8999999910593,39,0,1259.6000000089407,10,1,experiment,NA,NA,1,0.3,0.7,3,2,10,1,NA
fcp-trial,58,435103,0.0-19.0-0.0,voc_e2,12219,"[{""event"":""fullscreenenter"",""trial"":1,""time"":2014}]",NA,NA,NA,NA,NA,4,#3386FF,#D89F1C,0,10,1,40,0,2328.2000000029802,37,1,731.6999999880791,0,1,experiment,NA,NA,2,0.5,0.5,4,5,11,1,NA
fcp-trial,59,440153,0.0-20.0-0.0,voc_e2,12219,"[{""event"":""fullscreenenter"",""trial"":1,""time"":2014}]",NA,NA,NA,NA,NA,2,#D8271C,#741CD8,10,0,1,38,1,3063.7000000029802,37,1,481.29999999701977,10,1,experiment,NA,NA,0,0.9,0.1,0,1,12,1,NA
fcp-trial,60,445042,0.0-21.0-0.0,voc_e2,12219,"[{""event"":""fullscreenenter"",""trial"":1,""time"":2014}]",NA,NA,NA,NA,NA,1,#1CD855,#FA92F8,10,0,1,38,1,2041.4000000059605,37,1,1340.7000000029802,10,1,experiment,NA,NA,1,0.7,0.3,2,3,13,1,NA
fcp-trial,61,448468,0.0-22.0-0.0,voc_e2,12219,"[{""event"":""fullscreenenter"",""trial"":1,""time"":2014}]",NA,NA,NA,NA,NA,4,#741CD8,#D8271C,0,10,0,38,1,1321.6000000089407,39,0,597.5,10,1,experiment,NA,NA,0,0.1,0.9,1,0,14,1,NA
fcp-trial,62,451619,0.0-23.0-0.0,voc_e2,12219,"[{""event"":""fullscreenenter"",""trial"":1,""time"":2014}]",NA,NA,NA,NA,NA,6,#1CD855,#FA92F8,10,10,1,38,1,846.0999999940395,37,1,799.2000000029802,10,1,experiment,NA,NA,1,0.7,0.3,2,3,15,1,NA
fcp-trial,63,457133,0.0-24.0-0.0,voc_e2,12219,"[{""event"":""fullscreenenter"",""trial"":1,""time"":2014}]",NA,NA,NA,NA,NA,3,#D89F1C,#3386FF,10,0,0,40,0,3253.8999999910593,39,0,754.9000000059605,0,1,experiment,NA,NA,2,0.5,0.5,5,4,16,1,NA
fcp-trial,64,462272,0.0-25.0-0.0,voc_e2,12219,"[{""event"":""fullscreenenter"",""trial"":1,""time"":2014}]",NA,NA,NA,NA,NA,2,#1CD855,#FA92F8,0,0,1,38,1,2948.800000011921,37,1,684.3999999910593,0,1,experiment,NA,NA,1,0.7,0.3,2,3,17,1,NA
fcp-trial,65,465540,0.0-26.0-0.0,voc_e2,12219,"[{""event"":""fullscreenenter"",""trial"":1,""time"":2014}]",NA,NA,NA,NA,NA,1,#D89F1C,#3386FF,10,0,0,38,1,1186.2000000029802,37,1,574.6999999880791,10,0,experiment,NA,NA,2,0.5,0.5,5,4,18,1,NA
fcp-trial,66,468841,0.0-27.0-0.0,voc_e2,12219,"[{""event"":""fullscreenenter"",""trial"":1,""time"":2014}]",NA,NA,NA,NA,NA,6,#741CD8,#D8271C,0,10,0,38,1,1133,39,0,660.3999999910593,10,1,experiment,NA,NA,0,0.1,0.9,1,0,19,1,NA
fcp-trial,67,473806,0.0-28.0-0.0,voc_e2,12219,"[{""event"":""fullscreenenter"",""trial"":1,""time"":2014}]",NA,NA,NA,NA,NA,0,#3386FF,#D89F1C,10,10,1,38,1,2472.2000000029802,39,0,985,10,0,experiment,NA,NA,2,0.5,0.5,4,5,20,1,NA
fcp-trial,68,478802,0.0-29.0-0.0,voc_e2,12219,"[{""event"":""fullscreenenter"",""trial"":1,""time"":2014}]",NA,NA,NA,NA,NA,6,#D89F1C,#3386FF,0,0,0,38,1,2956.2000000029802,37,1,532.3000000119209,0,0,experiment,NA,NA,2,0.5,0.5,5,4,21,1,NA
fcp-trial,69,482935,0.0-30.0-0.0,voc_e2,12219,"[{""event"":""fullscreenenter"",""trial"":1,""time"":2014}]",NA,NA,NA,NA,NA,6,#741CD8,#D8271C,0,10,0,38,1,2142.2000000029802,39,0,484.79999999701977,10,1,experiment,NA,NA,0,0.1,0.9,1,0,22,1,NA
fcp-trial,70,487479,0.0-31.0-0.0,voc_e2,12219,"[{""event"":""fullscreenenter"",""trial"":1,""time"":2014}]",NA,NA,NA,NA,NA,3,#3386FF,#D89F1C,0,10,1,38,1,2334.2999999970198,39,0,702.5999999940395,10,0,experiment,NA,NA,2,0.5,0.5,4,5,23,1,NA
fcp-trial,71,490210,0.0-32.0-0.0,voc_e2,12219,"[{""event"":""fullscreenenter"",""trial"":1,""time"":2014}]",NA,NA,NA,NA,NA,5,#FA92F8,#1CD855,0,10,0,38,1,627.0999999940395,39,0,598,10,1,experiment,NA,NA,1,0.3,0.7,3,2,24,1,NA
fcp-trial,72,493061,0.0-33.0-0.0,voc_e2,12219,"[{""event"":""fullscreenenter"",""trial"":1,""time"":2014}]",NA,NA,NA,NA,NA,1,#D89F1C,#3386FF,0,10,0,38,1,717.7999999970198,37,1,624.6999999880791,0,0,experiment,NA,NA,2,0.5,0.5,5,4,25,1,NA
fcp-trial,73,496150,0.0-34.0-0.0,voc_e2,12219,"[{""event"":""fullscreenenter"",""trial"":1,""time"":2014}]",NA,NA,NA,NA,NA,1,#D8271C,#741CD8,10,0,1,38,1,836,37,1,747.4000000059605,10,1,experiment,NA,NA,0,0.9,0.1,0,1,26,1,NA
fcp-trial,74,500234,0.0-35.0-0.0,voc_e2,12219,"[{""event"":""fullscreenenter"",""trial"":1,""time"":2014}]",NA,NA,NA,NA,NA,1,#FA92F8,#1CD855,0,10,0,38,1,1793.3999999910593,39,0,784.7999999970198,10,1,experiment,NA,NA,1,0.3,0.7,3,2,27,1,NA
fcp-trial,75,503603,0.0-36.0-0.0,voc_e2,12219,"[{""event"":""fullscreenenter"",""trial"":1,""time"":2014}]",NA,NA,NA,NA,NA,4,#3386FF,#D89F1C,10,10,1,40,0,1212.2999999970198,39,0,649.7000000029802,10,0,experiment,NA,NA,2,0.5,0.5,4,5,28,1,NA
fcp-trial,76,508385,0.0-37.0-0.0,voc_e2,12219,"[{""event"":""fullscreenenter"",""trial"":1,""time"":2014}]",NA,NA,NA,NA,NA,3,#1CD855,#FA92F8,0,10,1,38,1,2818.4000000059605,37,1,455.40000000596046,0,1,experiment,NA,NA,1,0.7,0.3,2,3,29,1,NA
fcp-trial,77,511377,0.0-38.0-0.0,voc_e2,12219,"[{""event"":""fullscreenenter"",""trial"":1,""time"":2014}]",NA,NA,NA,NA,NA,2,#FA92F8,#1CD855,0,10,0,38,1,854.8999999910593,39,0,629.8999999910593,10,1,experiment,NA,NA,1,0.3,0.7,3,2,30,1,NA
fcp-trial,78,514198,0.0-39.0-0.0,voc_e2,12219,"[{""event"":""fullscreenenter"",""trial"":1,""time"":2014}]",NA,NA,NA,NA,NA,5,#741CD8,#D8271C,10,10,0,38,1,633.3000000119209,39,0,680.9000000059605,10,1,experiment,NA,NA,0,0.1,0.9,1,0,31,1,NA
fcp-trial,79,517506,0.0-40.0-0.0,voc_e2,12219,"[{""event"":""fullscreenenter"",""trial"":1,""time"":2014}]",NA,NA,NA,NA,NA,6,#FA92F8,#1CD855,10,0,0,38,1,1165,39,0,637.4000000059605,0,1,experiment,NA,NA,1,0.3,0.7,3,2,32,1,NA
fcp-trial,80,520751,0.0-41.0-0.0,voc_e2,12219,"[{""event"":""fullscreenenter"",""trial"":1,""time"":2014}]",NA,NA,NA,NA,NA,5,#D89F1C,#3386FF,10,0,0,38,1,419.70000000298023,37,1,1319.0999999940395,10,0,experiment,NA,NA,2,0.5,0.5,5,4,33,1,NA
fcp-trial,81,526208,0.0-42.0-0.0,voc_e2,12219,"[{""event"":""fullscreenenter"",""trial"":1,""time"":2014}]",NA,NA,NA,NA,NA,0,#D8271C,#741CD8,10,0,1,38,1,2094.5999999940395,37,1,1854.3999999910593,10,1,experiment,NA,NA,0,0.9,0.1,0,1,34,1,NA
fcp-trial,82,529276,0.0-43.0-0.0,voc_e2,12219,"[{""event"":""fullscreenenter"",""trial"":1,""time"":2014}]",NA,NA,NA,NA,NA,0,#FA92F8,#1CD855,10,10,0,38,1,1025.5999999940395,39,0,535.8000000119209,10,1,experiment,NA,NA,1,0.3,0.7,3,2,35,1,NA
fcp-trial,83,532816,0.0-44.0-0.0,voc_e2,12219,"[{""event"":""fullscreenenter"",""trial"":1,""time"":2014}]",NA,NA,NA,NA,NA,4,#741CD8,#D8271C,0,10,0,38,1,1435,39,0,598.4000000059605,10,1,experiment,NA,NA,0,0.1,0.9,1,0,36,1,NA
fcp-trial,84,538167,0.0-45.0-0.0,voc_e2,12219,"[{""event"":""fullscreenenter"",""trial"":1,""time"":2014}]",NA,NA,NA,NA,NA,0,#D89F1C,#3386FF,0,0,0,40,0,3228.7999999970198,37,1,617.2000000029802,0,0,experiment,NA,NA,2,0.5,0.5,5,4,37,1,NA
fcp-trial,85,542750,0.0-46.0-0.0,voc_e2,12219,"[{""event"":""fullscreenenter"",""trial"":1,""time"":2014}]",NA,NA,NA,NA,NA,4,#FA92F8,#1CD855,10,10,0,38,1,2591.800000011921,39,0,485,10,1,experiment,NA,NA,1,0.3,0.7,3,2,38,1,NA
fcp-trial,86,547201,0.0-47.0-0.0,voc_e2,12219,"[{""event"":""fullscreenenter"",""trial"":1,""time"":2014}]",NA,NA,NA,NA,NA,2,#3386FF,#D89F1C,0,0,1,40,0,1594.0999999940395,37,1,1350.4000000059605,0,1,experiment,NA,NA,2,0.5,0.5,4,5,39,1,NA
fcp-trial,87,551115,0.0-48.0-0.0,voc_e2,12219,"[{""event"":""fullscreenenter"",""trial"":1,""time"":2014}]",NA,NA,NA,NA,NA,6,#3386FF,#D89F1C,10,0,1,40,0,1707.0999999940395,37,1,701.2999999970198,10,1,experiment,NA,NA,2,0.5,0.5,4,5,40,1,NA
fcp-trial,88,554980,0.0-49.0-0.0,voc_e2,12219,"[{""event"":""fullscreenenter"",""trial"":1,""time"":2014}]",NA,NA,NA,NA,NA,2,#D8271C,#741CD8,10,0,1,38,1,1909.0999999940395,37,1,450.79999999701977,10,1,experiment,NA,NA,0,0.9,0.1,0,1,41,1,NA
fcp-trial,89,558365,0.0-50.0-0.0,voc_e2,12219,"[{""event"":""fullscreenenter"",""trial"":1,""time"":2014}]",NA,NA,NA,NA,NA,3,#D8271C,#741CD8,10,0,1,38,1,1285.5999999940395,37,1,594,10,1,experiment,NA,NA,0,0.9,0.1,0,1,42,1,NA
fcp-trial,90,562565,0.0-51.0-0.0,voc_e2,12219,"[{""event"":""fullscreenenter"",""trial"":1,""time"":2014}]",NA,NA,NA,NA,NA,6,#FA92F8,#1CD855,0,10,0,38,1,1729.0999999940395,39,0,965.1000000089408,10,1,experiment,NA,NA,1,0.3,0.7,3,2,43,1,NA
fcp-trial,91,566016,0.0-52.0-0.0,voc_e2,12219,"[{""event"":""fullscreenenter"",""trial"":1,""time"":2014}]",NA,NA,NA,NA,NA,4,#D8271C,#741CD8,10,0,1,38,1,1317.2999999970198,37,1,627,10,1,experiment,NA,NA,0,0.9,0.1,0,1,44,1,NA
fcp-trial,92,569172,0.0-53.0-0.0,voc_e2,12219,"[{""event"":""fullscreenenter"",""trial"":1,""time"":2014}]",NA,NA,NA,NA,NA,1,#FA92F8,#1CD855,0,10,0,38,1,1080.8999999910593,39,0,566.8999999910593,10,1,experiment,NA,NA,1,0.3,0.7,3,2,45,1,NA
fcp-trial,93,572448,0.0-54.0-0.0,voc_e2,12219,"[{""event"":""fullscreenenter"",""trial"":1,""time"":2014}]",NA,NA,NA,NA,NA,5,#D8271C,#741CD8,10,0,1,38,1,1037.7999999970198,37,1,732.0999999940395,10,1,experiment,NA,NA,0,0.9,0.1,0,1,46,2,NA
fcp-trial,94,576793,0.0-55.0-0.0,voc_e2,12219,"[{""event"":""fullscreenenter"",""trial"":1,""time"":2014}]",NA,NA,NA,NA,NA,2,#1CD855,#FA92F8,10,0,1,38,1,1775.699999988079,37,1,1062,10,1,experiment,NA,NA,1,0.7,0.3,2,3,47,2,NA
fcp-trial,95,580239,0.0-56.0-0.0,voc_e2,12219,"[{""event"":""fullscreenenter"",""trial"":1,""time"":2014}]",NA,NA,NA,NA,NA,6,#D89F1C,#3386FF,10,10,0,40,0,1147.0999999940395,39,0,717.7999999970198,10,1,experiment,NA,NA,2,0.5,0.5,5,4,48,2,NA
fcp-trial,96,584807,0.0-57.0-0.0,voc_e2,12219,"[{""event"":""fullscreenenter"",""trial"":1,""time"":2014}]",NA,NA,NA,NA,NA,6,#741CD8,#D8271C,0,10,0,38,1,2345.0999999940395,39,0,715.2000000029802,10,1,experiment,NA,NA,0,0.1,0.9,1,0,49,2,NA
fcp-trial,97,590140,0.0-58.0-0.0,voc_e2,12219,"[{""event"":""fullscreenenter"",""trial"":1,""time"":2014}]",NA,NA,NA,NA,NA,1,#D89F1C,#3386FF,0,0,0,40,0,3010.2000000029802,39,0,817.9000000059605,0,1,experiment,NA,NA,2,0.5,0.5,5,4,50,2,NA
fcp-trial,98,594086,0.0-59.0-0.0,voc_e2,12219,"[{""event"":""fullscreenenter"",""trial"":1,""time"":2014}]",NA,NA,NA,NA,NA,3,#1CD855,#FA92F8,10,0,1,38,1,1940.8999999910593,37,1,500.5,10,1,experiment,NA,NA,1,0.7,0.3,2,3,51,2,NA
fcp-trial,99,599405,0.0-60.0-0.0,voc_e2,12219,"[{""event"":""fullscreenenter"",""trial"":1,""time"":2014}]",NA,NA,NA,NA,NA,3,#3386FF,#D89F1C,10,10,1,40,0,2216.3999999910593,39,0,1596.5999999940395,10,0,experiment,NA,NA,2,0.5,0.5,4,5,52,2,NA
fcp-trial,100,603126,0.0-61.0-0.0,voc_e2,12219,"[{""event"":""fullscreenenter"",""trial"":1,""time"":2014}]",NA,NA,NA,NA,NA,3,#D8271C,#741CD8,10,0,1,38,1,1479,37,1,736.7999999970198,10,1,experiment,NA,NA,0,0.9,0.1,0,1,53,2,NA
fcp-trial,101,607216,0.0-62.0-0.0,voc_e2,12219,"[{""event"":""fullscreenenter"",""trial"":1,""time"":2014}]",NA,NA,NA,NA,NA,2,#3386FF,#D89F1C,10,0,1,38,1,1494.5,39,0,1089.1000000089407,0,0,experiment,NA,NA,2,0.5,0.5,4,5,54,2,NA
fcp-trial,102,612556,0.0-63.0-0.0,voc_e2,12219,"[{""event"":""fullscreenenter"",""trial"":1,""time"":2014}]",NA,NA,NA,NA,NA,5,#1CD855,#FA92F8,0,10,1,38,1,950.0999999940395,37,1,2881.6000000089407,0,1,experiment,NA,NA,1,0.7,0.3,2,3,55,2,NA
fcp-trial,103,615641,0.0-64.0-0.0,voc_e2,12219,"[{""event"":""fullscreenenter"",""trial"":1,""time"":2014}]",NA,NA,NA,NA,NA,0,#D8271C,#741CD8,10,0,1,38,1,950.8000000119209,37,1,626.9000000059605,10,1,experiment,NA,NA,0,0.9,0.1,0,1,56,2,NA
fcp-trial,104,619971,0.0-65.0-0.0,voc_e2,12219,"[{""event"":""fullscreenenter"",""trial"":1,""time"":2014}]",NA,NA,NA,NA,NA,4,#3386FF,#D89F1C,0,0,1,38,1,1513.7000000029802,39,0,1310.0999999940395,0,0,experiment,NA,NA,2,0.5,0.5,4,5,57,2,NA
fcp-trial,105,623984,0.0-66.0-0.0,voc_e2,12219,"[{""event"":""fullscreenenter"",""trial"":1,""time"":2014}]",NA,NA,NA,NA,NA,2,#D8271C,#741CD8,10,0,1,38,1,1431,37,1,1076.7000000029802,10,1,experiment,NA,NA,0,0.9,0.1,0,1,58,2,NA
fcp-trial,106,627138,0.0-67.0-0.0,voc_e2,12219,"[{""event"":""fullscreenenter"",""trial"":1,""time"":2014}]",NA,NA,NA,NA,NA,5,#D89F1C,#3386FF,10,0,0,40,0,996.4000000059605,37,1,651.9000000059605,10,0,experiment,NA,NA,2,0.5,0.5,5,4,59,2,NA
fcp-trial,107,630931,0.0-68.0-0.0,voc_e2,12219,"[{""event"":""fullscreenenter"",""trial"":1,""time"":2014}]",NA,NA,NA,NA,NA,0,#FA92F8,#1CD855,0,10,0,38,1,1590.2999999970198,39,0,697,10,1,experiment,NA,NA,1,0.3,0.7,3,2,60,2,NA
fcp-trial,108,637874,0.0-69.0-0.0,voc_e2,12219,"[{""event"":""fullscreenenter"",""trial"":1,""time"":2014}]",NA,NA,NA,NA,NA,0,#D89F1C,#3386FF,0,10,0,38,1,3547.2999999970198,37,1,1886.29999999702,0,0,experiment,NA,NA,2,0.5,0.5,5,4,61,2,NA
fcp-trial,109,643360,0.0-70.0-0.0,voc_e2,12219,"[{""event"":""fullscreenenter"",""trial"":1,""time"":2014}]",NA,NA,NA,NA,NA,4,#1CD855,#FA92F8,0,10,1,38,1,3447,37,1,531.5999999940395,0,1,experiment,NA,NA,1,0.7,0.3,2,3,62,2,NA
fcp-trial,110,647235,0.0-71.0-0.0,voc_e2,12219,"[{""event"":""fullscreenenter"",""trial"":1,""time"":2014}]",NA,NA,NA,NA,NA,1,#D8271C,#741CD8,10,0,1,38,1,1293.7999999970198,37,1,1075.7000000029802,10,1,experiment,NA,NA,0,0.9,0.1,0,1,63,2,NA
fcp-trial,111,651108,0.0-72.0-0.0,voc_e2,12219,"[{""event"":""fullscreenenter"",""trial"":1,""time"":2014}]",NA,NA,NA,NA,NA,6,#3386FF,#D89F1C,0,0,1,40,0,1672.4000000059605,39,0,693.1000000089407,0,0,experiment,NA,NA,2,0.5,0.5,4,5,64,2,NA
fcp-trial,112,654269,0.0-73.0-0.0,voc_e2,12219,"[{""event"":""fullscreenenter"",""trial"":1,""time"":2014}]",NA,NA,NA,NA,NA,3,#FA92F8,#1CD855,0,10,0,38,1,852.5,39,0,803.2000000029802,10,1,experiment,NA,NA,1,0.3,0.7,3,2,65,2,NA
fcp-trial,113,657472,0.0-74.0-0.0,voc_e2,12219,"[{""event"":""fullscreenenter"",""trial"":1,""time"":2014}]",NA,NA,NA,NA,NA,5,#1CD855,#FA92F8,10,10,1,38,1,1094.7000000029802,37,1,603,10,1,experiment,NA,NA,1,0.7,0.3,2,3,66,2,NA
fcp-trial,114,661098,0.0-75.0-0.0,voc_e2,12219,"[{""event"":""fullscreenenter"",""trial"":1,""time"":2014}]",NA,NA,NA,NA,NA,0,#741CD8,#D8271C,0,10,0,38,1,1481.7999999970198,39,0,637.1000000089407,10,1,experiment,NA,NA,0,0.1,0.9,1,0,67,2,NA
fcp-trial,115,664238,0.0-76.0-0.0,voc_e2,12219,"[{""event"":""fullscreenenter"",""trial"":1,""time"":2014}]",NA,NA,NA,NA,NA,1,#D8271C,#741CD8,10,0,1,38,1,1064.2999999970198,37,1,567.5999999940395,10,1,experiment,NA,NA,0,0.9,0.1,0,1,68,2,NA
fcp-trial,116,668538,0.0-77.0-0.0,voc_e2,12219,"[{""event"":""fullscreenenter"",""trial"":1,""time"":2014}]",NA,NA,NA,NA,NA,4,#D89F1C,#3386FF,0,10,0,40,0,2216.4000000059605,39,0,577.0999999940395,10,1,experiment,NA,NA,2,0.5,0.5,5,4,69,2,NA
fcp-trial,117,671971,0.0-78.0-0.0,voc_e2,12219,"[{""event"":""fullscreenenter"",""trial"":1,""time"":2014}]",NA,NA,NA,NA,NA,4,#FA92F8,#1CD855,0,10,0,38,1,1028.800000011921,39,0,899.3000000119209,10,1,experiment,NA,NA,1,0.3,0.7,3,2,70,2,NA
fcp-trial,118,675956,0.0-79.0-0.0,voc_e2,12219,"[{""event"":""fullscreenenter"",""trial"":1,""time"":2014}]",NA,NA,NA,NA,NA,1,#D89F1C,#3386FF,0,0,0,38,1,1962.8999999910593,39,0,515.2999999970198,0,1,experiment,NA,NA,2,0.5,0.5,5,4,71,2,NA
fcp-trial,119,679618,0.0-80.0-0.0,voc_e2,12219,"[{""event"":""fullscreenenter"",""trial"":1,""time"":2014}]",NA,NA,NA,NA,NA,6,#D8271C,#741CD8,10,0,1,38,1,1659.3999999910593,37,1,497.6000000089407,10,1,experiment,NA,NA,0,0.9,0.1,0,1,72,2,NA
fcp-trial,120,683492,0.0-81.0-0.0,voc_e2,12219,"[{""event"":""fullscreenenter"",""trial"":1,""time"":2014}]",NA,NA,NA,NA,NA,5,#3386FF,#D89F1C,10,10,1,40,0,1715,37,1,653.7000000029802,10,1,experiment,NA,NA,2,0.5,0.5,4,5,73,2,NA
fcp-trial,121,688170,0.0-82.0-0.0,voc_e2,12219,"[{""event"":""fullscreenenter"",""trial"":1,""time"":2014}]",NA,NA,NA,NA,NA,2,#1CD855,#FA92F8,10,0,1,38,1,2562.0999999940395,37,1,607.6999999880791,10,1,experiment,NA,NA,1,0.7,0.3,2,3,74,2,NA
fcp-trial,122,691123,0.0-83.0-0.0,voc_e2,12219,"[{""event"":""fullscreenenter"",""trial"":1,""time"":2014}]",NA,NA,NA,NA,NA,2,#D8271C,#741CD8,10,0,1,38,1,780,37,1,669,10,1,experiment,NA,NA,0,0.9,0.1,0,1,75,2,NA
fcp-trial,123,694172,0.0-84.0-0.0,voc_e2,12219,"[{""event"":""fullscreenenter"",""trial"":1,""time"":2014}]",NA,NA,NA,NA,NA,4,#741CD8,#D8271C,0,0,0,38,1,1027.199999988079,39,0,514.1000000089407,0,1,experiment,NA,NA,0,0.1,0.9,1,0,76,2,NA
fcp-trial,124,696981,0.0-85.0-0.0,voc_e2,12219,"[{""event"":""fullscreenenter"",""trial"":1,""time"":2014}]",NA,NA,NA,NA,NA,1,#1CD855,#FA92F8,10,0,1,38,1,807.2999999970198,37,1,495,10,1,experiment,NA,NA,1,0.7,0.3,2,3,77,2,NA
fcp-trial,125,702304,0.0-86.0-0.0,voc_e2,12219,"[{""event"":""fullscreenenter"",""trial"":1,""time"":2014}]",NA,NA,NA,NA,NA,0,#3386FF,#D89F1C,10,0,1,38,1,1814.6000000089407,37,1,2000.5,10,1,experiment,NA,NA,2,0.5,0.5,4,5,78,2,NA
fcp-trial,126,705337,0.0-87.0-0.0,voc_e2,12219,"[{""event"":""fullscreenenter"",""trial"":1,""time"":2014}]",NA,NA,NA,NA,NA,2,#D89F1C,#3386FF,10,0,0,38,1,925.3000000119209,39,0,601.4000000059605,0,1,experiment,NA,NA,2,0.5,0.5,5,4,79,2,NA
fcp-trial,127,708454,0.0-88.0-0.0,voc_e2,12219,"[{""event"":""fullscreenenter"",""trial"":1,""time"":2014}]",NA,NA,NA,NA,NA,5,#741CD8,#D8271C,0,10,0,38,1,996.9000000059605,39,0,613.8999999910593,10,1,experiment,NA,NA,0,0.1,0.9,1,0,80,2,NA
fcp-trial,128,712841,0.0-89.0-0.0,voc_e2,12219,"[{""event"":""fullscreenenter"",""trial"":1,""time"":2014}]",NA,NA,NA,NA,NA,0,#1CD855,#FA92F8,10,0,1,38,1,1299.2000000029802,37,1,1581.800000011921,10,1,experiment,NA,NA,1,0.7,0.3,2,3,81,2,NA
fcp-trial,129,717320,0.0-90.0-0.0,voc_e2,12219,"[{""event"":""fullscreenenter"",""trial"":1,""time"":2014}]",NA,NA,NA,NA,NA,3,#D8271C,#741CD8,10,0,1,38,1,1795.3999999910593,37,1,1177.4000000059605,10,1,experiment,NA,NA,0,0.9,0.1,0,1,82,2,NA
fcp-trial,130,720387,0.0-91.0-0.0,voc_e2,12219,"[{""event"":""fullscreenenter"",""trial"":1,""time"":2014}]",NA,NA,NA,NA,NA,6,#1CD855,#FA92F8,10,0,1,38,1,893.2000000029802,37,1,669.2999999970198,10,1,experiment,NA,NA,1,0.7,0.3,2,3,83,2,NA
fcp-trial,131,723348,0.0-92.0-0.0,voc_e2,12219,"[{""event"":""fullscreenenter"",""trial"":1,""time"":2014}]",NA,NA,NA,NA,NA,3,#D89F1C,#3386FF,0,0,0,40,0,879.2000000029802,39,0,575.7000000029802,0,1,experiment,NA,NA,2,0.5,0.5,5,4,84,2,NA
fcp-trial,132,727217,0.0-93.0-0.0,voc_e2,12219,"[{""event"":""fullscreenenter"",""trial"":1,""time"":2014}]",NA,NA,NA,NA,NA,3,#741CD8,#D8271C,0,10,0,38,1,1707.3999999910593,39,0,655.0999999940395,10,1,experiment,NA,NA,0,0.1,0.9,1,0,85,2,NA
fcp-trial,133,730859,0.0-94.0-0.0,voc_e2,12219,"[{""event"":""fullscreenenter"",""trial"":1,""time"":2014}]",NA,NA,NA,NA,NA,2,#3386FF,#D89F1C,0,0,1,40,0,1607.7999999970198,37,1,527,0,1,experiment,NA,NA,2,0.5,0.5,4,5,86,2,NA
fcp-trial,134,734809,0.0-95.0-0.0,voc_e2,12219,"[{""event"":""fullscreenenter"",""trial"":1,""time"":2014}]",NA,NA,NA,NA,NA,5,#1CD855,#FA92F8,10,10,1,38,1,1988.3999999910593,37,1,453.199999988079,10,1,experiment,NA,NA,1,0.7,0.3,2,3,87,2,NA
fcp-trial,135,740336,0.0-96.0-0.0,voc_e2,12219,"[{""event"":""fullscreenenter"",""trial"":1,""time"":2014}]",NA,NA,NA,NA,NA,3,#3386FF,#D89F1C,10,0,1,40,0,3475,39,0,545,0,0,experiment,NA,NA,2,0.5,0.5,4,5,88,2,NA
fcp-trial,136,744020,0.0-97.0-0.0,voc_e2,12219,"[{""event"":""fullscreenenter"",""trial"":1,""time"":2014}]",NA,NA,NA,NA,NA,3,#1CD855,#FA92F8,10,0,1,38,1,1662.2000000029802,37,1,516.7999999970198,10,1,experiment,NA,NA,1,0.7,0.3,2,3,89,2,NA
fcp-trial,137,747118,0.0-98.0-0.0,voc_e2,12219,"[{""event"":""fullscreenenter"",""trial"":1,""time"":2014}]",NA,NA,NA,NA,NA,2,#D8271C,#741CD8,10,0,1,38,1,913.3999999910593,37,1,678.6000000089407,10,1,experiment,NA,NA,0,0.9,0.1,0,1,90,2,NA
fcp-trial,138,750330,0.0-99.0-0.0,voc_e2,12219,"[{""event"":""fullscreenenter"",""trial"":1,""time"":2014}]",NA,NA,NA,NA,NA,4,#741CD8,#D8271C,0,10,0,38,1,1180.6000000089407,39,0,526.2000000029802,10,1,experiment,NA,NA,0,0.1,0.9,1,0,91,3,NA
fcp-trial,139,753939,0.0-100.0-0.0,voc_e2,12219,"[{""event"":""fullscreenenter"",""trial"":1,""time"":2014}]",NA,NA,NA,NA,NA,6,#D89F1C,#3386FF,0,0,0,40,0,1398.300000011921,39,0,704.5,0,1,experiment,NA,NA,2,0.5,0.5,5,4,92,3,NA
fcp-trial,140,757870,0.0-101.0-0.0,voc_e2,12219,"[{""event"":""fullscreenenter"",""trial"":1,""time"":2014}]",NA,NA,NA,NA,NA,1,#1CD855,#FA92F8,10,0,1,38,1,1363.4000000059605,37,1,1061.4000000059605,10,1,experiment,NA,NA,1,0.7,0.3,2,3,93,3,NA
fcp-trial,141,761628,0.0-102.0-0.0,voc_e2,12219,"[{""event"":""fullscreenenter"",""trial"":1,""time"":2014}]",NA,NA,NA,NA,NA,0,#FA92F8,#1CD855,0,10,0,38,1,1815.7999999970198,39,0,435.29999999701977,10,1,experiment,NA,NA,1,0.3,0.7,3,2,94,3,NA
fcp-trial,142,764872,0.0-103.0-0.0,voc_e2,12219,"[{""event"":""fullscreenenter"",""trial"":1,""time"":2014}]",NA,NA,NA,NA,NA,6,#D8271C,#741CD8,10,0,1,38,1,1218.2999999970198,37,1,517.5999999940395,10,1,experiment,NA,NA,0,0.9,0.1,0,1,95,3,NA
fcp-trial,143,769840,0.0-104.0-0.0,voc_e2,12219,"[{""event"":""fullscreenenter"",""trial"":1,""time"":2014}]",NA,NA,NA,NA,NA,0,#D89F1C,#3386FF,10,10,0,40,0,2913.5,39,0,548.8999999910593,10,1,experiment,NA,NA,2,0.5,0.5,5,4,96,3,NA
fcp-trial,144,774853,0.0-105.0-0.0,voc_e2,12219,"[{""event"":""fullscreenenter"",""trial"":1,""time"":2014}]",NA,NA,NA,NA,NA,4,#FA92F8,#1CD855,0,10,0,38,1,2891.7000000029802,39,0,614.2999999970198,10,1,experiment,NA,NA,1,0.3,0.7,3,2,97,3,NA
fcp-trial,145,778603,0.0-106.0-0.0,voc_e2,12219,"[{""event"":""fullscreenenter"",""trial"":1,""time"":2014}]",NA,NA,NA,NA,NA,1,#3386FF,#D89F1C,10,0,1,40,0,1694.7999999970198,39,0,549.2999999970198,0,0,experiment,NA,NA,2,0.5,0.5,4,5,98,3,NA
fcp-trial,146,781901,0.0-107.0-0.0,voc_e2,12219,"[{""event"":""fullscreenenter"",""trial"":1,""time"":2014}]",NA,NA,NA,NA,NA,0,#D8271C,#741CD8,10,0,1,38,1,1162.699999988079,37,1,630.2999999970198,10,1,experiment,NA,NA,0,0.9,0.1,0,1,99,3,NA
fcp-trial,147,785102,0.0-108.0-0.0,voc_e2,12219,"[{""event"":""fullscreenenter"",""trial"":1,""time"":2014}]",NA,NA,NA,NA,NA,5,#3386FF,#D89F1C,10,0,1,40,0,1047.8999999910593,37,1,647.2999999970198,10,1,experiment,NA,NA,2,0.5,0.5,4,5,100,3,NA
fcp-trial,148,788597,0.0-109.0-0.0,voc_e2,12219,"[{""event"":""fullscreenenter"",""trial"":1,""time"":2014}]",NA,NA,NA,NA,NA,4,#3386FF,#D89F1C,10,10,1,40,0,1301,37,1,687.8000000119209,10,1,experiment,NA,NA,2,0.5,0.5,4,5,101,3,NA
fcp-trial,149,792587,0.0-110.0-0.0,voc_e2,12219,"[{""event"":""fullscreenenter"",""trial"":1,""time"":2014}]",NA,NA,NA,NA,NA,2,#FA92F8,#1CD855,0,10,0,38,1,1946.5999999940395,39,0,534.7999999970198,10,1,experiment,NA,NA,1,0.3,0.7,3,2,102,3,NA
fcp-trial,150,795818,0.0-111.0-0.0,voc_e2,12219,"[{""event"":""fullscreenenter"",""trial"":1,""time"":2014}]",NA,NA,NA,NA,NA,6,#1CD855,#FA92F8,0,0,1,38,1,1140,37,1,585.7000000029802,0,1,experiment,NA,NA,1,0.7,0.3,2,3,103,3,NA
fcp-trial,151,799066,0.0-112.0-0.0,voc_e2,12219,"[{""event"":""fullscreenenter"",""trial"":1,""time"":2014}]",NA,NA,NA,NA,NA,1,#D8271C,#741CD8,10,10,1,38,1,1138.5,37,1,603,10,1,experiment,NA,NA,0,0.9,0.1,0,1,104,3,NA
fcp-trial,152,802102,0.0-113.0-0.0,voc_e2,12219,"[{""event"":""fullscreenenter"",""trial"":1,""time"":2014}]",NA,NA,NA,NA,NA,5,#741CD8,#D8271C,10,10,0,38,1,985,39,0,544.3999999910593,10,1,experiment,NA,NA,0,0.1,0.9,1,0,105,3,NA
audio-instructions,153,812556,0.0-114.0,voc_e2,12219,"[{""event"":""fullscreenenter"",""trial"":1,""time"":2014}]",NA,5946.29999999702,static/audio/pause.wav,NA,0,NA,NA,NA,NA,NA,NA,NA,NA,NA,NA,NA,NA,NA,NA,NA,NA,NA,NA,NA,NA,NA,NA,NA,NA,NA
fcp-trial,154,817152,0.0-115.0-0.0,voc_e2,12219,"[{""event"":""fullscreenenter"",""trial"":1,""time"":2014}]",NA,NA,NA,NA,NA,4,#D8271C,#741CD8,10,0,1,38,1,2652.0999999940395,37,1,437.8999999910593,10,1,experiment,NA,NA,0,0.9,0.1,0,1,106,3,NA
fcp-trial,155,821116,0.0-116.0-0.0,voc_e2,12219,"[{""event"":""fullscreenenter"",""trial"":1,""time"":2014}]",NA,NA,NA,NA,NA,5,#3386FF,#D89F1C,0,10,1,40,0,1776.7999999970198,37,1,680.2000000029802,0,1,experiment,NA,NA,2,0.5,0.5,4,5,107,3,NA
fcp-trial,156,824301,0.0-117.0-0.0,voc_e2,12219,"[{""event"":""fullscreenenter"",""trial"":1,""time"":2014}]",NA,NA,NA,NA,NA,1,#D89F1C,#3386FF,10,10,0,38,1,1211.2000000029802,37,1,467.300000011921,10,0,experiment,NA,NA,2,0.5,0.5,5,4,108,3,NA
fcp-trial,157,828333,0.0-118.0-0.0,voc_e2,12219,"[{""event"":""fullscreenenter"",""trial"":1,""time"":2014}]",NA,NA,NA,NA,NA,1,#FA92F8,#1CD855,0,10,0,38,1,2143.5,39,0,381.20000000298023,10,1,experiment,NA,NA,1,0.3,0.7,3,2,109,3,NA
fcp-trial,158,831817,0.0-119.0-0.0,voc_e2,12219,"[{""event"":""fullscreenenter"",""trial"":1,""time"":2014}]",NA,NA,NA,NA,NA,3,#1CD855,#FA92F8,10,10,1,38,1,1409.7999999970198,37,1,568.2999999970198,10,1,experiment,NA,NA,1,0.7,0.3,2,3,110,3,NA
fcp-trial,159,835287,0.0-120.0-0.0,voc_e2,12219,"[{""event"":""fullscreenenter"",""trial"":1,""time"":2014}]",NA,NA,NA,NA,NA,1,#D8271C,#741CD8,10,0,1,38,1,1063.800000011921,37,1,899.1999999880791,10,1,experiment,NA,NA,0,0.9,0.1,0,1,111,3,NA
fcp-trial,160,838539,0.0-121.0-0.0,voc_e2,12219,"[{""event"":""fullscreenenter"",""trial"":1,""time"":2014}]",NA,NA,NA,NA,NA,3,#3386FF,#D89F1C,10,0,1,38,1,1188.7999999970198,39,0,556.7999999970198,0,0,experiment,NA,NA,2,0.5,0.5,4,5,112,3,NA
fcp-trial,161,843266,0.0-122.0-0.0,voc_e2,12219,"[{""event"":""fullscreenenter"",""trial"":1,""time"":2014}]",NA,NA,NA,NA,NA,3,#741CD8,#D8271C,0,0,0,38,1,1004.5999999940395,39,0,2215,0,1,experiment,NA,NA,0,0.1,0.9,1,0,113,3,NA
fcp-trial,162,846383,0.0-123.0-0.0,voc_e2,12219,"[{""event"":""fullscreenenter"",""trial"":1,""time"":2014}]",NA,NA,NA,NA,NA,2,#FA92F8,#1CD855,10,10,0,38,1,993.5,39,0,615.7999999970198,10,1,experiment,NA,NA,1,0.3,0.7,3,2,114,3,NA
fcp-trial,163,850570,0.0-124.0-0.0,voc_e2,12219,"[{""event"":""fullscreenenter"",""trial"":1,""time"":2014}]",NA,NA,NA,NA,NA,0,#3386FF,#D89F1C,0,0,1,38,1,1862.3999999910593,39,0,817.6000000089407,0,0,experiment,NA,NA,2,0.5,0.5,4,5,115,3,NA
fcp-trial,164,854483,0.0-125.0-0.0,voc_e2,12219,"[{""event"":""fullscreenenter"",""trial"":1,""time"":2014}]",NA,NA,NA,NA,NA,0,#1CD855,#FA92F8,10,0,1,38,1,955.9000000059605,37,1,1450.5,10,1,experiment,NA,NA,1,0.7,0.3,2,3,116,3,NA
fcp-trial,165,857732,0.0-126.0-0.0,voc_e2,12219,"[{""event"":""fullscreenenter"",""trial"":1,""time"":2014}]",NA,NA,NA,NA,NA,2,#3386FF,#D89F1C,0,10,1,40,0,1144.5,37,1,597.2999999970198,0,1,experiment,NA,NA,2,0.5,0.5,4,5,117,3,NA
fcp-trial,166,863075,0.0-127.0-0.0,voc_e2,12219,"[{""event"":""fullscreenenter"",""trial"":1,""time"":2014}]",NA,NA,NA,NA,NA,0,#741CD8,#D8271C,0,10,0,38,1,3416,39,0,418.5,10,1,experiment,NA,NA,0,0.1,0.9,1,0,118,3,NA
fcp-trial,167,866095,0.0-128.0-0.0,voc_e2,12219,"[{""event"":""fullscreenenter"",""trial"":1,""time"":2014}]",NA,NA,NA,NA,NA,4,#D89F1C,#3386FF,0,0,0,40,0,920.7000000029802,37,1,591.2999999970198,0,0,experiment,NA,NA,2,0.5,0.5,5,4,119,3,NA
fcp-trial,168,870714,0.0-129.0-0.0,voc_e2,12219,"[{""event"":""fullscreenenter"",""trial"":1,""time"":2014}]",NA,NA,NA,NA,NA,6,#1CD855,#FA92F8,0,0,1,38,1,2693,37,1,420.90000000596046,0,1,experiment,NA,NA,1,0.7,0.3,2,3,120,3,NA
fcp-trial,169,874051,0.0-130.0-0.0,voc_e2,12219,"[{""event"":""fullscreenenter"",""trial"":1,""time"":2014}]",NA,NA,NA,NA,NA,4,#1CD855,#FA92F8,10,0,1,38,1,896.3999999910593,37,1,934.8000000119208,10,1,experiment,NA,NA,1,0.7,0.3,2,3,121,3,NA
fcp-trial,170,878564,0.0-131.0-0.0,voc_e2,12219,"[{""event"":""fullscreenenter"",""trial"":1,""time"":2014}]",NA,NA,NA,NA,NA,6,#D89F1C,#3386FF,0,10,0,40,0,2380.5999999940395,39,0,624.7999999970198,10,1,experiment,NA,NA,2,0.5,0.5,5,4,122,3,NA
fcp-trial,171,882075,0.0-132.0-0.0,voc_e2,12219,"[{""event"":""fullscreenenter"",""trial"":1,""time"":2014}]",NA,NA,NA,NA,NA,5,#741CD8,#D8271C,0,10,0,38,1,1439.5,39,0,565.7999999970198,10,1,experiment,NA,NA,0,0.1,0.9,1,0,123,3,NA
fcp-trial,172,885136,0.0-133.0-0.0,voc_e2,12219,"[{""event"":""fullscreenenter"",""trial"":1,""time"":2014}]",NA,NA,NA,NA,NA,6,#D8271C,#741CD8,10,0,1,38,1,973.7000000029802,37,1,580.2999999970198,10,1,experiment,NA,NA,0,0.9,0.1,0,1,124,3,NA
fcp-trial,173,888631,0.0-134.0-0.0,voc_e2,12219,"[{""event"":""fullscreenenter"",""trial"":1,""time"":2014}]",NA,NA,NA,NA,NA,5,#FA92F8,#1CD855,0,10,0,38,1,924.6000000089407,39,0,1064.300000011921,10,1,experiment,NA,NA,1,0.3,0.7,3,2,125,3,NA
fcp-trial,174,893538,0.0-135.0-0.0,voc_e2,12219,"[{""event"":""fullscreenenter"",""trial"":1,""time"":2014}]",NA,NA,NA,NA,NA,2,#741CD8,#D8271C,0,10,0,38,1,2896.7999999970198,39,0,501.90000000596046,10,1,experiment,NA,NA,0,0.1,0.9,1,0,126,3,NA
fcp-trial,175,897195,0.0-136.0-0.0,voc_e2,12219,"[{""event"":""fullscreenenter"",""trial"":1,""time"":2014}]",NA,NA,NA,NA,NA,5,#1CD855,#FA92F8,0,0,1,38,1,1682.5999999940395,37,1,465.70000000298023,0,1,experiment,NA,NA,1,0.7,0.3,2,3,127,3,NA
fcp-trial,176,900088,0.0-137.0-0.0,voc_e2,12219,"[{""event"":""fullscreenenter"",""trial"":1,""time"":2014}]",NA,NA,NA,NA,NA,0,#1CD855,#FA92F8,0,0,1,38,1,712.5,37,1,674.5,0,1,experiment,NA,NA,1,0.7,0.3,2,3,128,3,NA
fcp-trial,177,902954,0.0-138.0-0.0,voc_e2,12219,"[{""event"":""fullscreenenter"",""trial"":1,""time"":2014}]",NA,NA,NA,NA,NA,1,#1CD855,#FA92F8,10,0,1,38,1,668.5999999940395,37,1,688.3999999910593,10,1,experiment,NA,NA,1,0.7,0.3,2,3,129,3,NA
fcp-trial,178,906831,0.0-139.0-0.0,voc_e2,12219,"[{""event"":""fullscreenenter"",""trial"":1,""time"":2014}]",NA,NA,NA,NA,NA,6,#741CD8,#D8271C,0,0,0,38,1,1537,39,0,832.7999999970198,0,1,experiment,NA,NA,0,0.1,0.9,1,0,130,3,NA
fcp-trial,179,910198,0.0-140.0-0.0,voc_e2,12219,"[{""event"":""fullscreenenter"",""trial"":1,""time"":2014}]",NA,NA,NA,NA,NA,4,#3386FF,#D89F1C,10,10,1,40,0,1277.5,37,1,583.1000000089407,10,1,experiment,NA,NA,2,0.5,0.5,4,5,131,3,NA
fcp-trial,180,913915,0.0-141.0-0.0,voc_e2,12219,"[{""event"":""fullscreenenter"",""trial"":1,""time"":2014}]",NA,NA,NA,NA,NA,2,#741CD8,#D8271C,0,10,0,38,1,1588,39,0,621.9000000059605,10,1,experiment,NA,NA,0,0.1,0.9,1,0,132,3,NA
fcp-trial,181,917617,0.0-142.0-0.0,voc_e2,12219,"[{""event"":""fullscreenenter"",""trial"":1,""time"":2014}]",NA,NA,NA,NA,NA,6,#D89F1C,#3386FF,0,0,0,40,0,1593.7999999970198,39,0,601.4000000059605,0,1,experiment,NA,NA,2,0.5,0.5,5,4,133,3,NA
fcp-trial,182,921051,0.0-143.0-0.0,voc_e2,12219,"[{""event"":""fullscreenenter"",""trial"":1,""time"":2014}]",NA,NA,NA,NA,NA,2,#1CD855,#FA92F8,0,0,1,38,1,988.1999999880791,37,1,937.6999999880792,0,1,experiment,NA,NA,1,0.7,0.3,2,3,134,3,NA
fcp-trial,183,924315,0.0-144.0-0.0,voc_e2,12219,"[{""event"":""fullscreenenter"",""trial"":1,""time"":2014}]",NA,NA,NA,NA,NA,4,#D8271C,#741CD8,0,0,1,38,1,1195.9000000059605,37,1,562.1000000089407,0,1,experiment,NA,NA,0,0.9,0.1,0,1,135,3,NA
fcp-trial,184,927852,0.0-145.0-0.0,voc_e2,12219,"[{""event"":""fullscreenenter"",""trial"":1,""time"":2014}]",NA,NA,NA,NA,NA,3,#3386FF,#D89F1C,10,0,1,40,0,1366.5999999940395,37,1,664.6000000089407,10,1,experiment,NA,NA,2,0.5,0.5,4,5,136,4,NA
fcp-trial,185,932649,0.0-146.0-0.0,voc_e2,12219,"[{""event"":""fullscreenenter"",""trial"":1,""time"":2014}]",NA,NA,NA,NA,NA,1,#741CD8,#D8271C,10,10,0,38,1,2797.5999999940395,39,0,491.29999999701977,10,1,experiment,NA,NA,0,0.1,0.9,1,0,137,4,NA
fcp-trial,186,935597,0.0-147.0-0.0,voc_e2,12219,"[{""event"":""fullscreenenter"",""trial"":1,""time"":2014}]",NA,NA,NA,NA,NA,0,#D8271C,#741CD8,10,0,1,38,1,746.2000000029802,37,1,693.7999999970198,10,1,experiment,NA,NA,0,0.9,0.1,0,1,138,4,NA
fcp-trial,187,938396,0.0-148.0-0.0,voc_e2,12219,"[{""event"":""fullscreenenter"",""trial"":1,""time"":2014}]",NA,NA,NA,NA,NA,4,#1CD855,#FA92F8,10,10,1,38,1,712.4000000059605,37,1,581.1000000089407,10,1,experiment,NA,NA,1,0.7,0.3,2,3,139,4,NA
fcp-trial,188,941587,0.0-149.0-0.0,voc_e2,12219,"[{""event"":""fullscreenenter"",""trial"":1,""time"":2014}]",NA,NA,NA,NA,NA,3,#D8271C,#741CD8,10,0,1,38,1,1045.2000000029802,37,1,639.9000000059605,10,1,experiment,NA,NA,0,0.9,0.1,0,1,140,4,NA
fcp-trial,189,945051,0.0-150.0-0.0,voc_e2,12219,"[{""event"":""fullscreenenter"",""trial"":1,""time"":2014}]",NA,NA,NA,NA,NA,5,#3386FF,#D89F1C,10,0,1,40,0,1341,39,0,614.5999999940395,0,0,experiment,NA,NA,2,0.5,0.5,4,5,141,4,NA
fcp-trial,190,949558,0.0-151.0-0.0,voc_e2,12219,"[{""event"":""fullscreenenter"",""trial"":1,""time"":2014}]",NA,NA,NA,NA,NA,3,#1CD855,#FA92F8,10,0,1,38,1,2406.2999999970198,37,1,593.6999999880791,10,1,experiment,NA,NA,1,0.7,0.3,2,3,142,4,NA
fcp-trial,191,953324,0.0-152.0-0.0,voc_e2,12219,"[{""event"":""fullscreenenter"",""trial"":1,""time"":2014}]",NA,NA,NA,NA,NA,5,#741CD8,#D8271C,0,10,0,38,1,1497.300000011921,39,0,762.0999999940395,10,1,experiment,NA,NA,0,0.1,0.9,1,0,143,4,NA
fcp-trial,192,956483,0.0-153.0-0.0,voc_e2,12219,"[{""event"":""fullscreenenter"",""trial"":1,""time"":2014}]",NA,NA,NA,NA,NA,2,#3386FF,#D89F1C,10,0,1,40,0,1067.5,39,0,583.5999999940395,0,0,experiment,NA,NA,2,0.5,0.5,4,5,144,4,NA
fcp-trial,193,960331,0.0-154.0-0.0,voc_e2,12219,"[{""event"":""fullscreenenter"",""trial"":1,""time"":2014}]",NA,NA,NA,NA,NA,0,#D89F1C,#3386FF,10,10,0,38,1,1965.5999999940395,39,0,373.8999999910593,10,1,experiment,NA,NA,2,0.5,0.5,5,4,145,4,NA
fcp-trial,194,964053,0.0-155.0-0.0,voc_e2,12219,"[{""event"":""fullscreenenter"",""trial"":1,""time"":2014}]",NA,NA,NA,NA,NA,6,#1CD855,#FA92F8,10,0,1,38,1,1026.5,37,1,1187.5,10,1,experiment,NA,NA,1,0.7,0.3,2,3,146,4,NA
fcp-trial,195,967274,0.0-156.0-0.0,voc_e2,12219,"[{""event"":""fullscreenenter"",""trial"":1,""time"":2014}]",NA,NA,NA,NA,NA,1,#D89F1C,#3386FF,0,0,0,38,1,1272.5,39,0,441.199999988079,0,1,experiment,NA,NA,2,0.5,0.5,5,4,147,4,NA
fcp-trial,196,970319,0.0-157.0-0.0,voc_e2,12219,"[{""event"":""fullscreenenter"",""trial"":1,""time"":2014}]",NA,NA,NA,NA,NA,3,#3386FF,#D89F1C,10,0,1,38,1,949.7000000029802,37,1,586.5,10,1,experiment,NA,NA,2,0.5,0.5,4,5,148,4,NA
fcp-trial,197,973497,0.0-158.0-0.0,voc_e2,12219,"[{""event"":""fullscreenenter"",""trial"":1,""time"":2014}]",NA,NA,NA,NA,NA,6,#3386FF,#D89F1C,0,0,1,38,1,1036.2999999970198,37,1,635.5,0,1,experiment,NA,NA,2,0.5,0.5,4,5,149,4,NA
fcp-trial,198,977032,0.0-159.0-0.0,voc_e2,12219,"[{""event"":""fullscreenenter"",""trial"":1,""time"":2014}]",NA,NA,NA,NA,NA,4,#741CD8,#D8271C,0,10,0,38,1,1561.7999999970198,39,0,468.5,10,1,experiment,NA,NA,0,0.1,0.9,1,0,150,4,NA
fcp-trial,199,980702,0.0-160.0-0.0,voc_e2,12219,"[{""event"":""fullscreenenter"",""trial"":1,""time"":2014}]",NA,NA,NA,NA,NA,0,#3386FF,#D89F1C,10,0,1,38,1,1649.7000000029802,37,1,511.5,10,1,experiment,NA,NA,2,0.5,0.5,4,5,151,4,NA
fcp-trial,200,984529,0.0-161.0-0.0,voc_e2,12219,"[{""event"":""fullscreenenter"",""trial"":1,""time"":2014}]",NA,NA,NA,NA,NA,6,#FA92F8,#1CD855,10,10,0,38,1,1681.7999999970198,39,0,638.2999999970198,10,1,experiment,NA,NA,1,0.3,0.7,3,2,152,4,NA
fcp-trial,201,987530,0.0-162.0-0.0,voc_e2,12219,"[{""event"":""fullscreenenter"",""trial"":1,""time"":2014}]",NA,NA,NA,NA,NA,4,#1CD855,#FA92F8,10,0,1,38,1,977.0999999940395,37,1,518.5,10,1,experiment,NA,NA,1,0.7,0.3,2,3,153,4,NA
fcp-trial,202,990615,0.0-163.0-0.0,voc_e2,12219,"[{""event"":""fullscreenenter"",""trial"":1,""time"":2014}]",NA,NA,NA,NA,NA,1,#741CD8,#D8271C,0,0,0,38,1,1094.2000000029802,39,0,483.29999999701977,0,1,experiment,NA,NA,0,0.1,0.9,1,0,154,4,NA
fcp-trial,203,994116,0.0-164.0-0.0,voc_e2,12219,"[{""event"":""fullscreenenter"",""trial"":1,""time"":2014}]",NA,NA,NA,NA,NA,1,#3386FF,#D89F1C,10,0,1,40,0,1440,37,1,554.3000000119209,10,1,experiment,NA,NA,2,0.5,0.5,4,5,155,4,NA
fcp-trial,204,997596,0.0-165.0-0.0,voc_e2,12219,"[{""event"":""fullscreenenter"",""trial"":1,""time"":2014}]",NA,NA,NA,NA,NA,3,#741CD8,#D8271C,0,10,0,38,1,1557.1000000089407,39,0,414.6000000089407,10,1,experiment,NA,NA,0,0.1,0.9,1,0,156,4,NA
fcp-trial,205,1001672,0.0-166.0-0.0,voc_e2,12219,"[{""event"":""fullscreenenter"",""trial"":1,""time"":2014}]",NA,NA,NA,NA,NA,0,#1CD855,#FA92F8,10,10,1,38,1,1489.7999999970198,37,1,1079.0999999940395,10,1,experiment,NA,NA,1,0.7,0.3,2,3,157,4,NA
fcp-trial,206,1004847,0.0-167.0-0.0,voc_e2,12219,"[{""event"":""fullscreenenter"",""trial"":1,""time"":2014}]",NA,NA,NA,NA,NA,3,#1CD855,#FA92F8,0,0,1,38,1,1165.300000011921,37,1,502.6000000089407,0,1,experiment,NA,NA,1,0.7,0.3,2,3,158,4,NA
fcp-trial,207,1007498,0.0-168.0-0.0,voc_e2,12219,"[{""event"":""fullscreenenter"",""trial"":1,""time"":2014}]",NA,NA,NA,NA,NA,2,#1CD855,#FA92F8,0,10,1,38,1,564.5,37,1,581.0999999940395,0,1,experiment,NA,NA,1,0.7,0.3,2,3,159,4,NA
fcp-trial,208,1011264,0.0-169.0-0.0,voc_e2,12219,"[{""event"":""fullscreenenter"",""trial"":1,""time"":2014}]",NA,NA,NA,NA,NA,5,#D89F1C,#3386FF,0,10,0,40,0,1605.5999999940395,37,1,653.5,0,0,experiment,NA,NA,2,0.5,0.5,5,4,160,4,NA
fcp-trial,209,1014947,0.0-170.0-0.0,voc_e2,12219,"[{""event"":""fullscreenenter"",""trial"":1,""time"":2014}]",NA,NA,NA,NA,NA,0,#741CD8,#D8271C,0,10,0,38,1,1699.6000000089407,39,0,477.8999999910593,10,1,experiment,NA,NA,0,0.1,0.9,1,0,161,4,NA
fcp-trial,210,1017894,0.0-171.0-0.0,voc_e2,12219,"[{""event"":""fullscreenenter"",""trial"":1,""time"":2014}]",NA,NA,NA,NA,NA,6,#D8271C,#741CD8,10,0,1,38,1,1011.7000000029802,37,1,429.29999999701977,10,1,experiment,NA,NA,0,0.9,0.1,0,1,162,4,NA
fcp-trial,211,1022018,0.0-172.0-0.0,voc_e2,12219,"[{""event"":""fullscreenenter"",""trial"":1,""time"":2014}]",NA,NA,NA,NA,NA,2,#D89F1C,#3386FF,10,10,0,38,1,2128.7000000029802,39,0,488.29999999701977,10,1,experiment,NA,NA,2,0.5,0.5,5,4,163,4,NA
fcp-trial,212,1025202,0.0-173.0-0.0,voc_e2,12219,"[{""event"":""fullscreenenter"",""trial"":1,""time"":2014}]",NA,NA,NA,NA,NA,1,#1CD855,#FA92F8,0,0,1,38,1,1250.7000000029802,37,1,425.90000000596046,0,1,experiment,NA,NA,1,0.7,0.3,2,3,164,4,NA
fcp-trial,213,1027956,0.0-174.0-0.0,voc_e2,12219,"[{""event"":""fullscreenenter"",""trial"":1,""time"":2014}]",NA,NA,NA,NA,NA,5,#1CD855,#FA92F8,0,10,1,38,1,727.4000000059605,37,1,518,0,1,experiment,NA,NA,1,0.7,0.3,2,3,165,4,NA
fcp-trial,214,1032911,0.0-175.0-0.0,voc_e2,12219,"[{""event"":""fullscreenenter"",""trial"":1,""time"":2014}]",NA,NA,NA,NA,NA,2,#D8271C,#741CD8,10,0,1,38,1,1657.699999988079,37,1,1788.7000000029802,10,1,experiment,NA,NA,0,0.9,0.1,0,1,166,4,NA
fcp-trial,215,1037694,0.0-176.0-0.0,voc_e2,12219,"[{""event"":""fullscreenenter"",""trial"":1,""time"":2014}]",NA,NA,NA,NA,NA,4,#D89F1C,#3386FF,10,0,0,40,0,2364.6000000089407,37,1,913.8999999910592,10,0,experiment,NA,NA,2,0.5,0.5,5,4,167,4,NA
fcp-trial,216,1040979,0.0-177.0-0.0,voc_e2,12219,"[{""event"":""fullscreenenter"",""trial"":1,""time"":2014}]",NA,NA,NA,NA,NA,5,#D8271C,#741CD8,10,0,1,38,1,1231,37,1,548.2999999970198,10,1,experiment,NA,NA,0,0.9,0.1,0,1,168,4,NA
fcp-trial,217,1043796,0.0-178.0-0.0,voc_e2,12219,"[{""event"":""fullscreenenter"",""trial"":1,""time"":2014}]",NA,NA,NA,NA,NA,0,#FA92F8,#1CD855,0,10,0,38,1,901.8000000119209,39,0,409.5,10,1,experiment,NA,NA,1,0.3,0.7,3,2,169,4,NA
fcp-trial,218,1047611,0.0-179.0-0.0,voc_e2,12219,"[{""event"":""fullscreenenter"",""trial"":1,""time"":2014}]",NA,NA,NA,NA,NA,6,#741CD8,#D8271C,0,10,0,38,1,112.90000000596046,39,0,2196.79999999702,10,1,experiment,NA,NA,0,0.1,0.9,1,0,170,4,NA
fcp-trial,219,1051528,0.0-180.0-0.0,voc_e2,12219,"[{""event"":""fullscreenenter"",""trial"":1,""time"":2014}]",NA,NA,NA,NA,NA,0,#3386FF,#D89F1C,10,0,1,38,1,1243.0999999940395,37,1,1168.5,10,1,experiment,NA,NA,2,0.5,0.5,4,5,171,4,NA
fcp-trial,220,1055173,0.0-181.0-0.0,voc_e2,12219,"[{""event"":""fullscreenenter"",""trial"":1,""time"":2014}]",NA,NA,NA,NA,NA,2,#D89F1C,#3386FF,10,10,0,38,1,1781.2000000029802,39,0,357.6000000089407,10,1,experiment,NA,NA,2,0.5,0.5,5,4,172,4,NA
fcp-trial,221,1059070,0.0-182.0-0.0,voc_e2,12219,"[{""event"":""fullscreenenter"",""trial"":1,""time"":2014}]",NA,NA,NA,NA,NA,2,#D8271C,#741CD8,10,0,1,38,1,2022.5,37,1,365.20000000298023,10,1,experiment,NA,NA,0,0.9,0.1,0,1,173,4,NA
fcp-trial,222,1061881,0.0-183.0-0.0,voc_e2,12219,"[{""event"":""fullscreenenter"",""trial"":1,""time"":2014}]",NA,NA,NA,NA,NA,5,#FA92F8,#1CD855,0,0,0,38,1,893.5,39,0,408.699999988079,0,1,experiment,NA,NA,1,0.3,0.7,3,2,174,4,NA
fcp-trial,223,1064563,0.0-184.0-0.0,voc_e2,12219,"[{""event"":""fullscreenenter"",""trial"":1,""time"":2014}]",NA,NA,NA,NA,NA,6,#FA92F8,#1CD855,0,10,0,38,1,626.7999999970198,39,0,548.7999999970198,10,1,experiment,NA,NA,1,0.3,0.7,3,2,175,4,NA
fcp-trial,224,1068198,0.0-185.0-0.0,voc_e2,12219,"[{""event"":""fullscreenenter"",""trial"":1,""time"":2014}]",NA,NA,NA,NA,NA,4,#D89F1C,#3386FF,10,10,0,38,1,942.7000000029802,37,1,1184.7000000029802,10,0,experiment,NA,NA,2,0.5,0.5,5,4,176,4,NA
fcp-trial,225,1072366,0.0-186.0-0.0,voc_e2,12219,"[{""event"":""fullscreenenter"",""trial"":1,""time"":2014}]",NA,NA,NA,NA,NA,5,#D8271C,#741CD8,10,0,1,38,1,740.4000000059605,37,1,1922,10,1,experiment,NA,NA,0,0.9,0.1,0,1,177,4,NA
fcp-trial,226,1076429,0.0-187.0-0.0,voc_e2,12219,"[{""event"":""fullscreenenter"",""trial"":1,""time"":2014}]",NA,NA,NA,NA,NA,3,#1CD855,#FA92F8,0,0,1,38,1,838.2000000029802,37,1,1717.7000000029802,0,1,experiment,NA,NA,1,0.7,0.3,2,3,178,4,NA
fcp-trial,227,1079010,0.0-188.0-0.0,voc_e2,12219,"[{""event"":""fullscreenenter"",""trial"":1,""time"":2014}]",NA,NA,NA,NA,NA,4,#FA92F8,#1CD855,10,0,0,38,1,620.1999999880791,39,0,454.90000000596046,0,1,experiment,NA,NA,1,0.3,0.7,3,2,179,4,NA
fcp-trial,228,1082230,0.0-189.0-0.0,voc_e2,12219,"[{""event"":""fullscreenenter"",""trial"":1,""time"":2014}]",NA,NA,NA,NA,NA,3,#D89F1C,#3386FF,0,10,0,38,1,1361.0999999940395,39,0,353.70000000298023,10,1,experiment,NA,NA,2,0.5,0.5,5,4,180,4,NA
fcp-trial,229,1085098,0.0-190.0-0.0,voc_e2,12219,"[{""event"":""fullscreenenter"",""trial"":1,""time"":2014}]",NA,NA,NA,NA,NA,0,#D8271C,#741CD8,10,10,1,38,1,999,37,1,361.199999988079,10,1,experiment,NA,NA,0,0.9,0.1,0,1,181,5,NA
fcp-trial,230,1088919,0.0-191.0-0.0,voc_e2,12219,"[{""event"":""fullscreenenter"",""trial"":1,""time"":2014}]",NA,NA,NA,NA,NA,5,#3386FF,#D89F1C,0,10,1,38,1,1324.4000000059605,39,0,989.2999999970198,10,0,experiment,NA,NA,2,0.5,0.5,4,5,182,5,NA
fcp-trial,231,1093235,0.0-192.0-0.0,voc_e2,12219,"[{""event"":""fullscreenenter"",""trial"":1,""time"":2014}]",NA,NA,NA,NA,NA,2,#FA92F8,#1CD855,0,10,0,38,1,409.90000000596046,39,0,2396.4000000059605,10,1,experiment,NA,NA,1,0.3,0.7,3,2,183,5,NA
fcp-trial,232,1096563,0.0-193.0-0.0,voc_e2,12219,"[{""event"":""fullscreenenter"",""trial"":1,""time"":2014}]",NA,NA,NA,NA,NA,3,#D8271C,#741CD8,10,0,1,38,1,1476,37,1,344.5,10,1,experiment,NA,NA,0,0.9,0.1,0,1,184,5,NA
fcp-trial,233,1100631,0.0-194.0-0.0,voc_e2,12219,"[{""event"":""fullscreenenter"",""trial"":1,""time"":2014}]",NA,NA,NA,NA,NA,1,#FA92F8,#1CD855,10,0,0,38,1,1842.9000000059605,39,0,717.9000000059605,0,1,experiment,NA,NA,1,0.3,0.7,3,2,185,5,NA
fcp-trial,234,1104672,0.0-195.0-0.0,voc_e2,12219,"[{""event"":""fullscreenenter"",""trial"":1,""time"":2014}]",NA,NA,NA,NA,NA,4,#D8271C,#741CD8,10,0,1,38,1,803,37,1,1733.3999999910593,10,1,experiment,NA,NA,0,0.9,0.1,0,1,186,5,NA
fcp-trial,235,1108251,0.0-196.0-0.0,voc_e2,12219,"[{""event"":""fullscreenenter"",""trial"":1,""time"":2014}]",NA,NA,NA,NA,NA,1,#D89F1C,#3386FF,0,10,0,38,1,841.6000000089407,37,1,1228.9000000059605,0,0,experiment,NA,NA,2,0.5,0.5,5,4,187,5,NA
fcp-trial,236,1111400,0.0-197.0-0.0,voc_e2,12219,"[{""event"":""fullscreenenter"",""trial"":1,""time"":2014}]",NA,NA,NA,NA,NA,1,#D8271C,#741CD8,10,0,1,38,1,1108.0999999940395,37,1,532.7999999970198,10,1,experiment,NA,NA,0,0.9,0.1,0,1,188,5,NA
fcp-trial,237,1114430,0.0-198.0-0.0,voc_e2,12219,"[{""event"":""fullscreenenter"",""trial"":1,""time"":2014}]",NA,NA,NA,NA,NA,6,#D89F1C,#3386FF,10,0,0,38,1,1157.2000000029802,39,0,364.800000011921,0,1,experiment,NA,NA,2,0.5,0.5,5,4,189,5,NA
fcp-trial,238,1118320,0.0-199.0-0.0,voc_e2,12219,"[{""event"":""fullscreenenter"",""trial"":1,""time"":2014}]",NA,NA,NA,NA,NA,3,#1CD855,#FA92F8,10,0,1,38,1,1250,37,1,1133.7999999970198,10,1,experiment,NA,NA,1,0.7,0.3,2,3,190,5,NA
fcp-trial,239,1121378,0.0-200.0-0.0,voc_e2,12219,"[{""event"":""fullscreenenter"",""trial"":1,""time"":2014}]",NA,NA,NA,NA,NA,6,#D8271C,#741CD8,0,10,1,38,1,849.0999999940395,37,1,701.2000000029802,0,1,experiment,NA,NA,0,0.9,0.1,0,1,191,5,NA
fcp-trial,240,1124276,0.0-201.0-0.0,voc_e2,12219,"[{""event"":""fullscreenenter"",""trial"":1,""time"":2014}]",NA,NA,NA,NA,NA,2,#741CD8,#D8271C,0,10,0,38,1,925.7999999970198,39,0,466.699999988079,10,1,experiment,NA,NA,0,0.1,0.9,1,0,192,5,NA
fcp-trial,241,1127146,0.0-202.0-0.0,voc_e2,12219,"[{""event"":""fullscreenenter"",""trial"":1,""time"":2014}]",NA,NA,NA,NA,NA,1,#FA92F8,#1CD855,0,0,0,40,0,877.1000000089407,37,1,487,0,0,experiment,NA,NA,1,0.3,0.7,3,2,193,5,NA
fcp-trial,242,1130497,0.0-203.0-0.0,voc_e2,12219,"[{""event"":""fullscreenenter"",""trial"":1,""time"":2014}]",NA,NA,NA,NA,NA,1,#D8271C,#741CD8,10,0,1,38,1,1478.3999999910593,37,1,365.20000000298023,10,1,experiment,NA,NA,0,0.9,0.1,0,1,194,5,NA
fcp-trial,243,1133496,0.0-204.0-0.0,voc_e2,12219,"[{""event"":""fullscreenenter"",""trial"":1,""time"":2014}]",NA,NA,NA,NA,NA,2,#FA92F8,#1CD855,0,0,0,40,0,924.9000000059605,37,1,567.0999999940395,0,0,experiment,NA,NA,1,0.3,0.7,3,2,195,5,NA
fcp-trial,244,1138398,0.0-205.0-0.0,voc_e2,12219,"[{""event"":""fullscreenenter"",""trial"":1,""time"":2014}]",NA,NA,NA,NA,NA,5,#741CD8,#D8271C,0,10,0,38,1,3005.2000000029802,39,0,388.90000000596046,10,1,experiment,NA,NA,0,0.1,0.9,1,0,196,5,NA
fcp-trial,245,1142245,0.0-206.0-0.0,voc_e2,12219,"[{""event"":""fullscreenenter"",""trial"":1,""time"":2014}]",NA,NA,NA,NA,NA,6,#3386FF,#D89F1C,10,0,1,40,0,1838.7000000029802,37,1,502.59999999403954,10,1,experiment,NA,NA,2,0.5,0.5,4,5,197,5,NA
fcp-trial,246,1146362,0.0-207.0-0.0,voc_e2,12219,"[{""event"":""fullscreenenter"",""trial"":1,""time"":2014}]",NA,NA,NA,NA,NA,5,#1CD855,#FA92F8,10,10,1,40,0,2133.0999999940395,39,0,476,10,0,experiment,NA,NA,1,0.7,0.3,2,3,198,5,NA
fcp-trial,247,1150002,0.0-208.0-0.0,voc_e2,12219,"[{""event"":""fullscreenenter"",""trial"":1,""time"":2014}]",NA,NA,NA,NA,NA,4,#1CD855,#FA92F8,0,0,1,40,0,1212.2000000029802,37,1,922.5999999940396,0,1,experiment,NA,NA,1,0.7,0.3,2,3,199,5,NA
fcp-trial,248,1153412,0.0-209.0-0.0,voc_e2,12219,"[{""event"":""fullscreenenter"",""trial"":1,""time"":2014}]",NA,NA,NA,NA,NA,0,#741CD8,#D8271C,0,10,0,38,1,1558,39,0,342.79999999701977,10,1,experiment,NA,NA,0,0.1,0.9,1,0,200,5,NA
fcp-trial,249,1158293,0.0-210.0-0.0,voc_e2,12219,"[{""event"":""fullscreenenter"",""trial"":1,""time"":2014}]",NA,NA,NA,NA,NA,3,#3386FF,#D89F1C,0,0,1,38,1,2960.2999999970198,37,1,414.90000000596046,0,1,experiment,NA,NA,2,0.5,0.5,4,5,201,5,NA
fcp-trial,250,1162010,0.0-211.0-0.0,voc_e2,12219,"[{""event"":""fullscreenenter"",""trial"":1,""time"":2014}]",NA,NA,NA,NA,NA,6,#1CD855,#FA92F8,10,0,1,40,0,1542.800000011921,37,1,668.8999999910593,10,1,experiment,NA,NA,1,0.7,0.3,2,3,202,5,NA
fcp-trial,251,1165335,0.0-212.0-0.0,voc_e2,12219,"[{""event"":""fullscreenenter"",""trial"":1,""time"":2014}]",NA,NA,NA,NA,NA,5,#D89F1C,#3386FF,10,0,0,40,0,1326.5,39,0,491,0,1,experiment,NA,NA,2,0.5,0.5,5,4,203,5,NA
fcp-trial,252,1168561,0.0-213.0-0.0,voc_e2,12219,"[{""event"":""fullscreenenter"",""trial"":1,""time"":2014}]",NA,NA,NA,NA,NA,4,#D8271C,#741CD8,10,0,1,38,1,1285.7000000029802,37,1,432,10,1,experiment,NA,NA,0,0.9,0.1,0,1,204,5,NA
fcp-trial,253,1171987,0.0-214.0-0.0,voc_e2,12219,"[{""event"":""fullscreenenter"",""trial"":1,""time"":2014}]",NA,NA,NA,NA,NA,4,#3386FF,#D89F1C,10,0,1,40,0,1472.9000000059605,39,0,447.1000000089407,0,0,experiment,NA,NA,2,0.5,0.5,4,5,205,5,NA
fcp-trial,254,1176307,0.0-215.0-0.0,voc_e2,12219,"[{""event"":""fullscreenenter"",""trial"":1,""time"":2014}]",NA,NA,NA,NA,NA,0,#FA92F8,#1CD855,10,10,0,38,1,1714,39,0,1098.5,10,1,experiment,NA,NA,1,0.3,0.7,3,2,206,5,NA
fcp-trial,255,1180564,0.0-216.0-0.0,voc_e2,12219,"[{""event"":""fullscreenenter"",""trial"":1,""time"":2014}]",NA,NA,NA,NA,NA,1,#3386FF,#D89F1C,10,10,1,40,0,2182,39,0,567.7000000029802,10,0,experiment,NA,NA,2,0.5,0.5,4,5,207,5,NA
fcp-trial,256,1184645,0.0-217.0-0.0,voc_e2,12219,"[{""event"":""fullscreenenter"",""trial"":1,""time"":2014}]",NA,NA,NA,NA,NA,3,#D8271C,#741CD8,10,0,1,38,1,2079.2000000029802,37,1,496.20000000298023,10,1,experiment,NA,NA,0,0.9,0.1,0,1,208,5,NA
fcp-trial,257,1189709,0.0-218.0-0.0,voc_e2,12219,"[{""event"":""fullscreenenter"",""trial"":1,""time"":2014}]",NA,NA,NA,NA,NA,0,#D89F1C,#3386FF,10,10,0,38,1,2479.7999999970198,39,0,1077.5999999940395,10,1,experiment,NA,NA,2,0.5,0.5,5,4,209,5,NA
fcp-trial,258,1193335,0.0-219.0-0.0,voc_e2,12219,"[{""event"":""fullscreenenter"",""trial"":1,""time"":2014}]",NA,NA,NA,NA,NA,2,#D89F1C,#3386FF,0,0,0,38,1,1708.7999999970198,39,0,412.09999999403954,0,1,experiment,NA,NA,2,0.5,0.5,5,4,210,5,NA
audio-instructions,259,1199025,0.0-220.0,voc_e2,12219,"[{""event"":""fullscreenenter"",""trial"":1,""time"":2014}]",NA,1177.5999999940395,static/audio/pause.wav,NA,0,NA,NA,NA,NA,NA,NA,NA,NA,NA,NA,NA,NA,NA,NA,NA,NA,NA,NA,NA,NA,NA,NA,NA,NA,NA
fcp-trial,260,1202414,0.0-221.0-0.0,voc_e2,12219,"[{""event"":""fullscreenenter"",""trial"":1,""time"":2014}]",NA,NA,NA,NA,NA,0,#741CD8,#D8271C,0,10,0,38,1,1608.5999999940395,39,0,274.6000000089407,10,1,experiment,NA,NA,0,0.1,0.9,1,0,211,5,NA
fcp-trial,261,1205446,0.0-222.0-0.0,voc_e2,12219,"[{""event"":""fullscreenenter"",""trial"":1,""time"":2014}]",NA,NA,NA,NA,NA,5,#741CD8,#D8271C,0,10,0,40,0,1014.2000000029802,39,0,511,10,1,experiment,NA,NA,0,0.1,0.9,1,0,212,5,NA
fcp-trial,262,1208221,0.0-223.0-0.0,voc_e2,12219,"[{""event"":""fullscreenenter"",""trial"":1,""time"":2014}]",NA,NA,NA,NA,NA,1,#741CD8,#D8271C,0,10,0,40,0,782.8999999910593,39,0,484.70000000298023,10,1,experiment,NA,NA,0,0.1,0.9,1,0,213,5,NA
fcp-trial,263,1214669,0.0-224.0-0.0,voc_e2,12219,"[{""event"":""fullscreenenter"",""trial"":1,""time"":2014}]",NA,NA,NA,NA,NA,3,#FA92F8,#1CD855,0,10,0,40,0,4416,37,1,524.2999999970198,0,0,experiment,NA,NA,1,0.3,0.7,3,2,214,5,NA
fcp-trial,264,1217491,0.0-225.0-0.0,voc_e2,12219,"[{""event"":""fullscreenenter"",""trial"":1,""time"":2014}]",NA,NA,NA,NA,NA,0,#FA92F8,#1CD855,0,10,0,38,1,848.5,39,0,465.29999999701977,10,1,experiment,NA,NA,1,0.3,0.7,3,2,215,5,NA
fcp-trial,265,1221082,0.0-226.0-0.0,voc_e2,12219,"[{""event"":""fullscreenenter"",""trial"":1,""time"":2014}]",NA,NA,NA,NA,NA,6,#D89F1C,#3386FF,10,0,0,40,0,1502.0999999940395,37,1,580.8999999910593,10,0,experiment,NA,NA,2,0.5,0.5,5,4,216,5,NA
fcp-trial,266,1225048,0.0-227.0-0.0,voc_e2,12219,"[{""event"":""fullscreenenter"",""trial"":1,""time"":2014}]",NA,NA,NA,NA,NA,6,#741CD8,#D8271C,0,10,0,40,0,1977.0999999940395,39,0,482.20000000298023,10,1,experiment,NA,NA,0,0.1,0.9,1,0,217,5,NA
fcp-trial,267,1229280,0.0-228.0-0.0,voc_e2,12219,"[{""event"":""fullscreenenter"",""trial"":1,""time"":2014}]",NA,NA,NA,NA,NA,5,#1CD855,#FA92F8,0,10,1,38,1,2407.4000000059605,37,1,317.29999999701977,0,1,experiment,NA,NA,1,0.7,0.3,2,3,218,5,NA
fcp-trial,268,1232715,0.0-229.0-0.0,voc_e2,12219,"[{""event"":""fullscreenenter"",""trial"":1,""time"":2014}]",NA,NA,NA,NA,NA,3,#3386FF,#D89F1C,10,10,1,40,0,1377.3999999910593,39,0,551.5,10,0,experiment,NA,NA,2,0.5,0.5,4,5,219,5,NA
fcp-trial,269,1237565,0.0-230.0-0.0,voc_e2,12219,"[{""event"":""fullscreenenter"",""trial"":1,""time"":2014}]",NA,NA,NA,NA,NA,6,#1CD855,#FA92F8,10,0,1,38,1,3031,37,1,310.40000000596046,10,1,experiment,NA,NA,1,0.7,0.3,2,3,220,5,NA
fcp-trial,270,1241012,0.0-231.0-0.0,voc_e2,12219,"[{""event"":""fullscreenenter"",""trial"":1,""time"":2014}]",NA,NA,NA,NA,NA,5,#D89F1C,#3386FF,10,10,0,40,0,1473.5,39,0,467.1000000089407,10,1,experiment,NA,NA,2,0.5,0.5,5,4,221,5,NA
fcp-trial,271,1244445,0.0-232.0-0.0,voc_e2,12219,"[{""event"":""fullscreenenter"",""trial"":1,""time"":2014}]",NA,NA,NA,NA,NA,4,#741CD8,#D8271C,0,10,0,40,0,1462.5,37,1,465.199999988079,0,0,experiment,NA,NA,0,0.1,0.9,1,0,222,5,NA
fcp-trial,272,1248919,0.0-233.0-0.0,voc_e2,12219,"[{""event"":""fullscreenenter"",""trial"":1,""time"":2014}]",NA,NA,NA,NA,NA,2,#FA92F8,#1CD855,0,10,0,38,1,2428.0999999940395,39,0,540.2000000029802,10,1,experiment,NA,NA,1,0.3,0.7,3,2,223,5,NA
fcp-trial,273,1251812,0.0-234.0-0.0,voc_e2,12219,"[{""event"":""fullscreenenter"",""trial"":1,""time"":2014}]",NA,NA,NA,NA,NA,1,#FA92F8,#1CD855,0,10,0,38,1,970.3999999910593,39,0,414.6000000089407,10,1,experiment,NA,NA,1,0.3,0.7,3,2,224,5,NA
fcp-trial,274,1255398,0.0-235.0-0.0,voc_e2,12219,"[{""event"":""fullscreenenter"",""trial"":1,""time"":2014}]",NA,NA,NA,NA,NA,1,#3386FF,#D89F1C,0,10,1,40,0,1682.2999999970198,37,1,397.20000000298023,0,1,experiment,NA,NA,2,0.5,0.5,4,5,225,5,NA
fcp-trial,275,1258313,0.0-236.0-0.0,voc_e2,12219,"[{""event"":""fullscreenenter"",""trial"":1,""time"":2014}]",NA,NA,NA,NA,NA,4,#D89F1C,#3386FF,0,10,0,40,0,958.4000000059605,39,0,450.5,10,1,experiment,NA,NA,2,0.5,0.5,5,4,226,6,NA
fcp-trial,276,1262564,0.0-237.0-0.0,voc_e2,12219,"[{""event"":""fullscreenenter"",""trial"":1,""time"":2014}]",NA,NA,NA,NA,NA,2,#741CD8,#D8271C,0,10,0,38,1,2388,39,0,356,10,1,experiment,NA,NA,0,0.1,0.9,1,0,227,6,NA
fcp-trial,277,1266082,0.0-238.0-0.0,voc_e2,12219,"[{""event"":""fullscreenenter"",""trial"":1,""time"":2014}]",NA,NA,NA,NA,NA,4,#FA92F8,#1CD855,10,0,0,38,1,1669.3999999910593,39,0,342.59999999403954,0,1,experiment,NA,NA,1,0.3,0.7,3,2,228,6,NA
fcp-trial,278,1270273,0.0-239.0-0.0,voc_e2,12219,"[{""event"":""fullscreenenter"",""trial"":1,""time"":2014}]",NA,NA,NA,NA,NA,3,#741CD8,#D8271C,0,0,0,40,0,2212.7999999970198,39,0,471.3999999910593,0,1,experiment,NA,NA,0,0.1,0.9,1,0,229,6,NA
fcp-trial,279,1273502,0.0-240.0-0.0,voc_e2,12219,"[{""event"":""fullscreenenter"",""trial"":1,""time"":2014}]",NA,NA,NA,NA,NA,0,#3386FF,#D89F1C,0,10,1,38,1,1169.1000000089407,37,1,555.9000000059605,0,1,experiment,NA,NA,2,0.5,0.5,4,5,230,6,NA
fcp-trial,280,1277130,0.0-241.0-0.0,voc_e2,12219,"[{""event"":""fullscreenenter"",""trial"":1,""time"":2014}]",NA,NA,NA,NA,NA,2,#3386FF,#D89F1C,0,10,1,40,0,1715.5999999940395,39,0,406.20000000298023,10,0,experiment,NA,NA,2,0.5,0.5,4,5,231,6,NA
fcp-trial,281,1280065,0.0-242.0-0.0,voc_e2,12219,"[{""event"":""fullscreenenter"",""trial"":1,""time"":2014}]",NA,NA,NA,NA,NA,3,#3386FF,#D89F1C,10,0,1,40,0,957,39,0,472.70000000298023,0,0,experiment,NA,NA,2,0.5,0.5,4,5,232,6,NA
fcp-trial,282,1283862,0.0-243.0-0.0,voc_e2,12219,"[{""event"":""fullscreenenter"",""trial"":1,""time"":2014}]",NA,NA,NA,NA,NA,6,#741CD8,#D8271C,0,10,0,40,0,1737.7999999970198,37,1,552.4000000059605,0,0,experiment,NA,NA,0,0.1,0.9,1,0,233,6,NA
fcp-trial,283,1286935,0.0-244.0-0.0,voc_e2,12219,"[{""event"":""fullscreenenter"",""trial"":1,""time"":2014}]",NA,NA,NA,NA,NA,1,#D8271C,#741CD8,10,0,1,38,1,991.8000000119209,37,1,573.9000000059605,10,1,experiment,NA,NA,0,0.9,0.1,0,1,234,6,NA
fcp-trial,284,1291079,0.0-245.0-0.0,voc_e2,12219,"[{""event"":""fullscreenenter"",""trial"":1,""time"":2014}]",NA,NA,NA,NA,NA,6,#FA92F8,#1CD855,10,10,0,38,1,2284.7000000029802,39,0,350.40000000596046,10,1,experiment,NA,NA,1,0.3,0.7,3,2,235,6,NA
fcp-trial,285,1293771,0.0-246.0-0.0,voc_e2,12219,"[{""event"":""fullscreenenter"",""trial"":1,""time"":2014}]",NA,NA,NA,NA,NA,5,#D8271C,#741CD8,10,0,1,38,1,743.2999999970198,37,1,441.20000000298023,10,1,experiment,NA,NA,0,0.9,0.1,0,1,236,6,NA
fcp-trial,286,1297403,0.0-247.0-0.0,voc_e2,12219,"[{""event"":""fullscreenenter"",""trial"":1,""time"":2014}]",NA,NA,NA,NA,NA,1,#3386FF,#D89F1C,0,0,1,40,0,1701.300000011921,37,1,422.5,0,1,experiment,NA,NA,2,0.5,0.5,4,5,237,6,NA
fcp-trial,287,1300314,0.0-248.0-0.0,voc_e2,12219,"[{""event"":""fullscreenenter"",""trial"":1,""time"":2014}]",NA,NA,NA,NA,NA,6,#D89F1C,#3386FF,0,0,0,40,0,820.9000000059605,37,1,581.9000000059605,0,0,experiment,NA,NA,2,0.5,0.5,5,4,238,6,NA
fcp-trial,288,1303836,0.0-249.0-0.0,voc_e2,12219,"[{""event"":""fullscreenenter"",""trial"":1,""time"":2014}]",NA,NA,NA,NA,NA,2,#FA92F8,#1CD855,10,10,0,38,1,1305.2000000029802,39,0,710.8000000119209,10,1,experiment,NA,NA,1,0.3,0.7,3,2,239,6,NA
fcp-trial,289,1308678,0.0-250.0-0.0,voc_e2,12219,"[{""event"":""fullscreenenter"",""trial"":1,""time"":2014}]",NA,NA,NA,NA,NA,0,#741CD8,#D8271C,0,10,0,38,1,1067.9000000059605,39,0,2265.20000000298,10,1,experiment,NA,NA,0,0.1,0.9,1,0,240,6,NA
fcp-trial,290,1311094,0.0-251.0-0.0,voc_e2,12219,"[{""event"":""fullscreenenter"",""trial"":1,""time"":2014}]",NA,NA,NA,NA,NA,5,#1CD855,#FA92F8,10,0,1,38,1,504.5,37,1,405,10,1,experiment,NA,NA,1,0.7,0.3,2,3,241,6,NA
fcp-trial,291,1313997,0.0-252.0-0.0,voc_e2,12219,"[{""event"":""fullscreenenter"",""trial"":1,""time"":2014}]",NA,NA,NA,NA,NA,3,#741CD8,#D8271C,0,0,0,38,1,1045.7000000029802,39,0,351.3999999910593,0,1,experiment,NA,NA,0,0.1,0.9,1,0,242,6,NA
fcp-trial,292,1317645,0.0-253.0-0.0,voc_e2,12219,"[{""event"":""fullscreenenter"",""trial"":1,""time"":2014}]",NA,NA,NA,NA,NA,4,#3386FF,#D89F1C,10,10,1,38,1,651.5,37,1,1488.9000000059605,10,1,experiment,NA,NA,2,0.5,0.5,4,5,243,6,NA
fcp-trial,293,1322767,0.0-254.0-0.0,voc_e2,12219,"[{""event"":""fullscreenenter"",""trial"":1,""time"":2014}]",NA,NA,NA,NA,NA,1,#1CD855,#FA92F8,10,0,1,38,1,888.9000000059605,37,1,2724.8999999910593,10,1,experiment,NA,NA,1,0.7,0.3,2,3,244,6,NA
fcp-trial,294,1325563,0.0-255.0-0.0,voc_e2,12219,"[{""event"":""fullscreenenter"",""trial"":1,""time"":2014}]",NA,NA,NA,NA,NA,4,#FA92F8,#1CD855,0,10,0,38,1,828.7000000029802,39,0,456.40000000596046,10,1,experiment,NA,NA,1,0.3,0.7,3,2,245,6,NA
fcp-trial,295,1328530,0.0-256.0-0.0,voc_e2,12219,"[{""event"":""fullscreenenter"",""trial"":1,""time"":2014}]",NA,NA,NA,NA,NA,2,#D8271C,#741CD8,10,10,1,38,1,1086.7000000029802,37,1,374.199999988079,10,1,experiment,NA,NA,0,0.9,0.1,0,1,246,6,NA
fcp-trial,296,1331588,0.0-257.0-0.0,voc_e2,12219,"[{""event"":""fullscreenenter"",""trial"":1,""time"":2014}]",NA,NA,NA,NA,NA,3,#FA92F8,#1CD855,0,0,0,38,1,1143.3999999910593,39,0,407.59999999403954,0,1,experiment,NA,NA,1,0.3,0.7,3,2,247,6,NA
fcp-trial,297,1334661,0.0-258.0-0.0,voc_e2,12219,"[{""event"":""fullscreenenter"",""trial"":1,""time"":2014}]",NA,NA,NA,NA,NA,2,#D89F1C,#3386FF,10,10,0,40,0,1031.4000000059605,37,1,534.0999999940395,10,0,experiment,NA,NA,2,0.5,0.5,5,4,248,6,NA
fcp-trial,298,1338162,0.0-259.0-0.0,voc_e2,12219,"[{""event"":""fullscreenenter"",""trial"":1,""time"":2014}]",NA,NA,NA,NA,NA,0,#D89F1C,#3386FF,10,10,0,38,1,1378.4000000059605,39,0,616.6000000089407,10,1,experiment,NA,NA,2,0.5,0.5,5,4,249,6,NA
fcp-trial,299,1341294,0.0-260.0-0.0,voc_e2,12219,"[{""event"":""fullscreenenter"",""trial"":1,""time"":2014}]",NA,NA,NA,NA,NA,5,#D89F1C,#3386FF,0,0,0,40,0,1109.2000000029802,39,0,516.2000000029802,0,1,experiment,NA,NA,2,0.5,0.5,5,4,250,6,NA
fcp-trial,300,1345099,0.0-261.0-0.0,voc_e2,12219,"[{""event"":""fullscreenenter"",""trial"":1,""time"":2014}]",NA,NA,NA,NA,NA,4,#D8271C,#741CD8,10,0,1,38,1,1611.199999988079,37,1,687.4000000059605,10,1,experiment,NA,NA,0,0.9,0.1,0,1,251,6,NA
fcp-trial,301,1348401,0.0-262.0-0.0,voc_e2,12219,"[{""event"":""fullscreenenter"",""trial"":1,""time"":2014}]",NA,NA,NA,NA,NA,0,#FA92F8,#1CD855,0,10,0,38,1,1538.6000000089407,39,0,254.6000000089407,10,1,experiment,NA,NA,1,0.3,0.7,3,2,252,6,NA
fcp-trial,302,1351232,0.0-263.0-0.0,voc_e2,12219,"[{""event"":""fullscreenenter"",""trial"":1,""time"":2014}]",NA,NA,NA,NA,NA,4,#FA92F8,#1CD855,0,0,0,38,1,964.2999999970198,39,0,356.29999999701977,0,1,experiment,NA,NA,1,0.3,0.7,3,2,253,6,NA
fcp-trial,303,1355397,0.0-264.0-0.0,voc_e2,12219,"[{""event"":""fullscreenenter"",""trial"":1,""time"":2014}]",NA,NA,NA,NA,NA,0,#D89F1C,#3386FF,10,10,0,38,1,1791.5999999940395,37,1,866.5999999940395,10,0,experiment,NA,NA,2,0.5,0.5,5,4,254,6,NA
fcp-trial,304,1358571,0.0-265.0-0.0,voc_e2,12219,"[{""event"":""fullscreenenter"",""trial"":1,""time"":2014}]",NA,NA,NA,NA,NA,1,#3386FF,#D89F1C,0,10,1,40,0,1119.4000000059605,37,1,548,0,1,experiment,NA,NA,2,0.5,0.5,4,5,255,6,NA
fcp-trial,305,1361851,0.0-266.0-0.0,voc_e2,12219,"[{""event"":""fullscreenenter"",""trial"":1,""time"":2014}]",NA,NA,NA,NA,NA,3,#D8271C,#741CD8,10,0,1,38,1,1080.5,37,1,691.6000000089407,10,1,experiment,NA,NA,0,0.9,0.1,0,1,256,6,NA
fcp-trial,306,1364885,0.0-267.0-0.0,voc_e2,12219,"[{""event"":""fullscreenenter"",""trial"":1,""time"":2014}]",NA,NA,NA,NA,NA,3,#D89F1C,#3386FF,0,10,0,40,0,1035.2000000029802,37,1,489.70000000298023,0,0,experiment,NA,NA,2,0.5,0.5,5,4,257,6,NA
fcp-trial,307,1368765,0.0-268.0-0.0,voc_e2,12219,"[{""event"":""fullscreenenter"",""trial"":1,""time"":2014}]",NA,NA,NA,NA,NA,1,#FA92F8,#1CD855,10,10,0,38,1,2005.8999999910593,39,0,365.79999999701977,10,1,experiment,NA,NA,1,0.3,0.7,3,2,258,6,NA
fcp-trial,308,1371761,0.0-269.0-0.0,voc_e2,12219,"[{""event"":""fullscreenenter"",""trial"":1,""time"":2014}]",NA,NA,NA,NA,NA,5,#D89F1C,#3386FF,10,0,0,40,0,984,37,1,505.09999999403954,10,0,experiment,NA,NA,2,0.5,0.5,5,4,259,6,NA
fcp-trial,309,1375490,0.0-270.0-0.0,voc_e2,12219,"[{""event"":""fullscreenenter"",""trial"":1,""time"":2014}]",NA,NA,NA,NA,NA,2,#FA92F8,#1CD855,10,10,0,38,1,1899.2999999970198,39,0,323.6000000089407,10,1,experiment,NA,NA,1,0.3,0.7,3,2,260,6,NA
fcp-trial,310,1378749,0.0-271.0-0.0,voc_e2,12219,"[{""event"":""fullscreenenter"",""trial"":1,""time"":2014}]",NA,NA,NA,NA,NA,5,#741CD8,#D8271C,0,10,0,38,1,1383.5999999940395,37,1,369.300000011921,0,0,experiment,NA,NA,0,0.1,0.9,1,0,261,6,NA
fcp-trial,311,1381816,0.0-272.0-0.0,voc_e2,12219,"[{""event"":""fullscreenenter"",""trial"":1,""time"":2014}]",NA,NA,NA,NA,NA,6,#741CD8,#D8271C,0,0,0,38,1,1137.7999999970198,39,0,420.59999999403954,0,1,experiment,NA,NA,0,0.1,0.9,1,0,262,6,NA
fcp-trial,312,1384945,0.0-273.0-0.0,voc_e2,12219,"[{""event"":""fullscreenenter"",""trial"":1,""time"":2014}]",NA,NA,NA,NA,NA,4,#3386FF,#D89F1C,10,10,1,40,0,1144.7999999970198,37,1,476.40000000596046,10,1,experiment,NA,NA,2,0.5,0.5,4,5,263,6,NA
fcp-trial,313,1387810,0.0-274.0-0.0,voc_e2,12219,"[{""event"":""fullscreenenter"",""trial"":1,""time"":2014}]",NA,NA,NA,NA,NA,3,#1CD855,#FA92F8,10,0,1,38,1,942.7000000029802,37,1,415.70000000298023,10,1,experiment,NA,NA,1,0.7,0.3,2,3,264,6,NA
fcp-trial,314,1390460,0.0-275.0-0.0,voc_e2,12219,"[{""event"":""fullscreenenter"",""trial"":1,""time"":2014}]",NA,NA,NA,NA,NA,0,#741CD8,#D8271C,0,10,0,38,1,787.1999999880791,39,0,357.59999999403954,10,1,experiment,NA,NA,0,0.1,0.9,1,0,265,6,NA
fcp-trial,315,1393884,0.0-276.0-0.0,voc_e2,12219,"[{""event"":""fullscreenenter"",""trial"":1,""time"":2014}]",NA,NA,NA,NA,NA,6,#D89F1C,#3386FF,10,0,0,40,0,1417.199999988079,39,0,499.6000000089407,0,1,experiment,NA,NA,2,0.5,0.5,5,4,266,6,NA
fcp-trial,316,1397321,0.0-277.0-0.0,voc_e2,12219,"[{""event"":""fullscreenenter"",""trial"":1,""time"":2014}]",NA,NA,NA,NA,NA,6,#FA92F8,#1CD855,0,10,0,38,1,1618.300000011921,39,0,308.30000001192093,10,1,experiment,NA,NA,1,0.3,0.7,3,2,267,6,NA
fcp-trial,317,1400015,0.0-278.0-0.0,voc_e2,12219,"[{""event"":""fullscreenenter"",""trial"":1,""time"":2014}]",NA,NA,NA,NA,NA,0,#FA92F8,#1CD855,0,10,0,38,1,772.5,39,0,412.59999999403954,10,1,experiment,NA,NA,1,0.3,0.7,3,2,268,6,NA
fcp-trial,318,1402630,0.0-279.0-0.0,voc_e2,12219,"[{""event"":""fullscreenenter"",""trial"":1,""time"":2014}]",NA,NA,NA,NA,NA,2,#741CD8,#D8271C,0,10,0,38,1,720.2999999970198,39,0,387.800000011921,10,1,experiment,NA,NA,0,0.1,0.9,1,0,269,6,NA
fcp-trial,319,1405173,0.0-280.0-0.0,voc_e2,12219,"[{""event"":""fullscreenenter"",""trial"":1,""time"":2014}]",NA,NA,NA,NA,NA,4,#741CD8,#D8271C,0,10,0,38,1,543.1999999880791,39,0,493.1000000089407,10,1,experiment,NA,NA,0,0.1,0.9,1,0,270,6,NA
fcp-trial,320,1408391,0.0-281.0-0.0,voc_e2,12219,"[{""event"":""fullscreenenter"",""trial"":1,""time"":2014}]",NA,NA,NA,NA,NA,2,#3386FF,#D89F1C,0,10,1,40,0,981.5,37,1,729.8999999910593,0,1,experiment,NA,NA,2,0.5,0.5,4,5,271,7,NA
fcp-trial,321,1412564,0.0-282.0-0.0,voc_e2,12219,"[{""event"":""fullscreenenter"",""trial"":1,""time"":2014}]",NA,NA,NA,NA,NA,1,#741CD8,#D8271C,0,10,0,38,1,2263.7999999970198,39,0,403.1000000089407,10,1,experiment,NA,NA,0,0.1,0.9,1,0,272,7,NA
fcp-trial,322,1415394,0.0-283.0-0.0,voc_e2,12219,"[{""event"":""fullscreenenter"",""trial"":1,""time"":2014}]",NA,NA,NA,NA,NA,5,#1CD855,#FA92F8,10,0,1,38,1,905.5999999940395,37,1,416.79999999701977,10,1,experiment,NA,NA,1,0.7,0.3,2,3,273,7,NA
fcp-trial,323,1420141,0.0-284.0-0.0,voc_e2,12219,"[{""event"":""fullscreenenter"",""trial"":1,""time"":2014}]",NA,NA,NA,NA,NA,6,#741CD8,#D8271C,0,10,0,38,1,2358.2000000029802,39,0,883.5,10,1,experiment,NA,NA,0,0.1,0.9,1,0,274,7,NA
fcp-trial,324,1423666,0.0-285.0-0.0,voc_e2,12219,"[{""event"":""fullscreenenter"",""trial"":1,""time"":2014}]",NA,NA,NA,NA,NA,6,#3386FF,#D89F1C,10,10,1,40,0,1227.9000000059605,39,0,790.8999999910593,10,0,experiment,NA,NA,2,0.5,0.5,4,5,275,7,NA
fcp-trial,325,1426993,0.0-286.0-0.0,voc_e2,12219,"[{""event"":""fullscreenenter"",""trial"":1,""time"":2014}]",NA,NA,NA,NA,NA,4,#D8271C,#741CD8,10,0,1,38,1,1387.3999999910593,37,1,432,10,1,experiment,NA,NA,0,0.9,0.1,0,1,276,7,NA
fcp-trial,326,1430374,0.0-287.0-0.0,voc_e2,12219,"[{""event"":""fullscreenenter"",""trial"":1,""time"":2014}]",NA,NA,NA,NA,NA,3,#D89F1C,#3386FF,10,10,0,40,0,1388.5,37,1,487.90000000596046,10,0,experiment,NA,NA,2,0.5,0.5,5,4,277,7,NA
fcp-trial,327,1434162,0.0-288.0-0.0,voc_e2,12219,"[{""event"":""fullscreenenter"",""trial"":1,""time"":2014}]",NA,NA,NA,NA,NA,3,#1CD855,#FA92F8,10,10,1,38,1,1864.800000011921,37,1,415.8999999910593,10,1,experiment,NA,NA,1,0.7,0.3,2,3,278,7,NA
fcp-trial,328,1439665,0.0-289.0-0.0,voc_e2,12219,"[{""event"":""fullscreenenter"",""trial"":1,""time"":2014}]",NA,NA,NA,NA,NA,1,#D89F1C,#3386FF,0,10,0,38,1,3140.2999999970198,39,0,856.5,10,1,experiment,NA,NA,2,0.5,0.5,5,4,279,7,NA
fcp-trial,329,1442682,0.0-290.0-0.0,voc_e2,12219,"[{""event"":""fullscreenenter"",""trial"":1,""time"":2014}]",NA,NA,NA,NA,NA,2,#FA92F8,#1CD855,10,0,0,38,1,1085.2000000029802,39,0,421.70000000298023,0,1,experiment,NA,NA,1,0.3,0.7,3,2,280,7,NA
fcp-trial,330,1447276,0.0-291.0-0.0,voc_e2,12219,"[{""event"":""fullscreenenter"",""trial"":1,""time"":2014}]",NA,NA,NA,NA,NA,5,#741CD8,#D8271C,0,10,0,38,1,2245.2000000029802,39,0,841.7000000029802,10,1,experiment,NA,NA,0,0.1,0.9,1,0,281,7,NA
fcp-trial,331,1450076,0.0-292.0-0.0,voc_e2,12219,"[{""event"":""fullscreenenter"",""trial"":1,""time"":2014}]",NA,NA,NA,NA,NA,0,#3386FF,#D89F1C,10,0,1,40,0,651.4000000059605,37,1,642.5,10,1,experiment,NA,NA,2,0.5,0.5,4,5,282,7,NA
fcp-trial,332,1453359,0.0-293.0-0.0,voc_e2,12219,"[{""event"":""fullscreenenter"",""trial"":1,""time"":2014}]",NA,NA,NA,NA,NA,5,#1CD855,#FA92F8,0,0,1,38,1,862.7000000029802,37,1,915,0,1,experiment,NA,NA,1,0.7,0.3,2,3,283,7,NA
fcp-trial,333,1456279,0.0-294.0-0.0,voc_e2,12219,"[{""event"":""fullscreenenter"",""trial"":1,""time"":2014}]",NA,NA,NA,NA,NA,4,#FA92F8,#1CD855,0,10,0,38,1,1033.800000011921,39,0,377.5,10,1,experiment,NA,NA,1,0.3,0.7,3,2,284,7,NA
fcp-trial,334,1459598,0.0-295.0-0.0,voc_e2,12219,"[{""event"":""fullscreenenter"",""trial"":1,""time"":2014}]",NA,NA,NA,NA,NA,3,#D8271C,#741CD8,0,0,1,38,1,1455.4000000059605,37,1,355.59999999403954,0,1,experiment,NA,NA,0,0.9,0.1,0,1,285,7,NA
fcp-trial,335,1462277,0.0-296.0-0.0,voc_e2,12219,"[{""event"":""fullscreenenter"",""trial"":1,""time"":2014}]",NA,NA,NA,NA,NA,2,#741CD8,#D8271C,10,10,0,38,1,780.4000000059605,39,0,390.199999988079,10,1,experiment,NA,NA,0,0.1,0.9,1,0,286,7,NA
fcp-trial,336,1465276,0.0-297.0-0.0,voc_e2,12219,"[{""event"":""fullscreenenter"",""trial"":1,""time"":2014}]",NA,NA,NA,NA,NA,4,#3386FF,#D89F1C,10,0,1,40,0,1046.4000000059605,37,1,446.70000000298023,10,1,experiment,NA,NA,2,0.5,0.5,4,5,287,7,NA
fcp-trial,337,1469345,0.0-298.0-0.0,voc_e2,12219,"[{""event"":""fullscreenenter"",""trial"":1,""time"":2014}]",NA,NA,NA,NA,NA,6,#FA92F8,#1CD855,0,10,0,38,1,2220,39,0,342.5,10,1,experiment,NA,NA,1,0.3,0.7,3,2,288,7,NA
fcp-trial,338,1472087,0.0-299.0-0.0,voc_e2,12219,"[{""event"":""fullscreenenter"",""trial"":1,""time"":2014}]",NA,NA,NA,NA,NA,1,#1CD855,#FA92F8,10,0,1,38,1,809.2999999970198,37,1,426.40000000596046,10,1,experiment,NA,NA,1,0.7,0.3,2,3,289,7,NA
fcp-trial,339,1474870,0.0-300.0-0.0,voc_e2,12219,"[{""event"":""fullscreenenter"",""trial"":1,""time"":2014}]",NA,NA,NA,NA,NA,0,#FA92F8,#1CD855,0,10,0,38,1,850.1000000089407,39,0,426.29999999701977,10,1,experiment,NA,NA,1,0.3,0.7,3,2,290,7,NA
fcp-trial,340,1479177,0.0-301.0-0.0,voc_e2,12219,"[{""event"":""fullscreenenter"",""trial"":1,""time"":2014}]",NA,NA,NA,NA,NA,0,#741CD8,#D8271C,0,10,0,38,1,2405.3999999910593,39,0,393.40000000596046,10,1,experiment,NA,NA,0,0.1,0.9,1,0,291,7,NA
fcp-trial,341,1482453,0.0-302.0-0.0,voc_e2,12219,"[{""event"":""fullscreenenter"",""trial"":1,""time"":2014}]",NA,NA,NA,NA,NA,2,#D89F1C,#3386FF,10,0,0,40,0,1331.5999999940395,39,0,436.40000000596046,0,1,experiment,NA,NA,2,0.5,0.5,5,4,292,7,NA
fcp-trial,342,1485276,0.0-303.0-0.0,voc_e2,12219,"[{""event"":""fullscreenenter"",""trial"":1,""time"":2014}]",NA,NA,NA,NA,NA,5,#D89F1C,#3386FF,0,10,0,40,0,779.7000000029802,39,0,535.7000000029802,10,1,experiment,NA,NA,2,0.5,0.5,5,4,293,7,NA
fcp-trial,343,1488360,0.0-304.0-0.0,voc_e2,12219,"[{""event"":""fullscreenenter"",""trial"":1,""time"":2014}]",NA,NA,NA,NA,NA,1,#D8271C,#741CD8,10,10,1,38,1,1140.8999999910593,37,1,436.59999999403954,10,1,experiment,NA,NA,0,0.9,0.1,0,1,294,7,NA
fcp-trial,344,1491828,0.0-305.0-0.0,voc_e2,12219,"[{""event"":""fullscreenenter"",""trial"":1,""time"":2014}]",NA,NA,NA,NA,NA,4,#D8271C,#741CD8,10,0,1,38,1,1604.5,37,1,356.90000000596046,10,1,experiment,NA,NA,0,0.9,0.1,0,1,295,7,NA
fcp-trial,345,1495394,0.0-306.0-0.0,voc_e2,12219,"[{""event"":""fullscreenenter"",""trial"":1,""time"":2014}]",NA,NA,NA,NA,NA,6,#FA92F8,#1CD855,10,10,0,38,1,1640.7000000029802,39,0,419.79999999701977,10,1,experiment,NA,NA,1,0.3,0.7,3,2,296,7,NA
fcp-trial,346,1498874,0.0-307.0-0.0,voc_e2,12219,"[{""event"":""fullscreenenter"",""trial"":1,""time"":2014}]",NA,NA,NA,NA,NA,1,#D89F1C,#3386FF,10,10,0,40,0,1273,39,0,701.5999999940395,10,1,experiment,NA,NA,2,0.5,0.5,5,4,297,7,NA
fcp-trial,347,1502297,0.0-308.0-0.0,voc_e2,12219,"[{""event"":""fullscreenenter"",""trial"":1,""time"":2014}]",NA,NA,NA,NA,NA,6,#D8271C,#741CD8,10,0,1,38,1,1462.300000011921,37,1,454.5,10,1,experiment,NA,NA,0,0.9,0.1,0,1,298,7,NA
fcp-trial,348,1506677,0.0-309.0-0.0,voc_e2,12219,"[{""event"":""fullscreenenter"",""trial"":1,""time"":2014}]",NA,NA,NA,NA,NA,4,#FA92F8,#1CD855,0,0,0,38,1,2485.4000000059605,39,0,385.59999999403954,0,1,experiment,NA,NA,1,0.3,0.7,3,2,299,7,NA
fcp-trial,349,1510043,0.0-310.0-0.0,voc_e2,12219,"[{""event"":""fullscreenenter"",""trial"":1,""time"":2014}]",NA,NA,NA,NA,NA,4,#D89F1C,#3386FF,0,0,0,40,0,1393.5999999940395,37,1,467.29999999701977,0,0,experiment,NA,NA,2,0.5,0.5,5,4,300,7,NA
fcp-trial,350,1513211,0.0-311.0-0.0,voc_e2,12219,"[{""event"":""fullscreenenter"",""trial"":1,""time"":2014}]",NA,NA,NA,NA,NA,1,#FA92F8,#1CD855,0,0,0,38,1,923.2999999970198,39,0,738.2000000029802,0,1,experiment,NA,NA,1,0.3,0.7,3,2,301,7,NA
fcp-trial,351,1517558,0.0-312.0-0.0,voc_e2,12219,"[{""event"":""fullscreenenter"",""trial"":1,""time"":2014}]",NA,NA,NA,NA,NA,0,#D89F1C,#3386FF,10,0,0,40,0,2250.9000000059605,37,1,589.2000000029802,10,0,experiment,NA,NA,2,0.5,0.5,5,4,302,7,NA
fcp-trial,352,1521482,0.0-313.0-0.0,voc_e2,12219,"[{""event"":""fullscreenenter"",""trial"":1,""time"":2014}]",NA,NA,NA,NA,NA,5,#741CD8,#D8271C,0,10,0,38,1,1344.7000000029802,39,0,1071.7000000029802,10,1,experiment,NA,NA,0,0.1,0.9,1,0,303,7,NA
fcp-trial,353,1524114,0.0-314.0-0.0,voc_e2,12219,"[{""event"":""fullscreenenter"",""trial"":1,""time"":2014}]",NA,NA,NA,NA,NA,3,#D8271C,#741CD8,10,0,1,38,1,778.2999999970198,37,1,347.5,10,1,experiment,NA,NA,0,0.9,0.1,0,1,304,7,NA
fcp-trial,354,1527191,0.0-315.0-0.0,voc_e2,12219,"[{""event"":""fullscreenenter"",""trial"":1,""time"":2014}]",NA,NA,NA,NA,NA,0,#1CD855,#FA92F8,0,10,1,38,1,1210.2999999970198,37,1,356.6000000089407,0,1,experiment,NA,NA,1,0.7,0.3,2,3,305,7,NA
fcp-trial,355,1530525,0.0-316.0-0.0,voc_e2,12219,"[{""event"":""fullscreenenter"",""trial"":1,""time"":2014}]",NA,NA,NA,NA,NA,3,#3386FF,#D89F1C,0,0,1,40,0,1332,37,1,496.90000000596046,0,1,experiment,NA,NA,2,0.5,0.5,4,5,306,7,NA
fcp-trial,356,1533644,0.0-317.0-0.0,voc_e2,12219,"[{""event"":""fullscreenenter"",""trial"":1,""time"":2014}]",NA,NA,NA,NA,NA,2,#FA92F8,#1CD855,0,10,0,38,1,1292.2999999970198,39,0,320.3999999910593,10,1,experiment,NA,NA,1,0.3,0.7,3,2,307,7,NA
fcp-trial,357,1536314,0.0-318.0-0.0,voc_e2,12219,"[{""event"":""fullscreenenter"",""trial"":1,""time"":2014}]",NA,NA,NA,NA,NA,2,#D8271C,#741CD8,10,0,1,38,1,701.6000000089407,37,1,460.70000000298023,10,1,experiment,NA,NA,0,0.9,0.1,0,1,308,7,NA
fcp-trial,358,1540341,0.0-319.0-0.0,voc_e2,12219,"[{""event"":""fullscreenenter"",""trial"":1,""time"":2014}]",NA,NA,NA,NA,NA,5,#1CD855,#FA92F8,10,0,1,38,1,2148.7999999970198,37,1,372,10,1,experiment,NA,NA,1,0.7,0.3,2,3,309,7,NA
fcp-trial,359,1544992,0.0-320.0-0.0,voc_e2,12219,"[{""event"":""fullscreenenter"",""trial"":1,""time"":2014}]",NA,NA,NA,NA,NA,1,#D8271C,#741CD8,10,0,1,38,1,2629.5,37,1,515.5,10,1,experiment,NA,NA,0,0.9,0.1,0,1,310,7,NA
fcp-trial,360,1547589,0.0-321.0-0.0,voc_e2,12219,"[{""event"":""fullscreenenter"",""trial"":1,""time"":2014}]",NA,NA,NA,NA,NA,2,#D89F1C,#3386FF,0,0,0,40,0,608.7000000029802,39,0,482.1000000089407,0,1,experiment,NA,NA,2,0.5,0.5,5,4,311,7,NA
fcp-trial,361,1550858,0.0-322.0-0.0,voc_e2,12219,"[{""event"":""fullscreenenter"",""trial"":1,""time"":2014}]",NA,NA,NA,NA,NA,0,#741CD8,#D8271C,10,10,0,38,1,1225.6000000089407,39,0,538.2000000029802,10,1,experiment,NA,NA,0,0.1,0.9,1,0,312,7,NA
fcp-trial,362,1553788,0.0-323.0-0.0,voc_e2,12219,"[{""event"":""fullscreenenter"",""trial"":1,""time"":2014}]",NA,NA,NA,NA,NA,5,#D89F1C,#3386FF,0,0,0,40,0,918.4000000059605,39,0,506.5,0,1,experiment,NA,NA,2,0.5,0.5,5,4,313,7,NA
fcp-trial,363,1556934,0.0-324.0-0.0,voc_e2,12219,"[{""event"":""fullscreenenter"",""trial"":1,""time"":2014}]",NA,NA,NA,NA,NA,3,#1CD855,#FA92F8,10,10,1,38,1,1065,37,1,574.7999999970198,10,1,experiment,NA,NA,1,0.7,0.3,2,3,314,7,NA
fcp-trial,364,1560180,0.0-325.0-0.0,voc_e2,12219,"[{""event"":""fullscreenenter"",""trial"":1,""time"":2014}]",NA,NA,NA,NA,NA,6,#3386FF,#D89F1C,10,0,1,40,0,1177,39,0,560.5,0,0,experiment,NA,NA,2,0.5,0.5,4,5,315,7,NA
audio-instructions,365,1567081,0.0-326.0,voc_e2,12219,"[{""event"":""fullscreenenter"",""trial"":1,""time"":2014}]",NA,1189.5999999940395,static/audio/finished.wav,NA,0,NA,NA,NA,NA,NA,NA,NA,NA,NA,NA,NA,NA,NA,NA,NA,NA,NA,NA,NA,NA,NA,NA,NA,NA,NA
audio-instructions,366,1578534,0.0-327.0-0.0,voc_e2,12219,"[{""event"":""fullscreenenter"",""trial"":1,""time"":2014}]",NA,616.2000000029802,static/audio/explicit1.wav,NA,0,NA,NA,NA,NA,NA,NA,NA,NA,NA,NA,NA,NA,NA,NA,NA,NA,NA,NA,NA,NA,NA,NA,NA,NA,NA
audio-instructions,367,1586697,0.0-327.0-1.0,voc_e2,12219,"[{""event"":""fullscreenenter"",""trial"":1,""time"":2014}]",NA,571.2999999970198,static/audio/explicit2.wav,NA,0,NA,NA,NA,NA,NA,NA,NA,NA,NA,NA,NA,NA,NA,NA,NA,NA,NA,NA,NA,NA,NA,NA,NA,NA,NA
image-slider-response,368,1602188,0.0-328.0,voc_e2,12219,"[{""event"":""fullscreenenter"",""trial"":1,""time"":2014}]",NA,15488.5,static/img/machines/machine3.png,NA,NA,NA,NA,NA,NA,NA,NA,NA,NA,NA,NA,NA,NA,NA,NA,explicit,NA,NA,NA,NA,NA,NA,NA,NA,NA,4
image-slider-response,369,1605003,0.0-329.0,voc_e2,12219,"[{""event"":""fullscreenenter"",""trial"":1,""time"":2014}]",NA,2812.5999999940395,static/img/machines/machine4.png,NA,NA,NA,NA,NA,NA,NA,NA,NA,NA,NA,NA,NA,NA,NA,NA,explicit,NA,NA,NA,NA,NA,NA,NA,NA,NA,4
image-slider-response,370,1613378,0.0-330.0,voc_e2,12219,"[{""event"":""fullscreenenter"",""trial"":1,""time"":2014}]",NA,8373.39999999106,static/img/machines/machine2.png,NA,NA,NA,NA,NA,NA,NA,NA,NA,NA,NA,NA,NA,NA,NA,NA,explicit,NA,NA,NA,NA,NA,NA,NA,NA,NA,2
image-slider-response,371,1627261,0.0-331.0,voc_e2,12219,"[{""event"":""fullscreenenter"",""trial"":1,""time"":2014}]",NA,13881.29999999702,static/img/machines/machine6.png,NA,NA,NA,NA,NA,NA,NA,NA,NA,NA,NA,NA,NA,NA,NA,NA,explicit,NA,NA,NA,NA,NA,NA,NA,NA,NA,6
image-slider-response,372,1630643,0.0-332.0,voc_e2,12219,"[{""event"":""fullscreenenter"",""trial"":1,""time"":2014}]",NA,3380.5,static/img/machines/machine5.png,NA,NA,NA,NA,NA,NA,NA,NA,NA,NA,NA,NA,NA,NA,NA,NA,explicit,NA,NA,NA,NA,NA,NA,NA,NA,NA,2
image-slider-response,373,1634943,0.0-333.0,voc_e2,12219,"[{""event"":""fullscreenenter"",""trial"":1,""time"":2014}]",NA,4297.9000000059605,static/img/machines/machine1.png,NA,NA,NA,NA,NA,NA,NA,NA,NA,NA,NA,NA,NA,NA,NA,NA,explicit,NA,NA,NA,NA,NA,NA,NA,NA,NA,8
