trial_type,trial_index,time_elapsed,internal_node_id,task_version,subject_id,interactions,success,rt,stimulus,key_press,button_pressed,offer,arcade_color_L,arcade_color_R,arcade_outcome_L,arcade_outcome_R,correct,stage_1_key,stage_1_choice,stage_1_rt,stage_2_key,stage_2_choice,stage_2_rt,stage_3_outcome,accuracy,phase,responses,num_errors,context,reward_prob_L,reward_prob_R,arcade_id_L,arcade_id_R,trial,block,response
pavlovia,0,6,0.0-0.0,voc_e2,12173,[],NA,NA,NA,NA,NA,NA,NA,NA,NA,NA,NA,NA,NA,NA,NA,NA,NA,NA,NA,NA,NA,NA,NA,NA,NA,NA,NA,NA,NA,NA
fullscreen,1,2480,0.0-1.0,voc_e2,12173,"[{""event"":""fullscreenenter"",""trial"":1,""time"":1515}]",TRUE,NA,NA,NA,NA,NA,NA,NA,NA,NA,NA,NA,NA,NA,NA,NA,NA,NA,NA,NA,NA,NA,NA,NA,NA,NA,NA,NA,NA,NA
audio-keyboard-response,2,6673,0.0-2.0,voc_e2,12173,"[{""event"":""fullscreenenter"",""trial"":1,""time"":1515}]",NA,4189,static/audio/beep_loop.wav,32,NA,NA,NA,NA,NA,NA,NA,NA,NA,NA,NA,NA,NA,NA,NA,NA,NA,NA,NA,NA,NA,NA,NA,NA,NA,NA
audio-test,3,8288,0.0-3.0,voc_e2,12173,"[{""event"":""fullscreenenter"",""trial"":1,""time"":1515}]",NA,NA,static/audio/turtle.wav,NA,3,NA,NA,NA,NA,NA,NA,NA,NA,NA,NA,NA,NA,NA,NA,NA,NA,NA,NA,NA,NA,NA,NA,NA,NA,NA
audio-test,4,10386,0.0-4.0,voc_e2,12173,"[{""event"":""fullscreenenter"",""trial"":1,""time"":1515}]",NA,NA,static/audio/shark.wav,NA,2,NA,NA,NA,NA,NA,NA,NA,NA,NA,NA,NA,NA,NA,NA,NA,NA,NA,NA,NA,NA,NA,NA,NA,NA,NA
audio-instructions,5,17810,0.0-5.0-0.0,voc_e2,12173,"[{""event"":""fullscreenenter"",""trial"":1,""time"":1515}]",NA,1642.4000000003723,static/audio/instructions1.wav,NA,0,NA,NA,NA,NA,NA,NA,NA,NA,NA,NA,NA,NA,NA,NA,NA,NA,NA,NA,NA,NA,NA,NA,NA,NA,NA
audio-instructions,6,26630,0.0-5.0-1.0,voc_e2,12173,"[{""event"":""fullscreenenter"",""trial"":1,""time"":1515}]",NA,2072.60000000149,static/audio/instructions2.wav,NA,0,NA,NA,NA,NA,NA,NA,NA,NA,NA,NA,NA,NA,NA,NA,NA,NA,NA,NA,NA,NA,NA,NA,NA,NA,NA
audio-instructions,7,33444,0.0-5.0-2.0,voc_e2,12173,"[{""event"":""fullscreenenter"",""trial"":1,""time"":1515}]",NA,1006.5,static/audio/instructions3.wav,NA,0,NA,NA,NA,NA,NA,NA,NA,NA,NA,NA,NA,NA,NA,NA,NA,NA,NA,NA,NA,NA,NA,NA,NA,NA,NA
audio-instructions,8,47451,0.0-5.0-3.0,voc_e2,12173,"[{""event"":""fullscreenenter"",""trial"":1,""time"":1515}]",NA,781.9000000003725,static/audio/instructions4.wav,NA,0,NA,NA,NA,NA,NA,NA,NA,NA,NA,NA,NA,NA,NA,NA,NA,NA,NA,NA,NA,NA,NA,NA,NA,NA,NA
audio-instructions,9,57471,0.0-5.0-4.0,voc_e2,12173,"[{""event"":""fullscreenenter"",""trial"":1,""time"":1515}]",NA,633.5999999996275,static/audio/instructions5.wav,NA,0,NA,NA,NA,NA,NA,NA,NA,NA,NA,NA,NA,NA,NA,NA,NA,NA,NA,NA,NA,NA,NA,NA,NA,NA,NA
fcp-practice,10,61753,0.0-5.0-5.0-0.0,voc_e2,12173,"[{""event"":""fullscreenenter"",""trial"":1,""time"":1515}]",NA,NA,NA,NA,NA,NA,#EDC948,#46d3c8,10,0,1,null,null,null,37,1,2772.9000000003725,10,1,practice,NA,NA,NA,NA,NA,NA,NA,NA,NA,NA
fcp-practice,11,65169,0.0-5.0-5.0-1.0,voc_e2,12173,"[{""event"":""fullscreenenter"",""trial"":1,""time"":1515}]",NA,NA,NA,NA,NA,NA,#EDC948,#46d3c8,10,0,1,null,null,null,37,1,1912.8999999985099,10,1,practice,NA,NA,NA,NA,NA,NA,NA,NA,NA,NA
fcp-practice,12,66700,0.0-5.0-5.0-2.0,voc_e2,12173,"[{""event"":""fullscreenenter"",""trial"":1,""time"":1515}]",NA,NA,NA,NA,NA,NA,#EDC948,#46d3c8,0,10,1,null,null,null,37,1,25.199999999254942,0,1,practice,NA,NA,NA,NA,NA,NA,NA,NA,NA,NA
fcp-practice,13,68305,0.0-5.0-5.0-3.0,voc_e2,12173,"[{""event"":""fullscreenenter"",""trial"":1,""time"":1515}]",NA,NA,NA,NA,NA,NA,#EDC948,#46d3c8,10,0,1,null,null,null,37,1,102.69999999925494,10,1,practice,NA,NA,NA,NA,NA,NA,NA,NA,NA,NA
fcp-practice,14,70145,0.0-5.0-5.0-4.0,voc_e2,12173,"[{""event"":""fullscreenenter"",""trial"":1,""time"":1515}]",NA,NA,NA,NA,NA,NA,#EDC948,#46d3c8,10,0,1,null,null,null,37,1,336.69999999925494,10,1,practice,NA,NA,NA,NA,NA,NA,NA,NA,NA,NA
audio-instructions,15,89700,0.0-5.0-6.0,voc_e2,12173,"[{""event"":""fullscreenenter"",""trial"":1,""time"":1515}]",NA,1552.199999999255,static/audio/instructions6.wav,NA,0,NA,NA,NA,NA,NA,NA,NA,NA,NA,NA,NA,NA,NA,NA,NA,NA,NA,NA,NA,NA,NA,NA,NA,NA,NA
audio-instructions,16,110268,0.0-5.0-7.0,voc_e2,12173,"[{""event"":""fullscreenenter"",""trial"":1,""time"":1515}]",NA,1369.60000000149,static/audio/instructions7.wav,NA,0,NA,NA,NA,NA,NA,NA,NA,NA,NA,NA,NA,NA,NA,NA,NA,NA,NA,NA,NA,NA,NA,NA,NA,NA,NA
audio-instructions,17,120752,0.0-5.0-8.0,voc_e2,12173,"[{""event"":""fullscreenenter"",""trial"":1,""time"":1515}]",NA,1014.3000000007452,static/audio/instructions8.wav,NA,0,NA,NA,NA,NA,NA,NA,NA,NA,NA,NA,NA,NA,NA,NA,NA,NA,NA,NA,NA,NA,NA,NA,NA,NA,NA
fcp-comprehension,18,132327,0.0-5.0-9.0,voc_e2,12173,"[{""event"":""fullscreenenter"",""trial"":1,""time"":1515}]",NA,11573.900000000373,NA,NA,NA,NA,NA,NA,NA,NA,NA,NA,NA,NA,NA,NA,NA,NA,NA,NA,"true,true",0,NA,NA,NA,NA,NA,NA,NA,NA
audio-instructions,19,139921,0.0-6.0-0.0,voc_e2,12173,"[{""event"":""fullscreenenter"",""trial"":1,""time"":1515}]",NA,2043.7000000011176,static/audio/instructions9.wav,NA,0,NA,NA,NA,NA,NA,NA,NA,NA,NA,NA,NA,NA,NA,NA,NA,NA,NA,NA,NA,NA,NA,NA,NA,NA,NA
audio-instructions,20,153176,0.0-6.0-1.0,voc_e2,12173,"[{""event"":""fullscreenenter"",""trial"":1,""time"":1515}]",NA,1137.699999999255,static/audio/instructions10.wav,NA,0,NA,NA,NA,NA,NA,NA,NA,NA,NA,NA,NA,NA,NA,NA,NA,NA,NA,NA,NA,NA,NA,NA,NA,NA,NA
fcp-trial,21,159857,0.0-6.0-2.0,voc_e2,12173,"[{""event"":""fullscreenenter"",""trial"":1,""time"":1515}]",NA,NA,NA,NA,NA,0,#EDC948,#46d3c8,10,10,1,38,1,1371,39,0,3792.5,10,0,practice,NA,NA,NA,NA,NA,NA,NA,NA,NA,NA
audio-instructions,22,171565,0.0-6.0-3.0,voc_e2,12173,"[{""event"":""fullscreenenter"",""trial"":1,""time"":1515}]",NA,696.4000000003725,static/audio/instructions11.wav,NA,0,NA,NA,NA,NA,NA,NA,NA,NA,NA,NA,NA,NA,NA,NA,NA,NA,NA,NA,NA,NA,NA,NA,NA,NA,NA
fcp-trial,23,175326,0.0-6.0-4.0,voc_e2,12173,"[{""event"":""fullscreenenter"",""trial"":1,""time"":1515}]",NA,NA,NA,NA,NA,6,#EDC948,#46d3c8,10,10,1,40,0,857.2000000011176,39,0,1397.2999999988824,10,0,practice,NA,NA,NA,NA,NA,NA,NA,NA,NA,NA
audio-instructions,24,202253,0.0-6.0-5.0,voc_e2,12173,"[{""event"":""fullscreenenter"",""trial"":1,""time"":1515}]",NA,8235.799999998882,static/audio/instructions12.wav,NA,0,NA,NA,NA,NA,NA,NA,NA,NA,NA,NA,NA,NA,NA,NA,NA,NA,NA,NA,NA,NA,NA,NA,NA,NA,NA
audio-instructions,25,210918,0.0-6.0-6.0,voc_e2,12173,"[{""event"":""fullscreenenter"",""trial"":1,""time"":1515}]",NA,1070.5999999996277,static/audio/instructions13.wav,NA,0,NA,NA,NA,NA,NA,NA,NA,NA,NA,NA,NA,NA,NA,NA,NA,NA,NA,NA,NA,NA,NA,NA,NA,NA,NA
audio-instructions,26,220668,0.0-6.0-7.0,voc_e2,12173,"[{""event"":""fullscreenenter"",""trial"":1,""time"":1515}]",NA,1301.5,static/audio/instructions14.wav,NA,0,NA,NA,NA,NA,NA,NA,NA,NA,NA,NA,NA,NA,NA,NA,NA,NA,NA,NA,NA,NA,NA,NA,NA,NA,NA
audio-instructions,27,247659,0.0-7.0-0.0,voc_e2,12173,"[{""event"":""fullscreenenter"",""trial"":1,""time"":1515},{""event"":""blur"",""trial"":27,""time"":222239},{""event"":""focus"",""trial"":27,""time"":247240}]",NA,20079,static/audio/instructions15.wav,NA,0,NA,NA,NA,NA,NA,NA,NA,NA,NA,NA,NA,NA,NA,NA,NA,NA,NA,NA,NA,NA,NA,NA,NA,NA,NA
audio-instructions,28,255668,0.0-7.0-1.0,voc_e2,12173,"[{""event"":""fullscreenenter"",""trial"":1,""time"":1515},{""event"":""blur"",""trial"":27,""time"":222239},{""event"":""focus"",""trial"":27,""time"":247240}]",NA,1178.4000000003723,static/audio/instructions16.wav,NA,0,NA,NA,NA,NA,NA,NA,NA,NA,NA,NA,NA,NA,NA,NA,NA,NA,NA,NA,NA,NA,NA,NA,NA,NA,NA
audio-instructions,29,263917,0.0-7.0-2.0,voc_e2,12173,"[{""event"":""fullscreenenter"",""trial"":1,""time"":1515},{""event"":""blur"",""trial"":27,""time"":222239},{""event"":""focus"",""trial"":27,""time"":247240}]",NA,568.5999999996275,static/audio/instructions17.wav,NA,0,NA,NA,NA,NA,NA,NA,NA,NA,NA,NA,NA,NA,NA,NA,NA,NA,NA,NA,NA,NA,NA,NA,NA,NA,NA
audio-instructions,30,272701,0.0-7.0-3.0,voc_e2,12173,"[{""event"":""fullscreenenter"",""trial"":1,""time"":1515},{""event"":""blur"",""trial"":27,""time"":222239},{""event"":""focus"",""trial"":27,""time"":247240}]",NA,1020.8000000007452,static/audio/instructions18.wav,NA,0,NA,NA,NA,NA,NA,NA,NA,NA,NA,NA,NA,NA,NA,NA,NA,NA,NA,NA,NA,NA,NA,NA,NA,NA,NA
audio-instructions,31,280134,0.0-7.0-4.0,voc_e2,12173,"[{""event"":""fullscreenenter"",""trial"":1,""time"":1515},{""event"":""blur"",""trial"":27,""time"":222239},{""event"":""focus"",""trial"":27,""time"":247240}]",NA,686.1999999992549,static/audio/instructions19.wav,NA,0,NA,NA,NA,NA,NA,NA,NA,NA,NA,NA,NA,NA,NA,NA,NA,NA,NA,NA,NA,NA,NA,NA,NA,NA,NA
fcp-comprehension,32,294742,0.0-7.0-5.0,voc_e2,12173,"[{""event"":""fullscreenenter"",""trial"":1,""time"":1515},{""event"":""blur"",""trial"":27,""time"":222239},{""event"":""focus"",""trial"":27,""time"":247240}]",NA,14605.299999998882,NA,NA,NA,NA,NA,NA,NA,NA,NA,NA,NA,NA,NA,NA,NA,NA,NA,NA,"false,false,false,true",0,NA,NA,NA,NA,NA,NA,NA,NA
audio-instructions,33,304857,0.0-8.0,voc_e2,12173,"[{""event"":""fullscreenenter"",""trial"":1,""time"":1515},{""event"":""blur"",""trial"":27,""time"":222239},{""event"":""focus"",""trial"":27,""time"":247240}]",NA,897,static/audio/ready.wav,NA,0,NA,NA,NA,NA,NA,NA,NA,NA,NA,NA,NA,NA,NA,NA,NA,NA,NA,NA,NA,NA,NA,NA,NA,NA,NA
fcp-trial,34,309633,0.0-9.0-0.0,voc_e2,12173,"[{""event"":""fullscreenenter"",""trial"":1,""time"":1515},{""event"":""blur"",""trial"":27,""time"":222239},{""event"":""focus"",""trial"":27,""time"":247240}]",NA,NA,NA,NA,NA,0,#1CD855,#FA92F8,10,0,1,38,1,2423.89999999851,37,1,838.7999999988824,10,1,experiment,NA,NA,0,0.9,0.1,0,1,1,1,NA
fcp-trial,35,313195,0.0-10.0-0.0,voc_e2,12173,"[{""event"":""fullscreenenter"",""trial"":1,""time"":1515},{""event"":""blur"",""trial"":27,""time"":222239},{""event"":""focus"",""trial"":27,""time"":247240}]",NA,NA,NA,NA,NA,5,#3386FF,#D89F1C,10,10,0,38,1,1242.9000000003725,39,0,812.6000000014901,10,1,experiment,NA,NA,2,0.5,0.5,5,4,2,1,NA
fcp-trial,36,316635,0.0-11.0-0.0,voc_e2,12173,"[{""event"":""fullscreenenter"",""trial"":1,""time"":1515},{""event"":""blur"",""trial"":27,""time"":222239},{""event"":""focus"",""trial"":27,""time"":247240}]",NA,NA,NA,NA,NA,6,#741CD8,#D8271C,10,0,1,38,1,1235.800000000745,37,1,696.0999999996275,10,1,experiment,NA,NA,1,0.7,0.3,2,3,3,1,NA
fcp-trial,37,319710,0.0-12.0-0.0,voc_e2,12173,"[{""event"":""fullscreenenter"",""trial"":1,""time"":1515},{""event"":""blur"",""trial"":27,""time"":222239},{""event"":""focus"",""trial"":27,""time"":247240}]",NA,NA,NA,NA,NA,4,#741CD8,#D8271C,0,0,1,38,1,885.9000000003725,37,1,679.6999999992549,0,1,experiment,NA,NA,1,0.7,0.3,2,3,4,1,NA
fcp-trial,38,322958,0.0-13.0-0.0,voc_e2,12173,"[{""event"":""fullscreenenter"",""trial"":1,""time"":1515},{""event"":""blur"",""trial"":27,""time"":222239},{""event"":""focus"",""trial"":27,""time"":247240}]",NA,NA,NA,NA,NA,2,#1CD855,#FA92F8,10,10,1,38,1,725.5999999996275,39,0,1011.8000000007451,10,0,experiment,NA,NA,0,0.9,0.1,0,1,5,1,NA
fcp-trial,39,326047,0.0-14.0-0.0,voc_e2,12173,"[{""event"":""fullscreenenter"",""trial"":1,""time"":1515},{""event"":""blur"",""trial"":27,""time"":222239},{""event"":""focus"",""trial"":27,""time"":247240}]",NA,NA,NA,NA,NA,0,#D89F1C,#3386FF,0,10,1,38,1,613.5,37,1,968.0999999996275,0,1,experiment,NA,NA,2,0.5,0.5,4,5,6,1,NA
fcp-trial,40,329125,0.0-15.0-0.0,voc_e2,12173,"[{""event"":""fullscreenenter"",""trial"":1,""time"":1515},{""event"":""blur"",""trial"":27,""time"":222239},{""event"":""focus"",""trial"":27,""time"":247240}]",NA,NA,NA,NA,NA,0,#D8271C,#741CD8,10,10,0,38,1,678.4000000003725,39,0,891.5,10,1,experiment,NA,NA,1,0.3,0.7,3,2,7,1,NA
fcp-trial,41,331813,0.0-16.0-0.0,voc_e2,12173,"[{""event"":""fullscreenenter"",""trial"":1,""time"":1515},{""event"":""blur"",""trial"":27,""time"":222239},{""event"":""focus"",""trial"":27,""time"":247240}]",NA,NA,NA,NA,NA,1,#741CD8,#D8271C,10,10,1,38,1,574.5999999996275,37,1,604.2999999988824,10,1,experiment,NA,NA,1,0.7,0.3,2,3,8,1,NA
fcp-trial,42,334596,0.0-17.0-0.0,voc_e2,12173,"[{""event"":""fullscreenenter"",""trial"":1,""time"":1515},{""event"":""blur"",""trial"":27,""time"":222239},{""event"":""focus"",""trial"":27,""time"":247240}]",NA,NA,NA,NA,NA,2,#3386FF,#D89F1C,10,10,0,38,1,465.5,39,0,809,10,1,experiment,NA,NA,2,0.5,0.5,5,4,9,1,NA
fcp-trial,43,337584,0.0-18.0-0.0,voc_e2,12173,"[{""event"":""fullscreenenter"",""trial"":1,""time"":1515},{""event"":""blur"",""trial"":27,""time"":222239},{""event"":""focus"",""trial"":27,""time"":247240}]",NA,NA,NA,NA,NA,3,#FA92F8,#1CD855,0,0,0,38,1,601.5999999996275,37,1,881.6999999992549,0,0,experiment,NA,NA,0,0.1,0.9,1,0,10,1,NA
fcp-trial,44,340284,0.0-19.0-0.0,voc_e2,12173,"[{""event"":""fullscreenenter"",""trial"":1,""time"":1515},{""event"":""blur"",""trial"":27,""time"":222239},{""event"":""focus"",""trial"":27,""time"":247240}]",NA,NA,NA,NA,NA,4,#1CD855,#FA92F8,10,10,1,38,1,416.69999999925494,37,1,774.5,10,1,experiment,NA,NA,0,0.9,0.1,0,1,11,1,NA
fcp-trial,45,343233,0.0-20.0-0.0,voc_e2,12173,"[{""event"":""fullscreenenter"",""trial"":1,""time"":1515},{""event"":""blur"",""trial"":27,""time"":222239},{""event"":""focus"",""trial"":27,""time"":247240}]",NA,NA,NA,NA,NA,2,#D8271C,#741CD8,10,10,0,38,1,684.5,39,0,755.8000000007451,10,1,experiment,NA,NA,1,0.3,0.7,3,2,12,1,NA
fcp-trial,46,346328,0.0-21.0-0.0,voc_e2,12173,"[{""event"":""fullscreenenter"",""trial"":1,""time"":1515},{""event"":""blur"",""trial"":27,""time"":222239},{""event"":""focus"",""trial"":27,""time"":247240}]",NA,NA,NA,NA,NA,4,#D89F1C,#3386FF,0,10,1,40,0,797.5999999996275,39,0,788.5999999996275,10,0,experiment,NA,NA,2,0.5,0.5,4,5,13,1,NA
fcp-trial,47,349594,0.0-22.0-0.0,voc_e2,12173,"[{""event"":""fullscreenenter"",""trial"":1,""time"":1515},{""event"":""blur"",""trial"":27,""time"":222239},{""event"":""focus"",""trial"":27,""time"":247240}]",NA,NA,NA,NA,NA,6,#3386FF,#D89F1C,0,10,0,40,0,498.7999999988824,39,0,1259.9000000003725,10,1,experiment,NA,NA,2,0.5,0.5,5,4,14,1,NA
fcp-trial,48,352275,0.0-23.0-0.0,voc_e2,12173,"[{""event"":""fullscreenenter"",""trial"":1,""time"":1515},{""event"":""blur"",""trial"":27,""time"":222239},{""event"":""focus"",""trial"":27,""time"":247240}]",NA,NA,NA,NA,NA,6,#1CD855,#FA92F8,0,0,1,40,0,459.59999999962747,37,1,711.5,0,1,experiment,NA,NA,0,0.9,0.1,0,1,15,1,NA
fcp-trial,49,355031,0.0-24.0-0.0,voc_e2,12173,"[{""event"":""fullscreenenter"",""trial"":1,""time"":1515},{""event"":""blur"",""trial"":27,""time"":222239},{""event"":""focus"",""trial"":27,""time"":247240}]",NA,NA,NA,NA,NA,3,#741CD8,#D8271C,0,10,1,40,0,545.9000000003725,37,1,702.5,0,1,experiment,NA,NA,1,0.7,0.3,2,3,16,1,NA
fcp-trial,50,357785,0.0-25.0-0.0,voc_e2,12173,"[{""event"":""fullscreenenter"",""trial"":1,""time"":1515},{""event"":""blur"",""trial"":27,""time"":222239},{""event"":""focus"",""trial"":27,""time"":247240}]",NA,NA,NA,NA,NA,1,#3386FF,#D89F1C,10,10,0,40,0,508.7999999988824,37,1,738.5999999996275,10,0,experiment,NA,NA,2,0.5,0.5,5,4,17,1,NA
fcp-trial,51,360365,0.0-26.0-0.0,voc_e2,12173,"[{""event"":""fullscreenenter"",""trial"":1,""time"":1515},{""event"":""blur"",""trial"":27,""time"":222239},{""event"":""focus"",""trial"":27,""time"":247240}]",NA,NA,NA,NA,NA,5,#FA92F8,#1CD855,0,10,0,38,1,369.90000000037253,39,0,701.9000000003725,10,1,experiment,NA,NA,0,0.1,0.9,1,0,18,1,NA
fcp-trial,52,363466,0.0-27.0-0.0,voc_e2,12173,"[{""event"":""fullscreenenter"",""trial"":1,""time"":1515},{""event"":""blur"",""trial"":27,""time"":222239},{""event"":""focus"",""trial"":27,""time"":247240}]",NA,NA,NA,NA,NA,5,#741CD8,#D8271C,10,10,1,40,0,554.0999999996275,39,0,1042.4000000003725,10,0,experiment,NA,NA,1,0.7,0.3,2,3,19,1,NA
fcp-trial,53,366887,0.0-28.0-0.0,voc_e2,12173,"[{""event"":""fullscreenenter"",""trial"":1,""time"":1515},{""event"":""blur"",""trial"":27,""time"":222239},{""event"":""focus"",""trial"":27,""time"":247240}]",NA,NA,NA,NA,NA,1,#1CD855,#FA92F8,10,0,1,40,0,1332.0999999996275,37,1,583.2999999988824,10,1,experiment,NA,NA,0,0.9,0.1,0,1,20,1,NA
fcp-trial,54,369466,0.0-29.0-0.0,voc_e2,12173,"[{""event"":""fullscreenenter"",""trial"":1,""time"":1515},{""event"":""blur"",""trial"":27,""time"":222239},{""event"":""focus"",""trial"":27,""time"":247240}]",NA,NA,NA,NA,NA,3,#3386FF,#D89F1C,10,0,0,40,0,383.2999999988824,37,1,687.5999999996275,10,0,experiment,NA,NA,2,0.5,0.5,5,4,21,1,NA
fcp-trial,55,372537,0.0-30.0-0.0,voc_e2,12173,"[{""event"":""fullscreenenter"",""trial"":1,""time"":1515},{""event"":""blur"",""trial"":27,""time"":222239},{""event"":""focus"",""trial"":27,""time"":247240}]",NA,NA,NA,NA,NA,1,#FA92F8,#1CD855,0,10,0,40,0,804.5,37,1,759.6000000014901,0,0,experiment,NA,NA,0,0.1,0.9,1,0,22,1,NA
fcp-trial,56,375068,0.0-31.0-0.0,voc_e2,12173,"[{""event"":""fullscreenenter"",""trial"":1,""time"":1515},{""event"":""blur"",""trial"":27,""time"":222239},{""event"":""focus"",""trial"":27,""time"":247240}]",NA,NA,NA,NA,NA,3,#D89F1C,#3386FF,0,10,1,38,1,408.5,37,1,614.2999999988824,0,1,experiment,NA,NA,2,0.5,0.5,4,5,23,1,NA
fcp-trial,57,377898,0.0-32.0-0.0,voc_e2,12173,"[{""event"":""fullscreenenter"",""trial"":1,""time"":1515},{""event"":""blur"",""trial"":27,""time"":222239},{""event"":""focus"",""trial"":27,""time"":247240}]",NA,NA,NA,NA,NA,3,#D8271C,#741CD8,0,10,0,38,1,722.8999999985099,39,0,596.7000000011176,10,1,experiment,NA,NA,1,0.3,0.7,3,2,24,1,NA
fcp-trial,58,382247,0.0-33.0-0.0,voc_e2,12173,"[{""event"":""fullscreenenter"",""trial"":1,""time"":1515},{""event"":""blur"",""trial"":27,""time"":222239},{""event"":""focus"",""trial"":27,""time"":247240}]",NA,NA,NA,NA,NA,6,#3386FF,#D89F1C,10,10,0,40,0,837.2000000011176,37,1,2004.699999999255,10,0,experiment,NA,NA,2,0.5,0.5,5,4,25,1,NA
fcp-trial,59,384635,0.0-34.0-0.0,voc_e2,12173,"[{""event"":""fullscreenenter"",""trial"":1,""time"":1515},{""event"":""blur"",""trial"":27,""time"":222239},{""event"":""focus"",""trial"":27,""time"":247240}]",NA,NA,NA,NA,NA,4,#D8271C,#741CD8,0,10,0,40,0,111,39,0,770.9000000003725,10,1,experiment,NA,NA,1,0.3,0.7,3,2,26,1,NA
fcp-trial,60,388184,0.0-35.0-0.0,voc_e2,12173,"[{""event"":""fullscreenenter"",""trial"":1,""time"":1515},{""event"":""blur"",""trial"":27,""time"":222239},{""event"":""focus"",""trial"":27,""time"":247240}]",NA,NA,NA,NA,NA,2,#1CD855,#FA92F8,10,0,1,38,1,1408.2000000011176,37,1,633.8000000007451,10,1,experiment,NA,NA,0,0.9,0.1,0,1,27,1,NA
fcp-trial,61,392095,0.0-36.0-0.0,voc_e2,12173,"[{""event"":""fullscreenenter"",""trial"":1,""time"":1515},{""event"":""blur"",""trial"":27,""time"":222239},{""event"":""focus"",""trial"":27,""time"":247240}]",NA,NA,NA,NA,NA,0,#D8271C,#741CD8,10,10,0,40,0,552.4000000003725,37,1,1848.1000000014901,10,0,experiment,NA,NA,1,0.3,0.7,3,2,28,1,NA
fcp-trial,62,394985,0.0-37.0-0.0,voc_e2,12173,"[{""event"":""fullscreenenter"",""trial"":1,""time"":1515},{""event"":""blur"",""trial"":27,""time"":222239},{""event"":""focus"",""trial"":27,""time"":247240}]",NA,NA,NA,NA,NA,5,#FA92F8,#1CD855,0,10,0,40,0,735.5999999996275,37,1,647.1999999992549,0,0,experiment,NA,NA,0,0.1,0.9,1,0,29,1,NA
fcp-trial,63,397709,0.0-38.0-0.0,voc_e2,12173,"[{""event"":""fullscreenenter"",""trial"":1,""time"":1515},{""event"":""blur"",""trial"":27,""time"":222239},{""event"":""focus"",""trial"":27,""time"":247240}]",NA,NA,NA,NA,NA,0,#3386FF,#D89F1C,10,10,0,38,1,562.8000000007451,37,1,651.4000000003725,10,0,experiment,NA,NA,2,0.5,0.5,5,4,30,1,NA
fcp-trial,64,400400,0.0-39.0-0.0,voc_e2,12173,"[{""event"":""fullscreenenter"",""trial"":1,""time"":1515},{""event"":""blur"",""trial"":27,""time"":222239},{""event"":""focus"",""trial"":27,""time"":247240}]",NA,NA,NA,NA,NA,4,#1CD855,#FA92F8,10,0,1,40,0,596.8000000007451,37,1,588,10,1,experiment,NA,NA,0,0.9,0.1,0,1,31,1,NA
fcp-trial,65,402783,0.0-40.0-0.0,voc_e2,12173,"[{""event"":""fullscreenenter"",""trial"":1,""time"":1515},{""event"":""blur"",""trial"":27,""time"":222239},{""event"":""focus"",""trial"":27,""time"":247240}]",NA,NA,NA,NA,NA,5,#741CD8,#D8271C,10,0,1,38,1,406.7000000011176,37,1,472,10,1,experiment,NA,NA,1,0.7,0.3,2,3,32,1,NA
fcp-trial,66,405940,0.0-41.0-0.0,voc_e2,12173,"[{""event"":""fullscreenenter"",""trial"":1,""time"":1515},{""event"":""blur"",""trial"":27,""time"":222239},{""event"":""focus"",""trial"":27,""time"":247240}]",NA,NA,NA,NA,NA,0,#FA92F8,#1CD855,0,10,0,38,1,1107,39,0,542.7000000011176,10,1,experiment,NA,NA,0,0.1,0.9,1,0,33,1,NA
fcp-trial,67,409248,0.0-42.0-0.0,voc_e2,12173,"[{""event"":""fullscreenenter"",""trial"":1,""time"":1515},{""event"":""blur"",""trial"":27,""time"":222239},{""event"":""focus"",""trial"":27,""time"":247240}]",NA,NA,NA,NA,NA,2,#741CD8,#D8271C,0,0,1,40,0,483.40000000037253,39,0,1318.8999999985099,0,0,experiment,NA,NA,1,0.7,0.3,2,3,34,1,NA
fcp-trial,68,412568,0.0-43.0-0.0,voc_e2,12173,"[{""event"":""fullscreenenter"",""trial"":1,""time"":1515},{""event"":""blur"",""trial"":27,""time"":222239},{""event"":""focus"",""trial"":27,""time"":247240}]",NA,NA,NA,NA,NA,1,#D89F1C,#3386FF,10,0,1,40,0,450,39,0,1363.5,0,0,experiment,NA,NA,2,0.5,0.5,4,5,35,1,NA
fcp-trial,69,416066,0.0-44.0-0.0,voc_e2,12173,"[{""event"":""fullscreenenter"",""trial"":1,""time"":1515},{""event"":""blur"",""trial"":27,""time"":222239},{""event"":""focus"",""trial"":27,""time"":247240}]",NA,NA,NA,NA,NA,6,#FA92F8,#1CD855,0,10,0,40,0,1196.9000000003725,39,0,792.5,10,1,experiment,NA,NA,0,0.1,0.9,1,0,36,1,NA
fcp-trial,70,419247,0.0-45.0-0.0,voc_e2,12173,"[{""event"":""fullscreenenter"",""trial"":1,""time"":1515},{""event"":""blur"",""trial"":27,""time"":222239},{""event"":""focus"",""trial"":27,""time"":247240}]",NA,NA,NA,NA,NA,1,#741CD8,#D8271C,0,0,1,38,1,1074.4000000003725,37,1,598.6999999992549,0,1,experiment,NA,NA,1,0.7,0.3,2,3,37,1,NA
fcp-trial,71,421981,0.0-46.0-0.0,voc_e2,12173,"[{""event"":""fullscreenenter"",""trial"":1,""time"":1515},{""event"":""blur"",""trial"":27,""time"":222239},{""event"":""focus"",""trial"":27,""time"":247240}]",NA,NA,NA,NA,NA,2,#D89F1C,#3386FF,0,10,1,40,0,591.0999999996275,39,0,637.1999999992549,10,0,experiment,NA,NA,2,0.5,0.5,4,5,38,1,NA
fcp-trial,72,424591,0.0-47.0-0.0,voc_e2,12173,"[{""event"":""fullscreenenter"",""trial"":1,""time"":1515},{""event"":""blur"",""trial"":27,""time"":222239},{""event"":""focus"",""trial"":27,""time"":247240}]",NA,NA,NA,NA,NA,5,#3386FF,#D89F1C,10,0,0,38,1,515.5999999996275,37,1,589.4000000003725,10,0,experiment,NA,NA,2,0.5,0.5,5,4,39,1,NA
fcp-trial,73,428467,0.0-48.0-0.0,voc_e2,12173,"[{""event"":""fullscreenenter"",""trial"":1,""time"":1515},{""event"":""blur"",""trial"":27,""time"":222239},{""event"":""focus"",""trial"":27,""time"":247240}]",NA,NA,NA,NA,NA,6,#741CD8,#D8271C,10,10,1,40,0,442.59999999962747,37,1,1927.3999999985099,10,1,experiment,NA,NA,1,0.7,0.3,2,3,40,1,NA
fcp-trial,74,431491,0.0-49.0-0.0,voc_e2,12173,"[{""event"":""fullscreenenter"",""trial"":1,""time"":1515},{""event"":""blur"",""trial"":27,""time"":222239},{""event"":""focus"",""trial"":27,""time"":247240}]",NA,NA,NA,NA,NA,3,#1CD855,#FA92F8,0,0,1,38,1,495.59999999962747,37,1,1020.4000000003725,0,1,experiment,NA,NA,0,0.9,0.1,0,1,41,1,NA
fcp-trial,75,433952,0.0-50.0-0.0,voc_e2,12173,"[{""event"":""fullscreenenter"",""trial"":1,""time"":1515},{""event"":""blur"",""trial"":27,""time"":222239},{""event"":""focus"",""trial"":27,""time"":247240}]",NA,NA,NA,NA,NA,4,#3386FF,#D89F1C,10,0,0,38,1,396.59999999962747,37,1,557.4000000003725,10,0,experiment,NA,NA,2,0.5,0.5,5,4,42,1,NA
fcp-trial,76,436490,0.0-51.0-0.0,voc_e2,12173,"[{""event"":""fullscreenenter"",""trial"":1,""time"":1515},{""event"":""blur"",""trial"":27,""time"":222239},{""event"":""focus"",""trial"":27,""time"":247240}]",NA,NA,NA,NA,NA,0,#D89F1C,#3386FF,10,0,1,38,1,401,39,0,627.4000000003725,0,0,experiment,NA,NA,2,0.5,0.5,4,5,43,1,NA
fcp-trial,77,439750,0.0-52.0-0.0,voc_e2,12173,"[{""event"":""fullscreenenter"",""trial"":1,""time"":1515},{""event"":""blur"",""trial"":27,""time"":222239},{""event"":""focus"",""trial"":27,""time"":247240}]",NA,NA,NA,NA,NA,2,#FA92F8,#1CD855,0,10,0,40,0,316.5,39,0,1438.3999999985099,10,1,experiment,NA,NA,0,0.1,0.9,1,0,44,1,NA
fcp-trial,78,443093,0.0-53.0-0.0,voc_e2,12173,"[{""event"":""fullscreenenter"",""trial"":1,""time"":1515},{""event"":""blur"",""trial"":27,""time"":222239},{""event"":""focus"",""trial"":27,""time"":247240}]",NA,NA,NA,NA,NA,0,#D8271C,#741CD8,0,0,0,40,0,713.6000000014901,37,1,1122.199999999255,0,0,experiment,NA,NA,1,0.3,0.7,3,2,45,1,NA
fcp-trial,79,447264,0.0-54.0-0.0,voc_e2,12173,"[{""event"":""fullscreenenter"",""trial"":1,""time"":1515},{""event"":""blur"",""trial"":27,""time"":222239},{""event"":""focus"",""trial"":27,""time"":247240}]",NA,NA,NA,NA,NA,4,#3386FF,#D89F1C,10,0,0,38,1,2024.2999999988824,37,1,637.8000000007451,10,0,experiment,NA,NA,2,0.5,0.5,5,4,46,2,NA
fcp-trial,80,450762,0.0-55.0-0.0,voc_e2,12173,"[{""event"":""fullscreenenter"",""trial"":1,""time"":1515},{""event"":""blur"",""trial"":27,""time"":222239},{""event"":""focus"",""trial"":27,""time"":247240}]",NA,NA,NA,NA,NA,1,#741CD8,#D8271C,0,10,1,38,1,1387.4000000003725,37,1,605.4000000003725,0,1,experiment,NA,NA,1,0.7,0.3,2,3,47,2,NA
fcp-trial,81,454491,0.0-56.0-0.0,voc_e2,12173,"[{""event"":""fullscreenenter"",""trial"":1,""time"":1515},{""event"":""blur"",""trial"":27,""time"":222239},{""event"":""focus"",""trial"":27,""time"":247240}]",NA,NA,NA,NA,NA,2,#D89F1C,#3386FF,0,10,1,40,0,1069.4000000003725,37,1,1150.2000000011176,0,1,experiment,NA,NA,2,0.5,0.5,4,5,48,2,NA
fcp-trial,82,457161,0.0-57.0-0.0,voc_e2,12173,"[{""event"":""fullscreenenter"",""trial"":1,""time"":1515},{""event"":""blur"",""trial"":27,""time"":222239},{""event"":""focus"",""trial"":27,""time"":247240}]",NA,NA,NA,NA,NA,3,#1CD855,#FA92F8,10,0,1,38,1,478.30000000074506,39,0,682.4000000003725,0,0,experiment,NA,NA,0,0.9,0.1,0,1,49,2,NA
fcp-trial,83,459604,0.0-58.0-0.0,voc_e2,12173,"[{""event"":""fullscreenenter"",""trial"":1,""time"":1515},{""event"":""blur"",""trial"":27,""time"":222239},{""event"":""focus"",""trial"":27,""time"":247240}]",NA,NA,NA,NA,NA,3,#3386FF,#D89F1C,10,10,0,38,1,397.6000000014901,37,1,535.8000000007451,10,0,experiment,NA,NA,2,0.5,0.5,5,4,50,2,NA
fcp-trial,84,462135,0.0-59.0-0.0,voc_e2,12173,"[{""event"":""fullscreenenter"",""trial"":1,""time"":1515},{""event"":""blur"",""trial"":27,""time"":222239},{""event"":""focus"",""trial"":27,""time"":247240}]",NA,NA,NA,NA,NA,4,#FA92F8,#1CD855,0,10,0,38,1,328.2000000011176,39,0,696.4000000003725,10,1,experiment,NA,NA,0,0.1,0.9,1,0,51,2,NA
fcp-trial,85,464479,0.0-60.0-0.0,voc_e2,12173,"[{""event"":""fullscreenenter"",""trial"":1,""time"":1515},{""event"":""blur"",""trial"":27,""time"":222239},{""event"":""focus"",""trial"":27,""time"":247240}]",NA,NA,NA,NA,NA,3,#D8271C,#741CD8,0,10,0,38,1,294.1000000014901,39,0,541.2999999988824,10,1,experiment,NA,NA,1,0.3,0.7,3,2,52,2,NA
fcp-trial,86,467585,0.0-61.0-0.0,voc_e2,12173,"[{""event"":""fullscreenenter"",""trial"":1,""time"":1515},{""event"":""blur"",""trial"":27,""time"":222239},{""event"":""focus"",""trial"":27,""time"":247240}]",NA,NA,NA,NA,NA,5,#3386FF,#D89F1C,0,0,0,40,0,314,37,1,1285.5,0,0,experiment,NA,NA,2,0.5,0.5,5,4,53,2,NA
fcp-trial,87,471390,0.0-62.0-0.0,voc_e2,12173,"[{""event"":""fullscreenenter"",""trial"":1,""time"":1515},{""event"":""blur"",""trial"":27,""time"":222239},{""event"":""focus"",""trial"":27,""time"":247240}]",NA,NA,NA,NA,NA,1,#1CD855,#FA92F8,10,0,1,38,1,1234.4000000003725,37,1,1060.199999999255,10,1,experiment,NA,NA,0,0.9,0.1,0,1,54,2,NA
fcp-trial,88,474655,0.0-63.0-0.0,voc_e2,12173,"[{""event"":""fullscreenenter"",""trial"":1,""time"":1515},{""event"":""blur"",""trial"":27,""time"":222239},{""event"":""focus"",""trial"":27,""time"":247240}]",NA,NA,NA,NA,NA,5,#D8271C,#741CD8,0,10,0,38,1,1238.7000000011176,39,0,513.1999999992549,10,1,experiment,NA,NA,1,0.3,0.7,3,2,55,2,NA
fcp-trial,89,478124,0.0-64.0-0.0,voc_e2,12173,"[{""event"":""fullscreenenter"",""trial"":1,""time"":1515},{""event"":""blur"",""trial"":27,""time"":222239},{""event"":""focus"",""trial"":27,""time"":247240}]",NA,NA,NA,NA,NA,1,#3386FF,#D89F1C,0,0,0,40,0,908.8000000007451,37,1,1051.2999999988824,0,0,experiment,NA,NA,2,0.5,0.5,5,4,56,2,NA
fcp-trial,90,481420,0.0-65.0-0.0,voc_e2,12173,"[{""event"":""fullscreenenter"",""trial"":1,""time"":1515},{""event"":""blur"",""trial"":27,""time"":222239},{""event"":""focus"",""trial"":27,""time"":247240}]",NA,NA,NA,NA,NA,6,#FA92F8,#1CD855,0,0,0,38,1,920.2999999988824,39,0,868.0999999996275,0,1,experiment,NA,NA,0,0.1,0.9,1,0,57,2,NA
fcp-trial,91,486783,0.0-66.0-0.0,voc_e2,12173,"[{""event"":""fullscreenenter"",""trial"":1,""time"":1515},{""event"":""blur"",""trial"":27,""time"":222239},{""event"":""focus"",""trial"":27,""time"":247240}]",NA,NA,NA,NA,NA,6,#D8271C,#741CD8,0,10,0,40,0,1415.3999999985099,39,0,2439.5,10,1,experiment,NA,NA,1,0.3,0.7,3,2,58,2,NA
fcp-trial,92,492603,0.0-67.0-0.0,voc_e2,12173,"[{""event"":""fullscreenenter"",""trial"":1,""time"":1515},{""event"":""blur"",""trial"":27,""time"":222239},{""event"":""focus"",""trial"":27,""time"":247240}]",NA,NA,NA,NA,NA,6,#3386FF,#D89F1C,0,10,0,40,0,1461.0999999996275,37,1,2852,0,0,experiment,NA,NA,2,0.5,0.5,5,4,59,2,NA
fcp-trial,93,496629,0.0-68.0-0.0,voc_e2,12173,"[{""event"":""fullscreenenter"",""trial"":1,""time"":1515},{""event"":""blur"",""trial"":27,""time"":222239},{""event"":""focus"",""trial"":27,""time"":247240}]",NA,NA,NA,NA,NA,2,#D8271C,#741CD8,0,10,0,38,1,1466,37,1,1051.699999999255,0,0,experiment,NA,NA,1,0.3,0.7,3,2,60,2,NA
fcp-trial,94,499766,0.0-69.0-0.0,voc_e2,12173,"[{""event"":""fullscreenenter"",""trial"":1,""time"":1515},{""event"":""blur"",""trial"":27,""time"":222239},{""event"":""focus"",""trial"":27,""time"":247240}]",NA,NA,NA,NA,NA,5,#1CD855,#FA92F8,10,0,1,38,1,890.3000000007451,39,0,740.7999999988824,0,0,experiment,NA,NA,0,0.9,0.1,0,1,61,2,NA
fcp-trial,95,503080,0.0-70.0-0.0,voc_e2,12173,"[{""event"":""fullscreenenter"",""trial"":1,""time"":1515},{""event"":""blur"",""trial"":27,""time"":222239},{""event"":""focus"",""trial"":27,""time"":247240}]",NA,NA,NA,NA,NA,0,#1CD855,#FA92F8,10,0,1,38,1,870.5999999996275,39,0,935.3000000007451,0,0,experiment,NA,NA,0,0.9,0.1,0,1,62,2,NA
fcp-trial,96,505929,0.0-71.0-0.0,voc_e2,12173,"[{""event"":""fullscreenenter"",""trial"":1,""time"":1515},{""event"":""blur"",""trial"":27,""time"":222239},{""event"":""focus"",""trial"":27,""time"":247240}]",NA,NA,NA,NA,NA,4,#741CD8,#D8271C,10,0,1,38,1,734.5,37,1,609.0999999996275,10,1,experiment,NA,NA,1,0.7,0.3,2,3,63,2,NA
fcp-trial,97,510275,0.0-72.0-0.0,voc_e2,12173,"[{""event"":""fullscreenenter"",""trial"":1,""time"":1515},{""event"":""blur"",""trial"":27,""time"":222239},{""event"":""focus"",""trial"":27,""time"":247240}]",NA,NA,NA,NA,NA,3,#FA92F8,#1CD855,0,10,0,40,0,1931.699999999255,39,0,907.8000000007451,10,1,experiment,NA,NA,0,0.1,0.9,1,0,64,2,NA
fcp-trial,98,514112,0.0-73.0-0.0,voc_e2,12173,"[{""event"":""fullscreenenter"",""trial"":1,""time"":1515},{""event"":""blur"",""trial"":27,""time"":222239},{""event"":""focus"",""trial"":27,""time"":247240}]",NA,NA,NA,NA,NA,6,#3386FF,#D89F1C,0,10,0,38,1,1478.7000000011176,37,1,850,0,0,experiment,NA,NA,2,0.5,0.5,5,4,65,2,NA
fcp-trial,99,518224,0.0-74.0-0.0,voc_e2,12173,"[{""event"":""fullscreenenter"",""trial"":1,""time"":1515},{""event"":""blur"",""trial"":27,""time"":222239},{""event"":""focus"",""trial"":27,""time"":247240}]",NA,NA,NA,NA,NA,3,#741CD8,#D8271C,10,0,1,38,1,1645.9000000003725,39,0,958.4000000003725,0,0,experiment,NA,NA,1,0.7,0.3,2,3,66,2,NA
fcp-trial,100,520915,0.0-75.0-0.0,voc_e2,12173,"[{""event"":""fullscreenenter"",""trial"":1,""time"":1515},{""event"":""blur"",""trial"":27,""time"":222239},{""event"":""focus"",""trial"":27,""time"":247240}]",NA,NA,NA,NA,NA,6,#D8271C,#741CD8,10,10,0,38,1,448.90000000037253,39,0,733.5,10,1,experiment,NA,NA,1,0.3,0.7,3,2,67,2,NA
fcp-trial,101,523505,0.0-76.0-0.0,voc_e2,12173,"[{""event"":""fullscreenenter"",""trial"":1,""time"":1515},{""event"":""blur"",""trial"":27,""time"":222239},{""event"":""focus"",""trial"":27,""time"":247240}]",NA,NA,NA,NA,NA,5,#3386FF,#D89F1C,10,10,0,38,1,454.7999999988824,37,1,628.3000000007451,10,0,experiment,NA,NA,2,0.5,0.5,5,4,68,2,NA
fcp-trial,102,526550,0.0-77.0-0.0,voc_e2,12173,"[{""event"":""fullscreenenter"",""trial"":1,""time"":1515},{""event"":""blur"",""trial"":27,""time"":222239},{""event"":""focus"",""trial"":27,""time"":247240}]",NA,NA,NA,NA,NA,0,#FA92F8,#1CD855,10,10,0,38,1,602.8999999985099,39,0,933.8000000007451,10,1,experiment,NA,NA,0,0.1,0.9,1,0,69,2,NA
fcp-trial,103,529812,0.0-78.0-0.0,voc_e2,12173,"[{""event"":""fullscreenenter"",""trial"":1,""time"":1515},{""event"":""blur"",""trial"":27,""time"":222239},{""event"":""focus"",""trial"":27,""time"":247240}]",NA,NA,NA,NA,NA,1,#1CD855,#FA92F8,10,0,1,38,1,843.7999999988824,39,0,911.9000000003725,0,0,experiment,NA,NA,0,0.9,0.1,0,1,70,2,NA
fcp-trial,104,532480,0.0-79.0-0.0,voc_e2,12173,"[{""event"":""fullscreenenter"",""trial"":1,""time"":1515},{""event"":""blur"",""trial"":27,""time"":222239},{""event"":""focus"",""trial"":27,""time"":247240}]",NA,NA,NA,NA,NA,2,#D8271C,#741CD8,0,10,0,38,1,595.5,39,0,565.5999999996275,10,1,experiment,NA,NA,1,0.3,0.7,3,2,71,2,NA
fcp-trial,105,535815,0.0-80.0-0.0,voc_e2,12173,"[{""event"":""fullscreenenter"",""trial"":1,""time"":1515},{""event"":""blur"",""trial"":27,""time"":222239},{""event"":""focus"",""trial"":27,""time"":247240}]",NA,NA,NA,NA,NA,4,#741CD8,#D8271C,0,10,1,40,0,714.3999999985099,39,0,1115.7000000011176,10,0,experiment,NA,NA,1,0.7,0.3,2,3,72,2,NA
fcp-trial,106,538387,0.0-81.0-0.0,voc_e2,12173,"[{""event"":""fullscreenenter"",""trial"":1,""time"":1515},{""event"":""blur"",""trial"":27,""time"":222239},{""event"":""focus"",""trial"":27,""time"":247240}]",NA,NA,NA,NA,NA,4,#D89F1C,#3386FF,10,0,1,38,1,468,39,0,597.1999999992549,0,0,experiment,NA,NA,2,0.5,0.5,4,5,73,2,NA
fcp-trial,107,541434,0.0-82.0-0.0,voc_e2,12173,"[{""event"":""fullscreenenter"",""trial"":1,""time"":1515},{""event"":""blur"",""trial"":27,""time"":222239},{""event"":""focus"",""trial"":27,""time"":247240}]",NA,NA,NA,NA,NA,6,#1CD855,#FA92F8,10,0,1,38,1,465.5,37,1,1072.0999999996275,10,1,experiment,NA,NA,0,0.9,0.1,0,1,74,2,NA
fcp-trial,108,544648,0.0-83.0-0.0,voc_e2,12173,"[{""event"":""fullscreenenter"",""trial"":1,""time"":1515},{""event"":""blur"",""trial"":27,""time"":222239},{""event"":""focus"",""trial"":27,""time"":247240}]",NA,NA,NA,NA,NA,3,#D89F1C,#3386FF,10,10,1,40,0,805.5999999996275,37,1,899.6999999992549,10,1,experiment,NA,NA,2,0.5,0.5,4,5,75,2,NA
fcp-trial,109,547813,0.0-84.0-0.0,voc_e2,12173,"[{""event"":""fullscreenenter"",""trial"":1,""time"":1515},{""event"":""blur"",""trial"":27,""time"":222239},{""event"":""focus"",""trial"":27,""time"":247240}]",NA,NA,NA,NA,NA,4,#FA92F8,#1CD855,0,10,0,38,1,953.0999999996275,39,0,704.0999999996275,10,1,experiment,NA,NA,0,0.1,0.9,1,0,76,2,NA
fcp-trial,110,551668,0.0-85.0-0.0,voc_e2,12173,"[{""event"":""fullscreenenter"",""trial"":1,""time"":1515},{""event"":""blur"",""trial"":27,""time"":222239},{""event"":""focus"",""trial"":27,""time"":247240}]",NA,NA,NA,NA,NA,1,#741CD8,#D8271C,10,0,1,38,1,1511.4000000003725,37,1,837.5,10,1,experiment,NA,NA,1,0.7,0.3,2,3,77,2,NA
fcp-trial,111,554804,0.0-86.0-0.0,voc_e2,12173,"[{""event"":""fullscreenenter"",""trial"":1,""time"":1515},{""event"":""blur"",""trial"":27,""time"":222239},{""event"":""focus"",""trial"":27,""time"":247240}]",NA,NA,NA,NA,NA,1,#3386FF,#D89F1C,0,0,0,38,1,948.4000000003725,37,1,677,0,0,experiment,NA,NA,2,0.5,0.5,5,4,78,2,NA
fcp-trial,112,558026,0.0-87.0-0.0,voc_e2,12173,"[{""event"":""fullscreenenter"",""trial"":1,""time"":1515},{""event"":""blur"",""trial"":27,""time"":222239},{""event"":""focus"",""trial"":27,""time"":247240}]",NA,NA,NA,NA,NA,0,#D8271C,#741CD8,10,10,0,38,1,750.8000000007451,37,1,963.3000000007451,10,0,experiment,NA,NA,1,0.3,0.7,3,2,79,2,NA
fcp-trial,113,561318,0.0-88.0-0.0,voc_e2,12173,"[{""event"":""fullscreenenter"",""trial"":1,""time"":1515},{""event"":""blur"",""trial"":27,""time"":222239},{""event"":""focus"",""trial"":27,""time"":247240}]",NA,NA,NA,NA,NA,2,#FA92F8,#1CD855,0,0,0,38,1,840.4000000003725,39,0,944.7999999988824,0,1,experiment,NA,NA,0,0.1,0.9,1,0,80,2,NA
fcp-trial,114,564526,0.0-89.0-0.0,voc_e2,12173,"[{""event"":""fullscreenenter"",""trial"":1,""time"":1515},{""event"":""blur"",""trial"":27,""time"":222239},{""event"":""focus"",""trial"":27,""time"":247240}]",NA,NA,NA,NA,NA,5,#FA92F8,#1CD855,0,0,0,40,0,694.7000000011176,39,0,1005.2000000011176,0,1,experiment,NA,NA,0,0.1,0.9,1,0,81,2,NA
fcp-trial,115,568682,0.0-90.0-0.0,voc_e2,12173,"[{""event"":""fullscreenenter"",""trial"":1,""time"":1515},{""event"":""blur"",""trial"":27,""time"":222239},{""event"":""focus"",""trial"":27,""time"":247240}]",NA,NA,NA,NA,NA,2,#D89F1C,#3386FF,0,10,1,38,1,1040.0999999996275,39,0,1607.1000000014901,10,0,experiment,NA,NA,2,0.5,0.5,4,5,82,2,NA
fcp-trial,116,571927,0.0-91.0-0.0,voc_e2,12173,"[{""event"":""fullscreenenter"",""trial"":1,""time"":1515},{""event"":""blur"",""trial"":27,""time"":222239},{""event"":""focus"",""trial"":27,""time"":247240}]",NA,NA,NA,NA,NA,0,#3386FF,#D89F1C,10,0,0,38,1,1121.4000000003725,37,1,617.9000000003725,10,0,experiment,NA,NA,2,0.5,0.5,5,4,83,2,NA
fcp-trial,117,575361,0.0-92.0-0.0,voc_e2,12173,"[{""event"":""fullscreenenter"",""trial"":1,""time"":1515},{""event"":""blur"",""trial"":27,""time"":222239},{""event"":""focus"",""trial"":27,""time"":247240}]",NA,NA,NA,NA,NA,5,#741CD8,#D8271C,10,10,1,40,0,1058.4000000003725,39,0,868.5,10,0,experiment,NA,NA,1,0.7,0.3,2,3,84,2,NA
fcp-trial,118,579421,0.0-93.0-0.0,voc_e2,12173,"[{""event"":""fullscreenenter"",""trial"":1,""time"":1515},{""event"":""blur"",""trial"":27,""time"":222239},{""event"":""focus"",""trial"":27,""time"":247240}]",NA,NA,NA,NA,NA,2,#FA92F8,#1CD855,10,10,0,38,1,1300.199999999255,39,0,1253.5,10,1,experiment,NA,NA,0,0.1,0.9,1,0,85,2,NA
fcp-trial,119,583035,0.0-94.0-0.0,voc_e2,12173,"[{""event"":""fullscreenenter"",""trial"":1,""time"":1515},{""event"":""blur"",""trial"":27,""time"":222239},{""event"":""focus"",""trial"":27,""time"":247240}]",NA,NA,NA,NA,NA,3,#3386FF,#D89F1C,10,0,0,38,1,1538.699999999255,37,1,570.1000000014901,10,0,experiment,NA,NA,2,0.5,0.5,5,4,86,2,NA
fcp-trial,120,586359,0.0-95.0-0.0,voc_e2,12173,"[{""event"":""fullscreenenter"",""trial"":1,""time"":1515},{""event"":""blur"",""trial"":27,""time"":222239},{""event"":""focus"",""trial"":27,""time"":247240}]",NA,NA,NA,NA,NA,6,#FA92F8,#1CD855,0,10,0,38,1,1222,39,0,591.2000000011176,10,1,experiment,NA,NA,0,0.1,0.9,1,0,87,2,NA
fcp-trial,121,590373,0.0-96.0-0.0,voc_e2,12173,"[{""event"":""fullscreenenter"",""trial"":1,""time"":1515},{""event"":""blur"",""trial"":27,""time"":222239},{""event"":""focus"",""trial"":27,""time"":247240}]",NA,NA,NA,NA,NA,6,#D8271C,#741CD8,0,10,0,40,0,1463.5,37,1,1044.2000000011176,0,0,experiment,NA,NA,1,0.3,0.7,3,2,88,2,NA
fcp-trial,122,593862,0.0-97.0-0.0,voc_e2,12173,"[{""event"":""fullscreenenter"",""trial"":1,""time"":1515},{""event"":""blur"",""trial"":27,""time"":222239},{""event"":""focus"",""trial"":27,""time"":247240}]",NA,NA,NA,NA,NA,1,#741CD8,#D8271C,10,0,1,38,1,1443.199999999255,37,1,536.7999999988824,10,1,experiment,NA,NA,1,0.7,0.3,2,3,89,2,NA
fcp-trial,123,596877,0.0-98.0-0.0,voc_e2,12173,"[{""event"":""fullscreenenter"",""trial"":1,""time"":1515},{""event"":""blur"",""trial"":27,""time"":222239},{""event"":""focus"",""trial"":27,""time"":247240}]",NA,NA,NA,NA,NA,0,#1CD855,#FA92F8,10,10,1,38,1,931.5,39,0,576.5,10,0,experiment,NA,NA,0,0.9,0.1,0,1,90,2,NA
fcp-trial,124,601719,0.0-99.0-0.0,voc_e2,12173,"[{""event"":""fullscreenenter"",""trial"":1,""time"":1515},{""event"":""blur"",""trial"":27,""time"":222239},{""event"":""focus"",""trial"":27,""time"":247240}]",NA,NA,NA,NA,NA,6,#D89F1C,#3386FF,10,10,1,38,1,2103.4000000003725,39,0,1229.9000000003725,10,0,experiment,NA,NA,2,0.5,0.5,4,5,91,3,NA
fcp-trial,125,605204,0.0-100.0-0.0,voc_e2,12173,"[{""event"":""fullscreenenter"",""trial"":1,""time"":1515},{""event"":""blur"",""trial"":27,""time"":222239},{""event"":""focus"",""trial"":27,""time"":247240}]",NA,NA,NA,NA,NA,5,#FA92F8,#1CD855,0,0,0,40,0,1116.2999999988824,37,1,859.9000000003725,0,0,experiment,NA,NA,0,0.1,0.9,1,0,92,3,NA
fcp-trial,126,609357,0.0-101.0-0.0,voc_e2,12173,"[{""event"":""fullscreenenter"",""trial"":1,""time"":1515},{""event"":""blur"",""trial"":27,""time"":222239},{""event"":""focus"",""trial"":27,""time"":247240}]",NA,NA,NA,NA,NA,0,#D89F1C,#3386FF,0,0,1,38,1,1593.2000000011176,39,0,1054.5,0,0,experiment,NA,NA,2,0.5,0.5,4,5,93,3,NA
fcp-trial,127,612707,0.0-102.0-0.0,voc_e2,12173,"[{""event"":""fullscreenenter"",""trial"":1,""time"":1515},{""event"":""blur"",""trial"":27,""time"":222239},{""event"":""focus"",""trial"":27,""time"":247240}]",NA,NA,NA,NA,NA,2,#741CD8,#D8271C,10,0,1,40,0,915.6999999992549,39,0,924.2999999988824,0,0,experiment,NA,NA,1,0.7,0.3,2,3,94,3,NA
fcp-trial,128,615295,0.0-103.0-0.0,voc_e2,12173,"[{""event"":""fullscreenenter"",""trial"":1,""time"":1515},{""event"":""blur"",""trial"":27,""time"":222239},{""event"":""focus"",""trial"":27,""time"":247240}]",NA,NA,NA,NA,NA,1,#FA92F8,#1CD855,0,10,0,38,1,403.7000000011176,39,0,677.5999999996275,10,1,experiment,NA,NA,0,0.1,0.9,1,0,95,3,NA
fcp-trial,129,618876,0.0-104.0-0.0,voc_e2,12173,"[{""event"":""fullscreenenter"",""trial"":1,""time"":1515},{""event"":""blur"",""trial"":27,""time"":222239},{""event"":""focus"",""trial"":27,""time"":247240}]",NA,NA,NA,NA,NA,4,#D8271C,#741CD8,0,10,0,40,0,1196.7999999988824,39,0,877.6000000014901,10,1,experiment,NA,NA,1,0.3,0.7,3,2,96,3,NA
fcp-trial,130,622130,0.0-105.0-0.0,voc_e2,12173,"[{""event"":""fullscreenenter"",""trial"":1,""time"":1515},{""event"":""blur"",""trial"":27,""time"":222239},{""event"":""focus"",""trial"":27,""time"":247240}]",NA,NA,NA,NA,NA,1,#D89F1C,#3386FF,10,0,1,38,1,1044.300000000745,39,0,701.5999999996275,0,0,experiment,NA,NA,2,0.5,0.5,4,5,97,3,NA
fcp-trial,131,625029,0.0-106.0-0.0,voc_e2,12173,"[{""event"":""fullscreenenter"",""trial"":1,""time"":1515},{""event"":""blur"",""trial"":27,""time"":222239},{""event"":""focus"",""trial"":27,""time"":247240}]",NA,NA,NA,NA,NA,4,#FA92F8,#1CD855,0,10,0,38,1,735.6999999992549,37,1,655.6000000014901,0,0,experiment,NA,NA,0,0.1,0.9,1,0,98,3,NA
fcp-trial,132,628427,0.0-107.0-0.0,voc_e2,12173,"[{""event"":""fullscreenenter"",""trial"":1,""time"":1515},{""event"":""blur"",""trial"":27,""time"":222239},{""event"":""focus"",""trial"":27,""time"":247240}]",NA,NA,NA,NA,NA,5,#D89F1C,#3386FF,10,0,1,40,0,855.7000000011176,37,1,1035,10,1,experiment,NA,NA,2,0.5,0.5,4,5,99,3,NA
fcp-trial,133,632324,0.0-108.0-0.0,voc_e2,12173,"[{""event"":""fullscreenenter"",""trial"":1,""time"":1515},{""event"":""blur"",""trial"":27,""time"":222239},{""event"":""focus"",""trial"":27,""time"":247240}]",NA,NA,NA,NA,NA,0,#D8271C,#741CD8,0,10,0,38,1,1849.199999999255,39,0,539.1000000014901,10,1,experiment,NA,NA,1,0.3,0.7,3,2,100,3,NA
fcp-trial,134,636056,0.0-109.0-0.0,voc_e2,12173,"[{""event"":""fullscreenenter"",""trial"":1,""time"":1515},{""event"":""blur"",""trial"":27,""time"":222239},{""event"":""focus"",""trial"":27,""time"":247240}]",NA,NA,NA,NA,NA,5,#D8271C,#741CD8,0,10,0,40,0,1504.800000000745,37,1,721,0,0,experiment,NA,NA,1,0.3,0.7,3,2,101,3,NA
fcp-trial,135,640424,0.0-110.0-0.0,voc_e2,12173,"[{""event"":""fullscreenenter"",""trial"":1,""time"":1515},{""event"":""blur"",""trial"":27,""time"":222239},{""event"":""focus"",""trial"":27,""time"":247240}]",NA,NA,NA,NA,NA,3,#1CD855,#FA92F8,10,0,1,40,0,2174.60000000149,37,1,686.7999999988824,10,1,experiment,NA,NA,0,0.9,0.1,0,1,102,3,NA
fcp-trial,136,643449,0.0-111.0-0.0,voc_e2,12173,"[{""event"":""fullscreenenter"",""trial"":1,""time"":1515},{""event"":""blur"",""trial"":27,""time"":222239},{""event"":""focus"",""trial"":27,""time"":247240}]",NA,NA,NA,NA,NA,4,#3386FF,#D89F1C,10,10,0,40,0,716.0999999996275,39,0,803.0999999996275,10,1,experiment,NA,NA,2,0.5,0.5,5,4,103,3,NA
fcp-trial,137,646541,0.0-112.0-0.0,voc_e2,12173,"[{""event"":""fullscreenenter"",""trial"":1,""time"":1515},{""event"":""blur"",""trial"":27,""time"":222239},{""event"":""focus"",""trial"":27,""time"":247240}]",NA,NA,NA,NA,NA,2,#D89F1C,#3386FF,10,10,1,40,0,896.8000000007451,39,0,688.0999999996275,10,0,experiment,NA,NA,2,0.5,0.5,4,5,104,3,NA
fcp-trial,138,649779,0.0-113.0-0.0,voc_e2,12173,"[{""event"":""fullscreenenter"",""trial"":1,""time"":1515},{""event"":""blur"",""trial"":27,""time"":222239},{""event"":""focus"",""trial"":27,""time"":247240}]",NA,NA,NA,NA,NA,3,#741CD8,#D8271C,0,0,1,40,0,1131.2000000011176,39,0,599.5,0,0,experiment,NA,NA,1,0.7,0.3,2,3,105,3,NA
audio-instructions,139,706728,0.0-114.0,voc_e2,12173,"[{""event"":""fullscreenenter"",""trial"":1,""time"":1515},{""event"":""blur"",""trial"":27,""time"":222239},{""event"":""focus"",""trial"":27,""time"":247240}]",NA,52311.800000000745,static/audio/pause.wav,NA,0,NA,NA,NA,NA,NA,NA,NA,NA,NA,NA,NA,NA,NA,NA,NA,NA,NA,NA,NA,NA,NA,NA,NA,NA,NA
fcp-trial,140,721731,0.0-115.0-0.0,voc_e2,12173,"[{""event"":""fullscreenenter"",""trial"":1,""time"":1515},{""event"":""blur"",""trial"":27,""time"":222239},{""event"":""focus"",""trial"":27,""time"":247240}]",NA,NA,NA,NA,NA,1,#FA92F8,#1CD855,0,10,0,null,null,null,null,null,null,NA,0,experiment,NA,NA,0,0.1,0.9,1,0,106,3,NA
fcp-trial,141,725529,0.0-116.0-0.0,voc_e2,12173,"[{""event"":""fullscreenenter"",""trial"":1,""time"":1515},{""event"":""blur"",""trial"":27,""time"":222239},{""event"":""focus"",""trial"":27,""time"":247240}]",NA,NA,NA,NA,NA,5,#FA92F8,#1CD855,0,10,0,38,1,1104.2000000011176,37,1,1180,0,0,experiment,NA,NA,0,0.1,0.9,1,0,107,3,NA
fcp-trial,142,728861,0.0-117.0-0.0,voc_e2,12173,"[{""event"":""fullscreenenter"",""trial"":1,""time"":1515},{""event"":""blur"",""trial"":27,""time"":222239},{""event"":""focus"",""trial"":27,""time"":247240}]",NA,NA,NA,NA,NA,6,#3386FF,#D89F1C,0,0,0,40,0,933.5999999996275,39,0,893.2000000011176,0,1,experiment,NA,NA,2,0.5,0.5,5,4,108,3,NA
fcp-trial,143,731976,0.0-118.0-0.0,voc_e2,12173,"[{""event"":""fullscreenenter"",""trial"":1,""time"":1515},{""event"":""blur"",""trial"":27,""time"":222239},{""event"":""focus"",""trial"":27,""time"":247240}]",NA,NA,NA,NA,NA,6,#741CD8,#D8271C,0,0,1,40,0,868.5,39,0,740.3000000007451,0,0,experiment,NA,NA,1,0.7,0.3,2,3,109,3,NA
fcp-trial,144,735210,0.0-119.0-0.0,voc_e2,12173,"[{""event"":""fullscreenenter"",""trial"":1,""time"":1515},{""event"":""blur"",""trial"":27,""time"":222239},{""event"":""focus"",""trial"":27,""time"":247240}]",NA,NA,NA,NA,NA,0,#3386FF,#D89F1C,0,10,0,38,1,1131,37,1,595.0999999996275,0,0,experiment,NA,NA,2,0.5,0.5,5,4,110,3,NA
fcp-trial,145,737848,0.0-120.0-0.0,voc_e2,12173,"[{""event"":""fullscreenenter"",""trial"":1,""time"":1515},{""event"":""blur"",""trial"":27,""time"":222239},{""event"":""focus"",""trial"":27,""time"":247240}]",NA,NA,NA,NA,NA,4,#3386FF,#D89F1C,0,0,0,38,1,650.8000000007451,37,1,479.80000000074506,0,0,experiment,NA,NA,2,0.5,0.5,5,4,111,3,NA
fcp-trial,146,741357,0.0-121.0-0.0,voc_e2,12173,"[{""event"":""fullscreenenter"",""trial"":1,""time"":1515},{""event"":""blur"",""trial"":27,""time"":222239},{""event"":""focus"",""trial"":27,""time"":247240}]",NA,NA,NA,NA,NA,6,#FA92F8,#1CD855,0,10,0,38,1,1048.199999999255,39,0,955.5999999996275,10,1,experiment,NA,NA,0,0.1,0.9,1,0,112,3,NA
fcp-trial,147,744510,0.0-122.0-0.0,voc_e2,12173,"[{""event"":""fullscreenenter"",""trial"":1,""time"":1515},{""event"":""blur"",""trial"":27,""time"":222239},{""event"":""focus"",""trial"":27,""time"":247240}]",NA,NA,NA,NA,NA,3,#D8271C,#741CD8,0,10,0,40,0,1100.699999999255,37,1,544.9000000003725,0,0,experiment,NA,NA,1,0.3,0.7,3,2,113,3,NA
fcp-trial,148,747631,0.0-123.0-0.0,voc_e2,12173,"[{""event"":""fullscreenenter"",""trial"":1,""time"":1515},{""event"":""blur"",""trial"":27,""time"":222239},{""event"":""focus"",""trial"":27,""time"":247240}]",NA,NA,NA,NA,NA,2,#741CD8,#D8271C,0,0,1,38,1,1121.5999999996275,37,1,491.8999999985099,0,1,experiment,NA,NA,1,0.7,0.3,2,3,114,3,NA
fcp-trial,149,750659,0.0-124.0-0.0,voc_e2,12173,"[{""event"":""fullscreenenter"",""trial"":1,""time"":1515},{""event"":""blur"",""trial"":27,""time"":222239},{""event"":""focus"",""trial"":27,""time"":247240}]",NA,NA,NA,NA,NA,2,#FA92F8,#1CD855,0,10,0,38,1,832.3999999985099,39,0,689.5999999996275,10,1,experiment,NA,NA,0,0.1,0.9,1,0,115,3,NA
fcp-trial,150,753531,0.0-125.0-0.0,voc_e2,12173,"[{""event"":""fullscreenenter"",""trial"":1,""time"":1515},{""event"":""blur"",""trial"":27,""time"":222239},{""event"":""focus"",""trial"":27,""time"":247240}]",NA,NA,NA,NA,NA,5,#D89F1C,#3386FF,10,10,1,38,1,357.59999999962747,37,1,1006.2999999988824,10,1,experiment,NA,NA,2,0.5,0.5,4,5,116,3,NA
fcp-trial,151,756060,0.0-126.0-0.0,voc_e2,12173,"[{""event"":""fullscreenenter"",""trial"":1,""time"":1515},{""event"":""blur"",""trial"":27,""time"":222239},{""event"":""focus"",""trial"":27,""time"":247240}]",NA,NA,NA,NA,NA,4,#741CD8,#D8271C,0,10,1,38,1,360.3999999985099,39,0,662.3000000007451,10,0,experiment,NA,NA,1,0.7,0.3,2,3,117,3,NA
fcp-trial,152,758774,0.0-127.0-0.0,voc_e2,12173,"[{""event"":""fullscreenenter"",""trial"":1,""time"":1515},{""event"":""blur"",""trial"":27,""time"":222239},{""event"":""focus"",""trial"":27,""time"":247240}]",NA,NA,NA,NA,NA,0,#1CD855,#FA92F8,10,0,1,38,1,174.5,39,0,1031.4000000003725,0,0,experiment,NA,NA,0,0.9,0.1,0,1,118,3,NA
fcp-trial,153,761135,0.0-128.0-0.0,voc_e2,12173,"[{""event"":""fullscreenenter"",""trial"":1,""time"":1515},{""event"":""blur"",""trial"":27,""time"":222239},{""event"":""focus"",""trial"":27,""time"":247240}]",NA,NA,NA,NA,NA,1,#741CD8,#D8271C,0,10,1,38,1,166.40000000037253,37,1,688,0,1,experiment,NA,NA,1,0.7,0.3,2,3,119,3,NA
fcp-trial,154,763548,0.0-129.0-0.0,voc_e2,12173,"[{""event"":""fullscreenenter"",""trial"":1,""time"":1515},{""event"":""blur"",""trial"":27,""time"":222239},{""event"":""focus"",""trial"":27,""time"":247240}]",NA,NA,NA,NA,NA,4,#1CD855,#FA92F8,0,0,1,38,1,402.30000000074506,37,1,500,0,1,experiment,NA,NA,0,0.9,0.1,0,1,120,3,NA
fcp-trial,155,766084,0.0-130.0-0.0,voc_e2,12173,"[{""event"":""fullscreenenter"",""trial"":1,""time"":1515},{""event"":""blur"",""trial"":27,""time"":222239},{""event"":""focus"",""trial"":27,""time"":247240}]",NA,NA,NA,NA,NA,2,#D89F1C,#3386FF,0,10,1,38,1,377.09999999962747,39,0,652.5999999996275,10,0,experiment,NA,NA,2,0.5,0.5,4,5,121,3,NA
fcp-trial,156,768710,0.0-131.0-0.0,voc_e2,12173,"[{""event"":""fullscreenenter"",""trial"":1,""time"":1515},{""event"":""blur"",""trial"":27,""time"":222239},{""event"":""focus"",""trial"":27,""time"":247240}]",NA,NA,NA,NA,NA,3,#1CD855,#FA92F8,10,0,1,40,0,247.2999999988824,37,1,873.1999999992549,10,1,experiment,NA,NA,0,0.9,0.1,0,1,122,3,NA
fcp-trial,157,771210,0.0-132.0-0.0,voc_e2,12173,"[{""event"":""fullscreenenter"",""trial"":1,""time"":1515},{""event"":""blur"",""trial"":27,""time"":222239},{""event"":""focus"",""trial"":27,""time"":247240}]",NA,NA,NA,NA,NA,5,#741CD8,#D8271C,10,0,1,40,0,478.6000000014901,37,1,514.0999999996275,10,1,experiment,NA,NA,1,0.7,0.3,2,3,123,3,NA
fcp-trial,158,774566,0.0-133.0-0.0,voc_e2,12173,"[{""event"":""fullscreenenter"",""trial"":1,""time"":1515},{""event"":""blur"",""trial"":27,""time"":222239},{""event"":""focus"",""trial"":27,""time"":247240}]",NA,NA,NA,NA,NA,0,#741CD8,#D8271C,10,10,1,38,1,979.5999999996275,39,0,870,10,0,experiment,NA,NA,1,0.7,0.3,2,3,124,3,NA
fcp-trial,159,777416,0.0-134.0-0.0,voc_e2,12173,"[{""event"":""fullscreenenter"",""trial"":1,""time"":1515},{""event"":""blur"",""trial"":27,""time"":222239},{""event"":""focus"",""trial"":27,""time"":247240}]",NA,NA,NA,NA,NA,3,#3386FF,#D89F1C,0,0,0,40,0,695.9000000003725,39,0,646.8000000007451,0,1,experiment,NA,NA,2,0.5,0.5,5,4,125,3,NA
fcp-trial,160,779666,0.0-135.0-0.0,voc_e2,12173,"[{""event"":""fullscreenenter"",""trial"":1,""time"":1515},{""event"":""blur"",""trial"":27,""time"":222239},{""event"":""focus"",""trial"":27,""time"":247240}]",NA,NA,NA,NA,NA,1,#3386FF,#D89F1C,10,0,0,38,1,303.5,37,1,439,10,0,experiment,NA,NA,2,0.5,0.5,5,4,126,3,NA
fcp-trial,161,782401,0.0-136.0-0.0,voc_e2,12173,"[{""event"":""fullscreenenter"",""trial"":1,""time"":1515},{""event"":""blur"",""trial"":27,""time"":222239},{""event"":""focus"",""trial"":27,""time"":247240}]",NA,NA,NA,NA,NA,2,#741CD8,#D8271C,0,0,1,38,1,726.8000000007451,37,1,503.2999999988824,0,1,experiment,NA,NA,1,0.7,0.3,2,3,127,3,NA
fcp-trial,162,785079,0.0-137.0-0.0,voc_e2,12173,"[{""event"":""fullscreenenter"",""trial"":1,""time"":1515},{""event"":""blur"",""trial"":27,""time"":222239},{""event"":""focus"",""trial"":27,""time"":247240}]",NA,NA,NA,NA,NA,5,#FA92F8,#1CD855,0,10,0,38,1,454.40000000037253,37,1,712.8000000007451,0,0,experiment,NA,NA,0,0.1,0.9,1,0,128,3,NA
fcp-trial,163,787780,0.0-138.0-0.0,voc_e2,12173,"[{""event"":""fullscreenenter"",""trial"":1,""time"":1515},{""event"":""blur"",""trial"":27,""time"":222239},{""event"":""focus"",""trial"":27,""time"":247240}]",NA,NA,NA,NA,NA,0,#FA92F8,#1CD855,0,10,0,38,1,748,39,0,447.6000000014901,10,1,experiment,NA,NA,0,0.1,0.9,1,0,129,3,NA
fcp-trial,164,790334,0.0-139.0-0.0,voc_e2,12173,"[{""event"":""fullscreenenter"",""trial"":1,""time"":1515},{""event"":""blur"",""trial"":27,""time"":222239},{""event"":""focus"",""trial"":27,""time"":247240}]",NA,NA,NA,NA,NA,0,#741CD8,#D8271C,10,10,1,38,1,563.2999999988824,39,0,485.2999999988824,10,0,experiment,NA,NA,1,0.7,0.3,2,3,130,3,NA
fcp-trial,165,793426,0.0-140.0-0.0,voc_e2,12173,"[{""event"":""fullscreenenter"",""trial"":1,""time"":1515},{""event"":""blur"",""trial"":27,""time"":222239},{""event"":""focus"",""trial"":27,""time"":247240}]",NA,NA,NA,NA,NA,2,#3386FF,#D89F1C,10,10,0,38,1,970.7000000011176,39,0,613.4000000003725,10,1,experiment,NA,NA,2,0.5,0.5,5,4,131,3,NA
fcp-trial,166,796208,0.0-141.0-0.0,voc_e2,12173,"[{""event"":""fullscreenenter"",""trial"":1,""time"":1515},{""event"":""blur"",""trial"":27,""time"":222239},{""event"":""focus"",""trial"":27,""time"":247240}]",NA,NA,NA,NA,NA,5,#3386FF,#D89F1C,0,10,0,38,1,902,39,0,373.2000000011176,10,1,experiment,NA,NA,2,0.5,0.5,5,4,132,3,NA
fcp-trial,167,798935,0.0-142.0-0.0,voc_e2,12173,"[{""event"":""fullscreenenter"",""trial"":1,""time"":1515},{""event"":""blur"",""trial"":27,""time"":222239},{""event"":""focus"",""trial"":27,""time"":247240}]",NA,NA,NA,NA,NA,0,#D89F1C,#3386FF,10,10,1,38,1,746.3000000007451,37,1,471.19999999925494,10,1,experiment,NA,NA,2,0.5,0.5,4,5,133,3,NA
fcp-trial,168,801118,0.0-143.0-0.0,voc_e2,12173,"[{""event"":""fullscreenenter"",""trial"":1,""time"":1515},{""event"":""blur"",""trial"":27,""time"":222239},{""event"":""focus"",""trial"":27,""time"":247240}]",NA,NA,NA,NA,NA,6,#FA92F8,#1CD855,0,0,0,38,1,348.59999999962747,39,0,324,0,1,experiment,NA,NA,0,0.1,0.9,1,0,134,3,NA
fcp-trial,169,803608,0.0-144.0-0.0,voc_e2,12173,"[{""event"":""fullscreenenter"",""trial"":1,""time"":1515},{""event"":""blur"",""trial"":27,""time"":222239},{""event"":""focus"",""trial"":27,""time"":247240}]",NA,NA,NA,NA,NA,1,#D8271C,#741CD8,10,10,0,38,1,315.09999999962747,37,1,665,10,0,experiment,NA,NA,1,0.3,0.7,3,2,135,3,NA
fcp-trial,170,805924,0.0-145.0-0.0,voc_e2,12173,"[{""event"":""fullscreenenter"",""trial"":1,""time"":1515},{""event"":""blur"",""trial"":27,""time"":222239},{""event"":""focus"",""trial"":27,""time"":247240}]",NA,NA,NA,NA,NA,3,#D8271C,#741CD8,0,0,0,38,1,298.59999999962747,37,1,510.80000000074506,0,0,experiment,NA,NA,1,0.3,0.7,3,2,136,4,NA
fcp-trial,171,809823,0.0-146.0-0.0,voc_e2,12173,"[{""event"":""fullscreenenter"",""trial"":1,""time"":1515},{""event"":""blur"",""trial"":27,""time"":222239},{""event"":""focus"",""trial"":27,""time"":247240}]",NA,NA,NA,NA,NA,4,#D89F1C,#3386FF,0,0,1,38,1,213.40000000037253,37,1,2177.699999999255,0,1,experiment,NA,NA,2,0.5,0.5,4,5,137,4,NA
fcp-trial,172,812103,0.0-147.0-0.0,voc_e2,12173,"[{""event"":""fullscreenenter"",""trial"":1,""time"":1515},{""event"":""blur"",""trial"":27,""time"":222239},{""event"":""focus"",""trial"":27,""time"":247240}]",NA,NA,NA,NA,NA,5,#D8271C,#741CD8,0,0,0,38,1,200.90000000037253,37,1,572.9000000003725,0,0,experiment,NA,NA,1,0.3,0.7,3,2,138,4,NA
fcp-trial,173,814424,0.0-148.0-0.0,voc_e2,12173,"[{""event"":""fullscreenenter"",""trial"":1,""time"":1515},{""event"":""blur"",""trial"":27,""time"":222239},{""event"":""focus"",""trial"":27,""time"":247240}]",NA,NA,NA,NA,NA,4,#1CD855,#FA92F8,10,0,1,38,1,249,37,1,564.8000000007451,10,1,experiment,NA,NA,0,0.9,0.1,0,1,139,4,NA
fcp-trial,174,816683,0.0-149.0-0.0,voc_e2,12173,"[{""event"":""fullscreenenter"",""trial"":1,""time"":1515},{""event"":""blur"",""trial"":27,""time"":222239},{""event"":""focus"",""trial"":27,""time"":247240}]",NA,NA,NA,NA,NA,1,#1CD855,#FA92F8,10,0,1,38,1,297.90000000037253,37,1,455.1000000014901,10,1,experiment,NA,NA,0,0.9,0.1,0,1,140,4,NA
fcp-trial,175,819247,0.0-150.0-0.0,voc_e2,12173,"[{""event"":""fullscreenenter"",""trial"":1,""time"":1515},{""event"":""blur"",""trial"":27,""time"":222239},{""event"":""focus"",""trial"":27,""time"":247240}]",NA,NA,NA,NA,NA,6,#D89F1C,#3386FF,0,0,1,38,1,330.2999999988824,39,0,726.8000000007451,0,0,experiment,NA,NA,2,0.5,0.5,4,5,141,4,NA
fcp-trial,176,822055,0.0-151.0-0.0,voc_e2,12173,"[{""event"":""fullscreenenter"",""trial"":1,""time"":1515},{""event"":""blur"",""trial"":27,""time"":222239},{""event"":""focus"",""trial"":27,""time"":247240}]",NA,NA,NA,NA,NA,4,#D8271C,#741CD8,0,10,0,40,0,696.6999999992549,37,1,604.8000000007451,0,0,experiment,NA,NA,1,0.3,0.7,3,2,142,4,NA
fcp-trial,177,824867,0.0-152.0-0.0,voc_e2,12173,"[{""event"":""fullscreenenter"",""trial"":1,""time"":1515},{""event"":""blur"",""trial"":27,""time"":222239},{""event"":""focus"",""trial"":27,""time"":247240}]",NA,NA,NA,NA,NA,2,#1CD855,#FA92F8,10,0,1,40,0,696.5,39,0,606.5999999996275,0,0,experiment,NA,NA,0,0.9,0.1,0,1,143,4,NA
fcp-trial,178,827612,0.0-153.0-0.0,voc_e2,12173,"[{""event"":""fullscreenenter"",""trial"":1,""time"":1515},{""event"":""blur"",""trial"":27,""time"":222239},{""event"":""focus"",""trial"":27,""time"":247240}]",NA,NA,NA,NA,NA,6,#D8271C,#741CD8,10,10,0,38,1,831.1000000014901,37,1,407.09999999962747,10,0,experiment,NA,NA,1,0.3,0.7,3,2,144,4,NA
fcp-trial,179,830748,0.0-154.0-0.0,voc_e2,12173,"[{""event"":""fullscreenenter"",""trial"":1,""time"":1515},{""event"":""blur"",""trial"":27,""time"":222239},{""event"":""focus"",""trial"":27,""time"":247240}]",NA,NA,NA,NA,NA,3,#FA92F8,#1CD855,0,10,0,40,0,631.0999999996275,37,1,999.5,0,0,experiment,NA,NA,0,0.1,0.9,1,0,145,4,NA
fcp-trial,180,834579,0.0-155.0-0.0,voc_e2,12173,"[{""event"":""fullscreenenter"",""trial"":1,""time"":1515},{""event"":""blur"",""trial"":27,""time"":222239},{""event"":""focus"",""trial"":27,""time"":247240}]",NA,NA,NA,NA,NA,1,#D89F1C,#3386FF,10,10,1,38,1,1357.800000000745,37,1,967.5999999996275,10,1,experiment,NA,NA,2,0.5,0.5,4,5,146,4,NA
fcp-trial,181,838286,0.0-156.0-0.0,voc_e2,12173,"[{""event"":""fullscreenenter"",""trial"":1,""time"":1515},{""event"":""blur"",""trial"":27,""time"":222239},{""event"":""focus"",""trial"":27,""time"":247240}]",NA,NA,NA,NA,NA,3,#D89F1C,#3386FF,10,10,1,40,0,1497.300000000745,39,0,703.2000000011176,10,0,experiment,NA,NA,2,0.5,0.5,4,5,147,4,NA
fcp-trial,182,841333,0.0-157.0-0.0,voc_e2,12173,"[{""event"":""fullscreenenter"",""trial"":1,""time"":1515},{""event"":""blur"",""trial"":27,""time"":222239},{""event"":""focus"",""trial"":27,""time"":247240}]",NA,NA,NA,NA,NA,0,#D8271C,#741CD8,10,10,0,38,1,754,37,1,783.5999999996275,10,0,experiment,NA,NA,1,0.3,0.7,3,2,148,4,NA
fcp-trial,183,844659,0.0-158.0-0.0,voc_e2,12173,"[{""event"":""fullscreenenter"",""trial"":1,""time"":1515},{""event"":""blur"",""trial"":27,""time"":222239},{""event"":""focus"",""trial"":27,""time"":247240}]",NA,NA,NA,NA,NA,6,#D89F1C,#3386FF,0,10,1,40,0,1210.9000000003725,39,0,605.7999999988824,10,0,experiment,NA,NA,2,0.5,0.5,4,5,149,4,NA
fcp-trial,184,847550,0.0-159.0-0.0,voc_e2,12173,"[{""event"":""fullscreenenter"",""trial"":1,""time"":1515},{""event"":""blur"",""trial"":27,""time"":222239},{""event"":""focus"",""trial"":27,""time"":247240}]",NA,NA,NA,NA,NA,5,#741CD8,#D8271C,10,10,1,40,0,708.1999999992549,37,1,676.6999999992549,10,1,experiment,NA,NA,1,0.7,0.3,2,3,150,4,NA
fcp-trial,185,850018,0.0-160.0-0.0,voc_e2,12173,"[{""event"":""fullscreenenter"",""trial"":1,""time"":1515},{""event"":""blur"",""trial"":27,""time"":222239},{""event"":""focus"",""trial"":27,""time"":247240}]",NA,NA,NA,NA,NA,0,#1CD855,#FA92F8,10,0,1,40,0,313.7999999988824,37,1,648.8000000007451,10,1,experiment,NA,NA,0,0.9,0.1,0,1,151,4,NA
fcp-trial,186,852414,0.0-161.0-0.0,voc_e2,12173,"[{""event"":""fullscreenenter"",""trial"":1,""time"":1515},{""event"":""blur"",""trial"":27,""time"":222239},{""event"":""focus"",""trial"":27,""time"":247240}]",NA,NA,NA,NA,NA,3,#1CD855,#FA92F8,10,10,1,38,1,363.2000000011176,39,0,521.6999999992549,10,0,experiment,NA,NA,0,0.9,0.1,0,1,152,4,NA
fcp-trial,187,854859,0.0-162.0-0.0,voc_e2,12173,"[{""event"":""fullscreenenter"",""trial"":1,""time"":1515},{""event"":""blur"",""trial"":27,""time"":222239},{""event"":""focus"",""trial"":27,""time"":247240}]",NA,NA,NA,NA,NA,0,#3386FF,#D89F1C,10,0,0,40,0,286.5,39,0,652,0,1,experiment,NA,NA,2,0.5,0.5,5,4,153,4,NA
fcp-trial,188,857280,0.0-163.0-0.0,voc_e2,12173,"[{""event"":""fullscreenenter"",""trial"":1,""time"":1515},{""event"":""blur"",""trial"":27,""time"":222239},{""event"":""focus"",""trial"":27,""time"":247240}]",NA,NA,NA,NA,NA,4,#1CD855,#FA92F8,0,0,1,38,1,453,37,1,460.40000000037253,0,1,experiment,NA,NA,0,0.9,0.1,0,1,154,4,NA
fcp-trial,189,860038,0.0-164.0-0.0,voc_e2,12173,"[{""event"":""fullscreenenter"",""trial"":1,""time"":1515},{""event"":""blur"",""trial"":27,""time"":222239},{""event"":""focus"",""trial"":27,""time"":247240}]",NA,NA,NA,NA,NA,3,#D8271C,#741CD8,0,10,0,40,0,576.4000000003725,39,0,674.6999999992549,10,1,experiment,NA,NA,1,0.3,0.7,3,2,155,4,NA
fcp-trial,190,862667,0.0-165.0-0.0,voc_e2,12173,"[{""event"":""fullscreenenter"",""trial"":1,""time"":1515},{""event"":""blur"",""trial"":27,""time"":222239},{""event"":""focus"",""trial"":27,""time"":247240}]",NA,NA,NA,NA,NA,4,#741CD8,#D8271C,10,10,1,38,1,585.1999999992549,37,1,537.0999999996275,10,1,experiment,NA,NA,1,0.7,0.3,2,3,156,4,NA
fcp-trial,191,865549,0.0-166.0-0.0,voc_e2,12173,"[{""event"":""fullscreenenter"",""trial"":1,""time"":1515},{""event"":""blur"",""trial"":27,""time"":222239},{""event"":""focus"",""trial"":27,""time"":247240}]",NA,NA,NA,NA,NA,1,#3386FF,#D89F1C,0,0,0,40,0,825.1999999992549,37,1,551.5,0,0,experiment,NA,NA,2,0.5,0.5,5,4,157,4,NA
fcp-trial,192,868104,0.0-167.0-0.0,voc_e2,12173,"[{""event"":""fullscreenenter"",""trial"":1,""time"":1515},{""event"":""blur"",""trial"":27,""time"":222239},{""event"":""focus"",""trial"":27,""time"":247240}]",NA,NA,NA,NA,NA,2,#1CD855,#FA92F8,10,0,1,38,1,417.80000000074506,39,0,632.5,0,0,experiment,NA,NA,0,0.9,0.1,0,1,158,4,NA
fcp-trial,193,870706,0.0-168.0-0.0,voc_e2,12173,"[{""event"":""fullscreenenter"",""trial"":1,""time"":1515},{""event"":""blur"",""trial"":27,""time"":222239},{""event"":""focus"",""trial"":27,""time"":247240}]",NA,NA,NA,NA,NA,4,#3386FF,#D89F1C,0,0,0,38,1,656.5999999996275,37,1,438.2000000011176,0,0,experiment,NA,NA,2,0.5,0.5,5,4,159,4,NA
fcp-trial,194,873550,0.0-169.0-0.0,voc_e2,12173,"[{""event"":""fullscreenenter"",""trial"":1,""time"":1515},{""event"":""blur"",""trial"":27,""time"":222239},{""event"":""focus"",""trial"":27,""time"":247240}]",NA,NA,NA,NA,NA,5,#FA92F8,#1CD855,0,10,0,38,1,491.19999999925494,39,0,847.7000000011176,10,1,experiment,NA,NA,0,0.1,0.9,1,0,160,4,NA
fcp-trial,195,876114,0.0-170.0-0.0,voc_e2,12173,"[{""event"":""fullscreenenter"",""trial"":1,""time"":1515},{""event"":""blur"",""trial"":27,""time"":222239},{""event"":""focus"",""trial"":27,""time"":247240}]",NA,NA,NA,NA,NA,6,#D8271C,#741CD8,0,10,0,40,0,527.3000000007451,39,0,531.0999999996275,10,1,experiment,NA,NA,1,0.3,0.7,3,2,161,4,NA
fcp-trial,196,878924,0.0-171.0-0.0,voc_e2,12173,"[{""event"":""fullscreenenter"",""trial"":1,""time"":1515},{""event"":""blur"",""trial"":27,""time"":222239},{""event"":""focus"",""trial"":27,""time"":247240}]",NA,NA,NA,NA,NA,1,#D8271C,#741CD8,0,10,0,40,0,647.5999999996275,39,0,658,10,1,experiment,NA,NA,1,0.3,0.7,3,2,162,4,NA
fcp-trial,197,881782,0.0-172.0-0.0,voc_e2,12173,"[{""event"":""fullscreenenter"",""trial"":1,""time"":1515},{""event"":""blur"",""trial"":27,""time"":222239},{""event"":""focus"",""trial"":27,""time"":247240}]",NA,NA,NA,NA,NA,3,#3386FF,#D89F1C,0,10,0,40,0,886.4000000003725,37,1,466.40000000037253,0,0,experiment,NA,NA,2,0.5,0.5,5,4,163,4,NA
fcp-trial,198,884380,0.0-173.0-0.0,voc_e2,12173,"[{""event"":""fullscreenenter"",""trial"":1,""time"":1515},{""event"":""blur"",""trial"":27,""time"":222239},{""event"":""focus"",""trial"":27,""time"":247240}]",NA,NA,NA,NA,NA,1,#FA92F8,#1CD855,10,10,0,38,1,572.1999999992549,37,1,518.3000000007451,10,0,experiment,NA,NA,0,0.1,0.9,1,0,164,4,NA
fcp-trial,199,886972,0.0-174.0-0.0,voc_e2,12173,"[{""event"":""fullscreenenter"",""trial"":1,""time"":1515},{""event"":""blur"",""trial"":27,""time"":222239},{""event"":""focus"",""trial"":27,""time"":247240}]",NA,NA,NA,NA,NA,5,#D89F1C,#3386FF,0,0,1,40,0,622.0999999996275,39,0,463.80000000074506,0,0,experiment,NA,NA,2,0.5,0.5,4,5,165,4,NA
fcp-trial,200,889799,0.0-175.0-0.0,voc_e2,12173,"[{""event"":""fullscreenenter"",""trial"":1,""time"":1515},{""event"":""blur"",""trial"":27,""time"":222239},{""event"":""focus"",""trial"":27,""time"":247240}]",NA,NA,NA,NA,NA,2,#D8271C,#741CD8,10,10,0,38,1,744.1999999992549,37,1,577.4000000003725,10,0,experiment,NA,NA,1,0.3,0.7,3,2,166,4,NA
fcp-trial,201,893196,0.0-176.0-0.0,voc_e2,12173,"[{""event"":""fullscreenenter"",""trial"":1,""time"":1515},{""event"":""blur"",""trial"":27,""time"":222239},{""event"":""focus"",""trial"":27,""time"":247240}]",NA,NA,NA,NA,NA,6,#1CD855,#FA92F8,10,0,1,40,0,1372.5999999996275,37,1,518.3000000007451,10,1,experiment,NA,NA,0,0.9,0.1,0,1,167,4,NA
fcp-trial,202,896282,0.0-177.0-0.0,voc_e2,12173,"[{""event"":""fullscreenenter"",""trial"":1,""time"":1515},{""event"":""blur"",""trial"":27,""time"":222239},{""event"":""focus"",""trial"":27,""time"":247240}]",NA,NA,NA,NA,NA,2,#3386FF,#D89F1C,0,0,0,38,1,722.5,37,1,856.4000000003725,0,0,experiment,NA,NA,2,0.5,0.5,5,4,168,4,NA
fcp-trial,203,899413,0.0-178.0-0.0,voc_e2,12173,"[{""event"":""fullscreenenter"",""trial"":1,""time"":1515},{""event"":""blur"",""trial"":27,""time"":222239},{""event"":""focus"",""trial"":27,""time"":247240}]",NA,NA,NA,NA,NA,2,#1CD855,#FA92F8,10,0,1,38,1,893.5,37,1,731.6999999992549,10,1,experiment,NA,NA,0,0.9,0.1,0,1,169,4,NA
fcp-trial,204,901985,0.0-179.0-0.0,voc_e2,12173,"[{""event"":""fullscreenenter"",""trial"":1,""time"":1515},{""event"":""blur"",""trial"":27,""time"":222239},{""event"":""focus"",""trial"":27,""time"":247240}]",NA,NA,NA,NA,NA,1,#FA92F8,#1CD855,10,10,0,38,1,602.1999999992549,39,0,463.7999999988824,10,1,experiment,NA,NA,0,0.1,0.9,1,0,170,4,NA
fcp-trial,205,905135,0.0-180.0-0.0,voc_e2,12173,"[{""event"":""fullscreenenter"",""trial"":1,""time"":1515},{""event"":""blur"",""trial"":27,""time"":222239},{""event"":""focus"",""trial"":27,""time"":247240}]",NA,NA,NA,NA,NA,5,#D89F1C,#3386FF,0,0,1,40,0,1037.5,39,0,601.3000000007451,0,0,experiment,NA,NA,2,0.5,0.5,4,5,171,4,NA
fcp-trial,206,907936,0.0-181.0-0.0,voc_e2,12173,"[{""event"":""fullscreenenter"",""trial"":1,""time"":1515},{""event"":""blur"",""trial"":27,""time"":222239},{""event"":""focus"",""trial"":27,""time"":247240}]",NA,NA,NA,NA,NA,5,#FA92F8,#1CD855,0,10,0,40,0,746.6999999992549,39,0,543.0999999996275,10,1,experiment,NA,NA,0,0.1,0.9,1,0,172,4,NA
fcp-trial,207,910532,0.0-182.0-0.0,voc_e2,12173,"[{""event"":""fullscreenenter"",""trial"":1,""time"":1515},{""event"":""blur"",""trial"":27,""time"":222239},{""event"":""focus"",""trial"":27,""time"":247240}]",NA,NA,NA,NA,NA,3,#D8271C,#741CD8,10,10,0,40,0,639.1999999992549,37,1,449.7000000011176,10,0,experiment,NA,NA,1,0.3,0.7,3,2,173,4,NA
fcp-trial,208,912998,0.0-183.0-0.0,voc_e2,12173,"[{""event"":""fullscreenenter"",""trial"":1,""time"":1515},{""event"":""blur"",""trial"":27,""time"":222239},{""event"":""focus"",""trial"":27,""time"":247240}]",NA,NA,NA,NA,NA,6,#3386FF,#D89F1C,0,0,0,40,0,507,37,1,455.3999999985099,0,0,experiment,NA,NA,2,0.5,0.5,5,4,174,4,NA
fcp-trial,209,915770,0.0-184.0-0.0,voc_e2,12173,"[{""event"":""fullscreenenter"",""trial"":1,""time"":1515},{""event"":""blur"",""trial"":27,""time"":222239},{""event"":""focus"",""trial"":27,""time"":247240}]",NA,NA,NA,NA,NA,3,#3386FF,#D89F1C,10,10,0,40,0,757.4000000003725,37,1,508,10,0,experiment,NA,NA,2,0.5,0.5,5,4,175,4,NA
fcp-trial,210,918318,0.0-185.0-0.0,voc_e2,12173,"[{""event"":""fullscreenenter"",""trial"":1,""time"":1515},{""event"":""blur"",""trial"":27,""time"":222239},{""event"":""focus"",""trial"":27,""time"":247240}]",NA,NA,NA,NA,NA,6,#1CD855,#FA92F8,10,0,1,40,0,522.0999999996275,39,0,520.5999999996275,0,0,experiment,NA,NA,0,0.9,0.1,0,1,176,4,NA
fcp-trial,211,920699,0.0-186.0-0.0,voc_e2,12173,"[{""event"":""fullscreenenter"",""trial"":1,""time"":1515},{""event"":""blur"",""trial"":27,""time"":222239},{""event"":""focus"",""trial"":27,""time"":247240}]",NA,NA,NA,NA,NA,2,#D89F1C,#3386FF,0,0,1,40,0,363.7999999988824,37,1,506.59999999962747,0,1,experiment,NA,NA,2,0.5,0.5,4,5,177,4,NA
fcp-trial,212,923306,0.0-187.0-0.0,voc_e2,12173,"[{""event"":""fullscreenenter"",""trial"":1,""time"":1515},{""event"":""blur"",""trial"":27,""time"":222239},{""event"":""focus"",""trial"":27,""time"":247240}]",NA,NA,NA,NA,NA,2,#D8271C,#741CD8,10,10,0,40,0,773,39,0,329.5,10,1,experiment,NA,NA,1,0.3,0.7,3,2,178,4,NA
fcp-trial,213,925931,0.0-188.0-0.0,voc_e2,12173,"[{""event"":""fullscreenenter"",""trial"":1,""time"":1515},{""event"":""blur"",""trial"":27,""time"":222239},{""event"":""focus"",""trial"":27,""time"":247240}]",NA,NA,NA,NA,NA,0,#741CD8,#D8271C,0,10,1,38,1,754.5999999996275,37,1,364.19999999925494,0,1,experiment,NA,NA,1,0.7,0.3,2,3,179,4,NA
fcp-trial,214,929076,0.0-189.0-0.0,voc_e2,12173,"[{""event"":""fullscreenenter"",""trial"":1,""time"":1515},{""event"":""blur"",""trial"":27,""time"":222239},{""event"":""focus"",""trial"":27,""time"":247240}]",NA,NA,NA,NA,NA,4,#FA92F8,#1CD855,0,10,0,40,0,1167,39,0,473.69999999925494,10,1,experiment,NA,NA,0,0.1,0.9,1,0,180,4,NA
fcp-trial,215,931782,0.0-190.0-0.0,voc_e2,12173,"[{""event"":""fullscreenenter"",""trial"":1,""time"":1515},{""event"":""blur"",""trial"":27,""time"":222239},{""event"":""focus"",""trial"":27,""time"":247240}]",NA,NA,NA,NA,NA,4,#D8271C,#741CD8,0,10,0,40,0,657.3999999985099,37,1,541.2999999988824,0,0,experiment,NA,NA,1,0.3,0.7,3,2,181,5,NA
fcp-trial,216,934094,0.0-191.0-0.0,voc_e2,12173,"[{""event"":""fullscreenenter"",""trial"":1,""time"":1515},{""event"":""blur"",""trial"":27,""time"":222239},{""event"":""focus"",""trial"":27,""time"":247240}]",NA,NA,NA,NA,NA,4,#D89F1C,#3386FF,10,0,1,40,0,327.59999999962747,39,0,480.3999999985099,0,0,experiment,NA,NA,2,0.5,0.5,4,5,182,5,NA
fcp-trial,217,936526,0.0-192.0-0.0,voc_e2,12173,"[{""event"":""fullscreenenter"",""trial"":1,""time"":1515},{""event"":""blur"",""trial"":27,""time"":222239},{""event"":""focus"",""trial"":27,""time"":247240}]",NA,NA,NA,NA,NA,6,#741CD8,#D8271C,10,0,1,38,1,379.40000000037253,37,1,545.5999999996275,10,1,experiment,NA,NA,1,0.7,0.3,2,3,183,5,NA
fcp-trial,218,939608,0.0-193.0-0.0,voc_e2,12173,"[{""event"":""fullscreenenter"",""trial"":1,""time"":1515},{""event"":""blur"",""trial"":27,""time"":222239},{""event"":""focus"",""trial"":27,""time"":247240}]",NA,NA,NA,NA,NA,0,#FA92F8,#1CD855,0,10,0,40,0,834.5999999996275,37,1,736.5,0,0,experiment,NA,NA,0,0.1,0.9,1,0,184,5,NA
fcp-trial,219,942295,0.0-194.0-0.0,voc_e2,12173,"[{""event"":""fullscreenenter"",""trial"":1,""time"":1515},{""event"":""blur"",""trial"":27,""time"":222239},{""event"":""focus"",""trial"":27,""time"":247240}]",NA,NA,NA,NA,NA,0,#3386FF,#D89F1C,10,0,0,38,1,682.7000000011176,39,0,496.09999999962747,0,1,experiment,NA,NA,2,0.5,0.5,5,4,185,5,NA
fcp-trial,220,944647,0.0-195.0-0.0,voc_e2,12173,"[{""event"":""fullscreenenter"",""trial"":1,""time"":1515},{""event"":""blur"",""trial"":27,""time"":222239},{""event"":""focus"",""trial"":27,""time"":247240}]",NA,NA,NA,NA,NA,3,#FA92F8,#1CD855,0,0,0,38,1,523.9000000003725,37,1,320.5,0,0,experiment,NA,NA,0,0.1,0.9,1,0,186,5,NA
fcp-trial,221,947630,0.0-196.0-0.0,voc_e2,12173,"[{""event"":""fullscreenenter"",""trial"":1,""time"":1515},{""event"":""blur"",""trial"":27,""time"":222239},{""event"":""focus"",""trial"":27,""time"":247240}]",NA,NA,NA,NA,NA,5,#D8271C,#741CD8,0,0,0,40,0,925.5,39,0,551.0999999996275,0,1,experiment,NA,NA,1,0.3,0.7,3,2,187,5,NA
fcp-trial,222,950166,0.0-197.0-0.0,voc_e2,12173,"[{""event"":""fullscreenenter"",""trial"":1,""time"":1515},{""event"":""blur"",""trial"":27,""time"":222239},{""event"":""focus"",""trial"":27,""time"":247240}]",NA,NA,NA,NA,NA,1,#741CD8,#D8271C,10,0,1,38,1,689.7999999988824,37,1,340.5,10,1,experiment,NA,NA,1,0.7,0.3,2,3,188,5,NA
fcp-trial,223,952680,0.0-198.0-0.0,voc_e2,12173,"[{""event"":""fullscreenenter"",""trial"":1,""time"":1515},{""event"":""blur"",""trial"":27,""time"":222239},{""event"":""focus"",""trial"":27,""time"":247240}]",NA,NA,NA,NA,NA,1,#3386FF,#D89F1C,0,10,0,38,1,498.09999999962747,37,1,513.0999999996275,0,0,experiment,NA,NA,2,0.5,0.5,5,4,189,5,NA
fcp-trial,224,955046,0.0-199.0-0.0,voc_e2,12173,"[{""event"":""fullscreenenter"",""trial"":1,""time"":1515},{""event"":""blur"",""trial"":27,""time"":222239},{""event"":""focus"",""trial"":27,""time"":247240}]",NA,NA,NA,NA,NA,0,#D8271C,#741CD8,0,10,0,38,1,295.09999999962747,39,0,566.2000000011176,10,1,experiment,NA,NA,1,0.3,0.7,3,2,190,5,NA
fcp-trial,225,957551,0.0-200.0-0.0,voc_e2,12173,"[{""event"":""fullscreenenter"",""trial"":1,""time"":1515},{""event"":""blur"",""trial"":27,""time"":222239},{""event"":""focus"",""trial"":27,""time"":247240}]",NA,NA,NA,NA,NA,3,#3386FF,#D89F1C,0,0,0,40,0,683,37,1,316.2000000011176,0,0,experiment,NA,NA,2,0.5,0.5,5,4,191,5,NA
fcp-trial,226,960126,0.0-201.0-0.0,voc_e2,12173,"[{""event"":""fullscreenenter"",""trial"":1,""time"":1515},{""event"":""blur"",""trial"":27,""time"":222239},{""event"":""focus"",""trial"":27,""time"":247240}]",NA,NA,NA,NA,NA,5,#1CD855,#FA92F8,10,0,1,40,0,650.2999999988824,39,0,411.59999999962747,0,0,experiment,NA,NA,0,0.9,0.1,0,1,192,5,NA
fcp-trial,227,962757,0.0-202.0-0.0,voc_e2,12173,"[{""event"":""fullscreenenter"",""trial"":1,""time"":1515},{""event"":""blur"",""trial"":27,""time"":222239},{""event"":""focus"",""trial"":27,""time"":247240}]",NA,NA,NA,NA,NA,1,#D8271C,#741CD8,10,0,0,38,1,702,37,1,420,10,0,experiment,NA,NA,1,0.3,0.7,3,2,193,5,NA
fcp-trial,228,965395,0.0-203.0-0.0,voc_e2,12173,"[{""event"":""fullscreenenter"",""trial"":1,""time"":1515},{""event"":""blur"",""trial"":27,""time"":222239},{""event"":""focus"",""trial"":27,""time"":247240}]",NA,NA,NA,NA,NA,6,#D89F1C,#3386FF,0,10,1,40,0,678.4000000003725,39,0,453.59999999962747,10,0,experiment,NA,NA,2,0.5,0.5,4,5,194,5,NA
fcp-trial,229,968412,0.0-204.0-0.0,voc_e2,12173,"[{""event"":""fullscreenenter"",""trial"":1,""time"":1515},{""event"":""blur"",""trial"":27,""time"":222239},{""event"":""focus"",""trial"":27,""time"":247240}]",NA,NA,NA,NA,NA,6,#1CD855,#FA92F8,10,0,1,40,0,806.7000000011176,39,0,702.5999999996275,0,0,experiment,NA,NA,0,0.9,0.1,0,1,195,5,NA
fcp-trial,230,970840,0.0-205.0-0.0,voc_e2,12173,"[{""event"":""fullscreenenter"",""trial"":1,""time"":1515},{""event"":""blur"",""trial"":27,""time"":222239},{""event"":""focus"",""trial"":27,""time"":247240}]",NA,NA,NA,NA,NA,1,#3386FF,#D89F1C,10,0,0,38,1,533.5999999996275,37,1,388.40000000037253,10,0,experiment,NA,NA,2,0.5,0.5,5,4,196,5,NA
fcp-trial,231,973695,0.0-206.0-0.0,voc_e2,12173,"[{""event"":""fullscreenenter"",""trial"":1,""time"":1515},{""event"":""blur"",""trial"":27,""time"":222239},{""event"":""focus"",""trial"":27,""time"":247240}]",NA,NA,NA,NA,NA,0,#1CD855,#FA92F8,10,10,1,38,1,614.0999999996275,37,1,731.7999999988824,10,1,experiment,NA,NA,0,0.9,0.1,0,1,197,5,NA
fcp-trial,232,976642,0.0-207.0-0.0,voc_e2,12173,"[{""event"":""fullscreenenter"",""trial"":1,""time"":1515},{""event"":""blur"",""trial"":27,""time"":222239},{""event"":""focus"",""trial"":27,""time"":247240}]",NA,NA,NA,NA,NA,4,#741CD8,#D8271C,0,10,1,38,1,925.3000000007451,39,0,513.7999999988824,10,0,experiment,NA,NA,1,0.7,0.3,2,3,198,5,NA
fcp-trial,233,979670,0.0-208.0-0.0,voc_e2,12173,"[{""event"":""fullscreenenter"",""trial"":1,""time"":1515},{""event"":""blur"",""trial"":27,""time"":222239},{""event"":""focus"",""trial"":27,""time"":247240}]",NA,NA,NA,NA,NA,1,#FA92F8,#1CD855,0,10,0,40,0,1051.300000000745,39,0,469.59999999962747,10,1,experiment,NA,NA,0,0.1,0.9,1,0,199,5,NA
fcp-trial,234,982588,0.0-209.0-0.0,voc_e2,12173,"[{""event"":""fullscreenenter"",""trial"":1,""time"":1515},{""event"":""blur"",""trial"":27,""time"":222239},{""event"":""focus"",""trial"":27,""time"":247240}]",NA,NA,NA,NA,NA,0,#3386FF,#D89F1C,0,0,0,38,1,901.1999999992549,39,0,508.1000000014901,0,1,experiment,NA,NA,2,0.5,0.5,5,4,200,5,NA
fcp-trial,235,986033,0.0-210.0-0.0,voc_e2,12173,"[{""event"":""fullscreenenter"",""trial"":1,""time"":1515},{""event"":""blur"",""trial"":27,""time"":222239},{""event"":""focus"",""trial"":27,""time"":247240}]",NA,NA,NA,NA,NA,5,#D8271C,#741CD8,0,10,0,40,0,1256.9000000003725,37,1,681.3000000007451,0,0,experiment,NA,NA,1,0.3,0.7,3,2,201,5,NA
fcp-trial,236,988963,0.0-211.0-0.0,voc_e2,12173,"[{""event"":""fullscreenenter"",""trial"":1,""time"":1515},{""event"":""blur"",""trial"":27,""time"":222239},{""event"":""focus"",""trial"":27,""time"":247240}]",NA,NA,NA,NA,NA,3,#D8271C,#741CD8,0,10,0,40,0,724.0999999996275,39,0,695.6000000014901,10,1,experiment,NA,NA,1,0.3,0.7,3,2,202,5,NA
fcp-trial,237,991755,0.0-212.0-0.0,voc_e2,12173,"[{""event"":""fullscreenenter"",""trial"":1,""time"":1515},{""event"":""blur"",""trial"":27,""time"":222239},{""event"":""focus"",""trial"":27,""time"":247240}]",NA,NA,NA,NA,NA,2,#D89F1C,#3386FF,0,0,1,40,0,871,37,1,413.09999999962747,0,1,experiment,NA,NA,2,0.5,0.5,4,5,203,5,NA
fcp-trial,238,994245,0.0-213.0-0.0,voc_e2,12173,"[{""event"":""fullscreenenter"",""trial"":1,""time"":1515},{""event"":""blur"",""trial"":27,""time"":222239},{""event"":""focus"",""trial"":27,""time"":247240}]",NA,NA,NA,NA,NA,3,#1CD855,#FA92F8,10,0,1,38,1,413.09999999962747,37,1,570.0999999996275,10,1,experiment,NA,NA,0,0.9,0.1,0,1,204,5,NA
fcp-trial,239,996820,0.0-214.0-0.0,voc_e2,12173,"[{""event"":""fullscreenenter"",""trial"":1,""time"":1515},{""event"":""blur"",""trial"":27,""time"":222239},{""event"":""focus"",""trial"":27,""time"":247240}]",NA,NA,NA,NA,NA,2,#741CD8,#D8271C,0,0,1,40,0,677.3999999985099,37,1,390.2999999988824,0,1,experiment,NA,NA,1,0.7,0.3,2,3,205,5,NA
fcp-trial,240,999297,0.0-215.0-0.0,voc_e2,12173,"[{""event"":""fullscreenenter"",""trial"":1,""time"":1515},{""event"":""blur"",""trial"":27,""time"":222239},{""event"":""focus"",""trial"":27,""time"":247240}]",NA,NA,NA,NA,NA,4,#1CD855,#FA92F8,10,0,1,38,1,443,37,1,526.0999999996275,10,1,experiment,NA,NA,0,0.9,0.1,0,1,206,5,NA
fcp-trial,241,1001659,0.0-216.0-0.0,voc_e2,12173,"[{""event"":""fullscreenenter"",""trial"":1,""time"":1515},{""event"":""blur"",""trial"":27,""time"":222239},{""event"":""focus"",""trial"":27,""time"":247240}]",NA,NA,NA,NA,NA,5,#D89F1C,#3386FF,0,0,1,40,0,236.09999999962747,39,0,620.3000000007451,0,0,experiment,NA,NA,2,0.5,0.5,4,5,207,5,NA
fcp-trial,242,1003812,0.0-217.0-0.0,voc_e2,12173,"[{""event"":""fullscreenenter"",""trial"":1,""time"":1515},{""event"":""blur"",""trial"":27,""time"":222239},{""event"":""focus"",""trial"":27,""time"":247240}]",NA,NA,NA,NA,NA,2,#FA92F8,#1CD855,10,10,0,38,1,278,37,1,368,10,0,experiment,NA,NA,0,0.1,0.9,1,0,208,5,NA
fcp-trial,243,1006129,0.0-218.0-0.0,voc_e2,12173,"[{""event"":""fullscreenenter"",""trial"":1,""time"":1515},{""event"":""blur"",""trial"":27,""time"":222239},{""event"":""focus"",""trial"":27,""time"":247240}]",NA,NA,NA,NA,NA,6,#741CD8,#D8271C,10,10,1,40,0,348.59999999962747,39,0,461.59999999962747,10,0,experiment,NA,NA,1,0.7,0.3,2,3,209,5,NA
fcp-trial,244,1008757,0.0-219.0-0.0,voc_e2,12173,"[{""event"":""fullscreenenter"",""trial"":1,""time"":1515},{""event"":""blur"",""trial"":27,""time"":222239},{""event"":""focus"",""trial"":27,""time"":247240}]",NA,NA,NA,NA,NA,4,#3386FF,#D89F1C,0,10,0,40,0,432.3999999985099,39,0,689.1999999992549,10,1,experiment,NA,NA,2,0.5,0.5,5,4,210,5,NA
audio-instructions,245,1055842,0.0-220.0,voc_e2,12173,"[{""event"":""fullscreenenter"",""trial"":1,""time"":1515},{""event"":""blur"",""trial"":27,""time"":222239},{""event"":""focus"",""trial"":27,""time"":247240}]",NA,42451.09999999963,static/audio/pause.wav,NA,0,NA,NA,NA,NA,NA,NA,NA,NA,NA,NA,NA,NA,NA,NA,NA,NA,NA,NA,NA,NA,NA,NA,NA,NA,NA
fcp-trial,246,1061782,0.0-221.0-0.0,voc_e2,12173,"[{""event"":""fullscreenenter"",""trial"":1,""time"":1515},{""event"":""blur"",""trial"":27,""time"":222239},{""event"":""focus"",""trial"":27,""time"":247240}]",NA,NA,NA,NA,NA,6,#1CD855,#FA92F8,10,0,1,40,0,2407,37,1,2016.9000000003725,10,1,experiment,NA,NA,0,0.9,0.1,0,1,211,5,NA
fcp-trial,247,1064809,0.0-222.0-0.0,voc_e2,12173,"[{""event"":""fullscreenenter"",""trial"":1,""time"":1515},{""event"":""blur"",""trial"":27,""time"":222239},{""event"":""focus"",""trial"":27,""time"":247240}]",NA,NA,NA,NA,NA,2,#D8271C,#741CD8,0,0,0,38,1,1168.699999999255,39,0,351.5,0,1,experiment,NA,NA,1,0.3,0.7,3,2,212,5,NA
fcp-trial,248,1067549,0.0-223.0-0.0,voc_e2,12173,"[{""event"":""fullscreenenter"",""trial"":1,""time"":1515},{""event"":""blur"",""trial"":27,""time"":222239},{""event"":""focus"",""trial"":27,""time"":247240}]",NA,NA,NA,NA,NA,0,#1CD855,#FA92F8,0,10,1,38,1,915.3000000007451,37,1,317.7999999988824,0,1,experiment,NA,NA,0,0.9,0.1,0,1,213,5,NA
fcp-trial,249,1070289,0.0-224.0-0.0,voc_e2,12173,"[{""event"":""fullscreenenter"",""trial"":1,""time"":1515},{""event"":""blur"",""trial"":27,""time"":222239},{""event"":""focus"",""trial"":27,""time"":247240}]",NA,NA,NA,NA,NA,6,#D89F1C,#3386FF,0,0,1,40,0,790.5,37,1,444.5,0,1,experiment,NA,NA,2,0.5,0.5,4,5,214,5,NA
fcp-trial,250,1072785,0.0-225.0-0.0,voc_e2,12173,"[{""event"":""fullscreenenter"",""trial"":1,""time"":1515},{""event"":""blur"",""trial"":27,""time"":222239},{""event"":""focus"",""trial"":27,""time"":247240}]",NA,NA,NA,NA,NA,4,#D8271C,#741CD8,10,0,0,40,0,538.5999999996275,37,1,449.30000000074506,10,0,experiment,NA,NA,1,0.3,0.7,3,2,215,5,NA
fcp-trial,251,1075385,0.0-226.0-0.0,voc_e2,12173,"[{""event"":""fullscreenenter"",""trial"":1,""time"":1515},{""event"":""blur"",""trial"":27,""time"":222239},{""event"":""focus"",""trial"":27,""time"":247240}]",NA,NA,NA,NA,NA,5,#D8271C,#741CD8,0,10,0,40,0,639.8000000007451,37,1,452.6000000014901,0,0,experiment,NA,NA,1,0.3,0.7,3,2,216,5,NA
fcp-trial,252,1077878,0.0-227.0-0.0,voc_e2,12173,"[{""event"":""fullscreenenter"",""trial"":1,""time"":1515},{""event"":""blur"",""trial"":27,""time"":222239},{""event"":""focus"",""trial"":27,""time"":247240}]",NA,NA,NA,NA,NA,4,#1CD855,#FA92F8,0,10,1,40,0,498.69999999925494,37,1,480.59999999962747,0,1,experiment,NA,NA,0,0.9,0.1,0,1,217,5,NA
fcp-trial,253,1080453,0.0-228.0-0.0,voc_e2,12173,"[{""event"":""fullscreenenter"",""trial"":1,""time"":1515},{""event"":""blur"",""trial"":27,""time"":222239},{""event"":""focus"",""trial"":27,""time"":247240}]",NA,NA,NA,NA,NA,4,#D89F1C,#3386FF,10,0,1,40,0,556.5,39,0,511.7000000011176,0,0,experiment,NA,NA,2,0.5,0.5,4,5,218,5,NA
fcp-trial,254,1082943,0.0-229.0-0.0,voc_e2,12173,"[{""event"":""fullscreenenter"",""trial"":1,""time"":1515},{""event"":""blur"",""trial"":27,""time"":222239},{""event"":""focus"",""trial"":27,""time"":247240}]",NA,NA,NA,NA,NA,3,#FA92F8,#1CD855,0,10,0,40,0,447.40000000037253,39,0,535.5999999996275,10,1,experiment,NA,NA,0,0.1,0.9,1,0,219,5,NA
fcp-trial,255,1085461,0.0-230.0-0.0,voc_e2,12173,"[{""event"":""fullscreenenter"",""trial"":1,""time"":1515},{""event"":""blur"",""trial"":27,""time"":222239},{""event"":""focus"",""trial"":27,""time"":247240}]",NA,NA,NA,NA,NA,0,#3386FF,#D89F1C,0,0,0,38,1,535.0999999996275,37,1,474.2999999988824,0,0,experiment,NA,NA,2,0.5,0.5,5,4,220,5,NA
fcp-trial,256,1088149,0.0-231.0-0.0,voc_e2,12173,"[{""event"":""fullscreenenter"",""trial"":1,""time"":1515},{""event"":""blur"",""trial"":27,""time"":222239},{""event"":""focus"",""trial"":27,""time"":247240}]",NA,NA,NA,NA,NA,1,#741CD8,#D8271C,0,0,1,38,1,875.5,39,0,306.09999999962747,0,0,experiment,NA,NA,1,0.7,0.3,2,3,221,5,NA
fcp-trial,257,1091063,0.0-232.0-0.0,voc_e2,12173,"[{""event"":""fullscreenenter"",""trial"":1,""time"":1515},{""event"":""blur"",""trial"":27,""time"":222239},{""event"":""focus"",""trial"":27,""time"":247240}]",NA,NA,NA,NA,NA,3,#741CD8,#D8271C,10,0,1,40,0,886.5,39,0,521.8000000007451,0,0,experiment,NA,NA,1,0.7,0.3,2,3,222,5,NA
fcp-trial,258,1094599,0.0-233.0-0.0,voc_e2,12173,"[{""event"":""fullscreenenter"",""trial"":1,""time"":1515},{""event"":""blur"",""trial"":27,""time"":222239},{""event"":""focus"",""trial"":27,""time"":247240}]",NA,NA,NA,NA,NA,3,#3386FF,#D89F1C,0,10,0,40,0,999,39,0,1031,10,1,experiment,NA,NA,2,0.5,0.5,5,4,223,5,NA
fcp-trial,259,1097381,0.0-234.0-0.0,voc_e2,12173,"[{""event"":""fullscreenenter"",""trial"":1,""time"":1515},{""event"":""blur"",""trial"":27,""time"":222239},{""event"":""focus"",""trial"":27,""time"":247240}]",NA,NA,NA,NA,NA,5,#1CD855,#FA92F8,10,0,1,40,0,877,37,1,398,10,1,experiment,NA,NA,0,0.9,0.1,0,1,224,5,NA
fcp-trial,260,1100693,0.0-235.0-0.0,voc_e2,12173,"[{""event"":""fullscreenenter"",""trial"":1,""time"":1515},{""event"":""blur"",""trial"":27,""time"":222239},{""event"":""focus"",""trial"":27,""time"":247240}]",NA,NA,NA,NA,NA,1,#3386FF,#D89F1C,10,0,0,38,1,823.5,39,0,981.8999999985099,0,1,experiment,NA,NA,2,0.5,0.5,5,4,225,5,NA
fcp-trial,261,1103976,0.0-236.0-0.0,voc_e2,12173,"[{""event"":""fullscreenenter"",""trial"":1,""time"":1515},{""event"":""blur"",""trial"":27,""time"":222239},{""event"":""focus"",""trial"":27,""time"":247240}]",NA,NA,NA,NA,NA,2,#1CD855,#FA92F8,10,0,1,38,1,935,39,0,839.1999999992549,0,0,experiment,NA,NA,0,0.9,0.1,0,1,226,6,NA
fcp-trial,262,1106908,0.0-237.0-0.0,voc_e2,12173,"[{""event"":""fullscreenenter"",""trial"":1,""time"":1515},{""event"":""blur"",""trial"":27,""time"":222239},{""event"":""focus"",""trial"":27,""time"":247240}]",NA,NA,NA,NA,NA,6,#741CD8,#D8271C,10,0,1,38,1,929.4000000003725,37,1,495.2999999988824,10,1,experiment,NA,NA,1,0.7,0.3,2,3,227,6,NA
fcp-trial,263,1109881,0.0-238.0-0.0,voc_e2,12173,"[{""event"":""fullscreenenter"",""trial"":1,""time"":1515},{""event"":""blur"",""trial"":27,""time"":222239},{""event"":""focus"",""trial"":27,""time"":247240}]",NA,NA,NA,NA,NA,0,#741CD8,#D8271C,0,0,1,40,0,750.1999999992549,37,1,716,0,1,experiment,NA,NA,1,0.7,0.3,2,3,228,6,NA
fcp-trial,264,1112377,0.0-239.0-0.0,voc_e2,12173,"[{""event"":""fullscreenenter"",""trial"":1,""time"":1515},{""event"":""blur"",""trial"":27,""time"":222239},{""event"":""focus"",""trial"":27,""time"":247240}]",NA,NA,NA,NA,NA,1,#FA92F8,#1CD855,0,10,0,38,1,356.69999999925494,37,1,633.5999999996275,0,0,experiment,NA,NA,0,0.1,0.9,1,0,229,6,NA
fcp-trial,265,1115161,0.0-240.0-0.0,voc_e2,12173,"[{""event"":""fullscreenenter"",""trial"":1,""time"":1515},{""event"":""blur"",""trial"":27,""time"":222239},{""event"":""focus"",""trial"":27,""time"":247240}]",NA,NA,NA,NA,NA,2,#D89F1C,#3386FF,10,10,1,40,0,613.2000000011176,39,0,662.1999999992549,10,0,experiment,NA,NA,2,0.5,0.5,4,5,230,6,NA
fcp-trial,266,1117911,0.0-241.0-0.0,voc_e2,12173,"[{""event"":""fullscreenenter"",""trial"":1,""time"":1515},{""event"":""blur"",""trial"":27,""time"":222239},{""event"":""focus"",""trial"":27,""time"":247240}]",NA,NA,NA,NA,NA,5,#D89F1C,#3386FF,10,0,1,40,0,633.5999999996275,39,0,608.6999999992549,0,0,experiment,NA,NA,2,0.5,0.5,4,5,231,6,NA
fcp-trial,267,1120328,0.0-242.0-0.0,voc_e2,12173,"[{""event"":""fullscreenenter"",""trial"":1,""time"":1515},{""event"":""blur"",""trial"":27,""time"":222239},{""event"":""focus"",""trial"":27,""time"":247240}]",NA,NA,NA,NA,NA,6,#FA92F8,#1CD855,0,10,0,40,0,323.69999999925494,39,0,586.8999999985099,10,1,experiment,NA,NA,0,0.1,0.9,1,0,232,6,NA
fcp-trial,268,1123296,0.0-243.0-0.0,voc_e2,12173,"[{""event"":""fullscreenenter"",""trial"":1,""time"":1515},{""event"":""blur"",""trial"":27,""time"":222239},{""event"":""focus"",""trial"":27,""time"":247240}]",NA,NA,NA,NA,NA,0,#741CD8,#D8271C,0,0,1,38,1,780.7000000011176,39,0,680.0999999996275,0,0,experiment,NA,NA,1,0.7,0.3,2,3,233,6,NA
fcp-trial,269,1125998,0.0-244.0-0.0,voc_e2,12173,"[{""event"":""fullscreenenter"",""trial"":1,""time"":1515},{""event"":""blur"",""trial"":27,""time"":222239},{""event"":""focus"",""trial"":27,""time"":247240}]",NA,NA,NA,NA,NA,1,#1CD855,#FA92F8,10,0,1,40,0,458.80000000074506,39,0,736,0,0,experiment,NA,NA,0,0.9,0.1,0,1,234,6,NA
fcp-trial,270,1129811,0.0-245.0-0.0,voc_e2,12173,"[{""event"":""fullscreenenter"",""trial"":1,""time"":1515},{""event"":""blur"",""trial"":27,""time"":222239},{""event"":""focus"",""trial"":27,""time"":247240}]",NA,NA,NA,NA,NA,3,#FA92F8,#1CD855,0,10,0,40,0,1074.0999999996275,39,0,1233.7999999988824,10,1,experiment,NA,NA,0,0.1,0.9,1,0,235,6,NA
fcp-trial,271,1132788,0.0-246.0-0.0,voc_e2,12173,"[{""event"":""fullscreenenter"",""trial"":1,""time"":1515},{""event"":""blur"",""trial"":27,""time"":222239},{""event"":""focus"",""trial"":27,""time"":247240}]",NA,NA,NA,NA,NA,2,#3386FF,#D89F1C,10,10,0,38,1,834,37,1,635.1999999992549,10,0,experiment,NA,NA,2,0.5,0.5,5,4,236,6,NA
fcp-trial,272,1135486,0.0-247.0-0.0,voc_e2,12173,"[{""event"":""fullscreenenter"",""trial"":1,""time"":1515},{""event"":""blur"",""trial"":27,""time"":222239},{""event"":""focus"",""trial"":27,""time"":247240}]",NA,NA,NA,NA,NA,4,#D8271C,#741CD8,0,10,0,40,0,651.9000000003725,37,1,537.5999999996275,0,0,experiment,NA,NA,1,0.3,0.7,3,2,237,6,NA
fcp-trial,273,1138137,0.0-248.0-0.0,voc_e2,12173,"[{""event"":""fullscreenenter"",""trial"":1,""time"":1515},{""event"":""blur"",""trial"":27,""time"":222239},{""event"":""focus"",""trial"":27,""time"":247240}]",NA,NA,NA,NA,NA,2,#D8271C,#741CD8,0,10,0,38,1,505.7999999988824,37,1,631.7999999988824,0,0,experiment,NA,NA,1,0.3,0.7,3,2,238,6,NA
fcp-trial,274,1140670,0.0-249.0-0.0,voc_e2,12173,"[{""event"":""fullscreenenter"",""trial"":1,""time"":1515},{""event"":""blur"",""trial"":27,""time"":222239},{""event"":""focus"",""trial"":27,""time"":247240}]",NA,NA,NA,NA,NA,2,#FA92F8,#1CD855,0,10,0,38,1,692.4000000003725,39,0,333.19999999925494,10,1,experiment,NA,NA,0,0.1,0.9,1,0,239,6,NA
fcp-trial,275,1143755,0.0-250.0-0.0,voc_e2,12173,"[{""event"":""fullscreenenter"",""trial"":1,""time"":1515},{""event"":""blur"",""trial"":27,""time"":222239},{""event"":""focus"",""trial"":27,""time"":247240}]",NA,NA,NA,NA,NA,4,#D89F1C,#3386FF,10,0,1,40,0,1000.5999999996275,39,0,576.2000000011176,0,0,experiment,NA,NA,2,0.5,0.5,4,5,240,6,NA
fcp-trial,276,1146388,0.0-251.0-0.0,voc_e2,12173,"[{""event"":""fullscreenenter"",""trial"":1,""time"":1515},{""event"":""blur"",""trial"":27,""time"":222239},{""event"":""focus"",""trial"":27,""time"":247240}]",NA,NA,NA,NA,NA,3,#3386FF,#D89F1C,10,10,0,38,1,767.4000000003725,37,1,358.40000000037253,10,0,experiment,NA,NA,2,0.5,0.5,5,4,241,6,NA
fcp-trial,277,1149688,0.0-252.0-0.0,voc_e2,12173,"[{""event"":""fullscreenenter"",""trial"":1,""time"":1515},{""event"":""blur"",""trial"":27,""time"":222239},{""event"":""focus"",""trial"":27,""time"":247240}]",NA,NA,NA,NA,NA,1,#3386FF,#D89F1C,0,0,0,38,1,1188.699999999255,39,0,604,0,1,experiment,NA,NA,2,0.5,0.5,5,4,242,6,NA
fcp-trial,278,1152299,0.0-253.0-0.0,voc_e2,12173,"[{""event"":""fullscreenenter"",""trial"":1,""time"":1515},{""event"":""blur"",""trial"":27,""time"":222239},{""event"":""focus"",""trial"":27,""time"":247240}]",NA,NA,NA,NA,NA,3,#741CD8,#D8271C,10,0,1,38,1,662,37,1,441.90000000037253,10,1,experiment,NA,NA,1,0.7,0.3,2,3,243,6,NA
fcp-trial,279,1155156,0.0-254.0-0.0,voc_e2,12173,"[{""event"":""fullscreenenter"",""trial"":1,""time"":1515},{""event"":""blur"",""trial"":27,""time"":222239},{""event"":""focus"",""trial"":27,""time"":247240}]",NA,NA,NA,NA,NA,0,#1CD855,#FA92F8,10,0,1,38,1,764,39,0,585.3000000007451,0,0,experiment,NA,NA,0,0.9,0.1,0,1,244,6,NA
fcp-trial,280,1157552,0.0-255.0-0.0,voc_e2,12173,"[{""event"":""fullscreenenter"",""trial"":1,""time"":1515},{""event"":""blur"",""trial"":27,""time"":222239},{""event"":""focus"",""trial"":27,""time"":247240}]",NA,NA,NA,NA,NA,6,#D8271C,#741CD8,0,10,0,38,1,425.7999999988824,37,1,464.2999999988824,0,0,experiment,NA,NA,1,0.3,0.7,3,2,245,6,NA
fcp-trial,281,1160414,0.0-256.0-0.0,voc_e2,12173,"[{""event"":""fullscreenenter"",""trial"":1,""time"":1515},{""event"":""blur"",""trial"":27,""time"":222239},{""event"":""focus"",""trial"":27,""time"":247240}]",NA,NA,NA,NA,NA,5,#741CD8,#D8271C,10,0,1,40,0,877.5,39,0,474.19999999925494,0,0,experiment,NA,NA,1,0.7,0.3,2,3,246,6,NA
fcp-trial,282,1162954,0.0-257.0-0.0,voc_e2,12173,"[{""event"":""fullscreenenter"",""trial"":1,""time"":1515},{""event"":""blur"",""trial"":27,""time"":222239},{""event"":""focus"",""trial"":27,""time"":247240}]",NA,NA,NA,NA,NA,0,#3386FF,#D89F1C,0,10,0,38,1,676,37,1,356.09999999962747,0,0,experiment,NA,NA,2,0.5,0.5,5,4,247,6,NA
fcp-trial,283,1165638,0.0-258.0-0.0,voc_e2,12173,"[{""event"":""fullscreenenter"",""trial"":1,""time"":1515},{""event"":""blur"",""trial"":27,""time"":222239},{""event"":""focus"",""trial"":27,""time"":247240}]",NA,NA,NA,NA,NA,4,#1CD855,#FA92F8,10,0,1,38,1,781.5999999996275,39,0,395.7000000011176,0,0,experiment,NA,NA,0,0.9,0.1,0,1,248,6,NA
fcp-trial,284,1168159,0.0-259.0-0.0,voc_e2,12173,"[{""event"":""fullscreenenter"",""trial"":1,""time"":1515},{""event"":""blur"",""trial"":27,""time"":222239},{""event"":""focus"",""trial"":27,""time"":247240}]",NA,NA,NA,NA,NA,5,#FA92F8,#1CD855,0,10,0,38,1,673.6000000014901,37,1,339.09999999962747,0,0,experiment,NA,NA,0,0.1,0.9,1,0,249,6,NA
fcp-trial,285,1171139,0.0-260.0-0.0,voc_e2,12173,"[{""event"":""fullscreenenter"",""trial"":1,""time"":1515},{""event"":""blur"",""trial"":27,""time"":222239},{""event"":""focus"",""trial"":27,""time"":247240}]",NA,NA,NA,NA,NA,6,#3386FF,#D89F1C,10,0,0,40,0,865.7999999988824,37,1,604.6999999992549,10,0,experiment,NA,NA,2,0.5,0.5,5,4,250,6,NA
fcp-trial,286,1173828,0.0-261.0-0.0,voc_e2,12173,"[{""event"":""fullscreenenter"",""trial"":1,""time"":1515},{""event"":""blur"",""trial"":27,""time"":222239},{""event"":""focus"",""trial"":27,""time"":247240}]",NA,NA,NA,NA,NA,1,#D8271C,#741CD8,10,0,0,38,1,704.5999999996275,39,0,477.69999999925494,0,1,experiment,NA,NA,1,0.3,0.7,3,2,251,6,NA
fcp-trial,287,1176786,0.0-262.0-0.0,voc_e2,12173,"[{""event"":""fullscreenenter"",""trial"":1,""time"":1515},{""event"":""blur"",""trial"":27,""time"":222239},{""event"":""focus"",""trial"":27,""time"":247240}]",NA,NA,NA,NA,NA,5,#3386FF,#D89F1C,10,0,0,40,0,892.3000000007451,39,0,558,0,1,experiment,NA,NA,2,0.5,0.5,5,4,252,6,NA
fcp-trial,288,1179330,0.0-263.0-0.0,voc_e2,12173,"[{""event"":""fullscreenenter"",""trial"":1,""time"":1515},{""event"":""blur"",""trial"":27,""time"":222239},{""event"":""focus"",""trial"":27,""time"":247240}]",NA,NA,NA,NA,NA,3,#741CD8,#D8271C,10,0,1,38,1,672.5999999996275,37,1,362.2000000011176,10,1,experiment,NA,NA,1,0.7,0.3,2,3,253,6,NA
fcp-trial,289,1181942,0.0-264.0-0.0,voc_e2,12173,"[{""event"":""fullscreenenter"",""trial"":1,""time"":1515},{""event"":""blur"",""trial"":27,""time"":222239},{""event"":""focus"",""trial"":27,""time"":247240}]",NA,NA,NA,NA,NA,3,#1CD855,#FA92F8,10,0,1,38,1,714.8000000007451,39,0,391.19999999925494,0,0,experiment,NA,NA,0,0.9,0.1,0,1,254,6,NA
fcp-trial,290,1184659,0.0-265.0-0.0,voc_e2,12173,"[{""event"":""fullscreenenter"",""trial"":1,""time"":1515},{""event"":""blur"",""trial"":27,""time"":222239},{""event"":""focus"",""trial"":27,""time"":247240}]",NA,NA,NA,NA,NA,1,#741CD8,#D8271C,0,10,1,38,1,739.5999999996275,37,1,467.40000000037253,0,1,experiment,NA,NA,1,0.7,0.3,2,3,255,6,NA
fcp-trial,291,1187675,0.0-266.0-0.0,voc_e2,12173,"[{""event"":""fullscreenenter"",""trial"":1,""time"":1515},{""event"":""blur"",""trial"":27,""time"":222239},{""event"":""focus"",""trial"":27,""time"":247240}]",NA,NA,NA,NA,NA,2,#D89F1C,#3386FF,10,10,1,38,1,900.3000000007451,39,0,607.5999999996275,10,0,experiment,NA,NA,2,0.5,0.5,4,5,256,6,NA
fcp-trial,292,1190233,0.0-267.0-0.0,voc_e2,12173,"[{""event"":""fullscreenenter"",""trial"":1,""time"":1515},{""event"":""blur"",""trial"":27,""time"":222239},{""event"":""focus"",""trial"":27,""time"":247240}]",NA,NA,NA,NA,NA,2,#1CD855,#FA92F8,10,0,1,38,1,685.8999999985099,37,1,366.30000000074506,10,1,experiment,NA,NA,0,0.9,0.1,0,1,257,6,NA
fcp-trial,293,1193129,0.0-268.0-0.0,voc_e2,12173,"[{""event"":""fullscreenenter"",""trial"":1,""time"":1515},{""event"":""blur"",""trial"":27,""time"":222239},{""event"":""focus"",""trial"":27,""time"":247240}]",NA,NA,NA,NA,NA,0,#FA92F8,#1CD855,0,10,0,38,1,701.0999999996275,39,0,689.0999999996275,10,1,experiment,NA,NA,0,0.1,0.9,1,0,258,6,NA
fcp-trial,294,1196058,0.0-269.0-0.0,voc_e2,12173,"[{""event"":""fullscreenenter"",""trial"":1,""time"":1515},{""event"":""blur"",""trial"":27,""time"":222239},{""event"":""focus"",""trial"":27,""time"":247240}]",NA,NA,NA,NA,NA,3,#3386FF,#D89F1C,10,0,0,38,1,841,37,1,580.4000000003725,10,0,experiment,NA,NA,2,0.5,0.5,5,4,259,6,NA
fcp-trial,295,1198372,0.0-270.0-0.0,voc_e2,12173,"[{""event"":""fullscreenenter"",""trial"":1,""time"":1515},{""event"":""blur"",""trial"":27,""time"":222239},{""event"":""focus"",""trial"":27,""time"":247240}]",NA,NA,NA,NA,NA,4,#741CD8,#D8271C,0,0,1,38,1,353.09999999962747,39,0,452.2000000011176,0,0,experiment,NA,NA,1,0.7,0.3,2,3,260,6,NA
fcp-trial,296,1200944,0.0-271.0-0.0,voc_e2,12173,"[{""event"":""fullscreenenter"",""trial"":1,""time"":1515},{""event"":""blur"",""trial"":27,""time"":222239},{""event"":""focus"",""trial"":27,""time"":247240}]",NA,NA,NA,NA,NA,4,#1CD855,#FA92F8,0,0,1,38,1,353.6000000014901,37,1,710.5999999996275,0,1,experiment,NA,NA,0,0.9,0.1,0,1,261,6,NA
fcp-trial,297,1203797,0.0-272.0-0.0,voc_e2,12173,"[{""event"":""fullscreenenter"",""trial"":1,""time"":1515},{""event"":""blur"",""trial"":27,""time"":222239},{""event"":""focus"",""trial"":27,""time"":247240}]",NA,NA,NA,NA,NA,4,#D89F1C,#3386FF,0,10,1,38,1,274.5,39,0,1071.0999999996275,10,0,experiment,NA,NA,2,0.5,0.5,4,5,262,6,NA
fcp-trial,298,1206009,0.0-273.0-0.0,voc_e2,12173,"[{""event"":""fullscreenenter"",""trial"":1,""time"":1515},{""event"":""blur"",""trial"":27,""time"":222239},{""event"":""focus"",""trial"":27,""time"":247240}]",NA,NA,NA,NA,NA,6,#741CD8,#D8271C,10,0,1,38,1,210.5,39,0,496.5,0,0,experiment,NA,NA,1,0.7,0.3,2,3,263,6,NA
fcp-trial,299,1208524,0.0-274.0-0.0,voc_e2,12173,"[{""event"":""fullscreenenter"",""trial"":1,""time"":1515},{""event"":""blur"",""trial"":27,""time"":222239},{""event"":""focus"",""trial"":27,""time"":247240}]",NA,NA,NA,NA,NA,0,#D8271C,#741CD8,0,10,0,38,1,334,37,1,672.1999999992549,0,0,experiment,NA,NA,1,0.3,0.7,3,2,264,6,NA
fcp-trial,300,1211832,0.0-275.0-0.0,voc_e2,12173,"[{""event"":""fullscreenenter"",""trial"":1,""time"":1515},{""event"":""blur"",""trial"":27,""time"":222239},{""event"":""focus"",""trial"":27,""time"":247240}]",NA,NA,NA,NA,NA,0,#3386FF,#D89F1C,0,0,0,38,1,481.59999999962747,37,1,1319.5999999996275,0,0,experiment,NA,NA,2,0.5,0.5,5,4,265,6,NA
fcp-trial,301,1214847,0.0-276.0-0.0,voc_e2,12173,"[{""event"":""fullscreenenter"",""trial"":1,""time"":1515},{""event"":""blur"",""trial"":27,""time"":222239},{""event"":""focus"",""trial"":27,""time"":247240}]",NA,NA,NA,NA,NA,5,#1CD855,#FA92F8,10,0,1,38,1,876.9000000003725,37,1,631.5,10,1,experiment,NA,NA,0,0.9,0.1,0,1,266,6,NA
fcp-trial,302,1217369,0.0-277.0-0.0,voc_e2,12173,"[{""event"":""fullscreenenter"",""trial"":1,""time"":1515},{""event"":""blur"",""trial"":27,""time"":222239},{""event"":""focus"",""trial"":27,""time"":247240}]",NA,NA,NA,NA,NA,1,#D89F1C,#3386FF,0,10,1,38,1,323.2000000011176,39,0,692.4000000003725,10,0,experiment,NA,NA,2,0.5,0.5,4,5,267,6,NA
fcp-trial,303,1219776,0.0-278.0-0.0,voc_e2,12173,"[{""event"":""fullscreenenter"",""trial"":1,""time"":1515},{""event"":""blur"",""trial"":27,""time"":222239},{""event"":""focus"",""trial"":27,""time"":247240}]",NA,NA,NA,NA,NA,5,#D8271C,#741CD8,0,0,0,38,1,284.7000000011176,37,1,613.1000000014901,0,0,experiment,NA,NA,1,0.3,0.7,3,2,268,6,NA
