trial_type,trial_index,time_elapsed,internal_node_id,task_version,subject_id,interactions,success,rt,stimulus,key_press,button_pressed,offer,arcade_color_L,arcade_color_R,arcade_outcome_L,arcade_outcome_R,correct,stage_1_key,stage_1_choice,stage_1_rt,stage_2_key,stage_2_choice,stage_2_rt,stage_3_outcome,accuracy,phase,responses,num_errors,context,reward_prob_L,reward_prob_R,arcade_id_L,arcade_id_R,trial,block,response
pavlovia,0,13,0.0-0.0,voc_e2,11753,[],NA,NA,NA,NA,NA,NA,NA,NA,NA,NA,NA,NA,NA,NA,NA,NA,NA,NA,NA,NA,NA,NA,NA,NA,NA,NA,NA,NA,NA,NA
fullscreen,1,3854,0.0-1.0,voc_e2,11753,"[{""event"":""fullscreenenter"",""trial"":1,""time"":2883}]",TRUE,NA,NA,NA,NA,NA,NA,NA,NA,NA,NA,NA,NA,NA,NA,NA,NA,NA,NA,NA,NA,NA,NA,NA,NA,NA,NA,NA,NA,NA
audio-keyboard-response,2,9273,0.0-2.0,voc_e2,11753,"[{""event"":""fullscreenenter"",""trial"":1,""time"":2883}]",NA,0,static/audio/beep_loop.wav,32,NA,NA,NA,NA,NA,NA,NA,NA,NA,NA,NA,NA,NA,NA,NA,NA,NA,NA,NA,NA,NA,NA,NA,NA,NA,NA
audio-test,3,17152,0.0-3.0,voc_e2,11753,"[{""event"":""fullscreenenter"",""trial"":1,""time"":2883},{""event"":""fullscreenexit"",""trial"":3,""time"":14467},{""event"":""blur"",""trial"":3,""time"":14468},{""event"":""focus"",""trial"":3,""time"":14477}]",NA,NA,static/audio/turtle.wav,NA,3,NA,NA,NA,NA,NA,NA,NA,NA,NA,NA,NA,NA,NA,NA,NA,NA,NA,NA,NA,NA,NA,NA,NA,NA,NA
audio-test,4,19685,0.0-4.0,voc_e2,11753,"[{""event"":""fullscreenenter"",""trial"":1,""time"":2883},{""event"":""fullscreenexit"",""trial"":3,""time"":14467},{""event"":""blur"",""trial"":3,""time"":14468},{""event"":""focus"",""trial"":3,""time"":14477}]",NA,NA,static/audio/shark.wav,NA,2,NA,NA,NA,NA,NA,NA,NA,NA,NA,NA,NA,NA,NA,NA,NA,NA,NA,NA,NA,NA,NA,NA,NA,NA,NA
audio-instructions,5,31534,0.0-5.0-0.0,voc_e2,11753,"[{""event"":""fullscreenenter"",""trial"":1,""time"":2883},{""event"":""fullscreenexit"",""trial"":3,""time"":14467},{""event"":""blur"",""trial"":3,""time"":14468},{""event"":""focus"",""trial"":3,""time"":14477}]",NA,6065,static/audio/instructions1.wav,NA,0,NA,NA,NA,NA,NA,NA,NA,NA,NA,NA,NA,NA,NA,NA,NA,NA,NA,NA,NA,NA,NA,NA,NA,NA,NA
audio-instructions,6,39970,0.0-5.0-1.0,voc_e2,11753,"[{""event"":""fullscreenenter"",""trial"":1,""time"":2883},{""event"":""fullscreenexit"",""trial"":3,""time"":14467},{""event"":""blur"",""trial"":3,""time"":14468},{""event"":""focus"",""trial"":3,""time"":14477}]",NA,1694,static/audio/instructions2.wav,NA,0,NA,NA,NA,NA,NA,NA,NA,NA,NA,NA,NA,NA,NA,NA,NA,NA,NA,NA,NA,NA,NA,NA,NA,NA,NA
audio-instructions,7,57654,0.0-5.0-2.0,voc_e2,11753,"[{""event"":""fullscreenenter"",""trial"":1,""time"":2883},{""event"":""fullscreenexit"",""trial"":3,""time"":14467},{""event"":""blur"",""trial"":3,""time"":14468},{""event"":""focus"",""trial"":3,""time"":14477}]",NA,11878,static/audio/instructions3.wav,NA,0,NA,NA,NA,NA,NA,NA,NA,NA,NA,NA,NA,NA,NA,NA,NA,NA,NA,NA,NA,NA,NA,NA,NA,NA,NA
audio-instructions,8,75436,0.0-5.0-3.0,voc_e2,11753,"[{""event"":""fullscreenenter"",""trial"":1,""time"":2883},{""event"":""fullscreenexit"",""trial"":3,""time"":14467},{""event"":""blur"",""trial"":3,""time"":14468},{""event"":""focus"",""trial"":3,""time"":14477}]",NA,4547,static/audio/instructions4.wav,NA,0,NA,NA,NA,NA,NA,NA,NA,NA,NA,NA,NA,NA,NA,NA,NA,NA,NA,NA,NA,NA,NA,NA,NA,NA,NA
audio-instructions,9,88437,0.0-5.0-4.0,voc_e2,11753,"[{""event"":""fullscreenenter"",""trial"":1,""time"":2883},{""event"":""fullscreenexit"",""trial"":3,""time"":14467},{""event"":""blur"",""trial"":3,""time"":14468},{""event"":""focus"",""trial"":3,""time"":14477}]",NA,3614,static/audio/instructions5.wav,NA,0,NA,NA,NA,NA,NA,NA,NA,NA,NA,NA,NA,NA,NA,NA,NA,NA,NA,NA,NA,NA,NA,NA,NA,NA,NA
fcp-practice,10,91357,0.0-5.0-5.0-0.0,voc_e2,11753,"[{""event"":""fullscreenenter"",""trial"":1,""time"":2883},{""event"":""fullscreenexit"",""trial"":3,""time"":14467},{""event"":""blur"",""trial"":3,""time"":14468},{""event"":""focus"",""trial"":3,""time"":14477}]",NA,NA,NA,NA,NA,NA,#EDC948,#46d3c8,10,0,1,null,null,null,37,1,1404,10,1,practice,NA,NA,NA,NA,NA,NA,NA,NA,NA,NA
fcp-practice,11,93719,0.0-5.0-5.0-1.0,voc_e2,11753,"[{""event"":""fullscreenenter"",""trial"":1,""time"":2883},{""event"":""fullscreenexit"",""trial"":3,""time"":14467},{""event"":""blur"",""trial"":3,""time"":14468},{""event"":""focus"",""trial"":3,""time"":14477}]",NA,NA,NA,NA,NA,NA,#EDC948,#46d3c8,10,0,1,null,null,null,37,1,859,10,1,practice,NA,NA,NA,NA,NA,NA,NA,NA,NA,NA
fcp-practice,12,95662,0.0-5.0-5.0-2.0,voc_e2,11753,"[{""event"":""fullscreenenter"",""trial"":1,""time"":2883},{""event"":""fullscreenexit"",""trial"":3,""time"":14467},{""event"":""blur"",""trial"":3,""time"":14468},{""event"":""focus"",""trial"":3,""time"":14477}]",NA,NA,NA,NA,NA,NA,#EDC948,#46d3c8,0,10,1,null,null,null,37,1,438,0,1,practice,NA,NA,NA,NA,NA,NA,NA,NA,NA,NA
fcp-practice,13,97672,0.0-5.0-5.0-3.0,voc_e2,11753,"[{""event"":""fullscreenenter"",""trial"":1,""time"":2883},{""event"":""fullscreenexit"",""trial"":3,""time"":14467},{""event"":""blur"",""trial"":3,""time"":14468},{""event"":""focus"",""trial"":3,""time"":14477}]",NA,NA,NA,NA,NA,NA,#EDC948,#46d3c8,10,0,1,null,null,null,37,1,506,10,1,practice,NA,NA,NA,NA,NA,NA,NA,NA,NA,NA
fcp-practice,14,99692,0.0-5.0-5.0-4.0,voc_e2,11753,"[{""event"":""fullscreenenter"",""trial"":1,""time"":2883},{""event"":""fullscreenexit"",""trial"":3,""time"":14467},{""event"":""blur"",""trial"":3,""time"":14468},{""event"":""focus"",""trial"":3,""time"":14477}]",NA,NA,NA,NA,NA,NA,#EDC948,#46d3c8,10,0,1,null,null,null,37,1,513.0000000000146,10,1,practice,NA,NA,NA,NA,NA,NA,NA,NA,NA,NA
audio-instructions,15,121103,0.0-5.0-6.0,voc_e2,11753,"[{""event"":""fullscreenenter"",""trial"":1,""time"":2883},{""event"":""fullscreenexit"",""trial"":3,""time"":14467},{""event"":""blur"",""trial"":3,""time"":14468},{""event"":""focus"",""trial"":3,""time"":14477}]",NA,3401,static/audio/instructions6.wav,NA,0,NA,NA,NA,NA,NA,NA,NA,NA,NA,NA,NA,NA,NA,NA,NA,NA,NA,NA,NA,NA,NA,NA,NA,NA,NA
audio-instructions,16,147253,0.0-5.0-7.0,voc_e2,11753,"[{""event"":""fullscreenenter"",""trial"":1,""time"":2883},{""event"":""fullscreenexit"",""trial"":3,""time"":14467},{""event"":""blur"",""trial"":3,""time"":14468},{""event"":""focus"",""trial"":3,""time"":14477}]",NA,6938,static/audio/instructions7.wav,NA,0,NA,NA,NA,NA,NA,NA,NA,NA,NA,NA,NA,NA,NA,NA,NA,NA,NA,NA,NA,NA,NA,NA,NA,NA,NA
audio-instructions,17,163402,0.0-5.0-8.0,voc_e2,11753,"[{""event"":""fullscreenenter"",""trial"":1,""time"":2883},{""event"":""fullscreenexit"",""trial"":3,""time"":14467},{""event"":""blur"",""trial"":3,""time"":14468},{""event"":""focus"",""trial"":3,""time"":14477}]",NA,6675.000000000029,static/audio/instructions8.wav,NA,0,NA,NA,NA,NA,NA,NA,NA,NA,NA,NA,NA,NA,NA,NA,NA,NA,NA,NA,NA,NA,NA,NA,NA,NA,NA
fcp-comprehension,18,175457,0.0-5.0-9.0,voc_e2,11753,"[{""event"":""fullscreenenter"",""trial"":1,""time"":2883},{""event"":""fullscreenexit"",""trial"":3,""time"":14467},{""event"":""blur"",""trial"":3,""time"":14468},{""event"":""focus"",""trial"":3,""time"":14477}]",NA,12052,NA,NA,NA,NA,NA,NA,NA,NA,NA,NA,NA,NA,NA,NA,NA,NA,NA,NA,"false,true",1,NA,NA,NA,NA,NA,NA,NA,NA
audio-instructions,19,182039,0.0-5.1-0.1,voc_e2,11753,"[{""event"":""fullscreenenter"",""trial"":1,""time"":2883},{""event"":""fullscreenexit"",""trial"":3,""time"":14467},{""event"":""blur"",""trial"":3,""time"":14468},{""event"":""focus"",""trial"":3,""time"":14477}]",NA,1800.000000000029,static/audio/instructions1.wav,NA,0,NA,NA,NA,NA,NA,NA,NA,NA,NA,NA,NA,NA,NA,NA,NA,NA,NA,NA,NA,NA,NA,NA,NA,NA,NA
audio-instructions,20,198637,0.0-5.1-1.1,voc_e2,11753,"[{""event"":""fullscreenenter"",""trial"":1,""time"":2883},{""event"":""fullscreenexit"",""trial"":3,""time"":14467},{""event"":""blur"",""trial"":3,""time"":14468},{""event"":""focus"",""trial"":3,""time"":14477}]",NA,9847.99999999997,static/audio/instructions2.wav,NA,0,NA,NA,NA,NA,NA,NA,NA,NA,NA,NA,NA,NA,NA,NA,NA,NA,NA,NA,NA,NA,NA,NA,NA,NA,NA
audio-instructions,21,210303,0.0-5.1-2.1,voc_e2,11753,"[{""event"":""fullscreenenter"",""trial"":1,""time"":2883},{""event"":""fullscreenexit"",""trial"":3,""time"":14467},{""event"":""blur"",""trial"":3,""time"":14468},{""event"":""focus"",""trial"":3,""time"":14477}]",NA,5860,static/audio/instructions3.wav,NA,0,NA,NA,NA,NA,NA,NA,NA,NA,NA,NA,NA,NA,NA,NA,NA,NA,NA,NA,NA,NA,NA,NA,NA,NA,NA
audio-instructions,22,225237,0.0-5.1-3.1,voc_e2,11753,"[{""event"":""fullscreenenter"",""trial"":1,""time"":2883},{""event"":""fullscreenexit"",""trial"":3,""time"":14467},{""event"":""blur"",""trial"":3,""time"":14468},{""event"":""focus"",""trial"":3,""time"":14477}]",NA,1704,static/audio/instructions4.wav,NA,0,NA,NA,NA,NA,NA,NA,NA,NA,NA,NA,NA,NA,NA,NA,NA,NA,NA,NA,NA,NA,NA,NA,NA,NA,NA
audio-instructions,23,239454,0.0-5.1-4.1,voc_e2,11753,"[{""event"":""fullscreenenter"",""trial"":1,""time"":2883},{""event"":""fullscreenexit"",""trial"":3,""time"":14467},{""event"":""blur"",""trial"":3,""time"":14468},{""event"":""focus"",""trial"":3,""time"":14477}]",NA,4828.000000000029,static/audio/instructions5.wav,NA,0,NA,NA,NA,NA,NA,NA,NA,NA,NA,NA,NA,NA,NA,NA,NA,NA,NA,NA,NA,NA,NA,NA,NA,NA,NA
fcp-practice,24,242070,0.0-5.1-5.1-0.1,voc_e2,11753,"[{""event"":""fullscreenenter"",""trial"":1,""time"":2883},{""event"":""fullscreenexit"",""trial"":3,""time"":14467},{""event"":""blur"",""trial"":3,""time"":14468},{""event"":""focus"",""trial"":3,""time"":14477}]",NA,NA,NA,NA,NA,NA,#EDC948,#46d3c8,10,0,1,null,null,null,37,1,1103,10,1,practice,NA,NA,NA,NA,NA,NA,NA,NA,NA,NA
fcp-practice,25,243952,0.0-5.1-5.1-1.1,voc_e2,11753,"[{""event"":""fullscreenenter"",""trial"":1,""time"":2883},{""event"":""fullscreenexit"",""trial"":3,""time"":14467},{""event"":""blur"",""trial"":3,""time"":14468},{""event"":""focus"",""trial"":3,""time"":14477}]",NA,NA,NA,NA,NA,NA,#EDC948,#46d3c8,10,0,1,null,null,null,37,1,378,10,1,practice,NA,NA,NA,NA,NA,NA,NA,NA,NA,NA
fcp-practice,26,245830,0.0-5.1-5.1-2.1,voc_e2,11753,"[{""event"":""fullscreenenter"",""trial"":1,""time"":2883},{""event"":""fullscreenexit"",""trial"":3,""time"":14467},{""event"":""blur"",""trial"":3,""time"":14468},{""event"":""focus"",""trial"":3,""time"":14477}]",NA,NA,NA,NA,NA,NA,#EDC948,#46d3c8,0,10,1,null,null,null,37,1,373,0,1,practice,NA,NA,NA,NA,NA,NA,NA,NA,NA,NA
fcp-practice,27,247831,0.0-5.1-5.1-3.1,voc_e2,11753,"[{""event"":""fullscreenenter"",""trial"":1,""time"":2883},{""event"":""fullscreenexit"",""trial"":3,""time"":14467},{""event"":""blur"",""trial"":3,""time"":14468},{""event"":""focus"",""trial"":3,""time"":14477}]",NA,NA,NA,NA,NA,NA,#EDC948,#46d3c8,10,0,1,null,null,null,37,1,488,10,1,practice,NA,NA,NA,NA,NA,NA,NA,NA,NA,NA
fcp-practice,28,249972,0.0-5.1-5.1-4.1,voc_e2,11753,"[{""event"":""fullscreenenter"",""trial"":1,""time"":2883},{""event"":""fullscreenexit"",""trial"":3,""time"":14467},{""event"":""blur"",""trial"":3,""time"":14468},{""event"":""focus"",""trial"":3,""time"":14477}]",NA,NA,NA,NA,NA,NA,#EDC948,#46d3c8,10,0,1,null,null,null,37,1,627,10,1,practice,NA,NA,NA,NA,NA,NA,NA,NA,NA,NA
audio-instructions,29,275136,0.0-5.1-6.1,voc_e2,11753,"[{""event"":""fullscreenenter"",""trial"":1,""time"":2883},{""event"":""fullscreenexit"",""trial"":3,""time"":14467},{""event"":""blur"",""trial"":3,""time"":14468},{""event"":""focus"",""trial"":3,""time"":14477}]",NA,7156,static/audio/instructions6.wav,NA,0,NA,NA,NA,NA,NA,NA,NA,NA,NA,NA,NA,NA,NA,NA,NA,NA,NA,NA,NA,NA,NA,NA,NA,NA,NA
audio-instructions,30,296538,0.0-5.1-7.1,voc_e2,11753,"[{""event"":""fullscreenenter"",""trial"":1,""time"":2883},{""event"":""fullscreenexit"",""trial"":3,""time"":14467},{""event"":""blur"",""trial"":3,""time"":14468},{""event"":""focus"",""trial"":3,""time"":14477}]",NA,2200,static/audio/instructions7.wav,NA,0,NA,NA,NA,NA,NA,NA,NA,NA,NA,NA,NA,NA,NA,NA,NA,NA,NA,NA,NA,NA,NA,NA,NA,NA,NA
audio-instructions,31,311354,0.0-5.1-8.1,voc_e2,11753,"[{""event"":""fullscreenenter"",""trial"":1,""time"":2883},{""event"":""fullscreenexit"",""trial"":3,""time"":14467},{""event"":""blur"",""trial"":3,""time"":14468},{""event"":""focus"",""trial"":3,""time"":14477}]",NA,5341,static/audio/instructions8.wav,NA,0,NA,NA,NA,NA,NA,NA,NA,NA,NA,NA,NA,NA,NA,NA,NA,NA,NA,NA,NA,NA,NA,NA,NA,NA,NA
fcp-comprehension,32,321806,0.0-5.1-9.1,voc_e2,11753,"[{""event"":""fullscreenenter"",""trial"":1,""time"":2883},{""event"":""fullscreenexit"",""trial"":3,""time"":14467},{""event"":""blur"",""trial"":3,""time"":14468},{""event"":""focus"",""trial"":3,""time"":14477}]",NA,10450.000000000058,NA,NA,NA,NA,NA,NA,NA,NA,NA,NA,NA,NA,NA,NA,NA,NA,NA,NA,"true,true",0,NA,NA,NA,NA,NA,NA,NA,NA
audio-instructions,33,335288,0.0-6.0-0.0,voc_e2,11753,"[{""event"":""fullscreenenter"",""trial"":1,""time"":2883},{""event"":""fullscreenexit"",""trial"":3,""time"":14467},{""event"":""blur"",""trial"":3,""time"":14468},{""event"":""focus"",""trial"":3,""time"":14477},{""event"":""blur"",""trial"":33,""time"":327594},{""event"":""focus"",""trial"":33,""time"":333220}]",NA,7935,static/audio/instructions9.wav,NA,0,NA,NA,NA,NA,NA,NA,NA,NA,NA,NA,NA,NA,NA,NA,NA,NA,NA,NA,NA,NA,NA,NA,NA,NA,NA
audio-instructions,34,353371,0.0-6.0-1.0,voc_e2,11753,"[{""event"":""fullscreenenter"",""trial"":1,""time"":2883},{""event"":""fullscreenexit"",""trial"":3,""time"":14467},{""event"":""blur"",""trial"":3,""time"":14468},{""event"":""focus"",""trial"":3,""time"":14477},{""event"":""blur"",""trial"":33,""time"":327594},{""event"":""focus"",""trial"":33,""time"":333220}]",NA,5962.000000000058,static/audio/instructions10.wav,NA,0,NA,NA,NA,NA,NA,NA,NA,NA,NA,NA,NA,NA,NA,NA,NA,NA,NA,NA,NA,NA,NA,NA,NA,NA,NA
fcp-trial,35,368377,0.0-6.0-2.0,voc_e2,11753,"[{""event"":""fullscreenenter"",""trial"":1,""time"":2883},{""event"":""fullscreenexit"",""trial"":3,""time"":14467},{""event"":""blur"",""trial"":3,""time"":14468},{""event"":""focus"",""trial"":3,""time"":14477},{""event"":""blur"",""trial"":33,""time"":327594},{""event"":""focus"",""trial"":33,""time"":333220}]",NA,NA,NA,NA,NA,0,#EDC948,#46d3c8,10,10,1,null,null,null,null,null,null,NA,0,practice,NA,NA,NA,NA,NA,NA,NA,NA,NA,NA
audio-instructions,36,381287,0.0-6.0-3.0,voc_e2,11753,"[{""event"":""fullscreenenter"",""trial"":1,""time"":2883},{""event"":""fullscreenexit"",""trial"":3,""time"":14467},{""event"":""blur"",""trial"":3,""time"":14468},{""event"":""focus"",""trial"":3,""time"":14477},{""event"":""blur"",""trial"":33,""time"":327594},{""event"":""focus"",""trial"":33,""time"":333220}]",NA,1900,static/audio/instructions11.wav,NA,0,NA,NA,NA,NA,NA,NA,NA,NA,NA,NA,NA,NA,NA,NA,NA,NA,NA,NA,NA,NA,NA,NA,NA,NA,NA
fcp-trial,37,384369,0.0-6.0-4.0,voc_e2,11753,"[{""event"":""fullscreenenter"",""trial"":1,""time"":2883},{""event"":""fullscreenexit"",""trial"":3,""time"":14467},{""event"":""blur"",""trial"":3,""time"":14468},{""event"":""focus"",""trial"":3,""time"":14477},{""event"":""blur"",""trial"":33,""time"":327594},{""event"":""focus"",""trial"":33,""time"":333220}]",NA,NA,NA,NA,NA,6,#EDC948,#46d3c8,10,10,1,40,0,601,39,0,964,10,0,practice,NA,NA,NA,NA,NA,NA,NA,NA,NA,NA
audio-instructions,38,406004,0.0-6.0-5.0,voc_e2,11753,"[{""event"":""fullscreenenter"",""trial"":1,""time"":2883},{""event"":""fullscreenexit"",""trial"":3,""time"":14467},{""event"":""blur"",""trial"":3,""time"":14468},{""event"":""focus"",""trial"":3,""time"":14477},{""event"":""blur"",""trial"":33,""time"":327594},{""event"":""focus"",""trial"":33,""time"":333220}]",NA,2944,static/audio/instructions12.wav,NA,0,NA,NA,NA,NA,NA,NA,NA,NA,NA,NA,NA,NA,NA,NA,NA,NA,NA,NA,NA,NA,NA,NA,NA,NA,NA
audio-instructions,39,414754,0.0-6.0-6.0,voc_e2,11753,"[{""event"":""fullscreenenter"",""trial"":1,""time"":2883},{""event"":""fullscreenexit"",""trial"":3,""time"":14467},{""event"":""blur"",""trial"":3,""time"":14468},{""event"":""focus"",""trial"":3,""time"":14477},{""event"":""blur"",""trial"":33,""time"":327594},{""event"":""focus"",""trial"":33,""time"":333220}]",NA,1153,static/audio/instructions13.wav,NA,0,NA,NA,NA,NA,NA,NA,NA,NA,NA,NA,NA,NA,NA,NA,NA,NA,NA,NA,NA,NA,NA,NA,NA,NA,NA
audio-instructions,40,425304,0.0-6.0-7.0,voc_e2,11753,"[{""event"":""fullscreenenter"",""trial"":1,""time"":2883},{""event"":""fullscreenexit"",""trial"":3,""time"":14467},{""event"":""blur"",""trial"":3,""time"":14468},{""event"":""focus"",""trial"":3,""time"":14477},{""event"":""blur"",""trial"":33,""time"":327594},{""event"":""focus"",""trial"":33,""time"":333220}]",NA,2101,static/audio/instructions14.wav,NA,0,NA,NA,NA,NA,NA,NA,NA,NA,NA,NA,NA,NA,NA,NA,NA,NA,NA,NA,NA,NA,NA,NA,NA,NA,NA
audio-instructions,41,435304,0.0-7.0-0.0,voc_e2,11753,"[{""event"":""fullscreenenter"",""trial"":1,""time"":2883},{""event"":""fullscreenexit"",""trial"":3,""time"":14467},{""event"":""blur"",""trial"":3,""time"":14468},{""event"":""focus"",""trial"":3,""time"":14477},{""event"":""blur"",""trial"":33,""time"":327594},{""event"":""focus"",""trial"":33,""time"":333220}]",NA,3086.000000000058,static/audio/instructions15.wav,NA,0,NA,NA,NA,NA,NA,NA,NA,NA,NA,NA,NA,NA,NA,NA,NA,NA,NA,NA,NA,NA,NA,NA,NA,NA,NA
audio-instructions,42,461772,0.0-7.0-1.0,voc_e2,11753,"[{""event"":""fullscreenenter"",""trial"":1,""time"":2883},{""event"":""fullscreenexit"",""trial"":3,""time"":14467},{""event"":""blur"",""trial"":3,""time"":14468},{""event"":""focus"",""trial"":3,""time"":14477},{""event"":""blur"",""trial"":33,""time"":327594},{""event"":""focus"",""trial"":33,""time"":333220}]",NA,19640,static/audio/instructions16.wav,NA,0,NA,NA,NA,NA,NA,NA,NA,NA,NA,NA,NA,NA,NA,NA,NA,NA,NA,NA,NA,NA,NA,NA,NA,NA,NA
audio-instructions,43,480904,0.0-7.0-2.0,voc_e2,11753,"[{""event"":""fullscreenenter"",""trial"":1,""time"":2883},{""event"":""fullscreenexit"",""trial"":3,""time"":14467},{""event"":""blur"",""trial"":3,""time"":14468},{""event"":""focus"",""trial"":3,""time"":14477},{""event"":""blur"",""trial"":33,""time"":327594},{""event"":""focus"",""trial"":33,""time"":333220}]",NA,11450,static/audio/instructions17.wav,NA,0,NA,NA,NA,NA,NA,NA,NA,NA,NA,NA,NA,NA,NA,NA,NA,NA,NA,NA,NA,NA,NA,NA,NA,NA,NA
audio-instructions,44,492987,0.0-7.0-3.0,voc_e2,11753,"[{""event"":""fullscreenenter"",""trial"":1,""time"":2883},{""event"":""fullscreenexit"",""trial"":3,""time"":14467},{""event"":""blur"",""trial"":3,""time"":14468},{""event"":""focus"",""trial"":3,""time"":14477},{""event"":""blur"",""trial"":33,""time"":327594},{""event"":""focus"",""trial"":33,""time"":333220}]",NA,4316,static/audio/instructions18.wav,NA,0,NA,NA,NA,NA,NA,NA,NA,NA,NA,NA,NA,NA,NA,NA,NA,NA,NA,NA,NA,NA,NA,NA,NA,NA,NA
audio-instructions,45,505620,0.0-7.0-4.0,voc_e2,11753,"[{""event"":""fullscreenenter"",""trial"":1,""time"":2883},{""event"":""fullscreenexit"",""trial"":3,""time"":14467},{""event"":""blur"",""trial"":3,""time"":14468},{""event"":""focus"",""trial"":3,""time"":14477},{""event"":""blur"",""trial"":33,""time"":327594},{""event"":""focus"",""trial"":33,""time"":333220}]",NA,5890.999999999942,static/audio/instructions19.wav,NA,0,NA,NA,NA,NA,NA,NA,NA,NA,NA,NA,NA,NA,NA,NA,NA,NA,NA,NA,NA,NA,NA,NA,NA,NA,NA
fcp-comprehension,46,517356,0.0-7.0-5.0,voc_e2,11753,"[{""event"":""fullscreenenter"",""trial"":1,""time"":2883},{""event"":""fullscreenexit"",""trial"":3,""time"":14467},{""event"":""blur"",""trial"":3,""time"":14468},{""event"":""focus"",""trial"":3,""time"":14477},{""event"":""blur"",""trial"":33,""time"":327594},{""event"":""focus"",""trial"":33,""time"":333220}]",NA,11732.999999999884,NA,NA,NA,NA,NA,NA,NA,NA,NA,NA,NA,NA,NA,NA,NA,NA,NA,NA,"false,false,false,true",0,NA,NA,NA,NA,NA,NA,NA,NA
audio-instructions,47,532857,0.0-8.0,voc_e2,11753,"[{""event"":""fullscreenenter"",""trial"":1,""time"":2883},{""event"":""fullscreenexit"",""trial"":3,""time"":14467},{""event"":""blur"",""trial"":3,""time"":14468},{""event"":""focus"",""trial"":3,""time"":14477},{""event"":""blur"",""trial"":33,""time"":327594},{""event"":""focus"",""trial"":33,""time"":333220}]",NA,6283,static/audio/ready.wav,NA,0,NA,NA,NA,NA,NA,NA,NA,NA,NA,NA,NA,NA,NA,NA,NA,NA,NA,NA,NA,NA,NA,NA,NA,NA,NA
fcp-trial,48,536646,0.0-9.0-0.0,voc_e2,11753,"[{""event"":""fullscreenenter"",""trial"":1,""time"":2883},{""event"":""fullscreenexit"",""trial"":3,""time"":14467},{""event"":""blur"",""trial"":3,""time"":14468},{""event"":""focus"",""trial"":3,""time"":14477},{""event"":""blur"",""trial"":33,""time"":327594},{""event"":""focus"",""trial"":33,""time"":333220}]",NA,NA,NA,NA,NA,1,#FA92F8,#1CD855,0,10,0,40,0,1529,39,0,744,10,1,experiment,NA,NA,0,0.1,0.9,1,0,1,1,NA
fcp-trial,49,539976,0.0-10.0-0.0,voc_e2,11753,"[{""event"":""fullscreenenter"",""trial"":1,""time"":2883},{""event"":""fullscreenexit"",""trial"":3,""time"":14467},{""event"":""blur"",""trial"":3,""time"":14468},{""event"":""focus"",""trial"":3,""time"":14477},{""event"":""blur"",""trial"":33,""time"":327594},{""event"":""focus"",""trial"":33,""time"":333220}]",NA,NA,NA,NA,NA,6,#741CD8,#D8271C,10,10,0,40,0,1051,39,0,771,10,1,experiment,NA,NA,2,0.5,0.5,5,4,2,1,NA
fcp-trial,50,543624,0.0-11.0-0.0,voc_e2,11753,"[{""event"":""fullscreenenter"",""trial"":1,""time"":2883},{""event"":""fullscreenexit"",""trial"":3,""time"":14467},{""event"":""blur"",""trial"":3,""time"":14468},{""event"":""focus"",""trial"":3,""time"":14477},{""event"":""blur"",""trial"":33,""time"":327594},{""event"":""focus"",""trial"":33,""time"":333220}]",NA,NA,NA,NA,NA,0,#D89F1C,#3386FF,10,0,1,40,0,1791.0000000001164,39,0,351.9999999998836,0,0,experiment,NA,NA,1,0.7,0.3,2,3,3,1,NA
fcp-trial,51,547955,0.0-12.0-0.0,voc_e2,11753,"[{""event"":""fullscreenenter"",""trial"":1,""time"":2883},{""event"":""fullscreenexit"",""trial"":3,""time"":14467},{""event"":""blur"",""trial"":3,""time"":14468},{""event"":""focus"",""trial"":3,""time"":14477},{""event"":""blur"",""trial"":33,""time"":327594},{""event"":""focus"",""trial"":33,""time"":333220}]",NA,NA,NA,NA,NA,0,#FA92F8,#1CD855,10,0,0,38,1,1898,37,1,927,10,0,experiment,NA,NA,0,0.1,0.9,1,0,4,1,NA
fcp-trial,52,551937,0.0-13.0-0.0,voc_e2,11753,"[{""event"":""fullscreenenter"",""trial"":1,""time"":2883},{""event"":""fullscreenexit"",""trial"":3,""time"":14467},{""event"":""blur"",""trial"":3,""time"":14468},{""event"":""focus"",""trial"":3,""time"":14477},{""event"":""blur"",""trial"":33,""time"":327594},{""event"":""focus"",""trial"":33,""time"":333220}]",NA,NA,NA,NA,NA,4,#D89F1C,#3386FF,10,0,1,40,0,1427,37,1,1051,10,1,experiment,NA,NA,1,0.7,0.3,2,3,5,1,NA
fcp-trial,53,555786,0.0-14.0-0.0,voc_e2,11753,"[{""event"":""fullscreenenter"",""trial"":1,""time"":2883},{""event"":""fullscreenexit"",""trial"":3,""time"":14467},{""event"":""blur"",""trial"":3,""time"":14468},{""event"":""focus"",""trial"":3,""time"":14477},{""event"":""blur"",""trial"":33,""time"":327594},{""event"":""focus"",""trial"":33,""time"":333220}]",NA,NA,NA,NA,NA,3,#D89F1C,#3386FF,10,0,1,40,0,1778,37,1,568,10,1,experiment,NA,NA,1,0.7,0.3,2,3,6,1,NA
fcp-trial,54,559852,0.0-15.0-0.0,voc_e2,11753,"[{""event"":""fullscreenenter"",""trial"":1,""time"":2883},{""event"":""fullscreenexit"",""trial"":3,""time"":14467},{""event"":""blur"",""trial"":3,""time"":14468},{""event"":""focus"",""trial"":3,""time"":14477},{""event"":""blur"",""trial"":33,""time"":327594},{""event"":""focus"",""trial"":33,""time"":333220}]",NA,NA,NA,NA,NA,5,#D8271C,#741CD8,10,10,1,40,0,1373.0000000001164,37,1,1185,10,1,experiment,NA,NA,2,0.5,0.5,4,5,7,1,NA
fcp-trial,55,563972,0.0-16.0-0.0,voc_e2,11753,"[{""event"":""fullscreenenter"",""trial"":1,""time"":2883},{""event"":""fullscreenexit"",""trial"":3,""time"":14467},{""event"":""blur"",""trial"":3,""time"":14468},{""event"":""focus"",""trial"":3,""time"":14477},{""event"":""blur"",""trial"":33,""time"":327594},{""event"":""focus"",""trial"":33,""time"":333220}]",NA,NA,NA,NA,NA,4,#1CD855,#FA92F8,10,0,1,38,1,2182,39,0,431.9999999998836,0,0,experiment,NA,NA,0,0.9,0.1,0,1,8,1,NA
fcp-trial,56,567265,0.0-17.0-0.0,voc_e2,11753,"[{""event"":""fullscreenenter"",""trial"":1,""time"":2883},{""event"":""fullscreenexit"",""trial"":3,""time"":14467},{""event"":""blur"",""trial"":3,""time"":14468},{""event"":""focus"",""trial"":3,""time"":14477},{""event"":""blur"",""trial"":33,""time"":327594},{""event"":""focus"",""trial"":33,""time"":333220}]",NA,NA,NA,NA,NA,1,#3386FF,#D89F1C,0,0,0,40,0,1226,37,1,559,0,0,experiment,NA,NA,1,0.3,0.7,3,2,9,1,NA
fcp-trial,57,571596,0.0-18.0-0.0,voc_e2,11753,"[{""event"":""fullscreenenter"",""trial"":1,""time"":2883},{""event"":""fullscreenexit"",""trial"":3,""time"":14467},{""event"":""blur"",""trial"":3,""time"":14468},{""event"":""focus"",""trial"":3,""time"":14477},{""event"":""blur"",""trial"":33,""time"":327594},{""event"":""focus"",""trial"":33,""time"":333220}]",NA,NA,NA,NA,NA,2,#1CD855,#FA92F8,10,10,1,38,1,2364.0000000001164,37,1,448.9999999998836,10,1,experiment,NA,NA,0,0.9,0.1,0,1,10,1,NA
fcp-trial,58,575974,0.0-19.0-0.0,voc_e2,11753,"[{""event"":""fullscreenenter"",""trial"":1,""time"":2883},{""event"":""fullscreenexit"",""trial"":3,""time"":14467},{""event"":""blur"",""trial"":3,""time"":14468},{""event"":""focus"",""trial"":3,""time"":14477},{""event"":""blur"",""trial"":33,""time"":327594},{""event"":""focus"",""trial"":33,""time"":333220}]",NA,NA,NA,NA,NA,3,#D8271C,#741CD8,0,0,1,38,1,2426.9999999998836,39,0,435,0,0,experiment,NA,NA,2,0.5,0.5,4,5,11,1,NA
fcp-trial,59,580238,0.0-20.0-0.0,voc_e2,11753,"[{""event"":""fullscreenenter"",""trial"":1,""time"":2883},{""event"":""fullscreenexit"",""trial"":3,""time"":14467},{""event"":""blur"",""trial"":3,""time"":14468},{""event"":""focus"",""trial"":3,""time"":14477},{""event"":""blur"",""trial"":33,""time"":327594},{""event"":""focus"",""trial"":33,""time"":333220}]",NA,NA,NA,NA,NA,4,#D8271C,#741CD8,10,10,1,40,0,1609.0000000001164,37,1,1150.9999999998836,10,1,experiment,NA,NA,2,0.5,0.5,4,5,12,1,NA
fcp-trial,60,584254,0.0-21.0-0.0,voc_e2,11753,"[{""event"":""fullscreenenter"",""trial"":1,""time"":2883},{""event"":""fullscreenexit"",""trial"":3,""time"":14467},{""event"":""blur"",""trial"":3,""time"":14468},{""event"":""focus"",""trial"":3,""time"":14477},{""event"":""blur"",""trial"":33,""time"":327594},{""event"":""focus"",""trial"":33,""time"":333220}]",NA,NA,NA,NA,NA,5,#1CD855,#FA92F8,10,0,1,38,1,2226,37,1,284,10,1,experiment,NA,NA,0,0.9,0.1,0,1,13,1,NA
fcp-trial,61,588495,0.0-22.0-0.0,voc_e2,11753,"[{""event"":""fullscreenenter"",""trial"":1,""time"":2883},{""event"":""fullscreenexit"",""trial"":3,""time"":14467},{""event"":""blur"",""trial"":3,""time"":14468},{""event"":""focus"",""trial"":3,""time"":14477},{""event"":""blur"",""trial"":33,""time"":327594},{""event"":""focus"",""trial"":33,""time"":333220}]",NA,NA,NA,NA,NA,5,#D89F1C,#3386FF,0,0,1,40,0,2148,39,0,587,0,0,experiment,NA,NA,1,0.7,0.3,2,3,14,1,NA
fcp-trial,62,591721,0.0-23.0-0.0,voc_e2,11753,"[{""event"":""fullscreenenter"",""trial"":1,""time"":2883},{""event"":""fullscreenexit"",""trial"":3,""time"":14467},{""event"":""blur"",""trial"":3,""time"":14468},{""event"":""focus"",""trial"":3,""time"":14477},{""event"":""blur"",""trial"":33,""time"":327594},{""event"":""focus"",""trial"":33,""time"":333220}]",NA,NA,NA,NA,NA,6,#3386FF,#D89F1C,0,10,0,38,1,1418.0000000001164,39,0,300,10,1,experiment,NA,NA,1,0.3,0.7,3,2,15,1,NA
fcp-trial,63,595458,0.0-24.0-0.0,voc_e2,11753,"[{""event"":""fullscreenenter"",""trial"":1,""time"":2883},{""event"":""fullscreenexit"",""trial"":3,""time"":14467},{""event"":""blur"",""trial"":3,""time"":14468},{""event"":""focus"",""trial"":3,""time"":14477},{""event"":""blur"",""trial"":33,""time"":327594},{""event"":""focus"",""trial"":33,""time"":333220}]",NA,NA,NA,NA,NA,1,#D8271C,#741CD8,0,10,1,38,1,1913,37,1,319,0,1,experiment,NA,NA,2,0.5,0.5,4,5,16,1,NA
fcp-trial,64,599037,0.0-25.0-0.0,voc_e2,11753,"[{""event"":""fullscreenenter"",""trial"":1,""time"":2883},{""event"":""fullscreenexit"",""trial"":3,""time"":14467},{""event"":""blur"",""trial"":3,""time"":14468},{""event"":""focus"",""trial"":3,""time"":14477},{""event"":""blur"",""trial"":33,""time"":327594},{""event"":""focus"",""trial"":33,""time"":333220}]",NA,NA,NA,NA,NA,3,#FA92F8,#1CD855,0,10,0,38,1,1772.0000000001164,39,0,300.9999999998836,10,1,experiment,NA,NA,0,0.1,0.9,1,0,17,1,NA
fcp-trial,65,603953,0.0-26.0-0.0,voc_e2,11753,"[{""event"":""fullscreenenter"",""trial"":1,""time"":2883},{""event"":""fullscreenexit"",""trial"":3,""time"":14467},{""event"":""blur"",""trial"":3,""time"":14468},{""event"":""focus"",""trial"":3,""time"":14477},{""event"":""blur"",""trial"":33,""time"":327594},{""event"":""focus"",""trial"":33,""time"":333220}]",NA,NA,NA,NA,NA,0,#D8271C,#741CD8,0,0,1,40,0,2678,39,0,732,0,0,experiment,NA,NA,2,0.5,0.5,4,5,18,1,NA
fcp-trial,66,607771,0.0-27.0-0.0,voc_e2,11753,"[{""event"":""fullscreenenter"",""trial"":1,""time"":2883},{""event"":""fullscreenexit"",""trial"":3,""time"":14467},{""event"":""blur"",""trial"":3,""time"":14468},{""event"":""focus"",""trial"":3,""time"":14477},{""event"":""blur"",""trial"":33,""time"":327594},{""event"":""focus"",""trial"":33,""time"":333220}]",NA,NA,NA,NA,NA,2,#741CD8,#D8271C,0,10,0,38,1,1652,39,0,659.9999999998836,10,1,experiment,NA,NA,2,0.5,0.5,5,4,19,1,NA
fcp-trial,67,611206,0.0-28.0-0.0,voc_e2,11753,"[{""event"":""fullscreenenter"",""trial"":1,""time"":2883},{""event"":""fullscreenexit"",""trial"":3,""time"":14467},{""event"":""blur"",""trial"":3,""time"":14468},{""event"":""focus"",""trial"":3,""time"":14477},{""event"":""blur"",""trial"":33,""time"":327594},{""event"":""focus"",""trial"":33,""time"":333220}]",NA,NA,NA,NA,NA,2,#3386FF,#D89F1C,0,0,0,38,1,1680,37,1,250,0,0,experiment,NA,NA,1,0.3,0.7,3,2,20,1,NA
fcp-trial,68,614198,0.0-29.0-0.0,voc_e2,11753,"[{""event"":""fullscreenenter"",""trial"":1,""time"":2883},{""event"":""fullscreenexit"",""trial"":3,""time"":14467},{""event"":""blur"",""trial"":3,""time"":14468},{""event"":""focus"",""trial"":3,""time"":14477},{""event"":""blur"",""trial"":33,""time"":327594},{""event"":""focus"",""trial"":33,""time"":333220}]",NA,NA,NA,NA,NA,6,#1CD855,#FA92F8,10,0,1,38,1,1161,37,1,324,10,1,experiment,NA,NA,0,0.9,0.1,0,1,21,1,NA
fcp-trial,69,617483,0.0-30.0-0.0,voc_e2,11753,"[{""event"":""fullscreenenter"",""trial"":1,""time"":2883},{""event"":""fullscreenexit"",""trial"":3,""time"":14467},{""event"":""blur"",""trial"":3,""time"":14468},{""event"":""focus"",""trial"":3,""time"":14477},{""event"":""blur"",""trial"":33,""time"":327594},{""event"":""focus"",""trial"":33,""time"":333220}]",NA,NA,NA,NA,NA,1,#3386FF,#D89F1C,0,10,0,38,1,1209.9999999998836,39,0,558,10,1,experiment,NA,NA,1,0.3,0.7,3,2,22,1,NA
fcp-trial,70,620296,0.0-31.0-0.0,voc_e2,11753,"[{""event"":""fullscreenenter"",""trial"":1,""time"":2883},{""event"":""fullscreenexit"",""trial"":3,""time"":14467},{""event"":""blur"",""trial"":3,""time"":14468},{""event"":""focus"",""trial"":3,""time"":14477},{""event"":""blur"",""trial"":33,""time"":327594},{""event"":""focus"",""trial"":33,""time"":333220}]",NA,NA,NA,NA,NA,0,#3386FF,#D89F1C,0,0,0,38,1,1008,39,0,289,0,1,experiment,NA,NA,1,0.3,0.7,3,2,23,1,NA
fcp-trial,71,622922,0.0-32.0-0.0,voc_e2,11753,"[{""event"":""fullscreenenter"",""trial"":1,""time"":2883},{""event"":""fullscreenexit"",""trial"":3,""time"":14467},{""event"":""blur"",""trial"":3,""time"":14468},{""event"":""focus"",""trial"":3,""time"":14477},{""event"":""blur"",""trial"":33,""time"":327594},{""event"":""focus"",""trial"":33,""time"":333220}]",NA,NA,NA,NA,NA,4,#1CD855,#FA92F8,0,0,1,38,1,781.0000000001164,37,1,330,0,1,experiment,NA,NA,0,0.9,0.1,0,1,24,1,NA
fcp-trial,72,626055,0.0-33.0-0.0,voc_e2,11753,"[{""event"":""fullscreenenter"",""trial"":1,""time"":2883},{""event"":""fullscreenexit"",""trial"":3,""time"":14467},{""event"":""blur"",""trial"":3,""time"":14468},{""event"":""focus"",""trial"":3,""time"":14477},{""event"":""blur"",""trial"":33,""time"":327594},{""event"":""focus"",""trial"":33,""time"":333220}]",NA,NA,NA,NA,NA,5,#1CD855,#FA92F8,10,0,1,40,0,878,39,0,749,0,0,experiment,NA,NA,0,0.9,0.1,0,1,25,1,NA
fcp-trial,73,629847,0.0-34.0-0.0,voc_e2,11753,"[{""event"":""fullscreenenter"",""trial"":1,""time"":2883},{""event"":""fullscreenexit"",""trial"":3,""time"":14467},{""event"":""blur"",""trial"":3,""time"":14468},{""event"":""focus"",""trial"":3,""time"":14477},{""event"":""blur"",""trial"":33,""time"":327594},{""event"":""focus"",""trial"":33,""time"":333220}]",NA,NA,NA,NA,NA,3,#741CD8,#D8271C,10,0,0,38,1,1928,39,0,359,0,1,experiment,NA,NA,2,0.5,0.5,5,4,26,1,NA
fcp-trial,74,633271,0.0-35.0-0.0,voc_e2,11753,"[{""event"":""fullscreenenter"",""trial"":1,""time"":2883},{""event"":""fullscreenexit"",""trial"":3,""time"":14467},{""event"":""blur"",""trial"":3,""time"":14468},{""event"":""focus"",""trial"":3,""time"":14477},{""event"":""blur"",""trial"":33,""time"":327594},{""event"":""focus"",""trial"":33,""time"":333220}]",NA,NA,NA,NA,NA,2,#741CD8,#D8271C,0,0,0,40,0,1144,39,0,766,0,1,experiment,NA,NA,2,0.5,0.5,5,4,27,1,NA
fcp-trial,75,637320,0.0-36.0-0.0,voc_e2,11753,"[{""event"":""fullscreenenter"",""trial"":1,""time"":2883},{""event"":""fullscreenexit"",""trial"":3,""time"":14467},{""event"":""blur"",""trial"":3,""time"":14468},{""event"":""focus"",""trial"":3,""time"":14477},{""event"":""blur"",""trial"":33,""time"":327594},{""event"":""focus"",""trial"":33,""time"":333220}]",NA,NA,NA,NA,NA,5,#3386FF,#D89F1C,0,10,0,40,0,1912,39,0,631,10,1,experiment,NA,NA,1,0.3,0.7,3,2,28,1,NA
fcp-trial,76,640704,0.0-37.0-0.0,voc_e2,11753,"[{""event"":""fullscreenenter"",""trial"":1,""time"":2883},{""event"":""fullscreenexit"",""trial"":3,""time"":14467},{""event"":""blur"",""trial"":3,""time"":14468},{""event"":""focus"",""trial"":3,""time"":14477},{""event"":""blur"",""trial"":33,""time"":327594},{""event"":""focus"",""trial"":33,""time"":333220}]",NA,NA,NA,NA,NA,1,#D8271C,#741CD8,0,0,1,40,0,1098,37,1,780,0,1,experiment,NA,NA,2,0.5,0.5,4,5,29,1,NA
fcp-trial,77,644304,0.0-38.0-0.0,voc_e2,11753,"[{""event"":""fullscreenenter"",""trial"":1,""time"":2883},{""event"":""fullscreenexit"",""trial"":3,""time"":14467},{""event"":""blur"",""trial"":3,""time"":14468},{""event"":""focus"",""trial"":3,""time"":14477},{""event"":""blur"",""trial"":33,""time"":327594},{""event"":""focus"",""trial"":33,""time"":333220}]",NA,NA,NA,NA,NA,0,#1CD855,#FA92F8,10,0,1,40,0,1019,37,1,1076,10,1,experiment,NA,NA,0,0.9,0.1,0,1,30,1,NA
fcp-trial,78,648505,0.0-39.0-0.0,voc_e2,11753,"[{""event"":""fullscreenenter"",""trial"":1,""time"":2883},{""event"":""fullscreenexit"",""trial"":3,""time"":14467},{""event"":""blur"",""trial"":3,""time"":14468},{""event"":""focus"",""trial"":3,""time"":14477},{""event"":""blur"",""trial"":33,""time"":327594},{""event"":""focus"",""trial"":33,""time"":333220}]",NA,NA,NA,NA,NA,6,#FA92F8,#1CD855,0,10,0,38,1,2379,39,0,316,10,1,experiment,NA,NA,0,0.1,0.9,1,0,31,1,NA
fcp-trial,79,651694,0.0-40.0-0.0,voc_e2,11753,"[{""event"":""fullscreenenter"",""trial"":1,""time"":2883},{""event"":""fullscreenexit"",""trial"":3,""time"":14467},{""event"":""blur"",""trial"":3,""time"":14468},{""event"":""focus"",""trial"":3,""time"":14477},{""event"":""blur"",""trial"":33,""time"":327594},{""event"":""focus"",""trial"":33,""time"":333220}]",NA,NA,NA,NA,NA,6,#D89F1C,#3386FF,0,0,1,38,1,1429,37,1,254,0,1,experiment,NA,NA,1,0.7,0.3,2,3,32,1,NA
fcp-trial,80,655203,0.0-41.0-0.0,voc_e2,11753,"[{""event"":""fullscreenenter"",""trial"":1,""time"":2883},{""event"":""fullscreenexit"",""trial"":3,""time"":14467},{""event"":""blur"",""trial"":3,""time"":14468},{""event"":""focus"",""trial"":3,""time"":14477},{""event"":""blur"",""trial"":33,""time"":327594},{""event"":""focus"",""trial"":33,""time"":333220}]",NA,NA,NA,NA,NA,2,#FA92F8,#1CD855,10,10,0,38,1,1620,37,1,382,10,0,experiment,NA,NA,0,0.1,0.9,1,0,33,1,NA
fcp-trial,81,658676,0.0-42.0-0.0,voc_e2,11753,"[{""event"":""fullscreenenter"",""trial"":1,""time"":2883},{""event"":""fullscreenexit"",""trial"":3,""time"":14467},{""event"":""blur"",""trial"":3,""time"":14468},{""event"":""focus"",""trial"":3,""time"":14477},{""event"":""blur"",""trial"":33,""time"":327594},{""event"":""focus"",""trial"":33,""time"":333220}]",NA,NA,NA,NA,NA,6,#D8271C,#741CD8,0,10,1,38,1,1036,39,0,931,10,0,experiment,NA,NA,2,0.5,0.5,4,5,34,1,NA
fcp-trial,82,661909,0.0-43.0-0.0,voc_e2,11753,"[{""event"":""fullscreenenter"",""trial"":1,""time"":2883},{""event"":""fullscreenexit"",""trial"":3,""time"":14467},{""event"":""blur"",""trial"":3,""time"":14468},{""event"":""focus"",""trial"":3,""time"":14477},{""event"":""blur"",""trial"":33,""time"":327594},{""event"":""focus"",""trial"":33,""time"":333220}]",NA,NA,NA,NA,NA,4,#741CD8,#D8271C,0,10,0,38,1,1019,37,1,704,0,0,experiment,NA,NA,2,0.5,0.5,5,4,35,1,NA
fcp-trial,83,664928,0.0-44.0-0.0,voc_e2,11753,"[{""event"":""fullscreenenter"",""trial"":1,""time"":2883},{""event"":""fullscreenexit"",""trial"":3,""time"":14467},{""event"":""blur"",""trial"":3,""time"":14468},{""event"":""focus"",""trial"":3,""time"":14477},{""event"":""blur"",""trial"":33,""time"":327594},{""event"":""focus"",""trial"":33,""time"":333220}]",NA,NA,NA,NA,NA,2,#3386FF,#D89F1C,0,10,0,38,1,1155,39,0,357,10,1,experiment,NA,NA,1,0.3,0.7,3,2,36,1,NA
fcp-trial,84,667702,0.0-45.0-0.0,voc_e2,11753,"[{""event"":""fullscreenenter"",""trial"":1,""time"":2883},{""event"":""fullscreenexit"",""trial"":3,""time"":14467},{""event"":""blur"",""trial"":3,""time"":14468},{""event"":""focus"",""trial"":3,""time"":14477},{""event"":""blur"",""trial"":33,""time"":327594},{""event"":""focus"",""trial"":33,""time"":333220}]",NA,NA,NA,NA,NA,3,#FA92F8,#1CD855,0,10,0,38,1,818,39,0,449,10,1,experiment,NA,NA,0,0.1,0.9,1,0,37,1,NA
fcp-trial,85,670171,0.0-46.0-0.0,voc_e2,11753,"[{""event"":""fullscreenenter"",""trial"":1,""time"":2883},{""event"":""fullscreenexit"",""trial"":3,""time"":14467},{""event"":""blur"",""trial"":3,""time"":14468},{""event"":""focus"",""trial"":3,""time"":14477},{""event"":""blur"",""trial"":33,""time"":327594},{""event"":""focus"",""trial"":33,""time"":333220}]",NA,NA,NA,NA,NA,5,#D8271C,#741CD8,0,10,1,38,1,630,39,0,333,10,0,experiment,NA,NA,2,0.5,0.5,4,5,38,1,NA
fcp-trial,86,672765,0.0-47.0-0.0,voc_e2,11753,"[{""event"":""fullscreenenter"",""trial"":1,""time"":2883},{""event"":""fullscreenexit"",""trial"":3,""time"":14467},{""event"":""blur"",""trial"":3,""time"":14468},{""event"":""focus"",""trial"":3,""time"":14477},{""event"":""blur"",""trial"":33,""time"":327594},{""event"":""focus"",""trial"":33,""time"":333220}]",NA,NA,NA,NA,NA,3,#D89F1C,#3386FF,10,0,1,38,1,638,37,1,449,10,1,experiment,NA,NA,1,0.7,0.3,2,3,39,1,NA
fcp-trial,87,675388,0.0-48.0-0.0,voc_e2,11753,"[{""event"":""fullscreenenter"",""trial"":1,""time"":2883},{""event"":""fullscreenexit"",""trial"":3,""time"":14467},{""event"":""blur"",""trial"":3,""time"":14468},{""event"":""focus"",""trial"":3,""time"":14477},{""event"":""blur"",""trial"":33,""time"":327594},{""event"":""focus"",""trial"":33,""time"":333220}]",NA,NA,NA,NA,NA,0,#741CD8,#D8271C,10,10,0,38,1,384,39,0,724.0000000001164,10,1,experiment,NA,NA,2,0.5,0.5,5,4,40,1,NA
fcp-trial,88,677953,0.0-49.0-0.0,voc_e2,11753,"[{""event"":""fullscreenenter"",""trial"":1,""time"":2883},{""event"":""fullscreenexit"",""trial"":3,""time"":14467},{""event"":""blur"",""trial"":3,""time"":14468},{""event"":""focus"",""trial"":3,""time"":14477},{""event"":""blur"",""trial"":33,""time"":327594},{""event"":""focus"",""trial"":33,""time"":333220}]",NA,NA,NA,NA,NA,1,#FA92F8,#1CD855,0,10,0,38,1,580,39,0,480,10,1,experiment,NA,NA,0,0.1,0.9,1,0,41,1,NA
fcp-trial,89,680771,0.0-50.0-0.0,voc_e2,11753,"[{""event"":""fullscreenenter"",""trial"":1,""time"":2883},{""event"":""fullscreenexit"",""trial"":3,""time"":14467},{""event"":""blur"",""trial"":3,""time"":14468},{""event"":""focus"",""trial"":3,""time"":14477},{""event"":""blur"",""trial"":33,""time"":327594},{""event"":""focus"",""trial"":33,""time"":333220}]",NA,NA,NA,NA,NA,4,#D89F1C,#3386FF,10,10,1,38,1,831,37,1,482,10,1,experiment,NA,NA,1,0.7,0.3,2,3,42,1,NA
fcp-trial,90,683247,0.0-51.0-0.0,voc_e2,11753,"[{""event"":""fullscreenenter"",""trial"":1,""time"":2883},{""event"":""fullscreenexit"",""trial"":3,""time"":14467},{""event"":""blur"",""trial"":3,""time"":14468},{""event"":""focus"",""trial"":3,""time"":14477},{""event"":""blur"",""trial"":33,""time"":327594},{""event"":""focus"",""trial"":33,""time"":333220}]",NA,NA,NA,NA,NA,2,#3386FF,#D89F1C,0,10,0,38,1,428,39,0,540,10,1,experiment,NA,NA,1,0.3,0.7,3,2,43,1,NA
fcp-trial,91,685786,0.0-52.0-0.0,voc_e2,11753,"[{""event"":""fullscreenenter"",""trial"":1,""time"":2883},{""event"":""fullscreenexit"",""trial"":3,""time"":14467},{""event"":""blur"",""trial"":3,""time"":14468},{""event"":""focus"",""trial"":3,""time"":14477},{""event"":""blur"",""trial"":33,""time"":327594},{""event"":""focus"",""trial"":33,""time"":333220}]",NA,NA,NA,NA,NA,1,#3386FF,#D89F1C,0,0,0,38,1,733,39,0,291.0000000001164,0,1,experiment,NA,NA,1,0.3,0.7,3,2,44,1,NA
fcp-trial,92,688454,0.0-53.0-0.0,voc_e2,11753,"[{""event"":""fullscreenenter"",""trial"":1,""time"":2883},{""event"":""fullscreenexit"",""trial"":3,""time"":14467},{""event"":""blur"",""trial"":3,""time"":14468},{""event"":""focus"",""trial"":3,""time"":14477},{""event"":""blur"",""trial"":33,""time"":327594},{""event"":""focus"",""trial"":33,""time"":333220}]",NA,NA,NA,NA,NA,5,#1CD855,#FA92F8,10,0,1,38,1,516.9999999998836,37,1,644,10,1,experiment,NA,NA,0,0.9,0.1,0,1,45,1,NA
fcp-trial,93,691072,0.0-54.0-0.0,voc_e2,11753,"[{""event"":""fullscreenenter"",""trial"":1,""time"":2883},{""event"":""fullscreenexit"",""trial"":3,""time"":14467},{""event"":""blur"",""trial"":3,""time"":14468},{""event"":""focus"",""trial"":3,""time"":14477},{""event"":""blur"",""trial"":33,""time"":327594},{""event"":""focus"",""trial"":33,""time"":333220}]",NA,NA,NA,NA,NA,2,#1CD855,#FA92F8,0,0,1,38,1,479,37,1,634,0,1,experiment,NA,NA,0,0.9,0.1,0,1,46,2,NA
fcp-trial,94,693653,0.0-55.0-0.0,voc_e2,11753,"[{""event"":""fullscreenenter"",""trial"":1,""time"":2883},{""event"":""fullscreenexit"",""trial"":3,""time"":14467},{""event"":""blur"",""trial"":3,""time"":14468},{""event"":""focus"",""trial"":3,""time"":14477},{""event"":""blur"",""trial"":33,""time"":327594},{""event"":""focus"",""trial"":33,""time"":333220}]",NA,NA,NA,NA,NA,4,#FA92F8,#1CD855,0,10,0,38,1,528,37,1,547,0,0,experiment,NA,NA,0,0.1,0.9,1,0,47,2,NA
fcp-trial,95,696855,0.0-56.0-0.0,voc_e2,11753,"[{""event"":""fullscreenenter"",""trial"":1,""time"":2883},{""event"":""fullscreenexit"",""trial"":3,""time"":14467},{""event"":""blur"",""trial"":3,""time"":14468},{""event"":""focus"",""trial"":3,""time"":14477},{""event"":""blur"",""trial"":33,""time"":327594},{""event"":""focus"",""trial"":33,""time"":333220}]",NA,NA,NA,NA,NA,6,#D8271C,#741CD8,0,0,1,40,0,752,37,1,944,0,1,experiment,NA,NA,2,0.5,0.5,4,5,48,2,NA
fcp-trial,96,700340,0.0-57.0-0.0,voc_e2,11753,"[{""event"":""fullscreenenter"",""trial"":1,""time"":2883},{""event"":""fullscreenexit"",""trial"":3,""time"":14467},{""event"":""blur"",""trial"":3,""time"":14468},{""event"":""focus"",""trial"":3,""time"":14477},{""event"":""blur"",""trial"":33,""time"":327594},{""event"":""focus"",""trial"":33,""time"":333220}]",NA,NA,NA,NA,NA,6,#D89F1C,#3386FF,0,0,1,38,1,1670,37,1,308,0,1,experiment,NA,NA,1,0.7,0.3,2,3,49,2,NA
fcp-trial,97,703749,0.0-58.0-0.0,voc_e2,11753,"[{""event"":""fullscreenenter"",""trial"":1,""time"":2883},{""event"":""fullscreenexit"",""trial"":3,""time"":14467},{""event"":""blur"",""trial"":3,""time"":14468},{""event"":""focus"",""trial"":3,""time"":14477},{""event"":""blur"",""trial"":33,""time"":327594},{""event"":""focus"",""trial"":33,""time"":333220}]",NA,NA,NA,NA,NA,4,#3386FF,#D89F1C,10,0,0,40,0,991,37,1,911,10,0,experiment,NA,NA,1,0.3,0.7,3,2,50,2,NA
fcp-trial,98,706676,0.0-59.0-0.0,voc_e2,11753,"[{""event"":""fullscreenenter"",""trial"":1,""time"":2883},{""event"":""fullscreenexit"",""trial"":3,""time"":14467},{""event"":""blur"",""trial"":3,""time"":14468},{""event"":""focus"",""trial"":3,""time"":14477},{""event"":""blur"",""trial"":33,""time"":327594},{""event"":""focus"",""trial"":33,""time"":333220}]",NA,NA,NA,NA,NA,3,#D89F1C,#3386FF,0,0,1,38,1,1096,39,0,315,0,0,experiment,NA,NA,1,0.7,0.3,2,3,51,2,NA
fcp-trial,99,710470,0.0-60.0-0.0,voc_e2,11753,"[{""event"":""fullscreenenter"",""trial"":1,""time"":2883},{""event"":""fullscreenexit"",""trial"":3,""time"":14467},{""event"":""blur"",""trial"":3,""time"":14468},{""event"":""focus"",""trial"":3,""time"":14477},{""event"":""blur"",""trial"":33,""time"":327594},{""event"":""focus"",""trial"":33,""time"":333220}]",NA,NA,NA,NA,NA,1,#FA92F8,#1CD855,0,10,0,40,0,1739.9999999998836,37,1,549,0,0,experiment,NA,NA,0,0.1,0.9,1,0,52,2,NA
fcp-trial,100,713857,0.0-61.0-0.0,voc_e2,11753,"[{""event"":""fullscreenenter"",""trial"":1,""time"":2883},{""event"":""fullscreenexit"",""trial"":3,""time"":14467},{""event"":""blur"",""trial"":3,""time"":14468},{""event"":""focus"",""trial"":3,""time"":14477},{""event"":""blur"",""trial"":33,""time"":327594},{""event"":""focus"",""trial"":33,""time"":333220}]",NA,NA,NA,NA,NA,0,#D8271C,#741CD8,0,0,1,38,1,1369,37,1,510,0,1,experiment,NA,NA,2,0.5,0.5,4,5,53,2,NA
fcp-trial,101,716589,0.0-62.0-0.0,voc_e2,11753,"[{""event"":""fullscreenenter"",""trial"":1,""time"":2883},{""event"":""fullscreenexit"",""trial"":3,""time"":14467},{""event"":""blur"",""trial"":3,""time"":14468},{""event"":""focus"",""trial"":3,""time"":14477},{""event"":""blur"",""trial"":33,""time"":327594},{""event"":""focus"",""trial"":33,""time"":333220}]",NA,NA,NA,NA,NA,3,#D8271C,#741CD8,0,10,1,40,0,774,39,0,452,10,0,experiment,NA,NA,2,0.5,0.5,4,5,54,2,NA
fcp-trial,102,719680,0.0-63.0-0.0,voc_e2,11753,"[{""event"":""fullscreenenter"",""trial"":1,""time"":2883},{""event"":""fullscreenexit"",""trial"":3,""time"":14467},{""event"":""blur"",""trial"":3,""time"":14468},{""event"":""focus"",""trial"":3,""time"":14477},{""event"":""blur"",""trial"":33,""time"":327594},{""event"":""focus"",""trial"":33,""time"":333220}]",NA,NA,NA,NA,NA,6,#FA92F8,#1CD855,0,10,0,40,0,1172,37,1,413,0,0,experiment,NA,NA,0,0.1,0.9,1,0,55,2,NA
fcp-trial,103,722288,0.0-64.0-0.0,voc_e2,11753,"[{""event"":""fullscreenenter"",""trial"":1,""time"":2883},{""event"":""fullscreenexit"",""trial"":3,""time"":14467},{""event"":""blur"",""trial"":3,""time"":14468},{""event"":""focus"",""trial"":3,""time"":14477},{""event"":""blur"",""trial"":33,""time"":327594},{""event"":""focus"",""trial"":33,""time"":333220}]",NA,NA,NA,NA,NA,5,#D89F1C,#3386FF,10,0,1,40,0,585.9999999998836,37,1,516,10,1,experiment,NA,NA,1,0.7,0.3,2,3,56,2,NA
fcp-trial,104,726269,0.0-65.0-0.0,voc_e2,11753,"[{""event"":""fullscreenenter"",""trial"":1,""time"":2883},{""event"":""fullscreenexit"",""trial"":3,""time"":14467},{""event"":""blur"",""trial"":3,""time"":14468},{""event"":""focus"",""trial"":3,""time"":14477},{""event"":""blur"",""trial"":33,""time"":327594},{""event"":""focus"",""trial"":33,""time"":333220}]",NA,NA,NA,NA,NA,2,#741CD8,#D8271C,0,10,0,40,0,1647.0000000001164,37,1,828,0,0,experiment,NA,NA,2,0.5,0.5,5,4,57,2,NA
fcp-trial,105,729569,0.0-66.0-0.0,voc_e2,11753,"[{""event"":""fullscreenenter"",""trial"":1,""time"":2883},{""event"":""fullscreenexit"",""trial"":3,""time"":14467},{""event"":""blur"",""trial"":3,""time"":14468},{""event"":""focus"",""trial"":3,""time"":14477},{""event"":""blur"",""trial"":33,""time"":327594},{""event"":""focus"",""trial"":33,""time"":333220}]",NA,NA,NA,NA,NA,0,#1CD855,#FA92F8,10,0,1,40,0,829,39,0,964,0,0,experiment,NA,NA,0,0.9,0.1,0,1,58,2,NA
fcp-trial,106,733420,0.0-67.0-0.0,voc_e2,11753,"[{""event"":""fullscreenenter"",""trial"":1,""time"":2883},{""event"":""fullscreenexit"",""trial"":3,""time"":14467},{""event"":""blur"",""trial"":3,""time"":14468},{""event"":""focus"",""trial"":3,""time"":14477},{""event"":""blur"",""trial"":33,""time"":327594},{""event"":""focus"",""trial"":33,""time"":333220}]",NA,NA,NA,NA,NA,0,#3386FF,#D89F1C,0,10,0,38,1,2063.0000000001164,39,0,282.9999999998836,10,1,experiment,NA,NA,1,0.3,0.7,3,2,59,2,NA
fcp-trial,107,736114,0.0-68.0-0.0,voc_e2,11753,"[{""event"":""fullscreenenter"",""trial"":1,""time"":2883},{""event"":""fullscreenexit"",""trial"":3,""time"":14467},{""event"":""blur"",""trial"":3,""time"":14468},{""event"":""focus"",""trial"":3,""time"":14477},{""event"":""blur"",""trial"":33,""time"":327594},{""event"":""focus"",""trial"":33,""time"":333220}]",NA,NA,NA,NA,NA,4,#D8271C,#741CD8,10,10,1,38,1,912,37,1,277,10,1,experiment,NA,NA,2,0.5,0.5,4,5,60,2,NA
fcp-trial,108,738904,0.0-69.0-0.0,voc_e2,11753,"[{""event"":""fullscreenenter"",""trial"":1,""time"":2883},{""event"":""fullscreenexit"",""trial"":3,""time"":14467},{""event"":""blur"",""trial"":3,""time"":14468},{""event"":""focus"",""trial"":3,""time"":14477},{""event"":""blur"",""trial"":33,""time"":327594},{""event"":""focus"",""trial"":33,""time"":333220}]",NA,NA,NA,NA,NA,5,#D8271C,#741CD8,0,10,1,38,1,620,37,1,664,0,1,experiment,NA,NA,2,0.5,0.5,4,5,61,2,NA
fcp-trial,109,741431,0.0-70.0-0.0,voc_e2,11753,"[{""event"":""fullscreenenter"",""trial"":1,""time"":2883},{""event"":""fullscreenexit"",""trial"":3,""time"":14467},{""event"":""blur"",""trial"":3,""time"":14468},{""event"":""focus"",""trial"":3,""time"":14477},{""event"":""blur"",""trial"":33,""time"":327594},{""event"":""focus"",""trial"":33,""time"":333220}]",NA,NA,NA,NA,NA,1,#741CD8,#D8271C,0,0,0,38,1,534,39,0,487,0,1,experiment,NA,NA,2,0.5,0.5,5,4,62,2,NA
fcp-trial,110,744049,0.0-71.0-0.0,voc_e2,11753,"[{""event"":""fullscreenenter"",""trial"":1,""time"":2883},{""event"":""fullscreenexit"",""trial"":3,""time"":14467},{""event"":""blur"",""trial"":3,""time"":14468},{""event"":""focus"",""trial"":3,""time"":14477},{""event"":""blur"",""trial"":33,""time"":327594},{""event"":""focus"",""trial"":33,""time"":333220}]",NA,NA,NA,NA,NA,3,#FA92F8,#1CD855,0,10,0,38,1,564,37,1,535,0,0,experiment,NA,NA,0,0.1,0.9,1,0,63,2,NA
fcp-trial,111,746571,0.0-72.0-0.0,voc_e2,11753,"[{""event"":""fullscreenenter"",""trial"":1,""time"":2883},{""event"":""fullscreenexit"",""trial"":3,""time"":14467},{""event"":""blur"",""trial"":3,""time"":14468},{""event"":""focus"",""trial"":3,""time"":14477},{""event"":""blur"",""trial"":33,""time"":327594},{""event"":""focus"",""trial"":33,""time"":333220}]",NA,NA,NA,NA,NA,1,#3386FF,#D89F1C,0,10,0,38,1,510,39,0,496,10,1,experiment,NA,NA,1,0.3,0.7,3,2,64,2,NA
fcp-trial,112,749436,0.0-73.0-0.0,voc_e2,11753,"[{""event"":""fullscreenenter"",""trial"":1,""time"":2883},{""event"":""fullscreenexit"",""trial"":3,""time"":14467},{""event"":""blur"",""trial"":3,""time"":14468},{""event"":""focus"",""trial"":3,""time"":14477},{""event"":""blur"",""trial"":33,""time"":327594},{""event"":""focus"",""trial"":33,""time"":333220}]",NA,NA,NA,NA,NA,5,#741CD8,#D8271C,0,10,0,38,1,562,37,1,799,0,0,experiment,NA,NA,2,0.5,0.5,5,4,65,2,NA
fcp-trial,113,751808,0.0-74.0-0.0,voc_e2,11753,"[{""event"":""fullscreenenter"",""trial"":1,""time"":2883},{""event"":""fullscreenexit"",""trial"":3,""time"":14467},{""event"":""blur"",""trial"":3,""time"":14468},{""event"":""focus"",""trial"":3,""time"":14477},{""event"":""blur"",""trial"":33,""time"":327594},{""event"":""focus"",""trial"":33,""time"":333220}]",NA,NA,NA,NA,NA,6,#FA92F8,#1CD855,0,10,0,38,1,419,39,0,445,10,1,experiment,NA,NA,0,0.1,0.9,1,0,66,2,NA
fcp-trial,114,754838,0.0-75.0-0.0,voc_e2,11753,"[{""event"":""fullscreenenter"",""trial"":1,""time"":2883},{""event"":""fullscreenexit"",""trial"":3,""time"":14467},{""event"":""blur"",""trial"":3,""time"":14468},{""event"":""focus"",""trial"":3,""time"":14477},{""event"":""blur"",""trial"":33,""time"":327594},{""event"":""focus"",""trial"":33,""time"":333220}]",NA,NA,NA,NA,NA,0,#741CD8,#D8271C,0,10,0,38,1,875,39,0,648.0000000001164,10,1,experiment,NA,NA,2,0.5,0.5,5,4,67,2,NA
fcp-trial,115,757222,0.0-76.0-0.0,voc_e2,11753,"[{""event"":""fullscreenenter"",""trial"":1,""time"":2883},{""event"":""fullscreenexit"",""trial"":3,""time"":14467},{""event"":""blur"",""trial"":3,""time"":14468},{""event"":""focus"",""trial"":3,""time"":14477},{""event"":""blur"",""trial"":33,""time"":327594},{""event"":""focus"",""trial"":33,""time"":333220}]",NA,NA,NA,NA,NA,5,#3386FF,#D89F1C,10,10,0,38,1,529,39,0,350,10,1,experiment,NA,NA,1,0.3,0.7,3,2,68,2,NA
fcp-trial,116,759738,0.0-77.0-0.0,voc_e2,11753,"[{""event"":""fullscreenenter"",""trial"":1,""time"":2883},{""event"":""fullscreenexit"",""trial"":3,""time"":14467},{""event"":""blur"",""trial"":3,""time"":14468},{""event"":""focus"",""trial"":3,""time"":14477},{""event"":""blur"",""trial"":33,""time"":327594},{""event"":""focus"",""trial"":33,""time"":333220}]",NA,NA,NA,NA,NA,4,#D89F1C,#3386FF,10,0,1,38,1,642.9999999998836,37,1,367,10,1,experiment,NA,NA,1,0.7,0.3,2,3,69,2,NA
fcp-trial,117,762055,0.0-78.0-0.0,voc_e2,11753,"[{""event"":""fullscreenenter"",""trial"":1,""time"":2883},{""event"":""fullscreenexit"",""trial"":3,""time"":14467},{""event"":""blur"",""trial"":3,""time"":14468},{""event"":""focus"",""trial"":3,""time"":14477},{""event"":""blur"",""trial"":33,""time"":327594},{""event"":""focus"",""trial"":33,""time"":333220}]",NA,NA,NA,NA,NA,5,#1CD855,#FA92F8,10,0,1,38,1,512,39,0,298.9999999998836,0,0,experiment,NA,NA,0,0.9,0.1,0,1,70,2,NA
fcp-trial,118,764503,0.0-79.0-0.0,voc_e2,11753,"[{""event"":""fullscreenenter"",""trial"":1,""time"":2883},{""event"":""fullscreenexit"",""trial"":3,""time"":14467},{""event"":""blur"",""trial"":3,""time"":14468},{""event"":""focus"",""trial"":3,""time"":14477},{""event"":""blur"",""trial"":33,""time"":327594},{""event"":""focus"",""trial"":33,""time"":333220}]",NA,NA,NA,NA,NA,3,#D8271C,#741CD8,0,0,1,38,1,680,37,1,263,0,1,experiment,NA,NA,2,0.5,0.5,4,5,71,2,NA
fcp-trial,119,766919,0.0-80.0-0.0,voc_e2,11753,"[{""event"":""fullscreenenter"",""trial"":1,""time"":2883},{""event"":""fullscreenexit"",""trial"":3,""time"":14467},{""event"":""blur"",""trial"":3,""time"":14468},{""event"":""focus"",""trial"":3,""time"":14477},{""event"":""blur"",""trial"":33,""time"":327594},{""event"":""focus"",""trial"":33,""time"":333220}]",NA,NA,NA,NA,NA,2,#1CD855,#FA92F8,10,0,1,38,1,360,39,0,551,0,0,experiment,NA,NA,0,0.9,0.1,0,1,72,2,NA
fcp-trial,120,769226,0.0-81.0-0.0,voc_e2,11753,"[{""event"":""fullscreenenter"",""trial"":1,""time"":2883},{""event"":""fullscreenexit"",""trial"":3,""time"":14467},{""event"":""blur"",""trial"":3,""time"":14468},{""event"":""focus"",""trial"":3,""time"":14477},{""event"":""blur"",""trial"":33,""time"":327594},{""event"":""focus"",""trial"":33,""time"":333220}]",NA,NA,NA,NA,NA,0,#3386FF,#D89F1C,0,10,0,38,1,413,39,0,387,10,1,experiment,NA,NA,1,0.3,0.7,3,2,73,2,NA
fcp-trial,121,772536,0.0-82.0-0.0,voc_e2,11753,"[{""event"":""fullscreenenter"",""trial"":1,""time"":2883},{""event"":""fullscreenexit"",""trial"":3,""time"":14467},{""event"":""blur"",""trial"":3,""time"":14468},{""event"":""focus"",""trial"":3,""time"":14477},{""event"":""blur"",""trial"":33,""time"":327594},{""event"":""focus"",""trial"":33,""time"":333220}]",NA,NA,NA,NA,NA,3,#FA92F8,#1CD855,0,10,0,38,1,1472.9999999998836,37,1,332,0,0,experiment,NA,NA,0,0.1,0.9,1,0,74,2,NA
fcp-trial,122,776453,0.0-83.0-0.0,voc_e2,11753,"[{""event"":""fullscreenenter"",""trial"":1,""time"":2883},{""event"":""fullscreenexit"",""trial"":3,""time"":14467},{""event"":""blur"",""trial"":3,""time"":14468},{""event"":""focus"",""trial"":3,""time"":14477},{""event"":""blur"",""trial"":33,""time"":327594},{""event"":""focus"",""trial"":33,""time"":333220}]",NA,NA,NA,NA,NA,6,#3386FF,#D89F1C,0,10,0,40,0,1679,37,1,731.0000000001164,0,0,experiment,NA,NA,1,0.3,0.7,3,2,75,2,NA
fcp-trial,123,780273,0.0-84.0-0.0,voc_e2,11753,"[{""event"":""fullscreenenter"",""trial"":1,""time"":2883},{""event"":""fullscreenexit"",""trial"":3,""time"":14467},{""event"":""blur"",""trial"":3,""time"":14468},{""event"":""focus"",""trial"":3,""time"":14477},{""event"":""blur"",""trial"":33,""time"":327594},{""event"":""focus"",""trial"":33,""time"":333220}]",NA,NA,NA,NA,NA,6,#D8271C,#741CD8,10,0,1,40,0,1781.9999999998836,39,0,532,0,0,experiment,NA,NA,2,0.5,0.5,4,5,76,2,NA
fcp-trial,124,784738,0.0-85.0-0.0,voc_e2,11753,"[{""event"":""fullscreenenter"",""trial"":1,""time"":2883},{""event"":""fullscreenexit"",""trial"":3,""time"":14467},{""event"":""blur"",""trial"":3,""time"":14468},{""event"":""focus"",""trial"":3,""time"":14477},{""event"":""blur"",""trial"":33,""time"":327594},{""event"":""focus"",""trial"":33,""time"":333220}]",NA,NA,NA,NA,NA,0,#1CD855,#FA92F8,10,0,1,38,1,2579,39,0,378,0,0,experiment,NA,NA,0,0.9,0.1,0,1,77,2,NA
fcp-trial,125,787639,0.0-86.0-0.0,voc_e2,11753,"[{""event"":""fullscreenenter"",""trial"":1,""time"":2883},{""event"":""fullscreenexit"",""trial"":3,""time"":14467},{""event"":""blur"",""trial"":3,""time"":14468},{""event"":""focus"",""trial"":3,""time"":14477},{""event"":""blur"",""trial"":33,""time"":327594},{""event"":""focus"",""trial"":33,""time"":333220}]",NA,NA,NA,NA,NA,3,#3386FF,#D89F1C,10,10,0,38,1,882,39,0,514,10,1,experiment,NA,NA,1,0.3,0.7,3,2,78,2,NA
fcp-trial,126,790554,0.0-87.0-0.0,voc_e2,11753,"[{""event"":""fullscreenenter"",""trial"":1,""time"":2883},{""event"":""fullscreenexit"",""trial"":3,""time"":14467},{""event"":""blur"",""trial"":3,""time"":14468},{""event"":""focus"",""trial"":3,""time"":14477},{""event"":""blur"",""trial"":33,""time"":327594},{""event"":""focus"",""trial"":33,""time"":333220}]",NA,NA,NA,NA,NA,2,#D8271C,#741CD8,10,0,1,38,1,1010.0000000001164,37,1,399,10,1,experiment,NA,NA,2,0.5,0.5,4,5,79,2,NA
fcp-trial,127,794103,0.0-88.0-0.0,voc_e2,11753,"[{""event"":""fullscreenenter"",""trial"":1,""time"":2883},{""event"":""fullscreenexit"",""trial"":3,""time"":14467},{""event"":""blur"",""trial"":3,""time"":14468},{""event"":""focus"",""trial"":3,""time"":14477},{""event"":""blur"",""trial"":33,""time"":327594},{""event"":""focus"",""trial"":33,""time"":333220}]",NA,NA,NA,NA,NA,1,#FA92F8,#1CD855,0,10,0,38,1,1629.0000000001164,37,1,414,0,0,experiment,NA,NA,0,0.1,0.9,1,0,80,2,NA
fcp-trial,128,798409,0.0-89.0-0.0,voc_e2,11753,"[{""event"":""fullscreenenter"",""trial"":1,""time"":2883},{""event"":""fullscreenexit"",""trial"":3,""time"":14467},{""event"":""blur"",""trial"":3,""time"":14468},{""event"":""focus"",""trial"":3,""time"":14477},{""event"":""blur"",""trial"":33,""time"":327594},{""event"":""focus"",""trial"":33,""time"":333220}]",NA,NA,NA,NA,NA,2,#D89F1C,#3386FF,10,0,1,38,1,1944.0000000001164,37,1,854.9999999998836,10,1,experiment,NA,NA,1,0.7,0.3,2,3,81,2,NA
fcp-trial,129,801411,0.0-90.0-0.0,voc_e2,11753,"[{""event"":""fullscreenenter"",""trial"":1,""time"":2883},{""event"":""fullscreenexit"",""trial"":3,""time"":14467},{""event"":""blur"",""trial"":3,""time"":14468},{""event"":""focus"",""trial"":3,""time"":14477},{""event"":""blur"",""trial"":33,""time"":327594},{""event"":""focus"",""trial"":33,""time"":333220}]",NA,NA,NA,NA,NA,1,#D8271C,#741CD8,0,10,1,38,1,1166.9999999998836,39,0,327.9999999998836,10,0,experiment,NA,NA,2,0.5,0.5,4,5,82,2,NA
fcp-trial,130,803877,0.0-91.0-0.0,voc_e2,11753,"[{""event"":""fullscreenenter"",""trial"":1,""time"":2883},{""event"":""fullscreenexit"",""trial"":3,""time"":14467},{""event"":""blur"",""trial"":3,""time"":14468},{""event"":""focus"",""trial"":3,""time"":14477},{""event"":""blur"",""trial"":33,""time"":327594},{""event"":""focus"",""trial"":33,""time"":333220}]",NA,NA,NA,NA,NA,4,#741CD8,#D8271C,0,0,0,38,1,542,37,1,418,0,0,experiment,NA,NA,2,0.5,0.5,5,4,83,2,NA
fcp-trial,131,806156,0.0-92.0-0.0,voc_e2,11753,"[{""event"":""fullscreenenter"",""trial"":1,""time"":2883},{""event"":""fullscreenexit"",""trial"":3,""time"":14467},{""event"":""blur"",""trial"":3,""time"":14468},{""event"":""focus"",""trial"":3,""time"":14477},{""event"":""blur"",""trial"":33,""time"":327594},{""event"":""focus"",""trial"":33,""time"":333220}]",NA,NA,NA,NA,NA,4,#FA92F8,#1CD855,0,10,0,38,1,522.0000000001164,39,0,251,10,1,experiment,NA,NA,0,0.1,0.9,1,0,84,2,NA
fcp-trial,132,809088,0.0-93.0-0.0,voc_e2,11753,"[{""event"":""fullscreenenter"",""trial"":1,""time"":2883},{""event"":""fullscreenexit"",""trial"":3,""time"":14467},{""event"":""blur"",""trial"":3,""time"":14468},{""event"":""focus"",""trial"":3,""time"":14477},{""event"":""blur"",""trial"":33,""time"":327594},{""event"":""focus"",""trial"":33,""time"":333220}]",NA,NA,NA,NA,NA,3,#3386FF,#D89F1C,0,10,0,38,1,1009,37,1,418,0,0,experiment,NA,NA,1,0.3,0.7,3,2,85,2,NA
fcp-trial,133,811755,0.0-94.0-0.0,voc_e2,11753,"[{""event"":""fullscreenenter"",""trial"":1,""time"":2883},{""event"":""fullscreenexit"",""trial"":3,""time"":14467},{""event"":""blur"",""trial"":3,""time"":14468},{""event"":""focus"",""trial"":3,""time"":14477},{""event"":""blur"",""trial"":33,""time"":327594},{""event"":""focus"",""trial"":33,""time"":333220}]",NA,NA,NA,NA,NA,5,#741CD8,#D8271C,0,10,0,40,0,651,39,0,511,10,1,experiment,NA,NA,2,0.5,0.5,5,4,86,2,NA
fcp-trial,134,815330,0.0-95.0-0.0,voc_e2,11753,"[{""event"":""fullscreenenter"",""trial"":1,""time"":2883},{""event"":""fullscreenexit"",""trial"":3,""time"":14467},{""event"":""blur"",""trial"":3,""time"":14468},{""event"":""focus"",""trial"":3,""time"":14477},{""event"":""blur"",""trial"":33,""time"":327594},{""event"":""focus"",""trial"":33,""time"":333220}]",NA,NA,NA,NA,NA,0,#1CD855,#FA92F8,10,10,1,38,1,1543.9999999998836,39,0,525,10,0,experiment,NA,NA,0,0.9,0.1,0,1,87,2,NA
fcp-trial,135,819139,0.0-96.0-0.0,voc_e2,11753,"[{""event"":""fullscreenenter"",""trial"":1,""time"":2883},{""event"":""fullscreenexit"",""trial"":3,""time"":14467},{""event"":""blur"",""trial"":3,""time"":14468},{""event"":""focus"",""trial"":3,""time"":14477},{""event"":""blur"",""trial"":33,""time"":327594},{""event"":""focus"",""trial"":33,""time"":333220}]",NA,NA,NA,NA,NA,5,#D89F1C,#3386FF,10,0,1,38,1,2019,39,0,284,0,0,experiment,NA,NA,1,0.7,0.3,2,3,88,2,NA
fcp-trial,136,821986,0.0-97.0-0.0,voc_e2,11753,"[{""event"":""fullscreenenter"",""trial"":1,""time"":2883},{""event"":""fullscreenexit"",""trial"":3,""time"":14467},{""event"":""blur"",""trial"":3,""time"":14468},{""event"":""focus"",""trial"":3,""time"":14477},{""event"":""blur"",""trial"":33,""time"":327594},{""event"":""focus"",""trial"":33,""time"":333220}]",NA,NA,NA,NA,NA,3,#D8271C,#741CD8,0,0,1,40,0,644,37,1,697.9999999998836,0,1,experiment,NA,NA,2,0.5,0.5,4,5,89,2,NA
fcp-trial,137,825369,0.0-98.0-0.0,voc_e2,11753,"[{""event"":""fullscreenenter"",""trial"":1,""time"":2883},{""event"":""fullscreenexit"",""trial"":3,""time"":14467},{""event"":""blur"",""trial"":3,""time"":14468},{""event"":""focus"",""trial"":3,""time"":14477},{""event"":""blur"",""trial"":33,""time"":327594},{""event"":""focus"",""trial"":33,""time"":333220}]",NA,NA,NA,NA,NA,2,#D8271C,#741CD8,0,0,1,38,1,1612.9999999998836,39,0,264,0,0,experiment,NA,NA,2,0.5,0.5,4,5,90,2,NA
fcp-trial,138,828922,0.0-99.0-0.0,voc_e2,11753,"[{""event"":""fullscreenenter"",""trial"":1,""time"":2883},{""event"":""fullscreenexit"",""trial"":3,""time"":14467},{""event"":""blur"",""trial"":3,""time"":14468},{""event"":""focus"",""trial"":3,""time"":14477},{""event"":""blur"",""trial"":33,""time"":327594},{""event"":""focus"",""trial"":33,""time"":333220}]",NA,NA,NA,NA,NA,3,#1CD855,#FA92F8,10,10,1,40,0,1632.9999999998836,39,0,414,10,0,experiment,NA,NA,0,0.9,0.1,0,1,91,3,NA
fcp-trial,139,832161,0.0-100.0-0.0,voc_e2,11753,"[{""event"":""fullscreenenter"",""trial"":1,""time"":2883},{""event"":""fullscreenexit"",""trial"":3,""time"":14467},{""event"":""blur"",""trial"":3,""time"":14468},{""event"":""focus"",""trial"":3,""time"":14477},{""event"":""blur"",""trial"":33,""time"":327594},{""event"":""focus"",""trial"":33,""time"":333220}]",NA,NA,NA,NA,NA,6,#1CD855,#FA92F8,10,10,1,40,0,1101,37,1,630,10,1,experiment,NA,NA,0,0.9,0.1,0,1,92,3,NA
fcp-trial,140,835936,0.0-101.0-0.0,voc_e2,11753,"[{""event"":""fullscreenenter"",""trial"":1,""time"":2883},{""event"":""fullscreenexit"",""trial"":3,""time"":14467},{""event"":""blur"",""trial"":3,""time"":14468},{""event"":""focus"",""trial"":3,""time"":14477},{""event"":""blur"",""trial"":33,""time"":327594},{""event"":""focus"",""trial"":33,""time"":333220}]",NA,NA,NA,NA,NA,0,#D89F1C,#3386FF,10,10,1,38,1,2004,37,1,263,10,1,experiment,NA,NA,1,0.7,0.3,2,3,93,3,NA
fcp-trial,141,839328,0.0-102.0-0.0,voc_e2,11753,"[{""event"":""fullscreenenter"",""trial"":1,""time"":2883},{""event"":""fullscreenexit"",""trial"":3,""time"":14467},{""event"":""blur"",""trial"":3,""time"":14468},{""event"":""focus"",""trial"":3,""time"":14477},{""event"":""blur"",""trial"":33,""time"":327594},{""event"":""focus"",""trial"":33,""time"":333220}]",NA,NA,NA,NA,NA,1,#D89F1C,#3386FF,10,0,1,38,1,1400,37,1,484.0000000001164,10,1,experiment,NA,NA,1,0.7,0.3,2,3,94,3,NA
fcp-trial,142,842322,0.0-103.0-0.0,voc_e2,11753,"[{""event"":""fullscreenenter"",""trial"":1,""time"":2883},{""event"":""fullscreenexit"",""trial"":3,""time"":14467},{""event"":""blur"",""trial"":3,""time"":14468},{""event"":""focus"",""trial"":3,""time"":14477},{""event"":""blur"",""trial"":33,""time"":327594},{""event"":""focus"",""trial"":33,""time"":333220}]",NA,NA,NA,NA,NA,6,#741CD8,#D8271C,10,10,0,38,1,1035,39,0,452,10,1,experiment,NA,NA,2,0.5,0.5,5,4,95,3,NA
fcp-trial,143,846190,0.0-104.0-0.0,voc_e2,11753,"[{""event"":""fullscreenenter"",""trial"":1,""time"":2883},{""event"":""fullscreenexit"",""trial"":3,""time"":14467},{""event"":""blur"",""trial"":3,""time"":14468},{""event"":""focus"",""trial"":3,""time"":14477},{""event"":""blur"",""trial"":33,""time"":327594},{""event"":""focus"",""trial"":33,""time"":333220}]",NA,NA,NA,NA,NA,1,#1CD855,#FA92F8,10,10,1,38,1,1677.0000000001164,39,0,685.9999999998836,10,0,experiment,NA,NA,0,0.9,0.1,0,1,96,3,NA
fcp-trial,144,849488,0.0-105.0-0.0,voc_e2,11753,"[{""event"":""fullscreenenter"",""trial"":1,""time"":2883},{""event"":""fullscreenexit"",""trial"":3,""time"":14467},{""event"":""blur"",""trial"":3,""time"":14468},{""event"":""focus"",""trial"":3,""time"":14477},{""event"":""blur"",""trial"":33,""time"":327594},{""event"":""focus"",""trial"":33,""time"":333220}]",NA,NA,NA,NA,NA,5,#1CD855,#FA92F8,10,0,1,40,0,1248,37,1,545,10,1,experiment,NA,NA,0,0.9,0.1,0,1,97,3,NA
fcp-trial,145,852705,0.0-106.0-0.0,voc_e2,11753,"[{""event"":""fullscreenenter"",""trial"":1,""time"":2883},{""event"":""fullscreenexit"",""trial"":3,""time"":14467},{""event"":""blur"",""trial"":3,""time"":14468},{""event"":""focus"",""trial"":3,""time"":14477},{""event"":""blur"",""trial"":33,""time"":327594},{""event"":""focus"",""trial"":33,""time"":333220}]",NA,NA,NA,NA,NA,4,#D8271C,#741CD8,0,10,1,40,0,1227,37,1,484,0,1,experiment,NA,NA,2,0.5,0.5,4,5,98,3,NA
fcp-trial,146,855621,0.0-107.0-0.0,voc_e2,11753,"[{""event"":""fullscreenenter"",""trial"":1,""time"":2883},{""event"":""fullscreenexit"",""trial"":3,""time"":14467},{""event"":""blur"",""trial"":3,""time"":14468},{""event"":""focus"",""trial"":3,""time"":14477},{""event"":""blur"",""trial"":33,""time"":327594},{""event"":""focus"",""trial"":33,""time"":333220}]",NA,NA,NA,NA,NA,6,#D89F1C,#3386FF,0,0,1,40,0,687,39,0,724,0,0,experiment,NA,NA,1,0.7,0.3,2,3,99,3,NA
fcp-trial,147,859054,0.0-108.0-0.0,voc_e2,11753,"[{""event"":""fullscreenenter"",""trial"":1,""time"":2883},{""event"":""fullscreenexit"",""trial"":3,""time"":14467},{""event"":""blur"",""trial"":3,""time"":14468},{""event"":""focus"",""trial"":3,""time"":14477},{""event"":""blur"",""trial"":33,""time"":327594},{""event"":""focus"",""trial"":33,""time"":333220}]",NA,NA,NA,NA,NA,4,#3386FF,#D89F1C,10,0,0,40,0,1080,39,0,847,0,1,experiment,NA,NA,1,0.3,0.7,3,2,100,3,NA
fcp-trial,148,861855,0.0-109.0-0.0,voc_e2,11753,"[{""event"":""fullscreenenter"",""trial"":1,""time"":2883},{""event"":""fullscreenexit"",""trial"":3,""time"":14467},{""event"":""blur"",""trial"":3,""time"":14468},{""event"":""focus"",""trial"":3,""time"":14477},{""event"":""blur"",""trial"":33,""time"":327594},{""event"":""focus"",""trial"":33,""time"":333220}]",NA,NA,NA,NA,NA,2,#FA92F8,#1CD855,0,10,0,40,0,1033,37,1,261.0000000001164,0,0,experiment,NA,NA,0,0.1,0.9,1,0,101,3,NA
fcp-trial,149,865238,0.0-110.0-0.0,voc_e2,11753,"[{""event"":""fullscreenenter"",""trial"":1,""time"":2883},{""event"":""fullscreenexit"",""trial"":3,""time"":14467},{""event"":""blur"",""trial"":3,""time"":14468},{""event"":""focus"",""trial"":3,""time"":14477},{""event"":""blur"",""trial"":33,""time"":327594},{""event"":""focus"",""trial"":33,""time"":333220}]",NA,NA,NA,NA,NA,0,#D8271C,#741CD8,0,10,1,38,1,1620,39,0,258,10,0,experiment,NA,NA,2,0.5,0.5,4,5,102,3,NA
fcp-trial,150,867870,0.0-111.0-0.0,voc_e2,11753,"[{""event"":""fullscreenenter"",""trial"":1,""time"":2883},{""event"":""fullscreenexit"",""trial"":3,""time"":14467},{""event"":""blur"",""trial"":3,""time"":14468},{""event"":""focus"",""trial"":3,""time"":14477},{""event"":""blur"",""trial"":33,""time"":327594},{""event"":""focus"",""trial"":33,""time"":333220}]",NA,NA,NA,NA,NA,2,#3386FF,#D89F1C,0,10,0,38,1,821,39,0,305,10,1,experiment,NA,NA,1,0.3,0.7,3,2,103,3,NA
fcp-trial,151,870482,0.0-112.0-0.0,voc_e2,11753,"[{""event"":""fullscreenenter"",""trial"":1,""time"":2883},{""event"":""fullscreenexit"",""trial"":3,""time"":14467},{""event"":""blur"",""trial"":3,""time"":14468},{""event"":""focus"",""trial"":3,""time"":14477},{""event"":""blur"",""trial"":33,""time"":327594},{""event"":""focus"",""trial"":33,""time"":333220}]",NA,NA,NA,NA,NA,1,#D8271C,#741CD8,10,0,1,38,1,847,37,1,259,10,1,experiment,NA,NA,2,0.5,0.5,4,5,104,3,NA
fcp-trial,152,872954,0.0-113.0-0.0,voc_e2,11753,"[{""event"":""fullscreenenter"",""trial"":1,""time"":2883},{""event"":""fullscreenexit"",""trial"":3,""time"":14467},{""event"":""blur"",""trial"":3,""time"":14468},{""event"":""focus"",""trial"":3,""time"":14477},{""event"":""blur"",""trial"":33,""time"":327594},{""event"":""focus"",""trial"":33,""time"":333220}]",NA,NA,NA,NA,NA,4,#1CD855,#FA92F8,10,0,1,38,1,692,39,0,264,0,0,experiment,NA,NA,0,0.9,0.1,0,1,105,3,NA
audio-instructions,153,1315078,0.0-114.0,voc_e2,11753,"[{""event"":""fullscreenenter"",""trial"":1,""time"":2883},{""event"":""fullscreenexit"",""trial"":3,""time"":14467},{""event"":""blur"",""trial"":3,""time"":14468},{""event"":""focus"",""trial"":3,""time"":14477},{""event"":""blur"",""trial"":33,""time"":327594},{""event"":""focus"",""trial"":33,""time"":333220},{""event"":""blur"",""trial"":153,""time"":875945},{""event"":""focus"",""trial"":153,""time"":1310768}]",NA,437719,static/audio/pause.wav,NA,0,NA,NA,NA,NA,NA,NA,NA,NA,NA,NA,NA,NA,NA,NA,NA,NA,NA,NA,NA,NA,NA,NA,NA,NA,NA
fcp-trial,154,1319248,0.0-115.0-0.0,voc_e2,11753,"[{""event"":""fullscreenenter"",""trial"":1,""time"":2883},{""event"":""fullscreenexit"",""trial"":3,""time"":14467},{""event"":""blur"",""trial"":3,""time"":14468},{""event"":""focus"",""trial"":3,""time"":14477},{""event"":""blur"",""trial"":33,""time"":327594},{""event"":""focus"",""trial"":33,""time"":333220},{""event"":""blur"",""trial"":153,""time"":875945},{""event"":""focus"",""trial"":153,""time"":1310768}]",NA,NA,NA,NA,NA,2,#D89F1C,#3386FF,10,0,1,40,0,1632.9999999997672,39,0,1018,0,0,experiment,NA,NA,1,0.7,0.3,2,3,106,3,NA
fcp-trial,155,1322555,0.0-116.0-0.0,voc_e2,11753,"[{""event"":""fullscreenenter"",""trial"":1,""time"":2883},{""event"":""fullscreenexit"",""trial"":3,""time"":14467},{""event"":""blur"",""trial"":3,""time"":14468},{""event"":""focus"",""trial"":3,""time"":14477},{""event"":""blur"",""trial"":33,""time"":327594},{""event"":""focus"",""trial"":33,""time"":333220},{""event"":""blur"",""trial"":153,""time"":875945},{""event"":""focus"",""trial"":153,""time"":1310768}]",NA,NA,NA,NA,NA,5,#3386FF,#D89F1C,10,0,0,40,0,936,37,1,859,10,0,experiment,NA,NA,1,0.3,0.7,3,2,107,3,NA
fcp-trial,156,1325760,0.0-117.0-0.0,voc_e2,11753,"[{""event"":""fullscreenenter"",""trial"":1,""time"":2883},{""event"":""fullscreenexit"",""trial"":3,""time"":14467},{""event"":""blur"",""trial"":3,""time"":14468},{""event"":""focus"",""trial"":3,""time"":14477},{""event"":""blur"",""trial"":33,""time"":327594},{""event"":""focus"",""trial"":33,""time"":333220},{""event"":""blur"",""trial"":153,""time"":875945},{""event"":""focus"",""trial"":153,""time"":1310768}]",NA,NA,NA,NA,NA,0,#D8271C,#741CD8,10,0,1,38,1,1251,37,1,438,10,1,experiment,NA,NA,2,0.5,0.5,4,5,108,3,NA
fcp-trial,157,1328763,0.0-118.0-0.0,voc_e2,11753,"[{""event"":""fullscreenenter"",""trial"":1,""time"":2883},{""event"":""fullscreenexit"",""trial"":3,""time"":14467},{""event"":""blur"",""trial"":3,""time"":14468},{""event"":""focus"",""trial"":3,""time"":14477},{""event"":""blur"",""trial"":33,""time"":327594},{""event"":""focus"",""trial"":33,""time"":333220},{""event"":""blur"",""trial"":153,""time"":875945},{""event"":""focus"",""trial"":153,""time"":1310768}]",NA,NA,NA,NA,NA,3,#D8271C,#741CD8,0,10,1,40,0,1244.0000000002328,39,0,252,10,0,experiment,NA,NA,2,0.5,0.5,4,5,109,3,NA
fcp-trial,158,1332644,0.0-119.0-0.0,voc_e2,11753,"[{""event"":""fullscreenenter"",""trial"":1,""time"":2883},{""event"":""fullscreenexit"",""trial"":3,""time"":14467},{""event"":""blur"",""trial"":3,""time"":14468},{""event"":""focus"",""trial"":3,""time"":14477},{""event"":""blur"",""trial"":33,""time"":327594},{""event"":""focus"",""trial"":33,""time"":333220},{""event"":""blur"",""trial"":153,""time"":875945},{""event"":""focus"",""trial"":153,""time"":1310768}]",NA,NA,NA,NA,NA,6,#FA92F8,#1CD855,0,0,0,40,0,1958.9999999997672,37,1,417,0,0,experiment,NA,NA,0,0.1,0.9,1,0,110,3,NA
fcp-trial,159,1336243,0.0-120.0-0.0,voc_e2,11753,"[{""event"":""fullscreenenter"",""trial"":1,""time"":2883},{""event"":""fullscreenexit"",""trial"":3,""time"":14467},{""event"":""blur"",""trial"":3,""time"":14468},{""event"":""focus"",""trial"":3,""time"":14477},{""event"":""blur"",""trial"":33,""time"":327594},{""event"":""focus"",""trial"":33,""time"":333220},{""event"":""blur"",""trial"":153,""time"":875945},{""event"":""focus"",""trial"":153,""time"":1310768}]",NA,NA,NA,NA,NA,1,#D89F1C,#3386FF,0,0,1,38,1,1192,37,1,901,0,1,experiment,NA,NA,1,0.7,0.3,2,3,111,3,NA
fcp-trial,160,1339831,0.0-121.0-0.0,voc_e2,11753,"[{""event"":""fullscreenenter"",""trial"":1,""time"":2883},{""event"":""fullscreenexit"",""trial"":3,""time"":14467},{""event"":""blur"",""trial"":3,""time"":14468},{""event"":""focus"",""trial"":3,""time"":14477},{""event"":""blur"",""trial"":33,""time"":327594},{""event"":""focus"",""trial"":33,""time"":333220},{""event"":""blur"",""trial"":153,""time"":875945},{""event"":""focus"",""trial"":153,""time"":1310768}]",NA,NA,NA,NA,NA,5,#FA92F8,#1CD855,0,10,0,40,0,1536,37,1,545,0,0,experiment,NA,NA,0,0.1,0.9,1,0,112,3,NA
fcp-trial,161,1344060,0.0-122.0-0.0,voc_e2,11753,"[{""event"":""fullscreenenter"",""trial"":1,""time"":2883},{""event"":""fullscreenexit"",""trial"":3,""time"":14467},{""event"":""blur"",""trial"":3,""time"":14468},{""event"":""focus"",""trial"":3,""time"":14477},{""event"":""blur"",""trial"":33,""time"":327594},{""event"":""focus"",""trial"":33,""time"":333220},{""event"":""blur"",""trial"":153,""time"":875945},{""event"":""focus"",""trial"":153,""time"":1310768}]",NA,NA,NA,NA,NA,4,#741CD8,#D8271C,10,0,0,38,1,2055,39,0,668,0,1,experiment,NA,NA,2,0.5,0.5,5,4,113,3,NA
fcp-trial,162,1346892,0.0-123.0-0.0,voc_e2,11753,"[{""event"":""fullscreenenter"",""trial"":1,""time"":2883},{""event"":""fullscreenexit"",""trial"":3,""time"":14467},{""event"":""blur"",""trial"":3,""time"":14468},{""event"":""focus"",""trial"":3,""time"":14477},{""event"":""blur"",""trial"":33,""time"":327594},{""event"":""focus"",""trial"":33,""time"":333220},{""event"":""blur"",""trial"":153,""time"":875945},{""event"":""focus"",""trial"":153,""time"":1310768}]",NA,NA,NA,NA,NA,0,#D89F1C,#3386FF,10,0,1,38,1,993.9999999997672,37,1,332,10,1,experiment,NA,NA,1,0.7,0.3,2,3,114,3,NA
fcp-trial,163,1350812,0.0-124.0-0.0,voc_e2,11753,"[{""event"":""fullscreenenter"",""trial"":1,""time"":2883},{""event"":""fullscreenexit"",""trial"":3,""time"":14467},{""event"":""blur"",""trial"":3,""time"":14468},{""event"":""focus"",""trial"":3,""time"":14477},{""event"":""blur"",""trial"":33,""time"":327594},{""event"":""focus"",""trial"":33,""time"":333220},{""event"":""blur"",""trial"":153,""time"":875945},{""event"":""focus"",""trial"":153,""time"":1310768}]",NA,NA,NA,NA,NA,1,#741CD8,#D8271C,0,10,0,38,1,2097,37,1,315,0,0,experiment,NA,NA,2,0.5,0.5,5,4,115,3,NA
fcp-trial,164,1353347,0.0-125.0-0.0,voc_e2,11753,"[{""event"":""fullscreenenter"",""trial"":1,""time"":2883},{""event"":""fullscreenexit"",""trial"":3,""time"":14467},{""event"":""blur"",""trial"":3,""time"":14468},{""event"":""focus"",""trial"":3,""time"":14477},{""event"":""blur"",""trial"":33,""time"":327594},{""event"":""focus"",""trial"":33,""time"":333220},{""event"":""blur"",""trial"":153,""time"":875945},{""event"":""focus"",""trial"":153,""time"":1310768}]",NA,NA,NA,NA,NA,6,#3386FF,#D89F1C,10,10,0,38,1,583,39,0,445,10,1,experiment,NA,NA,1,0.3,0.7,3,2,116,3,NA
fcp-trial,165,1356131,0.0-126.0-0.0,voc_e2,11753,"[{""event"":""fullscreenenter"",""trial"":1,""time"":2883},{""event"":""fullscreenexit"",""trial"":3,""time"":14467},{""event"":""blur"",""trial"":3,""time"":14468},{""event"":""focus"",""trial"":3,""time"":14477},{""event"":""blur"",""trial"":33,""time"":327594},{""event"":""focus"",""trial"":33,""time"":333220},{""event"":""blur"",""trial"":153,""time"":875945},{""event"":""focus"",""trial"":153,""time"":1310768}]",NA,NA,NA,NA,NA,0,#1CD855,#FA92F8,10,0,1,38,1,925,37,1,353,10,1,experiment,NA,NA,0,0.9,0.1,0,1,117,3,NA
fcp-trial,166,1358498,0.0-127.0-0.0,voc_e2,11753,"[{""event"":""fullscreenenter"",""trial"":1,""time"":2883},{""event"":""fullscreenexit"",""trial"":3,""time"":14467},{""event"":""blur"",""trial"":3,""time"":14468},{""event"":""focus"",""trial"":3,""time"":14477},{""event"":""blur"",""trial"":33,""time"":327594},{""event"":""focus"",""trial"":33,""time"":333220},{""event"":""blur"",""trial"":153,""time"":875945},{""event"":""focus"",""trial"":153,""time"":1310768}]",NA,NA,NA,NA,NA,5,#741CD8,#D8271C,0,0,0,38,1,556,39,0,304,0,1,experiment,NA,NA,2,0.5,0.5,5,4,118,3,NA
fcp-trial,167,1361775,0.0-128.0-0.0,voc_e2,11753,"[{""event"":""fullscreenenter"",""trial"":1,""time"":2883},{""event"":""fullscreenexit"",""trial"":3,""time"":14467},{""event"":""blur"",""trial"":3,""time"":14468},{""event"":""focus"",""trial"":3,""time"":14477},{""event"":""blur"",""trial"":33,""time"":327594},{""event"":""focus"",""trial"":33,""time"":333220},{""event"":""blur"",""trial"":153,""time"":875945},{""event"":""focus"",""trial"":153,""time"":1310768}]",NA,NA,NA,NA,NA,2,#D8271C,#741CD8,0,10,1,38,1,1090,39,0,682,10,0,experiment,NA,NA,2,0.5,0.5,4,5,119,3,NA
fcp-trial,168,1364327,0.0-129.0-0.0,voc_e2,11753,"[{""event"":""fullscreenenter"",""trial"":1,""time"":2883},{""event"":""fullscreenexit"",""trial"":3,""time"":14467},{""event"":""blur"",""trial"":3,""time"":14468},{""event"":""focus"",""trial"":3,""time"":14477},{""event"":""blur"",""trial"":33,""time"":327594},{""event"":""focus"",""trial"":33,""time"":333220},{""event"":""blur"",""trial"":153,""time"":875945},{""event"":""focus"",""trial"":153,""time"":1310768}]",NA,NA,NA,NA,NA,3,#D89F1C,#3386FF,10,0,1,38,1,746,37,1,299.99999999976717,10,1,experiment,NA,NA,1,0.7,0.3,2,3,120,3,NA
fcp-trial,169,1367591,0.0-130.0-0.0,voc_e2,11753,"[{""event"":""fullscreenenter"",""trial"":1,""time"":2883},{""event"":""fullscreenexit"",""trial"":3,""time"":14467},{""event"":""blur"",""trial"":3,""time"":14468},{""event"":""focus"",""trial"":3,""time"":14477},{""event"":""blur"",""trial"":33,""time"":327594},{""event"":""focus"",""trial"":33,""time"":333220},{""event"":""blur"",""trial"":153,""time"":875945},{""event"":""focus"",""trial"":153,""time"":1310768}]",NA,NA,NA,NA,NA,1,#FA92F8,#1CD855,0,10,0,38,1,694.0000000002328,39,0,1063,10,1,experiment,NA,NA,0,0.1,0.9,1,0,121,3,NA
fcp-trial,170,1370393,0.0-131.0-0.0,voc_e2,11753,"[{""event"":""fullscreenenter"",""trial"":1,""time"":2883},{""event"":""fullscreenexit"",""trial"":3,""time"":14467},{""event"":""blur"",""trial"":3,""time"":14468},{""event"":""focus"",""trial"":3,""time"":14477},{""event"":""blur"",""trial"":33,""time"":327594},{""event"":""focus"",""trial"":33,""time"":333220},{""event"":""blur"",""trial"":153,""time"":875945},{""event"":""focus"",""trial"":153,""time"":1310768}]",NA,NA,NA,NA,NA,6,#741CD8,#D8271C,0,0,0,38,1,820,37,1,476,0,0,experiment,NA,NA,2,0.5,0.5,5,4,122,3,NA
fcp-trial,171,1373125,0.0-132.0-0.0,voc_e2,11753,"[{""event"":""fullscreenenter"",""trial"":1,""time"":2883},{""event"":""fullscreenexit"",""trial"":3,""time"":14467},{""event"":""blur"",""trial"":3,""time"":14468},{""event"":""focus"",""trial"":3,""time"":14477},{""event"":""blur"",""trial"":33,""time"":327594},{""event"":""focus"",""trial"":33,""time"":333220},{""event"":""blur"",""trial"":153,""time"":875945},{""event"":""focus"",""trial"":153,""time"":1310768}]",NA,NA,NA,NA,NA,4,#1CD855,#FA92F8,10,0,1,38,1,561,37,1,665,10,1,experiment,NA,NA,0,0.9,0.1,0,1,123,3,NA
fcp-trial,172,1375627,0.0-133.0-0.0,voc_e2,11753,"[{""event"":""fullscreenenter"",""trial"":1,""time"":2883},{""event"":""fullscreenexit"",""trial"":3,""time"":14467},{""event"":""blur"",""trial"":3,""time"":14468},{""event"":""focus"",""trial"":3,""time"":14477},{""event"":""blur"",""trial"":33,""time"":327594},{""event"":""focus"",""trial"":33,""time"":333220},{""event"":""blur"",""trial"":153,""time"":875945},{""event"":""focus"",""trial"":153,""time"":1310768}]",NA,NA,NA,NA,NA,3,#FA92F8,#1CD855,10,10,0,38,1,683,39,0,313,10,1,experiment,NA,NA,0,0.1,0.9,1,0,124,3,NA
fcp-trial,173,1378220,0.0-134.0-0.0,voc_e2,11753,"[{""event"":""fullscreenenter"",""trial"":1,""time"":2883},{""event"":""fullscreenexit"",""trial"":3,""time"":14467},{""event"":""blur"",""trial"":3,""time"":14468},{""event"":""focus"",""trial"":3,""time"":14477},{""event"":""blur"",""trial"":33,""time"":327594},{""event"":""focus"",""trial"":33,""time"":333220},{""event"":""blur"",""trial"":153,""time"":875945},{""event"":""focus"",""trial"":153,""time"":1310768}]",NA,NA,NA,NA,NA,4,#D89F1C,#3386FF,10,10,1,38,1,762.9999999997672,37,1,322.00000000023283,10,1,experiment,NA,NA,1,0.7,0.3,2,3,125,3,NA
fcp-trial,174,1380945,0.0-135.0-0.0,voc_e2,11753,"[{""event"":""fullscreenenter"",""trial"":1,""time"":2883},{""event"":""fullscreenexit"",""trial"":3,""time"":14467},{""event"":""blur"",""trial"":3,""time"":14468},{""event"":""focus"",""trial"":3,""time"":14477},{""event"":""blur"",""trial"":33,""time"":327594},{""event"":""focus"",""trial"":33,""time"":333220},{""event"":""blur"",""trial"":153,""time"":875945},{""event"":""focus"",""trial"":153,""time"":1310768}]",NA,NA,NA,NA,NA,2,#1CD855,#FA92F8,10,0,1,38,1,905,37,1,304,10,1,experiment,NA,NA,0,0.9,0.1,0,1,126,3,NA
fcp-trial,175,1383510,0.0-136.0-0.0,voc_e2,11753,"[{""event"":""fullscreenenter"",""trial"":1,""time"":2883},{""event"":""fullscreenexit"",""trial"":3,""time"":14467},{""event"":""blur"",""trial"":3,""time"":14468},{""event"":""focus"",""trial"":3,""time"":14477},{""event"":""blur"",""trial"":33,""time"":327594},{""event"":""focus"",""trial"":33,""time"":333220},{""event"":""blur"",""trial"":153,""time"":875945},{""event"":""focus"",""trial"":153,""time"":1310768}]",NA,NA,NA,NA,NA,6,#1CD855,#FA92F8,10,0,1,38,1,706,37,1,352,10,1,experiment,NA,NA,0,0.9,0.1,0,1,127,3,NA
fcp-trial,176,1386426,0.0-137.0-0.0,voc_e2,11753,"[{""event"":""fullscreenenter"",""trial"":1,""time"":2883},{""event"":""fullscreenexit"",""trial"":3,""time"":14467},{""event"":""blur"",""trial"":3,""time"":14468},{""event"":""focus"",""trial"":3,""time"":14477},{""event"":""blur"",""trial"":33,""time"":327594},{""event"":""focus"",""trial"":33,""time"":333220},{""event"":""blur"",""trial"":153,""time"":875945},{""event"":""focus"",""trial"":153,""time"":1310768}]",NA,NA,NA,NA,NA,4,#D8271C,#741CD8,0,0,1,38,1,1138,39,0,274,0,0,experiment,NA,NA,2,0.5,0.5,4,5,128,3,NA
fcp-trial,177,1389509,0.0-138.0-0.0,voc_e2,11753,"[{""event"":""fullscreenenter"",""trial"":1,""time"":2883},{""event"":""fullscreenexit"",""trial"":3,""time"":14467},{""event"":""blur"",""trial"":3,""time"":14468},{""event"":""focus"",""trial"":3,""time"":14477},{""event"":""blur"",""trial"":33,""time"":327594},{""event"":""focus"",""trial"":33,""time"":333220},{""event"":""blur"",""trial"":153,""time"":875945},{""event"":""focus"",""trial"":153,""time"":1310768}]",NA,NA,NA,NA,NA,0,#D89F1C,#3386FF,0,10,1,38,1,794.9999999997672,37,1,784,0,1,experiment,NA,NA,1,0.7,0.3,2,3,129,3,NA
fcp-trial,178,1392112,0.0-139.0-0.0,voc_e2,11753,"[{""event"":""fullscreenenter"",""trial"":1,""time"":2883},{""event"":""fullscreenexit"",""trial"":3,""time"":14467},{""event"":""blur"",""trial"":3,""time"":14468},{""event"":""focus"",""trial"":3,""time"":14477},{""event"":""blur"",""trial"":33,""time"":327594},{""event"":""focus"",""trial"":33,""time"":333220},{""event"":""blur"",""trial"":153,""time"":875945},{""event"":""focus"",""trial"":153,""time"":1310768}]",NA,NA,NA,NA,NA,5,#D89F1C,#3386FF,10,0,1,38,1,661,39,0,436.00000000023283,0,0,experiment,NA,NA,1,0.7,0.3,2,3,130,3,NA
fcp-trial,179,1394944,0.0-140.0-0.0,voc_e2,11753,"[{""event"":""fullscreenenter"",""trial"":1,""time"":2883},{""event"":""fullscreenexit"",""trial"":3,""time"":14467},{""event"":""blur"",""trial"":3,""time"":14468},{""event"":""focus"",""trial"":3,""time"":14477},{""event"":""blur"",""trial"":33,""time"":327594},{""event"":""focus"",""trial"":33,""time"":333220},{""event"":""blur"",""trial"":153,""time"":875945},{""event"":""focus"",""trial"":153,""time"":1310768}]",NA,NA,NA,NA,NA,3,#FA92F8,#1CD855,0,10,0,38,1,782,39,0,543,10,1,experiment,NA,NA,0,0.1,0.9,1,0,131,3,NA
fcp-trial,180,1398230,0.0-141.0-0.0,voc_e2,11753,"[{""event"":""fullscreenenter"",""trial"":1,""time"":2883},{""event"":""fullscreenexit"",""trial"":3,""time"":14467},{""event"":""blur"",""trial"":3,""time"":14468},{""event"":""focus"",""trial"":3,""time"":14477},{""event"":""blur"",""trial"":33,""time"":327594},{""event"":""focus"",""trial"":33,""time"":333220},{""event"":""blur"",""trial"":153,""time"":875945},{""event"":""focus"",""trial"":153,""time"":1310768}]",NA,NA,NA,NA,NA,3,#D8271C,#741CD8,0,10,1,38,1,1408,37,1,370,0,1,experiment,NA,NA,2,0.5,0.5,4,5,132,3,NA
fcp-trial,181,1400513,0.0-142.0-0.0,voc_e2,11753,"[{""event"":""fullscreenenter"",""trial"":1,""time"":2883},{""event"":""fullscreenexit"",""trial"":3,""time"":14467},{""event"":""blur"",""trial"":3,""time"":14468},{""event"":""focus"",""trial"":3,""time"":14477},{""event"":""blur"",""trial"":33,""time"":327594},{""event"":""focus"",""trial"":33,""time"":333220},{""event"":""blur"",""trial"":153,""time"":875945},{""event"":""focus"",""trial"":153,""time"":1310768}]",NA,NA,NA,NA,NA,0,#D8271C,#741CD8,0,0,1,38,1,523,39,0,254,0,0,experiment,NA,NA,2,0.5,0.5,4,5,133,3,NA
fcp-trial,182,1402942,0.0-143.0-0.0,voc_e2,11753,"[{""event"":""fullscreenenter"",""trial"":1,""time"":2883},{""event"":""fullscreenexit"",""trial"":3,""time"":14467},{""event"":""blur"",""trial"":3,""time"":14468},{""event"":""focus"",""trial"":3,""time"":14477},{""event"":""blur"",""trial"":33,""time"":327594},{""event"":""focus"",""trial"":33,""time"":333220},{""event"":""blur"",""trial"":153,""time"":875945},{""event"":""focus"",""trial"":153,""time"":1310768}]",NA,NA,NA,NA,NA,3,#D89F1C,#3386FF,0,0,1,38,1,656,37,1,267,0,1,experiment,NA,NA,1,0.7,0.3,2,3,134,3,NA
fcp-trial,183,1405502,0.0-144.0-0.0,voc_e2,11753,"[{""event"":""fullscreenenter"",""trial"":1,""time"":2883},{""event"":""fullscreenexit"",""trial"":3,""time"":14467},{""event"":""blur"",""trial"":3,""time"":14468},{""event"":""focus"",""trial"":3,""time"":14477},{""event"":""blur"",""trial"":33,""time"":327594},{""event"":""focus"",""trial"":33,""time"":333220},{""event"":""blur"",""trial"":153,""time"":875945},{""event"":""focus"",""trial"":153,""time"":1310768}]",NA,NA,NA,NA,NA,2,#1CD855,#FA92F8,10,0,1,38,1,644,37,1,409,10,1,experiment,NA,NA,0,0.9,0.1,0,1,135,3,NA
fcp-trial,184,1408309,0.0-145.0-0.0,voc_e2,11753,"[{""event"":""fullscreenenter"",""trial"":1,""time"":2883},{""event"":""fullscreenexit"",""trial"":3,""time"":14467},{""event"":""blur"",""trial"":3,""time"":14468},{""event"":""focus"",""trial"":3,""time"":14477},{""event"":""blur"",""trial"":33,""time"":327594},{""event"":""focus"",""trial"":33,""time"":333220},{""event"":""blur"",""trial"":153,""time"":875945},{""event"":""focus"",""trial"":153,""time"":1310768}]",NA,NA,NA,NA,NA,1,#1CD855,#FA92F8,10,0,1,38,1,593.9999999997672,37,1,699,10,1,experiment,NA,NA,0,0.9,0.1,0,1,136,4,NA
fcp-trial,185,1410950,0.0-146.0-0.0,voc_e2,11753,"[{""event"":""fullscreenenter"",""trial"":1,""time"":2883},{""event"":""fullscreenexit"",""trial"":3,""time"":14467},{""event"":""blur"",""trial"":3,""time"":14468},{""event"":""focus"",""trial"":3,""time"":14477},{""event"":""blur"",""trial"":33,""time"":327594},{""event"":""focus"",""trial"":33,""time"":333220},{""event"":""blur"",""trial"":153,""time"":875945},{""event"":""focus"",""trial"":153,""time"":1310768}]",NA,NA,NA,NA,NA,4,#D89F1C,#3386FF,0,0,1,38,1,707.9999999997672,39,0,425.00000000023283,0,0,experiment,NA,NA,1,0.7,0.3,2,3,137,4,NA
fcp-trial,186,1413326,0.0-147.0-0.0,voc_e2,11753,"[{""event"":""fullscreenenter"",""trial"":1,""time"":2883},{""event"":""fullscreenexit"",""trial"":3,""time"":14467},{""event"":""blur"",""trial"":3,""time"":14468},{""event"":""focus"",""trial"":3,""time"":14477},{""event"":""blur"",""trial"":33,""time"":327594},{""event"":""focus"",""trial"":33,""time"":333220},{""event"":""blur"",""trial"":153,""time"":875945},{""event"":""focus"",""trial"":153,""time"":1310768}]",NA,NA,NA,NA,NA,1,#741CD8,#D8271C,10,0,0,38,1,506,37,1,363,10,0,experiment,NA,NA,2,0.5,0.5,5,4,138,4,NA
fcp-trial,187,1415914,0.0-148.0-0.0,voc_e2,11753,"[{""event"":""fullscreenenter"",""trial"":1,""time"":2883},{""event"":""fullscreenexit"",""trial"":3,""time"":14467},{""event"":""blur"",""trial"":3,""time"":14468},{""event"":""focus"",""trial"":3,""time"":14477},{""event"":""blur"",""trial"":33,""time"":327594},{""event"":""focus"",""trial"":33,""time"":333220},{""event"":""blur"",""trial"":153,""time"":875945},{""event"":""focus"",""trial"":153,""time"":1310768}]",NA,NA,NA,NA,NA,2,#741CD8,#D8271C,0,10,0,38,1,711,37,1,372,0,0,experiment,NA,NA,2,0.5,0.5,5,4,139,4,NA
fcp-trial,188,1418963,0.0-149.0-0.0,voc_e2,11753,"[{""event"":""fullscreenenter"",""trial"":1,""time"":2883},{""event"":""fullscreenexit"",""trial"":3,""time"":14467},{""event"":""blur"",""trial"":3,""time"":14468},{""event"":""focus"",""trial"":3,""time"":14477},{""event"":""blur"",""trial"":33,""time"":327594},{""event"":""focus"",""trial"":33,""time"":333220},{""event"":""blur"",""trial"":153,""time"":875945},{""event"":""focus"",""trial"":153,""time"":1310768}]",NA,NA,NA,NA,NA,2,#D89F1C,#3386FF,0,0,1,38,1,1278.0000000002328,37,1,263,0,1,experiment,NA,NA,1,0.7,0.3,2,3,140,4,NA
fcp-trial,189,1421875,0.0-150.0-0.0,voc_e2,11753,"[{""event"":""fullscreenenter"",""trial"":1,""time"":2883},{""event"":""fullscreenexit"",""trial"":3,""time"":14467},{""event"":""blur"",""trial"":3,""time"":14468},{""event"":""focus"",""trial"":3,""time"":14477},{""event"":""blur"",""trial"":33,""time"":327594},{""event"":""focus"",""trial"":33,""time"":333220},{""event"":""blur"",""trial"":153,""time"":875945},{""event"":""focus"",""trial"":153,""time"":1310768}]",NA,NA,NA,NA,NA,5,#FA92F8,#1CD855,0,10,0,38,1,511,39,0,895,10,1,experiment,NA,NA,0,0.1,0.9,1,0,141,4,NA
fcp-trial,190,1425252,0.0-151.0-0.0,voc_e2,11753,"[{""event"":""fullscreenenter"",""trial"":1,""time"":2883},{""event"":""fullscreenexit"",""trial"":3,""time"":14467},{""event"":""blur"",""trial"":3,""time"":14468},{""event"":""focus"",""trial"":3,""time"":14477},{""event"":""blur"",""trial"":33,""time"":327594},{""event"":""focus"",""trial"":33,""time"":333220},{""event"":""blur"",""trial"":153,""time"":875945},{""event"":""focus"",""trial"":153,""time"":1310768}]",NA,NA,NA,NA,NA,6,#741CD8,#D8271C,10,10,0,38,1,1578.9999999997672,37,1,291,10,0,experiment,NA,NA,2,0.5,0.5,5,4,142,4,NA
fcp-trial,191,1427653,0.0-152.0-0.0,voc_e2,11753,"[{""event"":""fullscreenenter"",""trial"":1,""time"":2883},{""event"":""fullscreenexit"",""trial"":3,""time"":14467},{""event"":""blur"",""trial"":3,""time"":14468},{""event"":""focus"",""trial"":3,""time"":14477},{""event"":""blur"",""trial"":33,""time"":327594},{""event"":""focus"",""trial"":33,""time"":333220},{""event"":""blur"",""trial"":153,""time"":875945},{""event"":""focus"",""trial"":153,""time"":1310768}]",NA,NA,NA,NA,NA,5,#D8271C,#741CD8,0,0,1,38,1,558,39,0,326,0,0,experiment,NA,NA,2,0.5,0.5,4,5,143,4,NA
fcp-trial,192,1430236,0.0-153.0-0.0,voc_e2,11753,"[{""event"":""fullscreenenter"",""trial"":1,""time"":2883},{""event"":""fullscreenexit"",""trial"":3,""time"":14467},{""event"":""blur"",""trial"":3,""time"":14468},{""event"":""focus"",""trial"":3,""time"":14477},{""event"":""blur"",""trial"":33,""time"":327594},{""event"":""focus"",""trial"":33,""time"":333220},{""event"":""blur"",""trial"":153,""time"":875945},{""event"":""focus"",""trial"":153,""time"":1310768}]",NA,NA,NA,NA,NA,1,#D89F1C,#3386FF,0,0,1,38,1,813,39,0,253,0,0,experiment,NA,NA,1,0.7,0.3,2,3,144,4,NA
fcp-trial,193,1432808,0.0-154.0-0.0,voc_e2,11753,"[{""event"":""fullscreenenter"",""trial"":1,""time"":2883},{""event"":""fullscreenexit"",""trial"":3,""time"":14467},{""event"":""blur"",""trial"":3,""time"":14468},{""event"":""focus"",""trial"":3,""time"":14477},{""event"":""blur"",""trial"":33,""time"":327594},{""event"":""focus"",""trial"":33,""time"":333220},{""event"":""blur"",""trial"":153,""time"":875945},{""event"":""focus"",""trial"":153,""time"":1310768}]",NA,NA,NA,NA,NA,0,#FA92F8,#1CD855,0,0,0,38,1,797,39,0,261,0,1,experiment,NA,NA,0,0.1,0.9,1,0,145,4,NA
fcp-trial,194,1435702,0.0-155.0-0.0,voc_e2,11753,"[{""event"":""fullscreenenter"",""trial"":1,""time"":2883},{""event"":""fullscreenexit"",""trial"":3,""time"":14467},{""event"":""blur"",""trial"":3,""time"":14468},{""event"":""focus"",""trial"":3,""time"":14477},{""event"":""blur"",""trial"":33,""time"":327594},{""event"":""focus"",""trial"":33,""time"":333220},{""event"":""blur"",""trial"":153,""time"":875945},{""event"":""focus"",""trial"":153,""time"":1310768}]",NA,NA,NA,NA,NA,4,#1CD855,#FA92F8,10,0,1,40,0,511,39,0,875,0,0,experiment,NA,NA,0,0.9,0.1,0,1,146,4,NA
fcp-trial,195,1438748,0.0-156.0-0.0,voc_e2,11753,"[{""event"":""fullscreenenter"",""trial"":1,""time"":2883},{""event"":""fullscreenexit"",""trial"":3,""time"":14467},{""event"":""blur"",""trial"":3,""time"":14468},{""event"":""focus"",""trial"":3,""time"":14477},{""event"":""blur"",""trial"":33,""time"":327594},{""event"":""focus"",""trial"":33,""time"":333220},{""event"":""blur"",""trial"":153,""time"":875945},{""event"":""focus"",""trial"":153,""time"":1310768}]",NA,NA,NA,NA,NA,6,#3386FF,#D89F1C,10,10,0,40,0,994,37,1,537,10,0,experiment,NA,NA,1,0.3,0.7,3,2,147,4,NA
fcp-trial,196,1442058,0.0-157.0-0.0,voc_e2,11753,"[{""event"":""fullscreenenter"",""trial"":1,""time"":2883},{""event"":""fullscreenexit"",""trial"":3,""time"":14467},{""event"":""blur"",""trial"":3,""time"":14468},{""event"":""focus"",""trial"":3,""time"":14477},{""event"":""blur"",""trial"":33,""time"":327594},{""event"":""focus"",""trial"":33,""time"":333220},{""event"":""blur"",""trial"":153,""time"":875945},{""event"":""focus"",""trial"":153,""time"":1310768}]",NA,NA,NA,NA,NA,0,#D89F1C,#3386FF,0,0,1,38,1,1531,39,0,274,0,0,experiment,NA,NA,1,0.7,0.3,2,3,148,4,NA
fcp-trial,197,1444682,0.0-158.0-0.0,voc_e2,11753,"[{""event"":""fullscreenenter"",""trial"":1,""time"":2883},{""event"":""fullscreenexit"",""trial"":3,""time"":14467},{""event"":""blur"",""trial"":3,""time"":14468},{""event"":""focus"",""trial"":3,""time"":14477},{""event"":""blur"",""trial"":33,""time"":327594},{""event"":""focus"",""trial"":33,""time"":333220},{""event"":""blur"",""trial"":153,""time"":875945},{""event"":""focus"",""trial"":153,""time"":1310768}]",NA,NA,NA,NA,NA,2,#FA92F8,#1CD855,0,10,0,38,1,794.9999999997672,39,0,322,10,1,experiment,NA,NA,0,0.1,0.9,1,0,149,4,NA
fcp-trial,198,1447293,0.0-159.0-0.0,voc_e2,11753,"[{""event"":""fullscreenenter"",""trial"":1,""time"":2883},{""event"":""fullscreenexit"",""trial"":3,""time"":14467},{""event"":""blur"",""trial"":3,""time"":14468},{""event"":""focus"",""trial"":3,""time"":14477},{""event"":""blur"",""trial"":33,""time"":327594},{""event"":""focus"",""trial"":33,""time"":333220},{""event"":""blur"",""trial"":153,""time"":875945},{""event"":""focus"",""trial"":153,""time"":1310768}]",NA,NA,NA,NA,NA,6,#1CD855,#FA92F8,10,0,1,38,1,762,37,1,342.00000000023283,10,1,experiment,NA,NA,0,0.9,0.1,0,1,150,4,NA
fcp-trial,199,1450077,0.0-160.0-0.0,voc_e2,11753,"[{""event"":""fullscreenenter"",""trial"":1,""time"":2883},{""event"":""fullscreenexit"",""trial"":3,""time"":14467},{""event"":""blur"",""trial"":3,""time"":14468},{""event"":""focus"",""trial"":3,""time"":14477},{""event"":""blur"",""trial"":33,""time"":327594},{""event"":""focus"",""trial"":33,""time"":333220},{""event"":""blur"",""trial"":153,""time"":875945},{""event"":""focus"",""trial"":153,""time"":1310768}]",NA,NA,NA,NA,NA,3,#D89F1C,#3386FF,10,0,1,38,1,916,37,1,362,10,1,experiment,NA,NA,1,0.7,0.3,2,3,151,4,NA
fcp-trial,200,1452736,0.0-161.0-0.0,voc_e2,11753,"[{""event"":""fullscreenenter"",""trial"":1,""time"":2883},{""event"":""fullscreenexit"",""trial"":3,""time"":14467},{""event"":""blur"",""trial"":3,""time"":14468},{""event"":""focus"",""trial"":3,""time"":14477},{""event"":""blur"",""trial"":33,""time"":327594},{""event"":""focus"",""trial"":33,""time"":333220},{""event"":""blur"",""trial"":153,""time"":875945},{""event"":""focus"",""trial"":153,""time"":1310768}]",NA,NA,NA,NA,NA,5,#1CD855,#FA92F8,10,0,1,38,1,779,37,1,370,10,1,experiment,NA,NA,0,0.9,0.1,0,1,152,4,NA
fcp-trial,201,1455946,0.0-162.0-0.0,voc_e2,11753,"[{""event"":""fullscreenenter"",""trial"":1,""time"":2883},{""event"":""fullscreenexit"",""trial"":3,""time"":14467},{""event"":""blur"",""trial"":3,""time"":14468},{""event"":""focus"",""trial"":3,""time"":14477},{""event"":""blur"",""trial"":33,""time"":327594},{""event"":""focus"",""trial"":33,""time"":333220},{""event"":""blur"",""trial"":153,""time"":875945},{""event"":""focus"",""trial"":153,""time"":1310768}]",NA,NA,NA,NA,NA,4,#741CD8,#D8271C,10,10,0,38,1,425,37,1,1267.9999999997672,10,0,experiment,NA,NA,2,0.5,0.5,5,4,153,4,NA
fcp-trial,202,1458841,0.0-163.0-0.0,voc_e2,11753,"[{""event"":""fullscreenenter"",""trial"":1,""time"":2883},{""event"":""fullscreenexit"",""trial"":3,""time"":14467},{""event"":""blur"",""trial"":3,""time"":14468},{""event"":""focus"",""trial"":3,""time"":14477},{""event"":""blur"",""trial"":33,""time"":327594},{""event"":""focus"",""trial"":33,""time"":333220},{""event"":""blur"",""trial"":153,""time"":875945},{""event"":""focus"",""trial"":153,""time"":1310768}]",NA,NA,NA,NA,NA,4,#D89F1C,#3386FF,10,0,1,38,1,689,39,0,698.0000000002328,0,0,experiment,NA,NA,1,0.7,0.3,2,3,154,4,NA
fcp-trial,203,1461298,0.0-164.0-0.0,voc_e2,11753,"[{""event"":""fullscreenenter"",""trial"":1,""time"":2883},{""event"":""fullscreenexit"",""trial"":3,""time"":14467},{""event"":""blur"",""trial"":3,""time"":14468},{""event"":""focus"",""trial"":3,""time"":14477},{""event"":""blur"",""trial"":33,""time"":327594},{""event"":""focus"",""trial"":33,""time"":333220},{""event"":""blur"",""trial"":153,""time"":875945},{""event"":""focus"",""trial"":153,""time"":1310768}]",NA,NA,NA,NA,NA,2,#D89F1C,#3386FF,10,10,1,38,1,654,37,1,295,10,1,experiment,NA,NA,1,0.7,0.3,2,3,155,4,NA
fcp-trial,204,1463851,0.0-165.0-0.0,voc_e2,11753,"[{""event"":""fullscreenenter"",""trial"":1,""time"":2883},{""event"":""fullscreenexit"",""trial"":3,""time"":14467},{""event"":""blur"",""trial"":3,""time"":14468},{""event"":""focus"",""trial"":3,""time"":14477},{""event"":""blur"",""trial"":33,""time"":327594},{""event"":""focus"",""trial"":33,""time"":333220},{""event"":""blur"",""trial"":153,""time"":875945},{""event"":""focus"",""trial"":153,""time"":1310768}]",NA,NA,NA,NA,NA,0,#FA92F8,#1CD855,0,10,0,38,1,738.0000000002328,39,0,307.00000000023283,10,1,experiment,NA,NA,0,0.1,0.9,1,0,156,4,NA
