trial_type,trial_index,time_elapsed,internal_node_id,task_version,subject_id,interactions,success,rt,stimulus,key_press,button_pressed,offer,arcade_color_L,arcade_color_R,arcade_outcome_L,arcade_outcome_R,correct,stage_1_key,stage_1_choice,stage_1_rt,stage_2_key,stage_2_choice,stage_2_rt,stage_3_outcome,accuracy,phase,responses,num_errors,context,reward_prob_L,reward_prob_R,arcade_id_L,arcade_id_R,trial,block,response
pavlovia,0,9,0.0-0.0,voc_e2,11837,[],NA,NA,NA,NA,NA,NA,NA,NA,NA,NA,NA,NA,NA,NA,NA,NA,NA,NA,NA,NA,NA,NA,NA,NA,NA,NA,NA,NA,NA,NA
fullscreen,1,2738,0.0-1.0,voc_e2,11837,"[{""event"":""fullscreenenter"",""trial"":1,""time"":1771},{""event"":""fullscreenenter"",""trial"":1,""time"":1771}]",TRUE,NA,NA,NA,NA,NA,NA,NA,NA,NA,NA,NA,NA,NA,NA,NA,NA,NA,NA,NA,NA,NA,NA,NA,NA,NA,NA,NA,NA,NA
audio-keyboard-response,2,6895,0.0-2.0,voc_e2,11837,"[{""event"":""fullscreenenter"",""trial"":1,""time"":1771},{""event"":""fullscreenenter"",""trial"":1,""time"":1771}]",NA,0,static/audio/beep_loop.wav,32,NA,NA,NA,NA,NA,NA,NA,NA,NA,NA,NA,NA,NA,NA,NA,NA,NA,NA,NA,NA,NA,NA,NA,NA,NA,NA
audio-test,3,8331,0.0-3.0,voc_e2,11837,"[{""event"":""fullscreenenter"",""trial"":1,""time"":1771},{""event"":""fullscreenenter"",""trial"":1,""time"":1771}]",NA,NA,static/audio/turtle.wav,NA,3,NA,NA,NA,NA,NA,NA,NA,NA,NA,NA,NA,NA,NA,NA,NA,NA,NA,NA,NA,NA,NA,NA,NA,NA,NA
audio-test,4,11222,0.0-4.0,voc_e2,11837,"[{""event"":""fullscreenenter"",""trial"":1,""time"":1771},{""event"":""fullscreenenter"",""trial"":1,""time"":1771}]",NA,NA,static/audio/shark.wav,NA,2,NA,NA,NA,NA,NA,NA,NA,NA,NA,NA,NA,NA,NA,NA,NA,NA,NA,NA,NA,NA,NA,NA,NA,NA,NA
audio-instructions,5,18639,0.0-5.0-0.0,voc_e2,11837,"[{""event"":""fullscreenenter"",""trial"":1,""time"":1771},{""event"":""fullscreenenter"",""trial"":1,""time"":1771}]",NA,1627.0000000000073,static/audio/instructions1.wav,NA,0,NA,NA,NA,NA,NA,NA,NA,NA,NA,NA,NA,NA,NA,NA,NA,NA,NA,NA,NA,NA,NA,NA,NA,NA,NA
audio-instructions,6,31465,0.0-5.0-1.0,voc_e2,11837,"[{""event"":""fullscreenenter"",""trial"":1,""time"":1771},{""event"":""fullscreenenter"",""trial"":1,""time"":1771}]",NA,6083,static/audio/instructions2.wav,NA,0,NA,NA,NA,NA,NA,NA,NA,NA,NA,NA,NA,NA,NA,NA,NA,NA,NA,NA,NA,NA,NA,NA,NA,NA,NA
audio-instructions,7,38152,0.0-5.0-2.0,voc_e2,11837,"[{""event"":""fullscreenenter"",""trial"":1,""time"":1771},{""event"":""fullscreenenter"",""trial"":1,""time"":1771}]",NA,881,static/audio/instructions3.wav,NA,0,NA,NA,NA,NA,NA,NA,NA,NA,NA,NA,NA,NA,NA,NA,NA,NA,NA,NA,NA,NA,NA,NA,NA,NA,NA
audio-instructions,8,51897,0.0-5.0-3.0,voc_e2,11837,"[{""event"":""fullscreenenter"",""trial"":1,""time"":1771},{""event"":""fullscreenenter"",""trial"":1,""time"":1771}]",NA,518,static/audio/instructions4.wav,NA,0,NA,NA,NA,NA,NA,NA,NA,NA,NA,NA,NA,NA,NA,NA,NA,NA,NA,NA,NA,NA,NA,NA,NA,NA,NA
audio-instructions,9,62156,0.0-5.0-4.0,voc_e2,11837,"[{""event"":""fullscreenenter"",""trial"":1,""time"":1771},{""event"":""fullscreenenter"",""trial"":1,""time"":1771}]",NA,870,static/audio/instructions5.wav,NA,0,NA,NA,NA,NA,NA,NA,NA,NA,NA,NA,NA,NA,NA,NA,NA,NA,NA,NA,NA,NA,NA,NA,NA,NA,NA
fcp-practice,10,64671,0.0-5.0-5.0-0.0,voc_e2,11837,"[{""event"":""fullscreenenter"",""trial"":1,""time"":1771},{""event"":""fullscreenenter"",""trial"":1,""time"":1771}]",NA,NA,NA,NA,NA,NA,#EDC948,#46d3c8,10,0,1,null,null,null,37,1,1007,10,1,practice,NA,NA,NA,NA,NA,NA,NA,NA,NA,NA
fcp-practice,11,66606,0.0-5.0-5.0-1.0,voc_e2,11837,"[{""event"":""fullscreenenter"",""trial"":1,""time"":1771},{""event"":""fullscreenenter"",""trial"":1,""time"":1771}]",NA,NA,NA,NA,NA,NA,#EDC948,#46d3c8,10,0,1,null,null,null,37,1,426,10,1,practice,NA,NA,NA,NA,NA,NA,NA,NA,NA,NA
fcp-practice,12,68158,0.0-5.0-5.0-2.0,voc_e2,11837,"[{""event"":""fullscreenenter"",""trial"":1,""time"":1771},{""event"":""fullscreenenter"",""trial"":1,""time"":1771}]",NA,NA,NA,NA,NA,NA,#EDC948,#46d3c8,0,10,1,null,null,null,37,1,46.99999999998545,0,1,practice,NA,NA,NA,NA,NA,NA,NA,NA,NA,NA
fcp-practice,13,69904,0.0-5.0-5.0-3.0,voc_e2,11837,"[{""event"":""fullscreenenter"",""trial"":1,""time"":1771},{""event"":""fullscreenenter"",""trial"":1,""time"":1771}]",NA,NA,NA,NA,NA,NA,#EDC948,#46d3c8,10,0,1,null,null,null,37,1,240,10,1,practice,NA,NA,NA,NA,NA,NA,NA,NA,NA,NA
fcp-practice,14,71772,0.0-5.0-5.0-4.0,voc_e2,11837,"[{""event"":""fullscreenenter"",""trial"":1,""time"":1771},{""event"":""fullscreenenter"",""trial"":1,""time"":1771}]",NA,NA,NA,NA,NA,NA,#EDC948,#46d3c8,10,0,1,null,null,null,37,1,360,10,1,practice,NA,NA,NA,NA,NA,NA,NA,NA,NA,NA
audio-instructions,15,90417,0.0-5.0-6.0,voc_e2,11837,"[{""event"":""fullscreenenter"",""trial"":1,""time"":1771},{""event"":""fullscreenenter"",""trial"":1,""time"":1771}]",NA,635,static/audio/instructions6.wav,NA,0,NA,NA,NA,NA,NA,NA,NA,NA,NA,NA,NA,NA,NA,NA,NA,NA,NA,NA,NA,NA,NA,NA,NA,NA,NA
audio-instructions,16,110687,0.0-5.0-7.0,voc_e2,11837,"[{""event"":""fullscreenenter"",""trial"":1,""time"":1771},{""event"":""fullscreenenter"",""trial"":1,""time"":1771}]",NA,1064.9999999999854,static/audio/instructions7.wav,NA,0,NA,NA,NA,NA,NA,NA,NA,NA,NA,NA,NA,NA,NA,NA,NA,NA,NA,NA,NA,NA,NA,NA,NA,NA,NA
audio-instructions,17,120650,0.0-5.0-8.0,voc_e2,11837,"[{""event"":""fullscreenenter"",""trial"":1,""time"":1771},{""event"":""fullscreenenter"",""trial"":1,""time"":1771}]",NA,489,static/audio/instructions8.wav,NA,0,NA,NA,NA,NA,NA,NA,NA,NA,NA,NA,NA,NA,NA,NA,NA,NA,NA,NA,NA,NA,NA,NA,NA,NA,NA
fcp-comprehension,18,133882,0.0-5.0-9.0,voc_e2,11837,"[{""event"":""fullscreenenter"",""trial"":1,""time"":1771},{""event"":""fullscreenenter"",""trial"":1,""time"":1771}]",NA,13229,NA,NA,NA,NA,NA,NA,NA,NA,NA,NA,NA,NA,NA,NA,NA,NA,NA,NA,"true,true",0,NA,NA,NA,NA,NA,NA,NA,NA
audio-instructions,19,140009,0.0-6.0-0.0,voc_e2,11837,"[{""event"":""fullscreenenter"",""trial"":1,""time"":1771},{""event"":""fullscreenenter"",""trial"":1,""time"":1771}]",NA,574,static/audio/instructions9.wav,NA,0,NA,NA,NA,NA,NA,NA,NA,NA,NA,NA,NA,NA,NA,NA,NA,NA,NA,NA,NA,NA,NA,NA,NA,NA,NA
audio-instructions,20,152635,0.0-6.0-1.0,voc_e2,11837,"[{""event"":""fullscreenenter"",""trial"":1,""time"":1771},{""event"":""fullscreenenter"",""trial"":1,""time"":1771}]",NA,508,static/audio/instructions10.wav,NA,0,NA,NA,NA,NA,NA,NA,NA,NA,NA,NA,NA,NA,NA,NA,NA,NA,NA,NA,NA,NA,NA,NA,NA,NA,NA
fcp-trial,21,163796,0.0-6.0-2.0,voc_e2,11837,"[{""event"":""fullscreenenter"",""trial"":1,""time"":1771},{""event"":""fullscreenenter"",""trial"":1,""time"":1771}]",NA,NA,NA,NA,NA,0,#EDC948,#46d3c8,10,10,1,38,1,6609,39,0,3041,10,0,practice,NA,NA,NA,NA,NA,NA,NA,NA,NA,NA
audio-instructions,22,175229,0.0-6.0-3.0,voc_e2,11837,"[{""event"":""fullscreenenter"",""trial"":1,""time"":1771},{""event"":""fullscreenenter"",""trial"":1,""time"":1771}]",NA,416,static/audio/instructions11.wav,NA,0,NA,NA,NA,NA,NA,NA,NA,NA,NA,NA,NA,NA,NA,NA,NA,NA,NA,NA,NA,NA,NA,NA,NA,NA,NA
fcp-trial,23,178613,0.0-6.0-4.0,voc_e2,11837,"[{""event"":""fullscreenenter"",""trial"":1,""time"":1771},{""event"":""fullscreenenter"",""trial"":1,""time"":1771}]",NA,NA,NA,NA,NA,6,#EDC948,#46d3c8,10,10,1,40,0,739,39,0,1135,10,0,practice,NA,NA,NA,NA,NA,NA,NA,NA,NA,NA
audio-instructions,24,197905,0.0-6.0-5.0,voc_e2,11837,"[{""event"":""fullscreenenter"",""trial"":1,""time"":1771},{""event"":""fullscreenenter"",""trial"":1,""time"":1771}]",NA,597.0000000000291,static/audio/instructions12.wav,NA,0,NA,NA,NA,NA,NA,NA,NA,NA,NA,NA,NA,NA,NA,NA,NA,NA,NA,NA,NA,NA,NA,NA,NA,NA,NA
audio-instructions,25,206081,0.0-6.0-6.0,voc_e2,11837,"[{""event"":""fullscreenenter"",""trial"":1,""time"":1771},{""event"":""fullscreenenter"",""trial"":1,""time"":1771}]",NA,579,static/audio/instructions13.wav,NA,0,NA,NA,NA,NA,NA,NA,NA,NA,NA,NA,NA,NA,NA,NA,NA,NA,NA,NA,NA,NA,NA,NA,NA,NA,NA
audio-instructions,26,215142,0.0-6.0-7.0,voc_e2,11837,"[{""event"":""fullscreenenter"",""trial"":1,""time"":1771},{""event"":""fullscreenenter"",""trial"":1,""time"":1771}]",NA,608.0000000000291,static/audio/instructions14.wav,NA,0,NA,NA,NA,NA,NA,NA,NA,NA,NA,NA,NA,NA,NA,NA,NA,NA,NA,NA,NA,NA,NA,NA,NA,NA,NA
audio-instructions,27,222388,0.0-7.0-0.0,voc_e2,11837,"[{""event"":""fullscreenenter"",""trial"":1,""time"":1771},{""event"":""fullscreenenter"",""trial"":1,""time"":1771}]",NA,334,static/audio/instructions15.wav,NA,0,NA,NA,NA,NA,NA,NA,NA,NA,NA,NA,NA,NA,NA,NA,NA,NA,NA,NA,NA,NA,NA,NA,NA,NA,NA
audio-instructions,28,229587,0.0-7.0-1.0,voc_e2,11837,"[{""event"":""fullscreenenter"",""trial"":1,""time"":1771},{""event"":""fullscreenenter"",""trial"":1,""time"":1771}]",NA,371,static/audio/instructions16.wav,NA,0,NA,NA,NA,NA,NA,NA,NA,NA,NA,NA,NA,NA,NA,NA,NA,NA,NA,NA,NA,NA,NA,NA,NA,NA,NA
audio-instructions,29,239046,0.0-7.0-2.0,voc_e2,11837,"[{""event"":""fullscreenenter"",""trial"":1,""time"":1771},{""event"":""fullscreenenter"",""trial"":1,""time"":1771}]",NA,1778,static/audio/instructions17.wav,NA,0,NA,NA,NA,NA,NA,NA,NA,NA,NA,NA,NA,NA,NA,NA,NA,NA,NA,NA,NA,NA,NA,NA,NA,NA,NA
audio-instructions,30,248413,0.0-7.0-3.0,voc_e2,11837,"[{""event"":""fullscreenenter"",""trial"":1,""time"":1771},{""event"":""fullscreenenter"",""trial"":1,""time"":1771}]",NA,1602.0000000000582,static/audio/instructions18.wav,NA,0,NA,NA,NA,NA,NA,NA,NA,NA,NA,NA,NA,NA,NA,NA,NA,NA,NA,NA,NA,NA,NA,NA,NA,NA,NA
audio-instructions,31,261835,0.0-7.0-4.0,voc_e2,11837,"[{""event"":""fullscreenenter"",""trial"":1,""time"":1771},{""event"":""fullscreenenter"",""trial"":1,""time"":1771}]",NA,6678,static/audio/instructions19.wav,NA,0,NA,NA,NA,NA,NA,NA,NA,NA,NA,NA,NA,NA,NA,NA,NA,NA,NA,NA,NA,NA,NA,NA,NA,NA,NA
fcp-comprehension,32,280348,0.0-7.0-5.0,voc_e2,11837,"[{""event"":""fullscreenenter"",""trial"":1,""time"":1771},{""event"":""fullscreenenter"",""trial"":1,""time"":1771}]",NA,18510,NA,NA,NA,NA,NA,NA,NA,NA,NA,NA,NA,NA,NA,NA,NA,NA,NA,NA,"false,false,false,true",0,NA,NA,NA,NA,NA,NA,NA,NA
audio-instructions,33,291306,0.0-8.0,voc_e2,11837,"[{""event"":""fullscreenenter"",""trial"":1,""time"":1771},{""event"":""fullscreenenter"",""trial"":1,""time"":1771}]",NA,1732,static/audio/ready.wav,NA,0,NA,NA,NA,NA,NA,NA,NA,NA,NA,NA,NA,NA,NA,NA,NA,NA,NA,NA,NA,NA,NA,NA,NA,NA,NA
fcp-trial,34,297814,0.0-9.0-0.0,voc_e2,11837,"[{""event"":""fullscreenenter"",""trial"":1,""time"":1771},{""event"":""fullscreenenter"",""trial"":1,""time"":1771}]",NA,NA,NA,NA,NA,1,#3386FF,#D89F1C,0,10,0,40,0,3791,37,1,1205.9999999999418,0,0,experiment,NA,NA,0,0.1,0.9,1,0,1,1,NA
fcp-trial,35,302068,0.0-10.0-0.0,voc_e2,11837,"[{""event"":""fullscreenenter"",""trial"":1,""time"":1771},{""event"":""fullscreenenter"",""trial"":1,""time"":1771}]",NA,NA,NA,NA,NA,3,#741CD8,#D8271C,10,10,1,38,1,1937,39,0,805.0000000000582,10,0,experiment,NA,NA,2,0.5,0.5,4,5,2,1,NA
fcp-trial,36,307319,0.0-11.0-0.0,voc_e2,11837,"[{""event"":""fullscreenenter"",""trial"":1,""time"":1771},{""event"":""fullscreenenter"",""trial"":1,""time"":1771}]",NA,NA,NA,NA,NA,5,#D89F1C,#3386FF,0,0,1,40,0,2907,39,0,832,0,0,experiment,NA,NA,0,0.9,0.1,0,1,3,1,NA
fcp-trial,37,310917,0.0-12.0-0.0,voc_e2,11837,"[{""event"":""fullscreenenter"",""trial"":1,""time"":1771},{""event"":""fullscreenenter"",""trial"":1,""time"":1771}]",NA,NA,NA,NA,NA,3,#FA92F8,#1CD855,10,0,0,38,1,1766,37,1,322,10,0,experiment,NA,NA,1,0.3,0.7,3,2,4,1,NA
fcp-trial,38,314258,0.0-13.0-0.0,voc_e2,11837,"[{""event"":""fullscreenenter"",""trial"":1,""time"":1771},{""event"":""fullscreenenter"",""trial"":1,""time"":1771}]",NA,NA,NA,NA,NA,5,#741CD8,#D8271C,0,10,1,40,0,1023,39,0,808,10,0,experiment,NA,NA,2,0.5,0.5,4,5,5,1,NA
fcp-trial,39,318095,0.0-14.0-0.0,voc_e2,11837,"[{""event"":""fullscreenenter"",""trial"":1,""time"":1771},{""event"":""fullscreenenter"",""trial"":1,""time"":1771}]",NA,NA,NA,NA,NA,2,#3386FF,#D89F1C,0,10,0,38,1,1794.9999999999418,37,1,529,0,0,experiment,NA,NA,0,0.1,0.9,1,0,6,1,NA
fcp-trial,40,321731,0.0-15.0-0.0,voc_e2,11837,"[{""event"":""fullscreenenter"",""trial"":1,""time"":1771},{""event"":""fullscreenenter"",""trial"":1,""time"":1771}]",NA,NA,NA,NA,NA,1,#741CD8,#D8271C,10,0,1,40,0,1481,37,1,642,10,1,experiment,NA,NA,2,0.5,0.5,4,5,7,1,NA
fcp-trial,41,325884,0.0-16.0-0.0,voc_e2,11837,"[{""event"":""fullscreenenter"",""trial"":1,""time"":1771},{""event"":""fullscreenenter"",""trial"":1,""time"":1771}]",NA,NA,NA,NA,NA,6,#FA92F8,#1CD855,0,0,0,38,1,1558,37,1,1085,0,0,experiment,NA,NA,1,0.3,0.7,3,2,8,1,NA
fcp-trial,42,329437,0.0-17.0-0.0,voc_e2,11837,"[{""event"":""fullscreenenter"",""trial"":1,""time"":1771},{""event"":""fullscreenenter"",""trial"":1,""time"":1771}]",NA,NA,NA,NA,NA,5,#FA92F8,#1CD855,0,10,0,40,0,1075.9999999999418,37,1,952.9999999999418,0,0,experiment,NA,NA,1,0.3,0.7,3,2,9,1,NA
fcp-trial,43,333660,0.0-18.0-0.0,voc_e2,11837,"[{""event"":""fullscreenenter"",""trial"":1,""time"":1771},{""event"":""fullscreenenter"",""trial"":1,""time"":1771}]",NA,NA,NA,NA,NA,2,#1CD855,#FA92F8,10,0,1,38,1,1279,37,1,1434,10,1,experiment,NA,NA,1,0.7,0.3,2,3,10,1,NA
fcp-trial,44,337555,0.0-19.0-0.0,voc_e2,11837,"[{""event"":""fullscreenenter"",""trial"":1,""time"":1771},{""event"":""fullscreenenter"",""trial"":1,""time"":1771}]",NA,NA,NA,NA,NA,0,#D89F1C,#3386FF,0,0,1,40,0,1635,37,1,738,0,1,experiment,NA,NA,0,0.9,0.1,0,1,11,1,NA
fcp-trial,45,341230,0.0-20.0-0.0,voc_e2,11837,"[{""event"":""fullscreenenter"",""trial"":1,""time"":1771},{""event"":""fullscreenenter"",""trial"":1,""time"":1771}]",NA,NA,NA,NA,NA,2,#741CD8,#D8271C,0,10,1,38,1,1704,39,0,451,10,0,experiment,NA,NA,2,0.5,0.5,4,5,12,1,NA
fcp-trial,46,343944,0.0-21.0-0.0,voc_e2,11837,"[{""event"":""fullscreenenter"",""trial"":1,""time"":1771},{""event"":""fullscreenenter"",""trial"":1,""time"":1771}]",NA,NA,NA,NA,NA,4,#D8271C,#741CD8,10,10,0,38,1,811,37,1,383.0000000000582,10,0,experiment,NA,NA,2,0.5,0.5,5,4,13,1,NA
fcp-trial,47,347832,0.0-22.0-0.0,voc_e2,11837,"[{""event"":""fullscreenenter"",""trial"":1,""time"":1771},{""event"":""fullscreenenter"",""trial"":1,""time"":1771}]",NA,NA,NA,NA,NA,0,#FA92F8,#1CD855,0,10,0,38,1,2090,39,0,271,10,1,experiment,NA,NA,1,0.3,0.7,3,2,14,1,NA
fcp-trial,48,352147,0.0-23.0-0.0,voc_e2,11837,"[{""event"":""fullscreenenter"",""trial"":1,""time"":1771},{""event"":""fullscreenenter"",""trial"":1,""time"":1771}]",NA,NA,NA,NA,NA,3,#3386FF,#D89F1C,0,10,0,40,0,1971,39,0,820,10,1,experiment,NA,NA,0,0.1,0.9,1,0,15,1,NA
fcp-trial,49,355511,0.0-24.0-0.0,voc_e2,11837,"[{""event"":""fullscreenenter"",""trial"":1,""time"":1771},{""event"":""fullscreenenter"",""trial"":1,""time"":1771}]",NA,NA,NA,NA,NA,6,#D8271C,#741CD8,10,0,0,38,1,1358,39,0,494.9999999999418,0,1,experiment,NA,NA,2,0.5,0.5,5,4,16,1,NA
fcp-trial,50,360008,0.0-25.0-0.0,voc_e2,11837,"[{""event"":""fullscreenenter"",""trial"":1,""time"":1771},{""event"":""fullscreenenter"",""trial"":1,""time"":1771}]",NA,NA,NA,NA,NA,4,#3386FF,#D89F1C,0,10,0,38,1,2309.000000000058,37,1,669,0,0,experiment,NA,NA,0,0.1,0.9,1,0,17,1,NA
fcp-trial,51,366147,0.0-26.0-0.0,voc_e2,11837,"[{""event"":""fullscreenenter"",""trial"":1,""time"":1771},{""event"":""fullscreenenter"",""trial"":1,""time"":1771}]",NA,NA,NA,NA,NA,0,#D8271C,#741CD8,0,10,0,38,1,4025.999999999942,39,0,594,10,1,experiment,NA,NA,2,0.5,0.5,5,4,18,1,NA
fcp-trial,52,369595,0.0-27.0-0.0,voc_e2,11837,"[{""event"":""fullscreenenter"",""trial"":1,""time"":1771},{""event"":""fullscreenenter"",""trial"":1,""time"":1771}]",NA,NA,NA,NA,NA,1,#1CD855,#FA92F8,0,0,1,38,1,1419,37,1,520,0,1,experiment,NA,NA,1,0.7,0.3,2,3,19,1,NA
fcp-trial,53,372766,0.0-28.0-0.0,voc_e2,11837,"[{""event"":""fullscreenenter"",""trial"":1,""time"":1771},{""event"":""fullscreenenter"",""trial"":1,""time"":1771}]",NA,NA,NA,NA,NA,4,#1CD855,#FA92F8,10,0,1,38,1,1231,39,0,429,0,0,experiment,NA,NA,1,0.7,0.3,2,3,20,1,NA
fcp-trial,54,375799,0.0-29.0-0.0,voc_e2,11837,"[{""event"":""fullscreenenter"",""trial"":1,""time"":1771},{""event"":""fullscreenenter"",""trial"":1,""time"":1771}]",NA,NA,NA,NA,NA,6,#3386FF,#D89F1C,0,10,0,38,1,1100,37,1,412,0,0,experiment,NA,NA,0,0.1,0.9,1,0,21,1,NA
fcp-trial,55,378321,0.0-30.0-0.0,voc_e2,11837,"[{""event"":""fullscreenenter"",""trial"":1,""time"":1771},{""event"":""fullscreenenter"",""trial"":1,""time"":1771}]",NA,NA,NA,NA,NA,4,#FA92F8,#1CD855,10,10,0,38,1,685.9999999999418,39,0,317,10,1,experiment,NA,NA,1,0.3,0.7,3,2,22,1,NA
fcp-trial,56,382381,0.0-31.0-0.0,voc_e2,11837,"[{""event"":""fullscreenenter"",""trial"":1,""time"":1771},{""event"":""fullscreenenter"",""trial"":1,""time"":1771}]",NA,NA,NA,NA,NA,1,#D89F1C,#3386FF,10,0,1,38,1,1582,37,1,967,10,1,experiment,NA,NA,0,0.9,0.1,0,1,23,1,NA
fcp-trial,57,385371,0.0-32.0-0.0,voc_e2,11837,"[{""event"":""fullscreenenter"",""trial"":1,""time"":1771},{""event"":""fullscreenenter"",""trial"":1,""time"":1771}]",NA,NA,NA,NA,NA,5,#1CD855,#FA92F8,10,0,1,38,1,1031.9999999999418,39,0,447,0,0,experiment,NA,NA,1,0.7,0.3,2,3,24,1,NA
fcp-trial,58,387897,0.0-33.0-0.0,voc_e2,11837,"[{""event"":""fullscreenenter"",""trial"":1,""time"":1771},{""event"":""fullscreenenter"",""trial"":1,""time"":1771}]",NA,NA,NA,NA,NA,1,#1CD855,#FA92F8,10,0,1,38,1,627,37,1,382,10,1,experiment,NA,NA,1,0.7,0.3,2,3,25,1,NA
fcp-trial,59,390832,0.0-34.0-0.0,voc_e2,11837,"[{""event"":""fullscreenenter"",""trial"":1,""time"":1771},{""event"":""fullscreenenter"",""trial"":1,""time"":1771}]",NA,NA,NA,NA,NA,6,#3386FF,#D89F1C,0,10,0,38,1,713,39,0,691.9999999999418,10,1,experiment,NA,NA,0,0.1,0.9,1,0,26,1,NA
fcp-trial,60,394165,0.0-35.0-0.0,voc_e2,11837,"[{""event"":""fullscreenenter"",""trial"":1,""time"":1771},{""event"":""fullscreenenter"",""trial"":1,""time"":1771}]",NA,NA,NA,NA,NA,5,#D89F1C,#3386FF,10,0,1,40,0,1368,39,0,457.0000000000582,0,0,experiment,NA,NA,0,0.9,0.1,0,1,27,1,NA
fcp-trial,61,397002,0.0-36.0-0.0,voc_e2,11837,"[{""event"":""fullscreenenter"",""trial"":1,""time"":1771},{""event"":""fullscreenenter"",""trial"":1,""time"":1771}]",NA,NA,NA,NA,NA,4,#3386FF,#D89F1C,10,10,0,38,1,966,39,0,351,10,1,experiment,NA,NA,0,0.1,0.9,1,0,28,1,NA
fcp-trial,62,399645,0.0-37.0-0.0,voc_e2,11837,"[{""event"":""fullscreenenter"",""trial"":1,""time"":1771},{""event"":""fullscreenenter"",""trial"":1,""time"":1771}]",NA,NA,NA,NA,NA,4,#741CD8,#D8271C,0,0,1,38,1,690.9999999999418,37,1,440,0,1,experiment,NA,NA,2,0.5,0.5,4,5,29,1,NA
fcp-trial,63,402010,0.0-38.0-0.0,voc_e2,11837,"[{""event"":""fullscreenenter"",""trial"":1,""time"":1771},{""event"":""fullscreenenter"",""trial"":1,""time"":1771}]",NA,NA,NA,NA,NA,2,#FA92F8,#1CD855,0,10,0,38,1,518.9999999999418,39,0,337,10,1,experiment,NA,NA,1,0.3,0.7,3,2,30,1,NA
fcp-trial,64,404906,0.0-39.0-0.0,voc_e2,11837,"[{""event"":""fullscreenenter"",""trial"":1,""time"":1771},{""event"":""fullscreenenter"",""trial"":1,""time"":1771}]",NA,NA,NA,NA,NA,6,#741CD8,#D8271C,10,0,1,38,1,592,37,1,780,10,1,experiment,NA,NA,2,0.5,0.5,4,5,31,1,NA
fcp-trial,65,407682,0.0-40.0-0.0,voc_e2,11837,"[{""event"":""fullscreenenter"",""trial"":1,""time"":1771},{""event"":""fullscreenenter"",""trial"":1,""time"":1771}]",NA,NA,NA,NA,NA,3,#D8271C,#741CD8,10,0,0,38,1,554,39,0,709,0,1,experiment,NA,NA,2,0.5,0.5,5,4,32,1,NA
fcp-trial,66,411010,0.0-41.0-0.0,voc_e2,11837,"[{""event"":""fullscreenenter"",""trial"":1,""time"":1771},{""event"":""fullscreenenter"",""trial"":1,""time"":1771}]",NA,NA,NA,NA,NA,3,#D89F1C,#3386FF,0,0,1,38,1,652,37,1,1158.9999999999418,0,1,experiment,NA,NA,0,0.9,0.1,0,1,33,1,NA
fcp-trial,67,413520,0.0-42.0-0.0,voc_e2,11837,"[{""event"":""fullscreenenter"",""trial"":1,""time"":1771},{""event"":""fullscreenenter"",""trial"":1,""time"":1771}]",NA,NA,NA,NA,NA,6,#1CD855,#FA92F8,10,10,1,38,1,509,37,1,484,10,1,experiment,NA,NA,1,0.7,0.3,2,3,34,1,NA
fcp-trial,68,416061,0.0-43.0-0.0,voc_e2,11837,"[{""event"":""fullscreenenter"",""trial"":1,""time"":1771},{""event"":""fullscreenenter"",""trial"":1,""time"":1771}]",NA,NA,NA,NA,NA,2,#741CD8,#D8271C,10,10,1,38,1,635.9999999999418,39,0,395.9999999999418,10,0,experiment,NA,NA,2,0.5,0.5,4,5,35,1,NA
fcp-trial,69,418426,0.0-44.0-0.0,voc_e2,11837,"[{""event"":""fullscreenenter"",""trial"":1,""time"":1771},{""event"":""fullscreenenter"",""trial"":1,""time"":1771}]",NA,NA,NA,NA,NA,0,#1CD855,#FA92F8,10,0,1,38,1,368.0000000000582,37,1,488,10,1,experiment,NA,NA,1,0.7,0.3,2,3,36,1,NA
fcp-trial,70,420928,0.0-45.0-0.0,voc_e2,11837,"[{""event"":""fullscreenenter"",""trial"":1,""time"":1771},{""event"":""fullscreenenter"",""trial"":1,""time"":1771}]",NA,NA,NA,NA,NA,2,#3386FF,#D89F1C,0,10,0,38,1,584,39,0,405.0000000000582,10,1,experiment,NA,NA,0,0.1,0.9,1,0,37,1,NA
fcp-trial,71,423670,0.0-46.0-0.0,voc_e2,11837,"[{""event"":""fullscreenenter"",""trial"":1,""time"":1771},{""event"":""fullscreenenter"",""trial"":1,""time"":1771}]",NA,NA,NA,NA,NA,3,#FA92F8,#1CD855,0,10,0,38,1,708,39,0,511,10,1,experiment,NA,NA,1,0.3,0.7,3,2,38,1,NA
fcp-trial,72,426880,0.0-47.0-0.0,voc_e2,11837,"[{""event"":""fullscreenenter"",""trial"":1,""time"":1771},{""event"":""fullscreenenter"",""trial"":1,""time"":1771}]",NA,NA,NA,NA,NA,1,#741CD8,#D8271C,0,10,1,38,1,1155,39,0,532.0000000000582,10,0,experiment,NA,NA,2,0.5,0.5,4,5,39,1,NA
fcp-trial,73,430860,0.0-48.0-0.0,voc_e2,11837,"[{""event"":""fullscreenenter"",""trial"":1,""time"":1771},{""event"":""fullscreenenter"",""trial"":1,""time"":1771}]",NA,NA,NA,NA,NA,0,#D8271C,#741CD8,10,10,0,40,0,1223,39,0,1246,10,1,experiment,NA,NA,2,0.5,0.5,5,4,40,1,NA
fcp-trial,74,433973,0.0-49.0-0.0,voc_e2,11837,"[{""event"":""fullscreenenter"",""trial"":1,""time"":1771},{""event"":""fullscreenenter"",""trial"":1,""time"":1771}]",NA,NA,NA,NA,NA,0,#D89F1C,#3386FF,10,0,1,38,1,785.0000000000582,39,0,804.9999999999418,0,0,experiment,NA,NA,0,0.9,0.1,0,1,41,1,NA
fcp-trial,75,436519,0.0-50.0-0.0,voc_e2,11837,"[{""event"":""fullscreenenter"",""trial"":1,""time"":1771},{""event"":""fullscreenenter"",""trial"":1,""time"":1771}]",NA,NA,NA,NA,NA,5,#D8271C,#741CD8,0,10,0,38,1,430,37,1,603,0,0,experiment,NA,NA,2,0.5,0.5,5,4,42,1,NA
fcp-trial,76,439037,0.0-51.0-0.0,voc_e2,11837,"[{""event"":""fullscreenenter"",""trial"":1,""time"":1771},{""event"":""fullscreenenter"",""trial"":1,""time"":1771}]",NA,NA,NA,NA,NA,2,#1CD855,#FA92F8,10,0,1,38,1,650.0000000000582,37,1,357,10,1,experiment,NA,NA,1,0.7,0.3,2,3,43,1,NA
fcp-trial,77,442180,0.0-52.0-0.0,voc_e2,11837,"[{""event"":""fullscreenenter"",""trial"":1,""time"":1771},{""event"":""fullscreenenter"",""trial"":1,""time"":1771}]",NA,NA,NA,NA,NA,2,#3386FF,#D89F1C,10,10,0,38,1,550,37,1,1079.9999999999418,10,0,experiment,NA,NA,0,0.1,0.9,1,0,44,1,NA
fcp-trial,78,445018,0.0-53.0-0.0,voc_e2,11837,"[{""event"":""fullscreenenter"",""trial"":1,""time"":1771},{""event"":""fullscreenenter"",""trial"":1,""time"":1771}]",NA,NA,NA,NA,NA,0,#1CD855,#FA92F8,0,0,1,38,1,538.0000000000582,37,1,786,0,1,experiment,NA,NA,1,0.7,0.3,2,3,45,1,NA
fcp-trial,79,447260,0.0-54.0-0.0,voc_e2,11837,"[{""event"":""fullscreenenter"",""trial"":1,""time"":1771},{""event"":""fullscreenenter"",""trial"":1,""time"":1771}]",NA,NA,NA,NA,NA,6,#FA92F8,#1CD855,10,0,0,38,1,397,39,0,333,0,1,experiment,NA,NA,1,0.3,0.7,3,2,46,2,NA
fcp-trial,80,449752,0.0-55.0-0.0,voc_e2,11837,"[{""event"":""fullscreenenter"",""trial"":1,""time"":1771},{""event"":""fullscreenenter"",""trial"":1,""time"":1771}]",NA,NA,NA,NA,NA,0,#D89F1C,#3386FF,10,0,1,38,1,475,37,1,508,10,1,experiment,NA,NA,0,0.9,0.1,0,1,47,2,NA
fcp-trial,81,452930,0.0-56.0-0.0,voc_e2,11837,"[{""event"":""fullscreenenter"",""trial"":1,""time"":1771},{""event"":""fullscreenenter"",""trial"":1,""time"":1771}]",NA,NA,NA,NA,NA,3,#1CD855,#FA92F8,10,10,1,38,1,443.9999999999418,37,1,1204,10,1,experiment,NA,NA,1,0.7,0.3,2,3,48,2,NA
fcp-trial,82,455406,0.0-57.0-0.0,voc_e2,11837,"[{""event"":""fullscreenenter"",""trial"":1,""time"":1771},{""event"":""fullscreenenter"",""trial"":1,""time"":1771}]",NA,NA,NA,NA,NA,2,#D8271C,#741CD8,0,10,0,38,1,541,39,0,423,10,1,experiment,NA,NA,2,0.5,0.5,5,4,49,2,NA
fcp-trial,83,457676,0.0-58.0-0.0,voc_e2,11837,"[{""event"":""fullscreenenter"",""trial"":1,""time"":1771},{""event"":""fullscreenenter"",""trial"":1,""time"":1771}]",NA,NA,NA,NA,NA,6,#D8271C,#741CD8,0,10,0,38,1,358,39,0,392,10,1,experiment,NA,NA,2,0.5,0.5,5,4,50,2,NA
fcp-trial,84,460713,0.0-59.0-0.0,voc_e2,11837,"[{""event"":""fullscreenenter"",""trial"":1,""time"":1771},{""event"":""fullscreenenter"",""trial"":1,""time"":1771}]",NA,NA,NA,NA,NA,3,#D89F1C,#3386FF,10,0,1,38,1,436,37,1,1090,10,1,experiment,NA,NA,0,0.9,0.1,0,1,51,2,NA
fcp-trial,85,463205,0.0-60.0-0.0,voc_e2,11837,"[{""event"":""fullscreenenter"",""trial"":1,""time"":1771},{""event"":""fullscreenenter"",""trial"":1,""time"":1771}]",NA,NA,NA,NA,NA,4,#1CD855,#FA92F8,10,10,1,38,1,551,37,1,432,10,1,experiment,NA,NA,1,0.7,0.3,2,3,52,2,NA
fcp-trial,86,468670,0.0-61.0-0.0,voc_e2,11837,"[{""event"":""fullscreenenter"",""trial"":1,""time"":1771},{""event"":""fullscreenenter"",""trial"":1,""time"":1771}]",NA,NA,NA,NA,NA,3,#741CD8,#D8271C,10,0,1,38,1,3254.000000000058,39,0,689,0,0,experiment,NA,NA,2,0.5,0.5,4,5,53,2,NA
fcp-trial,87,471807,0.0-62.0-0.0,voc_e2,11837,"[{""event"":""fullscreenenter"",""trial"":1,""time"":1771},{""event"":""fullscreenenter"",""trial"":1,""time"":1771}]",NA,NA,NA,NA,NA,1,#741CD8,#D8271C,0,0,1,38,1,286,39,0,1340,0,0,experiment,NA,NA,2,0.5,0.5,4,5,54,2,NA
fcp-trial,88,474357,0.0-63.0-0.0,voc_e2,11837,"[{""event"":""fullscreenenter"",""trial"":1,""time"":1771},{""event"":""fullscreenenter"",""trial"":1,""time"":1771}]",NA,NA,NA,NA,NA,4,#741CD8,#D8271C,10,10,1,38,1,533,37,1,505.9999999999418,10,1,experiment,NA,NA,2,0.5,0.5,4,5,55,2,NA
fcp-trial,89,478022,0.0-64.0-0.0,voc_e2,11837,"[{""event"":""fullscreenenter"",""trial"":1,""time"":1771},{""event"":""fullscreenenter"",""trial"":1,""time"":1771}]",NA,NA,NA,NA,NA,4,#3386FF,#D89F1C,0,10,0,38,1,409,39,0,1745,10,1,experiment,NA,NA,0,0.1,0.9,1,0,56,2,NA
fcp-trial,90,481124,0.0-65.0-0.0,voc_e2,11837,"[{""event"":""fullscreenenter"",""trial"":1,""time"":1771},{""event"":""fullscreenenter"",""trial"":1,""time"":1771}]",NA,NA,NA,NA,NA,5,#FA92F8,#1CD855,0,10,0,40,0,992,39,0,598.9999999999418,10,1,experiment,NA,NA,1,0.3,0.7,3,2,57,2,NA
fcp-trial,91,484179,0.0-66.0-0.0,voc_e2,11837,"[{""event"":""fullscreenenter"",""trial"":1,""time"":1771},{""event"":""fullscreenenter"",""trial"":1,""time"":1771}]",NA,NA,NA,NA,NA,5,#3386FF,#D89F1C,0,10,0,40,0,1043,39,0,490,10,1,experiment,NA,NA,0,0.1,0.9,1,0,58,2,NA
fcp-trial,92,488112,0.0-67.0-0.0,voc_e2,11837,"[{""event"":""fullscreenenter"",""trial"":1,""time"":1771},{""event"":""fullscreenenter"",""trial"":1,""time"":1771}]",NA,NA,NA,NA,NA,1,#1CD855,#FA92F8,0,0,1,38,1,2140,37,1,280.0000000000582,0,1,experiment,NA,NA,1,0.7,0.3,2,3,59,2,NA
fcp-trial,93,490960,0.0-68.0-0.0,voc_e2,11837,"[{""event"":""fullscreenenter"",""trial"":1,""time"":1771},{""event"":""fullscreenenter"",""trial"":1,""time"":1771}]",NA,NA,NA,NA,NA,0,#741CD8,#D8271C,0,10,1,38,1,936,39,0,400,10,0,experiment,NA,NA,2,0.5,0.5,4,5,60,2,NA
fcp-trial,94,494077,0.0-69.0-0.0,voc_e2,11837,"[{""event"":""fullscreenenter"",""trial"":1,""time"":1771},{""event"":""fullscreenenter"",""trial"":1,""time"":1771}]",NA,NA,NA,NA,NA,1,#D89F1C,#3386FF,10,0,1,38,1,962,37,1,644,10,1,experiment,NA,NA,0,0.9,0.1,0,1,61,2,NA
fcp-trial,95,497786,0.0-70.0-0.0,voc_e2,11837,"[{""event"":""fullscreenenter"",""trial"":1,""time"":1771},{""event"":""fullscreenenter"",""trial"":1,""time"":1771}]",NA,NA,NA,NA,NA,5,#D8271C,#741CD8,10,0,0,40,0,1734.0000000000582,37,1,463,10,0,experiment,NA,NA,2,0.5,0.5,5,4,62,2,NA
fcp-trial,96,501022,0.0-71.0-0.0,voc_e2,11837,"[{""event"":""fullscreenenter"",""trial"":1,""time"":1771},{""event"":""fullscreenenter"",""trial"":1,""time"":1771}]",NA,NA,NA,NA,NA,6,#3386FF,#D89F1C,0,10,0,40,0,1145.0000000000582,37,1,581,0,0,experiment,NA,NA,0,0.1,0.9,1,0,63,2,NA
fcp-trial,97,504420,0.0-72.0-0.0,voc_e2,11837,"[{""event"":""fullscreenenter"",""trial"":1,""time"":1771},{""event"":""fullscreenenter"",""trial"":1,""time"":1771}]",NA,NA,NA,NA,NA,5,#D89F1C,#3386FF,0,0,1,40,0,1312.0000000000582,37,1,573,0,1,experiment,NA,NA,0,0.9,0.1,0,1,64,2,NA
fcp-trial,98,507794,0.0-73.0-0.0,voc_e2,11837,"[{""event"":""fullscreenenter"",""trial"":1,""time"":1771},{""event"":""fullscreenenter"",""trial"":1,""time"":1771}]",NA,NA,NA,NA,NA,4,#FA92F8,#1CD855,10,0,0,40,0,1520.9999999999418,39,0,341.9999999999418,0,1,experiment,NA,NA,1,0.3,0.7,3,2,65,2,NA
fcp-trial,99,511899,0.0-74.0-0.0,voc_e2,11837,"[{""event"":""fullscreenenter"",""trial"":1,""time"":1771},{""event"":""fullscreenenter"",""trial"":1,""time"":1771}]",NA,NA,NA,NA,NA,1,#D8271C,#741CD8,0,0,0,38,1,1080,37,1,1513,0,0,experiment,NA,NA,2,0.5,0.5,5,4,66,2,NA
fcp-trial,100,514971,0.0-75.0-0.0,voc_e2,11837,"[{""event"":""fullscreenenter"",""trial"":1,""time"":1771},{""event"":""fullscreenenter"",""trial"":1,""time"":1771}]",NA,NA,NA,NA,NA,6,#D8271C,#741CD8,10,10,0,38,1,823,37,1,740,10,0,experiment,NA,NA,2,0.5,0.5,5,4,67,2,NA
fcp-trial,101,517823,0.0-76.0-0.0,voc_e2,11837,"[{""event"":""fullscreenenter"",""trial"":1,""time"":1771},{""event"":""fullscreenenter"",""trial"":1,""time"":1771}]",NA,NA,NA,NA,NA,2,#D89F1C,#3386FF,10,0,1,38,1,572,37,1,757.9999999998836,10,1,experiment,NA,NA,0,0.9,0.1,0,1,68,2,NA
fcp-trial,102,520531,0.0-77.0-0.0,voc_e2,11837,"[{""event"":""fullscreenenter"",""trial"":1,""time"":1771},{""event"":""fullscreenenter"",""trial"":1,""time"":1771}]",NA,NA,NA,NA,NA,3,#741CD8,#D8271C,10,10,1,38,1,564,39,0,624,10,0,experiment,NA,NA,2,0.5,0.5,4,5,69,2,NA
fcp-trial,103,523462,0.0-78.0-0.0,voc_e2,11837,"[{""event"":""fullscreenenter"",""trial"":1,""time"":1771},{""event"":""fullscreenenter"",""trial"":1,""time"":1771}]",NA,NA,NA,NA,NA,0,#FA92F8,#1CD855,0,10,0,38,1,759,39,0,658,10,1,experiment,NA,NA,1,0.3,0.7,3,2,70,2,NA
fcp-trial,104,526177,0.0-79.0-0.0,voc_e2,11837,"[{""event"":""fullscreenenter"",""trial"":1,""time"":1771},{""event"":""fullscreenenter"",""trial"":1,""time"":1771}]",NA,NA,NA,NA,NA,6,#FA92F8,#1CD855,0,10,0,38,1,729.9999999998836,39,0,477,10,1,experiment,NA,NA,1,0.3,0.7,3,2,71,2,NA
fcp-trial,105,530688,0.0-80.0-0.0,voc_e2,11837,"[{""event"":""fullscreenenter"",""trial"":1,""time"":1771},{""event"":""fullscreenenter"",""trial"":1,""time"":1771}]",NA,NA,NA,NA,NA,6,#3386FF,#D89F1C,0,10,0,38,1,754,39,0,2236,10,1,experiment,NA,NA,0,0.1,0.9,1,0,72,2,NA
fcp-trial,106,533166,0.0-81.0-0.0,voc_e2,11837,"[{""event"":""fullscreenenter"",""trial"":1,""time"":1771},{""event"":""fullscreenenter"",""trial"":1,""time"":1771}]",NA,NA,NA,NA,NA,4,#D89F1C,#3386FF,10,0,1,38,1,622,37,1,345.0000000001164,10,1,experiment,NA,NA,0,0.9,0.1,0,1,73,2,NA
fcp-trial,107,536060,0.0-82.0-0.0,voc_e2,11837,"[{""event"":""fullscreenenter"",""trial"":1,""time"":1771},{""event"":""fullscreenenter"",""trial"":1,""time"":1771}]",NA,NA,NA,NA,NA,5,#D8271C,#741CD8,0,10,0,38,1,571,37,1,808.9999999998836,0,0,experiment,NA,NA,2,0.5,0.5,5,4,74,2,NA
fcp-trial,108,539164,0.0-83.0-0.0,voc_e2,11837,"[{""event"":""fullscreenenter"",""trial"":1,""time"":1771},{""event"":""fullscreenenter"",""trial"":1,""time"":1771}]",NA,NA,NA,NA,NA,1,#1CD855,#FA92F8,10,10,1,38,1,482,37,1,1113,10,1,experiment,NA,NA,1,0.7,0.3,2,3,75,2,NA
fcp-trial,109,542164,0.0-84.0-0.0,voc_e2,11837,"[{""event"":""fullscreenenter"",""trial"":1,""time"":1771},{""event"":""fullscreenenter"",""trial"":1,""time"":1771}]",NA,NA,NA,NA,NA,2,#D8271C,#741CD8,0,0,0,38,1,425,37,1,1066,0,0,experiment,NA,NA,2,0.5,0.5,5,4,76,2,NA
fcp-trial,110,544597,0.0-85.0-0.0,voc_e2,11837,"[{""event"":""fullscreenenter"",""trial"":1,""time"":1771},{""event"":""fullscreenenter"",""trial"":1,""time"":1771}]",NA,NA,NA,NA,NA,3,#FA92F8,#1CD855,10,10,0,38,1,498.0000000001164,39,0,424,10,1,experiment,NA,NA,1,0.3,0.7,3,2,77,2,NA
fcp-trial,111,547283,0.0-86.0-0.0,voc_e2,11837,"[{""event"":""fullscreenenter"",""trial"":1,""time"":1771},{""event"":""fullscreenenter"",""trial"":1,""time"":1771}]",NA,NA,NA,NA,NA,0,#D89F1C,#3386FF,0,0,1,38,1,551,39,0,626,0,0,experiment,NA,NA,0,0.9,0.1,0,1,78,2,NA
fcp-trial,112,550206,0.0-87.0-0.0,voc_e2,11837,"[{""event"":""fullscreenenter"",""trial"":1,""time"":1771},{""event"":""fullscreenenter"",""trial"":1,""time"":1771}]",NA,NA,NA,NA,NA,5,#1CD855,#FA92F8,0,10,1,38,1,755.9999999998836,37,1,656,0,1,experiment,NA,NA,1,0.7,0.3,2,3,79,2,NA
fcp-trial,113,553734,0.0-88.0-0.0,voc_e2,11837,"[{""event"":""fullscreenenter"",""trial"":1,""time"":1771},{""event"":""fullscreenenter"",""trial"":1,""time"":1771}]",NA,NA,NA,NA,NA,2,#1CD855,#FA92F8,10,10,1,38,1,1404,37,1,612.9999999998836,10,1,experiment,NA,NA,1,0.7,0.3,2,3,80,2,NA
fcp-trial,114,557304,0.0-89.0-0.0,voc_e2,11837,"[{""event"":""fullscreenenter"",""trial"":1,""time"":1771},{""event"":""fullscreenenter"",""trial"":1,""time"":1771}]",NA,NA,NA,NA,NA,0,#741CD8,#D8271C,0,0,1,38,1,471,37,1,1587,0,1,experiment,NA,NA,2,0.5,0.5,4,5,81,2,NA
fcp-trial,115,560398,0.0-90.0-0.0,voc_e2,11837,"[{""event"":""fullscreenenter"",""trial"":1,""time"":1771},{""event"":""fullscreenenter"",""trial"":1,""time"":1771}]",NA,NA,NA,NA,NA,3,#3386FF,#D89F1C,0,10,0,38,1,825,39,0,743.0000000001164,10,1,experiment,NA,NA,0,0.1,0.9,1,0,82,2,NA
fcp-trial,116,565815,0.0-91.0-0.0,voc_e2,11837,"[{""event"":""fullscreenenter"",""trial"":1,""time"":1771},{""event"":""fullscreenenter"",""trial"":1,""time"":1771}]",NA,NA,NA,NA,NA,1,#D89F1C,#3386FF,10,0,1,38,1,2963,37,1,943.0000000001164,10,1,experiment,NA,NA,0,0.9,0.1,0,1,83,2,NA
fcp-trial,117,569450,0.0-92.0-0.0,voc_e2,11837,"[{""event"":""fullscreenenter"",""trial"":1,""time"":1771},{""event"":""fullscreenenter"",""trial"":1,""time"":1771}]",NA,NA,NA,NA,NA,4,#741CD8,#D8271C,10,10,1,38,1,1603,39,0,518,10,0,experiment,NA,NA,2,0.5,0.5,4,5,84,2,NA
fcp-trial,118,572438,0.0-93.0-0.0,voc_e2,11837,"[{""event"":""fullscreenenter"",""trial"":1,""time"":1771},{""event"":""fullscreenenter"",""trial"":1,""time"":1771}]",NA,NA,NA,NA,NA,3,#741CD8,#D8271C,0,10,1,38,1,967,39,0,509,10,0,experiment,NA,NA,2,0.5,0.5,4,5,85,2,NA
fcp-trial,119,575493,0.0-94.0-0.0,voc_e2,11837,"[{""event"":""fullscreenenter"",""trial"":1,""time"":1771},{""event"":""fullscreenenter"",""trial"":1,""time"":1771}]",NA,NA,NA,NA,NA,5,#3386FF,#D89F1C,10,10,0,38,1,524,39,0,1018.0000000001164,10,1,experiment,NA,NA,0,0.1,0.9,1,0,86,2,NA
fcp-trial,120,578420,0.0-95.0-0.0,voc_e2,11837,"[{""event"":""fullscreenenter"",""trial"":1,""time"":1771},{""event"":""fullscreenenter"",""trial"":1,""time"":1771}]",NA,NA,NA,NA,NA,5,#1CD855,#FA92F8,0,10,1,38,1,956,37,1,456.0000000001164,0,1,experiment,NA,NA,1,0.7,0.3,2,3,87,2,NA
fcp-trial,121,581824,0.0-96.0-0.0,voc_e2,11837,"[{""event"":""fullscreenenter"",""trial"":1,""time"":1771},{""event"":""fullscreenenter"",""trial"":1,""time"":1771}]",NA,NA,NA,NA,NA,4,#3386FF,#D89F1C,10,10,0,38,1,1276,37,1,618,10,0,experiment,NA,NA,0,0.1,0.9,1,0,88,2,NA
fcp-trial,122,586981,0.0-97.0-0.0,voc_e2,11837,"[{""event"":""fullscreenenter"",""trial"":1,""time"":1771},{""event"":""fullscreenenter"",""trial"":1,""time"":1771}]",NA,NA,NA,NA,NA,5,#D8271C,#741CD8,10,10,0,38,1,1083,37,1,2557,10,0,experiment,NA,NA,2,0.5,0.5,5,4,89,2,NA
fcp-trial,123,589682,0.0-98.0-0.0,voc_e2,11837,"[{""event"":""fullscreenenter"",""trial"":1,""time"":1771},{""event"":""fullscreenenter"",""trial"":1,""time"":1771}]",NA,NA,NA,NA,NA,0,#FA92F8,#1CD855,0,10,0,38,1,769,39,0,421,10,1,experiment,NA,NA,1,0.3,0.7,3,2,90,2,NA
fcp-trial,124,592077,0.0-99.0-0.0,voc_e2,11837,"[{""event"":""fullscreenenter"",""trial"":1,""time"":1771},{""event"":""fullscreenenter"",""trial"":1,""time"":1771}]",NA,NA,NA,NA,NA,6,#D89F1C,#3386FF,10,0,1,38,1,500,37,1,384,10,1,experiment,NA,NA,0,0.9,0.1,0,1,91,3,NA
fcp-trial,125,594732,0.0-100.0-0.0,voc_e2,11837,"[{""event"":""fullscreenenter"",""trial"":1,""time"":1771},{""event"":""fullscreenenter"",""trial"":1,""time"":1771}]",NA,NA,NA,NA,NA,1,#1CD855,#FA92F8,0,10,1,38,1,530,37,1,615,0,1,experiment,NA,NA,1,0.7,0.3,2,3,92,3,NA
fcp-trial,126,597438,0.0-101.0-0.0,voc_e2,11837,"[{""event"":""fullscreenenter"",""trial"":1,""time"":1771},{""event"":""fullscreenenter"",""trial"":1,""time"":1771}]",NA,NA,NA,NA,NA,1,#3386FF,#D89F1C,0,10,0,38,1,669.0000000001164,39,0,515.9999999998836,10,1,experiment,NA,NA,0,0.1,0.9,1,0,93,3,NA
fcp-trial,127,600382,0.0-102.0-0.0,voc_e2,11837,"[{""event"":""fullscreenenter"",""trial"":1,""time"":1771},{""event"":""fullscreenenter"",""trial"":1,""time"":1771}]",NA,NA,NA,NA,NA,2,#741CD8,#D8271C,0,0,1,38,1,872.0000000001164,39,0,556,0,0,experiment,NA,NA,2,0.5,0.5,4,5,94,3,NA
fcp-trial,128,603685,0.0-103.0-0.0,voc_e2,11837,"[{""event"":""fullscreenenter"",""trial"":1,""time"":1771},{""event"":""fullscreenenter"",""trial"":1,""time"":1771}]",NA,NA,NA,NA,NA,6,#FA92F8,#1CD855,0,10,0,38,1,919,39,0,876,10,1,experiment,NA,NA,1,0.3,0.7,3,2,95,3,NA
fcp-trial,129,607129,0.0-104.0-0.0,voc_e2,11837,"[{""event"":""fullscreenenter"",""trial"":1,""time"":1771},{""event"":""fullscreenenter"",""trial"":1,""time"":1771}]",NA,NA,NA,NA,NA,6,#D8271C,#741CD8,10,0,0,38,1,1139.9999999998836,37,1,791,10,0,experiment,NA,NA,2,0.5,0.5,5,4,96,3,NA
fcp-trial,130,610150,0.0-105.0-0.0,voc_e2,11837,"[{""event"":""fullscreenenter"",""trial"":1,""time"":1771},{""event"":""fullscreenenter"",""trial"":1,""time"":1771}]",NA,NA,NA,NA,NA,0,#741CD8,#D8271C,0,0,1,38,1,943,39,0,554.9999999998836,0,0,experiment,NA,NA,2,0.5,0.5,4,5,97,3,NA
fcp-trial,131,613134,0.0-106.0-0.0,voc_e2,11837,"[{""event"":""fullscreenenter"",""trial"":1,""time"":1771},{""event"":""fullscreenenter"",""trial"":1,""time"":1771}]",NA,NA,NA,NA,NA,3,#D89F1C,#3386FF,10,0,1,38,1,820,37,1,640,10,1,experiment,NA,NA,0,0.9,0.1,0,1,98,3,NA
fcp-trial,132,615569,0.0-107.0-0.0,voc_e2,11837,"[{""event"":""fullscreenenter"",""trial"":1,""time"":1771},{""event"":""fullscreenenter"",""trial"":1,""time"":1771}]",NA,NA,NA,NA,NA,4,#741CD8,#D8271C,0,0,1,38,1,549.9999999998836,37,1,377,0,1,experiment,NA,NA,2,0.5,0.5,4,5,99,3,NA
fcp-trial,133,618183,0.0-108.0-0.0,voc_e2,11837,"[{""event"":""fullscreenenter"",""trial"":1,""time"":1771},{""event"":""fullscreenenter"",""trial"":1,""time"":1771}]",NA,NA,NA,NA,NA,4,#1CD855,#FA92F8,0,0,1,38,1,505.9999999998836,37,1,582.9999999998836,0,1,experiment,NA,NA,1,0.7,0.3,2,3,100,3,NA
fcp-trial,134,620582,0.0-109.0-0.0,voc_e2,11837,"[{""event"":""fullscreenenter"",""trial"":1,""time"":1771},{""event"":""fullscreenenter"",""trial"":1,""time"":1771}]",NA,NA,NA,NA,NA,2,#1CD855,#FA92F8,0,0,1,38,1,523,37,1,349,0,1,experiment,NA,NA,1,0.7,0.3,2,3,101,3,NA
fcp-trial,135,623699,0.0-110.0-0.0,voc_e2,11837,"[{""event"":""fullscreenenter"",""trial"":1,""time"":1771},{""event"":""fullscreenenter"",""trial"":1,""time"":1771}]",NA,NA,NA,NA,NA,1,#741CD8,#D8271C,0,0,1,38,1,631,39,0,964,0,0,experiment,NA,NA,2,0.5,0.5,4,5,102,3,NA
fcp-trial,136,631061,0.0-111.0-0.0,voc_e2,11837,"[{""event"":""fullscreenenter"",""trial"":1,""time"":1771},{""event"":""fullscreenenter"",""trial"":1,""time"":1771}]",NA,NA,NA,NA,NA,2,#3386FF,#D89F1C,0,10,0,38,1,1819,39,0,4035,10,1,experiment,NA,NA,0,0.1,0.9,1,0,103,3,NA
fcp-trial,137,634205,0.0-112.0-0.0,voc_e2,11837,"[{""event"":""fullscreenenter"",""trial"":1,""time"":1771},{""event"":""fullscreenenter"",""trial"":1,""time"":1771}]",NA,NA,NA,NA,NA,3,#FA92F8,#1CD855,0,10,0,38,1,1109,39,0,522,10,1,experiment,NA,NA,1,0.3,0.7,3,2,104,3,NA
fcp-trial,138,649215,0.0-113.0-0.0,voc_e2,11837,"[{""event"":""fullscreenenter"",""trial"":1,""time"":1771},{""event"":""fullscreenenter"",""trial"":1,""time"":1771}]",NA,NA,NA,NA,NA,0,#3386FF,#D89F1C,0,10,0,null,null,null,null,null,null,NA,0,experiment,NA,NA,0,0.1,0.9,1,0,105,3,NA
audio-instructions,139,837794,0.0-114.0,voc_e2,11837,"[{""event"":""fullscreenenter"",""trial"":1,""time"":1771},{""event"":""fullscreenenter"",""trial"":1,""time"":1771}]",NA,184139,static/audio/pause.wav,NA,0,NA,NA,NA,NA,NA,NA,NA,NA,NA,NA,NA,NA,NA,NA,NA,NA,NA,NA,NA,NA,NA,NA,NA,NA,NA
fcp-trial,140,841214,0.0-115.0-0.0,voc_e2,11837,"[{""event"":""fullscreenenter"",""trial"":1,""time"":1771},{""event"":""fullscreenenter"",""trial"":1,""time"":1771}]",NA,NA,NA,NA,NA,2,#D89F1C,#3386FF,10,0,1,38,1,1266.0000000001164,37,1,641,10,1,experiment,NA,NA,0,0.9,0.1,0,1,106,3,NA
fcp-trial,141,843587,0.0-116.0-0.0,voc_e2,11837,"[{""event"":""fullscreenenter"",""trial"":1,""time"":1771},{""event"":""fullscreenenter"",""trial"":1,""time"":1771}]",NA,NA,NA,NA,NA,1,#FA92F8,#1CD855,10,0,0,38,1,471,39,0,378,0,1,experiment,NA,NA,1,0.3,0.7,3,2,107,3,NA
fcp-trial,142,846077,0.0-117.0-0.0,voc_e2,11837,"[{""event"":""fullscreenenter"",""trial"":1,""time"":1771},{""event"":""fullscreenenter"",""trial"":1,""time"":1771}]",NA,NA,NA,NA,NA,4,#D8271C,#741CD8,0,10,0,38,1,456,37,1,523,0,0,experiment,NA,NA,2,0.5,0.5,5,4,108,3,NA
fcp-trial,143,848638,0.0-118.0-0.0,voc_e2,11837,"[{""event"":""fullscreenenter"",""trial"":1,""time"":1771},{""event"":""fullscreenenter"",""trial"":1,""time"":1771}]",NA,NA,NA,NA,NA,6,#D89F1C,#3386FF,10,0,1,38,1,420.0000000001164,37,1,615,10,1,experiment,NA,NA,0,0.9,0.1,0,1,109,3,NA
fcp-trial,144,851008,0.0-119.0-0.0,voc_e2,11837,"[{""event"":""fullscreenenter"",""trial"":1,""time"":1771},{""event"":""fullscreenenter"",""trial"":1,""time"":1771}]",NA,NA,NA,NA,NA,6,#1CD855,#FA92F8,0,0,1,38,1,433,37,1,416,0,1,experiment,NA,NA,1,0.7,0.3,2,3,110,3,NA
fcp-trial,145,853349,0.0-120.0-0.0,voc_e2,11837,"[{""event"":""fullscreenenter"",""trial"":1,""time"":1771},{""event"":""fullscreenenter"",""trial"":1,""time"":1771}]",NA,NA,NA,NA,NA,6,#741CD8,#D8271C,10,0,1,38,1,387.9999999998836,39,0,443,0,0,experiment,NA,NA,2,0.5,0.5,4,5,111,3,NA
fcp-trial,146,855965,0.0-121.0-0.0,voc_e2,11837,"[{""event"":""fullscreenenter"",""trial"":1,""time"":1771},{""event"":""fullscreenenter"",""trial"":1,""time"":1771}]",NA,NA,NA,NA,NA,0,#D89F1C,#3386FF,10,10,1,38,1,503,39,0,600,10,0,experiment,NA,NA,0,0.9,0.1,0,1,112,3,NA
fcp-trial,147,858464,0.0-122.0-0.0,voc_e2,11837,"[{""event"":""fullscreenenter"",""trial"":1,""time"":1771},{""event"":""fullscreenenter"",""trial"":1,""time"":1771}]",NA,NA,NA,NA,NA,5,#3386FF,#D89F1C,0,10,0,38,1,611,37,1,380,0,0,experiment,NA,NA,0,0.1,0.9,1,0,113,3,NA
fcp-trial,148,861084,0.0-123.0-0.0,voc_e2,11837,"[{""event"":""fullscreenenter"",""trial"":1,""time"":1771},{""event"":""fullscreenenter"",""trial"":1,""time"":1771}]",NA,NA,NA,NA,NA,5,#D8271C,#741CD8,0,10,0,38,1,247,37,1,864,0,0,experiment,NA,NA,2,0.5,0.5,5,4,114,3,NA
fcp-trial,149,863402,0.0-124.0-0.0,voc_e2,11837,"[{""event"":""fullscreenenter"",""trial"":1,""time"":1771},{""event"":""fullscreenenter"",""trial"":1,""time"":1771}]",NA,NA,NA,NA,NA,4,#FA92F8,#1CD855,10,10,0,38,1,352,39,0,457,10,1,experiment,NA,NA,1,0.3,0.7,3,2,115,3,NA
fcp-trial,150,865658,0.0-125.0-0.0,voc_e2,11837,"[{""event"":""fullscreenenter"",""trial"":1,""time"":1771},{""event"":""fullscreenenter"",""trial"":1,""time"":1771}]",NA,NA,NA,NA,NA,3,#FA92F8,#1CD855,0,0,0,38,1,367,39,0,382,0,1,experiment,NA,NA,1,0.3,0.7,3,2,116,3,NA
fcp-trial,151,867978,0.0-126.0-0.0,voc_e2,11837,"[{""event"":""fullscreenenter"",""trial"":1,""time"":1771},{""event"":""fullscreenenter"",""trial"":1,""time"":1771}]",NA,NA,NA,NA,NA,3,#D89F1C,#3386FF,0,0,1,38,1,428,37,1,379,0,1,experiment,NA,NA,0,0.9,0.1,0,1,117,3,NA
fcp-trial,152,871049,0.0-127.0-0.0,voc_e2,11837,"[{""event"":""fullscreenenter"",""trial"":1,""time"":1771},{""event"":""fullscreenenter"",""trial"":1,""time"":1771}]",NA,NA,NA,NA,NA,0,#741CD8,#D8271C,10,10,1,38,1,242,37,1,1307,10,1,experiment,NA,NA,2,0.5,0.5,4,5,118,3,NA
fcp-trial,153,873429,0.0-128.0-0.0,voc_e2,11837,"[{""event"":""fullscreenenter"",""trial"":1,""time"":1771},{""event"":""fullscreenenter"",""trial"":1,""time"":1771}]",NA,NA,NA,NA,NA,1,#3386FF,#D89F1C,0,10,0,38,1,373,37,1,482,0,0,experiment,NA,NA,0,0.1,0.9,1,0,119,3,NA
fcp-trial,154,875518,0.0-129.0-0.0,voc_e2,11837,"[{""event"":""fullscreenenter"",""trial"":1,""time"":1771},{""event"":""fullscreenenter"",""trial"":1,""time"":1771}]",NA,NA,NA,NA,NA,2,#741CD8,#D8271C,0,0,1,38,1,238,39,0,342,0,0,experiment,NA,NA,2,0.5,0.5,4,5,120,3,NA
fcp-trial,155,877881,0.0-130.0-0.0,voc_e2,11837,"[{""event"":""fullscreenenter"",""trial"":1,""time"":1771},{""event"":""fullscreenenter"",""trial"":1,""time"":1771}]",NA,NA,NA,NA,NA,2,#1CD855,#FA92F8,10,10,1,38,1,443,37,1,408,10,1,experiment,NA,NA,1,0.7,0.3,2,3,121,3,NA
fcp-trial,156,880121,0.0-131.0-0.0,voc_e2,11837,"[{""event"":""fullscreenenter"",""trial"":1,""time"":1771},{""event"":""fullscreenenter"",""trial"":1,""time"":1771}]",NA,NA,NA,NA,NA,4,#D89F1C,#3386FF,10,0,1,38,1,308,39,0,422,0,0,experiment,NA,NA,0,0.9,0.1,0,1,122,3,NA
fcp-trial,157,882165,0.0-132.0-0.0,voc_e2,11837,"[{""event"":""fullscreenenter"",""trial"":1,""time"":1771},{""event"":""fullscreenenter"",""trial"":1,""time"":1771}]",NA,NA,NA,NA,NA,1,#741CD8,#D8271C,10,10,1,38,1,254,37,1,268,10,1,experiment,NA,NA,2,0.5,0.5,4,5,123,3,NA
fcp-trial,158,884392,0.0-133.0-0.0,voc_e2,11837,"[{""event"":""fullscreenenter"",""trial"":1,""time"":1771},{""event"":""fullscreenenter"",""trial"":1,""time"":1771}]",NA,NA,NA,NA,NA,3,#741CD8,#D8271C,0,0,1,38,1,390,37,1,328.0000000001164,0,1,experiment,NA,NA,2,0.5,0.5,4,5,124,3,NA
fcp-trial,159,886712,0.0-134.0-0.0,voc_e2,11837,"[{""event"":""fullscreenenter"",""trial"":1,""time"":1771},{""event"":""fullscreenenter"",""trial"":1,""time"":1771}]",NA,NA,NA,NA,NA,0,#FA92F8,#1CD855,0,10,0,38,1,349,39,0,462.9999999998836,10,1,experiment,NA,NA,1,0.3,0.7,3,2,125,3,NA
fcp-trial,160,888949,0.0-135.0-0.0,voc_e2,11837,"[{""event"":""fullscreenenter"",""trial"":1,""time"":1771},{""event"":""fullscreenenter"",""trial"":1,""time"":1771}]",NA,NA,NA,NA,NA,5,#FA92F8,#1CD855,0,10,0,38,1,318,39,0,405.9999999998836,10,1,experiment,NA,NA,1,0.3,0.7,3,2,126,3,NA
fcp-trial,161,891230,0.0-136.0-0.0,voc_e2,11837,"[{""event"":""fullscreenenter"",""trial"":1,""time"":1771},{""event"":""fullscreenenter"",""trial"":1,""time"":1771}]",NA,NA,NA,NA,NA,1,#D8271C,#741CD8,0,0,0,38,1,368,39,0,400,0,1,experiment,NA,NA,2,0.5,0.5,5,4,127,3,NA
fcp-trial,162,893694,0.0-137.0-0.0,voc_e2,11837,"[{""event"":""fullscreenenter"",""trial"":1,""time"":1771},{""event"":""fullscreenenter"",""trial"":1,""time"":1771}]",NA,NA,NA,NA,NA,4,#3386FF,#D89F1C,0,10,0,38,1,282,39,0,670,10,1,experiment,NA,NA,0,0.1,0.9,1,0,128,3,NA
fcp-trial,163,896071,0.0-138.0-0.0,voc_e2,11837,"[{""event"":""fullscreenenter"",""trial"":1,""time"":1771},{""event"":""fullscreenenter"",""trial"":1,""time"":1771}]",NA,NA,NA,NA,NA,2,#741CD8,#D8271C,0,0,1,38,1,397,37,1,467.0000000001164,0,1,experiment,NA,NA,2,0.5,0.5,4,5,129,3,NA
fcp-trial,164,898157,0.0-139.0-0.0,voc_e2,11837,"[{""event"":""fullscreenenter"",""trial"":1,""time"":1771},{""event"":""fullscreenenter"",""trial"":1,""time"":1771}]",NA,NA,NA,NA,NA,4,#1CD855,#FA92F8,10,10,1,38,1,252,39,0,307,10,0,experiment,NA,NA,1,0.7,0.3,2,3,130,3,NA
fcp-trial,165,900597,0.0-140.0-0.0,voc_e2,11837,"[{""event"":""fullscreenenter"",""trial"":1,""time"":1771},{""event"":""fullscreenenter"",""trial"":1,""time"":1771}]",NA,NA,NA,NA,NA,5,#3386FF,#D89F1C,10,10,0,38,1,422,37,1,495,10,0,experiment,NA,NA,0,0.1,0.9,1,0,131,3,NA
fcp-trial,166,902822,0.0-141.0-0.0,voc_e2,11837,"[{""event"":""fullscreenenter"",""trial"":1,""time"":1771},{""event"":""fullscreenenter"",""trial"":1,""time"":1771}]",NA,NA,NA,NA,NA,3,#1CD855,#FA92F8,10,0,1,38,1,204,37,1,500,10,1,experiment,NA,NA,1,0.7,0.3,2,3,132,3,NA
fcp-trial,167,905107,0.0-142.0-0.0,voc_e2,11837,"[{""event"":""fullscreenenter"",""trial"":1,""time"":1771},{""event"":""fullscreenenter"",""trial"":1,""time"":1771}]",NA,NA,NA,NA,NA,1,#FA92F8,#1CD855,10,10,0,38,1,318,39,0,457,10,1,experiment,NA,NA,1,0.3,0.7,3,2,133,3,NA
fcp-trial,168,907422,0.0-143.0-0.0,voc_e2,11837,"[{""event"":""fullscreenenter"",""trial"":1,""time"":1771},{""event"":""fullscreenenter"",""trial"":1,""time"":1771}]",NA,NA,NA,NA,NA,0,#D8271C,#741CD8,0,0,0,38,1,362,39,0,440,0,1,experiment,NA,NA,2,0.5,0.5,5,4,134,3,NA
fcp-trial,169,909577,0.0-144.0-0.0,voc_e2,11837,"[{""event"":""fullscreenenter"",""trial"":1,""time"":1771},{""event"":""fullscreenenter"",""trial"":1,""time"":1771}]",NA,NA,NA,NA,NA,3,#741CD8,#D8271C,0,0,1,38,1,275,37,1,358,0,1,experiment,NA,NA,2,0.5,0.5,4,5,135,3,NA
fcp-trial,170,911830,0.0-145.0-0.0,voc_e2,11837,"[{""event"":""fullscreenenter"",""trial"":1,""time"":1771},{""event"":""fullscreenenter"",""trial"":1,""time"":1771}]",NA,NA,NA,NA,NA,2,#D89F1C,#3386FF,10,10,1,38,1,343.0000000001164,39,0,383,10,0,experiment,NA,NA,0,0.9,0.1,0,1,136,4,NA
fcp-trial,171,914416,0.0-146.0-0.0,voc_e2,11837,"[{""event"":""fullscreenenter"",""trial"":1,""time"":1771},{""event"":""fullscreenenter"",""trial"":1,""time"":1771}]",NA,NA,NA,NA,NA,0,#1CD855,#FA92F8,0,0,1,38,1,361,37,1,717,0,1,experiment,NA,NA,1,0.7,0.3,2,3,137,4,NA
fcp-trial,172,916723,0.0-147.0-0.0,voc_e2,11837,"[{""event"":""fullscreenenter"",""trial"":1,""time"":1771},{""event"":""fullscreenenter"",""trial"":1,""time"":1771}]",NA,NA,NA,NA,NA,5,#FA92F8,#1CD855,0,0,0,38,1,396,37,1,392,0,0,experiment,NA,NA,1,0.3,0.7,3,2,138,4,NA
fcp-trial,173,918948,0.0-148.0-0.0,voc_e2,11837,"[{""event"":""fullscreenenter"",""trial"":1,""time"":1771},{""event"":""fullscreenenter"",""trial"":1,""time"":1771}]",NA,NA,NA,NA,NA,6,#741CD8,#D8271C,0,10,1,38,1,308,39,0,404,10,0,experiment,NA,NA,2,0.5,0.5,4,5,139,4,NA
fcp-trial,174,921157,0.0-149.0-0.0,voc_e2,11837,"[{""event"":""fullscreenenter"",""trial"":1,""time"":1771},{""event"":""fullscreenenter"",""trial"":1,""time"":1771}]",NA,NA,NA,NA,NA,4,#D8271C,#741CD8,0,0,0,38,1,384,39,0,313.9999999998836,0,1,experiment,NA,NA,2,0.5,0.5,5,4,140,4,NA
fcp-trial,175,923253,0.0-150.0-0.0,voc_e2,11837,"[{""event"":""fullscreenenter"",""trial"":1,""time"":1771},{""event"":""fullscreenenter"",""trial"":1,""time"":1771}]",NA,NA,NA,NA,NA,0,#D89F1C,#3386FF,10,0,1,38,1,230,37,1,352,10,1,experiment,NA,NA,0,0.9,0.1,0,1,141,4,NA
fcp-trial,176,925728,0.0-151.0-0.0,voc_e2,11837,"[{""event"":""fullscreenenter"",""trial"":1,""time"":1771},{""event"":""fullscreenenter"",""trial"":1,""time"":1771}]",NA,NA,NA,NA,NA,2,#FA92F8,#1CD855,0,10,0,38,1,418,39,0,539,10,1,experiment,NA,NA,1,0.3,0.7,3,2,142,4,NA
fcp-trial,177,927880,0.0-152.0-0.0,voc_e2,11837,"[{""event"":""fullscreenenter"",""trial"":1,""time"":1771},{""event"":""fullscreenenter"",""trial"":1,""time"":1771}]",NA,NA,NA,NA,NA,3,#D89F1C,#3386FF,10,10,1,38,1,288,37,1,345,10,1,experiment,NA,NA,0,0.9,0.1,0,1,143,4,NA
fcp-trial,178,930168,0.0-153.0-0.0,voc_e2,11837,"[{""event"":""fullscreenenter"",""trial"":1,""time"":1771},{""event"":""fullscreenenter"",""trial"":1,""time"":1771}]",NA,NA,NA,NA,NA,1,#D89F1C,#3386FF,10,0,1,38,1,300.9999999998836,37,1,466.0000000001164,10,1,experiment,NA,NA,0,0.9,0.1,0,1,144,4,NA
fcp-trial,179,933572,0.0-154.0-0.0,voc_e2,11837,"[{""event"":""fullscreenenter"",""trial"":1,""time"":1771},{""event"":""fullscreenenter"",""trial"":1,""time"":1771}]",NA,NA,NA,NA,NA,5,#D8271C,#741CD8,10,10,0,38,1,1482,37,1,411.0000000001164,10,0,experiment,NA,NA,2,0.5,0.5,5,4,145,4,NA
fcp-trial,180,936378,0.0-155.0-0.0,voc_e2,11837,"[{""event"":""fullscreenenter"",""trial"":1,""time"":1771},{""event"":""fullscreenenter"",""trial"":1,""time"":1771}]",NA,NA,NA,NA,NA,6,#D89F1C,#3386FF,10,0,1,38,1,431,37,1,859,10,1,experiment,NA,NA,0,0.9,0.1,0,1,146,4,NA
fcp-trial,181,938637,0.0-156.0-0.0,voc_e2,11837,"[{""event"":""fullscreenenter"",""trial"":1,""time"":1771},{""event"":""fullscreenenter"",""trial"":1,""time"":1771}]",NA,NA,NA,NA,NA,6,#1CD855,#FA92F8,10,0,1,38,1,324.9999999998836,37,1,423,10,1,experiment,NA,NA,1,0.7,0.3,2,3,147,4,NA
fcp-trial,182,940892,0.0-157.0-0.0,voc_e2,11837,"[{""event"":""fullscreenenter"",""trial"":1,""time"":1771},{""event"":""fullscreenenter"",""trial"":1,""time"":1771}]",NA,NA,NA,NA,NA,6,#1CD855,#FA92F8,10,0,1,38,1,390,37,1,357,10,1,experiment,NA,NA,1,0.7,0.3,2,3,148,4,NA
fcp-trial,183,943110,0.0-158.0-0.0,voc_e2,11837,"[{""event"":""fullscreenenter"",""trial"":1,""time"":1771},{""event"":""fullscreenenter"",""trial"":1,""time"":1771}]",NA,NA,NA,NA,NA,5,#741CD8,#D8271C,10,10,1,38,1,368,39,0,322.9999999998836,10,0,experiment,NA,NA,2,0.5,0.5,4,5,149,4,NA
fcp-trial,184,945412,0.0-159.0-0.0,voc_e2,11837,"[{""event"":""fullscreenenter"",""trial"":1,""time"":1771},{""event"":""fullscreenenter"",""trial"":1,""time"":1771}]",NA,NA,NA,NA,NA,2,#FA92F8,#1CD855,0,0,0,38,1,410,39,0,373.0000000001164,0,1,experiment,NA,NA,1,0.3,0.7,3,2,150,4,NA
fcp-trial,185,947680,0.0-160.0-0.0,voc_e2,11837,"[{""event"":""fullscreenenter"",""trial"":1,""time"":1771},{""event"":""fullscreenenter"",""trial"":1,""time"":1771}]",NA,NA,NA,NA,NA,0,#741CD8,#D8271C,10,0,1,38,1,389,37,1,368,10,1,experiment,NA,NA,2,0.5,0.5,4,5,151,4,NA
fcp-trial,186,949811,0.0-161.0-0.0,voc_e2,11837,"[{""event"":""fullscreenenter"",""trial"":1,""time"":1771},{""event"":""fullscreenenter"",""trial"":1,""time"":1771}]",NA,NA,NA,NA,NA,6,#D89F1C,#3386FF,10,0,1,38,1,276.0000000001164,37,1,341,10,1,experiment,NA,NA,0,0.9,0.1,0,1,152,4,NA
fcp-trial,187,952137,0.0-162.0-0.0,voc_e2,11837,"[{""event"":""fullscreenenter"",""trial"":1,""time"":1771},{""event"":""fullscreenenter"",""trial"":1,""time"":1771}]",NA,NA,NA,NA,NA,1,#3386FF,#D89F1C,0,10,0,38,1,259,37,1,541.9999999998836,0,0,experiment,NA,NA,0,0.1,0.9,1,0,153,4,NA
fcp-trial,188,954405,0.0-163.0-0.0,voc_e2,11837,"[{""event"":""fullscreenenter"",""trial"":1,""time"":1771},{""event"":""fullscreenenter"",""trial"":1,""time"":1771}]",NA,NA,NA,NA,NA,2,#D8271C,#741CD8,0,0,0,38,1,391,39,0,357.0000000001164,0,1,experiment,NA,NA,2,0.5,0.5,5,4,154,4,NA
fcp-trial,189,956503,0.0-164.0-0.0,voc_e2,11837,"[{""event"":""fullscreenenter"",""trial"":1,""time"":1771},{""event"":""fullscreenenter"",""trial"":1,""time"":1771}]",NA,NA,NA,NA,NA,5,#1CD855,#FA92F8,10,0,1,38,1,266,37,1,321.9999999998836,10,1,experiment,NA,NA,1,0.7,0.3,2,3,155,4,NA
fcp-trial,190,958802,0.0-165.0-0.0,voc_e2,11837,"[{""event"":""fullscreenenter"",""trial"":1,""time"":1771},{""event"":""fullscreenenter"",""trial"":1,""time"":1771}]",NA,NA,NA,NA,NA,5,#D89F1C,#3386FF,10,0,1,38,1,336,39,0,437,0,0,experiment,NA,NA,0,0.9,0.1,0,1,156,4,NA
fcp-trial,191,960926,0.0-166.0-0.0,voc_e2,11837,"[{""event"":""fullscreenenter"",""trial"":1,""time"":1771},{""event"":""fullscreenenter"",""trial"":1,""time"":1771}]",NA,NA,NA,NA,NA,3,#D8271C,#741CD8,0,0,0,38,1,252,37,1,356,0,0,experiment,NA,NA,2,0.5,0.5,5,4,157,4,NA
fcp-trial,192,963032,0.0-167.0-0.0,voc_e2,11837,"[{""event"":""fullscreenenter"",""trial"":1,""time"":1771},{""event"":""fullscreenenter"",""trial"":1,""time"":1771}]",NA,NA,NA,NA,NA,4,#1CD855,#FA92F8,10,0,1,38,1,295,37,1,301,10,1,experiment,NA,NA,1,0.7,0.3,2,3,158,4,NA
fcp-trial,193,965398,0.0-168.0-0.0,voc_e2,11837,"[{""event"":""fullscreenenter"",""trial"":1,""time"":1771},{""event"":""fullscreenenter"",""trial"":1,""time"":1771}]",NA,NA,NA,NA,NA,1,#741CD8,#D8271C,10,0,1,38,1,432,39,0,420.0000000001164,0,0,experiment,NA,NA,2,0.5,0.5,4,5,159,4,NA
fcp-trial,194,968139,0.0-169.0-0.0,voc_e2,11837,"[{""event"":""fullscreenenter"",""trial"":1,""time"":1771},{""event"":""fullscreenenter"",""trial"":1,""time"":1771}]",NA,NA,NA,NA,NA,4,#D89F1C,#3386FF,10,0,1,38,1,726,37,1,498.9999999998836,10,1,experiment,NA,NA,0,0.9,0.1,0,1,160,4,NA
fcp-trial,195,970561,0.0-170.0-0.0,voc_e2,11837,"[{""event"":""fullscreenenter"",""trial"":1,""time"":1771},{""event"":""fullscreenenter"",""trial"":1,""time"":1771}]",NA,NA,NA,NA,NA,3,#FA92F8,#1CD855,0,10,0,38,1,361,39,0,549,10,1,experiment,NA,NA,1,0.3,0.7,3,2,161,4,NA
fcp-trial,196,972778,0.0-171.0-0.0,voc_e2,11837,"[{""event"":""fullscreenenter"",""trial"":1,""time"":1771},{""event"":""fullscreenenter"",""trial"":1,""time"":1771}]",NA,NA,NA,NA,NA,6,#D8271C,#741CD8,10,0,0,38,1,344,37,1,351,10,0,experiment,NA,NA,2,0.5,0.5,5,4,162,4,NA
fcp-trial,197,974904,0.0-172.0-0.0,voc_e2,11837,"[{""event"":""fullscreenenter"",""trial"":1,""time"":1771},{""event"":""fullscreenenter"",""trial"":1,""time"":1771}]",NA,NA,NA,NA,NA,2,#D89F1C,#3386FF,10,0,1,38,1,274,39,0,330,0,0,experiment,NA,NA,0,0.9,0.1,0,1,163,4,NA
fcp-trial,198,976935,0.0-173.0-0.0,voc_e2,11837,"[{""event"":""fullscreenenter"",""trial"":1,""time"":1771},{""event"":""fullscreenenter"",""trial"":1,""time"":1771}]",NA,NA,NA,NA,NA,0,#3386FF,#D89F1C,0,10,0,38,1,237,37,1,274,0,0,experiment,NA,NA,0,0.1,0.9,1,0,164,4,NA
fcp-trial,199,979025,0.0-174.0-0.0,voc_e2,11837,"[{""event"":""fullscreenenter"",""trial"":1,""time"":1771},{""event"":""fullscreenenter"",""trial"":1,""time"":1771}]",NA,NA,NA,NA,NA,3,#D89F1C,#3386FF,0,0,1,38,1,262.9999999998836,37,1,302,0,1,experiment,NA,NA,0,0.9,0.1,0,1,165,4,NA
fcp-trial,200,981665,0.0-175.0-0.0,voc_e2,11837,"[{""event"":""fullscreenenter"",""trial"":1,""time"":1771},{""event"":""fullscreenenter"",""trial"":1,""time"":1771}]",NA,NA,NA,NA,NA,0,#1CD855,#FA92F8,10,0,1,38,1,241,37,1,879,10,1,experiment,NA,NA,1,0.7,0.3,2,3,166,4,NA
fcp-trial,201,984734,0.0-176.0-0.0,voc_e2,11837,"[{""event"":""fullscreenenter"",""trial"":1,""time"":1771},{""event"":""fullscreenenter"",""trial"":1,""time"":1771}]",NA,NA,NA,NA,NA,4,#741CD8,#D8271C,10,0,1,40,0,1066.9999999998836,39,0,479,0,0,experiment,NA,NA,2,0.5,0.5,4,5,167,4,NA
fcp-trial,202,988388,0.0-177.0-0.0,voc_e2,11837,"[{""event"":""fullscreenenter"",""trial"":1,""time"":1771},{""event"":""fullscreenenter"",""trial"":1,""time"":1771}]",NA,NA,NA,NA,NA,1,#1CD855,#FA92F8,0,0,1,38,1,1617,37,1,516,0,1,experiment,NA,NA,1,0.7,0.3,2,3,168,4,NA
fcp-trial,203,991674,0.0-178.0-0.0,voc_e2,11837,"[{""event"":""fullscreenenter"",""trial"":1,""time"":1771},{""event"":""fullscreenenter"",""trial"":1,""time"":1771}]",NA,NA,NA,NA,NA,3,#3386FF,#D89F1C,0,10,0,40,0,1465,39,0,311,10,1,experiment,NA,NA,0,0.1,0.9,1,0,169,4,NA
fcp-trial,204,996010,0.0-179.0-0.0,voc_e2,11837,"[{""event"":""fullscreenenter"",""trial"":1,""time"":1771},{""event"":""fullscreenenter"",""trial"":1,""time"":1771}]",NA,NA,NA,NA,NA,3,#FA92F8,#1CD855,10,10,0,38,1,2396,39,0,417,10,1,experiment,NA,NA,1,0.3,0.7,3,2,170,4,NA
fcp-trial,205,999985,0.0-180.0-0.0,voc_e2,11837,"[{""event"":""fullscreenenter"",""trial"":1,""time"":1771},{""event"":""fullscreenenter"",""trial"":1,""time"":1771}]",NA,NA,NA,NA,NA,2,#D8271C,#741CD8,0,0,0,38,1,2057.9999999998836,37,1,408,0,0,experiment,NA,NA,2,0.5,0.5,5,4,171,4,NA
fcp-trial,206,1002633,0.0-181.0-0.0,voc_e2,11837,"[{""event"":""fullscreenenter"",""trial"":1,""time"":1771},{""event"":""fullscreenenter"",""trial"":1,""time"":1771}]",NA,NA,NA,NA,NA,4,#1CD855,#FA92F8,10,0,1,38,1,617,37,1,523,10,1,experiment,NA,NA,1,0.7,0.3,2,3,172,4,NA
fcp-trial,207,1005800,0.0-182.0-0.0,voc_e2,11837,"[{""event"":""fullscreenenter"",""trial"":1,""time"":1771},{""event"":""fullscreenenter"",""trial"":1,""time"":1771}]",NA,NA,NA,NA,NA,2,#3386FF,#D89F1C,0,10,0,38,1,1391.0000000001164,39,0,266,10,1,experiment,NA,NA,0,0.1,0.9,1,0,173,4,NA
fcp-trial,208,1008892,0.0-183.0-0.0,voc_e2,11837,"[{""event"":""fullscreenenter"",""trial"":1,""time"":1771},{""event"":""fullscreenenter"",""trial"":1,""time"":1771}]",NA,NA,NA,NA,NA,1,#FA92F8,#1CD855,0,10,0,38,1,1274.0000000001164,39,0,307,10,1,experiment,NA,NA,1,0.3,0.7,3,2,174,4,NA
fcp-trial,209,1012339,0.0-184.0-0.0,voc_e2,11837,"[{""event"":""fullscreenenter"",""trial"":1,""time"":1771},{""event"":""fullscreenenter"",""trial"":1,""time"":1771}]",NA,NA,NA,NA,NA,5,#D89F1C,#3386FF,10,0,1,40,0,1337,37,1,599.9999999998836,10,1,experiment,NA,NA,0,0.9,0.1,0,1,175,4,NA
fcp-trial,210,1016188,0.0-185.0-0.0,voc_e2,11837,"[{""event"":""fullscreenenter"",""trial"":1,""time"":1771},{""event"":""fullscreenenter"",""trial"":1,""time"":1771}]",NA,NA,NA,NA,NA,3,#741CD8,#D8271C,10,10,1,40,0,1663,37,1,674.9999999998836,10,1,experiment,NA,NA,2,0.5,0.5,4,5,176,4,NA
fcp-trial,211,1019222,0.0-186.0-0.0,voc_e2,11837,"[{""event"":""fullscreenenter"",""trial"":1,""time"":1771},{""event"":""fullscreenenter"",""trial"":1,""time"":1771}]",NA,NA,NA,NA,NA,6,#1CD855,#FA92F8,10,0,1,40,0,987.0000000001164,37,1,539,10,1,experiment,NA,NA,1,0.7,0.3,2,3,177,4,NA
fcp-trial,212,1022043,0.0-187.0-0.0,voc_e2,11837,"[{""event"":""fullscreenenter"",""trial"":1,""time"":1771},{""event"":""fullscreenenter"",""trial"":1,""time"":1771}]",NA,NA,NA,NA,NA,5,#FA92F8,#1CD855,0,10,0,40,0,827,39,0,485,10,1,experiment,NA,NA,1,0.3,0.7,3,2,178,4,NA
fcp-trial,213,1025745,0.0-188.0-0.0,voc_e2,11837,"[{""event"":""fullscreenenter"",""trial"":1,""time"":1771},{""event"":""fullscreenenter"",""trial"":1,""time"":1771}]",NA,NA,NA,NA,NA,1,#741CD8,#D8271C,10,0,1,38,1,1878.0000000001164,37,1,312.0000000001164,10,1,experiment,NA,NA,2,0.5,0.5,4,5,179,4,NA
fcp-trial,214,1028891,0.0-189.0-0.0,voc_e2,11837,"[{""event"":""fullscreenenter"",""trial"":1,""time"":1771},{""event"":""fullscreenenter"",""trial"":1,""time"":1771}]",NA,NA,NA,NA,NA,4,#D89F1C,#3386FF,10,0,1,40,0,1125,37,1,510,10,1,experiment,NA,NA,0,0.9,0.1,0,1,180,4,NA
fcp-trial,215,1032286,0.0-190.0-0.0,voc_e2,11837,"[{""event"":""fullscreenenter"",""trial"":1,""time"":1771},{""event"":""fullscreenenter"",""trial"":1,""time"":1771}]",NA,NA,NA,NA,NA,0,#1CD855,#FA92F8,10,0,1,38,1,1606,37,1,279.99999999976717,10,1,experiment,NA,NA,1,0.7,0.3,2,3,181,5,NA
fcp-trial,216,1035995,0.0-191.0-0.0,voc_e2,11837,"[{""event"":""fullscreenenter"",""trial"":1,""time"":1771},{""event"":""fullscreenenter"",""trial"":1,""time"":1771}]",NA,NA,NA,NA,NA,6,#3386FF,#D89F1C,0,10,0,40,0,1816,37,1,381,0,0,experiment,NA,NA,0,0.1,0.9,1,0,182,5,NA
fcp-trial,217,1040099,0.0-192.0-0.0,voc_e2,11837,"[{""event"":""fullscreenenter"",""trial"":1,""time"":1771},{""event"":""fullscreenenter"",""trial"":1,""time"":1771}]",NA,NA,NA,NA,NA,0,#741CD8,#D8271C,0,0,1,38,1,2106,39,0,484,0,0,experiment,NA,NA,2,0.5,0.5,4,5,183,5,NA
fcp-trial,218,1043192,0.0-193.0-0.0,voc_e2,11837,"[{""event"":""fullscreenenter"",""trial"":1,""time"":1771},{""event"":""fullscreenenter"",""trial"":1,""time"":1771}]",NA,NA,NA,NA,NA,5,#D8271C,#741CD8,10,10,0,40,0,1218,37,1,367,10,0,experiment,NA,NA,2,0.5,0.5,5,4,184,5,NA
fcp-trial,219,1046157,0.0-194.0-0.0,voc_e2,11837,"[{""event"":""fullscreenenter"",""trial"":1,""time"":1771},{""event"":""fullscreenenter"",""trial"":1,""time"":1771}]",NA,NA,NA,NA,NA,4,#D8271C,#741CD8,0,0,0,40,0,1095,37,1,349,0,0,experiment,NA,NA,2,0.5,0.5,5,4,185,5,NA
fcp-trial,220,1049231,0.0-195.0-0.0,voc_e2,11837,"[{""event"":""fullscreenenter"",""trial"":1,""time"":1771},{""event"":""fullscreenenter"",""trial"":1,""time"":1771}]",NA,NA,NA,NA,NA,2,#FA92F8,#1CD855,10,0,0,38,1,1309,39,0,257,0,1,experiment,NA,NA,1,0.3,0.7,3,2,186,5,NA
fcp-trial,221,1052293,0.0-196.0-0.0,voc_e2,11837,"[{""event"":""fullscreenenter"",""trial"":1,""time"":1771},{""event"":""fullscreenenter"",""trial"":1,""time"":1771}]",NA,NA,NA,NA,NA,0,#D89F1C,#3386FF,10,0,1,38,1,1298,39,0,251,0,0,experiment,NA,NA,0,0.9,0.1,0,1,187,5,NA
fcp-trial,222,1055796,0.0-197.0-0.0,voc_e2,11837,"[{""event"":""fullscreenenter"",""trial"":1,""time"":1771},{""event"":""fullscreenenter"",""trial"":1,""time"":1771}]",NA,NA,NA,NA,NA,1,#D89F1C,#3386FF,10,0,1,38,1,1141,37,1,853,10,1,experiment,NA,NA,0,0.9,0.1,0,1,188,5,NA
fcp-trial,223,1059031,0.0-198.0-0.0,voc_e2,11837,"[{""event"":""fullscreenenter"",""trial"":1,""time"":1771},{""event"":""fullscreenenter"",""trial"":1,""time"":1771}]",NA,NA,NA,NA,NA,6,#741CD8,#D8271C,0,0,1,40,0,1329,37,1,379,0,1,experiment,NA,NA,2,0.5,0.5,4,5,189,5,NA
fcp-trial,224,1061751,0.0-199.0-0.0,voc_e2,11837,"[{""event"":""fullscreenenter"",""trial"":1,""time"":1771},{""event"":""fullscreenenter"",""trial"":1,""time"":1771}]",NA,NA,NA,NA,NA,2,#D89F1C,#3386FF,10,0,1,38,1,914,37,1,291,10,1,experiment,NA,NA,0,0.9,0.1,0,1,190,5,NA
fcp-trial,225,1064351,0.0-200.0-0.0,voc_e2,11837,"[{""event"":""fullscreenenter"",""trial"":1,""time"":1771},{""event"":""fullscreenenter"",""trial"":1,""time"":1771}]",NA,NA,NA,NA,NA,1,#FA92F8,#1CD855,0,10,0,38,1,730,39,0,358,10,1,experiment,NA,NA,1,0.3,0.7,3,2,191,5,NA
fcp-trial,226,1067536,0.0-201.0-0.0,voc_e2,11837,"[{""event"":""fullscreenenter"",""trial"":1,""time"":1771},{""event"":""fullscreenenter"",""trial"":1,""time"":1771}]",NA,NA,NA,NA,NA,3,#FA92F8,#1CD855,10,10,0,38,1,1039,39,0,624.0000000002328,10,1,experiment,NA,NA,1,0.3,0.7,3,2,192,5,NA
fcp-trial,227,1071142,0.0-202.0-0.0,voc_e2,11837,"[{""event"":""fullscreenenter"",""trial"":1,""time"":1771},{""event"":""fullscreenenter"",""trial"":1,""time"":1771}]",NA,NA,NA,NA,NA,3,#D8271C,#741CD8,0,10,0,40,0,1638,39,0,447,10,1,experiment,NA,NA,2,0.5,0.5,5,4,193,5,NA
fcp-trial,228,1074388,0.0-203.0-0.0,voc_e2,11837,"[{""event"":""fullscreenenter"",""trial"":1,""time"":1771},{""event"":""fullscreenenter"",""trial"":1,""time"":1771}]",NA,NA,NA,NA,NA,3,#D89F1C,#3386FF,0,0,1,40,0,1262,39,0,472,0,0,experiment,NA,NA,0,0.9,0.1,0,1,194,5,NA
fcp-trial,229,1077312,0.0-204.0-0.0,voc_e2,11837,"[{""event"":""fullscreenenter"",""trial"":1,""time"":1771},{""event"":""fullscreenenter"",""trial"":1,""time"":1771}]",NA,NA,NA,NA,NA,4,#741CD8,#D8271C,0,0,1,40,0,1054,37,1,360,0,1,experiment,NA,NA,2,0.5,0.5,4,5,195,5,NA
fcp-trial,230,1080712,0.0-205.0-0.0,voc_e2,11837,"[{""event"":""fullscreenenter"",""trial"":1,""time"":1771},{""event"":""fullscreenenter"",""trial"":1,""time"":1771}]",NA,NA,NA,NA,NA,5,#FA92F8,#1CD855,0,10,0,38,1,1636,39,0,255,10,1,experiment,NA,NA,1,0.3,0.7,3,2,196,5,NA
fcp-trial,231,1083839,0.0-206.0-0.0,voc_e2,11837,"[{""event"":""fullscreenenter"",""trial"":1,""time"":1771},{""event"":""fullscreenenter"",""trial"":1,""time"":1771}]",NA,NA,NA,NA,NA,0,#D89F1C,#3386FF,10,10,1,38,1,1331,37,1,271,10,1,experiment,NA,NA,0,0.9,0.1,0,1,197,5,NA
fcp-trial,232,1087041,0.0-207.0-0.0,voc_e2,11837,"[{""event"":""fullscreenenter"",""trial"":1,""time"":1771},{""event"":""fullscreenenter"",""trial"":1,""time"":1771}]",NA,NA,NA,NA,NA,0,#FA92F8,#1CD855,10,0,0,38,1,1027,39,0,665,0,1,experiment,NA,NA,1,0.3,0.7,3,2,198,5,NA
fcp-trial,233,1089771,0.0-208.0-0.0,voc_e2,11837,"[{""event"":""fullscreenenter"",""trial"":1,""time"":1771},{""event"":""fullscreenenter"",""trial"":1,""time"":1771}]",NA,NA,NA,NA,NA,0,#741CD8,#D8271C,10,0,1,38,1,900,37,1,321,10,1,experiment,NA,NA,2,0.5,0.5,4,5,199,5,NA
fcp-trial,234,1092894,0.0-209.0-0.0,voc_e2,11837,"[{""event"":""fullscreenenter"",""trial"":1,""time"":1771},{""event"":""fullscreenenter"",""trial"":1,""time"":1771}]",NA,NA,NA,NA,NA,6,#3386FF,#D89F1C,0,0,0,38,1,1020,39,0,583,0,1,experiment,NA,NA,0,0.1,0.9,1,0,200,5,NA
fcp-trial,235,1096056,0.0-210.0-0.0,voc_e2,11837,"[{""event"":""fullscreenenter"",""trial"":1,""time"":1771},{""event"":""fullscreenenter"",""trial"":1,""time"":1771}]",NA,NA,NA,NA,NA,1,#741CD8,#D8271C,10,10,1,38,1,872,39,0,781.9999999997672,10,0,experiment,NA,NA,2,0.5,0.5,4,5,201,5,NA
fcp-trial,236,1098877,0.0-211.0-0.0,voc_e2,11837,"[{""event"":""fullscreenenter"",""trial"":1,""time"":1771},{""event"":""fullscreenenter"",""trial"":1,""time"":1771}]",NA,NA,NA,NA,NA,5,#3386FF,#D89F1C,0,10,0,40,0,923,37,1,386,0,0,experiment,NA,NA,0,0.1,0.9,1,0,202,5,NA
fcp-trial,237,1102867,0.0-212.0-0.0,voc_e2,11837,"[{""event"":""fullscreenenter"",""trial"":1,""time"":1771},{""event"":""fullscreenenter"",""trial"":1,""time"":1771}]",NA,NA,NA,NA,NA,2,#1CD855,#FA92F8,10,10,1,38,1,1796,37,1,681,10,1,experiment,NA,NA,1,0.7,0.3,2,3,203,5,NA
fcp-trial,238,1105320,0.0-213.0-0.0,voc_e2,11837,"[{""event"":""fullscreenenter"",""trial"":1,""time"":1771},{""event"":""fullscreenenter"",""trial"":1,""time"":1771}]",NA,NA,NA,NA,NA,1,#3386FF,#D89F1C,0,10,0,38,1,621.0000000002328,39,0,322.99999999976717,10,1,experiment,NA,NA,0,0.1,0.9,1,0,204,5,NA
fcp-trial,239,1108108,0.0-214.0-0.0,voc_e2,11837,"[{""event"":""fullscreenenter"",""trial"":1,""time"":1771},{""event"":""fullscreenenter"",""trial"":1,""time"":1771}]",NA,NA,NA,NA,NA,2,#741CD8,#D8271C,0,0,1,38,1,813,37,1,466,0,1,experiment,NA,NA,2,0.5,0.5,4,5,205,5,NA
fcp-trial,240,1110908,0.0-215.0-0.0,voc_e2,11837,"[{""event"":""fullscreenenter"",""trial"":1,""time"":1771},{""event"":""fullscreenenter"",""trial"":1,""time"":1771}]",NA,NA,NA,NA,NA,6,#D8271C,#741CD8,10,0,0,38,1,616,39,0,674,0,1,experiment,NA,NA,2,0.5,0.5,5,4,206,5,NA
fcp-trial,241,1113348,0.0-216.0-0.0,voc_e2,11837,"[{""event"":""fullscreenenter"",""trial"":1,""time"":1771},{""event"":""fullscreenenter"",""trial"":1,""time"":1771}]",NA,NA,NA,NA,NA,5,#741CD8,#D8271C,10,0,1,38,1,497,37,1,433,10,1,experiment,NA,NA,2,0.5,0.5,4,5,207,5,NA
fcp-trial,242,1115793,0.0-217.0-0.0,voc_e2,11837,"[{""event"":""fullscreenenter"",""trial"":1,""time"":1771},{""event"":""fullscreenenter"",""trial"":1,""time"":1771}]",NA,NA,NA,NA,NA,4,#1CD855,#FA92F8,10,0,1,38,1,598.0000000002328,37,1,325,10,1,experiment,NA,NA,1,0.7,0.3,2,3,208,5,NA
fcp-trial,243,1118269,0.0-218.0-0.0,voc_e2,11837,"[{""event"":""fullscreenenter"",""trial"":1,""time"":1771},{""event"":""fullscreenenter"",""trial"":1,""time"":1771}]",NA,NA,NA,NA,NA,4,#D89F1C,#3386FF,10,0,1,40,0,669,37,1,296,10,1,experiment,NA,NA,0,0.9,0.1,0,1,209,5,NA
fcp-trial,244,1121397,0.0-219.0-0.0,voc_e2,11837,"[{""event"":""fullscreenenter"",""trial"":1,""time"":1771},{""event"":""fullscreenenter"",""trial"":1,""time"":1771}]",NA,NA,NA,NA,NA,6,#1CD855,#FA92F8,10,0,1,40,0,1249,37,1,370,10,1,experiment,NA,NA,1,0.7,0.3,2,3,210,5,NA
audio-instructions,245,1646499,0.0-220.0,voc_e2,11837,"[{""event"":""fullscreenenter"",""trial"":1,""time"":1771},{""event"":""fullscreenenter"",""trial"":1,""time"":1771}]",NA,520658,static/audio/pause.wav,NA,0,NA,NA,NA,NA,NA,NA,NA,NA,NA,NA,NA,NA,NA,NA,NA,NA,NA,NA,NA,NA,NA,NA,NA,NA,NA
fcp-trial,246,1650973,0.0-221.0-0.0,voc_e2,11837,"[{""event"":""fullscreenenter"",""trial"":1,""time"":1771},{""event"":""fullscreenenter"",""trial"":1,""time"":1771}]",NA,NA,NA,NA,NA,4,#D89F1C,#3386FF,10,0,1,40,0,2434,39,0,530.9999999997672,0,0,experiment,NA,NA,0,0.9,0.1,0,1,211,5,NA
fcp-trial,247,1654323,0.0-222.0-0.0,voc_e2,11837,"[{""event"":""fullscreenenter"",""trial"":1,""time"":1771},{""event"":""fullscreenenter"",""trial"":1,""time"":1771}]",NA,NA,NA,NA,NA,5,#741CD8,#D8271C,10,10,1,40,0,1357,39,0,481,10,0,experiment,NA,NA,2,0.5,0.5,4,5,212,5,NA
fcp-trial,248,1657599,0.0-223.0-0.0,voc_e2,11837,"[{""event"":""fullscreenenter"",""trial"":1,""time"":1771},{""event"":""fullscreenenter"",""trial"":1,""time"":1771}]",NA,NA,NA,NA,NA,6,#FA92F8,#1CD855,0,10,0,40,0,1375,39,0,377,10,1,experiment,NA,NA,1,0.3,0.7,3,2,213,5,NA
fcp-trial,249,1660710,0.0-224.0-0.0,voc_e2,11837,"[{""event"":""fullscreenenter"",""trial"":1,""time"":1771},{""event"":""fullscreenenter"",""trial"":1,""time"":1771}]",NA,NA,NA,NA,NA,1,#D8271C,#741CD8,10,10,0,38,1,1305,37,1,295.00000000023283,10,0,experiment,NA,NA,2,0.5,0.5,5,4,214,5,NA
fcp-trial,250,1664237,0.0-225.0-0.0,voc_e2,11837,"[{""event"":""fullscreenenter"",""trial"":1,""time"":1771},{""event"":""fullscreenenter"",""trial"":1,""time"":1771}]",NA,NA,NA,NA,NA,1,#FA92F8,#1CD855,0,10,0,38,1,1682.0000000002328,39,0,317,10,1,experiment,NA,NA,1,0.3,0.7,3,2,215,5,NA
fcp-trial,251,1667784,0.0-226.0-0.0,voc_e2,11837,"[{""event"":""fullscreenenter"",""trial"":1,""time"":1771},{""event"":""fullscreenenter"",""trial"":1,""time"":1771}]",NA,NA,NA,NA,NA,5,#3386FF,#D89F1C,0,10,0,40,0,1549,37,1,473,0,0,experiment,NA,NA,0,0.1,0.9,1,0,216,5,NA
fcp-trial,252,1670496,0.0-227.0-0.0,voc_e2,11837,"[{""event"":""fullscreenenter"",""trial"":1,""time"":1771},{""event"":""fullscreenenter"",""trial"":1,""time"":1771}]",NA,NA,NA,NA,NA,3,#1CD855,#FA92F8,0,10,1,38,1,910.9999999997672,37,1,273,0,1,experiment,NA,NA,1,0.7,0.3,2,3,217,5,NA
fcp-trial,253,1673588,0.0-228.0-0.0,voc_e2,11837,"[{""event"":""fullscreenenter"",""trial"":1,""time"":1771},{""event"":""fullscreenenter"",""trial"":1,""time"":1771}]",NA,NA,NA,NA,NA,3,#741CD8,#D8271C,0,10,1,40,0,1302,39,0,266,10,0,experiment,NA,NA,2,0.5,0.5,4,5,218,5,NA
fcp-trial,254,1677015,0.0-229.0-0.0,voc_e2,11837,"[{""event"":""fullscreenenter"",""trial"":1,""time"":1771},{""event"":""fullscreenenter"",""trial"":1,""time"":1771}]",NA,NA,NA,NA,NA,5,#FA92F8,#1CD855,10,10,0,40,0,1258,37,1,658,10,0,experiment,NA,NA,1,0.3,0.7,3,2,219,5,NA
fcp-trial,255,1680206,0.0-230.0-0.0,voc_e2,11837,"[{""event"":""fullscreenenter"",""trial"":1,""time"":1771},{""event"":""fullscreenenter"",""trial"":1,""time"":1771}]",NA,NA,NA,NA,NA,2,#D8271C,#741CD8,10,10,0,40,0,1349,37,1,330,10,0,experiment,NA,NA,2,0.5,0.5,5,4,220,5,NA
fcp-trial,256,1682752,0.0-231.0-0.0,voc_e2,11837,"[{""event"":""fullscreenenter"",""trial"":1,""time"":1771},{""event"":""fullscreenenter"",""trial"":1,""time"":1771}]",NA,NA,NA,NA,NA,3,#D89F1C,#3386FF,0,0,1,40,0,642,37,1,391,0,1,experiment,NA,NA,0,0.9,0.1,0,1,221,5,NA
fcp-trial,257,1685771,0.0-232.0-0.0,voc_e2,11837,"[{""event"":""fullscreenenter"",""trial"":1,""time"":1771},{""event"":""fullscreenenter"",""trial"":1,""time"":1771}]",NA,NA,NA,NA,NA,0,#FA92F8,#1CD855,10,10,0,38,1,1250,39,0,256,10,1,experiment,NA,NA,1,0.3,0.7,3,2,222,5,NA
fcp-trial,258,1689021,0.0-233.0-0.0,voc_e2,11837,"[{""event"":""fullscreenenter"",""trial"":1,""time"":1771},{""event"":""fullscreenenter"",""trial"":1,""time"":1771}]",NA,NA,NA,NA,NA,4,#D8271C,#741CD8,0,10,0,40,0,1168.0000000002328,39,0,559,10,1,experiment,NA,NA,2,0.5,0.5,5,4,223,5,NA
fcp-trial,259,1692286,0.0-234.0-0.0,voc_e2,11837,"[{""event"":""fullscreenenter"",""trial"":1,""time"":1771},{""event"":""fullscreenenter"",""trial"":1,""time"":1771}]",NA,NA,NA,NA,NA,6,#D89F1C,#3386FF,10,10,1,40,0,1298,39,0,442,10,0,experiment,NA,NA,0,0.9,0.1,0,1,224,5,NA
fcp-trial,260,1695257,0.0-235.0-0.0,voc_e2,11837,"[{""event"":""fullscreenenter"",""trial"":1,""time"":1771},{""event"":""fullscreenenter"",""trial"":1,""time"":1771}]",NA,NA,NA,NA,NA,2,#FA92F8,#1CD855,0,10,0,38,1,1189.9999999997672,39,0,261.00000000023283,10,1,experiment,NA,NA,1,0.3,0.7,3,2,225,5,NA
fcp-trial,261,1698733,0.0-236.0-0.0,voc_e2,11837,"[{""event"":""fullscreenenter"",""trial"":1,""time"":1771},{""event"":""fullscreenenter"",""trial"":1,""time"":1771}]",NA,NA,NA,NA,NA,0,#D8271C,#741CD8,10,10,0,38,1,1360,37,1,606,10,0,experiment,NA,NA,2,0.5,0.5,5,4,226,6,NA
fcp-trial,262,1702314,0.0-237.0-0.0,voc_e2,11837,"[{""event"":""fullscreenenter"",""trial"":1,""time"":1771},{""event"":""fullscreenenter"",""trial"":1,""time"":1771}]",NA,NA,NA,NA,NA,2,#3386FF,#D89F1C,0,10,0,38,1,1475,39,0,594,10,1,experiment,NA,NA,0,0.1,0.9,1,0,227,6,NA
fcp-trial,263,1705155,0.0-238.0-0.0,voc_e2,11837,"[{""event"":""fullscreenenter"",""trial"":1,""time"":1771},{""event"":""fullscreenenter"",""trial"":1,""time"":1771}]",NA,NA,NA,NA,NA,6,#D8271C,#741CD8,0,10,0,40,0,970,37,1,351,0,0,experiment,NA,NA,2,0.5,0.5,5,4,228,6,NA
fcp-trial,264,1708150,0.0-239.0-0.0,voc_e2,11837,"[{""event"":""fullscreenenter"",""trial"":1,""time"":1771},{""event"":""fullscreenenter"",""trial"":1,""time"":1771}]",NA,NA,NA,NA,NA,4,#FA92F8,#1CD855,0,0,0,38,1,1199.0000000002328,39,0,285,0,1,experiment,NA,NA,1,0.3,0.7,3,2,229,6,NA
fcp-trial,265,1711101,0.0-240.0-0.0,voc_e2,11837,"[{""event"":""fullscreenenter"",""trial"":1,""time"":1771},{""event"":""fullscreenenter"",""trial"":1,""time"":1771}]",NA,NA,NA,NA,NA,1,#3386FF,#D89F1C,0,10,0,40,0,1141,37,1,284,0,0,experiment,NA,NA,0,0.1,0.9,1,0,230,6,NA
fcp-trial,266,1713500,0.0-241.0-0.0,voc_e2,11837,"[{""event"":""fullscreenenter"",""trial"":1,""time"":1771},{""event"":""fullscreenenter"",""trial"":1,""time"":1771}]",NA,NA,NA,NA,NA,0,#D89F1C,#3386FF,10,0,1,38,1,541,39,0,348,0,0,experiment,NA,NA,0,0.9,0.1,0,1,231,6,NA
fcp-trial,267,1716388,0.0-242.0-0.0,voc_e2,11837,"[{""event"":""fullscreenenter"",""trial"":1,""time"":1771},{""event"":""fullscreenenter"",""trial"":1,""time"":1771}]",NA,NA,NA,NA,NA,1,#1CD855,#FA92F8,10,10,1,38,1,892.0000000002328,37,1,472,10,1,experiment,NA,NA,1,0.7,0.3,2,3,232,6,NA
fcp-trial,268,1718872,0.0-243.0-0.0,voc_e2,11837,"[{""event"":""fullscreenenter"",""trial"":1,""time"":1771},{""event"":""fullscreenenter"",""trial"":1,""time"":1771}]",NA,NA,NA,NA,NA,2,#741CD8,#D8271C,10,0,1,38,1,368,39,0,593,0,0,experiment,NA,NA,2,0.5,0.5,4,5,233,6,NA
fcp-trial,269,1721924,0.0-244.0-0.0,voc_e2,11837,"[{""event"":""fullscreenenter"",""trial"":1,""time"":1771},{""event"":""fullscreenenter"",""trial"":1,""time"":1771}]",NA,NA,NA,NA,NA,4,#FA92F8,#1CD855,10,10,0,40,0,940,37,1,599,10,0,experiment,NA,NA,1,0.3,0.7,3,2,234,6,NA
fcp-trial,270,1724705,0.0-245.0-0.0,voc_e2,11837,"[{""event"":""fullscreenenter"",""trial"":1,""time"":1771},{""event"":""fullscreenenter"",""trial"":1,""time"":1771}]",NA,NA,NA,NA,NA,6,#3386FF,#D89F1C,0,10,0,40,0,844.0000000002328,39,0,417,10,1,experiment,NA,NA,0,0.1,0.9,1,0,235,6,NA
fcp-trial,271,1727730,0.0-246.0-0.0,voc_e2,11837,"[{""event"":""fullscreenenter"",""trial"":1,""time"":1771},{""event"":""fullscreenenter"",""trial"":1,""time"":1771}]",NA,NA,NA,NA,NA,2,#D89F1C,#3386FF,10,0,1,38,1,1075,37,1,440,10,1,experiment,NA,NA,0,0.9,0.1,0,1,236,6,NA
fcp-trial,272,1730981,0.0-247.0-0.0,voc_e2,11837,"[{""event"":""fullscreenenter"",""trial"":1,""time"":1771},{""event"":""fullscreenenter"",""trial"":1,""time"":1771}]",NA,NA,NA,NA,NA,5,#741CD8,#D8271C,10,10,1,40,0,1119,37,1,608,10,1,experiment,NA,NA,2,0.5,0.5,4,5,237,6,NA
fcp-trial,273,1734301,0.0-248.0-0.0,voc_e2,11837,"[{""event"":""fullscreenenter"",""trial"":1,""time"":1771},{""event"":""fullscreenenter"",""trial"":1,""time"":1771}]",NA,NA,NA,NA,NA,3,#FA92F8,#1CD855,0,0,0,38,1,1093.9999999997672,39,0,717,0,1,experiment,NA,NA,1,0.3,0.7,3,2,238,6,NA
fcp-trial,274,1736916,0.0-249.0-0.0,voc_e2,11837,"[{""event"":""fullscreenenter"",""trial"":1,""time"":1771},{""event"":""fullscreenenter"",""trial"":1,""time"":1771}]",NA,NA,NA,NA,NA,1,#D8271C,#741CD8,0,10,0,38,1,589,37,1,515,0,0,experiment,NA,NA,2,0.5,0.5,5,4,239,6,NA
fcp-trial,275,1739636,0.0-250.0-0.0,voc_e2,11837,"[{""event"":""fullscreenenter"",""trial"":1,""time"":1771},{""event"":""fullscreenenter"",""trial"":1,""time"":1771}]",NA,NA,NA,NA,NA,5,#D89F1C,#3386FF,10,0,1,38,1,755,37,1,443,10,1,experiment,NA,NA,0,0.9,0.1,0,1,240,6,NA
fcp-trial,276,1742978,0.0-251.0-0.0,voc_e2,11837,"[{""event"":""fullscreenenter"",""trial"":1,""time"":1771},{""event"":""fullscreenenter"",""trial"":1,""time"":1771}]",NA,NA,NA,NA,NA,2,#FA92F8,#1CD855,0,10,0,38,1,1206,39,0,623.9999999997672,10,1,experiment,NA,NA,1,0.3,0.7,3,2,241,6,NA
fcp-trial,277,1746269,0.0-252.0-0.0,voc_e2,11837,"[{""event"":""fullscreenenter"",""trial"":1,""time"":1771},{""event"":""fullscreenenter"",""trial"":1,""time"":1771}]",NA,NA,NA,NA,NA,1,#D89F1C,#3386FF,10,0,1,38,1,1480,37,1,299.00000000023283,10,1,experiment,NA,NA,0,0.9,0.1,0,1,242,6,NA
fcp-trial,278,1749762,0.0-253.0-0.0,voc_e2,11837,"[{""event"":""fullscreenenter"",""trial"":1,""time"":1771},{""event"":""fullscreenenter"",""trial"":1,""time"":1771}]",NA,NA,NA,NA,NA,5,#FA92F8,#1CD855,10,0,0,40,0,1636,39,0,329.99999999976717,0,1,experiment,NA,NA,1,0.3,0.7,3,2,243,6,NA
fcp-trial,279,1752793,0.0-254.0-0.0,voc_e2,11837,"[{""event"":""fullscreenenter"",""trial"":1,""time"":1771},{""event"":""fullscreenenter"",""trial"":1,""time"":1771}]",NA,NA,NA,NA,NA,3,#741CD8,#D8271C,10,0,1,40,0,961,39,0,551,0,0,experiment,NA,NA,2,0.5,0.5,4,5,244,6,NA
fcp-trial,280,1755536,0.0-255.0-0.0,voc_e2,11837,"[{""event"":""fullscreenenter"",""trial"":1,""time"":1771},{""event"":""fullscreenenter"",""trial"":1,""time"":1771}]",NA,NA,NA,NA,NA,4,#3386FF,#D89F1C,0,10,0,40,0,919,37,1,314.00000000023283,0,0,experiment,NA,NA,0,0.1,0.9,1,0,245,6,NA
fcp-trial,281,1758423,0.0-256.0-0.0,voc_e2,11837,"[{""event"":""fullscreenenter"",""trial"":1,""time"":1771},{""event"":""fullscreenenter"",""trial"":1,""time"":1771}]",NA,NA,NA,NA,NA,0,#3386FF,#D89F1C,0,10,0,38,1,753.0000000002328,39,0,613.9999999997672,10,1,experiment,NA,NA,0,0.1,0.9,1,0,246,6,NA
fcp-trial,282,1760895,0.0-257.0-0.0,voc_e2,11837,"[{""event"":""fullscreenenter"",""trial"":1,""time"":1771},{""event"":""fullscreenenter"",""trial"":1,""time"":1771}]",NA,NA,NA,NA,NA,0,#1CD855,#FA92F8,10,10,1,38,1,587,37,1,365,10,1,experiment,NA,NA,1,0.7,0.3,2,3,247,6,NA
fcp-trial,283,1764274,0.0-258.0-0.0,voc_e2,11837,"[{""event"":""fullscreenenter"",""trial"":1,""time"":1771},{""event"":""fullscreenenter"",""trial"":1,""time"":1771}]",NA,NA,NA,NA,NA,4,#D8271C,#741CD8,0,10,0,40,0,1277,39,0,580,10,1,experiment,NA,NA,2,0.5,0.5,5,4,248,6,NA
fcp-trial,284,1767102,0.0-259.0-0.0,voc_e2,11837,"[{""event"":""fullscreenenter"",""trial"":1,""time"":1771},{""event"":""fullscreenenter"",""trial"":1,""time"":1771}]",NA,NA,NA,NA,NA,6,#741CD8,#D8271C,0,0,1,40,0,919,39,0,388,0,0,experiment,NA,NA,2,0.5,0.5,4,5,249,6,NA
fcp-trial,285,1770391,0.0-260.0-0.0,voc_e2,11837,"[{""event"":""fullscreenenter"",""trial"":1,""time"":1771},{""event"":""fullscreenenter"",""trial"":1,""time"":1771}]",NA,NA,NA,NA,NA,3,#3386FF,#D89F1C,0,10,0,38,1,875.9999999997672,39,0,888,10,1,experiment,NA,NA,0,0.1,0.9,1,0,250,6,NA
fcp-trial,286,1774707,0.0-261.0-0.0,voc_e2,11837,"[{""event"":""fullscreenenter"",""trial"":1,""time"":1771},{""event"":""fullscreenenter"",""trial"":1,""time"":1771}]",NA,NA,NA,NA,NA,6,#1CD855,#FA92F8,10,0,1,40,0,2259,39,0,545,0,0,experiment,NA,NA,1,0.7,0.3,2,3,251,6,NA
fcp-trial,287,1779171,0.0-262.0-0.0,voc_e2,11837,"[{""event"":""fullscreenenter"",""trial"":1,""time"":1771},{""event"":""fullscreenenter"",""trial"":1,""time"":1771}]",NA,NA,NA,NA,NA,0,#D8271C,#741CD8,10,10,0,38,1,2600.000000000233,37,1,351,10,0,experiment,NA,NA,2,0.5,0.5,5,4,252,6,NA
fcp-trial,288,1783400,0.0-263.0-0.0,voc_e2,11837,"[{""event"":""fullscreenenter"",""trial"":1,""time"":1771},{""event"":""fullscreenenter"",""trial"":1,""time"":1771}]",NA,NA,NA,NA,NA,5,#FA92F8,#1CD855,0,0,0,40,0,1989,37,1,730,0,0,experiment,NA,NA,1,0.3,0.7,3,2,253,6,NA
fcp-trial,289,1786130,0.0-264.0-0.0,voc_e2,11837,"[{""event"":""fullscreenenter"",""trial"":1,""time"":1771},{""event"":""fullscreenenter"",""trial"":1,""time"":1771}]",NA,NA,NA,NA,NA,0,#741CD8,#D8271C,0,10,1,38,1,920,39,0,287,10,0,experiment,NA,NA,2,0.5,0.5,4,5,254,6,NA
fcp-trial,290,1788833,0.0-265.0-0.0,voc_e2,11837,"[{""event"":""fullscreenenter"",""trial"":1,""time"":1771},{""event"":""fullscreenenter"",""trial"":1,""time"":1771}]",NA,NA,NA,NA,NA,2,#1CD855,#FA92F8,10,0,1,38,1,892,37,1,302,10,1,experiment,NA,NA,1,0.7,0.3,2,3,255,6,NA
fcp-trial,291,1791870,0.0-266.0-0.0,voc_e2,11837,"[{""event"":""fullscreenenter"",""trial"":1,""time"":1771},{""event"":""fullscreenenter"",""trial"":1,""time"":1771}]",NA,NA,NA,NA,NA,2,#3386FF,#D89F1C,0,10,0,40,0,935.0000000002328,37,1,590,0,0,experiment,NA,NA,0,0.1,0.9,1,0,256,6,NA
fcp-trial,292,1794711,0.0-267.0-0.0,voc_e2,11837,"[{""event"":""fullscreenenter"",""trial"":1,""time"":1771},{""event"":""fullscreenenter"",""trial"":1,""time"":1771}]",NA,NA,NA,NA,NA,1,#FA92F8,#1CD855,0,0,0,38,1,1013.0000000002328,39,0,302.00000000023283,0,1,experiment,NA,NA,1,0.3,0.7,3,2,257,6,NA
fcp-trial,293,1797034,0.0-268.0-0.0,voc_e2,11837,"[{""event"":""fullscreenenter"",""trial"":1,""time"":1771},{""event"":""fullscreenenter"",""trial"":1,""time"":1771}]",NA,NA,NA,NA,NA,1,#741CD8,#D8271C,10,10,1,38,1,514,37,1,290,10,1,experiment,NA,NA,2,0.5,0.5,4,5,258,6,NA
fcp-trial,294,1799548,0.0-269.0-0.0,voc_e2,11837,"[{""event"":""fullscreenenter"",""trial"":1,""time"":1771},{""event"":""fullscreenenter"",""trial"":1,""time"":1771}]",NA,NA,NA,NA,NA,1,#D89F1C,#3386FF,10,0,1,38,1,658,37,1,340,10,1,experiment,NA,NA,0,0.9,0.1,0,1,259,6,NA
fcp-trial,295,1801884,0.0-270.0-0.0,voc_e2,11837,"[{""event"":""fullscreenenter"",""trial"":1,""time"":1771},{""event"":""fullscreenenter"",""trial"":1,""time"":1771}]",NA,NA,NA,NA,NA,4,#3386FF,#D89F1C,0,0,0,38,1,519,39,0,307.00000000023283,0,1,experiment,NA,NA,0,0.1,0.9,1,0,260,6,NA
fcp-trial,296,1804148,0.0-271.0-0.0,voc_e2,11837,"[{""event"":""fullscreenenter"",""trial"":1,""time"":1771},{""event"":""fullscreenenter"",""trial"":1,""time"":1771}]",NA,NA,NA,NA,NA,6,#741CD8,#D8271C,0,0,1,38,1,472,37,1,278,0,1,experiment,NA,NA,2,0.5,0.5,4,5,261,6,NA
fcp-trial,297,1807357,0.0-272.0-0.0,voc_e2,11837,"[{""event"":""fullscreenenter"",""trial"":1,""time"":1771},{""event"":""fullscreenenter"",""trial"":1,""time"":1771}]",NA,NA,NA,NA,NA,4,#FA92F8,#1CD855,0,10,0,38,1,551.0000000002328,39,0,1136,10,1,experiment,NA,NA,1,0.3,0.7,3,2,262,6,NA
fcp-trial,298,1810461,0.0-273.0-0.0,voc_e2,11837,"[{""event"":""fullscreenenter"",""trial"":1,""time"":1771},{""event"":""fullscreenenter"",""trial"":1,""time"":1771}]",NA,NA,NA,NA,NA,6,#3386FF,#D89F1C,0,10,0,38,1,1331.9999999997672,39,0,261,10,1,experiment,NA,NA,0,0.1,0.9,1,0,263,6,NA
fcp-trial,299,1813191,0.0-274.0-0.0,voc_e2,11837,"[{""event"":""fullscreenenter"",""trial"":1,""time"":1771},{""event"":""fullscreenenter"",""trial"":1,""time"":1771}]",NA,NA,NA,NA,NA,0,#D89F1C,#3386FF,10,0,1,38,1,652,37,1,567,10,1,experiment,NA,NA,0,0.9,0.1,0,1,264,6,NA
fcp-trial,300,1816028,0.0-275.0-0.0,voc_e2,11837,"[{""event"":""fullscreenenter"",""trial"":1,""time"":1771},{""event"":""fullscreenenter"",""trial"":1,""time"":1771}]",NA,NA,NA,NA,NA,2,#D8271C,#741CD8,10,10,0,38,1,554,37,1,772.0000000002328,10,0,experiment,NA,NA,2,0.5,0.5,5,4,265,6,NA
fcp-trial,301,1818430,0.0-276.0-0.0,voc_e2,11837,"[{""event"":""fullscreenenter"",""trial"":1,""time"":1771},{""event"":""fullscreenenter"",""trial"":1,""time"":1771}]",NA,NA,NA,NA,NA,3,#FA92F8,#1CD855,0,10,0,38,1,411,39,0,466.99999999976717,10,1,experiment,NA,NA,1,0.3,0.7,3,2,266,6,NA
fcp-trial,302,1821242,0.0-277.0-0.0,voc_e2,11837,"[{""event"":""fullscreenenter"",""trial"":1,""time"":1771},{""event"":""fullscreenenter"",""trial"":1,""time"":1771}]",NA,NA,NA,NA,NA,5,#D89F1C,#3386FF,10,0,1,40,0,898.0000000002328,39,0,402,0,0,experiment,NA,NA,0,0.9,0.1,0,1,267,6,NA
fcp-trial,303,1823969,0.0-278.0-0.0,voc_e2,11837,"[{""event"":""fullscreenenter"",""trial"":1,""time"":1771},{""event"":""fullscreenenter"",""trial"":1,""time"":1771}]",NA,NA,NA,NA,NA,5,#741CD8,#D8271C,10,0,1,40,0,812,37,1,391.99999999976717,10,1,experiment,NA,NA,2,0.5,0.5,4,5,268,6,NA
fcp-trial,304,1827244,0.0-279.0-0.0,voc_e2,11837,"[{""event"":""fullscreenenter"",""trial"":1,""time"":1771},{""event"":""fullscreenenter"",""trial"":1,""time"":1771}]",NA,NA,NA,NA,NA,3,#3386FF,#D89F1C,0,10,0,40,0,1052.9999999997672,39,0,708,10,1,experiment,NA,NA,0,0.1,0.9,1,0,269,6,NA
fcp-trial,305,1830625,0.0-280.0-0.0,voc_e2,11837,"[{""event"":""fullscreenenter"",""trial"":1,""time"":1771},{""event"":""fullscreenenter"",""trial"":1,""time"":1771}]",NA,NA,NA,NA,NA,6,#FA92F8,#1CD855,10,0,0,40,0,1586,39,0,286,0,1,experiment,NA,NA,1,0.3,0.7,3,2,270,6,NA
fcp-trial,306,1834060,0.0-281.0-0.0,voc_e2,11837,"[{""event"":""fullscreenenter"",""trial"":1,""time"":1771},{""event"":""fullscreenenter"",""trial"":1,""time"":1771}]",NA,NA,NA,NA,NA,0,#1CD855,#FA92F8,10,10,1,38,1,1476.9999999997672,37,1,446,10,1,experiment,NA,NA,1,0.7,0.3,2,3,271,7,NA
fcp-trial,307,1837002,0.0-282.0-0.0,voc_e2,11837,"[{""event"":""fullscreenenter"",""trial"":1,""time"":1771},{""event"":""fullscreenenter"",""trial"":1,""time"":1771}]",NA,NA,NA,NA,NA,4,#D8271C,#741CD8,10,10,0,40,0,1039,39,0,389,10,1,experiment,NA,NA,2,0.5,0.5,5,4,272,7,NA
fcp-trial,308,1839617,0.0-283.0-0.0,voc_e2,11837,"[{""event"":""fullscreenenter"",""trial"":1,""time"":1771},{""event"":""fullscreenenter"",""trial"":1,""time"":1771}]",NA,NA,NA,NA,NA,3,#741CD8,#D8271C,0,10,1,40,0,793,37,1,314,0,1,experiment,NA,NA,2,0.5,0.5,4,5,273,7,NA
fcp-trial,309,1842296,0.0-284.0-0.0,voc_e2,11837,"[{""event"":""fullscreenenter"",""trial"":1,""time"":1771},{""event"":""fullscreenenter"",""trial"":1,""time"":1771}]",NA,NA,NA,NA,NA,3,#741CD8,#D8271C,0,10,1,40,0,900,39,0,267.99999999976717,10,0,experiment,NA,NA,2,0.5,0.5,4,5,274,7,NA
fcp-trial,310,1845424,0.0-285.0-0.0,voc_e2,11837,"[{""event"":""fullscreenenter"",""trial"":1,""time"":1771},{""event"":""fullscreenenter"",""trial"":1,""time"":1771}]",NA,NA,NA,NA,NA,4,#1CD855,#FA92F8,0,0,1,40,0,1348.0000000002328,37,1,271.99999999976717,0,1,experiment,NA,NA,1,0.7,0.3,2,3,275,7,NA
fcp-trial,311,1848425,0.0-286.0-0.0,voc_e2,11837,"[{""event"":""fullscreenenter"",""trial"":1,""time"":1771},{""event"":""fullscreenenter"",""trial"":1,""time"":1771}]",NA,NA,NA,NA,NA,5,#1CD855,#FA92F8,10,10,1,38,1,1230,37,1,260,10,1,experiment,NA,NA,1,0.7,0.3,2,3,276,7,NA
fcp-trial,312,1851650,0.0-287.0-0.0,voc_e2,11837,"[{""event"":""fullscreenenter"",""trial"":1,""time"":1771},{""event"":""fullscreenenter"",""trial"":1,""time"":1771}]",NA,NA,NA,NA,NA,1,#741CD8,#D8271C,10,10,1,38,1,1373.0000000002328,39,0,342,10,0,experiment,NA,NA,2,0.5,0.5,4,5,277,7,NA
fcp-trial,313,1854179,0.0-288.0-0.0,voc_e2,11837,"[{""event"":""fullscreenenter"",""trial"":1,""time"":1771},{""event"":""fullscreenenter"",""trial"":1,""time"":1771}]",NA,NA,NA,NA,NA,1,#D89F1C,#3386FF,10,10,1,38,1,395.99999999976717,37,1,618,10,1,experiment,NA,NA,0,0.9,0.1,0,1,278,7,NA
fcp-trial,314,1857255,0.0-289.0-0.0,voc_e2,11837,"[{""event"":""fullscreenenter"",""trial"":1,""time"":1771},{""event"":""fullscreenenter"",""trial"":1,""time"":1771}]",NA,NA,NA,NA,NA,4,#D89F1C,#3386FF,10,0,1,38,1,1213.9999999997672,39,0,332,0,0,experiment,NA,NA,0,0.9,0.1,0,1,279,7,NA
fcp-trial,315,1859733,0.0-290.0-0.0,voc_e2,11837,"[{""event"":""fullscreenenter"",""trial"":1,""time"":1771},{""event"":""fullscreenenter"",""trial"":1,""time"":1771}]",NA,NA,NA,NA,NA,6,#741CD8,#D8271C,0,0,1,38,1,490,37,1,479,0,1,experiment,NA,NA,2,0.5,0.5,4,5,280,7,NA
fcp-trial,316,1862198,0.0-291.0-0.0,voc_e2,11837,"[{""event"":""fullscreenenter"",""trial"":1,""time"":1771},{""event"":""fullscreenenter"",""trial"":1,""time"":1771}]",NA,NA,NA,NA,NA,6,#1CD855,#FA92F8,10,10,1,38,1,431.00000000023283,37,1,524,10,1,experiment,NA,NA,1,0.7,0.3,2,3,281,7,NA
fcp-trial,317,1865006,0.0-292.0-0.0,voc_e2,11837,"[{""event"":""fullscreenenter"",""trial"":1,""time"":1771},{""event"":""fullscreenenter"",""trial"":1,""time"":1771}]",NA,NA,NA,NA,NA,2,#D89F1C,#3386FF,10,0,1,38,1,976,39,0,312,0,0,experiment,NA,NA,0,0.9,0.1,0,1,282,7,NA
fcp-trial,318,1867323,0.0-293.0-0.0,voc_e2,11837,"[{""event"":""fullscreenenter"",""trial"":1,""time"":1771},{""event"":""fullscreenenter"",""trial"":1,""time"":1771}]",NA,NA,NA,NA,NA,4,#741CD8,#D8271C,10,10,1,38,1,414,37,1,390.99999999976717,10,1,experiment,NA,NA,2,0.5,0.5,4,5,283,7,NA
fcp-trial,319,1870178,0.0-294.0-0.0,voc_e2,11837,"[{""event"":""fullscreenenter"",""trial"":1,""time"":1771},{""event"":""fullscreenenter"",""trial"":1,""time"":1771}]",NA,NA,NA,NA,NA,0,#3386FF,#D89F1C,0,10,0,38,1,718.9999999997672,39,0,609.9999999997672,10,1,experiment,NA,NA,0,0.1,0.9,1,0,284,7,NA
fcp-trial,320,1872634,0.0-295.0-0.0,voc_e2,11837,"[{""event"":""fullscreenenter"",""trial"":1,""time"":1771},{""event"":""fullscreenenter"",""trial"":1,""time"":1771}]",NA,NA,NA,NA,NA,3,#1CD855,#FA92F8,10,0,1,38,1,485,37,1,460.00000000023283,10,1,experiment,NA,NA,1,0.7,0.3,2,3,285,7,NA
fcp-trial,321,1875333,0.0-296.0-0.0,voc_e2,11837,"[{""event"":""fullscreenenter"",""trial"":1,""time"":1771},{""event"":""fullscreenenter"",""trial"":1,""time"":1771}]",NA,NA,NA,NA,NA,2,#FA92F8,#1CD855,0,0,0,38,1,702.9999999997672,39,0,486,0,1,experiment,NA,NA,1,0.3,0.7,3,2,286,7,NA
fcp-trial,322,1878664,0.0-297.0-0.0,voc_e2,11837,"[{""event"":""fullscreenenter"",""trial"":1,""time"":1771},{""event"":""fullscreenenter"",""trial"":1,""time"":1771}]",NA,NA,NA,NA,NA,5,#D89F1C,#3386FF,10,0,1,38,1,833,37,1,989.0000000002328,10,1,experiment,NA,NA,0,0.9,0.1,0,1,287,7,NA
fcp-trial,323,1882290,0.0-298.0-0.0,voc_e2,11837,"[{""event"":""fullscreenenter"",""trial"":1,""time"":1771},{""event"":""fullscreenenter"",""trial"":1,""time"":1771}]",NA,NA,NA,NA,NA,2,#D8271C,#741CD8,10,0,0,40,0,1407,37,1,709,10,0,experiment,NA,NA,2,0.5,0.5,5,4,288,7,NA
fcp-trial,324,1885381,0.0-299.0-0.0,voc_e2,11837,"[{""event"":""fullscreenenter"",""trial"":1,""time"":1771},{""event"":""fullscreenenter"",""trial"":1,""time"":1771}]",NA,NA,NA,NA,NA,0,#741CD8,#D8271C,0,10,1,38,1,1298,39,0,280,10,0,experiment,NA,NA,2,0.5,0.5,4,5,289,7,NA
fcp-trial,325,1888631,0.0-300.0-0.0,voc_e2,11837,"[{""event"":""fullscreenenter"",""trial"":1,""time"":1771},{""event"":""fullscreenenter"",""trial"":1,""time"":1771}]",NA,NA,NA,NA,NA,0,#1CD855,#FA92F8,0,0,1,38,1,1207,37,1,533,0,1,experiment,NA,NA,1,0.7,0.3,2,3,290,7,NA
fcp-trial,326,1890993,0.0-301.0-0.0,voc_e2,11837,"[{""event"":""fullscreenenter"",""trial"":1,""time"":1771},{""event"":""fullscreenenter"",""trial"":1,""time"":1771}]",NA,NA,NA,NA,NA,5,#D8271C,#741CD8,10,10,0,38,1,498,39,0,353,10,1,experiment,NA,NA,2,0.5,0.5,5,4,291,7,NA
fcp-trial,327,1894114,0.0-302.0-0.0,voc_e2,11837,"[{""event"":""fullscreenenter"",""trial"":1,""time"":1771},{""event"":""fullscreenenter"",""trial"":1,""time"":1771}]",NA,NA,NA,NA,NA,6,#D89F1C,#3386FF,10,0,1,40,0,1258.0000000002328,39,0,352,0,0,experiment,NA,NA,0,0.9,0.1,0,1,292,7,NA
fcp-trial,328,1897834,0.0-303.0-0.0,voc_e2,11837,"[{""event"":""fullscreenenter"",""trial"":1,""time"":1771},{""event"":""fullscreenenter"",""trial"":1,""time"":1771}]",NA,NA,NA,NA,NA,3,#D89F1C,#3386FF,10,10,1,40,0,1635.0000000002328,39,0,577,10,0,experiment,NA,NA,0,0.9,0.1,0,1,293,7,NA
fcp-trial,329,1900673,0.0-304.0-0.0,voc_e2,11837,"[{""event"":""fullscreenenter"",""trial"":1,""time"":1771},{""event"":""fullscreenenter"",""trial"":1,""time"":1771}]",NA,NA,NA,NA,NA,1,#1CD855,#FA92F8,10,0,1,38,1,985,37,1,344.00000000023283,10,1,experiment,NA,NA,1,0.7,0.3,2,3,294,7,NA
fcp-trial,330,1902935,0.0-305.0-0.0,voc_e2,11837,"[{""event"":""fullscreenenter"",""trial"":1,""time"":1771},{""event"":""fullscreenenter"",""trial"":1,""time"":1771}]",NA,NA,NA,NA,NA,6,#FA92F8,#1CD855,0,10,0,38,1,465,39,0,276,10,1,experiment,NA,NA,1,0.3,0.7,3,2,295,7,NA
fcp-trial,331,1905558,0.0-306.0-0.0,voc_e2,11837,"[{""event"":""fullscreenenter"",""trial"":1,""time"":1771},{""event"":""fullscreenenter"",""trial"":1,""time"":1771}]",NA,NA,NA,NA,NA,4,#741CD8,#D8271C,10,10,1,38,1,762,37,1,352.00000000023283,10,1,experiment,NA,NA,2,0.5,0.5,4,5,296,7,NA
fcp-trial,332,1907908,0.0-307.0-0.0,voc_e2,11837,"[{""event"":""fullscreenenter"",""trial"":1,""time"":1771},{""event"":""fullscreenenter"",""trial"":1,""time"":1771}]",NA,NA,NA,NA,NA,2,#D89F1C,#3386FF,10,0,1,38,1,508.00000000023283,37,1,321.99999999976717,10,1,experiment,NA,NA,0,0.9,0.1,0,1,297,7,NA
fcp-trial,333,1910645,0.0-308.0-0.0,voc_e2,11837,"[{""event"":""fullscreenenter"",""trial"":1,""time"":1771},{""event"":""fullscreenenter"",""trial"":1,""time"":1771}]",NA,NA,NA,NA,NA,2,#FA92F8,#1CD855,10,10,0,38,1,940,39,0,284,10,1,experiment,NA,NA,1,0.3,0.7,3,2,298,7,NA
fcp-trial,334,1913633,0.0-309.0-0.0,voc_e2,11837,"[{""event"":""fullscreenenter"",""trial"":1,""time"":1771},{""event"":""fullscreenenter"",""trial"":1,""time"":1771}]",NA,NA,NA,NA,NA,6,#741CD8,#D8271C,0,10,1,40,0,1107,37,1,361.00000000023283,0,1,experiment,NA,NA,2,0.5,0.5,4,5,299,7,NA
fcp-trial,335,1916600,0.0-310.0-0.0,voc_e2,11837,"[{""event"":""fullscreenenter"",""trial"":1,""time"":1771},{""event"":""fullscreenenter"",""trial"":1,""time"":1771}]",NA,NA,NA,NA,NA,4,#1CD855,#FA92F8,10,10,1,38,1,1121,37,1,321,10,1,experiment,NA,NA,1,0.7,0.3,2,3,300,7,NA
fcp-trial,336,1919432,0.0-311.0-0.0,voc_e2,11837,"[{""event"":""fullscreenenter"",""trial"":1,""time"":1771},{""event"":""fullscreenenter"",""trial"":1,""time"":1771}]",NA,NA,NA,NA,NA,6,#D89F1C,#3386FF,10,0,1,38,1,892,37,1,428.00000000023283,10,1,experiment,NA,NA,0,0.9,0.1,0,1,301,7,NA
fcp-trial,337,1922391,0.0-312.0-0.0,voc_e2,11837,"[{""event"":""fullscreenenter"",""trial"":1,""time"":1771},{""event"":""fullscreenenter"",""trial"":1,""time"":1771}]",NA,NA,NA,NA,NA,1,#741CD8,#D8271C,10,0,1,38,1,914,39,0,524,0,0,experiment,NA,NA,2,0.5,0.5,4,5,302,7,NA
fcp-trial,338,1924644,0.0-313.0-0.0,voc_e2,11837,"[{""event"":""fullscreenenter"",""trial"":1,""time"":1771},{""event"":""fullscreenenter"",""trial"":1,""time"":1771}]",NA,NA,NA,NA,NA,2,#741CD8,#D8271C,0,0,1,38,1,376,39,0,361.99999999976717,0,0,experiment,NA,NA,2,0.5,0.5,4,5,303,7,NA
fcp-trial,339,1926974,0.0-314.0-0.0,voc_e2,11837,"[{""event"":""fullscreenenter"",""trial"":1,""time"":1771},{""event"":""fullscreenenter"",""trial"":1,""time"":1771}]",NA,NA,NA,NA,NA,0,#1CD855,#FA92F8,10,0,1,38,1,452,37,1,368.99999999976717,10,1,experiment,NA,NA,1,0.7,0.3,2,3,304,7,NA
fcp-trial,340,1930132,0.0-315.0-0.0,voc_e2,11837,"[{""event"":""fullscreenenter"",""trial"":1,""time"":1771},{""event"":""fullscreenenter"",""trial"":1,""time"":1771}]",NA,NA,NA,NA,NA,5,#D8271C,#741CD8,10,10,0,40,0,1042,37,1,603.9999999997672,10,0,experiment,NA,NA,2,0.5,0.5,5,4,305,7,NA
fcp-trial,341,1933095,0.0-316.0-0.0,voc_e2,11837,"[{""event"":""fullscreenenter"",""trial"":1,""time"":1771},{""event"":""fullscreenenter"",""trial"":1,""time"":1771}]",NA,NA,NA,NA,NA,3,#3386FF,#D89F1C,0,10,0,40,0,811,37,1,640.0000000002328,0,0,experiment,NA,NA,0,0.1,0.9,1,0,306,7,NA
fcp-trial,342,1936050,0.0-317.0-0.0,voc_e2,11837,"[{""event"":""fullscreenenter"",""trial"":1,""time"":1771},{""event"":""fullscreenenter"",""trial"":1,""time"":1771}]",NA,NA,NA,NA,NA,5,#FA92F8,#1CD855,0,10,0,38,1,1048,39,0,383,10,1,experiment,NA,NA,1,0.3,0.7,3,2,307,7,NA
fcp-trial,343,1938535,0.0-318.0-0.0,voc_e2,11837,"[{""event"":""fullscreenenter"",""trial"":1,""time"":1771},{""event"":""fullscreenenter"",""trial"":1,""time"":1771}]",NA,NA,NA,NA,NA,0,#D8271C,#741CD8,0,10,0,38,1,483,37,1,482,0,0,experiment,NA,NA,2,0.5,0.5,5,4,308,7,NA
fcp-trial,344,1941511,0.0-319.0-0.0,voc_e2,11837,"[{""event"":""fullscreenenter"",""trial"":1,""time"":1771},{""event"":""fullscreenenter"",""trial"":1,""time"":1771}]",NA,NA,NA,NA,NA,0,#D89F1C,#3386FF,10,10,1,38,1,1141.9999999997672,37,1,308,10,1,experiment,NA,NA,0,0.9,0.1,0,1,309,7,NA
fcp-trial,345,1945690,0.0-320.0-0.0,voc_e2,11837,"[{""event"":""fullscreenenter"",""trial"":1,""time"":1771},{""event"":""fullscreenenter"",""trial"":1,""time"":1771}]",NA,NA,NA,NA,NA,3,#FA92F8,#1CD855,0,10,0,38,1,1783,39,0,888,10,1,experiment,NA,NA,1,0.3,0.7,3,2,310,7,NA
fcp-trial,346,1948777,0.0-321.0-0.0,voc_e2,11837,"[{""event"":""fullscreenenter"",""trial"":1,""time"":1771},{""event"":""fullscreenenter"",""trial"":1,""time"":1771}]",NA,NA,NA,NA,NA,3,#741CD8,#D8271C,10,10,1,40,0,1207,37,1,371,10,1,experiment,NA,NA,2,0.5,0.5,4,5,311,7,NA
fcp-trial,347,1952285,0.0-322.0-0.0,voc_e2,11837,"[{""event"":""fullscreenenter"",""trial"":1,""time"":1771},{""event"":""fullscreenenter"",""trial"":1,""time"":1771}]",NA,NA,NA,NA,NA,1,#3386FF,#D89F1C,0,10,0,38,1,1619,39,0,366,10,1,experiment,NA,NA,0,0.1,0.9,1,0,312,7,NA
fcp-trial,348,1955508,0.0-323.0-0.0,voc_e2,11837,"[{""event"":""fullscreenenter"",""trial"":1,""time"":1771},{""event"":""fullscreenenter"",""trial"":1,""time"":1771}]",NA,NA,NA,NA,NA,5,#3386FF,#D89F1C,10,10,0,40,0,1371.9999999997672,39,0,328,10,1,experiment,NA,NA,0,0.1,0.9,1,0,313,7,NA
fcp-trial,349,1958659,0.0-324.0-0.0,voc_e2,11837,"[{""event"":""fullscreenenter"",""trial"":1,""time"":1771},{""event"":""fullscreenenter"",""trial"":1,""time"":1771}]",NA,NA,NA,NA,NA,1,#FA92F8,#1CD855,0,10,0,38,1,1325.9999999997672,39,0,312.99999999976717,10,1,experiment,NA,NA,1,0.3,0.7,3,2,314,7,NA
fcp-trial,350,1961670,0.0-325.0-0.0,voc_e2,11837,"[{""event"":""fullscreenenter"",""trial"":1,""time"":1771},{""event"":""fullscreenenter"",""trial"":1,""time"":1771}]",NA,NA,NA,NA,NA,4,#3386FF,#D89F1C,0,10,0,40,0,1176.0000000002328,39,0,317,10,1,experiment,NA,NA,0,0.1,0.9,1,0,315,7,NA
audio-instructions,351,1967910,0.0-326.0,voc_e2,11837,"[{""event"":""fullscreenenter"",""trial"":1,""time"":1771},{""event"":""fullscreenenter"",""trial"":1,""time"":1771}]",NA,603.9999999997672,static/audio/finished.wav,NA,0,NA,NA,NA,NA,NA,NA,NA,NA,NA,NA,NA,NA,NA,NA,NA,NA,NA,NA,NA,NA,NA,NA,NA,NA,NA
audio-instructions,352,1979613,0.0-327.0-0.0,voc_e2,11837,"[{""event"":""fullscreenenter"",""trial"":1,""time"":1771},{""event"":""fullscreenenter"",""trial"":1,""time"":1771}]",NA,856.9999999997672,static/audio/explicit1.wav,NA,0,NA,NA,NA,NA,NA,NA,NA,NA,NA,NA,NA,NA,NA,NA,NA,NA,NA,NA,NA,NA,NA,NA,NA,NA,NA
audio-instructions,353,1987590,0.0-327.0-1.0,voc_e2,11837,"[{""event"":""fullscreenenter"",""trial"":1,""time"":1771},{""event"":""fullscreenenter"",""trial"":1,""time"":1771}]",NA,378,static/audio/explicit2.wav,NA,0,NA,NA,NA,NA,NA,NA,NA,NA,NA,NA,NA,NA,NA,NA,NA,NA,NA,NA,NA,NA,NA,NA,NA,NA,NA
image-slider-response,354,1993697,0.0-328.0,voc_e2,11837,"[{""event"":""fullscreenenter"",""trial"":1,""time"":1771},{""event"":""fullscreenenter"",""trial"":1,""time"":1771}]",NA,6106,static/img/machines/machine3.png,NA,NA,NA,NA,NA,NA,NA,NA,NA,NA,NA,NA,NA,NA,NA,NA,explicit,NA,NA,NA,NA,NA,NA,NA,NA,NA,3
image-slider-response,355,1997989,0.0-329.0,voc_e2,11837,"[{""event"":""fullscreenenter"",""trial"":1,""time"":1771},{""event"":""fullscreenenter"",""trial"":1,""time"":1771}]",NA,4288.999999999767,static/img/machines/machine5.png,NA,NA,NA,NA,NA,NA,NA,NA,NA,NA,NA,NA,NA,NA,NA,NA,explicit,NA,NA,NA,NA,NA,NA,NA,NA,NA,4
image-slider-response,356,2001751,0.0-330.0,voc_e2,11837,"[{""event"":""fullscreenenter"",""trial"":1,""time"":1771},{""event"":""fullscreenenter"",""trial"":1,""time"":1771}]",NA,3760,static/img/machines/machine6.png,NA,NA,NA,NA,NA,NA,NA,NA,NA,NA,NA,NA,NA,NA,NA,NA,explicit,NA,NA,NA,NA,NA,NA,NA,NA,NA,7
