trial_type,trial_index,time_elapsed,internal_node_id,task_version,subject_id,interactions,success,rt,stimulus,key_press,button_pressed,offer,arcade_color_L,arcade_color_R,arcade_outcome_L,arcade_outcome_R,correct,stage_1_key,stage_1_choice,stage_1_rt,stage_2_key,stage_2_choice,stage_2_rt,stage_3_outcome,accuracy,phase,responses,num_errors,context,reward_prob_L,reward_prob_R,arcade_id_L,arcade_id_R,trial,block,response
pavlovia,0,9,0.0-0.0,voc_e2,12339,[],NA,NA,NA,NA,NA,NA,NA,NA,NA,NA,NA,NA,NA,NA,NA,NA,NA,NA,NA,NA,NA,NA,NA,NA,NA,NA,NA,NA,NA,NA
fullscreen,1,36680,0.0-1.0,voc_e2,12339,"[{""event"":""fullscreenenter"",""trial"":1,""time"":35733}]",TRUE,NA,NA,NA,NA,NA,NA,NA,NA,NA,NA,NA,NA,NA,NA,NA,NA,NA,NA,NA,NA,NA,NA,NA,NA,NA,NA,NA,NA,NA
audio-keyboard-response,2,49364,0.0-2.0,voc_e2,12339,"[{""event"":""fullscreenenter"",""trial"":1,""time"":35733}]",NA,12395,static/audio/beep_loop.wav,32,NA,NA,NA,NA,NA,NA,NA,NA,NA,NA,NA,NA,NA,NA,NA,NA,NA,NA,NA,NA,NA,NA,NA,NA,NA,NA
audio-test,3,51454,0.0-3.0,voc_e2,12339,"[{""event"":""fullscreenenter"",""trial"":1,""time"":35733}]",NA,NA,static/audio/turtle.wav,NA,3,NA,NA,NA,NA,NA,NA,NA,NA,NA,NA,NA,NA,NA,NA,NA,NA,NA,NA,NA,NA,NA,NA,NA,NA,NA
audio-test,4,53617,0.0-4.0,voc_e2,12339,"[{""event"":""fullscreenenter"",""trial"":1,""time"":35733}]",NA,NA,static/audio/shark.wav,NA,2,NA,NA,NA,NA,NA,NA,NA,NA,NA,NA,NA,NA,NA,NA,NA,NA,NA,NA,NA,NA,NA,NA,NA,NA,NA
audio-instructions,5,60822,0.0-5.0-0.0,voc_e2,12339,"[{""event"":""fullscreenenter"",""trial"":1,""time"":35733}]",NA,1422.0999999940395,static/audio/instructions1.wav,NA,0,NA,NA,NA,NA,NA,NA,NA,NA,NA,NA,NA,NA,NA,NA,NA,NA,NA,NA,NA,NA,NA,NA,NA,NA,NA
audio-instructions,6,69121,0.0-5.0-1.0,voc_e2,12339,"[{""event"":""fullscreenenter"",""trial"":1,""time"":35733}]",NA,1553.5999999940395,static/audio/instructions2.wav,NA,0,NA,NA,NA,NA,NA,NA,NA,NA,NA,NA,NA,NA,NA,NA,NA,NA,NA,NA,NA,NA,NA,NA,NA,NA,NA
audio-instructions,7,81283,0.0-5.0-2.0,voc_e2,12339,"[{""event"":""fullscreenenter"",""trial"":1,""time"":35733}]",NA,6363.5999999940395,static/audio/instructions3.wav,NA,0,NA,NA,NA,NA,NA,NA,NA,NA,NA,NA,NA,NA,NA,NA,NA,NA,NA,NA,NA,NA,NA,NA,NA,NA,NA
audio-instructions,8,119186,0.0-5.0-3.0,voc_e2,12339,"[{""event"":""fullscreenenter"",""trial"":1,""time"":35733}]",NA,24671.89999999106,static/audio/instructions4.wav,NA,0,NA,NA,NA,NA,NA,NA,NA,NA,NA,NA,NA,NA,NA,NA,NA,NA,NA,NA,NA,NA,NA,NA,NA,NA,NA
audio-instructions,9,130265,0.0-5.0-4.0,voc_e2,12339,"[{""event"":""fullscreenenter"",""trial"":1,""time"":35733}]",NA,1692.7000000029802,static/audio/instructions5.wav,NA,0,NA,NA,NA,NA,NA,NA,NA,NA,NA,NA,NA,NA,NA,NA,NA,NA,NA,NA,NA,NA,NA,NA,NA,NA,NA
fcp-practice,10,132449,0.0-5.0-5.0-0.0,voc_e2,12339,"[{""event"":""fullscreenenter"",""trial"":1,""time"":35733}]",NA,NA,NA,NA,NA,NA,#EDC948,#46d3c8,10,0,1,null,null,null,37,1,641.2999999970198,10,1,practice,NA,NA,NA,NA,NA,NA,NA,NA,NA,NA
fcp-practice,11,134472,0.0-5.0-5.0-1.0,voc_e2,12339,"[{""event"":""fullscreenenter"",""trial"":1,""time"":35733}]",NA,NA,NA,NA,NA,NA,#EDC948,#46d3c8,10,0,1,null,null,null,37,1,507.90000000596046,10,1,practice,NA,NA,NA,NA,NA,NA,NA,NA,NA,NA
fcp-practice,12,136469,0.0-5.0-5.0-2.0,voc_e2,12339,"[{""event"":""fullscreenenter"",""trial"":1,""time"":35733}]",NA,NA,NA,NA,NA,NA,#EDC948,#46d3c8,0,10,1,null,null,null,37,1,482.70000000298023,0,1,practice,NA,NA,NA,NA,NA,NA,NA,NA,NA,NA
fcp-practice,13,138428,0.0-5.0-5.0-3.0,voc_e2,12339,"[{""event"":""fullscreenenter"",""trial"":1,""time"":35733}]",NA,NA,NA,NA,NA,NA,#EDC948,#46d3c8,10,0,1,null,null,null,37,1,444.69999998807907,10,1,practice,NA,NA,NA,NA,NA,NA,NA,NA,NA,NA
fcp-practice,14,140199,0.0-5.0-5.0-4.0,voc_e2,12339,"[{""event"":""fullscreenenter"",""trial"":1,""time"":35733}]",NA,NA,NA,NA,NA,NA,#EDC948,#46d3c8,10,0,1,null,null,null,37,1,264,10,1,practice,NA,NA,NA,NA,NA,NA,NA,NA,NA,NA
audio-instructions,15,160306,0.0-5.0-6.0,voc_e2,12339,"[{""event"":""fullscreenenter"",""trial"":1,""time"":35733}]",NA,2102.1000000089407,static/audio/instructions6.wav,NA,0,NA,NA,NA,NA,NA,NA,NA,NA,NA,NA,NA,NA,NA,NA,NA,NA,NA,NA,NA,NA,NA,NA,NA,NA,NA
audio-instructions,16,182686,0.0-5.0-7.0,voc_e2,12339,"[{""event"":""fullscreenenter"",""trial"":1,""time"":35733}]",NA,3181,static/audio/instructions7.wav,NA,0,NA,NA,NA,NA,NA,NA,NA,NA,NA,NA,NA,NA,NA,NA,NA,NA,NA,NA,NA,NA,NA,NA,NA,NA,NA
audio-instructions,17,192919,0.0-5.0-8.0,voc_e2,12339,"[{""event"":""fullscreenenter"",""trial"":1,""time"":35733}]",NA,762.2999999970198,static/audio/instructions8.wav,NA,0,NA,NA,NA,NA,NA,NA,NA,NA,NA,NA,NA,NA,NA,NA,NA,NA,NA,NA,NA,NA,NA,NA,NA,NA,NA
fcp-comprehension,18,220655,0.0-5.0-9.0,voc_e2,12339,"[{""event"":""fullscreenenter"",""trial"":1,""time"":35733}]",NA,27728,NA,NA,NA,NA,NA,NA,NA,NA,NA,NA,NA,NA,NA,NA,NA,NA,NA,NA,"true,true",0,NA,NA,NA,NA,NA,NA,NA,NA
audio-instructions,19,229064,0.0-6.0-0.0,voc_e2,12339,"[{""event"":""fullscreenenter"",""trial"":1,""time"":35733}]",NA,2859.6000000089407,static/audio/instructions9.wav,NA,0,NA,NA,NA,NA,NA,NA,NA,NA,NA,NA,NA,NA,NA,NA,NA,NA,NA,NA,NA,NA,NA,NA,NA,NA,NA
audio-instructions,20,243262,0.0-6.0-1.0,voc_e2,12339,"[{""event"":""fullscreenenter"",""trial"":1,""time"":35733}]",NA,2081.5,static/audio/instructions10.wav,NA,0,NA,NA,NA,NA,NA,NA,NA,NA,NA,NA,NA,NA,NA,NA,NA,NA,NA,NA,NA,NA,NA,NA,NA,NA,NA
fcp-trial,21,247978,0.0-6.0-2.0,voc_e2,12339,"[{""event"":""fullscreenenter"",""trial"":1,""time"":35733}]",NA,NA,NA,NA,NA,0,#EDC948,#46d3c8,10,10,1,38,1,1484.7000000029802,39,0,1682,10,0,practice,NA,NA,NA,NA,NA,NA,NA,NA,NA,NA
audio-instructions,22,261824,0.0-6.0-3.0,voc_e2,12339,"[{""event"":""fullscreenenter"",""trial"":1,""time"":35733}]",NA,2829.6000000089407,static/audio/instructions11.wav,NA,0,NA,NA,NA,NA,NA,NA,NA,NA,NA,NA,NA,NA,NA,NA,NA,NA,NA,NA,NA,NA,NA,NA,NA,NA,NA
fcp-trial,23,267876,0.0-6.0-4.0,voc_e2,12339,"[{""event"":""fullscreenenter"",""trial"":1,""time"":35733}]",NA,NA,NA,NA,NA,6,#EDC948,#46d3c8,10,10,1,40,0,3351.6000000089407,39,0,1176.5,10,0,practice,NA,NA,NA,NA,NA,NA,NA,NA,NA,NA
audio-instructions,24,287099,0.0-6.0-5.0,voc_e2,12339,"[{""event"":""fullscreenenter"",""trial"":1,""time"":35733}]",NA,530.7000000029802,static/audio/instructions12.wav,NA,0,NA,NA,NA,NA,NA,NA,NA,NA,NA,NA,NA,NA,NA,NA,NA,NA,NA,NA,NA,NA,NA,NA,NA,NA,NA
audio-instructions,25,295419,0.0-6.0-6.0,voc_e2,12339,"[{""event"":""fullscreenenter"",""trial"":1,""time"":35733}]",NA,724.5,static/audio/instructions13.wav,NA,0,NA,NA,NA,NA,NA,NA,NA,NA,NA,NA,NA,NA,NA,NA,NA,NA,NA,NA,NA,NA,NA,NA,NA,NA,NA
audio-instructions,26,304493,0.0-6.0-7.0,voc_e2,12339,"[{""event"":""fullscreenenter"",""trial"":1,""time"":35733}]",NA,625.2000000029802,static/audio/instructions14.wav,NA,0,NA,NA,NA,NA,NA,NA,NA,NA,NA,NA,NA,NA,NA,NA,NA,NA,NA,NA,NA,NA,NA,NA,NA,NA,NA
audio-instructions,27,312137,0.0-7.0-0.0,voc_e2,12339,"[{""event"":""fullscreenenter"",""trial"":1,""time"":35733}]",NA,727.4000000059605,static/audio/instructions15.wav,NA,0,NA,NA,NA,NA,NA,NA,NA,NA,NA,NA,NA,NA,NA,NA,NA,NA,NA,NA,NA,NA,NA,NA,NA,NA,NA
audio-instructions,28,319605,0.0-7.0-1.0,voc_e2,12339,"[{""event"":""fullscreenenter"",""trial"":1,""time"":35733}]",NA,645.2999999970198,static/audio/instructions16.wav,NA,0,NA,NA,NA,NA,NA,NA,NA,NA,NA,NA,NA,NA,NA,NA,NA,NA,NA,NA,NA,NA,NA,NA,NA,NA,NA
audio-instructions,29,327954,0.0-7.0-2.0,voc_e2,12339,"[{""event"":""fullscreenenter"",""trial"":1,""time"":35733}]",NA,673.5999999940395,static/audio/instructions17.wav,NA,0,NA,NA,NA,NA,NA,NA,NA,NA,NA,NA,NA,NA,NA,NA,NA,NA,NA,NA,NA,NA,NA,NA,NA,NA,NA
audio-instructions,30,337314,0.0-7.0-3.0,voc_e2,12339,"[{""event"":""fullscreenenter"",""trial"":1,""time"":35733}]",NA,1595.7999999970198,static/audio/instructions18.wav,NA,0,NA,NA,NA,NA,NA,NA,NA,NA,NA,NA,NA,NA,NA,NA,NA,NA,NA,NA,NA,NA,NA,NA,NA,NA,NA
audio-instructions,31,373563,0.0-7.0-4.0,voc_e2,12339,"[{""event"":""fullscreenenter"",""trial"":1,""time"":35733}]",NA,29503.5,static/audio/instructions19.wav,NA,0,NA,NA,NA,NA,NA,NA,NA,NA,NA,NA,NA,NA,NA,NA,NA,NA,NA,NA,NA,NA,NA,NA,NA,NA,NA
fcp-comprehension,32,396888,0.0-7.0-5.0,voc_e2,12339,"[{""event"":""fullscreenenter"",""trial"":1,""time"":35733}]",NA,23318.59999999404,NA,NA,NA,NA,NA,NA,NA,NA,NA,NA,NA,NA,NA,NA,NA,NA,NA,NA,"false,false,false,true",0,NA,NA,NA,NA,NA,NA,NA,NA
audio-instructions,33,408449,0.0-8.0,voc_e2,12339,"[{""event"":""fullscreenenter"",""trial"":1,""time"":35733}]",NA,2143,static/audio/ready.wav,NA,0,NA,NA,NA,NA,NA,NA,NA,NA,NA,NA,NA,NA,NA,NA,NA,NA,NA,NA,NA,NA,NA,NA,NA,NA,NA
fcp-trial,34,412911,0.0-9.0-0.0,voc_e2,12339,"[{""event"":""fullscreenenter"",""trial"":1,""time"":35733}]",NA,NA,NA,NA,NA,2,#1CD855,#FA92F8,0,10,0,38,1,2258.7999999970198,37,1,689,0,0,experiment,NA,NA,1,0.3,0.7,3,2,1,1,NA
fcp-trial,35,418527,0.0-10.0-0.0,voc_e2,12339,"[{""event"":""fullscreenenter"",""trial"":1,""time"":35733}]",NA,NA,NA,NA,NA,1,#3386FF,#D89F1C,10,0,1,38,1,3660.7999999970198,39,0,432.3999999910593,0,0,experiment,NA,NA,0,0.9,0.1,0,1,2,1,NA
fcp-trial,36,421770,0.0-11.0-0.0,voc_e2,12339,"[{""event"":""fullscreenenter"",""trial"":1,""time"":35733}]",NA,NA,NA,NA,NA,3,#3386FF,#D89F1C,0,0,1,38,1,1149.1000000089407,37,1,571,0,1,experiment,NA,NA,0,0.9,0.1,0,1,3,1,NA
fcp-trial,37,424334,0.0-12.0-0.0,voc_e2,12339,"[{""event"":""fullscreenenter"",""trial"":1,""time"":35733}]",NA,NA,NA,NA,NA,2,#D89F1C,#3386FF,0,10,0,38,1,433.30000001192093,39,0,621.7999999970198,10,1,experiment,NA,NA,0,0.1,0.9,1,0,4,1,NA
fcp-trial,38,428535,0.0-13.0-0.0,voc_e2,12339,"[{""event"":""fullscreenenter"",""trial"":1,""time"":35733}]",NA,NA,NA,NA,NA,3,#741CD8,#D8271C,10,10,0,40,0,1644.0999999940395,37,1,1048.5,10,0,experiment,NA,NA,2,0.5,0.5,5,4,5,1,NA
fcp-trial,39,431671,0.0-14.0-0.0,voc_e2,12339,"[{""event"":""fullscreenenter"",""trial"":1,""time"":35733}]",NA,NA,NA,NA,NA,3,#FA92F8,#1CD855,10,0,1,40,0,998.2000000029802,37,1,630.4000000059605,10,1,experiment,NA,NA,1,0.7,0.3,2,3,6,1,NA
fcp-trial,40,434238,0.0-15.0-0.0,voc_e2,12339,"[{""event"":""fullscreenenter"",""trial"":1,""time"":35733}]",NA,NA,NA,NA,NA,5,#741CD8,#D8271C,0,0,0,40,0,526.4000000059605,39,0,531.7000000029802,0,1,experiment,NA,NA,2,0.5,0.5,5,4,7,1,NA
fcp-trial,41,437166,0.0-16.0-0.0,voc_e2,12339,"[{""event"":""fullscreenenter"",""trial"":1,""time"":35733}]",NA,NA,NA,NA,NA,5,#D89F1C,#3386FF,0,0,0,38,1,791.2000000029802,37,1,612.2999999970198,0,0,experiment,NA,NA,0,0.1,0.9,1,0,8,1,NA
fcp-trial,42,439627,0.0-17.0-0.0,voc_e2,12339,"[{""event"":""fullscreenenter"",""trial"":1,""time"":35733}]",NA,NA,NA,NA,NA,0,#D8271C,#741CD8,0,0,1,38,1,385.90000000596046,39,0,560.7000000029802,0,0,experiment,NA,NA,2,0.5,0.5,4,5,9,1,NA
fcp-trial,43,442121,0.0-18.0-0.0,voc_e2,12339,"[{""event"":""fullscreenenter"",""trial"":1,""time"":35733}]",NA,NA,NA,NA,NA,0,#D89F1C,#3386FF,0,10,0,38,1,613.9000000059605,39,0,353.59999999403954,10,1,experiment,NA,NA,0,0.1,0.9,1,0,10,1,NA
fcp-trial,44,444859,0.0-19.0-0.0,voc_e2,12339,"[{""event"":""fullscreenenter"",""trial"":1,""time"":35733}]",NA,NA,NA,NA,NA,0,#1CD855,#FA92F8,0,0,0,40,0,558,39,0,658.0999999940395,0,1,experiment,NA,NA,1,0.3,0.7,3,2,11,1,NA
fcp-trial,45,447649,0.0-20.0-0.0,voc_e2,12339,"[{""event"":""fullscreenenter"",""trial"":1,""time"":35733}]",NA,NA,NA,NA,NA,6,#741CD8,#D8271C,0,0,0,38,1,595.5999999940395,37,1,675.8999999910593,0,0,experiment,NA,NA,2,0.5,0.5,5,4,12,1,NA
fcp-trial,46,451275,0.0-21.0-0.0,voc_e2,12339,"[{""event"":""fullscreenenter"",""trial"":1,""time"":35733}]",NA,NA,NA,NA,NA,4,#FA92F8,#1CD855,10,0,1,38,1,1214.7999999970198,39,0,904.6999999880791,0,0,experiment,NA,NA,1,0.7,0.3,2,3,13,1,NA
fcp-trial,47,454583,0.0-22.0-0.0,voc_e2,12339,"[{""event"":""fullscreenenter"",""trial"":1,""time"":35733}]",NA,NA,NA,NA,NA,5,#1CD855,#FA92F8,10,10,0,38,1,565.2000000029802,37,1,1223.5999999940395,10,0,experiment,NA,NA,1,0.3,0.7,3,2,14,1,NA
fcp-trial,48,457280,0.0-23.0-0.0,voc_e2,12339,"[{""event"":""fullscreenenter"",""trial"":1,""time"":35733}]",NA,NA,NA,NA,NA,6,#D89F1C,#3386FF,0,10,0,38,1,880.5,39,0,306.70000000298023,10,1,experiment,NA,NA,0,0.1,0.9,1,0,15,1,NA
fcp-trial,49,459785,0.0-24.0-0.0,voc_e2,12339,"[{""event"":""fullscreenenter"",""trial"":1,""time"":35733}]",NA,NA,NA,NA,NA,2,#741CD8,#D8271C,10,0,0,38,1,643.1000000089407,39,0,353,0,1,experiment,NA,NA,2,0.5,0.5,5,4,16,1,NA
fcp-trial,50,462351,0.0-25.0-0.0,voc_e2,12339,"[{""event"":""fullscreenenter"",""trial"":1,""time"":35733}]",NA,NA,NA,NA,NA,1,#741CD8,#D8271C,0,0,0,38,1,523.9000000059605,37,1,531.9000000059605,0,0,experiment,NA,NA,2,0.5,0.5,5,4,17,1,NA
fcp-trial,51,464999,0.0-26.0-0.0,voc_e2,12339,"[{""event"":""fullscreenenter"",""trial"":1,""time"":35733}]",NA,NA,NA,NA,NA,6,#FA92F8,#1CD855,10,0,1,38,1,524.7999999970198,37,1,613.2000000029802,10,1,experiment,NA,NA,1,0.7,0.3,2,3,18,1,NA
fcp-trial,52,467435,0.0-27.0-0.0,voc_e2,12339,"[{""event"":""fullscreenenter"",""trial"":1,""time"":35733}]",NA,NA,NA,NA,NA,4,#3386FF,#D89F1C,10,0,1,38,1,644.2000000029802,37,1,283.79999999701977,10,1,experiment,NA,NA,0,0.9,0.1,0,1,19,1,NA
fcp-trial,53,470220,0.0-28.0-0.0,voc_e2,12339,"[{""event"":""fullscreenenter"",""trial"":1,""time"":35733}]",NA,NA,NA,NA,NA,1,#FA92F8,#1CD855,10,10,1,40,0,673.2999999970198,39,0,602.2000000029802,10,0,experiment,NA,NA,1,0.7,0.3,2,3,20,1,NA
fcp-trial,54,474224,0.0-29.0-0.0,voc_e2,12339,"[{""event"":""fullscreenenter"",""trial"":1,""time"":35733}]",NA,NA,NA,NA,NA,4,#741CD8,#D8271C,0,10,0,40,0,1484,37,1,998.7000000029802,0,0,experiment,NA,NA,2,0.5,0.5,5,4,21,1,NA
fcp-trial,55,485281,0.0-30.0-0.0,voc_e2,12339,"[{""event"":""fullscreenenter"",""trial"":1,""time"":35733}]",NA,NA,NA,NA,NA,2,#D89F1C,#3386FF,0,0,0,38,1,8734.79999999702,37,1,799.5999999940395,0,0,experiment,NA,NA,0,0.1,0.9,1,0,22,1,NA
fcp-trial,56,488347,0.0-31.0-0.0,voc_e2,12339,"[{""event"":""fullscreenenter"",""trial"":1,""time"":35733}]",NA,NA,NA,NA,NA,2,#1CD855,#FA92F8,10,10,0,38,1,930.2000000029802,39,0,621.2000000029802,10,1,experiment,NA,NA,1,0.3,0.7,3,2,23,1,NA
fcp-trial,57,490771,0.0-32.0-0.0,voc_e2,12339,"[{""event"":""fullscreenenter"",""trial"":1,""time"":35733}]",NA,NA,NA,NA,NA,0,#3386FF,#D89F1C,10,0,1,38,1,612.5,37,1,303.59999999403954,10,1,experiment,NA,NA,0,0.9,0.1,0,1,24,1,NA
fcp-trial,58,494312,0.0-33.0-0.0,voc_e2,12339,"[{""event"":""fullscreenenter"",""trial"":1,""time"":35733}]",NA,NA,NA,NA,NA,5,#1CD855,#FA92F8,10,10,0,38,1,1134.199999988079,39,0,884.2000000029802,10,1,experiment,NA,NA,1,0.3,0.7,3,2,25,1,NA
fcp-trial,59,497962,0.0-34.0-0.0,voc_e2,12339,"[{""event"":""fullscreenenter"",""trial"":1,""time"":35733}]",NA,NA,NA,NA,NA,5,#741CD8,#D8271C,0,10,0,38,1,1281.5,37,1,860.2000000029802,0,0,experiment,NA,NA,2,0.5,0.5,5,4,26,1,NA
fcp-trial,60,507982,0.0-35.0-0.0,voc_e2,12339,"[{""event"":""fullscreenenter"",""trial"":1,""time"":35733}]",NA,NA,NA,NA,NA,2,#741CD8,#D8271C,10,10,0,38,1,7901.5999999940395,39,0,609.7000000029802,10,1,experiment,NA,NA,2,0.5,0.5,5,4,27,1,NA
fcp-trial,61,510906,0.0-36.0-0.0,voc_e2,12339,"[{""event"":""fullscreenenter"",""trial"":1,""time"":35733}]",NA,NA,NA,NA,NA,3,#3386FF,#D89F1C,10,0,1,38,1,678.3999999910593,37,1,737.7000000029802,10,1,experiment,NA,NA,0,0.9,0.1,0,1,28,1,NA
fcp-trial,62,514608,0.0-37.0-0.0,voc_e2,12339,"[{""event"":""fullscreenenter"",""trial"":1,""time"":35733}]",NA,NA,NA,NA,NA,4,#1CD855,#FA92F8,0,10,0,38,1,1507.5,39,0,672.7999999970198,10,1,experiment,NA,NA,1,0.3,0.7,3,2,29,1,NA
fcp-trial,63,520187,0.0-38.0-0.0,voc_e2,12339,"[{""event"":""fullscreenenter"",""trial"":1,""time"":35733}]",NA,NA,NA,NA,NA,4,#741CD8,#D8271C,10,0,0,38,1,3194.2000000029802,37,1,864.7999999970198,10,0,experiment,NA,NA,2,0.5,0.5,5,4,30,1,NA
fcp-trial,64,522837,0.0-39.0-0.0,voc_e2,12339,"[{""event"":""fullscreenenter"",""trial"":1,""time"":35733}]",NA,NA,NA,NA,NA,6,#741CD8,#D8271C,10,10,0,38,1,667.4000000059605,37,1,474.90000000596046,10,0,experiment,NA,NA,2,0.5,0.5,5,4,31,1,NA
fcp-trial,65,525699,0.0-40.0-0.0,voc_e2,12339,"[{""event"":""fullscreenenter"",""trial"":1,""time"":35733}]",NA,NA,NA,NA,NA,3,#FA92F8,#1CD855,0,0,1,38,1,380.90000000596046,39,0,959.4000000059605,0,0,experiment,NA,NA,1,0.7,0.3,2,3,32,1,NA
fcp-trial,66,528117,0.0-41.0-0.0,voc_e2,12339,"[{""event"":""fullscreenenter"",""trial"":1,""time"":35733}]",NA,NA,NA,NA,NA,5,#3386FF,#D89F1C,10,0,1,38,1,484.30000001192093,37,1,418.8999999910593,10,1,experiment,NA,NA,0,0.9,0.1,0,1,33,1,NA
fcp-trial,67,530633,0.0-42.0-0.0,voc_e2,12339,"[{""event"":""fullscreenenter"",""trial"":1,""time"":35733}]",NA,NA,NA,NA,NA,0,#D8271C,#741CD8,0,10,1,38,1,644.9000000059605,39,0,350.59999999403954,10,0,experiment,NA,NA,2,0.5,0.5,4,5,34,1,NA
fcp-trial,68,533113,0.0-43.0-0.0,voc_e2,12339,"[{""event"":""fullscreenenter"",""trial"":1,""time"":35733}]",NA,NA,NA,NA,NA,0,#1CD855,#FA92F8,0,10,0,38,1,655.5,39,0,300.5,10,1,experiment,NA,NA,1,0.3,0.7,3,2,35,1,NA
fcp-trial,69,535312,0.0-44.0-0.0,voc_e2,12339,"[{""event"":""fullscreenenter"",""trial"":1,""time"":35733}]",NA,NA,NA,NA,NA,1,#D8271C,#741CD8,0,0,1,38,1,392.79999999701977,37,1,298.1000000089407,0,1,experiment,NA,NA,2,0.5,0.5,4,5,36,1,NA
fcp-trial,70,537620,0.0-45.0-0.0,voc_e2,12339,"[{""event"":""fullscreenenter"",""trial"":1,""time"":35733}]",NA,NA,NA,NA,NA,4,#3386FF,#D89F1C,10,0,1,38,1,502.5,37,1,296.20000000298023,10,1,experiment,NA,NA,0,0.9,0.1,0,1,37,1,NA
fcp-trial,71,540171,0.0-46.0-0.0,voc_e2,12339,"[{""event"":""fullscreenenter"",""trial"":1,""time"":35733}]",NA,NA,NA,NA,NA,6,#1CD855,#FA92F8,10,0,0,38,1,785.6999999880791,39,0,256.70000000298023,0,1,experiment,NA,NA,1,0.3,0.7,3,2,38,1,NA
fcp-trial,72,543017,0.0-47.0-0.0,voc_e2,12339,"[{""event"":""fullscreenenter"",""trial"":1,""time"":35733}]",NA,NA,NA,NA,NA,3,#D8271C,#741CD8,0,10,1,40,0,753.2000000029802,37,1,575,0,1,experiment,NA,NA,2,0.5,0.5,4,5,39,1,NA
fcp-trial,73,548913,0.0-48.0-0.0,voc_e2,12339,"[{""event"":""fullscreenenter"",""trial"":1,""time"":35733}]",NA,NA,NA,NA,NA,1,#3386FF,#D89F1C,10,0,1,38,1,649.5999999940395,37,1,3726.4000000059605,10,1,experiment,NA,NA,0,0.9,0.1,0,1,40,1,NA
fcp-trial,74,552027,0.0-49.0-0.0,voc_e2,12339,"[{""event"":""fullscreenenter"",""trial"":1,""time"":35733}]",NA,NA,NA,NA,NA,6,#3386FF,#D89F1C,10,0,1,38,1,731.3999999910593,37,1,876.0999999940395,10,1,experiment,NA,NA,0,0.9,0.1,0,1,41,1,NA
fcp-trial,75,554980,0.0-50.0-0.0,voc_e2,12339,"[{""event"":""fullscreenenter"",""trial"":1,""time"":35733}]",NA,NA,NA,NA,NA,1,#1CD855,#FA92F8,0,0,0,38,1,1078.8999999910593,39,0,364.79999999701977,0,1,experiment,NA,NA,1,0.3,0.7,3,2,42,1,NA
fcp-trial,76,557820,0.0-51.0-0.0,voc_e2,12339,"[{""event"":""fullscreenenter"",""trial"":1,""time"":35733}]",NA,NA,NA,NA,NA,3,#741CD8,#D8271C,10,10,0,38,1,624.1999999880791,37,1,707.2000000029802,10,0,experiment,NA,NA,2,0.5,0.5,5,4,43,1,NA
fcp-trial,77,561880,0.0-52.0-0.0,voc_e2,12339,"[{""event"":""fullscreenenter"",""trial"":1,""time"":35733}]",NA,NA,NA,NA,NA,2,#D8271C,#741CD8,0,0,1,38,1,2119.1000000089407,39,0,433.6000000089407,0,0,experiment,NA,NA,2,0.5,0.5,4,5,44,1,NA
fcp-trial,78,564959,0.0-53.0-0.0,voc_e2,12339,"[{""event"":""fullscreenenter"",""trial"":1,""time"":35733}]",NA,NA,NA,NA,NA,5,#1CD855,#FA92F8,0,0,0,38,1,1188.8999999910593,39,0,381.20000000298023,0,1,experiment,NA,NA,1,0.3,0.7,3,2,45,1,NA
fcp-trial,79,567936,0.0-54.0-0.0,voc_e2,12339,"[{""event"":""fullscreenenter"",""trial"":1,""time"":35733}]",NA,NA,NA,NA,NA,6,#D8271C,#741CD8,10,10,1,38,1,1041.2999999970198,39,0,425.09999999403954,10,0,experiment,NA,NA,2,0.5,0.5,4,5,46,2,NA
fcp-trial,80,570548,0.0-55.0-0.0,voc_e2,12339,"[{""event"":""fullscreenenter"",""trial"":1,""time"":35733}]",NA,NA,NA,NA,NA,0,#3386FF,#D89F1C,10,0,1,38,1,778.2000000029802,37,1,314.6000000089407,10,1,experiment,NA,NA,0,0.9,0.1,0,1,47,2,NA
fcp-trial,81,572964,0.0-56.0-0.0,voc_e2,12339,"[{""event"":""fullscreenenter"",""trial"":1,""time"":35733}]",NA,NA,NA,NA,NA,5,#D8271C,#741CD8,0,0,1,38,1,607.4000000059605,39,0,300.70000000298023,0,0,experiment,NA,NA,2,0.5,0.5,4,5,48,2,NA
fcp-trial,82,575292,0.0-57.0-0.0,voc_e2,12339,"[{""event"":""fullscreenenter"",""trial"":1,""time"":35733}]",NA,NA,NA,NA,NA,2,#FA92F8,#1CD855,0,0,1,38,1,425.79999999701977,37,1,391.79999999701977,0,1,experiment,NA,NA,1,0.7,0.3,2,3,49,2,NA
fcp-trial,83,577596,0.0-58.0-0.0,voc_e2,12339,"[{""event"":""fullscreenenter"",""trial"":1,""time"":35733}]",NA,NA,NA,NA,NA,6,#D89F1C,#3386FF,0,10,0,38,1,521.0999999940395,39,0,275.3999999910593,10,1,experiment,NA,NA,0,0.1,0.9,1,0,50,2,NA
fcp-trial,84,580127,0.0-59.0-0.0,voc_e2,12339,"[{""event"":""fullscreenenter"",""trial"":1,""time"":35733}]",NA,NA,NA,NA,NA,4,#FA92F8,#1CD855,10,0,1,38,1,598.2999999970198,39,0,417.20000000298023,0,0,experiment,NA,NA,1,0.7,0.3,2,3,51,2,NA
fcp-trial,85,582961,0.0-60.0-0.0,voc_e2,12339,"[{""event"":""fullscreenenter"",""trial"":1,""time"":35733}]",NA,NA,NA,NA,NA,0,#741CD8,#D8271C,0,10,0,38,1,616.2000000029802,37,1,709.7000000029802,0,0,experiment,NA,NA,2,0.5,0.5,5,4,52,2,NA
fcp-trial,86,585596,0.0-61.0-0.0,voc_e2,12339,"[{""event"":""fullscreenenter"",""trial"":1,""time"":35733}]",NA,NA,NA,NA,NA,3,#FA92F8,#1CD855,0,0,1,38,1,480.69999998807907,37,1,645.6999999880791,0,1,experiment,NA,NA,1,0.7,0.3,2,3,53,2,NA
fcp-trial,87,587801,0.0-62.0-0.0,voc_e2,12339,"[{""event"":""fullscreenenter"",""trial"":1,""time"":35733}]",NA,NA,NA,NA,NA,1,#D89F1C,#3386FF,0,10,0,38,1,429.69999998807907,39,0,265.1000000089407,10,1,experiment,NA,NA,0,0.1,0.9,1,0,54,2,NA
fcp-trial,88,590221,0.0-63.0-0.0,voc_e2,12339,"[{""event"":""fullscreenenter"",""trial"":1,""time"":35733}]",NA,NA,NA,NA,NA,4,#D8271C,#741CD8,0,0,1,38,1,575.2000000029802,39,0,324,0,0,experiment,NA,NA,2,0.5,0.5,4,5,55,2,NA
fcp-trial,89,592640,0.0-64.0-0.0,voc_e2,12339,"[{""event"":""fullscreenenter"",""trial"":1,""time"":35733}]",NA,NA,NA,NA,NA,6,#1CD855,#FA92F8,0,10,0,38,1,609.7000000029802,39,0,291.5,10,1,experiment,NA,NA,1,0.3,0.7,3,2,56,2,NA
fcp-trial,90,595573,0.0-65.0-0.0,voc_e2,12339,"[{""event"":""fullscreenenter"",""trial"":1,""time"":35733}]",NA,NA,NA,NA,NA,4,#3386FF,#D89F1C,10,0,1,40,0,598.5,39,0,825.7000000029802,0,0,experiment,NA,NA,0,0.9,0.1,0,1,57,2,NA
fcp-trial,91,598883,0.0-66.0-0.0,voc_e2,12339,"[{""event"":""fullscreenenter"",""trial"":1,""time"":35733}]",NA,NA,NA,NA,NA,2,#3386FF,#D89F1C,10,0,1,38,1,1548.300000011921,37,1,251.3999999910593,10,1,experiment,NA,NA,0,0.9,0.1,0,1,58,2,NA
fcp-trial,92,609158,0.0-67.0-0.0,voc_e2,12339,"[{""event"":""fullscreenenter"",""trial"":1,""time"":35733}]",NA,NA,NA,NA,NA,1,#741CD8,#D8271C,0,10,0,38,1,8109.20000000298,37,1,646.7000000029802,0,0,experiment,NA,NA,2,0.5,0.5,5,4,59,2,NA
fcp-trial,93,624166,0.0-68.0-0.0,voc_e2,12339,"[{""event"":""fullscreenenter"",""trial"":1,""time"":35733}]",NA,NA,NA,NA,NA,0,#1CD855,#FA92F8,10,0,0,null,null,null,null,null,null,NA,0,experiment,NA,NA,1,0.3,0.7,3,2,60,2,NA
fcp-trial,94,626884,0.0-69.0-0.0,voc_e2,12339,"[{""event"":""fullscreenenter"",""trial"":1,""time"":35733}]",NA,NA,NA,NA,NA,5,#3386FF,#D89F1C,10,0,1,38,1,716.2000000029802,37,1,491.69999998807907,10,1,experiment,NA,NA,0,0.9,0.1,0,1,61,2,NA
fcp-trial,95,629799,0.0-70.0-0.0,voc_e2,12339,"[{""event"":""fullscreenenter"",""trial"":1,""time"":35733}]",NA,NA,NA,NA,NA,3,#D89F1C,#3386FF,0,10,0,40,0,861.6000000089407,37,1,527.6000000089407,0,0,experiment,NA,NA,0,0.1,0.9,1,0,62,2,NA
fcp-trial,96,632607,0.0-71.0-0.0,voc_e2,12339,"[{""event"":""fullscreenenter"",""trial"":1,""time"":35733}]",NA,NA,NA,NA,NA,1,#1CD855,#FA92F8,0,10,0,38,1,689.7999999970198,39,0,598.5999999940395,10,1,experiment,NA,NA,1,0.3,0.7,3,2,63,2,NA
fcp-trial,97,635557,0.0-72.0-0.0,voc_e2,12339,"[{""event"":""fullscreenenter"",""trial"":1,""time"":35733}]",NA,NA,NA,NA,NA,6,#D89F1C,#3386FF,10,10,0,38,1,1156.7000000029802,39,0,285.1000000089407,10,1,experiment,NA,NA,0,0.1,0.9,1,0,64,2,NA
fcp-trial,98,638462,0.0-73.0-0.0,voc_e2,12339,"[{""event"":""fullscreenenter"",""trial"":1,""time"":35733}]",NA,NA,NA,NA,NA,5,#FA92F8,#1CD855,10,0,1,38,1,723.6000000089407,37,1,672.1000000089407,10,1,experiment,NA,NA,1,0.7,0.3,2,3,65,2,NA
fcp-trial,99,641239,0.0-74.0-0.0,voc_e2,12339,"[{""event"":""fullscreenenter"",""trial"":1,""time"":35733}]",NA,NA,NA,NA,NA,0,#FA92F8,#1CD855,10,0,1,38,1,860.7000000029802,37,1,392.79999999701977,10,1,experiment,NA,NA,1,0.7,0.3,2,3,66,2,NA
fcp-trial,100,643408,0.0-75.0-0.0,voc_e2,12339,"[{""event"":""fullscreenenter"",""trial"":1,""time"":35733}]",NA,NA,NA,NA,NA,0,#D89F1C,#3386FF,0,10,0,38,1,399.1000000089407,39,0,265.09999999403954,10,1,experiment,NA,NA,0,0.1,0.9,1,0,67,2,NA
fcp-trial,101,646248,0.0-76.0-0.0,voc_e2,12339,"[{""event"":""fullscreenenter"",""trial"":1,""time"":35733}]",NA,NA,NA,NA,NA,4,#741CD8,#D8271C,10,10,0,38,1,881.5999999940395,37,1,451,10,0,experiment,NA,NA,2,0.5,0.5,5,4,68,2,NA
fcp-trial,102,649248,0.0-77.0-0.0,voc_e2,12339,"[{""event"":""fullscreenenter"",""trial"":1,""time"":35733}]",NA,NA,NA,NA,NA,2,#FA92F8,#1CD855,10,10,1,38,1,1147.2000000029802,37,1,333,10,1,experiment,NA,NA,1,0.7,0.3,2,3,69,2,NA
fcp-trial,103,652089,0.0-78.0-0.0,voc_e2,12339,"[{""event"":""fullscreenenter"",""trial"":1,""time"":35733}]",NA,NA,NA,NA,NA,3,#741CD8,#D8271C,0,10,0,38,1,989.2999999970198,37,1,332.90000000596046,0,0,experiment,NA,NA,2,0.5,0.5,5,4,70,2,NA
fcp-trial,104,654232,0.0-79.0-0.0,voc_e2,12339,"[{""event"":""fullscreenenter"",""trial"":1,""time"":35733}]",NA,NA,NA,NA,NA,5,#D89F1C,#3386FF,0,10,0,38,1,345.69999998807907,39,0,288.20000000298023,10,1,experiment,NA,NA,0,0.1,0.9,1,0,71,2,NA
fcp-trial,105,656815,0.0-80.0-0.0,voc_e2,12339,"[{""event"":""fullscreenenter"",""trial"":1,""time"":35733}]",NA,NA,NA,NA,NA,6,#FA92F8,#1CD855,0,10,1,38,1,455.70000000298023,37,1,604.3000000119209,0,1,experiment,NA,NA,1,0.7,0.3,2,3,72,2,NA
fcp-trial,106,659291,0.0-81.0-0.0,voc_e2,12339,"[{""event"":""fullscreenenter"",""trial"":1,""time"":35733}]",NA,NA,NA,NA,NA,0,#741CD8,#D8271C,10,10,0,38,1,353.20000000298023,37,1,603.0999999940395,10,0,experiment,NA,NA,2,0.5,0.5,5,4,73,2,NA
fcp-trial,107,661802,0.0-82.0-0.0,voc_e2,12339,"[{""event"":""fullscreenenter"",""trial"":1,""time"":35733}]",NA,NA,NA,NA,NA,3,#D89F1C,#3386FF,0,10,0,38,1,611.8999999910593,39,0,389.40000000596046,10,1,experiment,NA,NA,0,0.1,0.9,1,0,74,2,NA
fcp-trial,108,663926,0.0-83.0-0.0,voc_e2,12339,"[{""event"":""fullscreenenter"",""trial"":1,""time"":35733}]",NA,NA,NA,NA,NA,4,#1CD855,#FA92F8,0,10,0,38,1,185.79999999701977,39,0,427.6000000089407,10,1,experiment,NA,NA,1,0.3,0.7,3,2,75,2,NA
fcp-trial,109,666188,0.0-84.0-0.0,voc_e2,12339,"[{""event"":""fullscreenenter"",""trial"":1,""time"":35733}]",NA,NA,NA,NA,NA,2,#3386FF,#D89F1C,10,0,1,38,1,472,37,1,268.59999999403954,10,1,experiment,NA,NA,0,0.9,0.1,0,1,76,2,NA
fcp-trial,110,668689,0.0-85.0-0.0,voc_e2,12339,"[{""event"":""fullscreenenter"",""trial"":1,""time"":35733}]",NA,NA,NA,NA,NA,6,#741CD8,#D8271C,10,10,0,38,1,640.3999999910593,37,1,352.79999999701977,10,0,experiment,NA,NA,2,0.5,0.5,5,4,77,2,NA
fcp-trial,111,671377,0.0-86.0-0.0,voc_e2,12339,"[{""event"":""fullscreenenter"",""trial"":1,""time"":35733}]",NA,NA,NA,NA,NA,2,#D8271C,#741CD8,0,10,1,38,1,929.7000000029802,39,0,251.1000000089407,10,0,experiment,NA,NA,2,0.5,0.5,4,5,78,2,NA
fcp-trial,112,674877,0.0-87.0-0.0,voc_e2,12339,"[{""event"":""fullscreenenter"",""trial"":1,""time"":35733}]",NA,NA,NA,NA,NA,1,#741CD8,#D8271C,10,0,0,38,1,1709.300000011921,37,1,268.29999999701977,10,0,experiment,NA,NA,2,0.5,0.5,5,4,79,2,NA
fcp-trial,113,678072,0.0-88.0-0.0,voc_e2,12339,"[{""event"":""fullscreenenter"",""trial"":1,""time"":35733}]",NA,NA,NA,NA,NA,1,#FA92F8,#1CD855,10,0,1,38,1,1121.2999999970198,37,1,550.7000000029802,10,1,experiment,NA,NA,1,0.7,0.3,2,3,80,2,NA
fcp-trial,114,680170,0.0-89.0-0.0,voc_e2,12339,"[{""event"":""fullscreenenter"",""trial"":1,""time"":35733}]",NA,NA,NA,NA,NA,4,#D89F1C,#3386FF,0,10,0,38,1,278.6000000089407,39,0,311.70000000298023,10,1,experiment,NA,NA,0,0.1,0.9,1,0,81,2,NA
fcp-trial,115,682472,0.0-90.0-0.0,voc_e2,12339,"[{""event"":""fullscreenenter"",""trial"":1,""time"":35733}]",NA,NA,NA,NA,NA,3,#1CD855,#FA92F8,10,10,0,38,1,531,39,0,264.29999999701977,10,1,experiment,NA,NA,1,0.3,0.7,3,2,82,2,NA
fcp-trial,116,684951,0.0-91.0-0.0,voc_e2,12339,"[{""event"":""fullscreenenter"",""trial"":1,""time"":35733}]",NA,NA,NA,NA,NA,5,#741CD8,#D8271C,0,0,0,38,1,337,37,1,633.9000000059605,0,0,experiment,NA,NA,2,0.5,0.5,5,4,83,2,NA
fcp-trial,117,687171,0.0-92.0-0.0,voc_e2,12339,"[{""event"":""fullscreenenter"",""trial"":1,""time"":35733}]",NA,NA,NA,NA,NA,1,#3386FF,#D89F1C,10,0,1,38,1,432.59999999403954,37,1,278,10,1,experiment,NA,NA,0,0.9,0.1,0,1,84,2,NA
fcp-trial,118,691261,0.0-93.0-0.0,voc_e2,12339,"[{""event"":""fullscreenenter"",""trial"":1,""time"":35733}]",NA,NA,NA,NA,NA,2,#741CD8,#D8271C,10,10,0,38,1,2310.7999999970198,37,1,269.90000000596046,10,0,experiment,NA,NA,2,0.5,0.5,5,4,85,2,NA
fcp-trial,119,694779,0.0-94.0-0.0,voc_e2,12339,"[{""event"":""fullscreenenter"",""trial"":1,""time"":35733}]",NA,NA,NA,NA,NA,3,#3386FF,#D89F1C,0,0,1,38,1,1076.2000000029802,37,1,920.3999999910593,0,1,experiment,NA,NA,0,0.9,0.1,0,1,86,2,NA
fcp-trial,120,697162,0.0-95.0-0.0,voc_e2,12339,"[{""event"":""fullscreenenter"",""trial"":1,""time"":35733}]",NA,NA,NA,NA,NA,2,#D89F1C,#3386FF,0,10,0,38,1,580,39,0,275.79999999701977,10,1,experiment,NA,NA,0,0.1,0.9,1,0,87,2,NA
fcp-trial,121,700186,0.0-96.0-0.0,voc_e2,12339,"[{""event"":""fullscreenenter"",""trial"":1,""time"":35733}]",NA,NA,NA,NA,NA,5,#FA92F8,#1CD855,10,10,1,38,1,937.6000000089407,37,1,567.1000000089407,10,1,experiment,NA,NA,1,0.7,0.3,2,3,88,2,NA
fcp-trial,122,703734,0.0-97.0-0.0,voc_e2,12339,"[{""event"":""fullscreenenter"",""trial"":1,""time"":35733}]",NA,NA,NA,NA,NA,3,#1CD855,#FA92F8,10,10,0,38,1,1331.2999999970198,39,0,708.6999999880791,10,1,experiment,NA,NA,1,0.3,0.7,3,2,89,2,NA
fcp-trial,123,706061,0.0-98.0-0.0,voc_e2,12339,"[{""event"":""fullscreenenter"",""trial"":1,""time"":35733}]",NA,NA,NA,NA,NA,5,#D8271C,#741CD8,0,0,1,38,1,512.2000000029802,39,0,306.09999999403954,0,0,experiment,NA,NA,2,0.5,0.5,4,5,90,2,NA
fcp-trial,124,709191,0.0-99.0-0.0,voc_e2,12339,"[{""event"":""fullscreenenter"",""trial"":1,""time"":35733}]",NA,NA,NA,NA,NA,4,#FA92F8,#1CD855,10,0,1,38,1,1161.2000000029802,37,1,447.69999998807907,10,1,experiment,NA,NA,1,0.7,0.3,2,3,91,3,NA
fcp-trial,125,712401,0.0-100.0-0.0,voc_e2,12339,"[{""event"":""fullscreenenter"",""trial"":1,""time"":35733}]",NA,NA,NA,NA,NA,5,#3386FF,#D89F1C,10,0,1,38,1,1108.6000000089407,37,1,579.7000000029802,10,1,experiment,NA,NA,0,0.9,0.1,0,1,92,3,NA
fcp-trial,126,717124,0.0-101.0-0.0,voc_e2,12339,"[{""event"":""fullscreenenter"",""trial"":1,""time"":35733}]",NA,NA,NA,NA,NA,1,#FA92F8,#1CD855,10,0,1,38,1,2743.2999999970198,37,1,472.3999999910593,10,1,experiment,NA,NA,1,0.7,0.3,2,3,93,3,NA
fcp-trial,127,721053,0.0-102.0-0.0,voc_e2,12339,"[{""event"":""fullscreenenter"",""trial"":1,""time"":35733}]",NA,NA,NA,NA,NA,1,#D8271C,#741CD8,0,10,1,38,1,1999.5999999940395,39,0,418.29999999701977,10,0,experiment,NA,NA,2,0.5,0.5,4,5,94,3,NA
fcp-trial,128,723994,0.0-103.0-0.0,voc_e2,12339,"[{""event"":""fullscreenenter"",""trial"":1,""time"":35733}]",NA,NA,NA,NA,NA,1,#D89F1C,#3386FF,10,0,0,38,1,1138.2000000029802,39,0,293.29999999701977,0,1,experiment,NA,NA,0,0.1,0.9,1,0,95,3,NA
fcp-trial,129,730899,0.0-104.0-0.0,voc_e2,12339,"[{""event"":""fullscreenenter"",""trial"":1,""time"":35733}]",NA,NA,NA,NA,NA,6,#FA92F8,#1CD855,0,0,1,38,1,4905.4000000059605,37,1,479,0,1,experiment,NA,NA,1,0.7,0.3,2,3,96,3,NA
fcp-trial,130,733960,0.0-105.0-0.0,voc_e2,12339,"[{""event"":""fullscreenenter"",""trial"":1,""time"":35733}]",NA,NA,NA,NA,NA,6,#D89F1C,#3386FF,0,10,0,38,1,1213.2999999970198,39,0,340.09999999403954,10,1,experiment,NA,NA,0,0.1,0.9,1,0,97,3,NA
fcp-trial,131,737727,0.0-106.0-0.0,voc_e2,12339,"[{""event"":""fullscreenenter"",""trial"":1,""time"":35733}]",NA,NA,NA,NA,NA,6,#741CD8,#D8271C,0,10,0,38,1,1938.5,37,1,308,0,0,experiment,NA,NA,2,0.5,0.5,5,4,98,3,NA
fcp-trial,132,739885,0.0-107.0-0.0,voc_e2,12339,"[{""event"":""fullscreenenter"",""trial"":1,""time"":35733}]",NA,NA,NA,NA,NA,4,#D8271C,#741CD8,0,0,1,38,1,369.29999999701977,39,0,268.5,0,0,experiment,NA,NA,2,0.5,0.5,4,5,99,3,NA
fcp-trial,133,746990,0.0-108.0-0.0,voc_e2,12339,"[{""event"":""fullscreenenter"",""trial"":1,""time"":35733}]",NA,NA,NA,NA,NA,0,#3386FF,#D89F1C,10,0,1,38,1,5277.0999999940395,37,1,317.09999999403954,10,1,experiment,NA,NA,0,0.9,0.1,0,1,100,3,NA
fcp-trial,134,753036,0.0-109.0-0.0,voc_e2,12339,"[{""event"":""fullscreenenter"",""trial"":1,""time"":35733}]",NA,NA,NA,NA,NA,0,#FA92F8,#1CD855,10,0,1,38,1,4029.2000000029802,37,1,509.30000001192093,10,1,experiment,NA,NA,1,0.7,0.3,2,3,101,3,NA
fcp-trial,135,755783,0.0-110.0-0.0,voc_e2,12339,"[{""event"":""fullscreenenter"",""trial"":1,""time"":35733}]",NA,NA,NA,NA,NA,4,#D89F1C,#3386FF,0,10,0,38,1,945.9000000059605,39,0,291.20000000298023,10,1,experiment,NA,NA,0,0.1,0.9,1,0,102,3,NA
fcp-trial,136,760252,0.0-111.0-0.0,voc_e2,12339,"[{""event"":""fullscreenenter"",""trial"":1,""time"":35733}]",NA,NA,NA,NA,NA,2,#FA92F8,#1CD855,10,10,1,38,1,2564.7000000029802,37,1,396.90000000596046,10,1,experiment,NA,NA,1,0.7,0.3,2,3,103,3,NA
fcp-trial,137,762648,0.0-112.0-0.0,voc_e2,12339,"[{""event"":""fullscreenenter"",""trial"":1,""time"":35733}]",NA,NA,NA,NA,NA,3,#D8271C,#741CD8,0,10,1,38,1,544.6999999880791,39,0,343,10,0,experiment,NA,NA,2,0.5,0.5,4,5,104,3,NA
fcp-trial,138,767709,0.0-113.0-0.0,voc_e2,12339,"[{""event"":""fullscreenenter"",""trial"":1,""time"":35733}]",NA,NA,NA,NA,NA,0,#741CD8,#D8271C,10,0,0,38,1,3149.5,37,1,407.40000000596046,10,0,experiment,NA,NA,2,0.5,0.5,5,4,105,3,NA
audio-instructions,139,773359,0.0-114.0,voc_e2,12339,"[{""event"":""fullscreenenter"",""trial"":1,""time"":35733}]",NA,999.7000000029802,static/audio/pause.wav,NA,0,NA,NA,NA,NA,NA,NA,NA,NA,NA,NA,NA,NA,NA,NA,NA,NA,NA,NA,NA,NA,NA,NA,NA,NA,NA
fcp-trial,140,776380,0.0-115.0-0.0,voc_e2,12339,"[{""event"":""fullscreenenter"",""trial"":1,""time"":35733}]",NA,NA,NA,NA,NA,0,#D8271C,#741CD8,10,10,1,38,1,1093.2000000029802,39,0,411.40000000596046,10,0,experiment,NA,NA,2,0.5,0.5,4,5,106,3,NA
fcp-trial,141,778611,0.0-116.0-0.0,voc_e2,12339,"[{""event"":""fullscreenenter"",""trial"":1,""time"":35733}]",NA,NA,NA,NA,NA,4,#D89F1C,#3386FF,0,10,0,38,1,444.90000000596046,39,0,276.20000000298023,10,1,experiment,NA,NA,0,0.1,0.9,1,0,107,3,NA
fcp-trial,142,781806,0.0-117.0-0.0,voc_e2,12339,"[{""event"":""fullscreenenter"",""trial"":1,""time"":35733}]",NA,NA,NA,NA,NA,1,#1CD855,#FA92F8,0,10,0,38,1,1328.7000000029802,39,0,356.80000001192093,10,1,experiment,NA,NA,1,0.3,0.7,3,2,108,3,NA
fcp-trial,143,784431,0.0-118.0-0.0,voc_e2,12339,"[{""event"":""fullscreenenter"",""trial"":1,""time"":35733}]",NA,NA,NA,NA,NA,2,#741CD8,#D8271C,0,10,0,38,1,850.8999999910593,37,1,254,0,0,experiment,NA,NA,2,0.5,0.5,5,4,109,3,NA
fcp-trial,144,787917,0.0-119.0-0.0,voc_e2,12339,"[{""event"":""fullscreenenter"",""trial"":1,""time"":35733}]",NA,NA,NA,NA,NA,6,#D8271C,#741CD8,10,0,1,38,1,1618.5999999940395,39,0,359.80000001192093,0,0,experiment,NA,NA,2,0.5,0.5,4,5,110,3,NA
fcp-trial,145,790636,0.0-120.0-0.0,voc_e2,12339,"[{""event"":""fullscreenenter"",""trial"":1,""time"":35733}]",NA,NA,NA,NA,NA,3,#D89F1C,#3386FF,0,10,0,38,1,881.8000000119209,39,0,327.6000000089407,10,1,experiment,NA,NA,0,0.1,0.9,1,0,111,3,NA
fcp-trial,146,796646,0.0-121.0-0.0,voc_e2,12339,"[{""event"":""fullscreenenter"",""trial"":1,""time"":35733}]",NA,NA,NA,NA,NA,4,#741CD8,#D8271C,10,10,0,38,1,4075.2999999970198,37,1,413.19999998807907,10,0,experiment,NA,NA,2,0.5,0.5,5,4,112,3,NA
fcp-trial,147,799001,0.0-122.0-0.0,voc_e2,12339,"[{""event"":""fullscreenenter"",""trial"":1,""time"":35733}]",NA,NA,NA,NA,NA,4,#FA92F8,#1CD855,10,0,1,38,1,414,37,1,431.70000000298023,10,1,experiment,NA,NA,1,0.7,0.3,2,3,113,3,NA
fcp-trial,148,801295,0.0-123.0-0.0,voc_e2,12339,"[{""event"":""fullscreenenter"",""trial"":1,""time"":35733}]",NA,NA,NA,NA,NA,5,#3386FF,#D89F1C,10,0,1,38,1,381.90000000596046,37,1,395.40000000596046,10,1,experiment,NA,NA,0,0.9,0.1,0,1,114,3,NA
fcp-trial,149,803432,0.0-124.0-0.0,voc_e2,12339,"[{""event"":""fullscreenenter"",""trial"":1,""time"":35733}]",NA,NA,NA,NA,NA,1,#741CD8,#D8271C,10,0,0,38,1,310.79999999701977,37,1,314.3999999910593,10,0,experiment,NA,NA,2,0.5,0.5,5,4,115,3,NA
fcp-trial,150,805551,0.0-125.0-0.0,voc_e2,12339,"[{""event"":""fullscreenenter"",""trial"":1,""time"":35733}]",NA,NA,NA,NA,NA,2,#D89F1C,#3386FF,0,0,0,38,1,298.5,39,0,312.40000000596046,0,1,experiment,NA,NA,0,0.1,0.9,1,0,116,3,NA
fcp-trial,151,807706,0.0-126.0-0.0,voc_e2,12339,"[{""event"":""fullscreenenter"",""trial"":1,""time"":35733}]",NA,NA,NA,NA,NA,0,#FA92F8,#1CD855,0,0,1,38,1,284.1000000089407,37,1,353.90000000596046,0,1,experiment,NA,NA,1,0.7,0.3,2,3,117,3,NA
fcp-trial,152,809900,0.0-127.0-0.0,voc_e2,12339,"[{""event"":""fullscreenenter"",""trial"":1,""time"":35733}]",NA,NA,NA,NA,NA,5,#FA92F8,#1CD855,10,0,1,38,1,305.59999999403954,37,1,366.40000000596046,10,1,experiment,NA,NA,1,0.7,0.3,2,3,118,3,NA
fcp-trial,153,812287,0.0-128.0-0.0,voc_e2,12339,"[{""event"":""fullscreenenter"",""trial"":1,""time"":35733}]",NA,NA,NA,NA,NA,1,#D89F1C,#3386FF,0,10,0,38,1,487.70000000298023,39,0,389.20000000298023,10,1,experiment,NA,NA,0,0.1,0.9,1,0,119,3,NA
fcp-trial,154,814727,0.0-129.0-0.0,voc_e2,12339,"[{""event"":""fullscreenenter"",""trial"":1,""time"":35733}]",NA,NA,NA,NA,NA,5,#D8271C,#741CD8,0,0,1,38,1,388,39,0,531.0999999940395,0,0,experiment,NA,NA,2,0.5,0.5,4,5,120,3,NA
fcp-trial,155,816944,0.0-130.0-0.0,voc_e2,12339,"[{""event"":""fullscreenenter"",""trial"":1,""time"":35733}]",NA,NA,NA,NA,NA,6,#FA92F8,#1CD855,10,10,1,38,1,268.5,37,1,438.5,10,1,experiment,NA,NA,1,0.7,0.3,2,3,121,3,NA
fcp-trial,156,819427,0.0-131.0-0.0,voc_e2,12339,"[{""event"":""fullscreenenter"",""trial"":1,""time"":35733}]",NA,NA,NA,NA,NA,3,#D8271C,#741CD8,10,10,1,38,1,598.5999999940395,39,0,372.30000001192093,10,0,experiment,NA,NA,2,0.5,0.5,4,5,122,3,NA
fcp-trial,157,821677,0.0-132.0-0.0,voc_e2,12339,"[{""event"":""fullscreenenter"",""trial"":1,""time"":35733}]",NA,NA,NA,NA,NA,6,#D89F1C,#3386FF,0,10,0,38,1,372.6000000089407,39,0,357,10,1,experiment,NA,NA,0,0.1,0.9,1,0,123,3,NA
fcp-trial,158,823861,0.0-133.0-0.0,voc_e2,12339,"[{""event"":""fullscreenenter"",""trial"":1,""time"":35733}]",NA,NA,NA,NA,NA,2,#1CD855,#FA92F8,0,0,0,38,1,332.79999999701977,39,0,343.20000000298023,0,1,experiment,NA,NA,1,0.3,0.7,3,2,124,3,NA
fcp-trial,159,826715,0.0-134.0-0.0,voc_e2,12339,"[{""event"":""fullscreenenter"",""trial"":1,""time"":35733}]",NA,NA,NA,NA,NA,0,#3386FF,#D89F1C,10,0,1,38,1,489.70000000298023,37,1,851.9000000059605,10,1,experiment,NA,NA,0,0.9,0.1,0,1,125,3,NA
fcp-trial,160,828952,0.0-135.0-0.0,voc_e2,12339,"[{""event"":""fullscreenenter"",""trial"":1,""time"":35733}]",NA,NA,NA,NA,NA,3,#1CD855,#FA92F8,0,0,0,38,1,385.5,39,0,341.5,0,1,experiment,NA,NA,1,0.3,0.7,3,2,126,3,NA
fcp-trial,161,831210,0.0-136.0-0.0,voc_e2,12339,"[{""event"":""fullscreenenter"",""trial"":1,""time"":35733}]",NA,NA,NA,NA,NA,6,#741CD8,#D8271C,10,0,0,38,1,330.5,37,1,402.5,10,0,experiment,NA,NA,2,0.5,0.5,5,4,127,3,NA
fcp-trial,162,833411,0.0-137.0-0.0,voc_e2,12339,"[{""event"":""fullscreenenter"",""trial"":1,""time"":35733}]",NA,NA,NA,NA,NA,6,#3386FF,#D89F1C,10,0,1,38,1,326.79999999701977,37,1,366.29999999701977,10,1,experiment,NA,NA,0,0.9,0.1,0,1,128,3,NA
fcp-trial,163,835738,0.0-138.0-0.0,voc_e2,12339,"[{""event"":""fullscreenenter"",""trial"":1,""time"":35733}]",NA,NA,NA,NA,NA,3,#FA92F8,#1CD855,10,0,1,38,1,427.5,37,1,390,10,1,experiment,NA,NA,1,0.7,0.3,2,3,129,3,NA
fcp-trial,164,838455,0.0-139.0-0.0,voc_e2,12339,"[{""event"":""fullscreenenter"",""trial"":1,""time"":35733}]",NA,NA,NA,NA,NA,1,#D8271C,#741CD8,0,0,1,38,1,951.9000000059605,39,0,256.20000000298023,0,0,experiment,NA,NA,2,0.5,0.5,4,5,130,3,NA
fcp-trial,165,841583,0.0-140.0-0.0,voc_e2,12339,"[{""event"":""fullscreenenter"",""trial"":1,""time"":35733}]",NA,NA,NA,NA,NA,3,#741CD8,#D8271C,10,0,0,38,1,1172.5,37,1,436.20000000298023,10,0,experiment,NA,NA,2,0.5,0.5,5,4,131,3,NA
fcp-trial,166,844179,0.0-141.0-0.0,voc_e2,12339,"[{""event"":""fullscreenenter"",""trial"":1,""time"":35733}]",NA,NA,NA,NA,NA,3,#3386FF,#D89F1C,10,0,1,38,1,696,37,1,373.79999999701977,10,1,experiment,NA,NA,0,0.9,0.1,0,1,132,3,NA
fcp-trial,167,846758,0.0-142.0-0.0,voc_e2,12339,"[{""event"":""fullscreenenter"",""trial"":1,""time"":35733}]",NA,NA,NA,NA,NA,2,#D89F1C,#3386FF,0,10,0,38,1,708.5999999940395,39,0,360.20000000298023,10,1,experiment,NA,NA,0,0.1,0.9,1,0,133,3,NA
fcp-trial,168,848978,0.0-143.0-0.0,voc_e2,12339,"[{""event"":""fullscreenenter"",""trial"":1,""time"":35733}]",NA,NA,NA,NA,NA,0,#1CD855,#FA92F8,0,10,0,38,1,280.19999998807907,39,0,432,10,1,experiment,NA,NA,1,0.3,0.7,3,2,134,3,NA
fcp-trial,169,852592,0.0-144.0-0.0,voc_e2,12339,"[{""event"":""fullscreenenter"",""trial"":1,""time"":35733}]",NA,NA,NA,NA,NA,4,#741CD8,#D8271C,0,10,0,38,1,1379.2999999970198,37,1,726.6000000089407,0,0,experiment,NA,NA,2,0.5,0.5,5,4,135,3,NA
fcp-trial,170,858133,0.0-145.0-0.0,voc_e2,12339,"[{""event"":""fullscreenenter"",""trial"":1,""time"":35733}]",NA,NA,NA,NA,NA,0,#D89F1C,#3386FF,0,10,0,38,1,3653.2000000029802,39,0,379.5,10,1,experiment,NA,NA,0,0.1,0.9,1,0,136,4,NA
fcp-trial,171,861010,0.0-146.0-0.0,voc_e2,12339,"[{""event"":""fullscreenenter"",""trial"":1,""time"":35733}]",NA,NA,NA,NA,NA,4,#1CD855,#FA92F8,0,10,0,38,1,926.2000000029802,39,0,430.30000001192093,10,1,experiment,NA,NA,1,0.3,0.7,3,2,137,4,NA
fcp-trial,172,865394,0.0-147.0-0.0,voc_e2,12339,"[{""event"":""fullscreenenter"",""trial"":1,""time"":35733}]",NA,NA,NA,NA,NA,2,#1CD855,#FA92F8,0,10,0,38,1,2509.5999999940395,39,0,364.8999999910593,10,1,experiment,NA,NA,1,0.3,0.7,3,2,138,4,NA
fcp-trial,173,867889,0.0-148.0-0.0,voc_e2,12339,"[{""event"":""fullscreenenter"",""trial"":1,""time"":35733}]",NA,NA,NA,NA,NA,5,#D8271C,#741CD8,0,0,1,38,1,630.2000000029802,39,0,355.3999999910593,0,0,experiment,NA,NA,2,0.5,0.5,4,5,139,4,NA
fcp-trial,174,870373,0.0-149.0-0.0,voc_e2,12339,"[{""event"":""fullscreenenter"",""trial"":1,""time"":35733}]",NA,NA,NA,NA,NA,4,#3386FF,#D89F1C,10,0,1,38,1,671.2999999970198,37,1,301.69999998807907,10,1,experiment,NA,NA,0,0.9,0.1,0,1,140,4,NA
fcp-trial,175,873418,0.0-150.0-0.0,voc_e2,12339,"[{""event"":""fullscreenenter"",""trial"":1,""time"":35733}]",NA,NA,NA,NA,NA,1,#D89F1C,#3386FF,0,10,0,38,1,1142.5,39,0,393.20000000298023,10,1,experiment,NA,NA,0,0.1,0.9,1,0,141,4,NA
fcp-trial,176,876945,0.0-151.0-0.0,voc_e2,12339,"[{""event"":""fullscreenenter"",""trial"":1,""time"":35733}]",NA,NA,NA,NA,NA,0,#741CD8,#D8271C,10,10,0,38,1,1261.1000000089407,37,1,747.5,10,0,experiment,NA,NA,2,0.5,0.5,5,4,142,4,NA
fcp-trial,177,880073,0.0-152.0-0.0,voc_e2,12339,"[{""event"":""fullscreenenter"",""trial"":1,""time"":35733}]",NA,NA,NA,NA,NA,1,#FA92F8,#1CD855,10,10,1,38,1,867.5999999940395,37,1,746.2999999970198,10,1,experiment,NA,NA,1,0.7,0.3,2,3,143,4,NA
fcp-trial,178,882262,0.0-153.0-0.0,voc_e2,12339,"[{""event"":""fullscreenenter"",""trial"":1,""time"":35733}]",NA,NA,NA,NA,NA,5,#D89F1C,#3386FF,0,10,0,38,1,414.79999999701977,39,0,265.59999999403954,10,1,experiment,NA,NA,0,0.1,0.9,1,0,144,4,NA
fcp-trial,179,884883,0.0-154.0-0.0,voc_e2,12339,"[{""event"":""fullscreenenter"",""trial"":1,""time"":35733}]",NA,NA,NA,NA,NA,2,#D8271C,#741CD8,0,10,1,38,1,637.6000000089407,39,0,474.69999998807907,10,0,experiment,NA,NA,2,0.5,0.5,4,5,145,4,NA
fcp-trial,180,887892,0.0-155.0-0.0,voc_e2,12339,"[{""event"":""fullscreenenter"",""trial"":1,""time"":35733}]",NA,NA,NA,NA,NA,6,#1CD855,#FA92F8,0,10,0,38,1,873.7000000029802,39,0,609.5,10,1,experiment,NA,NA,1,0.3,0.7,3,2,146,4,NA
fcp-trial,181,891078,0.0-156.0-0.0,voc_e2,12339,"[{""event"":""fullscreenenter"",""trial"":1,""time"":35733}]",NA,NA,NA,NA,NA,5,#FA92F8,#1CD855,0,0,1,38,1,1227.7000000029802,37,1,449.59999999403954,0,1,experiment,NA,NA,1,0.7,0.3,2,3,147,4,NA
fcp-trial,182,894259,0.0-157.0-0.0,voc_e2,12339,"[{""event"":""fullscreenenter"",""trial"":1,""time"":35733}]",NA,NA,NA,NA,NA,1,#FA92F8,#1CD855,10,0,1,38,1,1185.3999999910593,37,1,483.59999999403954,10,1,experiment,NA,NA,1,0.7,0.3,2,3,148,4,NA
fcp-trial,183,896543,0.0-158.0-0.0,voc_e2,12339,"[{""event"":""fullscreenenter"",""trial"":1,""time"":35733}]",NA,NA,NA,NA,NA,4,#D89F1C,#3386FF,0,10,0,38,1,435.1000000089407,39,0,341.6000000089407,10,1,experiment,NA,NA,0,0.1,0.9,1,0,149,4,NA
fcp-trial,184,898912,0.0-159.0-0.0,voc_e2,12339,"[{""event"":""fullscreenenter"",""trial"":1,""time"":35733}]",NA,NA,NA,NA,NA,5,#FA92F8,#1CD855,10,0,1,38,1,505.90000000596046,37,1,354.5,10,1,experiment,NA,NA,1,0.7,0.3,2,3,150,4,NA
fcp-trial,185,901925,0.0-160.0-0.0,voc_e2,12339,"[{""event"":""fullscreenenter"",""trial"":1,""time"":35733}]",NA,NA,NA,NA,NA,6,#1CD855,#FA92F8,10,10,0,38,1,1091.300000011921,39,0,412.80000001192093,10,1,experiment,NA,NA,1,0.3,0.7,3,2,151,4,NA
fcp-trial,186,906900,0.0-161.0-0.0,voc_e2,12339,"[{""event"":""fullscreenenter"",""trial"":1,""time"":35733}]",NA,NA,NA,NA,NA,2,#741CD8,#D8271C,10,0,0,38,1,2516.7000000029802,37,1,950.5,10,0,experiment,NA,NA,2,0.5,0.5,5,4,152,4,NA
fcp-trial,187,910393,0.0-162.0-0.0,voc_e2,12339,"[{""event"":""fullscreenenter"",""trial"":1,""time"":35733}]",NA,NA,NA,NA,NA,3,#D89F1C,#3386FF,0,10,0,38,1,1577.5999999940395,39,0,394.69999998807907,10,1,experiment,NA,NA,0,0.1,0.9,1,0,153,4,NA
fcp-trial,188,915024,0.0-163.0-0.0,voc_e2,12339,"[{""event"":""fullscreenenter"",""trial"":1,""time"":35733}]",NA,NA,NA,NA,NA,5,#3386FF,#D89F1C,10,0,1,38,1,2295.199999988079,37,1,828.5,10,1,experiment,NA,NA,0,0.9,0.1,0,1,154,4,NA
fcp-trial,189,917544,0.0-164.0-0.0,voc_e2,12339,"[{""event"":""fullscreenenter"",""trial"":1,""time"":35733}]",NA,NA,NA,NA,NA,3,#1CD855,#FA92F8,10,10,0,38,1,614.5,39,0,398.29999999701977,10,1,experiment,NA,NA,1,0.3,0.7,3,2,155,4,NA
fcp-trial,190,921903,0.0-165.0-0.0,voc_e2,12339,"[{""event"":""fullscreenenter"",""trial"":1,""time"":35733}]",NA,NA,NA,NA,NA,1,#D8271C,#741CD8,10,10,1,38,1,2358.8999999910593,39,0,489.59999999403954,10,0,experiment,NA,NA,2,0.5,0.5,4,5,156,4,NA
fcp-trial,191,925113,0.0-166.0-0.0,voc_e2,12339,"[{""event"":""fullscreenenter"",""trial"":1,""time"":35733}]",NA,NA,NA,NA,NA,6,#741CD8,#D8271C,0,0,0,38,1,1027.7999999970198,37,1,673,0,0,experiment,NA,NA,2,0.5,0.5,5,4,157,4,NA
fcp-trial,192,928673,0.0-167.0-0.0,voc_e2,12339,"[{""event"":""fullscreenenter"",""trial"":1,""time"":35733}]",NA,NA,NA,NA,NA,2,#3386FF,#D89F1C,10,0,1,38,1,1647.3999999910593,37,1,390.29999999701977,10,1,experiment,NA,NA,0,0.9,0.1,0,1,158,4,NA
fcp-trial,193,931214,0.0-168.0-0.0,voc_e2,12339,"[{""event"":""fullscreenenter"",""trial"":1,""time"":35733}]",NA,NA,NA,NA,NA,4,#1CD855,#FA92F8,0,0,0,38,1,595.5,39,0,436.79999999701977,0,1,experiment,NA,NA,1,0.3,0.7,3,2,159,4,NA
fcp-trial,194,934056,0.0-169.0-0.0,voc_e2,12339,"[{""event"":""fullscreenenter"",""trial"":1,""time"":35733}]",NA,NA,NA,NA,NA,6,#D89F1C,#3386FF,10,10,0,38,1,915.2999999970198,39,0,407.30000001192093,10,1,experiment,NA,NA,0,0.1,0.9,1,0,160,4,NA
fcp-trial,195,937648,0.0-170.0-0.0,voc_e2,12339,"[{""event"":""fullscreenenter"",""trial"":1,""time"":35733}]",NA,NA,NA,NA,NA,5,#741CD8,#D8271C,10,10,0,38,1,1641.3999999910593,37,1,439.1000000089407,10,0,experiment,NA,NA,2,0.5,0.5,5,4,161,4,NA
fcp-trial,196,940190,0.0-171.0-0.0,voc_e2,12339,"[{""event"":""fullscreenenter"",""trial"":1,""time"":35733}]",NA,NA,NA,NA,NA,1,#D89F1C,#3386FF,0,10,0,38,1,628.9000000059605,39,0,394.20000000298023,10,1,experiment,NA,NA,0,0.1,0.9,1,0,162,4,NA
fcp-trial,197,942331,0.0-172.0-0.0,voc_e2,12339,"[{""event"":""fullscreenenter"",""trial"":1,""time"":35733}]",NA,NA,NA,NA,NA,0,#741CD8,#D8271C,10,10,0,38,1,24.400000005960464,37,1,607.7999999970198,10,0,experiment,NA,NA,2,0.5,0.5,5,4,163,4,NA
fcp-trial,198,945159,0.0-173.0-0.0,voc_e2,12339,"[{""event"":""fullscreenenter"",""trial"":1,""time"":35733}]",NA,NA,NA,NA,NA,0,#1CD855,#FA92F8,0,0,0,38,1,434.6000000089407,39,0,880.8000000119209,0,1,experiment,NA,NA,1,0.3,0.7,3,2,164,4,NA
fcp-trial,199,947539,0.0-174.0-0.0,voc_e2,12339,"[{""event"":""fullscreenenter"",""trial"":1,""time"":35733}]",NA,NA,NA,NA,NA,4,#D8271C,#741CD8,10,0,1,38,1,489.1000000089407,39,0,382.70000000298023,0,0,experiment,NA,NA,2,0.5,0.5,4,5,165,4,NA
fcp-trial,200,952907,0.0-175.0-0.0,voc_e2,12339,"[{""event"":""fullscreenenter"",""trial"":1,""time"":35733}]",NA,NA,NA,NA,NA,0,#D89F1C,#3386FF,0,10,0,38,1,3520.3999999910593,39,0,338.3999999910593,10,1,experiment,NA,NA,0,0.1,0.9,1,0,166,4,NA
fcp-trial,201,955243,0.0-176.0-0.0,voc_e2,12339,"[{""event"":""fullscreenenter"",""trial"":1,""time"":35733}]",NA,NA,NA,NA,NA,3,#D8271C,#741CD8,10,10,1,38,1,507.70000000298023,39,0,319.6000000089407,10,0,experiment,NA,NA,2,0.5,0.5,4,5,167,4,NA
fcp-trial,202,957907,0.0-177.0-0.0,voc_e2,12339,"[{""event"":""fullscreenenter"",""trial"":1,""time"":35733}]",NA,NA,NA,NA,NA,2,#FA92F8,#1CD855,10,0,1,38,1,756.5,37,1,398.8999999910593,10,1,experiment,NA,NA,1,0.7,0.3,2,3,168,4,NA
fcp-trial,203,961081,0.0-178.0-0.0,voc_e2,12339,"[{""event"":""fullscreenenter"",""trial"":1,""time"":35733}]",NA,NA,NA,NA,NA,2,#741CD8,#D8271C,0,0,0,38,1,1241,37,1,425.69999998807907,0,0,experiment,NA,NA,2,0.5,0.5,5,4,169,4,NA
fcp-trial,204,964436,0.0-179.0-0.0,voc_e2,12339,"[{""event"":""fullscreenenter"",""trial"":1,""time"":35733}]",NA,NA,NA,NA,NA,1,#741CD8,#D8271C,0,10,0,38,1,1488.0999999940395,37,1,343.1000000089407,0,0,experiment,NA,NA,2,0.5,0.5,5,4,170,4,NA
fcp-trial,205,967406,0.0-180.0-0.0,voc_e2,12339,"[{""event"":""fullscreenenter"",""trial"":1,""time"":35733}]",NA,NA,NA,NA,NA,2,#1CD855,#FA92F8,0,10,0,38,1,1104,39,0,346.79999999701977,10,1,experiment,NA,NA,1,0.3,0.7,3,2,171,4,NA
fcp-trial,206,971171,0.0-181.0-0.0,voc_e2,12339,"[{""event"":""fullscreenenter"",""trial"":1,""time"":35733}]",NA,NA,NA,NA,NA,1,#1CD855,#FA92F8,10,10,0,38,1,1808,39,0,449.1000000089407,10,1,experiment,NA,NA,1,0.3,0.7,3,2,172,4,NA
fcp-trial,207,973521,0.0-182.0-0.0,voc_e2,12339,"[{""event"":""fullscreenenter"",""trial"":1,""time"":35733}]",NA,NA,NA,NA,NA,2,#3386FF,#D89F1C,10,0,1,38,1,517.4000000059605,37,1,317.5,10,1,experiment,NA,NA,0,0.9,0.1,0,1,173,4,NA
fcp-trial,208,975713,0.0-183.0-0.0,voc_e2,12339,"[{""event"":""fullscreenenter"",""trial"":1,""time"":35733}]",NA,NA,NA,NA,NA,5,#D8271C,#741CD8,10,10,1,38,1,408.29999999701977,39,0,275.3999999910593,10,0,experiment,NA,NA,2,0.5,0.5,4,5,174,4,NA
fcp-trial,209,977813,0.0-184.0-0.0,voc_e2,12339,"[{""event"":""fullscreenenter"",""trial"":1,""time"":35733}]",NA,NA,NA,NA,NA,6,#1CD855,#FA92F8,10,10,0,38,1,284.8999999910593,39,0,290,10,1,experiment,NA,NA,1,0.3,0.7,3,2,175,4,NA
fcp-trial,210,980178,0.0-185.0-0.0,voc_e2,12339,"[{""event"":""fullscreenenter"",""trial"":1,""time"":35733}]",NA,NA,NA,NA,NA,1,#3386FF,#D89F1C,10,0,1,38,1,521,37,1,323.09999999403954,10,1,experiment,NA,NA,0,0.9,0.1,0,1,176,4,NA
fcp-trial,211,982437,0.0-186.0-0.0,voc_e2,12339,"[{""event"":""fullscreenenter"",""trial"":1,""time"":35733}]",NA,NA,NA,NA,NA,3,#D8271C,#741CD8,10,10,1,38,1,465.09999999403954,39,0,268.5,10,0,experiment,NA,NA,2,0.5,0.5,4,5,177,4,NA
fcp-trial,212,985578,0.0-187.0-0.0,voc_e2,12339,"[{""event"":""fullscreenenter"",""trial"":1,""time"":35733}]",NA,NA,NA,NA,NA,5,#FA92F8,#1CD855,10,0,1,38,1,1294.5,37,1,338.5,10,1,experiment,NA,NA,1,0.7,0.3,2,3,178,4,NA
fcp-trial,213,987968,0.0-188.0-0.0,voc_e2,12339,"[{""event"":""fullscreenenter"",""trial"":1,""time"":35733}]",NA,NA,NA,NA,NA,6,#3386FF,#D89F1C,10,10,1,38,1,481.3999999910593,37,1,380.3999999910593,10,1,experiment,NA,NA,0,0.9,0.1,0,1,179,4,NA
fcp-trial,214,990437,0.0-189.0-0.0,voc_e2,12339,"[{""event"":""fullscreenenter"",""trial"":1,""time"":35733}]",NA,NA,NA,NA,NA,0,#3386FF,#D89F1C,10,0,1,38,1,613.7000000029802,37,1,346.79999999701977,10,1,experiment,NA,NA,0,0.9,0.1,0,1,180,4,NA
fcp-trial,215,992688,0.0-190.0-0.0,voc_e2,12339,"[{""event"":""fullscreenenter"",""trial"":1,""time"":35733}]",NA,NA,NA,NA,NA,0,#1CD855,#FA92F8,0,0,0,38,1,429.90000000596046,39,0,313.09999999403954,0,1,experiment,NA,NA,1,0.3,0.7,3,2,181,5,NA
fcp-trial,216,994638,0.0-191.0-0.0,voc_e2,12339,"[{""event"":""fullscreenenter"",""trial"":1,""time"":35733}]",NA,NA,NA,NA,NA,4,#741CD8,#D8271C,10,10,0,38,1,142,37,1,300,10,0,experiment,NA,NA,2,0.5,0.5,5,4,182,5,NA
fcp-trial,217,997406,0.0-192.0-0.0,voc_e2,12339,"[{""event"":""fullscreenenter"",""trial"":1,""time"":35733}]",NA,NA,NA,NA,NA,4,#D89F1C,#3386FF,0,10,0,38,1,431.79999999701977,39,0,828.8999999910593,10,1,experiment,NA,NA,0,0.1,0.9,1,0,183,5,NA
fcp-trial,218,1000073,0.0-193.0-0.0,voc_e2,12339,"[{""event"":""fullscreenenter"",""trial"":1,""time"":35733}]",NA,NA,NA,NA,NA,4,#FA92F8,#1CD855,10,0,1,38,1,707,37,1,434.79999999701977,10,1,experiment,NA,NA,1,0.7,0.3,2,3,184,5,NA
fcp-trial,219,1002511,0.0-194.0-0.0,voc_e2,12339,"[{""event"":""fullscreenenter"",""trial"":1,""time"":35733}]",NA,NA,NA,NA,NA,3,#3386FF,#D89F1C,10,0,1,38,1,611.8000000119209,37,1,314.90000000596046,10,1,experiment,NA,NA,0,0.9,0.1,0,1,185,5,NA
fcp-trial,220,1005022,0.0-195.0-0.0,voc_e2,12339,"[{""event"":""fullscreenenter"",""trial"":1,""time"":35733}]",NA,NA,NA,NA,NA,0,#D8271C,#741CD8,0,0,1,38,1,632.5999999940395,39,0,351.6000000089407,0,0,experiment,NA,NA,2,0.5,0.5,4,5,186,5,NA
fcp-trial,221,1007605,0.0-196.0-0.0,voc_e2,12339,"[{""event"":""fullscreenenter"",""trial"":1,""time"":35733}]",NA,NA,NA,NA,NA,3,#1CD855,#FA92F8,0,10,0,38,1,765.7999999970198,39,0,303.80000001192093,10,1,experiment,NA,NA,1,0.3,0.7,3,2,187,5,NA
fcp-trial,222,1011933,0.0-197.0-0.0,voc_e2,12339,"[{""event"":""fullscreenenter"",""trial"":1,""time"":35733}]",NA,NA,NA,NA,NA,5,#D89F1C,#3386FF,10,10,0,38,1,1897.300000011921,39,0,919.7999999970198,10,1,experiment,NA,NA,0,0.1,0.9,1,0,188,5,NA
fcp-trial,223,1016849,0.0-198.0-0.0,voc_e2,12339,"[{""event"":""fullscreenenter"",""trial"":1,""time"":35733}]",NA,NA,NA,NA,NA,6,#D8271C,#741CD8,0,0,1,38,1,3085.699999988079,39,0,319.29999999701977,0,0,experiment,NA,NA,2,0.5,0.5,4,5,189,5,NA
fcp-trial,224,1020419,0.0-199.0-0.0,voc_e2,12339,"[{""event"":""fullscreenenter"",""trial"":1,""time"":35733}]",NA,NA,NA,NA,NA,1,#1CD855,#FA92F8,0,0,0,38,1,1661.5999999940395,39,0,399.70000000298023,0,1,experiment,NA,NA,1,0.3,0.7,3,2,190,5,NA
fcp-trial,225,1024692,0.0-200.0-0.0,voc_e2,12339,"[{""event"":""fullscreenenter"",""trial"":1,""time"":35733}]",NA,NA,NA,NA,NA,2,#FA92F8,#1CD855,10,10,1,38,1,1984.7999999970198,37,1,781.0999999940395,10,1,experiment,NA,NA,1,0.7,0.3,2,3,191,5,NA
fcp-trial,226,1028432,0.0-201.0-0.0,voc_e2,12339,"[{""event"":""fullscreenenter"",""trial"":1,""time"":35733}]",NA,NA,NA,NA,NA,4,#D89F1C,#3386FF,0,10,0,38,1,1795.0999999940395,39,0,421,10,1,experiment,NA,NA,0,0.1,0.9,1,0,192,5,NA
fcp-trial,227,1031051,0.0-202.0-0.0,voc_e2,12339,"[{""event"":""fullscreenenter"",""trial"":1,""time"":35733}]",NA,NA,NA,NA,NA,0,#1CD855,#FA92F8,0,10,0,38,1,610.1999999880791,39,0,497.79999999701977,10,1,experiment,NA,NA,1,0.3,0.7,3,2,193,5,NA
fcp-trial,228,1034267,0.0-203.0-0.0,voc_e2,12339,"[{""event"":""fullscreenenter"",""trial"":1,""time"":35733}]",NA,NA,NA,NA,NA,2,#3386FF,#D89F1C,10,0,1,38,1,1098.8999999910593,37,1,609.4000000059605,10,1,experiment,NA,NA,0,0.9,0.1,0,1,194,5,NA
fcp-trial,229,1037438,0.0-204.0-0.0,voc_e2,12339,"[{""event"":""fullscreenenter"",""trial"":1,""time"":35733}]",NA,NA,NA,NA,NA,3,#741CD8,#D8271C,10,10,0,38,1,1149.0999999940395,37,1,514.2000000029802,10,0,experiment,NA,NA,2,0.5,0.5,5,4,195,5,NA
fcp-trial,230,1039916,0.0-205.0-0.0,voc_e2,12339,"[{""event"":""fullscreenenter"",""trial"":1,""time"":35733}]",NA,NA,NA,NA,NA,0,#D8271C,#741CD8,10,0,1,38,1,660,39,0,307.80000001192093,0,0,experiment,NA,NA,2,0.5,0.5,4,5,196,5,NA
fcp-trial,231,1043603,0.0-206.0-0.0,voc_e2,12339,"[{""event"":""fullscreenenter"",""trial"":1,""time"":35733}]",NA,NA,NA,NA,NA,0,#D89F1C,#3386FF,0,10,0,38,1,1510.2000000029802,39,0,668.3000000119209,10,1,experiment,NA,NA,0,0.1,0.9,1,0,197,5,NA
fcp-trial,232,1049888,0.0-207.0-0.0,voc_e2,12339,"[{""event"":""fullscreenenter"",""trial"":1,""time"":35733}]",NA,NA,NA,NA,NA,4,#1CD855,#FA92F8,0,10,0,38,1,4323.79999999702,39,0,452,10,1,experiment,NA,NA,1,0.3,0.7,3,2,198,5,NA
fcp-trial,233,1052474,0.0-208.0-0.0,voc_e2,12339,"[{""event"":""fullscreenenter"",""trial"":1,""time"":35733}]",NA,NA,NA,NA,NA,1,#741CD8,#D8271C,0,0,0,38,1,652.6000000089407,37,1,424.5,0,0,experiment,NA,NA,2,0.5,0.5,5,4,199,5,NA
fcp-trial,234,1055979,0.0-209.0-0.0,voc_e2,12339,"[{""event"":""fullscreenenter"",""trial"":1,""time"":35733}]",NA,NA,NA,NA,NA,5,#1CD855,#FA92F8,0,10,0,38,1,1515.5999999940395,39,0,470.09999999403954,10,1,experiment,NA,NA,1,0.3,0.7,3,2,200,5,NA
fcp-trial,235,1058401,0.0-210.0-0.0,voc_e2,12339,"[{""event"":""fullscreenenter"",""trial"":1,""time"":35733}]",NA,NA,NA,NA,NA,3,#D89F1C,#3386FF,10,10,0,38,1,532.2000000029802,39,0,368.09999999403954,10,1,experiment,NA,NA,0,0.1,0.9,1,0,201,5,NA
fcp-trial,236,1060817,0.0-211.0-0.0,voc_e2,12339,"[{""event"":""fullscreenenter"",""trial"":1,""time"":35733}]",NA,NA,NA,NA,NA,6,#741CD8,#D8271C,10,10,0,38,1,572.8000000119209,37,1,331.80000001192093,10,0,experiment,NA,NA,2,0.5,0.5,5,4,202,5,NA
fcp-trial,237,1063552,0.0-212.0-0.0,voc_e2,12339,"[{""event"":""fullscreenenter"",""trial"":1,""time"":35733}]",NA,NA,NA,NA,NA,5,#D8271C,#741CD8,0,10,1,38,1,414.20000000298023,39,0,808.5,10,0,experiment,NA,NA,2,0.5,0.5,4,5,203,5,NA
fcp-trial,238,1066067,0.0-213.0-0.0,voc_e2,12339,"[{""event"":""fullscreenenter"",""trial"":1,""time"":35733}]",NA,NA,NA,NA,NA,3,#1CD855,#FA92F8,10,10,0,38,1,492.5,39,0,495.5,10,1,experiment,NA,NA,1,0.3,0.7,3,2,204,5,NA
fcp-trial,239,1068684,0.0-214.0-0.0,voc_e2,12339,"[{""event"":""fullscreenenter"",""trial"":1,""time"":35733}]",NA,NA,NA,NA,NA,1,#3386FF,#D89F1C,10,0,1,38,1,716.4000000059605,37,1,393.30000001192093,10,1,experiment,NA,NA,0,0.9,0.1,0,1,205,5,NA
fcp-trial,240,1072886,0.0-215.0-0.0,voc_e2,12339,"[{""event"":""fullscreenenter"",""trial"":1,""time"":35733}]",NA,NA,NA,NA,NA,6,#FA92F8,#1CD855,10,0,1,40,0,1315.0999999940395,39,0,1377.6000000089407,0,0,experiment,NA,NA,1,0.7,0.3,2,3,206,5,NA
fcp-trial,241,1075465,0.0-216.0-0.0,voc_e2,12339,"[{""event"":""fullscreenenter"",""trial"":1,""time"":35733}]",NA,NA,NA,NA,NA,2,#D8271C,#741CD8,10,0,1,38,1,451,39,0,609.1000000089407,0,0,experiment,NA,NA,2,0.5,0.5,4,5,207,5,NA
fcp-trial,242,1077731,0.0-217.0-0.0,voc_e2,12339,"[{""event"":""fullscreenenter"",""trial"":1,""time"":35733}]",NA,NA,NA,NA,NA,5,#3386FF,#D89F1C,10,10,1,38,1,412.19999998807907,37,1,344.90000000596046,10,1,experiment,NA,NA,0,0.9,0.1,0,1,208,5,NA
fcp-trial,243,1079928,0.0-218.0-0.0,voc_e2,12339,"[{""event"":""fullscreenenter"",""trial"":1,""time"":35733}]",NA,NA,NA,NA,NA,6,#D89F1C,#3386FF,0,10,0,38,1,316.09999999403954,39,0,371.30000001192093,10,1,experiment,NA,NA,0,0.1,0.9,1,0,209,5,NA
fcp-trial,244,1082548,0.0-219.0-0.0,voc_e2,12339,"[{""event"":""fullscreenenter"",""trial"":1,""time"":35733}]",NA,NA,NA,NA,NA,4,#D8271C,#741CD8,10,10,1,38,1,347.8999999910593,39,0,759.9000000059605,10,0,experiment,NA,NA,2,0.5,0.5,4,5,210,5,NA
audio-instructions,245,1088231,0.0-220.0,voc_e2,12339,"[{""event"":""fullscreenenter"",""trial"":1,""time"":35733}]",NA,1041.199999988079,static/audio/pause.wav,NA,0,NA,NA,NA,NA,NA,NA,NA,NA,NA,NA,NA,NA,NA,NA,NA,NA,NA,NA,NA,NA,NA,NA,NA,NA,NA
fcp-trial,246,1091946,0.0-221.0-0.0,voc_e2,12339,"[{""event"":""fullscreenenter"",""trial"":1,""time"":35733}]",NA,NA,NA,NA,NA,5,#3386FF,#D89F1C,10,0,1,40,0,1748,37,1,445.70000000298023,10,1,experiment,NA,NA,0,0.9,0.1,0,1,211,5,NA
fcp-trial,247,1095285,0.0-222.0-0.0,voc_e2,12339,"[{""event"":""fullscreenenter"",""trial"":1,""time"":35733}]",NA,NA,NA,NA,NA,4,#1CD855,#FA92F8,0,10,0,40,0,1318.2999999970198,39,0,512.5999999940395,10,1,experiment,NA,NA,1,0.3,0.7,3,2,212,5,NA
fcp-trial,248,1098252,0.0-223.0-0.0,voc_e2,12339,"[{""event"":""fullscreenenter"",""trial"":1,""time"":35733}]",NA,NA,NA,NA,NA,1,#741CD8,#D8271C,10,10,0,40,0,770.7999999970198,39,0,686.8999999910593,10,1,experiment,NA,NA,2,0.5,0.5,5,4,213,5,NA
fcp-trial,249,1101423,0.0-224.0-0.0,voc_e2,12339,"[{""event"":""fullscreenenter"",""trial"":1,""time"":35733}]",NA,NA,NA,NA,NA,4,#D8271C,#741CD8,10,10,1,40,0,1296.0999999940395,39,0,368.20000000298023,10,0,experiment,NA,NA,2,0.5,0.5,4,5,214,5,NA
fcp-trial,250,1104361,0.0-225.0-0.0,voc_e2,12339,"[{""event"":""fullscreenenter"",""trial"":1,""time"":35733}]",NA,NA,NA,NA,NA,4,#3386FF,#D89F1C,0,0,1,40,0,727.9000000059605,39,0,686.7999999970198,0,0,experiment,NA,NA,0,0.9,0.1,0,1,215,5,NA
fcp-trial,251,1106897,0.0-226.0-0.0,voc_e2,12339,"[{""event"":""fullscreenenter"",""trial"":1,""time"":35733}]",NA,NA,NA,NA,NA,0,#1CD855,#FA92F8,0,10,0,38,1,660.3999999910593,39,0,368,10,1,experiment,NA,NA,1,0.3,0.7,3,2,216,5,NA
fcp-trial,252,1109268,0.0-227.0-0.0,voc_e2,12339,"[{""event"":""fullscreenenter"",""trial"":1,""time"":35733}]",NA,NA,NA,NA,NA,1,#1CD855,#FA92F8,0,0,0,38,1,500.29999999701977,39,0,361,0,1,experiment,NA,NA,1,0.3,0.7,3,2,217,5,NA
fcp-trial,253,1111930,0.0-228.0-0.0,voc_e2,12339,"[{""event"":""fullscreenenter"",""trial"":1,""time"":35733}]",NA,NA,NA,NA,NA,2,#741CD8,#D8271C,10,0,0,38,1,810.1000000089407,37,1,341.8999999910593,10,0,experiment,NA,NA,2,0.5,0.5,5,4,218,5,NA
fcp-trial,254,1114378,0.0-229.0-0.0,voc_e2,12339,"[{""event"":""fullscreenenter"",""trial"":1,""time"":35733}]",NA,NA,NA,NA,NA,2,#D89F1C,#3386FF,0,10,0,38,1,378,39,0,561.7999999970198,10,1,experiment,NA,NA,0,0.1,0.9,1,0,219,5,NA
fcp-trial,255,1116800,0.0-230.0-0.0,voc_e2,12339,"[{""event"":""fullscreenenter"",""trial"":1,""time"":35733}]",NA,NA,NA,NA,NA,2,#1CD855,#FA92F8,0,0,0,38,1,495.29999999701977,39,0,417.5,0,1,experiment,NA,NA,1,0.3,0.7,3,2,220,5,NA
fcp-trial,256,1119946,0.0-231.0-0.0,voc_e2,12339,"[{""event"":""fullscreenenter"",""trial"":1,""time"":35733}]",NA,NA,NA,NA,NA,5,#D8271C,#741CD8,10,10,1,38,1,995.7999999970198,39,0,643.5,10,0,experiment,NA,NA,2,0.5,0.5,4,5,221,5,NA
fcp-trial,257,1123645,0.0-232.0-0.0,voc_e2,12339,"[{""event"":""fullscreenenter"",""trial"":1,""time"":35733}]",NA,NA,NA,NA,NA,3,#D89F1C,#3386FF,0,0,0,38,1,1679.300000011921,39,0,514.3000000119209,0,1,experiment,NA,NA,0,0.1,0.9,1,0,222,5,NA
fcp-trial,258,1126964,0.0-233.0-0.0,voc_e2,12339,"[{""event"":""fullscreenenter"",""trial"":1,""time"":35733}]",NA,NA,NA,NA,NA,5,#FA92F8,#1CD855,10,10,1,38,1,1228.8999999910593,37,1,582,10,1,experiment,NA,NA,1,0.7,0.3,2,3,223,5,NA
fcp-trial,259,1130219,0.0-234.0-0.0,voc_e2,12339,"[{""event"":""fullscreenenter"",""trial"":1,""time"":35733}]",NA,NA,NA,NA,NA,6,#3386FF,#D89F1C,10,0,1,38,1,1294.2999999970198,37,1,452.59999999403954,10,1,experiment,NA,NA,0,0.9,0.1,0,1,224,5,NA
fcp-trial,260,1133411,0.0-235.0-0.0,voc_e2,12339,"[{""event"":""fullscreenenter"",""trial"":1,""time"":35733}]",NA,NA,NA,NA,NA,3,#D8271C,#741CD8,0,10,1,38,1,798.6000000089407,39,0,870.3999999910593,10,0,experiment,NA,NA,2,0.5,0.5,4,5,225,5,NA
fcp-trial,261,1136386,0.0-236.0-0.0,voc_e2,12339,"[{""event"":""fullscreenenter"",""trial"":1,""time"":35733}]",NA,NA,NA,NA,NA,3,#1CD855,#FA92F8,0,0,0,38,1,577.7999999970198,39,0,889.9000000059605,0,1,experiment,NA,NA,1,0.3,0.7,3,2,226,6,NA
fcp-trial,262,1139076,0.0-237.0-0.0,voc_e2,12339,"[{""event"":""fullscreenenter"",""trial"":1,""time"":35733}]",NA,NA,NA,NA,NA,0,#D89F1C,#3386FF,0,0,0,38,1,407.5,39,0,759.0999999940395,0,1,experiment,NA,NA,0,0.1,0.9,1,0,227,6,NA
fcp-trial,263,1141555,0.0-238.0-0.0,voc_e2,12339,"[{""event"":""fullscreenenter"",""trial"":1,""time"":35733}]",NA,NA,NA,NA,NA,0,#741CD8,#D8271C,0,10,0,38,1,549,37,1,421.29999999701977,0,0,experiment,NA,NA,2,0.5,0.5,5,4,228,6,NA
fcp-trial,264,1144112,0.0-239.0-0.0,voc_e2,12339,"[{""event"":""fullscreenenter"",""trial"":1,""time"":35733}]",NA,NA,NA,NA,NA,6,#D8271C,#741CD8,0,10,1,38,1,411.1000000089407,39,0,627.3999999910593,10,0,experiment,NA,NA,2,0.5,0.5,4,5,229,6,NA
fcp-trial,265,1146954,0.0-240.0-0.0,voc_e2,12339,"[{""event"":""fullscreenenter"",""trial"":1,""time"":35733}]",NA,NA,NA,NA,NA,6,#1CD855,#FA92F8,0,10,0,40,0,851.2999999970198,37,1,482.90000000596046,0,0,experiment,NA,NA,1,0.3,0.7,3,2,230,6,NA
fcp-trial,266,1149278,0.0-241.0-0.0,voc_e2,12339,"[{""event"":""fullscreenenter"",""trial"":1,""time"":35733}]",NA,NA,NA,NA,NA,1,#3386FF,#D89F1C,10,0,1,38,1,430.90000000596046,37,1,367.6000000089407,10,1,experiment,NA,NA,0,0.9,0.1,0,1,231,6,NA
fcp-trial,267,1151566,0.0-242.0-0.0,voc_e2,12339,"[{""event"":""fullscreenenter"",""trial"":1,""time"":35733}]",NA,NA,NA,NA,NA,5,#741CD8,#D8271C,10,0,0,38,1,410.29999999701977,37,1,369.20000000298023,10,0,experiment,NA,NA,2,0.5,0.5,5,4,232,6,NA
fcp-trial,268,1153786,0.0-243.0-0.0,voc_e2,12339,"[{""event"":""fullscreenenter"",""trial"":1,""time"":35733}]",NA,NA,NA,NA,NA,6,#FA92F8,#1CD855,0,10,1,38,1,340.79999999701977,37,1,356.20000000298023,0,1,experiment,NA,NA,1,0.7,0.3,2,3,233,6,NA
fcp-trial,269,1156181,0.0-244.0-0.0,voc_e2,12339,"[{""event"":""fullscreenenter"",""trial"":1,""time"":35733}]",NA,NA,NA,NA,NA,0,#FA92F8,#1CD855,0,10,1,38,1,478.8999999910593,39,0,395.40000000596046,10,0,experiment,NA,NA,1,0.7,0.3,2,3,234,6,NA
fcp-trial,270,1158543,0.0-245.0-0.0,voc_e2,12339,"[{""event"":""fullscreenenter"",""trial"":1,""time"":35733}]",NA,NA,NA,NA,NA,6,#3386FF,#D89F1C,10,0,1,38,1,527.9000000059605,37,1,325.5,10,1,experiment,NA,NA,0,0.9,0.1,0,1,235,6,NA
fcp-trial,271,1160776,0.0-246.0-0.0,voc_e2,12339,"[{""event"":""fullscreenenter"",""trial"":1,""time"":35733}]",NA,NA,NA,NA,NA,3,#3386FF,#D89F1C,0,0,1,38,1,336.09999999403954,37,1,389,0,1,experiment,NA,NA,0,0.9,0.1,0,1,236,6,NA
fcp-trial,272,1163402,0.0-247.0-0.0,voc_e2,12339,"[{""event"":""fullscreenenter"",""trial"":1,""time"":35733}]",NA,NA,NA,NA,NA,2,#741CD8,#D8271C,10,10,0,38,1,556.5,37,1,557.1000000089407,10,0,experiment,NA,NA,2,0.5,0.5,5,4,237,6,NA
fcp-trial,273,1166693,0.0-248.0-0.0,voc_e2,12339,"[{""event"":""fullscreenenter"",""trial"":1,""time"":35733}]",NA,NA,NA,NA,NA,1,#1CD855,#FA92F8,0,10,0,38,1,475,37,1,1297.4000000059605,0,0,experiment,NA,NA,1,0.3,0.7,3,2,238,6,NA
fcp-trial,274,1168996,0.0-249.0-0.0,voc_e2,12339,"[{""event"":""fullscreenenter"",""trial"":1,""time"":35733}]",NA,NA,NA,NA,NA,3,#741CD8,#D8271C,0,10,0,38,1,400.3999999910593,37,1,387.8999999910593,0,0,experiment,NA,NA,2,0.5,0.5,5,4,239,6,NA
fcp-trial,275,1171379,0.0-250.0-0.0,voc_e2,12339,"[{""event"":""fullscreenenter"",""trial"":1,""time"":35733}]",NA,NA,NA,NA,NA,4,#D89F1C,#3386FF,0,10,0,38,1,357.20000000298023,37,1,516.8999999910593,0,0,experiment,NA,NA,0,0.1,0.9,1,0,240,6,NA
fcp-trial,276,1173636,0.0-251.0-0.0,voc_e2,12339,"[{""event"":""fullscreenenter"",""trial"":1,""time"":35733}]",NA,NA,NA,NA,NA,0,#741CD8,#D8271C,10,0,0,38,1,275,39,0,474.09999999403954,0,1,experiment,NA,NA,2,0.5,0.5,5,4,241,6,NA
fcp-trial,277,1175834,0.0-252.0-0.0,voc_e2,12339,"[{""event"":""fullscreenenter"",""trial"":1,""time"":35733}]",NA,NA,NA,NA,NA,0,#3386FF,#D89F1C,10,0,1,38,1,386.90000000596046,37,1,305,10,1,experiment,NA,NA,0,0.9,0.1,0,1,242,6,NA
fcp-trial,278,1178351,0.0-253.0-0.0,voc_e2,12339,"[{""event"":""fullscreenenter"",""trial"":1,""time"":35733}]",NA,NA,NA,NA,NA,4,#1CD855,#FA92F8,10,0,0,38,1,590.7999999970198,39,0,406.29999999701977,0,1,experiment,NA,NA,1,0.3,0.7,3,2,243,6,NA
fcp-trial,279,1181544,0.0-254.0-0.0,voc_e2,12339,"[{""event"":""fullscreenenter"",""trial"":1,""time"":35733}]",NA,NA,NA,NA,NA,4,#741CD8,#D8271C,10,10,0,38,1,1176.2999999970198,37,1,497.29999999701977,10,0,experiment,NA,NA,2,0.5,0.5,5,4,244,6,NA
fcp-trial,280,1184344,0.0-255.0-0.0,voc_e2,12339,"[{""event"":""fullscreenenter"",""trial"":1,""time"":35733}]",NA,NA,NA,NA,NA,3,#FA92F8,#1CD855,10,10,1,38,1,525.0999999940395,37,1,766.6000000089407,10,1,experiment,NA,NA,1,0.7,0.3,2,3,245,6,NA
fcp-trial,281,1186534,0.0-256.0-0.0,voc_e2,12339,"[{""event"":""fullscreenenter"",""trial"":1,""time"":35733}]",NA,NA,NA,NA,NA,2,#D89F1C,#3386FF,0,10,0,38,1,392.29999999701977,39,0,290,10,1,experiment,NA,NA,0,0.1,0.9,1,0,246,6,NA
fcp-trial,282,1188811,0.0-257.0-0.0,voc_e2,12339,"[{""event"":""fullscreenenter"",""trial"":1,""time"":35733}]",NA,NA,NA,NA,NA,1,#D8271C,#741CD8,10,0,1,38,1,358.20000000298023,39,0,399.90000000596046,0,0,experiment,NA,NA,2,0.5,0.5,4,5,247,6,NA
fcp-trial,283,1191462,0.0-258.0-0.0,voc_e2,12339,"[{""event"":""fullscreenenter"",""trial"":1,""time"":35733}]",NA,NA,NA,NA,NA,2,#FA92F8,#1CD855,10,0,1,38,1,414,37,1,728.7999999970198,10,1,experiment,NA,NA,1,0.7,0.3,2,3,248,6,NA
fcp-trial,284,1194266,0.0-259.0-0.0,voc_e2,12339,"[{""event"":""fullscreenenter"",""trial"":1,""time"":35733}]",NA,NA,NA,NA,NA,1,#D89F1C,#3386FF,10,10,0,38,1,958.0999999940395,39,0,336.90000000596046,10,1,experiment,NA,NA,0,0.1,0.9,1,0,249,6,NA
fcp-trial,285,1196975,0.0-260.0-0.0,voc_e2,12339,"[{""event"":""fullscreenenter"",""trial"":1,""time"":35733}]",NA,NA,NA,NA,NA,5,#D89F1C,#3386FF,0,10,0,38,1,740.2000000029802,39,0,445,10,1,experiment,NA,NA,0,0.1,0.9,1,0,250,6,NA
fcp-trial,286,1199215,0.0-261.0-0.0,voc_e2,12339,"[{""event"":""fullscreenenter"",""trial"":1,""time"":35733}]",NA,NA,NA,NA,NA,6,#D8271C,#741CD8,0,10,1,38,1,450.80000001192093,39,0,281.1000000089407,10,0,experiment,NA,NA,2,0.5,0.5,4,5,251,6,NA
fcp-trial,287,1202079,0.0-262.0-0.0,voc_e2,12339,"[{""event"":""fullscreenenter"",""trial"":1,""time"":35733}]",NA,NA,NA,NA,NA,5,#1CD855,#FA92F8,10,0,0,38,1,487.5,39,0,853.7999999970198,0,1,experiment,NA,NA,1,0.3,0.7,3,2,252,6,NA
fcp-trial,288,1204243,0.0-263.0-0.0,voc_e2,12339,"[{""event"":""fullscreenenter"",""trial"":1,""time"":35733}]",NA,NA,NA,NA,NA,3,#D89F1C,#3386FF,0,10,0,38,1,375.5,39,0,265.09999999403954,10,1,experiment,NA,NA,0,0.1,0.9,1,0,253,6,NA
fcp-trial,289,1206476,0.0-264.0-0.0,voc_e2,12339,"[{""event"":""fullscreenenter"",""trial"":1,""time"":35733}]",NA,NA,NA,NA,NA,1,#741CD8,#D8271C,0,10,0,38,1,343.29999999701977,37,1,381.5,0,0,experiment,NA,NA,2,0.5,0.5,5,4,254,6,NA
fcp-trial,290,1208775,0.0-265.0-0.0,voc_e2,12339,"[{""event"":""fullscreenenter"",""trial"":1,""time"":35733}]",NA,NA,NA,NA,NA,3,#741CD8,#D8271C,0,10,0,38,1,424.70000000298023,37,1,365.3999999910593,0,0,experiment,NA,NA,2,0.5,0.5,5,4,255,6,NA
fcp-trial,291,1210989,0.0-266.0-0.0,voc_e2,12339,"[{""event"":""fullscreenenter"",""trial"":1,""time"":35733}]",NA,NA,NA,NA,NA,0,#FA92F8,#1CD855,0,0,1,38,1,392.40000000596046,37,1,310.6000000089407,0,1,experiment,NA,NA,1,0.7,0.3,2,3,256,6,NA
fcp-trial,292,1213315,0.0-267.0-0.0,voc_e2,12339,"[{""event"":""fullscreenenter"",""trial"":1,""time"":35733}]",NA,NA,NA,NA,NA,5,#3386FF,#D89F1C,10,0,1,38,1,393.6000000089407,37,1,423.8999999910593,10,1,experiment,NA,NA,0,0.9,0.1,0,1,257,6,NA
fcp-trial,293,1215761,0.0-268.0-0.0,voc_e2,12339,"[{""event"":""fullscreenenter"",""trial"":1,""time"":35733}]",NA,NA,NA,NA,NA,1,#D89F1C,#3386FF,0,10,0,38,1,316.1000000089407,39,0,611.6000000089407,10,1,experiment,NA,NA,0,0.1,0.9,1,0,258,6,NA
fcp-trial,294,1219024,0.0-269.0-0.0,voc_e2,12339,"[{""event"":""fullscreenenter"",""trial"":1,""time"":35733}]",NA,NA,NA,NA,NA,4,#D8271C,#741CD8,10,0,1,38,1,481.40000000596046,39,0,1272.800000011921,0,0,experiment,NA,NA,2,0.5,0.5,4,5,259,6,NA
fcp-trial,295,1221458,0.0-270.0-0.0,voc_e2,12339,"[{""event"":""fullscreenenter"",""trial"":1,""time"":35733}]",NA,NA,NA,NA,NA,4,#FA92F8,#1CD855,10,0,1,38,1,538,37,1,385.40000000596046,10,1,experiment,NA,NA,1,0.7,0.3,2,3,260,6,NA
fcp-trial,296,1224022,0.0-271.0-0.0,voc_e2,12339,"[{""event"":""fullscreenenter"",""trial"":1,""time"":35733}]",NA,NA,NA,NA,NA,2,#3386FF,#D89F1C,10,0,1,38,1,608.7999999970198,37,1,442.69999998807907,10,1,experiment,NA,NA,0,0.9,0.1,0,1,261,6,NA
fcp-trial,297,1226298,0.0-272.0-0.0,voc_e2,12339,"[{""event"":""fullscreenenter"",""trial"":1,""time"":35733}]",NA,NA,NA,NA,NA,6,#741CD8,#D8271C,0,0,0,38,1,437.09999999403954,39,0,330.8999999910593,0,1,experiment,NA,NA,2,0.5,0.5,5,4,262,6,NA
fcp-trial,298,1228564,0.0-273.0-0.0,voc_e2,12339,"[{""event"":""fullscreenenter"",""trial"":1,""time"":35733}]",NA,NA,NA,NA,NA,1,#FA92F8,#1CD855,10,10,1,38,1,439.3999999910593,37,1,305.90000000596046,10,1,experiment,NA,NA,1,0.7,0.3,2,3,263,6,NA
fcp-trial,299,1230874,0.0-274.0-0.0,voc_e2,12339,"[{""event"":""fullscreenenter"",""trial"":1,""time"":35733}]",NA,NA,NA,NA,NA,3,#FA92F8,#1CD855,10,0,1,38,1,486.40000000596046,37,1,314.80000001192093,10,1,experiment,NA,NA,1,0.7,0.3,2,3,264,6,NA
fcp-trial,300,1233140,0.0-275.0-0.0,voc_e2,12339,"[{""event"":""fullscreenenter"",""trial"":1,""time"":35733}]",NA,NA,NA,NA,NA,2,#FA92F8,#1CD855,0,0,1,38,1,409.09999999403954,37,1,348.09999999403954,0,1,experiment,NA,NA,1,0.7,0.3,2,3,265,6,NA
fcp-trial,301,1235423,0.0-276.0-0.0,voc_e2,12339,"[{""event"":""fullscreenenter"",""trial"":1,""time"":35733}]",NA,NA,NA,NA,NA,4,#3386FF,#D89F1C,10,0,1,38,1,495.59999999403954,37,1,280.40000000596046,10,1,experiment,NA,NA,0,0.9,0.1,0,1,266,6,NA
fcp-trial,302,1237771,0.0-277.0-0.0,voc_e2,12339,"[{""event"":""fullscreenenter"",""trial"":1,""time"":35733}]",NA,NA,NA,NA,NA,5,#741CD8,#D8271C,0,10,0,38,1,444.1000000089407,37,1,392.70000000298023,0,0,experiment,NA,NA,2,0.5,0.5,5,4,267,6,NA
fcp-trial,303,1240562,0.0-278.0-0.0,voc_e2,12339,"[{""event"":""fullscreenenter"",""trial"":1,""time"":35733}]",NA,NA,NA,NA,NA,6,#3386FF,#D89F1C,10,0,1,38,1,603.2999999970198,37,1,679.7999999970198,10,1,experiment,NA,NA,0,0.9,0.1,0,1,268,6,NA
fcp-trial,304,1243411,0.0-279.0-0.0,voc_e2,12339,"[{""event"":""fullscreenenter"",""trial"":1,""time"":35733}]",NA,NA,NA,NA,NA,2,#741CD8,#D8271C,0,10,0,38,1,652.5,37,1,685.7000000029802,0,0,experiment,NA,NA,2,0.5,0.5,5,4,269,6,NA
fcp-trial,305,1246173,0.0-280.0-0.0,voc_e2,12339,"[{""event"":""fullscreenenter"",""trial"":1,""time"":35733}]",NA,NA,NA,NA,NA,5,#1CD855,#FA92F8,0,0,0,38,1,791,39,0,449.1000000089407,0,1,experiment,NA,NA,1,0.3,0.7,3,2,270,6,NA
fcp-trial,306,1248988,0.0-281.0-0.0,voc_e2,12339,"[{""event"":""fullscreenenter"",""trial"":1,""time"":35733}]",NA,NA,NA,NA,NA,0,#3386FF,#D89F1C,10,0,1,38,1,1011.0999999940395,37,1,291.8999999910593,10,1,experiment,NA,NA,0,0.9,0.1,0,1,271,7,NA
fcp-trial,307,1253323,0.0-282.0-0.0,voc_e2,12339,"[{""event"":""fullscreenenter"",""trial"":1,""time"":35733}]",NA,NA,NA,NA,NA,6,#1CD855,#FA92F8,0,0,0,40,0,1828.5,39,0,998.7000000029802,0,1,experiment,NA,NA,1,0.3,0.7,3,2,272,7,NA
fcp-trial,308,1258538,0.0-283.0-0.0,voc_e2,12339,"[{""event"":""fullscreenenter"",""trial"":1,""time"":35733}]",NA,NA,NA,NA,NA,0,#D8271C,#741CD8,0,10,1,40,0,2983.7999999970198,39,0,722.8000000119209,10,0,experiment,NA,NA,2,0.5,0.5,4,5,273,7,NA
fcp-trial,309,1262179,0.0-284.0-0.0,voc_e2,12339,"[{""event"":""fullscreenenter"",""trial"":1,""time"":35733}]",NA,NA,NA,NA,NA,0,#D89F1C,#3386FF,0,10,0,38,1,1454.4000000059605,39,0,676.5,10,1,experiment,NA,NA,0,0.1,0.9,1,0,274,7,NA
fcp-trial,310,1265051,0.0-285.0-0.0,voc_e2,12339,"[{""event"":""fullscreenenter"",""trial"":1,""time"":35733}]",NA,NA,NA,NA,NA,5,#D8271C,#741CD8,10,0,1,38,1,942,39,0,407.79999999701977,0,0,experiment,NA,NA,2,0.5,0.5,4,5,275,7,NA
fcp-trial,311,1268773,0.0-286.0-0.0,voc_e2,12339,"[{""event"":""fullscreenenter"",""trial"":1,""time"":35733}]",NA,NA,NA,NA,NA,4,#1CD855,#FA92F8,0,10,0,38,1,1351,39,0,862.1000000089407,10,1,experiment,NA,NA,1,0.3,0.7,3,2,276,7,NA
fcp-trial,312,1272943,0.0-287.0-0.0,voc_e2,12339,"[{""event"":""fullscreenenter"",""trial"":1,""time"":35733}]",NA,NA,NA,NA,NA,0,#D8271C,#741CD8,0,0,1,40,0,2012.2000000029802,39,0,650.1999999880791,0,0,experiment,NA,NA,2,0.5,0.5,4,5,277,7,NA
fcp-trial,313,1275706,0.0-288.0-0.0,voc_e2,12339,"[{""event"":""fullscreenenter"",""trial"":1,""time"":35733}]",NA,NA,NA,NA,NA,5,#D89F1C,#3386FF,0,10,0,38,1,961.5999999940395,39,0,281.79999999701977,10,1,experiment,NA,NA,0,0.1,0.9,1,0,278,7,NA
fcp-trial,314,1278271,0.0-289.0-0.0,voc_e2,12339,"[{""event"":""fullscreenenter"",""trial"":1,""time"":35733}]",NA,NA,NA,NA,NA,4,#3386FF,#D89F1C,0,0,1,38,1,674.9000000059605,37,1,382,0,1,experiment,NA,NA,0,0.9,0.1,0,1,279,7,NA
fcp-trial,315,1280888,0.0-290.0-0.0,voc_e2,12339,"[{""event"":""fullscreenenter"",""trial"":1,""time"":35733}]",NA,NA,NA,NA,NA,2,#D89F1C,#3386FF,0,10,0,38,1,447.79999999701977,39,0,660.6000000089407,10,1,experiment,NA,NA,0,0.1,0.9,1,0,280,7,NA
fcp-trial,316,1283120,0.0-291.0-0.0,voc_e2,12339,"[{""event"":""fullscreenenter"",""trial"":1,""time"":35733}]",NA,NA,NA,NA,NA,0,#1CD855,#FA92F8,0,0,0,38,1,319.20000000298023,39,0,395.79999999701977,0,1,experiment,NA,NA,1,0.3,0.7,3,2,281,7,NA
fcp-trial,317,1285429,0.0-292.0-0.0,voc_e2,12339,"[{""event"":""fullscreenenter"",""trial"":1,""time"":35733}]",NA,NA,NA,NA,NA,1,#D8271C,#741CD8,10,0,1,38,1,393,39,0,407.5,0,0,experiment,NA,NA,2,0.5,0.5,4,5,282,7,NA
fcp-trial,318,1287625,0.0-293.0-0.0,voc_e2,12339,"[{""event"":""fullscreenenter"",""trial"":1,""time"":35733}]",NA,NA,NA,NA,NA,2,#FA92F8,#1CD855,10,0,1,38,1,350.5,37,1,320.5,10,1,experiment,NA,NA,1,0.7,0.3,2,3,283,7,NA
fcp-trial,319,1289752,0.0-294.0-0.0,voc_e2,12339,"[{""event"":""fullscreenenter"",""trial"":1,""time"":35733}]",NA,NA,NA,NA,NA,3,#1CD855,#FA92F8,10,10,0,38,1,337.70000000298023,39,0,280.5,10,1,experiment,NA,NA,1,0.3,0.7,3,2,284,7,NA
fcp-trial,320,1291961,0.0-295.0-0.0,voc_e2,12339,"[{""event"":""fullscreenenter"",""trial"":1,""time"":35733}]",NA,NA,NA,NA,NA,3,#D89F1C,#3386FF,0,10,0,38,1,398.69999998807907,39,0,302.09999999403954,10,1,experiment,NA,NA,0,0.1,0.9,1,0,285,7,NA
fcp-trial,321,1294090,0.0-296.0-0.0,voc_e2,12339,"[{""event"":""fullscreenenter"",""trial"":1,""time"":35733}]",NA,NA,NA,NA,NA,4,#D8271C,#741CD8,10,0,1,38,1,281.20000000298023,39,0,327.09999999403954,0,0,experiment,NA,NA,2,0.5,0.5,4,5,286,7,NA
fcp-trial,322,1296322,0.0-297.0-0.0,voc_e2,12339,"[{""event"":""fullscreenenter"",""trial"":1,""time"":35733}]",NA,NA,NA,NA,NA,3,#741CD8,#D8271C,10,10,0,38,1,431.5,37,1,293.30000001192093,10,0,experiment,NA,NA,2,0.5,0.5,5,4,287,7,NA
fcp-trial,323,1298528,0.0-298.0-0.0,voc_e2,12339,"[{""event"":""fullscreenenter"",""trial"":1,""time"":35733}]",NA,NA,NA,NA,NA,5,#FA92F8,#1CD855,0,0,1,38,1,341.20000000298023,37,1,357.29999999701977,0,1,experiment,NA,NA,1,0.7,0.3,2,3,288,7,NA
fcp-trial,324,1300759,0.0-299.0-0.0,voc_e2,12339,"[{""event"":""fullscreenenter"",""trial"":1,""time"":35733}]",NA,NA,NA,NA,NA,2,#D8271C,#741CD8,10,10,1,38,1,429,39,0,283.5,10,0,experiment,NA,NA,2,0.5,0.5,4,5,289,7,NA
fcp-trial,325,1302872,0.0-300.0-0.0,voc_e2,12339,"[{""event"":""fullscreenenter"",""trial"":1,""time"":35733}]",NA,NA,NA,NA,NA,1,#3386FF,#D89F1C,10,10,1,38,1,325.70000000298023,37,1,265,10,1,experiment,NA,NA,0,0.9,0.1,0,1,290,7,NA
fcp-trial,326,1305852,0.0-301.0-0.0,voc_e2,12339,"[{""event"":""fullscreenenter"",""trial"":1,""time"":35733}]",NA,NA,NA,NA,NA,6,#3386FF,#D89F1C,10,10,1,38,1,508.40000000596046,37,1,965.1000000089407,10,1,experiment,NA,NA,0,0.9,0.1,0,1,291,7,NA
fcp-trial,327,1308019,0.0-302.0-0.0,voc_e2,12339,"[{""event"":""fullscreenenter"",""trial"":1,""time"":35733}]",NA,NA,NA,NA,NA,6,#FA92F8,#1CD855,0,0,1,38,1,402.6000000089407,37,1,255.8999999910593,0,1,experiment,NA,NA,1,0.7,0.3,2,3,292,7,NA
fcp-trial,328,1310273,0.0-303.0-0.0,voc_e2,12339,"[{""event"":""fullscreenenter"",""trial"":1,""time"":35733}]",NA,NA,NA,NA,NA,1,#FA92F8,#1CD855,10,10,1,38,1,487.70000000298023,37,1,255.8999999910593,10,1,experiment,NA,NA,1,0.7,0.3,2,3,293,7,NA
fcp-trial,329,1313477,0.0-304.0-0.0,voc_e2,12339,"[{""event"":""fullscreenenter"",""trial"":1,""time"":35733}]",NA,NA,NA,NA,NA,6,#D8271C,#741CD8,0,0,1,38,1,997.4000000059605,39,0,696.7999999970198,0,0,experiment,NA,NA,2,0.5,0.5,4,5,294,7,NA
fcp-trial,330,1316152,0.0-305.0-0.0,voc_e2,12339,"[{""event"":""fullscreenenter"",""trial"":1,""time"":35733}]",NA,NA,NA,NA,NA,1,#D89F1C,#3386FF,0,10,0,38,1,589.2000000029802,39,0,564.2999999970198,10,1,experiment,NA,NA,0,0.1,0.9,1,0,295,7,NA
fcp-trial,331,1318917,0.0-306.0-0.0,voc_e2,12339,"[{""event"":""fullscreenenter"",""trial"":1,""time"":35733}]",NA,NA,NA,NA,NA,4,#FA92F8,#1CD855,0,0,1,38,1,794.4000000059605,37,1,462.5,0,1,experiment,NA,NA,1,0.7,0.3,2,3,296,7,NA
fcp-trial,332,1321366,0.0-307.0-0.0,voc_e2,12339,"[{""event"":""fullscreenenter"",""trial"":1,""time"":35733}]",NA,NA,NA,NA,NA,2,#FA92F8,#1CD855,10,0,1,38,1,525.9000000059605,37,1,415.5,10,1,experiment,NA,NA,1,0.7,0.3,2,3,297,7,NA
fcp-trial,333,1324004,0.0-308.0-0.0,voc_e2,12339,"[{""event"":""fullscreenenter"",""trial"":1,""time"":35733}]",NA,NA,NA,NA,NA,1,#FA92F8,#1CD855,10,0,1,38,1,860.2000000029802,37,1,268.1000000089407,10,1,experiment,NA,NA,1,0.7,0.3,2,3,298,7,NA
fcp-trial,334,1326166,0.0-309.0-0.0,voc_e2,12339,"[{""event"":""fullscreenenter"",""trial"":1,""time"":35733}]",NA,NA,NA,NA,NA,6,#3386FF,#D89F1C,10,0,1,38,1,358.70000000298023,37,1,293,10,1,experiment,NA,NA,0,0.9,0.1,0,1,299,7,NA
fcp-trial,335,1328994,0.0-310.0-0.0,voc_e2,12339,"[{""event"":""fullscreenenter"",""trial"":1,""time"":35733}]",NA,NA,NA,NA,NA,4,#3386FF,#D89F1C,10,0,1,38,1,579.2000000029802,37,1,740.0999999940395,10,1,experiment,NA,NA,0,0.9,0.1,0,1,300,7,NA
fcp-trial,336,1332138,0.0-311.0-0.0,voc_e2,12339,"[{""event"":""fullscreenenter"",""trial"":1,""time"":35733}]",NA,NA,NA,NA,NA,0,#1CD855,#FA92F8,0,10,0,38,1,897.2999999970198,39,0,727.2000000029802,10,1,experiment,NA,NA,1,0.3,0.7,3,2,301,7,NA
fcp-trial,337,1335472,0.0-312.0-0.0,voc_e2,12339,"[{""event"":""fullscreenenter"",""trial"":1,""time"":35733}]",NA,NA,NA,NA,NA,3,#741CD8,#D8271C,0,10,0,38,1,1475.0999999940395,37,1,351.29999999701977,0,0,experiment,NA,NA,2,0.5,0.5,5,4,302,7,NA
fcp-trial,338,1340735,0.0-313.0-0.0,voc_e2,12339,"[{""event"":""fullscreenenter"",""trial"":1,""time"":35733}]",NA,NA,NA,NA,NA,5,#D89F1C,#3386FF,0,10,0,38,1,3325.8999999910593,39,0,412.80000001192093,10,1,experiment,NA,NA,0,0.1,0.9,1,0,303,7,NA
fcp-trial,339,1343086,0.0-314.0-0.0,voc_e2,12339,"[{""event"":""fullscreenenter"",""trial"":1,""time"":35733}]",NA,NA,NA,NA,NA,3,#FA92F8,#1CD855,0,0,1,38,1,459,37,1,383.29999999701977,0,1,experiment,NA,NA,1,0.7,0.3,2,3,304,7,NA
fcp-trial,340,1346533,0.0-315.0-0.0,voc_e2,12339,"[{""event"":""fullscreenenter"",""trial"":1,""time"":35733}]",NA,NA,NA,NA,NA,2,#3386FF,#D89F1C,10,0,1,38,1,1258.7000000029802,37,1,679.8999999910593,10,1,experiment,NA,NA,0,0.9,0.1,0,1,305,7,NA
fcp-trial,341,1348740,0.0-316.0-0.0,voc_e2,12339,"[{""event"":""fullscreenenter"",""trial"":1,""time"":35733}]",NA,NA,NA,NA,NA,5,#D8271C,#741CD8,10,0,1,38,1,389.09999999403954,39,0,306.5,0,0,experiment,NA,NA,2,0.5,0.5,4,5,306,7,NA
fcp-trial,342,1350839,0.0-317.0-0.0,voc_e2,12339,"[{""event"":""fullscreenenter"",""trial"":1,""time"":35733}]",NA,NA,NA,NA,NA,0,#D8271C,#741CD8,10,10,1,38,1,289.29999999701977,39,0,287.29999999701977,10,0,experiment,NA,NA,2,0.5,0.5,4,5,307,7,NA
fcp-trial,343,1352917,0.0-318.0-0.0,voc_e2,12339,"[{""event"":""fullscreenenter"",""trial"":1,""time"":35733}]",NA,NA,NA,NA,NA,6,#1CD855,#FA92F8,10,10,0,38,1,244.79999999701977,39,0,313.8999999910593,10,1,experiment,NA,NA,1,0.3,0.7,3,2,308,7,NA
fcp-trial,344,1355150,0.0-319.0-0.0,voc_e2,12339,"[{""event"":""fullscreenenter"",""trial"":1,""time"":35733}]",NA,NA,NA,NA,NA,0,#D89F1C,#3386FF,0,10,0,38,1,444.09999999403954,39,0,281.1000000089407,10,1,experiment,NA,NA,0,0.1,0.9,1,0,309,7,NA
fcp-trial,345,1357202,0.0-320.0-0.0,voc_e2,12339,"[{""event"":""fullscreenenter"",""trial"":1,""time"":35733}]",NA,NA,NA,NA,NA,4,#D8271C,#741CD8,0,0,1,38,1,243.5,39,0,300.1000000089407,0,0,experiment,NA,NA,2,0.5,0.5,4,5,310,7,NA
fcp-trial,346,1359465,0.0-321.0-0.0,voc_e2,12339,"[{""event"":""fullscreenenter"",""trial"":1,""time"":35733}]",NA,NA,NA,NA,NA,6,#D8271C,#741CD8,0,10,1,38,1,307.70000000298023,39,0,447.1000000089407,10,0,experiment,NA,NA,2,0.5,0.5,4,5,311,7,NA
fcp-trial,347,1361463,0.0-322.0-0.0,voc_e2,12339,"[{""event"":""fullscreenenter"",""trial"":1,""time"":35733}]",NA,NA,NA,NA,NA,3,#3386FF,#D89F1C,10,0,1,38,1,201.1000000089407,37,1,286,10,1,experiment,NA,NA,0,0.9,0.1,0,1,312,7,NA
fcp-trial,348,1363588,0.0-323.0-0.0,voc_e2,12339,"[{""event"":""fullscreenenter"",""trial"":1,""time"":35733}]",NA,NA,NA,NA,NA,5,#FA92F8,#1CD855,10,10,1,38,1,337.29999999701977,37,1,279.20000000298023,10,1,experiment,NA,NA,1,0.7,0.3,2,3,313,7,NA
fcp-trial,349,1365967,0.0-324.0-0.0,voc_e2,12339,"[{""event"":""fullscreenenter"",""trial"":1,""time"":35733}]",NA,NA,NA,NA,NA,1,#D8271C,#741CD8,10,0,1,38,1,358.79999999701977,39,0,510.09999999403954,0,0,experiment,NA,NA,2,0.5,0.5,4,5,314,7,NA
fcp-trial,350,1368116,0.0-325.0-0.0,voc_e2,12339,"[{""event"":""fullscreenenter"",""trial"":1,""time"":35733}]",NA,NA,NA,NA,NA,2,#D8271C,#741CD8,10,10,1,38,1,366.20000000298023,39,0,274.8999999910593,10,0,experiment,NA,NA,2,0.5,0.5,4,5,315,7,NA
audio-instructions,351,1374930,0.0-326.0,voc_e2,12339,"[{""event"":""fullscreenenter"",""trial"":1,""time"":35733}]",NA,962.5,static/audio/finished.wav,NA,0,NA,NA,NA,NA,NA,NA,NA,NA,NA,NA,NA,NA,NA,NA,NA,NA,NA,NA,NA,NA,NA,NA,NA,NA,NA
audio-instructions,352,1388364,0.0-327.0-0.0,voc_e2,12339,"[{""event"":""fullscreenenter"",""trial"":1,""time"":35733}]",NA,2598.5,static/audio/explicit1.wav,NA,0,NA,NA,NA,NA,NA,NA,NA,NA,NA,NA,NA,NA,NA,NA,NA,NA,NA,NA,NA,NA,NA,NA,NA,NA,NA
audio-instructions,353,1396899,0.0-327.0-1.0,voc_e2,12339,"[{""event"":""fullscreenenter"",""trial"":1,""time"":35733}]",NA,936.3000000119208,static/audio/explicit2.wav,NA,0,NA,NA,NA,NA,NA,NA,NA,NA,NA,NA,NA,NA,NA,NA,NA,NA,NA,NA,NA,NA,NA,NA,NA,NA,NA
image-slider-response,354,1407433,0.0-328.0,voc_e2,12339,"[{""event"":""fullscreenenter"",""trial"":1,""time"":35733}]",NA,10526,static/img/machines/machine3.png,NA,NA,NA,NA,NA,NA,NA,NA,NA,NA,NA,NA,NA,NA,NA,NA,explicit,NA,NA,NA,NA,NA,NA,NA,NA,NA,6
image-slider-response,355,1415461,0.0-329.0,voc_e2,12339,"[{""event"":""fullscreenenter"",""trial"":1,""time"":35733}]",NA,8022.899999991059,static/img/machines/machine4.png,NA,NA,NA,NA,NA,NA,NA,NA,NA,NA,NA,NA,NA,NA,NA,NA,explicit,NA,NA,NA,NA,NA,NA,NA,NA,NA,1
image-slider-response,356,1417958,0.0-330.0,voc_e2,12339,"[{""event"":""fullscreenenter"",""trial"":1,""time"":35733}]",NA,2491.70000000298,static/img/machines/machine5.png,NA,NA,NA,NA,NA,NA,NA,NA,NA,NA,NA,NA,NA,NA,NA,NA,explicit,NA,NA,NA,NA,NA,NA,NA,NA,NA,5
image-slider-response,357,1422940,0.0-331.0,voc_e2,12339,"[{""event"":""fullscreenenter"",""trial"":1,""time"":35733}]",NA,4976.5999999940395,static/img/machines/machine1.png,NA,NA,NA,NA,NA,NA,NA,NA,NA,NA,NA,NA,NA,NA,NA,NA,explicit,NA,NA,NA,NA,NA,NA,NA,NA,NA,2
image-slider-response,358,1424614,0.0-332.0,voc_e2,12339,"[{""event"":""fullscreenenter"",""trial"":1,""time"":35733}]",NA,1668.6000000089407,static/img/machines/machine2.png,NA,NA,NA,NA,NA,NA,NA,NA,NA,NA,NA,NA,NA,NA,NA,NA,explicit,NA,NA,NA,NA,NA,NA,NA,NA,NA,5
image-slider-response,359,1429097,0.0-333.0,voc_e2,12339,"[{""event"":""fullscreenenter"",""trial"":1,""time"":35733}]",NA,4476,static/img/machines/machine6.png,NA,NA,NA,NA,NA,NA,NA,NA,NA,NA,NA,NA,NA,NA,NA,NA,explicit,NA,NA,NA,NA,NA,NA,NA,NA,NA,1
