trial_type,trial_index,time_elapsed,internal_node_id,task_version,subject_id,interactions,success,rt,stimulus,key_press,button_pressed,offer,arcade_color_L,arcade_color_R,arcade_outcome_L,arcade_outcome_R,correct,stage_1_key,stage_1_choice,stage_1_rt,stage_2_key,stage_2_choice,stage_2_rt,stage_3_outcome,accuracy,phase,responses,num_errors,context,reward_prob_L,reward_prob_R,arcade_id_L,arcade_id_R,trial,block,response
pavlovia,0,7,0.0-0.0,voc_e2,11917,[],NA,NA,NA,NA,NA,NA,NA,NA,NA,NA,NA,NA,NA,NA,NA,NA,NA,NA,NA,NA,NA,NA,NA,NA,NA,NA,NA,NA,NA,NA
fullscreen,1,4822,0.0-1.0,voc_e2,11917,"[{""event"":""fullscreenenter"",""trial"":1,""time"":3823}]",TRUE,NA,NA,NA,NA,NA,NA,NA,NA,NA,NA,NA,NA,NA,NA,NA,NA,NA,NA,NA,NA,NA,NA,NA,NA,NA,NA,NA,NA,NA
audio-keyboard-response,2,7612,0.0-2.0,voc_e2,11917,"[{""event"":""fullscreenenter"",""trial"":1,""time"":3823}]",NA,2771,static/audio/beep_loop.wav,32,NA,NA,NA,NA,NA,NA,NA,NA,NA,NA,NA,NA,NA,NA,NA,NA,NA,NA,NA,NA,NA,NA,NA,NA,NA,NA
audio-test,3,8969,0.0-3.0,voc_e2,11917,"[{""event"":""fullscreenenter"",""trial"":1,""time"":3823}]",NA,NA,static/audio/turtle.wav,NA,3,NA,NA,NA,NA,NA,NA,NA,NA,NA,NA,NA,NA,NA,NA,NA,NA,NA,NA,NA,NA,NA,NA,NA,NA,NA
audio-test,4,11299,0.0-4.0,voc_e2,11917,"[{""event"":""fullscreenenter"",""trial"":1,""time"":3823}]",NA,NA,static/audio/shark.wav,NA,2,NA,NA,NA,NA,NA,NA,NA,NA,NA,NA,NA,NA,NA,NA,NA,NA,NA,NA,NA,NA,NA,NA,NA,NA,NA
audio-instructions,5,17955,0.0-5.0-0.0,voc_e2,11917,"[{""event"":""fullscreenenter"",""trial"":1,""time"":3823}]",NA,854.0999999940395,static/audio/instructions1.wav,NA,0,NA,NA,NA,NA,NA,NA,NA,NA,NA,NA,NA,NA,NA,NA,NA,NA,NA,NA,NA,NA,NA,NA,NA,NA,NA
audio-instructions,6,26497,0.0-5.0-1.0,voc_e2,11917,"[{""event"":""fullscreenenter"",""trial"":1,""time"":3823}]",NA,1806.699999988079,static/audio/instructions2.wav,NA,0,NA,NA,NA,NA,NA,NA,NA,NA,NA,NA,NA,NA,NA,NA,NA,NA,NA,NA,NA,NA,NA,NA,NA,NA,NA
audio-instructions,7,33255,0.0-5.0-2.0,voc_e2,11917,"[{""event"":""fullscreenenter"",""trial"":1,""time"":3823}]",NA,954.3999999910592,static/audio/instructions3.wav,NA,0,NA,NA,NA,NA,NA,NA,NA,NA,NA,NA,NA,NA,NA,NA,NA,NA,NA,NA,NA,NA,NA,NA,NA,NA,NA
audio-instructions,8,47483,0.0-5.0-3.0,voc_e2,11917,"[{""event"":""fullscreenenter"",""trial"":1,""time"":3823}]",NA,1002.3999999910592,static/audio/instructions4.wav,NA,0,NA,NA,NA,NA,NA,NA,NA,NA,NA,NA,NA,NA,NA,NA,NA,NA,NA,NA,NA,NA,NA,NA,NA,NA,NA
audio-instructions,9,57451,0.0-5.0-4.0,voc_e2,11917,"[{""event"":""fullscreenenter"",""trial"":1,""time"":3823}]",NA,580.3999999910593,static/audio/instructions5.wav,NA,0,NA,NA,NA,NA,NA,NA,NA,NA,NA,NA,NA,NA,NA,NA,NA,NA,NA,NA,NA,NA,NA,NA,NA,NA,NA
fcp-practice,10,64705,0.0-5.0-5.0-0.0,voc_e2,11917,"[{""event"":""fullscreenenter"",""trial"":1,""time"":3823}]",NA,NA,NA,NA,NA,NA,#EDC948,#46d3c8,10,0,1,null,null,null,37,1,5745.0999999940395,10,1,practice,NA,NA,NA,NA,NA,NA,NA,NA,NA,NA
fcp-practice,11,66690,0.0-5.0-5.0-1.0,voc_e2,11917,"[{""event"":""fullscreenenter"",""trial"":1,""time"":3823}]",NA,NA,NA,NA,NA,NA,#EDC948,#46d3c8,10,0,1,null,null,null,37,1,478.79999999701977,10,1,practice,NA,NA,NA,NA,NA,NA,NA,NA,NA,NA
fcp-practice,12,68503,0.0-5.0-5.0-2.0,voc_e2,11917,"[{""event"":""fullscreenenter"",""trial"":1,""time"":3823}]",NA,NA,NA,NA,NA,NA,#EDC948,#46d3c8,0,10,1,null,null,null,37,1,301.29999999701977,0,1,practice,NA,NA,NA,NA,NA,NA,NA,NA,NA,NA
fcp-practice,13,70253,0.0-5.0-5.0-3.0,voc_e2,11917,"[{""event"":""fullscreenenter"",""trial"":1,""time"":3823}]",NA,NA,NA,NA,NA,NA,#EDC948,#46d3c8,10,0,1,null,null,null,37,1,230.70000000298023,10,1,practice,NA,NA,NA,NA,NA,NA,NA,NA,NA,NA
fcp-practice,14,72070,0.0-5.0-5.0-4.0,voc_e2,11917,"[{""event"":""fullscreenenter"",""trial"":1,""time"":3823}]",NA,NA,NA,NA,NA,NA,#EDC948,#46d3c8,10,0,1,null,null,null,37,1,304.09999999403954,10,1,practice,NA,NA,NA,NA,NA,NA,NA,NA,NA,NA
audio-instructions,15,93259,0.0-5.0-6.0,voc_e2,11917,"[{""event"":""fullscreenenter"",""trial"":1,""time"":3823}]",NA,3178.6000000089407,static/audio/instructions6.wav,NA,0,NA,NA,NA,NA,NA,NA,NA,NA,NA,NA,NA,NA,NA,NA,NA,NA,NA,NA,NA,NA,NA,NA,NA,NA,NA
audio-instructions,16,116453,0.0-5.0-7.0,voc_e2,11917,"[{""event"":""fullscreenenter"",""trial"":1,""time"":3823}]",NA,4002.5,static/audio/instructions7.wav,NA,0,NA,NA,NA,NA,NA,NA,NA,NA,NA,NA,NA,NA,NA,NA,NA,NA,NA,NA,NA,NA,NA,NA,NA,NA,NA
audio-instructions,17,126820,0.0-5.0-8.0,voc_e2,11917,"[{""event"":""fullscreenenter"",""trial"":1,""time"":3823}]",NA,890.5,static/audio/instructions8.wav,NA,0,NA,NA,NA,NA,NA,NA,NA,NA,NA,NA,NA,NA,NA,NA,NA,NA,NA,NA,NA,NA,NA,NA,NA,NA,NA
fcp-comprehension,18,136928,0.0-5.0-9.0,voc_e2,11917,"[{""event"":""fullscreenenter"",""trial"":1,""time"":3823}]",NA,10105.90000000596,NA,NA,NA,NA,NA,NA,NA,NA,NA,NA,NA,NA,NA,NA,NA,NA,NA,NA,"true,true",0,NA,NA,NA,NA,NA,NA,NA,NA
audio-instructions,19,142913,0.0-6.0-0.0,voc_e2,11917,"[{""event"":""fullscreenenter"",""trial"":1,""time"":3823}]",NA,432.20000000298023,static/audio/instructions9.wav,NA,0,NA,NA,NA,NA,NA,NA,NA,NA,NA,NA,NA,NA,NA,NA,NA,NA,NA,NA,NA,NA,NA,NA,NA,NA,NA
audio-instructions,20,155740,0.0-6.0-1.0,voc_e2,11917,"[{""event"":""fullscreenenter"",""trial"":1,""time"":3823}]",NA,710.1000000089407,static/audio/instructions10.wav,NA,0,NA,NA,NA,NA,NA,NA,NA,NA,NA,NA,NA,NA,NA,NA,NA,NA,NA,NA,NA,NA,NA,NA,NA,NA,NA
fcp-trial,21,160952,0.0-6.0-2.0,voc_e2,11917,"[{""event"":""fullscreenenter"",""trial"":1,""time"":3823}]",NA,NA,NA,NA,NA,0,#EDC948,#46d3c8,10,10,1,38,1,2747.5999999940395,39,0,949.5999999940396,10,0,practice,NA,NA,NA,NA,NA,NA,NA,NA,NA,NA
audio-instructions,22,172656,0.0-6.0-3.0,voc_e2,11917,"[{""event"":""fullscreenenter"",""trial"":1,""time"":3823}]",NA,696.5,static/audio/instructions11.wav,NA,0,NA,NA,NA,NA,NA,NA,NA,NA,NA,NA,NA,NA,NA,NA,NA,NA,NA,NA,NA,NA,NA,NA,NA,NA,NA
fcp-trial,23,177549,0.0-6.0-4.0,voc_e2,11917,"[{""event"":""fullscreenenter"",""trial"":1,""time"":3823}]",NA,NA,NA,NA,NA,6,#EDC948,#46d3c8,10,10,1,40,0,2326.4000000059605,37,1,1035.2999999970198,10,1,practice,NA,NA,NA,NA,NA,NA,NA,NA,NA,NA
audio-instructions,24,197249,0.0-6.0-5.0,voc_e2,11917,"[{""event"":""fullscreenenter"",""trial"":1,""time"":3823}]",NA,1008.2999999970198,static/audio/instructions12.wav,NA,0,NA,NA,NA,NA,NA,NA,NA,NA,NA,NA,NA,NA,NA,NA,NA,NA,NA,NA,NA,NA,NA,NA,NA,NA,NA
audio-instructions,25,205248,0.0-6.0-6.0,voc_e2,11917,"[{""event"":""fullscreenenter"",""trial"":1,""time"":3823}]",NA,398.29999999701977,static/audio/instructions13.wav,NA,0,NA,NA,NA,NA,NA,NA,NA,NA,NA,NA,NA,NA,NA,NA,NA,NA,NA,NA,NA,NA,NA,NA,NA,NA,NA
audio-instructions,26,214202,0.0-6.0-7.0,voc_e2,11917,"[{""event"":""fullscreenenter"",""trial"":1,""time"":3823}]",NA,512.5,static/audio/instructions14.wav,NA,0,NA,NA,NA,NA,NA,NA,NA,NA,NA,NA,NA,NA,NA,NA,NA,NA,NA,NA,NA,NA,NA,NA,NA,NA,NA
audio-instructions,27,221700,0.0-7.0-0.0,voc_e2,11917,"[{""event"":""fullscreenenter"",""trial"":1,""time"":3823}]",NA,580.3999999910593,static/audio/instructions15.wav,NA,0,NA,NA,NA,NA,NA,NA,NA,NA,NA,NA,NA,NA,NA,NA,NA,NA,NA,NA,NA,NA,NA,NA,NA,NA,NA
audio-instructions,28,228963,0.0-7.0-1.0,voc_e2,11917,"[{""event"":""fullscreenenter"",""trial"":1,""time"":3823}]",NA,432.29999999701977,static/audio/instructions16.wav,NA,0,NA,NA,NA,NA,NA,NA,NA,NA,NA,NA,NA,NA,NA,NA,NA,NA,NA,NA,NA,NA,NA,NA,NA,NA,NA
audio-instructions,29,237059,0.0-7.0-2.0,voc_e2,11917,"[{""event"":""fullscreenenter"",""trial"":1,""time"":3823}]",NA,418.29999999701977,static/audio/instructions17.wav,NA,0,NA,NA,NA,NA,NA,NA,NA,NA,NA,NA,NA,NA,NA,NA,NA,NA,NA,NA,NA,NA,NA,NA,NA,NA,NA
audio-instructions,30,245247,0.0-7.0-3.0,voc_e2,11917,"[{""event"":""fullscreenenter"",""trial"":1,""time"":3823}]",NA,426.29999999701977,static/audio/instructions18.wav,NA,0,NA,NA,NA,NA,NA,NA,NA,NA,NA,NA,NA,NA,NA,NA,NA,NA,NA,NA,NA,NA,NA,NA,NA,NA,NA
audio-instructions,31,252453,0.0-7.0-4.0,voc_e2,11917,"[{""event"":""fullscreenenter"",""trial"":1,""time"":3823}]",NA,472.40000000596046,static/audio/instructions19.wav,NA,0,NA,NA,NA,NA,NA,NA,NA,NA,NA,NA,NA,NA,NA,NA,NA,NA,NA,NA,NA,NA,NA,NA,NA,NA,NA
fcp-comprehension,32,264257,0.0-7.0-5.0,voc_e2,11917,"[{""event"":""fullscreenenter"",""trial"":1,""time"":3823}]",NA,11803.29999999702,NA,NA,NA,NA,NA,NA,NA,NA,NA,NA,NA,NA,NA,NA,NA,NA,NA,NA,"false,false,false,true",0,NA,NA,NA,NA,NA,NA,NA,NA
audio-instructions,33,274329,0.0-8.0,voc_e2,11917,"[{""event"":""fullscreenenter"",""trial"":1,""time"":3823}]",NA,858.2999999970198,static/audio/ready.wav,NA,0,NA,NA,NA,NA,NA,NA,NA,NA,NA,NA,NA,NA,NA,NA,NA,NA,NA,NA,NA,NA,NA,NA,NA,NA,NA
fcp-trial,34,279145,0.0-9.0-0.0,voc_e2,11917,"[{""event"":""fullscreenenter"",""trial"":1,""time"":3823}]",NA,NA,NA,NA,NA,1,#FA92F8,#1CD855,0,10,0,38,1,2381.5,39,0,924,10,1,experiment,NA,NA,2,0.5,0.5,5,4,1,1,NA
fcp-trial,35,282496,0.0-10.0-0.0,voc_e2,11917,"[{""event"":""fullscreenenter"",""trial"":1,""time"":3823}]",NA,NA,NA,NA,NA,2,#FA92F8,#1CD855,10,10,0,38,1,1259.7999999970198,39,0,581.6999999880791,10,1,experiment,NA,NA,2,0.5,0.5,5,4,2,1,NA
fcp-trial,36,285696,0.0-11.0-0.0,voc_e2,11917,"[{""event"":""fullscreenenter"",""trial"":1,""time"":3823}]",NA,NA,NA,NA,NA,0,#741CD8,#D8271C,0,10,0,38,1,1189.5999999940395,39,0,492.5,10,1,experiment,NA,NA,1,0.3,0.7,3,2,3,1,NA
fcp-trial,37,289029,0.0-12.0-0.0,voc_e2,11917,"[{""event"":""fullscreenenter"",""trial"":1,""time"":3823}]",NA,NA,NA,NA,NA,3,#741CD8,#D8271C,0,10,0,38,1,1197.7999999970198,39,0,603.2000000029802,10,1,experiment,NA,NA,1,0.3,0.7,3,2,4,1,NA
fcp-trial,38,292546,0.0-13.0-0.0,voc_e2,11917,"[{""event"":""fullscreenenter"",""trial"":1,""time"":3823}]",NA,NA,NA,NA,NA,4,#D89F1C,#3386FF,10,0,1,38,1,1312.7999999970198,39,0,687.2000000029802,0,0,experiment,NA,NA,0,0.9,0.1,0,1,5,1,NA
fcp-trial,39,296628,0.0-14.0-0.0,voc_e2,11917,"[{""event"":""fullscreenenter"",""trial"":1,""time"":3823}]",NA,NA,NA,NA,NA,6,#1CD855,#FA92F8,0,10,1,40,0,1380.5,39,0,1178.6000000089407,10,0,experiment,NA,NA,2,0.5,0.5,4,5,6,1,NA
fcp-trial,40,302811,0.0-15.0-0.0,voc_e2,11917,"[{""event"":""fullscreenenter"",""trial"":1,""time"":3823}]",NA,NA,NA,NA,NA,5,#3386FF,#D89F1C,0,0,0,40,0,3891.5,39,0,779.5,0,1,experiment,NA,NA,0,0.1,0.9,1,0,7,1,NA
fcp-trial,41,306728,0.0-16.0-0.0,voc_e2,11917,"[{""event"":""fullscreenenter"",""trial"":1,""time"":3823}]",NA,NA,NA,NA,NA,3,#D89F1C,#3386FF,0,0,1,38,1,1938.2999999970198,39,0,471.29999999701977,0,0,experiment,NA,NA,0,0.9,0.1,0,1,8,1,NA
fcp-trial,42,311447,0.0-17.0-0.0,voc_e2,11917,"[{""event"":""fullscreenenter"",""trial"":1,""time"":3823}]",NA,NA,NA,NA,NA,1,#D8271C,#741CD8,0,0,1,38,1,2269.2999999970198,37,1,942.5,0,1,experiment,NA,NA,1,0.7,0.3,2,3,9,1,NA
fcp-trial,43,314583,0.0-18.0-0.0,voc_e2,11917,"[{""event"":""fullscreenenter"",""trial"":1,""time"":3823}]",NA,NA,NA,NA,NA,0,#FA92F8,#1CD855,0,0,0,38,1,1120.4000000059605,39,0,510.1000000089407,0,1,experiment,NA,NA,2,0.5,0.5,5,4,10,1,NA
fcp-trial,44,317944,0.0-19.0-0.0,voc_e2,11917,"[{""event"":""fullscreenenter"",""trial"":1,""time"":3823}]",NA,NA,NA,NA,NA,1,#D89F1C,#3386FF,10,0,1,38,1,1247.5,39,0,606.8999999910593,0,0,experiment,NA,NA,0,0.9,0.1,0,1,11,1,NA
fcp-trial,45,321207,0.0-20.0-0.0,voc_e2,11917,"[{""event"":""fullscreenenter"",""trial"":1,""time"":3823}]",NA,NA,NA,NA,NA,6,#741CD8,#D8271C,0,0,0,38,1,965.7999999970198,37,1,789.9000000059605,0,0,experiment,NA,NA,1,0.3,0.7,3,2,12,1,NA
fcp-trial,46,325624,0.0-21.0-0.0,voc_e2,11917,"[{""event"":""fullscreenenter"",""trial"":1,""time"":3823}]",NA,NA,NA,NA,NA,5,#FA92F8,#1CD855,0,0,0,38,1,2383.7999999970198,39,0,526.4000000059605,0,1,experiment,NA,NA,2,0.5,0.5,5,4,13,1,NA
fcp-trial,47,329175,0.0-22.0-0.0,voc_e2,11917,"[{""event"":""fullscreenenter"",""trial"":1,""time"":3823}]",NA,NA,NA,NA,NA,5,#D8271C,#741CD8,10,0,1,40,0,1286.300000011921,37,1,759.5,10,1,experiment,NA,NA,1,0.7,0.3,2,3,14,1,NA
fcp-trial,48,332679,0.0-23.0-0.0,voc_e2,11917,"[{""event"":""fullscreenenter"",""trial"":1,""time"":3823}]",NA,NA,NA,NA,NA,0,#D89F1C,#3386FF,10,10,1,38,1,1206.6000000089407,39,0,785.9000000059605,10,0,experiment,NA,NA,0,0.9,0.1,0,1,15,1,NA
fcp-trial,49,335832,0.0-24.0-0.0,voc_e2,11917,"[{""event"":""fullscreenenter"",""trial"":1,""time"":3823}]",NA,NA,NA,NA,NA,6,#D89F1C,#3386FF,10,0,1,40,0,1175.5,37,1,469.5,10,1,experiment,NA,NA,0,0.9,0.1,0,1,16,1,NA
fcp-trial,50,339160,0.0-25.0-0.0,voc_e2,11917,"[{""event"":""fullscreenenter"",""trial"":1,""time"":3823}]",NA,NA,NA,NA,NA,4,#FA92F8,#1CD855,10,0,0,38,1,1280.4000000059605,39,0,543,0,1,experiment,NA,NA,2,0.5,0.5,5,4,17,1,NA
fcp-trial,51,343007,0.0-26.0-0.0,voc_e2,11917,"[{""event"":""fullscreenenter"",""trial"":1,""time"":3823}]",NA,NA,NA,NA,NA,2,#3386FF,#D89F1C,10,10,0,38,1,1854,37,1,487.20000000298023,10,0,experiment,NA,NA,0,0.1,0.9,1,0,18,1,NA
fcp-trial,52,346703,0.0-27.0-0.0,voc_e2,11917,"[{""event"":""fullscreenenter"",""trial"":1,""time"":3823}]",NA,NA,NA,NA,NA,4,#D8271C,#741CD8,10,0,1,38,1,1765.7999999970198,37,1,422.20000000298023,10,1,experiment,NA,NA,1,0.7,0.3,2,3,19,1,NA
fcp-trial,53,350472,0.0-28.0-0.0,voc_e2,11917,"[{""event"":""fullscreenenter"",""trial"":1,""time"":3823}]",NA,NA,NA,NA,NA,3,#FA92F8,#1CD855,10,10,0,38,1,1936,39,0,326.5,10,1,experiment,NA,NA,2,0.5,0.5,5,4,20,1,NA
fcp-trial,54,353551,0.0-29.0-0.0,voc_e2,11917,"[{""event"":""fullscreenenter"",""trial"":1,""time"":3823}]",NA,NA,NA,NA,NA,2,#D8271C,#741CD8,10,0,1,38,1,1102.5,39,0,470.70000000298023,0,0,experiment,NA,NA,1,0.7,0.3,2,3,21,1,NA
fcp-trial,55,356759,0.0-30.0-0.0,voc_e2,11917,"[{""event"":""fullscreenenter"",""trial"":1,""time"":3823}]",NA,NA,NA,NA,NA,5,#D8271C,#741CD8,10,0,1,38,1,927,37,1,775.1000000089407,10,1,experiment,NA,NA,1,0.7,0.3,2,3,22,1,NA
fcp-trial,56,359614,0.0-31.0-0.0,voc_e2,11917,"[{""event"":""fullscreenenter"",""trial"":1,""time"":3823}]",NA,NA,NA,NA,NA,4,#FA92F8,#1CD855,0,0,0,38,1,928.7000000029802,39,0,422.6000000089407,0,1,experiment,NA,NA,2,0.5,0.5,5,4,23,1,NA
fcp-trial,57,362767,0.0-32.0-0.0,voc_e2,11917,"[{""event"":""fullscreenenter"",""trial"":1,""time"":3823}]",NA,NA,NA,NA,NA,5,#D89F1C,#3386FF,10,0,1,40,0,1175.3999999910593,37,1,471.79999999701977,10,1,experiment,NA,NA,0,0.9,0.1,0,1,24,1,NA
fcp-trial,58,365623,0.0-33.0-0.0,voc_e2,11917,"[{""event"":""fullscreenenter"",""trial"":1,""time"":3823}]",NA,NA,NA,NA,NA,2,#741CD8,#D8271C,0,10,0,38,1,878.3999999910593,39,0,470.29999999701977,10,1,experiment,NA,NA,1,0.3,0.7,3,2,25,1,NA
fcp-trial,59,368630,0.0-34.0-0.0,voc_e2,11917,"[{""event"":""fullscreenenter"",""trial"":1,""time"":3823}]",NA,NA,NA,NA,NA,0,#1CD855,#FA92F8,0,10,1,38,1,965.0999999940395,39,0,533.6000000089407,10,0,experiment,NA,NA,2,0.5,0.5,4,5,26,1,NA
fcp-trial,60,371455,0.0-35.0-0.0,voc_e2,11917,"[{""event"":""fullscreenenter"",""trial"":1,""time"":3823}]",NA,NA,NA,NA,NA,2,#1CD855,#FA92F8,0,10,1,38,1,991.8999999910593,39,0,326.5,10,0,experiment,NA,NA,2,0.5,0.5,4,5,27,1,NA
fcp-trial,61,375871,0.0-36.0-0.0,voc_e2,11917,"[{""event"":""fullscreenenter"",""trial"":1,""time"":3823}]",NA,NA,NA,NA,NA,2,#D89F1C,#3386FF,0,0,1,38,1,2400.6000000089407,37,1,510.70000000298023,0,1,experiment,NA,NA,0,0.9,0.1,0,1,28,1,NA
fcp-trial,62,378711,0.0-37.0-0.0,voc_e2,11917,"[{""event"":""fullscreenenter"",""trial"":1,""time"":3823}]",NA,NA,NA,NA,NA,3,#1CD855,#FA92F8,0,0,1,38,1,887.0999999940395,39,0,447,0,0,experiment,NA,NA,2,0.5,0.5,4,5,29,1,NA
fcp-trial,63,381863,0.0-38.0-0.0,voc_e2,11917,"[{""event"":""fullscreenenter"",""trial"":1,""time"":3823}]",NA,NA,NA,NA,NA,0,#D8271C,#741CD8,10,0,1,38,1,1175,37,1,469.20000000298023,10,1,experiment,NA,NA,1,0.7,0.3,2,3,30,1,NA
fcp-trial,64,385262,0.0-39.0-0.0,voc_e2,11917,"[{""event"":""fullscreenenter"",""trial"":1,""time"":3823}]",NA,NA,NA,NA,NA,5,#1CD855,#FA92F8,0,0,1,40,0,1399.2999999970198,37,1,495.20000000298023,0,1,experiment,NA,NA,2,0.5,0.5,4,5,31,1,NA
fcp-trial,65,389046,0.0-40.0-0.0,voc_e2,11917,"[{""event"":""fullscreenenter"",""trial"":1,""time"":3823}]",NA,NA,NA,NA,NA,6,#3386FF,#D89F1C,0,10,0,40,0,1815.5999999940395,39,0,462.79999999701977,10,1,experiment,NA,NA,0,0.1,0.9,1,0,32,1,NA
fcp-trial,66,392270,0.0-41.0-0.0,voc_e2,11917,"[{""event"":""fullscreenenter"",""trial"":1,""time"":3823}]",NA,NA,NA,NA,NA,1,#3386FF,#D89F1C,0,10,0,38,1,1335.7000000029802,39,0,383.09999999403954,10,1,experiment,NA,NA,0,0.1,0.9,1,0,33,1,NA
fcp-trial,67,395327,0.0-42.0-0.0,voc_e2,11917,"[{""event"":""fullscreenenter"",""trial"":1,""time"":3823}]",NA,NA,NA,NA,NA,1,#FA92F8,#1CD855,0,0,0,38,1,959.6000000089407,39,0,591.2000000029802,0,1,experiment,NA,NA,2,0.5,0.5,5,4,34,1,NA
fcp-trial,68,398487,0.0-43.0-0.0,voc_e2,11917,"[{""event"":""fullscreenenter"",""trial"":1,""time"":3823}]",NA,NA,NA,NA,NA,6,#D8271C,#741CD8,10,0,1,40,0,1222.9000000059605,37,1,431,10,1,experiment,NA,NA,1,0.7,0.3,2,3,35,1,NA
fcp-trial,69,401808,0.0-44.0-0.0,voc_e2,11917,"[{""event"":""fullscreenenter"",""trial"":1,""time"":3823}]",NA,NA,NA,NA,NA,4,#D89F1C,#3386FF,10,0,1,40,0,1357.5,39,0,455.09999999403954,0,0,experiment,NA,NA,0,0.9,0.1,0,1,36,1,NA
fcp-trial,70,405503,0.0-45.0-0.0,voc_e2,11917,"[{""event"":""fullscreenenter"",""trial"":1,""time"":3823}]",NA,NA,NA,NA,NA,1,#741CD8,#D8271C,10,10,0,38,1,1862.9000000059605,39,0,326.29999999701977,10,1,experiment,NA,NA,1,0.3,0.7,3,2,37,1,NA
fcp-trial,71,408831,0.0-46.0-0.0,voc_e2,11917,"[{""event"":""fullscreenenter"",""trial"":1,""time"":3823}]",NA,NA,NA,NA,NA,6,#FA92F8,#1CD855,10,10,0,40,0,1407.2999999970198,39,0,415.20000000298023,10,1,experiment,NA,NA,2,0.5,0.5,5,4,38,1,NA
fcp-trial,72,411711,0.0-47.0-0.0,voc_e2,11917,"[{""event"":""fullscreenenter"",""trial"":1,""time"":3823}]",NA,NA,NA,NA,NA,3,#D8271C,#741CD8,10,10,1,38,1,1102.7000000029802,37,1,270.90000000596046,10,1,experiment,NA,NA,1,0.7,0.3,2,3,39,1,NA
fcp-trial,73,415558,0.0-48.0-0.0,voc_e2,11917,"[{""event"":""fullscreenenter"",""trial"":1,""time"":3823}]",NA,NA,NA,NA,NA,0,#D89F1C,#3386FF,10,0,1,38,1,966.7000000029802,39,0,1375,0,0,experiment,NA,NA,0,0.9,0.1,0,1,40,1,NA
fcp-trial,74,419217,0.0-49.0-0.0,voc_e2,11917,"[{""event"":""fullscreenenter"",""trial"":1,""time"":3823}]",NA,NA,NA,NA,NA,4,#D8271C,#741CD8,0,0,1,40,0,1711.5999999940395,39,0,439.1000000089407,0,0,experiment,NA,NA,1,0.7,0.3,2,3,41,1,NA
fcp-trial,75,422264,0.0-50.0-0.0,voc_e2,11917,"[{""event"":""fullscreenenter"",""trial"":1,""time"":3823}]",NA,NA,NA,NA,NA,3,#3386FF,#D89F1C,0,0,0,38,1,1158.3999999910593,37,1,382.5,0,0,experiment,NA,NA,0,0.1,0.9,1,0,42,1,NA
fcp-trial,76,425927,0.0-51.0-0.0,voc_e2,11917,"[{""event"":""fullscreenenter"",""trial"":1,""time"":3823}]",NA,NA,NA,NA,NA,4,#741CD8,#D8271C,10,0,0,40,0,1350.5,37,1,806.2000000029802,10,0,experiment,NA,NA,1,0.3,0.7,3,2,43,1,NA
fcp-trial,77,429063,0.0-52.0-0.0,voc_e2,11917,"[{""event"":""fullscreenenter"",""trial"":1,""time"":3823}]",NA,NA,NA,NA,NA,4,#1CD855,#FA92F8,10,10,1,40,0,1192.1000000089407,39,0,438,10,0,experiment,NA,NA,2,0.5,0.5,4,5,44,1,NA
fcp-trial,78,431984,0.0-53.0-0.0,voc_e2,11917,"[{""event"":""fullscreenenter"",""trial"":1,""time"":3823}]",NA,NA,NA,NA,NA,2,#D8271C,#741CD8,10,10,1,38,1,847.9000000059605,37,1,566.3999999910593,10,1,experiment,NA,NA,1,0.7,0.3,2,3,45,1,NA
fcp-trial,79,435336,0.0-54.0-0.0,voc_e2,11917,"[{""event"":""fullscreenenter"",""trial"":1,""time"":3823}]",NA,NA,NA,NA,NA,6,#FA92F8,#1CD855,0,0,0,40,0,1398.5999999940395,39,0,446.8999999910593,0,1,experiment,NA,NA,2,0.5,0.5,5,4,46,2,NA
fcp-trial,80,439664,0.0-55.0-0.0,voc_e2,11917,"[{""event"":""fullscreenenter"",""trial"":1,""time"":3823}]",NA,NA,NA,NA,NA,0,#3386FF,#D89F1C,0,10,0,38,1,1518.2000000029802,39,0,1302.7000000029802,10,1,experiment,NA,NA,0,0.1,0.9,1,0,47,2,NA
fcp-trial,81,442656,0.0-56.0-0.0,voc_e2,11917,"[{""event"":""fullscreenenter"",""trial"":1,""time"":3823}]",NA,NA,NA,NA,NA,5,#3386FF,#D89F1C,0,10,0,40,0,1134.7000000029802,39,0,350.59999999403954,10,1,experiment,NA,NA,0,0.1,0.9,1,0,48,2,NA
fcp-trial,82,445360,0.0-57.0-0.0,voc_e2,11917,"[{""event"":""fullscreenenter"",""trial"":1,""time"":3823}]",NA,NA,NA,NA,NA,0,#D8271C,#741CD8,10,10,1,38,1,886.1000000089407,37,1,311.6000000089407,10,1,experiment,NA,NA,1,0.7,0.3,2,3,49,2,NA
fcp-trial,83,449960,0.0-58.0-0.0,voc_e2,11917,"[{""event"":""fullscreenenter"",""trial"":1,""time"":3823}]",NA,NA,NA,NA,NA,3,#3386FF,#D89F1C,0,10,0,38,1,2670.2000000029802,39,0,423.5,10,1,experiment,NA,NA,0,0.1,0.9,1,0,50,2,NA
fcp-trial,84,453103,0.0-59.0-0.0,voc_e2,11917,"[{""event"":""fullscreenenter"",""trial"":1,""time"":3823}]",NA,NA,NA,NA,NA,1,#FA92F8,#1CD855,10,10,0,38,1,1294.5,37,1,343.09999999403954,10,0,experiment,NA,NA,2,0.5,0.5,5,4,51,2,NA
fcp-trial,85,455863,0.0-60.0-0.0,voc_e2,11917,"[{""event"":""fullscreenenter"",""trial"":1,""time"":3823}]",NA,NA,NA,NA,NA,5,#D8271C,#741CD8,10,10,1,38,1,894.1999999880791,37,1,358.70000000298023,10,1,experiment,NA,NA,1,0.7,0.3,2,3,52,2,NA
fcp-trial,86,459792,0.0-61.0-0.0,voc_e2,11917,"[{""event"":""fullscreenenter"",""trial"":1,""time"":3823}]",NA,NA,NA,NA,NA,3,#1CD855,#FA92F8,10,0,1,38,1,1959.5,39,0,463.199999988079,0,0,experiment,NA,NA,2,0.5,0.5,4,5,53,2,NA
fcp-trial,87,462895,0.0-62.0-0.0,voc_e2,11917,"[{""event"":""fullscreenenter"",""trial"":1,""time"":3823}]",NA,NA,NA,NA,NA,4,#D89F1C,#3386FF,0,10,1,40,0,1143.1000000089407,39,0,454.70000000298023,10,0,experiment,NA,NA,0,0.9,0.1,0,1,54,2,NA
fcp-trial,88,466135,0.0-63.0-0.0,voc_e2,11917,"[{""event"":""fullscreenenter"",""trial"":1,""time"":3823}]",NA,NA,NA,NA,NA,6,#D8271C,#741CD8,10,10,1,40,0,1278.7000000029802,39,0,454.90000000596046,10,0,experiment,NA,NA,1,0.7,0.3,2,3,55,2,NA
fcp-trial,89,470423,0.0-64.0-0.0,voc_e2,11917,"[{""event"":""fullscreenenter"",""trial"":1,""time"":3823}]",NA,NA,NA,NA,NA,2,#1CD855,#FA92F8,10,10,1,38,1,1765,39,0,1015.6000000089408,10,0,experiment,NA,NA,2,0.5,0.5,4,5,56,2,NA
fcp-trial,90,473415,0.0-65.0-0.0,voc_e2,11917,"[{""event"":""fullscreenenter"",""trial"":1,""time"":3823}]",NA,NA,NA,NA,NA,0,#FA92F8,#1CD855,10,0,0,38,1,1023.2000000029802,37,1,462.5,10,0,experiment,NA,NA,2,0.5,0.5,5,4,57,2,NA
fcp-trial,91,476127,0.0-66.0-0.0,voc_e2,11917,"[{""event"":""fullscreenenter"",""trial"":1,""time"":3823}]",NA,NA,NA,NA,NA,3,#D8271C,#741CD8,10,0,1,38,1,897,37,1,303.09999999403954,10,1,experiment,NA,NA,1,0.7,0.3,2,3,58,2,NA
fcp-trial,92,479085,0.0-67.0-0.0,voc_e2,11917,"[{""event"":""fullscreenenter"",""trial"":1,""time"":3823}]",NA,NA,NA,NA,NA,1,#D89F1C,#3386FF,10,0,1,38,1,1021.8999999910593,37,1,430.79999999701977,10,1,experiment,NA,NA,0,0.9,0.1,0,1,59,2,NA
fcp-trial,93,482422,0.0-68.0-0.0,voc_e2,11917,"[{""event"":""fullscreenenter"",""trial"":1,""time"":3823}]",NA,NA,NA,NA,NA,5,#FA92F8,#1CD855,10,10,0,40,0,1397.7000000029802,39,0,431.1000000089407,10,1,experiment,NA,NA,2,0.5,0.5,5,4,60,2,NA
fcp-trial,94,485382,0.0-69.0-0.0,voc_e2,11917,"[{""event"":""fullscreenenter"",""trial"":1,""time"":3823}]",NA,NA,NA,NA,NA,1,#D8271C,#741CD8,10,0,1,38,1,1166.8999999910593,37,1,286.29999999701977,10,1,experiment,NA,NA,1,0.7,0.3,2,3,61,2,NA
fcp-trial,95,488598,0.0-70.0-0.0,voc_e2,11917,"[{""event"":""fullscreenenter"",""trial"":1,""time"":3823}]",NA,NA,NA,NA,NA,6,#3386FF,#D89F1C,0,10,0,40,0,1374.9000000059605,39,0,335.79999999701977,10,1,experiment,NA,NA,0,0.1,0.9,1,0,62,2,NA
fcp-trial,96,491854,0.0-71.0-0.0,voc_e2,11917,"[{""event"":""fullscreenenter"",""trial"":1,""time"":3823}]",NA,NA,NA,NA,NA,2,#3386FF,#D89F1C,0,10,0,38,1,1417.7000000029802,39,0,335.69999998807907,10,1,experiment,NA,NA,0,0.1,0.9,1,0,63,2,NA
fcp-trial,97,494511,0.0-72.0-0.0,voc_e2,11917,"[{""event"":""fullscreenenter"",""trial"":1,""time"":3823}]",NA,NA,NA,NA,NA,6,#741CD8,#D8271C,0,0,0,38,1,798.7999999970198,39,0,350.5,0,1,experiment,NA,NA,1,0.3,0.7,3,2,64,2,NA
fcp-trial,98,497631,0.0-73.0-0.0,voc_e2,11917,"[{""event"":""fullscreenenter"",""trial"":1,""time"":3823}]",NA,NA,NA,NA,NA,1,#741CD8,#D8271C,0,0,0,38,1,1255.2000000029802,39,0,358.20000000298023,0,1,experiment,NA,NA,1,0.3,0.7,3,2,65,2,NA
fcp-trial,99,500510,0.0-74.0-0.0,voc_e2,11917,"[{""event"":""fullscreenenter"",""trial"":1,""time"":3823}]",NA,NA,NA,NA,NA,5,#D89F1C,#3386FF,10,0,1,40,0,886.2999999970198,39,0,487.3999999910593,0,0,experiment,NA,NA,0,0.9,0.1,0,1,66,2,NA
fcp-trial,100,503710,0.0-75.0-0.0,voc_e2,11917,"[{""event"":""fullscreenenter"",""trial"":1,""time"":3823}]",NA,NA,NA,NA,NA,5,#1CD855,#FA92F8,0,0,1,40,0,1207.0999999940395,37,1,487.6000000089407,0,1,experiment,NA,NA,2,0.5,0.5,4,5,67,2,NA
fcp-trial,101,507834,0.0-76.0-0.0,voc_e2,11917,"[{""event"":""fullscreenenter"",""trial"":1,""time"":3823}]",NA,NA,NA,NA,NA,3,#741CD8,#D8271C,0,10,0,38,1,2022.5999999940395,39,0,592.2999999970198,10,1,experiment,NA,NA,1,0.3,0.7,3,2,68,2,NA
fcp-trial,102,510503,0.0-77.0-0.0,voc_e2,11917,"[{""event"":""fullscreenenter"",""trial"":1,""time"":3823}]",NA,NA,NA,NA,NA,2,#741CD8,#D8271C,10,10,0,38,1,820.5,39,0,342.5,10,1,experiment,NA,NA,1,0.3,0.7,3,2,69,2,NA
fcp-trial,103,514319,0.0-78.0-0.0,voc_e2,11917,"[{""event"":""fullscreenenter"",""trial"":1,""time"":3823}]",NA,NA,NA,NA,NA,1,#3386FF,#D89F1C,0,0,0,38,1,1982.2000000029802,39,0,327.20000000298023,0,1,experiment,NA,NA,0,0.1,0.9,1,0,70,2,NA
fcp-trial,104,517950,0.0-79.0-0.0,voc_e2,11917,"[{""event"":""fullscreenenter"",""trial"":1,""time"":3823}]",NA,NA,NA,NA,NA,0,#1CD855,#FA92F8,10,0,1,38,1,1757.7999999970198,39,0,366.5,0,0,experiment,NA,NA,2,0.5,0.5,4,5,71,2,NA
fcp-trial,105,521143,0.0-80.0-0.0,voc_e2,11917,"[{""event"":""fullscreenenter"",""trial"":1,""time"":3823}]",NA,NA,NA,NA,NA,1,#FA92F8,#1CD855,10,0,0,38,1,1390.4000000059605,37,1,295,10,0,experiment,NA,NA,2,0.5,0.5,5,4,72,2,NA
fcp-trial,106,524566,0.0-81.0-0.0,voc_e2,11917,"[{""event"":""fullscreenenter"",""trial"":1,""time"":3823}]",NA,NA,NA,NA,NA,4,#FA92F8,#1CD855,10,10,0,40,0,1239,39,0,678.2999999970198,10,1,experiment,NA,NA,2,0.5,0.5,5,4,73,2,NA
fcp-trial,107,527630,0.0-82.0-0.0,voc_e2,11917,"[{""event"":""fullscreenenter"",""trial"":1,""time"":3823}]",NA,NA,NA,NA,NA,5,#741CD8,#D8271C,0,10,0,40,0,1149,39,0,407.3999999910593,10,1,experiment,NA,NA,1,0.3,0.7,3,2,74,2,NA
fcp-trial,108,530742,0.0-83.0-0.0,voc_e2,11917,"[{""event"":""fullscreenenter"",""trial"":1,""time"":3823}]",NA,NA,NA,NA,NA,6,#3386FF,#D89F1C,0,10,0,40,0,1215.9000000059605,39,0,391.09999999403954,10,1,experiment,NA,NA,0,0.1,0.9,1,0,75,2,NA
fcp-trial,109,533614,0.0-84.0-0.0,voc_e2,11917,"[{""event"":""fullscreenenter"",""trial"":1,""time"":3823}]",NA,NA,NA,NA,NA,4,#3386FF,#D89F1C,0,10,0,40,0,887.2999999970198,37,1,479.79999999701977,0,0,experiment,NA,NA,0,0.1,0.9,1,0,76,2,NA
fcp-trial,110,537175,0.0-85.0-0.0,voc_e2,11917,"[{""event"":""fullscreenenter"",""trial"":1,""time"":3823}]",NA,NA,NA,NA,NA,3,#FA92F8,#1CD855,10,0,0,38,1,1726.7000000029802,39,0,327.09999999403954,0,1,experiment,NA,NA,2,0.5,0.5,5,4,77,2,NA
fcp-trial,111,540143,0.0-86.0-0.0,voc_e2,11917,"[{""event"":""fullscreenenter"",""trial"":1,""time"":3823}]",NA,NA,NA,NA,NA,4,#D8271C,#741CD8,10,0,1,40,0,1007,39,0,455.3999999910593,0,0,experiment,NA,NA,1,0.7,0.3,2,3,78,2,NA
fcp-trial,112,544382,0.0-87.0-0.0,voc_e2,11917,"[{""event"":""fullscreenenter"",""trial"":1,""time"":3823}]",NA,NA,NA,NA,NA,0,#3386FF,#D89F1C,0,10,0,38,1,2383.2999999970198,39,0,350,10,1,experiment,NA,NA,0,0.1,0.9,1,0,79,2,NA
fcp-trial,113,547735,0.0-88.0-0.0,voc_e2,11917,"[{""event"":""fullscreenenter"",""trial"":1,""time"":3823}]",NA,NA,NA,NA,NA,2,#D89F1C,#3386FF,10,0,1,38,1,1543.7000000029802,37,1,303.29999999701977,10,1,experiment,NA,NA,0,0.9,0.1,0,1,80,2,NA
fcp-trial,114,550622,0.0-89.0-0.0,voc_e2,11917,"[{""event"":""fullscreenenter"",""trial"":1,""time"":3823}]",NA,NA,NA,NA,NA,0,#741CD8,#D8271C,10,10,0,38,1,1086.2000000029802,39,0,295.29999999701977,10,1,experiment,NA,NA,1,0.3,0.7,3,2,81,2,NA
fcp-trial,115,553462,0.0-90.0-0.0,voc_e2,11917,"[{""event"":""fullscreenenter"",""trial"":1,""time"":3823}]",NA,NA,NA,NA,NA,6,#FA92F8,#1CD855,10,10,0,40,0,951.8000000119209,39,0,382.20000000298023,10,1,experiment,NA,NA,2,0.5,0.5,5,4,82,2,NA
fcp-trial,116,556455,0.0-91.0-0.0,voc_e2,11917,"[{""event"":""fullscreenenter"",""trial"":1,""time"":3823}]",NA,NA,NA,NA,NA,3,#D89F1C,#3386FF,0,0,1,38,1,1199.7999999970198,37,1,284.90000000596046,0,1,experiment,NA,NA,0,0.9,0.1,0,1,83,2,NA
fcp-trial,117,559590,0.0-92.0-0.0,voc_e2,11917,"[{""event"":""fullscreenenter"",""trial"":1,""time"":3823}]",NA,NA,NA,NA,NA,2,#1CD855,#FA92F8,0,0,1,38,1,1030.7999999970198,39,0,598.7999999970198,0,0,experiment,NA,NA,2,0.5,0.5,4,5,84,2,NA
fcp-trial,118,562646,0.0-93.0-0.0,voc_e2,11917,"[{""event"":""fullscreenenter"",""trial"":1,""time"":3823}]",NA,NA,NA,NA,NA,0,#D8271C,#741CD8,0,0,1,38,1,959,37,1,590.6000000089407,0,1,experiment,NA,NA,1,0.7,0.3,2,3,85,2,NA
fcp-trial,119,566038,0.0-94.0-0.0,voc_e2,11917,"[{""event"":""fullscreenenter"",""trial"":1,""time"":3823}]",NA,NA,NA,NA,NA,4,#1CD855,#FA92F8,0,0,1,40,0,1431.2999999970198,39,0,455.5,0,0,experiment,NA,NA,2,0.5,0.5,4,5,86,2,NA
fcp-trial,120,569432,0.0-95.0-0.0,voc_e2,11917,"[{""event"":""fullscreenenter"",""trial"":1,""time"":3823}]",NA,NA,NA,NA,NA,2,#D89F1C,#3386FF,10,0,1,38,1,1441.5,37,1,447.20000000298023,10,1,experiment,NA,NA,0,0.9,0.1,0,1,87,2,NA
fcp-trial,121,572512,0.0-96.0-0.0,voc_e2,11917,"[{""event"":""fullscreenenter"",""trial"":1,""time"":3823}]",NA,NA,NA,NA,NA,3,#D8271C,#741CD8,10,10,1,38,1,1268.1000000089407,37,1,303.40000000596046,10,1,experiment,NA,NA,1,0.7,0.3,2,3,88,2,NA
fcp-trial,122,575414,0.0-97.0-0.0,voc_e2,11917,"[{""event"":""fullscreenenter"",""trial"":1,""time"":3823}]",NA,NA,NA,NA,NA,1,#3386FF,#D89F1C,0,10,0,38,1,1141.7999999970198,39,0,255.0999999940395,10,1,experiment,NA,NA,0,0.1,0.9,1,0,89,2,NA
fcp-trial,123,578302,0.0-98.0-0.0,voc_e2,11917,"[{""event"":""fullscreenenter"",""trial"":1,""time"":3823}]",NA,NA,NA,NA,NA,0,#FA92F8,#1CD855,10,10,0,38,1,949.5,37,1,431,10,0,experiment,NA,NA,2,0.5,0.5,5,4,90,2,NA
fcp-trial,124,581759,0.0-99.0-0.0,voc_e2,11917,"[{""event"":""fullscreenenter"",""trial"":1,""time"":3823}]",NA,NA,NA,NA,NA,5,#741CD8,#D8271C,0,10,0,40,0,1494.5,37,1,456,0,0,experiment,NA,NA,1,0.3,0.7,3,2,91,3,NA
fcp-trial,125,584983,0.0-100.0-0.0,voc_e2,11917,"[{""event"":""fullscreenenter"",""trial"":1,""time"":3823}]",NA,NA,NA,NA,NA,2,#D8271C,#741CD8,10,10,1,38,1,1270.5,37,1,446.29999999701977,10,1,experiment,NA,NA,1,0.7,0.3,2,3,92,3,NA
fcp-trial,126,588367,0.0-101.0-0.0,voc_e2,11917,"[{""event"":""fullscreenenter"",""trial"":1,""time"":3823}]",NA,NA,NA,NA,NA,3,#1CD855,#FA92F8,0,10,1,38,1,1078.3999999910593,39,0,797.8999999910593,10,0,experiment,NA,NA,2,0.5,0.5,4,5,93,3,NA
fcp-trial,127,591895,0.0-102.0-0.0,voc_e2,11917,"[{""event"":""fullscreenenter"",""trial"":1,""time"":3823}]",NA,NA,NA,NA,NA,3,#3386FF,#D89F1C,0,10,0,38,1,829.8999999910593,39,0,1190.7999999970198,10,1,experiment,NA,NA,0,0.1,0.9,1,0,94,3,NA
fcp-trial,128,594862,0.0-103.0-0.0,voc_e2,11917,"[{""event"":""fullscreenenter"",""trial"":1,""time"":3823}]",NA,NA,NA,NA,NA,1,#1CD855,#FA92F8,10,0,1,38,1,1070,39,0,390.59999999403954,0,0,experiment,NA,NA,2,0.5,0.5,4,5,95,3,NA
fcp-trial,129,598302,0.0-104.0-0.0,voc_e2,11917,"[{""event"":""fullscreenenter"",""trial"":1,""time"":3823}]",NA,NA,NA,NA,NA,5,#D89F1C,#3386FF,10,0,1,40,0,1416,37,1,518,10,1,experiment,NA,NA,0,0.9,0.1,0,1,96,3,NA
fcp-trial,130,601216,0.0-105.0-0.0,voc_e2,11917,"[{""event"":""fullscreenenter"",""trial"":1,""time"":3823}]",NA,NA,NA,NA,NA,1,#D8271C,#741CD8,10,0,1,38,1,1151.6000000089407,37,1,255.29999999701977,10,1,experiment,NA,NA,1,0.7,0.3,2,3,97,3,NA
fcp-trial,131,604446,0.0-106.0-0.0,voc_e2,11917,"[{""event"":""fullscreenenter"",""trial"":1,""time"":3823}]",NA,NA,NA,NA,NA,4,#3386FF,#D89F1C,0,10,0,40,0,1317.5999999940395,39,0,407,10,1,experiment,NA,NA,0,0.1,0.9,1,0,98,3,NA
fcp-trial,132,607519,0.0-107.0-0.0,voc_e2,11917,"[{""event"":""fullscreenenter"",""trial"":1,""time"":3823}]",NA,NA,NA,NA,NA,5,#FA92F8,#1CD855,0,0,0,40,0,1191.2999999970198,37,1,374.70000000298023,0,0,experiment,NA,NA,2,0.5,0.5,5,4,99,3,NA
fcp-trial,133,610838,0.0-108.0-0.0,voc_e2,11917,"[{""event"":""fullscreenenter"",""trial"":1,""time"":3823}]",NA,NA,NA,NA,NA,0,#3386FF,#D89F1C,0,10,0,38,1,1381.8999999910593,39,0,430.5,10,1,experiment,NA,NA,0,0.1,0.9,1,0,100,3,NA
fcp-trial,134,613766,0.0-109.0-0.0,voc_e2,11917,"[{""event"":""fullscreenenter"",""trial"":1,""time"":3823}]",NA,NA,NA,NA,NA,6,#D89F1C,#3386FF,10,0,1,40,0,966.9000000059605,39,0,447.09999999403954,0,0,experiment,NA,NA,0,0.9,0.1,0,1,101,3,NA
fcp-trial,135,616779,0.0-110.0-0.0,voc_e2,11917,"[{""event"":""fullscreenenter"",""trial"":1,""time"":3823}]",NA,NA,NA,NA,NA,6,#D8271C,#741CD8,0,10,1,40,0,1095.7999999970198,39,0,412.3999999910593,10,0,experiment,NA,NA,1,0.7,0.3,2,3,102,3,NA
fcp-trial,136,620279,0.0-111.0-0.0,voc_e2,11917,"[{""event"":""fullscreenenter"",""trial"":1,""time"":3823}]",NA,NA,NA,NA,NA,2,#FA92F8,#1CD855,10,10,0,38,1,1648,37,1,344,10,0,experiment,NA,NA,2,0.5,0.5,5,4,103,3,NA
fcp-trial,137,623190,0.0-112.0-0.0,voc_e2,11917,"[{""event"":""fullscreenenter"",""trial"":1,""time"":3823}]",NA,NA,NA,NA,NA,6,#FA92F8,#1CD855,10,0,0,40,0,1045.6000000089407,37,1,359.40000000596046,10,0,experiment,NA,NA,2,0.5,0.5,5,4,104,3,NA
fcp-trial,138,626294,0.0-113.0-0.0,voc_e2,11917,"[{""event"":""fullscreenenter"",""trial"":1,""time"":3823}]",NA,NA,NA,NA,NA,4,#D8271C,#741CD8,10,0,1,40,0,1206.7999999970198,39,0,391.40000000596046,0,0,experiment,NA,NA,1,0.7,0.3,2,3,105,3,NA
audio-instructions,139,631583,0.0-114.0,voc_e2,11917,"[{""event"":""fullscreenenter"",""trial"":1,""time"":3823}]",NA,810.8000000119209,static/audio/pause.wav,NA,0,NA,NA,NA,NA,NA,NA,NA,NA,NA,NA,NA,NA,NA,NA,NA,NA,NA,NA,NA,NA,NA,NA,NA,NA,NA
fcp-trial,140,634748,0.0-115.0-0.0,voc_e2,11917,"[{""event"":""fullscreenenter"",""trial"":1,""time"":3823}]",NA,NA,NA,NA,NA,0,#FA92F8,#1CD855,10,10,0,38,1,1343.1000000089407,37,1,301.29999999701977,10,0,experiment,NA,NA,2,0.5,0.5,5,4,106,3,NA
fcp-trial,141,637815,0.0-116.0-0.0,voc_e2,11917,"[{""event"":""fullscreenenter"",""trial"":1,""time"":3823}]",NA,NA,NA,NA,NA,1,#741CD8,#D8271C,0,10,0,38,1,880.7999999970198,39,0,673.5999999940395,10,1,experiment,NA,NA,1,0.3,0.7,3,2,107,3,NA
fcp-trial,142,640513,0.0-117.0-0.0,voc_e2,11917,"[{""event"":""fullscreenenter"",""trial"":1,""time"":3823}]",NA,NA,NA,NA,NA,2,#D89F1C,#3386FF,10,0,1,38,1,885.7000000029802,37,1,288.20000000298023,10,1,experiment,NA,NA,0,0.9,0.1,0,1,108,3,NA
fcp-trial,143,643163,0.0-118.0-0.0,voc_e2,11917,"[{""event"":""fullscreenenter"",""trial"":1,""time"":3823}]",NA,NA,NA,NA,NA,6,#D89F1C,#3386FF,10,0,1,38,1,730.5999999940395,37,1,386.5,10,1,experiment,NA,NA,0,0.9,0.1,0,1,109,3,NA
fcp-trial,144,646014,0.0-119.0-0.0,voc_e2,11917,"[{""event"":""fullscreenenter"",""trial"":1,""time"":3823}]",NA,NA,NA,NA,NA,3,#1CD855,#FA92F8,0,10,1,38,1,936.7000000029802,39,0,392.300000011921,10,0,experiment,NA,NA,2,0.5,0.5,4,5,110,3,NA
fcp-trial,145,649246,0.0-120.0-0.0,voc_e2,11917,"[{""event"":""fullscreenenter"",""trial"":1,""time"":3823}]",NA,NA,NA,NA,NA,6,#741CD8,#D8271C,0,10,0,40,0,1206.5999999940395,37,1,507.8999999910593,0,0,experiment,NA,NA,1,0.3,0.7,3,2,111,3,NA
fcp-trial,146,652631,0.0-121.0-0.0,voc_e2,11917,"[{""event"":""fullscreenenter"",""trial"":1,""time"":3823}]",NA,NA,NA,NA,NA,4,#D89F1C,#3386FF,10,0,1,38,1,1213.7000000029802,37,1,650.0999999940395,10,1,experiment,NA,NA,0,0.9,0.1,0,1,112,3,NA
fcp-trial,147,655530,0.0-122.0-0.0,voc_e2,11917,"[{""event"":""fullscreenenter"",""trial"":1,""time"":3823}]",NA,NA,NA,NA,NA,0,#741CD8,#D8271C,0,0,0,38,1,1046.6000000089407,39,0,334.6000000089407,0,1,experiment,NA,NA,1,0.3,0.7,3,2,113,3,NA
fcp-trial,148,658881,0.0-123.0-0.0,voc_e2,11917,"[{""event"":""fullscreenenter"",""trial"":1,""time"":3823}]",NA,NA,NA,NA,NA,4,#FA92F8,#1CD855,10,10,0,38,1,1538.6000000089407,37,1,290.09999999403954,10,0,experiment,NA,NA,2,0.5,0.5,5,4,114,3,NA
fcp-trial,149,661463,0.0-124.0-0.0,voc_e2,11917,"[{""event"":""fullscreenenter"",""trial"":1,""time"":3823}]",NA,NA,NA,NA,NA,0,#D89F1C,#3386FF,10,0,1,38,1,771.2999999970198,37,1,299.29999999701977,10,1,experiment,NA,NA,0,0.9,0.1,0,1,115,3,NA
fcp-trial,150,664254,0.0-125.0-0.0,voc_e2,11917,"[{""event"":""fullscreenenter"",""trial"":1,""time"":3823}]",NA,NA,NA,NA,NA,1,#1CD855,#FA92F8,10,0,1,38,1,934.2000000029802,39,0,350.59999999403954,0,0,experiment,NA,NA,2,0.5,0.5,4,5,116,3,NA
fcp-trial,151,667334,0.0-126.0-0.0,voc_e2,11917,"[{""event"":""fullscreenenter"",""trial"":1,""time"":3823}]",NA,NA,NA,NA,NA,3,#D8271C,#741CD8,10,0,1,38,1,1256,37,1,318.40000000596046,10,1,experiment,NA,NA,1,0.7,0.3,2,3,117,3,NA
fcp-trial,152,670400,0.0-127.0-0.0,voc_e2,11917,"[{""event"":""fullscreenenter"",""trial"":1,""time"":3823}]",NA,NA,NA,NA,NA,5,#741CD8,#D8271C,0,10,0,40,0,1208.7000000029802,39,0,350.5,10,1,experiment,NA,NA,1,0.3,0.7,3,2,118,3,NA
fcp-trial,153,673271,0.0-128.0-0.0,voc_e2,11917,"[{""event"":""fullscreenenter"",""trial"":1,""time"":3823}]",NA,NA,NA,NA,NA,6,#FA92F8,#1CD855,0,0,0,40,0,1078.0999999940395,37,1,287.70000000298023,0,0,experiment,NA,NA,2,0.5,0.5,5,4,119,3,NA
fcp-trial,154,677343,0.0-129.0-0.0,voc_e2,11917,"[{""event"":""fullscreenenter"",""trial"":1,""time"":3823}]",NA,NA,NA,NA,NA,3,#3386FF,#D89F1C,0,10,0,38,1,1846.5,39,0,718.9000000059605,10,1,experiment,NA,NA,0,0.1,0.9,1,0,120,3,NA
fcp-trial,155,680182,0.0-130.0-0.0,voc_e2,11917,"[{""event"":""fullscreenenter"",""trial"":1,""time"":3823}]",NA,NA,NA,NA,NA,2,#1CD855,#FA92F8,0,10,1,38,1,966.2999999970198,39,0,367.29999999701977,10,0,experiment,NA,NA,2,0.5,0.5,4,5,121,3,NA
fcp-trial,156,683280,0.0-131.0-0.0,voc_e2,11917,"[{""event"":""fullscreenenter"",""trial"":1,""time"":3823}]",NA,NA,NA,NA,NA,5,#1CD855,#FA92F8,0,10,1,40,0,1120,37,1,471.29999999701977,0,1,experiment,NA,NA,2,0.5,0.5,4,5,122,3,NA
fcp-trial,157,686111,0.0-132.0-0.0,voc_e2,11917,"[{""event"":""fullscreenenter"",""trial"":1,""time"":3823}]",NA,NA,NA,NA,NA,2,#741CD8,#D8271C,0,10,0,38,1,958.5999999940395,39,0,366.699999988079,10,1,experiment,NA,NA,1,0.3,0.7,3,2,123,3,NA
fcp-trial,158,689463,0.0-133.0-0.0,voc_e2,11917,"[{""event"":""fullscreenenter"",""trial"":1,""time"":3823}]",NA,NA,NA,NA,NA,5,#D89F1C,#3386FF,10,0,1,40,0,1438.2000000029802,39,0,406.59999999403954,0,0,experiment,NA,NA,0,0.9,0.1,0,1,124,3,NA
fcp-trial,159,692431,0.0-134.0-0.0,voc_e2,11917,"[{""event"":""fullscreenenter"",""trial"":1,""time"":3823}]",NA,NA,NA,NA,NA,4,#D8271C,#741CD8,10,0,1,38,1,1142.2999999970198,37,1,319.5,10,1,experiment,NA,NA,1,0.7,0.3,2,3,125,3,NA
fcp-trial,160,695280,0.0-135.0-0.0,voc_e2,11917,"[{""event"":""fullscreenenter"",""trial"":1,""time"":3823}]",NA,NA,NA,NA,NA,1,#D89F1C,#3386FF,10,0,1,38,1,1006.5,37,1,335,10,1,experiment,NA,NA,0,0.9,0.1,0,1,126,3,NA
fcp-trial,161,698520,0.0-136.0-0.0,voc_e2,11917,"[{""event"":""fullscreenenter"",""trial"":1,""time"":3823}]",NA,NA,NA,NA,NA,6,#741CD8,#D8271C,0,10,0,40,0,1194.3999999910593,37,1,535.5999999940395,0,0,experiment,NA,NA,1,0.3,0.7,3,2,127,3,NA
fcp-trial,162,701406,0.0-137.0-0.0,voc_e2,11917,"[{""event"":""fullscreenenter"",""trial"":1,""time"":3823}]",NA,NA,NA,NA,NA,4,#D8271C,#741CD8,0,0,1,38,1,1054.5999999940395,37,1,325.79999999701977,0,1,experiment,NA,NA,1,0.7,0.3,2,3,128,3,NA
fcp-trial,163,704471,0.0-138.0-0.0,voc_e2,11917,"[{""event"":""fullscreenenter"",""trial"":1,""time"":3823}]",NA,NA,NA,NA,NA,2,#1CD855,#FA92F8,10,10,1,38,1,1223.300000011921,39,0,334.59999999403954,10,0,experiment,NA,NA,2,0.5,0.5,4,5,129,3,NA
fcp-trial,164,707776,0.0-139.0-0.0,voc_e2,11917,"[{""event"":""fullscreenenter"",""trial"":1,""time"":3823}]",NA,NA,NA,NA,NA,0,#3386FF,#D89F1C,0,10,0,38,1,1382.7000000029802,39,0,416.09999999403954,10,1,experiment,NA,NA,0,0.1,0.9,1,0,130,3,NA
fcp-trial,165,710919,0.0-140.0-0.0,voc_e2,11917,"[{""event"":""fullscreenenter"",""trial"":1,""time"":3823}]",NA,NA,NA,NA,NA,2,#D8271C,#741CD8,10,0,1,38,1,1310.199999988079,37,1,326.3999999910593,10,1,experiment,NA,NA,1,0.7,0.3,2,3,131,3,NA
fcp-trial,166,714295,0.0-141.0-0.0,voc_e2,11917,"[{""event"":""fullscreenenter"",""trial"":1,""time"":3823}]",NA,NA,NA,NA,NA,1,#FA92F8,#1CD855,10,10,0,38,1,959.4000000059605,37,1,908.9000000059604,10,0,experiment,NA,NA,2,0.5,0.5,5,4,132,3,NA
fcp-trial,167,716974,0.0-142.0-0.0,voc_e2,11917,"[{""event"":""fullscreenenter"",""trial"":1,""time"":3823}]",NA,NA,NA,NA,NA,6,#1CD855,#FA92F8,0,10,1,38,1,622.0999999940395,39,0,551.2000000029802,10,0,experiment,NA,NA,2,0.5,0.5,4,5,133,3,NA
fcp-trial,168,719975,0.0-143.0-0.0,voc_e2,11917,"[{""event"":""fullscreenenter"",""trial"":1,""time"":3823}]",NA,NA,NA,NA,NA,3,#741CD8,#D8271C,10,10,0,38,1,1135.0999999940395,39,0,358.70000000298023,10,1,experiment,NA,NA,1,0.3,0.7,3,2,134,3,NA
fcp-trial,169,722831,0.0-144.0-0.0,voc_e2,11917,"[{""event"":""fullscreenenter"",""trial"":1,""time"":3823}]",NA,NA,NA,NA,NA,5,#D89F1C,#3386FF,0,0,1,40,0,926.3999999910593,37,1,423.3999999910593,0,1,experiment,NA,NA,0,0.9,0.1,0,1,135,3,NA
fcp-trial,170,725975,0.0-145.0-0.0,voc_e2,11917,"[{""event"":""fullscreenenter"",""trial"":1,""time"":3823}]",NA,NA,NA,NA,NA,4,#FA92F8,#1CD855,0,0,0,38,1,1342.9000000059605,37,1,294.8999999910593,0,0,experiment,NA,NA,2,0.5,0.5,5,4,136,4,NA
fcp-trial,171,729085,0.0-146.0-0.0,voc_e2,11917,"[{""event"":""fullscreenenter"",""trial"":1,""time"":3823}]",NA,NA,NA,NA,NA,3,#D89F1C,#3386FF,10,10,1,38,1,1277.7999999970198,37,1,327.1000000089407,10,1,experiment,NA,NA,0,0.9,0.1,0,1,137,4,NA
fcp-trial,172,732535,0.0-147.0-0.0,voc_e2,11917,"[{""event"":""fullscreenenter"",""trial"":1,""time"":3823}]",NA,NA,NA,NA,NA,2,#3386FF,#D89F1C,0,10,0,38,1,1079.5999999940395,39,0,863.7999999970198,10,1,experiment,NA,NA,0,0.1,0.9,1,0,138,4,NA
fcp-trial,173,735903,0.0-148.0-0.0,voc_e2,11917,"[{""event"":""fullscreenenter"",""trial"":1,""time"":3823}]",NA,NA,NA,NA,NA,5,#741CD8,#D8271C,0,10,0,38,1,1231.300000011921,39,0,631.1000000089407,10,1,experiment,NA,NA,1,0.3,0.7,3,2,139,4,NA
fcp-trial,174,738886,0.0-149.0-0.0,voc_e2,11917,"[{""event"":""fullscreenenter"",""trial"":1,""time"":3823}]",NA,NA,NA,NA,NA,5,#FA92F8,#1CD855,10,10,0,40,0,1086,37,1,390.20000000298023,10,0,experiment,NA,NA,2,0.5,0.5,5,4,140,4,NA
fcp-trial,175,742063,0.0-150.0-0.0,voc_e2,11917,"[{""event"":""fullscreenenter"",""trial"":1,""time"":3823}]",NA,NA,NA,NA,NA,4,#D89F1C,#3386FF,10,0,1,40,0,1207.4000000059605,39,0,462.90000000596046,0,0,experiment,NA,NA,0,0.9,0.1,0,1,141,4,NA
fcp-trial,176,745022,0.0-151.0-0.0,voc_e2,11917,"[{""event"":""fullscreenenter"",""trial"":1,""time"":3823}]",NA,NA,NA,NA,NA,0,#D8271C,#741CD8,10,0,1,38,1,1093.800000011921,37,1,359.09999999403954,10,1,experiment,NA,NA,1,0.7,0.3,2,3,142,4,NA
fcp-trial,177,748198,0.0-152.0-0.0,voc_e2,11917,"[{""event"":""fullscreenenter"",""trial"":1,""time"":3823}]",NA,NA,NA,NA,NA,6,#3386FF,#D89F1C,0,10,0,40,0,1175.2999999970198,37,1,494.79999999701977,0,0,experiment,NA,NA,0,0.1,0.9,1,0,143,4,NA
fcp-trial,178,750918,0.0-153.0-0.0,voc_e2,11917,"[{""event"":""fullscreenenter"",""trial"":1,""time"":3823}]",NA,NA,NA,NA,NA,1,#741CD8,#D8271C,0,10,0,38,1,879.0999999940395,39,0,334.79999999701977,10,1,experiment,NA,NA,1,0.3,0.7,3,2,144,4,NA
fcp-trial,179,754750,0.0-154.0-0.0,voc_e2,11917,"[{""event"":""fullscreenenter"",""trial"":1,""time"":3823}]",NA,NA,NA,NA,NA,0,#FA92F8,#1CD855,0,0,0,38,1,1927.0999999940395,37,1,398.8999999910593,0,0,experiment,NA,NA,2,0.5,0.5,5,4,145,4,NA
fcp-trial,180,757774,0.0-155.0-0.0,voc_e2,11917,"[{""event"":""fullscreenenter"",""trial"":1,""time"":3823}]",NA,NA,NA,NA,NA,3,#FA92F8,#1CD855,0,10,0,38,1,1159.2000000029802,37,1,358.90000000596046,0,0,experiment,NA,NA,2,0.5,0.5,5,4,146,4,NA
fcp-trial,181,760806,0.0-156.0-0.0,voc_e2,11917,"[{""event"":""fullscreenenter"",""trial"":1,""time"":3823}]",NA,NA,NA,NA,NA,1,#3386FF,#D89F1C,0,10,0,38,1,878,39,0,647.3999999910593,10,1,experiment,NA,NA,0,0.1,0.9,1,0,147,4,NA
fcp-trial,182,763662,0.0-157.0-0.0,voc_e2,11917,"[{""event"":""fullscreenenter"",""trial"":1,""time"":3823}]",NA,NA,NA,NA,NA,5,#1CD855,#FA92F8,0,0,1,40,0,903.0999999940395,39,0,446.5,0,0,experiment,NA,NA,2,0.5,0.5,4,5,148,4,NA
fcp-trial,183,766494,0.0-158.0-0.0,voc_e2,11917,"[{""event"":""fullscreenenter"",""trial"":1,""time"":3823}]",NA,NA,NA,NA,NA,0,#FA92F8,#1CD855,10,0,0,38,1,959.3000000119209,37,1,366.5,10,0,experiment,NA,NA,2,0.5,0.5,5,4,149,4,NA
fcp-trial,184,769190,0.0-159.0-0.0,voc_e2,11917,"[{""event"":""fullscreenenter"",""trial"":1,""time"":3823}]",NA,NA,NA,NA,NA,1,#D8271C,#741CD8,10,0,1,38,1,703.1999999880791,37,1,486.800000011921,10,1,experiment,NA,NA,1,0.7,0.3,2,3,150,4,NA
fcp-trial,185,772110,0.0-160.0-0.0,voc_e2,11917,"[{""event"":""fullscreenenter"",""trial"":1,""time"":3823}]",NA,NA,NA,NA,NA,6,#FA92F8,#1CD855,10,10,0,40,0,990,37,1,423.79999999701977,10,0,experiment,NA,NA,2,0.5,0.5,5,4,151,4,NA
fcp-trial,186,775101,0.0-161.0-0.0,voc_e2,11917,"[{""event"":""fullscreenenter"",""trial"":1,""time"":3823}]",NA,NA,NA,NA,NA,0,#3386FF,#D89F1C,0,10,0,38,1,1046.5,39,0,438.79999999701977,10,1,experiment,NA,NA,0,0.1,0.9,1,0,152,4,NA
fcp-trial,187,777950,0.0-162.0-0.0,voc_e2,11917,"[{""event"":""fullscreenenter"",""trial"":1,""time"":3823}]",NA,NA,NA,NA,NA,6,#D8271C,#741CD8,10,10,1,40,0,959.5999999940395,37,1,383.70000000298023,10,1,experiment,NA,NA,1,0.7,0.3,2,3,153,4,NA
fcp-trial,188,780911,0.0-163.0-0.0,voc_e2,11917,"[{""event"":""fullscreenenter"",""trial"":1,""time"":3823}]",NA,NA,NA,NA,NA,0,#D8271C,#741CD8,10,0,1,38,1,982.7999999970198,37,1,471.6000000089407,10,1,experiment,NA,NA,1,0.7,0.3,2,3,154,4,NA
fcp-trial,189,784509,0.0-164.0-0.0,voc_e2,11917,"[{""event"":""fullscreenenter"",""trial"":1,""time"":3823}]",NA,NA,NA,NA,NA,1,#D89F1C,#3386FF,10,0,1,38,1,1013.7000000029802,37,1,1078.7999999970198,10,1,experiment,NA,NA,0,0.9,0.1,0,1,155,4,NA
fcp-trial,190,787806,0.0-165.0-0.0,voc_e2,11917,"[{""event"":""fullscreenenter"",""trial"":1,""time"":3823}]",NA,NA,NA,NA,NA,3,#1CD855,#FA92F8,10,10,1,38,1,1070.699999988079,37,1,719.5,10,1,experiment,NA,NA,2,0.5,0.5,4,5,156,4,NA
fcp-trial,191,790774,0.0-166.0-0.0,voc_e2,11917,"[{""event"":""fullscreenenter"",""trial"":1,""time"":3823}]",NA,NA,NA,NA,NA,5,#3386FF,#D89F1C,0,10,0,40,0,943.2000000029802,39,0,519.7000000029802,10,1,experiment,NA,NA,0,0.1,0.9,1,0,157,4,NA
fcp-trial,192,794454,0.0-167.0-0.0,voc_e2,11917,"[{""event"":""fullscreenenter"",""trial"":1,""time"":3823}]",NA,NA,NA,NA,NA,3,#741CD8,#D8271C,0,10,0,38,1,1558.2000000029802,39,0,614.7999999970198,10,1,experiment,NA,NA,1,0.3,0.7,3,2,158,4,NA
fcp-trial,193,797326,0.0-168.0-0.0,voc_e2,11917,"[{""event"":""fullscreenenter"",""trial"":1,""time"":3823}]",NA,NA,NA,NA,NA,2,#D89F1C,#3386FF,10,0,1,38,1,998.3000000119209,37,1,367.3999999910593,10,1,experiment,NA,NA,0,0.9,0.1,0,1,159,4,NA
fcp-trial,194,800527,0.0-169.0-0.0,voc_e2,11917,"[{""event"":""fullscreenenter"",""trial"":1,""time"":3823}]",NA,NA,NA,NA,NA,1,#FA92F8,#1CD855,10,0,0,38,1,1302.7999999970198,37,1,391.5,10,0,experiment,NA,NA,2,0.5,0.5,5,4,160,4,NA
fcp-trial,195,803791,0.0-170.0-0.0,voc_e2,11917,"[{""event"":""fullscreenenter"",""trial"":1,""time"":3823}]",NA,NA,NA,NA,NA,4,#1CD855,#FA92F8,0,10,1,38,1,1302.2000000029802,39,0,454.70000000298023,10,0,experiment,NA,NA,2,0.5,0.5,4,5,161,4,NA
fcp-trial,196,806861,0.0-171.0-0.0,voc_e2,11917,"[{""event"":""fullscreenenter"",""trial"":1,""time"":3823}]",NA,NA,NA,NA,NA,4,#3386FF,#D89F1C,0,10,0,40,0,1142.0999999940395,37,1,422.1000000089407,0,0,experiment,NA,NA,0,0.1,0.9,1,0,162,4,NA
fcp-trial,197,809782,0.0-172.0-0.0,voc_e2,11917,"[{""event"":""fullscreenenter"",""trial"":1,""time"":3823}]",NA,NA,NA,NA,NA,5,#741CD8,#D8271C,0,10,0,38,1,1096.7999999970198,39,0,319.40000000596046,10,1,experiment,NA,NA,1,0.3,0.7,3,2,163,4,NA
fcp-trial,198,812461,0.0-173.0-0.0,voc_e2,11917,"[{""event"":""fullscreenenter"",""trial"":1,""time"":3823}]",NA,NA,NA,NA,NA,2,#1CD855,#FA92F8,0,0,1,38,1,774.5,39,0,398.79999999701977,0,0,experiment,NA,NA,2,0.5,0.5,4,5,164,4,NA
fcp-trial,199,815982,0.0-174.0-0.0,voc_e2,11917,"[{""event"":""fullscreenenter"",""trial"":1,""time"":3823}]",NA,NA,NA,NA,NA,3,#3386FF,#D89F1C,0,10,0,38,1,855.5,39,0,1158.0999999940395,10,1,experiment,NA,NA,0,0.1,0.9,1,0,165,4,NA
fcp-trial,200,819143,0.0-175.0-0.0,voc_e2,11917,"[{""event"":""fullscreenenter"",""trial"":1,""time"":3823}]",NA,NA,NA,NA,NA,6,#D89F1C,#3386FF,10,0,1,40,0,1190.4000000059605,37,1,464.5,10,1,experiment,NA,NA,0,0.9,0.1,0,1,166,4,NA
fcp-trial,201,822262,0.0-176.0-0.0,voc_e2,11917,"[{""event"":""fullscreenenter"",""trial"":1,""time"":3823}]",NA,NA,NA,NA,NA,4,#D8271C,#741CD8,0,0,1,40,0,1119.2000000029802,37,1,495,0,1,experiment,NA,NA,1,0.7,0.3,2,3,167,4,NA
fcp-trial,202,825045,0.0-177.0-0.0,voc_e2,11917,"[{""event"":""fullscreenenter"",""trial"":1,""time"":3823}]",NA,NA,NA,NA,NA,2,#D8271C,#741CD8,10,10,1,38,1,975,37,1,303.3999999910593,10,1,experiment,NA,NA,1,0.7,0.3,2,3,168,4,NA
fcp-trial,203,828054,0.0-178.0-0.0,voc_e2,11917,"[{""event"":""fullscreenenter"",""trial"":1,""time"":3823}]",NA,NA,NA,NA,NA,3,#D8271C,#741CD8,10,10,1,38,1,919.7000000029802,37,1,583.5999999940395,10,1,experiment,NA,NA,1,0.7,0.3,2,3,169,4,NA
fcp-trial,204,831309,0.0-179.0-0.0,voc_e2,11917,"[{""event"":""fullscreenenter"",""trial"":1,""time"":3823}]",NA,NA,NA,NA,NA,4,#FA92F8,#1CD855,10,0,0,40,0,1325.300000011921,37,1,422.300000011921,10,0,experiment,NA,NA,2,0.5,0.5,5,4,170,4,NA
fcp-trial,205,834166,0.0-180.0-0.0,voc_e2,11917,"[{""event"":""fullscreenenter"",""trial"":1,""time"":3823}]",NA,NA,NA,NA,NA,1,#1CD855,#FA92F8,0,0,1,38,1,872.3999999910593,39,0,476.8999999910593,0,0,experiment,NA,NA,2,0.5,0.5,4,5,171,4,NA
fcp-trial,206,837140,0.0-181.0-0.0,voc_e2,11917,"[{""event"":""fullscreenenter"",""trial"":1,""time"":3823}]",NA,NA,NA,NA,NA,6,#D89F1C,#3386FF,10,0,1,40,0,1047.5,37,1,415.1000000089407,10,1,experiment,NA,NA,0,0.9,0.1,0,1,172,4,NA
fcp-trial,207,841109,0.0-182.0-0.0,voc_e2,11917,"[{""event"":""fullscreenenter"",""trial"":1,""time"":3823}]",NA,NA,NA,NA,NA,4,#741CD8,#D8271C,0,10,0,38,1,1984.7000000029802,39,0,477.90000000596046,10,1,experiment,NA,NA,1,0.3,0.7,3,2,173,4,NA
fcp-trial,208,843742,0.0-183.0-0.0,voc_e2,11917,"[{""event"":""fullscreenenter"",""trial"":1,""time"":3823}]",NA,NA,NA,NA,NA,2,#D89F1C,#3386FF,10,0,1,38,1,807.8000000119209,37,1,319.69999998807907,10,1,experiment,NA,NA,0,0.9,0.1,0,1,174,4,NA
fcp-trial,209,846727,0.0-184.0-0.0,voc_e2,11917,"[{""event"":""fullscreenenter"",""trial"":1,""time"":3823}]",NA,NA,NA,NA,NA,5,#FA92F8,#1CD855,0,0,0,40,0,1039,39,0,438.8999999910593,0,1,experiment,NA,NA,2,0.5,0.5,5,4,175,4,NA
fcp-trial,210,849318,0.0-185.0-0.0,voc_e2,11917,"[{""event"":""fullscreenenter"",""trial"":1,""time"":3823}]",NA,NA,NA,NA,NA,4,#3386FF,#D89F1C,0,10,0,38,1,685.5,39,0,398.29999999701977,10,1,experiment,NA,NA,0,0.1,0.9,1,0,176,4,NA
fcp-trial,211,851992,0.0-186.0-0.0,voc_e2,11917,"[{""event"":""fullscreenenter"",""trial"":1,""time"":3823}]",NA,NA,NA,NA,NA,3,#3386FF,#D89F1C,0,10,0,38,1,830.3999999910593,39,0,336.5,10,1,experiment,NA,NA,0,0.1,0.9,1,0,177,4,NA
fcp-trial,212,854797,0.0-187.0-0.0,voc_e2,11917,"[{""event"":""fullscreenenter"",""trial"":1,""time"":3823}]",NA,NA,NA,NA,NA,1,#D8271C,#741CD8,0,0,1,38,1,917,37,1,378.70000000298023,0,1,experiment,NA,NA,1,0.7,0.3,2,3,178,4,NA
fcp-trial,213,859765,0.0-188.0-0.0,voc_e2,11917,"[{""event"":""fullscreenenter"",""trial"":1,""time"":3823}]",NA,NA,NA,NA,NA,6,#1CD855,#FA92F8,10,0,1,40,0,2863.5999999940395,37,1,598.7999999970198,10,1,experiment,NA,NA,2,0.5,0.5,4,5,179,4,NA
fcp-trial,214,862909,0.0-189.0-0.0,voc_e2,11917,"[{""event"":""fullscreenenter"",""trial"":1,""time"":3823}]",NA,NA,NA,NA,NA,0,#1CD855,#FA92F8,10,0,1,38,1,1054.7999999970198,39,0,581.7999999970198,0,0,experiment,NA,NA,2,0.5,0.5,4,5,180,4,NA
fcp-trial,215,866078,0.0-190.0-0.0,voc_e2,11917,"[{""event"":""fullscreenenter"",""trial"":1,""time"":3823}]",NA,NA,NA,NA,NA,6,#741CD8,#D8271C,0,10,0,40,0,1194.3999999910593,37,1,470.59999999403954,0,0,experiment,NA,NA,1,0.3,0.7,3,2,181,5,NA
fcp-trial,216,869294,0.0-191.0-0.0,voc_e2,11917,"[{""event"":""fullscreenenter"",""trial"":1,""time"":3823}]",NA,NA,NA,NA,NA,5,#3386FF,#D89F1C,0,10,0,40,0,1206.3999999910593,37,1,503.09999999403954,0,0,experiment,NA,NA,0,0.1,0.9,1,0,182,5,NA
fcp-trial,217,872645,0.0-192.0-0.0,voc_e2,11917,"[{""event"":""fullscreenenter"",""trial"":1,""time"":3823}]",NA,NA,NA,NA,NA,5,#D8271C,#741CD8,10,0,1,40,0,1446.7000000029802,37,1,398.79999999701977,10,1,experiment,NA,NA,1,0.7,0.3,2,3,183,5,NA
fcp-trial,218,876077,0.0-193.0-0.0,voc_e2,11917,"[{""event"":""fullscreenenter"",""trial"":1,""time"":3823}]",NA,NA,NA,NA,NA,2,#1CD855,#FA92F8,10,0,1,38,1,1559.2999999970198,39,0,367.29999999701977,0,0,experiment,NA,NA,2,0.5,0.5,4,5,184,5,NA
fcp-trial,219,879975,0.0-194.0-0.0,voc_e2,11917,"[{""event"":""fullscreenenter"",""trial"":1,""time"":3823}]",NA,NA,NA,NA,NA,1,#D89F1C,#3386FF,10,0,1,38,1,1767.5,37,1,623.1000000089407,10,1,experiment,NA,NA,0,0.9,0.1,0,1,185,5,NA
fcp-trial,220,883046,0.0-195.0-0.0,voc_e2,11917,"[{""event"":""fullscreenenter"",""trial"":1,""time"":3823}]",NA,NA,NA,NA,NA,3,#FA92F8,#1CD855,0,10,0,38,1,917.7000000029802,37,1,646.5,0,0,experiment,NA,NA,2,0.5,0.5,5,4,186,5,NA
fcp-trial,221,885670,0.0-196.0-0.0,voc_e2,11917,"[{""event"":""fullscreenenter"",""trial"":1,""time"":3823}]",NA,NA,NA,NA,NA,0,#D89F1C,#3386FF,10,0,1,38,1,737,37,1,382.09999999403954,10,1,experiment,NA,NA,0,0.9,0.1,0,1,187,5,NA
fcp-trial,222,888286,0.0-197.0-0.0,voc_e2,11917,"[{""event"":""fullscreenenter"",""trial"":1,""time"":3823}]",NA,NA,NA,NA,NA,0,#D8271C,#741CD8,0,0,1,38,1,773.8999999910593,37,1,334.29999999701977,0,1,experiment,NA,NA,1,0.7,0.3,2,3,188,5,NA
fcp-trial,223,890775,0.0-198.0-0.0,voc_e2,11917,"[{""event"":""fullscreenenter"",""trial"":1,""time"":3823}]",NA,NA,NA,NA,NA,2,#D8271C,#741CD8,0,0,1,38,1,677.6999999880791,37,1,302.09999999403954,0,1,experiment,NA,NA,1,0.7,0.3,2,3,189,5,NA
fcp-trial,224,893734,0.0-199.0-0.0,voc_e2,11917,"[{""event"":""fullscreenenter"",""trial"":1,""time"":3823}]",NA,NA,NA,NA,NA,6,#1CD855,#FA92F8,0,0,1,40,0,966.0999999940395,39,0,487.20000000298023,0,0,experiment,NA,NA,2,0.5,0.5,4,5,190,5,NA
fcp-trial,225,896661,0.0-200.0-0.0,voc_e2,11917,"[{""event"":""fullscreenenter"",""trial"":1,""time"":3823}]",NA,NA,NA,NA,NA,5,#D89F1C,#3386FF,0,0,1,40,0,1006.7000000029802,39,0,415.29999999701977,0,0,experiment,NA,NA,0,0.9,0.1,0,1,191,5,NA
fcp-trial,226,899590,0.0-201.0-0.0,voc_e2,11917,"[{""event"":""fullscreenenter"",""trial"":1,""time"":3823}]",NA,NA,NA,NA,NA,5,#D8271C,#741CD8,10,0,1,40,0,1039.2000000029802,39,0,383.40000000596046,0,0,experiment,NA,NA,1,0.7,0.3,2,3,192,5,NA
fcp-trial,227,902549,0.0-202.0-0.0,voc_e2,11917,"[{""event"":""fullscreenenter"",""trial"":1,""time"":3823}]",NA,NA,NA,NA,NA,2,#FA92F8,#1CD855,0,10,0,38,1,1095.2000000029802,37,1,359,0,0,experiment,NA,NA,2,0.5,0.5,5,4,193,5,NA
fcp-trial,228,905150,0.0-203.0-0.0,voc_e2,11917,"[{""event"":""fullscreenenter"",""trial"":1,""time"":3823}]",NA,NA,NA,NA,NA,0,#D89F1C,#3386FF,10,10,1,38,1,719.5,37,1,375.5,10,1,experiment,NA,NA,0,0.9,0.1,0,1,194,5,NA
fcp-trial,229,908078,0.0-204.0-0.0,voc_e2,11917,"[{""event"":""fullscreenenter"",""trial"":1,""time"":3823}]",NA,NA,NA,NA,NA,3,#741CD8,#D8271C,0,10,0,38,1,1054.6000000089407,39,0,366.70000000298023,10,1,experiment,NA,NA,1,0.3,0.7,3,2,195,5,NA
fcp-trial,230,910581,0.0-205.0-0.0,voc_e2,11917,"[{""event"":""fullscreenenter"",""trial"":1,""time"":3823}]",NA,NA,NA,NA,NA,1,#FA92F8,#1CD855,10,10,0,38,1,661.8999999910593,37,1,334.29999999701977,10,0,experiment,NA,NA,2,0.5,0.5,5,4,196,5,NA
fcp-trial,231,913709,0.0-206.0-0.0,voc_e2,11917,"[{""event"":""fullscreenenter"",""trial"":1,""time"":3823}]",NA,NA,NA,NA,NA,2,#3386FF,#D89F1C,0,10,0,38,1,759.3999999910593,39,0,862.7000000029802,10,1,experiment,NA,NA,0,0.1,0.9,1,0,197,5,NA
fcp-trial,232,916117,0.0-207.0-0.0,voc_e2,11917,"[{""event"":""fullscreenenter"",""trial"":1,""time"":3823}]",NA,NA,NA,NA,NA,1,#D8271C,#741CD8,0,0,1,38,1,584,37,1,318.8999999910593,0,1,experiment,NA,NA,1,0.7,0.3,2,3,198,5,NA
fcp-trial,233,918669,0.0-208.0-0.0,voc_e2,11917,"[{""event"":""fullscreenenter"",""trial"":1,""time"":3823}]",NA,NA,NA,NA,NA,4,#3386FF,#D89F1C,0,10,0,38,1,703.2999999970198,39,0,336,10,1,experiment,NA,NA,0,0.1,0.9,1,0,199,5,NA
fcp-trial,234,921286,0.0-209.0-0.0,voc_e2,11917,"[{""event"":""fullscreenenter"",""trial"":1,""time"":3823}]",NA,NA,NA,NA,NA,2,#741CD8,#D8271C,0,10,0,38,1,729.0999999940395,39,0,383.20000000298023,10,1,experiment,NA,NA,1,0.3,0.7,3,2,200,5,NA
fcp-trial,235,923974,0.0-210.0-0.0,voc_e2,11917,"[{""event"":""fullscreenenter"",""trial"":1,""time"":3823}]",NA,NA,NA,NA,NA,0,#FA92F8,#1CD855,0,0,0,38,1,734.2000000029802,37,1,447.300000011921,0,0,experiment,NA,NA,2,0.5,0.5,5,4,201,5,NA
fcp-trial,236,926470,0.0-211.0-0.0,voc_e2,11917,"[{""event"":""fullscreenenter"",""trial"":1,""time"":3823}]",NA,NA,NA,NA,NA,0,#D8271C,#741CD8,10,0,1,38,1,606,37,1,384.6000000089407,10,1,experiment,NA,NA,1,0.7,0.3,2,3,202,5,NA
fcp-trial,237,929917,0.0-212.0-0.0,voc_e2,11917,"[{""event"":""fullscreenenter"",""trial"":1,""time"":3823}]",NA,NA,NA,NA,NA,6,#D8271C,#741CD8,0,0,1,40,0,1542.699999988079,37,1,399.29999999701977,0,1,experiment,NA,NA,1,0.7,0.3,2,3,203,5,NA
fcp-trial,238,932655,0.0-213.0-0.0,voc_e2,11917,"[{""event"":""fullscreenenter"",""trial"":1,""time"":3823}]",NA,NA,NA,NA,NA,3,#3386FF,#D89F1C,0,10,0,38,1,796.8999999910593,39,0,432.20000000298023,10,1,experiment,NA,NA,0,0.1,0.9,1,0,204,5,NA
fcp-trial,239,935654,0.0-214.0-0.0,voc_e2,11917,"[{""event"":""fullscreenenter"",""trial"":1,""time"":3823}]",NA,NA,NA,NA,NA,6,#3386FF,#D89F1C,0,10,0,40,0,1126.2999999970198,37,1,366.3999999910593,0,0,experiment,NA,NA,0,0.1,0.9,1,0,205,5,NA
fcp-trial,240,938415,0.0-215.0-0.0,voc_e2,11917,"[{""event"":""fullscreenenter"",""trial"":1,""time"":3823}]",NA,NA,NA,NA,NA,3,#FA92F8,#1CD855,10,10,0,38,1,894.7000000029802,37,1,358.29999999701977,10,0,experiment,NA,NA,2,0.5,0.5,5,4,206,5,NA
fcp-trial,241,941317,0.0-216.0-0.0,voc_e2,11917,"[{""event"":""fullscreenenter"",""trial"":1,""time"":3823}]",NA,NA,NA,NA,NA,4,#D8271C,#741CD8,10,0,1,38,1,1030.1000000089407,37,1,367,10,1,experiment,NA,NA,1,0.7,0.3,2,3,207,5,NA
fcp-trial,242,944749,0.0-217.0-0.0,voc_e2,11917,"[{""event"":""fullscreenenter"",""trial"":1,""time"":3823}]",NA,NA,NA,NA,NA,4,#1CD855,#FA92F8,10,10,1,38,1,726.2000000029802,39,0,1198.4000000059605,10,0,experiment,NA,NA,2,0.5,0.5,4,5,208,5,NA
fcp-trial,243,947557,0.0-218.0-0.0,voc_e2,11917,"[{""event"":""fullscreenenter"",""trial"":1,""time"":3823}]",NA,NA,NA,NA,NA,1,#D89F1C,#3386FF,10,0,1,38,1,870.2000000029802,37,1,431.800000011921,10,1,experiment,NA,NA,0,0.9,0.1,0,1,209,5,NA
fcp-trial,244,950254,0.0-219.0-0.0,voc_e2,11917,"[{""event"":""fullscreenenter"",""trial"":1,""time"":3823}]",NA,NA,NA,NA,NA,5,#FA92F8,#1CD855,10,10,0,38,1,833.0999999940395,37,1,358.40000000596046,10,0,experiment,NA,NA,2,0.5,0.5,5,4,210,5,NA
audio-instructions,245,955153,0.0-220.0,voc_e2,11917,"[{""event"":""fullscreenenter"",""trial"":1,""time"":3823}]",NA,448.1000000089407,static/audio/pause.wav,NA,0,NA,NA,NA,NA,NA,NA,NA,NA,NA,NA,NA,NA,NA,NA,NA,NA,NA,NA,NA,NA,NA,NA,NA,NA,NA
fcp-trial,246,958135,0.0-221.0-0.0,voc_e2,11917,"[{""event"":""fullscreenenter"",""trial"":1,""time"":3823}]",NA,NA,NA,NA,NA,5,#FA92F8,#1CD855,10,0,0,40,0,1092.7000000029802,39,0,382.3999999910593,0,1,experiment,NA,NA,2,0.5,0.5,5,4,211,5,NA
fcp-trial,247,961033,0.0-222.0-0.0,voc_e2,11917,"[{""event"":""fullscreenenter"",""trial"":1,""time"":3823}]",NA,NA,NA,NA,NA,2,#741CD8,#D8271C,0,10,0,38,1,1004.7000000029802,39,0,378.40000000596046,10,1,experiment,NA,NA,1,0.3,0.7,3,2,212,5,NA
fcp-trial,248,964085,0.0-223.0-0.0,voc_e2,11917,"[{""event"":""fullscreenenter"",""trial"":1,""time"":3823}]",NA,NA,NA,NA,NA,4,#3386FF,#D89F1C,10,10,0,38,1,1042.699999988079,39,0,493.59999999403954,10,1,experiment,NA,NA,0,0.1,0.9,1,0,213,5,NA
fcp-trial,249,966768,0.0-224.0-0.0,voc_e2,11917,"[{""event"":""fullscreenenter"",""trial"":1,""time"":3823}]",NA,NA,NA,NA,NA,1,#1CD855,#FA92F8,0,10,1,38,1,735.4000000059605,39,0,431.20000000298023,10,0,experiment,NA,NA,2,0.5,0.5,4,5,214,5,NA
fcp-trial,250,969652,0.0-225.0-0.0,voc_e2,11917,"[{""event"":""fullscreenenter"",""trial"":1,""time"":3823}]",NA,NA,NA,NA,NA,5,#D89F1C,#3386FF,10,0,1,40,0,924,39,0,436.59999999403954,0,0,experiment,NA,NA,0,0.9,0.1,0,1,215,5,NA
fcp-trial,251,972350,0.0-226.0-0.0,voc_e2,11917,"[{""event"":""fullscreenenter"",""trial"":1,""time"":3823}]",NA,NA,NA,NA,NA,2,#1CD855,#FA92F8,10,0,1,38,1,864.6000000089407,39,0,317.8999999910593,0,0,experiment,NA,NA,2,0.5,0.5,4,5,216,5,NA
fcp-trial,252,975293,0.0-227.0-0.0,voc_e2,11917,"[{""event"":""fullscreenenter"",""trial"":1,""time"":3823}]",NA,NA,NA,NA,NA,5,#741CD8,#D8271C,10,10,0,40,0,1062.2000000029802,39,0,373.40000000596046,10,1,experiment,NA,NA,1,0.3,0.7,3,2,217,5,NA
fcp-trial,253,978218,0.0-228.0-0.0,voc_e2,11917,"[{""event"":""fullscreenenter"",""trial"":1,""time"":3823}]",NA,NA,NA,NA,NA,2,#D89F1C,#3386FF,10,10,1,38,1,969.1000000089407,37,1,438.300000011921,10,1,experiment,NA,NA,0,0.9,0.1,0,1,218,5,NA
fcp-trial,254,981284,0.0-229.0-0.0,voc_e2,11917,"[{""event"":""fullscreenenter"",""trial"":1,""time"":3823}]",NA,NA,NA,NA,NA,6,#741CD8,#D8271C,10,10,0,40,0,1187,39,0,360.6000000089407,10,1,experiment,NA,NA,1,0.3,0.7,3,2,219,5,NA
fcp-trial,255,984266,0.0-230.0-0.0,voc_e2,11917,"[{""event"":""fullscreenenter"",""trial"":1,""time"":3823}]",NA,NA,NA,NA,NA,6,#1CD855,#FA92F8,0,0,1,40,0,928.2000000029802,37,1,543.1000000089407,0,1,experiment,NA,NA,2,0.5,0.5,4,5,220,5,NA
fcp-trial,256,987062,0.0-231.0-0.0,voc_e2,11917,"[{""event"":""fullscreenenter"",""trial"":1,""time"":3823}]",NA,NA,NA,NA,NA,6,#D89F1C,#3386FF,10,10,1,40,0,888.6000000089407,37,1,399.70000000298023,10,1,experiment,NA,NA,0,0.9,0.1,0,1,221,5,NA
fcp-trial,257,989749,0.0-232.0-0.0,voc_e2,11917,"[{""event"":""fullscreenenter"",""trial"":1,""time"":3823}]",NA,NA,NA,NA,NA,3,#741CD8,#D8271C,0,0,0,38,1,854.5,39,0,327.59999999403954,0,1,experiment,NA,NA,1,0.3,0.7,3,2,222,5,NA
fcp-trial,258,992801,0.0-233.0-0.0,voc_e2,11917,"[{""event"":""fullscreenenter"",""trial"":1,""time"":3823}]",NA,NA,NA,NA,NA,0,#1CD855,#FA92F8,0,10,1,38,1,1045.9000000059605,39,0,486.6000000089407,10,0,experiment,NA,NA,2,0.5,0.5,4,5,223,5,NA
fcp-trial,259,995541,0.0-234.0-0.0,voc_e2,11917,"[{""event"":""fullscreenenter"",""trial"":1,""time"":3823}]",NA,NA,NA,NA,NA,3,#D89F1C,#3386FF,10,0,1,38,1,867.7999999970198,37,1,367.300000011921,10,1,experiment,NA,NA,0,0.9,0.1,0,1,224,5,NA
fcp-trial,260,998510,0.0-235.0-0.0,voc_e2,11917,"[{""event"":""fullscreenenter"",""trial"":1,""time"":3823}]",NA,NA,NA,NA,NA,4,#1CD855,#FA92F8,0,10,1,38,1,1119.5999999940395,39,0,343.20000000298023,10,0,experiment,NA,NA,2,0.5,0.5,4,5,225,5,NA
fcp-trial,261,1001181,0.0-236.0-0.0,voc_e2,11917,"[{""event"":""fullscreenenter"",""trial"":1,""time"":3823}]",NA,NA,NA,NA,NA,1,#D8271C,#741CD8,0,0,1,38,1,774.5,37,1,391,0,1,experiment,NA,NA,1,0.7,0.3,2,3,226,6,NA
fcp-trial,262,1004637,0.0-237.0-0.0,voc_e2,11917,"[{""event"":""fullscreenenter"",""trial"":1,""time"":3823}]",NA,NA,NA,NA,NA,1,#D89F1C,#3386FF,0,0,1,38,1,1638.7000000029802,37,1,309.5,0,1,experiment,NA,NA,0,0.9,0.1,0,1,227,6,NA
fcp-trial,263,1007606,0.0-238.0-0.0,voc_e2,11917,"[{""event"":""fullscreenenter"",""trial"":1,""time"":3823}]",NA,NA,NA,NA,NA,3,#1CD855,#FA92F8,10,0,1,38,1,1023.5,39,0,437.5,0,0,experiment,NA,NA,2,0.5,0.5,4,5,228,6,NA
fcp-trial,264,1010726,0.0-239.0-0.0,voc_e2,11917,"[{""event"":""fullscreenenter"",""trial"":1,""time"":3823}]",NA,NA,NA,NA,NA,4,#741CD8,#D8271C,0,10,0,38,1,1054.8999999910593,39,0,558.2000000029802,10,1,experiment,NA,NA,1,0.3,0.7,3,2,229,6,NA
fcp-trial,265,1014150,0.0-240.0-0.0,voc_e2,11917,"[{""event"":""fullscreenenter"",""trial"":1,""time"":3823}]",NA,NA,NA,NA,NA,0,#3386FF,#D89F1C,0,10,0,38,1,766.5999999940395,39,0,1151.0999999940395,10,1,experiment,NA,NA,0,0.1,0.9,1,0,230,6,NA
fcp-trial,266,1016710,0.0-241.0-0.0,voc_e2,11917,"[{""event"":""fullscreenenter"",""trial"":1,""time"":3823}]",NA,NA,NA,NA,NA,0,#D8271C,#741CD8,0,0,1,38,1,742.7000000029802,37,1,311.09999999403954,0,1,experiment,NA,NA,1,0.7,0.3,2,3,231,6,NA
fcp-trial,267,1019262,0.0-242.0-0.0,voc_e2,11917,"[{""event"":""fullscreenenter"",""trial"":1,""time"":3823}]",NA,NA,NA,NA,NA,0,#D8271C,#741CD8,0,0,1,38,1,743.4000000059605,37,1,303,0,1,experiment,NA,NA,1,0.7,0.3,2,3,232,6,NA
fcp-trial,268,1022423,0.0-243.0-0.0,voc_e2,11917,"[{""event"":""fullscreenenter"",""trial"":1,""time"":3823}]",NA,NA,NA,NA,NA,5,#3386FF,#D89F1C,0,10,0,40,0,1230.8999999910593,37,1,423.20000000298023,0,0,experiment,NA,NA,0,0.1,0.9,1,0,233,6,NA
fcp-trial,269,1025085,0.0-244.0-0.0,voc_e2,11917,"[{""event"":""fullscreenenter"",""trial"":1,""time"":3823}]",NA,NA,NA,NA,NA,4,#741CD8,#D8271C,0,10,0,38,1,846.5,39,0,310.90000000596046,10,1,experiment,NA,NA,1,0.3,0.7,3,2,234,6,NA
fcp-trial,270,1027789,0.0-245.0-0.0,voc_e2,11917,"[{""event"":""fullscreenenter"",""trial"":1,""time"":3823}]",NA,NA,NA,NA,NA,4,#1CD855,#FA92F8,0,10,1,38,1,871,39,0,326.70000000298023,10,0,experiment,NA,NA,2,0.5,0.5,4,5,235,6,NA
fcp-trial,271,1030461,0.0-246.0-0.0,voc_e2,11917,"[{""event"":""fullscreenenter"",""trial"":1,""time"":3823}]",NA,NA,NA,NA,NA,3,#FA92F8,#1CD855,10,0,0,38,1,800.0999999940395,37,1,367.199999988079,10,0,experiment,NA,NA,2,0.5,0.5,5,4,236,6,NA
fcp-trial,272,1033222,0.0-247.0-0.0,voc_e2,11917,"[{""event"":""fullscreenenter"",""trial"":1,""time"":3823}]",NA,NA,NA,NA,NA,5,#FA92F8,#1CD855,10,10,0,40,0,896,37,1,358.20000000298023,10,0,experiment,NA,NA,2,0.5,0.5,5,4,237,6,NA
fcp-trial,273,1036550,0.0-248.0-0.0,voc_e2,11917,"[{""event"":""fullscreenenter"",""trial"":1,""time"":3823}]",NA,NA,NA,NA,NA,4,#3386FF,#D89F1C,0,10,0,38,1,1031.0999999940395,39,0,791.5999999940395,10,1,experiment,NA,NA,0,0.1,0.9,1,0,238,6,NA
fcp-trial,274,1039526,0.0-249.0-0.0,voc_e2,11917,"[{""event"":""fullscreenenter"",""trial"":1,""time"":3823}]",NA,NA,NA,NA,NA,5,#741CD8,#D8271C,0,10,0,40,0,1119.2999999970198,39,0,350,10,1,experiment,NA,NA,1,0.3,0.7,3,2,239,6,NA
fcp-trial,275,1042118,0.0-250.0-0.0,voc_e2,11917,"[{""event"":""fullscreenenter"",""trial"":1,""time"":3823}]",NA,NA,NA,NA,NA,1,#3386FF,#D89F1C,0,10,0,38,1,710.5,39,0,375.5,10,1,experiment,NA,NA,0,0.1,0.9,1,0,240,6,NA
fcp-trial,276,1044838,0.0-251.0-0.0,voc_e2,11917,"[{""event"":""fullscreenenter"",""trial"":1,""time"":3823}]",NA,NA,NA,NA,NA,6,#D8271C,#741CD8,0,10,1,40,0,886.7000000029802,37,1,326.70000000298023,0,1,experiment,NA,NA,1,0.7,0.3,2,3,241,6,NA
fcp-trial,277,1047878,0.0-252.0-0.0,voc_e2,11917,"[{""event"":""fullscreenenter"",""trial"":1,""time"":3823}]",NA,NA,NA,NA,NA,1,#FA92F8,#1CD855,10,0,0,38,1,693.7000000029802,37,1,839.7999999970198,10,0,experiment,NA,NA,2,0.5,0.5,5,4,242,6,NA
fcp-trial,278,1050558,0.0-253.0-0.0,voc_e2,11917,"[{""event"":""fullscreenenter"",""trial"":1,""time"":3823}]",NA,NA,NA,NA,NA,0,#FA92F8,#1CD855,10,10,0,38,1,873.1000000089407,37,1,303.19999998807907,10,0,experiment,NA,NA,2,0.5,0.5,5,4,243,6,NA
fcp-trial,279,1053151,0.0-254.0-0.0,voc_e2,11917,"[{""event"":""fullscreenenter"",""trial"":1,""time"":3823}]",NA,NA,NA,NA,NA,0,#3386FF,#D89F1C,0,10,0,38,1,742.9000000059605,39,0,343.70000000298023,10,1,experiment,NA,NA,0,0.1,0.9,1,0,244,6,NA
fcp-trial,280,1055647,0.0-255.0-0.0,voc_e2,11917,"[{""event"":""fullscreenenter"",""trial"":1,""time"":3823}]",NA,NA,NA,NA,NA,1,#D8271C,#741CD8,10,0,1,38,1,702.2999999970198,37,1,286.90000000596046,10,1,experiment,NA,NA,1,0.7,0.3,2,3,245,6,NA
fcp-trial,281,1058253,0.0-256.0-0.0,voc_e2,11917,"[{""event"":""fullscreenenter"",""trial"":1,""time"":3823}]",NA,NA,NA,NA,NA,3,#741CD8,#D8271C,10,0,0,38,1,797.2000000029802,39,0,302.79999999701977,0,1,experiment,NA,NA,1,0.3,0.7,3,2,246,6,NA
fcp-trial,282,1061334,0.0-257.0-0.0,voc_e2,11917,"[{""event"":""fullscreenenter"",""trial"":1,""time"":3823}]",NA,NA,NA,NA,NA,6,#D89F1C,#3386FF,10,0,1,40,0,1255.5999999940395,37,1,317.90000000596046,10,1,experiment,NA,NA,0,0.9,0.1,0,1,247,6,NA
fcp-trial,283,1064502,0.0-258.0-0.0,voc_e2,11917,"[{""event"":""fullscreenenter"",""trial"":1,""time"":3823}]",NA,NA,NA,NA,NA,6,#FA92F8,#1CD855,10,0,0,40,0,1231.1000000089407,39,0,430.40000000596046,0,1,experiment,NA,NA,2,0.5,0.5,5,4,248,6,NA
fcp-trial,284,1067270,0.0-259.0-0.0,voc_e2,11917,"[{""event"":""fullscreenenter"",""trial"":1,""time"":3823}]",NA,NA,NA,NA,NA,3,#D89F1C,#3386FF,10,0,1,38,1,910.5,37,1,350.90000000596046,10,1,experiment,NA,NA,0,0.9,0.1,0,1,249,6,NA
fcp-trial,285,1069799,0.0-260.0-0.0,voc_e2,11917,"[{""event"":""fullscreenenter"",""trial"":1,""time"":3823}]",NA,NA,NA,NA,NA,2,#741CD8,#D8271C,10,10,0,38,1,726.5,39,0,294.09999999403954,10,1,experiment,NA,NA,1,0.3,0.7,3,2,250,6,NA
fcp-trial,286,1072384,0.0-261.0-0.0,voc_e2,11917,"[{""event"":""fullscreenenter"",""trial"":1,""time"":3823}]",NA,NA,NA,NA,NA,2,#D89F1C,#3386FF,10,0,1,38,1,742.5999999940395,37,1,336.09999999403954,10,1,experiment,NA,NA,0,0.9,0.1,0,1,251,6,NA
fcp-trial,287,1074933,0.0-262.0-0.0,voc_e2,11917,"[{""event"":""fullscreenenter"",""trial"":1,""time"":3823}]",NA,NA,NA,NA,NA,2,#1CD855,#FA92F8,0,0,1,38,1,717.6000000089407,39,0,327,0,0,experiment,NA,NA,2,0.5,0.5,4,5,252,6,NA
fcp-trial,288,1077469,0.0-263.0-0.0,voc_e2,11917,"[{""event"":""fullscreenenter"",""trial"":1,""time"":3823}]",NA,NA,NA,NA,NA,0,#741CD8,#D8271C,0,10,0,38,1,704,39,0,326.29999999701977,10,1,experiment,NA,NA,1,0.3,0.7,3,2,253,6,NA
fcp-trial,289,1080831,0.0-264.0-0.0,voc_e2,11917,"[{""event"":""fullscreenenter"",""trial"":1,""time"":3823}]",NA,NA,NA,NA,NA,2,#FA92F8,#1CD855,0,0,0,38,1,929.2000000029802,37,1,927.2000000029802,0,0,experiment,NA,NA,2,0.5,0.5,5,4,254,6,NA
fcp-trial,290,1083965,0.0-265.0-0.0,voc_e2,11917,"[{""event"":""fullscreenenter"",""trial"":1,""time"":3823}]",NA,NA,NA,NA,NA,2,#D89F1C,#3386FF,10,0,1,38,1,925.5,37,1,702.5999999940395,10,1,experiment,NA,NA,0,0.9,0.1,0,1,255,6,NA
fcp-trial,291,1086598,0.0-266.0-0.0,voc_e2,11917,"[{""event"":""fullscreenenter"",""trial"":1,""time"":3823}]",NA,NA,NA,NA,NA,1,#D89F1C,#3386FF,10,0,1,38,1,759.4000000059605,37,1,366.40000000596046,10,1,experiment,NA,NA,0,0.9,0.1,0,1,256,6,NA
fcp-trial,292,1089014,0.0-267.0-0.0,voc_e2,11917,"[{""event"":""fullscreenenter"",""trial"":1,""time"":3823}]",NA,NA,NA,NA,NA,1,#FA92F8,#1CD855,10,10,0,38,1,606.7999999970198,37,1,303.40000000596046,10,0,experiment,NA,NA,2,0.5,0.5,5,4,257,6,NA
fcp-trial,293,1091509,0.0-268.0-0.0,voc_e2,11917,"[{""event"":""fullscreenenter"",""trial"":1,""time"":3823}]",NA,NA,NA,NA,NA,4,#741CD8,#D8271C,10,10,0,38,1,639,39,0,351.20000000298023,10,1,experiment,NA,NA,1,0.3,0.7,3,2,258,6,NA
fcp-trial,294,1094557,0.0-269.0-0.0,voc_e2,11917,"[{""event"":""fullscreenenter"",""trial"":1,""time"":3823}]",NA,NA,NA,NA,NA,5,#FA92F8,#1CD855,0,0,0,40,0,1136.5,37,1,407.79999999701977,0,0,experiment,NA,NA,2,0.5,0.5,5,4,259,6,NA
fcp-trial,295,1097246,0.0-270.0-0.0,voc_e2,11917,"[{""event"":""fullscreenenter"",""trial"":1,""time"":3823}]",NA,NA,NA,NA,NA,2,#D8271C,#741CD8,0,0,1,38,1,902.8000000119209,37,1,280,0,1,experiment,NA,NA,1,0.7,0.3,2,3,260,6,NA
fcp-trial,296,1099982,0.0-271.0-0.0,voc_e2,11917,"[{""event"":""fullscreenenter"",""trial"":1,""time"":3823}]",NA,NA,NA,NA,NA,6,#D89F1C,#3386FF,10,0,1,38,1,694.7000000029802,37,1,535.7999999970198,10,1,experiment,NA,NA,0,0.9,0.1,0,1,261,6,NA
fcp-trial,297,1102926,0.0-272.0-0.0,voc_e2,11917,"[{""event"":""fullscreenenter"",""trial"":1,""time"":3823}]",NA,NA,NA,NA,NA,4,#1CD855,#FA92F8,10,10,1,38,1,806.7000000029802,39,0,631.2000000029802,10,0,experiment,NA,NA,2,0.5,0.5,4,5,262,6,NA
fcp-trial,298,1105558,0.0-273.0-0.0,voc_e2,11917,"[{""event"":""fullscreenenter"",""trial"":1,""time"":3823}]",NA,NA,NA,NA,NA,3,#741CD8,#D8271C,0,10,0,38,1,732.2000000029802,39,0,390.8999999910593,10,1,experiment,NA,NA,1,0.3,0.7,3,2,263,6,NA
fcp-trial,299,1108158,0.0-274.0-0.0,voc_e2,11917,"[{""event"":""fullscreenenter"",""trial"":1,""time"":3823}]",NA,NA,NA,NA,NA,6,#FA92F8,#1CD855,0,10,0,38,1,733.9000000059605,37,1,360,0,0,experiment,NA,NA,2,0.5,0.5,5,4,264,6,NA
fcp-trial,300,1111101,0.0-275.0-0.0,voc_e2,11917,"[{""event"":""fullscreenenter"",""trial"":1,""time"":3823}]",NA,NA,NA,NA,NA,0,#D89F1C,#3386FF,10,0,1,38,1,1118.2999999970198,37,1,319.6000000089407,10,1,experiment,NA,NA,0,0.9,0.1,0,1,265,6,NA
fcp-trial,301,1113894,0.0-276.0-0.0,voc_e2,11917,"[{""event"":""fullscreenenter"",""trial"":1,""time"":3823}]",NA,NA,NA,NA,NA,0,#FA92F8,#1CD855,0,10,0,38,1,984.4000000059605,37,1,302.70000000298023,0,0,experiment,NA,NA,2,0.5,0.5,5,4,266,6,NA
fcp-trial,302,1116742,0.0-277.0-0.0,voc_e2,11917,"[{""event"":""fullscreenenter"",""trial"":1,""time"":3823}]",NA,NA,NA,NA,NA,4,#D89F1C,#3386FF,0,0,1,38,1,773.7000000029802,37,1,566.7999999970198,0,1,experiment,NA,NA,0,0.9,0.1,0,1,267,6,NA
fcp-trial,303,1119117,0.0-278.0-0.0,voc_e2,11917,"[{""event"":""fullscreenenter"",""trial"":1,""time"":3823}]",NA,NA,NA,NA,NA,1,#741CD8,#D8271C,0,10,0,38,1,599,39,0,270.59999999403954,10,1,experiment,NA,NA,1,0.3,0.7,3,2,268,6,NA
fcp-trial,304,1121925,0.0-279.0-0.0,voc_e2,11917,"[{""event"":""fullscreenenter"",""trial"":1,""time"":3823}]",NA,NA,NA,NA,NA,5,#741CD8,#D8271C,0,10,0,40,0,944.3000000119209,39,0,359.1000000089407,10,1,experiment,NA,NA,1,0.3,0.7,3,2,269,6,NA
fcp-trial,305,1124965,0.0-280.0-0.0,voc_e2,11917,"[{""event"":""fullscreenenter"",""trial"":1,""time"":3823}]",NA,NA,NA,NA,NA,6,#D8271C,#741CD8,10,10,1,40,0,877.5,37,1,655.3000000119209,10,1,experiment,NA,NA,1,0.7,0.3,2,3,270,6,NA
fcp-trial,306,1127565,0.0-281.0-0.0,voc_e2,11917,"[{""event"":""fullscreenenter"",""trial"":1,""time"":3823}]",NA,NA,NA,NA,NA,3,#1CD855,#FA92F8,10,0,1,38,1,791.7999999970198,39,0,301.90000000596046,0,0,experiment,NA,NA,2,0.5,0.5,4,5,271,7,NA
fcp-trial,307,1130486,0.0-282.0-0.0,voc_e2,11917,"[{""event"":""fullscreenenter"",""trial"":1,""time"":3823}]",NA,NA,NA,NA,NA,5,#3386FF,#D89F1C,0,10,0,40,0,863.6000000089407,39,0,550.5999999940395,10,1,experiment,NA,NA,0,0.1,0.9,1,0,272,7,NA
fcp-trial,308,1133310,0.0-283.0-0.0,voc_e2,11917,"[{""event"":""fullscreenenter"",""trial"":1,""time"":3823}]",NA,NA,NA,NA,NA,3,#D89F1C,#3386FF,10,0,1,38,1,926.7000000029802,37,1,391.20000000298023,10,1,experiment,NA,NA,0,0.9,0.1,0,1,273,7,NA
fcp-trial,309,1136133,0.0-284.0-0.0,voc_e2,11917,"[{""event"":""fullscreenenter"",""trial"":1,""time"":3823}]",NA,NA,NA,NA,NA,4,#1CD855,#FA92F8,0,0,1,38,1,765.8999999910593,39,0,550.7000000029802,0,0,experiment,NA,NA,2,0.5,0.5,4,5,274,7,NA
fcp-trial,310,1138598,0.0-285.0-0.0,voc_e2,11917,"[{""event"":""fullscreenenter"",""trial"":1,""time"":3823}]",NA,NA,NA,NA,NA,3,#1CD855,#FA92F8,0,0,1,38,1,631.5,39,0,326.5,0,0,experiment,NA,NA,2,0.5,0.5,4,5,275,7,NA
fcp-trial,311,1141878,0.0-286.0-0.0,voc_e2,11917,"[{""event"":""fullscreenenter"",""trial"":1,""time"":3823}]",NA,NA,NA,NA,NA,6,#3386FF,#D89F1C,0,10,0,40,0,1430.2000000029802,39,0,342.70000000298023,10,1,experiment,NA,NA,0,0.1,0.9,1,0,276,7,NA
fcp-trial,312,1144534,0.0-287.0-0.0,voc_e2,11917,"[{""event"":""fullscreenenter"",""trial"":1,""time"":3823}]",NA,NA,NA,NA,NA,3,#741CD8,#D8271C,10,10,0,38,1,663.5999999940395,39,0,486.70000000298023,10,1,experiment,NA,NA,1,0.3,0.7,3,2,277,7,NA
fcp-trial,313,1146885,0.0-288.0-0.0,voc_e2,11917,"[{""event"":""fullscreenenter"",""trial"":1,""time"":3823}]",NA,NA,NA,NA,NA,2,#FA92F8,#1CD855,0,0,0,38,1,510.70000000298023,37,1,334.5,0,0,experiment,NA,NA,2,0.5,0.5,5,4,278,7,NA
fcp-trial,314,1149509,0.0-289.0-0.0,voc_e2,11917,"[{""event"":""fullscreenenter"",""trial"":1,""time"":3823}]",NA,NA,NA,NA,NA,2,#741CD8,#D8271C,0,10,0,38,1,703.6000000089407,39,0,413.699999988079,10,1,experiment,NA,NA,1,0.3,0.7,3,2,279,7,NA
fcp-trial,315,1151997,0.0-290.0-0.0,voc_e2,11917,"[{""event"":""fullscreenenter"",""trial"":1,""time"":3823}]",NA,NA,NA,NA,NA,2,#D89F1C,#3386FF,10,0,1,38,1,640.4000000059605,37,1,342.30000001192093,10,1,experiment,NA,NA,0,0.9,0.1,0,1,280,7,NA
fcp-trial,316,1154517,0.0-291.0-0.0,voc_e2,11917,"[{""event"":""fullscreenenter"",""trial"":1,""time"":3823}]",NA,NA,NA,NA,NA,0,#1CD855,#FA92F8,0,0,1,38,1,687.5,39,0,326.69999998807907,0,0,experiment,NA,NA,2,0.5,0.5,4,5,281,7,NA
fcp-trial,317,1156781,0.0-292.0-0.0,voc_e2,11917,"[{""event"":""fullscreenenter"",""trial"":1,""time"":3823}]",NA,NA,NA,NA,NA,3,#D89F1C,#3386FF,10,0,1,38,1,415.59999999403954,37,1,342.29999999701977,10,1,experiment,NA,NA,0,0.9,0.1,0,1,282,7,NA
fcp-trial,318,1159629,0.0-293.0-0.0,voc_e2,11917,"[{""event"":""fullscreenenter"",""trial"":1,""time"":3823}]",NA,NA,NA,NA,NA,6,#741CD8,#D8271C,0,10,0,40,0,855.2999999970198,37,1,487.199999988079,0,0,experiment,NA,NA,1,0.3,0.7,3,2,283,7,NA
fcp-trial,319,1162174,0.0-294.0-0.0,voc_e2,11917,"[{""event"":""fullscreenenter"",""trial"":1,""time"":3823}]",NA,NA,NA,NA,NA,5,#D8271C,#741CD8,10,0,1,38,1,614.5999999940395,37,1,422.8999999910593,10,1,experiment,NA,NA,1,0.7,0.3,2,3,284,7,NA
fcp-trial,320,1165149,0.0-295.0-0.0,voc_e2,11917,"[{""event"":""fullscreenenter"",""trial"":1,""time"":3823}]",NA,NA,NA,NA,NA,4,#3386FF,#D89F1C,0,10,0,38,1,1028,39,0,439.6000000089407,10,1,experiment,NA,NA,0,0.1,0.9,1,0,285,7,NA
fcp-trial,321,1167846,0.0-296.0-0.0,voc_e2,11917,"[{""event"":""fullscreenenter"",""trial"":1,""time"":3823}]",NA,NA,NA,NA,NA,6,#1CD855,#FA92F8,10,0,1,40,0,815.2999999970198,39,0,374.59999999403954,0,0,experiment,NA,NA,2,0.5,0.5,4,5,286,7,NA
fcp-trial,322,1172989,0.0-297.0-0.0,voc_e2,11917,"[{""event"":""fullscreenenter"",""trial"":1,""time"":3823}]",NA,NA,NA,NA,NA,0,#741CD8,#D8271C,0,10,0,38,1,1230.7999999970198,39,0,2407.0999999940395,10,1,experiment,NA,NA,1,0.3,0.7,3,2,287,7,NA
fcp-trial,323,1177510,0.0-298.0-0.0,voc_e2,11917,"[{""event"":""fullscreenenter"",""trial"":1,""time"":3823}]",NA,NA,NA,NA,NA,5,#3386FF,#D89F1C,0,10,0,40,0,2503.199999988079,37,1,511.70000000298023,0,0,experiment,NA,NA,0,0.1,0.9,1,0,288,7,NA
fcp-trial,324,1180461,0.0-299.0-0.0,voc_e2,11917,"[{""event"":""fullscreenenter"",""trial"":1,""time"":3823}]",NA,NA,NA,NA,NA,1,#3386FF,#D89F1C,0,10,0,38,1,886.5,39,0,558.4000000059605,10,1,experiment,NA,NA,0,0.1,0.9,1,0,289,7,NA
fcp-trial,325,1183685,0.0-300.0-0.0,voc_e2,11917,"[{""event"":""fullscreenenter"",""trial"":1,""time"":3823}]",NA,NA,NA,NA,NA,5,#1CD855,#FA92F8,0,10,1,40,0,1320.7999999970198,37,1,397.90000000596046,0,1,experiment,NA,NA,2,0.5,0.5,4,5,290,7,NA
fcp-trial,326,1186341,0.0-301.0-0.0,voc_e2,11917,"[{""event"":""fullscreenenter"",""trial"":1,""time"":3823}]",NA,NA,NA,NA,NA,4,#D8271C,#741CD8,10,0,1,38,1,808.3999999910593,37,1,344.1000000089407,10,1,experiment,NA,NA,1,0.7,0.3,2,3,291,7,NA
fcp-trial,327,1189613,0.0-302.0-0.0,voc_e2,11917,"[{""event"":""fullscreenenter"",""trial"":1,""time"":3823}]",NA,NA,NA,NA,NA,1,#FA92F8,#1CD855,0,0,0,38,1,1269.5,37,1,494.800000011921,0,0,experiment,NA,NA,2,0.5,0.5,5,4,292,7,NA
fcp-trial,328,1192805,0.0-303.0-0.0,voc_e2,11917,"[{""event"":""fullscreenenter"",""trial"":1,""time"":3823}]",NA,NA,NA,NA,NA,1,#741CD8,#D8271C,0,10,0,38,1,1382.800000011921,39,0,303.1000000089407,10,1,experiment,NA,NA,1,0.3,0.7,3,2,293,7,NA
fcp-trial,329,1195797,0.0-304.0-0.0,voc_e2,11917,"[{""event"":""fullscreenenter"",""trial"":1,""time"":3823}]",NA,NA,NA,NA,NA,0,#D89F1C,#3386FF,0,0,1,38,1,992,37,1,495.300000011921,0,1,experiment,NA,NA,0,0.9,0.1,0,1,294,7,NA
fcp-trial,330,1198869,0.0-305.0-0.0,voc_e2,11917,"[{""event"":""fullscreenenter"",""trial"":1,""time"":3823}]",NA,NA,NA,NA,NA,3,#D8271C,#741CD8,10,0,1,38,1,1246.7000000029802,37,1,319.1000000089407,10,1,experiment,NA,NA,1,0.7,0.3,2,3,295,7,NA
fcp-trial,331,1201893,0.0-306.0-0.0,voc_e2,11917,"[{""event"":""fullscreenenter"",""trial"":1,""time"":3823}]",NA,NA,NA,NA,NA,6,#741CD8,#D8271C,10,10,0,40,0,1095.2000000029802,37,1,423.199999988079,10,0,experiment,NA,NA,1,0.3,0.7,3,2,296,7,NA
fcp-trial,332,1204933,0.0-307.0-0.0,voc_e2,11917,"[{""event"":""fullscreenenter"",""trial"":1,""time"":3823}]",NA,NA,NA,NA,NA,4,#3386FF,#D89F1C,0,10,0,38,1,1182.3999999910593,39,0,351.5,10,1,experiment,NA,NA,0,0.1,0.9,1,0,297,7,NA
fcp-trial,333,1208333,0.0-308.0-0.0,voc_e2,11917,"[{""event"":""fullscreenenter"",""trial"":1,""time"":3823}]",NA,NA,NA,NA,NA,5,#D8271C,#741CD8,10,10,1,40,0,1335.5,39,0,558.9000000059605,10,0,experiment,NA,NA,1,0.7,0.3,2,3,298,7,NA
fcp-trial,334,1211270,0.0-309.0-0.0,voc_e2,11917,"[{""event"":""fullscreenenter"",""trial"":1,""time"":3823}]",NA,NA,NA,NA,NA,2,#3386FF,#D89F1C,0,0,0,38,1,782.5999999940395,39,0,647,0,1,experiment,NA,NA,0,0.1,0.9,1,0,299,7,NA
fcp-trial,335,1214029,0.0-310.0-0.0,voc_e2,11917,"[{""event"":""fullscreenenter"",""trial"":1,""time"":3823}]",NA,NA,NA,NA,NA,5,#3386FF,#D89F1C,10,10,0,40,0,862.2000000029802,39,0,391.1000000089407,10,1,experiment,NA,NA,0,0.1,0.9,1,0,300,7,NA
fcp-trial,336,1217342,0.0-311.0-0.0,voc_e2,11917,"[{""event"":""fullscreenenter"",""trial"":1,""time"":3823}]",NA,NA,NA,NA,NA,4,#FA92F8,#1CD855,0,0,0,38,1,1009,37,1,798.7999999970198,0,0,experiment,NA,NA,2,0.5,0.5,5,4,301,7,NA
fcp-trial,337,1220229,0.0-312.0-0.0,voc_e2,11917,"[{""event"":""fullscreenenter"",""trial"":1,""time"":3823}]",NA,NA,NA,NA,NA,2,#D8271C,#741CD8,0,0,1,38,1,1070.7000000029802,37,1,311,0,1,experiment,NA,NA,1,0.7,0.3,2,3,302,7,NA
fcp-trial,338,1223365,0.0-313.0-0.0,voc_e2,11917,"[{""event"":""fullscreenenter"",""trial"":1,""time"":3823}]",NA,NA,NA,NA,NA,0,#D89F1C,#3386FF,0,0,1,38,1,1024.0999999940395,37,1,605.7000000029802,0,1,experiment,NA,NA,0,0.9,0.1,0,1,303,7,NA
fcp-trial,339,1226245,0.0-314.0-0.0,voc_e2,11917,"[{""event"":""fullscreenenter"",""trial"":1,""time"":3823}]",NA,NA,NA,NA,NA,5,#1CD855,#FA92F8,0,0,1,40,0,919.7999999970198,37,1,454.20000000298023,0,1,experiment,NA,NA,2,0.5,0.5,4,5,304,7,NA
fcp-trial,340,1229949,0.0-315.0-0.0,voc_e2,11917,"[{""event"":""fullscreenenter"",""trial"":1,""time"":3823}]",NA,NA,NA,NA,NA,3,#D89F1C,#3386FF,10,0,1,38,1,1207.3999999910593,37,1,991.9000000059604,10,1,experiment,NA,NA,0,0.9,0.1,0,1,305,7,NA
fcp-trial,341,1233037,0.0-316.0-0.0,voc_e2,11917,"[{""event"":""fullscreenenter"",""trial"":1,""time"":3823}]",NA,NA,NA,NA,NA,6,#FA92F8,#1CD855,0,10,0,40,0,1022.7999999970198,39,0,558.7000000029802,10,1,experiment,NA,NA,2,0.5,0.5,5,4,306,7,NA
fcp-trial,342,1235845,0.0-317.0-0.0,voc_e2,11917,"[{""event"":""fullscreenenter"",""trial"":1,""time"":3823}]",NA,NA,NA,NA,NA,0,#D8271C,#741CD8,0,0,1,38,1,926.8999999910593,37,1,375.300000011921,0,1,experiment,NA,NA,1,0.7,0.3,2,3,307,7,NA
fcp-trial,343,1239197,0.0-318.0-0.0,voc_e2,11917,"[{""event"":""fullscreenenter"",""trial"":1,""time"":3823}]",NA,NA,NA,NA,NA,0,#1CD855,#FA92F8,0,0,1,38,1,1326.8999999910593,39,0,519.1999999880791,0,0,experiment,NA,NA,2,0.5,0.5,4,5,308,7,NA
fcp-trial,344,1242526,0.0-319.0-0.0,voc_e2,11917,"[{""event"":""fullscreenenter"",""trial"":1,""time"":3823}]",NA,NA,NA,NA,NA,1,#3386FF,#D89F1C,0,10,0,38,1,1119.5,39,0,704.2999999970198,10,1,experiment,NA,NA,0,0.1,0.9,1,0,309,7,NA
fcp-trial,345,1245981,0.0-320.0-0.0,voc_e2,11917,"[{""event"":""fullscreenenter"",""trial"":1,""time"":3823}]",NA,NA,NA,NA,NA,1,#D8271C,#741CD8,10,0,1,38,1,1461.7000000029802,37,1,487.09999999403954,10,1,experiment,NA,NA,1,0.7,0.3,2,3,310,7,NA
fcp-trial,346,1249685,0.0-321.0-0.0,voc_e2,11917,"[{""event"":""fullscreenenter"",""trial"":1,""time"":3823}]",NA,NA,NA,NA,NA,4,#741CD8,#D8271C,10,0,0,38,1,1607.5,39,0,589.8000000119209,0,1,experiment,NA,NA,1,0.3,0.7,3,2,311,7,NA
fcp-trial,347,1255068,0.0-322.0-0.0,voc_e2,11917,"[{""event"":""fullscreenenter"",""trial"":1,""time"":3823}]",NA,NA,NA,NA,NA,6,#D89F1C,#3386FF,0,0,1,40,0,3134.7999999970198,39,0,742.1000000089407,0,0,experiment,NA,NA,0,0.9,0.1,0,1,312,7,NA
fcp-trial,348,1258606,0.0-323.0-0.0,voc_e2,11917,"[{""event"":""fullscreenenter"",""trial"":1,""time"":3823}]",NA,NA,NA,NA,NA,3,#1CD855,#FA92F8,10,10,1,38,1,1111.7999999970198,39,0,918.9000000059604,10,0,experiment,NA,NA,2,0.5,0.5,4,5,313,7,NA
fcp-trial,349,1261101,0.0-324.0-0.0,voc_e2,11917,"[{""event"":""fullscreenenter"",""trial"":1,""time"":3823}]",NA,NA,NA,NA,NA,1,#FA92F8,#1CD855,10,0,0,38,1,661.0999999940395,37,1,326.09999999403954,10,0,experiment,NA,NA,2,0.5,0.5,5,4,314,7,NA
fcp-trial,350,1264332,0.0-325.0-0.0,voc_e2,11917,"[{""event"":""fullscreenenter"",""trial"":1,""time"":3823}]",NA,NA,NA,NA,NA,2,#FA92F8,#1CD855,0,10,0,38,1,1327.0999999940395,37,1,398.6000000089407,0,0,experiment,NA,NA,2,0.5,0.5,5,4,315,7,NA
audio-instructions,351,1272541,0.0-326.0,voc_e2,11917,"[{""event"":""fullscreenenter"",""trial"":1,""time"":3823}]",NA,2564.9000000059605,static/audio/finished.wav,NA,0,NA,NA,NA,NA,NA,NA,NA,NA,NA,NA,NA,NA,NA,NA,NA,NA,NA,NA,NA,NA,NA,NA,NA,NA,NA
audio-instructions,352,1284358,0.0-327.0-0.0,voc_e2,11917,"[{""event"":""fullscreenenter"",""trial"":1,""time"":3823}]",NA,982.1000000089408,static/audio/explicit1.wav,NA,0,NA,NA,NA,NA,NA,NA,NA,NA,NA,NA,NA,NA,NA,NA,NA,NA,NA,NA,NA,NA,NA,NA,NA,NA,NA
audio-instructions,353,1292390,0.0-327.0-1.0,voc_e2,11917,"[{""event"":""fullscreenenter"",""trial"":1,""time"":3823}]",NA,434.29999999701977,static/audio/explicit2.wav,NA,0,NA,NA,NA,NA,NA,NA,NA,NA,NA,NA,NA,NA,NA,NA,NA,NA,NA,NA,NA,NA,NA,NA,NA,NA,NA
image-slider-response,354,1296560,0.0-328.0,voc_e2,11917,"[{""event"":""fullscreenenter"",""trial"":1,""time"":3823}]",NA,4168.600000008941,static/img/machines/machine6.png,NA,NA,NA,NA,NA,NA,NA,NA,NA,NA,NA,NA,NA,NA,NA,NA,explicit,NA,NA,NA,NA,NA,NA,NA,NA,NA,5
image-slider-response,355,1302000,0.0-329.0,voc_e2,11917,"[{""event"":""fullscreenenter"",""trial"":1,""time"":3823}]",NA,5438.5999999940395,static/img/machines/machine3.png,NA,NA,NA,NA,NA,NA,NA,NA,NA,NA,NA,NA,NA,NA,NA,NA,explicit,NA,NA,NA,NA,NA,NA,NA,NA,NA,4
image-slider-response,356,1308608,0.0-330.0,voc_e2,11917,"[{""event"":""fullscreenenter"",""trial"":1,""time"":3823}]",NA,6607.100000008941,static/img/machines/machine1.png,NA,NA,NA,NA,NA,NA,NA,NA,NA,NA,NA,NA,NA,NA,NA,NA,explicit,NA,NA,NA,NA,NA,NA,NA,NA,NA,8
image-slider-response,357,1311392,0.0-331.0,voc_e2,11917,"[{""event"":""fullscreenenter"",""trial"":1,""time"":3823}]",NA,2782.79999999702,static/img/machines/machine4.png,NA,NA,NA,NA,NA,NA,NA,NA,NA,NA,NA,NA,NA,NA,NA,NA,explicit,NA,NA,NA,NA,NA,NA,NA,NA,NA,8
image-slider-response,358,1316671,0.0-332.0,voc_e2,11917,"[{""event"":""fullscreenenter"",""trial"":1,""time"":3823}]",NA,5277,static/img/machines/machine2.png,NA,NA,NA,NA,NA,NA,NA,NA,NA,NA,NA,NA,NA,NA,NA,NA,explicit,NA,NA,NA,NA,NA,NA,NA,NA,NA,5
image-slider-response,359,1319447,0.0-333.0,voc_e2,11917,"[{""event"":""fullscreenenter"",""trial"":1,""time"":3823}]",NA,2774.70000000298,static/img/machines/machine5.png,NA,NA,NA,NA,NA,NA,NA,NA,NA,NA,NA,NA,NA,NA,NA,NA,explicit,NA,NA,NA,NA,NA,NA,NA,NA,NA,7
