trial_type,trial_index,time_elapsed,internal_node_id,task_version,subject_id,interactions,success,rt,stimulus,key_press,button_pressed,offer,arcade_color_L,arcade_color_R,arcade_outcome_L,arcade_outcome_R,correct,stage_1_key,stage_1_choice,stage_1_rt,stage_2_key,stage_2_choice,stage_2_rt,stage_3_outcome,accuracy,phase,responses,num_errors,context,reward_prob_L,reward_prob_R,arcade_id_L,arcade_id_R,trial,block,response
pavlovia,0,6,0.0-0.0,voc_e2,12032,[],NA,NA,NA,NA,NA,NA,NA,NA,NA,NA,NA,NA,NA,NA,NA,NA,NA,NA,NA,NA,NA,NA,NA,NA,NA,NA,NA,NA,NA,NA
fullscreen,1,54014,0.0-1.0,voc_e2,12032,"[{""event"":""fullscreenenter"",""trial"":1,""time"":53030}]",TRUE,NA,NA,NA,NA,NA,NA,NA,NA,NA,NA,NA,NA,NA,NA,NA,NA,NA,NA,NA,NA,NA,NA,NA,NA,NA,NA,NA,NA,NA
audio-keyboard-response,2,58644,0.0-2.0,voc_e2,12032,"[{""event"":""fullscreenenter"",""trial"":1,""time"":53030}]",NA,3891,static/audio/beep_loop.wav,175,NA,NA,NA,NA,NA,NA,NA,NA,NA,NA,NA,NA,NA,NA,NA,NA,NA,NA,NA,NA,NA,NA,NA,NA,NA,NA
audio-test,3,61232,0.0-3.0,voc_e2,12032,"[{""event"":""fullscreenenter"",""trial"":1,""time"":53030}]",NA,NA,static/audio/turtle.wav,NA,3,NA,NA,NA,NA,NA,NA,NA,NA,NA,NA,NA,NA,NA,NA,NA,NA,NA,NA,NA,NA,NA,NA,NA,NA,NA
audio-test,4,64708,0.0-4.0,voc_e2,12032,"[{""event"":""fullscreenenter"",""trial"":1,""time"":53030}]",NA,NA,static/audio/shark.wav,NA,2,NA,NA,NA,NA,NA,NA,NA,NA,NA,NA,NA,NA,NA,NA,NA,NA,NA,NA,NA,NA,NA,NA,NA,NA,NA
audio-instructions,5,72088,0.0-5.0-0.0,voc_e2,12032,"[{""event"":""fullscreenenter"",""trial"":1,""time"":53030}]",NA,1595.5999999940395,static/audio/instructions1.wav,NA,0,NA,NA,NA,NA,NA,NA,NA,NA,NA,NA,NA,NA,NA,NA,NA,NA,NA,NA,NA,NA,NA,NA,NA,NA,NA
audio-instructions,6,80393,0.0-5.0-1.0,voc_e2,12032,"[{""event"":""fullscreenenter"",""trial"":1,""time"":53030}]",NA,1560.4000000059605,static/audio/instructions2.wav,NA,0,NA,NA,NA,NA,NA,NA,NA,NA,NA,NA,NA,NA,NA,NA,NA,NA,NA,NA,NA,NA,NA,NA,NA,NA,NA
audio-instructions,7,90004,0.0-5.0-2.0,voc_e2,12032,"[{""event"":""fullscreenenter"",""trial"":1,""time"":53030}]",NA,3801.5,static/audio/instructions3.wav,NA,0,NA,NA,NA,NA,NA,NA,NA,NA,NA,NA,NA,NA,NA,NA,NA,NA,NA,NA,NA,NA,NA,NA,NA,NA,NA
audio-instructions,8,105988,0.0-5.0-3.0,voc_e2,12032,"[{""event"":""fullscreenenter"",""trial"":1,""time"":53030}]",NA,2756.199999988079,static/audio/instructions4.wav,NA,0,NA,NA,NA,NA,NA,NA,NA,NA,NA,NA,NA,NA,NA,NA,NA,NA,NA,NA,NA,NA,NA,NA,NA,NA,NA
audio-instructions,9,126351,0.0-5.0-4.0,voc_e2,12032,"[{""event"":""fullscreenenter"",""trial"":1,""time"":53030}]",NA,10978.70000001788,static/audio/instructions5.wav,NA,0,NA,NA,NA,NA,NA,NA,NA,NA,NA,NA,NA,NA,NA,NA,NA,NA,NA,NA,NA,NA,NA,NA,NA,NA,NA
fcp-practice,10,136671,0.0-5.0-5.0-0.0,voc_e2,12032,"[{""event"":""fullscreenenter"",""trial"":1,""time"":53030}]",NA,NA,NA,NA,NA,NA,#EDC948,#46d3c8,10,0,1,null,null,null,37,1,8795.399999976158,10,1,practice,NA,NA,NA,NA,NA,NA,NA,NA,NA,NA
fcp-practice,11,140001,0.0-5.0-5.0-1.0,voc_e2,12032,"[{""event"":""fullscreenenter"",""trial"":1,""time"":53030}]",NA,NA,NA,NA,NA,NA,#EDC948,#46d3c8,10,0,1,null,null,null,37,1,1817.800000011921,10,1,practice,NA,NA,NA,NA,NA,NA,NA,NA,NA,NA
fcp-practice,12,143771,0.0-5.0-5.0-2.0,voc_e2,12032,"[{""event"":""fullscreenenter"",""trial"":1,""time"":53030}]",NA,NA,NA,NA,NA,NA,#EDC948,#46d3c8,0,10,1,null,null,null,37,1,2264.600000023842,0,1,practice,NA,NA,NA,NA,NA,NA,NA,NA,NA,NA
fcp-practice,13,145619,0.0-5.0-5.0-3.0,voc_e2,12032,"[{""event"":""fullscreenenter"",""trial"":1,""time"":53030}]",NA,NA,NA,NA,NA,NA,#EDC948,#46d3c8,10,0,1,null,null,null,37,1,342.69999998807907,10,1,practice,NA,NA,NA,NA,NA,NA,NA,NA,NA,NA
fcp-practice,14,152098,0.0-5.0-5.0-4.0,voc_e2,12032,"[{""event"":""fullscreenenter"",""trial"":1,""time"":53030}]",NA,NA,NA,NA,NA,NA,#EDC948,#46d3c8,10,0,1,null,null,null,37,1,4973.5999999940395,10,1,practice,NA,NA,NA,NA,NA,NA,NA,NA,NA,NA
audio-instructions,15,175189,0.0-5.0-6.0,voc_e2,12032,"[{""event"":""fullscreenenter"",""trial"":1,""time"":53030}]",NA,4642.9000000059605,static/audio/instructions6.wav,NA,0,NA,NA,NA,NA,NA,NA,NA,NA,NA,NA,NA,NA,NA,NA,NA,NA,NA,NA,NA,NA,NA,NA,NA,NA,NA
audio-instructions,16,196121,0.0-5.0-7.0,voc_e2,12032,"[{""event"":""fullscreenenter"",""trial"":1,""time"":53030}]",NA,1735.5999999940395,static/audio/instructions7.wav,NA,0,NA,NA,NA,NA,NA,NA,NA,NA,NA,NA,NA,NA,NA,NA,NA,NA,NA,NA,NA,NA,NA,NA,NA,NA,NA
audio-instructions,17,210334,0.0-5.0-8.0,voc_e2,12032,"[{""event"":""fullscreenenter"",""trial"":1,""time"":53030}]",NA,4738.5999999940395,static/audio/instructions8.wav,NA,0,NA,NA,NA,NA,NA,NA,NA,NA,NA,NA,NA,NA,NA,NA,NA,NA,NA,NA,NA,NA,NA,NA,NA,NA,NA
fcp-comprehension,18,279617,0.0-5.0-9.0,voc_e2,12032,"[{""event"":""fullscreenenter"",""trial"":1,""time"":53030}]",NA,69281,NA,NA,NA,NA,NA,NA,NA,NA,NA,NA,NA,NA,NA,NA,NA,NA,NA,NA,"true,true",0,NA,NA,NA,NA,NA,NA,NA,NA
audio-instructions,19,288894,0.0-6.0-0.0,voc_e2,12032,"[{""event"":""fullscreenenter"",""trial"":1,""time"":53030}]",NA,3004.5,static/audio/instructions9.wav,NA,0,NA,NA,NA,NA,NA,NA,NA,NA,NA,NA,NA,NA,NA,NA,NA,NA,NA,NA,NA,NA,NA,NA,NA,NA,NA
audio-instructions,20,307923,0.0-6.0-1.0,voc_e2,12032,"[{""event"":""fullscreenenter"",""trial"":1,""time"":53030}]",NA,6912.799999982119,static/audio/instructions10.wav,NA,0,NA,NA,NA,NA,NA,NA,NA,NA,NA,NA,NA,NA,NA,NA,NA,NA,NA,NA,NA,NA,NA,NA,NA,NA,NA
fcp-trial,21,312141,0.0-6.0-2.0,voc_e2,12032,"[{""event"":""fullscreenenter"",""trial"":1,""time"":53030}]",NA,NA,NA,NA,NA,0,#EDC948,#46d3c8,10,10,1,38,1,2171.7000000178814,39,0,495.40000000596046,10,0,practice,NA,NA,NA,NA,NA,NA,NA,NA,NA,NA
audio-instructions,22,350923,0.0-6.0-3.0,voc_e2,12032,"[{""event"":""fullscreenenter"",""trial"":1,""time"":53030}]",NA,27773.19999998808,static/audio/instructions11.wav,NA,0,NA,NA,NA,NA,NA,NA,NA,NA,NA,NA,NA,NA,NA,NA,NA,NA,NA,NA,NA,NA,NA,NA,NA,NA,NA
fcp-trial,23,354880,0.0-6.0-4.0,voc_e2,12032,"[{""event"":""fullscreenenter"",""trial"":1,""time"":53030}]",NA,NA,NA,NA,NA,6,#EDC948,#46d3c8,10,10,1,40,0,2018.9000000059605,37,1,433.09999999403954,10,1,practice,NA,NA,NA,NA,NA,NA,NA,NA,NA,NA
audio-instructions,24,378218,0.0-6.0-5.0,voc_e2,12032,"[{""event"":""fullscreenenter"",""trial"":1,""time"":53030}]",NA,4655,static/audio/instructions12.wav,NA,0,NA,NA,NA,NA,NA,NA,NA,NA,NA,NA,NA,NA,NA,NA,NA,NA,NA,NA,NA,NA,NA,NA,NA,NA,NA
audio-instructions,25,388666,0.0-6.0-6.0,voc_e2,12032,"[{""event"":""fullscreenenter"",""trial"":1,""time"":53030}]",NA,2853.0999999940395,static/audio/instructions13.wav,NA,0,NA,NA,NA,NA,NA,NA,NA,NA,NA,NA,NA,NA,NA,NA,NA,NA,NA,NA,NA,NA,NA,NA,NA,NA,NA
audio-instructions,26,399511,0.0-6.0-7.0,voc_e2,12032,"[{""event"":""fullscreenenter"",""trial"":1,""time"":53030}]",NA,2398,static/audio/instructions14.wav,NA,0,NA,NA,NA,NA,NA,NA,NA,NA,NA,NA,NA,NA,NA,NA,NA,NA,NA,NA,NA,NA,NA,NA,NA,NA,NA
audio-instructions,27,407776,0.0-7.0-0.0,voc_e2,12032,"[{""event"":""fullscreenenter"",""trial"":1,""time"":53030}]",NA,1353.199999988079,static/audio/instructions15.wav,NA,0,NA,NA,NA,NA,NA,NA,NA,NA,NA,NA,NA,NA,NA,NA,NA,NA,NA,NA,NA,NA,NA,NA,NA,NA,NA
audio-instructions,28,423062,0.0-7.0-1.0,voc_e2,12032,"[{""event"":""fullscreenenter"",""trial"":1,""time"":53030}]",NA,8458.800000011921,static/audio/instructions16.wav,NA,0,NA,NA,NA,NA,NA,NA,NA,NA,NA,NA,NA,NA,NA,NA,NA,NA,NA,NA,NA,NA,NA,NA,NA,NA,NA
audio-instructions,29,431583,0.0-7.0-2.0,voc_e2,12032,"[{""event"":""fullscreenenter"",""trial"":1,""time"":53030}]",NA,849.8999999761581,static/audio/instructions17.wav,NA,0,NA,NA,NA,NA,NA,NA,NA,NA,NA,NA,NA,NA,NA,NA,NA,NA,NA,NA,NA,NA,NA,NA,NA,NA,NA
audio-instructions,30,440649,0.0-7.0-3.0,voc_e2,12032,"[{""event"":""fullscreenenter"",""trial"":1,""time"":53030}]",NA,1297,static/audio/instructions18.wav,NA,0,NA,NA,NA,NA,NA,NA,NA,NA,NA,NA,NA,NA,NA,NA,NA,NA,NA,NA,NA,NA,NA,NA,NA,NA,NA
audio-instructions,31,447940,0.0-7.0-4.0,voc_e2,12032,"[{""event"":""fullscreenenter"",""trial"":1,""time"":53030}]",NA,556.8999999761581,static/audio/instructions19.wav,NA,0,NA,NA,NA,NA,NA,NA,NA,NA,NA,NA,NA,NA,NA,NA,NA,NA,NA,NA,NA,NA,NA,NA,NA,NA,NA
fcp-comprehension,32,456318,0.0-7.0-5.0,voc_e2,12032,"[{""event"":""fullscreenenter"",""trial"":1,""time"":53030}]",NA,8377.09999999404,NA,NA,NA,NA,NA,NA,NA,NA,NA,NA,NA,NA,NA,NA,NA,NA,NA,NA,"false,false,false,true",0,NA,NA,NA,NA,NA,NA,NA,NA
audio-instructions,33,646199,0.0-8.0,voc_e2,12032,"[{""event"":""fullscreenenter"",""trial"":1,""time"":53030},{""event"":""blur"",""trial"":33,""time"":625000},{""event"":""focus"",""trial"":33,""time"":644662}]",NA,180666.30000001192,static/audio/ready.wav,NA,0,NA,NA,NA,NA,NA,NA,NA,NA,NA,NA,NA,NA,NA,NA,NA,NA,NA,NA,NA,NA,NA,NA,NA,NA,NA
fcp-trial,34,653598,0.0-9.0-0.0,voc_e2,12032,"[{""event"":""fullscreenenter"",""trial"":1,""time"":53030},{""event"":""blur"",""trial"":33,""time"":625000},{""event"":""focus"",""trial"":33,""time"":644662}]",NA,NA,NA,NA,NA,3,#3386FF,#D89F1C,10,10,1,40,0,5457.799999982119,39,0,434.5,10,0,experiment,NA,NA,1,0.7,0.3,2,3,1,1,NA
fcp-trial,35,657229,0.0-10.0-0.0,voc_e2,12032,"[{""event"":""fullscreenenter"",""trial"":1,""time"":53030},{""event"":""blur"",""trial"":33,""time"":625000},{""event"":""focus"",""trial"":33,""time"":644662}]",NA,NA,NA,NA,NA,5,#1CD855,#FA92F8,0,0,1,40,0,1141,37,1,982.8000000119209,0,1,experiment,NA,NA,0,0.9,0.1,0,1,2,1,NA
fcp-trial,36,661690,0.0-11.0-0.0,voc_e2,12032,"[{""event"":""fullscreenenter"",""trial"":1,""time"":53030},{""event"":""blur"",""trial"":33,""time"":625000},{""event"":""focus"",""trial"":33,""time"":644662}]",NA,NA,NA,NA,NA,5,#3386FF,#D89F1C,10,0,1,38,1,2595.5999999940395,37,1,359.19999998807907,10,1,experiment,NA,NA,1,0.7,0.3,2,3,3,1,NA
fcp-trial,37,663972,0.0-12.0-0.0,voc_e2,12032,"[{""event"":""fullscreenenter"",""trial"":1,""time"":53030},{""event"":""blur"",""trial"":33,""time"":625000},{""event"":""focus"",""trial"":33,""time"":644662}]",NA,NA,NA,NA,NA,2,#741CD8,#D8271C,10,0,0,38,1,298.69999998807907,39,0,478.19999998807907,0,1,experiment,NA,NA,2,0.5,0.5,5,4,4,1,NA
fcp-trial,38,666268,0.0-13.0-0.0,voc_e2,12032,"[{""event"":""fullscreenenter"",""trial"":1,""time"":53030},{""event"":""blur"",""trial"":33,""time"":625000},{""event"":""focus"",""trial"":33,""time"":644662}]",NA,NA,NA,NA,NA,6,#FA92F8,#1CD855,10,10,0,40,0,282.59999999403954,39,0,507.69999998807907,10,1,experiment,NA,NA,0,0.1,0.9,1,0,5,1,NA
fcp-trial,39,669364,0.0-14.0-0.0,voc_e2,12032,"[{""event"":""fullscreenenter"",""trial"":1,""time"":53030},{""event"":""blur"",""trial"":33,""time"":625000},{""event"":""focus"",""trial"":33,""time"":644662}]",NA,NA,NA,NA,NA,3,#D8271C,#741CD8,0,0,1,40,0,984.5,39,0,607.5999999940395,0,0,experiment,NA,NA,2,0.5,0.5,4,5,6,1,NA
fcp-trial,40,673242,0.0-15.0-0.0,voc_e2,12032,"[{""event"":""fullscreenenter"",""trial"":1,""time"":53030},{""event"":""blur"",""trial"":33,""time"":625000},{""event"":""focus"",""trial"":33,""time"":644662}]",NA,NA,NA,NA,NA,1,#D89F1C,#3386FF,10,10,0,38,1,534.6000000238419,37,1,1838.0999999940395,10,0,experiment,NA,NA,1,0.3,0.7,3,2,7,1,NA
fcp-trial,41,676366,0.0-16.0-0.0,voc_e2,12032,"[{""event"":""fullscreenenter"",""trial"":1,""time"":53030},{""event"":""blur"",""trial"":33,""time"":625000},{""event"":""focus"",""trial"":33,""time"":644662}]",NA,NA,NA,NA,NA,1,#1CD855,#FA92F8,10,0,1,38,1,1185.7000000178814,37,1,434.5,10,1,experiment,NA,NA,0,0.9,0.1,0,1,8,1,NA
fcp-trial,42,678805,0.0-17.0-0.0,voc_e2,12032,"[{""event"":""fullscreenenter"",""trial"":1,""time"":53030},{""event"":""blur"",""trial"":33,""time"":625000},{""event"":""focus"",""trial"":33,""time"":644662}]",NA,NA,NA,NA,NA,2,#D89F1C,#3386FF,0,10,0,38,1,412.5,39,0,522.1999999880791,10,1,experiment,NA,NA,1,0.3,0.7,3,2,9,1,NA
fcp-trial,43,681872,0.0-18.0-0.0,voc_e2,12032,"[{""event"":""fullscreenenter"",""trial"":1,""time"":53030},{""event"":""blur"",""trial"":33,""time"":625000},{""event"":""focus"",""trial"":33,""time"":644662}]",NA,NA,NA,NA,NA,4,#D8271C,#741CD8,10,0,1,38,1,847.3999999761581,39,0,714.3000000119209,0,0,experiment,NA,NA,2,0.5,0.5,4,5,10,1,NA
fcp-trial,44,684467,0.0-19.0-0.0,voc_e2,12032,"[{""event"":""fullscreenenter"",""trial"":1,""time"":53030},{""event"":""blur"",""trial"":33,""time"":625000},{""event"":""focus"",""trial"":33,""time"":644662}]",NA,NA,NA,NA,NA,2,#1CD855,#FA92F8,10,0,1,40,0,420.80000001192093,37,1,670.1999999880791,10,1,experiment,NA,NA,0,0.9,0.1,0,1,11,1,NA
fcp-trial,45,687077,0.0-20.0-0.0,voc_e2,12032,"[{""event"":""fullscreenenter"",""trial"":1,""time"":53030},{""event"":""blur"",""trial"":33,""time"":625000},{""event"":""focus"",""trial"":33,""time"":644662}]",NA,NA,NA,NA,NA,0,#741CD8,#D8271C,10,10,0,38,1,281.40000000596046,37,1,823,10,0,experiment,NA,NA,2,0.5,0.5,5,4,12,1,NA
fcp-trial,46,691134,0.0-21.0-0.0,voc_e2,12032,"[{""event"":""fullscreenenter"",""trial"":1,""time"":53030},{""event"":""blur"",""trial"":33,""time"":625000},{""event"":""focus"",""trial"":33,""time"":644662}]",NA,NA,NA,NA,NA,0,#D89F1C,#3386FF,0,10,0,40,0,1893.2999999821186,37,1,658.9000000059605,0,0,experiment,NA,NA,1,0.3,0.7,3,2,13,1,NA
fcp-trial,47,693908,0.0-22.0-0.0,voc_e2,12032,"[{""event"":""fullscreenenter"",""trial"":1,""time"":53030},{""event"":""blur"",""trial"":33,""time"":625000},{""event"":""focus"",""trial"":33,""time"":644662}]",NA,NA,NA,NA,NA,0,#1CD855,#FA92F8,10,0,1,38,1,745.8000000119209,37,1,522.8000000119209,10,1,experiment,NA,NA,0,0.9,0.1,0,1,14,1,NA
fcp-trial,48,696484,0.0-23.0-0.0,voc_e2,12032,"[{""event"":""fullscreenenter"",""trial"":1,""time"":53030},{""event"":""blur"",""trial"":33,""time"":625000},{""event"":""focus"",""trial"":33,""time"":644662}]",NA,NA,NA,NA,NA,5,#D8271C,#741CD8,0,10,1,38,1,578.8000000119209,37,1,493.30000001192093,0,1,experiment,NA,NA,2,0.5,0.5,4,5,15,1,NA
fcp-trial,49,698981,0.0-24.0-0.0,voc_e2,12032,"[{""event"":""fullscreenenter"",""trial"":1,""time"":53030},{""event"":""blur"",""trial"":33,""time"":625000},{""event"":""focus"",""trial"":33,""time"":644662}]",NA,NA,NA,NA,NA,1,#741CD8,#D8271C,0,10,0,38,1,363.90000000596046,39,0,628.0999999940395,10,1,experiment,NA,NA,2,0.5,0.5,5,4,16,1,NA
fcp-trial,50,701211,0.0-25.0-0.0,voc_e2,12032,"[{""event"":""fullscreenenter"",""trial"":1,""time"":53030},{""event"":""blur"",""trial"":33,""time"":625000},{""event"":""focus"",""trial"":33,""time"":644662}]",NA,NA,NA,NA,NA,4,#D89F1C,#3386FF,0,10,0,38,1,2.4000000059604645,39,0,724.5999999940395,10,1,experiment,NA,NA,1,0.3,0.7,3,2,17,1,NA
fcp-trial,51,703557,0.0-26.0-0.0,voc_e2,12032,"[{""event"":""fullscreenenter"",""trial"":1,""time"":53030},{""event"":""blur"",""trial"":33,""time"":625000},{""event"":""focus"",""trial"":33,""time"":644662}]",NA,NA,NA,NA,NA,4,#FA92F8,#1CD855,0,10,0,40,0,366.2999999821186,37,1,476.09999999403954,0,0,experiment,NA,NA,0,0.1,0.9,1,0,18,1,NA
fcp-trial,52,706437,0.0-27.0-0.0,voc_e2,12032,"[{""event"":""fullscreenenter"",""trial"":1,""time"":53030},{""event"":""blur"",""trial"":33,""time"":625000},{""event"":""focus"",""trial"":33,""time"":644662}]",NA,NA,NA,NA,NA,6,#741CD8,#D8271C,10,10,0,38,1,710.5999999940395,37,1,662.3000000119209,10,0,experiment,NA,NA,2,0.5,0.5,5,4,19,1,NA
fcp-trial,53,708365,0.0-28.0-0.0,voc_e2,12032,"[{""event"":""fullscreenenter"",""trial"":1,""time"":53030},{""event"":""blur"",""trial"":33,""time"":625000},{""event"":""focus"",""trial"":33,""time"":644662}]",NA,NA,NA,NA,NA,6,#3386FF,#D89F1C,10,0,1,38,1,136.89999997615814,37,1,285,10,1,experiment,NA,NA,1,0.7,0.3,2,3,20,1,NA
fcp-trial,54,713041,0.0-29.0-0.0,voc_e2,12032,"[{""event"":""fullscreenenter"",""trial"":1,""time"":53030},{""event"":""blur"",""trial"":33,""time"":625000},{""event"":""focus"",""trial"":33,""time"":644662}]",NA,NA,NA,NA,NA,3,#FA92F8,#1CD855,0,10,0,38,1,133.60000002384186,37,1,3037.5,0,0,experiment,NA,NA,0,0.1,0.9,1,0,21,1,NA
fcp-trial,55,716188,0.0-30.0-0.0,voc_e2,12032,"[{""event"":""fullscreenenter"",""trial"":1,""time"":53030},{""event"":""blur"",""trial"":33,""time"":625000},{""event"":""focus"",""trial"":33,""time"":644662}]",NA,NA,NA,NA,NA,1,#FA92F8,#1CD855,0,10,0,40,0,168,37,1,1473.7000000178814,0,0,experiment,NA,NA,0,0.1,0.9,1,0,22,1,NA
fcp-trial,56,718196,0.0-31.0-0.0,voc_e2,12032,"[{""event"":""fullscreenenter"",""trial"":1,""time"":53030},{""event"":""blur"",""trial"":33,""time"":625000},{""event"":""focus"",""trial"":33,""time"":644662}]",NA,NA,NA,NA,NA,6,#1CD855,#FA92F8,10,0,1,38,1,117.2000000178814,39,0,385.2000000178814,0,0,experiment,NA,NA,0,0.9,0.1,0,1,23,1,NA
fcp-trial,57,720481,0.0-32.0-0.0,voc_e2,12032,"[{""event"":""fullscreenenter"",""trial"":1,""time"":53030},{""event"":""blur"",""trial"":33,""time"":625000},{""event"":""focus"",""trial"":33,""time"":644662}]",NA,NA,NA,NA,NA,2,#3386FF,#D89F1C,0,10,1,40,0,30.30000001192093,37,1,749.5,0,1,experiment,NA,NA,1,0.7,0.3,2,3,24,1,NA
fcp-trial,58,725004,0.0-33.0-0.0,voc_e2,12032,"[{""event"":""fullscreenenter"",""trial"":1,""time"":53030},{""event"":""blur"",""trial"":33,""time"":625000},{""event"":""focus"",""trial"":33,""time"":644662}]",NA,NA,NA,NA,NA,0,#D89F1C,#3386FF,10,10,0,38,1,1488.2000000178814,39,0,1530.5,10,1,experiment,NA,NA,1,0.3,0.7,3,2,25,1,NA
fcp-trial,59,726918,0.0-34.0-0.0,voc_e2,12032,"[{""event"":""fullscreenenter"",""trial"":1,""time"":53030},{""event"":""blur"",""trial"":33,""time"":625000},{""event"":""focus"",""trial"":33,""time"":644662}]",NA,NA,NA,NA,NA,3,#741CD8,#D8271C,10,0,0,38,1,3.2000000178813934,37,1,405.90000000596046,10,0,experiment,NA,NA,2,0.5,0.5,5,4,26,1,NA
fcp-trial,60,729143,0.0-35.0-0.0,voc_e2,12032,"[{""event"":""fullscreenenter"",""trial"":1,""time"":53030},{""event"":""blur"",""trial"":33,""time"":625000},{""event"":""focus"",""trial"":33,""time"":644662}]",NA,NA,NA,NA,NA,2,#1CD855,#FA92F8,10,0,1,38,1,170,37,1,549,10,1,experiment,NA,NA,0,0.9,0.1,0,1,27,1,NA
fcp-trial,61,732337,0.0-36.0-0.0,voc_e2,12032,"[{""event"":""fullscreenenter"",""trial"":1,""time"":53030},{""event"":""blur"",""trial"":33,""time"":625000},{""event"":""focus"",""trial"":33,""time"":644662}]",NA,NA,NA,NA,NA,1,#D89F1C,#3386FF,10,10,0,38,1,1088.2000000178814,37,1,599.9000000059605,10,0,experiment,NA,NA,1,0.3,0.7,3,2,28,1,NA
fcp-trial,62,734713,0.0-37.0-0.0,voc_e2,12032,"[{""event"":""fullscreenenter"",""trial"":1,""time"":53030},{""event"":""blur"",""trial"":33,""time"":625000},{""event"":""focus"",""trial"":33,""time"":644662}]",NA,NA,NA,NA,NA,5,#D8271C,#741CD8,0,0,1,38,1,536.5999999940395,37,1,335.89999997615814,0,1,experiment,NA,NA,2,0.5,0.5,4,5,29,1,NA
fcp-trial,63,738065,0.0-38.0-0.0,voc_e2,12032,"[{""event"":""fullscreenenter"",""trial"":1,""time"":53030},{""event"":""blur"",""trial"":33,""time"":625000},{""event"":""focus"",""trial"":33,""time"":644662}]",NA,NA,NA,NA,NA,6,#D89F1C,#3386FF,10,0,0,38,1,1511.2000000178814,37,1,337.2000000178814,10,0,experiment,NA,NA,1,0.3,0.7,3,2,30,1,NA
fcp-trial,64,741600,0.0-39.0-0.0,voc_e2,12032,"[{""event"":""fullscreenenter"",""trial"":1,""time"":53030},{""event"":""blur"",""trial"":33,""time"":625000},{""event"":""focus"",""trial"":33,""time"":644662}]",NA,NA,NA,NA,NA,3,#1CD855,#FA92F8,10,0,1,38,1,1700.699999988079,37,1,327.5,10,1,experiment,NA,NA,0,0.9,0.1,0,1,31,1,NA
fcp-trial,65,744720,0.0-40.0-0.0,voc_e2,12032,"[{""event"":""fullscreenenter"",""trial"":1,""time"":53030},{""event"":""blur"",""trial"":33,""time"":625000},{""event"":""focus"",""trial"":33,""time"":644662}]",NA,NA,NA,NA,NA,4,#1CD855,#FA92F8,10,0,1,38,1,173.5,37,1,1442.699999988079,10,1,experiment,NA,NA,0,0.9,0.1,0,1,32,1,NA
fcp-trial,66,746810,0.0-41.0-0.0,voc_e2,12032,"[{""event"":""fullscreenenter"",""trial"":1,""time"":53030},{""event"":""blur"",""trial"":33,""time"":625000},{""event"":""focus"",""trial"":33,""time"":644662}]",NA,NA,NA,NA,NA,3,#3386FF,#D89F1C,10,0,1,38,1,192.69999998807907,37,1,390.89999997615814,10,1,experiment,NA,NA,1,0.7,0.3,2,3,33,1,NA
fcp-trial,67,763681,0.0-42.0-0.0,voc_e2,12032,"[{""event"":""fullscreenenter"",""trial"":1,""time"":53030},{""event"":""blur"",""trial"":33,""time"":625000},{""event"":""focus"",""trial"":33,""time"":644662}]",NA,NA,NA,NA,NA,4,#D8271C,#741CD8,0,10,1,40,0,1614.4000000059605,null,null,null,NA,0,experiment,NA,NA,2,0.5,0.5,4,5,34,1,NA
fcp-trial,68,765897,0.0-43.0-0.0,voc_e2,12032,"[{""event"":""fullscreenenter"",""trial"":1,""time"":53030},{""event"":""blur"",""trial"":33,""time"":625000},{""event"":""focus"",""trial"":33,""time"":644662}]",NA,NA,NA,NA,NA,5,#D89F1C,#3386FF,0,10,0,38,1,27.400000005960464,37,1,684.1999999880791,0,0,experiment,NA,NA,1,0.3,0.7,3,2,35,1,NA
fcp-trial,69,768252,0.0-44.0-0.0,voc_e2,12032,"[{""event"":""fullscreenenter"",""trial"":1,""time"":53030},{""event"":""blur"",""trial"":33,""time"":625000},{""event"":""focus"",""trial"":33,""time"":644662}]",NA,NA,NA,NA,NA,1,#741CD8,#D8271C,0,10,0,38,1,149.30000001192093,37,1,701.3000000119209,0,0,experiment,NA,NA,2,0.5,0.5,5,4,36,1,NA
fcp-trial,70,770640,0.0-45.0-0.0,voc_e2,12032,"[{""event"":""fullscreenenter"",""trial"":1,""time"":53030},{""event"":""blur"",""trial"":33,""time"":625000},{""event"":""focus"",""trial"":33,""time"":644662}]",NA,NA,NA,NA,NA,0,#1CD855,#FA92F8,10,0,1,38,1,501,37,1,381.90000000596046,10,1,experiment,NA,NA,0,0.9,0.1,0,1,37,1,NA
fcp-trial,71,773288,0.0-46.0-0.0,voc_e2,12032,"[{""event"":""fullscreenenter"",""trial"":1,""time"":53030},{""event"":""blur"",""trial"":33,""time"":625000},{""event"":""focus"",""trial"":33,""time"":644662}]",NA,NA,NA,NA,NA,4,#D89F1C,#3386FF,0,10,0,38,1,797.8000000119209,37,1,346.5,0,0,experiment,NA,NA,1,0.3,0.7,3,2,38,1,NA
fcp-trial,72,776514,0.0-47.0-0.0,voc_e2,12032,"[{""event"":""fullscreenenter"",""trial"":1,""time"":53030},{""event"":""blur"",""trial"":33,""time"":625000},{""event"":""focus"",""trial"":33,""time"":644662}]",NA,NA,NA,NA,NA,0,#D8271C,#741CD8,10,10,1,40,0,36.599999994039536,39,0,1683.5999999940395,10,0,experiment,NA,NA,2,0.5,0.5,4,5,39,1,NA
fcp-trial,73,778909,0.0-48.0-0.0,voc_e2,12032,"[{""event"":""fullscreenenter"",""trial"":1,""time"":53030},{""event"":""blur"",""trial"":33,""time"":625000},{""event"":""focus"",""trial"":33,""time"":644662}]",NA,NA,NA,NA,NA,2,#D8271C,#741CD8,10,0,1,38,1,229.40000000596046,37,1,660.8000000119209,10,1,experiment,NA,NA,2,0.5,0.5,4,5,40,1,NA
fcp-trial,74,781770,0.0-49.0-0.0,voc_e2,12032,"[{""event"":""fullscreenenter"",""trial"":1,""time"":53030},{""event"":""blur"",""trial"":33,""time"":625000},{""event"":""focus"",""trial"":33,""time"":644662}]",NA,NA,NA,NA,NA,5,#1CD855,#FA92F8,10,0,1,38,1,310.40000000596046,37,1,1040.699999988079,10,1,experiment,NA,NA,0,0.9,0.1,0,1,41,1,NA
fcp-trial,75,784024,0.0-50.0-0.0,voc_e2,12032,"[{""event"":""fullscreenenter"",""trial"":1,""time"":53030},{""event"":""blur"",""trial"":33,""time"":625000},{""event"":""focus"",""trial"":33,""time"":644662}]",NA,NA,NA,NA,NA,6,#D8271C,#741CD8,0,10,1,38,1,98.30000001192093,37,1,648.2000000178814,0,1,experiment,NA,NA,2,0.5,0.5,4,5,42,1,NA
fcp-trial,76,786265,0.0-51.0-0.0,voc_e2,12032,"[{""event"":""fullscreenenter"",""trial"":1,""time"":53030},{""event"":""blur"",""trial"":33,""time"":625000},{""event"":""focus"",""trial"":33,""time"":644662}]",NA,NA,NA,NA,NA,5,#D89F1C,#3386FF,0,0,0,38,1,56.30000001192093,37,1,680.8000000119209,0,0,experiment,NA,NA,1,0.3,0.7,3,2,43,1,NA
fcp-trial,77,789772,0.0-52.0-0.0,voc_e2,12032,"[{""event"":""fullscreenenter"",""trial"":1,""time"":53030},{""event"":""blur"",""trial"":33,""time"":625000},{""event"":""focus"",""trial"":33,""time"":644662}]",NA,NA,NA,NA,NA,6,#D8271C,#741CD8,10,10,1,38,1,234.2999999821186,37,1,1767.800000011921,10,1,experiment,NA,NA,2,0.5,0.5,4,5,44,1,NA
fcp-trial,78,792634,0.0-53.0-0.0,voc_e2,12032,"[{""event"":""fullscreenenter"",""trial"":1,""time"":53030},{""event"":""blur"",""trial"":33,""time"":625000},{""event"":""focus"",""trial"":33,""time"":644662}]",NA,NA,NA,NA,NA,4,#741CD8,#D8271C,10,10,0,38,1,327.09999999403954,37,1,1029.5999999940395,10,0,experiment,NA,NA,2,0.5,0.5,5,4,45,1,NA
fcp-trial,79,794845,0.0-54.0-0.0,voc_e2,12032,"[{""event"":""fullscreenenter"",""trial"":1,""time"":53030},{""event"":""blur"",""trial"":33,""time"":625000},{""event"":""focus"",""trial"":33,""time"":644662}]",NA,NA,NA,NA,NA,5,#FA92F8,#1CD855,0,10,0,38,1,249.09999999403954,37,1,458.90000000596046,0,0,experiment,NA,NA,0,0.1,0.9,1,0,46,2,NA
fcp-trial,80,798767,0.0-55.0-0.0,voc_e2,12032,"[{""event"":""fullscreenenter"",""trial"":1,""time"":53030},{""event"":""blur"",""trial"":33,""time"":625000},{""event"":""focus"",""trial"":33,""time"":644662}]",NA,NA,NA,NA,NA,5,#D8271C,#741CD8,10,0,1,38,1,519.2000000178814,37,1,1897.2999999821186,10,1,experiment,NA,NA,2,0.5,0.5,4,5,47,2,NA
fcp-trial,81,801480,0.0-56.0-0.0,voc_e2,12032,"[{""event"":""fullscreenenter"",""trial"":1,""time"":53030},{""event"":""blur"",""trial"":33,""time"":625000},{""event"":""focus"",""trial"":33,""time"":644662}]",NA,NA,NA,NA,NA,3,#D89F1C,#3386FF,10,0,0,38,1,657.1000000238419,37,1,550.8999999761581,10,0,experiment,NA,NA,1,0.3,0.7,3,2,48,2,NA
fcp-trial,82,806319,0.0-57.0-0.0,voc_e2,12032,"[{""event"":""fullscreenenter"",""trial"":1,""time"":53030},{""event"":""blur"",""trial"":33,""time"":625000},{""event"":""focus"",""trial"":33,""time"":644662}]",NA,NA,NA,NA,NA,2,#1CD855,#FA92F8,10,0,1,38,1,3052.5999999940395,37,1,281.69999998807907,10,1,experiment,NA,NA,0,0.9,0.1,0,1,49,2,NA
fcp-trial,83,814779,0.0-58.0-0.0,voc_e2,12032,"[{""event"":""fullscreenenter"",""trial"":1,""time"":53030},{""event"":""blur"",""trial"":33,""time"":625000},{""event"":""focus"",""trial"":33,""time"":644662}]",NA,NA,NA,NA,NA,2,#D89F1C,#3386FF,0,0,0,40,0,5457,37,1,1498.9000000059605,0,0,experiment,NA,NA,1,0.3,0.7,3,2,50,2,NA
fcp-trial,84,817060,0.0-59.0-0.0,voc_e2,12032,"[{""event"":""fullscreenenter"",""trial"":1,""time"":53030},{""event"":""blur"",""trial"":33,""time"":625000},{""event"":""focus"",""trial"":33,""time"":644662}]",NA,NA,NA,NA,NA,3,#1CD855,#FA92F8,10,0,1,40,0,50.5,37,1,725.4000000059605,10,1,experiment,NA,NA,0,0.9,0.1,0,1,51,2,NA
fcp-trial,85,819996,0.0-60.0-0.0,voc_e2,12032,"[{""event"":""fullscreenenter"",""trial"":1,""time"":53030},{""event"":""blur"",""trial"":33,""time"":625000},{""event"":""focus"",""trial"":33,""time"":644662}]",NA,NA,NA,NA,NA,1,#741CD8,#D8271C,10,0,0,40,0,266.40000000596046,37,1,1164.0999999940395,10,0,experiment,NA,NA,2,0.5,0.5,5,4,52,2,NA
fcp-trial,86,822520,0.0-61.0-0.0,voc_e2,12032,"[{""event"":""fullscreenenter"",""trial"":1,""time"":53030},{""event"":""blur"",""trial"":33,""time"":625000},{""event"":""focus"",""trial"":33,""time"":644662}]",NA,NA,NA,NA,NA,0,#3386FF,#D89F1C,10,0,1,38,1,191.40000000596046,37,1,828.7000000178814,10,1,experiment,NA,NA,1,0.7,0.3,2,3,53,2,NA
fcp-trial,87,825487,0.0-62.0-0.0,voc_e2,12032,"[{""event"":""fullscreenenter"",""trial"":1,""time"":53030},{""event"":""blur"",""trial"":33,""time"":625000},{""event"":""focus"",""trial"":33,""time"":644662}]",NA,NA,NA,NA,NA,4,#1CD855,#FA92F8,10,10,1,38,1,210.69999998807907,37,1,1251.2999999821186,10,1,experiment,NA,NA,0,0.9,0.1,0,1,54,2,NA
fcp-trial,88,828315,0.0-63.0-0.0,voc_e2,12032,"[{""event"":""fullscreenenter"",""trial"":1,""time"":53030},{""event"":""blur"",""trial"":33,""time"":625000},{""event"":""focus"",""trial"":33,""time"":644662}]",NA,NA,NA,NA,NA,6,#3386FF,#D89F1C,0,0,1,38,1,858,37,1,465.09999999403954,0,1,experiment,NA,NA,1,0.7,0.3,2,3,55,2,NA
fcp-trial,89,830686,0.0-64.0-0.0,voc_e2,12032,"[{""event"":""fullscreenenter"",""trial"":1,""time"":53030},{""event"":""blur"",""trial"":33,""time"":625000},{""event"":""focus"",""trial"":33,""time"":644662}]",NA,NA,NA,NA,NA,2,#D8271C,#741CD8,0,10,1,38,1,16.900000005960464,37,1,848.8000000119209,0,1,experiment,NA,NA,2,0.5,0.5,4,5,56,2,NA
fcp-trial,90,834279,0.0-65.0-0.0,voc_e2,12032,"[{""event"":""fullscreenenter"",""trial"":1,""time"":53030},{""event"":""blur"",""trial"":33,""time"":625000},{""event"":""focus"",""trial"":33,""time"":644662}]",NA,NA,NA,NA,NA,4,#D89F1C,#3386FF,0,10,0,38,1,88.5,37,1,2000.300000011921,0,0,experiment,NA,NA,1,0.3,0.7,3,2,57,2,NA
fcp-trial,91,840267,0.0-66.0-0.0,voc_e2,12032,"[{""event"":""fullscreenenter"",""trial"":1,""time"":53030},{""event"":""blur"",""trial"":33,""time"":625000},{""event"":""focus"",""trial"":33,""time"":644662}]",NA,NA,NA,NA,NA,0,#D8271C,#741CD8,10,0,1,40,0,123.09999999403954,39,0,4359.800000011921,0,0,experiment,NA,NA,2,0.5,0.5,4,5,58,2,NA
fcp-trial,92,842427,0.0-67.0-0.0,voc_e2,12032,"[{""event"":""fullscreenenter"",""trial"":1,""time"":53030},{""event"":""blur"",""trial"":33,""time"":625000},{""event"":""focus"",""trial"":33,""time"":644662}]",NA,NA,NA,NA,NA,1,#1CD855,#FA92F8,10,0,1,38,1,42.900000005960464,37,1,613,10,1,experiment,NA,NA,0,0.9,0.1,0,1,59,2,NA
fcp-trial,93,846836,0.0-68.0-0.0,voc_e2,12032,"[{""event"":""fullscreenenter"",""trial"":1,""time"":53030},{""event"":""blur"",""trial"":33,""time"":625000},{""event"":""focus"",""trial"":33,""time"":644662}]",NA,NA,NA,NA,NA,1,#3386FF,#D89F1C,10,0,1,40,0,374.19999998807907,39,0,2528.399999976158,0,0,experiment,NA,NA,1,0.7,0.3,2,3,60,2,NA
fcp-trial,94,851464,0.0-69.0-0.0,voc_e2,12032,"[{""event"":""fullscreenenter"",""trial"":1,""time"":53030},{""event"":""blur"",""trial"":33,""time"":625000},{""event"":""focus"",""trial"":33,""time"":644662}]",NA,NA,NA,NA,NA,0,#FA92F8,#1CD855,0,0,0,38,1,54.80000001192093,37,1,3069.0999999940395,0,0,experiment,NA,NA,0,0.1,0.9,1,0,61,2,NA
fcp-trial,95,853632,0.0-70.0-0.0,voc_e2,12032,"[{""event"":""fullscreenenter"",""trial"":1,""time"":53030},{""event"":""blur"",""trial"":33,""time"":625000},{""event"":""focus"",""trial"":33,""time"":644662}]",NA,NA,NA,NA,NA,3,#741CD8,#D8271C,10,0,0,38,1,100.80000001192093,37,1,561.3000000119209,10,0,experiment,NA,NA,2,0.5,0.5,5,4,62,2,NA
fcp-trial,96,856561,0.0-71.0-0.0,voc_e2,12032,"[{""event"":""fullscreenenter"",""trial"":1,""time"":53030},{""event"":""blur"",""trial"":33,""time"":625000},{""event"":""focus"",""trial"":33,""time"":644662}]",NA,NA,NA,NA,NA,6,#FA92F8,#1CD855,0,10,0,38,1,163,37,1,1261,0,0,experiment,NA,NA,0,0.1,0.9,1,0,63,2,NA
fcp-trial,97,858904,0.0-72.0-0.0,voc_e2,12032,"[{""event"":""fullscreenenter"",""trial"":1,""time"":53030},{""event"":""blur"",""trial"":33,""time"":625000},{""event"":""focus"",""trial"":33,""time"":644662}]",NA,NA,NA,NA,NA,4,#3386FF,#D89F1C,10,10,1,38,1,452.2999999821186,37,1,387.69999998807907,10,1,experiment,NA,NA,1,0.7,0.3,2,3,64,2,NA
fcp-trial,98,865294,0.0-73.0-0.0,voc_e2,12032,"[{""event"":""fullscreenenter"",""trial"":1,""time"":53030},{""event"":""blur"",""trial"":33,""time"":625000},{""event"":""focus"",""trial"":33,""time"":644662}]",NA,NA,NA,NA,NA,3,#3386FF,#D89F1C,10,0,1,40,0,878.5999999940395,39,0,4007.699999988079,0,0,experiment,NA,NA,1,0.7,0.3,2,3,65,2,NA
fcp-trial,99,868033,0.0-74.0-0.0,voc_e2,12032,"[{""event"":""fullscreenenter"",""trial"":1,""time"":53030},{""event"":""blur"",""trial"":33,""time"":625000},{""event"":""focus"",""trial"":33,""time"":644662}]",NA,NA,NA,NA,NA,1,#D8271C,#741CD8,10,10,1,38,1,334.39999997615814,37,1,898.2999999821186,10,1,experiment,NA,NA,2,0.5,0.5,4,5,66,2,NA
fcp-trial,100,870717,0.0-75.0-0.0,voc_e2,12032,"[{""event"":""fullscreenenter"",""trial"":1,""time"":53030},{""event"":""blur"",""trial"":33,""time"":625000},{""event"":""focus"",""trial"":33,""time"":644662}]",NA,NA,NA,NA,NA,1,#1CD855,#FA92F8,10,0,1,38,1,714.1999999880791,37,1,464.80000001192093,10,1,experiment,NA,NA,0,0.9,0.1,0,1,67,2,NA
fcp-trial,101,876829,0.0-76.0-0.0,voc_e2,12032,"[{""event"":""fullscreenenter"",""trial"":1,""time"":53030},{""event"":""blur"",""trial"":33,""time"":625000},{""event"":""focus"",""trial"":33,""time"":644662}]",NA,NA,NA,NA,NA,6,#D89F1C,#3386FF,0,0,0,40,0,123,39,0,4485.299999982119,0,1,experiment,NA,NA,1,0.3,0.7,3,2,68,2,NA
fcp-trial,102,879307,0.0-77.0-0.0,voc_e2,12032,"[{""event"":""fullscreenenter"",""trial"":1,""time"":53030},{""event"":""blur"",""trial"":33,""time"":625000},{""event"":""focus"",""trial"":33,""time"":644662}]",NA,NA,NA,NA,NA,2,#D8271C,#741CD8,10,10,1,38,1,141.5,37,1,832,10,1,experiment,NA,NA,2,0.5,0.5,4,5,69,2,NA
fcp-trial,103,882365,0.0-78.0-0.0,voc_e2,12032,"[{""event"":""fullscreenenter"",""trial"":1,""time"":53030},{""event"":""blur"",""trial"":33,""time"":625000},{""event"":""focus"",""trial"":33,""time"":644662}]",NA,NA,NA,NA,NA,4,#FA92F8,#1CD855,0,0,0,38,1,346.90000000596046,39,0,1205.699999988079,0,1,experiment,NA,NA,0,0.1,0.9,1,0,70,2,NA
fcp-trial,104,885589,0.0-79.0-0.0,voc_e2,12032,"[{""event"":""fullscreenenter"",""trial"":1,""time"":53030},{""event"":""blur"",""trial"":33,""time"":625000},{""event"":""focus"",""trial"":33,""time"":644662}]",NA,NA,NA,NA,NA,3,#741CD8,#D8271C,10,0,0,38,1,118.80000001192093,39,0,1602,0,1,experiment,NA,NA,2,0.5,0.5,5,4,71,2,NA
fcp-trial,105,888578,0.0-80.0-0.0,voc_e2,12032,"[{""event"":""fullscreenenter"",""trial"":1,""time"":53030},{""event"":""blur"",""trial"":33,""time"":625000},{""event"":""focus"",""trial"":33,""time"":644662}]",NA,NA,NA,NA,NA,0,#1CD855,#FA92F8,10,0,1,38,1,500.09999999403954,37,1,985.1000000238419,10,1,experiment,NA,NA,0,0.9,0.1,0,1,72,2,NA
fcp-trial,106,891655,0.0-81.0-0.0,voc_e2,12032,"[{""event"":""fullscreenenter"",""trial"":1,""time"":53030},{""event"":""blur"",""trial"":33,""time"":625000},{""event"":""focus"",""trial"":33,""time"":644662}]",NA,NA,NA,NA,NA,1,#D89F1C,#3386FF,0,0,0,38,1,689,39,0,883.6000000238419,0,1,experiment,NA,NA,1,0.3,0.7,3,2,73,2,NA
fcp-trial,107,894135,0.0-82.0-0.0,voc_e2,12032,"[{""event"":""fullscreenenter"",""trial"":1,""time"":53030},{""event"":""blur"",""trial"":33,""time"":625000},{""event"":""focus"",""trial"":33,""time"":644662}]",NA,NA,NA,NA,NA,0,#3386FF,#D89F1C,10,10,1,38,1,321,37,1,654.5,10,1,experiment,NA,NA,1,0.7,0.3,2,3,74,2,NA
fcp-trial,108,897631,0.0-83.0-0.0,voc_e2,12032,"[{""event"":""fullscreenenter"",""trial"":1,""time"":53030},{""event"":""blur"",""trial"":33,""time"":625000},{""event"":""focus"",""trial"":33,""time"":644662}]",NA,NA,NA,NA,NA,5,#FA92F8,#1CD855,0,10,0,38,1,477.7000000178814,37,1,1512.5,0,0,experiment,NA,NA,0,0.1,0.9,1,0,75,2,NA
fcp-trial,109,903705,0.0-84.0-0.0,voc_e2,12032,"[{""event"":""fullscreenenter"",""trial"":1,""time"":53030},{""event"":""blur"",""trial"":33,""time"":625000},{""event"":""focus"",""trial"":33,""time"":644662}]",NA,NA,NA,NA,NA,6,#741CD8,#D8271C,10,0,0,40,0,6.199999988079071,37,1,4560.0999999940395,10,0,experiment,NA,NA,2,0.5,0.5,5,4,76,2,NA
fcp-trial,110,906932,0.0-85.0-0.0,voc_e2,12032,"[{""event"":""fullscreenenter"",""trial"":1,""time"":53030},{""event"":""blur"",""trial"":33,""time"":625000},{""event"":""focus"",""trial"":33,""time"":644662}]",NA,NA,NA,NA,NA,6,#FA92F8,#1CD855,0,10,0,38,1,1436.1000000238419,37,1,286.59999999403954,0,0,experiment,NA,NA,0,0.1,0.9,1,0,77,2,NA
fcp-trial,111,909497,0.0-86.0-0.0,voc_e2,12032,"[{""event"":""fullscreenenter"",""trial"":1,""time"":53030},{""event"":""blur"",""trial"":33,""time"":625000},{""event"":""focus"",""trial"":33,""time"":644662}]",NA,NA,NA,NA,NA,2,#D89F1C,#3386FF,10,0,0,38,1,333.60000002384186,39,0,727.4000000059605,0,1,experiment,NA,NA,1,0.3,0.7,3,2,78,2,NA
fcp-trial,112,912354,0.0-87.0-0.0,voc_e2,12032,"[{""event"":""fullscreenenter"",""trial"":1,""time"":53030},{""event"":""blur"",""trial"":33,""time"":625000},{""event"":""focus"",""trial"":33,""time"":644662}]",NA,NA,NA,NA,NA,4,#741CD8,#D8271C,10,10,0,38,1,915.4000000059605,37,1,437.19999998807907,10,0,experiment,NA,NA,2,0.5,0.5,5,4,79,2,NA
fcp-trial,113,915843,0.0-88.0-0.0,voc_e2,12032,"[{""event"":""fullscreenenter"",""trial"":1,""time"":53030},{""event"":""blur"",""trial"":33,""time"":625000},{""event"":""focus"",""trial"":33,""time"":644662}]",NA,NA,NA,NA,NA,5,#3386FF,#D89F1C,10,0,1,38,1,84.7999999821186,37,1,1898.699999988079,10,1,experiment,NA,NA,1,0.7,0.3,2,3,80,2,NA
fcp-trial,114,918754,0.0-89.0-0.0,voc_e2,12032,"[{""event"":""fullscreenenter"",""trial"":1,""time"":53030},{""event"":""blur"",""trial"":33,""time"":625000},{""event"":""focus"",""trial"":33,""time"":644662}]",NA,NA,NA,NA,NA,5,#741CD8,#D8271C,10,0,0,38,1,1113.1000000238419,37,1,291.7999999821186,10,0,experiment,NA,NA,2,0.5,0.5,5,4,81,2,NA
fcp-trial,115,922509,0.0-90.0-0.0,voc_e2,12032,"[{""event"":""fullscreenenter"",""trial"":1,""time"":53030},{""event"":""blur"",""trial"":33,""time"":625000},{""event"":""focus"",""trial"":33,""time"":644662}]",NA,NA,NA,NA,NA,3,#FA92F8,#1CD855,0,10,0,38,1,1713.0999999940395,37,1,537.3999999761581,0,0,experiment,NA,NA,0,0.1,0.9,1,0,82,2,NA
fcp-trial,116,927646,0.0-91.0-0.0,voc_e2,12032,"[{""event"":""fullscreenenter"",""trial"":1,""time"":53030},{""event"":""blur"",""trial"":33,""time"":625000},{""event"":""focus"",""trial"":33,""time"":644662}]",NA,NA,NA,NA,NA,0,#D8271C,#741CD8,0,10,1,38,1,3061.199999988079,39,0,568.7999999821186,10,0,experiment,NA,NA,2,0.5,0.5,4,5,83,2,NA
fcp-trial,117,929515,0.0-92.0-0.0,voc_e2,12032,"[{""event"":""fullscreenenter"",""trial"":1,""time"":53030},{""event"":""blur"",""trial"":33,""time"":625000},{""event"":""focus"",""trial"":33,""time"":644662}]",NA,NA,NA,NA,NA,2,#1CD855,#FA92F8,10,0,1,38,1,31.19999998807907,37,1,334.5,10,1,experiment,NA,NA,0,0.9,0.1,0,1,84,2,NA
fcp-trial,118,931701,0.0-93.0-0.0,voc_e2,12032,"[{""event"":""fullscreenenter"",""trial"":1,""time"":53030},{""event"":""blur"",""trial"":33,""time"":625000},{""event"":""focus"",""trial"":33,""time"":644662}]",NA,NA,NA,NA,NA,6,#741CD8,#D8271C,0,10,0,38,1,387,37,1,293.39999997615814,0,0,experiment,NA,NA,2,0.5,0.5,5,4,85,2,NA
fcp-trial,119,933594,0.0-94.0-0.0,voc_e2,12032,"[{""event"":""fullscreenenter"",""trial"":1,""time"":53030},{""event"":""blur"",""trial"":33,""time"":625000},{""event"":""focus"",""trial"":33,""time"":644662}]",NA,NA,NA,NA,NA,2,#3386FF,#D89F1C,0,10,1,40,0,20.799999982118607,37,1,366.40000000596046,0,1,experiment,NA,NA,1,0.7,0.3,2,3,86,2,NA
fcp-trial,120,936101,0.0-95.0-0.0,voc_e2,12032,"[{""event"":""fullscreenenter"",""trial"":1,""time"":53030},{""event"":""blur"",""trial"":33,""time"":625000},{""event"":""focus"",""trial"":33,""time"":644662}]",NA,NA,NA,NA,NA,5,#741CD8,#D8271C,0,10,0,38,1,672.5,37,1,329.69999998807907,0,0,experiment,NA,NA,2,0.5,0.5,5,4,87,2,NA
fcp-trial,121,938557,0.0-96.0-0.0,voc_e2,12032,"[{""event"":""fullscreenenter"",""trial"":1,""time"":53030},{""event"":""blur"",""trial"":33,""time"":625000},{""event"":""focus"",""trial"":33,""time"":644662}]",NA,NA,NA,NA,NA,1,#3386FF,#D89F1C,10,10,1,40,0,517.3000000119209,37,1,434.5,10,1,experiment,NA,NA,1,0.7,0.3,2,3,88,2,NA
fcp-trial,122,941525,0.0-97.0-0.0,voc_e2,12032,"[{""event"":""fullscreenenter"",""trial"":1,""time"":53030},{""event"":""blur"",""trial"":33,""time"":625000},{""event"":""focus"",""trial"":33,""time"":644662}]",NA,NA,NA,NA,NA,2,#1CD855,#FA92F8,10,10,1,38,1,957,37,1,506.59999999403954,10,1,experiment,NA,NA,0,0.9,0.1,0,1,89,2,NA
fcp-trial,123,945208,0.0-98.0-0.0,voc_e2,12032,"[{""event"":""fullscreenenter"",""trial"":1,""time"":53030},{""event"":""blur"",""trial"":33,""time"":625000},{""event"":""focus"",""trial"":33,""time"":644662}]",NA,NA,NA,NA,NA,6,#D89F1C,#3386FF,10,10,0,38,1,905.4000000059605,37,1,1272.5,10,0,experiment,NA,NA,1,0.3,0.7,3,2,90,2,NA
fcp-trial,124,948442,0.0-99.0-0.0,voc_e2,12032,"[{""event"":""fullscreenenter"",""trial"":1,""time"":53030},{""event"":""blur"",""trial"":33,""time"":625000},{""event"":""focus"",""trial"":33,""time"":644662}]",NA,NA,NA,NA,NA,4,#3386FF,#D89F1C,0,10,1,40,0,100.09999999403954,37,1,1629,0,1,experiment,NA,NA,1,0.7,0.3,2,3,91,3,NA
fcp-trial,125,951155,0.0-100.0-0.0,voc_e2,12032,"[{""event"":""fullscreenenter"",""trial"":1,""time"":53030},{""event"":""blur"",""trial"":33,""time"":625000},{""event"":""focus"",""trial"":33,""time"":644662}]",NA,NA,NA,NA,NA,3,#741CD8,#D8271C,0,10,0,38,1,119.69999998807907,37,1,1088.300000011921,0,0,experiment,NA,NA,2,0.5,0.5,5,4,92,3,NA
fcp-trial,126,955289,0.0-101.0-0.0,voc_e2,12032,"[{""event"":""fullscreenenter"",""trial"":1,""time"":53030},{""event"":""blur"",""trial"":33,""time"":625000},{""event"":""focus"",""trial"":33,""time"":644662}]",NA,NA,NA,NA,NA,1,#1CD855,#FA92F8,10,0,1,38,1,394,37,1,2237,10,1,experiment,NA,NA,0,0.9,0.1,0,1,93,3,NA
fcp-trial,127,957578,0.0-102.0-0.0,voc_e2,12032,"[{""event"":""fullscreenenter"",""trial"":1,""time"":53030},{""event"":""blur"",""trial"":33,""time"":625000},{""event"":""focus"",""trial"":33,""time"":644662}]",NA,NA,NA,NA,NA,5,#D89F1C,#3386FF,0,10,0,38,1,153.30000001192093,39,0,631.2000000178814,10,1,experiment,NA,NA,1,0.3,0.7,3,2,94,3,NA
fcp-trial,128,959649,0.0-103.0-0.0,voc_e2,12032,"[{""event"":""fullscreenenter"",""trial"":1,""time"":53030},{""event"":""blur"",""trial"":33,""time"":625000},{""event"":""focus"",""trial"":33,""time"":644662}]",NA,NA,NA,NA,NA,0,#D8271C,#741CD8,0,0,1,38,1,132.09999999403954,39,0,432.09999999403954,0,0,experiment,NA,NA,2,0.5,0.5,4,5,95,3,NA
fcp-trial,129,962220,0.0-104.0-0.0,voc_e2,12032,"[{""event"":""fullscreenenter"",""trial"":1,""time"":53030},{""event"":""blur"",""trial"":33,""time"":625000},{""event"":""focus"",""trial"":33,""time"":644662}]",NA,NA,NA,NA,NA,0,#1CD855,#FA92F8,10,10,1,38,1,145.59999999403954,37,1,921.9000000059605,10,1,experiment,NA,NA,0,0.9,0.1,0,1,96,3,NA
fcp-trial,130,969130,0.0-105.0-0.0,voc_e2,12032,"[{""event"":""fullscreenenter"",""trial"":1,""time"":53030},{""event"":""blur"",""trial"":33,""time"":625000},{""event"":""focus"",""trial"":33,""time"":644662}]",NA,NA,NA,NA,NA,6,#1CD855,#FA92F8,10,0,1,38,1,3264.7000000178814,37,1,2140.4000000059605,10,1,experiment,NA,NA,0,0.9,0.1,0,1,97,3,NA
fcp-trial,131,973264,0.0-106.0-0.0,voc_e2,12032,"[{""event"":""fullscreenenter"",""trial"":1,""time"":53030},{""event"":""blur"",""trial"":33,""time"":625000},{""event"":""focus"",""trial"":33,""time"":644662}]",NA,NA,NA,NA,NA,3,#3386FF,#D89F1C,10,0,1,38,1,78.2999999821186,37,1,2551.800000011921,10,1,experiment,NA,NA,1,0.7,0.3,2,3,98,3,NA
fcp-trial,132,975361,0.0-107.0-0.0,voc_e2,12032,"[{""event"":""fullscreenenter"",""trial"":1,""time"":53030},{""event"":""blur"",""trial"":33,""time"":625000},{""event"":""focus"",""trial"":33,""time"":644662}]",NA,NA,NA,NA,NA,2,#741CD8,#D8271C,10,0,0,38,1,264.80000001192093,37,1,327.40000000596046,10,0,experiment,NA,NA,2,0.5,0.5,5,4,99,3,NA
fcp-trial,133,979131,0.0-108.0-0.0,voc_e2,12032,"[{""event"":""fullscreenenter"",""trial"":1,""time"":53030},{""event"":""blur"",""trial"":33,""time"":625000},{""event"":""focus"",""trial"":33,""time"":644662}]",NA,NA,NA,NA,NA,4,#1CD855,#FA92F8,0,0,1,38,1,1799.5999999940395,37,1,466.09999999403954,0,1,experiment,NA,NA,0,0.9,0.1,0,1,100,3,NA
fcp-trial,134,981229,0.0-109.0-0.0,voc_e2,12032,"[{""event"":""fullscreenenter"",""trial"":1,""time"":53030},{""event"":""blur"",""trial"":33,""time"":625000},{""event"":""focus"",""trial"":33,""time"":644662}]",NA,NA,NA,NA,NA,0,#3386FF,#D89F1C,10,0,1,38,1,219.2000000178814,37,1,374.69999998807907,10,1,experiment,NA,NA,1,0.7,0.3,2,3,101,3,NA
fcp-trial,135,984505,0.0-110.0-0.0,voc_e2,12032,"[{""event"":""fullscreenenter"",""trial"":1,""time"":53030},{""event"":""blur"",""trial"":33,""time"":625000},{""event"":""focus"",""trial"":33,""time"":644662}]",NA,NA,NA,NA,NA,4,#D8271C,#741CD8,10,0,1,38,1,573.5,37,1,1198.699999988079,10,1,experiment,NA,NA,2,0.5,0.5,4,5,102,3,NA
fcp-trial,136,986701,0.0-111.0-0.0,voc_e2,12032,"[{""event"":""fullscreenenter"",""trial"":1,""time"":53030},{""event"":""blur"",""trial"":33,""time"":625000},{""event"":""focus"",""trial"":33,""time"":644662}]",NA,NA,NA,NA,NA,3,#FA92F8,#1CD855,0,10,0,38,1,367.40000000596046,37,1,323.59999999403954,0,0,experiment,NA,NA,0,0.1,0.9,1,0,103,3,NA
fcp-trial,137,989288,0.0-112.0-0.0,voc_e2,12032,"[{""event"":""fullscreenenter"",""trial"":1,""time"":53030},{""event"":""blur"",""trial"":33,""time"":625000},{""event"":""focus"",""trial"":33,""time"":644662}]",NA,NA,NA,NA,NA,5,#FA92F8,#1CD855,0,10,0,38,1,149.30000001192093,37,1,932.7999999821186,0,0,experiment,NA,NA,0,0.1,0.9,1,0,104,3,NA
fcp-trial,138,991161,0.0-113.0-0.0,voc_e2,12032,"[{""event"":""fullscreenenter"",""trial"":1,""time"":53030},{""event"":""blur"",""trial"":33,""time"":625000},{""event"":""focus"",""trial"":33,""time"":644662}]",NA,NA,NA,NA,NA,1,#D8271C,#741CD8,10,0,1,38,1,108,37,1,259.90000000596046,10,1,experiment,NA,NA,2,0.5,0.5,4,5,105,3,NA
audio-instructions,139,1007463,0.0-114.0,voc_e2,12032,"[{""event"":""fullscreenenter"",""trial"":1,""time"":53030},{""event"":""blur"",""trial"":33,""time"":625000},{""event"":""focus"",""trial"":33,""time"":644662}]",NA,11799.69999998808,static/audio/pause.wav,NA,0,NA,NA,NA,NA,NA,NA,NA,NA,NA,NA,NA,NA,NA,NA,NA,NA,NA,NA,NA,NA,NA,NA,NA,NA,NA
fcp-trial,140,1011618,0.0-115.0-0.0,voc_e2,12032,"[{""event"":""fullscreenenter"",""trial"":1,""time"":53030},{""event"":""blur"",""trial"":33,""time"":625000},{""event"":""focus"",""trial"":33,""time"":644662}]",NA,NA,NA,NA,NA,2,#D89F1C,#3386FF,0,10,0,40,0,1284,39,0,1352.9000000059605,10,1,experiment,NA,NA,1,0.3,0.7,3,2,106,3,NA
fcp-trial,141,1015284,0.0-116.0-0.0,voc_e2,12032,"[{""event"":""fullscreenenter"",""trial"":1,""time"":53030},{""event"":""blur"",""trial"":33,""time"":625000},{""event"":""focus"",""trial"":33,""time"":644662}]",NA,NA,NA,NA,NA,2,#1CD855,#FA92F8,10,0,1,38,1,846.5,37,1,1309.3999999761581,10,1,experiment,NA,NA,0,0.9,0.1,0,1,107,3,NA
fcp-trial,142,1020003,0.0-117.0-0.0,voc_e2,12032,"[{""event"":""fullscreenenter"",""trial"":1,""time"":53030},{""event"":""blur"",""trial"":33,""time"":625000},{""event"":""focus"",""trial"":33,""time"":644662}]",NA,NA,NA,NA,NA,1,#D89F1C,#3386FF,0,10,0,40,0,702.6999999880791,39,0,2492.199999988079,10,1,experiment,NA,NA,1,0.3,0.7,3,2,108,3,NA
fcp-trial,143,1022980,0.0-118.0-0.0,voc_e2,12032,"[{""event"":""fullscreenenter"",""trial"":1,""time"":53030},{""event"":""blur"",""trial"":33,""time"":625000},{""event"":""focus"",""trial"":33,""time"":644662}]",NA,NA,NA,NA,NA,3,#1CD855,#FA92F8,10,0,1,40,0,1066.9000000059605,39,0,398.59999999403954,0,0,experiment,NA,NA,0,0.9,0.1,0,1,109,3,NA
fcp-trial,144,1025715,0.0-119.0-0.0,voc_e2,12032,"[{""event"":""fullscreenenter"",""trial"":1,""time"":53030},{""event"":""blur"",""trial"":33,""time"":625000},{""event"":""focus"",""trial"":33,""time"":644662}]",NA,NA,NA,NA,NA,0,#1CD855,#FA92F8,10,0,1,40,0,956.1999999880791,37,1,269.09999999403954,10,1,experiment,NA,NA,0,0.9,0.1,0,1,110,3,NA
fcp-trial,145,1033419,0.0-120.0-0.0,voc_e2,12032,"[{""event"":""fullscreenenter"",""trial"":1,""time"":53030},{""event"":""blur"",""trial"":33,""time"":625000},{""event"":""focus"",""trial"":33,""time"":644662}]",NA,NA,NA,NA,NA,0,#741CD8,#D8271C,10,10,0,40,0,5280.699999988079,37,1,918.1999999880791,10,0,experiment,NA,NA,2,0.5,0.5,5,4,111,3,NA
fcp-trial,146,1036399,0.0-121.0-0.0,voc_e2,12032,"[{""event"":""fullscreenenter"",""trial"":1,""time"":53030},{""event"":""blur"",""trial"":33,""time"":625000},{""event"":""focus"",""trial"":33,""time"":644662}]",NA,NA,NA,NA,NA,1,#D8271C,#741CD8,10,10,1,38,1,892,39,0,581.8000000119209,10,0,experiment,NA,NA,2,0.5,0.5,4,5,112,3,NA
fcp-trial,147,1041384,0.0-122.0-0.0,voc_e2,12032,"[{""event"":""fullscreenenter"",""trial"":1,""time"":53030},{""event"":""blur"",""trial"":33,""time"":625000},{""event"":""focus"",""trial"":33,""time"":644662}]",NA,NA,NA,NA,NA,4,#3386FF,#D89F1C,10,0,1,40,0,273.90000000596046,39,0,3203,0,0,experiment,NA,NA,1,0.7,0.3,2,3,113,3,NA
fcp-trial,148,1043910,0.0-123.0-0.0,voc_e2,12032,"[{""event"":""fullscreenenter"",""trial"":1,""time"":53030},{""event"":""blur"",""trial"":33,""time"":625000},{""event"":""focus"",""trial"":33,""time"":644662}]",NA,NA,NA,NA,NA,1,#FA92F8,#1CD855,0,10,0,38,1,745.3000000119209,37,1,274.5,0,0,experiment,NA,NA,0,0.1,0.9,1,0,114,3,NA
fcp-trial,149,1047681,0.0-124.0-0.0,voc_e2,12032,"[{""event"":""fullscreenenter"",""trial"":1,""time"":53030},{""event"":""blur"",""trial"":33,""time"":625000},{""event"":""focus"",""trial"":33,""time"":644662}]",NA,NA,NA,NA,NA,4,#741CD8,#D8271C,10,0,0,38,1,1629.2000000178814,39,0,636.7000000178814,0,1,experiment,NA,NA,2,0.5,0.5,5,4,115,3,NA
fcp-trial,150,1050314,0.0-125.0-0.0,voc_e2,12032,"[{""event"":""fullscreenenter"",""trial"":1,""time"":53030},{""event"":""blur"",""trial"":33,""time"":625000},{""event"":""focus"",""trial"":33,""time"":644662}]",NA,NA,NA,NA,NA,3,#D89F1C,#3386FF,0,0,0,40,0,613.9000000059605,39,0,515.5999999940395,0,1,experiment,NA,NA,1,0.3,0.7,3,2,116,3,NA
fcp-trial,151,1052603,0.0-126.0-0.0,voc_e2,12032,"[{""event"":""fullscreenenter"",""trial"":1,""time"":53030},{""event"":""blur"",""trial"":33,""time"":625000},{""event"":""focus"",""trial"":33,""time"":644662}]",NA,NA,NA,NA,NA,2,#741CD8,#D8271C,10,0,0,40,0,111.2999999821186,37,1,673.8000000119209,10,0,experiment,NA,NA,2,0.5,0.5,5,4,117,3,NA
fcp-trial,152,1055114,0.0-127.0-0.0,voc_e2,12032,"[{""event"":""fullscreenenter"",""trial"":1,""time"":53030},{""event"":""blur"",""trial"":33,""time"":625000},{""event"":""focus"",""trial"":33,""time"":644662}]",NA,NA,NA,NA,NA,5,#FA92F8,#1CD855,0,10,0,38,1,445.09999999403954,37,1,561.5999999940395,0,0,experiment,NA,NA,0,0.1,0.9,1,0,118,3,NA
fcp-trial,153,1061965,0.0-128.0-0.0,voc_e2,12032,"[{""event"":""fullscreenenter"",""trial"":1,""time"":53030},{""event"":""blur"",""trial"":33,""time"":625000},{""event"":""focus"",""trial"":33,""time"":644662}]",NA,NA,NA,NA,NA,6,#D89F1C,#3386FF,10,10,0,40,0,2215.699999988079,37,1,3130.199999988079,10,0,experiment,NA,NA,1,0.3,0.7,3,2,119,3,NA
fcp-trial,154,1063880,0.0-129.0-0.0,voc_e2,12032,"[{""event"":""fullscreenenter"",""trial"":1,""time"":53030},{""event"":""blur"",""trial"":33,""time"":625000},{""event"":""focus"",""trial"":33,""time"":644662}]",NA,NA,NA,NA,NA,6,#1CD855,#FA92F8,10,0,1,40,0,70.59999999403954,37,1,339.7000000178814,10,1,experiment,NA,NA,0,0.9,0.1,0,1,120,3,NA
fcp-trial,155,1066730,0.0-130.0-0.0,voc_e2,12032,"[{""event"":""fullscreenenter"",""trial"":1,""time"":53030},{""event"":""blur"",""trial"":33,""time"":625000},{""event"":""focus"",""trial"":33,""time"":644662}]",NA,NA,NA,NA,NA,5,#3386FF,#D89F1C,10,0,1,40,0,1017.2999999821186,37,1,328.7000000178814,10,1,experiment,NA,NA,1,0.7,0.3,2,3,121,3,NA
fcp-trial,156,1069387,0.0-131.0-0.0,voc_e2,12032,"[{""event"":""fullscreenenter"",""trial"":1,""time"":53030},{""event"":""blur"",""trial"":33,""time"":625000},{""event"":""focus"",""trial"":33,""time"":644662}]",NA,NA,NA,NA,NA,3,#741CD8,#D8271C,0,0,0,38,1,484.60000002384186,37,1,668.9000000059605,0,0,experiment,NA,NA,2,0.5,0.5,5,4,122,3,NA
fcp-trial,157,1073016,0.0-132.0-0.0,voc_e2,12032,"[{""event"":""fullscreenenter"",""trial"":1,""time"":53030},{""event"":""blur"",""trial"":33,""time"":625000},{""event"":""focus"",""trial"":33,""time"":644662}]",NA,NA,NA,NA,NA,4,#FA92F8,#1CD855,0,10,0,38,1,51.30000001192093,37,1,2072.5999999940395,0,0,experiment,NA,NA,0,0.1,0.9,1,0,123,3,NA
fcp-trial,158,1075569,0.0-133.0-0.0,voc_e2,12032,"[{""event"":""fullscreenenter"",""trial"":1,""time"":53030},{""event"":""blur"",""trial"":33,""time"":625000},{""event"":""focus"",""trial"":33,""time"":644662}]",NA,NA,NA,NA,NA,6,#741CD8,#D8271C,10,0,0,38,1,643.5,39,0,404.7999999821186,0,1,experiment,NA,NA,2,0.5,0.5,5,4,124,3,NA
fcp-trial,159,1080678,0.0-134.0-0.0,voc_e2,12032,"[{""event"":""fullscreenenter"",""trial"":1,""time"":53030},{""event"":""blur"",""trial"":33,""time"":625000},{""event"":""focus"",""trial"":33,""time"":644662}]",NA,NA,NA,NA,NA,0,#3386FF,#D89F1C,0,10,1,40,0,1008.2000000178814,39,0,2596.300000011921,10,0,experiment,NA,NA,1,0.7,0.3,2,3,125,3,NA
fcp-trial,160,1083767,0.0-135.0-0.0,voc_e2,12032,"[{""event"":""fullscreenenter"",""trial"":1,""time"":53030},{""event"":""blur"",""trial"":33,""time"":625000},{""event"":""focus"",""trial"":33,""time"":644662}]",NA,NA,NA,NA,NA,5,#741CD8,#D8271C,0,10,0,38,1,805.4000000059605,39,0,776.1000000238419,10,1,experiment,NA,NA,2,0.5,0.5,5,4,126,3,NA
fcp-trial,161,1086013,0.0-136.0-0.0,voc_e2,12032,"[{""event"":""fullscreenenter"",""trial"":1,""time"":53030},{""event"":""blur"",""trial"":33,""time"":625000},{""event"":""focus"",""trial"":33,""time"":644662}]",NA,NA,NA,NA,NA,3,#FA92F8,#1CD855,10,10,0,40,0,34.5,37,1,706.3000000119209,10,0,experiment,NA,NA,0,0.1,0.9,1,0,127,3,NA
fcp-trial,162,1089188,0.0-137.0-0.0,voc_e2,12032,"[{""event"":""fullscreenenter"",""trial"":1,""time"":53030},{""event"":""blur"",""trial"":33,""time"":625000},{""event"":""focus"",""trial"":33,""time"":644662}]",NA,NA,NA,NA,NA,0,#741CD8,#D8271C,0,10,0,38,1,1416,37,1,254.5,0,0,experiment,NA,NA,2,0.5,0.5,5,4,128,3,NA
fcp-trial,163,1091404,0.0-138.0-0.0,voc_e2,12032,"[{""event"":""fullscreenenter"",""trial"":1,""time"":53030},{""event"":""blur"",""trial"":33,""time"":625000},{""event"":""focus"",""trial"":33,""time"":644662}]",NA,NA,NA,NA,NA,6,#FA92F8,#1CD855,0,10,0,38,1,380.7999999821186,37,1,329.59999999403954,0,0,experiment,NA,NA,0,0.1,0.9,1,0,129,3,NA
fcp-trial,164,1095859,0.0-139.0-0.0,voc_e2,12032,"[{""event"":""fullscreenenter"",""trial"":1,""time"":53030},{""event"":""blur"",""trial"":33,""time"":625000},{""event"":""focus"",""trial"":33,""time"":644662}]",NA,NA,NA,NA,NA,0,#D89F1C,#3386FF,0,10,0,40,0,2211.7000000178814,37,1,740.1999999880791,0,0,experiment,NA,NA,1,0.3,0.7,3,2,130,3,NA
fcp-trial,165,1098237,0.0-140.0-0.0,voc_e2,12032,"[{""event"":""fullscreenenter"",""trial"":1,""time"":53030},{""event"":""blur"",""trial"":33,""time"":625000},{""event"":""focus"",""trial"":33,""time"":644662}]",NA,NA,NA,NA,NA,1,#D8271C,#741CD8,0,10,1,38,1,271.2000000178814,37,1,601.5,0,1,experiment,NA,NA,2,0.5,0.5,4,5,131,3,NA
fcp-trial,166,1100577,0.0-141.0-0.0,voc_e2,12032,"[{""event"":""fullscreenenter"",""trial"":1,""time"":53030},{""event"":""blur"",""trial"":33,""time"":625000},{""event"":""focus"",""trial"":33,""time"":644662}]",NA,NA,NA,NA,NA,1,#1CD855,#FA92F8,0,0,1,40,0,273.80000001192093,39,0,561.1999999880791,0,0,experiment,NA,NA,0,0.9,0.1,0,1,132,3,NA
fcp-trial,167,1102934,0.0-142.0-0.0,voc_e2,12032,"[{""event"":""fullscreenenter"",""trial"":1,""time"":53030},{""event"":""blur"",""trial"":33,""time"":625000},{""event"":""focus"",""trial"":33,""time"":644662}]",NA,NA,NA,NA,NA,3,#D89F1C,#3386FF,0,10,0,38,1,571.8000000119209,37,1,279.59999999403954,0,0,experiment,NA,NA,1,0.3,0.7,3,2,133,3,NA
fcp-trial,168,1105007,0.0-143.0-0.0,voc_e2,12032,"[{""event"":""fullscreenenter"",""trial"":1,""time"":53030},{""event"":""blur"",""trial"":33,""time"":625000},{""event"":""focus"",""trial"":33,""time"":644662}]",NA,NA,NA,NA,NA,6,#741CD8,#D8271C,0,10,0,38,1,259.5,37,1,307.69999998807907,0,0,experiment,NA,NA,2,0.5,0.5,5,4,134,3,NA
fcp-trial,169,1107523,0.0-144.0-0.0,voc_e2,12032,"[{""event"":""fullscreenenter"",""trial"":1,""time"":53030},{""event"":""blur"",""trial"":33,""time"":625000},{""event"":""focus"",""trial"":33,""time"":644662}]",NA,NA,NA,NA,NA,5,#D8271C,#741CD8,10,10,1,38,1,54.900000005960464,37,1,956.8000000119209,10,1,experiment,NA,NA,2,0.5,0.5,4,5,135,3,NA
fcp-trial,170,1114139,0.0-145.0-0.0,voc_e2,12032,"[{""event"":""fullscreenenter"",""trial"":1,""time"":53030},{""event"":""blur"",""trial"":33,""time"":625000},{""event"":""focus"",""trial"":33,""time"":644662}]",NA,NA,NA,NA,NA,4,#3386FF,#D89F1C,10,0,1,40,0,318.7999999821186,39,0,4793.9000000059605,0,0,experiment,NA,NA,1,0.7,0.3,2,3,136,4,NA
fcp-trial,171,1123132,0.0-146.0-0.0,voc_e2,12032,"[{""event"":""fullscreenenter"",""trial"":1,""time"":53030},{""event"":""blur"",""trial"":33,""time"":625000},{""event"":""focus"",""trial"":33,""time"":644662}]",NA,NA,NA,NA,NA,5,#FA92F8,#1CD855,0,10,0,38,1,523.8999999761581,37,1,6964.9000000059605,0,0,experiment,NA,NA,0,0.1,0.9,1,0,137,4,NA
fcp-trial,172,1129350,0.0-147.0-0.0,voc_e2,12032,"[{""event"":""fullscreenenter"",""trial"":1,""time"":53030},{""event"":""blur"",""trial"":33,""time"":625000},{""event"":""focus"",""trial"":33,""time"":644662}]",NA,NA,NA,NA,NA,0,#1CD855,#FA92F8,10,0,1,40,0,476.7999999821186,39,0,4238.200000017881,0,0,experiment,NA,NA,0,0.9,0.1,0,1,138,4,NA
fcp-trial,173,1131264,0.0-148.0-0.0,voc_e2,12032,"[{""event"":""fullscreenenter"",""trial"":1,""time"":53030},{""event"":""blur"",""trial"":33,""time"":625000},{""event"":""focus"",""trial"":33,""time"":644662}]",NA,NA,NA,NA,NA,5,#3386FF,#D89F1C,10,10,1,38,1,5.299999982118607,39,0,403.19999998807907,10,0,experiment,NA,NA,1,0.7,0.3,2,3,139,4,NA
fcp-trial,174,1133594,0.0-149.0-0.0,voc_e2,12032,"[{""event"":""fullscreenenter"",""trial"":1,""time"":53030},{""event"":""blur"",""trial"":33,""time"":625000},{""event"":""focus"",""trial"":33,""time"":644662}]",NA,NA,NA,NA,NA,4,#741CD8,#D8271C,10,0,0,38,1,93.69999998807907,37,1,731.0999999940395,10,0,experiment,NA,NA,2,0.5,0.5,5,4,140,4,NA
fcp-trial,175,1138034,0.0-150.0-0.0,voc_e2,12032,"[{""event"":""fullscreenenter"",""trial"":1,""time"":53030},{""event"":""blur"",""trial"":33,""time"":625000},{""event"":""focus"",""trial"":33,""time"":644662}]",NA,NA,NA,NA,NA,1,#D89F1C,#3386FF,10,10,0,38,1,2636.2000000178814,37,1,298.30000001192093,10,0,experiment,NA,NA,1,0.3,0.7,3,2,141,4,NA
fcp-trial,176,1141885,0.0-151.0-0.0,voc_e2,12032,"[{""event"":""fullscreenenter"",""trial"":1,""time"":53030},{""event"":""blur"",""trial"":33,""time"":625000},{""event"":""focus"",""trial"":33,""time"":644662}]",NA,NA,NA,NA,NA,4,#FA92F8,#1CD855,0,10,0,40,0,1905,37,1,440,0,0,experiment,NA,NA,0,0.1,0.9,1,0,142,4,NA
fcp-trial,177,1145164,0.0-152.0-0.0,voc_e2,12032,"[{""event"":""fullscreenenter"",""trial"":1,""time"":53030},{""event"":""blur"",""trial"":33,""time"":625000},{""event"":""focus"",""trial"":33,""time"":644662}]",NA,NA,NA,NA,NA,2,#D8271C,#741CD8,10,10,1,40,0,1442,37,1,329.7000000178814,10,1,experiment,NA,NA,2,0.5,0.5,4,5,143,4,NA
fcp-trial,178,1147662,0.0-153.0-0.0,voc_e2,12032,"[{""event"":""fullscreenenter"",""trial"":1,""time"":53030},{""event"":""blur"",""trial"":33,""time"":625000},{""event"":""focus"",""trial"":33,""time"":644662}]",NA,NA,NA,NA,NA,6,#D89F1C,#3386FF,10,10,0,38,1,465.39999997615814,37,1,520.9000000059605,10,0,experiment,NA,NA,1,0.3,0.7,3,2,144,4,NA
fcp-trial,179,1153261,0.0-154.0-0.0,voc_e2,12032,"[{""event"":""fullscreenenter"",""trial"":1,""time"":53030},{""event"":""blur"",""trial"":33,""time"":625000},{""event"":""focus"",""trial"":33,""time"":644662}]",NA,NA,NA,NA,NA,2,#D89F1C,#3386FF,0,0,0,38,1,1979,37,1,2116.199999988079,0,0,experiment,NA,NA,1,0.3,0.7,3,2,145,4,NA
fcp-trial,180,1156641,0.0-155.0-0.0,voc_e2,12032,"[{""event"":""fullscreenenter"",""trial"":1,""time"":53030},{""event"":""blur"",""trial"":33,""time"":625000},{""event"":""focus"",""trial"":33,""time"":644662}]",NA,NA,NA,NA,NA,2,#1CD855,#FA92F8,10,0,1,38,1,555,39,0,1318.7000000178814,0,0,experiment,NA,NA,0,0.9,0.1,0,1,146,4,NA
fcp-trial,181,1161373,0.0-156.0-0.0,voc_e2,12032,"[{""event"":""fullscreenenter"",""trial"":1,""time"":53030},{""event"":""blur"",""trial"":33,""time"":625000},{""event"":""focus"",""trial"":33,""time"":644662}]",NA,NA,NA,NA,NA,3,#741CD8,#D8271C,0,10,0,38,1,1165.5999999940395,37,1,2062.5,0,0,experiment,NA,NA,2,0.5,0.5,5,4,147,4,NA
fcp-trial,182,1165022,0.0-157.0-0.0,voc_e2,12032,"[{""event"":""fullscreenenter"",""trial"":1,""time"":53030},{""event"":""blur"",""trial"":33,""time"":625000},{""event"":""focus"",""trial"":33,""time"":644662}]",NA,NA,NA,NA,NA,5,#1CD855,#FA92F8,10,0,1,38,1,802.1999999880791,37,1,1342,10,1,experiment,NA,NA,0,0.9,0.1,0,1,148,4,NA
fcp-trial,183,1166988,0.0-158.0-0.0,voc_e2,12032,"[{""event"":""fullscreenenter"",""trial"":1,""time"":53030},{""event"":""blur"",""trial"":33,""time"":625000},{""event"":""focus"",""trial"":33,""time"":644662}]",NA,NA,NA,NA,NA,5,#3386FF,#D89F1C,0,0,1,38,1,94.90000000596046,37,1,365.19999998807907,0,1,experiment,NA,NA,1,0.7,0.3,2,3,149,4,NA
fcp-trial,184,1169675,0.0-159.0-0.0,voc_e2,12032,"[{""event"":""fullscreenenter"",""trial"":1,""time"":53030},{""event"":""blur"",""trial"":33,""time"":625000},{""event"":""focus"",""trial"":33,""time"":644662}]",NA,NA,NA,NA,NA,6,#FA92F8,#1CD855,0,10,0,38,1,840.7000000178814,37,1,342,0,0,experiment,NA,NA,0,0.1,0.9,1,0,150,4,NA
fcp-trial,185,1172091,0.0-160.0-0.0,voc_e2,12032,"[{""event"":""fullscreenenter"",""trial"":1,""time"":53030},{""event"":""blur"",""trial"":33,""time"":625000},{""event"":""focus"",""trial"":33,""time"":644662}]",NA,NA,NA,NA,NA,4,#3386FF,#D89F1C,10,0,1,38,1,228.80000001192093,37,1,676,10,1,experiment,NA,NA,1,0.7,0.3,2,3,151,4,NA
fcp-trial,186,1174072,0.0-161.0-0.0,voc_e2,12032,"[{""event"":""fullscreenenter"",""trial"":1,""time"":53030},{""event"":""blur"",""trial"":33,""time"":625000},{""event"":""focus"",""trial"":33,""time"":644662}]",NA,NA,NA,NA,NA,5,#741CD8,#D8271C,10,10,0,38,1,173.89999997615814,39,0,303.7999999821186,10,1,experiment,NA,NA,2,0.5,0.5,5,4,152,4,NA
fcp-trial,187,1176054,0.0-162.0-0.0,voc_e2,12032,"[{""event"":""fullscreenenter"",""trial"":1,""time"":53030},{""event"":""blur"",""trial"":33,""time"":625000},{""event"":""focus"",""trial"":33,""time"":644662}]",NA,NA,NA,NA,NA,6,#3386FF,#D89F1C,0,0,1,40,0,54.30000001192093,37,1,422.2999999821186,0,1,experiment,NA,NA,1,0.7,0.3,2,3,153,4,NA
fcp-trial,188,1179750,0.0-163.0-0.0,voc_e2,12032,"[{""event"":""fullscreenenter"",""trial"":1,""time"":53030},{""event"":""blur"",""trial"":33,""time"":625000},{""event"":""focus"",""trial"":33,""time"":644662}]",NA,NA,NA,NA,NA,3,#FA92F8,#1CD855,10,10,0,40,0,579.0999999940395,37,1,1613,10,0,experiment,NA,NA,0,0.1,0.9,1,0,154,4,NA
fcp-trial,189,1184762,0.0-164.0-0.0,voc_e2,12032,"[{""event"":""fullscreenenter"",""trial"":1,""time"":53030},{""event"":""blur"",""trial"":33,""time"":625000},{""event"":""focus"",""trial"":33,""time"":644662}]",NA,NA,NA,NA,NA,2,#D8271C,#741CD8,0,10,1,38,1,1247,37,1,2257.5999999940395,0,1,experiment,NA,NA,2,0.5,0.5,4,5,155,4,NA
fcp-trial,190,1186929,0.0-165.0-0.0,voc_e2,12032,"[{""event"":""fullscreenenter"",""trial"":1,""time"":53030},{""event"":""blur"",""trial"":33,""time"":625000},{""event"":""focus"",""trial"":33,""time"":644662}]",NA,NA,NA,NA,NA,3,#D89F1C,#3386FF,0,10,0,38,1,144.60000002384186,37,1,515.4000000059605,0,0,experiment,NA,NA,1,0.3,0.7,3,2,156,4,NA
fcp-trial,191,1190256,0.0-166.0-0.0,voc_e2,12032,"[{""event"":""fullscreenenter"",""trial"":1,""time"":53030},{""event"":""blur"",""trial"":33,""time"":625000},{""event"":""focus"",""trial"":33,""time"":644662}]",NA,NA,NA,NA,NA,6,#D8271C,#741CD8,0,10,1,38,1,688.3000000119209,39,0,1134.4000000059605,10,0,experiment,NA,NA,2,0.5,0.5,4,5,157,4,NA
fcp-trial,192,1192799,0.0-167.0-0.0,voc_e2,12032,"[{""event"":""fullscreenenter"",""trial"":1,""time"":53030},{""event"":""blur"",""trial"":33,""time"":625000},{""event"":""focus"",""trial"":33,""time"":644662}]",NA,NA,NA,NA,NA,4,#D8271C,#741CD8,0,0,1,38,1,726.0999999940395,39,0,313.5,0,0,experiment,NA,NA,2,0.5,0.5,4,5,158,4,NA
fcp-trial,193,1197344,0.0-168.0-0.0,voc_e2,12032,"[{""event"":""fullscreenenter"",""trial"":1,""time"":53030},{""event"":""blur"",""trial"":33,""time"":625000},{""event"":""focus"",""trial"":33,""time"":644662}]",NA,NA,NA,NA,NA,1,#1CD855,#FA92F8,10,0,1,38,1,375.69999998807907,39,0,2664.2000000178814,0,0,experiment,NA,NA,0,0.9,0.1,0,1,159,4,NA
fcp-trial,194,1202061,0.0-169.0-0.0,voc_e2,12032,"[{""event"":""fullscreenenter"",""trial"":1,""time"":53030},{""event"":""blur"",""trial"":33,""time"":625000},{""event"":""focus"",""trial"":33,""time"":644662}]",NA,NA,NA,NA,NA,4,#1CD855,#FA92F8,10,0,1,40,0,326.59999999403954,39,0,2886.5999999940395,0,0,experiment,NA,NA,0,0.9,0.1,0,1,160,4,NA
fcp-trial,195,1204350,0.0-170.0-0.0,voc_e2,12032,"[{""event"":""fullscreenenter"",""trial"":1,""time"":53030},{""event"":""blur"",""trial"":33,""time"":625000},{""event"":""focus"",""trial"":33,""time"":644662}]",NA,NA,NA,NA,NA,1,#D89F1C,#3386FF,0,10,0,38,1,425.80000001192093,37,1,358,0,0,experiment,NA,NA,1,0.3,0.7,3,2,161,4,NA
fcp-trial,196,1206330,0.0-171.0-0.0,voc_e2,12032,"[{""event"":""fullscreenenter"",""trial"":1,""time"":53030},{""event"":""blur"",""trial"":33,""time"":625000},{""event"":""focus"",""trial"":33,""time"":644662}]",NA,NA,NA,NA,NA,0,#1CD855,#FA92F8,10,0,1,40,0,121.5,39,0,354.10000002384186,0,0,experiment,NA,NA,0,0.9,0.1,0,1,162,4,NA
fcp-trial,197,1209882,0.0-172.0-0.0,voc_e2,12032,"[{""event"":""fullscreenenter"",""trial"":1,""time"":53030},{""event"":""blur"",""trial"":33,""time"":625000},{""event"":""focus"",""trial"":33,""time"":644662}]",NA,NA,NA,NA,NA,1,#741CD8,#D8271C,0,0,0,38,1,70,39,0,1977.5999999940395,0,1,experiment,NA,NA,2,0.5,0.5,5,4,163,4,NA
fcp-trial,198,1211848,0.0-173.0-0.0,voc_e2,12032,"[{""event"":""fullscreenenter"",""trial"":1,""time"":53030},{""event"":""blur"",""trial"":33,""time"":625000},{""event"":""focus"",""trial"":33,""time"":644662}]",NA,NA,NA,NA,NA,2,#D89F1C,#3386FF,0,10,0,38,1,127.09999999403954,37,1,334.09999999403954,0,0,experiment,NA,NA,1,0.3,0.7,3,2,164,4,NA
fcp-trial,199,1213834,0.0-174.0-0.0,voc_e2,12032,"[{""event"":""fullscreenenter"",""trial"":1,""time"":53030},{""event"":""blur"",""trial"":33,""time"":625000},{""event"":""focus"",""trial"":33,""time"":644662}]",NA,NA,NA,NA,NA,0,#3386FF,#D89F1C,10,0,1,38,1,175.39999997615814,37,1,306.19999998807907,10,1,experiment,NA,NA,1,0.7,0.3,2,3,165,4,NA
fcp-trial,200,1216169,0.0-175.0-0.0,voc_e2,12032,"[{""event"":""fullscreenenter"",""trial"":1,""time"":53030},{""event"":""blur"",""trial"":33,""time"":625000},{""event"":""focus"",""trial"":33,""time"":644662}]",NA,NA,NA,NA,NA,0,#741CD8,#D8271C,10,10,0,38,1,272.5,37,1,558.2000000178814,10,0,experiment,NA,NA,2,0.5,0.5,5,4,166,4,NA
fcp-trial,201,1218823,0.0-176.0-0.0,voc_e2,12032,"[{""event"":""fullscreenenter"",""trial"":1,""time"":53030},{""event"":""blur"",""trial"":33,""time"":625000},{""event"":""focus"",""trial"":33,""time"":644662}]",NA,NA,NA,NA,NA,2,#1CD855,#FA92F8,10,0,1,38,1,712.4000000059605,39,0,436.10000002384186,0,0,experiment,NA,NA,0,0.9,0.1,0,1,167,4,NA
fcp-trial,202,1221031,0.0-177.0-0.0,voc_e2,12032,"[{""event"":""fullscreenenter"",""trial"":1,""time"":53030},{""event"":""blur"",""trial"":33,""time"":625000},{""event"":""focus"",""trial"":33,""time"":644662}]",NA,NA,NA,NA,NA,3,#D8271C,#741CD8,0,10,1,38,1,18.599999994039536,37,1,684.6999999880791,0,1,experiment,NA,NA,2,0.5,0.5,4,5,168,4,NA
fcp-trial,203,1222820,0.0-178.0-0.0,voc_e2,12032,"[{""event"":""fullscreenenter"",""trial"":1,""time"":53030},{""event"":""blur"",""trial"":33,""time"":625000},{""event"":""focus"",""trial"":33,""time"":644662}]",NA,NA,NA,NA,NA,4,#1CD855,#FA92F8,10,0,1,38,1,25.700000017881393,37,1,259.19999998807907,10,1,experiment,NA,NA,0,0.9,0.1,0,1,169,4,NA
fcp-trial,204,1224849,0.0-179.0-0.0,voc_e2,12032,"[{""event"":""fullscreenenter"",""trial"":1,""time"":53030},{""event"":""blur"",""trial"":33,""time"":625000},{""event"":""focus"",""trial"":33,""time"":644662}]",NA,NA,NA,NA,NA,2,#1CD855,#FA92F8,10,0,1,38,1,41.900000005960464,37,1,481.69999998807907,10,1,experiment,NA,NA,0,0.9,0.1,0,1,170,4,NA
fcp-trial,205,1226770,0.0-180.0-0.0,voc_e2,12032,"[{""event"":""fullscreenenter"",""trial"":1,""time"":53030},{""event"":""blur"",""trial"":33,""time"":625000},{""event"":""focus"",""trial"":33,""time"":644662}]",NA,NA,NA,NA,NA,3,#D89F1C,#3386FF,10,10,0,38,1,43.599999994039536,37,1,372.90000000596046,10,0,experiment,NA,NA,1,0.3,0.7,3,2,171,4,NA
fcp-trial,206,1228670,0.0-181.0-0.0,voc_e2,12032,"[{""event"":""fullscreenenter"",""trial"":1,""time"":53030},{""event"":""blur"",""trial"":33,""time"":625000},{""event"":""focus"",""trial"":33,""time"":644662}]",NA,NA,NA,NA,NA,2,#741CD8,#D8271C,0,0,0,38,1,125.80000001192093,37,1,270.60000002384186,0,0,experiment,NA,NA,2,0.5,0.5,5,4,172,4,NA
fcp-trial,207,1231202,0.0-182.0-0.0,voc_e2,12032,"[{""event"":""fullscreenenter"",""trial"":1,""time"":53030},{""event"":""blur"",""trial"":33,""time"":625000},{""event"":""focus"",""trial"":33,""time"":644662}]",NA,NA,NA,NA,NA,0,#FA92F8,#1CD855,0,10,0,40,0,146.59999999403954,39,0,878.7999999821186,10,1,experiment,NA,NA,0,0.1,0.9,1,0,173,4,NA
fcp-trial,208,1234086,0.0-183.0-0.0,voc_e2,12032,"[{""event"":""fullscreenenter"",""trial"":1,""time"":53030},{""event"":""blur"",""trial"":33,""time"":625000},{""event"":""focus"",""trial"":33,""time"":644662}]",NA,NA,NA,NA,NA,2,#3386FF,#D89F1C,10,10,1,38,1,192.89999997615814,37,1,1187.5999999940395,10,1,experiment,NA,NA,1,0.7,0.3,2,3,174,4,NA
fcp-trial,209,1236334,0.0-184.0-0.0,voc_e2,12032,"[{""event"":""fullscreenenter"",""trial"":1,""time"":53030},{""event"":""blur"",""trial"":33,""time"":625000},{""event"":""focus"",""trial"":33,""time"":644662}]",NA,NA,NA,NA,NA,1,#D8271C,#741CD8,0,0,1,38,1,122.7000000178814,37,1,618,0,1,experiment,NA,NA,2,0.5,0.5,4,5,175,4,NA
fcp-trial,210,1238430,0.0-185.0-0.0,voc_e2,12032,"[{""event"":""fullscreenenter"",""trial"":1,""time"":53030},{""event"":""blur"",""trial"":33,""time"":625000},{""event"":""focus"",""trial"":33,""time"":644662}]",NA,NA,NA,NA,NA,6,#1CD855,#FA92F8,10,0,1,38,1,181.2000000178814,37,1,406.7000000178814,10,1,experiment,NA,NA,0,0.9,0.1,0,1,176,4,NA
fcp-trial,211,1242942,0.0-186.0-0.0,voc_e2,12032,"[{""event"":""fullscreenenter"",""trial"":1,""time"":53030},{""event"":""blur"",""trial"":33,""time"":625000},{""event"":""focus"",""trial"":33,""time"":644662}]",NA,NA,NA,NA,NA,4,#D89F1C,#3386FF,10,10,0,40,0,558.0999999940395,39,0,2449.9000000059605,10,1,experiment,NA,NA,1,0.3,0.7,3,2,177,4,NA
fcp-trial,212,1245147,0.0-187.0-0.0,voc_e2,12032,"[{""event"":""fullscreenenter"",""trial"":1,""time"":53030},{""event"":""blur"",""trial"":33,""time"":625000},{""event"":""focus"",""trial"":33,""time"":644662}]",NA,NA,NA,NA,NA,6,#D8271C,#741CD8,10,10,1,38,1,176.40000000596046,37,1,523.5999999940395,10,1,experiment,NA,NA,2,0.5,0.5,4,5,178,4,NA
fcp-trial,213,1248040,0.0-188.0-0.0,voc_e2,12032,"[{""event"":""fullscreenenter"",""trial"":1,""time"":53030},{""event"":""blur"",""trial"":33,""time"":625000},{""event"":""focus"",""trial"":33,""time"":644662}]",NA,NA,NA,NA,NA,0,#D8271C,#741CD8,10,10,1,38,1,31.700000017881393,39,0,1356.0999999940395,10,0,experiment,NA,NA,2,0.5,0.5,4,5,179,4,NA
fcp-trial,214,1251213,0.0-189.0-0.0,voc_e2,12032,"[{""event"":""fullscreenenter"",""trial"":1,""time"":53030},{""event"":""blur"",""trial"":33,""time"":625000},{""event"":""focus"",""trial"":33,""time"":644662}]",NA,NA,NA,NA,NA,5,#1CD855,#FA92F8,10,0,1,40,0,24.80000001192093,37,1,1643.5,10,1,experiment,NA,NA,0,0.9,0.1,0,1,180,4,NA
fcp-trial,215,1253437,0.0-190.0-0.0,voc_e2,12032,"[{""event"":""fullscreenenter"",""trial"":1,""time"":53030},{""event"":""blur"",""trial"":33,""time"":625000},{""event"":""focus"",""trial"":33,""time"":644662}]",NA,NA,NA,NA,NA,4,#D8271C,#741CD8,0,10,1,38,1,141.69999998807907,37,1,578.5999999940395,0,1,experiment,NA,NA,2,0.5,0.5,4,5,181,5,NA
fcp-trial,216,1256163,0.0-191.0-0.0,voc_e2,12032,"[{""event"":""fullscreenenter"",""trial"":1,""time"":53030},{""event"":""blur"",""trial"":33,""time"":625000},{""event"":""focus"",""trial"":33,""time"":644662}]",NA,NA,NA,NA,NA,5,#3386FF,#D89F1C,0,0,1,40,0,291.09999999403954,37,1,929.3000000119209,0,1,experiment,NA,NA,1,0.7,0.3,2,3,182,5,NA
fcp-trial,217,1258833,0.0-192.0-0.0,voc_e2,12032,"[{""event"":""fullscreenenter"",""trial"":1,""time"":53030},{""event"":""blur"",""trial"":33,""time"":625000},{""event"":""focus"",""trial"":33,""time"":644662}]",NA,NA,NA,NA,NA,6,#3386FF,#D89F1C,10,0,1,38,1,680.1999999880791,37,1,484.09999999403954,10,1,experiment,NA,NA,1,0.7,0.3,2,3,183,5,NA
fcp-trial,218,1260790,0.0-193.0-0.0,voc_e2,12032,"[{""event"":""fullscreenenter"",""trial"":1,""time"":53030},{""event"":""blur"",""trial"":33,""time"":625000},{""event"":""focus"",""trial"":33,""time"":644662}]",NA,NA,NA,NA,NA,3,#FA92F8,#1CD855,0,10,0,38,1,181.59999999403954,37,1,268.39999997615814,0,0,experiment,NA,NA,0,0.1,0.9,1,0,184,5,NA
fcp-trial,219,1265917,0.0-194.0-0.0,voc_e2,12032,"[{""event"":""fullscreenenter"",""trial"":1,""time"":53030},{""event"":""blur"",""trial"":33,""time"":625000},{""event"":""focus"",""trial"":33,""time"":644662}]",NA,NA,NA,NA,NA,5,#D8271C,#741CD8,0,0,1,38,1,106.5,39,0,3513.4000000059605,0,0,experiment,NA,NA,2,0.5,0.5,4,5,185,5,NA
fcp-trial,220,1270955,0.0-195.0-0.0,voc_e2,12032,"[{""event"":""fullscreenenter"",""trial"":1,""time"":53030},{""event"":""blur"",""trial"":33,""time"":625000},{""event"":""focus"",""trial"":33,""time"":644662}]",NA,NA,NA,NA,NA,1,#3386FF,#D89F1C,10,0,1,38,1,2761.300000011921,37,1,772.5,10,1,experiment,NA,NA,1,0.7,0.3,2,3,186,5,NA
fcp-trial,221,1273584,0.0-196.0-0.0,voc_e2,12032,"[{""event"":""fullscreenenter"",""trial"":1,""time"":53030},{""event"":""blur"",""trial"":33,""time"":625000},{""event"":""focus"",""trial"":33,""time"":644662}]",NA,NA,NA,NA,NA,1,#1CD855,#FA92F8,10,0,1,38,1,466,37,1,655.8999999761581,10,1,experiment,NA,NA,0,0.9,0.1,0,1,187,5,NA
fcp-trial,222,1276157,0.0-197.0-0.0,voc_e2,12032,"[{""event"":""fullscreenenter"",""trial"":1,""time"":53030},{""event"":""blur"",""trial"":33,""time"":625000},{""event"":""focus"",""trial"":33,""time"":644662}]",NA,NA,NA,NA,NA,0,#D89F1C,#3386FF,0,10,0,38,1,509.40000000596046,37,1,559.1999999880791,0,0,experiment,NA,NA,1,0.3,0.7,3,2,188,5,NA
fcp-trial,223,1279577,0.0-198.0-0.0,voc_e2,12032,"[{""event"":""fullscreenenter"",""trial"":1,""time"":53030},{""event"":""blur"",""trial"":33,""time"":625000},{""event"":""focus"",""trial"":33,""time"":644662}]",NA,NA,NA,NA,NA,3,#D8271C,#741CD8,10,0,1,40,0,1020.5999999940395,39,0,895,0,0,experiment,NA,NA,2,0.5,0.5,4,5,189,5,NA
fcp-trial,224,1282415,0.0-199.0-0.0,voc_e2,12032,"[{""event"":""fullscreenenter"",""trial"":1,""time"":53030},{""event"":""blur"",""trial"":33,""time"":625000},{""event"":""focus"",""trial"":33,""time"":644662}]",NA,NA,NA,NA,NA,6,#741CD8,#D8271C,10,10,0,38,1,129.90000000596046,39,0,1201.800000011921,10,1,experiment,NA,NA,2,0.5,0.5,5,4,190,5,NA
fcp-trial,225,1284899,0.0-200.0-0.0,voc_e2,12032,"[{""event"":""fullscreenenter"",""trial"":1,""time"":53030},{""event"":""blur"",""trial"":33,""time"":625000},{""event"":""focus"",""trial"":33,""time"":644662}]",NA,NA,NA,NA,NA,2,#741CD8,#D8271C,0,0,0,40,0,33.69999998807907,37,1,947,0,0,experiment,NA,NA,2,0.5,0.5,5,4,191,5,NA
fcp-trial,226,1287303,0.0-201.0-0.0,voc_e2,12032,"[{""event"":""fullscreenenter"",""trial"":1,""time"":53030},{""event"":""blur"",""trial"":33,""time"":625000},{""event"":""focus"",""trial"":33,""time"":644662}]",NA,NA,NA,NA,NA,1,#741CD8,#D8271C,10,0,0,38,1,415.80000001192093,39,0,485.09999999403954,0,1,experiment,NA,NA,2,0.5,0.5,5,4,192,5,NA
fcp-trial,227,1289579,0.0-202.0-0.0,voc_e2,12032,"[{""event"":""fullscreenenter"",""trial"":1,""time"":53030},{""event"":""blur"",""trial"":33,""time"":625000},{""event"":""focus"",""trial"":33,""time"":644662}]",NA,NA,NA,NA,NA,4,#3386FF,#D89F1C,10,0,1,38,1,484.2999999821186,39,0,286.2000000178814,0,0,experiment,NA,NA,1,0.7,0.3,2,3,193,5,NA
fcp-trial,228,1292088,0.0-203.0-0.0,voc_e2,12032,"[{""event"":""fullscreenenter"",""trial"":1,""time"":53030},{""event"":""blur"",""trial"":33,""time"":625000},{""event"":""focus"",""trial"":33,""time"":644662}]",NA,NA,NA,NA,NA,2,#FA92F8,#1CD855,0,10,0,40,0,154.59999999403954,39,0,846.5999999940395,10,1,experiment,NA,NA,0,0.1,0.9,1,0,194,5,NA
fcp-trial,229,1294297,0.0-204.0-0.0,voc_e2,12032,"[{""event"":""fullscreenenter"",""trial"":1,""time"":53030},{""event"":""blur"",""trial"":33,""time"":625000},{""event"":""focus"",""trial"":33,""time"":644662}]",NA,NA,NA,NA,NA,3,#FA92F8,#1CD855,0,0,0,40,0,62.70000001788139,39,0,639.8999999761581,0,1,experiment,NA,NA,0,0.1,0.9,1,0,195,5,NA
fcp-trial,230,1296543,0.0-205.0-0.0,voc_e2,12032,"[{""event"":""fullscreenenter"",""trial"":1,""time"":53030},{""event"":""blur"",""trial"":33,""time"":625000},{""event"":""focus"",""trial"":33,""time"":644662}]",NA,NA,NA,NA,NA,6,#D89F1C,#3386FF,0,0,0,38,1,335.40000000596046,37,1,406.40000000596046,0,0,experiment,NA,NA,1,0.3,0.7,3,2,196,5,NA
fcp-trial,231,1299170,0.0-206.0-0.0,voc_e2,12032,"[{""event"":""fullscreenenter"",""trial"":1,""time"":53030},{""event"":""blur"",""trial"":33,""time"":625000},{""event"":""focus"",""trial"":33,""time"":644662}]",NA,NA,NA,NA,NA,5,#D8271C,#741CD8,10,0,1,38,1,617.1999999880791,37,1,506.39999997615814,10,1,experiment,NA,NA,2,0.5,0.5,4,5,197,5,NA
fcp-trial,232,1302487,0.0-207.0-0.0,voc_e2,12032,"[{""event"":""fullscreenenter"",""trial"":1,""time"":53030},{""event"":""blur"",""trial"":33,""time"":625000},{""event"":""focus"",""trial"":33,""time"":644662}]",NA,NA,NA,NA,NA,0,#1CD855,#FA92F8,0,0,1,38,1,1379.2000000178814,37,1,434.2000000178814,0,1,experiment,NA,NA,0,0.9,0.1,0,1,198,5,NA
fcp-trial,233,1304780,0.0-208.0-0.0,voc_e2,12032,"[{""event"":""fullscreenenter"",""trial"":1,""time"":53030},{""event"":""blur"",""trial"":33,""time"":625000},{""event"":""focus"",""trial"":33,""time"":644662}]",NA,NA,NA,NA,NA,4,#741CD8,#D8271C,10,10,0,38,1,10.199999988079071,37,1,777.6999999880791,10,0,experiment,NA,NA,2,0.5,0.5,5,4,199,5,NA
fcp-trial,234,1308133,0.0-209.0-0.0,voc_e2,12032,"[{""event"":""fullscreenenter"",""trial"":1,""time"":53030},{""event"":""blur"",""trial"":33,""time"":625000},{""event"":""focus"",""trial"":33,""time"":644662}]",NA,NA,NA,NA,NA,3,#3386FF,#D89F1C,0,0,1,38,1,1188.699999988079,37,1,659,0,1,experiment,NA,NA,1,0.7,0.3,2,3,200,5,NA
fcp-trial,235,1318745,0.0-210.0-0.0,voc_e2,12032,"[{""event"":""fullscreenenter"",""trial"":1,""time"":53030},{""event"":""blur"",""trial"":33,""time"":625000},{""event"":""focus"",""trial"":33,""time"":644662}]",NA,NA,NA,NA,NA,5,#3386FF,#D89F1C,0,0,1,40,0,643.3000000119209,39,0,8464.59999999404,0,0,experiment,NA,NA,1,0.7,0.3,2,3,201,5,NA
fcp-trial,236,1322149,0.0-211.0-0.0,voc_e2,12032,"[{""event"":""fullscreenenter"",""trial"":1,""time"":53030},{""event"":""blur"",""trial"":33,""time"":625000},{""event"":""focus"",""trial"":33,""time"":644662}]",NA,NA,NA,NA,NA,4,#1CD855,#FA92F8,10,0,1,38,1,748.8000000119209,37,1,1151.199999988079,10,1,experiment,NA,NA,0,0.9,0.1,0,1,202,5,NA
fcp-trial,237,1324399,0.0-212.0-0.0,voc_e2,12032,"[{""event"":""fullscreenenter"",""trial"":1,""time"":53030},{""event"":""blur"",""trial"":33,""time"":625000},{""event"":""focus"",""trial"":33,""time"":644662}]",NA,NA,NA,NA,NA,5,#1CD855,#FA92F8,10,10,1,38,1,188.5,37,1,557.0999999940395,10,1,experiment,NA,NA,0,0.9,0.1,0,1,203,5,NA
fcp-trial,238,1326537,0.0-213.0-0.0,voc_e2,12032,"[{""event"":""fullscreenenter"",""trial"":1,""time"":53030},{""event"":""blur"",""trial"":33,""time"":625000},{""event"":""focus"",""trial"":33,""time"":644662}]",NA,NA,NA,NA,NA,0,#741CD8,#D8271C,0,0,0,38,1,189.7999999821186,37,1,444.5,0,0,experiment,NA,NA,2,0.5,0.5,5,4,204,5,NA
fcp-trial,239,1328958,0.0-214.0-0.0,voc_e2,12032,"[{""event"":""fullscreenenter"",""trial"":1,""time"":53030},{""event"":""blur"",""trial"":33,""time"":625000},{""event"":""focus"",""trial"":33,""time"":644662}]",NA,NA,NA,NA,NA,2,#D89F1C,#3386FF,10,0,0,38,1,220.59999999403954,39,0,697.2000000178814,0,1,experiment,NA,NA,1,0.3,0.7,3,2,205,5,NA
fcp-trial,240,1332046,0.0-215.0-0.0,voc_e2,12032,"[{""event"":""fullscreenenter"",""trial"":1,""time"":53030},{""event"":""blur"",""trial"":33,""time"":625000},{""event"":""focus"",""trial"":33,""time"":644662}]",NA,NA,NA,NA,NA,1,#3386FF,#D89F1C,10,0,1,38,1,1238,37,1,343.19999998807907,10,1,experiment,NA,NA,1,0.7,0.3,2,3,206,5,NA
fcp-trial,241,1337050,0.0-216.0-0.0,voc_e2,12032,"[{""event"":""fullscreenenter"",""trial"":1,""time"":53030},{""event"":""blur"",""trial"":33,""time"":625000},{""event"":""focus"",""trial"":33,""time"":644662}]",NA,NA,NA,NA,NA,6,#FA92F8,#1CD855,10,10,0,40,0,139.09999999403954,39,0,3359,10,1,experiment,NA,NA,0,0.1,0.9,1,0,207,5,NA
fcp-trial,242,1339107,0.0-217.0-0.0,voc_e2,12032,"[{""event"":""fullscreenenter"",""trial"":1,""time"":53030},{""event"":""blur"",""trial"":33,""time"":625000},{""event"":""focus"",""trial"":33,""time"":644662}]",NA,NA,NA,NA,NA,3,#D8271C,#741CD8,0,0,1,38,1,168.5,39,0,383.7999999821186,0,0,experiment,NA,NA,2,0.5,0.5,4,5,208,5,NA
fcp-trial,243,1342286,0.0-218.0-0.0,voc_e2,12032,"[{""event"":""fullscreenenter"",""trial"":1,""time"":53030},{""event"":""blur"",""trial"":33,""time"":625000},{""event"":""focus"",""trial"":33,""time"":644662}]",NA,NA,NA,NA,NA,1,#1CD855,#FA92F8,10,0,1,40,0,1129.5999999940395,37,1,544.7000000178814,10,1,experiment,NA,NA,0,0.9,0.1,0,1,209,5,NA
fcp-trial,244,1344912,0.0-219.0-0.0,voc_e2,12032,"[{""event"":""fullscreenenter"",""trial"":1,""time"":53030},{""event"":""blur"",""trial"":33,""time"":625000},{""event"":""focus"",""trial"":33,""time"":644662}]",NA,NA,NA,NA,NA,0,#D89F1C,#3386FF,0,10,0,38,1,111.80000001192093,39,0,1010.7999999821186,10,1,experiment,NA,NA,1,0.3,0.7,3,2,210,5,NA
audio-instructions,245,2237823,0.0-220.0,voc_e2,12032,"[{""event"":""fullscreenenter"",""trial"":1,""time"":53030},{""event"":""blur"",""trial"":33,""time"":625000},{""event"":""focus"",""trial"":33,""time"":644662},{""event"":""blur"",""trial"":245,""time"":1714226},{""event"":""focus"",""trial"":245,""time"":2236108}]",NA,887827.5,static/audio/pause.wav,NA,0,NA,NA,NA,NA,NA,NA,NA,NA,NA,NA,NA,NA,NA,NA,NA,NA,NA,NA,NA,NA,NA,NA,NA,NA,NA
fcp-trial,246,2240295,0.0-221.0-0.0,voc_e2,12032,"[{""event"":""fullscreenenter"",""trial"":1,""time"":53030},{""event"":""blur"",""trial"":33,""time"":625000},{""event"":""focus"",""trial"":33,""time"":644662},{""event"":""blur"",""trial"":245,""time"":1714226},{""event"":""focus"",""trial"":245,""time"":2236108}]",NA,NA,NA,NA,NA,2,#3386FF,#D89F1C,10,0,1,40,0,657.5,37,1,307,10,1,experiment,NA,NA,1,0.7,0.3,2,3,211,5,NA
fcp-trial,247,2243644,0.0-222.0-0.0,voc_e2,12032,"[{""event"":""fullscreenenter"",""trial"":1,""time"":53030},{""event"":""blur"",""trial"":33,""time"":625000},{""event"":""focus"",""trial"":33,""time"":644662},{""event"":""blur"",""trial"":245,""time"":1714226},{""event"":""focus"",""trial"":245,""time"":2236108}]",NA,NA,NA,NA,NA,4,#FA92F8,#1CD855,0,10,0,40,0,273.7000000178814,37,1,1568.2999999821186,0,0,experiment,NA,NA,0,0.1,0.9,1,0,212,5,NA
fcp-trial,248,2245754,0.0-223.0-0.0,voc_e2,12032,"[{""event"":""fullscreenenter"",""trial"":1,""time"":53030},{""event"":""blur"",""trial"":33,""time"":625000},{""event"":""focus"",""trial"":33,""time"":644662},{""event"":""blur"",""trial"":245,""time"":1714226},{""event"":""focus"",""trial"":245,""time"":2236108}]",NA,NA,NA,NA,NA,5,#1CD855,#FA92F8,10,10,1,38,1,215.40000000596046,37,1,386.69999998807907,10,1,experiment,NA,NA,0,0.9,0.1,0,1,213,5,NA
fcp-trial,249,2248211,0.0-224.0-0.0,voc_e2,12032,"[{""event"":""fullscreenenter"",""trial"":1,""time"":53030},{""event"":""blur"",""trial"":33,""time"":625000},{""event"":""focus"",""trial"":33,""time"":644662},{""event"":""blur"",""trial"":245,""time"":1714226},{""event"":""focus"",""trial"":245,""time"":2236108}]",NA,NA,NA,NA,NA,1,#D8271C,#741CD8,0,0,1,38,1,539.8000000119209,39,0,413.19999998807907,0,0,experiment,NA,NA,2,0.5,0.5,4,5,214,5,NA
fcp-trial,250,2250446,0.0-225.0-0.0,voc_e2,12032,"[{""event"":""fullscreenenter"",""trial"":1,""time"":53030},{""event"":""blur"",""trial"":33,""time"":625000},{""event"":""focus"",""trial"":33,""time"":644662},{""event"":""blur"",""trial"":245,""time"":1714226},{""event"":""focus"",""trial"":245,""time"":2236108}]",NA,NA,NA,NA,NA,4,#3386FF,#D89F1C,10,10,1,38,1,347.59999999403954,37,1,381.2000000178814,10,1,experiment,NA,NA,1,0.7,0.3,2,3,215,5,NA
fcp-trial,251,2252387,0.0-226.0-0.0,voc_e2,12032,"[{""event"":""fullscreenenter"",""trial"":1,""time"":53030},{""event"":""blur"",""trial"":33,""time"":625000},{""event"":""focus"",""trial"":33,""time"":644662},{""event"":""blur"",""trial"":245,""time"":1714226},{""event"":""focus"",""trial"":245,""time"":2236108}]",NA,NA,NA,NA,NA,1,#1CD855,#FA92F8,10,0,1,40,0,25.400000005960464,39,0,408.30000001192093,0,0,experiment,NA,NA,0,0.9,0.1,0,1,216,5,NA
fcp-trial,252,2254384,0.0-227.0-0.0,voc_e2,12032,"[{""event"":""fullscreenenter"",""trial"":1,""time"":53030},{""event"":""blur"",""trial"":33,""time"":625000},{""event"":""focus"",""trial"":33,""time"":644662},{""event"":""blur"",""trial"":245,""time"":1714226},{""event"":""focus"",""trial"":245,""time"":2236108}]",NA,NA,NA,NA,NA,2,#FA92F8,#1CD855,0,10,0,38,1,182,37,1,309.09999999403954,0,0,experiment,NA,NA,0,0.1,0.9,1,0,217,5,NA
fcp-trial,253,2256665,0.0-228.0-0.0,voc_e2,12032,"[{""event"":""fullscreenenter"",""trial"":1,""time"":53030},{""event"":""blur"",""trial"":33,""time"":625000},{""event"":""focus"",""trial"":33,""time"":644662},{""event"":""blur"",""trial"":245,""time"":1714226},{""event"":""focus"",""trial"":245,""time"":2236108}]",NA,NA,NA,NA,NA,0,#D89F1C,#3386FF,10,10,0,40,0,458.90000000596046,37,1,318.7000000178814,10,0,experiment,NA,NA,1,0.3,0.7,3,2,218,5,NA
fcp-trial,254,2258814,0.0-229.0-0.0,voc_e2,12032,"[{""event"":""fullscreenenter"",""trial"":1,""time"":53030},{""event"":""blur"",""trial"":33,""time"":625000},{""event"":""focus"",""trial"":33,""time"":644662},{""event"":""blur"",""trial"":245,""time"":1714226},{""event"":""focus"",""trial"":245,""time"":2236108}]",NA,NA,NA,NA,NA,2,#D8271C,#741CD8,10,0,1,38,1,392.19999998807907,39,0,253.2999999821186,0,0,experiment,NA,NA,2,0.5,0.5,4,5,219,5,NA
fcp-trial,255,2260941,0.0-230.0-0.0,voc_e2,12032,"[{""event"":""fullscreenenter"",""trial"":1,""time"":53030},{""event"":""blur"",""trial"":33,""time"":625000},{""event"":""focus"",""trial"":33,""time"":644662},{""event"":""blur"",""trial"":245,""time"":1714226},{""event"":""focus"",""trial"":245,""time"":2236108}]",NA,NA,NA,NA,NA,3,#FA92F8,#1CD855,10,10,0,40,0,34.80000001192093,37,1,587.4000000059605,10,0,experiment,NA,NA,0,0.1,0.9,1,0,220,5,NA
fcp-trial,256,2265381,0.0-231.0-0.0,voc_e2,12032,"[{""event"":""fullscreenenter"",""trial"":1,""time"":53030},{""event"":""blur"",""trial"":33,""time"":625000},{""event"":""focus"",""trial"":33,""time"":644662},{""event"":""blur"",""trial"":245,""time"":1714226},{""event"":""focus"",""trial"":245,""time"":2236108}]",NA,NA,NA,NA,NA,1,#D89F1C,#3386FF,0,10,0,38,1,188.69999998807907,39,0,2748.0999999940395,10,1,experiment,NA,NA,1,0.3,0.7,3,2,221,5,NA
fcp-trial,257,2267434,0.0-232.0-0.0,voc_e2,12032,"[{""event"":""fullscreenenter"",""trial"":1,""time"":53030},{""event"":""blur"",""trial"":33,""time"":625000},{""event"":""focus"",""trial"":33,""time"":644662},{""event"":""blur"",""trial"":245,""time"":1714226},{""event"":""focus"",""trial"":245,""time"":2236108}]",NA,NA,NA,NA,NA,0,#FA92F8,#1CD855,0,10,0,38,1,179,37,1,367.10000002384186,0,0,experiment,NA,NA,0,0.1,0.9,1,0,222,5,NA
fcp-trial,258,2269596,0.0-233.0-0.0,voc_e2,12032,"[{""event"":""fullscreenenter"",""trial"":1,""time"":53030},{""event"":""blur"",""trial"":33,""time"":625000},{""event"":""focus"",""trial"":33,""time"":644662},{""event"":""blur"",""trial"":245,""time"":1714226},{""event"":""focus"",""trial"":245,""time"":2236108}]",NA,NA,NA,NA,NA,3,#741CD8,#D8271C,0,10,0,38,1,127.5,37,1,531.8000000119209,0,0,experiment,NA,NA,2,0.5,0.5,5,4,223,5,NA
fcp-trial,259,2271817,0.0-234.0-0.0,voc_e2,12032,"[{""event"":""fullscreenenter"",""trial"":1,""time"":53030},{""event"":""blur"",""trial"":33,""time"":625000},{""event"":""focus"",""trial"":33,""time"":644662},{""event"":""blur"",""trial"":245,""time"":1714226},{""event"":""focus"",""trial"":245,""time"":2236108}]",NA,NA,NA,NA,NA,5,#741CD8,#D8271C,0,10,0,38,1,410.59999999403954,37,1,304.80000001192093,0,0,experiment,NA,NA,2,0.5,0.5,5,4,224,5,NA
fcp-trial,260,2273703,0.0-235.0-0.0,voc_e2,12032,"[{""event"":""fullscreenenter"",""trial"":1,""time"":53030},{""event"":""blur"",""trial"":33,""time"":625000},{""event"":""focus"",""trial"":33,""time"":644662},{""event"":""blur"",""trial"":245,""time"":1714226},{""event"":""focus"",""trial"":245,""time"":2236108}]",NA,NA,NA,NA,NA,6,#D89F1C,#3386FF,0,0,0,38,1,129.09999999403954,37,1,251.39999997615814,0,0,experiment,NA,NA,1,0.3,0.7,3,2,225,5,NA
fcp-trial,261,2276308,0.0-236.0-0.0,voc_e2,12032,"[{""event"":""fullscreenenter"",""trial"":1,""time"":53030},{""event"":""blur"",""trial"":33,""time"":625000},{""event"":""focus"",""trial"":33,""time"":644662},{""event"":""blur"",""trial"":245,""time"":1714226},{""event"":""focus"",""trial"":245,""time"":2236108}]",NA,NA,NA,NA,NA,5,#D89F1C,#3386FF,0,0,0,38,1,346.59999999403954,37,1,752.5,0,0,experiment,NA,NA,1,0.3,0.7,3,2,226,6,NA
fcp-trial,262,2279549,0.0-237.0-0.0,voc_e2,12032,"[{""event"":""fullscreenenter"",""trial"":1,""time"":53030},{""event"":""blur"",""trial"":33,""time"":625000},{""event"":""focus"",""trial"":33,""time"":644662},{""event"":""blur"",""trial"":245,""time"":1714226},{""event"":""focus"",""trial"":245,""time"":2236108}]",NA,NA,NA,NA,NA,6,#FA92F8,#1CD855,0,0,0,38,1,1337.9000000059605,37,1,395.09999999403954,0,0,experiment,NA,NA,0,0.1,0.9,1,0,227,6,NA
fcp-trial,263,2281650,0.0-238.0-0.0,voc_e2,12032,"[{""event"":""fullscreenenter"",""trial"":1,""time"":53030},{""event"":""blur"",""trial"":33,""time"":625000},{""event"":""focus"",""trial"":33,""time"":644662},{""event"":""blur"",""trial"":245,""time"":1714226},{""event"":""focus"",""trial"":245,""time"":2236108}]",NA,NA,NA,NA,NA,0,#D8271C,#741CD8,0,0,1,38,1,26.799999982118607,37,1,569,0,1,experiment,NA,NA,2,0.5,0.5,4,5,228,6,NA
fcp-trial,264,2284298,0.0-239.0-0.0,voc_e2,12032,"[{""event"":""fullscreenenter"",""trial"":1,""time"":53030},{""event"":""blur"",""trial"":33,""time"":625000},{""event"":""focus"",""trial"":33,""time"":644662},{""event"":""blur"",""trial"":245,""time"":1714226},{""event"":""focus"",""trial"":245,""time"":2236108}]",NA,NA,NA,NA,NA,3,#3386FF,#D89F1C,0,0,1,38,1,270.39999997615814,37,1,871.6999999880791,0,1,experiment,NA,NA,1,0.7,0.3,2,3,229,6,NA
fcp-trial,265,2289884,0.0-240.0-0.0,voc_e2,12032,"[{""event"":""fullscreenenter"",""trial"":1,""time"":53030},{""event"":""blur"",""trial"":33,""time"":625000},{""event"":""focus"",""trial"":33,""time"":644662},{""event"":""blur"",""trial"":245,""time"":1714226},{""event"":""focus"",""trial"":245,""time"":2236108}]",NA,NA,NA,NA,NA,4,#741CD8,#D8271C,0,10,0,40,0,53.900000005960464,37,1,4025,0,0,experiment,NA,NA,2,0.5,0.5,5,4,230,6,NA
fcp-trial,266,2292602,0.0-241.0-0.0,voc_e2,12032,"[{""event"":""fullscreenenter"",""trial"":1,""time"":53030},{""event"":""blur"",""trial"":33,""time"":625000},{""event"":""focus"",""trial"":33,""time"":644662},{""event"":""blur"",""trial"":245,""time"":1714226},{""event"":""focus"",""trial"":245,""time"":2236108}]",NA,NA,NA,NA,NA,6,#741CD8,#D8271C,10,10,0,38,1,633.0999999940395,37,1,579.0999999940395,10,0,experiment,NA,NA,2,0.5,0.5,5,4,231,6,NA
fcp-trial,267,2294824,0.0-242.0-0.0,voc_e2,12032,"[{""event"":""fullscreenenter"",""trial"":1,""time"":53030},{""event"":""blur"",""trial"":33,""time"":625000},{""event"":""focus"",""trial"":33,""time"":644662},{""event"":""blur"",""trial"":245,""time"":1714226},{""event"":""focus"",""trial"":245,""time"":2236108}]",NA,NA,NA,NA,NA,2,#D89F1C,#3386FF,0,10,0,40,0,293.90000000596046,37,1,423.40000000596046,0,0,experiment,NA,NA,1,0.3,0.7,3,2,232,6,NA
fcp-trial,268,2299056,0.0-243.0-0.0,voc_e2,12032,"[{""event"":""fullscreenenter"",""trial"":1,""time"":53030},{""event"":""blur"",""trial"":33,""time"":625000},{""event"":""focus"",""trial"":33,""time"":644662},{""event"":""blur"",""trial"":245,""time"":1714226},{""event"":""focus"",""trial"":245,""time"":2236108}]",NA,NA,NA,NA,NA,6,#FA92F8,#1CD855,0,10,0,38,1,512.8000000119209,37,1,2213.800000011921,0,0,experiment,NA,NA,0,0.1,0.9,1,0,233,6,NA
fcp-trial,269,2302574,0.0-244.0-0.0,voc_e2,12032,"[{""event"":""fullscreenenter"",""trial"":1,""time"":53030},{""event"":""blur"",""trial"":33,""time"":625000},{""event"":""focus"",""trial"":33,""time"":644662},{""event"":""blur"",""trial"":245,""time"":1714226},{""event"":""focus"",""trial"":245,""time"":2236108}]",NA,NA,NA,NA,NA,0,#1CD855,#FA92F8,10,0,1,38,1,247.40000000596046,37,1,1764.800000011921,10,1,experiment,NA,NA,0,0.9,0.1,0,1,234,6,NA
fcp-trial,270,2304981,0.0-245.0-0.0,voc_e2,12032,"[{""event"":""fullscreenenter"",""trial"":1,""time"":53030},{""event"":""blur"",""trial"":33,""time"":625000},{""event"":""focus"",""trial"":33,""time"":644662},{""event"":""blur"",""trial"":245,""time"":1714226},{""event"":""focus"",""trial"":245,""time"":2236108}]",NA,NA,NA,NA,NA,5,#D89F1C,#3386FF,0,10,0,38,1,186.90000000596046,37,1,712.9000000059605,0,0,experiment,NA,NA,1,0.3,0.7,3,2,235,6,NA
fcp-trial,271,2307117,0.0-246.0-0.0,voc_e2,12032,"[{""event"":""fullscreenenter"",""trial"":1,""time"":53030},{""event"":""blur"",""trial"":33,""time"":625000},{""event"":""focus"",""trial"":33,""time"":644662},{""event"":""blur"",""trial"":245,""time"":1714226},{""event"":""focus"",""trial"":245,""time"":2236108}]",NA,NA,NA,NA,NA,2,#741CD8,#D8271C,0,0,0,38,1,134.09999999403954,37,1,497.59999999403954,0,0,experiment,NA,NA,2,0.5,0.5,5,4,236,6,NA
fcp-trial,272,2313771,0.0-247.0-0.0,voc_e2,12032,"[{""event"":""fullscreenenter"",""trial"":1,""time"":53030},{""event"":""blur"",""trial"":33,""time"":625000},{""event"":""focus"",""trial"":33,""time"":644662},{""event"":""blur"",""trial"":245,""time"":1714226},{""event"":""focus"",""trial"":245,""time"":2236108}]",NA,NA,NA,NA,NA,6,#3386FF,#D89F1C,10,0,1,40,0,297.5,39,0,4851.100000023842,0,0,experiment,NA,NA,1,0.7,0.3,2,3,237,6,NA
fcp-trial,273,2316841,0.0-248.0-0.0,voc_e2,12032,"[{""event"":""fullscreenenter"",""trial"":1,""time"":53030},{""event"":""blur"",""trial"":33,""time"":625000},{""event"":""focus"",""trial"":33,""time"":644662},{""event"":""blur"",""trial"":245,""time"":1714226},{""event"":""focus"",""trial"":245,""time"":2236108}]",NA,NA,NA,NA,NA,3,#FA92F8,#1CD855,0,0,0,40,0,943,39,0,620.4000000059605,0,1,experiment,NA,NA,0,0.1,0.9,1,0,238,6,NA
fcp-trial,274,2323822,0.0-249.0-0.0,voc_e2,12032,"[{""event"":""fullscreenenter"",""trial"":1,""time"":53030},{""event"":""blur"",""trial"":33,""time"":625000},{""event"":""focus"",""trial"":33,""time"":644662},{""event"":""blur"",""trial"":245,""time"":1714226},{""event"":""focus"",""trial"":245,""time"":2236108}]",NA,NA,NA,NA,NA,4,#D8271C,#741CD8,0,0,1,38,1,610.9000000059605,37,1,4865,0,1,experiment,NA,NA,2,0.5,0.5,4,5,239,6,NA
fcp-trial,275,2327539,0.0-250.0-0.0,voc_e2,12032,"[{""event"":""fullscreenenter"",""trial"":1,""time"":53030},{""event"":""blur"",""trial"":33,""time"":625000},{""event"":""focus"",""trial"":33,""time"":644662},{""event"":""blur"",""trial"":245,""time"":1714226},{""event"":""focus"",""trial"":245,""time"":2236108}]",NA,NA,NA,NA,NA,5,#D8271C,#741CD8,0,10,1,40,0,120.2999999821186,39,0,2091.7999999821186,10,0,experiment,NA,NA,2,0.5,0.5,4,5,240,6,NA
fcp-trial,276,2336934,0.0-251.0-0.0,voc_e2,12032,"[{""event"":""fullscreenenter"",""trial"":1,""time"":53030},{""event"":""blur"",""trial"":33,""time"":625000},{""event"":""focus"",""trial"":33,""time"":644662},{""event"":""blur"",""trial"":245,""time"":1714226},{""event"":""focus"",""trial"":245,""time"":2236108}]",NA,NA,NA,NA,NA,1,#D89F1C,#3386FF,0,0,0,40,0,145.30000001192093,39,0,7744.5,0,1,experiment,NA,NA,1,0.3,0.7,3,2,241,6,NA
fcp-trial,277,2340257,0.0-252.0-0.0,voc_e2,12032,"[{""event"":""fullscreenenter"",""trial"":1,""time"":53030},{""event"":""blur"",""trial"":33,""time"":625000},{""event"":""focus"",""trial"":33,""time"":644662},{""event"":""blur"",""trial"":245,""time"":1714226},{""event"":""focus"",""trial"":245,""time"":2236108}]",NA,NA,NA,NA,NA,3,#3386FF,#D89F1C,10,0,1,38,1,294.59999999403954,37,1,1522.800000011921,10,1,experiment,NA,NA,1,0.7,0.3,2,3,242,6,NA
fcp-trial,278,2342171,0.0-253.0-0.0,voc_e2,12032,"[{""event"":""fullscreenenter"",""trial"":1,""time"":53030},{""event"":""blur"",""trial"":33,""time"":625000},{""event"":""focus"",""trial"":33,""time"":644662},{""event"":""blur"",""trial"":245,""time"":1714226},{""event"":""focus"",""trial"":245,""time"":2236108}]",NA,NA,NA,NA,NA,1,#1CD855,#FA92F8,10,0,1,38,1,80.5,37,1,329.69999998807907,10,1,experiment,NA,NA,0,0.9,0.1,0,1,243,6,NA
fcp-trial,279,2345643,0.0-254.0-0.0,voc_e2,12032,"[{""event"":""fullscreenenter"",""trial"":1,""time"":53030},{""event"":""blur"",""trial"":33,""time"":625000},{""event"":""focus"",""trial"":33,""time"":644662},{""event"":""blur"",""trial"":245,""time"":1714226},{""event"":""focus"",""trial"":245,""time"":2236108}]",NA,NA,NA,NA,NA,0,#3386FF,#D89F1C,0,0,1,38,1,161.2999999821186,37,1,1805.800000011921,0,1,experiment,NA,NA,1,0.7,0.3,2,3,244,6,NA
fcp-trial,280,2350226,0.0-255.0-0.0,voc_e2,12032,"[{""event"":""fullscreenenter"",""trial"":1,""time"":53030},{""event"":""blur"",""trial"":33,""time"":625000},{""event"":""focus"",""trial"":33,""time"":644662},{""event"":""blur"",""trial"":245,""time"":1714226},{""event"":""focus"",""trial"":245,""time"":2236108}]",NA,NA,NA,NA,NA,1,#D8271C,#741CD8,0,0,1,38,1,1279.5999999940395,39,0,1798.699999988079,0,0,experiment,NA,NA,2,0.5,0.5,4,5,245,6,NA
fcp-trial,281,2353482,0.0-256.0-0.0,voc_e2,12032,"[{""event"":""fullscreenenter"",""trial"":1,""time"":53030},{""event"":""blur"",""trial"":33,""time"":625000},{""event"":""focus"",""trial"":33,""time"":644662},{""event"":""blur"",""trial"":245,""time"":1714226},{""event"":""focus"",""trial"":245,""time"":2236108}]",NA,NA,NA,NA,NA,2,#1CD855,#FA92F8,10,0,1,40,0,1371.300000011921,37,1,379.90000000596046,10,1,experiment,NA,NA,0,0.9,0.1,0,1,246,6,NA
fcp-trial,282,2368915,0.0-257.0-0.0,voc_e2,12032,"[{""event"":""fullscreenenter"",""trial"":1,""time"":53030},{""event"":""blur"",""trial"":33,""time"":625000},{""event"":""focus"",""trial"":33,""time"":644662},{""event"":""blur"",""trial"":245,""time"":1714226},{""event"":""focus"",""trial"":245,""time"":2236108}]",NA,NA,NA,NA,NA,0,#741CD8,#D8271C,0,0,0,40,0,175.7999999821186,null,null,null,NA,0,experiment,NA,NA,2,0.5,0.5,5,4,247,6,NA
fcp-trial,283,2373045,0.0-258.0-0.0,voc_e2,12032,"[{""event"":""fullscreenenter"",""trial"":1,""time"":53030},{""event"":""blur"",""trial"":33,""time"":625000},{""event"":""focus"",""trial"":33,""time"":644662},{""event"":""blur"",""trial"":245,""time"":1714226},{""event"":""focus"",""trial"":245,""time"":2236108}]",NA,NA,NA,NA,NA,4,#3386FF,#D89F1C,10,0,1,38,1,295.5,37,1,2329.5999999940395,10,1,experiment,NA,NA,1,0.7,0.3,2,3,248,6,NA
fcp-trial,284,2375920,0.0-259.0-0.0,voc_e2,12032,"[{""event"":""fullscreenenter"",""trial"":1,""time"":53030},{""event"":""blur"",""trial"":33,""time"":625000},{""event"":""focus"",""trial"":33,""time"":644662},{""event"":""blur"",""trial"":245,""time"":1714226},{""event"":""focus"",""trial"":245,""time"":2236108}]",NA,NA,NA,NA,NA,5,#1CD855,#FA92F8,10,0,1,38,1,609.8000000119209,39,0,761.7000000178814,0,0,experiment,NA,NA,0,0.9,0.1,0,1,249,6,NA
fcp-trial,285,2380858,0.0-260.0-0.0,voc_e2,12032,"[{""event"":""fullscreenenter"",""trial"":1,""time"":53030},{""event"":""blur"",""trial"":33,""time"":625000},{""event"":""focus"",""trial"":33,""time"":644662},{""event"":""blur"",""trial"":245,""time"":1714226},{""event"":""focus"",""trial"":245,""time"":2236108}]",NA,NA,NA,NA,NA,6,#741CD8,#D8271C,10,0,0,38,1,780.5,39,0,2653.100000023842,0,1,experiment,NA,NA,2,0.5,0.5,5,4,250,6,NA
fcp-trial,286,2383060,0.0-261.0-0.0,voc_e2,12032,"[{""event"":""fullscreenenter"",""trial"":1,""time"":53030},{""event"":""blur"",""trial"":33,""time"":625000},{""event"":""focus"",""trial"":33,""time"":644662},{""event"":""blur"",""trial"":245,""time"":1714226},{""event"":""focus"",""trial"":245,""time"":2236108}]",NA,NA,NA,NA,NA,4,#FA92F8,#1CD855,0,10,0,38,1,183.90000000596046,37,1,514.1999999880791,0,0,experiment,NA,NA,0,0.1,0.9,1,0,251,6,NA
fcp-trial,287,2385209,0.0-262.0-0.0,voc_e2,12032,"[{""event"":""fullscreenenter"",""trial"":1,""time"":53030},{""event"":""blur"",""trial"":33,""time"":625000},{""event"":""focus"",""trial"":33,""time"":644662},{""event"":""blur"",""trial"":245,""time"":1714226},{""event"":""focus"",""trial"":245,""time"":2236108}]",NA,NA,NA,NA,NA,3,#D8271C,#741CD8,10,0,1,40,0,25.100000023841858,39,0,619.4000000059605,0,0,experiment,NA,NA,2,0.5,0.5,4,5,252,6,NA
fcp-trial,288,2387567,0.0-263.0-0.0,voc_e2,12032,"[{""event"":""fullscreenenter"",""trial"":1,""time"":53030},{""event"":""blur"",""trial"":33,""time"":625000},{""event"":""focus"",""trial"":33,""time"":644662},{""event"":""blur"",""trial"":245,""time"":1714226},{""event"":""focus"",""trial"":245,""time"":2236108}]",NA,NA,NA,NA,NA,1,#D89F1C,#3386FF,0,10,0,38,1,74.40000000596046,39,0,779.2999999821186,10,1,experiment,NA,NA,1,0.3,0.7,3,2,253,6,NA
fcp-trial,289,2397696,0.0-264.0-0.0,voc_e2,12032,"[{""event"":""fullscreenenter"",""trial"":1,""time"":53030},{""event"":""blur"",""trial"":33,""time"":625000},{""event"":""focus"",""trial"":33,""time"":644662},{""event"":""blur"",""trial"":245,""time"":1714226},{""event"":""focus"",""trial"":245,""time"":2236108}]",NA,NA,NA,NA,NA,6,#3386FF,#D89F1C,10,0,1,40,0,1718.5999999940395,39,0,6905.300000011921,0,0,experiment,NA,NA,1,0.7,0.3,2,3,254,6,NA
