trial_type,trial_index,time_elapsed,internal_node_id,task_version,subject_id,interactions,success,rt,stimulus,key_press,button_pressed,offer,arcade_color_L,arcade_color_R,arcade_outcome_L,arcade_outcome_R,correct,stage_1_key,stage_1_choice,stage_1_rt,stage_2_key,stage_2_choice,stage_2_rt,stage_3_outcome,accuracy,phase,responses,num_errors,context,reward_prob_L,reward_prob_R,arcade_id_L,arcade_id_R,trial,block,response
pavlovia,0,4,0.0-0.0,voc_e2,12132,[],NA,NA,NA,NA,NA,NA,NA,NA,NA,NA,NA,NA,NA,NA,NA,NA,NA,NA,NA,NA,NA,NA,NA,NA,NA,NA,NA,NA,NA,NA
fullscreen,1,8931,0.0-1.0,voc_e2,12132,"[{""event"":""fullscreenenter"",""trial"":1,""time"":7945}]",TRUE,NA,NA,NA,NA,NA,NA,NA,NA,NA,NA,NA,NA,NA,NA,NA,NA,NA,NA,NA,NA,NA,NA,NA,NA,NA,NA,NA,NA,NA
audio-keyboard-response,2,17113,0.0-2.0,voc_e2,12132,"[{""event"":""fullscreenenter"",""trial"":1,""time"":7945}]",NA,8181,static/audio/beep_loop.wav,32,NA,NA,NA,NA,NA,NA,NA,NA,NA,NA,NA,NA,NA,NA,NA,NA,NA,NA,NA,NA,NA,NA,NA,NA,NA,NA
audio-test,3,22708,0.0-3.0,voc_e2,12132,"[{""event"":""fullscreenenter"",""trial"":1,""time"":7945}]",NA,NA,static/audio/turtle.wav,NA,3,NA,NA,NA,NA,NA,NA,NA,NA,NA,NA,NA,NA,NA,NA,NA,NA,NA,NA,NA,NA,NA,NA,NA,NA,NA
audio-test,4,25826,0.0-4.0,voc_e2,12132,"[{""event"":""fullscreenenter"",""trial"":1,""time"":7945}]",NA,NA,static/audio/shark.wav,NA,2,NA,NA,NA,NA,NA,NA,NA,NA,NA,NA,NA,NA,NA,NA,NA,NA,NA,NA,NA,NA,NA,NA,NA,NA,NA
audio-instructions,5,33185,0.0-5.0-0.0,voc_e2,12132,"[{""event"":""fullscreenenter"",""trial"":1,""time"":7945}]",NA,1576.5999999996277,static/audio/instructions1.wav,NA,0,NA,NA,NA,NA,NA,NA,NA,NA,NA,NA,NA,NA,NA,NA,NA,NA,NA,NA,NA,NA,NA,NA,NA,NA,NA
audio-instructions,6,42502,0.0-5.0-1.0,voc_e2,12132,"[{""event"":""fullscreenenter"",""trial"":1,""time"":7945}]",NA,2575,static/audio/instructions2.wav,NA,0,NA,NA,NA,NA,NA,NA,NA,NA,NA,NA,NA,NA,NA,NA,NA,NA,NA,NA,NA,NA,NA,NA,NA,NA,NA
audio-instructions,7,50087,0.0-5.0-2.0,voc_e2,12132,"[{""event"":""fullscreenenter"",""trial"":1,""time"":7945}]",NA,1781,static/audio/instructions3.wav,NA,0,NA,NA,NA,NA,NA,NA,NA,NA,NA,NA,NA,NA,NA,NA,NA,NA,NA,NA,NA,NA,NA,NA,NA,NA,NA
audio-instructions,8,64519,0.0-5.0-3.0,voc_e2,12132,"[{""event"":""fullscreenenter"",""trial"":1,""time"":7945}]",NA,1204.9000000003723,static/audio/instructions4.wav,NA,0,NA,NA,NA,NA,NA,NA,NA,NA,NA,NA,NA,NA,NA,NA,NA,NA,NA,NA,NA,NA,NA,NA,NA,NA,NA
audio-instructions,9,136303,0.0-5.0-4.0,voc_e2,12132,"[{""event"":""fullscreenenter"",""trial"":1,""time"":7945}]",NA,62397.299999999814,static/audio/instructions5.wav,NA,0,NA,NA,NA,NA,NA,NA,NA,NA,NA,NA,NA,NA,NA,NA,NA,NA,NA,NA,NA,NA,NA,NA,NA,NA,NA
fcp-practice,10,139093,0.0-5.0-5.0-0.0,voc_e2,12132,"[{""event"":""fullscreenenter"",""trial"":1,""time"":7945}]",NA,NA,NA,NA,NA,NA,#EDC948,#46d3c8,10,0,1,null,null,null,37,1,1272.5999999996277,10,1,practice,NA,NA,NA,NA,NA,NA,NA,NA,NA,NA
fcp-practice,11,141327,0.0-5.0-5.0-1.0,voc_e2,12132,"[{""event"":""fullscreenenter"",""trial"":1,""time"":7945}]",NA,NA,NA,NA,NA,NA,#EDC948,#46d3c8,10,0,1,null,null,null,37,1,727.8999999994412,10,1,practice,NA,NA,NA,NA,NA,NA,NA,NA,NA,NA
fcp-practice,12,143219,0.0-5.0-5.0-2.0,voc_e2,12132,"[{""event"":""fullscreenenter"",""trial"":1,""time"":7945}]",NA,NA,NA,NA,NA,NA,#EDC948,#46d3c8,0,10,1,null,null,null,37,1,386,0,1,practice,NA,NA,NA,NA,NA,NA,NA,NA,NA,NA
fcp-practice,13,144747,0.0-5.0-5.0-3.0,voc_e2,12132,"[{""event"":""fullscreenenter"",""trial"":1,""time"":7945}]",NA,NA,NA,NA,NA,NA,#EDC948,#46d3c8,10,0,1,null,null,null,37,1,21.100000000558794,10,1,practice,NA,NA,NA,NA,NA,NA,NA,NA,NA,NA
fcp-practice,14,146376,0.0-5.0-5.0-4.0,voc_e2,12132,"[{""event"":""fullscreenenter"",""trial"":1,""time"":7945}]",NA,NA,NA,NA,NA,NA,#EDC948,#46d3c8,10,0,1,null,null,null,37,1,122.20000000018626,10,1,practice,NA,NA,NA,NA,NA,NA,NA,NA,NA,NA
audio-instructions,15,165694,0.0-5.0-6.0,voc_e2,12132,"[{""event"":""fullscreenenter"",""trial"":1,""time"":7945}]",NA,1250.1000000005588,static/audio/instructions6.wav,NA,0,NA,NA,NA,NA,NA,NA,NA,NA,NA,NA,NA,NA,NA,NA,NA,NA,NA,NA,NA,NA,NA,NA,NA,NA,NA
audio-instructions,16,190656,0.0-5.0-7.0,voc_e2,12132,"[{""event"":""fullscreenenter"",""trial"":1,""time"":7945}]",NA,5764.5999999996275,static/audio/instructions7.wav,NA,0,NA,NA,NA,NA,NA,NA,NA,NA,NA,NA,NA,NA,NA,NA,NA,NA,NA,NA,NA,NA,NA,NA,NA,NA,NA
audio-instructions,17,201400,0.0-5.0-8.0,voc_e2,12132,"[{""event"":""fullscreenenter"",""trial"":1,""time"":7945}]",NA,1271.2999999998135,static/audio/instructions8.wav,NA,0,NA,NA,NA,NA,NA,NA,NA,NA,NA,NA,NA,NA,NA,NA,NA,NA,NA,NA,NA,NA,NA,NA,NA,NA,NA
fcp-comprehension,18,209201,0.0-5.0-9.0,voc_e2,12132,"[{""event"":""fullscreenenter"",""trial"":1,""time"":7945}]",NA,7798.299999999814,NA,NA,NA,NA,NA,NA,NA,NA,NA,NA,NA,NA,NA,NA,NA,NA,NA,NA,"true,true",0,NA,NA,NA,NA,NA,NA,NA,NA
audio-instructions,19,216706,0.0-6.0-0.0,voc_e2,12132,"[{""event"":""fullscreenenter"",""trial"":1,""time"":7945}]",NA,1958.9000000003723,static/audio/instructions9.wav,NA,0,NA,NA,NA,NA,NA,NA,NA,NA,NA,NA,NA,NA,NA,NA,NA,NA,NA,NA,NA,NA,NA,NA,NA,NA,NA
audio-instructions,20,231300,0.0-6.0-1.0,voc_e2,12132,"[{""event"":""fullscreenenter"",""trial"":1,""time"":7945}]",NA,2471.5999999996275,static/audio/instructions10.wav,NA,0,NA,NA,NA,NA,NA,NA,NA,NA,NA,NA,NA,NA,NA,NA,NA,NA,NA,NA,NA,NA,NA,NA,NA,NA,NA
fcp-trial,21,236514,0.0-6.0-2.0,voc_e2,12132,"[{""event"":""fullscreenenter"",""trial"":1,""time"":7945}]",NA,NA,NA,NA,NA,0,#EDC948,#46d3c8,10,10,1,38,1,2148.399999999441,37,1,1545.4000000003723,10,1,practice,NA,NA,NA,NA,NA,NA,NA,NA,NA,NA
audio-instructions,22,249137,0.0-6.0-3.0,voc_e2,12132,"[{""event"":""fullscreenenter"",""trial"":1,""time"":7945}]",NA,1608.7000000001865,static/audio/instructions11.wav,NA,0,NA,NA,NA,NA,NA,NA,NA,NA,NA,NA,NA,NA,NA,NA,NA,NA,NA,NA,NA,NA,NA,NA,NA,NA,NA
fcp-trial,23,258808,0.0-6.0-4.0,voc_e2,12132,"[{""event"":""fullscreenenter"",""trial"":1,""time"":7945}]",NA,NA,NA,NA,NA,6,#EDC948,#46d3c8,10,10,1,40,0,3833.5999999996275,37,1,4324.5,10,1,practice,NA,NA,NA,NA,NA,NA,NA,NA,NA,NA
audio-instructions,24,279364,0.0-6.0-5.0,voc_e2,12132,"[{""event"":""fullscreenenter"",""trial"":1,""time"":7945}]",NA,1863.1000000005588,static/audio/instructions12.wav,NA,0,NA,NA,NA,NA,NA,NA,NA,NA,NA,NA,NA,NA,NA,NA,NA,NA,NA,NA,NA,NA,NA,NA,NA,NA,NA
audio-instructions,25,288347,0.0-6.0-6.0,voc_e2,12132,"[{""event"":""fullscreenenter"",""trial"":1,""time"":7945}]",NA,1389.4000000003723,static/audio/instructions13.wav,NA,0,NA,NA,NA,NA,NA,NA,NA,NA,NA,NA,NA,NA,NA,NA,NA,NA,NA,NA,NA,NA,NA,NA,NA,NA,NA
audio-instructions,26,298941,0.0-6.0-7.0,voc_e2,12132,"[{""event"":""fullscreenenter"",""trial"":1,""time"":7945}]",NA,2149.2999999998137,static/audio/instructions14.wav,NA,0,NA,NA,NA,NA,NA,NA,NA,NA,NA,NA,NA,NA,NA,NA,NA,NA,NA,NA,NA,NA,NA,NA,NA,NA,NA
audio-instructions,27,309110,0.0-7.0-0.0,voc_e2,12132,"[{""event"":""fullscreenenter"",""trial"":1,""time"":7945}]",NA,3256,static/audio/instructions15.wav,NA,0,NA,NA,NA,NA,NA,NA,NA,NA,NA,NA,NA,NA,NA,NA,NA,NA,NA,NA,NA,NA,NA,NA,NA,NA,NA
audio-instructions,28,317274,0.0-7.0-1.0,voc_e2,12132,"[{""event"":""fullscreenenter"",""trial"":1,""time"":7945}]",NA,1340.699999999255,static/audio/instructions16.wav,NA,0,NA,NA,NA,NA,NA,NA,NA,NA,NA,NA,NA,NA,NA,NA,NA,NA,NA,NA,NA,NA,NA,NA,NA,NA,NA
audio-instructions,29,325826,0.0-7.0-2.0,voc_e2,12132,"[{""event"":""fullscreenenter"",""trial"":1,""time"":7945}]",NA,873.8999999994412,static/audio/instructions17.wav,NA,0,NA,NA,NA,NA,NA,NA,NA,NA,NA,NA,NA,NA,NA,NA,NA,NA,NA,NA,NA,NA,NA,NA,NA,NA,NA
audio-instructions,30,334394,0.0-7.0-3.0,voc_e2,12132,"[{""event"":""fullscreenenter"",""trial"":1,""time"":7945}]",NA,802,static/audio/instructions18.wav,NA,0,NA,NA,NA,NA,NA,NA,NA,NA,NA,NA,NA,NA,NA,NA,NA,NA,NA,NA,NA,NA,NA,NA,NA,NA,NA
audio-instructions,31,342060,0.0-7.0-4.0,voc_e2,12132,"[{""event"":""fullscreenenter"",""trial"":1,""time"":7945}]",NA,926.7999999998136,static/audio/instructions19.wav,NA,0,NA,NA,NA,NA,NA,NA,NA,NA,NA,NA,NA,NA,NA,NA,NA,NA,NA,NA,NA,NA,NA,NA,NA,NA,NA
fcp-comprehension,32,358628,0.0-7.0-5.0,voc_e2,12132,"[{""event"":""fullscreenenter"",""trial"":1,""time"":7945}]",NA,16564.700000000186,NA,NA,NA,NA,NA,NA,NA,NA,NA,NA,NA,NA,NA,NA,NA,NA,NA,NA,"true,false,false,true",1,NA,NA,NA,NA,NA,NA,NA,NA
audio-instructions,33,366775,0.0-7.1-0.1,voc_e2,12132,"[{""event"":""fullscreenenter"",""trial"":1,""time"":7945}]",NA,1231,static/audio/instructions15.wav,NA,0,NA,NA,NA,NA,NA,NA,NA,NA,NA,NA,NA,NA,NA,NA,NA,NA,NA,NA,NA,NA,NA,NA,NA,NA,NA
audio-instructions,34,374590,0.0-7.1-1.1,voc_e2,12132,"[{""event"":""fullscreenenter"",""trial"":1,""time"":7945}]",NA,988.2000000001864,static/audio/instructions16.wav,NA,0,NA,NA,NA,NA,NA,NA,NA,NA,NA,NA,NA,NA,NA,NA,NA,NA,NA,NA,NA,NA,NA,NA,NA,NA,NA
audio-instructions,35,382746,0.0-7.1-2.1,voc_e2,12132,"[{""event"":""fullscreenenter"",""trial"":1,""time"":7945}]",NA,477.9000000003726,static/audio/instructions17.wav,NA,0,NA,NA,NA,NA,NA,NA,NA,NA,NA,NA,NA,NA,NA,NA,NA,NA,NA,NA,NA,NA,NA,NA,NA,NA,NA
audio-instructions,36,390995,0.0-7.1-3.1,voc_e2,12132,"[{""event"":""fullscreenenter"",""trial"":1,""time"":7945}]",NA,480.70000000018626,static/audio/instructions18.wav,NA,0,NA,NA,NA,NA,NA,NA,NA,NA,NA,NA,NA,NA,NA,NA,NA,NA,NA,NA,NA,NA,NA,NA,NA,NA,NA
audio-instructions,37,398453,0.0-7.1-4.1,voc_e2,12132,"[{""event"":""fullscreenenter"",""trial"":1,""time"":7945}]",NA,717.5,static/audio/instructions19.wav,NA,0,NA,NA,NA,NA,NA,NA,NA,NA,NA,NA,NA,NA,NA,NA,NA,NA,NA,NA,NA,NA,NA,NA,NA,NA,NA
fcp-comprehension,38,408640,0.0-7.1-5.1,voc_e2,12132,"[{""event"":""fullscreenenter"",""trial"":1,""time"":7945}]",NA,10183.799999999814,NA,NA,NA,NA,NA,NA,NA,NA,NA,NA,NA,NA,NA,NA,NA,NA,NA,NA,"false,false,false,true",0,NA,NA,NA,NA,NA,NA,NA,NA
audio-instructions,39,418712,0.0-8.0,voc_e2,12132,"[{""event"":""fullscreenenter"",""trial"":1,""time"":7945}]",NA,853.7000000001863,static/audio/ready.wav,NA,0,NA,NA,NA,NA,NA,NA,NA,NA,NA,NA,NA,NA,NA,NA,NA,NA,NA,NA,NA,NA,NA,NA,NA,NA,NA
fcp-trial,40,424412,0.0-9.0-0.0,voc_e2,12132,"[{""event"":""fullscreenenter"",""trial"":1,""time"":7945}]",NA,NA,NA,NA,NA,6,#D89F1C,#3386FF,10,0,1,38,1,3174.9000000003725,37,1,1014.7000000001864,10,1,experiment,NA,NA,0,0.9,0.1,0,1,1,1,NA
fcp-trial,41,429442,0.0-10.0-0.0,voc_e2,12132,"[{""event"":""fullscreenenter"",""trial"":1,""time"":7945}]",NA,NA,NA,NA,NA,2,#D8271C,#741CD8,0,0,0,38,1,2636,39,0,886,0,1,experiment,NA,NA,2,0.5,0.5,5,4,2,1,NA
fcp-trial,42,435089,0.0-11.0-0.0,voc_e2,12132,"[{""event"":""fullscreenenter"",""trial"":1,""time"":7945}]",NA,NA,NA,NA,NA,2,#3386FF,#D89F1C,0,10,0,38,1,2463,39,0,1677,10,1,experiment,NA,NA,0,0.1,0.9,1,0,3,1,NA
fcp-trial,43,439643,0.0-12.0-0.0,voc_e2,12132,"[{""event"":""fullscreenenter"",""trial"":1,""time"":7945}]",NA,NA,NA,NA,NA,4,#1CD855,#FA92F8,10,10,0,38,1,2116,37,1,931.2999999998136,10,0,experiment,NA,NA,1,0.3,0.7,3,2,4,1,NA
fcp-trial,44,443183,0.0-13.0-0.0,voc_e2,12132,"[{""event"":""fullscreenenter"",""trial"":1,""time"":7945}]",NA,NA,NA,NA,NA,1,#3386FF,#D89F1C,0,10,0,38,1,1266.9000000003725,39,0,764.5,10,1,experiment,NA,NA,0,0.1,0.9,1,0,5,1,NA
fcp-trial,45,446506,0.0-14.0-0.0,voc_e2,12132,"[{""event"":""fullscreenenter"",""trial"":1,""time"":7945}]",NA,NA,NA,NA,NA,6,#1CD855,#FA92F8,0,0,0,38,1,1005.4000000003725,37,1,809,0,0,experiment,NA,NA,1,0.3,0.7,3,2,6,1,NA
fcp-trial,46,450492,0.0-15.0-0.0,voc_e2,12132,"[{""event"":""fullscreenenter"",""trial"":1,""time"":7945}]",NA,NA,NA,NA,NA,3,#D8271C,#741CD8,0,0,0,38,1,785.5,37,1,1691.3999999994412,0,0,experiment,NA,NA,2,0.5,0.5,5,4,7,1,NA
fcp-trial,47,453415,0.0-16.0-0.0,voc_e2,12132,"[{""event"":""fullscreenenter"",""trial"":1,""time"":7945}]",NA,NA,NA,NA,NA,3,#3386FF,#D89F1C,0,10,0,38,1,710.6000000005588,39,0,705.2000000001863,10,1,experiment,NA,NA,0,0.1,0.9,1,0,8,1,NA
fcp-trial,48,456408,0.0-17.0-0.0,voc_e2,12132,"[{""event"":""fullscreenenter"",""trial"":1,""time"":7945}]",NA,NA,NA,NA,NA,5,#741CD8,#D8271C,10,10,1,38,1,555.2999999998137,37,1,929.7000000001864,10,1,experiment,NA,NA,2,0.5,0.5,4,5,9,1,NA
fcp-trial,49,460945,0.0-18.0-0.0,voc_e2,12132,"[{""event"":""fullscreenenter"",""trial"":1,""time"":7945}]",NA,NA,NA,NA,NA,2,#FA92F8,#1CD855,10,10,1,38,1,1921.2000000001863,37,1,1106.7000000001865,10,1,experiment,NA,NA,1,0.7,0.3,2,3,10,1,NA
fcp-trial,50,463877,0.0-19.0-0.0,voc_e2,12132,"[{""event"":""fullscreenenter"",""trial"":1,""time"":7945}]",NA,NA,NA,NA,NA,5,#1CD855,#FA92F8,10,10,0,38,1,727,39,0,697.3000000007451,10,1,experiment,NA,NA,1,0.3,0.7,3,2,11,1,NA
fcp-trial,51,467074,0.0-20.0-0.0,voc_e2,12132,"[{""event"":""fullscreenenter"",""trial"":1,""time"":7945}]",NA,NA,NA,NA,NA,4,#D8271C,#741CD8,0,0,0,38,1,949,39,0,739.6000000005588,0,1,experiment,NA,NA,2,0.5,0.5,5,4,12,1,NA
fcp-trial,52,470235,0.0-21.0-0.0,voc_e2,12132,"[{""event"":""fullscreenenter"",""trial"":1,""time"":7945}]",NA,NA,NA,NA,NA,5,#3386FF,#D89F1C,0,10,0,38,1,914.3000000007451,39,0,738.8999999994412,10,1,experiment,NA,NA,0,0.1,0.9,1,0,13,1,NA
fcp-trial,53,476025,0.0-22.0-0.0,voc_e2,12132,"[{""event"":""fullscreenenter"",""trial"":1,""time"":7945}]",NA,NA,NA,NA,NA,1,#741CD8,#D8271C,0,0,1,38,1,3360.4000000003725,37,1,920.3000000007452,0,1,experiment,NA,NA,2,0.5,0.5,4,5,14,1,NA
fcp-trial,54,479779,0.0-23.0-0.0,voc_e2,12132,"[{""event"":""fullscreenenter"",""trial"":1,""time"":7945}]",NA,NA,NA,NA,NA,3,#FA92F8,#1CD855,10,0,1,38,1,1475.5,39,0,770.5,0,0,experiment,NA,NA,1,0.7,0.3,2,3,15,1,NA
fcp-trial,55,483883,0.0-24.0-0.0,voc_e2,12132,"[{""event"":""fullscreenenter"",""trial"":1,""time"":7945}]",NA,NA,NA,NA,NA,1,#FA92F8,#1CD855,10,10,1,40,0,1588.5,39,0,1009.7000000001864,10,0,experiment,NA,NA,1,0.7,0.3,2,3,16,1,NA
fcp-trial,56,488953,0.0-25.0-0.0,voc_e2,12132,"[{""event"":""fullscreenenter"",""trial"":1,""time"":7945}]",NA,NA,NA,NA,NA,0,#D8271C,#741CD8,0,0,0,40,0,2769.5,37,1,791.5999999996275,0,0,experiment,NA,NA,2,0.5,0.5,5,4,17,1,NA
fcp-trial,57,492394,0.0-26.0-0.0,voc_e2,12132,"[{""event"":""fullscreenenter"",""trial"":1,""time"":7945}]",NA,NA,NA,NA,NA,4,#3386FF,#D89F1C,0,10,0,38,1,771.5,39,0,1160.5,10,1,experiment,NA,NA,0,0.1,0.9,1,0,18,1,NA
fcp-trial,58,496539,0.0-27.0-0.0,voc_e2,12132,"[{""event"":""fullscreenenter"",""trial"":1,""time"":7945}]",NA,NA,NA,NA,NA,0,#D89F1C,#3386FF,10,0,1,38,1,1474.2000000001863,37,1,1162.5999999996277,10,1,experiment,NA,NA,0,0.9,0.1,0,1,19,1,NA
fcp-trial,59,501933,0.0-28.0-0.0,voc_e2,12132,"[{""event"":""fullscreenenter"",""trial"":1,""time"":7945}]",NA,NA,NA,NA,NA,0,#1CD855,#FA92F8,10,0,0,38,1,2184,39,0,1700.8999999994412,0,1,experiment,NA,NA,1,0.3,0.7,3,2,20,1,NA
fcp-trial,60,505379,0.0-29.0-0.0,voc_e2,12132,"[{""event"":""fullscreenenter"",""trial"":1,""time"":7945}]",NA,NA,NA,NA,NA,6,#D8271C,#741CD8,10,0,0,38,1,1019.8999999994412,37,1,918.1000000005588,10,0,experiment,NA,NA,2,0.5,0.5,5,4,21,1,NA
fcp-trial,61,509006,0.0-30.0-0.0,voc_e2,12132,"[{""event"":""fullscreenenter"",""trial"":1,""time"":7945}]",NA,NA,NA,NA,NA,3,#D89F1C,#3386FF,10,0,1,38,1,876.1000000005588,37,1,1243.5,10,1,experiment,NA,NA,0,0.9,0.1,0,1,22,1,NA
fcp-trial,62,511828,0.0-31.0-0.0,voc_e2,12132,"[{""event"":""fullscreenenter"",""trial"":1,""time"":7945}]",NA,NA,NA,NA,NA,1,#3386FF,#D89F1C,0,10,0,38,1,585.2000000001863,39,0,728.3999999994412,10,1,experiment,NA,NA,0,0.1,0.9,1,0,23,1,NA
fcp-trial,63,515880,0.0-32.0-0.0,voc_e2,12132,"[{""event"":""fullscreenenter"",""trial"":1,""time"":7945}]",NA,NA,NA,NA,NA,5,#1CD855,#FA92F8,10,10,0,38,1,519,37,1,2025.2000000001865,10,0,experiment,NA,NA,1,0.3,0.7,3,2,24,1,NA
fcp-trial,64,518609,0.0-33.0-0.0,voc_e2,12132,"[{""event"":""fullscreenenter"",""trial"":1,""time"":7945}]",NA,NA,NA,NA,NA,3,#1CD855,#FA92F8,0,10,0,38,1,618.8999999994412,37,1,601.4000000003725,0,0,experiment,NA,NA,1,0.3,0.7,3,2,25,1,NA
fcp-trial,65,521528,0.0-34.0-0.0,voc_e2,12132,"[{""event"":""fullscreenenter"",""trial"":1,""time"":7945}]",NA,NA,NA,NA,NA,4,#D8271C,#741CD8,0,10,0,38,1,490.5,37,1,920.5,0,0,experiment,NA,NA,2,0.5,0.5,5,4,26,1,NA
fcp-trial,66,524882,0.0-35.0-0.0,voc_e2,12132,"[{""event"":""fullscreenenter"",""trial"":1,""time"":7945}]",NA,NA,NA,NA,NA,6,#D89F1C,#3386FF,10,10,1,38,1,1204.5999999996275,37,1,640.5999999996275,10,1,experiment,NA,NA,0,0.9,0.1,0,1,27,1,NA
fcp-trial,67,527925,0.0-36.0-0.0,voc_e2,12132,"[{""event"":""fullscreenenter"",""trial"":1,""time"":7945}]",NA,NA,NA,NA,NA,0,#FA92F8,#1CD855,0,0,1,38,1,620.2000000001863,37,1,915,0,1,experiment,NA,NA,1,0.7,0.3,2,3,28,1,NA
fcp-trial,68,530699,0.0-37.0-0.0,voc_e2,12132,"[{""event"":""fullscreenenter"",""trial"":1,""time"":7945}]",NA,NA,NA,NA,NA,2,#3386FF,#D89F1C,10,0,0,38,1,716.0999999996275,39,0,547.5999999996275,0,1,experiment,NA,NA,0,0.1,0.9,1,0,29,1,NA
fcp-trial,69,534288,0.0-38.0-0.0,voc_e2,12132,"[{""event"":""fullscreenenter"",""trial"":1,""time"":7945}]",NA,NA,NA,NA,NA,3,#741CD8,#D8271C,10,0,1,38,1,953.2000000001863,37,1,1128.0999999996277,10,1,experiment,NA,NA,2,0.5,0.5,4,5,30,1,NA
fcp-trial,70,537042,0.0-39.0-0.0,voc_e2,12132,"[{""event"":""fullscreenenter"",""trial"":1,""time"":7945}]",NA,NA,NA,NA,NA,0,#D8271C,#741CD8,0,0,0,38,1,664.7000000001863,39,0,582,0,1,experiment,NA,NA,2,0.5,0.5,5,4,31,1,NA
fcp-trial,71,540053,0.0-40.0-0.0,voc_e2,12132,"[{""event"":""fullscreenenter"",""trial"":1,""time"":7945}]",NA,NA,NA,NA,NA,2,#1CD855,#FA92F8,10,10,0,38,1,840.7999999998137,39,0,661.8999999994412,10,1,experiment,NA,NA,1,0.3,0.7,3,2,32,1,NA
fcp-trial,72,542991,0.0-41.0-0.0,voc_e2,12132,"[{""event"":""fullscreenenter"",""trial"":1,""time"":7945}]",NA,NA,NA,NA,NA,5,#741CD8,#D8271C,0,0,1,38,1,694.1999999992549,37,1,738,0,1,experiment,NA,NA,2,0.5,0.5,4,5,33,1,NA
fcp-trial,73,546053,0.0-42.0-0.0,voc_e2,12132,"[{""event"":""fullscreenenter"",""trial"":1,""time"":7945}]",NA,NA,NA,NA,NA,5,#D89F1C,#3386FF,10,0,1,38,1,924.7999999998137,37,1,627.4000000003725,10,1,experiment,NA,NA,0,0.9,0.1,0,1,34,1,NA
fcp-trial,74,548601,0.0-43.0-0.0,voc_e2,12132,"[{""event"":""fullscreenenter"",""trial"":1,""time"":7945}]",NA,NA,NA,NA,NA,0,#D89F1C,#3386FF,10,0,1,38,1,450.59999999962747,37,1,588.2000000001863,10,1,experiment,NA,NA,0,0.9,0.1,0,1,35,1,NA
fcp-trial,75,554173,0.0-44.0-0.0,voc_e2,12132,"[{""event"":""fullscreenenter"",""trial"":1,""time"":7945}]",NA,NA,NA,NA,NA,2,#741CD8,#D8271C,10,0,1,38,1,650.9000000003725,39,0,3413.2999999998137,0,0,experiment,NA,NA,2,0.5,0.5,4,5,36,1,NA
fcp-trial,76,556894,0.0-45.0-0.0,voc_e2,12132,"[{""event"":""fullscreenenter"",""trial"":1,""time"":7945}]",NA,NA,NA,NA,NA,6,#1CD855,#FA92F8,10,10,0,38,1,679.0999999996275,39,0,533.2999999998137,10,1,experiment,NA,NA,1,0.3,0.7,3,2,37,1,NA
fcp-trial,77,562972,0.0-46.0-0.0,voc_e2,12132,"[{""event"":""fullscreenenter"",""trial"":1,""time"":7945}]",NA,NA,NA,NA,NA,1,#FA92F8,#1CD855,10,0,1,38,1,476.8999999994412,37,1,4093.2999999998137,10,1,experiment,NA,NA,1,0.7,0.3,2,3,38,1,NA
fcp-trial,78,565909,0.0-47.0-0.0,voc_e2,12132,"[{""event"":""fullscreenenter"",""trial"":1,""time"":7945}]",NA,NA,NA,NA,NA,4,#D89F1C,#3386FF,10,0,1,38,1,846.4000000003725,37,1,583.2000000001863,10,1,experiment,NA,NA,0,0.9,0.1,0,1,39,1,NA
fcp-trial,79,570188,0.0-48.0-0.0,voc_e2,12132,"[{""event"":""fullscreenenter"",""trial"":1,""time"":7945}]",NA,NA,NA,NA,NA,6,#D8271C,#741CD8,0,10,0,40,0,1762.300000000745,39,0,1008.8999999994412,10,1,experiment,NA,NA,2,0.5,0.5,5,4,40,1,NA
fcp-trial,80,574004,0.0-49.0-0.0,voc_e2,12132,"[{""event"":""fullscreenenter"",""trial"":1,""time"":7945}]",NA,NA,NA,NA,NA,4,#FA92F8,#1CD855,10,0,1,40,0,1600,37,1,709.4000000003725,10,1,experiment,NA,NA,1,0.7,0.3,2,3,41,1,NA
fcp-trial,81,578089,0.0-50.0-0.0,voc_e2,12132,"[{""event"":""fullscreenenter"",""trial"":1,""time"":7945}]",NA,NA,NA,NA,NA,1,#D8271C,#741CD8,0,0,0,38,1,1462.300000000745,39,0,1115.7000000001865,0,1,experiment,NA,NA,2,0.5,0.5,5,4,42,1,NA
fcp-trial,82,581478,0.0-51.0-0.0,voc_e2,12132,"[{""event"":""fullscreenenter"",""trial"":1,""time"":7945}]",NA,NA,NA,NA,NA,3,#D8271C,#741CD8,0,10,0,40,0,1200.0999999996275,39,0,681.5999999996275,10,1,experiment,NA,NA,2,0.5,0.5,5,4,43,1,NA
fcp-trial,83,586460,0.0-52.0-0.0,voc_e2,12132,"[{""event"":""fullscreenenter"",""trial"":1,""time"":7945}]",NA,NA,NA,NA,NA,4,#1CD855,#FA92F8,0,0,0,40,0,2742.0999999996275,39,0,731.7000000001863,0,1,experiment,NA,NA,1,0.3,0.7,3,2,44,1,NA
fcp-trial,84,594089,0.0-53.0-0.0,voc_e2,12132,"[{""event"":""fullscreenenter"",""trial"":1,""time"":7945}]",NA,NA,NA,NA,NA,6,#3386FF,#D89F1C,0,10,0,38,1,4858.399999999441,39,0,1263.0999999996277,10,1,experiment,NA,NA,0,0.1,0.9,1,0,45,1,NA
fcp-trial,85,598501,0.0-54.0-0.0,voc_e2,12132,"[{""event"":""fullscreenenter"",""trial"":1,""time"":7945}]",NA,NA,NA,NA,NA,0,#741CD8,#D8271C,10,0,1,38,1,2285.100000000559,37,1,619.1000000005588,10,1,experiment,NA,NA,2,0.5,0.5,4,5,46,2,NA
fcp-trial,86,602980,0.0-55.0-0.0,voc_e2,12132,"[{""event"":""fullscreenenter"",""trial"":1,""time"":7945}]",NA,NA,NA,NA,NA,3,#FA92F8,#1CD855,0,0,1,40,0,1816.199999999255,39,0,1152,0,0,experiment,NA,NA,1,0.7,0.3,2,3,47,2,NA
fcp-trial,87,606670,0.0-56.0-0.0,voc_e2,12132,"[{""event"":""fullscreenenter"",""trial"":1,""time"":7945}]",NA,NA,NA,NA,NA,0,#FA92F8,#1CD855,0,0,1,38,1,1513.3999999994412,37,1,670,0,1,experiment,NA,NA,1,0.7,0.3,2,3,48,2,NA
fcp-trial,88,609801,0.0-57.0-0.0,voc_e2,12132,"[{""event"":""fullscreenenter"",""trial"":1,""time"":7945}]",NA,NA,NA,NA,NA,4,#D89F1C,#3386FF,10,10,1,40,0,791,39,0,831.5,10,0,experiment,NA,NA,0,0.9,0.1,0,1,49,2,NA
fcp-trial,89,614092,0.0-58.0-0.0,voc_e2,12132,"[{""event"":""fullscreenenter"",""trial"":1,""time"":7945}]",NA,NA,NA,NA,NA,2,#D8271C,#741CD8,0,10,0,38,1,2133.100000000559,37,1,648.7000000001863,0,0,experiment,NA,NA,2,0.5,0.5,5,4,50,2,NA
fcp-trial,90,617889,0.0-59.0-0.0,voc_e2,12132,"[{""event"":""fullscreenenter"",""trial"":1,""time"":7945}]",NA,NA,NA,NA,NA,1,#1CD855,#FA92F8,0,10,0,38,1,1776.9000000003725,39,0,511.9000000003726,10,1,experiment,NA,NA,1,0.3,0.7,3,2,51,2,NA
fcp-trial,91,621619,0.0-60.0-0.0,voc_e2,12132,"[{""event"":""fullscreenenter"",""trial"":1,""time"":7945}]",NA,NA,NA,NA,NA,3,#3386FF,#D89F1C,0,10,0,38,1,1732.7000000001863,39,0,489.79999999981374,10,1,experiment,NA,NA,0,0.1,0.9,1,0,52,2,NA
fcp-trial,92,625243,0.0-61.0-0.0,voc_e2,12132,"[{""event"":""fullscreenenter"",""trial"":1,""time"":7945}]",NA,NA,NA,NA,NA,0,#3386FF,#D89F1C,0,10,0,38,1,1480.5,39,0,637,10,1,experiment,NA,NA,0,0.1,0.9,1,0,53,2,NA
fcp-trial,93,628644,0.0-62.0-0.0,voc_e2,12132,"[{""event"":""fullscreenenter"",""trial"":1,""time"":7945}]",NA,NA,NA,NA,NA,5,#D8271C,#741CD8,10,10,0,40,0,1224.7999999998137,39,0,668.5,10,1,experiment,NA,NA,2,0.5,0.5,5,4,54,2,NA
fcp-trial,94,631945,0.0-63.0-0.0,voc_e2,12132,"[{""event"":""fullscreenenter"",""trial"":1,""time"":7945}]",NA,NA,NA,NA,NA,1,#D8271C,#741CD8,0,10,0,38,1,1121.5999999996275,39,0,671.8999999994412,10,1,experiment,NA,NA,2,0.5,0.5,5,4,55,2,NA
fcp-trial,95,635735,0.0-64.0-0.0,voc_e2,12132,"[{""event"":""fullscreenenter"",""trial"":1,""time"":7945}]",NA,NA,NA,NA,NA,6,#FA92F8,#1CD855,0,0,1,40,0,1575.2000000001863,37,1,707.9000000003725,0,1,experiment,NA,NA,1,0.7,0.3,2,3,56,2,NA
fcp-trial,96,640051,0.0-65.0-0.0,voc_e2,12132,"[{""event"":""fullscreenenter"",""trial"":1,""time"":7945}]",NA,NA,NA,NA,NA,5,#D89F1C,#3386FF,10,0,1,38,1,2221.199999999255,37,1,584.4000000003725,10,1,experiment,NA,NA,0,0.9,0.1,0,1,57,2,NA
fcp-trial,97,643218,0.0-66.0-0.0,voc_e2,12132,"[{""event"":""fullscreenenter"",""trial"":1,""time"":7945}]",NA,NA,NA,NA,NA,4,#741CD8,#D8271C,0,0,1,40,0,966.2000000001863,37,1,692.2000000001863,0,1,experiment,NA,NA,2,0.5,0.5,4,5,58,2,NA
fcp-trial,98,647030,0.0-67.0-0.0,voc_e2,12132,"[{""event"":""fullscreenenter"",""trial"":1,""time"":7945}]",NA,NA,NA,NA,NA,2,#FA92F8,#1CD855,0,0,1,38,1,1083.2999999998137,37,1,1220.2000000001865,0,1,experiment,NA,NA,1,0.7,0.3,2,3,59,2,NA
fcp-trial,99,650357,0.0-68.0-0.0,voc_e2,12132,"[{""event"":""fullscreenenter"",""trial"":1,""time"":7945}]",NA,NA,NA,NA,NA,5,#FA92F8,#1CD855,0,10,1,40,0,1131.5999999996275,37,1,686.9000000003725,0,1,experiment,NA,NA,1,0.7,0.3,2,3,60,2,NA
fcp-trial,100,654307,0.0-69.0-0.0,voc_e2,12132,"[{""event"":""fullscreenenter"",""trial"":1,""time"":7945}]",NA,NA,NA,NA,NA,6,#741CD8,#D8271C,0,10,1,40,0,1597.2000000001863,39,0,844.7999999998137,10,0,experiment,NA,NA,2,0.5,0.5,4,5,61,2,NA
fcp-trial,101,657177,0.0-70.0-0.0,voc_e2,12132,"[{""event"":""fullscreenenter"",""trial"":1,""time"":7945}]",NA,NA,NA,NA,NA,1,#3386FF,#D89F1C,0,10,0,38,1,804.0999999996275,39,0,556.7000000001863,10,1,experiment,NA,NA,0,0.1,0.9,1,0,62,2,NA
fcp-trial,102,661314,0.0-71.0-0.0,voc_e2,12132,"[{""event"":""fullscreenenter"",""trial"":1,""time"":7945}]",NA,NA,NA,NA,NA,2,#3386FF,#D89F1C,0,10,0,38,1,2195.2999999998137,39,0,432.5999999996274,10,1,experiment,NA,NA,0,0.1,0.9,1,0,63,2,NA
fcp-trial,103,665384,0.0-72.0-0.0,voc_e2,12132,"[{""event"":""fullscreenenter"",""trial"":1,""time"":7945}]",NA,NA,NA,NA,NA,0,#D8271C,#741CD8,0,0,0,38,1,833.2000000001863,37,1,1729.199999999255,0,0,experiment,NA,NA,2,0.5,0.5,5,4,64,2,NA
fcp-trial,104,669174,0.0-73.0-0.0,voc_e2,12132,"[{""event"":""fullscreenenter"",""trial"":1,""time"":7945}]",NA,NA,NA,NA,NA,0,#1CD855,#FA92F8,0,0,0,40,0,1726.800000000745,39,0,554.8999999994412,0,1,experiment,NA,NA,1,0.3,0.7,3,2,65,2,NA
fcp-trial,105,672603,0.0-74.0-0.0,voc_e2,12132,"[{""event"":""fullscreenenter"",""trial"":1,""time"":7945}]",NA,NA,NA,NA,NA,5,#FA92F8,#1CD855,10,0,1,40,0,1276,39,0,646.2000000001863,0,0,experiment,NA,NA,1,0.7,0.3,2,3,66,2,NA
fcp-trial,106,676143,0.0-75.0-0.0,voc_e2,12132,"[{""event"":""fullscreenenter"",""trial"":1,""time"":7945}]",NA,NA,NA,NA,NA,6,#3386FF,#D89F1C,0,10,0,38,1,1440,39,0,593.2999999998137,10,1,experiment,NA,NA,0,0.1,0.9,1,0,67,2,NA
fcp-trial,107,679274,0.0-76.0-0.0,voc_e2,12132,"[{""event"":""fullscreenenter"",""trial"":1,""time"":7945}]",NA,NA,NA,NA,NA,0,#D89F1C,#3386FF,10,0,1,38,1,963.7999999998137,37,1,659,10,1,experiment,NA,NA,0,0.9,0.1,0,1,68,2,NA
fcp-trial,108,682962,0.0-77.0-0.0,voc_e2,12132,"[{""event"":""fullscreenenter"",""trial"":1,""time"":7945}]",NA,NA,NA,NA,NA,3,#D8271C,#741CD8,0,10,0,40,0,1530.9000000003725,39,0,648.2000000001863,10,1,experiment,NA,NA,2,0.5,0.5,5,4,69,2,NA
fcp-trial,109,686077,0.0-78.0-0.0,voc_e2,12132,"[{""event"":""fullscreenenter"",""trial"":1,""time"":7945}]",NA,NA,NA,NA,NA,4,#FA92F8,#1CD855,0,0,1,40,0,1030.199999999255,39,0,576.1000000005588,0,0,experiment,NA,NA,1,0.7,0.3,2,3,70,2,NA
fcp-trial,110,689780,0.0-79.0-0.0,voc_e2,12132,"[{""event"":""fullscreenenter"",""trial"":1,""time"":7945}]",NA,NA,NA,NA,NA,5,#D8271C,#741CD8,0,10,0,40,0,1406.8999999994412,37,1,786.0999999996275,0,0,experiment,NA,NA,2,0.5,0.5,5,4,71,2,NA
fcp-trial,111,692877,0.0-80.0-0.0,voc_e2,12132,"[{""event"":""fullscreenenter"",""trial"":1,""time"":7945}]",NA,NA,NA,NA,NA,5,#D89F1C,#3386FF,10,0,1,38,1,867.7000000001863,37,1,719.7999999998137,10,1,experiment,NA,NA,0,0.9,0.1,0,1,72,2,NA
fcp-trial,112,696757,0.0-81.0-0.0,voc_e2,12132,"[{""event"":""fullscreenenter"",""trial"":1,""time"":7945}]",NA,NA,NA,NA,NA,3,#1CD855,#FA92F8,0,10,0,40,0,1588.2999999998137,37,1,783,0,0,experiment,NA,NA,1,0.3,0.7,3,2,73,2,NA
fcp-trial,113,699694,0.0-82.0-0.0,voc_e2,12132,"[{""event"":""fullscreenenter"",""trial"":1,""time"":7945}]",NA,NA,NA,NA,NA,2,#D89F1C,#3386FF,10,0,1,38,1,747,37,1,682.3999999994412,10,1,experiment,NA,NA,0,0.9,0.1,0,1,74,2,NA
fcp-trial,114,702571,0.0-83.0-0.0,voc_e2,12132,"[{""event"":""fullscreenenter"",""trial"":1,""time"":7945}]",NA,NA,NA,NA,NA,2,#741CD8,#D8271C,0,0,1,38,1,790,37,1,579.7999999998137,0,1,experiment,NA,NA,2,0.5,0.5,4,5,75,2,NA
fcp-trial,115,707257,0.0-84.0-0.0,voc_e2,12132,"[{""event"":""fullscreenenter"",""trial"":1,""time"":7945}]",NA,NA,NA,NA,NA,2,#FA92F8,#1CD855,10,0,1,40,0,2617,37,1,560.5999999996275,10,1,experiment,NA,NA,1,0.7,0.3,2,3,76,2,NA
fcp-trial,116,710698,0.0-85.0-0.0,voc_e2,12132,"[{""event"":""fullscreenenter"",""trial"":1,""time"":7945}]",NA,NA,NA,NA,NA,1,#3386FF,#D89F1C,10,10,0,38,1,1460.2999999998137,39,0,471.0999999996274,10,1,experiment,NA,NA,0,0.1,0.9,1,0,77,2,NA
fcp-trial,117,713607,0.0-86.0-0.0,voc_e2,12132,"[{""event"":""fullscreenenter"",""trial"":1,""time"":7945}]",NA,NA,NA,NA,NA,6,#741CD8,#D8271C,0,10,1,40,0,801.7999999998137,37,1,598.5999999996275,0,1,experiment,NA,NA,2,0.5,0.5,4,5,78,2,NA
fcp-trial,118,717172,0.0-87.0-0.0,voc_e2,12132,"[{""event"":""fullscreenenter"",""trial"":1,""time"":7945}]",NA,NA,NA,NA,NA,4,#3386FF,#D89F1C,0,10,0,38,1,1579.9000000003725,39,0,478.79999999981374,10,1,experiment,NA,NA,0,0.1,0.9,1,0,79,2,NA
fcp-trial,119,720248,0.0-88.0-0.0,voc_e2,12132,"[{""event"":""fullscreenenter"",""trial"":1,""time"":7945}]",NA,NA,NA,NA,NA,1,#FA92F8,#1CD855,10,0,1,40,0,1056.4000000003725,39,0,511.29999999981374,0,0,experiment,NA,NA,1,0.7,0.3,2,3,80,2,NA
fcp-trial,120,723908,0.0-89.0-0.0,voc_e2,12132,"[{""event"":""fullscreenenter"",""trial"":1,""time"":7945}]",NA,NA,NA,NA,NA,1,#741CD8,#D8271C,10,0,1,40,0,1399,37,1,751.2000000001863,10,1,experiment,NA,NA,2,0.5,0.5,4,5,81,2,NA
fcp-trial,121,726850,0.0-90.0-0.0,voc_e2,12132,"[{""event"":""fullscreenenter"",""trial"":1,""time"":7945}]",NA,NA,NA,NA,NA,3,#3386FF,#D89F1C,0,10,0,38,1,1017.1000000005588,39,0,416.4000000003726,10,1,experiment,NA,NA,0,0.1,0.9,1,0,82,2,NA
fcp-trial,122,730078,0.0-91.0-0.0,voc_e2,12132,"[{""event"":""fullscreenenter"",""trial"":1,""time"":7945}]",NA,NA,NA,NA,NA,6,#FA92F8,#1CD855,0,0,1,40,0,1213.699999999255,37,1,504.80000000074506,0,1,experiment,NA,NA,1,0.7,0.3,2,3,83,2,NA
fcp-trial,123,733567,0.0-92.0-0.0,voc_e2,12132,"[{""event"":""fullscreenenter"",""trial"":1,""time"":7945}]",NA,NA,NA,NA,NA,4,#D8271C,#741CD8,0,10,0,40,0,1355.5,39,0,625.2000000001863,10,1,experiment,NA,NA,2,0.5,0.5,5,4,84,2,NA
fcp-trial,124,737107,0.0-93.0-0.0,voc_e2,12132,"[{""event"":""fullscreenenter"",""trial"":1,""time"":7945}]",NA,NA,NA,NA,NA,1,#FA92F8,#1CD855,0,0,1,40,0,1422.5,37,1,608.0999999996275,0,1,experiment,NA,NA,1,0.7,0.3,2,3,85,2,NA
fcp-trial,125,740784,0.0-94.0-0.0,voc_e2,12132,"[{""event"":""fullscreenenter"",""trial"":1,""time"":7945}]",NA,NA,NA,NA,NA,6,#FA92F8,#1CD855,0,0,1,40,0,1540.800000000745,37,1,630.1000000005588,0,1,experiment,NA,NA,1,0.7,0.3,2,3,86,2,NA
fcp-trial,126,744541,0.0-95.0-0.0,voc_e2,12132,"[{""event"":""fullscreenenter"",""trial"":1,""time"":7945}]",NA,NA,NA,NA,NA,1,#D89F1C,#3386FF,10,0,1,38,1,1626.699999999255,37,1,623.3999999994412,10,1,experiment,NA,NA,0,0.9,0.1,0,1,87,2,NA
fcp-trial,127,748673,0.0-96.0-0.0,voc_e2,12132,"[{""event"":""fullscreenenter"",""trial"":1,""time"":7945}]",NA,NA,NA,NA,NA,5,#D8271C,#741CD8,10,10,0,38,1,1216.7999999998137,39,0,1407.3999999994412,10,1,experiment,NA,NA,2,0.5,0.5,5,4,88,2,NA
fcp-trial,128,752217,0.0-97.0-0.0,voc_e2,12132,"[{""event"":""fullscreenenter"",""trial"":1,""time"":7945}]",NA,NA,NA,NA,NA,4,#D8271C,#741CD8,10,0,0,40,0,1408,39,0,628.4000000003725,0,1,experiment,NA,NA,2,0.5,0.5,5,4,89,2,NA
fcp-trial,129,755674,0.0-98.0-0.0,voc_e2,12132,"[{""event"":""fullscreenenter"",""trial"":1,""time"":7945}]",NA,NA,NA,NA,NA,0,#FA92F8,#1CD855,10,0,1,38,1,1378.5,37,1,570.2999999998137,10,1,experiment,NA,NA,1,0.7,0.3,2,3,90,2,NA
fcp-trial,130,760730,0.0-99.0-0.0,voc_e2,12132,"[{""event"":""fullscreenenter"",""trial"":1,""time"":7945}]",NA,NA,NA,NA,NA,4,#D89F1C,#3386FF,10,0,1,38,1,3111.7999999998137,37,1,435.1000000005588,10,1,experiment,NA,NA,0,0.9,0.1,0,1,91,3,NA
fcp-trial,131,765760,0.0-100.0-0.0,voc_e2,12132,"[{""event"":""fullscreenenter"",""trial"":1,""time"":7945}]",NA,NA,NA,NA,NA,3,#1CD855,#FA92F8,0,10,0,40,0,3130.2999999998137,39,0,389.80000000074506,10,1,experiment,NA,NA,1,0.3,0.7,3,2,92,3,NA
fcp-trial,132,769078,0.0-101.0-0.0,voc_e2,12132,"[{""event"":""fullscreenenter"",""trial"":1,""time"":7945}]",NA,NA,NA,NA,NA,6,#741CD8,#D8271C,0,10,1,40,0,1246.7999999998137,39,0,562.0999999996275,10,0,experiment,NA,NA,2,0.5,0.5,4,5,93,3,NA
fcp-trial,133,775842,0.0-102.0-0.0,voc_e2,12132,"[{""event"":""fullscreenenter"",""trial"":1,""time"":7945}]",NA,NA,NA,NA,NA,0,#D8271C,#741CD8,0,0,0,40,0,4741.200000000186,37,1,514.4000000003725,0,0,experiment,NA,NA,2,0.5,0.5,5,4,94,3,NA
fcp-trial,134,778788,0.0-103.0-0.0,voc_e2,12132,"[{""event"":""fullscreenenter"",""trial"":1,""time"":7945}]",NA,NA,NA,NA,NA,4,#FA92F8,#1CD855,10,0,1,40,0,1009.2000000001863,39,0,430.5,0,0,experiment,NA,NA,1,0.7,0.3,2,3,95,3,NA
fcp-trial,135,781645,0.0-104.0-0.0,voc_e2,12132,"[{""event"":""fullscreenenter"",""trial"":1,""time"":7945}]",NA,NA,NA,NA,NA,0,#3386FF,#D89F1C,0,10,0,38,1,812.7000000001863,39,0,535.1999999992549,10,1,experiment,NA,NA,0,0.1,0.9,1,0,96,3,NA
fcp-trial,136,784264,0.0-105.0-0.0,voc_e2,12132,"[{""event"":""fullscreenenter"",""trial"":1,""time"":7945}]",NA,NA,NA,NA,NA,2,#D89F1C,#3386FF,10,0,1,38,1,688.2999999998137,37,1,421.0999999996274,10,1,experiment,NA,NA,0,0.9,0.1,0,1,97,3,NA
fcp-trial,137,788738,0.0-106.0-0.0,voc_e2,12132,"[{""event"":""fullscreenenter"",""trial"":1,""time"":7945}]",NA,NA,NA,NA,NA,1,#741CD8,#D8271C,0,10,1,38,1,2451.7999999998137,37,1,513,0,1,experiment,NA,NA,2,0.5,0.5,4,5,98,3,NA
fcp-trial,138,791893,0.0-107.0-0.0,voc_e2,12132,"[{""event"":""fullscreenenter"",""trial"":1,""time"":7945}]",NA,NA,NA,NA,NA,2,#FA92F8,#1CD855,0,0,1,40,0,1055.9000000003725,39,0,590.2999999998137,0,0,experiment,NA,NA,1,0.7,0.3,2,3,99,3,NA
fcp-trial,139,794591,0.0-108.0-0.0,voc_e2,12132,"[{""event"":""fullscreenenter"",""trial"":1,""time"":7945}]",NA,NA,NA,NA,NA,5,#D89F1C,#3386FF,10,0,1,38,1,695.5,37,1,496,10,1,experiment,NA,NA,0,0.9,0.1,0,1,100,3,NA
fcp-trial,140,798195,0.0-109.0-0.0,voc_e2,12132,"[{""event"":""fullscreenenter"",""trial"":1,""time"":7945}]",NA,NA,NA,NA,NA,2,#741CD8,#D8271C,10,0,1,38,1,1629.5,37,1,465.5999999996274,10,1,experiment,NA,NA,2,0.5,0.5,4,5,101,3,NA
fcp-trial,141,801091,0.0-110.0-0.0,voc_e2,12132,"[{""event"":""fullscreenenter"",""trial"":1,""time"":7945}]",NA,NA,NA,NA,NA,5,#1CD855,#FA92F8,0,10,0,40,0,919.7000000001863,39,0,469.1000000005588,10,1,experiment,NA,NA,1,0.3,0.7,3,2,102,3,NA
fcp-trial,142,804539,0.0-111.0-0.0,voc_e2,12132,"[{""event"":""fullscreenenter"",""trial"":1,""time"":7945}]",NA,NA,NA,NA,NA,3,#D8271C,#741CD8,10,10,0,40,0,1423.0999999996275,39,0,516.2000000001863,10,1,experiment,NA,NA,2,0.5,0.5,5,4,103,3,NA
fcp-trial,143,807881,0.0-112.0-0.0,voc_e2,12132,"[{""event"":""fullscreenenter"",""trial"":1,""time"":7945}]",NA,NA,NA,NA,NA,3,#3386FF,#D89F1C,0,10,0,38,1,1296.0999999996275,39,0,539.4000000003725,10,1,experiment,NA,NA,0,0.1,0.9,1,0,104,3,NA
fcp-trial,144,810701,0.0-113.0-0.0,voc_e2,12132,"[{""event"":""fullscreenenter"",""trial"":1,""time"":7945}]",NA,NA,NA,NA,NA,6,#D89F1C,#3386FF,10,10,1,38,1,706.0999999996275,37,1,605.6000000005588,10,1,experiment,NA,NA,0,0.9,0.1,0,1,105,3,NA
audio-instructions,145,816860,0.0-114.0,voc_e2,12132,"[{""event"":""fullscreenenter"",""trial"":1,""time"":7945}]",NA,1654.0999999996277,static/audio/pause.wav,NA,0,NA,NA,NA,NA,NA,NA,NA,NA,NA,NA,NA,NA,NA,NA,NA,NA,NA,NA,NA,NA,NA,NA,NA,NA,NA
fcp-trial,146,821311,0.0-115.0-0.0,voc_e2,12132,"[{""event"":""fullscreenenter"",""trial"":1,""time"":7945}]",NA,NA,NA,NA,NA,4,#D8271C,#741CD8,0,0,0,40,0,2063.7000000001863,37,1,878.5999999996275,0,0,experiment,NA,NA,2,0.5,0.5,5,4,106,3,NA
fcp-trial,147,825474,0.0-116.0-0.0,voc_e2,12132,"[{""event"":""fullscreenenter"",""trial"":1,""time"":7945}]",NA,NA,NA,NA,NA,2,#741CD8,#D8271C,10,10,1,38,1,1669.2999999998137,39,0,984.3000000007452,10,0,experiment,NA,NA,2,0.5,0.5,4,5,107,3,NA
fcp-trial,148,828522,0.0-117.0-0.0,voc_e2,12132,"[{""event"":""fullscreenenter"",""trial"":1,""time"":7945}]",NA,NA,NA,NA,NA,6,#D8271C,#741CD8,0,10,0,38,1,1124.1000000005588,37,1,416,0,0,experiment,NA,NA,2,0.5,0.5,5,4,108,3,NA
fcp-trial,149,831924,0.0-118.0-0.0,voc_e2,12132,"[{""event"":""fullscreenenter"",""trial"":1,""time"":7945}]",NA,NA,NA,NA,NA,1,#3386FF,#D89F1C,10,10,0,38,1,1462.8999999994412,39,0,426.5999999996274,10,1,experiment,NA,NA,0,0.1,0.9,1,0,109,3,NA
fcp-trial,150,835552,0.0-119.0-0.0,voc_e2,12132,"[{""event"":""fullscreenenter"",""trial"":1,""time"":7945}]",NA,NA,NA,NA,NA,4,#1CD855,#FA92F8,0,10,0,40,0,1587.2999999998137,39,0,532.7000000001863,10,1,experiment,NA,NA,1,0.3,0.7,3,2,110,3,NA
fcp-trial,151,838868,0.0-120.0-0.0,voc_e2,12132,"[{""event"":""fullscreenenter"",""trial"":1,""time"":7945}]",NA,NA,NA,NA,NA,3,#D8271C,#741CD8,10,10,0,40,0,1296.6000000005588,39,0,512.7000000001863,10,1,experiment,NA,NA,2,0.5,0.5,5,4,111,3,NA
fcp-trial,152,841855,0.0-121.0-0.0,voc_e2,12132,"[{""event"":""fullscreenenter"",""trial"":1,""time"":7945}]",NA,NA,NA,NA,NA,5,#741CD8,#D8271C,0,10,1,40,0,933.4000000003725,37,1,544.2999999998137,0,1,experiment,NA,NA,2,0.5,0.5,4,5,112,3,NA
fcp-trial,153,844770,0.0-122.0-0.0,voc_e2,12132,"[{""event"":""fullscreenenter"",""trial"":1,""time"":7945}]",NA,NA,NA,NA,NA,5,#D89F1C,#3386FF,10,0,1,38,1,756.6999999992549,37,1,651.2999999998137,10,1,experiment,NA,NA,0,0.9,0.1,0,1,113,3,NA
fcp-trial,154,848464,0.0-123.0-0.0,voc_e2,12132,"[{""event"":""fullscreenenter"",""trial"":1,""time"":7945}]",NA,NA,NA,NA,NA,3,#D89F1C,#3386FF,10,0,1,38,1,1542.8999999994412,37,1,643.1000000005588,10,1,experiment,NA,NA,0,0.9,0.1,0,1,114,3,NA
fcp-trial,155,851786,0.0-124.0-0.0,voc_e2,12132,"[{""event"":""fullscreenenter"",""trial"":1,""time"":7945}]",NA,NA,NA,NA,NA,3,#FA92F8,#1CD855,10,10,1,40,0,1050.199999999255,39,0,764.9000000003725,10,0,experiment,NA,NA,1,0.7,0.3,2,3,115,3,NA
fcp-trial,156,856499,0.0-125.0-0.0,voc_e2,12132,"[{""event"":""fullscreenenter"",""trial"":1,""time"":7945}]",NA,NA,NA,NA,NA,4,#3386FF,#D89F1C,10,10,0,38,1,2469.899999999441,39,0,736.5,10,1,experiment,NA,NA,0,0.1,0.9,1,0,116,3,NA
fcp-trial,157,860039,0.0-126.0-0.0,voc_e2,12132,"[{""event"":""fullscreenenter"",""trial"":1,""time"":7945}]",NA,NA,NA,NA,NA,1,#741CD8,#D8271C,0,0,1,40,0,1435.199999999255,37,1,595,0,1,experiment,NA,NA,2,0.5,0.5,4,5,117,3,NA
fcp-trial,158,862844,0.0-127.0-0.0,voc_e2,12132,"[{""event"":""fullscreenenter"",""trial"":1,""time"":7945}]",NA,NA,NA,NA,NA,6,#3386FF,#D89F1C,0,0,0,38,1,782,39,0,515.2999999998137,0,1,experiment,NA,NA,0,0.1,0.9,1,0,118,3,NA
fcp-trial,159,866081,0.0-128.0-0.0,voc_e2,12132,"[{""event"":""fullscreenenter"",""trial"":1,""time"":7945}]",NA,NA,NA,NA,NA,5,#1CD855,#FA92F8,0,10,0,40,0,1151.2000000001863,39,0,576.4000000003725,10,1,experiment,NA,NA,1,0.3,0.7,3,2,119,3,NA
fcp-trial,160,872135,0.0-129.0-0.0,voc_e2,12132,"[{""event"":""fullscreenenter"",""trial"":1,""time"":7945}]",NA,NA,NA,NA,NA,2,#3386FF,#D89F1C,0,10,0,38,1,4062.5,39,0,483,10,1,experiment,NA,NA,0,0.1,0.9,1,0,120,3,NA
fcp-trial,161,876029,0.0-130.0-0.0,voc_e2,12132,"[{""event"":""fullscreenenter"",""trial"":1,""time"":7945}]",NA,NA,NA,NA,NA,6,#FA92F8,#1CD855,0,10,1,38,1,1970.7000000001863,37,1,413.20000000018626,0,1,experiment,NA,NA,1,0.7,0.3,2,3,121,3,NA
fcp-trial,162,882375,0.0-131.0-0.0,voc_e2,12132,"[{""event"":""fullscreenenter"",""trial"":1,""time"":7945}]",NA,NA,NA,NA,NA,0,#741CD8,#D8271C,0,0,1,38,1,4354.899999999441,37,1,482.5999999996274,0,1,experiment,NA,NA,2,0.5,0.5,4,5,122,3,NA
fcp-trial,163,886077,0.0-132.0-0.0,voc_e2,12132,"[{""event"":""fullscreenenter"",""trial"":1,""time"":7945}]",NA,NA,NA,NA,NA,1,#1CD855,#FA92F8,0,0,0,38,1,1795,39,0,396.8999999994412,0,1,experiment,NA,NA,1,0.3,0.7,3,2,123,3,NA
fcp-trial,164,889844,0.0-133.0-0.0,voc_e2,12132,"[{""event"":""fullscreenenter"",""trial"":1,""time"":7945}]",NA,NA,NA,NA,NA,2,#FA92F8,#1CD855,10,10,1,38,1,1863.6000000005588,37,1,393.70000000018626,10,1,experiment,NA,NA,1,0.7,0.3,2,3,124,3,NA
fcp-trial,165,893127,0.0-134.0-0.0,voc_e2,12132,"[{""event"":""fullscreenenter"",""trial"":1,""time"":7945}]",NA,NA,NA,NA,NA,0,#D89F1C,#3386FF,10,0,1,38,1,1332.5,37,1,440.29999999981374,10,1,experiment,NA,NA,0,0.9,0.1,0,1,125,3,NA
fcp-trial,166,896538,0.0-135.0-0.0,voc_e2,12132,"[{""event"":""fullscreenenter"",""trial"":1,""time"":7945}]",NA,NA,NA,NA,NA,0,#FA92F8,#1CD855,10,0,1,38,1,1353.2000000001863,37,1,550.8999999994412,10,1,experiment,NA,NA,1,0.7,0.3,2,3,126,3,NA
fcp-trial,167,899750,0.0-136.0-0.0,voc_e2,12132,"[{""event"":""fullscreenenter"",""trial"":1,""time"":7945}]",NA,NA,NA,NA,NA,4,#D8271C,#741CD8,0,0,0,40,0,1086.5999999996275,37,1,617.4000000003725,0,0,experiment,NA,NA,2,0.5,0.5,5,4,127,3,NA
fcp-trial,168,903355,0.0-137.0-0.0,voc_e2,12132,"[{""event"":""fullscreenenter"",""trial"":1,""time"":7945}]",NA,NA,NA,NA,NA,3,#D8271C,#741CD8,10,0,0,38,1,1744.7999999998137,39,0,352.79999999981374,0,1,experiment,NA,NA,2,0.5,0.5,5,4,128,3,NA
fcp-trial,169,906546,0.0-138.0-0.0,voc_e2,12132,"[{""event"":""fullscreenenter"",""trial"":1,""time"":7945}]",NA,NA,NA,NA,NA,6,#1CD855,#FA92F8,0,10,0,40,0,1085.0999999996275,39,0,598.4000000003725,10,1,experiment,NA,NA,1,0.3,0.7,3,2,129,3,NA
fcp-trial,170,910791,0.0-139.0-0.0,voc_e2,12132,"[{""event"":""fullscreenenter"",""trial"":1,""time"":7945}]",NA,NA,NA,NA,NA,2,#3386FF,#D89F1C,0,10,0,38,1,1446.2999999998137,39,0,1289.5,10,1,experiment,NA,NA,0,0.1,0.9,1,0,130,3,NA
fcp-trial,171,913801,0.0-140.0-0.0,voc_e2,12132,"[{""event"":""fullscreenenter"",""trial"":1,""time"":7945}]",NA,NA,NA,NA,NA,4,#1CD855,#FA92F8,0,10,0,38,1,1119.4000000003725,39,0,382.20000000018626,10,1,experiment,NA,NA,1,0.3,0.7,3,2,131,3,NA
fcp-trial,172,916870,0.0-141.0-0.0,voc_e2,12132,"[{""event"":""fullscreenenter"",""trial"":1,""time"":7945}]",NA,NA,NA,NA,NA,5,#D8271C,#741CD8,0,0,0,40,0,846.0999999996275,37,1,715.9000000003725,0,0,experiment,NA,NA,2,0.5,0.5,5,4,132,3,NA
fcp-trial,173,919613,0.0-142.0-0.0,voc_e2,12132,"[{""event"":""fullscreenenter"",""trial"":1,""time"":7945}]",NA,NA,NA,NA,NA,2,#FA92F8,#1CD855,10,0,1,38,1,835.4000000003725,37,1,399.0999999996274,10,1,experiment,NA,NA,1,0.7,0.3,2,3,133,3,NA
fcp-trial,174,922208,0.0-143.0-0.0,voc_e2,12132,"[{""event"":""fullscreenenter"",""trial"":1,""time"":7945}]",NA,NA,NA,NA,NA,3,#3386FF,#D89F1C,0,10,0,38,1,689.5,39,0,395.0999999996274,10,1,experiment,NA,NA,0,0.1,0.9,1,0,134,3,NA
fcp-trial,175,925122,0.0-144.0-0.0,voc_e2,12132,"[{""event"":""fullscreenenter"",""trial"":1,""time"":7945}]",NA,NA,NA,NA,NA,1,#D89F1C,#3386FF,10,0,1,38,1,1019,37,1,386.1000000005588,10,1,experiment,NA,NA,0,0.9,0.1,0,1,135,3,NA
fcp-trial,176,930972,0.0-145.0-0.0,voc_e2,12132,"[{""event"":""fullscreenenter"",""trial"":1,""time"":7945}]",NA,NA,NA,NA,NA,2,#741CD8,#D8271C,0,10,1,38,1,4035.600000000559,37,1,305.59999999962747,0,1,experiment,NA,NA,2,0.5,0.5,4,5,136,4,NA
fcp-trial,177,933902,0.0-146.0-0.0,voc_e2,12132,"[{""event"":""fullscreenenter"",""trial"":1,""time"":7945}]",NA,NA,NA,NA,NA,0,#741CD8,#D8271C,0,0,1,40,0,736.6999999992549,39,0,685.9000000003725,0,0,experiment,NA,NA,2,0.5,0.5,4,5,137,4,NA
fcp-trial,178,937861,0.0-147.0-0.0,voc_e2,12132,"[{""event"":""fullscreenenter"",""trial"":1,""time"":7945}]",NA,NA,NA,NA,NA,1,#FA92F8,#1CD855,10,10,1,38,1,2028.7000000001863,37,1,421.79999999981374,10,1,experiment,NA,NA,1,0.7,0.3,2,3,138,4,NA
fcp-trial,179,940467,0.0-148.0-0.0,voc_e2,12132,"[{""event"":""fullscreenenter"",""trial"":1,""time"":7945}]",NA,NA,NA,NA,NA,4,#D89F1C,#3386FF,10,0,1,38,1,684.3999999994412,37,1,412,10,1,experiment,NA,NA,0,0.9,0.1,0,1,139,4,NA
fcp-trial,180,944192,0.0-149.0-0.0,voc_e2,12132,"[{""event"":""fullscreenenter"",""trial"":1,""time"":7945}]",NA,NA,NA,NA,NA,0,#D89F1C,#3386FF,10,10,1,38,1,1644.300000000745,37,1,571.4000000003725,10,1,experiment,NA,NA,0,0.9,0.1,0,1,140,4,NA
fcp-trial,181,947804,0.0-150.0-0.0,voc_e2,12132,"[{""event"":""fullscreenenter"",""trial"":1,""time"":7945}]",NA,NA,NA,NA,NA,5,#FA92F8,#1CD855,0,0,1,40,0,1577.5,37,1,523,0,1,experiment,NA,NA,1,0.7,0.3,2,3,141,4,NA
fcp-trial,182,950872,0.0-151.0-0.0,voc_e2,12132,"[{""event"":""fullscreenenter"",""trial"":1,""time"":7945}]",NA,NA,NA,NA,NA,6,#D8271C,#741CD8,10,0,0,40,0,1025.2000000001863,39,0,532.9000000003725,0,1,experiment,NA,NA,2,0.5,0.5,5,4,142,4,NA
fcp-trial,183,955239,0.0-152.0-0.0,voc_e2,12132,"[{""event"":""fullscreenenter"",""trial"":1,""time"":7945}]",NA,NA,NA,NA,NA,3,#1CD855,#FA92F8,0,0,0,40,0,2151.0999999996275,37,1,706.3999999994412,0,0,experiment,NA,NA,1,0.3,0.7,3,2,143,4,NA
fcp-trial,184,958625,0.0-153.0-0.0,voc_e2,12132,"[{""event"":""fullscreenenter"",""trial"":1,""time"":7945}]",NA,NA,NA,NA,NA,5,#D89F1C,#3386FF,10,0,1,38,1,1522.300000000745,37,1,355.40000000037253,10,1,experiment,NA,NA,0,0.9,0.1,0,1,144,4,NA
fcp-trial,185,961160,0.0-154.0-0.0,voc_e2,12132,"[{""event"":""fullscreenenter"",""trial"":1,""time"":7945}]",NA,NA,NA,NA,NA,6,#D89F1C,#3386FF,10,0,1,38,1,648.4000000003725,37,1,376.3999999994412,10,1,experiment,NA,NA,0,0.9,0.1,0,1,145,4,NA
fcp-trial,186,965286,0.0-155.0-0.0,voc_e2,12132,"[{""event"":""fullscreenenter"",""trial"":1,""time"":7945}]",NA,NA,NA,NA,NA,1,#D8271C,#741CD8,10,0,0,38,1,1749.6000000005588,39,0,867.9000000003725,0,1,experiment,NA,NA,2,0.5,0.5,5,4,146,4,NA
fcp-trial,187,968522,0.0-156.0-0.0,voc_e2,12132,"[{""event"":""fullscreenenter"",""trial"":1,""time"":7945}]",NA,NA,NA,NA,NA,0,#FA92F8,#1CD855,0,0,1,38,1,1376.2999999998137,37,1,351.29999999981374,0,1,experiment,NA,NA,1,0.7,0.3,2,3,147,4,NA
fcp-trial,188,971367,0.0-157.0-0.0,voc_e2,12132,"[{""event"":""fullscreenenter"",""trial"":1,""time"":7945}]",NA,NA,NA,NA,NA,1,#3386FF,#D89F1C,0,10,0,38,1,864.5,39,0,471.79999999981374,10,1,experiment,NA,NA,0,0.1,0.9,1,0,148,4,NA
fcp-trial,189,974637,0.0-158.0-0.0,voc_e2,12132,"[{""event"":""fullscreenenter"",""trial"":1,""time"":7945}]",NA,NA,NA,NA,NA,0,#FA92F8,#1CD855,10,0,1,38,1,1367.6000000005588,37,1,393.4000000003726,10,1,experiment,NA,NA,1,0.7,0.3,2,3,149,4,NA
fcp-trial,190,977373,0.0-159.0-0.0,voc_e2,12132,"[{""event"":""fullscreenenter"",""trial"":1,""time"":7945}]",NA,NA,NA,NA,NA,5,#D89F1C,#3386FF,10,0,1,38,1,827.5,37,1,399.29999999981374,10,1,experiment,NA,NA,0,0.9,0.1,0,1,150,4,NA
fcp-trial,191,980953,0.0-160.0-0.0,voc_e2,12132,"[{""event"":""fullscreenenter"",""trial"":1,""time"":7945}]",NA,NA,NA,NA,NA,5,#741CD8,#D8271C,10,10,1,38,1,1345,37,1,725.2000000001863,10,1,experiment,NA,NA,2,0.5,0.5,4,5,151,4,NA
fcp-trial,192,983631,0.0-161.0-0.0,voc_e2,12132,"[{""event"":""fullscreenenter"",""trial"":1,""time"":7945}]",NA,NA,NA,NA,NA,2,#D89F1C,#3386FF,0,0,1,38,1,771.2999999998137,37,1,399.3999999994412,0,1,experiment,NA,NA,0,0.9,0.1,0,1,152,4,NA
fcp-trial,193,986715,0.0-162.0-0.0,voc_e2,12132,"[{""event"":""fullscreenenter"",""trial"":1,""time"":7945}]",NA,NA,NA,NA,NA,6,#741CD8,#D8271C,10,10,1,40,0,732.2999999998137,37,1,844.2999999998137,10,1,experiment,NA,NA,2,0.5,0.5,4,5,153,4,NA
fcp-trial,194,992380,0.0-163.0-0.0,voc_e2,12132,"[{""event"":""fullscreenenter"",""trial"":1,""time"":7945}]",NA,NA,NA,NA,NA,2,#FA92F8,#1CD855,10,10,1,40,0,3415.5999999996275,37,1,742.2000000001863,10,1,experiment,NA,NA,1,0.7,0.3,2,3,154,4,NA
fcp-trial,195,996260,0.0-164.0-0.0,voc_e2,12132,"[{""event"":""fullscreenenter"",""trial"":1,""time"":7945}]",NA,NA,NA,NA,NA,0,#741CD8,#D8271C,10,0,1,38,1,1518,39,0,855.4000000003725,0,0,experiment,NA,NA,2,0.5,0.5,4,5,155,4,NA
fcp-trial,196,998973,0.0-165.0-0.0,voc_e2,12132,"[{""event"":""fullscreenenter"",""trial"":1,""time"":7945}]",NA,NA,NA,NA,NA,0,#D89F1C,#3386FF,10,0,1,38,1,740.5,37,1,460.6000000005588,10,1,experiment,NA,NA,0,0.9,0.1,0,1,156,4,NA
fcp-trial,197,1003388,0.0-166.0-0.0,voc_e2,12132,"[{""event"":""fullscreenenter"",""trial"":1,""time"":7945}]",NA,NA,NA,NA,NA,5,#1CD855,#FA92F8,0,10,0,40,0,2356.4000000003725,39,0,548.7000000001863,10,1,experiment,NA,NA,1,0.3,0.7,3,2,157,4,NA
fcp-trial,198,1006689,0.0-167.0-0.0,voc_e2,12132,"[{""event"":""fullscreenenter"",""trial"":1,""time"":7945}]",NA,NA,NA,NA,NA,1,#FA92F8,#1CD855,10,0,1,38,1,1417.8999999994412,37,1,374.5,10,1,experiment,NA,NA,1,0.7,0.3,2,3,158,4,NA
fcp-trial,199,1010187,0.0-168.0-0.0,voc_e2,12132,"[{""event"":""fullscreenenter"",""trial"":1,""time"":7945}]",NA,NA,NA,NA,NA,2,#D8271C,#741CD8,10,0,0,38,1,1608.9000000003725,39,0,382.30000000074506,0,1,experiment,NA,NA,2,0.5,0.5,5,4,159,4,NA
fcp-trial,200,1013998,0.0-169.0-0.0,voc_e2,12132,"[{""event"":""fullscreenenter"",""trial"":1,""time"":7945}]",NA,NA,NA,NA,NA,6,#1CD855,#FA92F8,0,10,0,40,0,1698.7000000001863,39,0,601.8000000007451,10,1,experiment,NA,NA,1,0.3,0.7,3,2,160,4,NA
fcp-trial,201,1017817,0.0-170.0-0.0,voc_e2,12132,"[{""event"":""fullscreenenter"",""trial"":1,""time"":7945}]",NA,NA,NA,NA,NA,6,#3386FF,#D89F1C,0,10,0,38,1,1381.7999999998137,39,0,929.7999999998136,10,1,experiment,NA,NA,0,0.1,0.9,1,0,161,4,NA
fcp-trial,202,1020746,0.0-171.0-0.0,voc_e2,12132,"[{""event"":""fullscreenenter"",""trial"":1,""time"":7945}]",NA,NA,NA,NA,NA,3,#D89F1C,#3386FF,10,0,1,38,1,742.8999999994412,37,1,678.5,10,1,experiment,NA,NA,0,0.9,0.1,0,1,162,4,NA
fcp-trial,203,1030071,0.0-172.0-0.0,voc_e2,12132,"[{""event"":""fullscreenenter"",""trial"":1,""time"":7945}]",NA,NA,NA,NA,NA,4,#D8271C,#741CD8,10,0,0,40,0,7084.4000000003725,37,1,733,10,0,experiment,NA,NA,2,0.5,0.5,5,4,163,4,NA
fcp-trial,204,1033485,0.0-173.0-0.0,voc_e2,12132,"[{""event"":""fullscreenenter"",""trial"":1,""time"":7945}]",NA,NA,NA,NA,NA,3,#D8271C,#741CD8,0,10,0,40,0,1239.2000000001863,37,1,668.3999999994412,0,0,experiment,NA,NA,2,0.5,0.5,5,4,164,4,NA
fcp-trial,205,1037050,0.0-174.0-0.0,voc_e2,12132,"[{""event"":""fullscreenenter"",""trial"":1,""time"":7945}]",NA,NA,NA,NA,NA,4,#FA92F8,#1CD855,10,10,1,40,0,1543.6000000005588,39,0,513.3999999994412,10,0,experiment,NA,NA,1,0.7,0.3,2,3,165,4,NA
fcp-trial,206,1040493,0.0-175.0-0.0,voc_e2,12132,"[{""event"":""fullscreenenter"",""trial"":1,""time"":7945}]",NA,NA,NA,NA,NA,4,#D89F1C,#3386FF,10,10,1,38,1,1393.3999999994412,37,1,541.9000000003725,10,1,experiment,NA,NA,0,0.9,0.1,0,1,166,4,NA
fcp-trial,207,1044810,0.0-176.0-0.0,voc_e2,12132,"[{""event"":""fullscreenenter"",""trial"":1,""time"":7945}]",NA,NA,NA,NA,NA,1,#D8271C,#741CD8,10,10,0,38,1,2336.0999999996275,39,0,470,10,1,experiment,NA,NA,2,0.5,0.5,5,4,167,4,NA
fcp-trial,208,1050232,0.0-177.0-0.0,voc_e2,12132,"[{""event"":""fullscreenenter"",""trial"":1,""time"":7945}]",NA,NA,NA,NA,NA,3,#FA92F8,#1CD855,10,10,1,38,1,3142.2999999998137,37,1,771.7000000001863,10,1,experiment,NA,NA,1,0.7,0.3,2,3,168,4,NA
fcp-trial,209,1055443,0.0-178.0-0.0,voc_e2,12132,"[{""event"":""fullscreenenter"",""trial"":1,""time"":7945}]",NA,NA,NA,NA,NA,6,#1CD855,#FA92F8,0,10,0,38,1,2083.9000000003725,39,0,1617.4000000003723,10,1,experiment,NA,NA,1,0.3,0.7,3,2,169,4,NA
fcp-trial,210,1059254,0.0-179.0-0.0,voc_e2,12132,"[{""event"":""fullscreenenter"",""trial"":1,""time"":7945}]",NA,NA,NA,NA,NA,5,#741CD8,#D8271C,10,10,1,38,1,1294.4000000003725,39,0,1006.2999999998136,10,0,experiment,NA,NA,2,0.5,0.5,4,5,170,4,NA
fcp-trial,211,1063370,0.0-180.0-0.0,voc_e2,12132,"[{""event"":""fullscreenenter"",""trial"":1,""time"":7945}]",NA,NA,NA,NA,NA,1,#D89F1C,#3386FF,10,0,1,38,1,1492.2000000001863,37,1,1116.0999999996277,10,1,experiment,NA,NA,0,0.9,0.1,0,1,171,4,NA
fcp-trial,212,1069406,0.0-181.0-0.0,voc_e2,12132,"[{""event"":""fullscreenenter"",""trial"":1,""time"":7945}]",NA,NA,NA,NA,NA,5,#D89F1C,#3386FF,10,0,1,38,1,4083.5999999996275,37,1,444.8999999994412,10,1,experiment,NA,NA,0,0.9,0.1,0,1,172,4,NA
fcp-trial,213,1072403,0.0-182.0-0.0,voc_e2,12132,"[{""event"":""fullscreenenter"",""trial"":1,""time"":7945}]",NA,NA,NA,NA,NA,2,#FA92F8,#1CD855,0,0,1,40,0,970.5,37,1,519,0,1,experiment,NA,NA,1,0.7,0.3,2,3,173,4,NA
fcp-trial,214,1075456,0.0-183.0-0.0,voc_e2,12132,"[{""event"":""fullscreenenter"",""trial"":1,""time"":7945}]",NA,NA,NA,NA,NA,2,#741CD8,#D8271C,0,0,1,40,0,1039.5,37,1,504.3999999994412,0,1,experiment,NA,NA,2,0.5,0.5,4,5,174,4,NA
fcp-trial,215,1079343,0.0-184.0-0.0,voc_e2,12132,"[{""event"":""fullscreenenter"",""trial"":1,""time"":7945}]",NA,NA,NA,NA,NA,1,#1CD855,#FA92F8,0,10,0,38,1,1887.0999999996275,39,0,492,10,1,experiment,NA,NA,1,0.3,0.7,3,2,175,4,NA
fcp-trial,216,1081954,0.0-185.0-0.0,voc_e2,12132,"[{""event"":""fullscreenenter"",""trial"":1,""time"":7945}]",NA,NA,NA,NA,NA,2,#D89F1C,#3386FF,10,0,1,38,1,619.0999999996275,37,1,482.0999999996274,10,1,experiment,NA,NA,0,0.9,0.1,0,1,176,4,NA
fcp-trial,217,1085883,0.0-186.0-0.0,voc_e2,12132,"[{""event"":""fullscreenenter"",""trial"":1,""time"":7945}]",NA,NA,NA,NA,NA,0,#D8271C,#741CD8,10,10,0,38,1,974.7999999998137,39,0,1446.1000000005588,10,1,experiment,NA,NA,2,0.5,0.5,5,4,177,4,NA
fcp-trial,218,1088505,0.0-187.0-0.0,voc_e2,12132,"[{""event"":""fullscreenenter"",""trial"":1,""time"":7945}]",NA,NA,NA,NA,NA,4,#3386FF,#D89F1C,0,10,0,38,1,704.2000000001863,39,0,407.5,10,1,experiment,NA,NA,0,0.1,0.9,1,0,178,4,NA
fcp-trial,219,1091921,0.0-188.0-0.0,voc_e2,12132,"[{""event"":""fullscreenenter"",""trial"":1,""time"":7945}]",NA,NA,NA,NA,NA,5,#FA92F8,#1CD855,10,0,1,38,1,692.7000000001863,37,1,1214.5,10,1,experiment,NA,NA,1,0.7,0.3,2,3,179,4,NA
fcp-trial,220,1095255,0.0-189.0-0.0,voc_e2,12132,"[{""event"":""fullscreenenter"",""trial"":1,""time"":7945}]",NA,NA,NA,NA,NA,1,#741CD8,#D8271C,0,10,1,38,1,1466.800000000745,37,1,358.40000000037253,0,1,experiment,NA,NA,2,0.5,0.5,4,5,180,4,NA
fcp-trial,221,1099149,0.0-190.0-0.0,voc_e2,12132,"[{""event"":""fullscreenenter"",""trial"":1,""time"":7945}]",NA,NA,NA,NA,NA,4,#FA92F8,#1CD855,10,0,1,40,0,1829.7999999998137,37,1,555.2000000001863,10,1,experiment,NA,NA,1,0.7,0.3,2,3,181,5,NA
fcp-trial,222,1101863,0.0-191.0-0.0,voc_e2,12132,"[{""event"":""fullscreenenter"",""trial"":1,""time"":7945}]",NA,NA,NA,NA,NA,3,#D89F1C,#3386FF,10,0,1,38,1,722.7999999998137,37,1,483,10,1,experiment,NA,NA,0,0.9,0.1,0,1,182,5,NA
fcp-trial,223,1105111,0.0-192.0-0.0,voc_e2,12132,"[{""event"":""fullscreenenter"",""trial"":1,""time"":7945}]",NA,NA,NA,NA,NA,4,#741CD8,#D8271C,10,0,1,38,1,966.1999999992549,37,1,775.0999999996275,10,1,experiment,NA,NA,2,0.5,0.5,4,5,183,5,NA
fcp-trial,224,1107843,0.0-193.0-0.0,voc_e2,12132,"[{""event"":""fullscreenenter"",""trial"":1,""time"":7945}]",NA,NA,NA,NA,NA,6,#741CD8,#D8271C,10,10,1,38,1,715.1000000005588,37,1,505.9000000003726,10,1,experiment,NA,NA,2,0.5,0.5,4,5,184,5,NA
fcp-trial,225,1110770,0.0-194.0-0.0,voc_e2,12132,"[{""event"":""fullscreenenter"",""trial"":1,""time"":7945}]",NA,NA,NA,NA,NA,3,#FA92F8,#1CD855,10,0,1,40,0,916.8000000007451,37,1,501.4000000003726,10,1,experiment,NA,NA,1,0.7,0.3,2,3,185,5,NA
fcp-trial,226,1113676,0.0-195.0-0.0,voc_e2,12132,"[{""event"":""fullscreenenter"",""trial"":1,""time"":7945}]",NA,NA,NA,NA,NA,0,#D89F1C,#3386FF,10,0,1,38,1,689.8999999994412,37,1,707.7000000001863,10,1,experiment,NA,NA,0,0.9,0.1,0,1,186,5,NA
fcp-trial,227,1118070,0.0-196.0-0.0,voc_e2,12132,"[{""event"":""fullscreenenter"",""trial"":1,""time"":7945}]",NA,NA,NA,NA,NA,0,#FA92F8,#1CD855,0,10,1,38,1,2326,37,1,558.2000000001863,0,1,experiment,NA,NA,1,0.7,0.3,2,3,187,5,NA
fcp-trial,228,1121091,0.0-197.0-0.0,voc_e2,12132,"[{""event"":""fullscreenenter"",""trial"":1,""time"":7945}]",NA,NA,NA,NA,NA,6,#3386FF,#D89F1C,0,10,0,38,1,1111.800000000745,39,0,400.4000000003726,10,1,experiment,NA,NA,0,0.1,0.9,1,0,188,5,NA
fcp-trial,229,1125076,0.0-198.0-0.0,voc_e2,12132,"[{""event"":""fullscreenenter"",""trial"":1,""time"":7945}]",NA,NA,NA,NA,NA,3,#D8271C,#741CD8,0,0,0,38,1,1607.2000000001863,37,1,867.8000000007451,0,0,experiment,NA,NA,2,0.5,0.5,5,4,189,5,NA
fcp-trial,230,1128338,0.0-199.0-0.0,voc_e2,12132,"[{""event"":""fullscreenenter"",""trial"":1,""time"":7945}]",NA,NA,NA,NA,NA,2,#741CD8,#D8271C,10,0,1,38,1,668.6000000005588,37,1,1083.4000000003723,10,1,experiment,NA,NA,2,0.5,0.5,4,5,190,5,NA
fcp-trial,231,1131731,0.0-200.0-0.0,voc_e2,12132,"[{""event"":""fullscreenenter"",""trial"":1,""time"":7945}]",NA,NA,NA,NA,NA,1,#FA92F8,#1CD855,10,0,1,38,1,1160.7000000001863,37,1,724.6000000005588,10,1,experiment,NA,NA,1,0.7,0.3,2,3,191,5,NA
fcp-trial,232,1134666,0.0-201.0-0.0,voc_e2,12132,"[{""event"":""fullscreenenter"",""trial"":1,""time"":7945}]",NA,NA,NA,NA,NA,2,#3386FF,#D89F1C,0,10,0,38,1,561.6000000005588,39,0,865.5,10,1,experiment,NA,NA,0,0.1,0.9,1,0,192,5,NA
fcp-trial,233,1139718,0.0-202.0-0.0,voc_e2,12132,"[{""event"":""fullscreenenter"",""trial"":1,""time"":7945}]",NA,NA,NA,NA,NA,5,#1CD855,#FA92F8,10,10,0,38,1,1927.5,39,0,1617,10,1,experiment,NA,NA,1,0.3,0.7,3,2,193,5,NA
fcp-trial,234,1143152,0.0-203.0-0.0,voc_e2,12132,"[{""event"":""fullscreenenter"",""trial"":1,""time"":7945}]",NA,NA,NA,NA,NA,1,#D89F1C,#3386FF,0,0,1,38,1,1467.3999999994412,37,1,458.3999999994412,0,1,experiment,NA,NA,0,0.9,0.1,0,1,194,5,NA
fcp-trial,235,1146520,0.0-204.0-0.0,voc_e2,12132,"[{""event"":""fullscreenenter"",""trial"":1,""time"":7945}]",NA,NA,NA,NA,NA,0,#D8271C,#741CD8,10,10,0,38,1,1457.5,39,0,402.79999999981374,10,1,experiment,NA,NA,2,0.5,0.5,5,4,195,5,NA
fcp-trial,236,1150633,0.0-205.0-0.0,voc_e2,12132,"[{""event"":""fullscreenenter"",""trial"":1,""time"":7945}]",NA,NA,NA,NA,NA,3,#741CD8,#D8271C,10,0,1,38,1,667,37,1,1937,10,1,experiment,NA,NA,2,0.5,0.5,4,5,196,5,NA
fcp-trial,237,1155789,0.0-206.0-0.0,voc_e2,12132,"[{""event"":""fullscreenenter"",""trial"":1,""time"":7945}]",NA,NA,NA,NA,NA,6,#3386FF,#D89F1C,0,10,0,38,1,1013.5999999996275,39,0,2635.2000000001863,10,1,experiment,NA,NA,0,0.1,0.9,1,0,197,5,NA
fcp-trial,238,1158788,0.0-207.0-0.0,voc_e2,12132,"[{""event"":""fullscreenenter"",""trial"":1,""time"":7945}]",NA,NA,NA,NA,NA,4,#1CD855,#FA92F8,0,10,0,38,1,1044.5999999996275,39,0,443.70000000018626,10,1,experiment,NA,NA,1,0.3,0.7,3,2,198,5,NA
fcp-trial,239,1161588,0.0-208.0-0.0,voc_e2,12132,"[{""event"":""fullscreenenter"",""trial"":1,""time"":7945}]",NA,NA,NA,NA,NA,3,#D89F1C,#3386FF,10,0,1,38,1,845.2000000001863,37,1,443,10,1,experiment,NA,NA,0,0.9,0.1,0,1,199,5,NA
fcp-trial,240,1166420,0.0-209.0-0.0,voc_e2,12132,"[{""event"":""fullscreenenter"",""trial"":1,""time"":7945}]",NA,NA,NA,NA,NA,5,#741CD8,#D8271C,10,10,1,38,1,2471.4000000003725,37,1,851.5999999996275,10,1,experiment,NA,NA,2,0.5,0.5,4,5,200,5,NA
fcp-trial,241,1170066,0.0-210.0-0.0,voc_e2,12132,"[{""event"":""fullscreenenter"",""trial"":1,""time"":7945}]",NA,NA,NA,NA,NA,3,#1CD855,#FA92F8,10,0,0,38,1,1722.5,39,0,416.29999999981374,0,1,experiment,NA,NA,1,0.3,0.7,3,2,201,5,NA
fcp-trial,242,1172687,0.0-211.0-0.0,voc_e2,12132,"[{""event"":""fullscreenenter"",""trial"":1,""time"":7945}]",NA,NA,NA,NA,NA,4,#D89F1C,#3386FF,10,10,1,38,1,699.5,37,1,412.4000000003726,10,1,experiment,NA,NA,0,0.9,0.1,0,1,202,5,NA
fcp-trial,243,1175591,0.0-212.0-0.0,voc_e2,12132,"[{""event"":""fullscreenenter"",""trial"":1,""time"":7945}]",NA,NA,NA,NA,NA,6,#1CD855,#FA92F8,0,10,0,38,1,685.1999999992549,39,0,708.4000000003725,10,1,experiment,NA,NA,1,0.3,0.7,3,2,203,5,NA
fcp-trial,244,1181903,0.0-213.0-0.0,voc_e2,12132,"[{""event"":""fullscreenenter"",""trial"":1,""time"":7945}]",NA,NA,NA,NA,NA,4,#741CD8,#D8271C,10,0,1,38,1,4270.100000000559,37,1,532.7000000001863,10,1,experiment,NA,NA,2,0.5,0.5,4,5,204,5,NA
fcp-trial,245,1185319,0.0-214.0-0.0,voc_e2,12132,"[{""event"":""fullscreenenter"",""trial"":1,""time"":7945}]",NA,NA,NA,NA,NA,1,#741CD8,#D8271C,10,0,1,38,1,1073.3999999994412,37,1,834.2999999998137,10,1,experiment,NA,NA,2,0.5,0.5,4,5,205,5,NA
fcp-trial,246,1188343,0.0-215.0-0.0,voc_e2,12132,"[{""event"":""fullscreenenter"",""trial"":1,""time"":7945}]",NA,NA,NA,NA,NA,6,#D8271C,#741CD8,10,0,0,38,1,784.4000000003725,39,0,730.2000000001863,0,1,experiment,NA,NA,2,0.5,0.5,5,4,206,5,NA
fcp-trial,247,1193979,0.0-216.0-0.0,voc_e2,12132,"[{""event"":""fullscreenenter"",""trial"":1,""time"":7945}]",NA,NA,NA,NA,NA,0,#3386FF,#D89F1C,0,10,0,38,1,3617.100000000559,39,0,508.79999999981374,10,1,experiment,NA,NA,0,0.1,0.9,1,0,207,5,NA
fcp-trial,248,1196462,0.0-217.0-0.0,voc_e2,12132,"[{""event"":""fullscreenenter"",""trial"":1,""time"":7945}]",NA,NA,NA,NA,NA,2,#1CD855,#FA92F8,10,10,0,38,1,578.4000000003725,39,0,397,10,1,experiment,NA,NA,1,0.3,0.7,3,2,208,5,NA
fcp-trial,249,1200049,0.0-218.0-0.0,voc_e2,12132,"[{""event"":""fullscreenenter"",""trial"":1,""time"":7945}]",NA,NA,NA,NA,NA,5,#3386FF,#D89F1C,0,10,0,38,1,1268,39,0,812.8999999994412,10,1,experiment,NA,NA,0,0.1,0.9,1,0,209,5,NA
fcp-trial,250,1203518,0.0-219.0-0.0,voc_e2,12132,"[{""event"":""fullscreenenter"",""trial"":1,""time"":7945}]",NA,NA,NA,NA,NA,0,#FA92F8,#1CD855,0,10,1,38,1,1329.9000000003725,37,1,630.5,0,1,experiment,NA,NA,1,0.7,0.3,2,3,210,5,NA
audio-instructions,251,1214328,0.0-220.0,voc_e2,12132,"[{""event"":""fullscreenenter"",""trial"":1,""time"":7945}]",NA,6307.4000000003725,static/audio/pause.wav,NA,0,NA,NA,NA,NA,NA,NA,NA,NA,NA,NA,NA,NA,NA,NA,NA,NA,NA,NA,NA,NA,NA,NA,NA,NA,NA
fcp-trial,252,1217499,0.0-221.0-0.0,voc_e2,12132,"[{""event"":""fullscreenenter"",""trial"":1,""time"":7945}]",NA,NA,NA,NA,NA,1,#3386FF,#D89F1C,10,10,0,38,1,1232,39,0,426.70000000018626,10,1,experiment,NA,NA,0,0.1,0.9,1,0,211,5,NA
fcp-trial,253,1220334,0.0-222.0-0.0,voc_e2,12132,"[{""event"":""fullscreenenter"",""trial"":1,""time"":7945}]",NA,NA,NA,NA,NA,4,#D8271C,#741CD8,10,10,0,38,1,655.4000000003725,39,0,670.7999999998137,10,1,experiment,NA,NA,2,0.5,0.5,5,4,212,5,NA
fcp-trial,254,1222842,0.0-223.0-0.0,voc_e2,12132,"[{""event"":""fullscreenenter"",""trial"":1,""time"":7945}]",NA,NA,NA,NA,NA,3,#FA92F8,#1CD855,10,0,1,38,1,482.09999999962747,37,1,516.7999999998137,10,1,experiment,NA,NA,1,0.7,0.3,2,3,213,5,NA
fcp-trial,255,1225551,0.0-224.0-0.0,voc_e2,12132,"[{""event"":""fullscreenenter"",""trial"":1,""time"":7945}]",NA,NA,NA,NA,NA,2,#1CD855,#FA92F8,0,10,0,38,1,546.0999999996275,39,0,653.8999999994412,10,1,experiment,NA,NA,1,0.3,0.7,3,2,214,5,NA
fcp-trial,256,1228620,0.0-225.0-0.0,voc_e2,12132,"[{""event"":""fullscreenenter"",""trial"":1,""time"":7945}]",NA,NA,NA,NA,NA,5,#3386FF,#D89F1C,0,10,0,38,1,932.3999999994412,39,0,626.5999999996275,10,1,experiment,NA,NA,0,0.1,0.9,1,0,215,5,NA
fcp-trial,257,1232729,0.0-226.0-0.0,voc_e2,12132,"[{""event"":""fullscreenenter"",""trial"":1,""time"":7945}]",NA,NA,NA,NA,NA,1,#D8271C,#741CD8,0,0,0,38,1,2123.600000000559,39,0,477.20000000018626,0,1,experiment,NA,NA,2,0.5,0.5,5,4,216,5,NA
fcp-trial,258,1235051,0.0-227.0-0.0,voc_e2,12132,"[{""event"":""fullscreenenter"",""trial"":1,""time"":7945}]",NA,NA,NA,NA,NA,2,#3386FF,#D89F1C,0,10,0,38,1,380.80000000074506,39,0,430.80000000074506,10,1,experiment,NA,NA,0,0.1,0.9,1,0,217,5,NA
fcp-trial,259,1237465,0.0-228.0-0.0,voc_e2,12132,"[{""event"":""fullscreenenter"",""trial"":1,""time"":7945}]",NA,NA,NA,NA,NA,0,#FA92F8,#1CD855,10,10,1,38,1,534.2000000011176,37,1,370.5,10,1,experiment,NA,NA,1,0.7,0.3,2,3,218,5,NA
fcp-trial,260,1241075,0.0-229.0-0.0,voc_e2,12132,"[{""event"":""fullscreenenter"",""trial"":1,""time"":7945}]",NA,NA,NA,NA,NA,5,#741CD8,#D8271C,10,10,1,38,1,1110.2000000011176,37,1,991.7000000011176,10,1,experiment,NA,NA,2,0.5,0.5,4,5,219,5,NA
fcp-trial,261,1243717,0.0-230.0-0.0,voc_e2,12132,"[{""event"":""fullscreenenter"",""trial"":1,""time"":7945}]",NA,NA,NA,NA,NA,0,#D8271C,#741CD8,0,10,0,38,1,490.7000000011176,39,0,644.6000000014901,10,1,experiment,NA,NA,2,0.5,0.5,5,4,220,5,NA
fcp-trial,262,1246673,0.0-231.0-0.0,voc_e2,12132,"[{""event"":""fullscreenenter"",""trial"":1,""time"":7945}]",NA,NA,NA,NA,NA,5,#FA92F8,#1CD855,10,0,1,38,1,1076.5,37,1,371.7999999988824,10,1,experiment,NA,NA,1,0.7,0.3,2,3,221,5,NA
fcp-trial,263,1249258,0.0-232.0-0.0,voc_e2,12132,"[{""event"":""fullscreenenter"",""trial"":1,""time"":7945}]",NA,NA,NA,NA,NA,4,#D89F1C,#3386FF,10,0,1,38,1,463.80000000074506,37,1,612.5,10,1,experiment,NA,NA,0,0.9,0.1,0,1,222,5,NA
fcp-trial,264,1251663,0.0-233.0-0.0,voc_e2,12132,"[{""event"":""fullscreenenter"",""trial"":1,""time"":7945}]",NA,NA,NA,NA,NA,3,#D89F1C,#3386FF,10,0,1,38,1,491.80000000074506,37,1,404.4000000003726,10,1,experiment,NA,NA,0,0.9,0.1,0,1,223,5,NA
fcp-trial,265,1256105,0.0-234.0-0.0,voc_e2,12132,"[{""event"":""fullscreenenter"",""trial"":1,""time"":7945}]",NA,NA,NA,NA,NA,6,#1CD855,#FA92F8,10,0,0,40,0,1995.7000000011176,37,1,935.3000000007452,10,0,experiment,NA,NA,1,0.3,0.7,3,2,224,5,NA
fcp-trial,266,1262321,0.0-235.0-0.0,voc_e2,12132,"[{""event"":""fullscreenenter"",""trial"":1,""time"":7945}]",NA,NA,NA,NA,NA,3,#D8271C,#741CD8,10,0,0,38,1,4113.300000000745,39,0,596.5999999996275,0,1,experiment,NA,NA,2,0.5,0.5,5,4,225,5,NA
fcp-trial,267,1264666,0.0-236.0-0.0,voc_e2,12132,"[{""event"":""fullscreenenter"",""trial"":1,""time"":7945}]",NA,NA,NA,NA,NA,6,#3386FF,#D89F1C,0,10,0,38,1,233.09999999962747,39,0,603,10,1,experiment,NA,NA,0,0.1,0.9,1,0,226,6,NA
fcp-trial,268,1267130,0.0-237.0-0.0,voc_e2,12132,"[{""event"":""fullscreenenter"",""trial"":1,""time"":7945}]",NA,NA,NA,NA,NA,0,#D89F1C,#3386FF,10,0,1,38,1,474.1000000014901,37,1,478.5999999996274,10,1,experiment,NA,NA,0,0.9,0.1,0,1,227,6,NA
fcp-trial,269,1270775,0.0-238.0-0.0,voc_e2,12132,"[{""event"":""fullscreenenter"",""trial"":1,""time"":7945}]",NA,NA,NA,NA,NA,4,#1CD855,#FA92F8,0,10,0,38,1,1032.7000000011176,37,1,1103.4000000003723,0,0,experiment,NA,NA,1,0.3,0.7,3,2,228,6,NA
fcp-trial,270,1273269,0.0-239.0-0.0,voc_e2,12132,"[{""event"":""fullscreenenter"",""trial"":1,""time"":7945}]",NA,NA,NA,NA,NA,1,#FA92F8,#1CD855,10,10,1,38,1,323.5,37,1,661.0999999996275,10,1,experiment,NA,NA,1,0.7,0.3,2,3,229,6,NA
fcp-trial,271,1276515,0.0-240.0-0.0,voc_e2,12132,"[{""event"":""fullscreenenter"",""trial"":1,""time"":7945}]",NA,NA,NA,NA,NA,6,#D8271C,#741CD8,0,0,0,38,1,1164.1000000014901,39,0,571.5999999996275,0,1,experiment,NA,NA,2,0.5,0.5,5,4,230,6,NA
fcp-trial,272,1279084,0.0-241.0-0.0,voc_e2,12132,"[{""event"":""fullscreenenter"",""trial"":1,""time"":7945}]",NA,NA,NA,NA,NA,2,#D8271C,#741CD8,0,0,0,38,1,292.40000000037253,39,0,765,0,1,experiment,NA,NA,2,0.5,0.5,5,4,231,6,NA
fcp-trial,273,1282034,0.0-242.0-0.0,voc_e2,12132,"[{""event"":""fullscreenenter"",""trial"":1,""time"":7945}]",NA,NA,NA,NA,NA,3,#741CD8,#D8271C,10,10,1,40,0,930.5999999996275,37,1,507,10,1,experiment,NA,NA,2,0.5,0.5,4,5,232,6,NA
fcp-trial,274,1286386,0.0-243.0-0.0,voc_e2,12132,"[{""event"":""fullscreenenter"",""trial"":1,""time"":7945}]",NA,NA,NA,NA,NA,5,#FA92F8,#1CD855,10,0,1,40,0,2451.4000000003725,37,1,391.2000000011176,10,1,experiment,NA,NA,1,0.7,0.3,2,3,233,6,NA
fcp-trial,275,1288995,0.0-244.0-0.0,voc_e2,12132,"[{""event"":""fullscreenenter"",""trial"":1,""time"":7945}]",NA,NA,NA,NA,NA,1,#D89F1C,#3386FF,10,0,1,38,1,766.4000000003725,37,1,333.30000000074506,10,1,experiment,NA,NA,0,0.9,0.1,0,1,234,6,NA
fcp-trial,276,1292834,0.0-245.0-0.0,voc_e2,12132,"[{""event"":""fullscreenenter"",""trial"":1,""time"":7945}]",NA,NA,NA,NA,NA,5,#741CD8,#D8271C,0,10,1,40,0,1759.800000000745,37,1,571.0999999996275,0,1,experiment,NA,NA,2,0.5,0.5,4,5,235,6,NA
fcp-trial,277,1295411,0.0-246.0-0.0,voc_e2,12132,"[{""event"":""fullscreenenter"",""trial"":1,""time"":7945}]",NA,NA,NA,NA,NA,6,#D89F1C,#3386FF,10,0,1,38,1,634,37,1,434.2000000011176,10,1,experiment,NA,NA,0,0.9,0.1,0,1,236,6,NA
fcp-trial,278,1299582,0.0-247.0-0.0,voc_e2,12132,"[{""event"":""fullscreenenter"",""trial"":1,""time"":7945}]",NA,NA,NA,NA,NA,6,#741CD8,#D8271C,10,0,1,40,0,2152.9000000003725,37,1,507,10,1,experiment,NA,NA,2,0.5,0.5,4,5,237,6,NA
fcp-trial,279,1304467,0.0-248.0-0.0,voc_e2,12132,"[{""event"":""fullscreenenter"",""trial"":1,""time"":7945}]",NA,NA,NA,NA,NA,0,#FA92F8,#1CD855,10,10,1,38,1,2888.199999999255,39,0,489.7999999988824,10,0,experiment,NA,NA,1,0.7,0.3,2,3,238,6,NA
fcp-trial,280,1307534,0.0-249.0-0.0,voc_e2,12132,"[{""event"":""fullscreenenter"",""trial"":1,""time"":7945}]",NA,NA,NA,NA,NA,4,#3386FF,#D89F1C,10,10,0,38,1,1148.2999999988824,39,0,407.19999999925494,10,1,experiment,NA,NA,0,0.1,0.9,1,0,239,6,NA
fcp-trial,281,1310842,0.0-250.0-0.0,voc_e2,12132,"[{""event"":""fullscreenenter"",""trial"":1,""time"":7945}]",NA,NA,NA,NA,NA,0,#D8271C,#741CD8,10,0,0,38,1,1370.800000000745,39,0,427.80000000074506,0,1,experiment,NA,NA,2,0.5,0.5,5,4,240,6,NA
fcp-trial,282,1314333,0.0-251.0-0.0,voc_e2,12132,"[{""event"":""fullscreenenter"",""trial"":1,""time"":7945}]",NA,NA,NA,NA,NA,5,#3386FF,#D89F1C,0,10,0,38,1,1618.4000000003725,39,0,362.6000000014901,10,1,experiment,NA,NA,0,0.1,0.9,1,0,241,6,NA
fcp-trial,283,1316666,0.0-252.0-0.0,voc_e2,12132,"[{""event"":""fullscreenenter"",""trial"":1,""time"":7945}]",NA,NA,NA,NA,NA,4,#FA92F8,#1CD855,10,0,1,38,1,450.7000000011176,37,1,371.5,10,1,experiment,NA,NA,1,0.7,0.3,2,3,242,6,NA
fcp-trial,284,1321407,0.0-253.0-0.0,voc_e2,12132,"[{""event"":""fullscreenenter"",""trial"":1,""time"":7945}]",NA,NA,NA,NA,NA,1,#D8271C,#741CD8,0,10,0,38,1,2821,39,0,412.0999999996274,10,1,experiment,NA,NA,2,0.5,0.5,5,4,243,6,NA
fcp-trial,285,1324542,0.0-254.0-0.0,voc_e2,12132,"[{""event"":""fullscreenenter"",""trial"":1,""time"":7945}]",NA,NA,NA,NA,NA,2,#D8271C,#741CD8,10,10,0,38,1,1230,39,0,397.5,10,1,experiment,NA,NA,2,0.5,0.5,5,4,244,6,NA
fcp-trial,286,1327120,0.0-255.0-0.0,voc_e2,12132,"[{""event"":""fullscreenenter"",""trial"":1,""time"":7945}]",NA,NA,NA,NA,NA,3,#3386FF,#D89F1C,0,10,0,38,1,627.5999999996275,39,0,442.30000000074506,10,1,experiment,NA,NA,0,0.1,0.9,1,0,245,6,NA
fcp-trial,287,1329419,0.0-256.0-0.0,voc_e2,12132,"[{""event"":""fullscreenenter"",""trial"":1,""time"":7945}]",NA,NA,NA,NA,NA,6,#FA92F8,#1CD855,10,0,1,38,1,150.90000000037253,37,1,641.8000000007451,10,1,experiment,NA,NA,1,0.7,0.3,2,3,246,6,NA
fcp-trial,288,1333464,0.0-257.0-0.0,voc_e2,12132,"[{""event"":""fullscreenenter"",""trial"":1,""time"":7945}]",NA,NA,NA,NA,NA,3,#1CD855,#FA92F8,0,10,0,38,1,2084.5,39,0,452.80000000074506,10,1,experiment,NA,NA,1,0.3,0.7,3,2,247,6,NA
fcp-trial,289,1338294,0.0-258.0-0.0,voc_e2,12132,"[{""event"":""fullscreenenter"",""trial"":1,""time"":7945}]",NA,NA,NA,NA,NA,4,#D8271C,#741CD8,0,10,0,38,1,2788.0999999996275,39,0,533.3000000007451,10,1,experiment,NA,NA,2,0.5,0.5,5,4,248,6,NA
fcp-trial,290,1340584,0.0-259.0-0.0,voc_e2,12132,"[{""event"":""fullscreenenter"",""trial"":1,""time"":7945}]",NA,NA,NA,NA,NA,0,#D89F1C,#3386FF,10,0,1,38,1,459.8999999985099,37,1,322,10,1,experiment,NA,NA,0,0.9,0.1,0,1,249,6,NA
fcp-trial,291,1343062,0.0-260.0-0.0,voc_e2,12132,"[{""event"":""fullscreenenter"",""trial"":1,""time"":7945}]",NA,NA,NA,NA,NA,2,#FA92F8,#1CD855,10,10,1,38,1,558.4000000003725,37,1,407.19999999925494,10,1,experiment,NA,NA,1,0.7,0.3,2,3,250,6,NA
fcp-trial,292,1345311,0.0-261.0-0.0,voc_e2,12132,"[{""event"":""fullscreenenter"",""trial"":1,""time"":7945}]",NA,NA,NA,NA,NA,1,#FA92F8,#1CD855,0,0,1,38,1,475.19999999925494,37,1,265.80000000074506,0,1,experiment,NA,NA,1,0.7,0.3,2,3,251,6,NA
fcp-trial,293,1347819,0.0-262.0-0.0,voc_e2,12132,"[{""event"":""fullscreenenter"",""trial"":1,""time"":7945}]",NA,NA,NA,NA,NA,2,#D89F1C,#3386FF,10,10,1,38,1,672.5,37,1,327.40000000037253,10,1,experiment,NA,NA,0,0.9,0.1,0,1,252,6,NA
fcp-trial,294,1350065,0.0-263.0-0.0,voc_e2,12132,"[{""event"":""fullscreenenter"",""trial"":1,""time"":7945}]",NA,NA,NA,NA,NA,4,#D8271C,#741CD8,10,0,0,38,1,386.2000000011176,39,0,349.59999999962747,0,1,experiment,NA,NA,2,0.5,0.5,5,4,253,6,NA
fcp-trial,295,1352517,0.0-264.0-0.0,voc_e2,12132,"[{""event"":""fullscreenenter"",""trial"":1,""time"":7945}]",NA,NA,NA,NA,NA,6,#D8271C,#741CD8,0,0,0,38,1,536.1999999992549,39,0,405,0,1,experiment,NA,NA,2,0.5,0.5,5,4,254,6,NA
fcp-trial,296,1357109,0.0-265.0-0.0,voc_e2,12132,"[{""event"":""fullscreenenter"",""trial"":1,""time"":7945}]",NA,NA,NA,NA,NA,4,#D89F1C,#3386FF,10,0,1,38,1,1750,37,1,1333.300000000745,10,1,experiment,NA,NA,0,0.9,0.1,0,1,255,6,NA
fcp-trial,297,1361062,0.0-266.0-0.0,voc_e2,12132,"[{""event"":""fullscreenenter"",""trial"":1,""time"":7945}]",NA,NA,NA,NA,NA,5,#1CD855,#FA92F8,0,10,0,40,0,1898.5,37,1,546,0,0,experiment,NA,NA,1,0.3,0.7,3,2,256,6,NA
fcp-trial,298,1367067,0.0-267.0-0.0,voc_e2,12132,"[{""event"":""fullscreenenter"",""trial"":1,""time"":7945}]",NA,NA,NA,NA,NA,3,#1CD855,#FA92F8,10,10,0,38,1,4018.5,39,0,477.9000000003726,10,1,experiment,NA,NA,1,0.3,0.7,3,2,257,6,NA
fcp-trial,299,1370328,0.0-268.0-0.0,voc_e2,12132,"[{""event"":""fullscreenenter"",""trial"":1,""time"":7945}]",NA,NA,NA,NA,NA,0,#D8271C,#741CD8,0,0,0,38,1,1249.699999999255,39,0,502.5999999996274,0,1,experiment,NA,NA,2,0.5,0.5,5,4,258,6,NA
fcp-trial,300,1373290,0.0-269.0-0.0,voc_e2,12132,"[{""event"":""fullscreenenter"",""trial"":1,""time"":7945}]",NA,NA,NA,NA,NA,0,#1CD855,#FA92F8,0,10,0,38,1,1013.4000000003725,39,0,439.0999999996274,10,1,experiment,NA,NA,1,0.3,0.7,3,2,259,6,NA
fcp-trial,301,1376096,0.0-270.0-0.0,voc_e2,12132,"[{""event"":""fullscreenenter"",""trial"":1,""time"":7945}]",NA,NA,NA,NA,NA,5,#D89F1C,#3386FF,0,0,1,38,1,772.5999999996275,37,1,524.6999999992549,0,1,experiment,NA,NA,0,0.9,0.1,0,1,260,6,NA
fcp-trial,302,1378896,0.0-271.0-0.0,voc_e2,12132,"[{""event"":""fullscreenenter"",""trial"":1,""time"":7945}]",NA,NA,NA,NA,NA,0,#D89F1C,#3386FF,10,0,1,38,1,844.1999999992549,37,1,445.4000000003726,10,1,experiment,NA,NA,0,0.9,0.1,0,1,261,6,NA
fcp-trial,303,1383113,0.0-272.0-0.0,voc_e2,12132,"[{""event"":""fullscreenenter"",""trial"":1,""time"":7945}]",NA,NA,NA,NA,NA,1,#1CD855,#FA92F8,10,0,0,38,1,2306.4000000003725,37,1,402.6000000014901,10,0,experiment,NA,NA,1,0.3,0.7,3,2,262,6,NA
fcp-trial,304,1388731,0.0-273.0-0.0,voc_e2,12132,"[{""event"":""fullscreenenter"",""trial"":1,""time"":7945}]",NA,NA,NA,NA,NA,3,#741CD8,#D8271C,0,10,1,38,1,3203.2999999988824,37,1,907.2999999988824,0,1,experiment,NA,NA,2,0.5,0.5,4,5,263,6,NA
fcp-trial,305,1391744,0.0-274.0-0.0,voc_e2,12132,"[{""event"":""fullscreenenter"",""trial"":1,""time"":7945}]",NA,NA,NA,NA,NA,3,#3386FF,#D89F1C,0,10,0,38,1,1047.3999999985099,39,0,457.5999999996274,10,1,experiment,NA,NA,0,0.1,0.9,1,0,264,6,NA
fcp-trial,306,1395078,0.0-275.0-0.0,voc_e2,12132,"[{""event"":""fullscreenenter"",""trial"":1,""time"":7945}]",NA,NA,NA,NA,NA,1,#D8271C,#741CD8,10,10,0,38,1,1329.5999999996275,39,0,495,10,1,experiment,NA,NA,2,0.5,0.5,5,4,265,6,NA
fcp-trial,307,1399685,0.0-276.0-0.0,voc_e2,12132,"[{""event"":""fullscreenenter"",""trial"":1,""time"":7945}]",NA,NA,NA,NA,NA,4,#1CD855,#FA92F8,0,10,0,40,0,2291.300000000745,39,0,806.9000000003725,10,1,experiment,NA,NA,1,0.3,0.7,3,2,266,6,NA
fcp-trial,308,1402694,0.0-277.0-0.0,voc_e2,12132,"[{""event"":""fullscreenenter"",""trial"":1,""time"":7945}]",NA,NA,NA,NA,NA,6,#3386FF,#D89F1C,0,10,0,38,1,1066.300000000745,39,0,433.5999999996274,10,1,experiment,NA,NA,0,0.1,0.9,1,0,267,6,NA
fcp-trial,309,1407257,0.0-278.0-0.0,voc_e2,12132,"[{""event"":""fullscreenenter"",""trial"":1,""time"":7945}]",NA,NA,NA,NA,NA,2,#741CD8,#D8271C,10,0,1,38,1,1408.800000000745,39,0,1646,0,0,experiment,NA,NA,2,0.5,0.5,4,5,268,6,NA
fcp-trial,310,1409762,0.0-279.0-0.0,voc_e2,12132,"[{""event"":""fullscreenenter"",""trial"":1,""time"":7945}]",NA,NA,NA,NA,NA,2,#D89F1C,#3386FF,10,0,1,38,1,515.5999999996275,37,1,482.1000000014901,10,1,experiment,NA,NA,0,0.9,0.1,0,1,269,6,NA
fcp-trial,311,1412708,0.0-280.0-0.0,voc_e2,12132,"[{""event"":""fullscreenenter"",""trial"":1,""time"":7945}]",NA,NA,NA,NA,NA,1,#D89F1C,#3386FF,10,10,1,38,1,940.4000000003725,37,1,497,10,1,experiment,NA,NA,0,0.9,0.1,0,1,270,6,NA
fcp-trial,312,1415224,0.0-281.0-0.0,voc_e2,12132,"[{""event"":""fullscreenenter"",""trial"":1,""time"":7945}]",NA,NA,NA,NA,NA,2,#1CD855,#FA92F8,0,10,0,38,1,483.80000000074506,37,1,522.8000000007451,0,0,experiment,NA,NA,1,0.3,0.7,3,2,271,7,NA
fcp-trial,313,1417478,0.0-282.0-0.0,voc_e2,12132,"[{""event"":""fullscreenenter"",""trial"":1,""time"":7945}]",NA,NA,NA,NA,NA,6,#1CD855,#FA92F8,0,10,0,38,1,343,39,0,404.0999999996274,10,1,experiment,NA,NA,1,0.3,0.7,3,2,272,7,NA
fcp-trial,314,1420565,0.0-283.0-0.0,voc_e2,12132,"[{""event"":""fullscreenenter"",""trial"":1,""time"":7945}]",NA,NA,NA,NA,NA,5,#741CD8,#D8271C,10,10,1,38,1,1155.2000000011176,37,1,421.19999999925494,10,1,experiment,NA,NA,2,0.5,0.5,4,5,273,7,NA
fcp-trial,315,1422900,0.0-284.0-0.0,voc_e2,12132,"[{""event"":""fullscreenenter"",""trial"":1,""time"":7945}]",NA,NA,NA,NA,NA,1,#741CD8,#D8271C,10,10,1,38,1,442.2000000011176,37,1,384.5999999996274,10,1,experiment,NA,NA,2,0.5,0.5,4,5,274,7,NA
fcp-trial,316,1425244,0.0-285.0-0.0,voc_e2,12132,"[{""event"":""fullscreenenter"",""trial"":1,""time"":7945}]",NA,NA,NA,NA,NA,4,#D89F1C,#3386FF,10,0,1,38,1,467.7999999988824,37,1,366.80000000074506,10,1,experiment,NA,NA,0,0.9,0.1,0,1,275,7,NA
fcp-trial,317,1427440,0.0-286.0-0.0,voc_e2,12132,"[{""event"":""fullscreenenter"",""trial"":1,""time"":7945}]",NA,NA,NA,NA,NA,3,#D8271C,#741CD8,10,10,0,38,1,339.80000000074506,39,0,348.90000000037253,10,1,experiment,NA,NA,2,0.5,0.5,5,4,276,7,NA
fcp-trial,318,1429945,0.0-287.0-0.0,voc_e2,12132,"[{""event"":""fullscreenenter"",""trial"":1,""time"":7945}]",NA,NA,NA,NA,NA,5,#D8271C,#741CD8,0,0,0,38,1,676.0999999996275,39,0,319.09999999962747,0,1,experiment,NA,NA,2,0.5,0.5,5,4,277,7,NA
fcp-trial,319,1432460,0.0-288.0-0.0,voc_e2,12132,"[{""event"":""fullscreenenter"",""trial"":1,""time"":7945}]",NA,NA,NA,NA,NA,1,#FA92F8,#1CD855,10,0,1,38,1,628.3000000007451,37,1,376.30000000074506,10,1,experiment,NA,NA,1,0.7,0.3,2,3,278,7,NA
fcp-trial,320,1435244,0.0-289.0-0.0,voc_e2,12132,"[{""event"":""fullscreenenter"",""trial"":1,""time"":7945}]",NA,NA,NA,NA,NA,5,#3386FF,#D89F1C,0,0,0,38,1,909.5,39,0,365.69999999925494,0,1,experiment,NA,NA,0,0.1,0.9,1,0,279,7,NA
fcp-trial,321,1437777,0.0-290.0-0.0,voc_e2,12132,"[{""event"":""fullscreenenter"",""trial"":1,""time"":7945}]",NA,NA,NA,NA,NA,2,#3386FF,#D89F1C,0,10,0,38,1,582.8000000007451,39,0,442.5,10,1,experiment,NA,NA,0,0.1,0.9,1,0,280,7,NA
fcp-trial,322,1442364,0.0-291.0-0.0,voc_e2,12132,"[{""event"":""fullscreenenter"",""trial"":1,""time"":7945}]",NA,NA,NA,NA,NA,4,#741CD8,#D8271C,10,0,1,38,1,1178.5,37,1,1899.9000000003723,10,1,experiment,NA,NA,2,0.5,0.5,4,5,281,7,NA
fcp-trial,323,1444780,0.0-292.0-0.0,voc_e2,12132,"[{""event"":""fullscreenenter"",""trial"":1,""time"":7945}]",NA,NA,NA,NA,NA,6,#3386FF,#D89F1C,0,10,0,38,1,592.4000000003725,39,0,314.90000000037253,10,1,experiment,NA,NA,0,0.1,0.9,1,0,282,7,NA
fcp-trial,324,1448427,0.0-293.0-0.0,voc_e2,12132,"[{""event"":""fullscreenenter"",""trial"":1,""time"":7945}]",NA,NA,NA,NA,NA,5,#1CD855,#FA92F8,0,10,0,38,1,588.5999999996275,39,0,1548.9000000003723,10,1,experiment,NA,NA,1,0.3,0.7,3,2,283,7,NA
fcp-trial,325,1451423,0.0-294.0-0.0,voc_e2,12132,"[{""event"":""fullscreenenter"",""trial"":1,""time"":7945}]",NA,NA,NA,NA,NA,2,#1CD855,#FA92F8,10,10,0,38,1,777,37,1,711.6999999992549,10,0,experiment,NA,NA,1,0.3,0.7,3,2,284,7,NA
fcp-trial,326,1453674,0.0-295.0-0.0,voc_e2,12132,"[{""event"":""fullscreenenter"",""trial"":1,""time"":7945}]",NA,NA,NA,NA,NA,1,#D89F1C,#3386FF,10,0,1,38,1,413.09999999962747,37,1,330.09999999962747,10,1,experiment,NA,NA,0,0.9,0.1,0,1,285,7,NA
fcp-trial,327,1456111,0.0-296.0-0.0,voc_e2,12132,"[{""event"":""fullscreenenter"",""trial"":1,""time"":7945}]",NA,NA,NA,NA,NA,0,#741CD8,#D8271C,0,0,1,38,1,480.80000000074506,37,1,448.30000000074506,0,1,experiment,NA,NA,2,0.5,0.5,4,5,286,7,NA
fcp-trial,328,1459333,0.0-297.0-0.0,voc_e2,12132,"[{""event"":""fullscreenenter"",""trial"":1,""time"":7945}]",NA,NA,NA,NA,NA,0,#FA92F8,#1CD855,10,0,1,38,1,1249.5,39,0,465.2999999988824,0,0,experiment,NA,NA,1,0.7,0.3,2,3,287,7,NA
fcp-trial,329,1461841,0.0-298.0-0.0,voc_e2,12132,"[{""event"":""fullscreenenter"",""trial"":1,""time"":7945}]",NA,NA,NA,NA,NA,0,#3386FF,#D89F1C,0,10,0,38,1,670.5999999996275,39,0,327.2000000011176,10,1,experiment,NA,NA,0,0.1,0.9,1,0,288,7,NA
fcp-trial,330,1464710,0.0-299.0-0.0,voc_e2,12132,"[{""event"":""fullscreenenter"",""trial"":1,""time"":7945}]",NA,NA,NA,NA,NA,3,#1CD855,#FA92F8,0,0,0,38,1,772.9000000003725,37,1,587.5,0,0,experiment,NA,NA,1,0.3,0.7,3,2,289,7,NA
fcp-trial,331,1467711,0.0-300.0-0.0,voc_e2,12132,"[{""event"":""fullscreenenter"",""trial"":1,""time"":7945}]",NA,NA,NA,NA,NA,2,#D8271C,#741CD8,0,0,0,38,1,677.9000000003725,39,0,814.6999999992549,0,1,experiment,NA,NA,2,0.5,0.5,5,4,290,7,NA
fcp-trial,332,1469849,0.0-301.0-0.0,voc_e2,12132,"[{""event"":""fullscreenenter"",""trial"":1,""time"":7945}]",NA,NA,NA,NA,NA,3,#D89F1C,#3386FF,10,10,1,38,1,356.19999999925494,37,1,273.19999999925494,10,1,experiment,NA,NA,0,0.9,0.1,0,1,291,7,NA
fcp-trial,333,1472029,0.0-302.0-0.0,voc_e2,12132,"[{""event"":""fullscreenenter"",""trial"":1,""time"":7945}]",NA,NA,NA,NA,NA,6,#1CD855,#FA92F8,0,10,0,38,1,382.80000000074506,39,0,287.80000000074506,10,1,experiment,NA,NA,1,0.3,0.7,3,2,292,7,NA
fcp-trial,334,1475795,0.0-303.0-0.0,voc_e2,12132,"[{""event"":""fullscreenenter"",""trial"":1,""time"":7945}]",NA,NA,NA,NA,NA,4,#1CD855,#FA92F8,10,10,0,38,1,1859.699999999255,39,0,400.0999999996274,10,1,experiment,NA,NA,1,0.3,0.7,3,2,293,7,NA
fcp-trial,335,1477987,0.0-304.0-0.0,voc_e2,12132,"[{""event"":""fullscreenenter"",""trial"":1,""time"":7945}]",NA,NA,NA,NA,NA,6,#741CD8,#D8271C,10,10,1,38,1,371.40000000037253,37,1,312.69999999925494,10,1,experiment,NA,NA,2,0.5,0.5,4,5,294,7,NA
fcp-trial,336,1480545,0.0-305.0-0.0,voc_e2,12132,"[{""event"":""fullscreenenter"",""trial"":1,""time"":7945}]",NA,NA,NA,NA,NA,1,#D89F1C,#3386FF,0,0,1,38,1,380.5,37,1,670.1999999992549,0,1,experiment,NA,NA,0,0.9,0.1,0,1,295,7,NA
fcp-trial,337,1483381,0.0-306.0-0.0,voc_e2,12132,"[{""event"":""fullscreenenter"",""trial"":1,""time"":7945}]",NA,NA,NA,NA,NA,2,#FA92F8,#1CD855,10,0,1,38,1,677.1999999992549,37,1,649.9000000003725,10,1,experiment,NA,NA,1,0.7,0.3,2,3,296,7,NA
fcp-trial,338,1487461,0.0-307.0-0.0,voc_e2,12132,"[{""event"":""fullscreenenter"",""trial"":1,""time"":7945}]",NA,NA,NA,NA,NA,5,#741CD8,#D8271C,10,10,1,38,1,2097.89999999851,37,1,471.7999999988824,10,1,experiment,NA,NA,2,0.5,0.5,4,5,297,7,NA
fcp-trial,339,1491329,0.0-308.0-0.0,voc_e2,12132,"[{""event"":""fullscreenenter"",""trial"":1,""time"":7945}]",NA,NA,NA,NA,NA,4,#741CD8,#D8271C,10,0,1,38,1,1841.2999999988824,39,0,519.9000000003725,0,0,experiment,NA,NA,2,0.5,0.5,4,5,298,7,NA
fcp-trial,340,1493690,0.0-309.0-0.0,voc_e2,12132,"[{""event"":""fullscreenenter"",""trial"":1,""time"":7945}]",NA,NA,NA,NA,NA,3,#1CD855,#FA92F8,0,0,0,38,1,508.09999999962747,39,0,344,0,1,experiment,NA,NA,1,0.3,0.7,3,2,299,7,NA
fcp-trial,341,1496559,0.0-310.0-0.0,voc_e2,12132,"[{""event"":""fullscreenenter"",""trial"":1,""time"":7945}]",NA,NA,NA,NA,NA,4,#D89F1C,#3386FF,10,0,1,38,1,953.8000000007451,37,1,407.9000000003726,10,1,experiment,NA,NA,0,0.9,0.1,0,1,300,7,NA
fcp-trial,342,1500416,0.0-311.0-0.0,voc_e2,12132,"[{""event"":""fullscreenenter"",""trial"":1,""time"":7945}]",NA,NA,NA,NA,NA,1,#1CD855,#FA92F8,10,10,0,38,1,577.5,39,0,1770.800000000745,10,1,experiment,NA,NA,1,0.3,0.7,3,2,301,7,NA
fcp-trial,343,1504102,0.0-312.0-0.0,voc_e2,12132,"[{""event"":""fullscreenenter"",""trial"":1,""time"":7945}]",NA,NA,NA,NA,NA,1,#D8271C,#741CD8,0,0,0,38,1,1567.7000000011176,39,0,606.8000000007451,0,1,experiment,NA,NA,2,0.5,0.5,5,4,302,7,NA
fcp-trial,344,1506982,0.0-313.0-0.0,voc_e2,12132,"[{""event"":""fullscreenenter"",""trial"":1,""time"":7945}]",NA,NA,NA,NA,NA,0,#D8271C,#741CD8,0,0,0,38,1,92.90000000037253,39,0,1277.5,0,1,experiment,NA,NA,2,0.5,0.5,5,4,303,7,NA
fcp-trial,345,1509643,0.0-314.0-0.0,voc_e2,12132,"[{""event"":""fullscreenenter"",""trial"":1,""time"":7945}]",NA,NA,NA,NA,NA,0,#D89F1C,#3386FF,10,0,1,38,1,671.2000000011176,37,1,480.5999999996274,10,1,experiment,NA,NA,0,0.9,0.1,0,1,304,7,NA
fcp-trial,346,1513170,0.0-315.0-0.0,voc_e2,12132,"[{""event"":""fullscreenenter"",""trial"":1,""time"":7945}]",NA,NA,NA,NA,NA,6,#1CD855,#FA92F8,0,10,0,40,0,1544.5,37,1,474.5,0,0,experiment,NA,NA,1,0.3,0.7,3,2,305,7,NA
fcp-trial,347,1515699,0.0-316.0-0.0,voc_e2,12132,"[{""event"":""fullscreenenter"",""trial"":1,""time"":7945}]",NA,NA,NA,NA,NA,6,#D89F1C,#3386FF,10,0,1,38,1,599.5999999996275,37,1,422,10,1,experiment,NA,NA,0,0.9,0.1,0,1,306,7,NA
fcp-trial,348,1518448,0.0-317.0-0.0,voc_e2,12132,"[{""event"":""fullscreenenter"",""trial"":1,""time"":7945}]",NA,NA,NA,NA,NA,2,#D89F1C,#3386FF,10,10,1,38,1,851.0999999996275,37,1,388.4000000003726,10,1,experiment,NA,NA,0,0.9,0.1,0,1,307,7,NA
fcp-trial,349,1521523,0.0-318.0-0.0,voc_e2,12132,"[{""event"":""fullscreenenter"",""trial"":1,""time"":7945}]",NA,NA,NA,NA,NA,6,#741CD8,#D8271C,0,0,1,40,0,1065.5999999996275,39,0,502.19999999925494,0,0,experiment,NA,NA,2,0.5,0.5,4,5,308,7,NA
fcp-trial,350,1524933,0.0-319.0-0.0,voc_e2,12132,"[{""event"":""fullscreenenter"",""trial"":1,""time"":7945}]",NA,NA,NA,NA,NA,0,#1CD855,#FA92F8,0,10,0,38,1,1288.4000000003725,39,0,611.0999999996275,10,1,experiment,NA,NA,1,0.3,0.7,3,2,309,7,NA
fcp-trial,351,1528008,0.0-320.0-0.0,voc_e2,12132,"[{""event"":""fullscreenenter"",""trial"":1,""time"":7945}]",NA,NA,NA,NA,NA,3,#3386FF,#D89F1C,0,10,0,38,1,1126,37,1,439.5999999996274,0,0,experiment,NA,NA,0,0.1,0.9,1,0,310,7,NA
fcp-trial,352,1531008,0.0-321.0-0.0,voc_e2,12132,"[{""event"":""fullscreenenter"",""trial"":1,""time"":7945}]",NA,NA,NA,NA,NA,4,#1CD855,#FA92F8,0,0,0,38,1,825.0999999996275,39,0,668,0,1,experiment,NA,NA,1,0.3,0.7,3,2,311,7,NA
fcp-trial,353,1533610,0.0-322.0-0.0,voc_e2,12132,"[{""event"":""fullscreenenter"",""trial"":1,""time"":7945}]",NA,NA,NA,NA,NA,3,#D8271C,#741CD8,0,10,0,38,1,670.2999999988824,39,0,422.9000000003726,10,1,experiment,NA,NA,2,0.5,0.5,5,4,312,7,NA
fcp-trial,354,1536513,0.0-323.0-0.0,voc_e2,12132,"[{""event"":""fullscreenenter"",""trial"":1,""time"":7945}]",NA,NA,NA,NA,NA,2,#D8271C,#741CD8,0,0,0,38,1,985.8000000007451,39,0,407.0999999996274,0,1,experiment,NA,NA,2,0.5,0.5,5,4,313,7,NA
fcp-trial,355,1539415,0.0-324.0-0.0,voc_e2,12132,"[{""event"":""fullscreenenter"",""trial"":1,""time"":7945}]",NA,NA,NA,NA,NA,5,#D89F1C,#3386FF,10,0,1,38,1,1032.5,37,1,360.19999999925494,10,1,experiment,NA,NA,0,0.9,0.1,0,1,314,7,NA
fcp-trial,356,1541979,0.0-325.0-0.0,voc_e2,12132,"[{""event"":""fullscreenenter"",""trial"":1,""time"":7945}]",NA,NA,NA,NA,NA,5,#FA92F8,#1CD855,10,0,1,38,1,424,37,1,628.3000000007451,10,1,experiment,NA,NA,1,0.7,0.3,2,3,315,7,NA
audio-instructions,357,1549027,0.0-326.0,voc_e2,12132,"[{""event"":""fullscreenenter"",""trial"":1,""time"":7945}]",NA,1364.800000000745,static/audio/finished.wav,NA,0,NA,NA,NA,NA,NA,NA,NA,NA,NA,NA,NA,NA,NA,NA,NA,NA,NA,NA,NA,NA,NA,NA,NA,NA,NA
audio-instructions,358,1560508,0.0-327.0-0.0,voc_e2,12132,"[{""event"":""fullscreenenter"",""trial"":1,""time"":7945}]",NA,644.1999999992549,static/audio/explicit1.wav,NA,0,NA,NA,NA,NA,NA,NA,NA,NA,NA,NA,NA,NA,NA,NA,NA,NA,NA,NA,NA,NA,NA,NA,NA,NA,NA
audio-instructions,359,1569873,0.0-327.0-1.0,voc_e2,12132,"[{""event"":""fullscreenenter"",""trial"":1,""time"":7945}]",NA,1768.4000000003723,static/audio/explicit2.wav,NA,0,NA,NA,NA,NA,NA,NA,NA,NA,NA,NA,NA,NA,NA,NA,NA,NA,NA,NA,NA,NA,NA,NA,NA,NA,NA
image-slider-response,360,1575437,0.0-328.0,voc_e2,12132,"[{""event"":""fullscreenenter"",""trial"":1,""time"":7945}]",NA,5561.299999998882,static/img/machines/machine6.png,NA,NA,NA,NA,NA,NA,NA,NA,NA,NA,NA,NA,NA,NA,NA,NA,explicit,NA,NA,NA,NA,NA,NA,NA,NA,NA,2
image-slider-response,361,1578599,0.0-329.0,voc_e2,12132,"[{""event"":""fullscreenenter"",""trial"":1,""time"":7945}]",NA,3159.10000000149,static/img/machines/machine5.png,NA,NA,NA,NA,NA,NA,NA,NA,NA,NA,NA,NA,NA,NA,NA,NA,explicit,NA,NA,NA,NA,NA,NA,NA,NA,NA,5
image-slider-response,362,1582337,0.0-330.0,voc_e2,12132,"[{""event"":""fullscreenenter"",""trial"":1,""time"":7945}]",NA,3735.400000000373,static/img/machines/machine1.png,NA,NA,NA,NA,NA,NA,NA,NA,NA,NA,NA,NA,NA,NA,NA,NA,explicit,NA,NA,NA,NA,NA,NA,NA,NA,NA,3
image-slider-response,363,1587033,0.0-331.0,voc_e2,12132,"[{""event"":""fullscreenenter"",""trial"":1,""time"":7945}]",NA,4693.700000001118,static/img/machines/machine3.png,NA,NA,NA,NA,NA,NA,NA,NA,NA,NA,NA,NA,NA,NA,NA,NA,explicit,NA,NA,NA,NA,NA,NA,NA,NA,NA,2
image-slider-response,364,1589731,0.0-332.0,voc_e2,12132,"[{""event"":""fullscreenenter"",""trial"":1,""time"":7945}]",NA,2695.800000000745,static/img/machines/machine2.png,NA,NA,NA,NA,NA,NA,NA,NA,NA,NA,NA,NA,NA,NA,NA,NA,explicit,NA,NA,NA,NA,NA,NA,NA,NA,NA,5
image-slider-response,365,1593717,0.0-333.0,voc_e2,12132,"[{""event"":""fullscreenenter"",""trial"":1,""time"":7945}]",NA,3983.60000000149,static/img/machines/machine4.png,NA,NA,NA,NA,NA,NA,NA,NA,NA,NA,NA,NA,NA,NA,NA,NA,explicit,NA,NA,NA,NA,NA,NA,NA,NA,NA,9
