trial_type,trial_index,time_elapsed,internal_node_id,task_version,subject_id,interactions,success,rt,stimulus,key_press,button_pressed,offer,arcade_color_L,arcade_color_R,arcade_outcome_L,arcade_outcome_R,correct,stage_1_key,stage_1_choice,stage_1_rt,stage_2_key,stage_2_choice,stage_2_rt,stage_3_outcome,accuracy,phase,responses,num_errors,context,reward_prob_L,reward_prob_R,arcade_id_L,arcade_id_R,trial,block,response
pavlovia,0,6,0.0-0.0,voc_e2,12030,[],NA,NA,NA,NA,NA,NA,NA,NA,NA,NA,NA,NA,NA,NA,NA,NA,NA,NA,NA,NA,NA,NA,NA,NA,NA,NA,NA,NA,NA,NA
fullscreen,1,7387,0.0-1.0,voc_e2,12030,"[{""event"":""fullscreenenter"",""trial"":1,""time"":6389}]",TRUE,NA,NA,NA,NA,NA,NA,NA,NA,NA,NA,NA,NA,NA,NA,NA,NA,NA,NA,NA,NA,NA,NA,NA,NA,NA,NA,NA,NA,NA
audio-keyboard-response,2,9202,0.0-2.0,voc_e2,12030,"[{""event"":""fullscreenenter"",""trial"":1,""time"":6389}]",NA,1803,static/audio/beep_loop.wav,32,NA,NA,NA,NA,NA,NA,NA,NA,NA,NA,NA,NA,NA,NA,NA,NA,NA,NA,NA,NA,NA,NA,NA,NA,NA,NA
audio-test,3,11605,0.0-3.0,voc_e2,12030,"[{""event"":""fullscreenenter"",""trial"":1,""time"":6389}]",NA,NA,static/audio/turtle.wav,NA,3,NA,NA,NA,NA,NA,NA,NA,NA,NA,NA,NA,NA,NA,NA,NA,NA,NA,NA,NA,NA,NA,NA,NA,NA,NA
audio-test,4,13884,0.0-4.0,voc_e2,12030,"[{""event"":""fullscreenenter"",""trial"":1,""time"":6389}]",NA,NA,static/audio/shark.wav,NA,2,NA,NA,NA,NA,NA,NA,NA,NA,NA,NA,NA,NA,NA,NA,NA,NA,NA,NA,NA,NA,NA,NA,NA,NA,NA
audio-instructions,5,20844,0.0-5.0-0.0,voc_e2,12030,"[{""event"":""fullscreenenter"",""trial"":1,""time"":6389}]",NA,1178.7000000476835,static/audio/instructions1.wav,NA,0,NA,NA,NA,NA,NA,NA,NA,NA,NA,NA,NA,NA,NA,NA,NA,NA,NA,NA,NA,NA,NA,NA,NA,NA,NA
audio-instructions,6,31408,0.0-5.0-1.0,voc_e2,12030,"[{""event"":""fullscreenenter"",""trial"":1,""time"":6389}]",NA,3823.099999904633,static/audio/instructions2.wav,NA,0,NA,NA,NA,NA,NA,NA,NA,NA,NA,NA,NA,NA,NA,NA,NA,NA,NA,NA,NA,NA,NA,NA,NA,NA,NA
audio-instructions,7,38086,0.0-5.0-2.0,voc_e2,12030,"[{""event"":""fullscreenenter"",""trial"":1,""time"":6389}]",NA,873.5999999046326,static/audio/instructions3.wav,NA,0,NA,NA,NA,NA,NA,NA,NA,NA,NA,NA,NA,NA,NA,NA,NA,NA,NA,NA,NA,NA,NA,NA,NA,NA,NA
audio-instructions,8,56668,0.0-5.0-3.0,voc_e2,12030,"[{""event"":""fullscreenenter"",""trial"":1,""time"":6389}]",NA,5355,static/audio/instructions4.wav,NA,0,NA,NA,NA,NA,NA,NA,NA,NA,NA,NA,NA,NA,NA,NA,NA,NA,NA,NA,NA,NA,NA,NA,NA,NA,NA
audio-instructions,9,67074,0.0-5.0-4.0,voc_e2,12030,"[{""event"":""fullscreenenter"",""trial"":1,""time"":6389}]",NA,1018.7999999523164,static/audio/instructions5.wav,NA,0,NA,NA,NA,NA,NA,NA,NA,NA,NA,NA,NA,NA,NA,NA,NA,NA,NA,NA,NA,NA,NA,NA,NA,NA,NA
fcp-practice,10,69895,0.0-5.0-5.0-0.0,voc_e2,12030,"[{""event"":""fullscreenenter"",""trial"":1,""time"":6389}]",NA,NA,NA,NA,NA,NA,#EDC948,#46d3c8,10,0,1,null,null,null,37,1,1310.3999998569489,10,1,practice,NA,NA,NA,NA,NA,NA,NA,NA,NA,NA
fcp-practice,11,72044,0.0-5.0-5.0-1.0,voc_e2,12030,"[{""event"":""fullscreenenter"",""trial"":1,""time"":6389}]",NA,NA,NA,NA,NA,NA,#EDC948,#46d3c8,10,0,1,null,null,null,37,1,641.0999999046326,10,1,practice,NA,NA,NA,NA,NA,NA,NA,NA,NA,NA
fcp-practice,12,73662,0.0-5.0-5.0-2.0,voc_e2,12030,"[{""event"":""fullscreenenter"",""trial"":1,""time"":6389}]",NA,NA,NA,NA,NA,NA,#EDC948,#46d3c8,0,10,1,null,null,null,37,1,109.59999990463257,0,1,practice,NA,NA,NA,NA,NA,NA,NA,NA,NA,NA
fcp-practice,13,75450,0.0-5.0-5.0-3.0,voc_e2,12030,"[{""event"":""fullscreenenter"",""trial"":1,""time"":6389}]",NA,NA,NA,NA,NA,NA,#EDC948,#46d3c8,10,0,1,null,null,null,37,1,278.59999990463257,10,1,practice,NA,NA,NA,NA,NA,NA,NA,NA,NA,NA
fcp-practice,14,77028,0.0-5.0-5.0-4.0,voc_e2,12030,"[{""event"":""fullscreenenter"",""trial"":1,""time"":6389}]",NA,NA,NA,NA,NA,NA,#EDC948,#46d3c8,10,0,1,null,null,null,37,1,67.5,10,1,practice,NA,NA,NA,NA,NA,NA,NA,NA,NA,NA
audio-instructions,15,107025,0.0-5.0-6.0,voc_e2,12030,"[{""event"":""fullscreenenter"",""trial"":1,""time"":6389}]",NA,11992.899999856949,static/audio/instructions6.wav,NA,0,NA,NA,NA,NA,NA,NA,NA,NA,NA,NA,NA,NA,NA,NA,NA,NA,NA,NA,NA,NA,NA,NA,NA,NA,NA
audio-instructions,16,134872,0.0-5.0-7.0,voc_e2,12030,"[{""event"":""fullscreenenter"",""trial"":1,""time"":6389}]",NA,8645.299999952316,static/audio/instructions7.wav,NA,0,NA,NA,NA,NA,NA,NA,NA,NA,NA,NA,NA,NA,NA,NA,NA,NA,NA,NA,NA,NA,NA,NA,NA,NA,NA
audio-instructions,17,149343,0.0-5.0-8.0,voc_e2,12030,"[{""event"":""fullscreenenter"",""trial"":1,""time"":6389}]",NA,4999.799999952316,static/audio/instructions8.wav,NA,0,NA,NA,NA,NA,NA,NA,NA,NA,NA,NA,NA,NA,NA,NA,NA,NA,NA,NA,NA,NA,NA,NA,NA,NA,NA
fcp-comprehension,18,157508,0.0-5.0-9.0,voc_e2,12030,"[{""event"":""fullscreenenter"",""trial"":1,""time"":6389}]",NA,8163.5,NA,NA,NA,NA,NA,NA,NA,NA,NA,NA,NA,NA,NA,NA,NA,NA,NA,NA,"true,true",0,NA,NA,NA,NA,NA,NA,NA,NA
audio-instructions,19,170247,0.0-6.0-0.0,voc_e2,12030,"[{""event"":""fullscreenenter"",""trial"":1,""time"":6389}]",NA,7194.099999904633,static/audio/instructions9.wav,NA,0,NA,NA,NA,NA,NA,NA,NA,NA,NA,NA,NA,NA,NA,NA,NA,NA,NA,NA,NA,NA,NA,NA,NA,NA,NA
audio-instructions,20,188934,0.0-6.0-1.0,voc_e2,12030,"[{""event"":""fullscreenenter"",""trial"":1,""time"":6389}]",NA,6569.100000143051,static/audio/instructions10.wav,NA,0,NA,NA,NA,NA,NA,NA,NA,NA,NA,NA,NA,NA,NA,NA,NA,NA,NA,NA,NA,NA,NA,NA,NA,NA,NA
fcp-trial,21,191933,0.0-6.0-2.0,voc_e2,12030,"[{""event"":""fullscreenenter"",""trial"":1,""time"":6389}]",NA,NA,NA,NA,NA,0,#EDC948,#46d3c8,10,10,1,38,1,654.8999998569489,37,1,832.2999999523163,10,1,practice,NA,NA,NA,NA,NA,NA,NA,NA,NA,NA
audio-instructions,22,204299,0.0-6.0-3.0,voc_e2,12030,"[{""event"":""fullscreenenter"",""trial"":1,""time"":6389}]",NA,1358.1000001430511,static/audio/instructions11.wav,NA,0,NA,NA,NA,NA,NA,NA,NA,NA,NA,NA,NA,NA,NA,NA,NA,NA,NA,NA,NA,NA,NA,NA,NA,NA,NA
fcp-trial,23,207133,0.0-6.0-4.0,voc_e2,12030,"[{""event"":""fullscreenenter"",""trial"":1,""time"":6389}]",NA,NA,NA,NA,NA,6,#EDC948,#46d3c8,10,10,1,40,0,647.9000000953674,39,0,677.9000000953674,10,0,practice,NA,NA,NA,NA,NA,NA,NA,NA,NA,NA
audio-instructions,24,1701638,0.0-6.0-5.0,voc_e2,12030,"[{""event"":""fullscreenenter"",""trial"":1,""time"":6389}]",NA,1475827.899999857,static/audio/instructions12.wav,NA,0,NA,NA,NA,NA,NA,NA,NA,NA,NA,NA,NA,NA,NA,NA,NA,NA,NA,NA,NA,NA,NA,NA,NA,NA,NA
audio-instructions,25,1724797,0.0-6.0-6.0,voc_e2,12030,"[{""event"":""fullscreenenter"",""trial"":1,""time"":6389}]",NA,15559.200000047684,static/audio/instructions13.wav,NA,0,NA,NA,NA,NA,NA,NA,NA,NA,NA,NA,NA,NA,NA,NA,NA,NA,NA,NA,NA,NA,NA,NA,NA,NA,NA
audio-instructions,26,1734195,0.0-6.0-7.0,voc_e2,12030,"[{""event"":""fullscreenenter"",""trial"":1,""time"":6389}]",NA,953.4000000953674,static/audio/instructions14.wav,NA,0,NA,NA,NA,NA,NA,NA,NA,NA,NA,NA,NA,NA,NA,NA,NA,NA,NA,NA,NA,NA,NA,NA,NA,NA,NA
audio-instructions,27,1742182,0.0-7.0-0.0,voc_e2,12030,"[{""event"":""fullscreenenter"",""trial"":1,""time"":6389}]",NA,1073.5,static/audio/instructions15.wav,NA,0,NA,NA,NA,NA,NA,NA,NA,NA,NA,NA,NA,NA,NA,NA,NA,NA,NA,NA,NA,NA,NA,NA,NA,NA,NA
audio-instructions,28,1750654,0.0-7.0-1.0,voc_e2,12030,"[{""event"":""fullscreenenter"",""trial"":1,""time"":6389}]",NA,1647.0999999046326,static/audio/instructions16.wav,NA,0,NA,NA,NA,NA,NA,NA,NA,NA,NA,NA,NA,NA,NA,NA,NA,NA,NA,NA,NA,NA,NA,NA,NA,NA,NA
audio-instructions,29,1759772,0.0-7.0-2.0,voc_e2,12030,"[{""event"":""fullscreenenter"",""trial"":1,""time"":6389}]",NA,1436.5,static/audio/instructions17.wav,NA,0,NA,NA,NA,NA,NA,NA,NA,NA,NA,NA,NA,NA,NA,NA,NA,NA,NA,NA,NA,NA,NA,NA,NA,NA,NA
audio-instructions,30,1769575,0.0-7.0-3.0,voc_e2,12030,"[{""event"":""fullscreenenter"",""trial"":1,""time"":6389}]",NA,2039.2000000476835,static/audio/instructions18.wav,NA,0,NA,NA,NA,NA,NA,NA,NA,NA,NA,NA,NA,NA,NA,NA,NA,NA,NA,NA,NA,NA,NA,NA,NA,NA,NA
audio-instructions,31,2378708,0.0-7.0-4.0,voc_e2,12030,"[{""event"":""fullscreenenter"",""trial"":1,""time"":6389}]",NA,602392.5,static/audio/instructions19.wav,NA,0,NA,NA,NA,NA,NA,NA,NA,NA,NA,NA,NA,NA,NA,NA,NA,NA,NA,NA,NA,NA,NA,NA,NA,NA,NA
fcp-comprehension,32,2423374,0.0-7.0-5.0,voc_e2,12030,"[{""event"":""fullscreenenter"",""trial"":1,""time"":6389}]",NA,44665.5,NA,NA,NA,NA,NA,NA,NA,NA,NA,NA,NA,NA,NA,NA,NA,NA,NA,NA,"false,false,false,true",0,NA,NA,NA,NA,NA,NA,NA,NA
audio-instructions,33,2545993,0.0-8.0,voc_e2,12030,"[{""event"":""fullscreenenter"",""trial"":1,""time"":6389}]",NA,113369.69999980928,static/audio/ready.wav,NA,0,NA,NA,NA,NA,NA,NA,NA,NA,NA,NA,NA,NA,NA,NA,NA,NA,NA,NA,NA,NA,NA,NA,NA,NA,NA
fcp-trial,34,2554356,0.0-9.0-0.0,voc_e2,12030,"[{""event"":""fullscreenenter"",""trial"":1,""time"":6389}]",NA,NA,NA,NA,NA,4,#741CD8,#D8271C,10,0,0,38,1,4646.600000143051,37,1,2208.7999999523163,10,0,experiment,NA,NA,2,0.5,0.5,5,4,1,1,NA
fcp-trial,35,2561585,0.0-10.0-0.0,voc_e2,12030,"[{""event"":""fullscreenenter"",""trial"":1,""time"":6389}]",NA,NA,NA,NA,NA,4,#1CD855,#FA92F8,10,0,1,40,0,4215.5,37,1,1503.7999999523163,10,1,experiment,NA,NA,1,0.7,0.3,2,3,2,1,NA
fcp-trial,36,2564915,0.0-11.0-0.0,voc_e2,12030,"[{""event"":""fullscreenenter"",""trial"":1,""time"":6389}]",NA,NA,NA,NA,NA,1,#D8271C,#741CD8,0,0,1,40,0,1070.2000000476837,39,0,749.0999999046326,0,0,experiment,NA,NA,2,0.5,0.5,4,5,3,1,NA
fcp-trial,37,2568105,0.0-12.0-0.0,voc_e2,12030,"[{""event"":""fullscreenenter"",""trial"":1,""time"":6389}]",NA,NA,NA,NA,NA,6,#D8271C,#741CD8,0,10,1,40,0,661.5,37,1,1015.9000000953674,0,1,experiment,NA,NA,2,0.5,0.5,4,5,4,1,NA
fcp-trial,38,2571574,0.0-13.0-0.0,voc_e2,12030,"[{""event"":""fullscreenenter"",""trial"":1,""time"":6389}]",NA,NA,NA,NA,NA,3,#D89F1C,#3386FF,10,0,1,38,1,1302,39,0,656.2999999523163,0,0,experiment,NA,NA,0,0.9,0.1,0,1,5,1,NA
fcp-trial,39,2574256,0.0-14.0-0.0,voc_e2,12030,"[{""event"":""fullscreenenter"",""trial"":1,""time"":6389}]",NA,NA,NA,NA,NA,5,#FA92F8,#1CD855,10,10,0,40,0,544.3000001907349,37,1,624.6000001430511,10,0,experiment,NA,NA,1,0.3,0.7,3,2,6,1,NA
fcp-trial,40,2577970,0.0-15.0-0.0,voc_e2,12030,"[{""event"":""fullscreenenter"",""trial"":1,""time"":6389}]",NA,NA,NA,NA,NA,0,#1CD855,#FA92F8,0,10,1,38,1,1716,37,1,488.2000000476837,0,1,experiment,NA,NA,1,0.7,0.3,2,3,7,1,NA
fcp-trial,41,2580796,0.0-16.0-0.0,voc_e2,12030,"[{""event"":""fullscreenenter"",""trial"":1,""time"":6389}]",NA,NA,NA,NA,NA,3,#741CD8,#D8271C,0,10,0,40,0,358.2999999523163,37,1,956.4000000953674,0,0,experiment,NA,NA,2,0.5,0.5,5,4,8,1,NA
fcp-trial,42,2583515,0.0-17.0-0.0,voc_e2,12030,"[{""event"":""fullscreenenter"",""trial"":1,""time"":6389}]",NA,NA,NA,NA,NA,5,#3386FF,#D89F1C,0,10,0,38,1,692.6000001430511,39,0,515.7000000476837,10,1,experiment,NA,NA,0,0.1,0.9,1,0,9,1,NA
fcp-trial,43,2586886,0.0-18.0-0.0,voc_e2,12030,"[{""event"":""fullscreenenter"",""trial"":1,""time"":6389}]",NA,NA,NA,NA,NA,0,#3386FF,#D89F1C,0,10,0,38,1,1382.3999998569489,39,0,479.2000000476837,10,1,experiment,NA,NA,0,0.1,0.9,1,0,10,1,NA
fcp-trial,44,2590105,0.0-19.0-0.0,voc_e2,12030,"[{""event"":""fullscreenenter"",""trial"":1,""time"":6389}]",NA,NA,NA,NA,NA,6,#1CD855,#FA92F8,10,0,1,40,0,682.7000000476837,37,1,1024.8000001907349,10,1,experiment,NA,NA,1,0.7,0.3,2,3,11,1,NA
fcp-trial,45,2593396,0.0-20.0-0.0,voc_e2,12030,"[{""event"":""fullscreenenter"",""trial"":1,""time"":6389}]",NA,NA,NA,NA,NA,3,#1CD855,#FA92F8,10,0,1,40,0,1219.3999998569489,37,1,563.7000000476837,10,1,experiment,NA,NA,1,0.7,0.3,2,3,12,1,NA
fcp-trial,46,2598320,0.0-21.0-0.0,voc_e2,12030,"[{""event"":""fullscreenenter"",""trial"":1,""time"":6389}]",NA,NA,NA,NA,NA,2,#741CD8,#D8271C,10,10,0,40,0,2745.399999856949,39,0,668,10,1,experiment,NA,NA,2,0.5,0.5,5,4,13,1,NA
fcp-trial,47,2602106,0.0-22.0-0.0,voc_e2,12030,"[{""event"":""fullscreenenter"",""trial"":1,""time"":6389}]",NA,NA,NA,NA,NA,2,#3386FF,#D89F1C,10,10,0,38,1,1782.6000001430511,39,0,494.2999999523163,10,1,experiment,NA,NA,0,0.1,0.9,1,0,14,1,NA
fcp-trial,48,2605445,0.0-23.0-0.0,voc_e2,12030,"[{""event"":""fullscreenenter"",""trial"":1,""time"":6389}]",NA,NA,NA,NA,NA,5,#741CD8,#D8271C,0,10,0,38,1,1255.6000001430511,37,1,574.2000000476837,0,0,experiment,NA,NA,2,0.5,0.5,5,4,15,1,NA
fcp-trial,49,2609084,0.0-24.0-0.0,voc_e2,12030,"[{""event"":""fullscreenenter"",""trial"":1,""time"":6389}]",NA,NA,NA,NA,NA,2,#1CD855,#FA92F8,0,0,1,40,0,1267.2000000476837,37,1,859.6999998092651,0,1,experiment,NA,NA,1,0.7,0.3,2,3,16,1,NA
fcp-trial,50,2612971,0.0-25.0-0.0,voc_e2,12030,"[{""event"":""fullscreenenter"",""trial"":1,""time"":6389}]",NA,NA,NA,NA,NA,1,#3386FF,#D89F1C,0,10,0,38,1,2012.4000000953674,39,0,364.2000000476837,10,1,experiment,NA,NA,0,0.1,0.9,1,0,17,1,NA
fcp-trial,51,2616664,0.0-26.0-0.0,voc_e2,12030,"[{""event"":""fullscreenenter"",""trial"":1,""time"":6389}]",NA,NA,NA,NA,NA,0,#D8271C,#741CD8,10,10,1,38,1,1778.9000000953674,37,1,403.7000000476837,10,1,experiment,NA,NA,2,0.5,0.5,4,5,18,1,NA
fcp-trial,52,2620946,0.0-27.0-0.0,voc_e2,12030,"[{""event"":""fullscreenenter"",""trial"":1,""time"":6389}]",NA,NA,NA,NA,NA,1,#1CD855,#FA92F8,0,0,1,40,0,1725.2999999523163,37,1,1046.9000000953674,0,1,experiment,NA,NA,1,0.7,0.3,2,3,19,1,NA
fcp-trial,53,2624206,0.0-28.0-0.0,voc_e2,12030,"[{""event"":""fullscreenenter"",""trial"":1,""time"":6389}]",NA,NA,NA,NA,NA,4,#D89F1C,#3386FF,10,0,1,38,1,1314,37,1,433,10,1,experiment,NA,NA,0,0.9,0.1,0,1,20,1,NA
fcp-trial,54,2627224,0.0-29.0-0.0,voc_e2,12030,"[{""event"":""fullscreenenter"",""trial"":1,""time"":6389}]",NA,NA,NA,NA,NA,6,#3386FF,#D89F1C,10,10,0,38,1,1107.4000000953674,39,0,398.7000000476837,10,1,experiment,NA,NA,0,0.1,0.9,1,0,21,1,NA
fcp-trial,55,2631228,0.0-30.0-0.0,voc_e2,12030,"[{""event"":""fullscreenenter"",""trial"":1,""time"":6389}]",NA,NA,NA,NA,NA,2,#1CD855,#FA92F8,10,10,1,40,0,1521.5999999046326,39,0,971.5,10,0,experiment,NA,NA,1,0.7,0.3,2,3,22,1,NA
fcp-trial,56,2635261,0.0-31.0-0.0,voc_e2,12030,"[{""event"":""fullscreenenter"",""trial"":1,""time"":6389}]",NA,NA,NA,NA,NA,4,#1CD855,#FA92F8,10,0,1,40,0,1586.5,37,1,934.5,10,1,experiment,NA,NA,1,0.7,0.3,2,3,23,1,NA
fcp-trial,57,2639669,0.0-32.0-0.0,voc_e2,12030,"[{""event"":""fullscreenenter"",""trial"":1,""time"":6389}]",NA,NA,NA,NA,NA,2,#741CD8,#D8271C,10,10,0,40,0,2116.399999856949,39,0,780.8000001907349,10,1,experiment,NA,NA,2,0.5,0.5,5,4,24,1,NA
fcp-trial,58,2642708,0.0-33.0-0.0,voc_e2,12030,"[{""event"":""fullscreenenter"",""trial"":1,""time"":6389}]",NA,NA,NA,NA,NA,4,#3386FF,#D89F1C,0,10,0,40,0,666.5999999046326,37,1,862.5,0,0,experiment,NA,NA,0,0.1,0.9,1,0,25,1,NA
fcp-trial,59,2646271,0.0-34.0-0.0,voc_e2,12030,"[{""event"":""fullscreenenter"",""trial"":1,""time"":6389}]",NA,NA,NA,NA,NA,5,#741CD8,#D8271C,0,10,0,40,0,1412.5,37,1,640.5,0,0,experiment,NA,NA,2,0.5,0.5,5,4,26,1,NA
fcp-trial,60,2650279,0.0-35.0-0.0,voc_e2,12030,"[{""event"":""fullscreenenter"",""trial"":1,""time"":6389}]",NA,NA,NA,NA,NA,3,#1CD855,#FA92F8,10,10,1,38,1,2090,39,0,405.2999999523163,10,0,experiment,NA,NA,1,0.7,0.3,2,3,27,1,NA
fcp-trial,61,2653140,0.0-36.0-0.0,voc_e2,12030,"[{""event"":""fullscreenenter"",""trial"":1,""time"":6389}]",NA,NA,NA,NA,NA,1,#D89F1C,#3386FF,10,0,1,38,1,870.7999999523163,37,1,474.7999999523163,10,1,experiment,NA,NA,0,0.9,0.1,0,1,28,1,NA
fcp-trial,62,2656069,0.0-37.0-0.0,voc_e2,12030,"[{""event"":""fullscreenenter"",""trial"":1,""time"":6389}]",NA,NA,NA,NA,NA,3,#741CD8,#D8271C,0,10,0,38,1,908.2999999523163,37,1,509.7999999523163,0,0,experiment,NA,NA,2,0.5,0.5,5,4,29,1,NA
fcp-trial,63,2659401,0.0-38.0-0.0,voc_e2,12030,"[{""event"":""fullscreenenter"",""trial"":1,""time"":6389}]",NA,NA,NA,NA,NA,2,#3386FF,#D89F1C,0,10,0,40,0,1037.6000001430511,37,1,785,0,0,experiment,NA,NA,0,0.1,0.9,1,0,30,1,NA
fcp-trial,64,2662522,0.0-39.0-0.0,voc_e2,12030,"[{""event"":""fullscreenenter"",""trial"":1,""time"":6389}]",NA,NA,NA,NA,NA,0,#1CD855,#FA92F8,10,0,1,38,1,980.5999999046326,37,1,630.4000000953674,10,1,experiment,NA,NA,1,0.7,0.3,2,3,31,1,NA
fcp-trial,65,2666239,0.0-40.0-0.0,voc_e2,12030,"[{""event"":""fullscreenenter"",""trial"":1,""time"":6389}]",NA,NA,NA,NA,NA,1,#FA92F8,#1CD855,0,10,0,38,1,1767.7999999523163,39,0,438.39999985694885,10,1,experiment,NA,NA,1,0.3,0.7,3,2,32,1,NA
fcp-trial,66,2669172,0.0-41.0-0.0,voc_e2,12030,"[{""event"":""fullscreenenter"",""trial"":1,""time"":6389}]",NA,NA,NA,NA,NA,6,#3386FF,#D89F1C,0,10,0,38,1,938.0999999046326,39,0,484,10,1,experiment,NA,NA,0,0.1,0.9,1,0,33,1,NA
fcp-trial,67,2672273,0.0-42.0-0.0,voc_e2,12030,"[{""event"":""fullscreenenter"",""trial"":1,""time"":6389}]",NA,NA,NA,NA,NA,4,#741CD8,#D8271C,10,0,0,38,1,1193.2999999523163,37,1,398,10,0,experiment,NA,NA,2,0.5,0.5,5,4,34,1,NA
fcp-trial,68,2675555,0.0-43.0-0.0,voc_e2,12030,"[{""event"":""fullscreenenter"",""trial"":1,""time"":6389}]",NA,NA,NA,NA,NA,0,#741CD8,#D8271C,0,10,0,38,1,1103.7000000476837,37,1,668.4000000953674,0,0,experiment,NA,NA,2,0.5,0.5,5,4,35,1,NA
fcp-trial,69,2678983,0.0-44.0-0.0,voc_e2,12030,"[{""event"":""fullscreenenter"",""trial"":1,""time"":6389}]",NA,NA,NA,NA,NA,5,#D89F1C,#3386FF,10,0,1,38,1,1214.5999999046326,37,1,705,10,1,experiment,NA,NA,0,0.9,0.1,0,1,36,1,NA
fcp-trial,70,2683070,0.0-45.0-0.0,voc_e2,12030,"[{""event"":""fullscreenenter"",""trial"":1,""time"":6389}]",NA,NA,NA,NA,NA,6,#FA92F8,#1CD855,0,10,0,40,0,1830.5,37,1,745.1999998092651,0,0,experiment,NA,NA,1,0.3,0.7,3,2,37,1,NA
fcp-trial,71,2686838,0.0-46.0-0.0,voc_e2,12030,"[{""event"":""fullscreenenter"",""trial"":1,""time"":6389}]",NA,NA,NA,NA,NA,5,#1CD855,#FA92F8,0,10,1,38,1,1892.7000000476837,37,1,367.2000000476837,0,1,experiment,NA,NA,1,0.7,0.3,2,3,38,1,NA
fcp-trial,72,2689804,0.0-47.0-0.0,voc_e2,12030,"[{""event"":""fullscreenenter"",""trial"":1,""time"":6389}]",NA,NA,NA,NA,NA,0,#D89F1C,#3386FF,10,0,1,38,1,889.7999999523163,37,1,567.7000000476837,10,1,experiment,NA,NA,0,0.9,0.1,0,1,39,1,NA
fcp-trial,73,2693186,0.0-48.0-0.0,voc_e2,12030,"[{""event"":""fullscreenenter"",""trial"":1,""time"":6389}]",NA,NA,NA,NA,NA,6,#741CD8,#D8271C,10,10,0,38,1,1346.8999998569489,37,1,524.9000000953674,10,0,experiment,NA,NA,2,0.5,0.5,5,4,40,1,NA
fcp-trial,74,2695765,0.0-49.0-0.0,voc_e2,12030,"[{""event"":""fullscreenenter"",""trial"":1,""time"":6389}]",NA,NA,NA,NA,NA,3,#D89F1C,#3386FF,10,0,1,38,1,600.0999999046326,37,1,466.2000000476837,10,1,experiment,NA,NA,0,0.9,0.1,0,1,41,1,NA
fcp-trial,75,2698388,0.0-50.0-0.0,voc_e2,12030,"[{""event"":""fullscreenenter"",""trial"":1,""time"":6389}]",NA,NA,NA,NA,NA,1,#D8271C,#741CD8,10,10,1,38,1,727.5,37,1,384,10,1,experiment,NA,NA,2,0.5,0.5,4,5,42,1,NA
fcp-trial,76,2701027,0.0-51.0-0.0,voc_e2,12030,"[{""event"":""fullscreenenter"",""trial"":1,""time"":6389}]",NA,NA,NA,NA,NA,1,#D8271C,#741CD8,10,10,1,38,1,672.8999998569489,37,1,452.09999990463257,10,1,experiment,NA,NA,2,0.5,0.5,4,5,43,1,NA
fcp-trial,77,2703691,0.0-52.0-0.0,voc_e2,12030,"[{""event"":""fullscreenenter"",""trial"":1,""time"":6389}]",NA,NA,NA,NA,NA,5,#D89F1C,#3386FF,0,0,1,38,1,735.7000000476837,37,1,417.59999990463257,0,1,experiment,NA,NA,0,0.9,0.1,0,1,44,1,NA
fcp-trial,78,2706372,0.0-53.0-0.0,voc_e2,12030,"[{""event"":""fullscreenenter"",""trial"":1,""time"":6389}]",NA,NA,NA,NA,NA,2,#D89F1C,#3386FF,10,0,1,38,1,773.7999999523163,37,1,399.7000000476837,10,1,experiment,NA,NA,0,0.9,0.1,0,1,45,1,NA
fcp-trial,79,2709321,0.0-54.0-0.0,voc_e2,12030,"[{""event"":""fullscreenenter"",""trial"":1,""time"":6389}]",NA,NA,NA,NA,NA,5,#D8271C,#741CD8,10,10,1,38,1,931.5,39,0,505.90000009536743,10,0,experiment,NA,NA,2,0.5,0.5,4,5,46,2,NA
fcp-trial,80,2718437,0.0-55.0-0.0,voc_e2,12030,"[{""event"":""fullscreenenter"",""trial"":1,""time"":6389}]",NA,NA,NA,NA,NA,0,#1CD855,#FA92F8,10,0,1,40,0,6880,37,1,724.0999999046326,10,1,experiment,NA,NA,1,0.7,0.3,2,3,47,2,NA
fcp-trial,81,2721951,0.0-56.0-0.0,voc_e2,12030,"[{""event"":""fullscreenenter"",""trial"":1,""time"":6389}]",NA,NA,NA,NA,NA,1,#FA92F8,#1CD855,0,10,0,40,0,1415.7000000476837,37,1,587.8999998569489,0,0,experiment,NA,NA,1,0.3,0.7,3,2,48,2,NA
fcp-trial,82,2724990,0.0-57.0-0.0,voc_e2,12030,"[{""event"":""fullscreenenter"",""trial"":1,""time"":6389}]",NA,NA,NA,NA,NA,3,#3386FF,#D89F1C,0,10,0,38,1,1147.8999998569489,39,0,382.2000000476837,10,1,experiment,NA,NA,0,0.1,0.9,1,0,49,2,NA
fcp-trial,83,2728205,0.0-58.0-0.0,voc_e2,12030,"[{""event"":""fullscreenenter"",""trial"":1,""time"":6389}]",NA,NA,NA,NA,NA,3,#D8271C,#741CD8,0,10,1,38,1,1260.2000000476837,37,1,443.39999985694885,0,1,experiment,NA,NA,2,0.5,0.5,4,5,50,2,NA
fcp-trial,84,2731055,0.0-59.0-0.0,voc_e2,12030,"[{""event"":""fullscreenenter"",""trial"":1,""time"":6389}]",NA,NA,NA,NA,NA,3,#1CD855,#FA92F8,10,0,1,38,1,890,37,1,449.2000000476837,10,1,experiment,NA,NA,1,0.7,0.3,2,3,51,2,NA
fcp-trial,85,2733963,0.0-60.0-0.0,voc_e2,12030,"[{""event"":""fullscreenenter"",""trial"":1,""time"":6389}]",NA,NA,NA,NA,NA,4,#3386FF,#D89F1C,0,10,0,38,1,905.7000000476837,39,0,489.2999999523163,10,1,experiment,NA,NA,0,0.1,0.9,1,0,52,2,NA
fcp-trial,86,2738373,0.0-61.0-0.0,voc_e2,12030,"[{""event"":""fullscreenenter"",""trial"":1,""time"":6389}]",NA,NA,NA,NA,NA,6,#741CD8,#D8271C,10,10,0,40,0,1963.5,37,1,934.5999999046326,10,0,experiment,NA,NA,2,0.5,0.5,5,4,53,2,NA
fcp-trial,87,2742136,0.0-62.0-0.0,voc_e2,12030,"[{""event"":""fullscreenenter"",""trial"":1,""time"":6389}]",NA,NA,NA,NA,NA,0,#D89F1C,#3386FF,0,0,1,38,1,1455.6000001430511,37,1,795.2000000476837,0,1,experiment,NA,NA,0,0.9,0.1,0,1,54,2,NA
fcp-trial,88,2745530,0.0-63.0-0.0,voc_e2,12030,"[{""event"":""fullscreenenter"",""trial"":1,""time"":6389}]",NA,NA,NA,NA,NA,5,#FA92F8,#1CD855,0,10,0,40,0,1221.8999998569489,39,0,661.2000000476837,10,1,experiment,NA,NA,1,0.3,0.7,3,2,55,2,NA
fcp-trial,89,2760542,0.0-64.0-0.0,voc_e2,12030,"[{""event"":""fullscreenenter"",""trial"":1,""time"":6389}]",NA,NA,NA,NA,NA,0,#741CD8,#D8271C,0,10,0,null,null,null,null,null,null,NA,0,experiment,NA,NA,2,0.5,0.5,5,4,56,2,NA
fcp-trial,90,2764418,0.0-65.0-0.0,voc_e2,12030,"[{""event"":""fullscreenenter"",""trial"":1,""time"":6389}]",NA,NA,NA,NA,NA,6,#D89F1C,#3386FF,10,0,1,40,0,1887.5999999046326,37,1,476.7000000476837,10,1,experiment,NA,NA,0,0.9,0.1,0,1,57,2,NA
fcp-trial,91,2768652,0.0-66.0-0.0,voc_e2,12030,"[{""event"":""fullscreenenter"",""trial"":1,""time"":6389}]",NA,NA,NA,NA,NA,2,#741CD8,#D8271C,10,0,0,38,1,2143.2999999523163,37,1,579.4000000953674,10,0,experiment,NA,NA,2,0.5,0.5,5,4,58,2,NA
fcp-trial,92,2773287,0.0-67.0-0.0,voc_e2,12030,"[{""event"":""fullscreenenter"",""trial"":1,""time"":6389}]",NA,NA,NA,NA,NA,4,#1CD855,#FA92F8,0,0,1,40,0,2593.0999999046326,39,0,529.7999999523163,0,0,experiment,NA,NA,1,0.7,0.3,2,3,59,2,NA
fcp-trial,93,2776957,0.0-68.0-0.0,voc_e2,12030,"[{""event"":""fullscreenenter"",""trial"":1,""time"":6389}]",NA,NA,NA,NA,NA,4,#D8271C,#741CD8,0,10,1,38,1,1747.1000001430511,37,1,409.2999999523163,0,1,experiment,NA,NA,2,0.5,0.5,4,5,60,2,NA
fcp-trial,94,2779571,0.0-69.0-0.0,voc_e2,12030,"[{""event"":""fullscreenenter"",""trial"":1,""time"":6389}]",NA,NA,NA,NA,NA,1,#D89F1C,#3386FF,10,0,1,38,1,754.2999999523163,37,1,349.09999990463257,10,1,experiment,NA,NA,0,0.9,0.1,0,1,61,2,NA
fcp-trial,95,2783471,0.0-70.0-0.0,voc_e2,12030,"[{""event"":""fullscreenenter"",""trial"":1,""time"":6389}]",NA,NA,NA,NA,NA,2,#FA92F8,#1CD855,0,10,0,38,1,1725.5999999046326,37,1,662.2999999523163,0,0,experiment,NA,NA,1,0.3,0.7,3,2,62,2,NA
fcp-trial,96,2786278,0.0-71.0-0.0,voc_e2,12030,"[{""event"":""fullscreenenter"",""trial"":1,""time"":6389}]",NA,NA,NA,NA,NA,6,#FA92F8,#1CD855,0,0,0,38,1,580.5999999046326,39,0,713.5,0,1,experiment,NA,NA,1,0.3,0.7,3,2,63,2,NA
fcp-trial,97,2789155,0.0-72.0-0.0,voc_e2,12030,"[{""event"":""fullscreenenter"",""trial"":1,""time"":6389}]",NA,NA,NA,NA,NA,4,#3386FF,#D89F1C,0,10,0,38,1,1004.4000000953674,39,0,359.10000014305115,10,1,experiment,NA,NA,0,0.1,0.9,1,0,64,2,NA
fcp-trial,98,2792281,0.0-73.0-0.0,voc_e2,12030,"[{""event"":""fullscreenenter"",""trial"":1,""time"":6389}]",NA,NA,NA,NA,NA,6,#1CD855,#FA92F8,10,10,1,40,0,938.5,39,0,676.2000000476837,10,0,experiment,NA,NA,1,0.7,0.3,2,3,65,2,NA
fcp-trial,99,2797053,0.0-74.0-0.0,voc_e2,12030,"[{""event"":""fullscreenenter"",""trial"":1,""time"":6389}]",NA,NA,NA,NA,NA,6,#D89F1C,#3386FF,10,0,1,38,1,2927.2000000476837,37,1,334.59999990463257,10,1,experiment,NA,NA,0,0.9,0.1,0,1,66,2,NA
fcp-trial,100,2800521,0.0-75.0-0.0,voc_e2,12030,"[{""event"":""fullscreenenter"",""trial"":1,""time"":6389}]",NA,NA,NA,NA,NA,0,#D8271C,#741CD8,10,0,1,40,0,1243.3999998569489,39,0,713.9000000953674,0,0,experiment,NA,NA,2,0.5,0.5,4,5,67,2,NA
fcp-trial,101,2804926,0.0-76.0-0.0,voc_e2,12030,"[{""event"":""fullscreenenter"",""trial"":1,""time"":6389}]",NA,NA,NA,NA,NA,2,#1CD855,#FA92F8,10,0,1,38,1,1672.7999999523163,39,0,1222.0999999046326,0,0,experiment,NA,NA,1,0.7,0.3,2,3,68,2,NA
fcp-trial,102,2808354,0.0-77.0-0.0,voc_e2,12030,"[{""event"":""fullscreenenter"",""trial"":1,""time"":6389}]",NA,NA,NA,NA,NA,1,#D8271C,#741CD8,0,0,1,38,1,1408.2000000476837,39,0,508.5,0,0,experiment,NA,NA,2,0.5,0.5,4,5,69,2,NA
fcp-trial,103,2811512,0.0-78.0-0.0,voc_e2,12030,"[{""event"":""fullscreenenter"",""trial"":1,""time"":6389}]",NA,NA,NA,NA,NA,0,#D89F1C,#3386FF,10,0,1,38,1,1290.2999999523163,37,1,358.2000000476837,10,1,experiment,NA,NA,0,0.9,0.1,0,1,70,2,NA
fcp-trial,104,2815331,0.0-79.0-0.0,voc_e2,12030,"[{""event"":""fullscreenenter"",""trial"":1,""time"":6389}]",NA,NA,NA,NA,NA,4,#741CD8,#D8271C,0,10,0,38,1,1166.3999998569489,37,1,1140,0,0,experiment,NA,NA,2,0.5,0.5,5,4,71,2,NA
fcp-trial,105,2818107,0.0-80.0-0.0,voc_e2,12030,"[{""event"":""fullscreenenter"",""trial"":1,""time"":6389}]",NA,NA,NA,NA,NA,1,#FA92F8,#1CD855,10,0,0,38,1,812.2000000476837,37,1,453.40000009536743,10,0,experiment,NA,NA,1,0.3,0.7,3,2,72,2,NA
fcp-trial,106,2821362,0.0-81.0-0.0,voc_e2,12030,"[{""event"":""fullscreenenter"",""trial"":1,""time"":6389}]",NA,NA,NA,NA,NA,5,#D89F1C,#3386FF,10,0,1,38,1,1285.2999999523163,37,1,456.5,10,1,experiment,NA,NA,0,0.9,0.1,0,1,73,2,NA
fcp-trial,107,2824293,0.0-82.0-0.0,voc_e2,12030,"[{""event"":""fullscreenenter"",""trial"":1,""time"":6389}]",NA,NA,NA,NA,NA,2,#3386FF,#D89F1C,0,10,0,38,1,1126.1999998092651,39,0,291.7999999523163,10,1,experiment,NA,NA,0,0.1,0.9,1,0,74,2,NA
fcp-trial,108,2828363,0.0-83.0-0.0,voc_e2,12030,"[{""event"":""fullscreenenter"",""trial"":1,""time"":6389}]",NA,NA,NA,NA,NA,0,#FA92F8,#1CD855,0,10,0,38,1,2293.7999999523163,37,1,265.40000009536743,0,0,experiment,NA,NA,1,0.3,0.7,3,2,75,2,NA
fcp-trial,109,2831808,0.0-84.0-0.0,voc_e2,12030,"[{""event"":""fullscreenenter"",""trial"":1,""time"":6389}]",NA,NA,NA,NA,NA,3,#D8271C,#741CD8,0,10,1,38,1,1555.0999999046326,37,1,375.5,0,1,experiment,NA,NA,2,0.5,0.5,4,5,76,2,NA
fcp-trial,110,2835237,0.0-85.0-0.0,voc_e2,12030,"[{""event"":""fullscreenenter"",""trial"":1,""time"":6389}]",NA,NA,NA,NA,NA,6,#D8271C,#741CD8,10,10,1,40,0,1202.7000000476837,37,1,714.7000000476837,10,1,experiment,NA,NA,2,0.5,0.5,4,5,77,2,NA
fcp-trial,111,2838597,0.0-86.0-0.0,voc_e2,12030,"[{""event"":""fullscreenenter"",""trial"":1,""time"":6389}]",NA,NA,NA,NA,NA,5,#D8271C,#741CD8,0,0,1,40,0,1032.2000000476837,39,0,818.2999999523163,0,0,experiment,NA,NA,2,0.5,0.5,4,5,78,2,NA
fcp-trial,112,2841577,0.0-87.0-0.0,voc_e2,12030,"[{""event"":""fullscreenenter"",""trial"":1,""time"":6389}]",NA,NA,NA,NA,NA,1,#3386FF,#D89F1C,0,10,0,38,1,980.5999999046326,39,0,488.39999985694885,10,1,experiment,NA,NA,0,0.1,0.9,1,0,79,2,NA
fcp-trial,113,2845028,0.0-88.0-0.0,voc_e2,12030,"[{""event"":""fullscreenenter"",""trial"":1,""time"":6389}]",NA,NA,NA,NA,NA,3,#1CD855,#FA92F8,10,0,1,40,0,1198,37,1,738.7000000476837,10,1,experiment,NA,NA,1,0.7,0.3,2,3,80,2,NA
fcp-trial,114,2848318,0.0-89.0-0.0,voc_e2,12030,"[{""event"":""fullscreenenter"",""trial"":1,""time"":6389}]",NA,NA,NA,NA,NA,5,#1CD855,#FA92F8,10,0,1,40,0,933.7000000476837,39,0,844.5,0,0,experiment,NA,NA,1,0.7,0.3,2,3,81,2,NA
fcp-trial,115,2851712,0.0-90.0-0.0,voc_e2,12030,"[{""event"":""fullscreenenter"",""trial"":1,""time"":6389}]",NA,NA,NA,NA,NA,2,#741CD8,#D8271C,10,10,0,40,0,1237.2000000476837,37,1,636.8999998569489,10,0,experiment,NA,NA,2,0.5,0.5,5,4,82,2,NA
fcp-trial,116,2856433,0.0-91.0-0.0,voc_e2,12030,"[{""event"":""fullscreenenter"",""trial"":1,""time"":6389}]",NA,NA,NA,NA,NA,3,#D89F1C,#3386FF,10,0,1,38,1,2837.899999856949,37,1,373.60000014305115,10,1,experiment,NA,NA,0,0.9,0.1,0,1,83,2,NA
fcp-trial,117,2861975,0.0-92.0-0.0,voc_e2,12030,"[{""event"":""fullscreenenter"",""trial"":1,""time"":6389}]",NA,NA,NA,NA,NA,4,#FA92F8,#1CD855,0,10,0,38,1,2935.7999999523163,37,1,1094.7000000476837,0,0,experiment,NA,NA,1,0.3,0.7,3,2,84,2,NA
fcp-trial,118,2865939,0.0-93.0-0.0,voc_e2,12030,"[{""event"":""fullscreenenter"",""trial"":1,""time"":6389}]",NA,NA,NA,NA,NA,1,#3386FF,#D89F1C,0,10,0,38,1,2101,39,0,350.09999990463257,10,1,experiment,NA,NA,0,0.1,0.9,1,0,85,2,NA
fcp-trial,119,2869294,0.0-94.0-0.0,voc_e2,12030,"[{""event"":""fullscreenenter"",""trial"":1,""time"":6389}]",NA,NA,NA,NA,NA,6,#D8271C,#741CD8,0,10,1,38,1,1390.2000000476837,39,0,452.30000019073486,10,0,experiment,NA,NA,2,0.5,0.5,4,5,86,2,NA
fcp-trial,120,2875396,0.0-95.0-0.0,voc_e2,12030,"[{""event"":""fullscreenenter"",""trial"":1,""time"":6389}]",NA,NA,NA,NA,NA,4,#FA92F8,#1CD855,10,10,0,38,1,3533.300000190735,37,1,1052.2000000476837,10,0,experiment,NA,NA,1,0.3,0.7,3,2,87,2,NA
fcp-trial,121,2880685,0.0-96.0-0.0,voc_e2,12030,"[{""event"":""fullscreenenter"",""trial"":1,""time"":6389}]",NA,NA,NA,NA,NA,3,#D8271C,#741CD8,0,0,1,38,1,3195.5,37,1,580.8999998569489,0,1,experiment,NA,NA,2,0.5,0.5,4,5,88,2,NA
fcp-trial,122,2890203,0.0-97.0-0.0,voc_e2,12030,"[{""event"":""fullscreenenter"",""trial"":1,""time"":6389}]",NA,NA,NA,NA,NA,3,#D89F1C,#3386FF,10,0,1,38,1,7429,37,1,577.7999999523163,10,1,experiment,NA,NA,0,0.9,0.1,0,1,89,2,NA
fcp-trial,123,2897797,0.0-98.0-0.0,voc_e2,12030,"[{""event"":""fullscreenenter"",""trial"":1,""time"":6389}]",NA,NA,NA,NA,NA,3,#1CD855,#FA92F8,10,0,1,40,0,5359.599999904633,37,1,725.2999999523163,10,1,experiment,NA,NA,1,0.7,0.3,2,3,90,2,NA
fcp-trial,124,2903320,0.0-99.0-0.0,voc_e2,12030,"[{""event"":""fullscreenenter"",""trial"":1,""time"":6389}]",NA,NA,NA,NA,NA,5,#1CD855,#FA92F8,10,10,1,40,0,2843.699999809265,37,1,1166.3999998569489,10,1,experiment,NA,NA,1,0.7,0.3,2,3,91,3,NA
fcp-trial,125,2906554,0.0-100.0-0.0,voc_e2,12030,"[{""event"":""fullscreenenter"",""trial"":1,""time"":6389}]",NA,NA,NA,NA,NA,2,#D8271C,#741CD8,10,0,1,38,1,1342.9000000953674,37,1,381.7000000476837,10,1,experiment,NA,NA,2,0.5,0.5,4,5,92,3,NA
fcp-trial,126,2910672,0.0-101.0-0.0,voc_e2,12030,"[{""event"":""fullscreenenter"",""trial"":1,""time"":6389}]",NA,NA,NA,NA,NA,0,#741CD8,#D8271C,0,10,0,38,1,1977,39,0,628.2999999523163,10,1,experiment,NA,NA,2,0.5,0.5,5,4,93,3,NA
fcp-trial,127,2914117,0.0-102.0-0.0,voc_e2,12030,"[{""event"":""fullscreenenter"",""trial"":1,""time"":6389}]",NA,NA,NA,NA,NA,6,#D89F1C,#3386FF,10,0,1,38,1,1159.5,37,1,779.8999998569489,10,1,experiment,NA,NA,0,0.9,0.1,0,1,94,3,NA
fcp-trial,128,2916939,0.0-103.0-0.0,voc_e2,12030,"[{""event"":""fullscreenenter"",""trial"":1,""time"":6389}]",NA,NA,NA,NA,NA,5,#D89F1C,#3386FF,10,0,1,38,1,791.3999998569489,37,1,519.3999998569489,10,1,experiment,NA,NA,0,0.9,0.1,0,1,95,3,NA
fcp-trial,129,2920922,0.0-104.0-0.0,voc_e2,12030,"[{""event"":""fullscreenenter"",""trial"":1,""time"":6389}]",NA,NA,NA,NA,NA,6,#FA92F8,#1CD855,10,10,0,38,1,1819.3000001907349,37,1,653,10,0,experiment,NA,NA,1,0.3,0.7,3,2,96,3,NA
fcp-trial,130,2924654,0.0-105.0-0.0,voc_e2,12030,"[{""event"":""fullscreenenter"",""trial"":1,""time"":6389}]",NA,NA,NA,NA,NA,4,#741CD8,#D8271C,10,10,0,40,0,1425.7999999523163,39,0,794.7000000476837,10,1,experiment,NA,NA,2,0.5,0.5,5,4,97,3,NA
fcp-trial,131,2927787,0.0-106.0-0.0,voc_e2,12030,"[{""event"":""fullscreenenter"",""trial"":1,""time"":6389}]",NA,NA,NA,NA,NA,0,#1CD855,#FA92F8,10,0,1,38,1,1085.4000000953674,37,1,537.6999998092651,10,1,experiment,NA,NA,1,0.7,0.3,2,3,98,3,NA
fcp-trial,132,2930827,0.0-107.0-0.0,voc_e2,12030,"[{""event"":""fullscreenenter"",""trial"":1,""time"":6389}]",NA,NA,NA,NA,NA,1,#741CD8,#D8271C,10,10,0,38,1,813.7000000476837,39,0,711.7999999523163,10,1,experiment,NA,NA,2,0.5,0.5,5,4,99,3,NA
fcp-trial,133,2933989,0.0-108.0-0.0,voc_e2,12030,"[{""event"":""fullscreenenter"",""trial"":1,""time"":6389}]",NA,NA,NA,NA,NA,4,#D89F1C,#3386FF,10,0,1,38,1,983.5,37,1,665,10,1,experiment,NA,NA,0,0.9,0.1,0,1,100,3,NA
fcp-trial,134,2937686,0.0-109.0-0.0,voc_e2,12030,"[{""event"":""fullscreenenter"",""trial"":1,""time"":6389}]",NA,NA,NA,NA,NA,1,#FA92F8,#1CD855,0,10,0,38,1,898.5,39,0,1286.9000000953674,10,1,experiment,NA,NA,1,0.3,0.7,3,2,101,3,NA
fcp-trial,135,2941168,0.0-110.0-0.0,voc_e2,12030,"[{""event"":""fullscreenenter"",""trial"":1,""time"":6389}]",NA,NA,NA,NA,NA,5,#741CD8,#D8271C,0,10,0,40,0,1279.7000000476837,37,1,694.5,0,0,experiment,NA,NA,2,0.5,0.5,5,4,102,3,NA
fcp-trial,136,2944960,0.0-111.0-0.0,voc_e2,12030,"[{""event"":""fullscreenenter"",""trial"":1,""time"":6389}]",NA,NA,NA,NA,NA,0,#3386FF,#D89F1C,0,10,0,38,1,1799.2999999523163,39,0,479.7000000476837,10,1,experiment,NA,NA,0,0.1,0.9,1,0,103,3,NA
fcp-trial,137,2948117,0.0-112.0-0.0,voc_e2,12030,"[{""event"":""fullscreenenter"",""trial"":1,""time"":6389}]",NA,NA,NA,NA,NA,2,#3386FF,#D89F1C,0,10,0,38,1,1091.5999999046326,39,0,548.3999998569489,10,1,experiment,NA,NA,0,0.1,0.9,1,0,104,3,NA
fcp-trial,138,2951813,0.0-113.0-0.0,voc_e2,12030,"[{""event"":""fullscreenenter"",""trial"":1,""time"":6389}]",NA,NA,NA,NA,NA,2,#1CD855,#FA92F8,0,0,1,38,1,1603,37,1,582.0999999046326,0,1,experiment,NA,NA,1,0.7,0.3,2,3,105,3,NA
audio-instructions,139,2984971,0.0-114.0,voc_e2,12030,"[{""event"":""fullscreenenter"",""trial"":1,""time"":6389}]",NA,28683.799999952316,static/audio/pause.wav,NA,0,NA,NA,NA,NA,NA,NA,NA,NA,NA,NA,NA,NA,NA,NA,NA,NA,NA,NA,NA,NA,NA,NA,NA,NA,NA
fcp-trial,140,2988566,0.0-115.0-0.0,voc_e2,12030,"[{""event"":""fullscreenenter"",""trial"":1,""time"":6389}]",NA,NA,NA,NA,NA,5,#741CD8,#D8271C,0,0,0,38,1,1187,39,0,902.3000001907349,0,1,experiment,NA,NA,2,0.5,0.5,5,4,106,3,NA
fcp-trial,141,2991322,0.0-116.0-0.0,voc_e2,12030,"[{""event"":""fullscreenenter"",""trial"":1,""time"":6389}]",NA,NA,NA,NA,NA,2,#D8271C,#741CD8,0,0,1,38,1,765.3999998569489,37,1,483.59999990463257,0,1,experiment,NA,NA,2,0.5,0.5,4,5,107,3,NA
fcp-trial,142,2994379,0.0-117.0-0.0,voc_e2,12030,"[{""event"":""fullscreenenter"",""trial"":1,""time"":6389}]",NA,NA,NA,NA,NA,6,#D8271C,#741CD8,10,10,1,40,0,715.7000000476837,37,1,829.7999999523163,10,1,experiment,NA,NA,2,0.5,0.5,4,5,108,3,NA
fcp-trial,143,2997602,0.0-118.0-0.0,voc_e2,12030,"[{""event"":""fullscreenenter"",""trial"":1,""time"":6389}]",NA,NA,NA,NA,NA,2,#D89F1C,#3386FF,10,0,1,38,1,1105.7999999523163,37,1,604.7000000476837,10,1,experiment,NA,NA,0,0.9,0.1,0,1,109,3,NA
fcp-trial,144,3000747,0.0-119.0-0.0,voc_e2,12030,"[{""event"":""fullscreenenter"",""trial"":1,""time"":6389}]",NA,NA,NA,NA,NA,2,#FA92F8,#1CD855,0,10,0,40,0,941.4000000953674,39,0,692.5,10,1,experiment,NA,NA,1,0.3,0.7,3,2,110,3,NA
fcp-trial,145,3003974,0.0-120.0-0.0,voc_e2,12030,"[{""event"":""fullscreenenter"",""trial"":1,""time"":6389}]",NA,NA,NA,NA,NA,4,#D89F1C,#3386FF,10,10,1,38,1,1164.2999999523163,37,1,548.2000000476837,10,1,experiment,NA,NA,0,0.9,0.1,0,1,111,3,NA
fcp-trial,146,3006597,0.0-121.0-0.0,voc_e2,12030,"[{""event"":""fullscreenenter"",""trial"":1,""time"":6389}]",NA,NA,NA,NA,NA,1,#D89F1C,#3386FF,10,0,1,38,1,728.8000001907349,37,1,383.7999999523163,10,1,experiment,NA,NA,0,0.9,0.1,0,1,112,3,NA
fcp-trial,147,3013386,0.0-122.0-0.0,voc_e2,12030,"[{""event"":""fullscreenenter"",""trial"":1,""time"":6389}]",NA,NA,NA,NA,NA,4,#741CD8,#D8271C,0,0,0,40,0,4663.400000095367,39,0,613.2000000476837,0,1,experiment,NA,NA,2,0.5,0.5,5,4,113,3,NA
fcp-trial,148,3017420,0.0-123.0-0.0,voc_e2,12030,"[{""event"":""fullscreenenter"",""trial"":1,""time"":6389}]",NA,NA,NA,NA,NA,6,#FA92F8,#1CD855,0,10,0,40,0,1678.2999999523163,37,1,845.9000000953674,0,0,experiment,NA,NA,1,0.3,0.7,3,2,114,3,NA
fcp-trial,149,3021937,0.0-124.0-0.0,voc_e2,12030,"[{""event"":""fullscreenenter"",""trial"":1,""time"":6389}]",NA,NA,NA,NA,NA,0,#3386FF,#D89F1C,0,10,0,38,1,2142.0999999046326,39,0,862.4000000953674,10,1,experiment,NA,NA,0,0.1,0.9,1,0,115,3,NA
fcp-trial,150,3028604,0.0-125.0-0.0,voc_e2,12030,"[{""event"":""fullscreenenter"",""trial"":1,""time"":6389}]",NA,NA,NA,NA,NA,3,#D8271C,#741CD8,0,0,1,38,1,4387.599999904633,37,1,767.4000000953674,0,1,experiment,NA,NA,2,0.5,0.5,4,5,116,3,NA
fcp-trial,151,3032496,0.0-126.0-0.0,voc_e2,12030,"[{""event"":""fullscreenenter"",""trial"":1,""time"":6389}]",NA,NA,NA,NA,NA,5,#FA92F8,#1CD855,0,0,0,38,1,1731.4000000953674,37,1,648.7000000476837,0,0,experiment,NA,NA,1,0.3,0.7,3,2,117,3,NA
fcp-trial,152,3037255,0.0-127.0-0.0,voc_e2,12030,"[{""event"":""fullscreenenter"",""trial"":1,""time"":6389}]",NA,NA,NA,NA,NA,3,#3386FF,#D89F1C,0,10,0,40,0,2591,37,1,658.2999999523163,0,0,experiment,NA,NA,0,0.1,0.9,1,0,118,3,NA
fcp-trial,153,3040837,0.0-128.0-0.0,voc_e2,12030,"[{""event"":""fullscreenenter"",""trial"":1,""time"":6389}]",NA,NA,NA,NA,NA,0,#741CD8,#D8271C,10,10,0,38,1,1523,39,0,546.8999998569489,10,1,experiment,NA,NA,2,0.5,0.5,5,4,119,3,NA
fcp-trial,154,3045953,0.0-129.0-0.0,voc_e2,12030,"[{""event"":""fullscreenenter"",""trial"":1,""time"":6389}]",NA,NA,NA,NA,NA,1,#FA92F8,#1CD855,10,0,0,38,1,2746.7000000476837,39,0,857.9000000953674,0,1,experiment,NA,NA,1,0.3,0.7,3,2,120,3,NA
fcp-trial,155,3048820,0.0-130.0-0.0,voc_e2,12030,"[{""event"":""fullscreenenter"",""trial"":1,""time"":6389}]",NA,NA,NA,NA,NA,5,#D89F1C,#3386FF,10,10,1,38,1,781.7000000476837,37,1,574.5,10,1,experiment,NA,NA,0,0.9,0.1,0,1,121,3,NA
fcp-trial,156,3053521,0.0-131.0-0.0,voc_e2,12030,"[{""event"":""fullscreenenter"",""trial"":1,""time"":6389}]",NA,NA,NA,NA,NA,4,#1CD855,#FA92F8,10,0,1,38,1,2647.100000143051,37,1,542.5999999046326,10,1,experiment,NA,NA,1,0.7,0.3,2,3,122,3,NA
fcp-trial,157,3059171,0.0-132.0-0.0,voc_e2,12030,"[{""event"":""fullscreenenter"",""trial"":1,""time"":6389}]",NA,NA,NA,NA,NA,6,#3386FF,#D89F1C,0,10,0,40,0,3467.2999999523163,37,1,672,0,0,experiment,NA,NA,0,0.1,0.9,1,0,123,3,NA
fcp-trial,158,3063605,0.0-133.0-0.0,voc_e2,12030,"[{""event"":""fullscreenenter"",""trial"":1,""time"":6389}]",NA,NA,NA,NA,NA,1,#741CD8,#D8271C,10,0,0,40,0,2310.5999999046326,37,1,611.1000001430511,10,0,experiment,NA,NA,2,0.5,0.5,5,4,124,3,NA
fcp-trial,159,3067521,0.0-134.0-0.0,voc_e2,12030,"[{""event"":""fullscreenenter"",""trial"":1,""time"":6389}]",NA,NA,NA,NA,NA,3,#1CD855,#FA92F8,0,0,1,40,0,1706.2999999523163,39,0,698.5,0,0,experiment,NA,NA,1,0.7,0.3,2,3,125,3,NA
fcp-trial,160,3070454,0.0-135.0-0.0,voc_e2,12030,"[{""event"":""fullscreenenter"",""trial"":1,""time"":6389}]",NA,NA,NA,NA,NA,0,#FA92F8,#1CD855,0,10,0,38,1,1024.5,37,1,396.7000000476837,0,0,experiment,NA,NA,1,0.3,0.7,3,2,126,3,NA
fcp-trial,161,3074909,0.0-136.0-0.0,voc_e2,12030,"[{""event"":""fullscreenenter"",""trial"":1,""time"":6389}]",NA,NA,NA,NA,NA,4,#FA92F8,#1CD855,10,10,0,38,1,1773.8999998569489,37,1,1168.2000000476837,10,0,experiment,NA,NA,1,0.3,0.7,3,2,127,3,NA
fcp-trial,162,3079646,0.0-137.0-0.0,voc_e2,12030,"[{""event"":""fullscreenenter"",""trial"":1,""time"":6389}]",NA,NA,NA,NA,NA,0,#741CD8,#D8271C,10,10,0,38,1,1937.5,39,0,1283.8999998569489,10,1,experiment,NA,NA,2,0.5,0.5,5,4,128,3,NA
fcp-trial,163,3084006,0.0-138.0-0.0,voc_e2,12030,"[{""event"":""fullscreenenter"",""trial"":1,""time"":6389}]",NA,NA,NA,NA,NA,2,#1CD855,#FA92F8,10,10,1,38,1,2120.5,37,1,726.5999999046326,10,1,experiment,NA,NA,1,0.7,0.3,2,3,129,3,NA
fcp-trial,164,3087723,0.0-139.0-0.0,voc_e2,12030,"[{""event"":""fullscreenenter"",""trial"":1,""time"":6389}]",NA,NA,NA,NA,NA,5,#1CD855,#FA92F8,10,0,1,38,1,1539.1000001430511,37,1,671.5,10,1,experiment,NA,NA,1,0.7,0.3,2,3,130,3,NA
fcp-trial,165,3090768,0.0-140.0-0.0,voc_e2,12030,"[{""event"":""fullscreenenter"",""trial"":1,""time"":6389}]",NA,NA,NA,NA,NA,3,#D89F1C,#3386FF,10,0,1,38,1,997.0999999046326,37,1,541.0999999046326,10,1,experiment,NA,NA,0,0.9,0.1,0,1,131,3,NA
fcp-trial,166,3095552,0.0-141.0-0.0,voc_e2,12030,"[{""event"":""fullscreenenter"",""trial"":1,""time"":6389}]",NA,NA,NA,NA,NA,4,#741CD8,#D8271C,10,10,0,40,0,2558.5999999046326,37,1,720.9000000953674,10,0,experiment,NA,NA,2,0.5,0.5,5,4,132,3,NA
fcp-trial,167,3099324,0.0-142.0-0.0,voc_e2,12030,"[{""event"":""fullscreenenter"",""trial"":1,""time"":6389}]",NA,NA,NA,NA,NA,6,#3386FF,#D89F1C,0,10,0,38,1,1239.8999998569489,39,0,1024.7999999523163,10,1,experiment,NA,NA,0,0.1,0.9,1,0,133,3,NA
fcp-trial,168,3102526,0.0-143.0-0.0,voc_e2,12030,"[{""event"":""fullscreenenter"",""trial"":1,""time"":6389}]",NA,NA,NA,NA,NA,3,#1CD855,#FA92F8,10,0,1,40,0,1189.6000001430511,37,1,503.39999985694885,10,1,experiment,NA,NA,1,0.7,0.3,2,3,134,3,NA
fcp-trial,169,3107108,0.0-144.0-0.0,voc_e2,12030,"[{""event"":""fullscreenenter"",""trial"":1,""time"":6389}]",NA,NA,NA,NA,NA,6,#D8271C,#741CD8,0,10,1,40,0,2606.5,37,1,470,0,1,experiment,NA,NA,2,0.5,0.5,4,5,135,3,NA
fcp-trial,170,3110423,0.0-145.0-0.0,voc_e2,12030,"[{""event"":""fullscreenenter"",""trial"":1,""time"":6389}]",NA,NA,NA,NA,NA,4,#3386FF,#D89F1C,0,10,0,38,1,1031.2999999523163,39,0,773,10,1,experiment,NA,NA,0,0.1,0.9,1,0,136,4,NA
fcp-trial,171,3115133,0.0-146.0-0.0,voc_e2,12030,"[{""event"":""fullscreenenter"",""trial"":1,""time"":6389}]",NA,NA,NA,NA,NA,3,#D8271C,#741CD8,0,0,1,38,1,2185.300000190735,39,0,1016.2000000476837,0,0,experiment,NA,NA,2,0.5,0.5,4,5,137,4,NA
fcp-trial,172,3118472,0.0-147.0-0.0,voc_e2,12030,"[{""event"":""fullscreenenter"",""trial"":1,""time"":6389}]",NA,NA,NA,NA,NA,6,#FA92F8,#1CD855,10,0,0,38,1,1097.7999999523163,39,0,731.1000001430511,0,1,experiment,NA,NA,1,0.3,0.7,3,2,138,4,NA
fcp-trial,173,3121919,0.0-148.0-0.0,voc_e2,12030,"[{""event"":""fullscreenenter"",""trial"":1,""time"":6389}]",NA,NA,NA,NA,NA,2,#741CD8,#D8271C,0,10,0,40,0,1513.3999998569489,37,1,422.10000014305115,0,0,experiment,NA,NA,2,0.5,0.5,5,4,139,4,NA
fcp-trial,174,3125321,0.0-149.0-0.0,voc_e2,12030,"[{""event"":""fullscreenenter"",""trial"":1,""time"":6389}]",NA,NA,NA,NA,NA,0,#FA92F8,#1CD855,0,0,0,38,1,1326.7000000476837,37,1,564.2000000476837,0,0,experiment,NA,NA,1,0.3,0.7,3,2,140,4,NA
fcp-trial,175,3130323,0.0-150.0-0.0,voc_e2,12030,"[{""event"":""fullscreenenter"",""trial"":1,""time"":6389}]",NA,NA,NA,NA,NA,0,#D89F1C,#3386FF,10,0,1,38,1,3167.2999999523163,37,1,323.7000000476837,10,1,experiment,NA,NA,0,0.9,0.1,0,1,141,4,NA
fcp-trial,176,3135005,0.0-151.0-0.0,voc_e2,12030,"[{""event"":""fullscreenenter"",""trial"":1,""time"":6389}]",NA,NA,NA,NA,NA,2,#3386FF,#D89F1C,0,10,0,38,1,2638.399999856949,39,0,532.2999999523163,10,1,experiment,NA,NA,0,0.1,0.9,1,0,142,4,NA
fcp-trial,177,3139460,0.0-152.0-0.0,voc_e2,12030,"[{""event"":""fullscreenenter"",""trial"":1,""time"":6389}]",NA,NA,NA,NA,NA,1,#FA92F8,#1CD855,10,10,0,38,1,2253,39,0,691,10,1,experiment,NA,NA,1,0.3,0.7,3,2,143,4,NA
fcp-trial,178,3142917,0.0-153.0-0.0,voc_e2,12030,"[{""event"":""fullscreenenter"",""trial"":1,""time"":6389}]",NA,NA,NA,NA,NA,1,#741CD8,#D8271C,10,0,0,38,1,1110.5,39,0,835.2999999523163,0,1,experiment,NA,NA,2,0.5,0.5,5,4,144,4,NA
fcp-trial,179,3146218,0.0-154.0-0.0,voc_e2,12030,"[{""event"":""fullscreenenter"",""trial"":1,""time"":6389}]",NA,NA,NA,NA,NA,1,#D89F1C,#3386FF,10,0,1,38,1,1109.0999999046326,37,1,680.9000000953674,10,1,experiment,NA,NA,0,0.9,0.1,0,1,145,4,NA
fcp-trial,180,3150217,0.0-155.0-0.0,voc_e2,12030,"[{""event"":""fullscreenenter"",""trial"":1,""time"":6389}]",NA,NA,NA,NA,NA,5,#741CD8,#D8271C,10,10,0,38,1,1863.7999999523163,39,0,621.7999999523163,10,1,experiment,NA,NA,2,0.5,0.5,5,4,146,4,NA
fcp-trial,181,3154662,0.0-156.0-0.0,voc_e2,12030,"[{""event"":""fullscreenenter"",""trial"":1,""time"":6389}]",NA,NA,NA,NA,NA,5,#3386FF,#D89F1C,0,10,0,40,0,2291.2999999523163,37,1,643.8999998569489,0,0,experiment,NA,NA,0,0.1,0.9,1,0,147,4,NA
fcp-trial,182,3159943,0.0-157.0-0.0,voc_e2,12030,"[{""event"":""fullscreenenter"",""trial"":1,""time"":6389}]",NA,NA,NA,NA,NA,3,#FA92F8,#1CD855,0,10,0,38,1,2534.7000000476837,39,0,1240.8999998569489,10,1,experiment,NA,NA,1,0.3,0.7,3,2,148,4,NA
fcp-trial,183,3162966,0.0-158.0-0.0,voc_e2,12030,"[{""event"":""fullscreenenter"",""trial"":1,""time"":6389}]",NA,NA,NA,NA,NA,0,#D89F1C,#3386FF,0,0,1,38,1,879.3999998569489,37,1,636.5,0,1,experiment,NA,NA,0,0.9,0.1,0,1,149,4,NA
fcp-trial,184,3166847,0.0-159.0-0.0,voc_e2,12030,"[{""event"":""fullscreenenter"",""trial"":1,""time"":6389}]",NA,NA,NA,NA,NA,5,#1CD855,#FA92F8,0,0,1,40,0,1503.8999998569489,37,1,867.9000000953674,0,1,experiment,NA,NA,1,0.7,0.3,2,3,150,4,NA
fcp-trial,185,3170958,0.0-160.0-0.0,voc_e2,12030,"[{""event"":""fullscreenenter"",""trial"":1,""time"":6389}]",NA,NA,NA,NA,NA,1,#D8271C,#741CD8,10,10,1,38,1,2016.8000001907349,37,1,579.4000000953674,10,1,experiment,NA,NA,2,0.5,0.5,4,5,151,4,NA
fcp-trial,186,3174917,0.0-161.0-0.0,voc_e2,12030,"[{""event"":""fullscreenenter"",""trial"":1,""time"":6389}]",NA,NA,NA,NA,NA,0,#D8271C,#741CD8,0,10,1,38,1,1909.4000000953674,37,1,537.8000001907349,0,1,experiment,NA,NA,2,0.5,0.5,4,5,152,4,NA
fcp-trial,187,3178810,0.0-162.0-0.0,voc_e2,12030,"[{""event"":""fullscreenenter"",""trial"":1,""time"":6389}]",NA,NA,NA,NA,NA,2,#3386FF,#D89F1C,0,10,0,40,0,1606.3999998569489,37,1,771.3999998569489,0,0,experiment,NA,NA,0,0.1,0.9,1,0,153,4,NA
fcp-trial,188,3182073,0.0-163.0-0.0,voc_e2,12030,"[{""event"":""fullscreenenter"",""trial"":1,""time"":6389}]",NA,NA,NA,NA,NA,1,#1CD855,#FA92F8,10,10,1,38,1,1264.7999999523163,39,0,483.60000014305115,10,0,experiment,NA,NA,1,0.7,0.3,2,3,154,4,NA
fcp-trial,189,3185688,0.0-164.0-0.0,voc_e2,12030,"[{""event"":""fullscreenenter"",""trial"":1,""time"":6389}]",NA,NA,NA,NA,NA,4,#D89F1C,#3386FF,10,0,1,38,1,1633.1000001430511,37,1,466.59999990463257,10,1,experiment,NA,NA,0,0.9,0.1,0,1,155,4,NA
fcp-trial,190,3188925,0.0-165.0-0.0,voc_e2,12030,"[{""event"":""fullscreenenter"",""trial"":1,""time"":6389}]",NA,NA,NA,NA,NA,6,#D8271C,#741CD8,10,10,1,38,1,855,37,1,872.2000000476837,10,1,experiment,NA,NA,2,0.5,0.5,4,5,156,4,NA
fcp-trial,191,3194999,0.0-166.0-0.0,voc_e2,12030,"[{""event"":""fullscreenenter"",""trial"":1,""time"":6389}]",NA,NA,NA,NA,NA,6,#FA92F8,#1CD855,0,0,0,40,0,4036.2999999523163,37,1,524.5999999046326,0,0,experiment,NA,NA,1,0.3,0.7,3,2,157,4,NA
fcp-trial,192,3198200,0.0-167.0-0.0,voc_e2,12030,"[{""event"":""fullscreenenter"",""trial"":1,""time"":6389}]",NA,NA,NA,NA,NA,2,#741CD8,#D8271C,10,10,0,40,0,934,39,0,755.4000000953674,10,1,experiment,NA,NA,2,0.5,0.5,5,4,158,4,NA
fcp-trial,193,3201883,0.0-168.0-0.0,voc_e2,12030,"[{""event"":""fullscreenenter"",""trial"":1,""time"":6389}]",NA,NA,NA,NA,NA,6,#3386FF,#D89F1C,0,10,0,40,0,1619,37,1,553.5,0,0,experiment,NA,NA,0,0.1,0.9,1,0,159,4,NA
fcp-trial,194,3205250,0.0-169.0-0.0,voc_e2,12030,"[{""event"":""fullscreenenter"",""trial"":1,""time"":6389}]",NA,NA,NA,NA,NA,1,#3386FF,#D89F1C,0,10,0,38,1,1445.6000001430511,39,0,408.7000000476837,10,1,experiment,NA,NA,0,0.1,0.9,1,0,160,4,NA
fcp-trial,195,3213369,0.0-170.0-0.0,voc_e2,12030,"[{""event"":""fullscreenenter"",""trial"":1,""time"":6389}]",NA,NA,NA,NA,NA,3,#741CD8,#D8271C,10,10,0,40,0,6215.299999952316,37,1,392.60000014305115,10,0,experiment,NA,NA,2,0.5,0.5,5,4,161,4,NA
fcp-trial,196,3216605,0.0-171.0-0.0,voc_e2,12030,"[{""event"":""fullscreenenter"",""trial"":1,""time"":6389}]",NA,NA,NA,NA,NA,4,#FA92F8,#1CD855,0,0,0,40,0,1159.2999999523163,39,0,562.2000000476837,0,1,experiment,NA,NA,1,0.3,0.7,3,2,162,4,NA
fcp-trial,197,3221831,0.0-172.0-0.0,voc_e2,12030,"[{""event"":""fullscreenenter"",""trial"":1,""time"":6389}]",NA,NA,NA,NA,NA,5,#3386FF,#D89F1C,0,10,0,38,1,2240.2999999523163,39,0,1479.2999999523163,10,1,experiment,NA,NA,0,0.1,0.9,1,0,163,4,NA
fcp-trial,198,3225831,0.0-173.0-0.0,voc_e2,12030,"[{""event"":""fullscreenenter"",""trial"":1,""time"":6389}]",NA,NA,NA,NA,NA,5,#D8271C,#741CD8,10,0,1,38,1,2072.399999856949,37,1,415.90000009536743,10,1,experiment,NA,NA,2,0.5,0.5,4,5,164,4,NA
fcp-trial,199,3228896,0.0-174.0-0.0,voc_e2,12030,"[{""event"":""fullscreenenter"",""trial"":1,""time"":6389}]",NA,NA,NA,NA,NA,4,#741CD8,#D8271C,0,10,0,40,0,1022.4000000953674,37,1,533.0999999046326,0,0,experiment,NA,NA,2,0.5,0.5,5,4,165,4,NA
fcp-trial,200,3232387,0.0-175.0-0.0,voc_e2,12030,"[{""event"":""fullscreenenter"",""trial"":1,""time"":6389}]",NA,NA,NA,NA,NA,0,#FA92F8,#1CD855,10,10,0,38,1,1339.9000000953674,37,1,641.5,10,0,experiment,NA,NA,1,0.3,0.7,3,2,166,4,NA
fcp-trial,201,3237198,0.0-176.0-0.0,voc_e2,12030,"[{""event"":""fullscreenenter"",""trial"":1,""time"":6389}]",NA,NA,NA,NA,NA,3,#D89F1C,#3386FF,10,0,1,38,1,2704,37,1,596.1000001430511,10,1,experiment,NA,NA,0,0.9,0.1,0,1,167,4,NA
fcp-trial,202,3242623,0.0-177.0-0.0,voc_e2,12030,"[{""event"":""fullscreenenter"",""trial"":1,""time"":6389}]",NA,NA,NA,NA,NA,2,#1CD855,#FA92F8,10,0,1,38,1,3540.899999856949,37,1,375.2999999523163,10,1,experiment,NA,NA,1,0.7,0.3,2,3,168,4,NA
fcp-trial,203,3246349,0.0-178.0-0.0,voc_e2,12030,"[{""event"":""fullscreenenter"",""trial"":1,""time"":6389}]",NA,NA,NA,NA,NA,6,#FA92F8,#1CD855,10,10,0,40,0,1767.2000000476837,37,1,445.7000000476837,10,0,experiment,NA,NA,1,0.3,0.7,3,2,169,4,NA
fcp-trial,204,3250348,0.0-179.0-0.0,voc_e2,12030,"[{""event"":""fullscreenenter"",""trial"":1,""time"":6389}]",NA,NA,NA,NA,NA,2,#3386FF,#D89F1C,0,10,0,40,0,1747.2999999523163,37,1,737.4000000953674,0,0,experiment,NA,NA,0,0.1,0.9,1,0,170,4,NA
fcp-trial,205,3253880,0.0-180.0-0.0,voc_e2,12030,"[{""event"":""fullscreenenter"",""trial"":1,""time"":6389}]",NA,NA,NA,NA,NA,5,#D8271C,#741CD8,0,10,1,38,1,1242.3999998569489,37,1,779.1000001430511,0,1,experiment,NA,NA,2,0.5,0.5,4,5,171,4,NA
fcp-trial,206,3256865,0.0-181.0-0.0,voc_e2,12030,"[{""event"":""fullscreenenter"",""trial"":1,""time"":6389}]",NA,NA,NA,NA,NA,3,#FA92F8,#1CD855,0,10,0,40,0,908.9000000953674,39,0,565.8999998569489,10,1,experiment,NA,NA,1,0.3,0.7,3,2,172,4,NA
fcp-trial,207,3260432,0.0-182.0-0.0,voc_e2,12030,"[{""event"":""fullscreenenter"",""trial"":1,""time"":6389}]",NA,NA,NA,NA,NA,3,#D89F1C,#3386FF,10,10,1,38,1,1658.9000000953674,37,1,397.89999985694885,10,1,experiment,NA,NA,0,0.9,0.1,0,1,173,4,NA
fcp-trial,208,3265631,0.0-183.0-0.0,voc_e2,12030,"[{""event"":""fullscreenenter"",""trial"":1,""time"":6389}]",NA,NA,NA,NA,NA,1,#741CD8,#D8271C,10,10,0,38,1,1620,39,0,2069.0999999046326,10,1,experiment,NA,NA,2,0.5,0.5,5,4,174,4,NA
fcp-trial,209,3269075,0.0-184.0-0.0,voc_e2,12030,"[{""event"":""fullscreenenter"",""trial"":1,""time"":6389}]",NA,NA,NA,NA,NA,6,#D89F1C,#3386FF,10,0,1,38,1,1353,37,1,579.0999999046326,10,1,experiment,NA,NA,0,0.9,0.1,0,1,175,4,NA
fcp-trial,210,3272556,0.0-185.0-0.0,voc_e2,12030,"[{""event"":""fullscreenenter"",""trial"":1,""time"":6389}]",NA,NA,NA,NA,NA,0,#D89F1C,#3386FF,10,0,1,38,1,1497.1000001430511,37,1,471.2999999523163,10,1,experiment,NA,NA,0,0.9,0.1,0,1,176,4,NA
fcp-trial,211,3283590,0.0-186.0-0.0,voc_e2,12030,"[{""event"":""fullscreenenter"",""trial"":1,""time"":6389}]",NA,NA,NA,NA,NA,0,#1CD855,#FA92F8,10,0,1,38,1,7464.700000047684,39,0,2059.100000143051,0,0,experiment,NA,NA,1,0.7,0.3,2,3,177,4,NA
fcp-trial,212,3288632,0.0-187.0-0.0,voc_e2,12030,"[{""event"":""fullscreenenter"",""trial"":1,""time"":6389}]",NA,NA,NA,NA,NA,0,#D8271C,#741CD8,10,0,1,38,1,3043.2000000476837,37,1,491.59999990463257,10,1,experiment,NA,NA,2,0.5,0.5,4,5,178,4,NA
fcp-trial,213,3291952,0.0-188.0-0.0,voc_e2,12030,"[{""event"":""fullscreenenter"",""trial"":1,""time"":6389}]",NA,NA,NA,NA,NA,2,#1CD855,#FA92F8,0,0,1,38,1,1049.9000000953674,39,0,759.4000000953674,0,0,experiment,NA,NA,1,0.7,0.3,2,3,179,4,NA
fcp-trial,214,3295581,0.0-189.0-0.0,voc_e2,12030,"[{""event"":""fullscreenenter"",""trial"":1,""time"":6389}]",NA,NA,NA,NA,NA,5,#D89F1C,#3386FF,10,0,1,40,0,1550.4000000953674,37,1,564.9000000953674,10,1,experiment,NA,NA,0,0.9,0.1,0,1,180,4,NA
fcp-trial,215,3306647,0.0-190.0-0.0,voc_e2,12030,"[{""event"":""fullscreenenter"",""trial"":1,""time"":6389}]",NA,NA,NA,NA,NA,1,#FA92F8,#1CD855,10,10,0,38,1,8647.900000095367,37,1,907.2999999523163,10,0,experiment,NA,NA,1,0.3,0.7,3,2,181,5,NA
fcp-trial,216,3325946,0.0-191.0-0.0,voc_e2,12030,"[{""event"":""fullscreenenter"",""trial"":1,""time"":6389}]",NA,NA,NA,NA,NA,4,#3386FF,#D89F1C,0,10,0,40,0,4036.5999999046326,null,null,null,NA,0,experiment,NA,NA,0,0.1,0.9,1,0,182,5,NA
fcp-trial,217,3330397,0.0-192.0-0.0,voc_e2,12030,"[{""event"":""fullscreenenter"",""trial"":1,""time"":6389}]",NA,NA,NA,NA,NA,2,#D8271C,#741CD8,10,0,1,38,1,2401,37,1,538.0999999046326,10,1,experiment,NA,NA,2,0.5,0.5,4,5,183,5,NA
fcp-trial,218,3333648,0.0-193.0-0.0,voc_e2,12030,"[{""event"":""fullscreenenter"",""trial"":1,""time"":6389}]",NA,NA,NA,NA,NA,5,#1CD855,#FA92F8,10,0,1,40,0,1308.7999999523163,37,1,431.80000019073486,10,1,experiment,NA,NA,1,0.7,0.3,2,3,184,5,NA
fcp-trial,219,3336302,0.0-194.0-0.0,voc_e2,12030,"[{""event"":""fullscreenenter"",""trial"":1,""time"":6389}]",NA,NA,NA,NA,NA,4,#D8271C,#741CD8,0,10,1,40,0,761.7000000476837,37,1,380.59999990463257,0,1,experiment,NA,NA,2,0.5,0.5,4,5,185,5,NA
fcp-trial,220,3339297,0.0-195.0-0.0,voc_e2,12030,"[{""event"":""fullscreenenter"",""trial"":1,""time"":6389}]",NA,NA,NA,NA,NA,1,#D89F1C,#3386FF,10,0,1,38,1,1138.5,37,1,346.09999990463257,10,1,experiment,NA,NA,0,0.9,0.1,0,1,186,5,NA
fcp-trial,221,3342717,0.0-196.0-0.0,voc_e2,12030,"[{""event"":""fullscreenenter"",""trial"":1,""time"":6389}]",NA,NA,NA,NA,NA,6,#741CD8,#D8271C,0,0,0,40,0,1279.2999999523163,39,0,625.2000000476837,0,1,experiment,NA,NA,2,0.5,0.5,5,4,187,5,NA
fcp-trial,222,3345600,0.0-197.0-0.0,voc_e2,12030,"[{""event"":""fullscreenenter"",""trial"":1,""time"":6389}]",NA,NA,NA,NA,NA,4,#1CD855,#FA92F8,0,10,1,40,0,988.2000000476837,37,1,384.2000000476837,0,1,experiment,NA,NA,1,0.7,0.3,2,3,188,5,NA
fcp-trial,223,3349574,0.0-198.0-0.0,voc_e2,12030,"[{""event"":""fullscreenenter"",""trial"":1,""time"":6389}]",NA,NA,NA,NA,NA,3,#D8271C,#741CD8,10,10,1,38,1,1745,39,0,717.6000001430511,10,0,experiment,NA,NA,2,0.5,0.5,4,5,189,5,NA
fcp-trial,224,3352560,0.0-199.0-0.0,voc_e2,12030,"[{""event"":""fullscreenenter"",""trial"":1,""time"":6389}]",NA,NA,NA,NA,NA,0,#D89F1C,#3386FF,10,0,1,38,1,1201,37,1,275.09999990463257,10,1,experiment,NA,NA,0,0.9,0.1,0,1,190,5,NA
fcp-trial,225,3355913,0.0-200.0-0.0,voc_e2,12030,"[{""event"":""fullscreenenter"",""trial"":1,""time"":6389}]",NA,NA,NA,NA,NA,6,#1CD855,#FA92F8,10,0,1,38,1,1420,39,0,419.2999999523163,0,0,experiment,NA,NA,1,0.7,0.3,2,3,191,5,NA
fcp-trial,226,3359244,0.0-201.0-0.0,voc_e2,12030,"[{""event"":""fullscreenenter"",""trial"":1,""time"":6389}]",NA,NA,NA,NA,NA,1,#D89F1C,#3386FF,0,0,1,38,1,1394.5,37,1,425.2000000476837,0,1,experiment,NA,NA,0,0.9,0.1,0,1,192,5,NA
fcp-trial,227,3364072,0.0-202.0-0.0,voc_e2,12030,"[{""event"":""fullscreenenter"",""trial"":1,""time"":6389}]",NA,NA,NA,NA,NA,1,#FA92F8,#1CD855,0,10,0,40,0,2504.300000190735,39,0,811.2999999523163,10,1,experiment,NA,NA,1,0.3,0.7,3,2,193,5,NA
fcp-trial,228,3367046,0.0-203.0-0.0,voc_e2,12030,"[{""event"":""fullscreenenter"",""trial"":1,""time"":6389}]",NA,NA,NA,NA,NA,4,#D8271C,#741CD8,0,10,1,40,0,962.7000000476837,39,0,497.7000000476837,10,0,experiment,NA,NA,2,0.5,0.5,4,5,194,5,NA
fcp-trial,229,3371290,0.0-204.0-0.0,voc_e2,12030,"[{""event"":""fullscreenenter"",""trial"":1,""time"":6389}]",NA,NA,NA,NA,NA,0,#FA92F8,#1CD855,0,10,0,38,1,2216.600000143051,37,1,515.5,0,0,experiment,NA,NA,1,0.3,0.7,3,2,195,5,NA
fcp-trial,230,3373990,0.0-205.0-0.0,voc_e2,12030,"[{""event"":""fullscreenenter"",""trial"":1,""time"":6389}]",NA,NA,NA,NA,NA,3,#741CD8,#D8271C,0,10,0,38,1,807.0999999046326,37,1,380.69999980926514,0,0,experiment,NA,NA,2,0.5,0.5,5,4,196,5,NA
fcp-trial,231,3377487,0.0-206.0-0.0,voc_e2,12030,"[{""event"":""fullscreenenter"",""trial"":1,""time"":6389}]",NA,NA,NA,NA,NA,4,#3386FF,#D89F1C,0,10,0,38,1,1170.2000000476837,39,0,812.2000000476837,10,1,experiment,NA,NA,0,0.1,0.9,1,0,197,5,NA
fcp-trial,232,3382764,0.0-207.0-0.0,voc_e2,12030,"[{""event"":""fullscreenenter"",""trial"":1,""time"":6389}]",NA,NA,NA,NA,NA,2,#FA92F8,#1CD855,10,10,0,40,0,3250,39,0,513.6000001430511,10,1,experiment,NA,NA,1,0.3,0.7,3,2,198,5,NA
fcp-trial,233,3386957,0.0-208.0-0.0,voc_e2,12030,"[{""event"":""fullscreenenter"",""trial"":1,""time"":6389}]",NA,NA,NA,NA,NA,3,#3386FF,#D89F1C,0,0,0,40,0,1543.2000000476837,39,0,1135.2999999523163,0,1,experiment,NA,NA,0,0.1,0.9,1,0,199,5,NA
fcp-trial,234,3390595,0.0-209.0-0.0,voc_e2,12030,"[{""event"":""fullscreenenter"",""trial"":1,""time"":6389}]",NA,NA,NA,NA,NA,3,#1CD855,#FA92F8,0,0,1,38,1,1382.9000000953674,37,1,745.7999999523163,0,1,experiment,NA,NA,1,0.7,0.3,2,3,200,5,NA
fcp-trial,235,3394430,0.0-210.0-0.0,voc_e2,12030,"[{""event"":""fullscreenenter"",""trial"":1,""time"":6389}]",NA,NA,NA,NA,NA,1,#741CD8,#D8271C,0,0,0,38,1,1949.5999999046326,39,0,373.7999999523163,0,1,experiment,NA,NA,2,0.5,0.5,5,4,201,5,NA
fcp-trial,236,3396919,0.0-211.0-0.0,voc_e2,12030,"[{""event"":""fullscreenenter"",""trial"":1,""time"":6389}]",NA,NA,NA,NA,NA,2,#D89F1C,#3386FF,10,0,1,38,1,656.2000000476837,37,1,319.39999985694885,10,1,experiment,NA,NA,0,0.9,0.1,0,1,202,5,NA
fcp-trial,237,3399896,0.0-212.0-0.0,voc_e2,12030,"[{""event"":""fullscreenenter"",""trial"":1,""time"":6389}]",NA,NA,NA,NA,NA,0,#D8271C,#741CD8,10,0,1,38,1,1100.1999998092651,37,1,363.5,10,1,experiment,NA,NA,2,0.5,0.5,4,5,203,5,NA
fcp-trial,238,3403622,0.0-213.0-0.0,voc_e2,12030,"[{""event"":""fullscreenenter"",""trial"":1,""time"":6389}]",NA,NA,NA,NA,NA,5,#FA92F8,#1CD855,0,10,0,38,1,1660.2999999523163,39,0,551.6999998092651,10,1,experiment,NA,NA,1,0.3,0.7,3,2,204,5,NA
fcp-trial,239,3406605,0.0-214.0-0.0,voc_e2,12030,"[{""event"":""fullscreenenter"",""trial"":1,""time"":6389}]",NA,NA,NA,NA,NA,6,#D89F1C,#3386FF,10,0,1,38,1,1018.3999998569489,37,1,458.7000000476837,10,1,experiment,NA,NA,0,0.9,0.1,0,1,205,5,NA
fcp-trial,240,3409580,0.0-215.0-0.0,voc_e2,12030,"[{""event"":""fullscreenenter"",""trial"":1,""time"":6389}]",NA,NA,NA,NA,NA,4,#FA92F8,#1CD855,0,0,0,38,1,806.5999999046326,39,0,657.5999999046326,0,1,experiment,NA,NA,1,0.3,0.7,3,2,206,5,NA
fcp-trial,241,3413293,0.0-216.0-0.0,voc_e2,12030,"[{""event"":""fullscreenenter"",""trial"":1,""time"":6389}]",NA,NA,NA,NA,NA,2,#741CD8,#D8271C,10,0,0,38,1,1692.9000000953674,39,0,513.9000000953674,0,1,experiment,NA,NA,2,0.5,0.5,5,4,207,5,NA
fcp-trial,242,3416311,0.0-217.0-0.0,voc_e2,12030,"[{""event"":""fullscreenenter"",""trial"":1,""time"":6389}]",NA,NA,NA,NA,NA,5,#3386FF,#D89F1C,0,10,0,38,1,1130.3999998569489,39,0,377.90000009536743,10,1,experiment,NA,NA,0,0.1,0.9,1,0,208,5,NA
fcp-trial,243,3419648,0.0-218.0-0.0,voc_e2,12030,"[{""event"":""fullscreenenter"",""trial"":1,""time"":6389}]",NA,NA,NA,NA,NA,6,#741CD8,#D8271C,10,0,0,38,1,1344.2000000476837,39,0,481.2000000476837,0,1,experiment,NA,NA,2,0.5,0.5,5,4,209,5,NA
fcp-trial,244,3424431,0.0-219.0-0.0,voc_e2,12030,"[{""event"":""fullscreenenter"",""trial"":1,""time"":6389}]",NA,NA,NA,NA,NA,5,#D8271C,#741CD8,10,0,1,38,1,2486.699999809265,37,1,783.5,10,1,experiment,NA,NA,2,0.5,0.5,4,5,210,5,NA
audio-instructions,245,3442219,0.0-220.0,voc_e2,12030,"[{""event"":""fullscreenenter"",""trial"":1,""time"":6389}]",NA,13317.5,static/audio/pause.wav,NA,0,NA,NA,NA,NA,NA,NA,NA,NA,NA,NA,NA,NA,NA,NA,NA,NA,NA,NA,NA,NA,NA,NA,NA,NA,NA
fcp-trial,246,3445931,0.0-221.0-0.0,voc_e2,12030,"[{""event"":""fullscreenenter"",""trial"":1,""time"":6389}]",NA,NA,NA,NA,NA,0,#1CD855,#FA92F8,10,0,1,38,1,1609.2000000476837,37,1,593.3999998569489,10,1,experiment,NA,NA,1,0.7,0.3,2,3,211,5,NA
fcp-trial,247,3449828,0.0-222.0-0.0,voc_e2,12030,"[{""event"":""fullscreenenter"",""trial"":1,""time"":6389}]",NA,NA,NA,NA,NA,4,#1CD855,#FA92F8,0,0,1,38,1,1796.1000001430511,37,1,588.6999998092651,0,1,experiment,NA,NA,1,0.7,0.3,2,3,212,5,NA
fcp-trial,248,3453098,0.0-223.0-0.0,voc_e2,12030,"[{""event"":""fullscreenenter"",""trial"":1,""time"":6389}]",NA,NA,NA,NA,NA,2,#D89F1C,#3386FF,10,0,1,38,1,1480,37,1,278.2999999523163,10,1,experiment,NA,NA,0,0.9,0.1,0,1,213,5,NA
fcp-trial,249,3456625,0.0-224.0-0.0,voc_e2,12030,"[{""event"":""fullscreenenter"",""trial"":1,""time"":6389}]",NA,NA,NA,NA,NA,0,#741CD8,#D8271C,10,10,0,38,1,1502.9000000953674,37,1,513,10,0,experiment,NA,NA,2,0.5,0.5,5,4,214,5,NA
fcp-trial,250,3460030,0.0-225.0-0.0,voc_e2,12030,"[{""event"":""fullscreenenter"",""trial"":1,""time"":6389}]",NA,NA,NA,NA,NA,6,#3386FF,#D89F1C,0,10,0,40,0,1237.2999999523163,37,1,658.7999999523163,0,0,experiment,NA,NA,0,0.1,0.9,1,0,215,5,NA
fcp-trial,251,3463512,0.0-226.0-0.0,voc_e2,12030,"[{""event"":""fullscreenenter"",""trial"":1,""time"":6389}]",NA,NA,NA,NA,NA,3,#FA92F8,#1CD855,0,10,0,38,1,1256.3000001907349,39,0,713,10,1,experiment,NA,NA,1,0.3,0.7,3,2,216,5,NA
fcp-trial,252,3467879,0.0-227.0-0.0,voc_e2,12030,"[{""event"":""fullscreenenter"",""trial"":1,""time"":6389}]",NA,NA,NA,NA,NA,1,#741CD8,#D8271C,10,10,0,38,1,2365.4000000953674,39,0,490.2999999523163,10,1,experiment,NA,NA,2,0.5,0.5,5,4,217,5,NA
fcp-trial,253,3471466,0.0-228.0-0.0,voc_e2,12030,"[{""event"":""fullscreenenter"",""trial"":1,""time"":6389}]",NA,NA,NA,NA,NA,5,#D8271C,#741CD8,10,10,1,38,1,1733.2000000476837,37,1,343.7999999523163,10,1,experiment,NA,NA,2,0.5,0.5,4,5,218,5,NA
fcp-trial,254,3474576,0.0-229.0-0.0,voc_e2,12030,"[{""event"":""fullscreenenter"",""trial"":1,""time"":6389}]",NA,NA,NA,NA,NA,0,#3386FF,#D89F1C,0,10,0,38,1,1055.5,37,1,544,0,0,experiment,NA,NA,0,0.1,0.9,1,0,219,5,NA
fcp-trial,255,3477513,0.0-230.0-0.0,voc_e2,12030,"[{""event"":""fullscreenenter"",""trial"":1,""time"":6389}]",NA,NA,NA,NA,NA,3,#D8271C,#741CD8,0,10,1,38,1,961.8000001907349,39,0,462.39999985694885,10,0,experiment,NA,NA,2,0.5,0.5,4,5,220,5,NA
fcp-trial,256,3481068,0.0-231.0-0.0,voc_e2,12030,"[{""event"":""fullscreenenter"",""trial"":1,""time"":6389}]",NA,NA,NA,NA,NA,6,#FA92F8,#1CD855,0,10,0,40,0,1539.8999998569489,37,1,501.5,0,0,experiment,NA,NA,1,0.3,0.7,3,2,221,5,NA
fcp-trial,257,3484636,0.0-232.0-0.0,voc_e2,12030,"[{""event"":""fullscreenenter"",""trial"":1,""time"":6389}]",NA,NA,NA,NA,NA,5,#3386FF,#D89F1C,0,10,0,38,1,1700.5,39,0,354.09999990463257,10,1,experiment,NA,NA,0,0.1,0.9,1,0,222,5,NA
fcp-trial,258,3488292,0.0-233.0-0.0,voc_e2,12030,"[{""event"":""fullscreenenter"",""trial"":1,""time"":6389}]",NA,NA,NA,NA,NA,2,#1CD855,#FA92F8,0,10,1,38,1,1388.0999999046326,39,0,754.8000001907349,10,0,experiment,NA,NA,1,0.7,0.3,2,3,223,5,NA
fcp-trial,259,3491195,0.0-234.0-0.0,voc_e2,12030,"[{""event"":""fullscreenenter"",""trial"":1,""time"":6389}]",NA,NA,NA,NA,NA,1,#D89F1C,#3386FF,10,0,1,38,1,964.4000000953674,37,1,426.2999999523163,10,1,experiment,NA,NA,0,0.9,0.1,0,1,224,5,NA
fcp-trial,260,3494457,0.0-235.0-0.0,voc_e2,12030,"[{""event"":""fullscreenenter"",""trial"":1,""time"":6389}]",NA,NA,NA,NA,NA,4,#741CD8,#D8271C,0,0,0,38,1,1112.7000000476837,39,0,642.5999999046326,0,1,experiment,NA,NA,2,0.5,0.5,5,4,225,5,NA
fcp-trial,261,3497987,0.0-236.0-0.0,voc_e2,12030,"[{""event"":""fullscreenenter"",""trial"":1,""time"":6389}]",NA,NA,NA,NA,NA,4,#D89F1C,#3386FF,10,0,1,40,0,1367.7000000476837,39,0,650.2999999523163,0,0,experiment,NA,NA,0,0.9,0.1,0,1,226,6,NA
fcp-trial,262,3501061,0.0-237.0-0.0,voc_e2,12030,"[{""event"":""fullscreenenter"",""trial"":1,""time"":6389}]",NA,NA,NA,NA,NA,5,#1CD855,#FA92F8,10,10,1,38,1,1149.1000001430511,37,1,413.39999985694885,10,1,experiment,NA,NA,1,0.7,0.3,2,3,227,6,NA
fcp-trial,263,3504120,0.0-238.0-0.0,voc_e2,12030,"[{""event"":""fullscreenenter"",""trial"":1,""time"":6389}]",NA,NA,NA,NA,NA,1,#1CD855,#FA92F8,0,10,1,38,1,1173.7999999523163,37,1,371.60000014305115,0,1,experiment,NA,NA,1,0.7,0.3,2,3,228,6,NA
fcp-trial,264,3507694,0.0-239.0-0.0,voc_e2,12030,"[{""event"":""fullscreenenter"",""trial"":1,""time"":6389}]",NA,NA,NA,NA,NA,3,#D89F1C,#3386FF,10,0,1,38,1,1746.9000000953674,37,1,314,10,1,experiment,NA,NA,0,0.9,0.1,0,1,229,6,NA
fcp-trial,265,3510787,0.0-240.0-0.0,voc_e2,12030,"[{""event"":""fullscreenenter"",""trial"":1,""time"":6389}]",NA,NA,NA,NA,NA,2,#D8271C,#741CD8,10,0,1,38,1,832.9000000953674,39,0,748.3999998569489,0,0,experiment,NA,NA,2,0.5,0.5,4,5,230,6,NA
fcp-trial,266,3513485,0.0-241.0-0.0,voc_e2,12030,"[{""event"":""fullscreenenter"",""trial"":1,""time"":6389}]",NA,NA,NA,NA,NA,6,#D8271C,#741CD8,10,10,1,38,1,770,37,1,415.19999980926514,10,1,experiment,NA,NA,2,0.5,0.5,4,5,231,6,NA
fcp-trial,267,3516087,0.0-242.0-0.0,voc_e2,12030,"[{""event"":""fullscreenenter"",""trial"":1,""time"":6389}]",NA,NA,NA,NA,NA,6,#1CD855,#FA92F8,10,0,1,40,0,691.9000000953674,37,1,397,10,1,experiment,NA,NA,1,0.7,0.3,2,3,232,6,NA
fcp-trial,268,3518579,0.0-243.0-0.0,voc_e2,12030,"[{""event"":""fullscreenenter"",""trial"":1,""time"":6389}]",NA,NA,NA,NA,NA,2,#741CD8,#D8271C,10,0,0,40,0,577,37,1,405.7000000476837,10,0,experiment,NA,NA,2,0.5,0.5,5,4,233,6,NA
fcp-trial,269,3521464,0.0-244.0-0.0,voc_e2,12030,"[{""event"":""fullscreenenter"",""trial"":1,""time"":6389}]",NA,NA,NA,NA,NA,0,#D8271C,#741CD8,0,10,1,40,0,642.9000000953674,39,0,733,10,0,experiment,NA,NA,2,0.5,0.5,4,5,234,6,NA
fcp-trial,270,3524284,0.0-245.0-0.0,voc_e2,12030,"[{""event"":""fullscreenenter"",""trial"":1,""time"":6389}]",NA,NA,NA,NA,NA,4,#FA92F8,#1CD855,0,10,0,40,0,911.5999999046326,37,1,397.5,0,0,experiment,NA,NA,1,0.3,0.7,3,2,235,6,NA
fcp-trial,271,3527062,0.0-246.0-0.0,voc_e2,12030,"[{""event"":""fullscreenenter"",""trial"":1,""time"":6389}]",NA,NA,NA,NA,NA,5,#D89F1C,#3386FF,10,0,1,40,0,781,37,1,484.59999990463257,10,1,experiment,NA,NA,0,0.9,0.1,0,1,236,6,NA
fcp-trial,272,3529929,0.0-247.0-0.0,voc_e2,12030,"[{""event"":""fullscreenenter"",""trial"":1,""time"":6389}]",NA,NA,NA,NA,NA,3,#D8271C,#741CD8,0,0,1,40,0,852.2999999523163,39,0,504.2000000476837,0,0,experiment,NA,NA,2,0.5,0.5,4,5,237,6,NA
fcp-trial,273,3532647,0.0-248.0-0.0,voc_e2,12030,"[{""event"":""fullscreenenter"",""trial"":1,""time"":6389}]",NA,NA,NA,NA,NA,2,#FA92F8,#1CD855,0,10,0,38,1,874.1999998092651,37,1,331.2999999523163,0,0,experiment,NA,NA,1,0.3,0.7,3,2,238,6,NA
fcp-trial,274,3535953,0.0-249.0-0.0,voc_e2,12030,"[{""event"":""fullscreenenter"",""trial"":1,""time"":6389}]",NA,NA,NA,NA,NA,4,#741CD8,#D8271C,0,0,0,38,1,1342.6000001430511,39,0,452.5,0,1,experiment,NA,NA,2,0.5,0.5,5,4,239,6,NA
fcp-trial,275,3539087,0.0-250.0-0.0,voc_e2,12030,"[{""event"":""fullscreenenter"",""trial"":1,""time"":6389}]",NA,NA,NA,NA,NA,6,#3386FF,#D89F1C,10,10,0,40,0,1029.7000000476837,39,0,589.7000000476837,10,1,experiment,NA,NA,0,0.1,0.9,1,0,240,6,NA
fcp-trial,276,3541714,0.0-251.0-0.0,voc_e2,12030,"[{""event"":""fullscreenenter"",""trial"":1,""time"":6389}]",NA,NA,NA,NA,NA,4,#D89F1C,#3386FF,10,0,1,40,0,763.8999998569489,37,1,350.5,10,1,experiment,NA,NA,0,0.9,0.1,0,1,241,6,NA
fcp-trial,277,3545439,0.0-252.0-0.0,voc_e2,12030,"[{""event"":""fullscreenenter"",""trial"":1,""time"":6389}]",NA,NA,NA,NA,NA,0,#FA92F8,#1CD855,0,10,0,38,1,1238.5,39,0,978,10,1,experiment,NA,NA,1,0.3,0.7,3,2,242,6,NA
fcp-trial,278,3548378,0.0-253.0-0.0,voc_e2,12030,"[{""event"":""fullscreenenter"",""trial"":1,""time"":6389}]",NA,NA,NA,NA,NA,6,#741CD8,#D8271C,0,10,0,40,0,993.2000000476837,39,0,434.7000000476837,10,1,experiment,NA,NA,2,0.5,0.5,5,4,243,6,NA
fcp-trial,279,3551027,0.0-254.0-0.0,voc_e2,12030,"[{""event"":""fullscreenenter"",""trial"":1,""time"":6389}]",NA,NA,NA,NA,NA,1,#3386FF,#D89F1C,0,10,0,40,0,758.3999998569489,39,0,379,10,1,experiment,NA,NA,0,0.1,0.9,1,0,244,6,NA
fcp-trial,280,3554162,0.0-255.0-0.0,voc_e2,12030,"[{""event"":""fullscreenenter"",""trial"":1,""time"":6389}]",NA,NA,NA,NA,NA,0,#3386FF,#D89F1C,0,10,0,38,1,1256.7999999523163,39,0,367.90000009536743,10,1,experiment,NA,NA,0,0.1,0.9,1,0,245,6,NA
fcp-trial,281,3557162,0.0-256.0-0.0,voc_e2,12030,"[{""event"":""fullscreenenter"",""trial"":1,""time"":6389}]",NA,NA,NA,NA,NA,5,#741CD8,#D8271C,0,0,0,40,0,1126.7000000476837,37,1,360.2999999523163,0,0,experiment,NA,NA,2,0.5,0.5,5,4,246,6,NA
fcp-trial,282,3559952,0.0-257.0-0.0,voc_e2,12030,"[{""event"":""fullscreenenter"",""trial"":1,""time"":6389}]",NA,NA,NA,NA,NA,5,#1CD855,#FA92F8,0,0,1,40,0,813.8000001907349,37,1,464.2999999523163,0,1,experiment,NA,NA,1,0.7,0.3,2,3,247,6,NA
fcp-trial,283,3563706,0.0-258.0-0.0,voc_e2,12030,"[{""event"":""fullscreenenter"",""trial"":1,""time"":6389}]",NA,NA,NA,NA,NA,1,#FA92F8,#1CD855,0,10,0,38,1,1863.9000000953674,39,0,375.09999990463257,10,1,experiment,NA,NA,1,0.3,0.7,3,2,248,6,NA
fcp-trial,284,3567361,0.0-259.0-0.0,voc_e2,12030,"[{""event"":""fullscreenenter"",""trial"":1,""time"":6389}]",NA,NA,NA,NA,NA,1,#D8271C,#741CD8,0,10,1,40,0,1753.9000000953674,37,1,388.5,0,1,experiment,NA,NA,2,0.5,0.5,4,5,249,6,NA
fcp-trial,285,3571276,0.0-260.0-0.0,voc_e2,12030,"[{""event"":""fullscreenenter"",""trial"":1,""time"":6389}]",NA,NA,NA,NA,NA,3,#D89F1C,#3386FF,10,0,1,38,1,1932.7999999523163,37,1,470.7999999523163,10,1,experiment,NA,NA,0,0.9,0.1,0,1,250,6,NA
fcp-trial,286,3574141,0.0-261.0-0.0,voc_e2,12030,"[{""event"":""fullscreenenter"",""trial"":1,""time"":6389}]",NA,NA,NA,NA,NA,2,#3386FF,#D89F1C,0,10,0,38,1,907.6000001430511,37,1,446.5,0,0,experiment,NA,NA,0,0.1,0.9,1,0,251,6,NA
fcp-trial,287,3578051,0.0-262.0-0.0,voc_e2,12030,"[{""event"":""fullscreenenter"",""trial"":1,""time"":6389}]",NA,NA,NA,NA,NA,3,#FA92F8,#1CD855,0,10,0,40,0,1115.7999999523163,37,1,1279.6000001430511,0,0,experiment,NA,NA,1,0.3,0.7,3,2,252,6,NA
fcp-trial,288,3581390,0.0-263.0-0.0,voc_e2,12030,"[{""event"":""fullscreenenter"",""trial"":1,""time"":6389}]",NA,NA,NA,NA,NA,5,#FA92F8,#1CD855,10,10,0,38,1,1197.2000000476837,39,0,630.3999998569489,10,1,experiment,NA,NA,1,0.3,0.7,3,2,253,6,NA
fcp-trial,289,3583925,0.0-264.0-0.0,voc_e2,12030,"[{""event"":""fullscreenenter"",""trial"":1,""time"":6389}]",NA,NA,NA,NA,NA,1,#741CD8,#D8271C,0,10,0,38,1,756.2999999523163,39,0,270.90000009536743,10,1,experiment,NA,NA,2,0.5,0.5,5,4,254,6,NA
fcp-trial,290,3588094,0.0-265.0-0.0,voc_e2,12030,"[{""event"":""fullscreenenter"",""trial"":1,""time"":6389}]",NA,NA,NA,NA,NA,3,#D89F1C,#3386FF,10,0,1,38,1,2058.199999809265,39,0,600.2000000476837,0,0,experiment,NA,NA,0,0.9,0.1,0,1,255,6,NA
fcp-trial,291,3591259,0.0-266.0-0.0,voc_e2,12030,"[{""event"":""fullscreenenter"",""trial"":1,""time"":6389}]",NA,NA,NA,NA,NA,6,#741CD8,#D8271C,0,0,0,40,0,1039.5999999046326,39,0,613.2000000476837,0,1,experiment,NA,NA,2,0.5,0.5,5,4,256,6,NA
fcp-trial,292,3600545,0.0-267.0-0.0,voc_e2,12030,"[{""event"":""fullscreenenter"",""trial"":1,""time"":6389}]",NA,NA,NA,NA,NA,0,#FA92F8,#1CD855,0,10,0,38,1,5627.299999952316,39,0,2146.4000000953674,10,1,experiment,NA,NA,1,0.3,0.7,3,2,257,6,NA
fcp-trial,293,3607134,0.0-268.0-0.0,voc_e2,12030,"[{""event"":""fullscreenenter"",""trial"":1,""time"":6389}]",NA,NA,NA,NA,NA,5,#D89F1C,#3386FF,0,0,1,38,1,4323.200000047684,37,1,755.0999999046326,0,1,experiment,NA,NA,0,0.9,0.1,0,1,258,6,NA
fcp-trial,294,3612605,0.0-269.0-0.0,voc_e2,12030,"[{""event"":""fullscreenenter"",""trial"":1,""time"":6389}]",NA,NA,NA,NA,NA,5,#741CD8,#D8271C,0,10,0,40,0,3335.7000000476837,39,0,625.2000000476837,10,1,experiment,NA,NA,2,0.5,0.5,5,4,259,6,NA
fcp-trial,295,3615728,0.0-270.0-0.0,voc_e2,12030,"[{""event"":""fullscreenenter"",""trial"":1,""time"":6389}]",NA,NA,NA,NA,NA,4,#D89F1C,#3386FF,0,0,1,40,0,1160.5999999046326,39,0,450.7999999523163,0,0,experiment,NA,NA,0,0.9,0.1,0,1,260,6,NA
fcp-trial,296,3618779,0.0-271.0-0.0,voc_e2,12030,"[{""event"":""fullscreenenter"",""trial"":1,""time"":6389}]",NA,NA,NA,NA,NA,1,#3386FF,#D89F1C,0,10,0,40,0,1054.9000000953674,39,0,483.7000000476837,10,1,experiment,NA,NA,0,0.1,0.9,1,0,261,6,NA
fcp-trial,297,3622260,0.0-272.0-0.0,voc_e2,12030,"[{""event"":""fullscreenenter"",""trial"":1,""time"":6389}]",NA,NA,NA,NA,NA,1,#1CD855,#FA92F8,10,10,1,40,0,1260.7000000476837,37,1,705.4000000953674,10,1,experiment,NA,NA,1,0.7,0.3,2,3,262,6,NA
fcp-trial,298,3625843,0.0-273.0-0.0,voc_e2,12030,"[{""event"":""fullscreenenter"",""trial"":1,""time"":6389}]",NA,NA,NA,NA,NA,0,#741CD8,#D8271C,0,10,0,38,1,1407.3000001907349,39,0,665.2999999523163,10,1,experiment,NA,NA,2,0.5,0.5,5,4,263,6,NA
fcp-trial,299,3629060,0.0-274.0-0.0,voc_e2,12030,"[{""event"":""fullscreenenter"",""trial"":1,""time"":6389}]",NA,NA,NA,NA,NA,3,#741CD8,#D8271C,10,0,0,38,1,1297.8999998569489,39,0,405.2000000476837,0,1,experiment,NA,NA,2,0.5,0.5,5,4,264,6,NA
fcp-trial,300,3633124,0.0-275.0-0.0,voc_e2,12030,"[{""event"":""fullscreenenter"",""trial"":1,""time"":6389}]",NA,NA,NA,NA,NA,6,#FA92F8,#1CD855,0,0,0,40,0,1974.3999998569489,37,1,578.3999998569489,0,0,experiment,NA,NA,1,0.3,0.7,3,2,265,6,NA
fcp-trial,301,3636427,0.0-276.0-0.0,voc_e2,12030,"[{""event"":""fullscreenenter"",""trial"":1,""time"":6389}]",NA,NA,NA,NA,NA,0,#D89F1C,#3386FF,10,0,1,38,1,1244,37,1,547.2000000476837,10,1,experiment,NA,NA,0,0.9,0.1,0,1,266,6,NA
fcp-trial,302,3639460,0.0-277.0-0.0,voc_e2,12030,"[{""event"":""fullscreenenter"",""trial"":1,""time"":6389}]",NA,NA,NA,NA,NA,2,#FA92F8,#1CD855,10,10,0,40,0,1054.5,39,0,466.2999999523163,10,1,experiment,NA,NA,1,0.3,0.7,3,2,267,6,NA
fcp-trial,303,3643427,0.0-278.0-0.0,voc_e2,12030,"[{""event"":""fullscreenenter"",""trial"":1,""time"":6389}]",NA,NA,NA,NA,NA,2,#3386FF,#D89F1C,0,10,0,38,1,1991,39,0,463.59999990463257,10,1,experiment,NA,NA,0,0.1,0.9,1,0,268,6,NA
fcp-trial,304,3646443,0.0-279.0-0.0,voc_e2,12030,"[{""event"":""fullscreenenter"",""trial"":1,""time"":6389}]",NA,NA,NA,NA,NA,4,#D8271C,#741CD8,0,10,1,40,0,1140.5,37,1,363,0,1,experiment,NA,NA,2,0.5,0.5,4,5,269,6,NA
fcp-trial,305,3649643,0.0-280.0-0.0,voc_e2,12030,"[{""event"":""fullscreenenter"",""trial"":1,""time"":6389}]",NA,NA,NA,NA,NA,3,#1CD855,#FA92F8,10,0,1,38,1,1360.6000001430511,37,1,325.69999980926514,10,1,experiment,NA,NA,1,0.7,0.3,2,3,270,6,NA
fcp-trial,306,3653993,0.0-281.0-0.0,voc_e2,12030,"[{""event"":""fullscreenenter"",""trial"":1,""time"":6389}]",NA,NA,NA,NA,NA,4,#1CD855,#FA92F8,10,10,1,40,0,2436.899999856949,39,0,401.89999985694885,10,0,experiment,NA,NA,1,0.7,0.3,2,3,271,7,NA
fcp-trial,307,3657130,0.0-282.0-0.0,voc_e2,12030,"[{""event"":""fullscreenenter"",""trial"":1,""time"":6389}]",NA,NA,NA,NA,NA,2,#741CD8,#D8271C,10,10,0,40,0,938.5999999046326,37,1,685.2000000476837,10,0,experiment,NA,NA,2,0.5,0.5,5,4,272,7,NA
fcp-trial,308,3660099,0.0-283.0-0.0,voc_e2,12030,"[{""event"":""fullscreenenter"",""trial"":1,""time"":6389}]",NA,NA,NA,NA,NA,6,#D89F1C,#3386FF,10,10,1,40,0,1095.8999998569489,39,0,361.2000000476837,10,0,experiment,NA,NA,0,0.9,0.1,0,1,273,7,NA
fcp-trial,309,3662857,0.0-284.0-0.0,voc_e2,12030,"[{""event"":""fullscreenenter"",""trial"":1,""time"":6389}]",NA,NA,NA,NA,NA,6,#D89F1C,#3386FF,10,0,1,40,0,808.2999999523163,39,0,438.7999999523163,0,0,experiment,NA,NA,0,0.9,0.1,0,1,274,7,NA
fcp-trial,310,3666278,0.0-285.0-0.0,voc_e2,12030,"[{""event"":""fullscreenenter"",""trial"":1,""time"":6389}]",NA,NA,NA,NA,NA,1,#3386FF,#D89F1C,10,10,0,38,1,1279.4000000953674,39,0,634.5999999046326,10,1,experiment,NA,NA,0,0.1,0.9,1,0,275,7,NA
fcp-trial,311,3669119,0.0-286.0-0.0,voc_e2,12030,"[{""event"":""fullscreenenter"",""trial"":1,""time"":6389}]",NA,NA,NA,NA,NA,0,#3386FF,#D89F1C,0,10,0,40,0,824.8000001907349,39,0,509.7000000476837,10,1,experiment,NA,NA,0,0.1,0.9,1,0,276,7,NA
fcp-trial,312,3672433,0.0-287.0-0.0,voc_e2,12030,"[{""event"":""fullscreenenter"",""trial"":1,""time"":6389}]",NA,NA,NA,NA,NA,3,#FA92F8,#1CD855,10,0,0,40,0,1153.4000000953674,37,1,645.9000000953674,10,0,experiment,NA,NA,1,0.3,0.7,3,2,277,7,NA
fcp-trial,313,3675360,0.0-288.0-0.0,voc_e2,12030,"[{""event"":""fullscreenenter"",""trial"":1,""time"":6389}]",NA,NA,NA,NA,NA,1,#FA92F8,#1CD855,10,10,0,38,1,1090.2000000476837,39,0,325.2999999523163,10,1,experiment,NA,NA,1,0.3,0.7,3,2,278,7,NA
fcp-trial,314,3678908,0.0-289.0-0.0,voc_e2,12030,"[{""event"":""fullscreenenter"",""trial"":1,""time"":6389}]",NA,NA,NA,NA,NA,0,#741CD8,#D8271C,0,10,0,38,1,1690.5999999046326,39,0,344,10,1,experiment,NA,NA,2,0.5,0.5,5,4,279,7,NA
fcp-trial,315,3682109,0.0-290.0-0.0,voc_e2,12030,"[{""event"":""fullscreenenter"",""trial"":1,""time"":6389}]",NA,NA,NA,NA,NA,6,#D8271C,#741CD8,10,0,1,40,0,1178.1999998092651,37,1,509.60000014305115,10,1,experiment,NA,NA,2,0.5,0.5,4,5,280,7,NA
fcp-trial,316,3684908,0.0-291.0-0.0,voc_e2,12030,"[{""event"":""fullscreenenter"",""trial"":1,""time"":6389}]",NA,NA,NA,NA,NA,4,#3386FF,#D89F1C,0,10,0,40,0,742.7000000476837,37,1,545.6000001430511,0,0,experiment,NA,NA,0,0.1,0.9,1,0,281,7,NA
fcp-trial,317,3688484,0.0-292.0-0.0,voc_e2,12030,"[{""event"":""fullscreenenter"",""trial"":1,""time"":6389}]",NA,NA,NA,NA,NA,4,#FA92F8,#1CD855,0,10,0,40,0,1532.5,37,1,529.0999999046326,0,0,experiment,NA,NA,1,0.3,0.7,3,2,282,7,NA
fcp-trial,318,3692443,0.0-293.0-0.0,voc_e2,12030,"[{""event"":""fullscreenenter"",""trial"":1,""time"":6389}]",NA,NA,NA,NA,NA,5,#FA92F8,#1CD855,0,10,0,40,0,1554.8000001907349,37,1,889.8999998569489,0,0,experiment,NA,NA,1,0.3,0.7,3,2,283,7,NA
fcp-trial,319,3695467,0.0-294.0-0.0,voc_e2,12030,"[{""event"":""fullscreenenter"",""trial"":1,""time"":6389}]",NA,NA,NA,NA,NA,2,#1CD855,#FA92F8,10,0,1,38,1,983.6000001430511,39,0,527.7999999523163,0,0,experiment,NA,NA,1,0.7,0.3,2,3,284,7,NA
fcp-trial,320,3698392,0.0-295.0-0.0,voc_e2,12030,"[{""event"":""fullscreenenter"",""trial"":1,""time"":6389}]",NA,NA,NA,NA,NA,4,#741CD8,#D8271C,0,0,0,40,0,803,37,1,606.2000000476837,0,0,experiment,NA,NA,2,0.5,0.5,5,4,285,7,NA
fcp-trial,321,3702410,0.0-296.0-0.0,voc_e2,12030,"[{""event"":""fullscreenenter"",""trial"":1,""time"":6389}]",NA,NA,NA,NA,NA,3,#D89F1C,#3386FF,10,10,1,38,1,1476.3999998569489,37,1,1030.5,10,1,experiment,NA,NA,0,0.9,0.1,0,1,286,7,NA
fcp-trial,322,3706751,0.0-297.0-0.0,voc_e2,12030,"[{""event"":""fullscreenenter"",""trial"":1,""time"":6389}]",NA,NA,NA,NA,NA,6,#1CD855,#FA92F8,0,0,1,38,1,1989.2999999523163,39,0,839.7000000476837,0,0,experiment,NA,NA,1,0.7,0.3,2,3,287,7,NA
fcp-trial,323,3710651,0.0-298.0-0.0,voc_e2,12030,"[{""event"":""fullscreenenter"",""trial"":1,""time"":6389}]",NA,NA,NA,NA,NA,5,#D8271C,#741CD8,0,10,1,38,1,1948.2999999523163,37,1,439.2999999523163,0,1,experiment,NA,NA,2,0.5,0.5,4,5,288,7,NA
fcp-trial,324,3715527,0.0-299.0-0.0,voc_e2,12030,"[{""event"":""fullscreenenter"",""trial"":1,""time"":6389}]",NA,NA,NA,NA,NA,5,#3386FF,#D89F1C,0,10,0,40,0,2998.7000000476837,39,0,365.89999985694885,10,1,experiment,NA,NA,0,0.1,0.9,1,0,289,7,NA
fcp-trial,325,3719675,0.0-300.0-0.0,voc_e2,12030,"[{""event"":""fullscreenenter"",""trial"":1,""time"":6389}]",NA,NA,NA,NA,NA,3,#741CD8,#D8271C,0,0,0,38,1,2313.4000000953674,39,0,323,0,1,experiment,NA,NA,2,0.5,0.5,5,4,290,7,NA
fcp-trial,326,3731183,0.0-301.0-0.0,voc_e2,12030,"[{""event"":""fullscreenenter"",""trial"":1,""time"":6389}]",NA,NA,NA,NA,NA,1,#741CD8,#D8271C,0,0,0,38,1,9623.399999856949,39,0,374.5,0,1,experiment,NA,NA,2,0.5,0.5,5,4,291,7,NA
fcp-trial,327,3735571,0.0-302.0-0.0,voc_e2,12030,"[{""event"":""fullscreenenter"",""trial"":1,""time"":6389}]",NA,NA,NA,NA,NA,0,#FA92F8,#1CD855,10,0,0,38,1,2396.5999999046326,39,0,478.59999990463257,0,1,experiment,NA,NA,1,0.3,0.7,3,2,292,7,NA
fcp-trial,328,3739038,0.0-303.0-0.0,voc_e2,12030,"[{""event"":""fullscreenenter"",""trial"":1,""time"":6389}]",NA,NA,NA,NA,NA,2,#D89F1C,#3386FF,0,0,1,40,0,1558.3000001907349,39,0,397.80000019073486,0,0,experiment,NA,NA,0,0.9,0.1,0,1,293,7,NA
fcp-trial,329,3742484,0.0-304.0-0.0,voc_e2,12030,"[{""event"":""fullscreenenter"",""trial"":1,""time"":6389}]",NA,NA,NA,NA,NA,2,#741CD8,#D8271C,10,10,0,40,0,1514.3999998569489,37,1,418.60000014305115,10,0,experiment,NA,NA,2,0.5,0.5,5,4,294,7,NA
fcp-trial,330,3745397,0.0-305.0-0.0,voc_e2,12030,"[{""event"":""fullscreenenter"",""trial"":1,""time"":6389}]",NA,NA,NA,NA,NA,6,#741CD8,#D8271C,0,0,0,40,0,1005.7000000476837,37,1,397,0,0,experiment,NA,NA,2,0.5,0.5,5,4,295,7,NA
fcp-trial,331,3748192,0.0-306.0-0.0,voc_e2,12030,"[{""event"":""fullscreenenter"",""trial"":1,""time"":6389}]",NA,NA,NA,NA,NA,0,#1CD855,#FA92F8,10,10,1,38,1,870,37,1,409,10,1,experiment,NA,NA,1,0.7,0.3,2,3,296,7,NA
fcp-trial,332,3751291,0.0-307.0-0.0,voc_e2,12030,"[{""event"":""fullscreenenter"",""trial"":1,""time"":6389}]",NA,NA,NA,NA,NA,6,#FA92F8,#1CD855,0,10,0,40,0,1024.7000000476837,39,0,563.8999998569489,10,1,experiment,NA,NA,1,0.3,0.7,3,2,297,7,NA
fcp-trial,333,3754099,0.0-308.0-0.0,voc_e2,12030,"[{""event"":""fullscreenenter"",""trial"":1,""time"":6389}]",NA,NA,NA,NA,NA,4,#741CD8,#D8271C,0,0,0,40,0,841.5,39,0,455.59999990463257,0,1,experiment,NA,NA,2,0.5,0.5,5,4,298,7,NA
fcp-trial,334,3757742,0.0-309.0-0.0,voc_e2,12030,"[{""event"":""fullscreenenter"",""trial"":1,""time"":6389}]",NA,NA,NA,NA,NA,1,#3386FF,#D89F1C,0,0,0,38,1,1216.7999999523163,39,0,913,0,1,experiment,NA,NA,0,0.1,0.9,1,0,299,7,NA
fcp-trial,335,3772752,0.0-310.0-0.0,voc_e2,12030,"[{""event"":""fullscreenenter"",""trial"":1,""time"":6389}]",NA,NA,NA,NA,NA,5,#D8271C,#741CD8,10,0,1,null,null,null,null,null,null,NA,0,experiment,NA,NA,2,0.5,0.5,4,5,300,7,NA
fcp-trial,336,3776341,0.0-311.0-0.0,voc_e2,12030,"[{""event"":""fullscreenenter"",""trial"":1,""time"":6389}]",NA,NA,NA,NA,NA,4,#FA92F8,#1CD855,0,10,0,38,1,1563,39,0,520.2999999523163,10,1,experiment,NA,NA,1,0.3,0.7,3,2,301,7,NA
fcp-trial,337,3779662,0.0-312.0-0.0,voc_e2,12030,"[{""event"":""fullscreenenter"",""trial"":1,""time"":6389}]",NA,NA,NA,NA,NA,4,#D89F1C,#3386FF,10,0,1,38,1,1262.8999998569489,37,1,545.5999999046326,10,1,experiment,NA,NA,0,0.9,0.1,0,1,302,7,NA
fcp-trial,338,3782746,0.0-313.0-0.0,voc_e2,12030,"[{""event"":""fullscreenenter"",""trial"":1,""time"":6389}]",NA,NA,NA,NA,NA,5,#3386FF,#D89F1C,0,0,0,40,0,862.7000000476837,37,1,709.2999999523163,0,0,experiment,NA,NA,0,0.1,0.9,1,0,303,7,NA
fcp-trial,339,3785499,0.0-314.0-0.0,voc_e2,12030,"[{""event"":""fullscreenenter"",""trial"":1,""time"":6389}]",NA,NA,NA,NA,NA,6,#3386FF,#D89F1C,0,10,0,40,0,858.2000000476837,39,0,379.5,10,1,experiment,NA,NA,0,0.1,0.9,1,0,304,7,NA
fcp-trial,340,3788932,0.0-315.0-0.0,voc_e2,12030,"[{""event"":""fullscreenenter"",""trial"":1,""time"":6389}]",NA,NA,NA,NA,NA,3,#D8271C,#741CD8,0,10,1,38,1,1396.4000000953674,37,1,523.7999999523163,0,1,experiment,NA,NA,2,0.5,0.5,4,5,305,7,NA
fcp-trial,341,3791983,0.0-316.0-0.0,voc_e2,12030,"[{""event"":""fullscreenenter"",""trial"":1,""time"":6389}]",NA,NA,NA,NA,NA,3,#1CD855,#FA92F8,10,0,1,40,0,1197.9000000953674,37,1,338.5,10,1,experiment,NA,NA,1,0.7,0.3,2,3,306,7,NA
fcp-trial,342,3795240,0.0-317.0-0.0,voc_e2,12030,"[{""event"":""fullscreenenter"",""trial"":1,""time"":6389}]",NA,NA,NA,NA,NA,1,#FA92F8,#1CD855,10,10,0,38,1,1452.7999999523163,39,0,299.2000000476837,10,1,experiment,NA,NA,1,0.3,0.7,3,2,307,7,NA
fcp-trial,343,3798709,0.0-318.0-0.0,voc_e2,12030,"[{""event"":""fullscreenenter"",""trial"":1,""time"":6389}]",NA,NA,NA,NA,NA,1,#D8271C,#741CD8,10,10,1,38,1,1589.5,37,1,369.19999980926514,10,1,experiment,NA,NA,2,0.5,0.5,4,5,308,7,NA
fcp-trial,344,3802407,0.0-319.0-0.0,voc_e2,12030,"[{""event"":""fullscreenenter"",""trial"":1,""time"":6389}]",NA,NA,NA,NA,NA,3,#3386FF,#D89F1C,0,10,0,38,1,1543.5999999046326,39,0,646.7000000476837,10,1,experiment,NA,NA,0,0.1,0.9,1,0,309,7,NA
fcp-trial,345,3805622,0.0-320.0-0.0,voc_e2,12030,"[{""event"":""fullscreenenter"",""trial"":1,""time"":6389}]",NA,NA,NA,NA,NA,2,#FA92F8,#1CD855,0,0,0,38,1,1354.2999999523163,39,0,349.89999985694885,0,1,experiment,NA,NA,1,0.3,0.7,3,2,310,7,NA
fcp-trial,346,3808982,0.0-321.0-0.0,voc_e2,12030,"[{""event"":""fullscreenenter"",""trial"":1,""time"":6389}]",NA,NA,NA,NA,NA,0,#D89F1C,#3386FF,0,10,1,38,1,1579.1000001430511,37,1,274.40000009536743,0,1,experiment,NA,NA,0,0.9,0.1,0,1,311,7,NA
fcp-trial,347,3812039,0.0-322.0-0.0,voc_e2,12030,"[{""event"":""fullscreenenter"",""trial"":1,""time"":6389}]",NA,NA,NA,NA,NA,2,#D89F1C,#3386FF,0,10,1,38,1,1211.2999999523163,37,1,333.09999990463257,0,1,experiment,NA,NA,0,0.9,0.1,0,1,312,7,NA
fcp-trial,348,3816133,0.0-323.0-0.0,voc_e2,12030,"[{""event"":""fullscreenenter"",""trial"":1,""time"":6389}]",NA,NA,NA,NA,NA,0,#D8271C,#741CD8,0,0,1,40,0,1962.2000000476837,39,0,615.0999999046326,0,0,experiment,NA,NA,2,0.5,0.5,4,5,313,7,NA
fcp-trial,349,3818932,0.0-324.0-0.0,voc_e2,12030,"[{""event"":""fullscreenenter"",""trial"":1,""time"":6389}]",NA,NA,NA,NA,NA,2,#741CD8,#D8271C,10,10,0,38,1,947.2000000476837,39,0,339.7000000476837,10,1,experiment,NA,NA,2,0.5,0.5,5,4,314,7,NA
fcp-trial,350,3821995,0.0-325.0-0.0,voc_e2,12030,"[{""event"":""fullscreenenter"",""trial"":1,""time"":6389}]",NA,NA,NA,NA,NA,5,#1CD855,#FA92F8,0,10,1,38,1,963,37,1,585.3999998569489,0,1,experiment,NA,NA,1,0.7,0.3,2,3,315,7,NA
audio-instructions,351,3831234,0.0-326.0,voc_e2,12030,"[{""event"":""fullscreenenter"",""trial"":1,""time"":6389}]",NA,3564.399999856949,static/audio/finished.wav,NA,0,NA,NA,NA,NA,NA,NA,NA,NA,NA,NA,NA,NA,NA,NA,NA,NA,NA,NA,NA,NA,NA,NA,NA,NA,NA
audio-instructions,352,3857823,0.0-327.0-0.0,voc_e2,12030,"[{""event"":""fullscreenenter"",""trial"":1,""time"":6389}]",NA,15753.700000047684,static/audio/explicit1.wav,NA,0,NA,NA,NA,NA,NA,NA,NA,NA,NA,NA,NA,NA,NA,NA,NA,NA,NA,NA,NA,NA,NA,NA,NA,NA,NA
audio-instructions,353,3876593,0.0-327.0-1.0,voc_e2,12030,"[{""event"":""fullscreenenter"",""trial"":1,""time"":6389}]",NA,11174.799999952316,static/audio/explicit2.wav,NA,0,NA,NA,NA,NA,NA,NA,NA,NA,NA,NA,NA,NA,NA,NA,NA,NA,NA,NA,NA,NA,NA,NA,NA,NA,NA
image-slider-response,354,3879224,0.0-328.0,voc_e2,12030,"[{""event"":""fullscreenenter"",""trial"":1,""time"":6389}]",NA,2630.099999904633,static/img/machines/machine5.png,NA,NA,NA,NA,NA,NA,NA,NA,NA,NA,NA,NA,NA,NA,NA,NA,explicit,NA,NA,NA,NA,NA,NA,NA,NA,NA,5
image-slider-response,355,3882185,0.0-329.0,voc_e2,12030,"[{""event"":""fullscreenenter"",""trial"":1,""time"":6389}]",NA,2959.599999904633,static/img/machines/machine4.png,NA,NA,NA,NA,NA,NA,NA,NA,NA,NA,NA,NA,NA,NA,NA,NA,explicit,NA,NA,NA,NA,NA,NA,NA,NA,NA,7
image-slider-response,356,3884207,0.0-330.0,voc_e2,12030,"[{""event"":""fullscreenenter"",""trial"":1,""time"":6389}]",NA,2021.4000000953672,static/img/machines/machine3.png,NA,NA,NA,NA,NA,NA,NA,NA,NA,NA,NA,NA,NA,NA,NA,NA,explicit,NA,NA,NA,NA,NA,NA,NA,NA,NA,5
image-slider-response,357,3887249,0.0-331.0,voc_e2,12030,"[{""event"":""fullscreenenter"",""trial"":1,""time"":6389}]",NA,3041,static/img/machines/machine6.png,NA,NA,NA,NA,NA,NA,NA,NA,NA,NA,NA,NA,NA,NA,NA,NA,explicit,NA,NA,NA,NA,NA,NA,NA,NA,NA,6
image-slider-response,358,3889724,0.0-332.0,voc_e2,12030,"[{""event"":""fullscreenenter"",""trial"":1,""time"":6389}]",NA,2474.2000000476837,static/img/machines/machine1.png,NA,NA,NA,NA,NA,NA,NA,NA,NA,NA,NA,NA,NA,NA,NA,NA,explicit,NA,NA,NA,NA,NA,NA,NA,NA,NA,6
image-slider-response,359,3891083,0.0-333.0,voc_e2,12030,"[{""event"":""fullscreenenter"",""trial"":1,""time"":6389}]",NA,1358.2999999523165,static/img/machines/machine2.png,NA,NA,NA,NA,NA,NA,NA,NA,NA,NA,NA,NA,NA,NA,NA,NA,explicit,NA,NA,NA,NA,NA,NA,NA,NA,NA,5
