trial_type,trial_index,time_elapsed,internal_node_id,task_version,subject_id,interactions,success,rt,stimulus,key_press,button_pressed,offer,arcade_color_L,arcade_color_R,arcade_outcome_L,arcade_outcome_R,correct,stage_1_key,stage_1_choice,stage_1_rt,stage_2_key,stage_2_choice,stage_2_rt,stage_3_outcome,accuracy,phase,responses,num_errors,context,reward_prob_L,reward_prob_R,arcade_id_L,arcade_id_R,trial,block,response
pavlovia,0,10,0.0-0.0,voc_e2,12216,[],NA,NA,NA,NA,NA,NA,NA,NA,NA,NA,NA,NA,NA,NA,NA,NA,NA,NA,NA,NA,NA,NA,NA,NA,NA,NA,NA,NA,NA,NA
fullscreen,1,2795,0.0-1.0,voc_e2,12216,"[{""event"":""fullscreenenter"",""trial"":1,""time"":1817}]",TRUE,NA,NA,NA,NA,NA,NA,NA,NA,NA,NA,NA,NA,NA,NA,NA,NA,NA,NA,NA,NA,NA,NA,NA,NA,NA,NA,NA,NA,NA
audio-keyboard-response,2,5275,0.0-2.0,voc_e2,12216,"[{""event"":""fullscreenenter"",""trial"":1,""time"":1817}]",NA,2389,static/audio/beep_loop.wav,32,NA,NA,NA,NA,NA,NA,NA,NA,NA,NA,NA,NA,NA,NA,NA,NA,NA,NA,NA,NA,NA,NA,NA,NA,NA,NA
audio-test,3,6984,0.0-3.0,voc_e2,12216,"[{""event"":""fullscreenenter"",""trial"":1,""time"":1817}]",NA,NA,static/audio/turtle.wav,NA,3,NA,NA,NA,NA,NA,NA,NA,NA,NA,NA,NA,NA,NA,NA,NA,NA,NA,NA,NA,NA,NA,NA,NA,NA,NA
audio-test,4,9278,0.0-4.0,voc_e2,12216,"[{""event"":""fullscreenenter"",""trial"":1,""time"":1817}]",NA,NA,static/audio/shark.wav,NA,2,NA,NA,NA,NA,NA,NA,NA,NA,NA,NA,NA,NA,NA,NA,NA,NA,NA,NA,NA,NA,NA,NA,NA,NA,NA
audio-instructions,5,15917,0.0-5.0-0.0,voc_e2,12216,"[{""event"":""fullscreenenter"",""trial"":1,""time"":1817}]",NA,858.1000000238419,static/audio/instructions1.wav,NA,0,NA,NA,NA,NA,NA,NA,NA,NA,NA,NA,NA,NA,NA,NA,NA,NA,NA,NA,NA,NA,NA,NA,NA,NA,NA
audio-instructions,6,23716,0.0-5.0-1.0,voc_e2,12216,"[{""event"":""fullscreenenter"",""trial"":1,""time"":1817}]",NA,1058.399999976158,static/audio/instructions2.wav,NA,0,NA,NA,NA,NA,NA,NA,NA,NA,NA,NA,NA,NA,NA,NA,NA,NA,NA,NA,NA,NA,NA,NA,NA,NA,NA
audio-instructions,7,30024,0.0-5.0-2.0,voc_e2,12216,"[{""event"":""fullscreenenter"",""trial"":1,""time"":1817}]",NA,507.89999997615814,static/audio/instructions3.wav,NA,0,NA,NA,NA,NA,NA,NA,NA,NA,NA,NA,NA,NA,NA,NA,NA,NA,NA,NA,NA,NA,NA,NA,NA,NA,NA
audio-instructions,8,43976,0.0-5.0-3.0,voc_e2,12216,"[{""event"":""fullscreenenter"",""trial"":1,""time"":1817}]",NA,727.8000000119209,static/audio/instructions4.wav,NA,0,NA,NA,NA,NA,NA,NA,NA,NA,NA,NA,NA,NA,NA,NA,NA,NA,NA,NA,NA,NA,NA,NA,NA,NA,NA
audio-instructions,9,58317,0.0-5.0-4.0,voc_e2,12216,"[{""event"":""fullscreenenter"",""trial"":1,""time"":1817}]",NA,4956.600000023842,static/audio/instructions5.wav,NA,0,NA,NA,NA,NA,NA,NA,NA,NA,NA,NA,NA,NA,NA,NA,NA,NA,NA,NA,NA,NA,NA,NA,NA,NA,NA
fcp-practice,10,60652,0.0-5.0-5.0-0.0,voc_e2,12216,"[{""event"":""fullscreenenter"",""trial"":1,""time"":1817}]",NA,NA,NA,NA,NA,NA,#EDC948,#46d3c8,10,0,1,null,null,null,37,1,821.4000000357628,10,1,practice,NA,NA,NA,NA,NA,NA,NA,NA,NA,NA
fcp-practice,11,63014,0.0-5.0-5.0-1.0,voc_e2,12216,"[{""event"":""fullscreenenter"",""trial"":1,""time"":1817}]",NA,NA,NA,NA,NA,NA,#EDC948,#46d3c8,10,0,1,null,null,null,37,1,858.0999999642372,10,1,practice,NA,NA,NA,NA,NA,NA,NA,NA,NA,NA
fcp-practice,12,65123,0.0-5.0-5.0-2.0,voc_e2,12216,"[{""event"":""fullscreenenter"",""trial"":1,""time"":1817}]",NA,NA,NA,NA,NA,NA,#EDC948,#46d3c8,0,10,1,null,null,null,37,1,601.2000000476837,0,1,practice,NA,NA,NA,NA,NA,NA,NA,NA,NA,NA
fcp-practice,13,67016,0.0-5.0-5.0-3.0,voc_e2,12216,"[{""event"":""fullscreenenter"",""trial"":1,""time"":1817}]",NA,NA,NA,NA,NA,NA,#EDC948,#46d3c8,10,0,1,null,null,null,37,1,388.5999999642372,10,1,practice,NA,NA,NA,NA,NA,NA,NA,NA,NA,NA
fcp-practice,14,69076,0.0-5.0-5.0-4.0,voc_e2,12216,"[{""event"":""fullscreenenter"",""trial"":1,""time"":1817}]",NA,NA,NA,NA,NA,NA,#EDC948,#46d3c8,10,0,1,null,null,null,37,1,554.6999999880791,10,1,practice,NA,NA,NA,NA,NA,NA,NA,NA,NA,NA
audio-instructions,15,88090,0.0-5.0-6.0,voc_e2,12216,"[{""event"":""fullscreenenter"",""trial"":1,""time"":1817}]",NA,1008.600000023842,static/audio/instructions6.wav,NA,0,NA,NA,NA,NA,NA,NA,NA,NA,NA,NA,NA,NA,NA,NA,NA,NA,NA,NA,NA,NA,NA,NA,NA,NA,NA
audio-instructions,16,109728,0.0-5.0-7.0,voc_e2,12216,"[{""event"":""fullscreenenter"",""trial"":1,""time"":1817}]",NA,2440.100000023842,static/audio/instructions7.wav,NA,0,NA,NA,NA,NA,NA,NA,NA,NA,NA,NA,NA,NA,NA,NA,NA,NA,NA,NA,NA,NA,NA,NA,NA,NA,NA
audio-instructions,17,148228,0.0-5.0-8.0,voc_e2,12216,"[{""event"":""fullscreenenter"",""trial"":1,""time"":1817}]",NA,29031.5,static/audio/instructions8.wav,NA,0,NA,NA,NA,NA,NA,NA,NA,NA,NA,NA,NA,NA,NA,NA,NA,NA,NA,NA,NA,NA,NA,NA,NA,NA,NA
fcp-comprehension,18,183698,0.0-5.0-9.0,voc_e2,12216,"[{""event"":""fullscreenenter"",""trial"":1,""time"":1817}]",NA,35467.19999998808,NA,NA,NA,NA,NA,NA,NA,NA,NA,NA,NA,NA,NA,NA,NA,NA,NA,NA,"true,true",0,NA,NA,NA,NA,NA,NA,NA,NA
audio-instructions,19,190775,0.0-6.0-0.0,voc_e2,12216,"[{""event"":""fullscreenenter"",""trial"":1,""time"":1817}]",NA,1447.199999988079,static/audio/instructions9.wav,NA,0,NA,NA,NA,NA,NA,NA,NA,NA,NA,NA,NA,NA,NA,NA,NA,NA,NA,NA,NA,NA,NA,NA,NA,NA,NA
audio-instructions,20,203422,0.0-6.0-1.0,voc_e2,12216,"[{""event"":""fullscreenenter"",""trial"":1,""time"":1817}]",NA,532.1999999880791,static/audio/instructions10.wav,NA,0,NA,NA,NA,NA,NA,NA,NA,NA,NA,NA,NA,NA,NA,NA,NA,NA,NA,NA,NA,NA,NA,NA,NA,NA,NA
fcp-trial,21,211800,0.0-6.0-2.0,voc_e2,12216,"[{""event"":""fullscreenenter"",""trial"":1,""time"":1817}]",NA,NA,NA,NA,NA,0,#EDC948,#46d3c8,10,10,1,38,1,3313.600000023842,37,1,3542.800000011921,10,1,practice,NA,NA,NA,NA,NA,NA,NA,NA,NA,NA
audio-instructions,22,223560,0.0-6.0-3.0,voc_e2,12216,"[{""event"":""fullscreenenter"",""trial"":1,""time"":1817}]",NA,750.6999999880791,static/audio/instructions11.wav,NA,0,NA,NA,NA,NA,NA,NA,NA,NA,NA,NA,NA,NA,NA,NA,NA,NA,NA,NA,NA,NA,NA,NA,NA,NA,NA
fcp-trial,23,226779,0.0-6.0-4.0,voc_e2,12216,"[{""event"":""fullscreenenter"",""trial"":1,""time"":1817}]",NA,NA,NA,NA,NA,6,#EDC948,#46d3c8,10,10,1,40,0,812.3000000119209,39,0,895.3000000119209,10,0,practice,NA,NA,NA,NA,NA,NA,NA,NA,NA,NA
audio-instructions,24,247714,0.0-6.0-5.0,voc_e2,12216,"[{""event"":""fullscreenenter"",""trial"":1,""time"":1817}]",NA,2250.400000035763,static/audio/instructions12.wav,NA,0,NA,NA,NA,NA,NA,NA,NA,NA,NA,NA,NA,NA,NA,NA,NA,NA,NA,NA,NA,NA,NA,NA,NA,NA,NA
audio-instructions,25,255782,0.0-6.0-6.0,voc_e2,12216,"[{""event"":""fullscreenenter"",""trial"":1,""time"":1817}]",NA,472.9000000357628,static/audio/instructions13.wav,NA,0,NA,NA,NA,NA,NA,NA,NA,NA,NA,NA,NA,NA,NA,NA,NA,NA,NA,NA,NA,NA,NA,NA,NA,NA,NA
audio-instructions,26,268257,0.0-6.0-7.0,voc_e2,12216,"[{""event"":""fullscreenenter"",""trial"":1,""time"":1817}]",NA,4031,static/audio/instructions14.wav,NA,0,NA,NA,NA,NA,NA,NA,NA,NA,NA,NA,NA,NA,NA,NA,NA,NA,NA,NA,NA,NA,NA,NA,NA,NA,NA
audio-instructions,27,275921,0.0-7.0-0.0,voc_e2,12216,"[{""event"":""fullscreenenter"",""trial"":1,""time"":1817}]",NA,751.3999999761581,static/audio/instructions15.wav,NA,0,NA,NA,NA,NA,NA,NA,NA,NA,NA,NA,NA,NA,NA,NA,NA,NA,NA,NA,NA,NA,NA,NA,NA,NA,NA
audio-instructions,28,283343,0.0-7.0-1.0,voc_e2,12216,"[{""event"":""fullscreenenter"",""trial"":1,""time"":1817}]",NA,595.4000000357628,static/audio/instructions16.wav,NA,0,NA,NA,NA,NA,NA,NA,NA,NA,NA,NA,NA,NA,NA,NA,NA,NA,NA,NA,NA,NA,NA,NA,NA,NA,NA
audio-instructions,29,291412,0.0-7.0-2.0,voc_e2,12216,"[{""event"":""fullscreenenter"",""trial"":1,""time"":1817}]",NA,393.10000002384186,static/audio/instructions17.wav,NA,0,NA,NA,NA,NA,NA,NA,NA,NA,NA,NA,NA,NA,NA,NA,NA,NA,NA,NA,NA,NA,NA,NA,NA,NA,NA
audio-instructions,30,299863,0.0-7.0-3.0,voc_e2,12216,"[{""event"":""fullscreenenter"",""trial"":1,""time"":1817}]",NA,684.5999999642372,static/audio/instructions18.wav,NA,0,NA,NA,NA,NA,NA,NA,NA,NA,NA,NA,NA,NA,NA,NA,NA,NA,NA,NA,NA,NA,NA,NA,NA,NA,NA
audio-instructions,31,306811,0.0-7.0-4.0,voc_e2,12216,"[{""event"":""fullscreenenter"",""trial"":1,""time"":1817}]",NA,208.19999998807907,static/audio/instructions19.wav,NA,0,NA,NA,NA,NA,NA,NA,NA,NA,NA,NA,NA,NA,NA,NA,NA,NA,NA,NA,NA,NA,NA,NA,NA,NA,NA
fcp-comprehension,32,316979,0.0-7.0-5.0,voc_e2,12216,"[{""event"":""fullscreenenter"",""trial"":1,""time"":1817}]",NA,10166.600000023842,NA,NA,NA,NA,NA,NA,NA,NA,NA,NA,NA,NA,NA,NA,NA,NA,NA,NA,"false,false,false,true",0,NA,NA,NA,NA,NA,NA,NA,NA
audio-instructions,33,327625,0.0-8.0,voc_e2,12216,"[{""event"":""fullscreenenter"",""trial"":1,""time"":1817}]",NA,1428.5,static/audio/ready.wav,NA,0,NA,NA,NA,NA,NA,NA,NA,NA,NA,NA,NA,NA,NA,NA,NA,NA,NA,NA,NA,NA,NA,NA,NA,NA,NA
fcp-trial,34,333612,0.0-9.0-0.0,voc_e2,12216,"[{""event"":""fullscreenenter"",""trial"":1,""time"":1817}]",NA,NA,NA,NA,NA,4,#D8271C,#741CD8,0,10,0,40,0,3823.300000011921,37,1,654.5,0,0,experiment,NA,NA,1,0.3,0.7,3,2,1,1,NA
fcp-trial,35,337987,0.0-10.0-0.0,voc_e2,12216,"[{""event"":""fullscreenenter"",""trial"":1,""time"":1817}]",NA,NA,NA,NA,NA,6,#3386FF,#D89F1C,10,0,0,40,0,2148.600000023842,39,0,717.5,0,1,experiment,NA,NA,2,0.5,0.5,5,4,2,1,NA
fcp-trial,36,343619,0.0-11.0-0.0,voc_e2,12216,"[{""event"":""fullscreenenter"",""trial"":1,""time"":1817}]",NA,NA,NA,NA,NA,3,#FA92F8,#1CD855,10,0,1,40,0,3508.800000011921,39,0,614.5,0,0,experiment,NA,NA,0,0.9,0.1,0,1,3,1,NA
fcp-trial,37,349169,0.0-12.0-0.0,voc_e2,12216,"[{""event"":""fullscreenenter"",""trial"":1,""time"":1817}]",NA,NA,NA,NA,NA,0,#741CD8,#D8271C,10,0,1,38,1,2770.800000011921,37,1,1271.1000000238419,10,1,experiment,NA,NA,1,0.7,0.3,2,3,4,1,NA
fcp-trial,38,352972,0.0-13.0-0.0,voc_e2,12216,"[{""event"":""fullscreenenter"",""trial"":1,""time"":1817}]",NA,NA,NA,NA,NA,1,#D8271C,#741CD8,0,10,0,38,1,1872.5,39,0,422.69999998807907,10,1,experiment,NA,NA,1,0.3,0.7,3,2,5,1,NA
fcp-trial,39,357111,0.0-14.0-0.0,voc_e2,12216,"[{""event"":""fullscreenenter"",""trial"":1,""time"":1817}]",NA,NA,NA,NA,NA,1,#3386FF,#D89F1C,10,10,0,38,1,2284,37,1,347.7000000476837,10,0,experiment,NA,NA,2,0.5,0.5,5,4,6,1,NA
fcp-trial,40,362167,0.0-15.0-0.0,voc_e2,12216,"[{""event"":""fullscreenenter"",""trial"":1,""time"":1817}]",NA,NA,NA,NA,NA,0,#FA92F8,#1CD855,10,10,1,38,1,2999.599999964237,37,1,548.8999999761581,10,1,experiment,NA,NA,0,0.9,0.1,0,1,7,1,NA
fcp-trial,41,368220,0.0-16.0-0.0,voc_e2,12216,"[{""event"":""fullscreenenter"",""trial"":1,""time"":1817}]",NA,NA,NA,NA,NA,4,#FA92F8,#1CD855,10,0,1,40,0,3828.900000035763,37,1,714.0999999642372,10,1,experiment,NA,NA,0,0.9,0.1,0,1,8,1,NA
fcp-trial,42,374358,0.0-17.0-0.0,voc_e2,12216,"[{""event"":""fullscreenenter"",""trial"":1,""time"":1817}]",NA,NA,NA,NA,NA,3,#741CD8,#D8271C,0,0,1,40,0,4043.5,37,1,585.1000000238419,0,1,experiment,NA,NA,1,0.7,0.3,2,3,9,1,NA
fcp-trial,43,379083,0.0-18.0-0.0,voc_e2,12216,"[{""event"":""fullscreenenter"",""trial"":1,""time"":1817}]",NA,NA,NA,NA,NA,6,#FA92F8,#1CD855,10,0,1,40,0,2677.100000023842,37,1,538.1999999880791,10,1,experiment,NA,NA,0,0.9,0.1,0,1,10,1,NA
fcp-trial,44,382646,0.0-19.0-0.0,voc_e2,12216,"[{""event"":""fullscreenenter"",""trial"":1,""time"":1817}]",NA,NA,NA,NA,NA,5,#3386FF,#D89F1C,0,10,0,40,0,1408.699999988079,39,0,649,10,1,experiment,NA,NA,2,0.5,0.5,5,4,11,1,NA
fcp-trial,45,388205,0.0-20.0-0.0,voc_e2,12216,"[{""event"":""fullscreenenter"",""trial"":1,""time"":1817}]",NA,NA,NA,NA,NA,6,#D8271C,#741CD8,0,0,0,40,0,3594.699999988079,37,1,457.30000001192093,0,0,experiment,NA,NA,1,0.3,0.7,3,2,12,1,NA
fcp-trial,46,394531,0.0-21.0-0.0,voc_e2,12216,"[{""event"":""fullscreenenter"",""trial"":1,""time"":1817}]",NA,NA,NA,NA,NA,2,#D89F1C,#3386FF,0,10,1,40,0,4367.5,39,0,451.30000001192093,10,0,experiment,NA,NA,2,0.5,0.5,4,5,13,1,NA
fcp-trial,47,398302,0.0-22.0-0.0,voc_e2,12216,"[{""event"":""fullscreenenter"",""trial"":1,""time"":1817}]",NA,NA,NA,NA,NA,5,#FA92F8,#1CD855,10,0,1,40,0,1678.199999988079,39,0,582.6999999880791,0,0,experiment,NA,NA,0,0.9,0.1,0,1,14,1,NA
fcp-trial,48,403756,0.0-23.0-0.0,voc_e2,12216,"[{""event"":""fullscreenenter"",""trial"":1,""time"":1817}]",NA,NA,NA,NA,NA,4,#3386FF,#D89F1C,10,10,0,40,0,3524.399999976158,39,0,422.5,10,1,experiment,NA,NA,2,0.5,0.5,5,4,15,1,NA
fcp-trial,49,407802,0.0-24.0-0.0,voc_e2,12216,"[{""event"":""fullscreenenter"",""trial"":1,""time"":1817}]",NA,NA,NA,NA,NA,1,#FA92F8,#1CD855,10,10,1,38,1,2084.800000011921,37,1,451.69999998807907,10,1,experiment,NA,NA,0,0.9,0.1,0,1,16,1,NA
fcp-trial,50,411430,0.0-25.0-0.0,voc_e2,12216,"[{""event"":""fullscreenenter"",""trial"":1,""time"":1817}]",NA,NA,NA,NA,NA,2,#741CD8,#D8271C,10,0,1,40,0,1622.1000000238419,39,0,499,0,0,experiment,NA,NA,1,0.7,0.3,2,3,17,1,NA
fcp-trial,51,414871,0.0-26.0-0.0,voc_e2,12216,"[{""event"":""fullscreenenter"",""trial"":1,""time"":1817}]",NA,NA,NA,NA,NA,5,#741CD8,#D8271C,10,10,1,40,0,1507.5,39,0,423.30000001192093,10,0,experiment,NA,NA,1,0.7,0.3,2,3,18,1,NA
fcp-trial,52,422635,0.0-27.0-0.0,voc_e2,12216,"[{""event"":""fullscreenenter"",""trial"":1,""time"":1817}]",NA,NA,NA,NA,NA,2,#1CD855,#FA92F8,0,0,0,38,1,5807.599999964237,39,0,445.60000002384186,0,1,experiment,NA,NA,0,0.1,0.9,1,0,19,1,NA
fcp-trial,53,427598,0.0-28.0-0.0,voc_e2,12216,"[{""event"":""fullscreenenter"",""trial"":1,""time"":1817}]",NA,NA,NA,NA,NA,3,#3386FF,#D89F1C,0,0,0,40,0,2910.100000023842,39,0,546.6000000238419,0,1,experiment,NA,NA,2,0.5,0.5,5,4,20,1,NA
fcp-trial,54,432003,0.0-29.0-0.0,voc_e2,12216,"[{""event"":""fullscreenenter"",""trial"":1,""time"":1817}]",NA,NA,NA,NA,NA,0,#D89F1C,#3386FF,10,0,1,38,1,1860.699999988079,37,1,1036.800000011921,10,1,experiment,NA,NA,2,0.5,0.5,4,5,21,1,NA
fcp-trial,55,436398,0.0-30.0-0.0,voc_e2,12216,"[{""event"":""fullscreenenter"",""trial"":1,""time"":1817}]",NA,NA,NA,NA,NA,2,#D8271C,#741CD8,10,10,0,40,0,2414.5,39,0,469.5999999642372,10,1,experiment,NA,NA,1,0.3,0.7,3,2,22,1,NA
fcp-trial,56,441601,0.0-31.0-0.0,voc_e2,12216,"[{""event"":""fullscreenenter"",""trial"":1,""time"":1817}]",NA,NA,NA,NA,NA,6,#D89F1C,#3386FF,10,0,1,40,0,3242.300000011921,39,0,454.5,0,0,experiment,NA,NA,2,0.5,0.5,4,5,23,1,NA
fcp-trial,57,445523,0.0-32.0-0.0,voc_e2,12216,"[{""event"":""fullscreenenter"",""trial"":1,""time"":1817}]",NA,NA,NA,NA,NA,2,#1CD855,#FA92F8,0,10,0,38,1,1741,39,0,674.6999999880791,10,1,experiment,NA,NA,0,0.1,0.9,1,0,24,1,NA
fcp-trial,58,451535,0.0-33.0-0.0,voc_e2,12216,"[{""event"":""fullscreenenter"",""trial"":1,""time"":1817}]",NA,NA,NA,NA,NA,1,#D8271C,#741CD8,10,0,0,40,0,4056.900000035763,37,1,442.4000000357628,10,0,experiment,NA,NA,1,0.3,0.7,3,2,25,1,NA
fcp-trial,59,456595,0.0-34.0-0.0,voc_e2,12216,"[{""event"":""fullscreenenter"",""trial"":1,""time"":1817}]",NA,NA,NA,NA,NA,4,#D89F1C,#3386FF,10,0,1,40,0,3098.300000011921,39,0,450.89999997615814,0,0,experiment,NA,NA,2,0.5,0.5,4,5,26,1,NA
fcp-trial,60,461224,0.0-35.0-0.0,voc_e2,12216,"[{""event"":""fullscreenenter"",""trial"":1,""time"":1817}]",NA,NA,NA,NA,NA,4,#1CD855,#FA92F8,0,10,0,40,0,2619.099999964237,37,1,503.69999998807907,0,0,experiment,NA,NA,0,0.1,0.9,1,0,27,1,NA
fcp-trial,61,464918,0.0-36.0-0.0,voc_e2,12216,"[{""event"":""fullscreenenter"",""trial"":1,""time"":1817}]",NA,NA,NA,NA,NA,3,#D89F1C,#3386FF,0,0,1,40,0,1728.199999988079,39,0,460.4000000357628,0,0,experiment,NA,NA,2,0.5,0.5,4,5,28,1,NA
fcp-trial,62,468582,0.0-37.0-0.0,voc_e2,12216,"[{""event"":""fullscreenenter"",""trial"":1,""time"":1817}]",NA,NA,NA,NA,NA,3,#741CD8,#D8271C,10,0,1,40,0,1595.8999999761581,39,0,560.8000000119209,0,0,experiment,NA,NA,1,0.7,0.3,2,3,29,1,NA
fcp-trial,63,472794,0.0-38.0-0.0,voc_e2,12216,"[{""event"":""fullscreenenter"",""trial"":1,""time"":1817}]",NA,NA,NA,NA,NA,1,#FA92F8,#1CD855,10,0,1,38,1,2090.399999976158,37,1,612.8000000119209,10,1,experiment,NA,NA,0,0.9,0.1,0,1,30,1,NA
fcp-trial,64,476205,0.0-39.0-0.0,voc_e2,12216,"[{""event"":""fullscreenenter"",""trial"":1,""time"":1817}]",NA,NA,NA,NA,NA,5,#3386FF,#D89F1C,10,10,0,40,0,1411,37,1,491.5,10,0,experiment,NA,NA,2,0.5,0.5,5,4,31,1,NA
fcp-trial,65,479431,0.0-40.0-0.0,voc_e2,12216,"[{""event"":""fullscreenenter"",""trial"":1,""time"":1817}]",NA,NA,NA,NA,NA,6,#FA92F8,#1CD855,10,0,1,40,0,1270.199999988079,39,0,444.19999998807907,0,0,experiment,NA,NA,0,0.9,0.1,0,1,32,1,NA
fcp-trial,66,482876,0.0-41.0-0.0,voc_e2,12216,"[{""event"":""fullscreenenter"",""trial"":1,""time"":1817}]",NA,NA,NA,NA,NA,6,#741CD8,#D8271C,0,0,1,40,0,1490.2000000476837,39,0,443.69999998807907,0,0,experiment,NA,NA,1,0.7,0.3,2,3,33,1,NA
fcp-trial,67,486651,0.0-42.0-0.0,voc_e2,12216,"[{""event"":""fullscreenenter"",""trial"":1,""time"":1817}]",NA,NA,NA,NA,NA,3,#1CD855,#FA92F8,0,10,0,38,1,1895.300000011921,39,0,371.9000000357628,10,1,experiment,NA,NA,0,0.1,0.9,1,0,34,1,NA
fcp-trial,68,492213,0.0-43.0-0.0,voc_e2,12216,"[{""event"":""fullscreenenter"",""trial"":1,""time"":1817}]",NA,NA,NA,NA,NA,0,#741CD8,#D8271C,10,10,1,38,1,2459.699999988079,37,1,1595.199999988079,10,1,experiment,NA,NA,1,0.7,0.3,2,3,35,1,NA
fcp-trial,69,496046,0.0-44.0-0.0,voc_e2,12216,"[{""event"":""fullscreenenter"",""trial"":1,""time"":1817}]",NA,NA,NA,NA,NA,1,#D89F1C,#3386FF,10,10,1,40,0,1865.1000000238419,37,1,461.4000000357628,10,1,experiment,NA,NA,2,0.5,0.5,4,5,36,1,NA
fcp-trial,70,500157,0.0-45.0-0.0,voc_e2,12216,"[{""event"":""fullscreenenter"",""trial"":1,""time"":1817}]",NA,NA,NA,NA,NA,0,#1CD855,#FA92F8,0,10,0,38,1,1939.1000000238419,39,0,665.4000000357628,10,1,experiment,NA,NA,0,0.1,0.9,1,0,37,1,NA
fcp-trial,71,503730,0.0-46.0-0.0,voc_e2,12216,"[{""event"":""fullscreenenter"",""trial"":1,""time"":1817}]",NA,NA,NA,NA,NA,4,#D8271C,#741CD8,10,0,0,40,0,1540.4000000357628,37,1,525.8999999761581,10,0,experiment,NA,NA,1,0.3,0.7,3,2,38,1,NA
fcp-trial,72,507383,0.0-47.0-0.0,voc_e2,12216,"[{""event"":""fullscreenenter"",""trial"":1,""time"":1817}]",NA,NA,NA,NA,NA,5,#741CD8,#D8271C,10,10,1,40,0,1636.5,39,0,505.5,10,0,experiment,NA,NA,1,0.7,0.3,2,3,39,1,NA
fcp-trial,73,512373,0.0-48.0-0.0,voc_e2,12216,"[{""event"":""fullscreenenter"",""trial"":1,""time"":1817}]",NA,NA,NA,NA,NA,5,#FA92F8,#1CD855,10,0,1,40,0,3005.300000011921,39,0,476.69999998807907,0,0,experiment,NA,NA,0,0.9,0.1,0,1,40,1,NA
fcp-trial,74,519574,0.0-49.0-0.0,voc_e2,12216,"[{""event"":""fullscreenenter"",""trial"":1,""time"":1817}]",NA,NA,NA,NA,NA,2,#D89F1C,#3386FF,0,10,1,38,1,2128.699999988079,39,0,3564.5,10,0,experiment,NA,NA,2,0.5,0.5,4,5,41,1,NA
fcp-trial,75,523879,0.0-50.0-0.0,voc_e2,12216,"[{""event"":""fullscreenenter"",""trial"":1,""time"":1817}]",NA,NA,NA,NA,NA,0,#D89F1C,#3386FF,10,0,1,38,1,1670.199999988079,37,1,1128.699999988079,10,1,experiment,NA,NA,2,0.5,0.5,4,5,42,1,NA
fcp-trial,76,527249,0.0-51.0-0.0,voc_e2,12216,"[{""event"":""fullscreenenter"",""trial"":1,""time"":1817}]",NA,NA,NA,NA,NA,6,#D8271C,#741CD8,10,10,0,40,0,1411.8999999761581,39,0,449.0999999642372,10,1,experiment,NA,NA,1,0.3,0.7,3,2,43,1,NA
fcp-trial,77,531154,0.0-52.0-0.0,voc_e2,12216,"[{""event"":""fullscreenenter"",""trial"":1,""time"":1817}]",NA,NA,NA,NA,NA,6,#FA92F8,#1CD855,10,0,1,38,1,1867,37,1,531.5,10,1,experiment,NA,NA,0,0.9,0.1,0,1,44,1,NA
fcp-trial,78,535532,0.0-53.0-0.0,voc_e2,12216,"[{""event"":""fullscreenenter"",""trial"":1,""time"":1817}]",NA,NA,NA,NA,NA,2,#3386FF,#D89F1C,0,0,0,40,0,2260.099999964237,37,1,607.8000000119209,0,0,experiment,NA,NA,2,0.5,0.5,5,4,45,1,NA
fcp-trial,79,538632,0.0-54.0-0.0,voc_e2,12216,"[{""event"":""fullscreenenter"",""trial"":1,""time"":1817}]",NA,NA,NA,NA,NA,4,#3386FF,#D89F1C,0,10,0,40,0,1069.199999988079,37,1,523.5,0,0,experiment,NA,NA,2,0.5,0.5,5,4,46,2,NA
fcp-trial,80,542462,0.0-55.0-0.0,voc_e2,12216,"[{""event"":""fullscreenenter"",""trial"":1,""time"":1817}]",NA,NA,NA,NA,NA,1,#741CD8,#D8271C,10,0,1,38,1,1718.5,37,1,601.7999999523163,10,1,experiment,NA,NA,1,0.7,0.3,2,3,47,2,NA
fcp-trial,81,548095,0.0-56.0-0.0,voc_e2,12216,"[{""event"":""fullscreenenter"",""trial"":1,""time"":1817}]",NA,NA,NA,NA,NA,1,#FA92F8,#1CD855,10,0,1,38,1,3579.199999988079,37,1,545.4000000357628,10,1,experiment,NA,NA,0,0.9,0.1,0,1,48,2,NA
fcp-trial,82,554250,0.0-57.0-0.0,voc_e2,12216,"[{""event"":""fullscreenenter"",""trial"":1,""time"":1817}]",NA,NA,NA,NA,NA,5,#D89F1C,#3386FF,0,0,1,40,0,4062.900000035763,39,0,582.6000000238419,0,0,experiment,NA,NA,2,0.5,0.5,4,5,49,2,NA
fcp-trial,83,559994,0.0-58.0-0.0,voc_e2,12216,"[{""event"":""fullscreenenter"",""trial"":1,""time"":1817}]",NA,NA,NA,NA,NA,2,#1CD855,#FA92F8,0,10,0,38,1,3806,39,0,430.89999997615814,10,1,experiment,NA,NA,0,0.1,0.9,1,0,50,2,NA
fcp-trial,84,563463,0.0-59.0-0.0,voc_e2,12216,"[{""event"":""fullscreenenter"",""trial"":1,""time"":1817}]",NA,NA,NA,NA,NA,0,#1CD855,#FA92F8,0,10,0,38,1,1396.6000000238419,39,0,566.6000000238419,10,1,experiment,NA,NA,0,0.1,0.9,1,0,51,2,NA
fcp-trial,85,567045,0.0-60.0-0.0,voc_e2,12216,"[{""event"":""fullscreenenter"",""trial"":1,""time"":1817}]",NA,NA,NA,NA,NA,4,#741CD8,#D8271C,0,0,1,40,0,1639.6000000238419,39,0,435.9000000357628,0,0,experiment,NA,NA,1,0.7,0.3,2,3,52,2,NA
fcp-trial,86,570384,0.0-61.0-0.0,voc_e2,12216,"[{""event"":""fullscreenenter"",""trial"":1,""time"":1817}]",NA,NA,NA,NA,NA,6,#3386FF,#D89F1C,0,0,0,40,0,1330.699999988079,39,0,502.80000001192093,0,1,experiment,NA,NA,2,0.5,0.5,5,4,53,2,NA
fcp-trial,87,573937,0.0-62.0-0.0,voc_e2,12216,"[{""event"":""fullscreenenter"",""trial"":1,""time"":1817}]",NA,NA,NA,NA,NA,3,#1CD855,#FA92F8,0,10,0,38,1,1602.8999999761581,39,0,439.7999999523163,10,1,experiment,NA,NA,0,0.1,0.9,1,0,54,2,NA
fcp-trial,88,580016,0.0-63.0-0.0,voc_e2,12216,"[{""event"":""fullscreenenter"",""trial"":1,""time"":1817}]",NA,NA,NA,NA,NA,3,#D8271C,#741CD8,0,10,0,40,0,4121.199999988079,37,1,452.19999998807907,0,0,experiment,NA,NA,1,0.3,0.7,3,2,55,2,NA
fcp-trial,89,583670,0.0-64.0-0.0,voc_e2,12216,"[{""event"":""fullscreenenter"",""trial"":1,""time"":1817}]",NA,NA,NA,NA,NA,0,#741CD8,#D8271C,10,0,1,38,1,1672.199999988079,37,1,473.19999998807907,10,1,experiment,NA,NA,1,0.7,0.3,2,3,56,2,NA
fcp-trial,90,590224,0.0-65.0-0.0,voc_e2,12216,"[{""event"":""fullscreenenter"",""trial"":1,""time"":1817}]",NA,NA,NA,NA,NA,1,#3386FF,#D89F1C,0,10,0,40,0,4389.100000023842,37,1,657.6000000238419,0,0,experiment,NA,NA,2,0.5,0.5,5,4,57,2,NA
fcp-trial,91,594265,0.0-66.0-0.0,voc_e2,12216,"[{""event"":""fullscreenenter"",""trial"":1,""time"":1817}]",NA,NA,NA,NA,NA,4,#1CD855,#FA92F8,0,10,0,38,1,2047.3999999761581,39,0,486.2000000476837,10,1,experiment,NA,NA,0,0.1,0.9,1,0,58,2,NA
fcp-trial,92,598304,0.0-67.0-0.0,voc_e2,12216,"[{""event"":""fullscreenenter"",""trial"":1,""time"":1817}]",NA,NA,NA,NA,NA,2,#741CD8,#D8271C,0,10,1,38,1,2098.099999964237,37,1,432.39999997615814,0,1,experiment,NA,NA,1,0.7,0.3,2,3,59,2,NA
fcp-trial,93,602179,0.0-68.0-0.0,voc_e2,12216,"[{""event"":""fullscreenenter"",""trial"":1,""time"":1817}]",NA,NA,NA,NA,NA,0,#D89F1C,#3386FF,0,0,1,38,1,1899,37,1,468.10000002384186,0,1,experiment,NA,NA,2,0.5,0.5,4,5,60,2,NA
fcp-trial,94,606180,0.0-69.0-0.0,voc_e2,12216,"[{""event"":""fullscreenenter"",""trial"":1,""time"":1817}]",NA,NA,NA,NA,NA,3,#3386FF,#D89F1C,0,10,0,40,0,2052.699999988079,39,0,438.10000002384186,10,1,experiment,NA,NA,2,0.5,0.5,5,4,61,2,NA
fcp-trial,95,610345,0.0-70.0-0.0,voc_e2,12216,"[{""event"":""fullscreenenter"",""trial"":1,""time"":1817}]",NA,NA,NA,NA,NA,5,#FA92F8,#1CD855,10,0,1,38,1,2222.5,37,1,431.89999997615814,10,1,experiment,NA,NA,0,0.9,0.1,0,1,62,2,NA
fcp-trial,96,614912,0.0-71.0-0.0,voc_e2,12216,"[{""event"":""fullscreenenter"",""trial"":1,""time"":1817}]",NA,NA,NA,NA,NA,5,#D8271C,#741CD8,0,10,0,40,0,2543.300000011921,37,1,515.4000000357628,0,0,experiment,NA,NA,1,0.3,0.7,3,2,63,2,NA
fcp-trial,97,620261,0.0-72.0-0.0,voc_e2,12216,"[{""event"":""fullscreenenter"",""trial"":1,""time"":1817}]",NA,NA,NA,NA,NA,2,#1CD855,#FA92F8,0,10,0,38,1,3353,39,0,487,10,1,experiment,NA,NA,0,0.1,0.9,1,0,64,2,NA
fcp-trial,98,624187,0.0-73.0-0.0,voc_e2,12216,"[{""event"":""fullscreenenter"",""trial"":1,""time"":1817}]",NA,NA,NA,NA,NA,4,#741CD8,#D8271C,10,10,1,40,0,1954.1000000238419,37,1,461.80000001192093,10,1,experiment,NA,NA,1,0.7,0.3,2,3,65,2,NA
fcp-trial,99,627598,0.0-74.0-0.0,voc_e2,12216,"[{""event"":""fullscreenenter"",""trial"":1,""time"":1817}]",NA,NA,NA,NA,NA,4,#1CD855,#FA92F8,0,10,0,38,1,1525.699999988079,39,0,379.5,10,1,experiment,NA,NA,0,0.1,0.9,1,0,66,2,NA
fcp-trial,100,631109,0.0-75.0-0.0,voc_e2,12216,"[{""event"":""fullscreenenter"",""trial"":1,""time"":1817}]",NA,NA,NA,NA,NA,0,#D89F1C,#3386FF,10,10,1,38,1,1514.300000011921,39,0,487.80000001192093,10,0,experiment,NA,NA,2,0.5,0.5,4,5,67,2,NA
fcp-trial,101,634955,0.0-76.0-0.0,voc_e2,12216,"[{""event"":""fullscreenenter"",""trial"":1,""time"":1817}]",NA,NA,NA,NA,NA,1,#D89F1C,#3386FF,10,0,1,40,0,1841,39,0,499.19999998807907,0,0,experiment,NA,NA,2,0.5,0.5,4,5,68,2,NA
fcp-trial,102,638325,0.0-77.0-0.0,voc_e2,12216,"[{""event"":""fullscreenenter"",""trial"":1,""time"":1817}]",NA,NA,NA,NA,NA,6,#D89F1C,#3386FF,0,10,1,40,0,1377.5,39,0,483.5,10,0,experiment,NA,NA,2,0.5,0.5,4,5,69,2,NA
fcp-trial,103,641637,0.0-78.0-0.0,voc_e2,12216,"[{""event"":""fullscreenenter"",""trial"":1,""time"":1817}]",NA,NA,NA,NA,NA,0,#D8271C,#741CD8,0,10,0,38,1,1283.5,39,0,522.2999999523163,10,1,experiment,NA,NA,1,0.3,0.7,3,2,70,2,NA
fcp-trial,104,645136,0.0-79.0-0.0,voc_e2,12216,"[{""event"":""fullscreenenter"",""trial"":1,""time"":1817}]",NA,NA,NA,NA,NA,0,#1CD855,#FA92F8,0,10,0,38,1,1525.0999999642372,39,0,464.7000000476837,10,1,experiment,NA,NA,0,0.1,0.9,1,0,71,2,NA
fcp-trial,105,648920,0.0-80.0-0.0,voc_e2,12216,"[{""event"":""fullscreenenter"",""trial"":1,""time"":1817}]",NA,NA,NA,NA,NA,3,#FA92F8,#1CD855,10,0,1,38,1,1841.0999999642372,37,1,428.5,10,1,experiment,NA,NA,0,0.9,0.1,0,1,72,2,NA
fcp-trial,106,652363,0.0-81.0-0.0,voc_e2,12216,"[{""event"":""fullscreenenter"",""trial"":1,""time"":1817}]",NA,NA,NA,NA,NA,6,#741CD8,#D8271C,10,0,1,40,0,1452.1000000238419,39,0,481.0999999642372,0,0,experiment,NA,NA,1,0.7,0.3,2,3,73,2,NA
fcp-trial,107,655792,0.0-82.0-0.0,voc_e2,12216,"[{""event"":""fullscreenenter"",""trial"":1,""time"":1817}]",NA,NA,NA,NA,NA,2,#3386FF,#D89F1C,0,0,0,40,0,1473.800000011921,39,0,445.0999999642372,0,1,experiment,NA,NA,2,0.5,0.5,5,4,74,2,NA
fcp-trial,108,659638,0.0-83.0-0.0,voc_e2,12216,"[{""event"":""fullscreenenter"",""trial"":1,""time"":1817}]",NA,NA,NA,NA,NA,2,#741CD8,#D8271C,0,0,1,38,1,1947.4000000357628,37,1,393.10000002384186,0,1,experiment,NA,NA,1,0.7,0.3,2,3,75,2,NA
fcp-trial,109,662858,0.0-84.0-0.0,voc_e2,12216,"[{""event"":""fullscreenenter"",""trial"":1,""time"":1817}]",NA,NA,NA,NA,NA,6,#FA92F8,#1CD855,10,0,1,38,1,1344.199999988079,37,1,369.30000001192093,10,1,experiment,NA,NA,0,0.9,0.1,0,1,76,2,NA
fcp-trial,110,665873,0.0-85.0-0.0,voc_e2,12216,"[{""event"":""fullscreenenter"",""trial"":1,""time"":1817}]",NA,NA,NA,NA,NA,5,#741CD8,#D8271C,10,0,1,40,0,1002,37,1,503.5,10,1,experiment,NA,NA,1,0.7,0.3,2,3,77,2,NA
fcp-trial,111,669475,0.0-86.0-0.0,voc_e2,12216,"[{""event"":""fullscreenenter"",""trial"":1,""time"":1817}]",NA,NA,NA,NA,NA,3,#D8271C,#741CD8,0,10,0,40,0,1295.1000000238419,37,1,799.6999999880791,0,0,experiment,NA,NA,1,0.3,0.7,3,2,78,2,NA
fcp-trial,112,672632,0.0-87.0-0.0,voc_e2,12216,"[{""event"":""fullscreenenter"",""trial"":1,""time"":1817}]",NA,NA,NA,NA,NA,3,#3386FF,#D89F1C,10,10,0,40,0,1191.6000000238419,37,1,457.89999997615814,10,0,experiment,NA,NA,2,0.5,0.5,5,4,79,2,NA
fcp-trial,113,676949,0.0-88.0-0.0,voc_e2,12216,"[{""event"":""fullscreenenter"",""trial"":1,""time"":1817}]",NA,NA,NA,NA,NA,1,#1CD855,#FA92F8,0,10,0,38,1,2450.600000023842,39,0,357.0999999642372,10,1,experiment,NA,NA,0,0.1,0.9,1,0,80,2,NA
fcp-trial,114,680314,0.0-89.0-0.0,voc_e2,12216,"[{""event"":""fullscreenenter"",""trial"":1,""time"":1817}]",NA,NA,NA,NA,NA,5,#D89F1C,#3386FF,0,0,1,40,0,1349.1000000238419,39,0,505.89999997615814,0,0,experiment,NA,NA,2,0.5,0.5,4,5,81,2,NA
fcp-trial,115,683444,0.0-90.0-0.0,voc_e2,12216,"[{""event"":""fullscreenenter"",""trial"":1,""time"":1817}]",NA,NA,NA,NA,NA,5,#FA92F8,#1CD855,10,0,1,38,1,1199.199999988079,37,1,420,10,1,experiment,NA,NA,0,0.9,0.1,0,1,82,2,NA
fcp-trial,116,688220,0.0-91.0-0.0,voc_e2,12216,"[{""event"":""fullscreenenter"",""trial"":1,""time"":1817}]",NA,NA,NA,NA,NA,1,#D8271C,#741CD8,0,0,0,40,0,2789.100000023842,39,0,478.69999998807907,0,1,experiment,NA,NA,1,0.3,0.7,3,2,83,2,NA
fcp-trial,117,691790,0.0-92.0-0.0,voc_e2,12216,"[{""event"":""fullscreenenter"",""trial"":1,""time"":1817}]",NA,NA,NA,NA,NA,4,#3386FF,#D89F1C,0,10,0,40,0,1579.800000011921,39,0,484.5,10,1,experiment,NA,NA,2,0.5,0.5,5,4,84,2,NA
fcp-trial,118,694870,0.0-93.0-0.0,voc_e2,12216,"[{""event"":""fullscreenenter"",""trial"":1,""time"":1817}]",NA,NA,NA,NA,NA,6,#1CD855,#FA92F8,0,10,0,38,1,946,39,0,627.8000000119209,10,1,experiment,NA,NA,0,0.1,0.9,1,0,85,2,NA
fcp-trial,119,698394,0.0-94.0-0.0,voc_e2,12216,"[{""event"":""fullscreenenter"",""trial"":1,""time"":1817}]",NA,NA,NA,NA,NA,0,#D8271C,#741CD8,10,10,0,38,1,1502.800000011921,39,0,512.6999999880791,10,1,experiment,NA,NA,1,0.3,0.7,3,2,86,2,NA
fcp-trial,120,702280,0.0-95.0-0.0,voc_e2,12216,"[{""event"":""fullscreenenter"",""trial"":1,""time"":1817}]",NA,NA,NA,NA,NA,6,#D8271C,#741CD8,0,10,0,38,1,1979.800000011921,39,0,399.19999998807907,10,1,experiment,NA,NA,1,0.3,0.7,3,2,87,2,NA
fcp-trial,121,706836,0.0-96.0-0.0,voc_e2,12216,"[{""event"":""fullscreenenter"",""trial"":1,""time"":1817}]",NA,NA,NA,NA,NA,5,#1CD855,#FA92F8,10,10,0,38,1,2638.300000011921,39,0,409,10,1,experiment,NA,NA,0,0.1,0.9,1,0,88,2,NA
fcp-trial,122,710117,0.0-97.0-0.0,voc_e2,12216,"[{""event"":""fullscreenenter"",""trial"":1,""time"":1817}]",NA,NA,NA,NA,NA,6,#D89F1C,#3386FF,10,10,1,40,0,1239.8999999761581,37,1,533.6000000238419,10,1,experiment,NA,NA,2,0.5,0.5,4,5,89,2,NA
fcp-trial,123,713378,0.0-98.0-0.0,voc_e2,12216,"[{""event"":""fullscreenenter"",""trial"":1,""time"":1817}]",NA,NA,NA,NA,NA,1,#741CD8,#D8271C,10,0,1,38,1,1162,37,1,592.1999999880791,10,1,experiment,NA,NA,1,0.7,0.3,2,3,90,2,NA
fcp-trial,124,718002,0.0-99.0-0.0,voc_e2,12216,"[{""event"":""fullscreenenter"",""trial"":1,""time"":1817}]",NA,NA,NA,NA,NA,2,#741CD8,#D8271C,0,10,1,38,1,2446.100000023842,37,1,669.3000000119209,0,1,experiment,NA,NA,1,0.7,0.3,2,3,91,3,NA
fcp-trial,125,724587,0.0-100.0-0.0,voc_e2,12216,"[{""event"":""fullscreenenter"",""trial"":1,""time"":1817}]",NA,NA,NA,NA,NA,3,#1CD855,#FA92F8,0,10,0,38,1,4592,39,0,481.19999998807907,10,1,experiment,NA,NA,0,0.1,0.9,1,0,92,3,NA
fcp-trial,126,727568,0.0-101.0-0.0,voc_e2,12216,"[{""event"":""fullscreenenter"",""trial"":1,""time"":1817}]",NA,NA,NA,NA,NA,3,#D89F1C,#3386FF,10,10,1,40,0,986.8000000119209,39,0,487.39999997615814,10,0,experiment,NA,NA,2,0.5,0.5,4,5,93,3,NA
fcp-trial,127,731056,0.0-102.0-0.0,voc_e2,12216,"[{""event"":""fullscreenenter"",""trial"":1,""time"":1817}]",NA,NA,NA,NA,NA,4,#741CD8,#D8271C,10,10,1,38,1,1560.8999999761581,37,1,417.5,10,1,experiment,NA,NA,1,0.7,0.3,2,3,94,3,NA
fcp-trial,128,734837,0.0-103.0-0.0,voc_e2,12216,"[{""event"":""fullscreenenter"",""trial"":1,""time"":1817}]",NA,NA,NA,NA,NA,1,#D89F1C,#3386FF,0,10,1,40,0,1799,37,1,473.19999998807907,0,1,experiment,NA,NA,2,0.5,0.5,4,5,95,3,NA
fcp-trial,129,738035,0.0-104.0-0.0,voc_e2,12216,"[{""event"":""fullscreenenter"",""trial"":1,""time"":1817}]",NA,NA,NA,NA,NA,4,#FA92F8,#1CD855,10,0,1,38,1,1310,37,1,380.30000001192093,10,1,experiment,NA,NA,0,0.9,0.1,0,1,96,3,NA
fcp-trial,130,741921,0.0-105.0-0.0,voc_e2,12216,"[{""event"":""fullscreenenter"",""trial"":1,""time"":1817}]",NA,NA,NA,NA,NA,0,#1CD855,#FA92F8,0,10,0,38,1,1899.800000011921,39,0,480.5999999642372,10,1,experiment,NA,NA,0,0.1,0.9,1,0,97,3,NA
fcp-trial,131,745876,0.0-106.0-0.0,voc_e2,12216,"[{""event"":""fullscreenenter"",""trial"":1,""time"":1817}]",NA,NA,NA,NA,NA,5,#741CD8,#D8271C,10,0,1,40,0,1991.300000011921,37,1,457.19999998807907,10,1,experiment,NA,NA,1,0.7,0.3,2,3,98,3,NA
fcp-trial,132,750337,0.0-107.0-0.0,voc_e2,12216,"[{""event"":""fullscreenenter"",""trial"":1,""time"":1817}]",NA,NA,NA,NA,NA,2,#FA92F8,#1CD855,10,0,1,38,1,2642.599999964237,37,1,310.5,10,1,experiment,NA,NA,0,0.9,0.1,0,1,99,3,NA
fcp-trial,133,755594,0.0-108.0-0.0,voc_e2,12216,"[{""event"":""fullscreenenter"",""trial"":1,""time"":1817}]",NA,NA,NA,NA,NA,0,#D89F1C,#3386FF,10,0,1,38,1,3269.099999964237,39,0,480.89999997615814,0,0,experiment,NA,NA,2,0.5,0.5,4,5,100,3,NA
fcp-trial,134,759054,0.0-109.0-0.0,voc_e2,12216,"[{""event"":""fullscreenenter"",""trial"":1,""time"":1817}]",NA,NA,NA,NA,NA,2,#3386FF,#D89F1C,10,0,0,40,0,1487.4000000357628,39,0,466.39999997615814,0,1,experiment,NA,NA,2,0.5,0.5,5,4,101,3,NA
fcp-trial,135,763527,0.0-110.0-0.0,voc_e2,12216,"[{""event"":""fullscreenenter"",""trial"":1,""time"":1817}]",NA,NA,NA,NA,NA,1,#FA92F8,#1CD855,10,0,1,38,1,2709.199999988079,37,1,256.5,10,1,experiment,NA,NA,0,0.9,0.1,0,1,102,3,NA
fcp-trial,136,770477,0.0-111.0-0.0,voc_e2,12216,"[{""event"":""fullscreenenter"",""trial"":1,""time"":1817}]",NA,NA,NA,NA,NA,3,#D8271C,#741CD8,0,0,0,40,0,4961,37,1,481.69999998807907,0,0,experiment,NA,NA,1,0.3,0.7,3,2,103,3,NA
fcp-trial,137,773504,0.0-112.0-0.0,voc_e2,12216,"[{""event"":""fullscreenenter"",""trial"":1,""time"":1817}]",NA,NA,NA,NA,NA,4,#D89F1C,#3386FF,0,0,1,40,0,1063.800000011921,37,1,455.7000000476837,0,1,experiment,NA,NA,2,0.5,0.5,4,5,104,3,NA
fcp-trial,138,776764,0.0-113.0-0.0,voc_e2,12216,"[{""event"":""fullscreenenter"",""trial"":1,""time"":1817}]",NA,NA,NA,NA,NA,5,#D89F1C,#3386FF,0,10,1,38,1,1246.7999999523163,37,1,504.19999998807907,0,1,experiment,NA,NA,2,0.5,0.5,4,5,105,3,NA
audio-instructions,139,812851,0.0-114.0,voc_e2,12216,"[{""event"":""fullscreenenter"",""trial"":1,""time"":1817}]",NA,31578.599999964237,static/audio/pause.wav,NA,0,NA,NA,NA,NA,NA,NA,NA,NA,NA,NA,NA,NA,NA,NA,NA,NA,NA,NA,NA,NA,NA,NA,NA,NA,NA
fcp-trial,140,816289,0.0-115.0-0.0,voc_e2,12216,"[{""event"":""fullscreenenter"",""trial"":1,""time"":1817}]",NA,NA,NA,NA,NA,2,#3386FF,#D89F1C,10,10,0,40,0,1563,37,1,365.19999998807907,10,0,experiment,NA,NA,2,0.5,0.5,5,4,106,3,NA
fcp-trial,141,818960,0.0-116.0-0.0,voc_e2,12216,"[{""event"":""fullscreenenter"",""trial"":1,""time"":1817}]",NA,NA,NA,NA,NA,4,#FA92F8,#1CD855,10,0,1,38,1,808.6999999880791,37,1,355,10,1,experiment,NA,NA,0,0.9,0.1,0,1,107,3,NA
fcp-trial,142,822125,0.0-117.0-0.0,voc_e2,12216,"[{""event"":""fullscreenenter"",""trial"":1,""time"":1817}]",NA,NA,NA,NA,NA,1,#D89F1C,#3386FF,0,10,1,40,0,1307.699999988079,39,0,348.60000002384186,10,0,experiment,NA,NA,2,0.5,0.5,4,5,108,3,NA
fcp-trial,143,824983,0.0-118.0-0.0,voc_e2,12216,"[{""event"":""fullscreenenter"",""trial"":1,""time"":1817}]",NA,NA,NA,NA,NA,6,#741CD8,#D8271C,0,0,1,40,0,965.1000000238419,37,1,385.89999997615814,0,1,experiment,NA,NA,1,0.7,0.3,2,3,109,3,NA
fcp-trial,144,827763,0.0-119.0-0.0,voc_e2,12216,"[{""event"":""fullscreenenter"",""trial"":1,""time"":1817}]",NA,NA,NA,NA,NA,4,#741CD8,#D8271C,10,10,1,40,0,793.9000000357628,37,1,479.19999998807907,10,1,experiment,NA,NA,1,0.7,0.3,2,3,110,3,NA
fcp-trial,145,831322,0.0-120.0-0.0,voc_e2,12216,"[{""event"":""fullscreenenter"",""trial"":1,""time"":1817}]",NA,NA,NA,NA,NA,6,#FA92F8,#1CD855,10,0,1,38,1,1457.6000000238419,37,1,591.7999999523163,10,1,experiment,NA,NA,0,0.9,0.1,0,1,111,3,NA
fcp-trial,146,838246,0.0-121.0-0.0,voc_e2,12216,"[{""event"":""fullscreenenter"",""trial"":1,""time"":1817}]",NA,NA,NA,NA,NA,5,#3386FF,#D89F1C,0,0,0,40,0,4862.199999988079,39,0,552.8999999761581,0,1,experiment,NA,NA,2,0.5,0.5,5,4,112,3,NA
fcp-trial,147,842856,0.0-122.0-0.0,voc_e2,12216,"[{""event"":""fullscreenenter"",""trial"":1,""time"":1817}]",NA,NA,NA,NA,NA,0,#741CD8,#D8271C,0,0,1,38,1,2475,37,1,626.1999999880791,0,1,experiment,NA,NA,1,0.7,0.3,2,3,113,3,NA
fcp-trial,148,846572,0.0-123.0-0.0,voc_e2,12216,"[{""event"":""fullscreenenter"",""trial"":1,""time"":1817}]",NA,NA,NA,NA,NA,3,#D8271C,#741CD8,10,10,0,40,0,1801.2000000476837,39,0,404.89999997615814,10,1,experiment,NA,NA,1,0.3,0.7,3,2,114,3,NA
fcp-trial,149,850260,0.0-124.0-0.0,voc_e2,12216,"[{""event"":""fullscreenenter"",""trial"":1,""time"":1817}]",NA,NA,NA,NA,NA,1,#FA92F8,#1CD855,10,0,1,38,1,1731.6000000238419,37,1,446.2000000476837,10,1,experiment,NA,NA,0,0.9,0.1,0,1,115,3,NA
fcp-trial,150,853224,0.0-125.0-0.0,voc_e2,12216,"[{""event"":""fullscreenenter"",""trial"":1,""time"":1817}]",NA,NA,NA,NA,NA,0,#1CD855,#FA92F8,0,10,0,38,1,1017,39,0,441.0999999642372,10,1,experiment,NA,NA,0,0.1,0.9,1,0,116,3,NA
fcp-trial,151,856063,0.0-126.0-0.0,voc_e2,12216,"[{""event"":""fullscreenenter"",""trial"":1,""time"":1817}]",NA,NA,NA,NA,NA,3,#D89F1C,#3386FF,10,10,1,40,0,894.6999999880791,39,0,434,10,0,experiment,NA,NA,2,0.5,0.5,4,5,117,3,NA
fcp-trial,152,861454,0.0-127.0-0.0,voc_e2,12216,"[{""event"":""fullscreenenter"",""trial"":1,""time"":1817}]",NA,NA,NA,NA,NA,1,#741CD8,#D8271C,10,0,1,40,0,3387.5,39,0,496.60000002384186,0,0,experiment,NA,NA,1,0.7,0.3,2,3,118,3,NA
fcp-trial,153,865708,0.0-128.0-0.0,voc_e2,12216,"[{""event"":""fullscreenenter"",""trial"":1,""time"":1817}]",NA,NA,NA,NA,NA,2,#FA92F8,#1CD855,10,0,1,38,1,1735.800000011921,37,1,1011.1999999880791,10,1,experiment,NA,NA,0,0.9,0.1,0,1,119,3,NA
fcp-trial,154,870689,0.0-129.0-0.0,voc_e2,12216,"[{""event"":""fullscreenenter"",""trial"":1,""time"":1817}]",NA,NA,NA,NA,NA,5,#1CD855,#FA92F8,0,10,0,38,1,2491.099999964237,39,0,980.8999999761581,10,1,experiment,NA,NA,0,0.1,0.9,1,0,120,3,NA
fcp-trial,155,878311,0.0-130.0-0.0,voc_e2,12216,"[{""event"":""fullscreenenter"",""trial"":1,""time"":1817}]",NA,NA,NA,NA,NA,2,#741CD8,#D8271C,10,0,1,40,0,5642.5,39,0,468.10000002384186,0,0,experiment,NA,NA,1,0.7,0.3,2,3,121,3,NA
fcp-trial,156,881964,0.0-131.0-0.0,voc_e2,12216,"[{""event"":""fullscreenenter"",""trial"":1,""time"":1817}]",NA,NA,NA,NA,NA,0,#D89F1C,#3386FF,0,0,1,38,1,1476.699999988079,37,1,665.8000000119209,0,1,experiment,NA,NA,2,0.5,0.5,4,5,122,3,NA
fcp-trial,157,886508,0.0-132.0-0.0,voc_e2,12216,"[{""event"":""fullscreenenter"",""trial"":1,""time"":1817}]",NA,NA,NA,NA,NA,3,#FA92F8,#1CD855,10,0,1,38,1,2623.2000000476837,37,1,407.5,10,1,experiment,NA,NA,0,0.9,0.1,0,1,123,3,NA
fcp-trial,158,890612,0.0-133.0-0.0,voc_e2,12216,"[{""event"":""fullscreenenter"",""trial"":1,""time"":1817}]",NA,NA,NA,NA,NA,4,#3386FF,#D89F1C,10,0,0,40,0,1860.4000000357628,39,0,734.5,0,1,experiment,NA,NA,2,0.5,0.5,5,4,124,3,NA
fcp-trial,159,894443,0.0-134.0-0.0,voc_e2,12216,"[{""event"":""fullscreenenter"",""trial"":1,""time"":1817}]",NA,NA,NA,NA,NA,5,#741CD8,#D8271C,0,10,1,40,0,1894.800000011921,39,0,428.30000001192093,10,0,experiment,NA,NA,1,0.7,0.3,2,3,125,3,NA
fcp-trial,160,898030,0.0-135.0-0.0,voc_e2,12216,"[{""event"":""fullscreenenter"",""trial"":1,""time"":1817}]",NA,NA,NA,NA,NA,6,#D89F1C,#3386FF,10,0,1,40,0,1473.699999988079,39,0,605.8999999761581,0,0,experiment,NA,NA,2,0.5,0.5,4,5,126,3,NA
fcp-trial,161,903074,0.0-136.0-0.0,voc_e2,12216,"[{""event"":""fullscreenenter"",""trial"":1,""time"":1817}]",NA,NA,NA,NA,NA,0,#3386FF,#D89F1C,10,0,0,38,1,2692,37,1,843.8999999761581,10,0,experiment,NA,NA,2,0.5,0.5,5,4,127,3,NA
fcp-trial,162,906588,0.0-137.0-0.0,voc_e2,12216,"[{""event"":""fullscreenenter"",""trial"":1,""time"":1817}]",NA,NA,NA,NA,NA,1,#FA92F8,#1CD855,10,0,1,38,1,1484.2000000476837,37,1,523.8999999761581,10,1,experiment,NA,NA,0,0.9,0.1,0,1,128,3,NA
fcp-trial,163,909820,0.0-138.0-0.0,voc_e2,12216,"[{""event"":""fullscreenenter"",""trial"":1,""time"":1817}]",NA,NA,NA,NA,NA,3,#1CD855,#FA92F8,10,10,0,38,1,1130.300000011921,39,0,593.1999999880791,10,1,experiment,NA,NA,0,0.1,0.9,1,0,129,3,NA
fcp-trial,164,912797,0.0-139.0-0.0,voc_e2,12216,"[{""event"":""fullscreenenter"",""trial"":1,""time"":1817}]",NA,NA,NA,NA,NA,6,#D89F1C,#3386FF,0,0,1,40,0,939.8999999761581,39,0,530.6000000238419,0,0,experiment,NA,NA,2,0.5,0.5,4,5,130,3,NA
fcp-trial,165,916134,0.0-140.0-0.0,voc_e2,12216,"[{""event"":""fullscreenenter"",""trial"":1,""time"":1817}]",NA,NA,NA,NA,NA,5,#741CD8,#D8271C,10,0,1,40,0,1309,39,0,519.5,0,0,experiment,NA,NA,1,0.7,0.3,2,3,131,3,NA
fcp-trial,166,919994,0.0-141.0-0.0,voc_e2,12216,"[{""event"":""fullscreenenter"",""trial"":1,""time"":1817}]",NA,NA,NA,NA,NA,3,#D89F1C,#3386FF,10,0,1,40,0,1749,37,1,600.6999999880791,10,1,experiment,NA,NA,2,0.5,0.5,4,5,132,3,NA
fcp-trial,167,924189,0.0-142.0-0.0,voc_e2,12216,"[{""event"":""fullscreenenter"",""trial"":1,""time"":1817}]",NA,NA,NA,NA,NA,0,#FA92F8,#1CD855,10,0,1,38,1,1785.699999988079,37,1,900,10,1,experiment,NA,NA,0,0.9,0.1,0,1,133,3,NA
fcp-trial,168,927994,0.0-143.0-0.0,voc_e2,12216,"[{""event"":""fullscreenenter"",""trial"":1,""time"":1817}]",NA,NA,NA,NA,NA,1,#D89F1C,#3386FF,0,10,1,38,1,1677.800000011921,39,0,616.3000000119209,10,0,experiment,NA,NA,2,0.5,0.5,4,5,134,3,NA
fcp-trial,169,932644,0.0-144.0-0.0,voc_e2,12216,"[{""event"":""fullscreenenter"",""trial"":1,""time"":1817}]",NA,NA,NA,NA,NA,6,#1CD855,#FA92F8,0,10,0,40,0,2558.2999999523163,37,1,581.4000000357628,0,0,experiment,NA,NA,0,0.1,0.9,1,0,135,3,NA
fcp-trial,170,936183,0.0-145.0-0.0,voc_e2,12216,"[{""event"":""fullscreenenter"",""trial"":1,""time"":1817}]",NA,NA,NA,NA,NA,6,#D8271C,#741CD8,0,10,0,40,0,1548.0999999642372,37,1,480.5,0,0,experiment,NA,NA,1,0.3,0.7,3,2,136,4,NA
fcp-trial,171,939768,0.0-146.0-0.0,voc_e2,12216,"[{""event"":""fullscreenenter"",""trial"":1,""time"":1817}]",NA,NA,NA,NA,NA,4,#3386FF,#D89F1C,0,10,0,40,0,1563.7000000476837,37,1,514.8000000119209,0,0,experiment,NA,NA,2,0.5,0.5,5,4,137,4,NA
fcp-trial,172,943605,0.0-147.0-0.0,voc_e2,12216,"[{""event"":""fullscreenenter"",""trial"":1,""time"":1817}]",NA,NA,NA,NA,NA,5,#FA92F8,#1CD855,10,0,1,38,1,1930.699999988079,37,1,399.5999999642372,10,1,experiment,NA,NA,0,0.9,0.1,0,1,138,4,NA
fcp-trial,173,947867,0.0-148.0-0.0,voc_e2,12216,"[{""event"":""fullscreenenter"",""trial"":1,""time"":1817}]",NA,NA,NA,NA,NA,2,#D8271C,#741CD8,0,0,0,40,0,2291.399999976158,39,0,463.60000002384186,0,1,experiment,NA,NA,1,0.3,0.7,3,2,139,4,NA
fcp-trial,174,953042,0.0-149.0-0.0,voc_e2,12216,"[{""event"":""fullscreenenter"",""trial"":1,""time"":1817}]",NA,NA,NA,NA,NA,2,#FA92F8,#1CD855,10,0,1,38,1,3182.300000011921,37,1,483.39999997615814,10,1,experiment,NA,NA,0,0.9,0.1,0,1,140,4,NA
fcp-trial,175,958216,0.0-150.0-0.0,voc_e2,12216,"[{""event"":""fullscreenenter"",""trial"":1,""time"":1817}]",NA,NA,NA,NA,NA,0,#741CD8,#D8271C,10,0,1,38,1,3066,37,1,599.3000000119209,10,1,experiment,NA,NA,1,0.7,0.3,2,3,141,4,NA
fcp-trial,176,961543,0.0-151.0-0.0,voc_e2,12216,"[{""event"":""fullscreenenter"",""trial"":1,""time"":1817}]",NA,NA,NA,NA,NA,2,#D89F1C,#3386FF,0,10,1,40,0,1085.2999999523163,37,1,732.3000000119209,0,1,experiment,NA,NA,2,0.5,0.5,4,5,142,4,NA
fcp-trial,177,966512,0.0-152.0-0.0,voc_e2,12216,"[{""event"":""fullscreenenter"",""trial"":1,""time"":1817}]",NA,NA,NA,NA,NA,4,#D8271C,#741CD8,0,10,0,40,0,2958.600000023842,39,0,496.30000001192093,10,1,experiment,NA,NA,1,0.3,0.7,3,2,143,4,NA
fcp-trial,178,970844,0.0-153.0-0.0,voc_e2,12216,"[{""event"":""fullscreenenter"",""trial"":1,""time"":1817}]",NA,NA,NA,NA,NA,4,#1CD855,#FA92F8,0,0,0,38,1,2055,39,0,765.4000000357628,0,1,experiment,NA,NA,0,0.1,0.9,1,0,144,4,NA
fcp-trial,179,974912,0.0-154.0-0.0,voc_e2,12216,"[{""event"":""fullscreenenter"",""trial"":1,""time"":1817}]",NA,NA,NA,NA,NA,1,#741CD8,#D8271C,0,10,1,40,0,2035.9000000357628,37,1,522.1999999880791,0,1,experiment,NA,NA,1,0.7,0.3,2,3,145,4,NA
fcp-trial,180,978271,0.0-155.0-0.0,voc_e2,12216,"[{""event"":""fullscreenenter"",""trial"":1,""time"":1817}]",NA,NA,NA,NA,NA,5,#3386FF,#D89F1C,10,10,0,40,0,1362.4000000357628,39,0,486.5999999642372,10,1,experiment,NA,NA,2,0.5,0.5,5,4,146,4,NA
fcp-trial,181,982603,0.0-156.0-0.0,voc_e2,12216,"[{""event"":""fullscreenenter"",""trial"":1,""time"":1817}]",NA,NA,NA,NA,NA,3,#741CD8,#D8271C,10,0,1,40,0,2116.5,37,1,705.1999999880791,10,1,experiment,NA,NA,1,0.7,0.3,2,3,147,4,NA
fcp-trial,182,993561,0.0-157.0-0.0,voc_e2,12216,"[{""event"":""fullscreenenter"",""trial"":1,""time"":1817}]",NA,NA,NA,NA,NA,1,#FA92F8,#1CD855,10,0,1,38,1,9162.199999988079,37,1,290.69999998807907,10,1,experiment,NA,NA,0,0.9,0.1,0,1,148,4,NA
fcp-trial,183,997556,0.0-158.0-0.0,voc_e2,12216,"[{""event"":""fullscreenenter"",""trial"":1,""time"":1817}]",NA,NA,NA,NA,NA,3,#D89F1C,#3386FF,10,0,1,40,0,1883.300000011921,37,1,601.9000000357628,10,1,experiment,NA,NA,2,0.5,0.5,4,5,149,4,NA
fcp-trial,184,1004907,0.0-159.0-0.0,voc_e2,12216,"[{""event"":""fullscreenenter"",""trial"":1,""time"":1817}]",NA,NA,NA,NA,NA,6,#741CD8,#D8271C,10,0,1,40,0,5361.400000035763,37,1,481.60000002384186,10,1,experiment,NA,NA,1,0.7,0.3,2,3,150,4,NA
fcp-trial,185,1008664,0.0-160.0-0.0,voc_e2,12216,"[{""event"":""fullscreenenter"",""trial"":1,""time"":1817}]",NA,NA,NA,NA,NA,6,#FA92F8,#1CD855,10,0,1,38,1,1825.6000000238419,37,1,424.5,10,1,experiment,NA,NA,0,0.9,0.1,0,1,151,4,NA
fcp-trial,186,1023668,0.0-161.0-0.0,voc_e2,12216,"[{""event"":""fullscreenenter"",""trial"":1,""time"":1817}]",NA,NA,NA,NA,NA,5,#D8271C,#741CD8,0,10,0,null,null,null,null,null,null,NA,0,experiment,NA,NA,1,0.3,0.7,3,2,152,4,NA
fcp-trial,187,1027084,0.0-162.0-0.0,voc_e2,12216,"[{""event"":""fullscreenenter"",""trial"":1,""time"":1817}]",NA,NA,NA,NA,NA,6,#D89F1C,#3386FF,10,10,1,40,0,1410.300000011921,37,1,499.5999999642372,10,1,experiment,NA,NA,2,0.5,0.5,4,5,153,4,NA
fcp-trial,188,1031357,0.0-163.0-0.0,voc_e2,12216,"[{""event"":""fullscreenenter"",""trial"":1,""time"":1817}]",NA,NA,NA,NA,NA,4,#D8271C,#741CD8,0,10,0,40,0,2230.199999988079,39,0,535.5,10,1,experiment,NA,NA,1,0.3,0.7,3,2,154,4,NA
fcp-trial,189,1035822,0.0-164.0-0.0,voc_e2,12216,"[{""event"":""fullscreenenter"",""trial"":1,""time"":1817}]",NA,NA,NA,NA,NA,5,#FA92F8,#1CD855,10,0,1,38,1,2513.199999988079,37,1,440.10000002384186,10,1,experiment,NA,NA,0,0.9,0.1,0,1,155,4,NA
fcp-trial,190,1039716,0.0-165.0-0.0,voc_e2,12216,"[{""event"":""fullscreenenter"",""trial"":1,""time"":1817}]",NA,NA,NA,NA,NA,4,#3386FF,#D89F1C,10,10,0,40,0,1853.2000000476837,39,0,536.1000000238419,10,1,experiment,NA,NA,2,0.5,0.5,5,4,156,4,NA
fcp-trial,191,1044895,0.0-166.0-0.0,voc_e2,12216,"[{""event"":""fullscreenenter"",""trial"":1,""time"":1817}]",NA,NA,NA,NA,NA,1,#741CD8,#D8271C,10,0,1,40,0,3081,39,0,591.7999999523163,0,0,experiment,NA,NA,1,0.7,0.3,2,3,157,4,NA
fcp-trial,192,1048487,0.0-167.0-0.0,voc_e2,12216,"[{""event"":""fullscreenenter"",""trial"":1,""time"":1817}]",NA,NA,NA,NA,NA,1,#3386FF,#D89F1C,10,10,0,40,0,1561.1000000238419,39,0,521.7999999523163,10,1,experiment,NA,NA,2,0.5,0.5,5,4,158,4,NA
fcp-trial,193,1053886,0.0-168.0-0.0,voc_e2,12216,"[{""event"":""fullscreenenter"",""trial"":1,""time"":1817}]",NA,NA,NA,NA,NA,3,#741CD8,#D8271C,10,10,1,38,1,2270,37,1,1620.7999999523163,10,1,experiment,NA,NA,1,0.7,0.3,2,3,159,4,NA
fcp-trial,194,1057790,0.0-169.0-0.0,voc_e2,12216,"[{""event"":""fullscreenenter"",""trial"":1,""time"":1817}]",NA,NA,NA,NA,NA,3,#FA92F8,#1CD855,10,0,1,38,1,1953.2000000476837,37,1,442.89999997615814,10,1,experiment,NA,NA,0,0.9,0.1,0,1,160,4,NA
fcp-trial,195,1063841,0.0-170.0-0.0,voc_e2,12216,"[{""event"":""fullscreenenter"",""trial"":1,""time"":1817}]",NA,NA,NA,NA,NA,0,#D8271C,#741CD8,0,0,0,40,0,3846.699999988079,37,1,694.8000000119209,0,0,experiment,NA,NA,1,0.3,0.7,3,2,161,4,NA
fcp-trial,196,1066769,0.0-171.0-0.0,voc_e2,12216,"[{""event"":""fullscreenenter"",""trial"":1,""time"":1817}]",NA,NA,NA,NA,NA,5,#D89F1C,#3386FF,10,0,1,40,0,904.8000000119209,39,0,509.0999999642372,0,0,experiment,NA,NA,2,0.5,0.5,4,5,162,4,NA
fcp-trial,197,1069905,0.0-172.0-0.0,voc_e2,12216,"[{""event"":""fullscreenenter"",""trial"":1,""time"":1817}]",NA,NA,NA,NA,NA,2,#3386FF,#D89F1C,0,0,0,40,0,854.1000000238419,37,1,775.3999999761581,0,0,experiment,NA,NA,2,0.5,0.5,5,4,163,4,NA
fcp-trial,198,1073112,0.0-173.0-0.0,voc_e2,12216,"[{""event"":""fullscreenenter"",""trial"":1,""time"":1817}]",NA,NA,NA,NA,NA,4,#FA92F8,#1CD855,10,0,1,38,1,1197.800000011921,37,1,503.30000001192093,10,1,experiment,NA,NA,0,0.9,0.1,0,1,164,4,NA
fcp-trial,199,1076117,0.0-174.0-0.0,voc_e2,12216,"[{""event"":""fullscreenenter"",""trial"":1,""time"":1817}]",NA,NA,NA,NA,NA,2,#FA92F8,#1CD855,10,0,1,38,1,951.1999999880791,37,1,544.2000000476837,10,1,experiment,NA,NA,0,0.9,0.1,0,1,165,4,NA
fcp-trial,200,1079210,0.0-175.0-0.0,voc_e2,12216,"[{""event"":""fullscreenenter"",""trial"":1,""time"":1817}]",NA,NA,NA,NA,NA,2,#741CD8,#D8271C,10,10,1,40,0,1084.199999988079,39,0,503.39999997615814,10,0,experiment,NA,NA,1,0.7,0.3,2,3,166,4,NA
fcp-trial,201,1083558,0.0-176.0-0.0,voc_e2,12216,"[{""event"":""fullscreenenter"",""trial"":1,""time"":1817}]",NA,NA,NA,NA,NA,0,#3386FF,#D89F1C,0,0,0,38,1,2340,37,1,499.7000000476837,0,0,experiment,NA,NA,2,0.5,0.5,5,4,167,4,NA
fcp-trial,202,1086473,0.0-177.0-0.0,voc_e2,12216,"[{""event"":""fullscreenenter"",""trial"":1,""time"":1817}]",NA,NA,NA,NA,NA,0,#1CD855,#FA92F8,0,10,0,38,1,906.3000000119209,39,0,500.60000002384186,10,1,experiment,NA,NA,0,0.1,0.9,1,0,168,4,NA
fcp-trial,203,1089636,0.0-178.0-0.0,voc_e2,12216,"[{""event"":""fullscreenenter"",""trial"":1,""time"":1817}]",NA,NA,NA,NA,NA,3,#1CD855,#FA92F8,0,10,0,38,1,950.1999999880791,39,0,703.3000000119209,10,1,experiment,NA,NA,0,0.1,0.9,1,0,169,4,NA
fcp-trial,204,1095144,0.0-179.0-0.0,voc_e2,12216,"[{""event"":""fullscreenenter"",""trial"":1,""time"":1817}]",NA,NA,NA,NA,NA,2,#D89F1C,#3386FF,10,0,1,40,0,3407.600000023842,37,1,596.3999999761581,10,1,experiment,NA,NA,2,0.5,0.5,4,5,170,4,NA
fcp-trial,205,1098136,0.0-180.0-0.0,voc_e2,12216,"[{""event"":""fullscreenenter"",""trial"":1,""time"":1817}]",NA,NA,NA,NA,NA,6,#3386FF,#D89F1C,0,10,0,40,0,995.8999999761581,39,0,489,10,1,experiment,NA,NA,2,0.5,0.5,5,4,171,4,NA
fcp-trial,206,1101361,0.0-181.0-0.0,voc_e2,12216,"[{""event"":""fullscreenenter"",""trial"":1,""time"":1817}]",NA,NA,NA,NA,NA,4,#1CD855,#FA92F8,0,10,0,38,1,1230.800000011921,39,0,488,10,1,experiment,NA,NA,0,0.1,0.9,1,0,172,4,NA
fcp-trial,207,1105022,0.0-182.0-0.0,voc_e2,12216,"[{""event"":""fullscreenenter"",""trial"":1,""time"":1817}]",NA,NA,NA,NA,NA,4,#D8271C,#741CD8,0,10,0,40,0,1658.8999999761581,39,0,493.5999999642372,10,1,experiment,NA,NA,1,0.3,0.7,3,2,173,4,NA
fcp-trial,208,1108789,0.0-183.0-0.0,voc_e2,12216,"[{""event"":""fullscreenenter"",""trial"":1,""time"":1817}]",NA,NA,NA,NA,NA,0,#D8271C,#741CD8,0,10,0,38,1,1442,39,0,817.6000000238419,10,1,experiment,NA,NA,1,0.3,0.7,3,2,174,4,NA
fcp-trial,209,1113249,0.0-184.0-0.0,voc_e2,12216,"[{""event"":""fullscreenenter"",""trial"":1,""time"":1817}]",NA,NA,NA,NA,NA,0,#3386FF,#D89F1C,10,0,0,38,1,2277.5,37,1,674.7000000476837,10,0,experiment,NA,NA,2,0.5,0.5,5,4,175,4,NA
fcp-trial,210,1116462,0.0-185.0-0.0,voc_e2,12216,"[{""event"":""fullscreenenter"",""trial"":1,""time"":1817}]",NA,NA,NA,NA,NA,1,#741CD8,#D8271C,10,10,1,40,0,1283.1000000238419,37,1,419.5,10,1,experiment,NA,NA,1,0.7,0.3,2,3,176,4,NA
fcp-trial,211,1119746,0.0-186.0-0.0,voc_e2,12216,"[{""event"":""fullscreenenter"",""trial"":1,""time"":1817}]",NA,NA,NA,NA,NA,2,#FA92F8,#1CD855,10,0,1,40,0,1268.3999999761581,37,1,510,10,1,experiment,NA,NA,0,0.9,0.1,0,1,177,4,NA
fcp-trial,212,1122976,0.0-187.0-0.0,voc_e2,12216,"[{""event"":""fullscreenenter"",""trial"":1,""time"":1817}]",NA,NA,NA,NA,NA,4,#3386FF,#D89F1C,0,0,0,40,0,1246.5,39,0,474.9000000357628,0,1,experiment,NA,NA,2,0.5,0.5,5,4,178,4,NA
fcp-trial,213,1126234,0.0-188.0-0.0,voc_e2,12216,"[{""event"":""fullscreenenter"",""trial"":1,""time"":1817}]",NA,NA,NA,NA,NA,6,#741CD8,#D8271C,10,10,1,40,0,1274.1000000238419,39,0,476.80000001192093,10,0,experiment,NA,NA,1,0.7,0.3,2,3,179,4,NA
fcp-trial,214,1129237,0.0-189.0-0.0,voc_e2,12216,"[{""event"":""fullscreenenter"",""trial"":1,""time"":1817}]",NA,NA,NA,NA,NA,5,#D8271C,#741CD8,10,10,0,40,0,1065.4000000357628,39,0,430.30000001192093,10,1,experiment,NA,NA,1,0.3,0.7,3,2,180,4,NA
fcp-trial,215,1132303,0.0-190.0-0.0,voc_e2,12216,"[{""event"":""fullscreenenter"",""trial"":1,""time"":1817}]",NA,NA,NA,NA,NA,5,#FA92F8,#1CD855,0,0,1,38,1,918.0999999642372,37,1,641,0,1,experiment,NA,NA,0,0.9,0.1,0,1,181,5,NA
fcp-trial,216,1135149,0.0-191.0-0.0,voc_e2,12216,"[{""event"":""fullscreenenter"",""trial"":1,""time"":1817}]",NA,NA,NA,NA,NA,6,#1CD855,#FA92F8,0,10,0,38,1,771.3999999761581,39,0,565.8999999761581,10,1,experiment,NA,NA,0,0.1,0.9,1,0,182,5,NA
fcp-trial,217,1138164,0.0-192.0-0.0,voc_e2,12216,"[{""event"":""fullscreenenter"",""trial"":1,""time"":1817}]",NA,NA,NA,NA,NA,1,#3386FF,#D89F1C,0,10,0,40,0,984.3000000119209,37,1,523.8000000119209,0,0,experiment,NA,NA,2,0.5,0.5,5,4,183,5,NA
fcp-trial,218,1141223,0.0-193.0-0.0,voc_e2,12216,"[{""event"":""fullscreenenter"",""trial"":1,""time"":1817}]",NA,NA,NA,NA,NA,3,#D8271C,#741CD8,0,10,0,40,0,1017.8999999761581,39,0,534.2000000476837,10,1,experiment,NA,NA,1,0.3,0.7,3,2,184,5,NA
fcp-trial,219,1144374,0.0-194.0-0.0,voc_e2,12216,"[{""event"":""fullscreenenter"",""trial"":1,""time"":1817}]",NA,NA,NA,NA,NA,5,#D89F1C,#3386FF,0,0,1,40,0,1084.699999988079,37,1,558.1999999880791,0,1,experiment,NA,NA,2,0.5,0.5,4,5,185,5,NA
fcp-trial,220,1147723,0.0-195.0-0.0,voc_e2,12216,"[{""event"":""fullscreenenter"",""trial"":1,""time"":1817}]",NA,NA,NA,NA,NA,0,#FA92F8,#1CD855,10,0,1,38,1,1367.0999999642372,37,1,475,10,1,experiment,NA,NA,0,0.9,0.1,0,1,186,5,NA
fcp-trial,221,1151455,0.0-196.0-0.0,voc_e2,12216,"[{""event"":""fullscreenenter"",""trial"":1,""time"":1817}]",NA,NA,NA,NA,NA,1,#FA92F8,#1CD855,10,0,1,38,1,1673.0999999642372,37,1,549,10,1,experiment,NA,NA,0,0.9,0.1,0,1,187,5,NA
fcp-trial,222,1155547,0.0-197.0-0.0,voc_e2,12216,"[{""event"":""fullscreenenter"",""trial"":1,""time"":1817}]",NA,NA,NA,NA,NA,2,#D8271C,#741CD8,0,10,0,40,0,2133.899999976158,37,1,450.5999999642372,0,0,experiment,NA,NA,1,0.3,0.7,3,2,188,5,NA
fcp-trial,223,1159105,0.0-198.0-0.0,voc_e2,12216,"[{""event"":""fullscreenenter"",""trial"":1,""time"":1817}]",NA,NA,NA,NA,NA,3,#D89F1C,#3386FF,0,10,1,40,0,1491.5,37,1,559.8000000119209,0,1,experiment,NA,NA,2,0.5,0.5,4,5,189,5,NA
fcp-trial,224,1162346,0.0-199.0-0.0,voc_e2,12216,"[{""event"":""fullscreenenter"",""trial"":1,""time"":1817}]",NA,NA,NA,NA,NA,1,#1CD855,#FA92F8,0,10,0,38,1,1148.199999988079,39,0,584.3000000119209,10,1,experiment,NA,NA,0,0.1,0.9,1,0,190,5,NA
fcp-trial,225,1167387,0.0-200.0-0.0,voc_e2,12216,"[{""event"":""fullscreenenter"",""trial"":1,""time"":1817}]",NA,NA,NA,NA,NA,4,#3386FF,#D89F1C,10,10,0,40,0,3016.5,39,0,516,10,1,experiment,NA,NA,2,0.5,0.5,5,4,191,5,NA
fcp-trial,226,1171316,0.0-201.0-0.0,voc_e2,12216,"[{""event"":""fullscreenenter"",""trial"":1,""time"":1817}]",NA,NA,NA,NA,NA,1,#D8271C,#741CD8,0,10,0,40,0,1933.5999999642372,39,0,488,10,1,experiment,NA,NA,1,0.3,0.7,3,2,192,5,NA
fcp-trial,227,1174874,0.0-202.0-0.0,voc_e2,12216,"[{""event"":""fullscreenenter"",""trial"":1,""time"":1817}]",NA,NA,NA,NA,NA,1,#3386FF,#D89F1C,10,0,0,40,0,1509.6000000238419,37,1,540.8000000119209,10,0,experiment,NA,NA,2,0.5,0.5,5,4,193,5,NA
fcp-trial,228,1178194,0.0-203.0-0.0,voc_e2,12216,"[{""event"":""fullscreenenter"",""trial"":1,""time"":1817}]",NA,NA,NA,NA,NA,2,#D89F1C,#3386FF,0,0,1,40,0,1205.199999988079,39,0,608.1999999880791,0,0,experiment,NA,NA,2,0.5,0.5,4,5,194,5,NA
fcp-trial,229,1184517,0.0-204.0-0.0,voc_e2,12216,"[{""event"":""fullscreenenter"",""trial"":1,""time"":1817}]",NA,NA,NA,NA,NA,2,#1CD855,#FA92F8,0,10,0,38,1,4043.399999976158,39,0,772.1999999880791,10,1,experiment,NA,NA,0,0.1,0.9,1,0,195,5,NA
fcp-trial,230,1191306,0.0-205.0-0.0,voc_e2,12216,"[{""event"":""fullscreenenter"",""trial"":1,""time"":1817}]",NA,NA,NA,NA,NA,3,#1CD855,#FA92F8,10,0,0,38,1,4751,39,0,529.3000000119209,0,1,experiment,NA,NA,0,0.1,0.9,1,0,196,5,NA
fcp-trial,231,1197903,0.0-206.0-0.0,voc_e2,12216,"[{""event"":""fullscreenenter"",""trial"":1,""time"":1817}]",NA,NA,NA,NA,NA,0,#741CD8,#D8271C,0,0,1,40,0,4523.800000011921,39,0,556.3999999761581,0,0,experiment,NA,NA,1,0.7,0.3,2,3,197,5,NA
fcp-trial,232,1201304,0.0-207.0-0.0,voc_e2,12216,"[{""event"":""fullscreenenter"",""trial"":1,""time"":1817}]",NA,NA,NA,NA,NA,6,#741CD8,#D8271C,0,0,1,40,0,1447.699999988079,39,0,448.89999997615814,0,0,experiment,NA,NA,1,0.7,0.3,2,3,198,5,NA
fcp-trial,233,1204185,0.0-208.0-0.0,voc_e2,12216,"[{""event"":""fullscreenenter"",""trial"":1,""time"":1817}]",NA,NA,NA,NA,NA,5,#D89F1C,#3386FF,10,10,1,40,0,961.9000000357628,39,0,409.9000000357628,10,0,experiment,NA,NA,2,0.5,0.5,4,5,199,5,NA
fcp-trial,234,1211238,0.0-209.0-0.0,voc_e2,12216,"[{""event"":""fullscreenenter"",""trial"":1,""time"":1817}]",NA,NA,NA,NA,NA,4,#D8271C,#741CD8,10,10,0,40,0,4914.800000011921,37,1,631,10,0,experiment,NA,NA,1,0.3,0.7,3,2,200,5,NA
fcp-trial,235,1216786,0.0-210.0-0.0,voc_e2,12216,"[{""event"":""fullscreenenter"",""trial"":1,""time"":1817}]",NA,NA,NA,NA,NA,0,#1CD855,#FA92F8,0,10,0,38,1,3464.900000035763,39,0,574.3999999761581,10,1,experiment,NA,NA,0,0.1,0.9,1,0,201,5,NA
fcp-trial,236,1219918,0.0-211.0-0.0,voc_e2,12216,"[{""event"":""fullscreenenter"",""trial"":1,""time"":1817}]",NA,NA,NA,NA,NA,5,#741CD8,#D8271C,0,0,1,40,0,1009.5,39,0,613.9000000357628,0,0,experiment,NA,NA,1,0.7,0.3,2,3,202,5,NA
fcp-trial,237,1223990,0.0-212.0-0.0,voc_e2,12216,"[{""event"":""fullscreenenter"",""trial"":1,""time"":1817}]",NA,NA,NA,NA,NA,4,#1CD855,#FA92F8,0,10,0,38,1,2187.899999976158,39,0,378.9000000357628,10,1,experiment,NA,NA,0,0.1,0.9,1,0,203,5,NA
fcp-trial,238,1229326,0.0-213.0-0.0,voc_e2,12216,"[{""event"":""fullscreenenter"",""trial"":1,""time"":1817}]",NA,NA,NA,NA,NA,0,#D89F1C,#3386FF,10,0,1,38,1,3234.199999988079,39,0,594.5,0,0,experiment,NA,NA,2,0.5,0.5,4,5,204,5,NA
fcp-trial,239,1232286,0.0-214.0-0.0,voc_e2,12216,"[{""event"":""fullscreenenter"",""trial"":1,""time"":1817}]",NA,NA,NA,NA,NA,3,#3386FF,#D89F1C,0,10,0,40,0,952,39,0,497.5,10,1,experiment,NA,NA,2,0.5,0.5,5,4,205,5,NA
fcp-trial,240,1235857,0.0-215.0-0.0,voc_e2,12216,"[{""event"":""fullscreenenter"",""trial"":1,""time"":1817}]",NA,NA,NA,NA,NA,3,#D8271C,#741CD8,10,10,0,40,0,1595.199999988079,39,0,463.60000002384186,10,1,experiment,NA,NA,1,0.3,0.7,3,2,206,5,NA
fcp-trial,241,1239802,0.0-216.0-0.0,voc_e2,12216,"[{""event"":""fullscreenenter"",""trial"":1,""time"":1817}]",NA,NA,NA,NA,NA,5,#FA92F8,#1CD855,10,0,1,38,1,1724.800000011921,37,1,715.5,10,1,experiment,NA,NA,0,0.9,0.1,0,1,207,5,NA
fcp-trial,242,1242816,0.0-217.0-0.0,voc_e2,12216,"[{""event"":""fullscreenenter"",""trial"":1,""time"":1817}]",NA,NA,NA,NA,NA,6,#3386FF,#D89F1C,0,10,0,40,0,987.1000000238419,39,0,521.5,10,1,experiment,NA,NA,2,0.5,0.5,5,4,208,5,NA
fcp-trial,243,1246418,0.0-218.0-0.0,voc_e2,12216,"[{""event"":""fullscreenenter"",""trial"":1,""time"":1817}]",NA,NA,NA,NA,NA,2,#D8271C,#741CD8,0,10,0,40,0,1599.0999999642372,39,0,495.4000000357628,10,1,experiment,NA,NA,1,0.3,0.7,3,2,209,5,NA
fcp-trial,244,1249885,0.0-219.0-0.0,voc_e2,12216,"[{""event"":""fullscreenenter"",""trial"":1,""time"":1817}]",NA,NA,NA,NA,NA,6,#1CD855,#FA92F8,0,10,0,38,1,1535.5,39,0,421.69999998807907,10,1,experiment,NA,NA,0,0.1,0.9,1,0,210,5,NA
audio-instructions,245,1370774,0.0-220.0,voc_e2,12216,"[{""event"":""fullscreenenter"",""trial"":1,""time"":1817}]",NA,116385.5,static/audio/pause.wav,NA,0,NA,NA,NA,NA,NA,NA,NA,NA,NA,NA,NA,NA,NA,NA,NA,NA,NA,NA,NA,NA,NA,NA,NA,NA,NA
fcp-trial,246,1373909,0.0-221.0-0.0,voc_e2,12216,"[{""event"":""fullscreenenter"",""trial"":1,""time"":1817}]",NA,NA,NA,NA,NA,4,#D89F1C,#3386FF,0,0,1,40,0,1190.699999988079,37,1,432.19999998807907,0,1,experiment,NA,NA,2,0.5,0.5,4,5,211,5,NA
fcp-trial,247,1376633,0.0-222.0-0.0,voc_e2,12216,"[{""event"":""fullscreenenter"",""trial"":1,""time"":1817}]",NA,NA,NA,NA,NA,5,#FA92F8,#1CD855,10,0,1,38,1,942.6999999880791,37,1,274.30000001192093,10,1,experiment,NA,NA,0,0.9,0.1,0,1,212,5,NA
fcp-trial,248,1379585,0.0-223.0-0.0,voc_e2,12216,"[{""event"":""fullscreenenter"",""trial"":1,""time"":1817}]",NA,NA,NA,NA,NA,6,#D8271C,#741CD8,0,10,0,40,0,952.0999999642372,39,0,488.80000001192093,10,1,experiment,NA,NA,1,0.3,0.7,3,2,213,5,NA
fcp-trial,249,1382963,0.0-224.0-0.0,voc_e2,12216,"[{""event"":""fullscreenenter"",""trial"":1,""time"":1817}]",NA,NA,NA,NA,NA,1,#3386FF,#D89F1C,10,10,0,40,0,1324.800000011921,37,1,545.5,10,0,experiment,NA,NA,2,0.5,0.5,5,4,214,5,NA
fcp-trial,250,1386603,0.0-225.0-0.0,voc_e2,12216,"[{""event"":""fullscreenenter"",""trial"":1,""time"":1817}]",NA,NA,NA,NA,NA,4,#FA92F8,#1CD855,10,0,1,38,1,1664.800000011921,37,1,469.30000001192093,10,1,experiment,NA,NA,0,0.9,0.1,0,1,215,5,NA
fcp-trial,251,1390147,0.0-226.0-0.0,voc_e2,12216,"[{""event"":""fullscreenenter"",""trial"":1,""time"":1817}]",NA,NA,NA,NA,NA,6,#FA92F8,#1CD855,10,0,1,38,1,1421.5,37,1,615.8999999761581,10,1,experiment,NA,NA,0,0.9,0.1,0,1,216,5,NA
fcp-trial,252,1393497,0.0-227.0-0.0,voc_e2,12216,"[{""event"":""fullscreenenter"",""trial"":1,""time"":1817}]",NA,NA,NA,NA,NA,2,#3386FF,#D89F1C,10,0,0,40,0,1392.2000000476837,37,1,449.69999998807907,10,0,experiment,NA,NA,2,0.5,0.5,5,4,217,5,NA
fcp-trial,253,1397182,0.0-228.0-0.0,voc_e2,12216,"[{""event"":""fullscreenenter"",""trial"":1,""time"":1817}]",NA,NA,NA,NA,NA,5,#D8271C,#741CD8,0,0,0,40,0,1475.0999999642372,39,0,698.4000000357628,0,1,experiment,NA,NA,1,0.3,0.7,3,2,218,5,NA
fcp-trial,254,1400637,0.0-229.0-0.0,voc_e2,12216,"[{""event"":""fullscreenenter"",""trial"":1,""time"":1817}]",NA,NA,NA,NA,NA,2,#741CD8,#D8271C,0,0,1,40,0,1443.800000011921,39,0,503.5,0,0,experiment,NA,NA,1,0.7,0.3,2,3,219,5,NA
fcp-trial,255,1404286,0.0-230.0-0.0,voc_e2,12216,"[{""event"":""fullscreenenter"",""trial"":1,""time"":1817}]",NA,NA,NA,NA,NA,3,#D89F1C,#3386FF,10,0,1,40,0,1689.5,39,0,451.5,0,0,experiment,NA,NA,2,0.5,0.5,4,5,220,5,NA
fcp-trial,256,1409498,0.0-231.0-0.0,voc_e2,12216,"[{""event"":""fullscreenenter"",""trial"":1,""time"":1817}]",NA,NA,NA,NA,NA,1,#FA92F8,#1CD855,10,0,1,38,1,3046,37,1,659,10,1,experiment,NA,NA,0,0.9,0.1,0,1,221,5,NA
fcp-trial,257,1412893,0.0-232.0-0.0,voc_e2,12216,"[{""event"":""fullscreenenter"",""trial"":1,""time"":1817}]",NA,NA,NA,NA,NA,5,#D89F1C,#3386FF,10,0,1,40,0,1467.5,39,0,419.5,0,0,experiment,NA,NA,2,0.5,0.5,4,5,222,5,NA
fcp-trial,258,1416125,0.0-233.0-0.0,voc_e2,12216,"[{""event"":""fullscreenenter"",""trial"":1,""time"":1817}]",NA,NA,NA,NA,NA,1,#D8271C,#741CD8,0,10,0,40,0,1251.3999999761581,37,1,473.30000001192093,0,0,experiment,NA,NA,1,0.3,0.7,3,2,223,5,NA
fcp-trial,259,1418980,0.0-234.0-0.0,voc_e2,12216,"[{""event"":""fullscreenenter"",""trial"":1,""time"":1817}]",NA,NA,NA,NA,NA,0,#FA92F8,#1CD855,10,0,1,38,1,763.8000000119209,37,1,582.3000000119209,10,1,experiment,NA,NA,0,0.9,0.1,0,1,224,5,NA
fcp-trial,260,1423169,0.0-235.0-0.0,voc_e2,12216,"[{""event"":""fullscreenenter"",""trial"":1,""time"":1817}]",NA,NA,NA,NA,NA,2,#FA92F8,#1CD855,10,0,1,38,1,2181.7999999523163,37,1,497.9000000357628,10,1,experiment,NA,NA,0,0.9,0.1,0,1,225,5,NA
fcp-trial,261,1426628,0.0-236.0-0.0,voc_e2,12216,"[{""event"":""fullscreenenter"",""trial"":1,""time"":1817}]",NA,NA,NA,NA,NA,0,#D8271C,#741CD8,0,10,0,38,1,1525.300000011921,39,0,423.10000002384186,10,1,experiment,NA,NA,1,0.3,0.7,3,2,226,6,NA
fcp-trial,262,1429962,0.0-237.0-0.0,voc_e2,12216,"[{""event"":""fullscreenenter"",""trial"":1,""time"":1817}]",NA,NA,NA,NA,NA,6,#3386FF,#D89F1C,10,0,0,40,0,1370.4000000357628,37,1,453.89999997615814,10,0,experiment,NA,NA,2,0.5,0.5,5,4,227,6,NA
fcp-trial,263,1434192,0.0-238.0-0.0,voc_e2,12216,"[{""event"":""fullscreenenter"",""trial"":1,""time"":1817}]",NA,NA,NA,NA,NA,4,#D8271C,#741CD8,0,0,0,40,0,2119.900000035763,37,1,601.8999999761581,0,0,experiment,NA,NA,1,0.3,0.7,3,2,228,6,NA
fcp-trial,264,1437391,0.0-239.0-0.0,voc_e2,12216,"[{""event"":""fullscreenenter"",""trial"":1,""time"":1817}]",NA,NA,NA,NA,NA,3,#FA92F8,#1CD855,10,0,1,40,0,1152.800000011921,39,0,537.5,0,0,experiment,NA,NA,0,0.9,0.1,0,1,229,6,NA
fcp-trial,265,1440646,0.0-240.0-0.0,voc_e2,12216,"[{""event"":""fullscreenenter"",""trial"":1,""time"":1817}]",NA,NA,NA,NA,NA,3,#D8271C,#741CD8,0,10,0,40,0,1250.800000011921,37,1,495.80000001192093,0,0,experiment,NA,NA,1,0.3,0.7,3,2,230,6,NA
fcp-trial,266,1447779,0.0-241.0-0.0,voc_e2,12216,"[{""event"":""fullscreenenter"",""trial"":1,""time"":1817}]",NA,NA,NA,NA,NA,0,#D89F1C,#3386FF,10,0,1,38,1,5056.799999952316,39,0,569.6000000238419,0,0,experiment,NA,NA,2,0.5,0.5,4,5,231,6,NA
fcp-trial,267,1450884,0.0-242.0-0.0,voc_e2,12216,"[{""event"":""fullscreenenter"",""trial"":1,""time"":1817}]",NA,NA,NA,NA,NA,0,#D89F1C,#3386FF,10,0,1,38,1,1096.2000000476837,37,1,502.4000000357628,10,1,experiment,NA,NA,2,0.5,0.5,4,5,232,6,NA
fcp-trial,268,1454775,0.0-243.0-0.0,voc_e2,12216,"[{""event"":""fullscreenenter"",""trial"":1,""time"":1817}]",NA,NA,NA,NA,NA,4,#D89F1C,#3386FF,10,10,1,40,0,1901.5,37,1,483.69999998807907,10,1,experiment,NA,NA,2,0.5,0.5,4,5,233,6,NA
fcp-trial,269,1459591,0.0-244.0-0.0,voc_e2,12216,"[{""event"":""fullscreenenter"",""trial"":1,""time"":1817}]",NA,NA,NA,NA,NA,5,#741CD8,#D8271C,10,0,1,40,0,2866.5,39,0,441.7999999523163,0,0,experiment,NA,NA,1,0.7,0.3,2,3,234,6,NA
fcp-trial,270,1462862,0.0-245.0-0.0,voc_e2,12216,"[{""event"":""fullscreenenter"",""trial"":1,""time"":1817}]",NA,NA,NA,NA,NA,3,#741CD8,#D8271C,10,0,1,40,0,1286.300000011921,39,0,479.30000001192093,0,0,experiment,NA,NA,1,0.7,0.3,2,3,235,6,NA
fcp-trial,271,1467843,0.0-246.0-0.0,voc_e2,12216,"[{""event"":""fullscreenenter"",""trial"":1,""time"":1817}]",NA,NA,NA,NA,NA,1,#FA92F8,#1CD855,10,0,1,38,1,2858.199999988079,37,1,614.7000000476837,10,1,experiment,NA,NA,0,0.9,0.1,0,1,236,6,NA
fcp-trial,272,1471861,0.0-247.0-0.0,voc_e2,12216,"[{""event"":""fullscreenenter"",""trial"":1,""time"":1817}]",NA,NA,NA,NA,NA,3,#D89F1C,#3386FF,10,10,1,40,0,2052.899999976158,39,0,455.7000000476837,10,0,experiment,NA,NA,2,0.5,0.5,4,5,237,6,NA
fcp-trial,273,1475826,0.0-248.0-0.0,voc_e2,12216,"[{""event"":""fullscreenenter"",""trial"":1,""time"":1817}]",NA,NA,NA,NA,NA,3,#1CD855,#FA92F8,0,0,0,38,1,2158.2999999523163,39,0,299,0,1,experiment,NA,NA,0,0.1,0.9,1,0,238,6,NA
fcp-trial,274,1479348,0.0-249.0-0.0,voc_e2,12216,"[{""event"":""fullscreenenter"",""trial"":1,""time"":1817}]",NA,NA,NA,NA,NA,2,#741CD8,#D8271C,0,10,1,40,0,1480.800000011921,37,1,532.3999999761581,0,1,experiment,NA,NA,1,0.7,0.3,2,3,239,6,NA
fcp-trial,275,1485715,0.0-250.0-0.0,voc_e2,12216,"[{""event"":""fullscreenenter"",""trial"":1,""time"":1817}]",NA,NA,NA,NA,NA,6,#D89F1C,#3386FF,10,10,1,40,0,4394.299999952316,39,0,460,10,0,experiment,NA,NA,2,0.5,0.5,4,5,240,6,NA
fcp-trial,276,1490789,0.0-251.0-0.0,voc_e2,12216,"[{""event"":""fullscreenenter"",""trial"":1,""time"":1817}]",NA,NA,NA,NA,NA,1,#741CD8,#D8271C,10,10,1,38,1,3138.800000011921,37,1,427.10000002384186,10,1,experiment,NA,NA,1,0.7,0.3,2,3,241,6,NA
fcp-trial,277,1494607,0.0-252.0-0.0,voc_e2,12216,"[{""event"":""fullscreenenter"",""trial"":1,""time"":1817}]",NA,NA,NA,NA,NA,5,#3386FF,#D89F1C,0,10,0,40,0,1804.3999999761581,39,0,506.89999997615814,10,1,experiment,NA,NA,2,0.5,0.5,5,4,242,6,NA
fcp-trial,278,1498005,0.0-253.0-0.0,voc_e2,12216,"[{""event"":""fullscreenenter"",""trial"":1,""time"":1817}]",NA,NA,NA,NA,NA,5,#1CD855,#FA92F8,0,10,0,40,0,1394.4000000357628,37,1,494.69999998807907,0,0,experiment,NA,NA,0,0.1,0.9,1,0,243,6,NA
fcp-trial,279,1501140,0.0-254.0-0.0,voc_e2,12216,"[{""event"":""fullscreenenter"",""trial"":1,""time"":1817}]",NA,NA,NA,NA,NA,2,#FA92F8,#1CD855,10,0,1,38,1,1069.7000000476837,37,1,557.9000000357628,10,1,experiment,NA,NA,0,0.9,0.1,0,1,244,6,NA
fcp-trial,280,1505394,0.0-255.0-0.0,voc_e2,12216,"[{""event"":""fullscreenenter"",""trial"":1,""time"":1817}]",NA,NA,NA,NA,NA,4,#741CD8,#D8271C,10,0,1,40,0,2240.2999999523163,39,0,507.5,0,0,experiment,NA,NA,1,0.7,0.3,2,3,245,6,NA
fcp-trial,281,1508456,0.0-256.0-0.0,voc_e2,12216,"[{""event"":""fullscreenenter"",""trial"":1,""time"":1817}]",NA,NA,NA,NA,NA,0,#1CD855,#FA92F8,0,10,0,38,1,1098.6000000238419,39,0,455.30000001192093,10,1,experiment,NA,NA,0,0.1,0.9,1,0,246,6,NA
fcp-trial,282,1511339,0.0-257.0-0.0,voc_e2,12216,"[{""event"":""fullscreenenter"",""trial"":1,""time"":1817}]",NA,NA,NA,NA,NA,1,#D89F1C,#3386FF,0,0,1,40,0,872.9000000357628,39,0,503.80000001192093,0,0,experiment,NA,NA,2,0.5,0.5,4,5,247,6,NA
fcp-trial,283,1514453,0.0-258.0-0.0,voc_e2,12216,"[{""event"":""fullscreenenter"",""trial"":1,""time"":1817}]",NA,NA,NA,NA,NA,6,#741CD8,#D8271C,10,10,1,40,0,1099,39,0,506.89999997615814,10,0,experiment,NA,NA,1,0.7,0.3,2,3,248,6,NA
fcp-trial,284,1520665,0.0-259.0-0.0,voc_e2,12216,"[{""event"":""fullscreenenter"",""trial"":1,""time"":1817}]",NA,NA,NA,NA,NA,0,#D8271C,#741CD8,0,10,0,38,1,3888.399999976158,39,0,814,10,1,experiment,NA,NA,1,0.3,0.7,3,2,249,6,NA
fcp-trial,285,1524456,0.0-260.0-0.0,voc_e2,12216,"[{""event"":""fullscreenenter"",""trial"":1,""time"":1817}]",NA,NA,NA,NA,NA,6,#FA92F8,#1CD855,10,0,1,38,1,1727,37,1,553.3999999761581,10,1,experiment,NA,NA,0,0.9,0.1,0,1,250,6,NA
fcp-trial,286,1528982,0.0-261.0-0.0,voc_e2,12216,"[{""event"":""fullscreenenter"",""trial"":1,""time"":1817}]",NA,NA,NA,NA,NA,4,#1CD855,#FA92F8,0,10,0,38,1,2406,39,0,614.4000000357628,10,1,experiment,NA,NA,0,0.1,0.9,1,0,251,6,NA
fcp-trial,287,1534219,0.0-262.0-0.0,voc_e2,12216,"[{""event"":""fullscreenenter"",""trial"":1,""time"":1817}]",NA,NA,NA,NA,NA,2,#D89F1C,#3386FF,0,10,1,40,0,3223.600000023842,39,0,497.60000002384186,10,0,experiment,NA,NA,2,0.5,0.5,4,5,252,6,NA
fcp-trial,288,1538091,0.0-263.0-0.0,voc_e2,12216,"[{""event"":""fullscreenenter"",""trial"":1,""time"":1817}]",NA,NA,NA,NA,NA,6,#741CD8,#D8271C,10,0,1,40,0,1900.300000011921,39,0,460,0,0,experiment,NA,NA,1,0.7,0.3,2,3,253,6,NA
fcp-trial,289,1541851,0.0-264.0-0.0,voc_e2,12216,"[{""event"":""fullscreenenter"",""trial"":1,""time"":1817}]",NA,NA,NA,NA,NA,3,#FA92F8,#1CD855,10,0,1,38,1,1744.699999988079,37,1,507.0999999642372,10,1,experiment,NA,NA,0,0.9,0.1,0,1,254,6,NA
fcp-trial,290,1545310,0.0-265.0-0.0,voc_e2,12216,"[{""event"":""fullscreenenter"",""trial"":1,""time"":1817}]",NA,NA,NA,NA,NA,2,#FA92F8,#1CD855,10,0,1,38,1,1361.199999988079,37,1,592.3000000119209,10,1,experiment,NA,NA,0,0.9,0.1,0,1,255,6,NA
fcp-trial,291,1549106,0.0-266.0-0.0,voc_e2,12216,"[{""event"":""fullscreenenter"",""trial"":1,""time"":1817}]",NA,NA,NA,NA,NA,3,#3386FF,#D89F1C,10,10,0,40,0,1839.9000000357628,37,1,449.69999998807907,10,0,experiment,NA,NA,2,0.5,0.5,5,4,256,6,NA
fcp-trial,292,1552359,0.0-267.0-0.0,voc_e2,12216,"[{""event"":""fullscreenenter"",""trial"":1,""time"":1817}]",NA,NA,NA,NA,NA,1,#3386FF,#D89F1C,0,10,0,40,0,1299.6000000238419,37,1,448.30000001192093,0,0,experiment,NA,NA,2,0.5,0.5,5,4,257,6,NA
fcp-trial,293,1561276,0.0-268.0-0.0,voc_e2,12216,"[{""event"":""fullscreenenter"",""trial"":1,""time"":1817}]",NA,NA,NA,NA,NA,2,#D8271C,#741CD8,0,0,0,40,0,6882.199999988079,37,1,527,0,0,experiment,NA,NA,1,0.3,0.7,3,2,258,6,NA
fcp-trial,294,1565244,0.0-269.0-0.0,voc_e2,12216,"[{""event"":""fullscreenenter"",""trial"":1,""time"":1817}]",NA,NA,NA,NA,NA,0,#D8271C,#741CD8,10,10,0,38,1,1633.2000000476837,39,0,828.1000000238419,10,1,experiment,NA,NA,1,0.3,0.7,3,2,259,6,NA
fcp-trial,295,1568549,0.0-270.0-0.0,voc_e2,12216,"[{""event"":""fullscreenenter"",""trial"":1,""time"":1817}]",NA,NA,NA,NA,NA,6,#FA92F8,#1CD855,0,0,1,40,0,1111,37,1,689,0,1,experiment,NA,NA,0,0.9,0.1,0,1,260,6,NA
fcp-trial,296,1571740,0.0-271.0-0.0,voc_e2,12216,"[{""event"":""fullscreenenter"",""trial"":1,""time"":1817}]",NA,NA,NA,NA,NA,4,#1CD855,#FA92F8,0,10,0,40,0,953.1999999880791,37,1,730.5999999642372,0,0,experiment,NA,NA,0,0.1,0.9,1,0,261,6,NA
fcp-trial,297,1578370,0.0-272.0-0.0,voc_e2,12216,"[{""event"":""fullscreenenter"",""trial"":1,""time"":1817}]",NA,NA,NA,NA,NA,4,#D89F1C,#3386FF,0,0,1,40,0,4704.799999952316,39,0,418.4000000357628,0,0,experiment,NA,NA,2,0.5,0.5,4,5,262,6,NA
fcp-trial,298,1581873,0.0-273.0-0.0,voc_e2,12216,"[{""event"":""fullscreenenter"",""trial"":1,""time"":1817}]",NA,NA,NA,NA,NA,0,#3386FF,#D89F1C,10,10,0,38,1,1473.2000000476837,37,1,522.1000000238419,10,0,experiment,NA,NA,2,0.5,0.5,5,4,263,6,NA
fcp-trial,299,1585075,0.0-274.0-0.0,voc_e2,12216,"[{""event"":""fullscreenenter"",""trial"":1,""time"":1817}]",NA,NA,NA,NA,NA,4,#741CD8,#D8271C,10,0,1,40,0,1146.800000011921,37,1,548.5,10,1,experiment,NA,NA,1,0.7,0.3,2,3,264,6,NA
fcp-trial,300,1590880,0.0-275.0-0.0,voc_e2,12216,"[{""event"":""fullscreenenter"",""trial"":1,""time"":1817}]",NA,NA,NA,NA,NA,0,#FA92F8,#1CD855,10,0,1,38,1,1468.8999999761581,37,1,2830.599999964237,10,1,experiment,NA,NA,0,0.9,0.1,0,1,265,6,NA
fcp-trial,301,1594165,0.0-276.0-0.0,voc_e2,12216,"[{""event"":""fullscreenenter"",""trial"":1,""time"":1817}]",NA,NA,NA,NA,NA,1,#1CD855,#FA92F8,0,10,0,38,1,1295.9000000357628,39,0,476.5,10,1,experiment,NA,NA,0,0.1,0.9,1,0,266,6,NA
fcp-trial,302,1597228,0.0-277.0-0.0,voc_e2,12216,"[{""event"":""fullscreenenter"",""trial"":1,""time"":1817}]",NA,NA,NA,NA,NA,5,#3386FF,#D89F1C,0,10,0,40,0,987.6000000238419,39,0,566,10,1,experiment,NA,NA,2,0.5,0.5,5,4,267,6,NA
fcp-trial,303,1601527,0.0-278.0-0.0,voc_e2,12216,"[{""event"":""fullscreenenter"",""trial"":1,""time"":1817}]",NA,NA,NA,NA,NA,3,#741CD8,#D8271C,0,10,1,40,0,2247.100000023842,37,1,543.5,0,1,experiment,NA,NA,1,0.7,0.3,2,3,268,6,NA
fcp-trial,304,1605067,0.0-279.0-0.0,voc_e2,12216,"[{""event"":""fullscreenenter"",""trial"":1,""time"":1817}]",NA,NA,NA,NA,NA,5,#741CD8,#D8271C,0,0,1,40,0,1546.4000000357628,37,1,488.69999998807907,0,1,experiment,NA,NA,1,0.7,0.3,2,3,269,6,NA
fcp-trial,305,1607615,0.0-280.0-0.0,voc_e2,12216,"[{""event"":""fullscreenenter"",""trial"":1,""time"":1817}]",NA,NA,NA,NA,NA,1,#741CD8,#D8271C,10,0,1,40,0,534.0999999642372,39,0,507,0,0,experiment,NA,NA,1,0.7,0.3,2,3,270,6,NA
fcp-trial,306,1610841,0.0-281.0-0.0,voc_e2,12216,"[{""event"":""fullscreenenter"",""trial"":1,""time"":1817}]",NA,NA,NA,NA,NA,5,#1CD855,#FA92F8,0,10,0,38,1,1364.199999988079,39,0,354.0999999642372,10,1,experiment,NA,NA,0,0.1,0.9,1,0,271,7,NA
fcp-trial,307,1617013,0.0-282.0-0.0,voc_e2,12216,"[{""event"":""fullscreenenter"",""trial"":1,""time"":1817}]",NA,NA,NA,NA,NA,2,#D89F1C,#3386FF,10,0,1,40,0,4230,39,0,430.2999999523163,0,0,experiment,NA,NA,2,0.5,0.5,4,5,272,7,NA
fcp-trial,308,1619745,0.0-283.0-0.0,voc_e2,12216,"[{""event"":""fullscreenenter"",""trial"":1,""time"":1817}]",NA,NA,NA,NA,NA,6,#3386FF,#D89F1C,10,10,0,40,0,751.9000000357628,37,1,470.5,10,0,experiment,NA,NA,2,0.5,0.5,5,4,273,7,NA
fcp-trial,309,1622989,0.0-284.0-0.0,voc_e2,12216,"[{""event"":""fullscreenenter"",""trial"":1,""time"":1817}]",NA,NA,NA,NA,NA,5,#1CD855,#FA92F8,0,10,0,38,1,1314.0999999642372,39,0,422,10,1,experiment,NA,NA,0,0.1,0.9,1,0,274,7,NA
fcp-trial,310,1629440,0.0-285.0-0.0,voc_e2,12216,"[{""event"":""fullscreenenter"",""trial"":1,""time"":1817}]",NA,NA,NA,NA,NA,1,#741CD8,#D8271C,10,0,1,40,0,4436.399999976158,39,0,506.30000001192093,0,0,experiment,NA,NA,1,0.7,0.3,2,3,275,7,NA
fcp-trial,311,1632457,0.0-286.0-0.0,voc_e2,12216,"[{""event"":""fullscreenenter"",""trial"":1,""time"":1817}]",NA,NA,NA,NA,NA,1,#1CD855,#FA92F8,0,10,0,38,1,954.3000000119209,39,0,555.3000000119209,10,1,experiment,NA,NA,0,0.1,0.9,1,0,276,7,NA
fcp-trial,312,1635792,0.0-287.0-0.0,voc_e2,12216,"[{""event"":""fullscreenenter"",""trial"":1,""time"":1817}]",NA,NA,NA,NA,NA,4,#D8271C,#741CD8,10,10,0,40,0,1058.3999999761581,39,0,768.1999999880791,10,1,experiment,NA,NA,1,0.3,0.7,3,2,277,7,NA
fcp-trial,313,1638673,0.0-288.0-0.0,voc_e2,12216,"[{""event"":""fullscreenenter"",""trial"":1,""time"":1817}]",NA,NA,NA,NA,NA,4,#1CD855,#FA92F8,0,10,0,38,1,831.1999999880791,39,0,538.1999999880791,10,1,experiment,NA,NA,0,0.1,0.9,1,0,278,7,NA
fcp-trial,314,1644955,0.0-289.0-0.0,voc_e2,12216,"[{""event"":""fullscreenenter"",""trial"":1,""time"":1817}]",NA,NA,NA,NA,NA,3,#741CD8,#D8271C,0,0,1,40,0,3945.100000023842,37,1,828.3000000119209,0,1,experiment,NA,NA,1,0.7,0.3,2,3,279,7,NA
fcp-trial,315,1647715,0.0-290.0-0.0,voc_e2,12216,"[{""event"":""fullscreenenter"",""trial"":1,""time"":1817}]",NA,NA,NA,NA,NA,0,#1CD855,#FA92F8,0,10,0,38,1,907.6999999880791,39,0,346.39999997615814,10,1,experiment,NA,NA,0,0.1,0.9,1,0,280,7,NA
fcp-trial,316,1650704,0.0-291.0-0.0,voc_e2,12216,"[{""event"":""fullscreenenter"",""trial"":1,""time"":1817}]",NA,NA,NA,NA,NA,4,#D89F1C,#3386FF,0,10,1,40,0,1024,39,0,449.60000002384186,10,0,experiment,NA,NA,2,0.5,0.5,4,5,281,7,NA
fcp-trial,317,1653615,0.0-292.0-0.0,voc_e2,12216,"[{""event"":""fullscreenenter"",""trial"":1,""time"":1817}]",NA,NA,NA,NA,NA,0,#D8271C,#741CD8,0,10,0,40,0,790.5999999642372,37,1,614.3999999761581,0,0,experiment,NA,NA,1,0.3,0.7,3,2,282,7,NA
fcp-trial,318,1657423,0.0-293.0-0.0,voc_e2,12216,"[{""event"":""fullscreenenter"",""trial"":1,""time"":1817}]",NA,NA,NA,NA,NA,0,#D89F1C,#3386FF,10,10,1,38,1,1534,39,0,766.1000000238419,10,0,experiment,NA,NA,2,0.5,0.5,4,5,283,7,NA
fcp-trial,319,1660645,0.0-294.0-0.0,voc_e2,12216,"[{""event"":""fullscreenenter"",""trial"":1,""time"":1817}]",NA,NA,NA,NA,NA,2,#3386FF,#D89F1C,10,10,0,40,0,1154.5,39,0,560,10,1,experiment,NA,NA,2,0.5,0.5,5,4,284,7,NA
fcp-trial,320,1663942,0.0-295.0-0.0,voc_e2,12216,"[{""event"":""fullscreenenter"",""trial"":1,""time"":1817}]",NA,NA,NA,NA,NA,6,#FA92F8,#1CD855,10,0,1,38,1,1306,37,1,481.60000002384186,10,1,experiment,NA,NA,0,0.9,0.1,0,1,285,7,NA
fcp-trial,321,1667472,0.0-296.0-0.0,voc_e2,12216,"[{""event"":""fullscreenenter"",""trial"":1,""time"":1817}]",NA,NA,NA,NA,NA,5,#3386FF,#D89F1C,10,10,0,40,0,1577.699999988079,39,0,446.19999998807907,10,1,experiment,NA,NA,2,0.5,0.5,5,4,286,7,NA
fcp-trial,322,1670431,0.0-297.0-0.0,voc_e2,12216,"[{""event"":""fullscreenenter"",""trial"":1,""time"":1817}]",NA,NA,NA,NA,NA,2,#741CD8,#D8271C,0,0,1,40,0,1012.1999999880791,39,0,438.0999999642372,0,0,experiment,NA,NA,1,0.7,0.3,2,3,287,7,NA
fcp-trial,323,1673488,0.0-298.0-0.0,voc_e2,12216,"[{""event"":""fullscreenenter"",""trial"":1,""time"":1817}]",NA,NA,NA,NA,NA,6,#741CD8,#D8271C,0,0,1,40,0,1070.199999988079,37,1,480.5999999642372,0,1,experiment,NA,NA,1,0.7,0.3,2,3,288,7,NA
fcp-trial,324,1676753,0.0-299.0-0.0,voc_e2,12216,"[{""event"":""fullscreenenter"",""trial"":1,""time"":1817}]",NA,NA,NA,NA,NA,2,#1CD855,#FA92F8,0,10,0,38,1,1297.300000011921,39,0,459,10,1,experiment,NA,NA,0,0.1,0.9,1,0,289,7,NA
fcp-trial,325,1679777,0.0-300.0-0.0,voc_e2,12216,"[{""event"":""fullscreenenter"",""trial"":1,""time"":1817}]",NA,NA,NA,NA,NA,3,#FA92F8,#1CD855,10,10,1,38,1,863.1999999880791,37,1,654.8000000119209,10,1,experiment,NA,NA,0,0.9,0.1,0,1,290,7,NA
fcp-trial,326,1684091,0.0-301.0-0.0,voc_e2,12216,"[{""event"":""fullscreenenter"",""trial"":1,""time"":1817}]",NA,NA,NA,NA,NA,1,#3386FF,#D89F1C,10,0,0,40,0,2227.300000011921,37,1,575.8000000119209,10,0,experiment,NA,NA,2,0.5,0.5,5,4,291,7,NA
fcp-trial,327,1686907,0.0-302.0-0.0,voc_e2,12216,"[{""event"":""fullscreenenter"",""trial"":1,""time"":1817}]",NA,NA,NA,NA,NA,6,#D89F1C,#3386FF,0,0,1,40,0,726.5,37,1,582.8000000119209,0,1,experiment,NA,NA,2,0.5,0.5,4,5,292,7,NA
fcp-trial,328,1691007,0.0-303.0-0.0,voc_e2,12216,"[{""event"":""fullscreenenter"",""trial"":1,""time"":1817}]",NA,NA,NA,NA,NA,5,#741CD8,#D8271C,10,0,1,38,1,1593.8999999761581,39,0,999.3999999761581,0,0,experiment,NA,NA,1,0.7,0.3,2,3,293,7,NA
fcp-trial,329,1693992,0.0-304.0-0.0,voc_e2,12216,"[{""event"":""fullscreenenter"",""trial"":1,""time"":1817}]",NA,NA,NA,NA,NA,3,#D89F1C,#3386FF,0,0,1,40,0,1028.0999999642372,39,0,449.5999999642372,0,0,experiment,NA,NA,2,0.5,0.5,4,5,294,7,NA
fcp-trial,330,1696746,0.0-305.0-0.0,voc_e2,12216,"[{""event"":""fullscreenenter"",""trial"":1,""time"":1817}]",NA,NA,NA,NA,NA,4,#D8271C,#741CD8,0,10,0,40,0,764.2000000476837,39,0,482.30000001192093,10,1,experiment,NA,NA,1,0.3,0.7,3,2,295,7,NA
fcp-trial,331,1699523,0.0-306.0-0.0,voc_e2,12216,"[{""event"":""fullscreenenter"",""trial"":1,""time"":1817}]",NA,NA,NA,NA,NA,3,#D89F1C,#3386FF,0,0,1,40,0,710.6000000238419,39,0,560.1999999880791,0,0,experiment,NA,NA,2,0.5,0.5,4,5,296,7,NA
fcp-trial,332,1702208,0.0-307.0-0.0,voc_e2,12216,"[{""event"":""fullscreenenter"",""trial"":1,""time"":1817}]",NA,NA,NA,NA,NA,6,#3386FF,#D89F1C,0,10,0,40,0,634.6000000238419,39,0,542.8999999761581,10,1,experiment,NA,NA,2,0.5,0.5,5,4,297,7,NA
fcp-trial,333,1704996,0.0-308.0-0.0,voc_e2,12216,"[{""event"":""fullscreenenter"",""trial"":1,""time"":1817}]",NA,NA,NA,NA,NA,2,#FA92F8,#1CD855,10,0,1,38,1,809.3000000119209,37,1,472.5,10,1,experiment,NA,NA,0,0.9,0.1,0,1,298,7,NA
fcp-trial,334,1707748,0.0-309.0-0.0,voc_e2,12216,"[{""event"":""fullscreenenter"",""trial"":1,""time"":1817}]",NA,NA,NA,NA,NA,1,#3386FF,#D89F1C,0,10,0,40,0,752,37,1,492.10000002384186,0,0,experiment,NA,NA,2,0.5,0.5,5,4,299,7,NA
fcp-trial,335,1710973,0.0-310.0-0.0,voc_e2,12216,"[{""event"":""fullscreenenter"",""trial"":1,""time"":1817}]",NA,NA,NA,NA,NA,1,#741CD8,#D8271C,0,10,1,40,0,1172.199999988079,37,1,545.9000000357628,0,1,experiment,NA,NA,1,0.7,0.3,2,3,300,7,NA
fcp-trial,336,1714586,0.0-311.0-0.0,voc_e2,12216,"[{""event"":""fullscreenenter"",""trial"":1,""time"":1817}]",NA,NA,NA,NA,NA,6,#FA92F8,#1CD855,10,0,1,38,1,1337,37,1,768.5,10,1,experiment,NA,NA,0,0.9,0.1,0,1,301,7,NA
fcp-trial,337,1717472,0.0-312.0-0.0,voc_e2,12216,"[{""event"":""fullscreenenter"",""trial"":1,""time"":1817}]",NA,NA,NA,NA,NA,5,#FA92F8,#1CD855,0,0,1,38,1,691.3999999761581,37,1,685.7999999523163,0,1,experiment,NA,NA,0,0.9,0.1,0,1,302,7,NA
fcp-trial,338,1720288,0.0-313.0-0.0,voc_e2,12216,"[{""event"":""fullscreenenter"",""trial"":1,""time"":1817}]",NA,NA,NA,NA,NA,5,#3386FF,#D89F1C,10,0,0,40,0,704.3000000119209,39,0,605,0,1,experiment,NA,NA,2,0.5,0.5,5,4,303,7,NA
fcp-trial,339,1723673,0.0-314.0-0.0,voc_e2,12216,"[{""event"":""fullscreenenter"",""trial"":1,""time"":1817}]",NA,NA,NA,NA,NA,3,#D8271C,#741CD8,0,0,0,40,0,1413.2000000476837,37,1,464.4000000357628,0,0,experiment,NA,NA,1,0.3,0.7,3,2,304,7,NA
fcp-trial,340,1726560,0.0-315.0-0.0,voc_e2,12216,"[{""event"":""fullscreenenter"",""trial"":1,""time"":1817}]",NA,NA,NA,NA,NA,4,#1CD855,#FA92F8,0,10,0,38,1,900.2000000476837,39,0,477.10000002384186,10,1,experiment,NA,NA,0,0.1,0.9,1,0,305,7,NA
fcp-trial,341,1730978,0.0-316.0-0.0,voc_e2,12216,"[{""event"":""fullscreenenter"",""trial"":1,""time"":1817}]",NA,NA,NA,NA,NA,0,#1CD855,#FA92F8,0,10,0,38,1,1938.9000000357628,39,0,972.0999999642372,10,1,experiment,NA,NA,0,0.1,0.9,1,0,306,7,NA
fcp-trial,342,1733920,0.0-317.0-0.0,voc_e2,12216,"[{""event"":""fullscreenenter"",""trial"":1,""time"":1817}]",NA,NA,NA,NA,NA,3,#1CD855,#FA92F8,0,10,0,38,1,951.8000000119209,39,0,478.69999998807907,10,1,experiment,NA,NA,0,0.1,0.9,1,0,307,7,NA
fcp-trial,343,1737509,0.0-318.0-0.0,voc_e2,12216,"[{""event"":""fullscreenenter"",""trial"":1,""time"":1817}]",NA,NA,NA,NA,NA,2,#3386FF,#D89F1C,0,0,0,40,0,1595.7000000476837,39,0,484.5999999642372,0,1,experiment,NA,NA,2,0.5,0.5,5,4,308,7,NA
fcp-trial,344,1741090,0.0-319.0-0.0,voc_e2,12216,"[{""event"":""fullscreenenter"",""trial"":1,""time"":1817}]",NA,NA,NA,NA,NA,6,#D8271C,#741CD8,0,10,0,40,0,1601.8999999761581,37,1,472.0999999642372,0,0,experiment,NA,NA,1,0.3,0.7,3,2,309,7,NA
fcp-trial,345,1743884,0.0-320.0-0.0,voc_e2,12216,"[{""event"":""fullscreenenter"",""trial"":1,""time"":1817}]",NA,NA,NA,NA,NA,4,#3386FF,#D89F1C,0,10,0,38,1,689.0999999642372,39,0,599.1999999880791,10,1,experiment,NA,NA,2,0.5,0.5,5,4,310,7,NA
fcp-trial,346,1747138,0.0-321.0-0.0,voc_e2,12216,"[{""event"":""fullscreenenter"",""trial"":1,""time"":1817}]",NA,NA,NA,NA,NA,0,#D89F1C,#3386FF,0,10,1,38,1,1249.300000011921,37,1,496.5,0,1,experiment,NA,NA,2,0.5,0.5,4,5,311,7,NA
fcp-trial,347,1750093,0.0-322.0-0.0,voc_e2,12216,"[{""event"":""fullscreenenter"",""trial"":1,""time"":1817}]",NA,NA,NA,NA,NA,1,#1CD855,#FA92F8,0,10,0,38,1,961.3000000119209,39,0,487.7000000476837,10,1,experiment,NA,NA,0,0.1,0.9,1,0,312,7,NA
fcp-trial,348,1753377,0.0-323.0-0.0,voc_e2,12216,"[{""event"":""fullscreenenter"",""trial"":1,""time"":1817}]",NA,NA,NA,NA,NA,5,#741CD8,#D8271C,0,0,1,40,0,1285.300000011921,37,1,489,0,1,experiment,NA,NA,1,0.7,0.3,2,3,313,7,NA
fcp-trial,349,1756357,0.0-324.0-0.0,voc_e2,12216,"[{""event"":""fullscreenenter"",""trial"":1,""time"":1817}]",NA,NA,NA,NA,NA,2,#D8271C,#741CD8,10,0,0,40,0,896.1000000238419,39,0,575.8999999761581,0,1,experiment,NA,NA,1,0.3,0.7,3,2,314,7,NA
fcp-trial,350,1759743,0.0-325.0-0.0,voc_e2,12216,"[{""event"":""fullscreenenter"",""trial"":1,""time"":1817}]",NA,NA,NA,NA,NA,0,#741CD8,#D8271C,10,0,1,38,1,1365.800000011921,37,1,512.1999999880791,10,1,experiment,NA,NA,1,0.7,0.3,2,3,315,7,NA
audio-instructions,351,1767112,0.0-326.0,voc_e2,12216,"[{""event"":""fullscreenenter"",""trial"":1,""time"":1817}]",NA,1646.4000000357628,static/audio/finished.wav,NA,0,NA,NA,NA,NA,NA,NA,NA,NA,NA,NA,NA,NA,NA,NA,NA,NA,NA,NA,NA,NA,NA,NA,NA,NA,NA
audio-instructions,352,1778530,0.0-327.0-0.0,voc_e2,12216,"[{""event"":""fullscreenenter"",""trial"":1,""time"":1817}]",NA,579.8000000119209,static/audio/explicit1.wav,NA,0,NA,NA,NA,NA,NA,NA,NA,NA,NA,NA,NA,NA,NA,NA,NA,NA,NA,NA,NA,NA,NA,NA,NA,NA,NA
audio-instructions,353,1787418,0.0-327.0-1.0,voc_e2,12216,"[{""event"":""fullscreenenter"",""trial"":1,""time"":1817}]",NA,1292.100000023842,static/audio/explicit2.wav,NA,0,NA,NA,NA,NA,NA,NA,NA,NA,NA,NA,NA,NA,NA,NA,NA,NA,NA,NA,NA,NA,NA,NA,NA,NA,NA
image-slider-response,354,1792329,0.0-328.0,voc_e2,12216,"[{""event"":""fullscreenenter"",""trial"":1,""time"":1817}]",NA,4907.5,static/img/machines/machine3.png,NA,NA,NA,NA,NA,NA,NA,NA,NA,NA,NA,NA,NA,NA,NA,NA,explicit,NA,NA,NA,NA,NA,NA,NA,NA,NA,7
image-slider-response,355,1794645,0.0-329.0,voc_e2,12216,"[{""event"":""fullscreenenter"",""trial"":1,""time"":1817}]",NA,2314.300000011921,static/img/machines/machine4.png,NA,NA,NA,NA,NA,NA,NA,NA,NA,NA,NA,NA,NA,NA,NA,NA,explicit,NA,NA,NA,NA,NA,NA,NA,NA,NA,7
image-slider-response,356,1798395,0.0-330.0,voc_e2,12216,"[{""event"":""fullscreenenter"",""trial"":1,""time"":1817}]",NA,3747.699999988079,static/img/machines/machine5.png,NA,NA,NA,NA,NA,NA,NA,NA,NA,NA,NA,NA,NA,NA,NA,NA,explicit,NA,NA,NA,NA,NA,NA,NA,NA,NA,8
image-slider-response,357,1805176,0.0-331.0,voc_e2,12216,"[{""event"":""fullscreenenter"",""trial"":1,""time"":1817}]",NA,6780,static/img/machines/machine1.png,NA,NA,NA,NA,NA,NA,NA,NA,NA,NA,NA,NA,NA,NA,NA,NA,explicit,NA,NA,NA,NA,NA,NA,NA,NA,NA,3
image-slider-response,358,1807867,0.0-332.0,voc_e2,12216,"[{""event"":""fullscreenenter"",""trial"":1,""time"":1817}]",NA,2689.5,static/img/machines/machine6.png,NA,NA,NA,NA,NA,NA,NA,NA,NA,NA,NA,NA,NA,NA,NA,NA,explicit,NA,NA,NA,NA,NA,NA,NA,NA,NA,1
image-slider-response,359,1811509,0.0-333.0,voc_e2,12216,"[{""event"":""fullscreenenter"",""trial"":1,""time"":1817}]",NA,3639.600000023842,static/img/machines/machine2.png,NA,NA,NA,NA,NA,NA,NA,NA,NA,NA,NA,NA,NA,NA,NA,NA,explicit,NA,NA,NA,NA,NA,NA,NA,NA,NA,3
