trial_type,trial_index,time_elapsed,internal_node_id,task_version,subject_id,interactions,success,rt,stimulus,key_press,button_pressed,offer,arcade_color_L,arcade_color_R,arcade_outcome_L,arcade_outcome_R,correct,stage_1_key,stage_1_choice,stage_1_rt,stage_2_key,stage_2_choice,stage_2_rt,stage_3_outcome,accuracy,phase,responses,num_errors,context,reward_prob_L,reward_prob_R,arcade_id_L,arcade_id_R,trial,block,response
pavlovia,0,7,0.0-0.0,voc_e2,12118,[],NA,NA,NA,NA,NA,NA,NA,NA,NA,NA,NA,NA,NA,NA,NA,NA,NA,NA,NA,NA,NA,NA,NA,NA,NA,NA,NA,NA,NA,NA
fullscreen,1,4398,0.0-1.0,voc_e2,12118,"[{""event"":""fullscreenenter"",""trial"":1,""time"":3415}]",TRUE,NA,NA,NA,NA,NA,NA,NA,NA,NA,NA,NA,NA,NA,NA,NA,NA,NA,NA,NA,NA,NA,NA,NA,NA,NA,NA,NA,NA,NA
audio-keyboard-response,2,9196,0.0-2.0,voc_e2,12118,"[{""event"":""fullscreenenter"",""trial"":1,""time"":3415}]",NA,4771,static/audio/beep_loop.wav,32,NA,NA,NA,NA,NA,NA,NA,NA,NA,NA,NA,NA,NA,NA,NA,NA,NA,NA,NA,NA,NA,NA,NA,NA,NA,NA
audio-test,3,12082,0.0-3.0,voc_e2,12118,"[{""event"":""fullscreenenter"",""trial"":1,""time"":3415}]",NA,NA,static/audio/turtle.wav,NA,3,NA,NA,NA,NA,NA,NA,NA,NA,NA,NA,NA,NA,NA,NA,NA,NA,NA,NA,NA,NA,NA,NA,NA,NA,NA
audio-test,4,14229,0.0-4.0,voc_e2,12118,"[{""event"":""fullscreenenter"",""trial"":1,""time"":3415}]",NA,NA,static/audio/shark.wav,NA,2,NA,NA,NA,NA,NA,NA,NA,NA,NA,NA,NA,NA,NA,NA,NA,NA,NA,NA,NA,NA,NA,NA,NA,NA,NA
audio-instructions,5,23655,0.0-5.0-0.0,voc_e2,12118,"[{""event"":""fullscreenenter"",""trial"":1,""time"":3415}]",NA,3646.900000005961,static/audio/instructions1.wav,NA,0,NA,NA,NA,NA,NA,NA,NA,NA,NA,NA,NA,NA,NA,NA,NA,NA,NA,NA,NA,NA,NA,NA,NA,NA,NA
audio-instructions,6,33144,0.0-5.0-1.0,voc_e2,12118,"[{""event"":""fullscreenenter"",""trial"":1,""time"":3415}]",NA,2756,static/audio/instructions2.wav,NA,0,NA,NA,NA,NA,NA,NA,NA,NA,NA,NA,NA,NA,NA,NA,NA,NA,NA,NA,NA,NA,NA,NA,NA,NA,NA
audio-instructions,7,41099,0.0-5.0-2.0,voc_e2,12118,"[{""event"":""fullscreenenter"",""trial"":1,""time"":3415}]",NA,2150.199999988079,static/audio/instructions3.wav,NA,0,NA,NA,NA,NA,NA,NA,NA,NA,NA,NA,NA,NA,NA,NA,NA,NA,NA,NA,NA,NA,NA,NA,NA,NA,NA
audio-instructions,8,55640,0.0-5.0-3.0,voc_e2,12118,"[{""event"":""fullscreenenter"",""trial"":1,""time"":3415}]",NA,1310.800000011921,static/audio/instructions4.wav,NA,0,NA,NA,NA,NA,NA,NA,NA,NA,NA,NA,NA,NA,NA,NA,NA,NA,NA,NA,NA,NA,NA,NA,NA,NA,NA
audio-instructions,9,65894,0.0-5.0-4.0,voc_e2,12118,"[{""event"":""fullscreenenter"",""trial"":1,""time"":3415}]",NA,866.7000000178814,static/audio/instructions5.wav,NA,0,NA,NA,NA,NA,NA,NA,NA,NA,NA,NA,NA,NA,NA,NA,NA,NA,NA,NA,NA,NA,NA,NA,NA,NA,NA
fcp-practice,10,71884,0.0-5.0-5.0-0.0,voc_e2,12118,"[{""event"":""fullscreenenter"",""trial"":1,""time"":3415}]",NA,NA,NA,NA,NA,NA,#EDC948,#46d3c8,10,0,1,null,null,null,37,1,4476.800000011921,10,1,practice,NA,NA,NA,NA,NA,NA,NA,NA,NA,NA
fcp-practice,11,73734,0.0-5.0-5.0-1.0,voc_e2,12118,"[{""event"":""fullscreenenter"",""trial"":1,""time"":3415}]",NA,NA,NA,NA,NA,NA,#EDC948,#46d3c8,10,0,1,null,null,null,37,1,345.39999997615814,10,1,practice,NA,NA,NA,NA,NA,NA,NA,NA,NA,NA
fcp-practice,12,75516,0.0-5.0-5.0-2.0,voc_e2,12118,"[{""event"":""fullscreenenter"",""trial"":1,""time"":3415}]",NA,NA,NA,NA,NA,NA,#EDC948,#46d3c8,0,10,1,null,null,null,37,1,277.09999999403954,0,1,practice,NA,NA,NA,NA,NA,NA,NA,NA,NA,NA
fcp-practice,13,77284,0.0-5.0-5.0-3.0,voc_e2,12118,"[{""event"":""fullscreenenter"",""trial"":1,""time"":3415}]",NA,NA,NA,NA,NA,NA,#EDC948,#46d3c8,10,0,1,null,null,null,37,1,257.09999999403954,10,1,practice,NA,NA,NA,NA,NA,NA,NA,NA,NA,NA
fcp-practice,14,80262,0.0-5.0-5.0-4.0,voc_e2,12118,"[{""event"":""fullscreenenter"",""trial"":1,""time"":3415}]",NA,NA,NA,NA,NA,NA,#EDC948,#46d3c8,10,0,1,null,null,null,37,1,1475.7000000178814,10,1,practice,NA,NA,NA,NA,NA,NA,NA,NA,NA,NA
audio-instructions,15,99053,0.0-5.0-6.0,voc_e2,12118,"[{""event"":""fullscreenenter"",""trial"":1,""time"":3415}]",NA,784.5999999940395,static/audio/instructions6.wav,NA,0,NA,NA,NA,NA,NA,NA,NA,NA,NA,NA,NA,NA,NA,NA,NA,NA,NA,NA,NA,NA,NA,NA,NA,NA,NA
audio-instructions,16,119518,0.0-5.0-7.0,voc_e2,12118,"[{""event"":""fullscreenenter"",""trial"":1,""time"":3415}]",NA,1269.9000000059605,static/audio/instructions7.wav,NA,0,NA,NA,NA,NA,NA,NA,NA,NA,NA,NA,NA,NA,NA,NA,NA,NA,NA,NA,NA,NA,NA,NA,NA,NA,NA
audio-instructions,17,129450,0.0-5.0-8.0,voc_e2,12118,"[{""event"":""fullscreenenter"",""trial"":1,""time"":3415}]",NA,451.800000011921,static/audio/instructions8.wav,NA,0,NA,NA,NA,NA,NA,NA,NA,NA,NA,NA,NA,NA,NA,NA,NA,NA,NA,NA,NA,NA,NA,NA,NA,NA,NA
fcp-comprehension,18,160004,0.0-5.0-9.0,voc_e2,12118,"[{""event"":""fullscreenenter"",""trial"":1,""time"":3415}]",NA,30552.39999997616,NA,NA,NA,NA,NA,NA,NA,NA,NA,NA,NA,NA,NA,NA,NA,NA,NA,NA,"false,true",1,NA,NA,NA,NA,NA,NA,NA,NA
audio-instructions,19,165411,0.0-5.1-0.1,voc_e2,12118,"[{""event"":""fullscreenenter"",""trial"":1,""time"":3415}]",NA,640.7000000178814,static/audio/instructions1.wav,NA,0,NA,NA,NA,NA,NA,NA,NA,NA,NA,NA,NA,NA,NA,NA,NA,NA,NA,NA,NA,NA,NA,NA,NA,NA,NA
audio-instructions,20,173541,0.0-5.1-1.1,voc_e2,12118,"[{""event"":""fullscreenenter"",""trial"":1,""time"":3415}]",NA,1380.0999999940395,static/audio/instructions2.wav,NA,0,NA,NA,NA,NA,NA,NA,NA,NA,NA,NA,NA,NA,NA,NA,NA,NA,NA,NA,NA,NA,NA,NA,NA,NA,NA
audio-instructions,21,180166,0.0-5.1-2.1,voc_e2,12118,"[{""event"":""fullscreenenter"",""trial"":1,""time"":3415}]",NA,814.9000000059605,static/audio/instructions3.wav,NA,0,NA,NA,NA,NA,NA,NA,NA,NA,NA,NA,NA,NA,NA,NA,NA,NA,NA,NA,NA,NA,NA,NA,NA,NA,NA
audio-instructions,22,194342,0.0-5.1-3.1,voc_e2,12118,"[{""event"":""fullscreenenter"",""trial"":1,""time"":3415}]",NA,952,static/audio/instructions4.wav,NA,0,NA,NA,NA,NA,NA,NA,NA,NA,NA,NA,NA,NA,NA,NA,NA,NA,NA,NA,NA,NA,NA,NA,NA,NA,NA
audio-instructions,23,204413,0.0-5.1-4.1,voc_e2,12118,"[{""event"":""fullscreenenter"",""trial"":1,""time"":3415}]",NA,682.9000000059605,static/audio/instructions5.wav,NA,0,NA,NA,NA,NA,NA,NA,NA,NA,NA,NA,NA,NA,NA,NA,NA,NA,NA,NA,NA,NA,NA,NA,NA,NA,NA
fcp-practice,24,207630,0.0-5.1-5.1-0.1,voc_e2,12118,"[{""event"":""fullscreenenter"",""trial"":1,""time"":3415}]",NA,NA,NA,NA,NA,NA,#EDC948,#46d3c8,10,0,1,null,null,null,37,1,1713.9000000059605,10,1,practice,NA,NA,NA,NA,NA,NA,NA,NA,NA,NA
fcp-practice,25,209453,0.0-5.1-5.1-1.1,voc_e2,12118,"[{""event"":""fullscreenenter"",""trial"":1,""time"":3415}]",NA,NA,NA,NA,NA,NA,#EDC948,#46d3c8,10,0,1,null,null,null,37,1,316.7000000178814,10,1,practice,NA,NA,NA,NA,NA,NA,NA,NA,NA,NA
fcp-practice,26,211221,0.0-5.1-5.1-2.1,voc_e2,12118,"[{""event"":""fullscreenenter"",""trial"":1,""time"":3415}]",NA,NA,NA,NA,NA,NA,#EDC948,#46d3c8,0,10,1,null,null,null,37,1,264,0,1,practice,NA,NA,NA,NA,NA,NA,NA,NA,NA,NA
fcp-practice,27,213020,0.0-5.1-5.1-3.1,voc_e2,12118,"[{""event"":""fullscreenenter"",""trial"":1,""time"":3415}]",NA,NA,NA,NA,NA,NA,#EDC948,#46d3c8,10,0,1,null,null,null,37,1,291.69999998807907,10,1,practice,NA,NA,NA,NA,NA,NA,NA,NA,NA,NA
fcp-practice,28,214763,0.0-5.1-5.1-4.1,voc_e2,12118,"[{""event"":""fullscreenenter"",""trial"":1,""time"":3415}]",NA,NA,NA,NA,NA,NA,#EDC948,#46d3c8,10,0,1,null,null,null,37,1,236.69999998807907,10,1,practice,NA,NA,NA,NA,NA,NA,NA,NA,NA,NA
audio-instructions,29,233681,0.0-5.1-6.1,voc_e2,12118,"[{""event"":""fullscreenenter"",""trial"":1,""time"":3415}]",NA,910.100000023842,static/audio/instructions6.wav,NA,0,NA,NA,NA,NA,NA,NA,NA,NA,NA,NA,NA,NA,NA,NA,NA,NA,NA,NA,NA,NA,NA,NA,NA,NA,NA
audio-instructions,30,253847,0.0-5.1-7.1,voc_e2,12118,"[{""event"":""fullscreenenter"",""trial"":1,""time"":3415}]",NA,965.7000000178814,static/audio/instructions7.wav,NA,0,NA,NA,NA,NA,NA,NA,NA,NA,NA,NA,NA,NA,NA,NA,NA,NA,NA,NA,NA,NA,NA,NA,NA,NA,NA
audio-instructions,31,263769,0.0-5.1-8.1,voc_e2,12118,"[{""event"":""fullscreenenter"",""trial"":1,""time"":3415}]",NA,448,static/audio/instructions8.wav,NA,0,NA,NA,NA,NA,NA,NA,NA,NA,NA,NA,NA,NA,NA,NA,NA,NA,NA,NA,NA,NA,NA,NA,NA,NA,NA
fcp-comprehension,32,270263,0.0-5.1-9.1,voc_e2,12118,"[{""event"":""fullscreenenter"",""trial"":1,""time"":3415}]",NA,6493,NA,NA,NA,NA,NA,NA,NA,NA,NA,NA,NA,NA,NA,NA,NA,NA,NA,NA,"true,true",0,NA,NA,NA,NA,NA,NA,NA,NA
audio-instructions,33,277503,0.0-6.0-0.0,voc_e2,12118,"[{""event"":""fullscreenenter"",""trial"":1,""time"":3415}]",NA,1692.5,static/audio/instructions9.wav,NA,0,NA,NA,NA,NA,NA,NA,NA,NA,NA,NA,NA,NA,NA,NA,NA,NA,NA,NA,NA,NA,NA,NA,NA,NA,NA
audio-instructions,34,294200,0.0-6.0-1.0,voc_e2,12118,"[{""event"":""fullscreenenter"",""trial"":1,""time"":3415}]",NA,4578.200000017881,static/audio/instructions10.wav,NA,0,NA,NA,NA,NA,NA,NA,NA,NA,NA,NA,NA,NA,NA,NA,NA,NA,NA,NA,NA,NA,NA,NA,NA,NA,NA
fcp-trial,35,304440,0.0-6.0-2.0,voc_e2,12118,"[{""event"":""fullscreenenter"",""trial"":1,""time"":3415}]",NA,NA,NA,NA,NA,0,#EDC948,#46d3c8,10,10,1,38,1,4173.5999999940395,37,1,4543.200000017881,10,1,practice,NA,NA,NA,NA,NA,NA,NA,NA,NA,NA
audio-instructions,36,329525,0.0-6.0-3.0,voc_e2,12118,"[{""event"":""fullscreenenter"",""trial"":1,""time"":3415}]",NA,14073.29999998212,static/audio/instructions11.wav,NA,0,NA,NA,NA,NA,NA,NA,NA,NA,NA,NA,NA,NA,NA,NA,NA,NA,NA,NA,NA,NA,NA,NA,NA,NA,NA
fcp-trial,37,336551,0.0-6.0-4.0,voc_e2,12118,"[{""event"":""fullscreenenter"",""trial"":1,""time"":3415}]",NA,NA,NA,NA,NA,6,#EDC948,#46d3c8,10,10,1,40,0,2837.399999976158,37,1,2677.800000011921,10,1,practice,NA,NA,NA,NA,NA,NA,NA,NA,NA,NA
audio-instructions,38,355797,0.0-6.0-5.0,voc_e2,12118,"[{""event"":""fullscreenenter"",""trial"":1,""time"":3415}]",NA,554.9000000059605,static/audio/instructions12.wav,NA,0,NA,NA,NA,NA,NA,NA,NA,NA,NA,NA,NA,NA,NA,NA,NA,NA,NA,NA,NA,NA,NA,NA,NA,NA,NA
audio-instructions,39,364511,0.0-6.0-6.0,voc_e2,12118,"[{""event"":""fullscreenenter"",""trial"":1,""time"":3415}]",NA,1119.199999988079,static/audio/instructions13.wav,NA,0,NA,NA,NA,NA,NA,NA,NA,NA,NA,NA,NA,NA,NA,NA,NA,NA,NA,NA,NA,NA,NA,NA,NA,NA,NA
audio-instructions,40,373459,0.0-6.0-7.0,voc_e2,12118,"[{""event"":""fullscreenenter"",""trial"":1,""time"":3415}]",NA,497.59999999403954,static/audio/instructions14.wav,NA,0,NA,NA,NA,NA,NA,NA,NA,NA,NA,NA,NA,NA,NA,NA,NA,NA,NA,NA,NA,NA,NA,NA,NA,NA,NA
audio-instructions,41,380765,0.0-7.0-0.0,voc_e2,12118,"[{""event"":""fullscreenenter"",""trial"":1,""time"":3415}]",NA,392.59999999403954,static/audio/instructions15.wav,NA,0,NA,NA,NA,NA,NA,NA,NA,NA,NA,NA,NA,NA,NA,NA,NA,NA,NA,NA,NA,NA,NA,NA,NA,NA,NA
audio-instructions,42,388188,0.0-7.0-1.0,voc_e2,12118,"[{""event"":""fullscreenenter"",""trial"":1,""time"":3415}]",NA,596.2000000178814,static/audio/instructions16.wav,NA,0,NA,NA,NA,NA,NA,NA,NA,NA,NA,NA,NA,NA,NA,NA,NA,NA,NA,NA,NA,NA,NA,NA,NA,NA,NA
audio-instructions,43,396157,0.0-7.0-2.0,voc_e2,12118,"[{""event"":""fullscreenenter"",""trial"":1,""time"":3415}]",NA,295.30000001192093,static/audio/instructions17.wav,NA,0,NA,NA,NA,NA,NA,NA,NA,NA,NA,NA,NA,NA,NA,NA,NA,NA,NA,NA,NA,NA,NA,NA,NA,NA,NA
audio-instructions,44,412212,0.0-7.0-3.0,voc_e2,12118,"[{""event"":""fullscreenenter"",""trial"":1,""time"":3415}]",NA,8290.40000000596,static/audio/instructions18.wav,NA,0,NA,NA,NA,NA,NA,NA,NA,NA,NA,NA,NA,NA,NA,NA,NA,NA,NA,NA,NA,NA,NA,NA,NA,NA,NA
audio-instructions,45,419592,0.0-7.0-4.0,voc_e2,12118,"[{""event"":""fullscreenenter"",""trial"":1,""time"":3415}]",NA,629.8000000119209,static/audio/instructions19.wav,NA,0,NA,NA,NA,NA,NA,NA,NA,NA,NA,NA,NA,NA,NA,NA,NA,NA,NA,NA,NA,NA,NA,NA,NA,NA,NA
fcp-comprehension,46,435454,0.0-7.0-5.0,voc_e2,12118,"[{""event"":""fullscreenenter"",""trial"":1,""time"":3415}]",NA,15860.59999999404,NA,NA,NA,NA,NA,NA,NA,NA,NA,NA,NA,NA,NA,NA,NA,NA,NA,NA,"false,false,false,true",0,NA,NA,NA,NA,NA,NA,NA,NA
audio-instructions,47,445722,0.0-8.0,voc_e2,12118,"[{""event"":""fullscreenenter"",""trial"":1,""time"":3415}]",NA,1050.399999976158,static/audio/ready.wav,NA,0,NA,NA,NA,NA,NA,NA,NA,NA,NA,NA,NA,NA,NA,NA,NA,NA,NA,NA,NA,NA,NA,NA,NA,NA,NA
fcp-trial,48,452329,0.0-9.0-0.0,voc_e2,12118,"[{""event"":""fullscreenenter"",""trial"":1,""time"":3415}]",NA,NA,NA,NA,NA,4,#741CD8,#D8271C,10,0,0,38,1,2720.699999988079,39,0,2380.300000011921,0,1,experiment,NA,NA,1,0.3,0.7,3,2,1,1,NA
fcp-trial,49,457962,0.0-10.0-0.0,voc_e2,12118,"[{""event"":""fullscreenenter"",""trial"":1,""time"":3415}]",NA,NA,NA,NA,NA,0,#FA92F8,#1CD855,0,10,0,38,1,3263.199999988079,37,1,862.9000000059605,0,0,experiment,NA,NA,0,0.1,0.9,1,0,2,1,NA
fcp-trial,50,462280,0.0-11.0-0.0,voc_e2,12118,"[{""event"":""fullscreenenter"",""trial"":1,""time"":3415}]",NA,NA,NA,NA,NA,0,#3386FF,#D89F1C,0,10,0,38,1,2170.800000011921,39,0,641.1999999880791,10,1,experiment,NA,NA,2,0.5,0.5,5,4,3,1,NA
fcp-trial,51,467713,0.0-12.0-0.0,voc_e2,12118,"[{""event"":""fullscreenenter"",""trial"":1,""time"":3415}]",NA,NA,NA,NA,NA,3,#741CD8,#D8271C,10,10,0,40,0,2923.4000000059605,37,1,994,10,0,experiment,NA,NA,1,0.3,0.7,3,2,4,1,NA
fcp-trial,52,472122,0.0-13.0-0.0,voc_e2,12118,"[{""event"":""fullscreenenter"",""trial"":1,""time"":3415}]",NA,NA,NA,NA,NA,3,#1CD855,#FA92F8,10,10,1,40,0,2138.4000000059605,37,1,761.1000000238419,10,1,experiment,NA,NA,0,0.9,0.1,0,1,5,1,NA
fcp-trial,53,476660,0.0-14.0-0.0,voc_e2,12118,"[{""event"":""fullscreenenter"",""trial"":1,""time"":3415}]",NA,NA,NA,NA,NA,0,#741CD8,#D8271C,0,10,0,38,1,1560.300000011921,37,1,1469.399999976158,0,0,experiment,NA,NA,1,0.3,0.7,3,2,6,1,NA
fcp-trial,54,480455,0.0-15.0-0.0,voc_e2,12118,"[{""event"":""fullscreenenter"",""trial"":1,""time"":3415}]",NA,NA,NA,NA,NA,5,#D89F1C,#3386FF,0,10,1,40,0,1236.9000000059605,39,0,1054,10,0,experiment,NA,NA,2,0.5,0.5,4,5,7,1,NA
fcp-trial,55,484239,0.0-16.0-0.0,voc_e2,12118,"[{""event"":""fullscreenenter"",""trial"":1,""time"":3415}]",NA,NA,NA,NA,NA,6,#D89F1C,#3386FF,0,10,1,40,0,1637.199999988079,39,0,641.2000000178814,10,0,experiment,NA,NA,2,0.5,0.5,4,5,8,1,NA
fcp-trial,56,489581,0.0-17.0-0.0,voc_e2,12118,"[{""event"":""fullscreenenter"",""trial"":1,""time"":3415}]",NA,NA,NA,NA,NA,4,#1CD855,#FA92F8,10,0,1,40,0,3132.2999999821186,39,0,707.5,0,0,experiment,NA,NA,0,0.9,0.1,0,1,9,1,NA
fcp-trial,57,495549,0.0-18.0-0.0,voc_e2,12118,"[{""event"":""fullscreenenter"",""trial"":1,""time"":3415}]",NA,NA,NA,NA,NA,2,#D8271C,#741CD8,0,0,1,40,0,3843.300000011921,39,0,620.5999999940395,0,0,experiment,NA,NA,1,0.7,0.3,2,3,10,1,NA
fcp-trial,58,504634,0.0-19.0-0.0,voc_e2,12118,"[{""event"":""fullscreenenter"",""trial"":1,""time"":3415}]",NA,NA,NA,NA,NA,2,#3386FF,#D89F1C,10,10,0,38,1,6981.699999988079,39,0,600,10,1,experiment,NA,NA,2,0.5,0.5,5,4,11,1,NA
fcp-trial,59,508725,0.0-20.0-0.0,voc_e2,12118,"[{""event"":""fullscreenenter"",""trial"":1,""time"":3415}]",NA,NA,NA,NA,NA,1,#1CD855,#FA92F8,0,10,1,40,0,1955.5999999940395,39,0,630.2000000178814,10,0,experiment,NA,NA,0,0.9,0.1,0,1,12,1,NA
fcp-trial,60,512752,0.0-21.0-0.0,voc_e2,12118,"[{""event"":""fullscreenenter"",""trial"":1,""time"":3415}]",NA,NA,NA,NA,NA,4,#D89F1C,#3386FF,10,10,1,40,0,1950.300000011921,37,1,573.6999999880791,10,1,experiment,NA,NA,2,0.5,0.5,4,5,13,1,NA
fcp-trial,61,515665,0.0-22.0-0.0,voc_e2,12118,"[{""event"":""fullscreenenter"",""trial"":1,""time"":3415}]",NA,NA,NA,NA,NA,6,#1CD855,#FA92F8,10,0,1,40,0,887.7000000178814,37,1,520.5999999940395,10,1,experiment,NA,NA,0,0.9,0.1,0,1,14,1,NA
fcp-trial,62,519234,0.0-23.0-0.0,voc_e2,12118,"[{""event"":""fullscreenenter"",""trial"":1,""time"":3415}]",NA,NA,NA,NA,NA,5,#D8271C,#741CD8,10,0,1,40,0,1499.199999988079,39,0,565,0,0,experiment,NA,NA,1,0.7,0.3,2,3,15,1,NA
fcp-trial,63,522933,0.0-24.0-0.0,voc_e2,12118,"[{""event"":""fullscreenenter"",""trial"":1,""time"":3415}]",NA,NA,NA,NA,NA,1,#D8271C,#741CD8,10,0,1,40,0,1680.5999999940395,39,0,514.0999999940395,0,0,experiment,NA,NA,1,0.7,0.3,2,3,16,1,NA
fcp-trial,64,526590,0.0-25.0-0.0,voc_e2,12118,"[{""event"":""fullscreenenter"",""trial"":1,""time"":3415}]",NA,NA,NA,NA,NA,3,#D89F1C,#3386FF,10,0,1,40,0,1718.4000000059605,37,1,435.09999999403954,10,1,experiment,NA,NA,2,0.5,0.5,4,5,17,1,NA
fcp-trial,65,530345,0.0-26.0-0.0,voc_e2,12118,"[{""event"":""fullscreenenter"",""trial"":1,""time"":3415}]",NA,NA,NA,NA,NA,6,#D8271C,#741CD8,10,0,1,40,0,1714.7000000178814,39,0,535.6999999880791,0,0,experiment,NA,NA,1,0.7,0.3,2,3,18,1,NA
fcp-trial,66,534517,0.0-27.0-0.0,voc_e2,12118,"[{""event"":""fullscreenenter"",""trial"":1,""time"":3415}]",NA,NA,NA,NA,NA,5,#FA92F8,#1CD855,0,10,0,40,0,2177.5,39,0,490.90000000596046,10,1,experiment,NA,NA,0,0.1,0.9,1,0,19,1,NA
fcp-trial,67,540641,0.0-28.0-0.0,voc_e2,12118,"[{""event"":""fullscreenenter"",""trial"":1,""time"":3415}]",NA,NA,NA,NA,NA,2,#FA92F8,#1CD855,0,10,0,40,0,4090.5999999940395,37,1,529.8000000119209,0,0,experiment,NA,NA,0,0.1,0.9,1,0,20,1,NA
fcp-trial,68,545677,0.0-29.0-0.0,voc_e2,12118,"[{""event"":""fullscreenenter"",""trial"":1,""time"":3415}]",NA,NA,NA,NA,NA,1,#3386FF,#D89F1C,0,10,0,38,1,3110.4000000059605,39,0,422.199999988079,10,1,experiment,NA,NA,2,0.5,0.5,5,4,21,1,NA
fcp-trial,69,550577,0.0-30.0-0.0,voc_e2,12118,"[{""event"":""fullscreenenter"",""trial"":1,""time"":3415}]",NA,NA,NA,NA,NA,2,#1CD855,#FA92F8,10,0,1,40,0,2941.699999988079,39,0,453.40000000596046,0,0,experiment,NA,NA,0,0.9,0.1,0,1,22,1,NA
fcp-trial,70,554569,0.0-31.0-0.0,voc_e2,12118,"[{""event"":""fullscreenenter"",""trial"":1,""time"":3415}]",NA,NA,NA,NA,NA,1,#FA92F8,#1CD855,0,10,0,38,1,2006.9000000059605,37,1,482.699999988079,0,0,experiment,NA,NA,0,0.1,0.9,1,0,23,1,NA
fcp-trial,71,557948,0.0-32.0-0.0,voc_e2,12118,"[{""event"":""fullscreenenter"",""trial"":1,""time"":3415}]",NA,NA,NA,NA,NA,6,#1CD855,#FA92F8,10,0,1,40,0,1180.5,37,1,690.9000000059605,10,1,experiment,NA,NA,0,0.9,0.1,0,1,24,1,NA
fcp-trial,72,561298,0.0-33.0-0.0,voc_e2,12118,"[{""event"":""fullscreenenter"",""trial"":1,""time"":3415}]",NA,NA,NA,NA,NA,6,#3386FF,#D89F1C,10,0,0,40,0,1293,37,1,551.4000000059605,10,0,experiment,NA,NA,2,0.5,0.5,5,4,25,1,NA
fcp-trial,73,565527,0.0-34.0-0.0,voc_e2,12118,"[{""event"":""fullscreenenter"",""trial"":1,""time"":3415}]",NA,NA,NA,NA,NA,1,#741CD8,#D8271C,0,10,0,40,0,2139,39,0,587.1999999880791,10,1,experiment,NA,NA,1,0.3,0.7,3,2,26,1,NA
fcp-trial,74,568362,0.0-35.0-0.0,voc_e2,12118,"[{""event"":""fullscreenenter"",""trial"":1,""time"":3415}]",NA,NA,NA,NA,NA,3,#741CD8,#D8271C,0,0,0,40,0,761.5999999940395,37,1,569.4000000059605,0,0,experiment,NA,NA,1,0.3,0.7,3,2,27,1,NA
fcp-trial,75,571942,0.0-36.0-0.0,voc_e2,12118,"[{""event"":""fullscreenenter"",""trial"":1,""time"":3415}]",NA,NA,NA,NA,NA,5,#FA92F8,#1CD855,0,10,0,40,0,1417.7000000178814,37,1,660,0,0,experiment,NA,NA,0,0.1,0.9,1,0,28,1,NA
fcp-trial,76,576087,0.0-37.0-0.0,voc_e2,12118,"[{""event"":""fullscreenenter"",""trial"":1,""time"":3415}]",NA,NA,NA,NA,NA,0,#D8271C,#741CD8,10,10,1,38,1,2132.300000011921,37,1,507.2999999821186,10,1,experiment,NA,NA,1,0.7,0.3,2,3,29,1,NA
fcp-trial,77,579700,0.0-38.0-0.0,voc_e2,12118,"[{""event"":""fullscreenenter"",""trial"":1,""time"":3415}]",NA,NA,NA,NA,NA,1,#3386FF,#D89F1C,0,0,0,38,1,1711.800000011921,39,0,399.300000011921,0,1,experiment,NA,NA,2,0.5,0.5,5,4,30,1,NA
fcp-trial,78,583325,0.0-39.0-0.0,voc_e2,12118,"[{""event"":""fullscreenenter"",""trial"":1,""time"":3415}]",NA,NA,NA,NA,NA,0,#3386FF,#D89F1C,0,0,0,38,1,1540.5999999940395,39,0,579.9000000059605,0,1,experiment,NA,NA,2,0.5,0.5,5,4,31,1,NA
fcp-trial,79,587881,0.0-40.0-0.0,voc_e2,12118,"[{""event"":""fullscreenenter"",""trial"":1,""time"":3415}]",NA,NA,NA,NA,NA,3,#FA92F8,#1CD855,0,10,0,40,0,2587,39,0,464.699999988079,10,1,experiment,NA,NA,0,0.1,0.9,1,0,32,1,NA
fcp-trial,80,592070,0.0-41.0-0.0,voc_e2,12118,"[{""event"":""fullscreenenter"",""trial"":1,""time"":3415}]",NA,NA,NA,NA,NA,5,#741CD8,#D8271C,0,0,0,40,0,2190.300000011921,39,0,495.5,0,1,experiment,NA,NA,1,0.3,0.7,3,2,33,1,NA
fcp-trial,81,595676,0.0-42.0-0.0,voc_e2,12118,"[{""event"":""fullscreenenter"",""trial"":1,""time"":3415}]",NA,NA,NA,NA,NA,4,#3386FF,#D89F1C,0,0,0,40,0,1601.8999999761581,39,0,499,0,1,experiment,NA,NA,2,0.5,0.5,5,4,34,1,NA
fcp-trial,82,598939,0.0-43.0-0.0,voc_e2,12118,"[{""event"":""fullscreenenter"",""trial"":1,""time"":3415}]",NA,NA,NA,NA,NA,3,#3386FF,#D89F1C,0,10,0,40,0,1076.5999999940395,39,0,683.1999999880791,10,1,experiment,NA,NA,2,0.5,0.5,5,4,35,1,NA
fcp-trial,83,602972,0.0-44.0-0.0,voc_e2,12118,"[{""event"":""fullscreenenter"",""trial"":1,""time"":3415}]",NA,NA,NA,NA,NA,6,#741CD8,#D8271C,0,10,0,40,0,1944,39,0,584.7999999821186,10,1,experiment,NA,NA,1,0.3,0.7,3,2,36,1,NA
fcp-trial,84,607914,0.0-45.0-0.0,voc_e2,12118,"[{""event"":""fullscreenenter"",""trial"":1,""time"":3415}]",NA,NA,NA,NA,NA,0,#FA92F8,#1CD855,0,10,0,38,1,2305.0999999940395,39,0,1133.5999999940395,10,1,experiment,NA,NA,0,0.1,0.9,1,0,37,1,NA
fcp-trial,85,611667,0.0-46.0-0.0,voc_e2,12118,"[{""event"":""fullscreenenter"",""trial"":1,""time"":3415}]",NA,NA,NA,NA,NA,2,#3386FF,#D89F1C,0,0,0,40,0,1626.5999999940395,37,1,623.1999999880791,0,0,experiment,NA,NA,2,0.5,0.5,5,4,38,1,NA
fcp-trial,86,614969,0.0-47.0-0.0,voc_e2,12118,"[{""event"":""fullscreenenter"",""trial"":1,""time"":3415}]",NA,NA,NA,NA,NA,2,#D8271C,#741CD8,10,0,1,40,0,1334.1000000238419,37,1,463.40000000596046,10,1,experiment,NA,NA,1,0.7,0.3,2,3,39,1,NA
fcp-trial,87,618446,0.0-48.0-0.0,voc_e2,12118,"[{""event"":""fullscreenenter"",""trial"":1,""time"":3415}]",NA,NA,NA,NA,NA,4,#FA92F8,#1CD855,0,10,0,40,0,1170.300000011921,39,0,802.4000000059605,10,1,experiment,NA,NA,0,0.1,0.9,1,0,40,1,NA
fcp-trial,88,621514,0.0-49.0-0.0,voc_e2,12118,"[{""event"":""fullscreenenter"",""trial"":1,""time"":3415}]",NA,NA,NA,NA,NA,4,#741CD8,#D8271C,0,0,0,40,0,984.5999999940395,37,1,580.7000000178814,0,0,experiment,NA,NA,1,0.3,0.7,3,2,41,1,NA
fcp-trial,89,624332,0.0-50.0-0.0,voc_e2,12118,"[{""event"":""fullscreenenter"",""trial"":1,""time"":3415}]",NA,NA,NA,NA,NA,5,#D89F1C,#3386FF,0,0,1,40,0,738.4000000059605,37,1,576.2999999821186,0,1,experiment,NA,NA,2,0.5,0.5,4,5,42,1,NA
fcp-trial,90,627529,0.0-51.0-0.0,voc_e2,12118,"[{""event"":""fullscreenenter"",""trial"":1,""time"":3415}]",NA,NA,NA,NA,NA,3,#741CD8,#D8271C,0,10,0,40,0,1196.5,39,0,496.60000002384186,10,1,experiment,NA,NA,1,0.3,0.7,3,2,43,1,NA
fcp-trial,91,632737,0.0-52.0-0.0,voc_e2,12118,"[{""event"":""fullscreenenter"",""trial"":1,""time"":3415}]",NA,NA,NA,NA,NA,5,#3386FF,#D89F1C,10,0,0,40,0,3076.800000011921,37,1,627.5,10,0,experiment,NA,NA,2,0.5,0.5,5,4,44,1,NA
fcp-trial,92,637918,0.0-53.0-0.0,voc_e2,12118,"[{""event"":""fullscreenenter"",""trial"":1,""time"":3415}]",NA,NA,NA,NA,NA,0,#FA92F8,#1CD855,0,10,0,38,1,2527,39,0,1150.800000011921,10,1,experiment,NA,NA,0,0.1,0.9,1,0,45,1,NA
fcp-trial,93,640773,0.0-54.0-0.0,voc_e2,12118,"[{""event"":""fullscreenenter"",""trial"":1,""time"":3415}]",NA,NA,NA,NA,NA,6,#D8271C,#741CD8,10,0,1,40,0,818.2000000178814,39,0,532.6999999880791,0,0,experiment,NA,NA,1,0.7,0.3,2,3,46,2,NA
fcp-trial,94,644730,0.0-55.0-0.0,voc_e2,12118,"[{""event"":""fullscreenenter"",""trial"":1,""time"":3415}]",NA,NA,NA,NA,NA,2,#D89F1C,#3386FF,0,10,1,40,0,1916.2999999821186,37,1,536.7999999821186,0,1,experiment,NA,NA,2,0.5,0.5,4,5,47,2,NA
fcp-trial,95,649291,0.0-56.0-0.0,voc_e2,12118,"[{""event"":""fullscreenenter"",""trial"":1,""time"":3415}]",NA,NA,NA,NA,NA,4,#FA92F8,#1CD855,0,10,0,40,0,2552.4000000059605,39,0,505.09999999403954,10,1,experiment,NA,NA,0,0.1,0.9,1,0,48,2,NA
fcp-trial,96,652845,0.0-57.0-0.0,voc_e2,12118,"[{""event"":""fullscreenenter"",""trial"":1,""time"":3415}]",NA,NA,NA,NA,NA,2,#1CD855,#FA92F8,10,0,1,40,0,1498.199999988079,37,1,551.5999999940395,10,1,experiment,NA,NA,0,0.9,0.1,0,1,49,2,NA
fcp-trial,97,656257,0.0-58.0-0.0,voc_e2,12118,"[{""event"":""fullscreenenter"",""trial"":1,""time"":3415}]",NA,NA,NA,NA,NA,2,#741CD8,#D8271C,0,10,0,40,0,1329.699999988079,39,0,578.9000000059605,10,1,experiment,NA,NA,1,0.3,0.7,3,2,50,2,NA
fcp-trial,98,659660,0.0-59.0-0.0,voc_e2,12118,"[{""event"":""fullscreenenter"",""trial"":1,""time"":3415}]",NA,NA,NA,NA,NA,5,#FA92F8,#1CD855,0,10,0,40,0,1342.0999999940395,39,0,556.6999999880791,10,1,experiment,NA,NA,0,0.1,0.9,1,0,51,2,NA
fcp-trial,99,662824,0.0-60.0-0.0,voc_e2,12118,"[{""event"":""fullscreenenter"",""trial"":1,""time"":3415}]",NA,NA,NA,NA,NA,0,#D89F1C,#3386FF,0,10,1,38,1,1210.3999999761581,39,0,447.699999988079,10,0,experiment,NA,NA,2,0.5,0.5,4,5,52,2,NA
fcp-trial,100,666423,0.0-61.0-0.0,voc_e2,12118,"[{""event"":""fullscreenenter"",""trial"":1,""time"":3415}]",NA,NA,NA,NA,NA,1,#1CD855,#FA92F8,0,0,1,40,0,1509.699999988079,39,0,585.9000000059605,0,0,experiment,NA,NA,0,0.9,0.1,0,1,53,2,NA
fcp-trial,101,671139,0.0-62.0-0.0,voc_e2,12118,"[{""event"":""fullscreenenter"",""trial"":1,""time"":3415}]",NA,NA,NA,NA,NA,1,#741CD8,#D8271C,10,0,0,38,1,2806.5,39,0,405.89999997615814,0,1,experiment,NA,NA,1,0.3,0.7,3,2,54,2,NA
fcp-trial,102,674242,0.0-63.0-0.0,voc_e2,12118,"[{""event"":""fullscreenenter"",""trial"":1,""time"":3415}]",NA,NA,NA,NA,NA,0,#D8271C,#741CD8,10,0,1,38,1,1258.5,37,1,340.69999998807907,10,1,experiment,NA,NA,1,0.7,0.3,2,3,55,2,NA
fcp-trial,103,678381,0.0-64.0-0.0,voc_e2,12118,"[{""event"":""fullscreenenter"",""trial"":1,""time"":3415}]",NA,NA,NA,NA,NA,3,#3386FF,#D89F1C,10,0,0,40,0,2156.5999999940395,39,0,478,0,1,experiment,NA,NA,2,0.5,0.5,5,4,56,2,NA
fcp-trial,104,683239,0.0-65.0-0.0,voc_e2,12118,"[{""event"":""fullscreenenter"",""trial"":1,""time"":3415}]",NA,NA,NA,NA,NA,4,#D8271C,#741CD8,10,10,1,40,0,2879.199999988079,39,0,475.90000000596046,10,0,experiment,NA,NA,1,0.7,0.3,2,3,57,2,NA
fcp-trial,105,687708,0.0-66.0-0.0,voc_e2,12118,"[{""event"":""fullscreenenter"",""trial"":1,""time"":3415}]",NA,NA,NA,NA,NA,3,#FA92F8,#1CD855,0,10,0,38,1,2637.300000011921,39,0,327.90000000596046,10,1,experiment,NA,NA,0,0.1,0.9,1,0,58,2,NA
fcp-trial,106,690903,0.0-67.0-0.0,voc_e2,12118,"[{""event"":""fullscreenenter"",""trial"":1,""time"":3415}]",NA,NA,NA,NA,NA,1,#3386FF,#D89F1C,0,0,0,38,1,1354,37,1,336.59999999403954,0,0,experiment,NA,NA,2,0.5,0.5,5,4,59,2,NA
fcp-trial,107,693678,0.0-68.0-0.0,voc_e2,12118,"[{""event"":""fullscreenenter"",""trial"":1,""time"":3415}]",NA,NA,NA,NA,NA,4,#D89F1C,#3386FF,10,10,1,40,0,779.3000000119209,37,1,490.90000000596046,10,1,experiment,NA,NA,2,0.5,0.5,4,5,60,2,NA
fcp-trial,108,696698,0.0-69.0-0.0,voc_e2,12118,"[{""event"":""fullscreenenter"",""trial"":1,""time"":3415}]",NA,NA,NA,NA,NA,6,#D89F1C,#3386FF,10,10,1,40,0,973.7999999821186,37,1,539.4000000059605,10,1,experiment,NA,NA,2,0.5,0.5,4,5,61,2,NA
fcp-trial,109,700375,0.0-70.0-0.0,voc_e2,12118,"[{""event"":""fullscreenenter"",""trial"":1,""time"":3415}]",NA,NA,NA,NA,NA,5,#D8271C,#741CD8,10,10,1,40,0,1511.9000000059605,37,1,661.0999999940395,10,1,experiment,NA,NA,1,0.7,0.3,2,3,62,2,NA
fcp-trial,110,703355,0.0-71.0-0.0,voc_e2,12118,"[{""event"":""fullscreenenter"",""trial"":1,""time"":3415}]",NA,NA,NA,NA,NA,6,#1CD855,#FA92F8,10,0,1,40,0,921,39,0,554.7999999821186,0,0,experiment,NA,NA,0,0.9,0.1,0,1,63,2,NA
fcp-trial,111,707665,0.0-72.0-0.0,voc_e2,12118,"[{""event"":""fullscreenenter"",""trial"":1,""time"":3415}]",NA,NA,NA,NA,NA,2,#D89F1C,#3386FF,0,10,1,38,1,2497.2000000178814,39,0,308.60000002384186,10,0,experiment,NA,NA,2,0.5,0.5,4,5,64,2,NA
fcp-trial,112,710863,0.0-73.0-0.0,voc_e2,12118,"[{""event"":""fullscreenenter"",""trial"":1,""time"":3415}]",NA,NA,NA,NA,NA,6,#1CD855,#FA92F8,10,0,1,40,0,1269.199999988079,39,0,425,0,0,experiment,NA,NA,0,0.9,0.1,0,1,65,2,NA
fcp-trial,113,714535,0.0-74.0-0.0,voc_e2,12118,"[{""event"":""fullscreenenter"",""trial"":1,""time"":3415}]",NA,NA,NA,NA,NA,1,#D8271C,#741CD8,10,10,1,38,1,1846.3999999761581,37,1,321.59999999403954,10,1,experiment,NA,NA,1,0.7,0.3,2,3,66,2,NA
fcp-trial,114,717533,0.0-75.0-0.0,voc_e2,12118,"[{""event"":""fullscreenenter"",""trial"":1,""time"":3415}]",NA,NA,NA,NA,NA,0,#741CD8,#D8271C,0,0,0,38,1,1140.1000000238419,39,0,353.80000001192093,0,1,experiment,NA,NA,1,0.3,0.7,3,2,67,2,NA
fcp-trial,115,723929,0.0-76.0-0.0,voc_e2,12118,"[{""event"":""fullscreenenter"",""trial"":1,""time"":3415}]",NA,NA,NA,NA,NA,0,#FA92F8,#1CD855,0,10,0,38,1,2254.5,39,0,2637.9000000059605,10,1,experiment,NA,NA,0,0.1,0.9,1,0,68,2,NA
fcp-trial,116,727250,0.0-77.0-0.0,voc_e2,12118,"[{""event"":""fullscreenenter"",""trial"":1,""time"":3415}]",NA,NA,NA,NA,NA,0,#3386FF,#D89F1C,10,10,0,38,1,1533.9000000059605,37,1,281.59999999403954,10,0,experiment,NA,NA,2,0.5,0.5,5,4,69,2,NA
fcp-trial,117,730647,0.0-78.0-0.0,voc_e2,12118,"[{""event"":""fullscreenenter"",""trial"":1,""time"":3415}]",NA,NA,NA,NA,NA,4,#D8271C,#741CD8,10,0,1,40,0,1418.300000011921,39,0,473.59999999403954,0,0,experiment,NA,NA,1,0.7,0.3,2,3,70,2,NA
fcp-trial,118,734558,0.0-79.0-0.0,voc_e2,12118,"[{""event"":""fullscreenenter"",""trial"":1,""time"":3415}]",NA,NA,NA,NA,NA,4,#1CD855,#FA92F8,10,10,1,38,1,2075.9000000059605,37,1,330,10,1,experiment,NA,NA,0,0.9,0.1,0,1,71,2,NA
fcp-trial,119,737550,0.0-80.0-0.0,voc_e2,12118,"[{""event"":""fullscreenenter"",""trial"":1,""time"":3415}]",NA,NA,NA,NA,NA,6,#D89F1C,#3386FF,0,0,1,40,0,1069,39,0,418.59999999403954,0,0,experiment,NA,NA,2,0.5,0.5,4,5,72,2,NA
fcp-trial,120,742465,0.0-81.0-0.0,voc_e2,12118,"[{""event"":""fullscreenenter"",""trial"":1,""time"":3415}]",NA,NA,NA,NA,NA,3,#D8271C,#741CD8,10,10,1,38,1,3120.2999999821186,37,1,291.90000000596046,10,1,experiment,NA,NA,1,0.7,0.3,2,3,73,2,NA
fcp-trial,121,746254,0.0-82.0-0.0,voc_e2,12118,"[{""event"":""fullscreenenter"",""trial"":1,""time"":3415}]",NA,NA,NA,NA,NA,1,#1CD855,#FA92F8,10,0,1,38,1,1997.9000000059605,37,1,288.40000000596046,10,1,experiment,NA,NA,0,0.9,0.1,0,1,74,2,NA
fcp-trial,122,749168,0.0-83.0-0.0,voc_e2,12118,"[{""event"":""fullscreenenter"",""trial"":1,""time"":3415}]",NA,NA,NA,NA,NA,1,#D89F1C,#3386FF,10,0,1,38,1,1061.2000000178814,39,0,346.40000000596046,0,0,experiment,NA,NA,2,0.5,0.5,4,5,75,2,NA
fcp-trial,123,752452,0.0-84.0-0.0,voc_e2,12118,"[{""event"":""fullscreenenter"",""trial"":1,""time"":3415}]",NA,NA,NA,NA,NA,6,#741CD8,#D8271C,0,0,0,40,0,1381,37,1,397,0,0,experiment,NA,NA,1,0.3,0.7,3,2,76,2,NA
fcp-trial,124,756721,0.0-85.0-0.0,voc_e2,12118,"[{""event"":""fullscreenenter"",""trial"":1,""time"":3415}]",NA,NA,NA,NA,NA,2,#FA92F8,#1CD855,0,10,0,38,1,2206.0999999940395,39,0,559.5,10,1,experiment,NA,NA,0,0.1,0.9,1,0,77,2,NA
fcp-trial,125,760011,0.0-86.0-0.0,voc_e2,12118,"[{""event"":""fullscreenenter"",""trial"":1,""time"":3415}]",NA,NA,NA,NA,NA,3,#3386FF,#D89F1C,0,10,0,40,0,1334.800000011921,37,1,451,0,0,experiment,NA,NA,2,0.5,0.5,5,4,78,2,NA
fcp-trial,126,762928,0.0-87.0-0.0,voc_e2,12118,"[{""event"":""fullscreenenter"",""trial"":1,""time"":3415}]",NA,NA,NA,NA,NA,4,#D89F1C,#3386FF,10,10,1,40,0,919.1999999880791,37,1,495,10,1,experiment,NA,NA,2,0.5,0.5,4,5,79,2,NA
fcp-trial,127,765667,0.0-88.0-0.0,voc_e2,12118,"[{""event"":""fullscreenenter"",""trial"":1,""time"":3415}]",NA,NA,NA,NA,NA,5,#3386FF,#D89F1C,0,0,0,40,0,808.0999999940395,39,0,426.09999999403954,0,1,experiment,NA,NA,2,0.5,0.5,5,4,80,2,NA
fcp-trial,128,769090,0.0-89.0-0.0,voc_e2,12118,"[{""event"":""fullscreenenter"",""trial"":1,""time"":3415}]",NA,NA,NA,NA,NA,5,#741CD8,#D8271C,10,10,0,40,0,1413.8999999761581,39,0,506.199999988079,10,1,experiment,NA,NA,1,0.3,0.7,3,2,81,2,NA
fcp-trial,129,772731,0.0-90.0-0.0,voc_e2,12118,"[{""event"":""fullscreenenter"",""trial"":1,""time"":3415}]",NA,NA,NA,NA,NA,3,#FA92F8,#1CD855,0,10,0,38,1,1532.800000011921,39,0,603.5,10,1,experiment,NA,NA,0,0.1,0.9,1,0,82,2,NA
fcp-trial,130,776121,0.0-91.0-0.0,voc_e2,12118,"[{""event"":""fullscreenenter"",""trial"":1,""time"":3415}]",NA,NA,NA,NA,NA,2,#D8271C,#741CD8,10,0,1,38,1,1621.199999988079,37,1,263.69999998807907,10,1,experiment,NA,NA,1,0.7,0.3,2,3,83,2,NA
fcp-trial,131,778746,0.0-92.0-0.0,voc_e2,12118,"[{""event"":""fullscreenenter"",""trial"":1,""time"":3415}]",NA,NA,NA,NA,NA,5,#1CD855,#FA92F8,10,10,1,40,0,760.6000000238419,37,1,360.59999999403954,10,1,experiment,NA,NA,0,0.9,0.1,0,1,84,2,NA
fcp-trial,132,781770,0.0-93.0-0.0,voc_e2,12118,"[{""event"":""fullscreenenter"",""trial"":1,""time"":3415}]",NA,NA,NA,NA,NA,0,#1CD855,#FA92F8,10,0,1,38,1,1193.300000011921,37,1,326.60000002384186,10,1,experiment,NA,NA,0,0.9,0.1,0,1,85,2,NA
fcp-trial,133,784405,0.0-94.0-0.0,voc_e2,12118,"[{""event"":""fullscreenenter"",""trial"":1,""time"":3415}]",NA,NA,NA,NA,NA,6,#741CD8,#D8271C,0,0,0,40,0,799.2000000178814,39,0,331.90000000596046,0,1,experiment,NA,NA,1,0.3,0.7,3,2,86,2,NA
fcp-trial,134,787508,0.0-95.0-0.0,voc_e2,12118,"[{""event"":""fullscreenenter"",""trial"":1,""time"":3415}]",NA,NA,NA,NA,NA,2,#FA92F8,#1CD855,0,10,0,38,1,1084.0999999940395,39,0,514.1999999880791,10,1,experiment,NA,NA,0,0.1,0.9,1,0,87,2,NA
fcp-trial,135,790246,0.0-96.0-0.0,voc_e2,12118,"[{""event"":""fullscreenenter"",""trial"":1,""time"":3415}]",NA,NA,NA,NA,NA,3,#741CD8,#D8271C,10,0,0,40,0,894.5999999940395,39,0,337.7000000178814,0,1,experiment,NA,NA,1,0.3,0.7,3,2,88,2,NA
fcp-trial,136,793477,0.0-97.0-0.0,voc_e2,12118,"[{""event"":""fullscreenenter"",""trial"":1,""time"":3415}]",NA,NA,NA,NA,NA,0,#741CD8,#D8271C,0,10,0,38,1,1418.199999988079,39,0,308.5,10,1,experiment,NA,NA,1,0.3,0.7,3,2,89,2,NA
fcp-trial,137,796520,0.0-98.0-0.0,voc_e2,12118,"[{""event"":""fullscreenenter"",""trial"":1,""time"":3415}]",NA,NA,NA,NA,NA,6,#3386FF,#D89F1C,0,0,0,40,0,921.5999999940395,39,0,617.1000000238419,0,1,experiment,NA,NA,2,0.5,0.5,5,4,90,2,NA
fcp-trial,138,799651,0.0-99.0-0.0,voc_e2,12118,"[{""event"":""fullscreenenter"",""trial"":1,""time"":3415}]",NA,NA,NA,NA,NA,3,#3386FF,#D89F1C,10,10,0,38,1,1134.7000000178814,37,1,492,10,0,experiment,NA,NA,2,0.5,0.5,5,4,91,3,NA
fcp-trial,139,802823,0.0-100.0-0.0,voc_e2,12118,"[{""event"":""fullscreenenter"",""trial"":1,""time"":3415}]",NA,NA,NA,NA,NA,1,#FA92F8,#1CD855,0,10,0,38,1,1355.199999988079,39,0,312.80000001192093,10,1,experiment,NA,NA,0,0.1,0.9,1,0,92,3,NA
fcp-trial,140,805537,0.0-101.0-0.0,voc_e2,12118,"[{""event"":""fullscreenenter"",""trial"":1,""time"":3415}]",NA,NA,NA,NA,NA,1,#D8271C,#741CD8,10,0,1,38,1,883.9000000059605,37,1,325.60000002384186,10,1,experiment,NA,NA,1,0.7,0.3,2,3,93,3,NA
fcp-trial,141,808545,0.0-102.0-0.0,voc_e2,12118,"[{""event"":""fullscreenenter"",""trial"":1,""time"":3415}]",NA,NA,NA,NA,NA,4,#3386FF,#D89F1C,10,0,0,40,0,1061.699999988079,37,1,441.699999988079,10,0,experiment,NA,NA,2,0.5,0.5,5,4,94,3,NA
fcp-trial,142,811653,0.0-103.0-0.0,voc_e2,12118,"[{""event"":""fullscreenenter"",""trial"":1,""time"":3415}]",NA,NA,NA,NA,NA,4,#1CD855,#FA92F8,10,0,1,40,0,1196.699999988079,37,1,406.800000011921,10,1,experiment,NA,NA,0,0.9,0.1,0,1,95,3,NA
fcp-trial,143,814528,0.0-104.0-0.0,voc_e2,12118,"[{""event"":""fullscreenenter"",""trial"":1,""time"":3415}]",NA,NA,NA,NA,NA,2,#D89F1C,#3386FF,0,10,1,38,1,833.3000000119209,39,0,537.5,10,0,experiment,NA,NA,2,0.5,0.5,4,5,96,3,NA
fcp-trial,144,817675,0.0-105.0-0.0,voc_e2,12118,"[{""event"":""fullscreenenter"",""trial"":1,""time"":3415}]",NA,NA,NA,NA,NA,2,#741CD8,#D8271C,0,10,0,38,1,1336,39,0,307.89999997615814,10,1,experiment,NA,NA,1,0.3,0.7,3,2,97,3,NA
fcp-trial,145,820606,0.0-106.0-0.0,voc_e2,12118,"[{""event"":""fullscreenenter"",""trial"":1,""time"":3415}]",NA,NA,NA,NA,NA,5,#FA92F8,#1CD855,0,10,0,40,0,924.8000000119209,37,1,502.09999999403954,0,0,experiment,NA,NA,0,0.1,0.9,1,0,98,3,NA
fcp-trial,146,825257,0.0-107.0-0.0,voc_e2,12118,"[{""event"":""fullscreenenter"",""trial"":1,""time"":3415}]",NA,NA,NA,NA,NA,4,#D8271C,#741CD8,0,0,1,38,1,2869.0999999940395,37,1,278.19999998807907,0,1,experiment,NA,NA,1,0.7,0.3,2,3,99,3,NA
fcp-trial,147,828156,0.0-108.0-0.0,voc_e2,12118,"[{""event"":""fullscreenenter"",""trial"":1,""time"":3415}]",NA,NA,NA,NA,NA,3,#FA92F8,#1CD855,0,10,0,40,0,1005.5999999940395,39,0,388.40000000596046,10,1,experiment,NA,NA,0,0.1,0.9,1,0,100,3,NA
fcp-trial,148,831497,0.0-109.0-0.0,voc_e2,12118,"[{""event"":""fullscreenenter"",""trial"":1,""time"":3415}]",NA,NA,NA,NA,NA,5,#D89F1C,#3386FF,10,0,1,40,0,1435.4000000059605,39,0,402.199999988079,0,0,experiment,NA,NA,2,0.5,0.5,4,5,101,3,NA
fcp-trial,149,834724,0.0-110.0-0.0,voc_e2,12118,"[{""event"":""fullscreenenter"",""trial"":1,""time"":3415}]",NA,NA,NA,NA,NA,5,#741CD8,#D8271C,0,0,0,40,0,1227.699999988079,39,0,495.5,0,1,experiment,NA,NA,1,0.3,0.7,3,2,102,3,NA
fcp-trial,150,837831,0.0-111.0-0.0,voc_e2,12118,"[{""event"":""fullscreenenter"",""trial"":1,""time"":3415}]",NA,NA,NA,NA,NA,0,#3386FF,#D89F1C,0,0,0,38,1,1224.5999999940395,37,1,377.90000000596046,0,0,experiment,NA,NA,2,0.5,0.5,5,4,103,3,NA
fcp-trial,151,840944,0.0-112.0-0.0,voc_e2,12118,"[{""event"":""fullscreenenter"",""trial"":1,""time"":3415}]",NA,NA,NA,NA,NA,1,#D89F1C,#3386FF,0,0,1,38,1,1217.5,39,0,391.7000000178814,0,0,experiment,NA,NA,2,0.5,0.5,4,5,104,3,NA
fcp-trial,152,843728,0.0-113.0-0.0,voc_e2,12118,"[{""event"":""fullscreenenter"",""trial"":1,""time"":3415}]",NA,NA,NA,NA,NA,6,#FA92F8,#1CD855,0,10,0,40,0,843.3000000119209,39,0,436.09999999403954,10,1,experiment,NA,NA,0,0.1,0.9,1,0,105,3,NA
audio-instructions,153,850797,0.0-114.0,voc_e2,12118,"[{""event"":""fullscreenenter"",""trial"":1,""time"":3415}]",NA,2624.5,static/audio/pause.wav,NA,0,NA,NA,NA,NA,NA,NA,NA,NA,NA,NA,NA,NA,NA,NA,NA,NA,NA,NA,NA,NA,NA,NA,NA,NA,NA
fcp-trial,154,855009,0.0-115.0-0.0,voc_e2,12118,"[{""event"":""fullscreenenter"",""trial"":1,""time"":3415}]",NA,NA,NA,NA,NA,2,#FA92F8,#1CD855,0,10,0,38,1,2400.2999999821186,39,0,308,10,1,experiment,NA,NA,0,0.1,0.9,1,0,106,3,NA
fcp-trial,155,857817,0.0-116.0-0.0,voc_e2,12118,"[{""event"":""fullscreenenter"",""trial"":1,""time"":3415}]",NA,NA,NA,NA,NA,2,#D89F1C,#3386FF,10,10,1,38,1,1014.1999999880791,39,0,290.2000000178814,10,0,experiment,NA,NA,2,0.5,0.5,4,5,107,3,NA
fcp-trial,156,861134,0.0-117.0-0.0,voc_e2,12118,"[{""event"":""fullscreenenter"",""trial"":1,""time"":3415}]",NA,NA,NA,NA,NA,2,#D8271C,#741CD8,10,10,1,38,1,1542.7999999821186,37,1,265.39999997615814,10,1,experiment,NA,NA,1,0.7,0.3,2,3,108,3,NA
fcp-trial,157,863727,0.0-118.0-0.0,voc_e2,12118,"[{""event"":""fullscreenenter"",""trial"":1,""time"":3415}]",NA,NA,NA,NA,NA,6,#1CD855,#FA92F8,0,0,1,40,0,638.2999999821186,39,0,450.5,0,0,experiment,NA,NA,0,0.9,0.1,0,1,109,3,NA
fcp-trial,158,867201,0.0-119.0-0.0,voc_e2,12118,"[{""event"":""fullscreenenter"",""trial"":1,""time"":3415}]",NA,NA,NA,NA,NA,1,#D8271C,#741CD8,10,10,1,38,1,1406.800000011921,37,1,565,10,1,experiment,NA,NA,1,0.7,0.3,2,3,110,3,NA
fcp-trial,159,870351,0.0-120.0-0.0,voc_e2,12118,"[{""event"":""fullscreenenter"",""trial"":1,""time"":3415}]",NA,NA,NA,NA,NA,3,#3386FF,#D89F1C,10,0,0,38,1,1194.300000011921,37,1,448.7999999821186,10,0,experiment,NA,NA,2,0.5,0.5,5,4,111,3,NA
fcp-trial,160,873051,0.0-121.0-0.0,voc_e2,12118,"[{""event"":""fullscreenenter"",""trial"":1,""time"":3415}]",NA,NA,NA,NA,NA,5,#FA92F8,#1CD855,0,10,0,40,0,761,39,0,433.10000002384186,10,1,experiment,NA,NA,0,0.1,0.9,1,0,112,3,NA
fcp-trial,161,877685,0.0-122.0-0.0,voc_e2,12118,"[{""event"":""fullscreenenter"",""trial"":1,""time"":3415}]",NA,NA,NA,NA,NA,3,#D8271C,#741CD8,10,10,1,38,1,2849.5,37,1,269.2000000178814,10,1,experiment,NA,NA,1,0.7,0.3,2,3,113,3,NA
fcp-trial,162,880329,0.0-123.0-0.0,voc_e2,12118,"[{""event"":""fullscreenenter"",""trial"":1,""time"":3415}]",NA,NA,NA,NA,NA,0,#3386FF,#D89F1C,10,0,0,38,1,840.9000000059605,37,1,298.2000000178814,10,0,experiment,NA,NA,2,0.5,0.5,5,4,114,3,NA
fcp-trial,163,883289,0.0-124.0-0.0,voc_e2,12118,"[{""event"":""fullscreenenter"",""trial"":1,""time"":3415}]",NA,NA,NA,NA,NA,4,#FA92F8,#1CD855,0,10,0,40,0,956.9000000059605,37,1,498.7999999821186,0,0,experiment,NA,NA,0,0.1,0.9,1,0,115,3,NA
fcp-trial,164,886225,0.0-125.0-0.0,voc_e2,12118,"[{""event"":""fullscreenenter"",""trial"":1,""time"":3415}]",NA,NA,NA,NA,NA,6,#741CD8,#D8271C,10,10,0,40,0,811.8000000119209,39,0,620.4000000059605,10,1,experiment,NA,NA,1,0.3,0.7,3,2,116,3,NA
fcp-trial,165,888993,0.0-126.0-0.0,voc_e2,12118,"[{""event"":""fullscreenenter"",""trial"":1,""time"":3415}]",NA,NA,NA,NA,NA,5,#741CD8,#D8271C,0,10,0,40,0,784.3000000119209,39,0,478.199999988079,10,1,experiment,NA,NA,1,0.3,0.7,3,2,117,3,NA
fcp-trial,166,891834,0.0-127.0-0.0,voc_e2,12118,"[{""event"":""fullscreenenter"",""trial"":1,""time"":3415}]",NA,NA,NA,NA,NA,6,#3386FF,#D89F1C,0,0,0,40,0,758.1999999880791,37,1,578.2999999821186,0,0,experiment,NA,NA,2,0.5,0.5,5,4,118,3,NA
fcp-trial,167,894781,0.0-128.0-0.0,voc_e2,12118,"[{""event"":""fullscreenenter"",""trial"":1,""time"":3415}]",NA,NA,NA,NA,NA,1,#3386FF,#D89F1C,0,10,0,38,1,1024.4000000059605,37,1,417.300000011921,0,0,experiment,NA,NA,2,0.5,0.5,5,4,119,3,NA
fcp-trial,168,897569,0.0-129.0-0.0,voc_e2,12118,"[{""event"":""fullscreenenter"",""trial"":1,""time"":3415}]",NA,NA,NA,NA,NA,1,#1CD855,#FA92F8,0,10,1,38,1,804.1999999880791,37,1,481,0,1,experiment,NA,NA,0,0.9,0.1,0,1,120,3,NA
fcp-trial,169,900988,0.0-130.0-0.0,voc_e2,12118,"[{""event"":""fullscreenenter"",""trial"":1,""time"":3415}]",NA,NA,NA,NA,NA,0,#741CD8,#D8271C,0,0,0,38,1,1455.800000011921,39,0,457.7999999821186,0,1,experiment,NA,NA,1,0.3,0.7,3,2,121,3,NA
fcp-trial,170,903880,0.0-131.0-0.0,voc_e2,12118,"[{""event"":""fullscreenenter"",""trial"":1,""time"":3415}]",NA,NA,NA,NA,NA,4,#D89F1C,#3386FF,10,10,1,40,0,921.2999999821186,39,0,466.60000002384186,10,0,experiment,NA,NA,2,0.5,0.5,4,5,122,3,NA
fcp-trial,171,906965,0.0-132.0-0.0,voc_e2,12118,"[{""event"":""fullscreenenter"",""trial"":1,""time"":3415}]",NA,NA,NA,NA,NA,0,#1CD855,#FA92F8,10,0,1,38,1,1230.7000000178814,37,1,350.90000000596046,10,1,experiment,NA,NA,0,0.9,0.1,0,1,123,3,NA
fcp-trial,172,909579,0.0-133.0-0.0,voc_e2,12118,"[{""event"":""fullscreenenter"",""trial"":1,""time"":3415}]",NA,NA,NA,NA,NA,5,#3386FF,#D89F1C,10,0,0,40,0,606.6000000238419,39,0,502.39999997615814,0,1,experiment,NA,NA,2,0.5,0.5,5,4,124,3,NA
fcp-trial,173,913472,0.0-134.0-0.0,voc_e2,12118,"[{""event"":""fullscreenenter"",""trial"":1,""time"":3415}]",NA,NA,NA,NA,NA,4,#D8271C,#741CD8,10,0,1,38,1,1962.9000000059605,37,1,425.59999999403954,10,1,experiment,NA,NA,1,0.7,0.3,2,3,125,3,NA
fcp-trial,174,916230,0.0-135.0-0.0,voc_e2,12118,"[{""event"":""fullscreenenter"",""trial"":1,""time"":3415}]",NA,NA,NA,NA,NA,3,#1CD855,#FA92F8,10,0,1,38,1,901.5,37,1,352.09999999403954,10,1,experiment,NA,NA,0,0.9,0.1,0,1,126,3,NA
fcp-trial,175,918904,0.0-136.0-0.0,voc_e2,12118,"[{""event"":""fullscreenenter"",""trial"":1,""time"":3415}]",NA,NA,NA,NA,NA,3,#D8271C,#741CD8,0,0,1,38,1,792.7000000178814,37,1,377.09999999403954,0,1,experiment,NA,NA,1,0.7,0.3,2,3,127,3,NA
fcp-trial,176,922400,0.0-137.0-0.0,voc_e2,12118,"[{""event"":""fullscreenenter"",""trial"":1,""time"":3415}]",NA,NA,NA,NA,NA,4,#FA92F8,#1CD855,0,10,0,40,0,1567.7999999821186,39,0,425,10,1,experiment,NA,NA,0,0.1,0.9,1,0,128,3,NA
fcp-trial,177,925387,0.0-138.0-0.0,voc_e2,12118,"[{""event"":""fullscreenenter"",""trial"":1,""time"":3415}]",NA,NA,NA,NA,NA,0,#3386FF,#D89F1C,10,0,0,38,1,1158,37,1,326.5,10,0,experiment,NA,NA,2,0.5,0.5,5,4,129,3,NA
fcp-trial,178,928043,0.0-139.0-0.0,voc_e2,12118,"[{""event"":""fullscreenenter"",""trial"":1,""time"":3415}]",NA,NA,NA,NA,NA,5,#FA92F8,#1CD855,0,10,0,40,0,780,39,0,372.5,10,1,experiment,NA,NA,0,0.1,0.9,1,0,130,3,NA
fcp-trial,179,931180,0.0-140.0-0.0,voc_e2,12118,"[{""event"":""fullscreenenter"",""trial"":1,""time"":3415}]",NA,NA,NA,NA,NA,1,#FA92F8,#1CD855,0,10,0,38,1,1307.800000011921,39,0,323.2000000178814,10,1,experiment,NA,NA,0,0.1,0.9,1,0,131,3,NA
fcp-trial,180,934199,0.0-141.0-0.0,voc_e2,12118,"[{""event"":""fullscreenenter"",""trial"":1,""time"":3415}]",NA,NA,NA,NA,NA,2,#D8271C,#741CD8,0,0,1,38,1,685.1999999880791,37,1,828.4000000059605,0,1,experiment,NA,NA,1,0.7,0.3,2,3,132,3,NA
fcp-trial,181,936882,0.0-142.0-0.0,voc_e2,12118,"[{""event"":""fullscreenenter"",""trial"":1,""time"":3415}]",NA,NA,NA,NA,NA,4,#3386FF,#D89F1C,10,10,0,40,0,761.0999999940395,37,1,418.40000000596046,10,0,experiment,NA,NA,2,0.5,0.5,5,4,133,3,NA
fcp-trial,182,939637,0.0-143.0-0.0,voc_e2,12118,"[{""event"":""fullscreenenter"",""trial"":1,""time"":3415}]",NA,NA,NA,NA,NA,6,#FA92F8,#1CD855,0,10,0,40,0,812.7000000178814,39,0,438.5,10,1,experiment,NA,NA,0,0.1,0.9,1,0,134,3,NA
fcp-trial,183,942343,0.0-144.0-0.0,voc_e2,12118,"[{""event"":""fullscreenenter"",""trial"":1,""time"":3415}]",NA,NA,NA,NA,NA,6,#D89F1C,#3386FF,10,0,1,40,0,682.5,37,1,518.5,10,1,experiment,NA,NA,2,0.5,0.5,4,5,135,3,NA
fcp-trial,184,945350,0.0-145.0-0.0,voc_e2,12118,"[{""event"":""fullscreenenter"",""trial"":1,""time"":3415}]",NA,NA,NA,NA,NA,2,#D89F1C,#3386FF,10,10,1,38,1,1102.9000000059605,39,0,399.699999988079,10,0,experiment,NA,NA,2,0.5,0.5,4,5,136,4,NA
fcp-trial,185,947769,0.0-146.0-0.0,voc_e2,12118,"[{""event"":""fullscreenenter"",""trial"":1,""time"":3415}]",NA,NA,NA,NA,NA,6,#741CD8,#D8271C,10,10,0,40,0,525.4000000059605,39,0,389.300000011921,10,1,experiment,NA,NA,1,0.3,0.7,3,2,137,4,NA
fcp-trial,186,950311,0.0-147.0-0.0,voc_e2,12118,"[{""event"":""fullscreenenter"",""trial"":1,""time"":3415}]",NA,NA,NA,NA,NA,4,#741CD8,#D8271C,0,10,0,40,0,647.0999999940395,39,0,391.2000000178814,10,1,experiment,NA,NA,1,0.3,0.7,3,2,138,4,NA
fcp-trial,187,952894,0.0-148.0-0.0,voc_e2,12118,"[{""event"":""fullscreenenter"",""trial"":1,""time"":3415}]",NA,NA,NA,NA,NA,0,#FA92F8,#1CD855,0,10,0,38,1,684.7999999821186,39,0,393.59999999403954,10,1,experiment,NA,NA,0,0.1,0.9,1,0,139,4,NA
fcp-trial,188,955812,0.0-149.0-0.0,voc_e2,12118,"[{""event"":""fullscreenenter"",""trial"":1,""time"":3415}]",NA,NA,NA,NA,NA,3,#D89F1C,#3386FF,0,10,1,38,1,891.5,39,0,518.9000000059605,10,0,experiment,NA,NA,2,0.5,0.5,4,5,140,4,NA
fcp-trial,189,958586,0.0-150.0-0.0,voc_e2,12118,"[{""event"":""fullscreenenter"",""trial"":1,""time"":3415}]",NA,NA,NA,NA,NA,0,#741CD8,#D8271C,0,0,0,38,1,675,39,0,595.5999999940395,0,1,experiment,NA,NA,1,0.3,0.7,3,2,141,4,NA
fcp-trial,190,961058,0.0-151.0-0.0,voc_e2,12118,"[{""event"":""fullscreenenter"",""trial"":1,""time"":3415}]",NA,NA,NA,NA,NA,2,#1CD855,#FA92F8,0,0,1,38,1,687.4000000059605,37,1,279.80000001192093,0,1,experiment,NA,NA,0,0.9,0.1,0,1,142,4,NA
fcp-trial,191,964263,0.0-152.0-0.0,voc_e2,12118,"[{""event"":""fullscreenenter"",""trial"":1,""time"":3415}]",NA,NA,NA,NA,NA,1,#D89F1C,#3386FF,10,0,1,38,1,1104.5,39,0,596.9000000059605,0,0,experiment,NA,NA,2,0.5,0.5,4,5,143,4,NA
fcp-trial,192,967553,0.0-153.0-0.0,voc_e2,12118,"[{""event"":""fullscreenenter"",""trial"":1,""time"":3415}]",NA,NA,NA,NA,NA,1,#D8271C,#741CD8,0,0,1,38,1,624.2999999821186,37,1,1161.5999999940395,0,1,experiment,NA,NA,1,0.7,0.3,2,3,144,4,NA
fcp-trial,193,970309,0.0-154.0-0.0,voc_e2,12118,"[{""event"":""fullscreenenter"",""trial"":1,""time"":3415}]",NA,NA,NA,NA,NA,5,#D89F1C,#3386FF,10,10,1,40,0,664,37,1,587.7000000178814,10,1,experiment,NA,NA,2,0.5,0.5,4,5,145,4,NA
fcp-trial,194,973052,0.0-155.0-0.0,voc_e2,12118,"[{""event"":""fullscreenenter"",""trial"":1,""time"":3415}]",NA,NA,NA,NA,NA,5,#741CD8,#D8271C,0,10,0,40,0,772,39,0,468,10,1,experiment,NA,NA,1,0.3,0.7,3,2,146,4,NA
fcp-trial,195,976887,0.0-156.0-0.0,voc_e2,12118,"[{""event"":""fullscreenenter"",""trial"":1,""time"":3415}]",NA,NA,NA,NA,NA,3,#FA92F8,#1CD855,0,10,0,40,0,1853,39,0,477.7000000178814,10,1,experiment,NA,NA,0,0.1,0.9,1,0,147,4,NA
fcp-trial,196,979437,0.0-157.0-0.0,voc_e2,12118,"[{""event"":""fullscreenenter"",""trial"":1,""time"":3415}]",NA,NA,NA,NA,NA,4,#741CD8,#D8271C,0,0,0,40,0,601,39,0,444.09999999403954,0,1,experiment,NA,NA,1,0.3,0.7,3,2,148,4,NA
fcp-trial,197,982233,0.0-158.0-0.0,voc_e2,12118,"[{""event"":""fullscreenenter"",""trial"":1,""time"":3415}]",NA,NA,NA,NA,NA,5,#1CD855,#FA92F8,10,0,1,40,0,831.7999999821186,37,1,459.2999999821186,10,1,experiment,NA,NA,0,0.9,0.1,0,1,149,4,NA
fcp-trial,198,984762,0.0-159.0-0.0,voc_e2,12118,"[{""event"":""fullscreenenter"",""trial"":1,""time"":3415}]",NA,NA,NA,NA,NA,4,#1CD855,#FA92F8,10,0,1,40,0,488,37,1,535.9000000059605,10,1,experiment,NA,NA,0,0.9,0.1,0,1,150,4,NA
fcp-trial,199,987508,0.0-160.0-0.0,voc_e2,12118,"[{""event"":""fullscreenenter"",""trial"":1,""time"":3415}]",NA,NA,NA,NA,NA,1,#741CD8,#D8271C,10,0,0,38,1,874.6999999880791,39,0,366.199999988079,0,1,experiment,NA,NA,1,0.3,0.7,3,2,151,4,NA
fcp-trial,200,990641,0.0-161.0-0.0,voc_e2,12118,"[{""event"":""fullscreenenter"",""trial"":1,""time"":3415}]",NA,NA,NA,NA,NA,1,#D89F1C,#3386FF,0,0,1,38,1,1330.699999988079,39,0,296.69999998807907,0,0,experiment,NA,NA,2,0.5,0.5,4,5,152,4,NA
fcp-trial,201,994300,0.0-162.0-0.0,voc_e2,12118,"[{""event"":""fullscreenenter"",""trial"":1,""time"":3415}]",NA,NA,NA,NA,NA,5,#741CD8,#D8271C,0,10,0,40,0,1718,37,1,437.40000000596046,0,0,experiment,NA,NA,1,0.3,0.7,3,2,153,4,NA
fcp-trial,202,997054,0.0-163.0-0.0,voc_e2,12118,"[{""event"":""fullscreenenter"",""trial"":1,""time"":3415}]",NA,NA,NA,NA,NA,6,#741CD8,#D8271C,0,10,0,40,0,729,37,1,520.2000000178814,0,0,experiment,NA,NA,1,0.3,0.7,3,2,154,4,NA
fcp-trial,203,1000825,0.0-164.0-0.0,voc_e2,12118,"[{""event"":""fullscreenenter"",""trial"":1,""time"":3415}]",NA,NA,NA,NA,NA,0,#FA92F8,#1CD855,0,10,0,38,1,1948.7999999821186,39,0,316.30000001192093,10,1,experiment,NA,NA,0,0.1,0.9,1,0,155,4,NA
fcp-trial,204,1004610,0.0-165.0-0.0,voc_e2,12118,"[{""event"":""fullscreenenter"",""trial"":1,""time"":3415}]",NA,NA,NA,NA,NA,3,#3386FF,#D89F1C,0,0,0,38,1,1970.4000000059605,37,1,309.2000000178814,0,0,experiment,NA,NA,2,0.5,0.5,5,4,156,4,NA
fcp-trial,205,1007060,0.0-166.0-0.0,voc_e2,12118,"[{""event"":""fullscreenenter"",""trial"":1,""time"":3415}]",NA,NA,NA,NA,NA,6,#1CD855,#FA92F8,10,0,1,40,0,542.6000000238419,39,0,403.90000000596046,0,0,experiment,NA,NA,0,0.9,0.1,0,1,157,4,NA
fcp-trial,206,1009595,0.0-167.0-0.0,voc_e2,12118,"[{""event"":""fullscreenenter"",""trial"":1,""time"":3415}]",NA,NA,NA,NA,NA,6,#D89F1C,#3386FF,10,0,1,40,0,580.0999999940395,39,0,450.699999988079,0,0,experiment,NA,NA,2,0.5,0.5,4,5,158,4,NA
fcp-trial,207,1012438,0.0-168.0-0.0,voc_e2,12118,"[{""event"":""fullscreenenter"",""trial"":1,""time"":3415}]",NA,NA,NA,NA,NA,0,#D8271C,#741CD8,10,0,1,38,1,693.3000000119209,37,1,645.5,10,1,experiment,NA,NA,1,0.7,0.3,2,3,159,4,NA
fcp-trial,208,1015010,0.0-169.0-0.0,voc_e2,12118,"[{""event"":""fullscreenenter"",""trial"":1,""time"":3415}]",NA,NA,NA,NA,NA,4,#3386FF,#D89F1C,0,10,0,40,0,640.0999999940395,37,1,423.5,0,0,experiment,NA,NA,2,0.5,0.5,5,4,160,4,NA
fcp-trial,209,1017727,0.0-170.0-0.0,voc_e2,12118,"[{""event"":""fullscreenenter"",""trial"":1,""time"":3415}]",NA,NA,NA,NA,NA,5,#3386FF,#D89F1C,0,10,0,40,0,720.0999999940395,37,1,493.40000000596046,0,0,experiment,NA,NA,2,0.5,0.5,5,4,161,4,NA
fcp-trial,210,1020733,0.0-171.0-0.0,voc_e2,12118,"[{""event"":""fullscreenenter"",""trial"":1,""time"":3415}]",NA,NA,NA,NA,NA,3,#1CD855,#FA92F8,0,0,1,38,1,1100.300000011921,37,1,400.40000000596046,0,1,experiment,NA,NA,0,0.9,0.1,0,1,162,4,NA
fcp-trial,211,1023446,0.0-172.0-0.0,voc_e2,12118,"[{""event"":""fullscreenenter"",""trial"":1,""time"":3415}]",NA,NA,NA,NA,NA,3,#D8271C,#741CD8,0,0,1,38,1,831.5,37,1,378.40000000596046,0,1,experiment,NA,NA,1,0.7,0.3,2,3,163,4,NA
fcp-trial,212,1028934,0.0-173.0-0.0,voc_e2,12118,"[{""event"":""fullscreenenter"",""trial"":1,""time"":3415}]",NA,NA,NA,NA,NA,2,#D8271C,#741CD8,0,10,1,40,0,3533.399999976158,37,1,449.800000011921,0,1,experiment,NA,NA,1,0.7,0.3,2,3,164,4,NA
fcp-trial,213,1032755,0.0-174.0-0.0,voc_e2,12118,"[{""event"":""fullscreenenter"",""trial"":1,""time"":3415}]",NA,NA,NA,NA,NA,1,#FA92F8,#1CD855,0,10,0,38,1,2001.699999988079,39,0,313.90000000596046,10,1,experiment,NA,NA,0,0.1,0.9,1,0,165,4,NA
fcp-trial,214,1036905,0.0-175.0-0.0,voc_e2,12118,"[{""event"":""fullscreenenter"",""trial"":1,""time"":3415}]",NA,NA,NA,NA,NA,2,#3386FF,#D89F1C,0,10,0,40,0,2144.0999999940395,37,1,501.300000011921,0,0,experiment,NA,NA,2,0.5,0.5,5,4,166,4,NA
fcp-trial,215,1040987,0.0-176.0-0.0,voc_e2,12118,"[{""event"":""fullscreenenter"",""trial"":1,""time"":3415}]",NA,NA,NA,NA,NA,2,#FA92F8,#1CD855,0,10,0,38,1,2032.4000000059605,39,0,545.1000000238419,10,1,experiment,NA,NA,0,0.1,0.9,1,0,167,4,NA
fcp-trial,216,1046637,0.0-177.0-0.0,voc_e2,12118,"[{""event"":""fullscreenenter"",""trial"":1,""time"":3415}]",NA,NA,NA,NA,NA,0,#3386FF,#D89F1C,0,10,0,38,1,1361.5,39,0,2783.5,10,1,experiment,NA,NA,2,0.5,0.5,5,4,168,4,NA
fcp-trial,217,1050522,0.0-178.0-0.0,voc_e2,12118,"[{""event"":""fullscreenenter"",""trial"":1,""time"":3415}]",NA,NA,NA,NA,NA,2,#FA92F8,#1CD855,0,10,0,40,0,1852,37,1,529.3000000119209,0,0,experiment,NA,NA,0,0.1,0.9,1,0,169,4,NA
fcp-trial,218,1056899,0.0-179.0-0.0,voc_e2,12118,"[{""event"":""fullscreenenter"",""trial"":1,""time"":3415}]",NA,NA,NA,NA,NA,0,#D8271C,#741CD8,10,10,1,38,1,4067.800000011921,37,1,805,10,1,experiment,NA,NA,1,0.7,0.3,2,3,170,4,NA
fcp-trial,219,1059735,0.0-180.0-0.0,voc_e2,12118,"[{""event"":""fullscreenenter"",""trial"":1,""time"":3415}]",NA,NA,NA,NA,NA,6,#741CD8,#D8271C,0,0,0,40,0,852.1000000238419,39,0,479.300000011921,0,1,experiment,NA,NA,1,0.3,0.7,3,2,171,4,NA
fcp-trial,220,1062858,0.0-181.0-0.0,voc_e2,12118,"[{""event"":""fullscreenenter"",""trial"":1,""time"":3415}]",NA,NA,NA,NA,NA,1,#3386FF,#D89F1C,0,10,0,38,1,1087.7999999821186,39,0,531.6999999880791,10,1,experiment,NA,NA,2,0.5,0.5,5,4,172,4,NA
fcp-trial,221,1065546,0.0-182.0-0.0,voc_e2,12118,"[{""event"":""fullscreenenter"",""trial"":1,""time"":3415}]",NA,NA,NA,NA,NA,5,#D89F1C,#3386FF,10,10,1,40,0,606.4000000059605,39,0,578.3000000119209,10,0,experiment,NA,NA,2,0.5,0.5,4,5,173,4,NA
fcp-trial,222,1068668,0.0-183.0-0.0,voc_e2,12118,"[{""event"":""fullscreenenter"",""trial"":1,""time"":3415}]",NA,NA,NA,NA,NA,1,#1CD855,#FA92F8,10,0,1,38,1,1314.6000000238419,37,1,303.19999998807907,10,1,experiment,NA,NA,0,0.9,0.1,0,1,174,4,NA
fcp-trial,223,1071531,0.0-184.0-0.0,voc_e2,12118,"[{""event"":""fullscreenenter"",""trial"":1,""time"":3415}]",NA,NA,NA,NA,NA,5,#1CD855,#FA92F8,10,0,1,40,0,738.9000000059605,39,0,621,0,0,experiment,NA,NA,0,0.9,0.1,0,1,175,4,NA
fcp-trial,224,1074778,0.0-185.0-0.0,voc_e2,12118,"[{""event"":""fullscreenenter"",""trial"":1,""time"":3415}]",NA,NA,NA,NA,NA,5,#741CD8,#D8271C,10,10,0,40,0,1257.800000011921,37,1,484.40000000596046,10,0,experiment,NA,NA,1,0.3,0.7,3,2,176,4,NA
fcp-trial,225,1079909,0.0-186.0-0.0,voc_e2,12118,"[{""event"":""fullscreenenter"",""trial"":1,""time"":3415}]",NA,NA,NA,NA,NA,3,#741CD8,#D8271C,0,10,0,40,0,3183.2000000178814,39,0,443.09999999403954,10,1,experiment,NA,NA,1,0.3,0.7,3,2,177,4,NA
fcp-trial,226,1082812,0.0-187.0-0.0,voc_e2,12118,"[{""event"":""fullscreenenter"",""trial"":1,""time"":3415}]",NA,NA,NA,NA,NA,6,#3386FF,#D89F1C,10,0,0,40,0,727.5,37,1,671.7000000178814,10,0,experiment,NA,NA,2,0.5,0.5,5,4,178,4,NA
fcp-trial,227,1086532,0.0-188.0-0.0,voc_e2,12118,"[{""event"":""fullscreenenter"",""trial"":1,""time"":3415}]",NA,NA,NA,NA,NA,2,#D8271C,#741CD8,10,0,1,40,0,1535.7999999821186,37,1,680.9000000059605,10,1,experiment,NA,NA,1,0.7,0.3,2,3,179,4,NA
fcp-trial,228,1089921,0.0-189.0-0.0,voc_e2,12118,"[{""event"":""fullscreenenter"",""trial"":1,""time"":3415}]",NA,NA,NA,NA,NA,0,#FA92F8,#1CD855,10,10,0,38,1,1338.300000011921,39,0,546.0999999940395,10,1,experiment,NA,NA,0,0.1,0.9,1,0,180,4,NA
fcp-trial,229,1093004,0.0-190.0-0.0,voc_e2,12118,"[{""event"":""fullscreenenter"",""trial"":1,""time"":3415}]",NA,NA,NA,NA,NA,4,#3386FF,#D89F1C,0,10,0,40,0,1036.1000000238419,39,0,543.0999999940395,10,1,experiment,NA,NA,2,0.5,0.5,5,4,181,5,NA
fcp-trial,230,1095741,0.0-191.0-0.0,voc_e2,12118,"[{""event"":""fullscreenenter"",""trial"":1,""time"":3415}]",NA,NA,NA,NA,NA,0,#3386FF,#D89F1C,0,0,0,38,1,853.5,39,0,380.199999988079,0,1,experiment,NA,NA,2,0.5,0.5,5,4,182,5,NA
fcp-trial,231,1098785,0.0-192.0-0.0,voc_e2,12118,"[{""event"":""fullscreenenter"",""trial"":1,""time"":3415}]",NA,NA,NA,NA,NA,4,#1CD855,#FA92F8,10,0,1,40,0,818.7000000178814,39,0,719.9000000059605,0,0,experiment,NA,NA,0,0.9,0.1,0,1,183,5,NA
fcp-trial,232,1102723,0.0-193.0-0.0,voc_e2,12118,"[{""event"":""fullscreenenter"",""trial"":1,""time"":3415}]",NA,NA,NA,NA,NA,1,#741CD8,#D8271C,0,10,0,38,1,1239.2000000178814,39,0,1195.199999988079,10,1,experiment,NA,NA,1,0.3,0.7,3,2,184,5,NA
fcp-trial,233,1105989,0.0-194.0-0.0,voc_e2,12118,"[{""event"":""fullscreenenter"",""trial"":1,""time"":3415}]",NA,NA,NA,NA,NA,2,#D89F1C,#3386FF,10,10,1,38,1,1397,37,1,365.2000000178814,10,1,experiment,NA,NA,2,0.5,0.5,4,5,185,5,NA
fcp-trial,234,1108818,0.0-195.0-0.0,voc_e2,12118,"[{""event"":""fullscreenenter"",""trial"":1,""time"":3415}]",NA,NA,NA,NA,NA,6,#1CD855,#FA92F8,0,0,1,40,0,735.8000000119209,39,0,589.4000000059605,0,0,experiment,NA,NA,0,0.9,0.1,0,1,186,5,NA
fcp-trial,235,1112850,0.0-196.0-0.0,voc_e2,12118,"[{""event"":""fullscreenenter"",""trial"":1,""time"":3415}]",NA,NA,NA,NA,NA,3,#3386FF,#D89F1C,10,0,0,38,1,2177.699999988079,39,0,350.7000000178814,0,1,experiment,NA,NA,2,0.5,0.5,5,4,187,5,NA
fcp-trial,236,1115450,0.0-197.0-0.0,voc_e2,12118,"[{""event"":""fullscreenenter"",""trial"":1,""time"":3415}]",NA,NA,NA,NA,NA,4,#741CD8,#D8271C,0,0,0,40,0,665.5,37,1,429.89999997615814,0,0,experiment,NA,NA,1,0.3,0.7,3,2,188,5,NA
fcp-trial,237,1118762,0.0-198.0-0.0,voc_e2,12118,"[{""event"":""fullscreenenter"",""trial"":1,""time"":3415}]",NA,NA,NA,NA,NA,3,#1CD855,#FA92F8,0,0,1,38,1,1500.9000000059605,37,1,305.09999999403954,0,1,experiment,NA,NA,0,0.9,0.1,0,1,189,5,NA
fcp-trial,238,1121684,0.0-199.0-0.0,voc_e2,12118,"[{""event"":""fullscreenenter"",""trial"":1,""time"":3415}]",NA,NA,NA,NA,NA,1,#1CD855,#FA92F8,10,0,1,38,1,1034.699999988079,37,1,383.699999988079,10,1,experiment,NA,NA,0,0.9,0.1,0,1,190,5,NA
fcp-trial,239,1125357,0.0-200.0-0.0,voc_e2,12118,"[{""event"":""fullscreenenter"",""trial"":1,""time"":3415}]",NA,NA,NA,NA,NA,1,#D8271C,#741CD8,0,0,1,38,1,1854.6000000238419,37,1,313.2999999821186,0,1,experiment,NA,NA,1,0.7,0.3,2,3,191,5,NA
fcp-trial,240,1128045,0.0-201.0-0.0,voc_e2,12118,"[{""event"":""fullscreenenter"",""trial"":1,""time"":3415}]",NA,NA,NA,NA,NA,5,#3386FF,#D89F1C,0,10,0,40,0,741,37,1,441,0,0,experiment,NA,NA,2,0.5,0.5,5,4,192,5,NA
fcp-trial,241,1131282,0.0-202.0-0.0,voc_e2,12118,"[{""event"":""fullscreenenter"",""trial"":1,""time"":3415}]",NA,NA,NA,NA,NA,0,#741CD8,#D8271C,10,10,0,38,1,976.6999999880791,39,0,757.5,10,1,experiment,NA,NA,1,0.3,0.7,3,2,193,5,NA
fcp-trial,242,1135956,0.0-203.0-0.0,voc_e2,12118,"[{""event"":""fullscreenenter"",""trial"":1,""time"":3415}]",NA,NA,NA,NA,NA,3,#FA92F8,#1CD855,0,10,0,38,1,2862.4000000059605,39,0,308.89999997615814,10,1,experiment,NA,NA,0,0.1,0.9,1,0,194,5,NA
fcp-trial,243,1139072,0.0-204.0-0.0,voc_e2,12118,"[{""event"":""fullscreenenter"",""trial"":1,""time"":3415}]",NA,NA,NA,NA,NA,3,#D89F1C,#3386FF,0,10,1,38,1,1307.699999988079,37,1,305.69999998807907,0,1,experiment,NA,NA,2,0.5,0.5,4,5,195,5,NA
fcp-trial,244,1141706,0.0-205.0-0.0,voc_e2,12118,"[{""event"":""fullscreenenter"",""trial"":1,""time"":3415}]",NA,NA,NA,NA,NA,5,#1CD855,#FA92F8,10,0,1,40,0,611.9000000059605,39,0,516.4000000059605,0,0,experiment,NA,NA,0,0.9,0.1,0,1,196,5,NA
fcp-trial,245,1144833,0.0-206.0-0.0,voc_e2,12118,"[{""event"":""fullscreenenter"",""trial"":1,""time"":3415}]",NA,NA,NA,NA,NA,0,#3386FF,#D89F1C,10,10,0,38,1,1347,39,0,275.5,10,1,experiment,NA,NA,2,0.5,0.5,5,4,197,5,NA
fcp-trial,246,1147800,0.0-207.0-0.0,voc_e2,12118,"[{""event"":""fullscreenenter"",""trial"":1,""time"":3415}]",NA,NA,NA,NA,NA,3,#741CD8,#D8271C,10,10,0,38,1,1158.2000000178814,39,0,302.69999998807907,10,1,experiment,NA,NA,1,0.3,0.7,3,2,198,5,NA
fcp-trial,247,1151250,0.0-208.0-0.0,voc_e2,12118,"[{""event"":""fullscreenenter"",""trial"":1,""time"":3415}]",NA,NA,NA,NA,NA,4,#3386FF,#D89F1C,10,0,0,40,0,1546.9000000059605,39,0,398.300000011921,0,1,experiment,NA,NA,2,0.5,0.5,5,4,199,5,NA
fcp-trial,248,1154570,0.0-209.0-0.0,voc_e2,12118,"[{""event"":""fullscreenenter"",""trial"":1,""time"":3415}]",NA,NA,NA,NA,NA,0,#1CD855,#FA92F8,10,0,1,38,1,1249.4000000059605,37,1,566.2999999821186,10,1,experiment,NA,NA,0,0.9,0.1,0,1,200,5,NA
fcp-trial,249,1158085,0.0-210.0-0.0,voc_e2,12118,"[{""event"":""fullscreenenter"",""trial"":1,""time"":3415}]",NA,NA,NA,NA,NA,4,#1CD855,#FA92F8,10,0,1,40,0,1640,39,0,371.300000011921,0,0,experiment,NA,NA,0,0.9,0.1,0,1,201,5,NA
fcp-trial,250,1160916,0.0-211.0-0.0,voc_e2,12118,"[{""event"":""fullscreenenter"",""trial"":1,""time"":3415}]",NA,NA,NA,NA,NA,2,#D8271C,#741CD8,10,0,1,38,1,791.5,37,1,535.5999999940395,10,1,experiment,NA,NA,1,0.7,0.3,2,3,202,5,NA
fcp-trial,251,1164815,0.0-212.0-0.0,voc_e2,12118,"[{""event"":""fullscreenenter"",""trial"":1,""time"":3415}]",NA,NA,NA,NA,NA,4,#D8271C,#741CD8,0,0,1,38,1,2092.4000000059605,37,1,303,0,1,experiment,NA,NA,1,0.7,0.3,2,3,203,5,NA
fcp-trial,252,1168831,0.0-213.0-0.0,voc_e2,12118,"[{""event"":""fullscreenenter"",""trial"":1,""time"":3415}]",NA,NA,NA,NA,NA,2,#3386FF,#D89F1C,10,10,0,38,1,2256,39,0,254.4000000059605,10,1,experiment,NA,NA,2,0.5,0.5,5,4,204,5,NA
fcp-trial,253,1172437,0.0-214.0-0.0,voc_e2,12118,"[{""event"":""fullscreenenter"",""trial"":1,""time"":3415}]",NA,NA,NA,NA,NA,2,#FA92F8,#1CD855,0,10,0,38,1,1194.9000000059605,39,0,907.5,10,1,experiment,NA,NA,0,0.1,0.9,1,0,205,5,NA
fcp-trial,254,1175296,0.0-215.0-0.0,voc_e2,12118,"[{""event"":""fullscreenenter"",""trial"":1,""time"":3415}]",NA,NA,NA,NA,NA,6,#FA92F8,#1CD855,0,10,0,40,0,918,37,1,436,0,0,experiment,NA,NA,0,0.1,0.9,1,0,206,5,NA
fcp-trial,255,1178213,0.0-216.0-0.0,voc_e2,12118,"[{""event"":""fullscreenenter"",""trial"":1,""time"":3415}]",NA,NA,NA,NA,NA,6,#3386FF,#D89F1C,10,0,0,40,0,964.8000000119209,37,1,447.2000000178814,10,0,experiment,NA,NA,2,0.5,0.5,5,4,207,5,NA
fcp-trial,256,1181462,0.0-217.0-0.0,voc_e2,12118,"[{""event"":""fullscreenenter"",""trial"":1,""time"":3415}]",NA,NA,NA,NA,NA,5,#741CD8,#D8271C,0,10,0,40,0,1254.7999999821186,37,1,490.300000011921,0,0,experiment,NA,NA,1,0.3,0.7,3,2,208,5,NA
fcp-trial,257,1183995,0.0-218.0-0.0,voc_e2,12118,"[{""event"":""fullscreenenter"",""trial"":1,""time"":3415}]",NA,NA,NA,NA,NA,6,#D8271C,#741CD8,10,0,1,40,0,573.3000000119209,39,0,455.40000000596046,0,0,experiment,NA,NA,1,0.7,0.3,2,3,209,5,NA
fcp-trial,258,1186773,0.0-219.0-0.0,voc_e2,12118,"[{""event"":""fullscreenenter"",""trial"":1,""time"":3415}]",NA,NA,NA,NA,NA,1,#D89F1C,#3386FF,10,0,1,38,1,995.1999999880791,37,1,280,10,1,experiment,NA,NA,2,0.5,0.5,4,5,210,5,NA
audio-instructions,259,1196934,0.0-220.0,voc_e2,12118,"[{""event"":""fullscreenenter"",""trial"":1,""time"":3415}]",NA,5713.200000017881,static/audio/pause.wav,NA,0,NA,NA,NA,NA,NA,NA,NA,NA,NA,NA,NA,NA,NA,NA,NA,NA,NA,NA,NA,NA,NA,NA,NA,NA,NA
fcp-trial,260,1200270,0.0-221.0-0.0,voc_e2,12118,"[{""event"":""fullscreenenter"",""trial"":1,""time"":3415}]",NA,NA,NA,NA,NA,5,#D89F1C,#3386FF,0,10,1,40,0,1418.5,39,0,407.40000000596046,10,0,experiment,NA,NA,2,0.5,0.5,4,5,211,5,NA
fcp-trial,261,1203579,0.0-222.0-0.0,voc_e2,12118,"[{""event"":""fullscreenenter"",""trial"":1,""time"":3415}]",NA,NA,NA,NA,NA,3,#741CD8,#D8271C,0,10,0,38,1,1206.699999988079,39,0,588.8000000119209,10,1,experiment,NA,NA,1,0.3,0.7,3,2,212,5,NA
fcp-trial,262,1206053,0.0-223.0-0.0,voc_e2,12118,"[{""event"":""fullscreenenter"",""trial"":1,""time"":3415}]",NA,NA,NA,NA,NA,2,#741CD8,#D8271C,0,10,0,38,1,664.6999999880791,39,0,303.80000001192093,10,1,experiment,NA,NA,1,0.3,0.7,3,2,213,5,NA
fcp-trial,263,1208686,0.0-224.0-0.0,voc_e2,12118,"[{""event"":""fullscreenenter"",""trial"":1,""time"":3415}]",NA,NA,NA,NA,NA,0,#FA92F8,#1CD855,0,10,0,38,1,816.5,39,0,303,10,1,experiment,NA,NA,0,0.1,0.9,1,0,214,5,NA
fcp-trial,264,1212612,0.0-225.0-0.0,voc_e2,12118,"[{""event"":""fullscreenenter"",""trial"":1,""time"":3415}]",NA,NA,NA,NA,NA,3,#1CD855,#FA92F8,10,0,1,40,0,2021.8999999761581,37,1,397.59999999403954,10,1,experiment,NA,NA,0,0.9,0.1,0,1,215,5,NA
fcp-trial,265,1215190,0.0-226.0-0.0,voc_e2,12118,"[{""event"":""fullscreenenter"",""trial"":1,""time"":3415}]",NA,NA,NA,NA,NA,4,#D89F1C,#3386FF,0,10,1,40,0,694.9000000059605,37,1,377.199999988079,0,1,experiment,NA,NA,2,0.5,0.5,4,5,216,5,NA
fcp-trial,266,1218079,0.0-227.0-0.0,voc_e2,12118,"[{""event"":""fullscreenenter"",""trial"":1,""time"":3415}]",NA,NA,NA,NA,NA,6,#D8271C,#741CD8,10,0,1,40,0,971.8000000119209,37,1,408.300000011921,10,1,experiment,NA,NA,1,0.7,0.3,2,3,217,5,NA
fcp-trial,267,1221036,0.0-228.0-0.0,voc_e2,12118,"[{""event"":""fullscreenenter"",""trial"":1,""time"":3415}]",NA,NA,NA,NA,NA,3,#3386FF,#D89F1C,0,0,0,38,1,1099.1000000238419,39,0,347.59999999403954,0,1,experiment,NA,NA,2,0.5,0.5,5,4,218,5,NA
fcp-trial,268,1223639,0.0-229.0-0.0,voc_e2,12118,"[{""event"":""fullscreenenter"",""trial"":1,""time"":3415}]",NA,NA,NA,NA,NA,2,#1CD855,#FA92F8,10,10,1,38,1,833.4000000059605,37,1,264.40000000596046,10,1,experiment,NA,NA,0,0.9,0.1,0,1,219,5,NA
fcp-trial,269,1226915,0.0-230.0-0.0,voc_e2,12118,"[{""event"":""fullscreenenter"",""trial"":1,""time"":3415}]",NA,NA,NA,NA,NA,1,#D8271C,#741CD8,10,0,1,38,1,1140.300000011921,37,1,631.6999999880791,10,1,experiment,NA,NA,1,0.7,0.3,2,3,220,5,NA
fcp-trial,270,1229336,0.0-231.0-0.0,voc_e2,12118,"[{""event"":""fullscreenenter"",""trial"":1,""time"":3415}]",NA,NA,NA,NA,NA,2,#D89F1C,#3386FF,0,0,1,38,1,663.6999999880791,37,1,252.2000000178814,0,1,experiment,NA,NA,2,0.5,0.5,4,5,221,5,NA
fcp-trial,271,1231767,0.0-232.0-0.0,voc_e2,12118,"[{""event"":""fullscreenenter"",""trial"":1,""time"":3415}]",NA,NA,NA,NA,NA,6,#FA92F8,#1CD855,0,10,0,40,0,593.3000000119209,39,0,331.2000000178814,10,1,experiment,NA,NA,0,0.1,0.9,1,0,222,5,NA
fcp-trial,272,1234645,0.0-233.0-0.0,voc_e2,12118,"[{""event"":""fullscreenenter"",""trial"":1,""time"":3415}]",NA,NA,NA,NA,NA,1,#1CD855,#FA92F8,10,0,1,38,1,723.5999999940395,37,1,649.9000000059605,10,1,experiment,NA,NA,0,0.9,0.1,0,1,223,5,NA
fcp-trial,273,1238340,0.0-234.0-0.0,voc_e2,12118,"[{""event"":""fullscreenenter"",""trial"":1,""time"":3415}]",NA,NA,NA,NA,NA,1,#3386FF,#D89F1C,10,10,0,38,1,1724.800000011921,39,0,466.40000000596046,10,1,experiment,NA,NA,2,0.5,0.5,5,4,224,5,NA
fcp-trial,274,1242035,0.0-235.0-0.0,voc_e2,12118,"[{""event"":""fullscreenenter"",""trial"":1,""time"":3415}]",NA,NA,NA,NA,NA,4,#D8271C,#741CD8,10,0,1,40,0,1724.699999988079,37,1,465.09999999403954,10,1,experiment,NA,NA,1,0.7,0.3,2,3,225,5,NA
fcp-trial,275,1245033,0.0-236.0-0.0,voc_e2,12118,"[{""event"":""fullscreenenter"",""trial"":1,""time"":3415}]",NA,NA,NA,NA,NA,5,#FA92F8,#1CD855,0,10,0,40,0,767.9000000059605,39,0,726.2999999821186,10,1,experiment,NA,NA,0,0.1,0.9,1,0,226,6,NA
fcp-trial,276,1247870,0.0-237.0-0.0,voc_e2,12118,"[{""event"":""fullscreenenter"",""trial"":1,""time"":3415}]",NA,NA,NA,NA,NA,0,#D8271C,#741CD8,10,10,1,38,1,920.8000000119209,37,1,411.300000011921,10,1,experiment,NA,NA,1,0.7,0.3,2,3,227,6,NA
fcp-trial,277,1252018,0.0-238.0-0.0,voc_e2,12118,"[{""event"":""fullscreenenter"",""trial"":1,""time"":3415}]",NA,NA,NA,NA,NA,4,#FA92F8,#1CD855,0,10,0,40,0,2133.100000023842,37,1,510.40000000596046,0,0,experiment,NA,NA,0,0.1,0.9,1,0,228,6,NA
fcp-trial,278,1254569,0.0-239.0-0.0,voc_e2,12118,"[{""event"":""fullscreenenter"",""trial"":1,""time"":3415}]",NA,NA,NA,NA,NA,0,#3386FF,#D89F1C,0,0,0,38,1,740.1000000238419,39,0,307.40000000596046,0,1,experiment,NA,NA,2,0.5,0.5,5,4,229,6,NA
fcp-trial,279,1258140,0.0-240.0-0.0,voc_e2,12118,"[{""event"":""fullscreenenter"",""trial"":1,""time"":3415}]",NA,NA,NA,NA,NA,5,#D8271C,#741CD8,10,0,1,40,0,1473.9000000059605,37,1,593.7000000178814,10,1,experiment,NA,NA,1,0.7,0.3,2,3,230,6,NA
fcp-trial,280,1261292,0.0-241.0-0.0,voc_e2,12118,"[{""event"":""fullscreenenter"",""trial"":1,""time"":3415}]",NA,NA,NA,NA,NA,6,#3386FF,#D89F1C,10,0,0,40,0,684.5999999940395,37,1,962.4000000059604,10,0,experiment,NA,NA,2,0.5,0.5,5,4,231,6,NA
fcp-trial,281,1263819,0.0-242.0-0.0,voc_e2,12118,"[{""event"":""fullscreenenter"",""trial"":1,""time"":3415}]",NA,NA,NA,NA,NA,1,#741CD8,#D8271C,0,10,0,38,1,526.7000000178814,39,0,497.2999999821186,10,1,experiment,NA,NA,1,0.3,0.7,3,2,232,6,NA
fcp-trial,282,1266726,0.0-243.0-0.0,voc_e2,12118,"[{""event"":""fullscreenenter"",""trial"":1,""time"":3415}]",NA,NA,NA,NA,NA,0,#D8271C,#741CD8,10,0,1,38,1,755.6999999880791,37,1,647.7999999821186,10,1,experiment,NA,NA,1,0.7,0.3,2,3,233,6,NA
fcp-trial,283,1269482,0.0-244.0-0.0,voc_e2,12118,"[{""event"":""fullscreenenter"",""trial"":1,""time"":3415}]",NA,NA,NA,NA,NA,6,#1CD855,#FA92F8,10,0,1,40,0,692.7999999821186,39,0,558.4000000059605,0,0,experiment,NA,NA,0,0.9,0.1,0,1,234,6,NA
fcp-trial,284,1272889,0.0-245.0-0.0,voc_e2,12118,"[{""event"":""fullscreenenter"",""trial"":1,""time"":3415}]",NA,NA,NA,NA,NA,4,#D8271C,#741CD8,10,0,1,40,0,1421.5999999940395,37,1,481.199999988079,10,1,experiment,NA,NA,1,0.7,0.3,2,3,235,6,NA
fcp-trial,285,1275599,0.0-246.0-0.0,voc_e2,12118,"[{""event"":""fullscreenenter"",""trial"":1,""time"":3415}]",NA,NA,NA,NA,NA,1,#3386FF,#D89F1C,0,0,0,38,1,642,39,0,564.3000000119209,0,1,experiment,NA,NA,2,0.5,0.5,5,4,236,6,NA
fcp-trial,286,1278859,0.0-247.0-0.0,voc_e2,12118,"[{""event"":""fullscreenenter"",""trial"":1,""time"":3415}]",NA,NA,NA,NA,NA,4,#1CD855,#FA92F8,10,0,1,40,0,1048.5,37,1,707.6999999880791,10,1,experiment,NA,NA,0,0.9,0.1,0,1,237,6,NA
fcp-trial,287,1282515,0.0-248.0-0.0,voc_e2,12118,"[{""event"":""fullscreenenter"",""trial"":1,""time"":3415}]",NA,NA,NA,NA,NA,1,#FA92F8,#1CD855,0,10,0,38,1,1798.2000000178814,39,0,355.2000000178814,10,1,experiment,NA,NA,0,0.1,0.9,1,0,238,6,NA
fcp-trial,288,1285551,0.0-249.0-0.0,voc_e2,12118,"[{""event"":""fullscreenenter"",""trial"":1,""time"":3415}]",NA,NA,NA,NA,NA,5,#D8271C,#741CD8,0,10,1,40,0,772.9000000059605,39,0,758.6999999880791,10,0,experiment,NA,NA,1,0.7,0.3,2,3,239,6,NA
fcp-trial,289,1288770,0.0-250.0-0.0,voc_e2,12118,"[{""event"":""fullscreenenter"",""trial"":1,""time"":3415}]",NA,NA,NA,NA,NA,2,#3386FF,#D89F1C,0,0,0,38,1,1283.9000000059605,39,0,432.59999999403954,0,1,experiment,NA,NA,2,0.5,0.5,5,4,240,6,NA
fcp-trial,290,1291694,0.0-251.0-0.0,voc_e2,12118,"[{""event"":""fullscreenenter"",""trial"":1,""time"":3415}]",NA,NA,NA,NA,NA,4,#D89F1C,#3386FF,10,0,1,40,0,729,39,0,690.8999999761581,0,0,experiment,NA,NA,2,0.5,0.5,4,5,241,6,NA
fcp-trial,291,1294280,0.0-252.0-0.0,voc_e2,12118,"[{""event"":""fullscreenenter"",""trial"":1,""time"":3415}]",NA,NA,NA,NA,NA,6,#D8271C,#741CD8,0,0,1,40,0,531.1999999880791,39,0,551.3000000119209,0,0,experiment,NA,NA,1,0.7,0.3,2,3,242,6,NA
fcp-trial,292,1297312,0.0-253.0-0.0,voc_e2,12118,"[{""event"":""fullscreenenter"",""trial"":1,""time"":3415}]",NA,NA,NA,NA,NA,2,#FA92F8,#1CD855,0,10,0,38,1,956.0999999940395,39,0,569.0999999940395,10,1,experiment,NA,NA,0,0.1,0.9,1,0,243,6,NA
fcp-trial,293,1300160,0.0-254.0-0.0,voc_e2,12118,"[{""event"":""fullscreenenter"",""trial"":1,""time"":3415}]",NA,NA,NA,NA,NA,3,#D89F1C,#3386FF,10,0,1,38,1,644.1999999880791,37,1,698.5,10,1,experiment,NA,NA,2,0.5,0.5,4,5,244,6,NA
fcp-trial,294,1302853,0.0-255.0-0.0,voc_e2,12118,"[{""event"":""fullscreenenter"",""trial"":1,""time"":3415}]",NA,NA,NA,NA,NA,5,#FA92F8,#1CD855,0,10,0,40,0,593.5999999940395,37,1,595.3000000119209,0,0,experiment,NA,NA,0,0.1,0.9,1,0,245,6,NA
fcp-trial,295,1305721,0.0-256.0-0.0,voc_e2,12118,"[{""event"":""fullscreenenter"",""trial"":1,""time"":3415}]",NA,NA,NA,NA,NA,6,#3386FF,#D89F1C,10,10,0,40,0,719.3000000119209,37,1,643.8000000119209,10,0,experiment,NA,NA,2,0.5,0.5,5,4,246,6,NA
fcp-trial,296,1308724,0.0-257.0-0.0,voc_e2,12118,"[{""event"":""fullscreenenter"",""trial"":1,""time"":3415}]",NA,NA,NA,NA,NA,3,#D8271C,#741CD8,10,10,1,38,1,886.3999999761581,37,1,612.3000000119209,10,1,experiment,NA,NA,1,0.7,0.3,2,3,247,6,NA
fcp-trial,297,1311462,0.0-258.0-0.0,voc_e2,12118,"[{""event"":""fullscreenenter"",""trial"":1,""time"":3415}]",NA,NA,NA,NA,NA,2,#D8271C,#741CD8,10,0,1,38,1,634.8000000119209,37,1,598.1999999880791,10,1,experiment,NA,NA,1,0.7,0.3,2,3,248,6,NA
fcp-trial,298,1314455,0.0-259.0-0.0,voc_e2,12118,"[{""event"":""fullscreenenter"",""trial"":1,""time"":3415}]",NA,NA,NA,NA,NA,5,#3386FF,#D89F1C,0,0,0,40,0,952.0999999940395,39,0,535.7000000178814,0,1,experiment,NA,NA,2,0.5,0.5,5,4,249,6,NA
fcp-trial,299,1317438,0.0-260.0-0.0,voc_e2,12118,"[{""event"":""fullscreenenter"",""trial"":1,""time"":3415}]",NA,NA,NA,NA,NA,0,#FA92F8,#1CD855,0,10,0,38,1,742,39,0,735.3999999761581,10,1,experiment,NA,NA,0,0.1,0.9,1,0,250,6,NA
fcp-trial,300,1321289,0.0-261.0-0.0,voc_e2,12118,"[{""event"":""fullscreenenter"",""trial"":1,""time"":3415}]",NA,NA,NA,NA,NA,0,#D89F1C,#3386FF,0,10,1,38,1,1248.800000011921,37,1,1098.5999999940395,0,1,experiment,NA,NA,2,0.5,0.5,4,5,251,6,NA
fcp-trial,301,1324793,0.0-262.0-0.0,voc_e2,12118,"[{""event"":""fullscreenenter"",""trial"":1,""time"":3415}]",NA,NA,NA,NA,NA,3,#FA92F8,#1CD855,0,10,0,40,0,1500.7999999821186,37,1,497.59999999403954,0,0,experiment,NA,NA,0,0.1,0.9,1,0,252,6,NA
fcp-trial,302,1328522,0.0-263.0-0.0,voc_e2,12118,"[{""event"":""fullscreenenter"",""trial"":1,""time"":3415}]",NA,NA,NA,NA,NA,3,#1CD855,#FA92F8,0,0,1,40,0,1751.2999999821186,37,1,474.39999997615814,0,1,experiment,NA,NA,0,0.9,0.1,0,1,253,6,NA
fcp-trial,303,1331773,0.0-264.0-0.0,voc_e2,12118,"[{""event"":""fullscreenenter"",""trial"":1,""time"":3415}]",NA,NA,NA,NA,NA,6,#741CD8,#D8271C,10,10,0,40,0,1240,39,0,506,10,1,experiment,NA,NA,1,0.3,0.7,3,2,254,6,NA
fcp-trial,304,1334999,0.0-265.0-0.0,voc_e2,12118,"[{""event"":""fullscreenenter"",""trial"":1,""time"":3415}]",NA,NA,NA,NA,NA,2,#741CD8,#D8271C,10,0,0,38,1,1292.4000000059605,39,0,428.800000011921,0,1,experiment,NA,NA,1,0.3,0.7,3,2,255,6,NA
fcp-trial,305,1337693,0.0-266.0-0.0,voc_e2,12118,"[{""event"":""fullscreenenter"",""trial"":1,""time"":3415}]",NA,NA,NA,NA,NA,5,#D89F1C,#3386FF,10,0,1,40,0,696.9000000059605,39,0,492.59999999403954,0,0,experiment,NA,NA,2,0.5,0.5,4,5,256,6,NA
fcp-trial,306,1340431,0.0-267.0-0.0,voc_e2,12118,"[{""event"":""fullscreenenter"",""trial"":1,""time"":3415}]",NA,NA,NA,NA,NA,6,#D89F1C,#3386FF,0,0,1,40,0,664.6000000238419,39,0,569.0999999940395,0,0,experiment,NA,NA,2,0.5,0.5,4,5,257,6,NA
fcp-trial,307,1343185,0.0-268.0-0.0,voc_e2,12118,"[{""event"":""fullscreenenter"",""trial"":1,""time"":3415}]",NA,NA,NA,NA,NA,5,#FA92F8,#1CD855,0,10,0,40,0,754.5999999940395,37,1,493.60000002384186,0,0,experiment,NA,NA,0,0.1,0.9,1,0,258,6,NA
fcp-trial,308,1345795,0.0-269.0-0.0,voc_e2,12118,"[{""event"":""fullscreenenter"",""trial"":1,""time"":3415}]",NA,NA,NA,NA,NA,1,#3386FF,#D89F1C,10,0,0,38,1,705.9000000059605,39,0,399.699999988079,0,1,experiment,NA,NA,2,0.5,0.5,5,4,259,6,NA
fcp-trial,309,1348516,0.0-270.0-0.0,voc_e2,12118,"[{""event"":""fullscreenenter"",""trial"":1,""time"":3415}]",NA,NA,NA,NA,NA,4,#741CD8,#D8271C,0,10,0,40,0,712.6000000238419,39,0,505.90000000596046,10,1,experiment,NA,NA,1,0.3,0.7,3,2,260,6,NA
fcp-trial,310,1351356,0.0-271.0-0.0,voc_e2,12118,"[{""event"":""fullscreenenter"",""trial"":1,""time"":3415}]",NA,NA,NA,NA,NA,4,#3386FF,#D89F1C,10,0,0,40,0,674.0999999940395,39,0,661.9000000059605,0,1,experiment,NA,NA,2,0.5,0.5,5,4,261,6,NA
fcp-trial,311,1354107,0.0-272.0-0.0,voc_e2,12118,"[{""event"":""fullscreenenter"",""trial"":1,""time"":3415}]",NA,NA,NA,NA,NA,6,#FA92F8,#1CD855,0,10,0,40,0,720.9000000059605,37,1,525.5999999940395,0,0,experiment,NA,NA,0,0.1,0.9,1,0,262,6,NA
fcp-trial,312,1356845,0.0-273.0-0.0,voc_e2,12118,"[{""event"":""fullscreenenter"",""trial"":1,""time"":3415}]",NA,NA,NA,NA,NA,3,#741CD8,#D8271C,0,0,0,38,1,756.9000000059605,39,0,476.199999988079,0,1,experiment,NA,NA,1,0.3,0.7,3,2,263,6,NA
fcp-trial,313,1359373,0.0-274.0-0.0,voc_e2,12118,"[{""event"":""fullscreenenter"",""trial"":1,""time"":3415}]",NA,NA,NA,NA,NA,1,#D8271C,#741CD8,10,0,1,38,1,574.1000000238419,37,1,449.59999999403954,10,1,experiment,NA,NA,1,0.7,0.3,2,3,264,6,NA
fcp-trial,314,1362292,0.0-275.0-0.0,voc_e2,12118,"[{""event"":""fullscreenenter"",""trial"":1,""time"":3415}]",NA,NA,NA,NA,NA,0,#3386FF,#D89F1C,10,10,0,38,1,992.3000000119209,39,0,422.2000000178814,10,1,experiment,NA,NA,2,0.5,0.5,5,4,265,6,NA
fcp-trial,315,1365113,0.0-276.0-0.0,voc_e2,12118,"[{""event"":""fullscreenenter"",""trial"":1,""time"":3415}]",NA,NA,NA,NA,NA,5,#D8271C,#741CD8,10,0,1,40,0,763,39,0,554.8000000119209,0,0,experiment,NA,NA,1,0.7,0.3,2,3,266,6,NA
fcp-trial,316,1367797,0.0-277.0-0.0,voc_e2,12118,"[{""event"":""fullscreenenter"",""trial"":1,""time"":3415}]",NA,NA,NA,NA,NA,2,#1CD855,#FA92F8,10,10,1,38,1,762.8000000119209,37,1,417.2999999821186,10,1,experiment,NA,NA,0,0.9,0.1,0,1,267,6,NA
fcp-trial,317,1370377,0.0-278.0-0.0,voc_e2,12118,"[{""event"":""fullscreenenter"",""trial"":1,""time"":3415}]",NA,NA,NA,NA,NA,2,#3386FF,#D89F1C,10,0,0,38,1,602.0999999940395,39,0,472.199999988079,0,1,experiment,NA,NA,2,0.5,0.5,5,4,268,6,NA
fcp-trial,318,1373224,0.0-279.0-0.0,voc_e2,12118,"[{""event"":""fullscreenenter"",""trial"":1,""time"":3415}]",NA,NA,NA,NA,NA,4,#1CD855,#FA92F8,0,10,1,38,1,674.5,37,1,669,0,1,experiment,NA,NA,0,0.9,0.1,0,1,269,6,NA
fcp-trial,319,1376133,0.0-280.0-0.0,voc_e2,12118,"[{""event"":""fullscreenenter"",""trial"":1,""time"":3415}]",NA,NA,NA,NA,NA,0,#FA92F8,#1CD855,0,0,0,38,1,893.0999999940395,39,0,510.199999988079,0,1,experiment,NA,NA,0,0.1,0.9,1,0,270,6,NA
fcp-trial,320,1378974,0.0-281.0-0.0,voc_e2,12118,"[{""event"":""fullscreenenter"",""trial"":1,""time"":3415}]",NA,NA,NA,NA,NA,0,#D8271C,#741CD8,10,10,1,38,1,695.5,37,1,640.7999999821186,10,1,experiment,NA,NA,1,0.7,0.3,2,3,271,7,NA
fcp-trial,321,1381912,0.0-282.0-0.0,voc_e2,12118,"[{""event"":""fullscreenenter"",""trial"":1,""time"":3415}]",NA,NA,NA,NA,NA,1,#1CD855,#FA92F8,10,0,1,38,1,851,37,1,582.0999999940395,10,1,experiment,NA,NA,0,0.9,0.1,0,1,272,7,NA
fcp-trial,322,1385639,0.0-283.0-0.0,voc_e2,12118,"[{""event"":""fullscreenenter"",""trial"":1,""time"":3415}]",NA,NA,NA,NA,NA,3,#3386FF,#D89F1C,10,10,0,40,0,1631.2000000178814,37,1,591.5999999940395,10,0,experiment,NA,NA,2,0.5,0.5,5,4,273,7,NA
fcp-trial,323,1388799,0.0-284.0-0.0,voc_e2,12118,"[{""event"":""fullscreenenter"",""trial"":1,""time"":3415}]",NA,NA,NA,NA,NA,0,#D8271C,#741CD8,10,0,1,38,1,1145.4000000059605,37,1,510,10,1,experiment,NA,NA,1,0.7,0.3,2,3,274,7,NA
fcp-trial,324,1392076,0.0-285.0-0.0,voc_e2,12118,"[{""event"":""fullscreenenter"",""trial"":1,""time"":3415}]",NA,NA,NA,NA,NA,3,#1CD855,#FA92F8,10,0,1,38,1,1165.9000000059605,37,1,606.8000000119209,10,1,experiment,NA,NA,0,0.9,0.1,0,1,275,7,NA
fcp-trial,325,1394817,0.0-286.0-0.0,voc_e2,12118,"[{""event"":""fullscreenenter"",""trial"":1,""time"":3415}]",NA,NA,NA,NA,NA,5,#D8271C,#741CD8,0,0,1,40,0,711.5,39,0,527.5,0,0,experiment,NA,NA,1,0.7,0.3,2,3,276,7,NA
fcp-trial,326,1397668,0.0-287.0-0.0,voc_e2,12118,"[{""event"":""fullscreenenter"",""trial"":1,""time"":3415}]",NA,NA,NA,NA,NA,5,#3386FF,#D89F1C,10,10,0,40,0,808.1999999880791,37,1,539.0999999940395,10,0,experiment,NA,NA,2,0.5,0.5,5,4,277,7,NA
fcp-trial,327,1400721,0.0-288.0-0.0,voc_e2,12118,"[{""event"":""fullscreenenter"",""trial"":1,""time"":3415}]",NA,NA,NA,NA,NA,4,#FA92F8,#1CD855,0,10,0,40,0,906.7999999821186,37,1,640.6000000238419,0,0,experiment,NA,NA,0,0.1,0.9,1,0,278,7,NA
fcp-trial,328,1403550,0.0-289.0-0.0,voc_e2,12118,"[{""event"":""fullscreenenter"",""trial"":1,""time"":3415}]",NA,NA,NA,NA,NA,4,#D8271C,#741CD8,10,0,1,40,0,742.1999999880791,37,1,584,10,1,experiment,NA,NA,1,0.7,0.3,2,3,279,7,NA
fcp-trial,329,1407337,0.0-290.0-0.0,voc_e2,12118,"[{""event"":""fullscreenenter"",""trial"":1,""time"":3415}]",NA,NA,NA,NA,NA,1,#D89F1C,#3386FF,0,10,1,38,1,1825.5999999940395,39,0,455.5,10,0,experiment,NA,NA,2,0.5,0.5,4,5,280,7,NA
fcp-trial,330,1410285,0.0-291.0-0.0,voc_e2,12118,"[{""event"":""fullscreenenter"",""trial"":1,""time"":3415}]",NA,NA,NA,NA,NA,3,#D8271C,#741CD8,10,10,1,40,0,893.3999999761581,37,1,548.8000000119209,10,1,experiment,NA,NA,1,0.7,0.3,2,3,281,7,NA
fcp-trial,331,1415375,0.0-292.0-0.0,voc_e2,12118,"[{""event"":""fullscreenenter"",""trial"":1,""time"":3415}]",NA,NA,NA,NA,NA,6,#1CD855,#FA92F8,10,0,1,40,0,2847.800000011921,37,1,738.8000000119209,10,1,experiment,NA,NA,0,0.9,0.1,0,1,282,7,NA
fcp-trial,332,1418236,0.0-293.0-0.0,voc_e2,12118,"[{""event"":""fullscreenenter"",""trial"":1,""time"":3415}]",NA,NA,NA,NA,NA,0,#1CD855,#FA92F8,10,0,1,38,1,979.7000000178814,37,1,376.90000000596046,10,1,experiment,NA,NA,0,0.9,0.1,0,1,283,7,NA
fcp-trial,333,1421151,0.0-294.0-0.0,voc_e2,12118,"[{""event"":""fullscreenenter"",""trial"":1,""time"":3415}]",NA,NA,NA,NA,NA,4,#3386FF,#D89F1C,10,10,0,40,0,847.4000000059605,37,1,562.5999999940395,10,0,experiment,NA,NA,2,0.5,0.5,5,4,284,7,NA
fcp-trial,334,1424062,0.0-295.0-0.0,voc_e2,12118,"[{""event"":""fullscreenenter"",""trial"":1,""time"":3415}]",NA,NA,NA,NA,NA,2,#D8271C,#741CD8,0,10,1,38,1,876.9000000059605,37,1,529.8999999761581,0,1,experiment,NA,NA,1,0.7,0.3,2,3,285,7,NA
fcp-trial,335,1427728,0.0-296.0-0.0,voc_e2,12118,"[{""event"":""fullscreenenter"",""trial"":1,""time"":3415}]",NA,NA,NA,NA,NA,2,#3386FF,#D89F1C,10,0,0,38,1,1765.7999999821186,39,0,396.40000000596046,0,1,experiment,NA,NA,2,0.5,0.5,5,4,286,7,NA
fcp-trial,336,1430841,0.0-297.0-0.0,voc_e2,12118,"[{""event"":""fullscreenenter"",""trial"":1,""time"":3415}]",NA,NA,NA,NA,NA,3,#D89F1C,#3386FF,10,0,1,40,0,1127.5,39,0,481.09999999403954,0,0,experiment,NA,NA,2,0.5,0.5,4,5,287,7,NA
fcp-trial,337,1433561,0.0-298.0-0.0,voc_e2,12118,"[{""event"":""fullscreenenter"",""trial"":1,""time"":3415}]",NA,NA,NA,NA,NA,5,#1CD855,#FA92F8,10,0,1,40,0,701.9000000059605,39,0,514.7000000178814,0,0,experiment,NA,NA,0,0.9,0.1,0,1,288,7,NA
fcp-trial,338,1436124,0.0-299.0-0.0,voc_e2,12118,"[{""event"":""fullscreenenter"",""trial"":1,""time"":3415}]",NA,NA,NA,NA,NA,2,#1CD855,#FA92F8,10,0,1,38,1,574.7000000178814,37,1,482.199999988079,10,1,experiment,NA,NA,0,0.9,0.1,0,1,289,7,NA
fcp-trial,339,1438871,0.0-300.0-0.0,voc_e2,12118,"[{""event"":""fullscreenenter"",""trial"":1,""time"":3415}]",NA,NA,NA,NA,NA,1,#741CD8,#D8271C,0,10,0,38,1,803.5999999940395,39,0,439.40000000596046,10,1,experiment,NA,NA,1,0.3,0.7,3,2,290,7,NA
fcp-trial,340,1441734,0.0-301.0-0.0,voc_e2,12118,"[{""event"":""fullscreenenter"",""trial"":1,""time"":3415}]",NA,NA,NA,NA,NA,6,#741CD8,#D8271C,0,10,0,40,0,686.6999999880791,37,1,672.1999999880791,0,0,experiment,NA,NA,1,0.3,0.7,3,2,291,7,NA
fcp-trial,341,1444386,0.0-302.0-0.0,voc_e2,12118,"[{""event"":""fullscreenenter"",""trial"":1,""time"":3415}]",NA,NA,NA,NA,NA,6,#D89F1C,#3386FF,0,10,1,40,0,665.9000000059605,37,1,481.2999999821186,0,1,experiment,NA,NA,2,0.5,0.5,4,5,292,7,NA
fcp-trial,342,1446978,0.0-303.0-0.0,voc_e2,12118,"[{""event"":""fullscreenenter"",""trial"":1,""time"":3415}]",NA,NA,NA,NA,NA,0,#D89F1C,#3386FF,10,0,1,38,1,667.0999999940395,39,0,421,0,0,experiment,NA,NA,2,0.5,0.5,4,5,293,7,NA
fcp-trial,343,1449558,0.0-304.0-0.0,voc_e2,12118,"[{""event"":""fullscreenenter"",""trial"":1,""time"":3415}]",NA,NA,NA,NA,NA,1,#FA92F8,#1CD855,0,0,0,40,0,666.5,39,0,409.59999999403954,0,1,experiment,NA,NA,0,0.1,0.9,1,0,294,7,NA
fcp-trial,344,1453405,0.0-305.0-0.0,voc_e2,12118,"[{""event"":""fullscreenenter"",""trial"":1,""time"":3415}]",NA,NA,NA,NA,NA,3,#3386FF,#D89F1C,10,0,0,40,0,1923.7000000178814,37,1,420.699999988079,10,0,experiment,NA,NA,2,0.5,0.5,5,4,295,7,NA
fcp-trial,345,1456261,0.0-306.0-0.0,voc_e2,12118,"[{""event"":""fullscreenenter"",""trial"":1,""time"":3415}]",NA,NA,NA,NA,NA,0,#D89F1C,#3386FF,0,0,1,38,1,697.6999999880791,39,0,653.3000000119209,0,0,experiment,NA,NA,2,0.5,0.5,4,5,296,7,NA
fcp-trial,346,1459122,0.0-307.0-0.0,voc_e2,12118,"[{""event"":""fullscreenenter"",""trial"":1,""time"":3415}]",NA,NA,NA,NA,NA,4,#D8271C,#741CD8,10,0,1,40,0,887.0999999940395,37,1,468.699999988079,10,1,experiment,NA,NA,1,0.7,0.3,2,3,297,7,NA
fcp-trial,347,1461887,0.0-308.0-0.0,voc_e2,12118,"[{""event"":""fullscreenenter"",""trial"":1,""time"":3415}]",NA,NA,NA,NA,NA,2,#1CD855,#FA92F8,10,0,1,40,0,817.5,37,1,444.40000000596046,10,1,experiment,NA,NA,0,0.9,0.1,0,1,298,7,NA
fcp-trial,348,1464733,0.0-309.0-0.0,voc_e2,12118,"[{""event"":""fullscreenenter"",""trial"":1,""time"":3415}]",NA,NA,NA,NA,NA,6,#D8271C,#741CD8,0,10,1,40,0,721.0999999940395,39,0,620.7999999821186,10,0,experiment,NA,NA,1,0.7,0.3,2,3,299,7,NA
fcp-trial,349,1467687,0.0-310.0-0.0,voc_e2,12118,"[{""event"":""fullscreenenter"",""trial"":1,""time"":3415}]",NA,NA,NA,NA,NA,4,#FA92F8,#1CD855,0,10,0,40,0,1087.1000000238419,39,0,362.40000000596046,10,1,experiment,NA,NA,0,0.1,0.9,1,0,300,7,NA
fcp-trial,350,1471634,0.0-311.0-0.0,voc_e2,12118,"[{""event"":""fullscreenenter"",""trial"":1,""time"":3415}]",NA,NA,NA,NA,NA,1,#D89F1C,#3386FF,0,0,1,38,1,732.8000000119209,37,1,1711.2000000178814,0,1,experiment,NA,NA,2,0.5,0.5,4,5,301,7,NA
fcp-trial,351,1474220,0.0-312.0-0.0,voc_e2,12118,"[{""event"":""fullscreenenter"",""trial"":1,""time"":3415}]",NA,NA,NA,NA,NA,3,#FA92F8,#1CD855,0,10,0,40,0,672.4000000059605,37,1,408.800000011921,0,0,experiment,NA,NA,0,0.1,0.9,1,0,302,7,NA
fcp-trial,352,1477473,0.0-313.0-0.0,voc_e2,12118,"[{""event"":""fullscreenenter"",""trial"":1,""time"":3415}]",NA,NA,NA,NA,NA,3,#741CD8,#D8271C,0,10,0,40,0,1351,37,1,398.2999999821186,0,0,experiment,NA,NA,1,0.3,0.7,3,2,303,7,NA
fcp-trial,353,1479896,0.0-314.0-0.0,voc_e2,12118,"[{""event"":""fullscreenenter"",""trial"":1,""time"":3415}]",NA,NA,NA,NA,NA,6,#3386FF,#D89F1C,0,10,0,40,0,500,37,1,419.7000000178814,0,0,experiment,NA,NA,2,0.5,0.5,5,4,304,7,NA
fcp-trial,354,1482387,0.0-315.0-0.0,voc_e2,12118,"[{""event"":""fullscreenenter"",""trial"":1,""time"":3415}]",NA,NA,NA,NA,NA,5,#1CD855,#FA92F8,10,0,1,40,0,617.2999999821186,37,1,370.7000000178814,10,1,experiment,NA,NA,0,0.9,0.1,0,1,305,7,NA
fcp-trial,355,1486969,0.0-316.0-0.0,voc_e2,12118,"[{""event"":""fullscreenenter"",""trial"":1,""time"":3415}]",NA,NA,NA,NA,NA,1,#741CD8,#D8271C,0,10,0,38,1,2620,39,0,458,10,1,experiment,NA,NA,1,0.3,0.7,3,2,306,7,NA
fcp-trial,356,1489638,0.0-317.0-0.0,voc_e2,12118,"[{""event"":""fullscreenenter"",""trial"":1,""time"":3415}]",NA,NA,NA,NA,NA,4,#3386FF,#D89F1C,0,10,0,40,0,741.8000000119209,37,1,421.59999999403954,0,0,experiment,NA,NA,2,0.5,0.5,5,4,307,7,NA
fcp-trial,357,1492408,0.0-318.0-0.0,voc_e2,12118,"[{""event"":""fullscreenenter"",""trial"":1,""time"":3415}]",NA,NA,NA,NA,NA,5,#D8271C,#741CD8,10,10,1,40,0,747.2000000178814,39,0,519.2000000178814,10,0,experiment,NA,NA,1,0.7,0.3,2,3,308,7,NA
fcp-trial,358,1495155,0.0-319.0-0.0,voc_e2,12118,"[{""event"":""fullscreenenter"",""trial"":1,""time"":3415}]",NA,NA,NA,NA,NA,0,#FA92F8,#1CD855,0,10,0,38,1,674.8000000119209,39,0,567,10,1,experiment,NA,NA,0,0.1,0.9,1,0,309,7,NA
fcp-trial,359,1497733,0.0-320.0-0.0,voc_e2,12118,"[{""event"":""fullscreenenter"",""trial"":1,""time"":3415}]",NA,NA,NA,NA,NA,0,#D8271C,#741CD8,10,10,1,38,1,611.5999999940395,37,1,462.199999988079,10,1,experiment,NA,NA,1,0.7,0.3,2,3,310,7,NA
fcp-trial,360,1500341,0.0-321.0-0.0,voc_e2,12118,"[{""event"":""fullscreenenter"",""trial"":1,""time"":3415}]",NA,NA,NA,NA,NA,5,#3386FF,#D89F1C,0,10,0,40,0,613.9000000059605,37,1,489.60000002384186,0,0,experiment,NA,NA,2,0.5,0.5,5,4,311,7,NA
fcp-trial,361,1503864,0.0-322.0-0.0,voc_e2,12118,"[{""event"":""fullscreenenter"",""trial"":1,""time"":3415}]",NA,NA,NA,NA,NA,2,#D8271C,#741CD8,10,0,1,38,1,1619.7999999821186,37,1,397.90000000596046,10,1,experiment,NA,NA,1,0.7,0.3,2,3,312,7,NA
fcp-trial,362,1508748,0.0-323.0-0.0,voc_e2,12118,"[{""event"":""fullscreenenter"",""trial"":1,""time"":3415}]",NA,NA,NA,NA,NA,2,#D89F1C,#3386FF,0,10,1,38,1,1492.6000000238419,39,0,1885.9000000059605,10,0,experiment,NA,NA,2,0.5,0.5,4,5,313,7,NA
fcp-trial,363,1511424,0.0-324.0-0.0,voc_e2,12118,"[{""event"":""fullscreenenter"",""trial"":1,""time"":3415}]",NA,NA,NA,NA,NA,1,#FA92F8,#1CD855,0,10,0,38,1,711.2000000178814,39,0,460.800000011921,10,1,experiment,NA,NA,0,0.1,0.9,1,0,314,7,NA
fcp-trial,364,1514045,0.0-325.0-0.0,voc_e2,12118,"[{""event"":""fullscreenenter"",""trial"":1,""time"":3415}]",NA,NA,NA,NA,NA,6,#FA92F8,#1CD855,10,10,0,40,0,683.6999999880791,37,1,433.90000000596046,10,0,experiment,NA,NA,0,0.1,0.9,1,0,315,7,NA
audio-instructions,365,1522436,0.0-326.0,voc_e2,12118,"[{""event"":""fullscreenenter"",""trial"":1,""time"":3415}]",NA,2743,static/audio/finished.wav,NA,0,NA,NA,NA,NA,NA,NA,NA,NA,NA,NA,NA,NA,NA,NA,NA,NA,NA,NA,NA,NA,NA,NA,NA,NA,NA
audio-instructions,366,1534823,0.0-327.0-0.0,voc_e2,12118,"[{""event"":""fullscreenenter"",""trial"":1,""time"":3415}]",NA,1551,static/audio/explicit1.wav,NA,0,NA,NA,NA,NA,NA,NA,NA,NA,NA,NA,NA,NA,NA,NA,NA,NA,NA,NA,NA,NA,NA,NA,NA,NA,NA
audio-instructions,367,1543224,0.0-327.0-1.0,voc_e2,12118,"[{""event"":""fullscreenenter"",""trial"":1,""time"":3415}]",NA,802.0999999940395,static/audio/explicit2.wav,NA,0,NA,NA,NA,NA,NA,NA,NA,NA,NA,NA,NA,NA,NA,NA,NA,NA,NA,NA,NA,NA,NA,NA,NA,NA,NA
image-slider-response,368,1552661,0.0-328.0,voc_e2,12118,"[{""event"":""fullscreenenter"",""trial"":1,""time"":3415}]",NA,9435.5,static/img/machines/machine6.png,NA,NA,NA,NA,NA,NA,NA,NA,NA,NA,NA,NA,NA,NA,NA,NA,explicit,NA,NA,NA,NA,NA,NA,NA,NA,NA,5
image-slider-response,369,1556783,0.0-329.0,voc_e2,12118,"[{""event"":""fullscreenenter"",""trial"":1,""time"":3415}]",NA,4120.5999999940395,static/img/machines/machine5.png,NA,NA,NA,NA,NA,NA,NA,NA,NA,NA,NA,NA,NA,NA,NA,NA,explicit,NA,NA,NA,NA,NA,NA,NA,NA,NA,3
image-slider-response,370,1561991,0.0-330.0,voc_e2,12118,"[{""event"":""fullscreenenter"",""trial"":1,""time"":3415}]",NA,5206.299999982119,static/img/machines/machine4.png,NA,NA,NA,NA,NA,NA,NA,NA,NA,NA,NA,NA,NA,NA,NA,NA,explicit,NA,NA,NA,NA,NA,NA,NA,NA,NA,5
image-slider-response,371,1569767,0.0-331.0,voc_e2,12118,"[{""event"":""fullscreenenter"",""trial"":1,""time"":3415}]",NA,7774.600000023842,static/img/machines/machine2.png,NA,NA,NA,NA,NA,NA,NA,NA,NA,NA,NA,NA,NA,NA,NA,NA,explicit,NA,NA,NA,NA,NA,NA,NA,NA,NA,3
image-slider-response,372,1575172,0.0-332.0,voc_e2,12118,"[{""event"":""fullscreenenter"",""trial"":1,""time"":3415}]",NA,5403.5999999940395,static/img/machines/machine1.png,NA,NA,NA,NA,NA,NA,NA,NA,NA,NA,NA,NA,NA,NA,NA,NA,explicit,NA,NA,NA,NA,NA,NA,NA,NA,NA,7
image-slider-response,373,1578908,0.0-333.0,voc_e2,12118,"[{""event"":""fullscreenenter"",""trial"":1,""time"":3415}]",NA,3734.7999999821186,static/img/machines/machine3.png,NA,NA,NA,NA,NA,NA,NA,NA,NA,NA,NA,NA,NA,NA,NA,NA,explicit,NA,NA,NA,NA,NA,NA,NA,NA,NA,7
