trial_type,trial_index,time_elapsed,internal_node_id,task_version,subject_id,interactions,success,rt,stimulus,key_press,button_pressed,offer,arcade_color_L,arcade_color_R,arcade_outcome_L,arcade_outcome_R,correct,stage_1_key,stage_1_choice,stage_1_rt,stage_2_key,stage_2_choice,stage_2_rt,stage_3_outcome,accuracy,phase,responses,num_errors,context,reward_prob_L,reward_prob_R,arcade_id_L,arcade_id_R,trial,block,response
pavlovia,0,8,0.0-0.0,voc_e2,12070,[],NA,NA,NA,NA,NA,NA,NA,NA,NA,NA,NA,NA,NA,NA,NA,NA,NA,NA,NA,NA,NA,NA,NA,NA,NA,NA,NA,NA,NA,NA
fullscreen,1,3050,0.0-1.0,voc_e2,12070,"[{""event"":""fullscreenenter"",""trial"":1,""time"":2136}]",TRUE,NA,NA,NA,NA,NA,NA,NA,NA,NA,NA,NA,NA,NA,NA,NA,NA,NA,NA,NA,NA,NA,NA,NA,NA,NA,NA,NA,NA,NA
audio-keyboard-response,2,6994,0.0-2.0,voc_e2,12070,"[{""event"":""fullscreenenter"",""trial"":1,""time"":2136}]",NA,3797,static/audio/beep_loop.wav,32,NA,NA,NA,NA,NA,NA,NA,NA,NA,NA,NA,NA,NA,NA,NA,NA,NA,NA,NA,NA,NA,NA,NA,NA,NA,NA
audio-test,3,8974,0.0-3.0,voc_e2,12070,"[{""event"":""fullscreenenter"",""trial"":1,""time"":2136}]",NA,NA,static/audio/turtle.wav,NA,3,NA,NA,NA,NA,NA,NA,NA,NA,NA,NA,NA,NA,NA,NA,NA,NA,NA,NA,NA,NA,NA,NA,NA,NA,NA
audio-test,4,11025,0.0-4.0,voc_e2,12070,"[{""event"":""fullscreenenter"",""trial"":1,""time"":2136}]",NA,NA,static/audio/shark.wav,NA,2,NA,NA,NA,NA,NA,NA,NA,NA,NA,NA,NA,NA,NA,NA,NA,NA,NA,NA,NA,NA,NA,NA,NA,NA,NA
audio-instructions,5,19186,0.0-5.0-0.0,voc_e2,12070,"[{""event"":""fullscreenenter"",""trial"":1,""time"":2136}]",NA,2376.100000023842,static/audio/instructions1.wav,NA,0,NA,NA,NA,NA,NA,NA,NA,NA,NA,NA,NA,NA,NA,NA,NA,NA,NA,NA,NA,NA,NA,NA,NA,NA,NA
audio-instructions,6,28806,0.0-5.0-1.0,voc_e2,12070,"[{""event"":""fullscreenenter"",""trial"":1,""time"":2136}]",NA,2874.600000023842,static/audio/instructions2.wav,NA,0,NA,NA,NA,NA,NA,NA,NA,NA,NA,NA,NA,NA,NA,NA,NA,NA,NA,NA,NA,NA,NA,NA,NA,NA,NA
audio-instructions,7,35322,0.0-5.0-2.0,voc_e2,12070,"[{""event"":""fullscreenenter"",""trial"":1,""time"":2136}]",NA,715.1000000238419,static/audio/instructions3.wav,NA,0,NA,NA,NA,NA,NA,NA,NA,NA,NA,NA,NA,NA,NA,NA,NA,NA,NA,NA,NA,NA,NA,NA,NA,NA,NA
audio-instructions,8,50598,0.0-5.0-3.0,voc_e2,12070,"[{""event"":""fullscreenenter"",""trial"":1,""time"":2136}]",NA,2050.5,static/audio/instructions4.wav,NA,0,NA,NA,NA,NA,NA,NA,NA,NA,NA,NA,NA,NA,NA,NA,NA,NA,NA,NA,NA,NA,NA,NA,NA,NA,NA
audio-instructions,9,60742,0.0-5.0-4.0,voc_e2,12070,"[{""event"":""fullscreenenter"",""trial"":1,""time"":2136}]",NA,759.8999999761581,static/audio/instructions5.wav,NA,0,NA,NA,NA,NA,NA,NA,NA,NA,NA,NA,NA,NA,NA,NA,NA,NA,NA,NA,NA,NA,NA,NA,NA,NA,NA
fcp-practice,10,65794,0.0-5.0-5.0-0.0,voc_e2,12070,"[{""event"":""fullscreenenter"",""trial"":1,""time"":2136}]",NA,NA,NA,NA,NA,NA,#EDC948,#46d3c8,10,0,1,null,null,null,37,1,3538.5,10,1,practice,NA,NA,NA,NA,NA,NA,NA,NA,NA,NA
fcp-practice,11,68568,0.0-5.0-5.0-1.0,voc_e2,12070,"[{""event"":""fullscreenenter"",""trial"":1,""time"":2136}]",NA,NA,NA,NA,NA,NA,#EDC948,#46d3c8,10,0,1,null,null,null,37,1,1262.4000000953674,10,1,practice,NA,NA,NA,NA,NA,NA,NA,NA,NA,NA
fcp-practice,12,71333,0.0-5.0-5.0-2.0,voc_e2,12070,"[{""event"":""fullscreenenter"",""trial"":1,""time"":2136}]",NA,NA,NA,NA,NA,NA,#EDC948,#46d3c8,0,10,1,null,null,null,37,1,1253.7000000476835,0,1,practice,NA,NA,NA,NA,NA,NA,NA,NA,NA,NA
fcp-practice,13,73618,0.0-5.0-5.0-3.0,voc_e2,12070,"[{""event"":""fullscreenenter"",""trial"":1,""time"":2136}]",NA,NA,NA,NA,NA,NA,#EDC948,#46d3c8,10,0,1,null,null,null,37,1,773.8999999761581,10,1,practice,NA,NA,NA,NA,NA,NA,NA,NA,NA,NA
fcp-practice,14,75810,0.0-5.0-5.0-4.0,voc_e2,12070,"[{""event"":""fullscreenenter"",""trial"":1,""time"":2136}]",NA,NA,NA,NA,NA,NA,#EDC948,#46d3c8,10,0,1,null,null,null,37,1,679.7999999523163,10,1,practice,NA,NA,NA,NA,NA,NA,NA,NA,NA,NA
audio-instructions,15,94696,0.0-5.0-6.0,voc_e2,12070,"[{""event"":""fullscreenenter"",""trial"":1,""time"":2136}]",NA,874.8000000715256,static/audio/instructions6.wav,NA,0,NA,NA,NA,NA,NA,NA,NA,NA,NA,NA,NA,NA,NA,NA,NA,NA,NA,NA,NA,NA,NA,NA,NA,NA,NA
audio-instructions,16,114513,0.0-5.0-7.0,voc_e2,12070,"[{""event"":""fullscreenenter"",""trial"":1,""time"":2136}]",NA,614,static/audio/instructions7.wav,NA,0,NA,NA,NA,NA,NA,NA,NA,NA,NA,NA,NA,NA,NA,NA,NA,NA,NA,NA,NA,NA,NA,NA,NA,NA,NA
audio-instructions,17,124461,0.0-5.0-8.0,voc_e2,12070,"[{""event"":""fullscreenenter"",""trial"":1,""time"":2136}]",NA,477.7000000476837,static/audio/instructions8.wav,NA,0,NA,NA,NA,NA,NA,NA,NA,NA,NA,NA,NA,NA,NA,NA,NA,NA,NA,NA,NA,NA,NA,NA,NA,NA,NA
fcp-comprehension,18,137753,0.0-5.0-9.0,voc_e2,12070,"[{""event"":""fullscreenenter"",""trial"":1,""time"":2136}]",NA,13278.299999952316,NA,NA,NA,NA,NA,NA,NA,NA,NA,NA,NA,NA,NA,NA,NA,NA,NA,NA,"true,true",0,NA,NA,NA,NA,NA,NA,NA,NA
audio-instructions,19,144286,0.0-6.0-0.0,voc_e2,12070,"[{""event"":""fullscreenenter"",""trial"":1,""time"":2136}]",NA,985.4000000953674,static/audio/instructions9.wav,NA,0,NA,NA,NA,NA,NA,NA,NA,NA,NA,NA,NA,NA,NA,NA,NA,NA,NA,NA,NA,NA,NA,NA,NA,NA,NA
audio-instructions,20,157473,0.0-6.0-1.0,voc_e2,12070,"[{""event"":""fullscreenenter"",""trial"":1,""time"":2136}]",NA,1069.3000000715256,static/audio/instructions10.wav,NA,0,NA,NA,NA,NA,NA,NA,NA,NA,NA,NA,NA,NA,NA,NA,NA,NA,NA,NA,NA,NA,NA,NA,NA,NA,NA
fcp-trial,21,167097,0.0-6.0-2.0,voc_e2,12070,"[{""event"":""fullscreenenter"",""trial"":1,""time"":2136}]",NA,NA,NA,NA,NA,0,#EDC948,#46d3c8,10,10,1,38,1,5614,37,1,2491.600000023842,10,1,practice,NA,NA,NA,NA,NA,NA,NA,NA,NA,NA
audio-instructions,22,179558,0.0-6.0-3.0,voc_e2,12070,"[{""event"":""fullscreenenter"",""trial"":1,""time"":2136}]",NA,1450,static/audio/instructions11.wav,NA,0,NA,NA,NA,NA,NA,NA,NA,NA,NA,NA,NA,NA,NA,NA,NA,NA,NA,NA,NA,NA,NA,NA,NA,NA,NA
fcp-trial,23,183747,0.0-6.0-4.0,voc_e2,12070,"[{""event"":""fullscreenenter"",""trial"":1,""time"":2136}]",NA,NA,NA,NA,NA,6,#EDC948,#46d3c8,10,10,1,40,0,1199.6000000238419,37,1,1470,10,1,practice,NA,NA,NA,NA,NA,NA,NA,NA,NA,NA
audio-instructions,24,204000,0.0-6.0-5.0,voc_e2,12070,"[{""event"":""fullscreenenter"",""trial"":1,""time"":2136}]",NA,1560.2000000476835,static/audio/instructions12.wav,NA,0,NA,NA,NA,NA,NA,NA,NA,NA,NA,NA,NA,NA,NA,NA,NA,NA,NA,NA,NA,NA,NA,NA,NA,NA,NA
audio-instructions,25,212514,0.0-6.0-6.0,voc_e2,12070,"[{""event"":""fullscreenenter"",""trial"":1,""time"":2136}]",NA,914.5,static/audio/instructions13.wav,NA,0,NA,NA,NA,NA,NA,NA,NA,NA,NA,NA,NA,NA,NA,NA,NA,NA,NA,NA,NA,NA,NA,NA,NA,NA,NA
audio-instructions,26,221896,0.0-6.0-7.0,voc_e2,12070,"[{""event"":""fullscreenenter"",""trial"":1,""time"":2136}]",NA,937,static/audio/instructions14.wav,NA,0,NA,NA,NA,NA,NA,NA,NA,NA,NA,NA,NA,NA,NA,NA,NA,NA,NA,NA,NA,NA,NA,NA,NA,NA,NA
audio-instructions,27,229406,0.0-7.0-0.0,voc_e2,12070,"[{""event"":""fullscreenenter"",""trial"":1,""time"":2136}]",NA,595.8999999761581,static/audio/instructions15.wav,NA,0,NA,NA,NA,NA,NA,NA,NA,NA,NA,NA,NA,NA,NA,NA,NA,NA,NA,NA,NA,NA,NA,NA,NA,NA,NA
audio-instructions,28,237186,0.0-7.0-1.0,voc_e2,12070,"[{""event"":""fullscreenenter"",""trial"":1,""time"":2136}]",NA,951.3000000715256,static/audio/instructions16.wav,NA,0,NA,NA,NA,NA,NA,NA,NA,NA,NA,NA,NA,NA,NA,NA,NA,NA,NA,NA,NA,NA,NA,NA,NA,NA,NA
audio-instructions,29,245288,0.0-7.0-2.0,voc_e2,12070,"[{""event"":""fullscreenenter"",""trial"":1,""time"":2136}]",NA,419.39999997615814,static/audio/instructions17.wav,NA,0,NA,NA,NA,NA,NA,NA,NA,NA,NA,NA,NA,NA,NA,NA,NA,NA,NA,NA,NA,NA,NA,NA,NA,NA,NA
audio-instructions,30,253483,0.0-7.0-3.0,voc_e2,12070,"[{""event"":""fullscreenenter"",""trial"":1,""time"":2136}]",NA,427.10000002384186,static/audio/instructions18.wav,NA,0,NA,NA,NA,NA,NA,NA,NA,NA,NA,NA,NA,NA,NA,NA,NA,NA,NA,NA,NA,NA,NA,NA,NA,NA,NA
audio-instructions,31,260654,0.0-7.0-4.0,voc_e2,12070,"[{""event"":""fullscreenenter"",""trial"":1,""time"":2136}]",NA,428.8000000715256,static/audio/instructions19.wav,NA,0,NA,NA,NA,NA,NA,NA,NA,NA,NA,NA,NA,NA,NA,NA,NA,NA,NA,NA,NA,NA,NA,NA,NA,NA,NA
fcp-comprehension,32,275273,0.0-7.0-5.0,voc_e2,12070,"[{""event"":""fullscreenenter"",""trial"":1,""time"":2136}]",NA,14616.100000023842,NA,NA,NA,NA,NA,NA,NA,NA,NA,NA,NA,NA,NA,NA,NA,NA,NA,NA,"false,false,false,true",0,NA,NA,NA,NA,NA,NA,NA,NA
audio-instructions,33,286227,0.0-8.0,voc_e2,12070,"[{""event"":""fullscreenenter"",""trial"":1,""time"":2136}]",NA,1736.899999976158,static/audio/ready.wav,NA,0,NA,NA,NA,NA,NA,NA,NA,NA,NA,NA,NA,NA,NA,NA,NA,NA,NA,NA,NA,NA,NA,NA,NA,NA,NA
fcp-trial,34,298400,0.0-9.0-0.0,voc_e2,12070,"[{""event"":""fullscreenenter"",""trial"":1,""time"":2136}]",NA,NA,NA,NA,NA,6,#741CD8,#D8271C,0,0,0,38,1,4300.100000023842,39,0,6352.899999976158,0,1,experiment,NA,NA,1,0.3,0.7,3,2,1,1,NA
fcp-trial,35,302617,0.0-10.0-0.0,voc_e2,12070,"[{""event"":""fullscreenenter"",""trial"":1,""time"":2136}]",NA,NA,NA,NA,NA,4,#1CD855,#FA92F8,0,10,0,38,1,1905.8999999761581,37,1,798.6000000238419,0,0,experiment,NA,NA,0,0.1,0.9,1,0,2,1,NA
fcp-trial,36,309218,0.0-11.0-0.0,voc_e2,12070,"[{""event"":""fullscreenenter"",""trial"":1,""time"":2136}]",NA,NA,NA,NA,NA,3,#741CD8,#D8271C,0,10,0,38,1,3374.100000023842,37,1,1711.600000023842,0,0,experiment,NA,NA,1,0.3,0.7,3,2,3,1,NA
fcp-trial,37,313576,0.0-12.0-0.0,voc_e2,12070,"[{""event"":""fullscreenenter"",""trial"":1,""time"":2136}]",NA,NA,NA,NA,NA,3,#D89F1C,#3386FF,0,0,1,38,1,1894,39,0,946.600000023842,0,0,experiment,NA,NA,2,0.5,0.5,4,5,4,1,NA
fcp-trial,38,320779,0.0-13.0-0.0,voc_e2,12070,"[{""event"":""fullscreenenter"",""trial"":1,""time"":2136}]",NA,NA,NA,NA,NA,6,#3386FF,#D89F1C,0,10,0,38,1,2839,39,0,2845.2999999523163,10,1,experiment,NA,NA,2,0.5,0.5,5,4,5,1,NA
fcp-trial,39,326517,0.0-14.0-0.0,voc_e2,12070,"[{""event"":""fullscreenenter"",""trial"":1,""time"":2136}]",NA,NA,NA,NA,NA,2,#D8271C,#741CD8,10,0,1,38,1,2208,37,1,2013.7000000476835,10,1,experiment,NA,NA,1,0.7,0.3,2,3,6,1,NA
fcp-trial,40,332498,0.0-15.0-0.0,voc_e2,12070,"[{""event"":""fullscreenenter"",""trial"":1,""time"":2136}]",NA,NA,NA,NA,NA,3,#FA92F8,#1CD855,0,0,1,38,1,2014.8999999761581,37,1,2453.399999976158,0,1,experiment,NA,NA,0,0.9,0.1,0,1,7,1,NA
fcp-trial,41,337492,0.0-16.0-0.0,voc_e2,12070,"[{""event"":""fullscreenenter"",""trial"":1,""time"":2136}]",NA,NA,NA,NA,NA,4,#D8271C,#741CD8,10,10,1,38,1,2021.8000000715256,39,0,1457.8000000715256,10,0,experiment,NA,NA,1,0.7,0.3,2,3,8,1,NA
fcp-trial,42,345192,0.0-17.0-0.0,voc_e2,12070,"[{""event"":""fullscreenenter"",""trial"":1,""time"":2136}]",NA,NA,NA,NA,NA,2,#D89F1C,#3386FF,0,0,1,38,1,2112.3000000715256,37,1,4077.700000047684,0,1,experiment,NA,NA,2,0.5,0.5,4,5,9,1,NA
fcp-trial,43,348559,0.0-18.0-0.0,voc_e2,12070,"[{""event"":""fullscreenenter"",""trial"":1,""time"":2136}]",NA,NA,NA,NA,NA,5,#1CD855,#FA92F8,0,10,0,38,1,1113.0999999046326,39,0,742.2999999523163,10,1,experiment,NA,NA,0,0.1,0.9,1,0,10,1,NA
fcp-trial,44,351989,0.0-19.0-0.0,voc_e2,12070,"[{""event"":""fullscreenenter"",""trial"":1,""time"":2136}]",NA,NA,NA,NA,NA,2,#1CD855,#FA92F8,0,0,0,38,1,1112.1000000238419,39,0,811.5,0,1,experiment,NA,NA,0,0.1,0.9,1,0,11,1,NA
fcp-trial,45,357957,0.0-20.0-0.0,voc_e2,12070,"[{""event"":""fullscreenenter"",""trial"":1,""time"":2136}]",NA,NA,NA,NA,NA,1,#D8271C,#741CD8,0,0,1,38,1,1934.5,39,0,2524.1999999284744,0,0,experiment,NA,NA,1,0.7,0.3,2,3,12,1,NA
fcp-trial,46,364991,0.0-21.0-0.0,voc_e2,12070,"[{""event"":""fullscreenenter"",""trial"":1,""time"":2136}]",NA,NA,NA,NA,NA,5,#D89F1C,#3386FF,10,0,1,38,1,1992.3999999761581,37,1,3525.6999999284744,10,1,experiment,NA,NA,2,0.5,0.5,4,5,13,1,NA
fcp-trial,47,368906,0.0-22.0-0.0,voc_e2,12070,"[{""event"":""fullscreenenter"",""trial"":1,""time"":2136}]",NA,NA,NA,NA,NA,5,#741CD8,#D8271C,10,0,0,38,1,1244.3000000715256,37,1,1158.2999999523165,10,0,experiment,NA,NA,1,0.3,0.7,3,2,14,1,NA
fcp-trial,48,376834,0.0-23.0-0.0,voc_e2,12070,"[{""event"":""fullscreenenter"",""trial"":1,""time"":2136}]",NA,NA,NA,NA,NA,1,#3386FF,#D89F1C,10,0,0,38,1,992.7999999523163,37,1,5422.5,10,0,experiment,NA,NA,2,0.5,0.5,5,4,15,1,NA
fcp-trial,49,383882,0.0-24.0-0.0,voc_e2,12070,"[{""event"":""fullscreenenter"",""trial"":1,""time"":2136}]",NA,NA,NA,NA,NA,0,#1CD855,#FA92F8,0,10,0,38,1,1927.5,39,0,3606.5,10,1,experiment,NA,NA,0,0.1,0.9,1,0,16,1,NA
fcp-trial,50,389583,0.0-25.0-0.0,voc_e2,12070,"[{""event"":""fullscreenenter"",""trial"":1,""time"":2136}]",NA,NA,NA,NA,NA,1,#1CD855,#FA92F8,0,10,0,38,1,1098.3999999761581,39,0,3088.2999999523163,10,1,experiment,NA,NA,0,0.1,0.9,1,0,17,1,NA
fcp-trial,51,393004,0.0-26.0-0.0,voc_e2,12070,"[{""event"":""fullscreenenter"",""trial"":1,""time"":2136}]",NA,NA,NA,NA,NA,6,#1CD855,#FA92F8,0,10,0,38,1,1245.7999999523163,39,0,657.7000000476837,10,1,experiment,NA,NA,0,0.1,0.9,1,0,18,1,NA
fcp-trial,52,397071,0.0-27.0-0.0,voc_e2,12070,"[{""event"":""fullscreenenter"",""trial"":1,""time"":2136}]",NA,NA,NA,NA,NA,0,#D8271C,#741CD8,10,0,1,38,1,1219.2999999523163,39,0,1331,0,0,experiment,NA,NA,1,0.7,0.3,2,3,19,1,NA
fcp-trial,53,401067,0.0-28.0-0.0,voc_e2,12070,"[{""event"":""fullscreenenter"",""trial"":1,""time"":2136}]",NA,NA,NA,NA,NA,0,#3386FF,#D89F1C,0,0,0,38,1,693.8000000715256,37,1,1790.6999999284744,0,0,experiment,NA,NA,2,0.5,0.5,5,4,20,1,NA
fcp-trial,54,405990,0.0-29.0-0.0,voc_e2,12070,"[{""event"":""fullscreenenter"",""trial"":1,""time"":2136}]",NA,NA,NA,NA,NA,4,#D89F1C,#3386FF,10,0,1,38,1,503.89999997615814,39,0,2909.7999999523163,0,0,experiment,NA,NA,2,0.5,0.5,4,5,21,1,NA
fcp-trial,55,409068,0.0-30.0-0.0,voc_e2,12070,"[{""event"":""fullscreenenter"",""trial"":1,""time"":2136}]",NA,NA,NA,NA,NA,6,#3386FF,#D89F1C,0,10,0,38,1,379,37,1,1186.5,0,0,experiment,NA,NA,2,0.5,0.5,5,4,22,1,NA
fcp-trial,56,413924,0.0-31.0-0.0,voc_e2,12070,"[{""event"":""fullscreenenter"",""trial"":1,""time"":2136}]",NA,NA,NA,NA,NA,0,#D89F1C,#3386FF,0,0,1,38,1,872.4000000953674,39,0,2472.899999976158,0,0,experiment,NA,NA,2,0.5,0.5,4,5,23,1,NA
fcp-trial,57,425028,0.0-32.0-0.0,voc_e2,12070,"[{""event"":""fullscreenenter"",""trial"":1,""time"":2136}]",NA,NA,NA,NA,NA,4,#1CD855,#FA92F8,0,10,0,38,1,2746.7999999523163,39,0,6845.700000047684,10,1,experiment,NA,NA,0,0.1,0.9,1,0,24,1,NA
fcp-trial,58,428002,0.0-33.0-0.0,voc_e2,12070,"[{""event"":""fullscreenenter"",""trial"":1,""time"":2136}]",NA,NA,NA,NA,NA,1,#3386FF,#D89F1C,10,10,0,38,1,997.6000000238419,39,0,464.3000000715256,10,1,experiment,NA,NA,2,0.5,0.5,5,4,25,1,NA
fcp-trial,59,430878,0.0-34.0-0.0,voc_e2,12070,"[{""event"":""fullscreenenter"",""trial"":1,""time"":2136}]",NA,NA,NA,NA,NA,2,#741CD8,#D8271C,0,10,0,38,1,880.6000000238419,37,1,479.40000009536743,0,0,experiment,NA,NA,1,0.3,0.7,3,2,26,1,NA
fcp-trial,60,433944,0.0-35.0-0.0,voc_e2,12070,"[{""event"":""fullscreenenter"",""trial"":1,""time"":2136}]",NA,NA,NA,NA,NA,1,#FA92F8,#1CD855,10,0,1,38,1,1085.7999999523163,37,1,465.2999999523163,10,1,experiment,NA,NA,0,0.9,0.1,0,1,27,1,NA
fcp-trial,61,436613,0.0-36.0-0.0,voc_e2,12070,"[{""event"":""fullscreenenter"",""trial"":1,""time"":2136}]",NA,NA,NA,NA,NA,5,#D89F1C,#3386FF,10,0,1,38,1,740.2000000476837,37,1,415.5,10,1,experiment,NA,NA,2,0.5,0.5,4,5,28,1,NA
fcp-trial,62,439130,0.0-37.0-0.0,voc_e2,12070,"[{""event"":""fullscreenenter"",""trial"":1,""time"":2136}]",NA,NA,NA,NA,NA,6,#1CD855,#FA92F8,0,10,0,38,1,654.1000000238419,39,0,355.5,10,1,experiment,NA,NA,0,0.1,0.9,1,0,29,1,NA
fcp-trial,63,442290,0.0-38.0-0.0,voc_e2,12070,"[{""event"":""fullscreenenter"",""trial"":1,""time"":2136}]",NA,NA,NA,NA,NA,6,#741CD8,#D8271C,0,0,0,38,1,768.9000000953674,39,0,884.0999999046326,0,1,experiment,NA,NA,1,0.3,0.7,3,2,30,1,NA
fcp-trial,64,445334,0.0-39.0-0.0,voc_e2,12070,"[{""event"":""fullscreenenter"",""trial"":1,""time"":2136}]",NA,NA,NA,NA,NA,0,#741CD8,#D8271C,0,10,0,38,1,938.7999999523163,37,1,593.5,0,0,experiment,NA,NA,1,0.3,0.7,3,2,31,1,NA
fcp-trial,65,448614,0.0-40.0-0.0,voc_e2,12070,"[{""event"":""fullscreenenter"",""trial"":1,""time"":2136}]",NA,NA,NA,NA,NA,5,#741CD8,#D8271C,0,10,0,38,1,683.3999999761581,39,0,1082.399999976158,10,1,experiment,NA,NA,1,0.3,0.7,3,2,32,1,NA
fcp-trial,66,453370,0.0-41.0-0.0,voc_e2,12070,"[{""event"":""fullscreenenter"",""trial"":1,""time"":2136}]",NA,NA,NA,NA,NA,4,#D89F1C,#3386FF,10,10,1,38,1,2918.1999999284744,37,1,323.7999999523163,10,1,experiment,NA,NA,2,0.5,0.5,4,5,33,1,NA
fcp-trial,67,455892,0.0-42.0-0.0,voc_e2,12070,"[{""event"":""fullscreenenter"",""trial"":1,""time"":2136}]",NA,NA,NA,NA,NA,2,#1CD855,#FA92F8,0,10,0,38,1,711,39,0,299.1999999284744,10,1,experiment,NA,NA,0,0.1,0.9,1,0,34,1,NA
fcp-trial,68,458391,0.0-43.0-0.0,voc_e2,12070,"[{""event"":""fullscreenenter"",""trial"":1,""time"":2136}]",NA,NA,NA,NA,NA,3,#D89F1C,#3386FF,0,0,1,38,1,661.6000000238419,37,1,327.60000002384186,0,1,experiment,NA,NA,2,0.5,0.5,4,5,35,1,NA
fcp-trial,69,462398,0.0-44.0-0.0,voc_e2,12070,"[{""event"":""fullscreenenter"",""trial"":1,""time"":2136}]",NA,NA,NA,NA,NA,4,#D8271C,#741CD8,10,0,1,40,0,1666,39,0,830.8000000715256,0,0,experiment,NA,NA,1,0.7,0.3,2,3,36,1,NA
fcp-trial,70,469351,0.0-45.0-0.0,voc_e2,12070,"[{""event"":""fullscreenenter"",""trial"":1,""time"":2136}]",NA,NA,NA,NA,NA,5,#1CD855,#FA92F8,10,10,0,40,0,3384.3000000715256,37,1,2053,10,0,experiment,NA,NA,0,0.1,0.9,1,0,37,1,NA
fcp-trial,71,474406,0.0-46.0-0.0,voc_e2,12070,"[{""event"":""fullscreenenter"",""trial"":1,""time"":2136}]",NA,NA,NA,NA,NA,2,#D89F1C,#3386FF,0,0,1,38,1,2411.6999999284744,37,1,1125,0,1,experiment,NA,NA,2,0.5,0.5,4,5,38,1,NA
fcp-trial,72,478058,0.0-47.0-0.0,voc_e2,12070,"[{""event"":""fullscreenenter"",""trial"":1,""time"":2136}]",NA,NA,NA,NA,NA,0,#FA92F8,#1CD855,10,0,1,38,1,1512.4000000953674,37,1,625.8999999761581,10,1,experiment,NA,NA,0,0.9,0.1,0,1,39,1,NA
fcp-trial,73,481893,0.0-48.0-0.0,voc_e2,12070,"[{""event"":""fullscreenenter"",""trial"":1,""time"":2136}]",NA,NA,NA,NA,NA,3,#FA92F8,#1CD855,10,10,1,38,1,1598.3999999761581,37,1,726,10,1,experiment,NA,NA,0,0.9,0.1,0,1,40,1,NA
fcp-trial,74,486943,0.0-49.0-0.0,voc_e2,12070,"[{""event"":""fullscreenenter"",""trial"":1,""time"":2136}]",NA,NA,NA,NA,NA,3,#741CD8,#D8271C,0,10,0,38,1,1650.5,37,1,1882.6999999284744,0,0,experiment,NA,NA,1,0.3,0.7,3,2,41,1,NA
fcp-trial,75,490839,0.0-50.0-0.0,voc_e2,12070,"[{""event"":""fullscreenenter"",""trial"":1,""time"":2136}]",NA,NA,NA,NA,NA,1,#741CD8,#D8271C,0,0,0,38,1,1342.8999999761581,39,0,1037.2000000476835,0,1,experiment,NA,NA,1,0.3,0.7,3,2,42,1,NA
fcp-trial,76,493611,0.0-51.0-0.0,voc_e2,12070,"[{""event"":""fullscreenenter"",""trial"":1,""time"":2136}]",NA,NA,NA,NA,NA,6,#FA92F8,#1CD855,10,0,1,38,1,904.1999999284744,37,1,351.8000000715256,10,1,experiment,NA,NA,0,0.9,0.1,0,1,43,1,NA
fcp-trial,77,497413,0.0-52.0-0.0,voc_e2,12070,"[{""event"":""fullscreenenter"",""trial"":1,""time"":2136}]",NA,NA,NA,NA,NA,4,#FA92F8,#1CD855,10,0,1,40,0,1506.6999999284744,39,0,780.7999999523163,0,0,experiment,NA,NA,0,0.9,0.1,0,1,44,1,NA
fcp-trial,78,502366,0.0-53.0-0.0,voc_e2,12070,"[{""event"":""fullscreenenter"",""trial"":1,""time"":2136}]",NA,NA,NA,NA,NA,6,#D89F1C,#3386FF,10,0,1,40,0,2856.5,37,1,584.9000000953674,10,1,experiment,NA,NA,2,0.5,0.5,4,5,45,1,NA
fcp-trial,79,507093,0.0-54.0-0.0,voc_e2,12070,"[{""event"":""fullscreenenter"",""trial"":1,""time"":2136}]",NA,NA,NA,NA,NA,5,#741CD8,#D8271C,0,0,0,40,0,2685.6999999284744,39,0,527.2000000476837,0,1,experiment,NA,NA,1,0.3,0.7,3,2,46,2,NA
fcp-trial,80,510299,0.0-55.0-0.0,voc_e2,12070,"[{""event"":""fullscreenenter"",""trial"":1,""time"":2136}]",NA,NA,NA,NA,NA,2,#FA92F8,#1CD855,10,0,1,38,1,1324.3000000715256,37,1,364.7999999523163,10,1,experiment,NA,NA,0,0.9,0.1,0,1,47,2,NA
fcp-trial,81,515979,0.0-56.0-0.0,voc_e2,12070,"[{""event"":""fullscreenenter"",""trial"":1,""time"":2136}]",NA,NA,NA,NA,NA,5,#D89F1C,#3386FF,10,0,1,40,0,1875.3000000715256,37,1,2286.6999999284744,10,1,experiment,NA,NA,2,0.5,0.5,4,5,48,2,NA
fcp-trial,82,519756,0.0-57.0-0.0,voc_e2,12070,"[{""event"":""fullscreenenter"",""trial"":1,""time"":2136}]",NA,NA,NA,NA,NA,3,#D89F1C,#3386FF,10,0,1,38,1,1942.3999999761581,37,1,322,10,1,experiment,NA,NA,2,0.5,0.5,4,5,49,2,NA
fcp-trial,83,524113,0.0-58.0-0.0,voc_e2,12070,"[{""event"":""fullscreenenter"",""trial"":1,""time"":2136}]",NA,NA,NA,NA,NA,1,#1CD855,#FA92F8,0,10,0,38,1,2466.899999976158,39,0,377.7999999523163,10,1,experiment,NA,NA,0,0.1,0.9,1,0,50,2,NA
fcp-trial,84,529176,0.0-59.0-0.0,voc_e2,12070,"[{""event"":""fullscreenenter"",""trial"":1,""time"":2136}]",NA,NA,NA,NA,NA,1,#D8271C,#741CD8,10,0,1,38,1,1446.8000000715256,37,1,2100.6999999284744,10,1,experiment,NA,NA,1,0.7,0.3,2,3,51,2,NA
fcp-trial,85,534575,0.0-60.0-0.0,voc_e2,12070,"[{""event"":""fullscreenenter"",""trial"":1,""time"":2136}]",NA,NA,NA,NA,NA,3,#D8271C,#741CD8,0,0,1,40,0,3344.4000000953674,37,1,542.2999999523163,0,1,experiment,NA,NA,1,0.7,0.3,2,3,52,2,NA
fcp-trial,86,537293,0.0-61.0-0.0,voc_e2,12070,"[{""event"":""fullscreenenter"",""trial"":1,""time"":2136}]",NA,NA,NA,NA,NA,4,#3386FF,#D89F1C,0,10,0,38,1,945.2000000476837,39,0,259.2999999523163,10,1,experiment,NA,NA,2,0.5,0.5,5,4,53,2,NA
fcp-trial,87,541762,0.0-62.0-0.0,voc_e2,12070,"[{""event"":""fullscreenenter"",""trial"":1,""time"":2136}]",NA,NA,NA,NA,NA,0,#FA92F8,#1CD855,10,0,1,38,1,1547.3000000715256,37,1,1408.3000000715256,10,1,experiment,NA,NA,0,0.9,0.1,0,1,54,2,NA
fcp-trial,88,545617,0.0-63.0-0.0,voc_e2,12070,"[{""event"":""fullscreenenter"",""trial"":1,""time"":2136}]",NA,NA,NA,NA,NA,1,#3386FF,#D89F1C,10,0,0,38,1,2028.2000000476837,39,0,313.89999997615814,0,1,experiment,NA,NA,2,0.5,0.5,5,4,55,2,NA
fcp-trial,89,549480,0.0-64.0-0.0,voc_e2,12070,"[{""event"":""fullscreenenter"",""trial"":1,""time"":2136}]",NA,NA,NA,NA,NA,2,#3386FF,#D89F1C,0,10,0,38,1,1585.4000000953674,39,0,762.8999999761581,10,1,experiment,NA,NA,2,0.5,0.5,5,4,56,2,NA
fcp-trial,90,553257,0.0-65.0-0.0,voc_e2,12070,"[{""event"":""fullscreenenter"",""trial"":1,""time"":2136}]",NA,NA,NA,NA,NA,6,#741CD8,#D8271C,0,10,0,40,0,1803.2999999523163,37,1,460.2999999523163,0,0,experiment,NA,NA,1,0.3,0.7,3,2,57,2,NA
fcp-trial,91,557682,0.0-66.0-0.0,voc_e2,12070,"[{""event"":""fullscreenenter"",""trial"":1,""time"":2136}]",NA,NA,NA,NA,NA,5,#FA92F8,#1CD855,10,0,1,40,0,2392.399999976158,37,1,524.1000000238419,10,1,experiment,NA,NA,0,0.9,0.1,0,1,58,2,NA
fcp-trial,92,561128,0.0-67.0-0.0,voc_e2,12070,"[{""event"":""fullscreenenter"",""trial"":1,""time"":2136}]",NA,NA,NA,NA,NA,2,#741CD8,#D8271C,10,10,0,38,1,1267.6000000238419,39,0,667.1000000238419,10,1,experiment,NA,NA,1,0.3,0.7,3,2,59,2,NA
fcp-trial,93,565428,0.0-68.0-0.0,voc_e2,12070,"[{""event"":""fullscreenenter"",""trial"":1,""time"":2136}]",NA,NA,NA,NA,NA,4,#741CD8,#D8271C,10,0,0,40,0,2312.100000023842,37,1,476.60000002384186,10,0,experiment,NA,NA,1,0.3,0.7,3,2,60,2,NA
fcp-trial,94,570089,0.0-69.0-0.0,voc_e2,12070,"[{""event"":""fullscreenenter"",""trial"":1,""time"":2136}]",NA,NA,NA,NA,NA,0,#D89F1C,#3386FF,0,0,1,38,1,2829.899999976158,37,1,321.6999999284744,0,1,experiment,NA,NA,2,0.5,0.5,4,5,61,2,NA
fcp-trial,95,573469,0.0-70.0-0.0,voc_e2,12070,"[{""event"":""fullscreenenter"",""trial"":1,""time"":2136}]",NA,NA,NA,NA,NA,0,#D8271C,#741CD8,0,0,1,38,1,1285.1000000238419,39,0,583.3999999761581,0,0,experiment,NA,NA,1,0.7,0.3,2,3,62,2,NA
fcp-trial,96,579018,0.0-71.0-0.0,voc_e2,12070,"[{""event"":""fullscreenenter"",""trial"":1,""time"":2136}]",NA,NA,NA,NA,NA,3,#1CD855,#FA92F8,0,10,0,38,1,3147.100000023842,39,0,883.8000000715256,10,1,experiment,NA,NA,0,0.1,0.9,1,0,63,2,NA
fcp-trial,97,582025,0.0-72.0-0.0,voc_e2,12070,"[{""event"":""fullscreenenter"",""trial"":1,""time"":2136}]",NA,NA,NA,NA,NA,0,#3386FF,#D89F1C,0,10,0,38,1,861.6999999284744,39,0,627.3999999761581,10,1,experiment,NA,NA,2,0.5,0.5,5,4,64,2,NA
fcp-trial,98,587889,0.0-73.0-0.0,voc_e2,12070,"[{""event"":""fullscreenenter"",""trial"":1,""time"":2136}]",NA,NA,NA,NA,NA,2,#D89F1C,#3386FF,10,10,1,38,1,3924.7999999523163,39,0,426.3000000715256,10,0,experiment,NA,NA,2,0.5,0.5,4,5,65,2,NA
fcp-trial,99,592139,0.0-74.0-0.0,voc_e2,12070,"[{""event"":""fullscreenenter"",""trial"":1,""time"":2136}]",NA,NA,NA,NA,NA,2,#D8271C,#741CD8,10,10,1,38,1,2106.899999976158,37,1,634.3000000715256,10,1,experiment,NA,NA,1,0.7,0.3,2,3,66,2,NA
fcp-trial,100,595271,0.0-75.0-0.0,voc_e2,12070,"[{""event"":""fullscreenenter"",""trial"":1,""time"":2136}]",NA,NA,NA,NA,NA,4,#741CD8,#D8271C,10,0,0,38,1,1148.1999999284744,37,1,469.5,10,0,experiment,NA,NA,1,0.3,0.7,3,2,67,2,NA
fcp-trial,101,599350,0.0-76.0-0.0,voc_e2,12070,"[{""event"":""fullscreenenter"",""trial"":1,""time"":2136}]",NA,NA,NA,NA,NA,0,#1CD855,#FA92F8,0,10,0,38,1,1301.8000000715256,37,1,1263.7000000476835,0,0,experiment,NA,NA,0,0.1,0.9,1,0,68,2,NA
fcp-trial,102,603205,0.0-77.0-0.0,voc_e2,12070,"[{""event"":""fullscreenenter"",""trial"":1,""time"":2136}]",NA,NA,NA,NA,NA,1,#D8271C,#741CD8,10,0,1,38,1,1299,37,1,1040.7000000476835,10,1,experiment,NA,NA,1,0.7,0.3,2,3,69,2,NA
fcp-trial,103,609564,0.0-78.0-0.0,voc_e2,12070,"[{""event"":""fullscreenenter"",""trial"":1,""time"":2136}]",NA,NA,NA,NA,NA,3,#3386FF,#D89F1C,10,10,0,38,1,2710.100000023842,37,1,2137.400000095367,10,0,experiment,NA,NA,2,0.5,0.5,5,4,70,2,NA
fcp-trial,104,616332,0.0-79.0-0.0,voc_e2,12070,"[{""event"":""fullscreenenter"",""trial"":1,""time"":2136}]",NA,NA,NA,NA,NA,2,#FA92F8,#1CD855,10,0,1,38,1,1359.4000000953674,37,1,3896.100000023842,10,1,experiment,NA,NA,0,0.9,0.1,0,1,71,2,NA
fcp-trial,105,619395,0.0-80.0-0.0,voc_e2,12070,"[{""event"":""fullscreenenter"",""trial"":1,""time"":2136}]",NA,NA,NA,NA,NA,4,#D89F1C,#3386FF,0,10,1,38,1,1196.8999999761581,37,1,355.5,0,1,experiment,NA,NA,2,0.5,0.5,4,5,72,2,NA
fcp-trial,106,624786,0.0-81.0-0.0,voc_e2,12070,"[{""event"":""fullscreenenter"",""trial"":1,""time"":2136}]",NA,NA,NA,NA,NA,5,#741CD8,#D8271C,0,0,0,38,1,934.2999999523163,37,1,2944,0,0,experiment,NA,NA,1,0.3,0.7,3,2,73,2,NA
fcp-trial,107,630915,0.0-82.0-0.0,voc_e2,12070,"[{""event"":""fullscreenenter"",""trial"":1,""time"":2136}]",NA,NA,NA,NA,NA,5,#3386FF,#D89F1C,10,10,0,38,1,3748,39,0,863.7999999523163,10,1,experiment,NA,NA,2,0.5,0.5,5,4,74,2,NA
fcp-trial,108,635482,0.0-83.0-0.0,voc_e2,12070,"[{""event"":""fullscreenenter"",""trial"":1,""time"":2136}]",NA,NA,NA,NA,NA,4,#FA92F8,#1CD855,10,0,1,40,0,2425.5,39,0,627.6999999284744,0,0,experiment,NA,NA,0,0.9,0.1,0,1,75,2,NA
fcp-trial,109,641729,0.0-84.0-0.0,voc_e2,12070,"[{""event"":""fullscreenenter"",""trial"":1,""time"":2136}]",NA,NA,NA,NA,NA,0,#741CD8,#D8271C,0,10,0,40,0,3620.4000000953674,37,1,1112.2000000476835,0,0,experiment,NA,NA,1,0.3,0.7,3,2,76,2,NA
fcp-trial,110,646248,0.0-85.0-0.0,voc_e2,12070,"[{""event"":""fullscreenenter"",""trial"":1,""time"":2136}]",NA,NA,NA,NA,NA,5,#1CD855,#FA92F8,0,10,0,38,1,2455.3000000715256,39,0,548.6999999284744,10,1,experiment,NA,NA,0,0.1,0.9,1,0,77,2,NA
fcp-trial,111,651963,0.0-86.0-0.0,voc_e2,12070,"[{""event"":""fullscreenenter"",""trial"":1,""time"":2136}]",NA,NA,NA,NA,NA,1,#3386FF,#D89F1C,0,0,0,38,1,2882.100000023842,39,0,1322.1999999284744,0,1,experiment,NA,NA,2,0.5,0.5,5,4,78,2,NA
fcp-trial,112,655952,0.0-87.0-0.0,voc_e2,12070,"[{""event"":""fullscreenenter"",""trial"":1,""time"":2136}]",NA,NA,NA,NA,NA,3,#1CD855,#FA92F8,0,10,0,38,1,1760.1999999284744,37,1,714.3999999761581,0,0,experiment,NA,NA,0,0.1,0.9,1,0,79,2,NA
fcp-trial,113,659703,0.0-88.0-0.0,voc_e2,12070,"[{""event"":""fullscreenenter"",""trial"":1,""time"":2136}]",NA,NA,NA,NA,NA,6,#3386FF,#D89F1C,0,10,0,38,1,1154.7000000476837,37,1,1080.2999999523165,0,0,experiment,NA,NA,2,0.5,0.5,5,4,80,2,NA
fcp-trial,114,663848,0.0-89.0-0.0,voc_e2,12070,"[{""event"":""fullscreenenter"",""trial"":1,""time"":2136}]",NA,NA,NA,NA,NA,6,#D8271C,#741CD8,0,10,1,40,0,1639.1000000238419,39,0,991,10,0,experiment,NA,NA,1,0.7,0.3,2,3,81,2,NA
fcp-trial,115,671673,0.0-90.0-0.0,voc_e2,12070,"[{""event"":""fullscreenenter"",""trial"":1,""time"":2136}]",NA,NA,NA,NA,NA,1,#FA92F8,#1CD855,10,0,1,38,1,5660.600000023842,37,1,648.6000000238419,10,1,experiment,NA,NA,0,0.9,0.1,0,1,82,2,NA
fcp-trial,116,677001,0.0-91.0-0.0,voc_e2,12070,"[{""event"":""fullscreenenter"",""trial"":1,""time"":2136}]",NA,NA,NA,NA,NA,3,#741CD8,#D8271C,0,10,0,40,0,3266.2999999523163,39,0,552.6000000238419,10,1,experiment,NA,NA,1,0.3,0.7,3,2,83,2,NA
fcp-trial,117,682534,0.0-92.0-0.0,voc_e2,12070,"[{""event"":""fullscreenenter"",""trial"":1,""time"":2136}]",NA,NA,NA,NA,NA,6,#FA92F8,#1CD855,10,10,1,40,0,2793.600000023842,37,1,1229.5,10,1,experiment,NA,NA,0,0.9,0.1,0,1,84,2,NA
fcp-trial,118,687298,0.0-93.0-0.0,voc_e2,12070,"[{""event"":""fullscreenenter"",""trial"":1,""time"":2136}]",NA,NA,NA,NA,NA,5,#3386FF,#D89F1C,10,10,0,40,0,2380.8000000715256,39,0,861.8999999761581,10,1,experiment,NA,NA,2,0.5,0.5,5,4,85,2,NA
fcp-trial,119,691918,0.0-94.0-0.0,voc_e2,12070,"[{""event"":""fullscreenenter"",""trial"":1,""time"":2136}]",NA,NA,NA,NA,NA,2,#3386FF,#D89F1C,10,10,0,38,1,1699.3999999761581,39,0,1408.7000000476835,10,1,experiment,NA,NA,2,0.5,0.5,5,4,86,2,NA
fcp-trial,120,697467,0.0-95.0-0.0,voc_e2,12070,"[{""event"":""fullscreenenter"",""trial"":1,""time"":2136}]",NA,NA,NA,NA,NA,5,#741CD8,#D8271C,10,10,0,40,0,3234.399999976158,39,0,804.8000000715256,10,1,experiment,NA,NA,1,0.3,0.7,3,2,87,2,NA
fcp-trial,121,702609,0.0-96.0-0.0,voc_e2,12070,"[{""event"":""fullscreenenter"",""trial"":1,""time"":2136}]",NA,NA,NA,NA,NA,1,#FA92F8,#1CD855,10,0,1,38,1,2364.100000023842,37,1,1264.2999999523165,10,1,experiment,NA,NA,0,0.9,0.1,0,1,88,2,NA
fcp-trial,122,708827,0.0-97.0-0.0,voc_e2,12070,"[{""event"":""fullscreenenter"",""trial"":1,""time"":2136}]",NA,NA,NA,NA,NA,0,#741CD8,#D8271C,0,10,0,38,1,2309.5,39,0,2398.100000023842,10,1,experiment,NA,NA,1,0.3,0.7,3,2,89,2,NA
fcp-trial,123,713761,0.0-98.0-0.0,voc_e2,12070,"[{""event"":""fullscreenenter"",""trial"":1,""time"":2136}]",NA,NA,NA,NA,NA,4,#3386FF,#D89F1C,10,10,0,40,0,2364.399999976158,37,1,1057.1999999284744,10,0,experiment,NA,NA,2,0.5,0.5,5,4,90,2,NA
fcp-trial,124,717861,0.0-99.0-0.0,voc_e2,12070,"[{""event"":""fullscreenenter"",""trial"":1,""time"":2136}]",NA,NA,NA,NA,NA,0,#1CD855,#FA92F8,10,10,0,38,1,1669.1000000238419,39,0,916.600000023842,10,1,experiment,NA,NA,0,0.1,0.9,1,0,91,3,NA
fcp-trial,125,721206,0.0-100.0-0.0,voc_e2,12070,"[{""event"":""fullscreenenter"",""trial"":1,""time"":2136}]",NA,NA,NA,NA,NA,4,#FA92F8,#1CD855,10,0,1,40,0,1332.1000000238419,37,1,498.60000002384186,10,1,experiment,NA,NA,0,0.9,0.1,0,1,92,3,NA
fcp-trial,126,725979,0.0-101.0-0.0,voc_e2,12070,"[{""event"":""fullscreenenter"",""trial"":1,""time"":2136}]",NA,NA,NA,NA,NA,3,#3386FF,#D89F1C,10,10,0,40,0,1447.6999999284744,37,1,1811.7999999523165,10,0,experiment,NA,NA,2,0.5,0.5,5,4,93,3,NA
fcp-trial,127,732161,0.0-102.0-0.0,voc_e2,12070,"[{""event"":""fullscreenenter"",""trial"":1,""time"":2136}]",NA,NA,NA,NA,NA,1,#741CD8,#D8271C,0,10,0,40,0,3688.0999999046326,39,0,985.7000000476836,10,1,experiment,NA,NA,1,0.3,0.7,3,2,94,3,NA
fcp-trial,128,737529,0.0-103.0-0.0,voc_e2,12070,"[{""event"":""fullscreenenter"",""trial"":1,""time"":2136}]",NA,NA,NA,NA,NA,6,#1CD855,#FA92F8,0,10,0,40,0,2045.2999999523163,37,1,1808.5,0,0,experiment,NA,NA,0,0.1,0.9,1,0,95,3,NA
fcp-trial,129,741687,0.0-104.0-0.0,voc_e2,12070,"[{""event"":""fullscreenenter"",""trial"":1,""time"":2136}]",NA,NA,NA,NA,NA,3,#D8271C,#741CD8,0,10,1,40,0,2026,37,1,620.1000000238419,0,1,experiment,NA,NA,1,0.7,0.3,2,3,96,3,NA
fcp-trial,130,746557,0.0-105.0-0.0,voc_e2,12070,"[{""event"":""fullscreenenter"",""trial"":1,""time"":2136}]",NA,NA,NA,NA,NA,2,#FA92F8,#1CD855,10,0,1,40,0,2493.6999999284744,37,1,865.3999999761581,10,1,experiment,NA,NA,0,0.9,0.1,0,1,97,3,NA
fcp-trial,131,750658,0.0-106.0-0.0,voc_e2,12070,"[{""event"":""fullscreenenter"",""trial"":1,""time"":2136}]",NA,NA,NA,NA,NA,0,#3386FF,#D89F1C,0,0,0,38,1,2091.5999999046326,39,0,500.10000002384186,0,1,experiment,NA,NA,2,0.5,0.5,5,4,98,3,NA
fcp-trial,132,754929,0.0-107.0-0.0,voc_e2,12070,"[{""event"":""fullscreenenter"",""trial"":1,""time"":2136}]",NA,NA,NA,NA,NA,6,#3386FF,#D89F1C,0,10,0,40,0,1550.3000000715256,37,1,1207.3000000715256,0,0,experiment,NA,NA,2,0.5,0.5,5,4,99,3,NA
fcp-trial,133,760945,0.0-108.0-0.0,voc_e2,12070,"[{""event"":""fullscreenenter"",""trial"":1,""time"":2136}]",NA,NA,NA,NA,NA,6,#741CD8,#D8271C,0,10,0,40,0,3204.7999999523163,39,0,1294.899999976158,10,1,experiment,NA,NA,1,0.3,0.7,3,2,100,3,NA
fcp-trial,134,764994,0.0-109.0-0.0,voc_e2,12070,"[{""event"":""fullscreenenter"",""trial"":1,""time"":2136}]",NA,NA,NA,NA,NA,5,#FA92F8,#1CD855,10,0,1,40,0,1623.8000000715256,39,0,912.2999999523164,0,0,experiment,NA,NA,0,0.9,0.1,0,1,101,3,NA
fcp-trial,135,769158,0.0-110.0-0.0,voc_e2,12070,"[{""event"":""fullscreenenter"",""trial"":1,""time"":2136}]",NA,NA,NA,NA,NA,1,#D89F1C,#3386FF,10,10,1,38,1,1822.1999999284744,37,1,830.8999999761581,10,1,experiment,NA,NA,2,0.5,0.5,4,5,102,3,NA
fcp-trial,136,774493,0.0-111.0-0.0,voc_e2,12070,"[{""event"":""fullscreenenter"",""trial"":1,""time"":2136}]",NA,NA,NA,NA,NA,2,#D8271C,#741CD8,10,0,1,40,0,3021.9000000953674,39,0,798.6000000238419,0,0,experiment,NA,NA,1,0.7,0.3,2,3,103,3,NA
fcp-trial,137,778973,0.0-112.0-0.0,voc_e2,12070,"[{""event"":""fullscreenenter"",""trial"":1,""time"":2136}]",NA,NA,NA,NA,NA,4,#D8271C,#741CD8,10,0,1,38,1,2288.5999999046326,37,1,674.7000000476837,10,1,experiment,NA,NA,1,0.7,0.3,2,3,104,3,NA
fcp-trial,138,784359,0.0-113.0-0.0,voc_e2,12070,"[{""event"":""fullscreenenter"",""trial"":1,""time"":2136}]",NA,NA,NA,NA,NA,3,#1CD855,#FA92F8,0,10,0,38,1,3430.899999976158,39,0,445.39999997615814,10,1,experiment,NA,NA,0,0.1,0.9,1,0,105,3,NA
audio-instructions,139,789825,0.0-114.0,voc_e2,12070,"[{""event"":""fullscreenenter"",""trial"":1,""time"":2136}]",NA,971,static/audio/pause.wav,NA,0,NA,NA,NA,NA,NA,NA,NA,NA,NA,NA,NA,NA,NA,NA,NA,NA,NA,NA,NA,NA,NA,NA,NA,NA,NA
fcp-trial,140,793953,0.0-115.0-0.0,voc_e2,12070,"[{""event"":""fullscreenenter"",""trial"":1,""time"":2136}]",NA,NA,NA,NA,NA,0,#1CD855,#FA92F8,0,10,0,38,1,1562.6000000238419,39,0,1044.7000000476835,10,1,experiment,NA,NA,0,0.1,0.9,1,0,106,3,NA
fcp-trial,141,799625,0.0-116.0-0.0,voc_e2,12070,"[{""event"":""fullscreenenter"",""trial"":1,""time"":2136}]",NA,NA,NA,NA,NA,4,#FA92F8,#1CD855,10,0,1,40,0,3255,39,0,902.5,0,0,experiment,NA,NA,0,0.9,0.1,0,1,107,3,NA
fcp-trial,142,807530,0.0-117.0-0.0,voc_e2,12070,"[{""event"":""fullscreenenter"",""trial"":1,""time"":2136}]",NA,NA,NA,NA,NA,0,#741CD8,#D8271C,0,10,0,38,1,3974.7999999523163,37,1,2418.8000000715256,0,0,experiment,NA,NA,1,0.3,0.7,3,2,108,3,NA
fcp-trial,143,812862,0.0-118.0-0.0,voc_e2,12070,"[{""event"":""fullscreenenter"",""trial"":1,""time"":2136}]",NA,NA,NA,NA,NA,3,#D8271C,#741CD8,0,10,1,40,0,2450.0999999046326,37,1,1362.600000023842,0,1,experiment,NA,NA,1,0.7,0.3,2,3,109,3,NA
fcp-trial,144,817447,0.0-119.0-0.0,voc_e2,12070,"[{""event"":""fullscreenenter"",""trial"":1,""time"":2136}]",NA,NA,NA,NA,NA,2,#D89F1C,#3386FF,0,0,1,38,1,2694.5999999046326,37,1,373.6999999284744,0,1,experiment,NA,NA,2,0.5,0.5,4,5,110,3,NA
fcp-trial,145,821977,0.0-120.0-0.0,voc_e2,12070,"[{""event"":""fullscreenenter"",""trial"":1,""time"":2136}]",NA,NA,NA,NA,NA,1,#1CD855,#FA92F8,0,10,0,38,1,2273.3000000715256,39,0,737,10,1,experiment,NA,NA,0,0.1,0.9,1,0,111,3,NA
fcp-trial,146,825363,0.0-121.0-0.0,voc_e2,12070,"[{""event"":""fullscreenenter"",""trial"":1,""time"":2136}]",NA,NA,NA,NA,NA,1,#741CD8,#D8271C,0,10,0,40,0,1337.9000000953674,37,1,532.8999999761581,0,0,experiment,NA,NA,1,0.3,0.7,3,2,112,3,NA
fcp-trial,147,828625,0.0-122.0-0.0,voc_e2,12070,"[{""event"":""fullscreenenter"",""trial"":1,""time"":2136}]",NA,NA,NA,NA,NA,1,#3386FF,#D89F1C,10,0,0,40,0,197.59999990463257,37,1,1553.399999976158,10,0,experiment,NA,NA,2,0.5,0.5,5,4,113,3,NA
fcp-trial,148,832575,0.0-123.0-0.0,voc_e2,12070,"[{""event"":""fullscreenenter"",""trial"":1,""time"":2136}]",NA,NA,NA,NA,NA,3,#3386FF,#D89F1C,0,10,0,38,1,926.2000000476837,37,1,1508.600000023842,0,0,experiment,NA,NA,2,0.5,0.5,5,4,114,3,NA
fcp-trial,149,835253,0.0-124.0-0.0,voc_e2,12070,"[{""event"":""fullscreenenter"",""trial"":1,""time"":2136}]",NA,NA,NA,NA,NA,4,#741CD8,#D8271C,0,10,0,40,0,442.89999997615814,37,1,717,0,0,experiment,NA,NA,1,0.3,0.7,3,2,115,3,NA
fcp-trial,150,837782,0.0-125.0-0.0,voc_e2,12070,"[{""event"":""fullscreenenter"",""trial"":1,""time"":2136}]",NA,NA,NA,NA,NA,2,#FA92F8,#1CD855,10,0,1,40,0,335.7000000476837,37,1,680.5999999046326,10,1,experiment,NA,NA,0,0.9,0.1,0,1,116,3,NA
fcp-trial,151,840492,0.0-126.0-0.0,voc_e2,12070,"[{""event"":""fullscreenenter"",""trial"":1,""time"":2136}]",NA,NA,NA,NA,NA,0,#3386FF,#D89F1C,10,10,0,40,0,382.89999997615814,39,0,811.5,10,1,experiment,NA,NA,2,0.5,0.5,5,4,117,3,NA
fcp-trial,152,843189,0.0-127.0-0.0,voc_e2,12070,"[{""event"":""fullscreenenter"",""trial"":1,""time"":2136}]",NA,NA,NA,NA,NA,2,#D8271C,#741CD8,10,0,1,40,0,440.8000000715256,37,1,747.2000000476837,10,1,experiment,NA,NA,1,0.7,0.3,2,3,118,3,NA
fcp-trial,153,845922,0.0-128.0-0.0,voc_e2,12070,"[{""event"":""fullscreenenter"",""trial"":1,""time"":2136}]",NA,NA,NA,NA,NA,4,#3386FF,#D89F1C,0,0,0,40,0,421.5,37,1,801.6999999284744,0,0,experiment,NA,NA,2,0.5,0.5,5,4,119,3,NA
fcp-trial,154,848596,0.0-129.0-0.0,voc_e2,12070,"[{""event"":""fullscreenenter"",""trial"":1,""time"":2136}]",NA,NA,NA,NA,NA,6,#741CD8,#D8271C,0,0,0,40,0,496.2000000476837,37,1,662.2999999523163,0,0,experiment,NA,NA,1,0.3,0.7,3,2,120,3,NA
fcp-trial,155,851928,0.0-130.0-0.0,voc_e2,12070,"[{""event"":""fullscreenenter"",""trial"":1,""time"":2136}]",NA,NA,NA,NA,NA,5,#1CD855,#FA92F8,0,10,0,40,0,595.1000000238419,37,1,1222.5,0,0,experiment,NA,NA,0,0.1,0.9,1,0,121,3,NA
fcp-trial,156,854794,0.0-131.0-0.0,voc_e2,12070,"[{""event"":""fullscreenenter"",""trial"":1,""time"":2136}]",NA,NA,NA,NA,NA,5,#D8271C,#741CD8,0,0,1,40,0,775.7000000476837,39,0,579.8999999761581,0,0,experiment,NA,NA,1,0.7,0.3,2,3,122,3,NA
fcp-trial,157,858012,0.0-132.0-0.0,voc_e2,12070,"[{""event"":""fullscreenenter"",""trial"":1,""time"":2136}]",NA,NA,NA,NA,NA,5,#D89F1C,#3386FF,10,0,1,38,1,1265,39,0,445,0,0,experiment,NA,NA,2,0.5,0.5,4,5,123,3,NA
fcp-trial,158,861477,0.0-133.0-0.0,voc_e2,12070,"[{""event"":""fullscreenenter"",""trial"":1,""time"":2136}]",NA,NA,NA,NA,NA,6,#3386FF,#D89F1C,10,0,0,40,0,1283.5,39,0,669.7999999523163,0,1,experiment,NA,NA,2,0.5,0.5,5,4,124,3,NA
fcp-trial,159,864449,0.0-134.0-0.0,voc_e2,12070,"[{""event"":""fullscreenenter"",""trial"":1,""time"":2136}]",NA,NA,NA,NA,NA,6,#1CD855,#FA92F8,0,10,0,40,0,738.1000000238419,39,0,718.9000000953674,10,1,experiment,NA,NA,0,0.1,0.9,1,0,125,3,NA
fcp-trial,160,868826,0.0-135.0-0.0,voc_e2,12070,"[{""event"":""fullscreenenter"",""trial"":1,""time"":2136}]",NA,NA,NA,NA,NA,3,#FA92F8,#1CD855,10,0,1,38,1,1742.5,37,1,1122.3000000715256,10,1,experiment,NA,NA,0,0.9,0.1,0,1,126,3,NA
fcp-trial,161,872320,0.0-136.0-0.0,voc_e2,12070,"[{""event"":""fullscreenenter"",""trial"":1,""time"":2136}]",NA,NA,NA,NA,NA,5,#741CD8,#D8271C,0,0,0,40,0,1447.5,39,0,532.1999999284744,0,1,experiment,NA,NA,1,0.3,0.7,3,2,127,3,NA
fcp-trial,162,876101,0.0-137.0-0.0,voc_e2,12070,"[{""event"":""fullscreenenter"",""trial"":1,""time"":2136}]",NA,NA,NA,NA,NA,3,#D8271C,#741CD8,10,0,1,40,0,1525.6000000238419,39,0,735.1000000238419,0,0,experiment,NA,NA,1,0.7,0.3,2,3,128,3,NA
fcp-trial,163,881894,0.0-138.0-0.0,voc_e2,12070,"[{""event"":""fullscreenenter"",""trial"":1,""time"":2136}]",NA,NA,NA,NA,NA,4,#FA92F8,#1CD855,10,0,1,40,0,3320.2000000476837,39,0,962.7999999523164,0,0,experiment,NA,NA,0,0.9,0.1,0,1,129,3,NA
fcp-trial,164,885483,0.0-139.0-0.0,voc_e2,12070,"[{""event"":""fullscreenenter"",""trial"":1,""time"":2136}]",NA,NA,NA,NA,NA,0,#FA92F8,#1CD855,10,0,1,38,1,1346.5,39,0,729.7000000476837,0,0,experiment,NA,NA,0,0.9,0.1,0,1,130,3,NA
fcp-trial,165,891586,0.0-140.0-0.0,voc_e2,12070,"[{""event"":""fullscreenenter"",""trial"":1,""time"":2136}]",NA,NA,NA,NA,NA,2,#D8271C,#741CD8,10,0,1,38,1,1566.8999999761581,39,0,3021.8000000715256,0,0,experiment,NA,NA,1,0.7,0.3,2,3,131,3,NA
fcp-trial,166,895719,0.0-141.0-0.0,voc_e2,12070,"[{""event"":""fullscreenenter"",""trial"":1,""time"":2136}]",NA,NA,NA,NA,NA,0,#D8271C,#741CD8,10,0,1,38,1,1823,37,1,796.7000000476837,10,1,experiment,NA,NA,1,0.7,0.3,2,3,132,3,NA
fcp-trial,167,900876,0.0-142.0-0.0,voc_e2,12070,"[{""event"":""fullscreenenter"",""trial"":1,""time"":2136}]",NA,NA,NA,NA,NA,6,#1CD855,#FA92F8,0,10,0,38,1,2982.2999999523163,39,0,659.2999999523163,10,1,experiment,NA,NA,0,0.1,0.9,1,0,133,3,NA
fcp-trial,168,904247,0.0-143.0-0.0,voc_e2,12070,"[{""event"":""fullscreenenter"",""trial"":1,""time"":2136}]",NA,NA,NA,NA,NA,4,#D8271C,#741CD8,10,0,1,38,1,980.1000000238419,37,1,874.6999999284744,10,1,experiment,NA,NA,1,0.7,0.3,2,3,134,3,NA
fcp-trial,169,907093,0.0-144.0-0.0,voc_e2,12070,"[{""event"":""fullscreenenter"",""trial"":1,""time"":2136}]",NA,NA,NA,NA,NA,3,#3386FF,#D89F1C,0,0,0,38,1,637.8000000715256,39,0,699,0,1,experiment,NA,NA,2,0.5,0.5,5,4,135,3,NA
fcp-trial,170,913584,0.0-145.0-0.0,voc_e2,12070,"[{""event"":""fullscreenenter"",""trial"":1,""time"":2136}]",NA,NA,NA,NA,NA,6,#3386FF,#D89F1C,0,10,0,38,1,3916.399999976158,37,1,1062.2999999523165,0,0,experiment,NA,NA,2,0.5,0.5,5,4,136,4,NA
fcp-trial,171,918142,0.0-146.0-0.0,voc_e2,12070,"[{""event"":""fullscreenenter"",""trial"":1,""time"":2136}]",NA,NA,NA,NA,NA,3,#1CD855,#FA92F8,0,0,0,40,0,2416.6999999284744,37,1,628.8999999761581,0,0,experiment,NA,NA,0,0.1,0.9,1,0,137,4,NA
fcp-trial,172,921298,0.0-147.0-0.0,voc_e2,12070,"[{""event"":""fullscreenenter"",""trial"":1,""time"":2136}]",NA,NA,NA,NA,NA,2,#3386FF,#D89F1C,0,0,0,40,0,1114.1999999284744,39,0,530.5,0,1,experiment,NA,NA,2,0.5,0.5,5,4,138,4,NA
fcp-trial,173,926818,0.0-148.0-0.0,voc_e2,12070,"[{""event"":""fullscreenenter"",""trial"":1,""time"":2136}]",NA,NA,NA,NA,NA,1,#741CD8,#D8271C,0,10,0,38,1,3024.5999999046326,37,1,983.2999999523164,0,0,experiment,NA,NA,1,0.3,0.7,3,2,139,4,NA
fcp-trial,174,930469,0.0-149.0-0.0,voc_e2,12070,"[{""event"":""fullscreenenter"",""trial"":1,""time"":2136}]",NA,NA,NA,NA,NA,2,#1CD855,#FA92F8,0,10,0,40,0,1356.5,37,1,779,0,0,experiment,NA,NA,0,0.1,0.9,1,0,140,4,NA
fcp-trial,175,934261,0.0-150.0-0.0,voc_e2,12070,"[{""event"":""fullscreenenter"",""trial"":1,""time"":2136}]",NA,NA,NA,NA,NA,5,#FA92F8,#1CD855,10,0,1,40,0,1649.8999999761581,37,1,627.2000000476837,10,1,experiment,NA,NA,0,0.9,0.1,0,1,141,4,NA
fcp-trial,176,937325,0.0-151.0-0.0,voc_e2,12070,"[{""event"":""fullscreenenter"",""trial"":1,""time"":2136}]",NA,NA,NA,NA,NA,1,#D89F1C,#3386FF,0,10,1,40,0,923.2000000476837,39,0,628.6000000238419,10,0,experiment,NA,NA,2,0.5,0.5,4,5,142,4,NA
fcp-trial,177,940483,0.0-152.0-0.0,voc_e2,12070,"[{""event"":""fullscreenenter"",""trial"":1,""time"":2136}]",NA,NA,NA,NA,NA,6,#741CD8,#D8271C,10,0,0,38,1,1029.8999999761581,39,0,615.8999999761581,0,1,experiment,NA,NA,1,0.3,0.7,3,2,143,4,NA
fcp-trial,178,943966,0.0-153.0-0.0,voc_e2,12070,"[{""event"":""fullscreenenter"",""trial"":1,""time"":2136}]",NA,NA,NA,NA,NA,4,#3386FF,#D89F1C,0,10,0,40,0,1104.6000000238419,39,0,860.2000000476837,10,1,experiment,NA,NA,2,0.5,0.5,5,4,144,4,NA
fcp-trial,179,947268,0.0-154.0-0.0,voc_e2,12070,"[{""event"":""fullscreenenter"",""trial"":1,""time"":2136}]",NA,NA,NA,NA,NA,1,#FA92F8,#1CD855,10,10,1,40,0,1283.9000000953674,37,1,499.2999999523163,10,1,experiment,NA,NA,0,0.9,0.1,0,1,145,4,NA
fcp-trial,180,950548,0.0-155.0-0.0,voc_e2,12070,"[{""event"":""fullscreenenter"",""trial"":1,""time"":2136}]",NA,NA,NA,NA,NA,0,#3386FF,#D89F1C,0,10,0,38,1,1139.5,39,0,628,10,1,experiment,NA,NA,2,0.5,0.5,5,4,146,4,NA
fcp-trial,181,954018,0.0-156.0-0.0,voc_e2,12070,"[{""event"":""fullscreenenter"",""trial"":1,""time"":2136}]",NA,NA,NA,NA,NA,5,#D89F1C,#3386FF,0,0,1,40,0,1450.6000000238419,39,0,511.60000002384186,0,0,experiment,NA,NA,2,0.5,0.5,4,5,147,4,NA
fcp-trial,182,957645,0.0-157.0-0.0,voc_e2,12070,"[{""event"":""fullscreenenter"",""trial"":1,""time"":2136}]",NA,NA,NA,NA,NA,4,#FA92F8,#1CD855,10,0,1,40,0,1432.4000000953674,37,1,677.8999999761581,10,1,experiment,NA,NA,0,0.9,0.1,0,1,148,4,NA
fcp-trial,183,960552,0.0-158.0-0.0,voc_e2,12070,"[{""event"":""fullscreenenter"",""trial"":1,""time"":2136}]",NA,NA,NA,NA,NA,4,#D8271C,#741CD8,0,0,1,40,0,872.6000000238419,39,0,517.4000000953674,0,0,experiment,NA,NA,1,0.7,0.3,2,3,149,4,NA
fcp-trial,184,964045,0.0-159.0-0.0,voc_e2,12070,"[{""event"":""fullscreenenter"",""trial"":1,""time"":2136}]",NA,NA,NA,NA,NA,6,#FA92F8,#1CD855,10,0,1,40,0,1234.5,37,1,736.3999999761581,10,1,experiment,NA,NA,0,0.9,0.1,0,1,150,4,NA
fcp-trial,185,967124,0.0-160.0-0.0,voc_e2,12070,"[{""event"":""fullscreenenter"",""trial"":1,""time"":2136}]",NA,NA,NA,NA,NA,0,#D8271C,#741CD8,0,10,1,40,0,894.7000000476837,39,0,672.1000000238419,10,0,experiment,NA,NA,1,0.7,0.3,2,3,151,4,NA
fcp-trial,186,970353,0.0-161.0-0.0,voc_e2,12070,"[{""event"":""fullscreenenter"",""trial"":1,""time"":2136}]",NA,NA,NA,NA,NA,6,#D89F1C,#3386FF,0,10,1,40,0,1271.3999999761581,37,1,445,0,1,experiment,NA,NA,2,0.5,0.5,4,5,152,4,NA
fcp-trial,187,973815,0.0-162.0-0.0,voc_e2,12070,"[{""event"":""fullscreenenter"",""trial"":1,""time"":2136}]",NA,NA,NA,NA,NA,5,#FA92F8,#1CD855,10,0,1,40,0,829.1000000238419,37,1,1114.399999976158,10,1,experiment,NA,NA,0,0.9,0.1,0,1,153,4,NA
fcp-trial,188,976868,0.0-163.0-0.0,voc_e2,12070,"[{""event"":""fullscreenenter"",""trial"":1,""time"":2136}]",NA,NA,NA,NA,NA,0,#D89F1C,#3386FF,0,0,1,40,0,947.3999999761581,39,0,591.7999999523163,0,0,experiment,NA,NA,2,0.5,0.5,4,5,154,4,NA
fcp-trial,189,980843,0.0-164.0-0.0,voc_e2,12070,"[{""event"":""fullscreenenter"",""trial"":1,""time"":2136}]",NA,NA,NA,NA,NA,3,#D8271C,#741CD8,10,10,1,40,0,1148.1000000238419,37,1,1313.2999999523165,10,1,experiment,NA,NA,1,0.7,0.3,2,3,155,4,NA
fcp-trial,190,984075,0.0-165.0-0.0,voc_e2,12070,"[{""event"":""fullscreenenter"",""trial"":1,""time"":2136}]",NA,NA,NA,NA,NA,3,#D89F1C,#3386FF,10,10,1,40,0,1081,37,1,637,10,1,experiment,NA,NA,2,0.5,0.5,4,5,156,4,NA
fcp-trial,191,986945,0.0-166.0-0.0,voc_e2,12070,"[{""event"":""fullscreenenter"",""trial"":1,""time"":2136}]",NA,NA,NA,NA,NA,3,#FA92F8,#1CD855,0,0,1,40,0,836.3000000715256,39,0,520,0,0,experiment,NA,NA,0,0.9,0.1,0,1,157,4,NA
fcp-trial,192,991193,0.0-167.0-0.0,voc_e2,12070,"[{""event"":""fullscreenenter"",""trial"":1,""time"":2136}]",NA,NA,NA,NA,NA,1,#D8271C,#741CD8,10,10,1,38,1,1187.2999999523163,37,1,1551,10,1,experiment,NA,NA,1,0.7,0.3,2,3,158,4,NA
fcp-trial,193,994278,0.0-168.0-0.0,voc_e2,12070,"[{""event"":""fullscreenenter"",""trial"":1,""time"":2136}]",NA,NA,NA,NA,NA,1,#3386FF,#D89F1C,0,0,0,40,0,1091.7000000476837,37,1,475.7000000476837,0,0,experiment,NA,NA,2,0.5,0.5,5,4,159,4,NA
fcp-trial,194,1000405,0.0-169.0-0.0,voc_e2,12070,"[{""event"":""fullscreenenter"",""trial"":1,""time"":2136}]",NA,NA,NA,NA,NA,0,#FA92F8,#1CD855,10,0,1,38,1,2948.4000000953674,37,1,1667.5,10,1,experiment,NA,NA,0,0.9,0.1,0,1,160,4,NA
fcp-trial,195,1004226,0.0-170.0-0.0,voc_e2,12070,"[{""event"":""fullscreenenter"",""trial"":1,""time"":2136}]",NA,NA,NA,NA,NA,2,#3386FF,#D89F1C,0,10,0,40,0,1537.6999999284744,37,1,772.1000000238419,0,0,experiment,NA,NA,2,0.5,0.5,5,4,161,4,NA
fcp-trial,196,1007828,0.0-171.0-0.0,voc_e2,12070,"[{""event"":""fullscreenenter"",""trial"":1,""time"":2136}]",NA,NA,NA,NA,NA,5,#741CD8,#D8271C,0,0,0,40,0,1128,37,1,960.5,0,0,experiment,NA,NA,1,0.3,0.7,3,2,162,4,NA
fcp-trial,197,1014874,0.0-172.0-0.0,voc_e2,12070,"[{""event"":""fullscreenenter"",""trial"":1,""time"":2136}]",NA,NA,NA,NA,NA,2,#D8271C,#741CD8,10,0,1,38,1,4524.399999976158,39,0,1009,0,0,experiment,NA,NA,1,0.7,0.3,2,3,163,4,NA
fcp-trial,198,1021029,0.0-173.0-0.0,voc_e2,12070,"[{""event"":""fullscreenenter"",""trial"":1,""time"":2136}]",NA,NA,NA,NA,NA,1,#FA92F8,#1CD855,10,0,1,40,0,3928.2999999523163,39,0,716.6000000238419,0,0,experiment,NA,NA,0,0.9,0.1,0,1,164,4,NA
fcp-trial,199,1024894,0.0-174.0-0.0,voc_e2,12070,"[{""event"":""fullscreenenter"",""trial"":1,""time"":2136}]",NA,NA,NA,NA,NA,4,#D89F1C,#3386FF,10,10,1,40,0,1780.7999999523163,39,0,571.2999999523163,10,0,experiment,NA,NA,2,0.5,0.5,4,5,165,4,NA
fcp-trial,200,1028726,0.0-175.0-0.0,voc_e2,12070,"[{""event"":""fullscreenenter"",""trial"":1,""time"":2136}]",NA,NA,NA,NA,NA,2,#FA92F8,#1CD855,10,0,1,40,0,1481.5,37,1,840.7000000476837,10,1,experiment,NA,NA,0,0.9,0.1,0,1,166,4,NA
fcp-trial,201,1031738,0.0-176.0-0.0,voc_e2,12070,"[{""event"":""fullscreenenter"",""trial"":1,""time"":2136}]",NA,NA,NA,NA,NA,6,#D8271C,#741CD8,10,10,1,40,0,928.1000000238419,39,0,568.3999999761581,10,0,experiment,NA,NA,1,0.7,0.3,2,3,167,4,NA
fcp-trial,202,1035058,0.0-177.0-0.0,voc_e2,12070,"[{""event"":""fullscreenenter"",""trial"":1,""time"":2136}]",NA,NA,NA,NA,NA,5,#D89F1C,#3386FF,10,10,1,40,0,1184.3999999761581,39,0,624.1999999284744,10,0,experiment,NA,NA,2,0.5,0.5,4,5,168,4,NA
fcp-trial,203,1038041,0.0-178.0-0.0,voc_e2,12070,"[{""event"":""fullscreenenter"",""trial"":1,""time"":2136}]",NA,NA,NA,NA,NA,5,#D8271C,#741CD8,10,0,1,40,0,743.8000000715256,37,1,725,10,1,experiment,NA,NA,1,0.7,0.3,2,3,169,4,NA
fcp-trial,204,1041528,0.0-179.0-0.0,voc_e2,12070,"[{""event"":""fullscreenenter"",""trial"":1,""time"":2136}]",NA,NA,NA,NA,NA,1,#741CD8,#D8271C,0,0,0,38,1,1274.5,37,1,700.7000000476837,0,0,experiment,NA,NA,1,0.3,0.7,3,2,170,4,NA
fcp-trial,205,1044821,0.0-180.0-0.0,voc_e2,12070,"[{""event"":""fullscreenenter"",""trial"":1,""time"":2136}]",NA,NA,NA,NA,NA,0,#3386FF,#D89F1C,10,10,0,40,0,1066.5,37,1,712.2000000476837,10,0,experiment,NA,NA,2,0.5,0.5,5,4,171,4,NA
fcp-trial,206,1047974,0.0-181.0-0.0,voc_e2,12070,"[{""event"":""fullscreenenter"",""trial"":1,""time"":2136}]",NA,NA,NA,NA,NA,6,#FA92F8,#1CD855,10,0,1,40,0,1117.3999999761581,37,1,519.1000000238419,10,1,experiment,NA,NA,0,0.9,0.1,0,1,172,4,NA
fcp-trial,207,1050919,0.0-182.0-0.0,voc_e2,12070,"[{""event"":""fullscreenenter"",""trial"":1,""time"":2136}]",NA,NA,NA,NA,NA,4,#3386FF,#D89F1C,10,0,0,40,0,813.8000000715256,39,0,615.1000000238419,0,1,experiment,NA,NA,2,0.5,0.5,5,4,173,4,NA
fcp-trial,208,1053824,0.0-183.0-0.0,voc_e2,12070,"[{""event"":""fullscreenenter"",""trial"":1,""time"":2136}]",NA,NA,NA,NA,NA,6,#741CD8,#D8271C,0,10,0,40,0,798.5,39,0,593,10,1,experiment,NA,NA,1,0.3,0.7,3,2,174,4,NA
fcp-trial,209,1056726,0.0-184.0-0.0,voc_e2,12070,"[{""event"":""fullscreenenter"",""trial"":1,""time"":2136}]",NA,NA,NA,NA,NA,3,#3386FF,#D89F1C,10,10,0,40,0,827,37,1,559.9000000953674,10,0,experiment,NA,NA,2,0.5,0.5,5,4,175,4,NA
fcp-trial,210,1059559,0.0-185.0-0.0,voc_e2,12070,"[{""event"":""fullscreenenter"",""trial"":1,""time"":2136}]",NA,NA,NA,NA,NA,2,#FA92F8,#1CD855,10,0,1,40,0,824.3999999761581,39,0,499.90000009536743,0,0,experiment,NA,NA,0,0.9,0.1,0,1,176,4,NA
fcp-trial,211,1063303,0.0-186.0-0.0,voc_e2,12070,"[{""event"":""fullscreenenter"",""trial"":1,""time"":2136}]",NA,NA,NA,NA,NA,1,#D89F1C,#3386FF,10,10,1,40,0,1443.6000000238419,37,1,785.6000000238419,10,1,experiment,NA,NA,2,0.5,0.5,4,5,177,4,NA
fcp-trial,212,1066954,0.0-187.0-0.0,voc_e2,12070,"[{""event"":""fullscreenenter"",""trial"":1,""time"":2136}]",NA,NA,NA,NA,NA,2,#741CD8,#D8271C,0,10,0,40,0,1482,37,1,653.5,0,0,experiment,NA,NA,1,0.3,0.7,3,2,178,4,NA
fcp-trial,213,1070070,0.0-188.0-0.0,voc_e2,12070,"[{""event"":""fullscreenenter"",""trial"":1,""time"":2136}]",NA,NA,NA,NA,NA,4,#1CD855,#FA92F8,0,10,0,40,0,974.7000000476837,39,0,626.6999999284744,10,1,experiment,NA,NA,0,0.1,0.9,1,0,179,4,NA
fcp-trial,214,1073328,0.0-189.0-0.0,voc_e2,12070,"[{""event"":""fullscreenenter"",""trial"":1,""time"":2136}]",NA,NA,NA,NA,NA,5,#1CD855,#FA92F8,10,0,0,40,0,1087.1000000238419,39,0,660.6999999284744,0,1,experiment,NA,NA,0,0.1,0.9,1,0,180,4,NA
fcp-trial,215,1076657,0.0-190.0-0.0,voc_e2,12070,"[{""event"":""fullscreenenter"",""trial"":1,""time"":2136}]",NA,NA,NA,NA,NA,6,#3386FF,#D89F1C,0,0,0,40,0,1256.0999999046326,39,0,560.1000000238419,0,1,experiment,NA,NA,2,0.5,0.5,5,4,181,5,NA
fcp-trial,216,1079527,0.0-191.0-0.0,voc_e2,12070,"[{""event"":""fullscreenenter"",""trial"":1,""time"":2136}]",NA,NA,NA,NA,NA,3,#741CD8,#D8271C,0,10,0,40,0,731.3999999761581,37,1,631.8999999761581,0,0,experiment,NA,NA,1,0.3,0.7,3,2,182,5,NA
fcp-trial,217,1083149,0.0-192.0-0.0,voc_e2,12070,"[{""event"":""fullscreenenter"",""trial"":1,""time"":2136}]",NA,NA,NA,NA,NA,3,#FA92F8,#1CD855,10,0,1,40,0,790.7999999523163,37,1,1319,10,1,experiment,NA,NA,0,0.9,0.1,0,1,183,5,NA
fcp-trial,218,1086470,0.0-193.0-0.0,voc_e2,12070,"[{""event"":""fullscreenenter"",""trial"":1,""time"":2136}]",NA,NA,NA,NA,NA,4,#741CD8,#D8271C,10,10,0,40,0,1073.3999999761581,37,1,729.5,10,0,experiment,NA,NA,1,0.3,0.7,3,2,184,5,NA
fcp-trial,219,1089240,0.0-194.0-0.0,voc_e2,12070,"[{""event"":""fullscreenenter"",""trial"":1,""time"":2136}]",NA,NA,NA,NA,NA,5,#D89F1C,#3386FF,10,0,1,40,0,147.70000004768372,37,1,1103.8000000715256,10,1,experiment,NA,NA,2,0.5,0.5,4,5,185,5,NA
fcp-trial,220,1093917,0.0-195.0-0.0,voc_e2,12070,"[{""event"":""fullscreenenter"",""trial"":1,""time"":2136}]",NA,NA,NA,NA,NA,0,#FA92F8,#1CD855,10,0,1,38,1,2003.2999999523163,37,1,1157.5999999046326,10,1,experiment,NA,NA,0,0.9,0.1,0,1,186,5,NA
fcp-trial,221,1099716,0.0-196.0-0.0,voc_e2,12070,"[{""event"":""fullscreenenter"",""trial"":1,""time"":2136}]",NA,NA,NA,NA,NA,0,#741CD8,#D8271C,0,10,0,38,1,2630.399999976158,37,1,1650.7999999523165,0,0,experiment,NA,NA,1,0.3,0.7,3,2,187,5,NA
fcp-trial,222,1103013,0.0-197.0-0.0,voc_e2,12070,"[{""event"":""fullscreenenter"",""trial"":1,""time"":2136}]",NA,NA,NA,NA,NA,2,#D89F1C,#3386FF,10,0,1,40,0,1138,39,0,640.2000000476837,0,0,experiment,NA,NA,2,0.5,0.5,4,5,188,5,NA
fcp-trial,223,1106940,0.0-198.0-0.0,voc_e2,12070,"[{""event"":""fullscreenenter"",""trial"":1,""time"":2136}]",NA,NA,NA,NA,NA,1,#1CD855,#FA92F8,0,10,0,38,1,1523.7000000476837,39,0,889.1000000238419,10,1,experiment,NA,NA,0,0.1,0.9,1,0,189,5,NA
fcp-trial,224,1110570,0.0-199.0-0.0,voc_e2,12070,"[{""event"":""fullscreenenter"",""trial"":1,""time"":2136}]",NA,NA,NA,NA,NA,3,#D8271C,#741CD8,0,10,1,40,0,1520.1999999284744,39,0,601.1000000238419,10,0,experiment,NA,NA,1,0.7,0.3,2,3,190,5,NA
fcp-trial,225,1114161,0.0-200.0-0.0,voc_e2,12070,"[{""event"":""fullscreenenter"",""trial"":1,""time"":2136}]",NA,NA,NA,NA,NA,1,#3386FF,#D89F1C,0,0,0,40,0,1648.5,39,0,432.7999999523163,0,1,experiment,NA,NA,2,0.5,0.5,5,4,191,5,NA
fcp-trial,226,1117665,0.0-201.0-0.0,voc_e2,12070,"[{""event"":""fullscreenenter"",""trial"":1,""time"":2136}]",NA,NA,NA,NA,NA,2,#D8271C,#741CD8,0,0,1,38,1,1054.2999999523163,37,1,939.600000023842,0,1,experiment,NA,NA,1,0.7,0.3,2,3,192,5,NA
fcp-trial,227,1121123,0.0-202.0-0.0,voc_e2,12070,"[{""event"":""fullscreenenter"",""trial"":1,""time"":2136}]",NA,NA,NA,NA,NA,6,#FA92F8,#1CD855,10,0,1,40,0,1190.5999999046326,37,1,755.1999999284744,10,1,experiment,NA,NA,0,0.9,0.1,0,1,193,5,NA
fcp-trial,228,1124613,0.0-203.0-0.0,voc_e2,12070,"[{""event"":""fullscreenenter"",""trial"":1,""time"":2136}]",NA,NA,NA,NA,NA,1,#FA92F8,#1CD855,10,10,1,38,1,1447,37,1,529.6000000238419,10,1,experiment,NA,NA,0,0.9,0.1,0,1,194,5,NA
fcp-trial,229,1128228,0.0-204.0-0.0,voc_e2,12070,"[{""event"":""fullscreenenter"",""trial"":1,""time"":2136}]",NA,NA,NA,NA,NA,0,#1CD855,#FA92F8,0,10,0,38,1,1472.2000000476837,39,0,628.9000000953674,10,1,experiment,NA,NA,0,0.1,0.9,1,0,195,5,NA
fcp-trial,230,1132121,0.0-205.0-0.0,voc_e2,12070,"[{""event"":""fullscreenenter"",""trial"":1,""time"":2136}]",NA,NA,NA,NA,NA,4,#D89F1C,#3386FF,0,10,1,40,0,1696.8000000715256,37,1,681,0,1,experiment,NA,NA,2,0.5,0.5,4,5,196,5,NA
fcp-trial,231,1136368,0.0-206.0-0.0,voc_e2,12070,"[{""event"":""fullscreenenter"",""trial"":1,""time"":2136}]",NA,NA,NA,NA,NA,6,#741CD8,#D8271C,10,10,0,40,0,1530.2000000476837,37,1,1199.7999999523165,10,0,experiment,NA,NA,1,0.3,0.7,3,2,197,5,NA
fcp-trial,232,1140323,0.0-207.0-0.0,voc_e2,12070,"[{""event"":""fullscreenenter"",""trial"":1,""time"":2136}]",NA,NA,NA,NA,NA,2,#3386FF,#D89F1C,10,10,0,38,1,1757.5,39,0,686.1000000238419,10,1,experiment,NA,NA,2,0.5,0.5,5,4,198,5,NA
fcp-trial,233,1143941,0.0-208.0-0.0,voc_e2,12070,"[{""event"":""fullscreenenter"",""trial"":1,""time"":2136}]",NA,NA,NA,NA,NA,0,#D89F1C,#3386FF,0,0,1,38,1,1748.6000000238419,37,1,356.60000002384186,0,1,experiment,NA,NA,2,0.5,0.5,4,5,199,5,NA
fcp-trial,234,1147975,0.0-209.0-0.0,voc_e2,12070,"[{""event"":""fullscreenenter"",""trial"":1,""time"":2136}]",NA,NA,NA,NA,NA,3,#FA92F8,#1CD855,10,0,1,40,0,1379.3999999761581,37,1,1140.2000000476835,10,1,experiment,NA,NA,0,0.9,0.1,0,1,200,5,NA
fcp-trial,235,1151159,0.0-210.0-0.0,voc_e2,12070,"[{""event"":""fullscreenenter"",""trial"":1,""time"":2136}]",NA,NA,NA,NA,NA,4,#741CD8,#D8271C,0,0,0,40,0,876.3000000715256,39,0,794.5,0,1,experiment,NA,NA,1,0.3,0.7,3,2,201,5,NA
fcp-trial,236,1156133,0.0-211.0-0.0,voc_e2,12070,"[{""event"":""fullscreenenter"",""trial"":1,""time"":2136}]",NA,NA,NA,NA,NA,5,#D89F1C,#3386FF,10,10,1,40,0,2192.7000000476837,39,0,1264.899999976158,10,0,experiment,NA,NA,2,0.5,0.5,4,5,202,5,NA
fcp-trial,237,1159566,0.0-212.0-0.0,voc_e2,12070,"[{""event"":""fullscreenenter"",""trial"":1,""time"":2136}]",NA,NA,NA,NA,NA,0,#D8271C,#741CD8,0,0,1,38,1,1568.5,37,1,352.90000009536743,0,1,experiment,NA,NA,1,0.7,0.3,2,3,203,5,NA
fcp-trial,238,1162999,0.0-213.0-0.0,voc_e2,12070,"[{""event"":""fullscreenenter"",""trial"":1,""time"":2136}]",NA,NA,NA,NA,NA,1,#D8271C,#741CD8,10,0,1,38,1,1141.3999999761581,39,0,781.3999999761581,0,0,experiment,NA,NA,1,0.7,0.3,2,3,204,5,NA
fcp-trial,239,1166160,0.0-214.0-0.0,voc_e2,12070,"[{""event"":""fullscreenenter"",""trial"":1,""time"":2136}]",NA,NA,NA,NA,NA,2,#1CD855,#FA92F8,0,10,0,38,1,908.2000000476837,37,1,742.2000000476837,0,0,experiment,NA,NA,0,0.1,0.9,1,0,205,5,NA
fcp-trial,240,1168571,0.0-215.0-0.0,voc_e2,12070,"[{""event"":""fullscreenenter"",""trial"":1,""time"":2136}]",NA,NA,NA,NA,NA,5,#1CD855,#FA92F8,0,10,0,38,1,355,39,0,544.1000000238419,10,1,experiment,NA,NA,0,0.1,0.9,1,0,206,5,NA
fcp-trial,241,1171492,0.0-216.0-0.0,voc_e2,12070,"[{""event"":""fullscreenenter"",""trial"":1,""time"":2136}]",NA,NA,NA,NA,NA,3,#D89F1C,#3386FF,10,10,1,38,1,698.8000000715256,37,1,711.1000000238419,10,1,experiment,NA,NA,2,0.5,0.5,4,5,207,5,NA
fcp-trial,242,1174809,0.0-217.0-0.0,voc_e2,12070,"[{""event"":""fullscreenenter"",""trial"":1,""time"":2136}]",NA,NA,NA,NA,NA,5,#D8271C,#741CD8,10,10,1,40,0,1170.8999999761581,37,1,635.1999999284744,10,1,experiment,NA,NA,1,0.7,0.3,2,3,208,5,NA
fcp-trial,243,1178542,0.0-218.0-0.0,voc_e2,12070,"[{""event"":""fullscreenenter"",""trial"":1,""time"":2136}]",NA,NA,NA,NA,NA,6,#3386FF,#D89F1C,0,0,0,40,0,1742.2000000476837,39,0,477.7000000476837,0,1,experiment,NA,NA,2,0.5,0.5,5,4,209,5,NA
fcp-trial,244,1181570,0.0-219.0-0.0,voc_e2,12070,"[{""event"":""fullscreenenter"",""trial"":1,""time"":2136}]",NA,NA,NA,NA,NA,4,#1CD855,#FA92F8,0,10,0,40,0,901.1000000238419,39,0,620.6000000238419,10,1,experiment,NA,NA,0,0.1,0.9,1,0,210,5,NA
audio-instructions,245,1187939,0.0-220.0,voc_e2,12070,"[{""event"":""fullscreenenter"",""trial"":1,""time"":2136}]",NA,1891.100000023842,static/audio/pause.wav,NA,0,NA,NA,NA,NA,NA,NA,NA,NA,NA,NA,NA,NA,NA,NA,NA,NA,NA,NA,NA,NA,NA,NA,NA,NA,NA
fcp-trial,246,1191694,0.0-221.0-0.0,voc_e2,12070,"[{""event"":""fullscreenenter"",""trial"":1,""time"":2136}]",NA,NA,NA,NA,NA,2,#D89F1C,#3386FF,10,10,1,40,0,1623.6000000238419,39,0,616.5,10,0,experiment,NA,NA,2,0.5,0.5,4,5,211,5,NA
fcp-trial,247,1194539,0.0-222.0-0.0,voc_e2,12070,"[{""event"":""fullscreenenter"",""trial"":1,""time"":2136}]",NA,NA,NA,NA,NA,6,#3386FF,#D89F1C,10,10,0,40,0,852.0999999046326,39,0,477.60000002384186,10,1,experiment,NA,NA,2,0.5,0.5,5,4,212,5,NA
fcp-trial,248,1197558,0.0-223.0-0.0,voc_e2,12070,"[{""event"":""fullscreenenter"",""trial"":1,""time"":2136}]",NA,NA,NA,NA,NA,3,#D89F1C,#3386FF,10,0,1,40,0,897.6000000238419,37,1,614,10,1,experiment,NA,NA,2,0.5,0.5,4,5,213,5,NA
fcp-trial,249,1200236,0.0-224.0-0.0,voc_e2,12070,"[{""event"":""fullscreenenter"",""trial"":1,""time"":2136}]",NA,NA,NA,NA,NA,4,#D8271C,#741CD8,0,0,1,40,0,663.2000000476837,39,0,499.39999997615814,0,0,experiment,NA,NA,1,0.7,0.3,2,3,214,5,NA
fcp-trial,250,1203162,0.0-225.0-0.0,voc_e2,12070,"[{""event"":""fullscreenenter"",""trial"":1,""time"":2136}]",NA,NA,NA,NA,NA,3,#FA92F8,#1CD855,10,0,1,40,0,863.7000000476837,39,0,551.0999999046326,0,0,experiment,NA,NA,0,0.9,0.1,0,1,215,5,NA
fcp-trial,251,1206426,0.0-226.0-0.0,voc_e2,12070,"[{""event"":""fullscreenenter"",""trial"":1,""time"":2136}]",NA,NA,NA,NA,NA,0,#FA92F8,#1CD855,10,0,1,38,1,1058.5,37,1,692.5,10,1,experiment,NA,NA,0,0.9,0.1,0,1,216,5,NA
fcp-trial,252,1209764,0.0-227.0-0.0,voc_e2,12070,"[{""event"":""fullscreenenter"",""trial"":1,""time"":2136}]",NA,NA,NA,NA,NA,2,#FA92F8,#1CD855,10,0,1,38,1,1099.7999999523163,37,1,726.5,10,1,experiment,NA,NA,0,0.9,0.1,0,1,217,5,NA
fcp-trial,253,1212652,0.0-228.0-0.0,voc_e2,12070,"[{""event"":""fullscreenenter"",""trial"":1,""time"":2136}]",NA,NA,NA,NA,NA,4,#3386FF,#D89F1C,10,10,0,40,0,787.5,37,1,585.5,10,0,experiment,NA,NA,2,0.5,0.5,5,4,218,5,NA
fcp-trial,254,1216525,0.0-229.0-0.0,voc_e2,12070,"[{""event"":""fullscreenenter"",""trial"":1,""time"":2136}]",NA,NA,NA,NA,NA,0,#741CD8,#D8271C,0,0,0,38,1,1865.1999999284744,39,0,498,0,1,experiment,NA,NA,1,0.3,0.7,3,2,219,5,NA
fcp-trial,255,1219694,0.0-230.0-0.0,voc_e2,12070,"[{""event"":""fullscreenenter"",""trial"":1,""time"":2136}]",NA,NA,NA,NA,NA,5,#D89F1C,#3386FF,10,0,1,40,0,1214.6999999284744,37,1,443.2999999523163,10,1,experiment,NA,NA,2,0.5,0.5,4,5,220,5,NA
fcp-trial,256,1222481,0.0-231.0-0.0,voc_e2,12070,"[{""event"":""fullscreenenter"",""trial"":1,""time"":2136}]",NA,NA,NA,NA,NA,5,#FA92F8,#1CD855,10,0,1,40,0,765.7999999523163,39,0,504.2999999523163,0,0,experiment,NA,NA,0,0.9,0.1,0,1,221,5,NA
fcp-trial,257,1225262,0.0-232.0-0.0,voc_e2,12070,"[{""event"":""fullscreenenter"",""trial"":1,""time"":2136}]",NA,NA,NA,NA,NA,5,#D8271C,#741CD8,10,0,1,40,0,747.5,39,0,518.2000000476837,0,0,experiment,NA,NA,1,0.7,0.3,2,3,222,5,NA
fcp-trial,258,1228996,0.0-233.0-0.0,voc_e2,12070,"[{""event"":""fullscreenenter"",""trial"":1,""time"":2136}]",NA,NA,NA,NA,NA,2,#D8271C,#741CD8,10,0,1,38,1,1580.5,37,1,645.2999999523163,10,1,experiment,NA,NA,1,0.7,0.3,2,3,223,5,NA
fcp-trial,259,1232561,0.0-234.0-0.0,voc_e2,12070,"[{""event"":""fullscreenenter"",""trial"":1,""time"":2136}]",NA,NA,NA,NA,NA,3,#741CD8,#D8271C,0,10,0,38,1,1420.0999999046326,39,0,632.2000000476837,10,1,experiment,NA,NA,1,0.3,0.7,3,2,224,5,NA
fcp-trial,260,1235654,0.0-235.0-0.0,voc_e2,12070,"[{""event"":""fullscreenenter"",""trial"":1,""time"":2136}]",NA,NA,NA,NA,NA,0,#D89F1C,#3386FF,0,10,1,38,1,1029.8999999761581,37,1,553.8000000715256,0,1,experiment,NA,NA,2,0.5,0.5,4,5,225,5,NA
fcp-trial,261,1239697,0.0-236.0-0.0,voc_e2,12070,"[{""event"":""fullscreenenter"",""trial"":1,""time"":2136}]",NA,NA,NA,NA,NA,6,#1CD855,#FA92F8,0,10,0,40,0,1553.5999999046326,37,1,977,0,0,experiment,NA,NA,0,0.1,0.9,1,0,226,6,NA
fcp-trial,262,1242665,0.0-237.0-0.0,voc_e2,12070,"[{""event"":""fullscreenenter"",""trial"":1,""time"":2136}]",NA,NA,NA,NA,NA,6,#D8271C,#741CD8,10,10,1,40,0,901,37,1,555.2999999523163,10,1,experiment,NA,NA,1,0.7,0.3,2,3,227,6,NA
fcp-trial,263,1245853,0.0-238.0-0.0,voc_e2,12070,"[{""event"":""fullscreenenter"",""trial"":1,""time"":2136}]",NA,NA,NA,NA,NA,1,#3386FF,#D89F1C,0,10,0,38,1,1032.3999999761581,39,0,642.1999999284744,10,1,experiment,NA,NA,2,0.5,0.5,5,4,228,6,NA
fcp-trial,264,1249323,0.0-239.0-0.0,voc_e2,12070,"[{""event"":""fullscreenenter"",""trial"":1,""time"":2136}]",NA,NA,NA,NA,NA,4,#FA92F8,#1CD855,10,0,1,40,0,1439.8000000715256,37,1,518.8000000715256,10,1,experiment,NA,NA,0,0.9,0.1,0,1,229,6,NA
fcp-trial,265,1252924,0.0-240.0-0.0,voc_e2,12070,"[{""event"":""fullscreenenter"",""trial"":1,""time"":2136}]",NA,NA,NA,NA,NA,1,#D8271C,#741CD8,10,0,1,38,1,1491,37,1,595.2000000476837,10,1,experiment,NA,NA,1,0.7,0.3,2,3,230,6,NA
fcp-trial,266,1256298,0.0-241.0-0.0,voc_e2,12070,"[{""event"":""fullscreenenter"",""trial"":1,""time"":2136}]",NA,NA,NA,NA,NA,1,#1CD855,#FA92F8,0,10,0,38,1,1206.8999999761581,37,1,654.1000000238419,0,0,experiment,NA,NA,0,0.1,0.9,1,0,231,6,NA
fcp-trial,267,1259166,0.0-242.0-0.0,voc_e2,12070,"[{""event"":""fullscreenenter"",""trial"":1,""time"":2136}]",NA,NA,NA,NA,NA,2,#D89F1C,#3386FF,10,10,1,38,1,836.3000000715256,37,1,517.7999999523163,10,1,experiment,NA,NA,2,0.5,0.5,4,5,232,6,NA
fcp-trial,268,1262441,0.0-243.0-0.0,voc_e2,12070,"[{""event"":""fullscreenenter"",""trial"":1,""time"":2136}]",NA,NA,NA,NA,NA,6,#3386FF,#D89F1C,0,0,0,40,0,1223.8999999761581,39,0,541.1999999284744,0,1,experiment,NA,NA,2,0.5,0.5,5,4,233,6,NA
fcp-trial,269,1265988,0.0-244.0-0.0,voc_e2,12070,"[{""event"":""fullscreenenter"",""trial"":1,""time"":2136}]",NA,NA,NA,NA,NA,2,#1CD855,#FA92F8,0,10,0,38,1,1379.8999999761581,37,1,658.6999999284744,0,0,experiment,NA,NA,0,0.1,0.9,1,0,234,6,NA
fcp-trial,270,1269069,0.0-245.0-0.0,voc_e2,12070,"[{""event"":""fullscreenenter"",""trial"":1,""time"":2136}]",NA,NA,NA,NA,NA,3,#3386FF,#D89F1C,10,10,0,40,0,984.3999999761581,37,1,579.3999999761581,10,0,experiment,NA,NA,2,0.5,0.5,5,4,235,6,NA
fcp-trial,271,1272229,0.0-246.0-0.0,voc_e2,12070,"[{""event"":""fullscreenenter"",""trial"":1,""time"":2136}]",NA,NA,NA,NA,NA,6,#741CD8,#D8271C,0,10,0,40,0,1118.5,39,0,528.2000000476837,10,1,experiment,NA,NA,1,0.3,0.7,3,2,236,6,NA
fcp-trial,272,1275784,0.0-247.0-0.0,voc_e2,12070,"[{""event"":""fullscreenenter"",""trial"":1,""time"":2136}]",NA,NA,NA,NA,NA,0,#1CD855,#FA92F8,0,0,0,38,1,839.2000000476837,39,0,1206.1999999284744,0,1,experiment,NA,NA,0,0.1,0.9,1,0,237,6,NA
fcp-trial,273,1278883,0.0-248.0-0.0,voc_e2,12070,"[{""event"":""fullscreenenter"",""trial"":1,""time"":2136}]",NA,NA,NA,NA,NA,4,#D8271C,#741CD8,0,10,1,40,0,1072.0999999046326,37,1,506.7000000476837,0,1,experiment,NA,NA,1,0.7,0.3,2,3,238,6,NA
fcp-trial,274,1282280,0.0-249.0-0.0,voc_e2,12070,"[{""event"":""fullscreenenter"",""trial"":1,""time"":2136}]",NA,NA,NA,NA,NA,0,#741CD8,#D8271C,0,0,0,38,1,1204.3999999761581,39,0,678.6000000238419,0,1,experiment,NA,NA,1,0.3,0.7,3,2,239,6,NA
fcp-trial,275,1285251,0.0-250.0-0.0,voc_e2,12070,"[{""event"":""fullscreenenter"",""trial"":1,""time"":2136}]",NA,NA,NA,NA,NA,5,#3386FF,#D89F1C,0,10,0,40,0,865.0999999046326,39,0,592.9000000953674,10,1,experiment,NA,NA,2,0.5,0.5,5,4,240,6,NA
fcp-trial,276,1288217,0.0-251.0-0.0,voc_e2,12070,"[{""event"":""fullscreenenter"",""trial"":1,""time"":2136}]",NA,NA,NA,NA,NA,3,#1CD855,#FA92F8,0,10,0,40,0,945.1000000238419,39,0,504.10000002384186,10,1,experiment,NA,NA,0,0.1,0.9,1,0,241,6,NA
fcp-trial,277,1291137,0.0-252.0-0.0,voc_e2,12070,"[{""event"":""fullscreenenter"",""trial"":1,""time"":2136}]",NA,NA,NA,NA,NA,5,#D8271C,#741CD8,10,0,1,40,0,800.2000000476837,37,1,606.4000000953674,10,1,experiment,NA,NA,1,0.7,0.3,2,3,242,6,NA
fcp-trial,278,1294217,0.0-253.0-0.0,voc_e2,12070,"[{""event"":""fullscreenenter"",""trial"":1,""time"":2136}]",NA,NA,NA,NA,NA,6,#1CD855,#FA92F8,0,10,0,40,0,814.3999999761581,37,1,741,0,0,experiment,NA,NA,0,0.1,0.9,1,0,243,6,NA
fcp-trial,279,1297532,0.0-254.0-0.0,voc_e2,12070,"[{""event"":""fullscreenenter"",""trial"":1,""time"":2136}]",NA,NA,NA,NA,NA,4,#3386FF,#D89F1C,10,0,0,40,0,1104.2999999523163,39,0,693.6000000238419,0,1,experiment,NA,NA,2,0.5,0.5,5,4,244,6,NA
fcp-trial,280,1303420,0.0-255.0-0.0,voc_e2,12070,"[{""event"":""fullscreenenter"",""trial"":1,""time"":2136}]",NA,NA,NA,NA,NA,1,#FA92F8,#1CD855,10,0,1,38,1,3070.899999976158,37,1,1299.899999976158,10,1,experiment,NA,NA,0,0.9,0.1,0,1,245,6,NA
fcp-trial,281,1306695,0.0-256.0-0.0,voc_e2,12070,"[{""event"":""fullscreenenter"",""trial"":1,""time"":2136}]",NA,NA,NA,NA,NA,3,#D8271C,#741CD8,0,0,1,38,1,1071.7999999523163,37,1,688.6000000238419,0,1,experiment,NA,NA,1,0.7,0.3,2,3,246,6,NA
fcp-trial,282,1310132,0.0-257.0-0.0,voc_e2,12070,"[{""event"":""fullscreenenter"",""trial"":1,""time"":2136}]",NA,NA,NA,NA,NA,1,#741CD8,#D8271C,10,10,0,38,1,1171.8000000715256,39,0,754,10,1,experiment,NA,NA,1,0.3,0.7,3,2,247,6,NA
fcp-trial,283,1313172,0.0-258.0-0.0,voc_e2,12070,"[{""event"":""fullscreenenter"",""trial"":1,""time"":2136}]",NA,NA,NA,NA,NA,2,#741CD8,#D8271C,0,0,0,38,1,931.8000000715256,39,0,596.3000000715256,0,1,experiment,NA,NA,1,0.3,0.7,3,2,248,6,NA
fcp-trial,284,1316383,0.0-259.0-0.0,voc_e2,12070,"[{""event"":""fullscreenenter"",""trial"":1,""time"":2136}]",NA,NA,NA,NA,NA,1,#D89F1C,#3386FF,0,0,1,38,1,1180.8000000715256,37,1,520,0,1,experiment,NA,NA,2,0.5,0.5,4,5,249,6,NA
fcp-trial,285,1319483,0.0-260.0-0.0,voc_e2,12070,"[{""event"":""fullscreenenter"",""trial"":1,""time"":2136}]",NA,NA,NA,NA,NA,4,#FA92F8,#1CD855,10,0,1,40,0,1054.8999999761581,37,1,527.8000000715256,10,1,experiment,NA,NA,0,0.9,0.1,0,1,250,6,NA
fcp-trial,286,1322361,0.0-261.0-0.0,voc_e2,12070,"[{""event"":""fullscreenenter"",""trial"":1,""time"":2136}]",NA,NA,NA,NA,NA,5,#1CD855,#FA92F8,0,10,0,40,0,871,39,0,496.60000002384186,10,1,experiment,NA,NA,0,0.1,0.9,1,0,251,6,NA
fcp-trial,287,1326039,0.0-262.0-0.0,voc_e2,12070,"[{""event"":""fullscreenenter"",""trial"":1,""time"":2136}]",NA,NA,NA,NA,NA,0,#D89F1C,#3386FF,0,0,1,38,1,1659,37,1,504.5,0,1,experiment,NA,NA,2,0.5,0.5,4,5,252,6,NA
fcp-trial,288,1330327,0.0-263.0-0.0,voc_e2,12070,"[{""event"":""fullscreenenter"",""trial"":1,""time"":2136}]",NA,NA,NA,NA,NA,4,#D8271C,#741CD8,10,10,1,40,0,2279,37,1,497.2999999523163,10,1,experiment,NA,NA,1,0.7,0.3,2,3,253,6,NA
fcp-trial,289,1333560,0.0-264.0-0.0,voc_e2,12070,"[{""event"":""fullscreenenter"",""trial"":1,""time"":2136}]",NA,NA,NA,NA,NA,1,#1CD855,#FA92F8,0,10,0,38,1,1061.7999999523163,39,0,663.6999999284744,10,1,experiment,NA,NA,0,0.1,0.9,1,0,254,6,NA
fcp-trial,290,1336955,0.0-265.0-0.0,voc_e2,12070,"[{""event"":""fullscreenenter"",""trial"":1,""time"":2136}]",NA,NA,NA,NA,NA,2,#1CD855,#FA92F8,0,10,0,38,1,1159.6000000238419,37,1,727.8999999761581,0,0,experiment,NA,NA,0,0.1,0.9,1,0,255,6,NA
fcp-trial,291,1339911,0.0-266.0-0.0,voc_e2,12070,"[{""event"":""fullscreenenter"",""trial"":1,""time"":2136}]",NA,NA,NA,NA,NA,0,#FA92F8,#1CD855,10,0,1,38,1,1002.7999999523163,39,0,446.39999997615814,0,0,experiment,NA,NA,0,0.9,0.1,0,1,256,6,NA
fcp-trial,292,1344009,0.0-267.0-0.0,voc_e2,12070,"[{""event"":""fullscreenenter"",""trial"":1,""time"":2136}]",NA,NA,NA,NA,NA,2,#3386FF,#D89F1C,0,10,0,38,1,1813.1000000238419,39,0,780.2999999523163,10,1,experiment,NA,NA,2,0.5,0.5,5,4,257,6,NA
fcp-trial,293,1348394,0.0-268.0-0.0,voc_e2,12070,"[{""event"":""fullscreenenter"",""trial"":1,""time"":2136}]",NA,NA,NA,NA,NA,3,#741CD8,#D8271C,0,10,0,38,1,2199.2999999523163,39,0,673.7000000476837,10,1,experiment,NA,NA,1,0.3,0.7,3,2,258,6,NA
fcp-trial,294,1352256,0.0-269.0-0.0,voc_e2,12070,"[{""event"":""fullscreenenter"",""trial"":1,""time"":2136}]",NA,NA,NA,NA,NA,6,#1CD855,#FA92F8,10,10,0,40,0,1625.3999999761581,37,1,727.3999999761581,10,0,experiment,NA,NA,0,0.1,0.9,1,0,259,6,NA
fcp-trial,295,1356120,0.0-270.0-0.0,voc_e2,12070,"[{""event"":""fullscreenenter"",""trial"":1,""time"":2136}]",NA,NA,NA,NA,NA,4,#D89F1C,#3386FF,0,0,1,40,0,1664.1999999284744,37,1,688.2000000476837,0,1,experiment,NA,NA,2,0.5,0.5,4,5,260,6,NA
fcp-trial,296,1359753,0.0-271.0-0.0,voc_e2,12070,"[{""event"":""fullscreenenter"",""trial"":1,""time"":2136}]",NA,NA,NA,NA,NA,0,#3386FF,#D89F1C,0,10,0,38,1,1271.7000000476837,39,0,844.8999999761581,10,1,experiment,NA,NA,2,0.5,0.5,5,4,261,6,NA
fcp-trial,297,1363340,0.0-272.0-0.0,voc_e2,12070,"[{""event"":""fullscreenenter"",""trial"":1,""time"":2136}]",NA,NA,NA,NA,NA,5,#1CD855,#FA92F8,0,10,0,40,0,1328.7000000476837,37,1,746.9000000953674,0,0,experiment,NA,NA,0,0.1,0.9,1,0,262,6,NA
fcp-trial,298,1366589,0.0-273.0-0.0,voc_e2,12070,"[{""event"":""fullscreenenter"",""trial"":1,""time"":2136}]",NA,NA,NA,NA,NA,5,#D8271C,#741CD8,10,10,1,40,0,959.7000000476837,39,0,776,10,0,experiment,NA,NA,1,0.7,0.3,2,3,263,6,NA
fcp-trial,299,1370270,0.0-274.0-0.0,voc_e2,12070,"[{""event"":""fullscreenenter"",""trial"":1,""time"":2136}]",NA,NA,NA,NA,NA,5,#3386FF,#D89F1C,0,10,0,40,0,1210.2999999523163,37,1,960,0,0,experiment,NA,NA,2,0.5,0.5,5,4,264,6,NA
fcp-trial,300,1374821,0.0-275.0-0.0,voc_e2,12070,"[{""event"":""fullscreenenter"",""trial"":1,""time"":2136}]",NA,NA,NA,NA,NA,0,#D8271C,#741CD8,10,0,1,38,1,2078.2000000476837,37,1,959.1999999284744,10,1,experiment,NA,NA,1,0.7,0.3,2,3,265,6,NA
fcp-trial,301,1378293,0.0-276.0-0.0,voc_e2,12070,"[{""event"":""fullscreenenter"",""trial"":1,""time"":2136}]",NA,NA,NA,NA,NA,1,#D8271C,#741CD8,0,0,1,38,1,871.2999999523163,39,0,1083.899999976158,0,0,experiment,NA,NA,1,0.7,0.3,2,3,266,6,NA
fcp-trial,302,1381574,0.0-277.0-0.0,voc_e2,12070,"[{""event"":""fullscreenenter"",""trial"":1,""time"":2136}]",NA,NA,NA,NA,NA,4,#1CD855,#FA92F8,0,10,0,40,0,1240.2999999523163,37,1,526.1000000238419,0,0,experiment,NA,NA,0,0.1,0.9,1,0,267,6,NA
fcp-trial,303,1384826,0.0-278.0-0.0,voc_e2,12070,"[{""event"":""fullscreenenter"",""trial"":1,""time"":2136}]",NA,NA,NA,NA,NA,1,#D89F1C,#3386FF,10,0,1,38,1,1087.6000000238419,39,0,651.3999999761581,0,0,experiment,NA,NA,2,0.5,0.5,4,5,268,6,NA
fcp-trial,304,1387996,0.0-279.0-0.0,voc_e2,12070,"[{""event"":""fullscreenenter"",""trial"":1,""time"":2136}]",NA,NA,NA,NA,NA,6,#741CD8,#D8271C,10,10,0,40,0,1079.8999999761581,39,0,572.8000000715256,10,1,experiment,NA,NA,1,0.3,0.7,3,2,269,6,NA
fcp-trial,305,1390768,0.0-280.0-0.0,voc_e2,12070,"[{""event"":""fullscreenenter"",""trial"":1,""time"":2136}]",NA,NA,NA,NA,NA,6,#3386FF,#D89F1C,0,10,0,40,0,662.5,39,0,596.9000000953674,10,1,experiment,NA,NA,2,0.5,0.5,5,4,270,6,NA
fcp-trial,306,1394392,0.0-281.0-0.0,voc_e2,12070,"[{""event"":""fullscreenenter"",""trial"":1,""time"":2136}]",NA,NA,NA,NA,NA,2,#741CD8,#D8271C,0,10,0,38,1,1325,39,0,780.5,10,1,experiment,NA,NA,1,0.3,0.7,3,2,271,7,NA
fcp-trial,307,1397901,0.0-282.0-0.0,voc_e2,12070,"[{""event"":""fullscreenenter"",""trial"":1,""time"":2136}]",NA,NA,NA,NA,NA,3,#1CD855,#FA92F8,0,10,0,38,1,1097.1000000238419,37,1,898.5999999046326,0,0,experiment,NA,NA,0,0.1,0.9,1,0,272,7,NA
fcp-trial,308,1401181,0.0-283.0-0.0,voc_e2,12070,"[{""event"":""fullscreenenter"",""trial"":1,""time"":2136}]",NA,NA,NA,NA,NA,3,#D89F1C,#3386FF,0,0,1,38,1,1116,39,0,647.9000000953674,0,0,experiment,NA,NA,2,0.5,0.5,4,5,273,7,NA
fcp-trial,309,1404658,0.0-284.0-0.0,voc_e2,12070,"[{""event"":""fullscreenenter"",""trial"":1,""time"":2136}]",NA,NA,NA,NA,NA,6,#D8271C,#741CD8,0,0,1,40,0,1119.1000000238419,37,1,839.1000000238419,0,1,experiment,NA,NA,1,0.7,0.3,2,3,274,7,NA
fcp-trial,310,1408318,0.0-285.0-0.0,voc_e2,12070,"[{""event"":""fullscreenenter"",""trial"":1,""time"":2136}]",NA,NA,NA,NA,NA,3,#3386FF,#D89F1C,0,10,0,38,1,1269.6999999284744,39,0,873.2999999523163,10,1,experiment,NA,NA,2,0.5,0.5,5,4,275,7,NA
fcp-trial,311,1411707,0.0-286.0-0.0,voc_e2,12070,"[{""event"":""fullscreenenter"",""trial"":1,""time"":2136}]",NA,NA,NA,NA,NA,0,#741CD8,#D8271C,0,10,0,38,1,1117,37,1,761.7999999523163,0,0,experiment,NA,NA,1,0.3,0.7,3,2,276,7,NA
fcp-trial,312,1414802,0.0-287.0-0.0,voc_e2,12070,"[{""event"":""fullscreenenter"",""trial"":1,""time"":2136}]",NA,NA,NA,NA,NA,3,#1CD855,#FA92F8,0,10,0,38,1,972,39,0,616.1999999284744,10,1,experiment,NA,NA,0,0.1,0.9,1,0,277,7,NA
fcp-trial,313,1418603,0.0-288.0-0.0,voc_e2,12070,"[{""event"":""fullscreenenter"",""trial"":1,""time"":2136}]",NA,NA,NA,NA,NA,2,#1CD855,#FA92F8,0,10,0,38,1,942.0999999046326,37,1,1349,0,0,experiment,NA,NA,0,0.1,0.9,1,0,278,7,NA
fcp-trial,314,1421431,0.0-289.0-0.0,voc_e2,12070,"[{""event"":""fullscreenenter"",""trial"":1,""time"":2136}]",NA,NA,NA,NA,NA,4,#3386FF,#D89F1C,0,10,0,38,1,490.89999997615814,39,0,824.2999999523163,10,1,experiment,NA,NA,2,0.5,0.5,5,4,279,7,NA
fcp-trial,315,1424554,0.0-290.0-0.0,voc_e2,12070,"[{""event"":""fullscreenenter"",""trial"":1,""time"":2136}]",NA,NA,NA,NA,NA,4,#741CD8,#D8271C,0,0,0,40,0,878.2000000476837,37,1,729.7999999523163,0,0,experiment,NA,NA,1,0.3,0.7,3,2,280,7,NA
fcp-trial,316,1427811,0.0-291.0-0.0,voc_e2,12070,"[{""event"":""fullscreenenter"",""trial"":1,""time"":2136}]",NA,NA,NA,NA,NA,6,#1CD855,#FA92F8,0,10,0,40,0,1172.1999999284744,39,0,570.4000000953674,10,1,experiment,NA,NA,0,0.1,0.9,1,0,281,7,NA
fcp-trial,317,1430832,0.0-292.0-0.0,voc_e2,12070,"[{""event"":""fullscreenenter"",""trial"":1,""time"":2136}]",NA,NA,NA,NA,NA,6,#3386FF,#D89F1C,10,0,0,40,0,1001.1999999284744,39,0,514,0,1,experiment,NA,NA,2,0.5,0.5,5,4,282,7,NA
fcp-trial,318,1434011,0.0-293.0-0.0,voc_e2,12070,"[{""event"":""fullscreenenter"",""trial"":1,""time"":2136}]",NA,NA,NA,NA,NA,0,#D89F1C,#3386FF,10,10,1,38,1,1104.1000000238419,37,1,562.7999999523163,10,1,experiment,NA,NA,2,0.5,0.5,4,5,283,7,NA
fcp-trial,319,1438032,0.0-294.0-0.0,voc_e2,12070,"[{""event"":""fullscreenenter"",""trial"":1,""time"":2136}]",NA,NA,NA,NA,NA,1,#FA92F8,#1CD855,10,0,1,38,1,1252.1999999284744,37,1,1254.9000000953674,10,1,experiment,NA,NA,0,0.9,0.1,0,1,284,7,NA
fcp-trial,320,1441915,0.0-295.0-0.0,voc_e2,12070,"[{""event"":""fullscreenenter"",""trial"":1,""time"":2136}]",NA,NA,NA,NA,NA,2,#D8271C,#741CD8,10,0,1,38,1,1844,39,0,530.8000000715256,0,0,experiment,NA,NA,1,0.7,0.3,2,3,285,7,NA
fcp-trial,321,1446662,0.0-296.0-0.0,voc_e2,12070,"[{""event"":""fullscreenenter"",""trial"":1,""time"":2136}]",NA,NA,NA,NA,NA,4,#FA92F8,#1CD855,10,0,1,40,0,2216.7000000476837,37,1,1016.1999999284744,10,1,experiment,NA,NA,0,0.9,0.1,0,1,286,7,NA
fcp-trial,322,1450564,0.0-297.0-0.0,voc_e2,12070,"[{""event"":""fullscreenenter"",""trial"":1,""time"":2136}]",NA,NA,NA,NA,NA,1,#D8271C,#741CD8,10,0,1,38,1,1269.6000000238419,37,1,1118.4000000953674,10,1,experiment,NA,NA,1,0.7,0.3,2,3,287,7,NA
fcp-trial,323,1458071,0.0-298.0-0.0,voc_e2,12070,"[{""event"":""fullscreenenter"",""trial"":1,""time"":2136}]",NA,NA,NA,NA,NA,5,#3386FF,#D89F1C,10,10,0,38,1,4061.0999999046326,37,1,1932.399999976158,10,0,experiment,NA,NA,2,0.5,0.5,5,4,288,7,NA
fcp-trial,324,1461371,0.0-299.0-0.0,voc_e2,12070,"[{""event"":""fullscreenenter"",""trial"":1,""time"":2136}]",NA,NA,NA,NA,NA,1,#D89F1C,#3386FF,0,10,1,38,1,1328.5,37,1,461,0,1,experiment,NA,NA,2,0.5,0.5,4,5,289,7,NA
fcp-trial,325,1464630,0.0-300.0-0.0,voc_e2,12070,"[{""event"":""fullscreenenter"",""trial"":1,""time"":2136}]",NA,NA,NA,NA,NA,0,#1CD855,#FA92F8,0,10,0,38,1,1058.2999999523163,39,0,681,10,1,experiment,NA,NA,0,0.1,0.9,1,0,290,7,NA
fcp-trial,326,1467895,0.0-301.0-0.0,voc_e2,12070,"[{""event"":""fullscreenenter"",""trial"":1,""time"":2136}]",NA,NA,NA,NA,NA,3,#D8271C,#741CD8,10,10,1,38,1,1246.6999999284744,37,1,512,10,1,experiment,NA,NA,1,0.7,0.3,2,3,291,7,NA
fcp-trial,327,1471250,0.0-302.0-0.0,voc_e2,12070,"[{""event"":""fullscreenenter"",""trial"":1,""time"":2136}]",NA,NA,NA,NA,NA,5,#FA92F8,#1CD855,0,0,1,40,0,1302.6000000238419,37,1,537.7000000476837,0,1,experiment,NA,NA,0,0.9,0.1,0,1,292,7,NA
fcp-trial,328,1475051,0.0-303.0-0.0,voc_e2,12070,"[{""event"":""fullscreenenter"",""trial"":1,""time"":2136}]",NA,NA,NA,NA,NA,5,#741CD8,#D8271C,0,10,0,40,0,909.7000000476837,37,1,1374.2000000476835,0,0,experiment,NA,NA,1,0.3,0.7,3,2,293,7,NA
fcp-trial,329,1480549,0.0-304.0-0.0,voc_e2,12070,"[{""event"":""fullscreenenter"",""trial"":1,""time"":2136}]",NA,NA,NA,NA,NA,2,#D89F1C,#3386FF,0,10,1,38,1,3472.899999976158,37,1,511.09999990463257,0,1,experiment,NA,NA,2,0.5,0.5,4,5,294,7,NA
fcp-trial,330,1484065,0.0-305.0-0.0,voc_e2,12070,"[{""event"":""fullscreenenter"",""trial"":1,""time"":2136}]",NA,NA,NA,NA,NA,2,#741CD8,#D8271C,0,10,0,40,0,1314.5,39,0,686.3999999761581,10,1,experiment,NA,NA,1,0.3,0.7,3,2,295,7,NA
fcp-trial,331,1487262,0.0-306.0-0.0,voc_e2,12070,"[{""event"":""fullscreenenter"",""trial"":1,""time"":2136}]",NA,NA,NA,NA,NA,4,#D89F1C,#3386FF,0,10,1,40,0,939.2000000476837,39,0,745.3999999761581,10,0,experiment,NA,NA,2,0.5,0.5,4,5,296,7,NA
fcp-trial,332,1490648,0.0-307.0-0.0,voc_e2,12070,"[{""event"":""fullscreenenter"",""trial"":1,""time"":2136}]",NA,NA,NA,NA,NA,0,#741CD8,#D8271C,10,10,0,38,1,1295.6000000238419,39,0,570.8000000715256,10,1,experiment,NA,NA,1,0.3,0.7,3,2,297,7,NA
fcp-trial,333,1494278,0.0-308.0-0.0,voc_e2,12070,"[{""event"":""fullscreenenter"",""trial"":1,""time"":2136}]",NA,NA,NA,NA,NA,0,#FA92F8,#1CD855,10,10,1,38,1,1311.6000000238419,37,1,801.2999999523163,10,1,experiment,NA,NA,0,0.9,0.1,0,1,298,7,NA
fcp-trial,334,1497686,0.0-309.0-0.0,voc_e2,12070,"[{""event"":""fullscreenenter"",""trial"":1,""time"":2136}]",NA,NA,NA,NA,NA,2,#1CD855,#FA92F8,0,10,0,40,0,1201.2000000476837,39,0,691.6999999284744,10,1,experiment,NA,NA,0,0.1,0.9,1,0,299,7,NA
fcp-trial,335,1502465,0.0-310.0-0.0,voc_e2,12070,"[{""event"":""fullscreenenter"",""trial"":1,""time"":2136}]",NA,NA,NA,NA,NA,5,#3386FF,#D89F1C,10,0,0,40,0,980.1000000238419,37,1,2287.3000000715256,10,0,experiment,NA,NA,2,0.5,0.5,5,4,300,7,NA
fcp-trial,336,1507202,0.0-311.0-0.0,voc_e2,12070,"[{""event"":""fullscreenenter"",""trial"":1,""time"":2136}]",NA,NA,NA,NA,NA,3,#D89F1C,#3386FF,0,10,1,38,1,1616.6000000238419,37,1,1608,0,1,experiment,NA,NA,2,0.5,0.5,4,5,301,7,NA
fcp-trial,337,1514235,0.0-312.0-0.0,voc_e2,12070,"[{""event"":""fullscreenenter"",""trial"":1,""time"":2136}]",NA,NA,NA,NA,NA,3,#741CD8,#D8271C,0,10,0,38,1,2645.1999999284744,37,1,2874.5,0,0,experiment,NA,NA,1,0.3,0.7,3,2,302,7,NA
fcp-trial,338,1517384,0.0-313.0-0.0,voc_e2,12070,"[{""event"":""fullscreenenter"",""trial"":1,""time"":2136}]",NA,NA,NA,NA,NA,4,#D8271C,#741CD8,10,0,1,40,0,957.4000000953674,39,0,675.8999999761581,0,0,experiment,NA,NA,1,0.7,0.3,2,3,303,7,NA
fcp-trial,339,1522462,0.0-314.0-0.0,voc_e2,12070,"[{""event"":""fullscreenenter"",""trial"":1,""time"":2136}]",NA,NA,NA,NA,NA,4,#FA92F8,#1CD855,10,0,1,40,0,1008.8000000715256,37,1,2557.1999999284744,10,1,experiment,NA,NA,0,0.9,0.1,0,1,304,7,NA
fcp-trial,340,1526418,0.0-315.0-0.0,voc_e2,12070,"[{""event"":""fullscreenenter"",""trial"":1,""time"":2136}]",NA,NA,NA,NA,NA,0,#3386FF,#D89F1C,10,10,0,38,1,1259.8000000715256,39,0,1182.100000023842,10,1,experiment,NA,NA,2,0.5,0.5,5,4,305,7,NA
fcp-trial,341,1529984,0.0-316.0-0.0,voc_e2,12070,"[{""event"":""fullscreenenter"",""trial"":1,""time"":2136}]",NA,NA,NA,NA,NA,6,#FA92F8,#1CD855,0,0,1,40,0,1290,37,1,760.3999999761581,0,1,experiment,NA,NA,0,0.9,0.1,0,1,306,7,NA
fcp-trial,342,1533647,0.0-317.0-0.0,voc_e2,12070,"[{""event"":""fullscreenenter"",""trial"":1,""time"":2136}]",NA,NA,NA,NA,NA,6,#741CD8,#D8271C,10,10,0,40,0,1106.2999999523163,39,0,1040,10,1,experiment,NA,NA,1,0.3,0.7,3,2,307,7,NA
fcp-trial,343,1537001,0.0-318.0-0.0,voc_e2,12070,"[{""event"":""fullscreenenter"",""trial"":1,""time"":2136}]",NA,NA,NA,NA,NA,2,#3386FF,#D89F1C,0,0,0,38,1,1121.9000000953674,39,0,719.5,0,1,experiment,NA,NA,2,0.5,0.5,5,4,308,7,NA
fcp-trial,344,1540547,0.0-319.0-0.0,voc_e2,12070,"[{""event"":""fullscreenenter"",""trial"":1,""time"":2136}]",NA,NA,NA,NA,NA,6,#D89F1C,#3386FF,10,10,1,40,0,1222.5999999046326,39,0,808.6000000238419,10,0,experiment,NA,NA,2,0.5,0.5,4,5,309,7,NA
fcp-trial,345,1544064,0.0-320.0-0.0,voc_e2,12070,"[{""event"":""fullscreenenter"",""trial"":1,""time"":2136}]",NA,NA,NA,NA,NA,3,#1CD855,#FA92F8,0,10,0,38,1,1312.7000000476837,37,1,691.6000000238419,0,0,experiment,NA,NA,0,0.1,0.9,1,0,310,7,NA
fcp-trial,346,1547391,0.0-321.0-0.0,voc_e2,12070,"[{""event"":""fullscreenenter"",""trial"":1,""time"":2136}]",NA,NA,NA,NA,NA,5,#D8271C,#741CD8,10,10,1,40,0,1131.8000000715256,37,1,680.3000000715256,10,1,experiment,NA,NA,1,0.7,0.3,2,3,311,7,NA
fcp-trial,347,1550583,0.0-322.0-0.0,voc_e2,12070,"[{""event"":""fullscreenenter"",""trial"":1,""time"":2136}]",NA,NA,NA,NA,NA,5,#1CD855,#FA92F8,0,10,0,40,0,933.3999999761581,39,0,742,10,1,experiment,NA,NA,0,0.1,0.9,1,0,312,7,NA
fcp-trial,348,1554986,0.0-323.0-0.0,voc_e2,12070,"[{""event"":""fullscreenenter"",""trial"":1,""time"":2136}]",NA,NA,NA,NA,NA,1,#D89F1C,#3386FF,0,0,1,38,1,1810,37,1,1078.7000000476835,0,1,experiment,NA,NA,2,0.5,0.5,4,5,313,7,NA
fcp-trial,349,1558499,0.0-324.0-0.0,voc_e2,12070,"[{""event"":""fullscreenenter"",""trial"":1,""time"":2136}]",NA,NA,NA,NA,NA,1,#1CD855,#FA92F8,0,10,0,38,1,1315.7000000476837,37,1,687,0,0,experiment,NA,NA,0,0.1,0.9,1,0,314,7,NA
fcp-trial,350,1561531,0.0-325.0-0.0,voc_e2,12070,"[{""event"":""fullscreenenter"",""trial"":1,""time"":2136}]",NA,NA,NA,NA,NA,1,#741CD8,#D8271C,10,0,0,38,1,796.1000000238419,39,0,724.8000000715256,0,1,experiment,NA,NA,1,0.3,0.7,3,2,315,7,NA
audio-instructions,351,1568976,0.0-326.0,voc_e2,12070,"[{""event"":""fullscreenenter"",""trial"":1,""time"":2136}]",NA,1760.7999999523165,static/audio/finished.wav,NA,0,NA,NA,NA,NA,NA,NA,NA,NA,NA,NA,NA,NA,NA,NA,NA,NA,NA,NA,NA,NA,NA,NA,NA,NA,NA
audio-instructions,352,1580609,0.0-327.0-0.0,voc_e2,12070,"[{""event"":""fullscreenenter"",""trial"":1,""time"":2136}]",NA,791.3000000715256,static/audio/explicit1.wav,NA,0,NA,NA,NA,NA,NA,NA,NA,NA,NA,NA,NA,NA,NA,NA,NA,NA,NA,NA,NA,NA,NA,NA,NA,NA,NA
audio-instructions,353,1588816,0.0-327.0-1.0,voc_e2,12070,"[{""event"":""fullscreenenter"",""trial"":1,""time"":2136}]",NA,610.1000000238419,static/audio/explicit2.wav,NA,0,NA,NA,NA,NA,NA,NA,NA,NA,NA,NA,NA,NA,NA,NA,NA,NA,NA,NA,NA,NA,NA,NA,NA,NA,NA
image-slider-response,354,1592062,0.0-328.0,voc_e2,12070,"[{""event"":""fullscreenenter"",""trial"":1,""time"":2136}]",NA,3239.7000000476837,static/img/machines/machine2.png,NA,NA,NA,NA,NA,NA,NA,NA,NA,NA,NA,NA,NA,NA,NA,NA,explicit,NA,NA,NA,NA,NA,NA,NA,NA,NA,5
image-slider-response,355,1596162,0.0-329.0,voc_e2,12070,"[{""event"":""fullscreenenter"",""trial"":1,""time"":2136}]",NA,4096.299999952316,static/img/machines/machine4.png,NA,NA,NA,NA,NA,NA,NA,NA,NA,NA,NA,NA,NA,NA,NA,NA,explicit,NA,NA,NA,NA,NA,NA,NA,NA,NA,6
image-slider-response,356,1600905,0.0-330.0,voc_e2,12070,"[{""event"":""fullscreenenter"",""trial"":1,""time"":2136}]",NA,4739.100000023842,static/img/machines/machine3.png,NA,NA,NA,NA,NA,NA,NA,NA,NA,NA,NA,NA,NA,NA,NA,NA,explicit,NA,NA,NA,NA,NA,NA,NA,NA,NA,4
image-slider-response,357,1603708,0.0-331.0,voc_e2,12070,"[{""event"":""fullscreenenter"",""trial"":1,""time"":2136}]",NA,2798.5,static/img/machines/machine5.png,NA,NA,NA,NA,NA,NA,NA,NA,NA,NA,NA,NA,NA,NA,NA,NA,explicit,NA,NA,NA,NA,NA,NA,NA,NA,NA,6
image-slider-response,358,1604451,0.0-332.0,voc_e2,12070,"[{""event"":""fullscreenenter"",""trial"":1,""time"":2136}]",NA,740,static/img/machines/machine6.png,NA,NA,NA,NA,NA,NA,NA,NA,NA,NA,NA,NA,NA,NA,NA,NA,explicit,NA,NA,NA,NA,NA,NA,NA,NA,NA,5
image-slider-response,359,1605201,0.0-333.0,voc_e2,12070,"[{""event"":""fullscreenenter"",""trial"":1,""time"":2136}]",NA,748.3999999761581,static/img/machines/machine1.png,NA,NA,NA,NA,NA,NA,NA,NA,NA,NA,NA,NA,NA,NA,NA,NA,explicit,NA,NA,NA,NA,NA,NA,NA,NA,NA,5
