trial_type,trial_index,time_elapsed,internal_node_id,task_version,subject_id,interactions,success,rt,stimulus,key_press,button_pressed,offer,arcade_color_L,arcade_color_R,arcade_outcome_L,arcade_outcome_R,correct,stage_1_key,stage_1_choice,stage_1_rt,stage_2_key,stage_2_choice,stage_2_rt,stage_3_outcome,accuracy,phase,responses,num_errors,context,reward_prob_L,reward_prob_R,arcade_id_L,arcade_id_R,trial,block,response
pavlovia,0,14,0.0-0.0,voc_e2,12242,[],NA,NA,NA,NA,NA,NA,NA,NA,NA,NA,NA,NA,NA,NA,NA,NA,NA,NA,NA,NA,NA,NA,NA,NA,NA,NA,NA,NA,NA,NA
fullscreen,1,3581,0.0-1.0,voc_e2,12242,"[{""event"":""fullscreenenter"",""trial"":1,""time"":2642}]",TRUE,NA,NA,NA,NA,NA,NA,NA,NA,NA,NA,NA,NA,NA,NA,NA,NA,NA,NA,NA,NA,NA,NA,NA,NA,NA,NA,NA,NA,NA
audio-keyboard-response,2,5728,0.0-2.0,voc_e2,12242,"[{""event"":""fullscreenenter"",""trial"":1,""time"":2642}]",NA,11,static/audio/beep_loop.wav,175,NA,NA,NA,NA,NA,NA,NA,NA,NA,NA,NA,NA,NA,NA,NA,NA,NA,NA,NA,NA,NA,NA,NA,NA,NA,NA
audio-test,3,8434,0.0-3.0,voc_e2,12242,"[{""event"":""fullscreenenter"",""trial"":1,""time"":2642}]",NA,NA,static/audio/turtle.wav,NA,3,NA,NA,NA,NA,NA,NA,NA,NA,NA,NA,NA,NA,NA,NA,NA,NA,NA,NA,NA,NA,NA,NA,NA,NA,NA
audio-test,4,10883,0.0-4.0,voc_e2,12242,"[{""event"":""fullscreenenter"",""trial"":1,""time"":2642}]",NA,NA,static/audio/shark.wav,NA,2,NA,NA,NA,NA,NA,NA,NA,NA,NA,NA,NA,NA,NA,NA,NA,NA,NA,NA,NA,NA,NA,NA,NA,NA,NA
audio-instructions,5,17611,0.0-5.0-0.0,voc_e2,12242,"[{""event"":""fullscreenenter"",""trial"":1,""time"":2642}]",NA,948,static/audio/instructions1.wav,NA,0,NA,NA,NA,NA,NA,NA,NA,NA,NA,NA,NA,NA,NA,NA,NA,NA,NA,NA,NA,NA,NA,NA,NA,NA,NA
audio-instructions,6,26403,0.0-5.0-1.0,voc_e2,12242,"[{""event"":""fullscreenenter"",""trial"":1,""time"":2642}]",NA,2050.7000000476837,static/audio/instructions2.wav,NA,0,NA,NA,NA,NA,NA,NA,NA,NA,NA,NA,NA,NA,NA,NA,NA,NA,NA,NA,NA,NA,NA,NA,NA,NA,NA
audio-instructions,7,32972,0.0-5.0-2.0,voc_e2,12242,"[{""event"":""fullscreenenter"",""trial"":1,""time"":2642}]",NA,760,static/audio/instructions3.wav,NA,0,NA,NA,NA,NA,NA,NA,NA,NA,NA,NA,NA,NA,NA,NA,NA,NA,NA,NA,NA,NA,NA,NA,NA,NA,NA
audio-instructions,8,48322,0.0-5.0-3.0,voc_e2,12242,"[{""event"":""fullscreenenter"",""trial"":1,""time"":2642}]",NA,2119.7000000476837,static/audio/instructions4.wav,NA,0,NA,NA,NA,NA,NA,NA,NA,NA,NA,NA,NA,NA,NA,NA,NA,NA,NA,NA,NA,NA,NA,NA,NA,NA,NA
audio-instructions,9,59405,0.0-5.0-4.0,voc_e2,12242,"[{""event"":""fullscreenenter"",""trial"":1,""time"":2642}]",NA,1691.899999976158,static/audio/instructions5.wav,NA,0,NA,NA,NA,NA,NA,NA,NA,NA,NA,NA,NA,NA,NA,NA,NA,NA,NA,NA,NA,NA,NA,NA,NA,NA,NA
fcp-practice,10,63777,0.0-5.0-5.0-0.0,voc_e2,12242,"[{""event"":""fullscreenenter"",""trial"":1,""time"":2642}]",NA,NA,NA,NA,NA,NA,#EDC948,#46d3c8,10,0,1,null,null,null,37,1,2849.2000000476837,10,1,practice,NA,NA,NA,NA,NA,NA,NA,NA,NA,NA
fcp-practice,11,65779,0.0-5.0-5.0-1.0,voc_e2,12242,"[{""event"":""fullscreenenter"",""trial"":1,""time"":2642}]",NA,NA,NA,NA,NA,NA,#EDC948,#46d3c8,10,0,1,null,null,null,37,1,496.5,10,1,practice,NA,NA,NA,NA,NA,NA,NA,NA,NA,NA
fcp-practice,12,67578,0.0-5.0-5.0-2.0,voc_e2,12242,"[{""event"":""fullscreenenter"",""trial"":1,""time"":2642}]",NA,NA,NA,NA,NA,NA,#EDC948,#46d3c8,0,10,1,null,null,null,37,1,284.6999999284744,0,1,practice,NA,NA,NA,NA,NA,NA,NA,NA,NA,NA
fcp-practice,13,69313,0.0-5.0-5.0-3.0,voc_e2,12242,"[{""event"":""fullscreenenter"",""trial"":1,""time"":2642}]",NA,NA,NA,NA,NA,NA,#EDC948,#46d3c8,10,0,1,null,null,null,37,1,223.69999992847443,10,1,practice,NA,NA,NA,NA,NA,NA,NA,NA,NA,NA
fcp-practice,14,71312,0.0-5.0-5.0-4.0,voc_e2,12242,"[{""event"":""fullscreenenter"",""trial"":1,""time"":2642}]",NA,NA,NA,NA,NA,NA,#EDC948,#46d3c8,10,0,1,null,null,null,37,1,486.39999997615814,10,1,practice,NA,NA,NA,NA,NA,NA,NA,NA,NA,NA
audio-instructions,15,91322,0.0-5.0-6.0,voc_e2,12242,"[{""event"":""fullscreenenter"",""trial"":1,""time"":2642}]",NA,1999.6999999284744,static/audio/instructions6.wav,NA,0,NA,NA,NA,NA,NA,NA,NA,NA,NA,NA,NA,NA,NA,NA,NA,NA,NA,NA,NA,NA,NA,NA,NA,NA,NA
audio-instructions,16,111548,0.0-5.0-7.0,voc_e2,12242,"[{""event"":""fullscreenenter"",""trial"":1,""time"":2642}]",NA,1025.8000000715256,static/audio/instructions7.wav,NA,0,NA,NA,NA,NA,NA,NA,NA,NA,NA,NA,NA,NA,NA,NA,NA,NA,NA,NA,NA,NA,NA,NA,NA,NA,NA
audio-instructions,17,121514,0.0-5.0-8.0,voc_e2,12242,"[{""event"":""fullscreenenter"",""trial"":1,""time"":2642}]",NA,491.89999997615814,static/audio/instructions8.wav,NA,0,NA,NA,NA,NA,NA,NA,NA,NA,NA,NA,NA,NA,NA,NA,NA,NA,NA,NA,NA,NA,NA,NA,NA,NA,NA
fcp-comprehension,18,135963,0.0-5.0-9.0,voc_e2,12242,"[{""event"":""fullscreenenter"",""trial"":1,""time"":2642}]",NA,14446.5,NA,NA,NA,NA,NA,NA,NA,NA,NA,NA,NA,NA,NA,NA,NA,NA,NA,NA,"true,true",0,NA,NA,NA,NA,NA,NA,NA,NA
audio-instructions,19,142714,0.0-6.0-0.0,voc_e2,12242,"[{""event"":""fullscreenenter"",""trial"":1,""time"":2642}]",NA,1201.899999976158,static/audio/instructions9.wav,NA,0,NA,NA,NA,NA,NA,NA,NA,NA,NA,NA,NA,NA,NA,NA,NA,NA,NA,NA,NA,NA,NA,NA,NA,NA,NA
audio-instructions,20,155170,0.0-6.0-1.0,voc_e2,12242,"[{""event"":""fullscreenenter"",""trial"":1,""time"":2642}]",NA,338,static/audio/instructions10.wav,NA,0,NA,NA,NA,NA,NA,NA,NA,NA,NA,NA,NA,NA,NA,NA,NA,NA,NA,NA,NA,NA,NA,NA,NA,NA,NA
fcp-trial,21,164544,0.0-6.0-2.0,voc_e2,12242,"[{""event"":""fullscreenenter"",""trial"":1,""time"":2642}]",NA,NA,NA,NA,NA,0,#EDC948,#46d3c8,10,10,1,38,1,4404.699999928474,39,0,3436.5,10,0,practice,NA,NA,NA,NA,NA,NA,NA,NA,NA,NA
audio-instructions,22,176514,0.0-6.0-3.0,voc_e2,12242,"[{""event"":""fullscreenenter"",""trial"":1,""time"":2642}]",NA,961.7999999523164,static/audio/instructions11.wav,NA,0,NA,NA,NA,NA,NA,NA,NA,NA,NA,NA,NA,NA,NA,NA,NA,NA,NA,NA,NA,NA,NA,NA,NA,NA,NA
fcp-trial,23,180962,0.0-6.0-4.0,voc_e2,12242,"[{""event"":""fullscreenenter"",""trial"":1,""time"":2642}]",NA,NA,NA,NA,NA,6,#EDC948,#46d3c8,10,10,1,40,0,1984.6999999284744,37,1,944.1999999284744,10,1,practice,NA,NA,NA,NA,NA,NA,NA,NA,NA,NA
audio-instructions,24,200304,0.0-6.0-5.0,voc_e2,12242,"[{""event"":""fullscreenenter"",""trial"":1,""time"":2642}]",NA,651.7999999523163,static/audio/instructions12.wav,NA,0,NA,NA,NA,NA,NA,NA,NA,NA,NA,NA,NA,NA,NA,NA,NA,NA,NA,NA,NA,NA,NA,NA,NA,NA,NA
audio-instructions,25,208906,0.0-6.0-6.0,voc_e2,12242,"[{""event"":""fullscreenenter"",""trial"":1,""time"":2642}]",NA,1004.399999976158,static/audio/instructions13.wav,NA,0,NA,NA,NA,NA,NA,NA,NA,NA,NA,NA,NA,NA,NA,NA,NA,NA,NA,NA,NA,NA,NA,NA,NA,NA,NA
audio-instructions,26,218010,0.0-6.0-7.0,voc_e2,12242,"[{""event"":""fullscreenenter"",""trial"":1,""time"":2642}]",NA,657.9000000953674,static/audio/instructions14.wav,NA,0,NA,NA,NA,NA,NA,NA,NA,NA,NA,NA,NA,NA,NA,NA,NA,NA,NA,NA,NA,NA,NA,NA,NA,NA,NA
audio-instructions,27,225353,0.0-7.0-0.0,voc_e2,12242,"[{""event"":""fullscreenenter"",""trial"":1,""time"":2642}]",NA,441.8000000715256,static/audio/instructions15.wav,NA,0,NA,NA,NA,NA,NA,NA,NA,NA,NA,NA,NA,NA,NA,NA,NA,NA,NA,NA,NA,NA,NA,NA,NA,NA,NA
audio-instructions,28,232833,0.0-7.0-1.0,voc_e2,12242,"[{""event"":""fullscreenenter"",""trial"":1,""time"":2642}]",NA,651.6000000238419,static/audio/instructions16.wav,NA,0,NA,NA,NA,NA,NA,NA,NA,NA,NA,NA,NA,NA,NA,NA,NA,NA,NA,NA,NA,NA,NA,NA,NA,NA,NA
audio-instructions,29,241227,0.0-7.0-2.0,voc_e2,12242,"[{""event"":""fullscreenenter"",""trial"":1,""time"":2642}]",NA,715.1999999284744,static/audio/instructions17.wav,NA,0,NA,NA,NA,NA,NA,NA,NA,NA,NA,NA,NA,NA,NA,NA,NA,NA,NA,NA,NA,NA,NA,NA,NA,NA,NA
audio-instructions,30,250162,0.0-7.0-3.0,voc_e2,12242,"[{""event"":""fullscreenenter"",""trial"":1,""time"":2642}]",NA,1170.7999999523165,static/audio/instructions18.wav,NA,0,NA,NA,NA,NA,NA,NA,NA,NA,NA,NA,NA,NA,NA,NA,NA,NA,NA,NA,NA,NA,NA,NA,NA,NA,NA
audio-instructions,31,257521,0.0-7.0-4.0,voc_e2,12242,"[{""event"":""fullscreenenter"",""trial"":1,""time"":2642}]",NA,619.7000000476837,static/audio/instructions19.wav,NA,0,NA,NA,NA,NA,NA,NA,NA,NA,NA,NA,NA,NA,NA,NA,NA,NA,NA,NA,NA,NA,NA,NA,NA,NA,NA
fcp-comprehension,32,267482,0.0-7.0-5.0,voc_e2,12242,"[{""event"":""fullscreenenter"",""trial"":1,""time"":2642}]",NA,9959.600000023842,NA,NA,NA,NA,NA,NA,NA,NA,NA,NA,NA,NA,NA,NA,NA,NA,NA,NA,"false,false,false,true",0,NA,NA,NA,NA,NA,NA,NA,NA
audio-instructions,33,278073,0.0-8.0,voc_e2,12242,"[{""event"":""fullscreenenter"",""trial"":1,""time"":2642}]",NA,1371.7000000476835,static/audio/ready.wav,NA,0,NA,NA,NA,NA,NA,NA,NA,NA,NA,NA,NA,NA,NA,NA,NA,NA,NA,NA,NA,NA,NA,NA,NA,NA,NA
fcp-trial,34,282527,0.0-9.0-0.0,voc_e2,12242,"[{""event"":""fullscreenenter"",""trial"":1,""time"":2642}]",NA,NA,NA,NA,NA,3,#741CD8,#D8271C,0,10,0,38,1,2332.899999976158,37,1,600.3000000715256,0,0,experiment,NA,NA,2,0.5,0.5,5,4,1,1,NA
fcp-trial,35,286978,0.0-10.0-0.0,voc_e2,12242,"[{""event"":""fullscreenenter"",""trial"":1,""time"":2642}]",NA,NA,NA,NA,NA,5,#D8271C,#741CD8,0,0,1,40,0,2022.3999999761581,39,0,902.399999976158,0,0,experiment,NA,NA,2,0.5,0.5,4,5,2,1,NA
fcp-trial,36,290594,0.0-11.0-0.0,voc_e2,12242,"[{""event"":""fullscreenenter"",""trial"":1,""time"":2642}]",NA,NA,NA,NA,NA,2,#741CD8,#D8271C,10,0,0,38,1,1208.6000000238419,37,1,894.5,10,0,experiment,NA,NA,2,0.5,0.5,5,4,3,1,NA
fcp-trial,37,294279,0.0-12.0-0.0,voc_e2,12242,"[{""event"":""fullscreenenter"",""trial"":1,""time"":2642}]",NA,NA,NA,NA,NA,2,#1CD855,#FA92F8,0,10,0,38,1,1569.7000000476837,39,0,601.1000000238419,10,1,experiment,NA,NA,0,0.1,0.9,1,0,4,1,NA
fcp-trial,38,297543,0.0-13.0-0.0,voc_e2,12242,"[{""event"":""fullscreenenter"",""trial"":1,""time"":2642}]",NA,NA,NA,NA,NA,0,#3386FF,#D89F1C,10,0,1,38,1,1224.2999999523163,37,1,529.5,10,1,experiment,NA,NA,1,0.7,0.3,2,3,5,1,NA
fcp-trial,39,300243,0.0-14.0-0.0,voc_e2,12242,"[{""event"":""fullscreenenter"",""trial"":1,""time"":2642}]",NA,NA,NA,NA,NA,6,#D8271C,#741CD8,10,10,1,38,1,682.3000000715256,39,0,497.39999997615814,10,0,experiment,NA,NA,2,0.5,0.5,4,5,6,1,NA
fcp-trial,40,303010,0.0-15.0-0.0,voc_e2,12242,"[{""event"":""fullscreenenter"",""trial"":1,""time"":2642}]",NA,NA,NA,NA,NA,2,#3386FF,#D89F1C,0,0,1,38,1,439.60000002384186,39,0,806.1999999284744,0,0,experiment,NA,NA,1,0.7,0.3,2,3,7,1,NA
fcp-trial,41,305977,0.0-16.0-0.0,voc_e2,12242,"[{""event"":""fullscreenenter"",""trial"":1,""time"":2642}]",NA,NA,NA,NA,NA,0,#FA92F8,#1CD855,10,0,1,38,1,904.1000000238419,37,1,543.8999999761581,10,1,experiment,NA,NA,0,0.9,0.1,0,1,8,1,NA
fcp-trial,42,309523,0.0-17.0-0.0,voc_e2,12242,"[{""event"":""fullscreenenter"",""trial"":1,""time"":2642}]",NA,NA,NA,NA,NA,6,#1CD855,#FA92F8,0,0,0,40,0,1084.3999999761581,37,1,955.600000023842,0,0,experiment,NA,NA,0,0.1,0.9,1,0,9,1,NA
fcp-trial,43,313043,0.0-18.0-0.0,voc_e2,12242,"[{""event"":""fullscreenenter"",""trial"":1,""time"":2642}]",NA,NA,NA,NA,NA,1,#D8271C,#741CD8,0,0,1,38,1,1450.2999999523163,39,0,563.7999999523163,0,0,experiment,NA,NA,2,0.5,0.5,4,5,10,1,NA
fcp-trial,44,315576,0.0-19.0-0.0,voc_e2,12242,"[{""event"":""fullscreenenter"",""trial"":1,""time"":2642}]",NA,NA,NA,NA,NA,5,#3386FF,#D89F1C,0,0,1,38,1,646.7999999523163,37,1,377.5,0,1,experiment,NA,NA,1,0.7,0.3,2,3,11,1,NA
fcp-trial,45,318758,0.0-20.0-0.0,voc_e2,12242,"[{""event"":""fullscreenenter"",""trial"":1,""time"":2642}]",NA,NA,NA,NA,NA,4,#3386FF,#D89F1C,0,0,1,38,1,1141.3000000715256,39,0,535.8000000715256,0,0,experiment,NA,NA,1,0.7,0.3,2,3,12,1,NA
fcp-trial,46,323046,0.0-21.0-0.0,voc_e2,12242,"[{""event"":""fullscreenenter"",""trial"":1,""time"":2642}]",NA,NA,NA,NA,NA,0,#D8271C,#741CD8,0,10,1,38,1,419.5,37,1,2361.899999976158,0,1,experiment,NA,NA,2,0.5,0.5,4,5,13,1,NA
fcp-trial,47,326690,0.0-22.0-0.0,voc_e2,12242,"[{""event"":""fullscreenenter"",""trial"":1,""time"":2642}]",NA,NA,NA,NA,NA,1,#1CD855,#FA92F8,0,10,0,38,1,1089.1999999284744,37,1,1048.600000023842,0,0,experiment,NA,NA,0,0.1,0.9,1,0,14,1,NA
fcp-trial,48,329848,0.0-23.0-0.0,voc_e2,12242,"[{""event"":""fullscreenenter"",""trial"":1,""time"":2642}]",NA,NA,NA,NA,NA,1,#D89F1C,#3386FF,0,10,0,38,1,851,39,0,801.6000000238419,10,1,experiment,NA,NA,1,0.3,0.7,3,2,15,1,NA
fcp-trial,49,332883,0.0-24.0-0.0,voc_e2,12242,"[{""event"":""fullscreenenter"",""trial"":1,""time"":2642}]",NA,NA,NA,NA,NA,4,#1CD855,#FA92F8,0,10,0,38,1,621.6000000238419,39,0,908.7999999523164,10,1,experiment,NA,NA,0,0.1,0.9,1,0,16,1,NA
fcp-trial,50,335699,0.0-25.0-0.0,voc_e2,12242,"[{""event"":""fullscreenenter"",""trial"":1,""time"":2642}]",NA,NA,NA,NA,NA,3,#D89F1C,#3386FF,0,10,0,38,1,594.6000000238419,39,0,713.7000000476837,10,1,experiment,NA,NA,1,0.3,0.7,3,2,17,1,NA
fcp-trial,51,339977,0.0-26.0-0.0,voc_e2,12242,"[{""event"":""fullscreenenter"",""trial"":1,""time"":2642}]",NA,NA,NA,NA,NA,4,#741CD8,#D8271C,10,0,0,38,1,754.6000000238419,39,0,2018.5999999046328,0,1,experiment,NA,NA,2,0.5,0.5,5,4,18,1,NA
fcp-trial,52,343385,0.0-27.0-0.0,voc_e2,12242,"[{""event"":""fullscreenenter"",""trial"":1,""time"":2642}]",NA,NA,NA,NA,NA,5,#1CD855,#FA92F8,10,10,0,38,1,843.6000000238419,39,0,1058.899999976158,10,1,experiment,NA,NA,0,0.1,0.9,1,0,19,1,NA
fcp-trial,53,346138,0.0-28.0-0.0,voc_e2,12242,"[{""event"":""fullscreenenter"",""trial"":1,""time"":2642}]",NA,NA,NA,NA,NA,3,#FA92F8,#1CD855,10,0,1,38,1,647.5,37,1,599.5,10,1,experiment,NA,NA,0,0.9,0.1,0,1,20,1,NA
fcp-trial,54,349576,0.0-29.0-0.0,voc_e2,12242,"[{""event"":""fullscreenenter"",""trial"":1,""time"":2642}]",NA,NA,NA,NA,NA,6,#3386FF,#D89F1C,10,10,1,40,0,1025.2000000476837,37,1,907.2000000476836,10,1,experiment,NA,NA,1,0.7,0.3,2,3,21,1,NA
fcp-trial,55,352976,0.0-30.0-0.0,voc_e2,12242,"[{""event"":""fullscreenenter"",""trial"":1,""time"":2642}]",NA,NA,NA,NA,NA,4,#D8271C,#741CD8,0,0,1,38,1,1236.3999999761581,37,1,658.1999999284744,0,1,experiment,NA,NA,2,0.5,0.5,4,5,22,1,NA
fcp-trial,56,356170,0.0-31.0-0.0,voc_e2,12242,"[{""event"":""fullscreenenter"",""trial"":1,""time"":2642}]",NA,NA,NA,NA,NA,1,#D89F1C,#3386FF,10,10,0,38,1,1173.7000000476837,39,0,515,10,1,experiment,NA,NA,1,0.3,0.7,3,2,23,1,NA
fcp-trial,57,359593,0.0-32.0-0.0,voc_e2,12242,"[{""event"":""fullscreenenter"",""trial"":1,""time"":2642}]",NA,NA,NA,NA,NA,4,#3386FF,#D89F1C,10,0,1,38,1,1419.8999999761581,37,1,498.3000000715256,10,1,experiment,NA,NA,1,0.7,0.3,2,3,24,1,NA
fcp-trial,58,362651,0.0-33.0-0.0,voc_e2,12242,"[{""event"":""fullscreenenter"",""trial"":1,""time"":2642}]",NA,NA,NA,NA,NA,6,#D8271C,#741CD8,0,0,1,38,1,659.8999999761581,37,1,894.2000000476837,0,1,experiment,NA,NA,2,0.5,0.5,4,5,25,1,NA
fcp-trial,59,365180,0.0-34.0-0.0,voc_e2,12242,"[{""event"":""fullscreenenter"",""trial"":1,""time"":2642}]",NA,NA,NA,NA,NA,1,#FA92F8,#1CD855,10,0,1,38,1,535.1999999284744,37,1,488.7999999523163,10,1,experiment,NA,NA,0,0.9,0.1,0,1,26,1,NA
fcp-trial,60,367579,0.0-35.0-0.0,voc_e2,12242,"[{""event"":""fullscreenenter"",""trial"":1,""time"":2642}]",NA,NA,NA,NA,NA,0,#3386FF,#D89F1C,10,10,1,38,1,510.7000000476837,37,1,381.5,10,1,experiment,NA,NA,1,0.7,0.3,2,3,27,1,NA
fcp-trial,61,370348,0.0-36.0-0.0,voc_e2,12242,"[{""event"":""fullscreenenter"",""trial"":1,""time"":2642}]",NA,NA,NA,NA,NA,5,#D8271C,#741CD8,10,10,1,38,1,717.2999999523163,39,0,546.1000000238419,10,0,experiment,NA,NA,2,0.5,0.5,4,5,28,1,NA
fcp-trial,62,372814,0.0-37.0-0.0,voc_e2,12242,"[{""event"":""fullscreenenter"",""trial"":1,""time"":2642}]",NA,NA,NA,NA,NA,6,#3386FF,#D89F1C,10,0,1,38,1,261.3000000715256,37,1,698.3999999761581,10,1,experiment,NA,NA,1,0.7,0.3,2,3,29,1,NA
fcp-trial,63,375848,0.0-38.0-0.0,voc_e2,12242,"[{""event"":""fullscreenenter"",""trial"":1,""time"":2642}]",NA,NA,NA,NA,NA,3,#741CD8,#D8271C,10,10,0,38,1,669.8000000715256,37,1,858.8999999761581,10,0,experiment,NA,NA,2,0.5,0.5,5,4,30,1,NA
fcp-trial,64,378756,0.0-39.0-0.0,voc_e2,12242,"[{""event"":""fullscreenenter"",""trial"":1,""time"":2642}]",NA,NA,NA,NA,NA,0,#1CD855,#FA92F8,0,0,0,38,1,927.1000000238419,39,0,474.5,0,1,experiment,NA,NA,0,0.1,0.9,1,0,31,1,NA
fcp-trial,65,381403,0.0-40.0-0.0,voc_e2,12242,"[{""event"":""fullscreenenter"",""trial"":1,""time"":2642}]",NA,NA,NA,NA,NA,4,#FA92F8,#1CD855,10,0,1,38,1,644.1999999284744,37,1,496,10,1,experiment,NA,NA,0,0.9,0.1,0,1,32,1,NA
fcp-trial,66,384889,0.0-41.0-0.0,voc_e2,12242,"[{""event"":""fullscreenenter"",""trial"":1,""time"":2642}]",NA,NA,NA,NA,NA,3,#D89F1C,#3386FF,0,0,0,38,1,1340.6000000238419,39,0,640.3999999761581,0,1,experiment,NA,NA,1,0.3,0.7,3,2,33,1,NA
fcp-trial,67,390409,0.0-42.0-0.0,voc_e2,12242,"[{""event"":""fullscreenenter"",""trial"":1,""time"":2642}]",NA,NA,NA,NA,NA,0,#741CD8,#D8271C,0,0,0,38,1,2139.0999999046326,37,1,1876.2999999523165,0,0,experiment,NA,NA,2,0.5,0.5,5,4,34,1,NA
fcp-trial,68,393249,0.0-43.0-0.0,voc_e2,12242,"[{""event"":""fullscreenenter"",""trial"":1,""time"":2642}]",NA,NA,NA,NA,NA,1,#D8271C,#741CD8,0,10,1,38,1,991.3999999761581,39,0,343.1999999284744,10,0,experiment,NA,NA,2,0.5,0.5,4,5,35,1,NA
fcp-trial,69,396228,0.0-44.0-0.0,voc_e2,12242,"[{""event"":""fullscreenenter"",""trial"":1,""time"":2642}]",NA,NA,NA,NA,NA,2,#D89F1C,#3386FF,0,0,0,38,1,618.1999999284744,39,0,854.8999999761581,0,1,experiment,NA,NA,1,0.3,0.7,3,2,36,1,NA
fcp-trial,70,398984,0.0-45.0-0.0,voc_e2,12242,"[{""event"":""fullscreenenter"",""trial"":1,""time"":2642}]",NA,NA,NA,NA,NA,2,#FA92F8,#1CD855,10,10,1,38,1,730.7000000476837,37,1,519.3999999761581,10,1,experiment,NA,NA,0,0.9,0.1,0,1,37,1,NA
fcp-trial,71,401703,0.0-46.0-0.0,voc_e2,12242,"[{""event"":""fullscreenenter"",""trial"":1,""time"":2642}]",NA,NA,NA,NA,NA,2,#D8271C,#741CD8,0,10,1,38,1,741.3000000715256,39,0,471.60000002384186,10,0,experiment,NA,NA,2,0.5,0.5,4,5,38,1,NA
fcp-trial,72,404016,0.0-47.0-0.0,voc_e2,12242,"[{""event"":""fullscreenenter"",""trial"":1,""time"":2642}]",NA,NA,NA,NA,NA,5,#1CD855,#FA92F8,0,10,0,38,1,373.5,39,0,434.10000002384186,10,1,experiment,NA,NA,0,0.1,0.9,1,0,39,1,NA
fcp-trial,73,406372,0.0-48.0-0.0,voc_e2,12242,"[{""event"":""fullscreenenter"",""trial"":1,""time"":2642}]",NA,NA,NA,NA,NA,3,#1CD855,#FA92F8,0,10,0,38,1,392.10000002384186,39,0,457.7000000476837,10,1,experiment,NA,NA,0,0.1,0.9,1,0,40,1,NA
fcp-trial,74,408945,0.0-49.0-0.0,voc_e2,12242,"[{""event"":""fullscreenenter"",""trial"":1,""time"":2642}]",NA,NA,NA,NA,NA,5,#3386FF,#D89F1C,10,0,1,38,1,599.5,39,0,467.40000009536743,0,0,experiment,NA,NA,1,0.7,0.3,2,3,41,1,NA
fcp-trial,75,412790,0.0-50.0-0.0,voc_e2,12242,"[{""event"":""fullscreenenter"",""trial"":1,""time"":2642}]",NA,NA,NA,NA,NA,6,#FA92F8,#1CD855,10,0,1,38,1,496.60000002384186,37,1,1841.100000023842,10,1,experiment,NA,NA,0,0.9,0.1,0,1,42,1,NA
fcp-trial,76,416975,0.0-51.0-0.0,voc_e2,12242,"[{""event"":""fullscreenenter"",""trial"":1,""time"":2642}]",NA,NA,NA,NA,NA,3,#3386FF,#D89F1C,10,10,1,38,1,1645.8999999761581,37,1,1030.899999976158,10,1,experiment,NA,NA,1,0.7,0.3,2,3,43,1,NA
fcp-trial,77,419531,0.0-52.0-0.0,voc_e2,12242,"[{""event"":""fullscreenenter"",""trial"":1,""time"":2642}]",NA,NA,NA,NA,NA,5,#741CD8,#D8271C,0,10,0,38,1,639.8000000715256,37,1,409.2000000476837,0,0,experiment,NA,NA,2,0.5,0.5,5,4,44,1,NA
fcp-trial,78,422060,0.0-53.0-0.0,voc_e2,12242,"[{""event"":""fullscreenenter"",""trial"":1,""time"":2642}]",NA,NA,NA,NA,NA,2,#D89F1C,#3386FF,0,0,0,38,1,720.6999999284744,39,0,303.1999999284744,0,1,experiment,NA,NA,1,0.3,0.7,3,2,45,1,NA
fcp-trial,79,425078,0.0-54.0-0.0,voc_e2,12242,"[{""event"":""fullscreenenter"",""trial"":1,""time"":2642}]",NA,NA,NA,NA,NA,2,#1CD855,#FA92F8,10,10,0,38,1,810.2999999523163,39,0,701,10,1,experiment,NA,NA,0,0.1,0.9,1,0,46,2,NA
fcp-trial,80,428121,0.0-55.0-0.0,voc_e2,12242,"[{""event"":""fullscreenenter"",""trial"":1,""time"":2642}]",NA,NA,NA,NA,NA,0,#D89F1C,#3386FF,0,0,0,38,1,804,39,0,732.1000000238419,0,1,experiment,NA,NA,1,0.3,0.7,3,2,47,2,NA
fcp-trial,81,431302,0.0-56.0-0.0,voc_e2,12242,"[{""event"":""fullscreenenter"",""trial"":1,""time"":2642}]",NA,NA,NA,NA,NA,6,#1CD855,#FA92F8,0,10,0,40,0,871.7000000476837,37,1,803.3000000715256,0,0,experiment,NA,NA,0,0.1,0.9,1,0,48,2,NA
fcp-trial,82,433682,0.0-57.0-0.0,voc_e2,12242,"[{""event"":""fullscreenenter"",""trial"":1,""time"":2642}]",NA,NA,NA,NA,NA,6,#741CD8,#D8271C,0,0,0,38,1,596.5,39,0,278,0,1,experiment,NA,NA,2,0.5,0.5,5,4,49,2,NA
fcp-trial,83,436360,0.0-58.0-0.0,voc_e2,12242,"[{""event"":""fullscreenenter"",""trial"":1,""time"":2642}]",NA,NA,NA,NA,NA,5,#FA92F8,#1CD855,10,0,1,38,1,697.6999999284744,37,1,476.2000000476837,10,1,experiment,NA,NA,0,0.9,0.1,0,1,50,2,NA
fcp-trial,84,439341,0.0-59.0-0.0,voc_e2,12242,"[{""event"":""fullscreenenter"",""trial"":1,""time"":2642}]",NA,NA,NA,NA,NA,4,#3386FF,#D89F1C,0,10,1,38,1,848.9000000953674,37,1,626,0,1,experiment,NA,NA,1,0.7,0.3,2,3,51,2,NA
fcp-trial,85,442799,0.0-60.0-0.0,voc_e2,12242,"[{""event"":""fullscreenenter"",""trial"":1,""time"":2642}]",NA,NA,NA,NA,NA,1,#741CD8,#D8271C,0,10,0,38,1,486.60000002384186,37,1,1464.600000023842,0,0,experiment,NA,NA,2,0.5,0.5,5,4,52,2,NA
fcp-trial,86,444888,0.0-61.0-0.0,voc_e2,12242,"[{""event"":""fullscreenenter"",""trial"":1,""time"":2642}]",NA,NA,NA,NA,NA,4,#D8271C,#741CD8,0,10,1,38,1,296.3000000715256,39,0,288.39999997615814,10,0,experiment,NA,NA,2,0.5,0.5,4,5,53,2,NA
fcp-trial,87,447536,0.0-62.0-0.0,voc_e2,12242,"[{""event"":""fullscreenenter"",""trial"":1,""time"":2642}]",NA,NA,NA,NA,NA,1,#FA92F8,#1CD855,10,0,1,38,1,569.8000000715256,37,1,570.8999999761581,10,1,experiment,NA,NA,0,0.9,0.1,0,1,54,2,NA
fcp-trial,88,449867,0.0-63.0-0.0,voc_e2,12242,"[{""event"":""fullscreenenter"",""trial"":1,""time"":2642}]",NA,NA,NA,NA,NA,0,#1CD855,#FA92F8,0,10,0,38,1,385.2999999523163,39,0,440.2999999523163,10,1,experiment,NA,NA,0,0.1,0.9,1,0,55,2,NA
fcp-trial,89,452448,0.0-64.0-0.0,voc_e2,12242,"[{""event"":""fullscreenenter"",""trial"":1,""time"":2642}]",NA,NA,NA,NA,NA,1,#D89F1C,#3386FF,0,10,0,38,1,569.2999999523163,39,0,505.39999997615814,10,1,experiment,NA,NA,1,0.3,0.7,3,2,56,2,NA
fcp-trial,90,455692,0.0-65.0-0.0,voc_e2,12242,"[{""event"":""fullscreenenter"",""trial"":1,""time"":2642}]",NA,NA,NA,NA,NA,0,#D8271C,#741CD8,0,0,1,38,1,763.3999999761581,39,0,975.100000023842,0,0,experiment,NA,NA,2,0.5,0.5,4,5,57,2,NA
fcp-trial,91,458364,0.0-66.0-0.0,voc_e2,12242,"[{""event"":""fullscreenenter"",""trial"":1,""time"":2642}]",NA,NA,NA,NA,NA,4,#1CD855,#FA92F8,10,10,0,38,1,565.7000000476837,39,0,601.1000000238419,10,1,experiment,NA,NA,0,0.1,0.9,1,0,58,2,NA
fcp-trial,92,461260,0.0-67.0-0.0,voc_e2,12242,"[{""event"":""fullscreenenter"",""trial"":1,""time"":2642}]",NA,NA,NA,NA,NA,6,#D89F1C,#3386FF,0,0,0,38,1,409.5,37,1,980.5,0,0,experiment,NA,NA,1,0.3,0.7,3,2,59,2,NA
fcp-trial,93,465485,0.0-68.0-0.0,voc_e2,12242,"[{""event"":""fullscreenenter"",""trial"":1,""time"":2642}]",NA,NA,NA,NA,NA,3,#741CD8,#D8271C,10,10,0,38,1,871.8999999761581,37,1,1846.7000000476835,10,0,experiment,NA,NA,2,0.5,0.5,5,4,60,2,NA
fcp-trial,94,468843,0.0-69.0-0.0,voc_e2,12242,"[{""event"":""fullscreenenter"",""trial"":1,""time"":2642}]",NA,NA,NA,NA,NA,5,#3386FF,#D89F1C,10,0,1,38,1,895.2999999523163,37,1,956.8000000715256,10,1,experiment,NA,NA,1,0.7,0.3,2,3,61,2,NA
fcp-trial,95,472101,0.0-70.0-0.0,voc_e2,12242,"[{""event"":""fullscreenenter"",""trial"":1,""time"":2642}]",NA,NA,NA,NA,NA,3,#FA92F8,#1CD855,10,0,1,38,1,1293.8999999761581,37,1,458.3000000715256,10,1,experiment,NA,NA,0,0.9,0.1,0,1,62,2,NA
fcp-trial,96,475321,0.0-71.0-0.0,voc_e2,12242,"[{""event"":""fullscreenenter"",""trial"":1,""time"":2642}]",NA,NA,NA,NA,NA,2,#741CD8,#D8271C,10,10,0,38,1,1035,37,1,678.6000000238419,10,0,experiment,NA,NA,2,0.5,0.5,5,4,63,2,NA
fcp-trial,97,478241,0.0-72.0-0.0,voc_e2,12242,"[{""event"":""fullscreenenter"",""trial"":1,""time"":2642}]",NA,NA,NA,NA,NA,5,#D89F1C,#3386FF,0,10,0,38,1,498.7000000476837,39,0,915,10,1,experiment,NA,NA,1,0.3,0.7,3,2,64,2,NA
fcp-trial,98,481027,0.0-73.0-0.0,voc_e2,12242,"[{""event"":""fullscreenenter"",""trial"":1,""time"":2642}]",NA,NA,NA,NA,NA,3,#3386FF,#D89F1C,0,0,1,38,1,659.2999999523163,37,1,620.6999999284744,0,1,experiment,NA,NA,1,0.7,0.3,2,3,65,2,NA
fcp-trial,99,483511,0.0-74.0-0.0,voc_e2,12242,"[{""event"":""fullscreenenter"",""trial"":1,""time"":2642}]",NA,NA,NA,NA,NA,2,#FA92F8,#1CD855,10,0,1,38,1,563.6000000238419,37,1,405.1999999284744,10,1,experiment,NA,NA,0,0.9,0.1,0,1,66,2,NA
fcp-trial,100,486066,0.0-75.0-0.0,voc_e2,12242,"[{""event"":""fullscreenenter"",""trial"":1,""time"":2642}]",NA,NA,NA,NA,NA,0,#FA92F8,#1CD855,0,0,1,38,1,596.7000000476837,37,1,451.8000000715256,0,1,experiment,NA,NA,0,0.9,0.1,0,1,67,2,NA
fcp-trial,101,488736,0.0-76.0-0.0,voc_e2,12242,"[{""event"":""fullscreenenter"",""trial"":1,""time"":2642}]",NA,NA,NA,NA,NA,0,#D89F1C,#3386FF,0,0,0,38,1,513.4000000953674,39,0,647.7999999523163,0,1,experiment,NA,NA,1,0.3,0.7,3,2,68,2,NA
fcp-trial,102,491199,0.0-77.0-0.0,voc_e2,12242,"[{""event"":""fullscreenenter"",""trial"":1,""time"":2642}]",NA,NA,NA,NA,NA,6,#741CD8,#D8271C,10,10,0,38,1,413.6999999284744,37,1,543.2999999523163,10,0,experiment,NA,NA,2,0.5,0.5,5,4,69,2,NA
fcp-trial,103,493873,0.0-78.0-0.0,voc_e2,12242,"[{""event"":""fullscreenenter"",""trial"":1,""time"":2642}]",NA,NA,NA,NA,NA,2,#D89F1C,#3386FF,0,10,0,38,1,413.59999990463257,37,1,755.5999999046326,0,0,experiment,NA,NA,1,0.3,0.7,3,2,70,2,NA
fcp-trial,104,497256,0.0-79.0-0.0,voc_e2,12242,"[{""event"":""fullscreenenter"",""trial"":1,""time"":2642}]",NA,NA,NA,NA,NA,1,#1CD855,#FA92F8,0,10,0,38,1,675.5,39,0,1199.399999976158,10,1,experiment,NA,NA,0,0.1,0.9,1,0,71,2,NA
fcp-trial,105,499947,0.0-80.0-0.0,voc_e2,12242,"[{""event"":""fullscreenenter"",""trial"":1,""time"":2642}]",NA,NA,NA,NA,NA,4,#FA92F8,#1CD855,10,0,1,38,1,799.6999999284744,37,1,382.60000002384186,10,1,experiment,NA,NA,0,0.9,0.1,0,1,72,2,NA
fcp-trial,106,502944,0.0-81.0-0.0,voc_e2,12242,"[{""event"":""fullscreenenter"",""trial"":1,""time"":2642}]",NA,NA,NA,NA,NA,4,#D8271C,#741CD8,0,10,1,38,1,1052.3999999761581,39,0,438.8000000715256,10,0,experiment,NA,NA,2,0.5,0.5,4,5,73,2,NA
fcp-trial,107,505715,0.0-82.0-0.0,voc_e2,12242,"[{""event"":""fullscreenenter"",""trial"":1,""time"":2642}]",NA,NA,NA,NA,NA,4,#3386FF,#D89F1C,0,0,1,38,1,564.8999999761581,39,0,696.6000000238419,0,0,experiment,NA,NA,1,0.7,0.3,2,3,74,2,NA
fcp-trial,108,509248,0.0-83.0-0.0,voc_e2,12242,"[{""event"":""fullscreenenter"",""trial"":1,""time"":2642}]",NA,NA,NA,NA,NA,5,#741CD8,#D8271C,10,0,0,40,0,1309.6999999284744,37,1,718.6000000238419,10,0,experiment,NA,NA,2,0.5,0.5,5,4,75,2,NA
fcp-trial,109,511727,0.0-84.0-0.0,voc_e2,12242,"[{""event"":""fullscreenenter"",""trial"":1,""time"":2642}]",NA,NA,NA,NA,NA,0,#741CD8,#D8271C,0,0,0,38,1,563.1000000238419,37,1,409.7000000476837,0,0,experiment,NA,NA,2,0.5,0.5,5,4,76,2,NA
fcp-trial,110,514511,0.0-85.0-0.0,voc_e2,12242,"[{""event"":""fullscreenenter"",""trial"":1,""time"":2642}]",NA,NA,NA,NA,NA,3,#1CD855,#FA92F8,10,10,0,38,1,802.1000000238419,39,0,475.10000002384186,10,1,experiment,NA,NA,0,0.1,0.9,1,0,77,2,NA
fcp-trial,111,517020,0.0-86.0-0.0,voc_e2,12242,"[{""event"":""fullscreenenter"",""trial"":1,""time"":2642}]",NA,NA,NA,NA,NA,1,#D89F1C,#3386FF,0,10,0,38,1,406.7000000476837,39,0,593.7000000476837,10,1,experiment,NA,NA,1,0.3,0.7,3,2,78,2,NA
fcp-trial,112,519648,0.0-87.0-0.0,voc_e2,12242,"[{""event"":""fullscreenenter"",""trial"":1,""time"":2642}]",NA,NA,NA,NA,NA,6,#1CD855,#FA92F8,0,10,0,38,1,602.8999999761581,39,0,519.7999999523163,10,1,experiment,NA,NA,0,0.1,0.9,1,0,79,2,NA
fcp-trial,113,522291,0.0-88.0-0.0,voc_e2,12242,"[{""event"":""fullscreenenter"",""trial"":1,""time"":2642}]",NA,NA,NA,NA,NA,3,#D8271C,#741CD8,10,0,1,38,1,244.5,39,0,894.8000000715256,0,0,experiment,NA,NA,2,0.5,0.5,4,5,80,2,NA
fcp-trial,114,524746,0.0-89.0-0.0,voc_e2,12242,"[{""event"":""fullscreenenter"",""trial"":1,""time"":2642}]",NA,NA,NA,NA,NA,5,#FA92F8,#1CD855,10,0,1,38,1,495.7999999523163,37,1,451.3000000715256,10,1,experiment,NA,NA,0,0.9,0.1,0,1,81,2,NA
fcp-trial,115,527536,0.0-90.0-0.0,voc_e2,12242,"[{""event"":""fullscreenenter"",""trial"":1,""time"":2642}]",NA,NA,NA,NA,NA,6,#3386FF,#D89F1C,10,0,1,38,1,460.7999999523163,37,1,822,10,1,experiment,NA,NA,1,0.7,0.3,2,3,82,2,NA
fcp-trial,116,530016,0.0-91.0-0.0,voc_e2,12242,"[{""event"":""fullscreenenter"",""trial"":1,""time"":2642}]",NA,NA,NA,NA,NA,2,#D8271C,#741CD8,10,10,1,38,1,314.89999997615814,39,0,660.4000000953674,10,0,experiment,NA,NA,2,0.5,0.5,4,5,83,2,NA
fcp-trial,117,532504,0.0-92.0-0.0,voc_e2,12242,"[{""event"":""fullscreenenter"",""trial"":1,""time"":2642}]",NA,NA,NA,NA,NA,1,#741CD8,#D8271C,0,10,0,38,1,477.60000002384186,37,1,506.39999997615814,0,0,experiment,NA,NA,2,0.5,0.5,5,4,84,2,NA
fcp-trial,118,535688,0.0-93.0-0.0,voc_e2,12242,"[{""event"":""fullscreenenter"",""trial"":1,""time"":2642}]",NA,NA,NA,NA,NA,1,#FA92F8,#1CD855,0,0,1,38,1,584.5,37,1,1094.8000000715256,0,1,experiment,NA,NA,0,0.9,0.1,0,1,85,2,NA
fcp-trial,119,538298,0.0-94.0-0.0,voc_e2,12242,"[{""event"":""fullscreenenter"",""trial"":1,""time"":2642}]",NA,NA,NA,NA,NA,0,#741CD8,#D8271C,0,10,0,38,1,499.3000000715256,39,0,602.7999999523163,10,1,experiment,NA,NA,2,0.5,0.5,5,4,86,2,NA
fcp-trial,120,541249,0.0-95.0-0.0,voc_e2,12242,"[{""event"":""fullscreenenter"",""trial"":1,""time"":2642}]",NA,NA,NA,NA,NA,6,#1CD855,#FA92F8,0,10,0,38,1,493.7000000476837,39,0,952.7999999523164,10,1,experiment,NA,NA,0,0.1,0.9,1,0,87,2,NA
fcp-trial,121,544299,0.0-96.0-0.0,voc_e2,12242,"[{""event"":""fullscreenenter"",""trial"":1,""time"":2642}]",NA,NA,NA,NA,NA,2,#D89F1C,#3386FF,0,0,0,38,1,591.7999999523163,39,0,953.9000000953674,0,1,experiment,NA,NA,1,0.3,0.7,3,2,88,2,NA
fcp-trial,122,547004,0.0-97.0-0.0,voc_e2,12242,"[{""event"":""fullscreenenter"",""trial"":1,""time"":2642}]",NA,NA,NA,NA,NA,4,#D8271C,#741CD8,10,10,1,38,1,540.5,39,0,658,10,0,experiment,NA,NA,2,0.5,0.5,4,5,89,2,NA
fcp-trial,123,549773,0.0-98.0-0.0,voc_e2,12242,"[{""event"":""fullscreenenter"",""trial"":1,""time"":2642}]",NA,NA,NA,NA,NA,4,#FA92F8,#1CD855,10,0,1,38,1,570.5,37,1,691.0999999046326,10,1,experiment,NA,NA,0,0.9,0.1,0,1,90,2,NA
fcp-trial,124,552677,0.0-99.0-0.0,voc_e2,12242,"[{""event"":""fullscreenenter"",""trial"":1,""time"":2642}]",NA,NA,NA,NA,NA,3,#FA92F8,#1CD855,0,10,1,38,1,851,37,1,548.7000000476837,0,1,experiment,NA,NA,0,0.9,0.1,0,1,91,3,NA
fcp-trial,125,556463,0.0-100.0-0.0,voc_e2,12242,"[{""event"":""fullscreenenter"",""trial"":1,""time"":2642}]",NA,NA,NA,NA,NA,5,#3386FF,#D89F1C,0,10,1,40,0,1733.3000000715256,37,1,546.5,0,1,experiment,NA,NA,1,0.7,0.3,2,3,92,3,NA
fcp-trial,126,559679,0.0-101.0-0.0,voc_e2,12242,"[{""event"":""fullscreenenter"",""trial"":1,""time"":2642}]",NA,NA,NA,NA,NA,2,#D8271C,#741CD8,0,10,1,38,1,668.1999999284744,39,0,1041.100000023842,10,0,experiment,NA,NA,2,0.5,0.5,4,5,93,3,NA
fcp-trial,127,562734,0.0-102.0-0.0,voc_e2,12242,"[{""event"":""fullscreenenter"",""trial"":1,""time"":2642}]",NA,NA,NA,NA,NA,5,#1CD855,#FA92F8,0,10,0,38,1,724.2000000476837,39,0,824.6000000238419,10,1,experiment,NA,NA,0,0.1,0.9,1,0,94,3,NA
fcp-trial,128,566030,0.0-103.0-0.0,voc_e2,12242,"[{""event"":""fullscreenenter"",""trial"":1,""time"":2642}]",NA,NA,NA,NA,NA,0,#D89F1C,#3386FF,0,10,0,38,1,1227.2000000476837,39,0,562.7999999523163,10,1,experiment,NA,NA,1,0.3,0.7,3,2,95,3,NA
fcp-trial,129,569176,0.0-104.0-0.0,voc_e2,12242,"[{""event"":""fullscreenenter"",""trial"":1,""time"":2642}]",NA,NA,NA,NA,NA,2,#FA92F8,#1CD855,10,0,1,38,1,1088,37,1,551.5,10,1,experiment,NA,NA,0,0.9,0.1,0,1,96,3,NA
fcp-trial,130,572828,0.0-105.0-0.0,voc_e2,12242,"[{""event"":""fullscreenenter"",""trial"":1,""time"":2642}]",NA,NA,NA,NA,NA,6,#3386FF,#D89F1C,10,10,1,40,0,1359,37,1,786.8999999761581,10,1,experiment,NA,NA,1,0.7,0.3,2,3,97,3,NA
fcp-trial,131,575572,0.0-106.0-0.0,voc_e2,12242,"[{""event"":""fullscreenenter"",""trial"":1,""time"":2642}]",NA,NA,NA,NA,NA,3,#741CD8,#D8271C,10,10,0,38,1,806.7999999523163,37,1,430.10000002384186,10,0,experiment,NA,NA,2,0.5,0.5,5,4,98,3,NA
fcp-trial,132,579930,0.0-107.0-0.0,voc_e2,12242,"[{""event"":""fullscreenenter"",""trial"":1,""time"":2642}]",NA,NA,NA,NA,NA,4,#D89F1C,#3386FF,0,10,0,38,1,1918.2999999523163,39,0,933.5,10,1,experiment,NA,NA,1,0.3,0.7,3,2,99,3,NA
fcp-trial,133,583167,0.0-108.0-0.0,voc_e2,12242,"[{""event"":""fullscreenenter"",""trial"":1,""time"":2642}]",NA,NA,NA,NA,NA,6,#741CD8,#D8271C,0,0,0,40,0,1210.7000000476837,37,1,510.90000009536743,0,0,experiment,NA,NA,2,0.5,0.5,5,4,100,3,NA
fcp-trial,134,586078,0.0-109.0-0.0,voc_e2,12242,"[{""event"":""fullscreenenter"",""trial"":1,""time"":2642}]",NA,NA,NA,NA,NA,0,#1CD855,#FA92F8,0,10,0,38,1,688.8999999761581,39,0,716.7999999523163,10,1,experiment,NA,NA,0,0.1,0.9,1,0,101,3,NA
fcp-trial,135,589206,0.0-110.0-0.0,voc_e2,12242,"[{""event"":""fullscreenenter"",""trial"":1,""time"":2642}]",NA,NA,NA,NA,NA,1,#741CD8,#D8271C,10,0,0,38,1,1171.6999999284744,37,1,447.3000000715256,10,0,experiment,NA,NA,2,0.5,0.5,5,4,102,3,NA
fcp-trial,136,591964,0.0-111.0-0.0,voc_e2,12242,"[{""event"":""fullscreenenter"",""trial"":1,""time"":2642}]",NA,NA,NA,NA,NA,1,#D89F1C,#3386FF,0,10,0,38,1,675.3999999761581,39,0,576.8999999761581,10,1,experiment,NA,NA,1,0.3,0.7,3,2,103,3,NA
fcp-trial,137,595624,0.0-112.0-0.0,voc_e2,12242,"[{""event"":""fullscreenenter"",""trial"":1,""time"":2642}]",NA,NA,NA,NA,NA,3,#D89F1C,#3386FF,0,10,0,38,1,1693.8999999761581,39,0,461.2999999523163,10,1,experiment,NA,NA,1,0.3,0.7,3,2,104,3,NA
fcp-trial,138,599476,0.0-113.0-0.0,voc_e2,12242,"[{""event"":""fullscreenenter"",""trial"":1,""time"":2642}]",NA,NA,NA,NA,NA,5,#741CD8,#D8271C,0,0,0,38,1,1801.8999999761581,37,1,544.3999999761581,0,0,experiment,NA,NA,2,0.5,0.5,5,4,105,3,NA
audio-instructions,139,607416,0.0-114.0,voc_e2,12242,"[{""event"":""fullscreenenter"",""trial"":1,""time"":2642}]",NA,923.3000000715256,static/audio/pause.wav,NA,0,NA,NA,NA,NA,NA,NA,NA,NA,NA,NA,NA,NA,NA,NA,NA,NA,NA,NA,NA,NA,NA,NA,NA,NA,NA
fcp-trial,140,611587,0.0-115.0-0.0,voc_e2,12242,"[{""event"":""fullscreenenter"",""trial"":1,""time"":2642}]",NA,NA,NA,NA,NA,1,#1CD855,#FA92F8,0,10,0,38,1,2201.2000000476837,39,0,446,10,1,experiment,NA,NA,0,0.1,0.9,1,0,106,3,NA
fcp-trial,141,614170,0.0-116.0-0.0,voc_e2,12242,"[{""event"":""fullscreenenter"",""trial"":1,""time"":2642}]",NA,NA,NA,NA,NA,0,#741CD8,#D8271C,10,10,0,38,1,487.2000000476837,37,1,573.2000000476837,10,0,experiment,NA,NA,2,0.5,0.5,5,4,107,3,NA
fcp-trial,142,616938,0.0-117.0-0.0,voc_e2,12242,"[{""event"":""fullscreenenter"",""trial"":1,""time"":2642}]",NA,NA,NA,NA,NA,4,#D8271C,#741CD8,0,10,1,38,1,374.10000002384186,39,0,883.5,10,0,experiment,NA,NA,2,0.5,0.5,4,5,108,3,NA
fcp-trial,143,620520,0.0-118.0-0.0,voc_e2,12242,"[{""event"":""fullscreenenter"",""trial"":1,""time"":2642}]",NA,NA,NA,NA,NA,5,#FA92F8,#1CD855,10,0,1,40,0,1072.1999999284744,39,0,989.2999999523164,0,0,experiment,NA,NA,0,0.9,0.1,0,1,109,3,NA
fcp-trial,144,623480,0.0-119.0-0.0,voc_e2,12242,"[{""event"":""fullscreenenter"",""trial"":1,""time"":2642}]",NA,NA,NA,NA,NA,2,#3386FF,#D89F1C,0,0,1,38,1,360.89999997615814,37,1,1085.899999976158,0,1,experiment,NA,NA,1,0.7,0.3,2,3,110,3,NA
fcp-trial,145,626387,0.0-120.0-0.0,voc_e2,12242,"[{""event"":""fullscreenenter"",""trial"":1,""time"":2642}]",NA,NA,NA,NA,NA,1,#D89F1C,#3386FF,0,10,0,38,1,667.8999999761581,39,0,724.5,10,1,experiment,NA,NA,1,0.3,0.7,3,2,111,3,NA
fcp-trial,146,629236,0.0-121.0-0.0,voc_e2,12242,"[{""event"":""fullscreenenter"",""trial"":1,""time"":2642}]",NA,NA,NA,NA,NA,3,#741CD8,#D8271C,10,0,0,38,1,638.2999999523163,37,1,699.1000000238419,10,0,experiment,NA,NA,2,0.5,0.5,5,4,112,3,NA
fcp-trial,147,631660,0.0-122.0-0.0,voc_e2,12242,"[{""event"":""fullscreenenter"",""trial"":1,""time"":2642}]",NA,NA,NA,NA,NA,3,#3386FF,#D89F1C,0,0,1,38,1,357.5,39,0,552.2000000476837,0,0,experiment,NA,NA,1,0.7,0.3,2,3,113,3,NA
fcp-trial,148,633870,0.0-123.0-0.0,voc_e2,12242,"[{""event"":""fullscreenenter"",""trial"":1,""time"":2642}]",NA,NA,NA,NA,NA,2,#FA92F8,#1CD855,10,0,1,38,1,293.90000009536743,39,0,393.5,0,0,experiment,NA,NA,0,0.9,0.1,0,1,114,3,NA
fcp-trial,149,636474,0.0-124.0-0.0,voc_e2,12242,"[{""event"":""fullscreenenter"",""trial"":1,""time"":2642}]",NA,NA,NA,NA,NA,0,#1CD855,#FA92F8,0,0,0,38,1,640.8000000715256,37,1,453.8000000715256,0,0,experiment,NA,NA,0,0.1,0.9,1,0,115,3,NA
fcp-trial,150,639048,0.0-125.0-0.0,voc_e2,12242,"[{""event"":""fullscreenenter"",""trial"":1,""time"":2642}]",NA,NA,NA,NA,NA,5,#D89F1C,#3386FF,0,10,0,38,1,348.5,39,0,718.6999999284744,10,1,experiment,NA,NA,1,0.3,0.7,3,2,116,3,NA
fcp-trial,151,642158,0.0-126.0-0.0,voc_e2,12242,"[{""event"":""fullscreenenter"",""trial"":1,""time"":2642}]",NA,NA,NA,NA,NA,6,#D8271C,#741CD8,0,10,1,40,0,1075.3999999761581,37,1,527.3999999761581,0,1,experiment,NA,NA,2,0.5,0.5,4,5,117,3,NA
fcp-trial,152,644655,0.0-127.0-0.0,voc_e2,12242,"[{""event"":""fullscreenenter"",""trial"":1,""time"":2642}]",NA,NA,NA,NA,NA,1,#D8271C,#741CD8,10,10,1,38,1,515.2999999523163,39,0,473.10000002384186,10,0,experiment,NA,NA,2,0.5,0.5,4,5,118,3,NA
fcp-trial,153,647689,0.0-128.0-0.0,voc_e2,12242,"[{""event"":""fullscreenenter"",""trial"":1,""time"":2642}]",NA,NA,NA,NA,NA,0,#D89F1C,#3386FF,10,10,0,38,1,1058.6000000238419,39,0,469.39999997615814,10,1,experiment,NA,NA,1,0.3,0.7,3,2,119,3,NA
fcp-trial,154,650540,0.0-129.0-0.0,voc_e2,12242,"[{""event"":""fullscreenenter"",""trial"":1,""time"":2642}]",NA,NA,NA,NA,NA,3,#1CD855,#FA92F8,0,10,0,38,1,695.8999999761581,39,0,650.1999999284744,10,1,experiment,NA,NA,0,0.1,0.9,1,0,120,3,NA
fcp-trial,155,653479,0.0-130.0-0.0,voc_e2,12242,"[{""event"":""fullscreenenter"",""trial"":1,""time"":2642}]",NA,NA,NA,NA,NA,6,#1CD855,#FA92F8,0,10,0,38,1,1017,39,0,414.3000000715256,10,1,experiment,NA,NA,0,0.1,0.9,1,0,121,3,NA
fcp-trial,156,656803,0.0-131.0-0.0,voc_e2,12242,"[{""event"":""fullscreenenter"",""trial"":1,""time"":2642}]",NA,NA,NA,NA,NA,6,#3386FF,#D89F1C,10,0,1,40,0,941.5999999046326,39,0,875.3000000715256,0,0,experiment,NA,NA,1,0.7,0.3,2,3,122,3,NA
fcp-trial,157,659442,0.0-132.0-0.0,voc_e2,12242,"[{""event"":""fullscreenenter"",""trial"":1,""time"":2642}]",NA,NA,NA,NA,NA,2,#D8271C,#741CD8,10,0,1,38,1,487.6999999284744,39,0,641.3999999761581,0,0,experiment,NA,NA,2,0.5,0.5,4,5,123,3,NA
fcp-trial,158,662742,0.0-133.0-0.0,voc_e2,12242,"[{""event"":""fullscreenenter"",""trial"":1,""time"":2642}]",NA,NA,NA,NA,NA,4,#3386FF,#D89F1C,10,10,1,38,1,641.7000000476837,37,1,1151.7999999523165,10,1,experiment,NA,NA,1,0.7,0.3,2,3,124,3,NA
fcp-trial,159,665847,0.0-134.0-0.0,voc_e2,12242,"[{""event"":""fullscreenenter"",""trial"":1,""time"":2642}]",NA,NA,NA,NA,NA,5,#741CD8,#D8271C,0,10,0,40,0,1113.7000000476837,39,0,486,10,1,experiment,NA,NA,2,0.5,0.5,5,4,125,3,NA
fcp-trial,160,669419,0.0-135.0-0.0,voc_e2,12242,"[{""event"":""fullscreenenter"",""trial"":1,""time"":2642}]",NA,NA,NA,NA,NA,4,#FA92F8,#1CD855,10,0,1,38,1,1540.6000000238419,37,1,523.6000000238419,10,1,experiment,NA,NA,0,0.9,0.1,0,1,126,3,NA
fcp-trial,161,672490,0.0-136.0-0.0,voc_e2,12242,"[{""event"":""fullscreenenter"",""trial"":1,""time"":2642}]",NA,NA,NA,NA,NA,4,#3386FF,#D89F1C,0,0,1,38,1,504.09999990463257,37,1,1056.5999999046326,0,1,experiment,NA,NA,1,0.7,0.3,2,3,127,3,NA
fcp-trial,162,674890,0.0-137.0-0.0,voc_e2,12242,"[{""event"":""fullscreenenter"",""trial"":1,""time"":2642}]",NA,NA,NA,NA,NA,5,#1CD855,#FA92F8,0,10,0,38,1,405.2000000476837,39,0,485.2999999523163,10,1,experiment,NA,NA,0,0.1,0.9,1,0,128,3,NA
fcp-trial,163,677442,0.0-138.0-0.0,voc_e2,12242,"[{""event"":""fullscreenenter"",""trial"":1,""time"":2642}]",NA,NA,NA,NA,NA,6,#1CD855,#FA92F8,0,10,0,38,1,516.1000000238419,39,0,530.3999999761581,10,1,experiment,NA,NA,0,0.1,0.9,1,0,129,3,NA
fcp-trial,164,680236,0.0-139.0-0.0,voc_e2,12242,"[{""event"":""fullscreenenter"",""trial"":1,""time"":2642}]",NA,NA,NA,NA,NA,3,#D89F1C,#3386FF,0,0,0,38,1,715.9000000953674,39,0,570.4000000953674,0,1,experiment,NA,NA,1,0.3,0.7,3,2,130,3,NA
fcp-trial,165,683227,0.0-140.0-0.0,voc_e2,12242,"[{""event"":""fullscreenenter"",""trial"":1,""time"":2642}]",NA,NA,NA,NA,NA,1,#3386FF,#D89F1C,10,10,1,38,1,558.7999999523163,37,1,918.5,10,1,experiment,NA,NA,1,0.7,0.3,2,3,131,3,NA
fcp-trial,166,686617,0.0-141.0-0.0,voc_e2,12242,"[{""event"":""fullscreenenter"",""trial"":1,""time"":2642}]",NA,NA,NA,NA,NA,0,#741CD8,#D8271C,0,0,0,38,1,758,37,1,1125.5,0,0,experiment,NA,NA,2,0.5,0.5,5,4,132,3,NA
fcp-trial,167,689071,0.0-142.0-0.0,voc_e2,12242,"[{""event"":""fullscreenenter"",""trial"":1,""time"":2642}]",NA,NA,NA,NA,NA,2,#D8271C,#741CD8,10,0,1,38,1,333.60000002384186,39,0,609.2999999523163,0,0,experiment,NA,NA,2,0.5,0.5,4,5,133,3,NA
fcp-trial,168,691441,0.0-143.0-0.0,voc_e2,12242,"[{""event"":""fullscreenenter"",""trial"":1,""time"":2642}]",NA,NA,NA,NA,NA,2,#1CD855,#FA92F8,0,10,0,38,1,374.90000009536743,39,0,487.6999999284744,10,1,experiment,NA,NA,0,0.1,0.9,1,0,134,3,NA
fcp-trial,169,693855,0.0-144.0-0.0,voc_e2,12242,"[{""event"":""fullscreenenter"",""trial"":1,""time"":2642}]",NA,NA,NA,NA,NA,1,#741CD8,#D8271C,10,10,0,38,1,476,37,1,429.39999997615814,10,0,experiment,NA,NA,2,0.5,0.5,5,4,135,3,NA
fcp-trial,170,696740,0.0-145.0-0.0,voc_e2,12242,"[{""event"":""fullscreenenter"",""trial"":1,""time"":2642}]",NA,NA,NA,NA,NA,6,#3386FF,#D89F1C,10,0,1,38,1,291.39999997615814,37,1,1081.2999999523165,10,1,experiment,NA,NA,1,0.7,0.3,2,3,136,4,NA
fcp-trial,171,699180,0.0-146.0-0.0,voc_e2,12242,"[{""event"":""fullscreenenter"",""trial"":1,""time"":2642}]",NA,NA,NA,NA,NA,1,#FA92F8,#1CD855,10,0,1,38,1,304.89999997615814,37,1,629,10,1,experiment,NA,NA,0,0.9,0.1,0,1,137,4,NA
fcp-trial,172,701707,0.0-147.0-0.0,voc_e2,12242,"[{""event"":""fullscreenenter"",""trial"":1,""time"":2642}]",NA,NA,NA,NA,NA,0,#FA92F8,#1CD855,0,0,1,38,1,438.7999999523163,37,1,578.8999999761581,0,1,experiment,NA,NA,0,0.9,0.1,0,1,138,4,NA
fcp-trial,173,705015,0.0-148.0-0.0,voc_e2,12242,"[{""event"":""fullscreenenter"",""trial"":1,""time"":2642}]",NA,NA,NA,NA,NA,4,#FA92F8,#1CD855,10,0,1,40,0,1156,39,0,644.5,0,0,experiment,NA,NA,0,0.9,0.1,0,1,139,4,NA
fcp-trial,174,708258,0.0-149.0-0.0,voc_e2,12242,"[{""event"":""fullscreenenter"",""trial"":1,""time"":2642}]",NA,NA,NA,NA,NA,3,#D8271C,#741CD8,0,10,1,38,1,454.10000002384186,39,0,1282.5999999046326,10,0,experiment,NA,NA,2,0.5,0.5,4,5,140,4,NA
fcp-trial,175,710889,0.0-150.0-0.0,voc_e2,12242,"[{""event"":""fullscreenenter"",""trial"":1,""time"":2642}]",NA,NA,NA,NA,NA,2,#3386FF,#D89F1C,10,10,1,38,1,558.2999999523163,37,1,566,10,1,experiment,NA,NA,1,0.7,0.3,2,3,141,4,NA
fcp-trial,176,713776,0.0-151.0-0.0,voc_e2,12242,"[{""event"":""fullscreenenter"",""trial"":1,""time"":2642}]",NA,NA,NA,NA,NA,4,#741CD8,#D8271C,10,0,0,38,1,807,37,1,573.2999999523163,10,0,experiment,NA,NA,2,0.5,0.5,5,4,142,4,NA
fcp-trial,177,716847,0.0-152.0-0.0,voc_e2,12242,"[{""event"":""fullscreenenter"",""trial"":1,""time"":2642}]",NA,NA,NA,NA,NA,6,#741CD8,#D8271C,10,0,0,40,0,1042,37,1,521,10,0,experiment,NA,NA,2,0.5,0.5,5,4,143,4,NA
fcp-trial,178,719509,0.0-153.0-0.0,voc_e2,12242,"[{""event"":""fullscreenenter"",""trial"":1,""time"":2642}]",NA,NA,NA,NA,NA,3,#FA92F8,#1CD855,10,0,1,38,1,572.3000000715256,37,1,581.5,10,1,experiment,NA,NA,0,0.9,0.1,0,1,144,4,NA
fcp-trial,179,722216,0.0-154.0-0.0,voc_e2,12242,"[{""event"":""fullscreenenter"",""trial"":1,""time"":2642}]",NA,NA,NA,NA,NA,5,#3386FF,#D89F1C,10,0,1,38,1,512.6999999284744,37,1,677.6000000238419,10,1,experiment,NA,NA,1,0.7,0.3,2,3,145,4,NA
fcp-trial,180,724986,0.0-155.0-0.0,voc_e2,12242,"[{""event"":""fullscreenenter"",""trial"":1,""time"":2642}]",NA,NA,NA,NA,NA,5,#741CD8,#D8271C,0,10,0,38,1,732,37,1,528.1000000238419,0,0,experiment,NA,NA,2,0.5,0.5,5,4,146,4,NA
fcp-trial,181,727862,0.0-156.0-0.0,voc_e2,12242,"[{""event"":""fullscreenenter"",""trial"":1,""time"":2642}]",NA,NA,NA,NA,NA,0,#3386FF,#D89F1C,10,0,1,38,1,633.9000000953674,37,1,731.5,10,1,experiment,NA,NA,1,0.7,0.3,2,3,147,4,NA
fcp-trial,182,730646,0.0-157.0-0.0,voc_e2,12242,"[{""event"":""fullscreenenter"",""trial"":1,""time"":2642}]",NA,NA,NA,NA,NA,4,#741CD8,#D8271C,10,10,0,38,1,477.1999999284744,37,1,799.0999999046326,10,0,experiment,NA,NA,2,0.5,0.5,5,4,148,4,NA
fcp-trial,183,733391,0.0-158.0-0.0,voc_e2,12242,"[{""event"":""fullscreenenter"",""trial"":1,""time"":2642}]",NA,NA,NA,NA,NA,3,#741CD8,#D8271C,0,0,0,38,1,457.10000002384186,37,1,778.3000000715256,0,0,experiment,NA,NA,2,0.5,0.5,5,4,149,4,NA
fcp-trial,184,735878,0.0-159.0-0.0,voc_e2,12242,"[{""event"":""fullscreenenter"",""trial"":1,""time"":2642}]",NA,NA,NA,NA,NA,2,#D89F1C,#3386FF,0,10,0,38,1,425.1999999284744,39,0,552.7999999523163,10,1,experiment,NA,NA,1,0.3,0.7,3,2,150,4,NA
fcp-trial,185,738427,0.0-160.0-0.0,voc_e2,12242,"[{""event"":""fullscreenenter"",""trial"":1,""time"":2642}]",NA,NA,NA,NA,NA,4,#FA92F8,#1CD855,10,0,1,38,1,525.1000000238419,37,1,518,10,1,experiment,NA,NA,0,0.9,0.1,0,1,151,4,NA
fcp-trial,186,741036,0.0-161.0-0.0,voc_e2,12242,"[{""event"":""fullscreenenter"",""trial"":1,""time"":2642}]",NA,NA,NA,NA,NA,4,#3386FF,#D89F1C,0,0,1,38,1,486,37,1,615.1000000238419,0,1,experiment,NA,NA,1,0.7,0.3,2,3,152,4,NA
fcp-trial,187,743659,0.0-162.0-0.0,voc_e2,12242,"[{""event"":""fullscreenenter"",""trial"":1,""time"":2642}]",NA,NA,NA,NA,NA,5,#D8271C,#741CD8,10,0,1,38,1,612.7000000476837,39,0,497.6999999284744,0,0,experiment,NA,NA,2,0.5,0.5,4,5,153,4,NA
fcp-trial,188,746856,0.0-163.0-0.0,voc_e2,12242,"[{""event"":""fullscreenenter"",""trial"":1,""time"":2642}]",NA,NA,NA,NA,NA,0,#1CD855,#FA92F8,0,10,0,38,1,651.6000000238419,39,0,1038.5,10,1,experiment,NA,NA,0,0.1,0.9,1,0,154,4,NA
fcp-trial,189,749608,0.0-164.0-0.0,voc_e2,12242,"[{""event"":""fullscreenenter"",""trial"":1,""time"":2642}]",NA,NA,NA,NA,NA,5,#3386FF,#D89F1C,0,0,1,38,1,437.2000000476837,37,1,807.1000000238419,0,1,experiment,NA,NA,1,0.7,0.3,2,3,155,4,NA
fcp-trial,190,752460,0.0-165.0-0.0,voc_e2,12242,"[{""event"":""fullscreenenter"",""trial"":1,""time"":2642}]",NA,NA,NA,NA,NA,3,#1CD855,#FA92F8,0,10,0,38,1,742.6000000238419,39,0,603.1999999284744,10,1,experiment,NA,NA,0,0.1,0.9,1,0,156,4,NA
fcp-trial,191,755843,0.0-166.0-0.0,voc_e2,12242,"[{""event"":""fullscreenenter"",""trial"":1,""time"":2642}]",NA,NA,NA,NA,NA,6,#FA92F8,#1CD855,10,0,1,40,0,1262.2000000476837,39,0,613.3000000715256,0,0,experiment,NA,NA,0,0.9,0.1,0,1,157,4,NA
fcp-trial,192,758544,0.0-167.0-0.0,voc_e2,12242,"[{""event"":""fullscreenenter"",""trial"":1,""time"":2642}]",NA,NA,NA,NA,NA,0,#D8271C,#741CD8,10,10,1,38,1,527.1000000238419,39,0,667.1000000238419,10,0,experiment,NA,NA,2,0.5,0.5,4,5,158,4,NA
fcp-trial,193,762016,0.0-168.0-0.0,voc_e2,12242,"[{""event"":""fullscreenenter"",""trial"":1,""time"":2642}]",NA,NA,NA,NA,NA,3,#D89F1C,#3386FF,0,0,0,38,1,983.6999999284744,39,0,979.5,0,1,experiment,NA,NA,1,0.3,0.7,3,2,159,4,NA
fcp-trial,194,765988,0.0-169.0-0.0,voc_e2,12242,"[{""event"":""fullscreenenter"",""trial"":1,""time"":2642}]",NA,NA,NA,NA,NA,2,#1CD855,#FA92F8,0,10,0,38,1,1346.6000000238419,39,0,1114.7000000476835,10,1,experiment,NA,NA,0,0.1,0.9,1,0,160,4,NA
fcp-trial,195,768972,0.0-170.0-0.0,voc_e2,12242,"[{""event"":""fullscreenenter"",""trial"":1,""time"":2642}]",NA,NA,NA,NA,NA,2,#741CD8,#D8271C,0,0,0,38,1,632.5999999046326,37,1,845.7999999523163,0,0,experiment,NA,NA,2,0.5,0.5,5,4,161,4,NA
fcp-trial,196,772194,0.0-171.0-0.0,voc_e2,12242,"[{""event"":""fullscreenenter"",""trial"":1,""time"":2642}]",NA,NA,NA,NA,NA,5,#FA92F8,#1CD855,10,0,1,38,1,551.8999999761581,37,1,1163.7999999523165,10,1,experiment,NA,NA,0,0.9,0.1,0,1,162,4,NA
fcp-trial,197,775041,0.0-172.0-0.0,voc_e2,12242,"[{""event"":""fullscreenenter"",""trial"":1,""time"":2642}]",NA,NA,NA,NA,NA,0,#D89F1C,#3386FF,0,0,0,38,1,860.1999999284744,39,0,479.39999997615814,0,1,experiment,NA,NA,1,0.3,0.7,3,2,163,4,NA
fcp-trial,198,777888,0.0-173.0-0.0,voc_e2,12242,"[{""event"":""fullscreenenter"",""trial"":1,""time"":2642}]",NA,NA,NA,NA,NA,1,#1CD855,#FA92F8,0,10,0,38,1,532.1000000238419,39,0,806.6999999284744,10,1,experiment,NA,NA,0,0.1,0.9,1,0,164,4,NA
fcp-trial,199,780042,0.0-174.0-0.0,voc_e2,12242,"[{""event"":""fullscreenenter"",""trial"":1,""time"":2642}]",NA,NA,NA,NA,NA,1,#3386FF,#D89F1C,10,10,1,38,1,153.79999995231628,37,1,493.40000009536743,10,1,experiment,NA,NA,1,0.7,0.3,2,3,165,4,NA
fcp-trial,200,782962,0.0-175.0-0.0,voc_e2,12242,"[{""event"":""fullscreenenter"",""trial"":1,""time"":2642}]",NA,NA,NA,NA,NA,6,#741CD8,#D8271C,0,0,0,38,1,484.09999990463257,39,0,928,0,1,experiment,NA,NA,2,0.5,0.5,5,4,166,4,NA
fcp-trial,201,785533,0.0-176.0-0.0,voc_e2,12242,"[{""event"":""fullscreenenter"",""trial"":1,""time"":2642}]",NA,NA,NA,NA,NA,1,#D8271C,#741CD8,10,0,1,38,1,452.10000002384186,39,0,607.2999999523163,0,0,experiment,NA,NA,2,0.5,0.5,4,5,167,4,NA
fcp-trial,202,788410,0.0-177.0-0.0,voc_e2,12242,"[{""event"":""fullscreenenter"",""trial"":1,""time"":2642}]",NA,NA,NA,NA,NA,6,#3386FF,#D89F1C,10,10,1,40,0,794.3999999761581,37,1,569.7999999523163,10,1,experiment,NA,NA,1,0.7,0.3,2,3,168,4,NA
fcp-trial,203,791700,0.0-178.0-0.0,voc_e2,12242,"[{""event"":""fullscreenenter"",""trial"":1,""time"":2642}]",NA,NA,NA,NA,NA,3,#FA92F8,#1CD855,10,0,1,38,1,839.6000000238419,39,0,941.8000000715256,0,0,experiment,NA,NA,0,0.9,0.1,0,1,169,4,NA
fcp-trial,204,794799,0.0-179.0-0.0,voc_e2,12242,"[{""event"":""fullscreenenter"",""trial"":1,""time"":2642}]",NA,NA,NA,NA,NA,2,#FA92F8,#1CD855,10,0,1,38,1,1029.6000000238419,37,1,556.7000000476837,10,1,experiment,NA,NA,0,0.9,0.1,0,1,170,4,NA
fcp-trial,205,797472,0.0-180.0-0.0,voc_e2,12242,"[{""event"":""fullscreenenter"",""trial"":1,""time"":2642}]",NA,NA,NA,NA,NA,3,#D8271C,#741CD8,10,10,1,38,1,647.2999999523163,39,0,515.0999999046326,10,0,experiment,NA,NA,2,0.5,0.5,4,5,171,4,NA
fcp-trial,206,800746,0.0-181.0-0.0,voc_e2,12242,"[{""event"":""fullscreenenter"",""trial"":1,""time"":2642}]",NA,NA,NA,NA,NA,1,#FA92F8,#1CD855,10,0,1,38,1,1058.3999999761581,37,1,711.4000000953674,10,1,experiment,NA,NA,0,0.9,0.1,0,1,172,4,NA
fcp-trial,207,803284,0.0-182.0-0.0,voc_e2,12242,"[{""event"":""fullscreenenter"",""trial"":1,""time"":2642}]",NA,NA,NA,NA,NA,6,#D89F1C,#3386FF,0,0,0,38,1,503.6999999284744,39,0,527.7999999523163,0,1,experiment,NA,NA,1,0.3,0.7,3,2,173,4,NA
fcp-trial,208,805925,0.0-183.0-0.0,voc_e2,12242,"[{""event"":""fullscreenenter"",""trial"":1,""time"":2642}]",NA,NA,NA,NA,NA,0,#FA92F8,#1CD855,10,0,1,38,1,526.8999999761581,37,1,602.1000000238419,10,1,experiment,NA,NA,0,0.9,0.1,0,1,174,4,NA
fcp-trial,209,808759,0.0-184.0-0.0,voc_e2,12242,"[{""event"":""fullscreenenter"",""trial"":1,""time"":2642}]",NA,NA,NA,NA,NA,6,#741CD8,#D8271C,0,10,0,40,0,845.8999999761581,39,0,483.7000000476837,10,1,experiment,NA,NA,2,0.5,0.5,5,4,175,4,NA
fcp-trial,210,811444,0.0-185.0-0.0,voc_e2,12242,"[{""event"":""fullscreenenter"",""trial"":1,""time"":2642}]",NA,NA,NA,NA,NA,3,#3386FF,#D89F1C,10,10,1,38,1,541.6999999284744,37,1,637.2000000476837,10,1,experiment,NA,NA,1,0.7,0.3,2,3,176,4,NA
fcp-trial,211,814859,0.0-186.0-0.0,voc_e2,12242,"[{""event"":""fullscreenenter"",""trial"":1,""time"":2642}]",NA,NA,NA,NA,NA,5,#D8271C,#741CD8,0,10,1,38,1,1193.5,39,0,715.8000000715256,10,0,experiment,NA,NA,2,0.5,0.5,4,5,177,4,NA
fcp-trial,212,817952,0.0-187.0-0.0,voc_e2,12242,"[{""event"":""fullscreenenter"",""trial"":1,""time"":2642}]",NA,NA,NA,NA,NA,4,#1CD855,#FA92F8,0,10,0,38,1,1085.3000000715256,37,1,502.60000002384186,0,0,experiment,NA,NA,0,0.1,0.9,1,0,178,4,NA
fcp-trial,213,821145,0.0-188.0-0.0,voc_e2,12242,"[{""event"":""fullscreenenter"",""trial"":1,""time"":2642}]",NA,NA,NA,NA,NA,4,#3386FF,#D89F1C,0,0,1,38,1,1053.3999999761581,37,1,627.3000000715256,0,1,experiment,NA,NA,1,0.7,0.3,2,3,179,4,NA
fcp-trial,214,823690,0.0-189.0-0.0,voc_e2,12242,"[{""event"":""fullscreenenter"",""trial"":1,""time"":2642}]",NA,NA,NA,NA,NA,4,#D8271C,#741CD8,10,0,1,38,1,594.7999999523163,39,0,446.1999999284744,0,0,experiment,NA,NA,2,0.5,0.5,4,5,180,4,NA
fcp-trial,215,826005,0.0-190.0-0.0,voc_e2,12242,"[{""event"":""fullscreenenter"",""trial"":1,""time"":2642}]",NA,NA,NA,NA,NA,1,#3386FF,#D89F1C,0,0,1,38,1,299.39999997615814,37,1,507.8000000715256,0,1,experiment,NA,NA,1,0.7,0.3,2,3,181,5,NA
fcp-trial,216,828717,0.0-191.0-0.0,voc_e2,12242,"[{""event"":""fullscreenenter"",""trial"":1,""time"":2642}]",NA,NA,NA,NA,NA,0,#D8271C,#741CD8,0,0,1,38,1,757.2000000476837,39,0,449.2000000476837,0,0,experiment,NA,NA,2,0.5,0.5,4,5,182,5,NA
fcp-trial,217,831117,0.0-192.0-0.0,voc_e2,12242,"[{""event"":""fullscreenenter"",""trial"":1,""time"":2642}]",NA,NA,NA,NA,NA,5,#FA92F8,#1CD855,10,0,1,38,1,411.7000000476837,37,1,471.7000000476837,10,1,experiment,NA,NA,0,0.9,0.1,0,1,183,5,NA
fcp-trial,218,834171,0.0-193.0-0.0,voc_e2,12242,"[{""event"":""fullscreenenter"",""trial"":1,""time"":2642}]",NA,NA,NA,NA,NA,2,#741CD8,#D8271C,10,10,0,38,1,345.1999999284744,37,1,1197.0999999046326,10,0,experiment,NA,NA,2,0.5,0.5,5,4,184,5,NA
fcp-trial,219,837052,0.0-194.0-0.0,voc_e2,12242,"[{""event"":""fullscreenenter"",""trial"":1,""time"":2642}]",NA,NA,NA,NA,NA,6,#FA92F8,#1CD855,10,0,1,40,0,908.8000000715256,37,1,466.7999999523163,10,1,experiment,NA,NA,0,0.9,0.1,0,1,185,5,NA
fcp-trial,220,840138,0.0-195.0-0.0,voc_e2,12242,"[{""event"":""fullscreenenter"",""trial"":1,""time"":2642}]",NA,NA,NA,NA,NA,0,#D89F1C,#3386FF,0,10,0,38,1,914.3999999761581,39,0,665.5,10,1,experiment,NA,NA,1,0.3,0.7,3,2,186,5,NA
fcp-trial,221,842573,0.0-196.0-0.0,voc_e2,12242,"[{""event"":""fullscreenenter"",""trial"":1,""time"":2642}]",NA,NA,NA,NA,NA,1,#D8271C,#741CD8,0,10,1,38,1,379,39,0,551.2999999523163,10,0,experiment,NA,NA,2,0.5,0.5,4,5,187,5,NA
fcp-trial,222,845069,0.0-197.0-0.0,voc_e2,12242,"[{""event"":""fullscreenenter"",""trial"":1,""time"":2642}]",NA,NA,NA,NA,NA,5,#D89F1C,#3386FF,0,10,0,38,1,387.39999997615814,39,0,602.6999999284744,10,1,experiment,NA,NA,1,0.3,0.7,3,2,188,5,NA
fcp-trial,223,847530,0.0-198.0-0.0,voc_e2,12242,"[{""event"":""fullscreenenter"",""trial"":1,""time"":2642}]",NA,NA,NA,NA,NA,2,#D89F1C,#3386FF,10,0,0,38,1,398.1999999284744,39,0,557.5,0,1,experiment,NA,NA,1,0.3,0.7,3,2,189,5,NA
fcp-trial,224,850422,0.0-199.0-0.0,voc_e2,12242,"[{""event"":""fullscreenenter"",""trial"":1,""time"":2642}]",NA,NA,NA,NA,NA,5,#3386FF,#D89F1C,0,0,1,38,1,659.1999999284744,37,1,726.3999999761581,0,1,experiment,NA,NA,1,0.7,0.3,2,3,190,5,NA
fcp-trial,225,853082,0.0-200.0-0.0,voc_e2,12242,"[{""event"":""fullscreenenter"",""trial"":1,""time"":2642}]",NA,NA,NA,NA,NA,1,#741CD8,#D8271C,0,10,0,38,1,581.2999999523163,37,1,573.6000000238419,0,0,experiment,NA,NA,2,0.5,0.5,5,4,191,5,NA
fcp-trial,226,855710,0.0-201.0-0.0,voc_e2,12242,"[{""event"":""fullscreenenter"",""trial"":1,""time"":2642}]",NA,NA,NA,NA,NA,3,#1CD855,#FA92F8,10,10,0,38,1,480.7999999523163,39,0,634.5999999046326,10,1,experiment,NA,NA,0,0.1,0.9,1,0,192,5,NA
fcp-trial,227,858504,0.0-202.0-0.0,voc_e2,12242,"[{""event"":""fullscreenenter"",""trial"":1,""time"":2642}]",NA,NA,NA,NA,NA,2,#1CD855,#FA92F8,0,10,0,38,1,509.39999997615814,39,0,780.7000000476837,10,1,experiment,NA,NA,0,0.1,0.9,1,0,193,5,NA
fcp-trial,228,861528,0.0-203.0-0.0,voc_e2,12242,"[{""event"":""fullscreenenter"",""trial"":1,""time"":2642}]",NA,NA,NA,NA,NA,6,#D89F1C,#3386FF,10,0,0,40,0,1073.2999999523163,37,1,446.7000000476837,10,0,experiment,NA,NA,1,0.3,0.7,3,2,194,5,NA
fcp-trial,229,865140,0.0-204.0-0.0,voc_e2,12242,"[{""event"":""fullscreenenter"",""trial"":1,""time"":2642}]",NA,NA,NA,NA,NA,6,#741CD8,#D8271C,0,0,0,40,0,1550.1000000238419,37,1,556.3999999761581,0,0,experiment,NA,NA,2,0.5,0.5,5,4,195,5,NA
fcp-trial,230,868381,0.0-205.0-0.0,voc_e2,12242,"[{""event"":""fullscreenenter"",""trial"":1,""time"":2642}]",NA,NA,NA,NA,NA,5,#1CD855,#FA92F8,0,10,0,40,0,1220.2000000476837,39,0,516.2999999523163,10,1,experiment,NA,NA,0,0.1,0.9,1,0,196,5,NA
fcp-trial,231,871443,0.0-206.0-0.0,voc_e2,12242,"[{""event"":""fullscreenenter"",""trial"":1,""time"":2642}]",NA,NA,NA,NA,NA,0,#D89F1C,#3386FF,10,10,0,38,1,1044.9000000953674,39,0,504.5,10,1,experiment,NA,NA,1,0.3,0.7,3,2,197,5,NA
fcp-trial,232,874424,0.0-207.0-0.0,voc_e2,12242,"[{""event"":""fullscreenenter"",""trial"":1,""time"":2642}]",NA,NA,NA,NA,NA,4,#FA92F8,#1CD855,10,0,1,38,1,981.3999999761581,37,1,494.6999999284744,10,1,experiment,NA,NA,0,0.9,0.1,0,1,198,5,NA
fcp-trial,233,877251,0.0-208.0-0.0,voc_e2,12242,"[{""event"":""fullscreenenter"",""trial"":1,""time"":2642}]",NA,NA,NA,NA,NA,3,#3386FF,#D89F1C,0,0,1,38,1,826.8999999761581,37,1,496,0,1,experiment,NA,NA,1,0.7,0.3,2,3,199,5,NA
fcp-trial,234,880078,0.0-209.0-0.0,voc_e2,12242,"[{""event"":""fullscreenenter"",""trial"":1,""time"":2642}]",NA,NA,NA,NA,NA,0,#D8271C,#741CD8,0,10,1,38,1,636.9000000953674,39,0,679.0999999046326,10,0,experiment,NA,NA,2,0.5,0.5,4,5,200,5,NA
fcp-trial,235,882839,0.0-210.0-0.0,voc_e2,12242,"[{""event"":""fullscreenenter"",""trial"":1,""time"":2642}]",NA,NA,NA,NA,NA,0,#FA92F8,#1CD855,10,0,1,38,1,723.2999999523163,37,1,533.2999999523163,10,1,experiment,NA,NA,0,0.9,0.1,0,1,201,5,NA
fcp-trial,236,885692,0.0-211.0-0.0,voc_e2,12242,"[{""event"":""fullscreenenter"",""trial"":1,""time"":2642}]",NA,NA,NA,NA,NA,5,#D8271C,#741CD8,0,0,1,38,1,725.7999999523163,39,0,620.5,0,0,experiment,NA,NA,2,0.5,0.5,4,5,202,5,NA
fcp-trial,237,888837,0.0-212.0-0.0,voc_e2,12242,"[{""event"":""fullscreenenter"",""trial"":1,""time"":2642}]",NA,NA,NA,NA,NA,4,#3386FF,#D89F1C,10,0,1,38,1,782.2000000476837,37,1,856.7999999523163,10,1,experiment,NA,NA,1,0.7,0.3,2,3,203,5,NA
fcp-trial,238,891692,0.0-213.0-0.0,voc_e2,12242,"[{""event"":""fullscreenenter"",""trial"":1,""time"":2642}]",NA,NA,NA,NA,NA,1,#D89F1C,#3386FF,10,10,0,38,1,462.39999997615814,39,0,886.3999999761581,10,1,experiment,NA,NA,1,0.3,0.7,3,2,204,5,NA
fcp-trial,239,895659,0.0-214.0-0.0,voc_e2,12242,"[{""event"":""fullscreenenter"",""trial"":1,""time"":2642}]",NA,NA,NA,NA,NA,6,#FA92F8,#1CD855,10,0,1,38,1,1067,37,1,1395,10,1,experiment,NA,NA,0,0.9,0.1,0,1,205,5,NA
fcp-trial,240,899030,0.0-215.0-0.0,voc_e2,12242,"[{""event"":""fullscreenenter"",""trial"":1,""time"":2642}]",NA,NA,NA,NA,NA,3,#D8271C,#741CD8,10,0,1,38,1,646.8000000715256,39,0,1220.8000000715256,0,0,experiment,NA,NA,2,0.5,0.5,4,5,206,5,NA
fcp-trial,241,901778,0.0-216.0-0.0,voc_e2,12242,"[{""event"":""fullscreenenter"",""trial"":1,""time"":2642}]",NA,NA,NA,NA,NA,1,#FA92F8,#1CD855,10,0,1,38,1,769.6999999284744,37,1,472.10000002384186,10,1,experiment,NA,NA,0,0.9,0.1,0,1,207,5,NA
fcp-trial,242,904931,0.0-217.0-0.0,voc_e2,12242,"[{""event"":""fullscreenenter"",""trial"":1,""time"":2642}]",NA,NA,NA,NA,NA,2,#D89F1C,#3386FF,10,0,0,38,1,960.3999999761581,39,0,688.4000000953674,0,1,experiment,NA,NA,1,0.3,0.7,3,2,208,5,NA
fcp-trial,243,907806,0.0-218.0-0.0,voc_e2,12242,"[{""event"":""fullscreenenter"",""trial"":1,""time"":2642}]",NA,NA,NA,NA,NA,2,#D8271C,#741CD8,10,0,1,38,1,680.7999999523163,37,1,680.2999999523163,10,1,experiment,NA,NA,2,0.5,0.5,4,5,209,5,NA
fcp-trial,244,911148,0.0-219.0-0.0,voc_e2,12242,"[{""event"":""fullscreenenter"",""trial"":1,""time"":2642}]",NA,NA,NA,NA,NA,4,#741CD8,#D8271C,10,10,0,38,1,913.5999999046326,37,1,915.6999999284744,10,0,experiment,NA,NA,2,0.5,0.5,5,4,210,5,NA
audio-instructions,245,919460,0.0-220.0,voc_e2,12242,"[{""event"":""fullscreenenter"",""trial"":1,""time"":2642}]",NA,1099.6999999284744,static/audio/pause.wav,NA,0,NA,NA,NA,NA,NA,NA,NA,NA,NA,NA,NA,NA,NA,NA,NA,NA,NA,NA,NA,NA,NA,NA,NA,NA,NA
fcp-trial,246,922970,0.0-221.0-0.0,voc_e2,12242,"[{""event"":""fullscreenenter"",""trial"":1,""time"":2642}]",NA,NA,NA,NA,NA,5,#3386FF,#D89F1C,10,10,1,40,0,1434.2000000476837,39,0,554.8000000715256,10,0,experiment,NA,NA,1,0.7,0.3,2,3,211,5,NA
fcp-trial,247,925985,0.0-222.0-0.0,voc_e2,12242,"[{""event"":""fullscreenenter"",""trial"":1,""time"":2642}]",NA,NA,NA,NA,NA,2,#1CD855,#FA92F8,0,10,0,38,1,987.6000000238419,37,1,512.2000000476837,0,0,experiment,NA,NA,0,0.1,0.9,1,0,212,5,NA
fcp-trial,248,929135,0.0-223.0-0.0,voc_e2,12242,"[{""event"":""fullscreenenter"",""trial"":1,""time"":2642}]",NA,NA,NA,NA,NA,3,#D89F1C,#3386FF,0,10,0,38,1,1164.6000000238419,39,0,456.2000000476837,10,1,experiment,NA,NA,1,0.3,0.7,3,2,213,5,NA
fcp-trial,249,931867,0.0-224.0-0.0,voc_e2,12242,"[{""event"":""fullscreenenter"",""trial"":1,""time"":2642}]",NA,NA,NA,NA,NA,0,#1CD855,#FA92F8,0,10,0,38,1,676,39,0,533.2999999523163,10,1,experiment,NA,NA,0,0.1,0.9,1,0,214,5,NA
fcp-trial,250,934652,0.0-225.0-0.0,voc_e2,12242,"[{""event"":""fullscreenenter"",""trial"":1,""time"":2642}]",NA,NA,NA,NA,NA,4,#1CD855,#FA92F8,0,10,0,38,1,781.3999999761581,39,0,480.8000000715256,10,1,experiment,NA,NA,0,0.1,0.9,1,0,215,5,NA
fcp-trial,251,937796,0.0-226.0-0.0,voc_e2,12242,"[{""event"":""fullscreenenter"",""trial"":1,""time"":2642}]",NA,NA,NA,NA,NA,1,#D89F1C,#3386FF,10,10,0,38,1,667.3999999761581,39,0,961,10,1,experiment,NA,NA,1,0.3,0.7,3,2,216,5,NA
fcp-trial,252,940650,0.0-227.0-0.0,voc_e2,12242,"[{""event"":""fullscreenenter"",""trial"":1,""time"":2642}]",NA,NA,NA,NA,NA,1,#D8271C,#741CD8,0,0,1,38,1,680.5,39,0,657.7999999523163,0,0,experiment,NA,NA,2,0.5,0.5,4,5,217,5,NA
fcp-trial,253,943674,0.0-228.0-0.0,voc_e2,12242,"[{""event"":""fullscreenenter"",""trial"":1,""time"":2642}]",NA,NA,NA,NA,NA,5,#FA92F8,#1CD855,10,0,1,40,0,1002.2999999523163,39,0,503.90000009536743,0,0,experiment,NA,NA,0,0.9,0.1,0,1,218,5,NA
fcp-trial,254,946466,0.0-229.0-0.0,voc_e2,12242,"[{""event"":""fullscreenenter"",""trial"":1,""time"":2642}]",NA,NA,NA,NA,NA,6,#741CD8,#D8271C,0,0,0,38,1,509.2000000476837,37,1,754.8999999761581,0,0,experiment,NA,NA,2,0.5,0.5,5,4,219,5,NA
fcp-trial,255,949423,0.0-230.0-0.0,voc_e2,12242,"[{""event"":""fullscreenenter"",""trial"":1,""time"":2642}]",NA,NA,NA,NA,NA,4,#3386FF,#D89F1C,0,0,1,38,1,805.5999999046326,37,1,639.3999999761581,0,1,experiment,NA,NA,1,0.7,0.3,2,3,220,5,NA
fcp-trial,256,952437,0.0-231.0-0.0,voc_e2,12242,"[{""event"":""fullscreenenter"",""trial"":1,""time"":2642}]",NA,NA,NA,NA,NA,5,#D8271C,#741CD8,10,0,1,40,0,1023.3999999761581,37,1,481.60000002384186,10,1,experiment,NA,NA,2,0.5,0.5,4,5,221,5,NA
fcp-trial,257,955542,0.0-232.0-0.0,voc_e2,12242,"[{""event"":""fullscreenenter"",""trial"":1,""time"":2642}]",NA,NA,NA,NA,NA,6,#D89F1C,#3386FF,10,10,0,40,0,1147.6000000238419,39,0,450.5,10,1,experiment,NA,NA,1,0.3,0.7,3,2,222,5,NA
fcp-trial,258,958722,0.0-233.0-0.0,voc_e2,12242,"[{""event"":""fullscreenenter"",""trial"":1,""time"":2642}]",NA,NA,NA,NA,NA,1,#1CD855,#FA92F8,0,10,0,38,1,540.1999999284744,39,0,1133.600000023842,10,1,experiment,NA,NA,0,0.1,0.9,1,0,223,5,NA
fcp-trial,259,961403,0.0-234.0-0.0,voc_e2,12242,"[{""event"":""fullscreenenter"",""trial"":1,""time"":2642}]",NA,NA,NA,NA,NA,3,#D8271C,#741CD8,0,10,1,38,1,710.5,39,0,463.5,10,0,experiment,NA,NA,2,0.5,0.5,4,5,224,5,NA
fcp-trial,260,964020,0.0-235.0-0.0,voc_e2,12242,"[{""event"":""fullscreenenter"",""trial"":1,""time"":2642}]",NA,NA,NA,NA,NA,2,#D8271C,#741CD8,10,10,1,38,1,598.7999999523163,39,0,511.2999999523163,10,0,experiment,NA,NA,2,0.5,0.5,4,5,225,5,NA
fcp-trial,261,966712,0.0-236.0-0.0,voc_e2,12242,"[{""event"":""fullscreenenter"",""trial"":1,""time"":2642}]",NA,NA,NA,NA,NA,2,#D89F1C,#3386FF,0,10,0,38,1,635.1000000238419,39,0,552.6000000238419,10,1,experiment,NA,NA,1,0.3,0.7,3,2,226,6,NA
fcp-trial,262,969797,0.0-237.0-0.0,voc_e2,12242,"[{""event"":""fullscreenenter"",""trial"":1,""time"":2642}]",NA,NA,NA,NA,NA,6,#FA92F8,#1CD855,10,0,1,40,0,830.5999999046326,39,0,746.8999999761581,0,0,experiment,NA,NA,0,0.9,0.1,0,1,227,6,NA
fcp-trial,263,972235,0.0-238.0-0.0,voc_e2,12242,"[{""event"":""fullscreenenter"",""trial"":1,""time"":2642}]",NA,NA,NA,NA,NA,4,#D8271C,#741CD8,10,0,1,38,1,351,39,0,578.2000000476837,0,0,experiment,NA,NA,2,0.5,0.5,4,5,228,6,NA
fcp-trial,264,974803,0.0-239.0-0.0,voc_e2,12242,"[{""event"":""fullscreenenter"",""trial"":1,""time"":2642}]",NA,NA,NA,NA,NA,0,#D8271C,#741CD8,10,10,1,38,1,548.8999999761581,39,0,512.5999999046326,10,0,experiment,NA,NA,2,0.5,0.5,4,5,229,6,NA
fcp-trial,265,977448,0.0-240.0-0.0,voc_e2,12242,"[{""event"":""fullscreenenter"",""trial"":1,""time"":2642}]",NA,NA,NA,NA,NA,3,#1CD855,#FA92F8,0,10,0,38,1,571.5,39,0,566.5,10,1,experiment,NA,NA,0,0.1,0.9,1,0,230,6,NA
fcp-trial,266,980027,0.0-241.0-0.0,voc_e2,12242,"[{""event"":""fullscreenenter"",""trial"":1,""time"":2642}]",NA,NA,NA,NA,NA,0,#3386FF,#D89F1C,10,0,1,38,1,458.7000000476837,37,1,611,10,1,experiment,NA,NA,1,0.7,0.3,2,3,231,6,NA
fcp-trial,267,982808,0.0-242.0-0.0,voc_e2,12242,"[{""event"":""fullscreenenter"",""trial"":1,""time"":2642}]",NA,NA,NA,NA,NA,6,#D8271C,#741CD8,0,10,1,40,0,723.5,39,0,551,10,0,experiment,NA,NA,2,0.5,0.5,4,5,232,6,NA
fcp-trial,268,985806,0.0-243.0-0.0,voc_e2,12242,"[{""event"":""fullscreenenter"",""trial"":1,""time"":2642}]",NA,NA,NA,NA,NA,5,#3386FF,#D89F1C,0,0,1,38,1,905.6999999284744,37,1,583.6000000238419,0,1,experiment,NA,NA,1,0.7,0.3,2,3,233,6,NA
fcp-trial,269,988555,0.0-244.0-0.0,voc_e2,12242,"[{""event"":""fullscreenenter"",""trial"":1,""time"":2642}]",NA,NA,NA,NA,NA,2,#1CD855,#FA92F8,0,10,0,38,1,796.2000000476837,39,0,446.39999997615814,10,1,experiment,NA,NA,0,0.1,0.9,1,0,234,6,NA
fcp-trial,270,991541,0.0-245.0-0.0,voc_e2,12242,"[{""event"":""fullscreenenter"",""trial"":1,""time"":2642}]",NA,NA,NA,NA,NA,1,#741CD8,#D8271C,0,10,0,38,1,883.6999999284744,37,1,594.7000000476837,0,0,experiment,NA,NA,2,0.5,0.5,5,4,235,6,NA
fcp-trial,271,994640,0.0-246.0-0.0,voc_e2,12242,"[{""event"":""fullscreenenter"",""trial"":1,""time"":2642}]",NA,NA,NA,NA,NA,5,#1CD855,#FA92F8,0,10,0,40,0,1004,39,0,587.3000000715256,10,1,experiment,NA,NA,0,0.1,0.9,1,0,236,6,NA
fcp-trial,272,997156,0.0-247.0-0.0,voc_e2,12242,"[{""event"":""fullscreenenter"",""trial"":1,""time"":2642}]",NA,NA,NA,NA,NA,2,#3386FF,#D89F1C,10,10,1,38,1,493.39999997615814,37,1,516.6999999284744,10,1,experiment,NA,NA,1,0.7,0.3,2,3,237,6,NA
fcp-trial,273,1000001,0.0-248.0-0.0,voc_e2,12242,"[{""event"":""fullscreenenter"",""trial"":1,""time"":2642}]",NA,NA,NA,NA,NA,6,#D89F1C,#3386FF,10,10,0,40,0,708.8999999761581,39,0,627.7999999523163,10,1,experiment,NA,NA,1,0.3,0.7,3,2,238,6,NA
fcp-trial,274,1002938,0.0-249.0-0.0,voc_e2,12242,"[{""event"":""fullscreenenter"",""trial"":1,""time"":2642}]",NA,NA,NA,NA,NA,6,#FA92F8,#1CD855,0,0,1,40,0,750.3999999761581,39,0,680.1999999284744,0,0,experiment,NA,NA,0,0.9,0.1,0,1,239,6,NA
fcp-trial,275,1005573,0.0-250.0-0.0,voc_e2,12242,"[{""event"":""fullscreenenter"",""trial"":1,""time"":2642}]",NA,NA,NA,NA,NA,2,#D8271C,#741CD8,0,0,1,38,1,634.8999999761581,39,0,493.39999997615814,0,0,experiment,NA,NA,2,0.5,0.5,4,5,240,6,NA
fcp-trial,276,1008436,0.0-251.0-0.0,voc_e2,12242,"[{""event"":""fullscreenenter"",""trial"":1,""time"":2642}]",NA,NA,NA,NA,NA,1,#FA92F8,#1CD855,10,0,1,38,1,774.2000000476837,37,1,583.1000000238419,10,1,experiment,NA,NA,0,0.9,0.1,0,1,241,6,NA
fcp-trial,277,1011271,0.0-252.0-0.0,voc_e2,12242,"[{""event"":""fullscreenenter"",""trial"":1,""time"":2642}]",NA,NA,NA,NA,NA,4,#FA92F8,#1CD855,10,0,1,38,1,664.6000000238419,37,1,663.5,10,1,experiment,NA,NA,0,0.9,0.1,0,1,242,6,NA
fcp-trial,278,1013797,0.0-253.0-0.0,voc_e2,12242,"[{""event"":""fullscreenenter"",""trial"":1,""time"":2642}]",NA,NA,NA,NA,NA,1,#D89F1C,#3386FF,0,0,0,38,1,564.7000000476837,39,0,455.6999999284744,0,1,experiment,NA,NA,1,0.3,0.7,3,2,243,6,NA
fcp-trial,279,1016758,0.0-254.0-0.0,voc_e2,12242,"[{""event"":""fullscreenenter"",""trial"":1,""time"":2642}]",NA,NA,NA,NA,NA,3,#3386FF,#D89F1C,10,10,1,38,1,999.6999999284744,37,1,449.8000000715256,10,1,experiment,NA,NA,1,0.7,0.3,2,3,244,6,NA
fcp-trial,280,1020126,0.0-255.0-0.0,voc_e2,12242,"[{""event"":""fullscreenenter"",""trial"":1,""time"":2642}]",NA,NA,NA,NA,NA,3,#D8271C,#741CD8,0,0,1,38,1,923.1999999284744,39,0,938.100000023842,0,0,experiment,NA,NA,2,0.5,0.5,4,5,245,6,NA
fcp-trial,281,1023785,0.0-256.0-0.0,voc_e2,12242,"[{""event"":""fullscreenenter"",""trial"":1,""time"":2642}]",NA,NA,NA,NA,NA,3,#FA92F8,#1CD855,10,10,1,38,1,1706.6000000238419,37,1,443.7999999523163,10,1,experiment,NA,NA,0,0.9,0.1,0,1,246,6,NA
fcp-trial,282,1026544,0.0-257.0-0.0,voc_e2,12242,"[{""event"":""fullscreenenter"",""trial"":1,""time"":2642}]",NA,NA,NA,NA,NA,0,#D89F1C,#3386FF,0,10,0,38,1,695.8000000715256,39,0,555.8000000715256,10,1,experiment,NA,NA,1,0.3,0.7,3,2,247,6,NA
fcp-trial,283,1029646,0.0-258.0-0.0,voc_e2,12242,"[{""event"":""fullscreenenter"",""trial"":1,""time"":2642}]",NA,NA,NA,NA,NA,4,#741CD8,#D8271C,10,0,0,40,0,1088.2000000476837,39,0,509.10000002384186,0,1,experiment,NA,NA,2,0.5,0.5,5,4,248,6,NA
fcp-trial,284,1032731,0.0-259.0-0.0,voc_e2,12242,"[{""event"":""fullscreenenter"",""trial"":1,""time"":2642}]",NA,NA,NA,NA,NA,0,#FA92F8,#1CD855,10,0,1,38,1,1090.5999999046326,37,1,476.10000002384186,10,1,experiment,NA,NA,0,0.9,0.1,0,1,249,6,NA
fcp-trial,285,1036484,0.0-260.0-0.0,voc_e2,12242,"[{""event"":""fullscreenenter"",""trial"":1,""time"":2642}]",NA,NA,NA,NA,NA,5,#741CD8,#D8271C,0,10,0,38,1,1472,37,1,770.8000000715256,0,0,experiment,NA,NA,2,0.5,0.5,5,4,250,6,NA
fcp-trial,286,1039255,0.0-261.0-0.0,voc_e2,12242,"[{""event"":""fullscreenenter"",""trial"":1,""time"":2642}]",NA,NA,NA,NA,NA,4,#D89F1C,#3386FF,0,10,0,40,0,828.8999999761581,39,0,433.5,10,1,experiment,NA,NA,1,0.3,0.7,3,2,251,6,NA
fcp-trial,287,1042296,0.0-262.0-0.0,voc_e2,12242,"[{""event"":""fullscreenenter"",""trial"":1,""time"":2642}]",NA,NA,NA,NA,NA,0,#D8271C,#741CD8,10,0,1,38,1,874.3999999761581,39,0,660.2000000476837,0,0,experiment,NA,NA,2,0.5,0.5,4,5,252,6,NA
fcp-trial,288,1045426,0.0-263.0-0.0,voc_e2,12242,"[{""event"":""fullscreenenter"",""trial"":1,""time"":2642}]",NA,NA,NA,NA,NA,6,#FA92F8,#1CD855,0,0,1,40,0,970.7999999523163,39,0,648.3999999761581,0,0,experiment,NA,NA,0,0.9,0.1,0,1,253,6,NA
fcp-trial,289,1048494,0.0-264.0-0.0,voc_e2,12242,"[{""event"":""fullscreenenter"",""trial"":1,""time"":2642}]",NA,NA,NA,NA,NA,1,#D89F1C,#3386FF,0,10,0,38,1,1024.7999999523163,39,0,535.5,10,1,experiment,NA,NA,1,0.3,0.7,3,2,254,6,NA
fcp-trial,290,1051529,0.0-265.0-0.0,voc_e2,12242,"[{""event"":""fullscreenenter"",""trial"":1,""time"":2642}]",NA,NA,NA,NA,NA,4,#1CD855,#FA92F8,10,10,0,38,1,919.8000000715256,39,0,596.0999999046326,10,1,experiment,NA,NA,0,0.1,0.9,1,0,255,6,NA
fcp-trial,291,1054521,0.0-266.0-0.0,voc_e2,12242,"[{""event"":""fullscreenenter"",""trial"":1,""time"":2642}]",NA,NA,NA,NA,NA,5,#741CD8,#D8271C,0,0,0,40,0,1032.6000000238419,37,1,449.7999999523163,0,0,experiment,NA,NA,2,0.5,0.5,5,4,256,6,NA
fcp-trial,292,1057855,0.0-267.0-0.0,voc_e2,12242,"[{""event"":""fullscreenenter"",""trial"":1,""time"":2642}]",NA,NA,NA,NA,NA,2,#D89F1C,#3386FF,0,10,0,38,1,1362,39,0,465,10,1,experiment,NA,NA,1,0.3,0.7,3,2,257,6,NA
fcp-trial,293,1061586,0.0-268.0-0.0,voc_e2,12242,"[{""event"":""fullscreenenter"",""trial"":1,""time"":2642}]",NA,NA,NA,NA,NA,2,#1CD855,#FA92F8,0,10,0,38,1,1043.8999999761581,39,0,1178.899999976158,10,1,experiment,NA,NA,0,0.1,0.9,1,0,258,6,NA
fcp-trial,294,1065158,0.0-269.0-0.0,voc_e2,12242,"[{""event"":""fullscreenenter"",""trial"":1,""time"":2642}]",NA,NA,NA,NA,NA,2,#741CD8,#D8271C,0,10,0,38,1,1614.8999999761581,37,1,451.10000002384186,0,0,experiment,NA,NA,2,0.5,0.5,5,4,259,6,NA
fcp-trial,295,1067986,0.0-270.0-0.0,voc_e2,12242,"[{""event"":""fullscreenenter"",""trial"":1,""time"":2642}]",NA,NA,NA,NA,NA,5,#1CD855,#FA92F8,0,10,0,40,0,825.5,39,0,497.10000002384186,10,1,experiment,NA,NA,0,0.1,0.9,1,0,260,6,NA
fcp-trial,296,1071027,0.0-271.0-0.0,voc_e2,12242,"[{""event"":""fullscreenenter"",""trial"":1,""time"":2642}]",NA,NA,NA,NA,NA,1,#D8271C,#741CD8,0,0,1,38,1,820.5,39,0,714.5,0,0,experiment,NA,NA,2,0.5,0.5,4,5,261,6,NA
fcp-trial,297,1073927,0.0-272.0-0.0,voc_e2,12242,"[{""event"":""fullscreenenter"",""trial"":1,""time"":2642}]",NA,NA,NA,NA,NA,3,#D89F1C,#3386FF,10,10,0,38,1,639.5999999046326,39,0,753.1999999284744,10,1,experiment,NA,NA,1,0.3,0.7,3,2,262,6,NA
fcp-trial,298,1076688,0.0-273.0-0.0,voc_e2,12242,"[{""event"":""fullscreenenter"",""trial"":1,""time"":2642}]",NA,NA,NA,NA,NA,0,#D89F1C,#3386FF,0,10,0,38,1,670.7000000476837,39,0,582.5,10,1,experiment,NA,NA,1,0.3,0.7,3,2,263,6,NA
fcp-trial,299,1079988,0.0-274.0-0.0,voc_e2,12242,"[{""event"":""fullscreenenter"",""trial"":1,""time"":2642}]",NA,NA,NA,NA,NA,4,#D8271C,#741CD8,10,0,1,38,1,758.7999999523163,39,0,1034.100000023842,0,0,experiment,NA,NA,2,0.5,0.5,4,5,264,6,NA
fcp-trial,300,1082850,0.0-275.0-0.0,voc_e2,12242,"[{""event"":""fullscreenenter"",""trial"":1,""time"":2642}]",NA,NA,NA,NA,NA,1,#1CD855,#FA92F8,0,0,0,38,1,693.8999999761581,39,0,660.2999999523163,0,1,experiment,NA,NA,0,0.1,0.9,1,0,265,6,NA
fcp-trial,301,1085719,0.0-276.0-0.0,voc_e2,12242,"[{""event"":""fullscreenenter"",""trial"":1,""time"":2642}]",NA,NA,NA,NA,NA,0,#D8271C,#741CD8,0,0,1,38,1,292.2000000476837,39,0,1066.899999976158,0,0,experiment,NA,NA,2,0.5,0.5,4,5,266,6,NA
fcp-trial,302,1089577,0.0-277.0-0.0,voc_e2,12242,"[{""event"":""fullscreenenter"",""trial"":1,""time"":2642}]",NA,NA,NA,NA,NA,5,#3386FF,#D89F1C,10,0,1,38,1,797.3000000715256,37,1,1554.600000023842,10,1,experiment,NA,NA,1,0.7,0.3,2,3,267,6,NA
fcp-trial,303,1092390,0.0-278.0-0.0,voc_e2,12242,"[{""event"":""fullscreenenter"",""trial"":1,""time"":2642}]",NA,NA,NA,NA,NA,6,#D89F1C,#3386FF,10,0,0,40,0,737.6999999284744,39,0,565.5,0,1,experiment,NA,NA,1,0.3,0.7,3,2,268,6,NA
fcp-trial,304,1096595,0.0-279.0-0.0,voc_e2,12242,"[{""event"":""fullscreenenter"",""trial"":1,""time"":2642}]",NA,NA,NA,NA,NA,3,#741CD8,#D8271C,0,10,0,38,1,939.6000000238419,37,1,1756.7999999523165,0,0,experiment,NA,NA,2,0.5,0.5,5,4,269,6,NA
fcp-trial,305,1100110,0.0-280.0-0.0,voc_e2,12242,"[{""event"":""fullscreenenter"",""trial"":1,""time"":2642}]",NA,NA,NA,NA,NA,0,#1CD855,#FA92F8,0,10,0,38,1,846.2999999523163,39,0,1159.1999999284744,10,1,experiment,NA,NA,0,0.1,0.9,1,0,270,6,NA
fcp-trial,306,1103085,0.0-281.0-0.0,voc_e2,12242,"[{""event"":""fullscreenenter"",""trial"":1,""time"":2642}]",NA,NA,NA,NA,NA,6,#D8271C,#741CD8,0,10,1,40,0,1003.1000000238419,37,1,462.09999990463257,0,1,experiment,NA,NA,2,0.5,0.5,4,5,271,7,NA
fcp-trial,307,1106397,0.0-282.0-0.0,voc_e2,12242,"[{""event"":""fullscreenenter"",""trial"":1,""time"":2642}]",NA,NA,NA,NA,NA,3,#FA92F8,#1CD855,0,0,1,38,1,1078.6000000238419,37,1,724.6000000238419,0,1,experiment,NA,NA,0,0.9,0.1,0,1,272,7,NA
fcp-trial,308,1109537,0.0-283.0-0.0,voc_e2,12242,"[{""event"":""fullscreenenter"",""trial"":1,""time"":2642}]",NA,NA,NA,NA,NA,4,#D89F1C,#3386FF,0,10,0,40,0,1082.8000000715256,37,1,545.3999999761581,0,0,experiment,NA,NA,1,0.3,0.7,3,2,273,7,NA
fcp-trial,309,1112974,0.0-284.0-0.0,voc_e2,12242,"[{""event"":""fullscreenenter"",""trial"":1,""time"":2642}]",NA,NA,NA,NA,NA,1,#FA92F8,#1CD855,10,0,1,38,1,1133.6000000238419,37,1,797.6000000238419,10,1,experiment,NA,NA,0,0.9,0.1,0,1,274,7,NA
fcp-trial,310,1115975,0.0-285.0-0.0,voc_e2,12242,"[{""event"":""fullscreenenter"",""trial"":1,""time"":2642}]",NA,NA,NA,NA,NA,1,#3386FF,#D89F1C,10,10,1,38,1,754.5,37,1,738,10,1,experiment,NA,NA,1,0.7,0.3,2,3,275,7,NA
fcp-trial,311,1118619,0.0-286.0-0.0,voc_e2,12242,"[{""event"":""fullscreenenter"",""trial"":1,""time"":2642}]",NA,NA,NA,NA,NA,2,#D89F1C,#3386FF,0,10,0,38,1,619.6000000238419,39,0,516.1000000238419,10,1,experiment,NA,NA,1,0.3,0.7,3,2,276,7,NA
fcp-trial,312,1121478,0.0-287.0-0.0,voc_e2,12242,"[{""event"":""fullscreenenter"",""trial"":1,""time"":2642}]",NA,NA,NA,NA,NA,2,#D8271C,#741CD8,10,0,1,38,1,726.5,39,0,627,0,0,experiment,NA,NA,2,0.5,0.5,4,5,277,7,NA
fcp-trial,313,1124416,0.0-288.0-0.0,voc_e2,12242,"[{""event"":""fullscreenenter"",""trial"":1,""time"":2642}]",NA,NA,NA,NA,NA,6,#FA92F8,#1CD855,10,0,1,38,1,665.3999999761581,37,1,761.2999999523163,10,1,experiment,NA,NA,0,0.9,0.1,0,1,278,7,NA
fcp-trial,314,1127478,0.0-289.0-0.0,voc_e2,12242,"[{""event"":""fullscreenenter"",""trial"":1,""time"":2642}]",NA,NA,NA,NA,NA,4,#741CD8,#D8271C,10,0,0,40,0,889.4000000953674,39,0,667.3999999761581,0,1,experiment,NA,NA,2,0.5,0.5,5,4,279,7,NA
fcp-trial,315,1130603,0.0-290.0-0.0,voc_e2,12242,"[{""event"":""fullscreenenter"",""trial"":1,""time"":2642}]",NA,NA,NA,NA,NA,5,#D89F1C,#3386FF,0,10,0,40,0,1113.7999999523163,37,1,501.60000002384186,0,0,experiment,NA,NA,1,0.3,0.7,3,2,280,7,NA
fcp-trial,316,1134309,0.0-291.0-0.0,voc_e2,12242,"[{""event"":""fullscreenenter"",""trial"":1,""time"":2642}]",NA,NA,NA,NA,NA,0,#D8271C,#741CD8,0,10,1,38,1,888.8999999761581,39,0,1310.7999999523165,10,0,experiment,NA,NA,2,0.5,0.5,4,5,281,7,NA
fcp-trial,317,1137107,0.0-292.0-0.0,voc_e2,12242,"[{""event"":""fullscreenenter"",""trial"":1,""time"":2642}]",NA,NA,NA,NA,NA,1,#D8271C,#741CD8,0,0,1,38,1,658.7000000476837,37,1,631.6000000238419,0,1,experiment,NA,NA,2,0.5,0.5,4,5,282,7,NA
fcp-trial,318,1139841,0.0-293.0-0.0,voc_e2,12242,"[{""event"":""fullscreenenter"",""trial"":1,""time"":2642}]",NA,NA,NA,NA,NA,0,#1CD855,#FA92F8,0,10,0,38,1,672,39,0,554.7000000476837,10,1,experiment,NA,NA,0,0.1,0.9,1,0,283,7,NA
fcp-trial,319,1143020,0.0-294.0-0.0,voc_e2,12242,"[{""event"":""fullscreenenter"",""trial"":1,""time"":2642}]",NA,NA,NA,NA,NA,3,#1CD855,#FA92F8,0,10,0,38,1,762.5,39,0,911,10,1,experiment,NA,NA,0,0.1,0.9,1,0,284,7,NA
fcp-trial,320,1145931,0.0-295.0-0.0,voc_e2,12242,"[{""event"":""fullscreenenter"",""trial"":1,""time"":2642}]",NA,NA,NA,NA,NA,4,#3386FF,#D89F1C,10,0,1,40,0,791.3999999761581,39,0,614.0999999046326,0,0,experiment,NA,NA,1,0.7,0.3,2,3,285,7,NA
fcp-trial,321,1148851,0.0-296.0-0.0,voc_e2,12242,"[{""event"":""fullscreenenter"",""trial"":1,""time"":2642}]",NA,NA,NA,NA,NA,5,#1CD855,#FA92F8,0,0,0,40,0,794,39,0,617.6000000238419,0,1,experiment,NA,NA,0,0.1,0.9,1,0,286,7,NA
fcp-trial,322,1152072,0.0-297.0-0.0,voc_e2,12242,"[{""event"":""fullscreenenter"",""trial"":1,""time"":2642}]",NA,NA,NA,NA,NA,6,#741CD8,#D8271C,10,10,0,40,0,483.7000000476837,39,0,1229.899999976158,10,1,experiment,NA,NA,2,0.5,0.5,5,4,287,7,NA
fcp-trial,323,1154932,0.0-298.0-0.0,voc_e2,12242,"[{""event"":""fullscreenenter"",""trial"":1,""time"":2642}]",NA,NA,NA,NA,NA,2,#1CD855,#FA92F8,10,10,0,38,1,825.6000000238419,39,0,521.6999999284744,10,1,experiment,NA,NA,0,0.1,0.9,1,0,288,7,NA
fcp-trial,324,1157776,0.0-299.0-0.0,voc_e2,12242,"[{""event"":""fullscreenenter"",""trial"":1,""time"":2642}]",NA,NA,NA,NA,NA,3,#741CD8,#D8271C,0,10,0,38,1,863.6999999284744,37,1,473.5,0,0,experiment,NA,NA,2,0.5,0.5,5,4,289,7,NA
fcp-trial,325,1161579,0.0-300.0-0.0,voc_e2,12242,"[{""event"":""fullscreenenter"",""trial"":1,""time"":2642}]",NA,NA,NA,NA,NA,6,#3386FF,#D89F1C,10,10,1,40,0,1219,37,1,1072.899999976158,10,1,experiment,NA,NA,1,0.7,0.3,2,3,290,7,NA
fcp-trial,326,1164948,0.0-301.0-0.0,voc_e2,12242,"[{""event"":""fullscreenenter"",""trial"":1,""time"":2642}]",NA,NA,NA,NA,NA,4,#FA92F8,#1CD855,10,0,1,38,1,1100,37,1,759.7000000476837,10,1,experiment,NA,NA,0,0.9,0.1,0,1,291,7,NA
fcp-trial,327,1167798,0.0-302.0-0.0,voc_e2,12242,"[{""event"":""fullscreenenter"",""trial"":1,""time"":2642}]",NA,NA,NA,NA,NA,5,#741CD8,#D8271C,10,0,0,40,0,725,37,1,615,10,0,experiment,NA,NA,2,0.5,0.5,5,4,292,7,NA
fcp-trial,328,1170885,0.0-303.0-0.0,voc_e2,12242,"[{""event"":""fullscreenenter"",""trial"":1,""time"":2642}]",NA,NA,NA,NA,NA,0,#3386FF,#D89F1C,10,0,1,38,1,981.7000000476837,37,1,598.4000000953674,10,1,experiment,NA,NA,1,0.7,0.3,2,3,293,7,NA
fcp-trial,329,1174010,0.0-304.0-0.0,voc_e2,12242,"[{""event"":""fullscreenenter"",""trial"":1,""time"":2642}]",NA,NA,NA,NA,NA,3,#3386FF,#D89F1C,10,10,1,38,1,991.4000000953674,37,1,626.8999999761581,10,1,experiment,NA,NA,1,0.7,0.3,2,3,294,7,NA
fcp-trial,330,1177148,0.0-305.0-0.0,voc_e2,12242,"[{""event"":""fullscreenenter"",""trial"":1,""time"":2642}]",NA,NA,NA,NA,NA,2,#D8271C,#741CD8,10,10,1,38,1,890.2000000476837,39,0,738.5,10,0,experiment,NA,NA,2,0.5,0.5,4,5,295,7,NA
fcp-trial,331,1180112,0.0-306.0-0.0,voc_e2,12242,"[{""event"":""fullscreenenter"",""trial"":1,""time"":2642}]",NA,NA,NA,NA,NA,0,#FA92F8,#1CD855,10,0,1,38,1,831.8999999761581,37,1,623.3999999761581,10,1,experiment,NA,NA,0,0.9,0.1,0,1,296,7,NA
fcp-trial,332,1182915,0.0-307.0-0.0,voc_e2,12242,"[{""event"":""fullscreenenter"",""trial"":1,""time"":2642}]",NA,NA,NA,NA,NA,2,#1CD855,#FA92F8,0,10,0,38,1,695.6000000238419,39,0,597.3999999761581,10,1,experiment,NA,NA,0,0.1,0.9,1,0,297,7,NA
fcp-trial,333,1186065,0.0-308.0-0.0,voc_e2,12242,"[{""event"":""fullscreenenter"",""trial"":1,""time"":2642}]",NA,NA,NA,NA,NA,0,#3386FF,#D89F1C,10,10,1,38,1,804.3999999761581,37,1,832.8000000715256,10,1,experiment,NA,NA,1,0.7,0.3,2,3,298,7,NA
fcp-trial,334,1189156,0.0-309.0-0.0,voc_e2,12242,"[{""event"":""fullscreenenter"",""trial"":1,""time"":2642}]",NA,NA,NA,NA,NA,6,#1CD855,#FA92F8,0,0,0,40,0,1009.2999999523163,39,0,571.8000000715256,0,1,experiment,NA,NA,0,0.1,0.9,1,0,299,7,NA
fcp-trial,335,1192386,0.0-310.0-0.0,voc_e2,12242,"[{""event"":""fullscreenenter"",""trial"":1,""time"":2642}]",NA,NA,NA,NA,NA,6,#D8271C,#741CD8,0,10,1,40,0,1065.2999999523163,39,0,657.3000000715256,10,0,experiment,NA,NA,2,0.5,0.5,4,5,300,7,NA
fcp-trial,336,1195236,0.0-311.0-0.0,voc_e2,12242,"[{""event"":""fullscreenenter"",""trial"":1,""time"":2642}]",NA,NA,NA,NA,NA,4,#FA92F8,#1CD855,10,0,1,40,0,813.1000000238419,37,1,528.7999999523163,10,1,experiment,NA,NA,0,0.9,0.1,0,1,301,7,NA
fcp-trial,337,1198153,0.0-312.0-0.0,voc_e2,12242,"[{""event"":""fullscreenenter"",""trial"":1,""time"":2642}]",NA,NA,NA,NA,NA,6,#3386FF,#D89F1C,10,10,1,40,0,800.8999999761581,37,1,608.3999999761581,10,1,experiment,NA,NA,1,0.7,0.3,2,3,302,7,NA
fcp-trial,338,1200868,0.0-313.0-0.0,voc_e2,12242,"[{""event"":""fullscreenenter"",""trial"":1,""time"":2642}]",NA,NA,NA,NA,NA,5,#741CD8,#D8271C,10,0,0,40,0,641.7000000476837,39,0,566.2999999523163,0,1,experiment,NA,NA,2,0.5,0.5,5,4,303,7,NA
fcp-trial,339,1204419,0.0-314.0-0.0,voc_e2,12242,"[{""event"":""fullscreenenter"",""trial"":1,""time"":2642}]",NA,NA,NA,NA,NA,1,#D89F1C,#3386FF,10,10,0,38,1,1392.5,39,0,652.3999999761581,10,1,experiment,NA,NA,1,0.3,0.7,3,2,304,7,NA
fcp-trial,340,1207368,0.0-315.0-0.0,voc_e2,12242,"[{""event"":""fullscreenenter"",""trial"":1,""time"":2642}]",NA,NA,NA,NA,NA,1,#FA92F8,#1CD855,10,0,1,38,1,889.6999999284744,37,1,552.1000000238419,10,1,experiment,NA,NA,0,0.9,0.1,0,1,305,7,NA
fcp-trial,341,1210292,0.0-316.0-0.0,voc_e2,12242,"[{""event"":""fullscreenenter"",""trial"":1,""time"":2642}]",NA,NA,NA,NA,NA,5,#3386FF,#D89F1C,10,10,1,40,0,906.0999999046326,39,0,509.10000002384186,10,0,experiment,NA,NA,1,0.7,0.3,2,3,306,7,NA
fcp-trial,342,1213258,0.0-317.0-0.0,voc_e2,12242,"[{""event"":""fullscreenenter"",""trial"":1,""time"":2642}]",NA,NA,NA,NA,NA,1,#741CD8,#D8271C,0,10,0,38,1,921.8999999761581,37,1,535.1000000238419,0,0,experiment,NA,NA,2,0.5,0.5,5,4,307,7,NA
fcp-trial,343,1216870,0.0-318.0-0.0,voc_e2,12242,"[{""event"":""fullscreenenter"",""trial"":1,""time"":2642}]",NA,NA,NA,NA,NA,3,#FA92F8,#1CD855,10,0,1,38,1,1036.2999999523163,37,1,1068.899999976158,10,1,experiment,NA,NA,0,0.9,0.1,0,1,308,7,NA
fcp-trial,344,1219778,0.0-319.0-0.0,voc_e2,12242,"[{""event"":""fullscreenenter"",""trial"":1,""time"":2642}]",NA,NA,NA,NA,NA,3,#D8271C,#741CD8,10,0,1,38,1,971.6000000238419,39,0,427.39999997615814,0,0,experiment,NA,NA,2,0.5,0.5,4,5,309,7,NA
fcp-trial,345,1223871,0.0-320.0-0.0,voc_e2,12242,"[{""event"":""fullscreenenter"",""trial"":1,""time"":2642}]",NA,NA,NA,NA,NA,3,#3386FF,#D89F1C,0,0,1,38,1,1216.8999999761581,37,1,1365.899999976158,0,1,experiment,NA,NA,1,0.7,0.3,2,3,310,7,NA
fcp-trial,346,1226814,0.0-321.0-0.0,voc_e2,12242,"[{""event"":""fullscreenenter"",""trial"":1,""time"":2642}]",NA,NA,NA,NA,NA,5,#FA92F8,#1CD855,10,0,1,40,0,754.7000000476837,37,1,679.3999999761581,10,1,experiment,NA,NA,0,0.9,0.1,0,1,311,7,NA
fcp-trial,347,1230020,0.0-322.0-0.0,voc_e2,12242,"[{""event"":""fullscreenenter"",""trial"":1,""time"":2642}]",NA,NA,NA,NA,NA,2,#3386FF,#D89F1C,0,0,1,38,1,1055.0999999046326,37,1,642.6000000238419,0,1,experiment,NA,NA,1,0.7,0.3,2,3,312,7,NA
fcp-trial,348,1233798,0.0-323.0-0.0,voc_e2,12242,"[{""event"":""fullscreenenter"",""trial"":1,""time"":2642}]",NA,NA,NA,NA,NA,0,#D8271C,#741CD8,10,0,1,38,1,1691.3999999761581,39,0,577.9000000953674,0,0,experiment,NA,NA,2,0.5,0.5,4,5,313,7,NA
fcp-trial,349,1236938,0.0-324.0-0.0,voc_e2,12242,"[{""event"":""fullscreenenter"",""trial"":1,""time"":2642}]",NA,NA,NA,NA,NA,4,#3386FF,#D89F1C,10,10,1,40,0,1212.0999999046326,37,1,420.39999997615814,10,1,experiment,NA,NA,1,0.7,0.3,2,3,314,7,NA
fcp-trial,350,1239731,0.0-325.0-0.0,voc_e2,12242,"[{""event"":""fullscreenenter"",""trial"":1,""time"":2642}]",NA,NA,NA,NA,NA,4,#741CD8,#D8271C,10,0,0,40,0,790.2000000476837,39,0,494.2999999523163,0,1,experiment,NA,NA,2,0.5,0.5,5,4,315,7,NA
audio-instructions,351,1248813,0.0-326.0,voc_e2,12242,"[{""event"":""fullscreenenter"",""trial"":1,""time"":2642}]",NA,552.7000000476837,static/audio/finished.wav,NA,0,NA,NA,NA,NA,NA,NA,NA,NA,NA,NA,NA,NA,NA,NA,NA,NA,NA,NA,NA,NA,NA,NA,NA,NA,NA
audio-instructions,352,1260094,0.0-327.0-0.0,voc_e2,12242,"[{""event"":""fullscreenenter"",""trial"":1,""time"":2642}]",NA,444.60000002384186,static/audio/explicit1.wav,NA,0,NA,NA,NA,NA,NA,NA,NA,NA,NA,NA,NA,NA,NA,NA,NA,NA,NA,NA,NA,NA,NA,NA,NA,NA,NA
audio-instructions,353,1268334,0.0-327.0-1.0,voc_e2,12242,"[{""event"":""fullscreenenter"",""trial"":1,""time"":2642}]",NA,645.5,static/audio/explicit2.wav,NA,0,NA,NA,NA,NA,NA,NA,NA,NA,NA,NA,NA,NA,NA,NA,NA,NA,NA,NA,NA,NA,NA,NA,NA,NA,NA
image-slider-response,354,1276910,0.0-328.0,voc_e2,12242,"[{""event"":""fullscreenenter"",""trial"":1,""time"":2642}]",NA,8573,static/img/machines/machine1.png,NA,NA,NA,NA,NA,NA,NA,NA,NA,NA,NA,NA,NA,NA,NA,NA,explicit,NA,NA,NA,NA,NA,NA,NA,NA,NA,2
image-slider-response,355,1282413,0.0-329.0,voc_e2,12242,"[{""event"":""fullscreenenter"",""trial"":1,""time"":2642}]",NA,5501.100000023842,static/img/machines/machine6.png,NA,NA,NA,NA,NA,NA,NA,NA,NA,NA,NA,NA,NA,NA,NA,NA,explicit,NA,NA,NA,NA,NA,NA,NA,NA,NA,2
image-slider-response,356,1287910,0.0-330.0,voc_e2,12242,"[{""event"":""fullscreenenter"",""trial"":1,""time"":2642}]",NA,5494.899999976158,static/img/machines/machine2.png,NA,NA,NA,NA,NA,NA,NA,NA,NA,NA,NA,NA,NA,NA,NA,NA,explicit,NA,NA,NA,NA,NA,NA,NA,NA,NA,8
image-slider-response,357,1295656,0.0-331.0,voc_e2,12242,"[{""event"":""fullscreenenter"",""trial"":1,""time"":2642}]",NA,7744.900000095367,static/img/machines/machine4.png,NA,NA,NA,NA,NA,NA,NA,NA,NA,NA,NA,NA,NA,NA,NA,NA,explicit,NA,NA,NA,NA,NA,NA,NA,NA,NA,2
image-slider-response,358,1299605,0.0-332.0,voc_e2,12242,"[{""event"":""fullscreenenter"",""trial"":1,""time"":2642}]",NA,3947.100000023842,static/img/machines/machine5.png,NA,NA,NA,NA,NA,NA,NA,NA,NA,NA,NA,NA,NA,NA,NA,NA,explicit,NA,NA,NA,NA,NA,NA,NA,NA,NA,8
image-slider-response,359,1302687,0.0-333.0,voc_e2,12242,"[{""event"":""fullscreenenter"",""trial"":1,""time"":2642}]",NA,3079.7000000476837,static/img/machines/machine3.png,NA,NA,NA,NA,NA,NA,NA,NA,NA,NA,NA,NA,NA,NA,NA,NA,explicit,NA,NA,NA,NA,NA,NA,NA,NA,NA,8
