trial_type,trial_index,time_elapsed,internal_node_id,task_version,subject_id,interactions,success,rt,stimulus,key_press,button_pressed,offer,arcade_color_L,arcade_color_R,arcade_outcome_L,arcade_outcome_R,correct,stage_1_key,stage_1_choice,stage_1_rt,stage_2_key,stage_2_choice,stage_2_rt,stage_3_outcome,accuracy,phase,responses,num_errors,context,reward_prob_L,reward_prob_R,arcade_id_L,arcade_id_R,trial,block,response
pavlovia,0,116,0.0-0.0,voc_e2,12191,[],NA,NA,NA,NA,NA,NA,NA,NA,NA,NA,NA,NA,NA,NA,NA,NA,NA,NA,NA,NA,NA,NA,NA,NA,NA,NA,NA,NA,NA,NA
fullscreen,1,6789,0.0-1.0,voc_e2,12191,"[{""event"":""fullscreenenter"",""trial"":1,""time"":5844}]",TRUE,NA,NA,NA,NA,NA,NA,NA,NA,NA,NA,NA,NA,NA,NA,NA,NA,NA,NA,NA,NA,NA,NA,NA,NA,NA,NA,NA,NA,NA
audio-keyboard-response,2,10386,0.0-2.0,voc_e2,12191,"[{""event"":""fullscreenenter"",""trial"":1,""time"":5844}]",NA,2211,static/audio/beep_loop.wav,32,NA,NA,NA,NA,NA,NA,NA,NA,NA,NA,NA,NA,NA,NA,NA,NA,NA,NA,NA,NA,NA,NA,NA,NA,NA,NA
audio-test,3,15697,0.0-3.0,voc_e2,12191,"[{""event"":""fullscreenenter"",""trial"":1,""time"":5844}]",NA,NA,static/audio/turtle.wav,NA,3,NA,NA,NA,NA,NA,NA,NA,NA,NA,NA,NA,NA,NA,NA,NA,NA,NA,NA,NA,NA,NA,NA,NA,NA,NA
audio-test,4,18728,0.0-4.0,voc_e2,12191,"[{""event"":""fullscreenenter"",""trial"":1,""time"":5844}]",NA,NA,static/audio/shark.wav,NA,2,NA,NA,NA,NA,NA,NA,NA,NA,NA,NA,NA,NA,NA,NA,NA,NA,NA,NA,NA,NA,NA,NA,NA,NA,NA
audio-instructions,5,26559,0.0-5.0-0.0,voc_e2,12191,"[{""event"":""fullscreenenter"",""trial"":1,""time"":5844}]",NA,2036.199999988079,static/audio/instructions1.wav,NA,0,NA,NA,NA,NA,NA,NA,NA,NA,NA,NA,NA,NA,NA,NA,NA,NA,NA,NA,NA,NA,NA,NA,NA,NA,NA
audio-instructions,6,35453,0.0-5.0-1.0,voc_e2,12191,"[{""event"":""fullscreenenter"",""trial"":1,""time"":5844}]",NA,2150,static/audio/instructions2.wav,NA,0,NA,NA,NA,NA,NA,NA,NA,NA,NA,NA,NA,NA,NA,NA,NA,NA,NA,NA,NA,NA,NA,NA,NA,NA,NA
audio-instructions,7,44502,0.0-5.0-2.0,voc_e2,12191,"[{""event"":""fullscreenenter"",""trial"":1,""time"":5844}]",NA,3235.699999988079,static/audio/instructions3.wav,NA,0,NA,NA,NA,NA,NA,NA,NA,NA,NA,NA,NA,NA,NA,NA,NA,NA,NA,NA,NA,NA,NA,NA,NA,NA,NA
audio-instructions,8,61967,0.0-5.0-3.0,voc_e2,12191,"[{""event"":""fullscreenenter"",""trial"":1,""time"":5844}]",NA,4224.29999999702,static/audio/instructions4.wav,NA,0,NA,NA,NA,NA,NA,NA,NA,NA,NA,NA,NA,NA,NA,NA,NA,NA,NA,NA,NA,NA,NA,NA,NA,NA,NA
audio-instructions,9,72729,0.0-5.0-4.0,voc_e2,12191,"[{""event"":""fullscreenenter"",""trial"":1,""time"":5844}]",NA,1377.7999999970198,static/audio/instructions5.wav,NA,0,NA,NA,NA,NA,NA,NA,NA,NA,NA,NA,NA,NA,NA,NA,NA,NA,NA,NA,NA,NA,NA,NA,NA,NA,NA
fcp-practice,10,76176,0.0-5.0-5.0-0.0,voc_e2,12191,"[{""event"":""fullscreenenter"",""trial"":1,""time"":5844}]",NA,NA,NA,NA,NA,NA,#EDC948,#46d3c8,10,0,1,null,null,null,37,1,1858.5,10,1,practice,NA,NA,NA,NA,NA,NA,NA,NA,NA,NA
fcp-practice,11,78276,0.0-5.0-5.0-1.0,voc_e2,12191,"[{""event"":""fullscreenenter"",""trial"":1,""time"":5844}]",NA,NA,NA,NA,NA,NA,#EDC948,#46d3c8,10,0,1,null,null,null,37,1,580.5,10,1,practice,NA,NA,NA,NA,NA,NA,NA,NA,NA,NA
fcp-practice,12,79819,0.0-5.0-5.0-2.0,voc_e2,12191,"[{""event"":""fullscreenenter"",""trial"":1,""time"":5844}]",NA,NA,NA,NA,NA,NA,#EDC948,#46d3c8,0,10,1,null,null,null,37,1,23.900000005960464,0,1,practice,NA,NA,NA,NA,NA,NA,NA,NA,NA,NA
fcp-practice,13,83129,0.0-5.0-5.0-3.0,voc_e2,12191,"[{""event"":""fullscreenenter"",""trial"":1,""time"":5844}]",NA,NA,NA,NA,NA,NA,#EDC948,#46d3c8,10,0,1,null,null,null,37,1,1798.9000000059605,10,1,practice,NA,NA,NA,NA,NA,NA,NA,NA,NA,NA
fcp-practice,14,86455,0.0-5.0-5.0-4.0,voc_e2,12191,"[{""event"":""fullscreenenter"",""trial"":1,""time"":5844}]",NA,NA,NA,NA,NA,NA,#EDC948,#46d3c8,10,0,1,null,null,null,37,1,1807.5,10,1,practice,NA,NA,NA,NA,NA,NA,NA,NA,NA,NA
audio-instructions,15,111956,0.0-5.0-6.0,voc_e2,12191,"[{""event"":""fullscreenenter"",""trial"":1,""time"":5844}]",NA,7494.40000000596,static/audio/instructions6.wav,NA,0,NA,NA,NA,NA,NA,NA,NA,NA,NA,NA,NA,NA,NA,NA,NA,NA,NA,NA,NA,NA,NA,NA,NA,NA,NA
audio-instructions,16,133032,0.0-5.0-7.0,voc_e2,12191,"[{""event"":""fullscreenenter"",""trial"":1,""time"":5844}]",NA,1881.5,static/audio/instructions7.wav,NA,0,NA,NA,NA,NA,NA,NA,NA,NA,NA,NA,NA,NA,NA,NA,NA,NA,NA,NA,NA,NA,NA,NA,NA,NA,NA
audio-instructions,17,143582,0.0-5.0-8.0,voc_e2,12191,"[{""event"":""fullscreenenter"",""trial"":1,""time"":5844}]",NA,1071.5999999940395,static/audio/instructions8.wav,NA,0,NA,NA,NA,NA,NA,NA,NA,NA,NA,NA,NA,NA,NA,NA,NA,NA,NA,NA,NA,NA,NA,NA,NA,NA,NA
fcp-comprehension,18,155566,0.0-5.0-9.0,voc_e2,12191,"[{""event"":""fullscreenenter"",""trial"":1,""time"":5844}]",NA,11980.09999999404,NA,NA,NA,NA,NA,NA,NA,NA,NA,NA,NA,NA,NA,NA,NA,NA,NA,NA,"true,true",0,NA,NA,NA,NA,NA,NA,NA,NA
audio-instructions,19,163642,0.0-6.0-0.0,voc_e2,12191,"[{""event"":""fullscreenenter"",""trial"":1,""time"":5844}]",NA,2522.20000000298,static/audio/instructions9.wav,NA,0,NA,NA,NA,NA,NA,NA,NA,NA,NA,NA,NA,NA,NA,NA,NA,NA,NA,NA,NA,NA,NA,NA,NA,NA,NA
audio-instructions,20,177066,0.0-6.0-1.0,voc_e2,12191,"[{""event"":""fullscreenenter"",""trial"":1,""time"":5844}]",NA,1306,static/audio/instructions10.wav,NA,0,NA,NA,NA,NA,NA,NA,NA,NA,NA,NA,NA,NA,NA,NA,NA,NA,NA,NA,NA,NA,NA,NA,NA,NA,NA
fcp-trial,21,187909,0.0-6.0-2.0,voc_e2,12191,"[{""event"":""fullscreenenter"",""trial"":1,""time"":5844}]",NA,NA,NA,NA,NA,0,#EDC948,#46d3c8,10,10,1,38,1,7164.600000008941,37,1,2046.3999999910593,10,1,practice,NA,NA,NA,NA,NA,NA,NA,NA,NA,NA
audio-instructions,22,200316,0.0-6.0-3.0,voc_e2,12191,"[{""event"":""fullscreenenter"",""trial"":1,""time"":5844}]",NA,1393.7999999970198,static/audio/instructions11.wav,NA,0,NA,NA,NA,NA,NA,NA,NA,NA,NA,NA,NA,NA,NA,NA,NA,NA,NA,NA,NA,NA,NA,NA,NA,NA,NA
fcp-trial,23,205229,0.0-6.0-4.0,voc_e2,12191,"[{""event"":""fullscreenenter"",""trial"":1,""time"":5844}]",NA,NA,NA,NA,NA,6,#EDC948,#46d3c8,10,10,1,40,0,1635.2999999970198,39,0,1741.4000000059605,10,0,practice,NA,NA,NA,NA,NA,NA,NA,NA,NA,NA
audio-instructions,24,226152,0.0-6.0-5.0,voc_e2,12191,"[{""event"":""fullscreenenter"",""trial"":1,""time"":5844}]",NA,2230.8999999910593,static/audio/instructions12.wav,NA,0,NA,NA,NA,NA,NA,NA,NA,NA,NA,NA,NA,NA,NA,NA,NA,NA,NA,NA,NA,NA,NA,NA,NA,NA,NA
audio-instructions,25,235548,0.0-6.0-6.0,voc_e2,12191,"[{""event"":""fullscreenenter"",""trial"":1,""time"":5844}]",NA,1798.2000000029802,static/audio/instructions13.wav,NA,0,NA,NA,NA,NA,NA,NA,NA,NA,NA,NA,NA,NA,NA,NA,NA,NA,NA,NA,NA,NA,NA,NA,NA,NA,NA
audio-instructions,26,244924,0.0-6.0-7.0,voc_e2,12191,"[{""event"":""fullscreenenter"",""trial"":1,""time"":5844}]",NA,924,static/audio/instructions14.wav,NA,0,NA,NA,NA,NA,NA,NA,NA,NA,NA,NA,NA,NA,NA,NA,NA,NA,NA,NA,NA,NA,NA,NA,NA,NA,NA
audio-instructions,27,272810,0.0-7.0-0.0,voc_e2,12191,"[{""event"":""fullscreenenter"",""trial"":1,""time"":5844}]",NA,20979.79999999702,static/audio/instructions15.wav,NA,0,NA,NA,NA,NA,NA,NA,NA,NA,NA,NA,NA,NA,NA,NA,NA,NA,NA,NA,NA,NA,NA,NA,NA,NA,NA
audio-instructions,28,280959,0.0-7.0-1.0,voc_e2,12191,"[{""event"":""fullscreenenter"",""trial"":1,""time"":5844}]",NA,1319,static/audio/instructions16.wav,NA,0,NA,NA,NA,NA,NA,NA,NA,NA,NA,NA,NA,NA,NA,NA,NA,NA,NA,NA,NA,NA,NA,NA,NA,NA,NA
audio-instructions,29,290962,0.0-7.0-2.0,voc_e2,12191,"[{""event"":""fullscreenenter"",""trial"":1,""time"":5844}]",NA,2322,static/audio/instructions17.wav,NA,0,NA,NA,NA,NA,NA,NA,NA,NA,NA,NA,NA,NA,NA,NA,NA,NA,NA,NA,NA,NA,NA,NA,NA,NA,NA
audio-instructions,30,2820378,0.0-7.0-3.0,voc_e2,12191,"[{""event"":""fullscreenenter"",""trial"":1,""time"":5844}]",NA,2521653.599999994,static/audio/instructions18.wav,NA,0,NA,NA,NA,NA,NA,NA,NA,NA,NA,NA,NA,NA,NA,NA,NA,NA,NA,NA,NA,NA,NA,NA,NA,NA,NA
audio-instructions,31,2829030,0.0-7.0-4.0,voc_e2,12191,"[{""event"":""fullscreenenter"",""trial"":1,""time"":5844}]",NA,1390.8999999910593,static/audio/instructions19.wav,NA,0,NA,NA,NA,NA,NA,NA,NA,NA,NA,NA,NA,NA,NA,NA,NA,NA,NA,NA,NA,NA,NA,NA,NA,NA,NA
fcp-comprehension,32,2887150,0.0-7.0-5.0,voc_e2,12191,"[{""event"":""fullscreenenter"",""trial"":1,""time"":5844}]",NA,58114.19999998808,NA,NA,NA,NA,NA,NA,NA,NA,NA,NA,NA,NA,NA,NA,NA,NA,NA,NA,"true,true,true,true",3,NA,NA,NA,NA,NA,NA,NA,NA
audio-instructions,33,2896595,0.0-7.1-0.1,voc_e2,12191,"[{""event"":""fullscreenenter"",""trial"":1,""time"":5844}]",NA,2277.8999999910593,static/audio/instructions15.wav,NA,0,NA,NA,NA,NA,NA,NA,NA,NA,NA,NA,NA,NA,NA,NA,NA,NA,NA,NA,NA,NA,NA,NA,NA,NA,NA
audio-instructions,34,2907449,0.0-7.1-1.1,voc_e2,12191,"[{""event"":""fullscreenenter"",""trial"":1,""time"":5844}]",NA,4020.79999999702,static/audio/instructions16.wav,NA,0,NA,NA,NA,NA,NA,NA,NA,NA,NA,NA,NA,NA,NA,NA,NA,NA,NA,NA,NA,NA,NA,NA,NA,NA,NA
audio-instructions,35,2918560,0.0-7.1-2.1,voc_e2,12191,"[{""event"":""fullscreenenter"",""trial"":1,""time"":5844}]",NA,3432.0999999940395,static/audio/instructions17.wav,NA,0,NA,NA,NA,NA,NA,NA,NA,NA,NA,NA,NA,NA,NA,NA,NA,NA,NA,NA,NA,NA,NA,NA,NA,NA,NA
audio-instructions,36,2929208,0.0-7.1-3.1,voc_e2,12191,"[{""event"":""fullscreenenter"",""trial"":1,""time"":5844}]",NA,2876.4000000059605,static/audio/instructions18.wav,NA,0,NA,NA,NA,NA,NA,NA,NA,NA,NA,NA,NA,NA,NA,NA,NA,NA,NA,NA,NA,NA,NA,NA,NA,NA,NA
audio-instructions,37,2948911,0.0-7.1-4.1,voc_e2,12191,"[{""event"":""fullscreenenter"",""trial"":1,""time"":5844}]",NA,12949.09999999404,static/audio/instructions19.wav,NA,0,NA,NA,NA,NA,NA,NA,NA,NA,NA,NA,NA,NA,NA,NA,NA,NA,NA,NA,NA,NA,NA,NA,NA,NA,NA
fcp-comprehension,38,2980749,0.0-7.1-5.1,voc_e2,12191,"[{""event"":""fullscreenenter"",""trial"":1,""time"":5844}]",NA,31834.10000000894,NA,NA,NA,NA,NA,NA,NA,NA,NA,NA,NA,NA,NA,NA,NA,NA,NA,NA,"false,false,true,true",1,NA,NA,NA,NA,NA,NA,NA,NA
audio-instructions,39,2990297,0.0-7.2-0.2,voc_e2,12191,"[{""event"":""fullscreenenter"",""trial"":1,""time"":5844}]",NA,2381.5999999940395,static/audio/instructions15.wav,NA,0,NA,NA,NA,NA,NA,NA,NA,NA,NA,NA,NA,NA,NA,NA,NA,NA,NA,NA,NA,NA,NA,NA,NA,NA,NA
audio-instructions,40,3008168,0.0-7.2-1.2,voc_e2,12191,"[{""event"":""fullscreenenter"",""trial"":1,""time"":5844}]",NA,11042.20000000298,static/audio/instructions16.wav,NA,0,NA,NA,NA,NA,NA,NA,NA,NA,NA,NA,NA,NA,NA,NA,NA,NA,NA,NA,NA,NA,NA,NA,NA,NA,NA
audio-instructions,41,3017239,0.0-7.2-2.2,voc_e2,12191,"[{""event"":""fullscreenenter"",""trial"":1,""time"":5844}]",NA,1392.3999999910593,static/audio/instructions17.wav,NA,0,NA,NA,NA,NA,NA,NA,NA,NA,NA,NA,NA,NA,NA,NA,NA,NA,NA,NA,NA,NA,NA,NA,NA,NA,NA
audio-instructions,42,3027451,0.0-7.2-3.2,voc_e2,12191,"[{""event"":""fullscreenenter"",""trial"":1,""time"":5844}]",NA,2445.699999988079,static/audio/instructions18.wav,NA,0,NA,NA,NA,NA,NA,NA,NA,NA,NA,NA,NA,NA,NA,NA,NA,NA,NA,NA,NA,NA,NA,NA,NA,NA,NA
audio-instructions,43,3035032,0.0-7.2-4.2,voc_e2,12191,"[{""event"":""fullscreenenter"",""trial"":1,""time"":5844}]",NA,836.9000000059605,static/audio/instructions19.wav,NA,0,NA,NA,NA,NA,NA,NA,NA,NA,NA,NA,NA,NA,NA,NA,NA,NA,NA,NA,NA,NA,NA,NA,NA,NA,NA
fcp-comprehension,44,3049665,0.0-7.2-5.2,voc_e2,12191,"[{""event"":""fullscreenenter"",""trial"":1,""time"":5844}]",NA,14628.40000000596,NA,NA,NA,NA,NA,NA,NA,NA,NA,NA,NA,NA,NA,NA,NA,NA,NA,NA,"true,true,true,true",3,NA,NA,NA,NA,NA,NA,NA,NA
audio-instructions,45,3059294,0.0-7.3-0.3,voc_e2,12191,"[{""event"":""fullscreenenter"",""trial"":1,""time"":5844}]",NA,2708.8999999910593,static/audio/instructions15.wav,NA,0,NA,NA,NA,NA,NA,NA,NA,NA,NA,NA,NA,NA,NA,NA,NA,NA,NA,NA,NA,NA,NA,NA,NA,NA,NA
audio-instructions,46,3067200,0.0-7.3-1.3,voc_e2,12191,"[{""event"":""fullscreenenter"",""trial"":1,""time"":5844}]",NA,1075.5,static/audio/instructions16.wav,NA,0,NA,NA,NA,NA,NA,NA,NA,NA,NA,NA,NA,NA,NA,NA,NA,NA,NA,NA,NA,NA,NA,NA,NA,NA,NA
audio-instructions,47,3076011,0.0-7.3-2.3,voc_e2,12191,"[{""event"":""fullscreenenter"",""trial"":1,""time"":5844}]",NA,1137,static/audio/instructions17.wav,NA,0,NA,NA,NA,NA,NA,NA,NA,NA,NA,NA,NA,NA,NA,NA,NA,NA,NA,NA,NA,NA,NA,NA,NA,NA,NA
audio-instructions,48,3084591,0.0-7.3-3.3,voc_e2,12191,"[{""event"":""fullscreenenter"",""trial"":1,""time"":5844}]",NA,806.2999999970198,static/audio/instructions18.wav,NA,0,NA,NA,NA,NA,NA,NA,NA,NA,NA,NA,NA,NA,NA,NA,NA,NA,NA,NA,NA,NA,NA,NA,NA,NA,NA
audio-instructions,49,3092228,0.0-7.3-4.3,voc_e2,12191,"[{""event"":""fullscreenenter"",""trial"":1,""time"":5844}]",NA,883.5,static/audio/instructions19.wav,NA,0,NA,NA,NA,NA,NA,NA,NA,NA,NA,NA,NA,NA,NA,NA,NA,NA,NA,NA,NA,NA,NA,NA,NA,NA,NA
fcp-comprehension,50,3120829,0.0-7.3-5.3,voc_e2,12191,"[{""event"":""fullscreenenter"",""trial"":1,""time"":5844}]",NA,28597,NA,NA,NA,NA,NA,NA,NA,NA,NA,NA,NA,NA,NA,NA,NA,NA,NA,NA,"false,false,true,true",1,NA,NA,NA,NA,NA,NA,NA,NA
audio-instructions,51,3129692,0.0-7.4-0.4,voc_e2,12191,"[{""event"":""fullscreenenter"",""trial"":1,""time"":5844}]",NA,1938.29999999702,static/audio/instructions15.wav,NA,0,NA,NA,NA,NA,NA,NA,NA,NA,NA,NA,NA,NA,NA,NA,NA,NA,NA,NA,NA,NA,NA,NA,NA,NA,NA
audio-instructions,52,3138977,0.0-7.4-1.4,voc_e2,12191,"[{""event"":""fullscreenenter"",""trial"":1,""time"":5844}]",NA,2452.6000000089407,static/audio/instructions16.wav,NA,0,NA,NA,NA,NA,NA,NA,NA,NA,NA,NA,NA,NA,NA,NA,NA,NA,NA,NA,NA,NA,NA,NA,NA,NA,NA
audio-instructions,53,3148507,0.0-7.4-2.4,voc_e2,12191,"[{""event"":""fullscreenenter"",""trial"":1,""time"":5844}]",NA,1852.5,static/audio/instructions17.wav,NA,0,NA,NA,NA,NA,NA,NA,NA,NA,NA,NA,NA,NA,NA,NA,NA,NA,NA,NA,NA,NA,NA,NA,NA,NA,NA
audio-instructions,54,3157236,0.0-7.4-3.4,voc_e2,12191,"[{""event"":""fullscreenenter"",""trial"":1,""time"":5844}]",NA,961.6000000089408,static/audio/instructions18.wav,NA,0,NA,NA,NA,NA,NA,NA,NA,NA,NA,NA,NA,NA,NA,NA,NA,NA,NA,NA,NA,NA,NA,NA,NA,NA,NA
audio-instructions,55,3164958,0.0-7.4-4.4,voc_e2,12191,"[{""event"":""fullscreenenter"",""trial"":1,""time"":5844}]",NA,974.7000000029802,static/audio/instructions19.wav,NA,0,NA,NA,NA,NA,NA,NA,NA,NA,NA,NA,NA,NA,NA,NA,NA,NA,NA,NA,NA,NA,NA,NA,NA,NA,NA
fcp-comprehension,56,3196742,0.0-7.4-5.4,voc_e2,12191,"[{""event"":""fullscreenenter"",""trial"":1,""time"":5844}]",NA,31779.40000000596,NA,NA,NA,NA,NA,NA,NA,NA,NA,NA,NA,NA,NA,NA,NA,NA,NA,NA,"true,true,true,true",3,NA,NA,NA,NA,NA,NA,NA,NA
audio-instructions,57,3209730,0.0-7.5-0.5,voc_e2,12191,"[{""event"":""fullscreenenter"",""trial"":1,""time"":5844}]",NA,6060.899999991059,static/audio/instructions15.wav,NA,0,NA,NA,NA,NA,NA,NA,NA,NA,NA,NA,NA,NA,NA,NA,NA,NA,NA,NA,NA,NA,NA,NA,NA,NA,NA
audio-instructions,58,3234315,0.0-7.5-1.5,voc_e2,12191,"[{""event"":""fullscreenenter"",""trial"":1,""time"":5844}]",NA,17755.29999999702,static/audio/instructions16.wav,NA,0,NA,NA,NA,NA,NA,NA,NA,NA,NA,NA,NA,NA,NA,NA,NA,NA,NA,NA,NA,NA,NA,NA,NA,NA,NA
audio-instructions,59,3242793,0.0-7.5-2.5,voc_e2,12191,"[{""event"":""fullscreenenter"",""trial"":1,""time"":5844}]",NA,803.8000000119209,static/audio/instructions17.wav,NA,0,NA,NA,NA,NA,NA,NA,NA,NA,NA,NA,NA,NA,NA,NA,NA,NA,NA,NA,NA,NA,NA,NA,NA,NA,NA
audio-instructions,60,3255178,0.0-7.5-3.5,voc_e2,12191,"[{""event"":""fullscreenenter"",""trial"":1,""time"":5844}]",NA,4618.9000000059605,static/audio/instructions18.wav,NA,0,NA,NA,NA,NA,NA,NA,NA,NA,NA,NA,NA,NA,NA,NA,NA,NA,NA,NA,NA,NA,NA,NA,NA,NA,NA
audio-instructions,61,3263830,0.0-7.5-4.5,voc_e2,12191,"[{""event"":""fullscreenenter"",""trial"":1,""time"":5844}]",NA,1910.29999999702,static/audio/instructions19.wav,NA,0,NA,NA,NA,NA,NA,NA,NA,NA,NA,NA,NA,NA,NA,NA,NA,NA,NA,NA,NA,NA,NA,NA,NA,NA,NA
fcp-comprehension,62,3306886,0.0-7.5-5.5,voc_e2,12191,"[{""event"":""fullscreenenter"",""trial"":1,""time"":5844}]",NA,43051.70000000298,NA,NA,NA,NA,NA,NA,NA,NA,NA,NA,NA,NA,NA,NA,NA,NA,NA,NA,"true,false,true,true",2,NA,NA,NA,NA,NA,NA,NA,NA
audio-instructions,63,3320946,0.0-7.6-0.6,voc_e2,12191,"[{""event"":""fullscreenenter"",""trial"":1,""time"":5844}]",NA,6903.399999991059,static/audio/instructions15.wav,NA,0,NA,NA,NA,NA,NA,NA,NA,NA,NA,NA,NA,NA,NA,NA,NA,NA,NA,NA,NA,NA,NA,NA,NA,NA,NA
audio-instructions,64,3337651,0.0-7.6-1.6,voc_e2,12191,"[{""event"":""fullscreenenter"",""trial"":1,""time"":5844}]",NA,9878,static/audio/instructions16.wav,NA,0,NA,NA,NA,NA,NA,NA,NA,NA,NA,NA,NA,NA,NA,NA,NA,NA,NA,NA,NA,NA,NA,NA,NA,NA,NA
audio-instructions,65,3347264,0.0-7.6-2.6,voc_e2,12191,"[{""event"":""fullscreenenter"",""trial"":1,""time"":5844}]",NA,1930.5999999940395,static/audio/instructions17.wav,NA,0,NA,NA,NA,NA,NA,NA,NA,NA,NA,NA,NA,NA,NA,NA,NA,NA,NA,NA,NA,NA,NA,NA,NA,NA,NA
audio-instructions,66,3358192,0.0-7.6-3.6,voc_e2,12191,"[{""event"":""fullscreenenter"",""trial"":1,""time"":5844}]",NA,3159.79999999702,static/audio/instructions18.wav,NA,0,NA,NA,NA,NA,NA,NA,NA,NA,NA,NA,NA,NA,NA,NA,NA,NA,NA,NA,NA,NA,NA,NA,NA,NA,NA
audio-instructions,67,3367110,0.0-7.6-4.6,voc_e2,12191,"[{""event"":""fullscreenenter"",""trial"":1,""time"":5844}]",NA,2167.20000000298,static/audio/instructions19.wav,NA,0,NA,NA,NA,NA,NA,NA,NA,NA,NA,NA,NA,NA,NA,NA,NA,NA,NA,NA,NA,NA,NA,NA,NA,NA,NA
fcp-comprehension,68,3385077,0.0-7.6-5.6,voc_e2,12191,"[{""event"":""fullscreenenter"",""trial"":1,""time"":5844}]",NA,17962.79999999702,NA,NA,NA,NA,NA,NA,NA,NA,NA,NA,NA,NA,NA,NA,NA,NA,NA,NA,"false,false,false,false",1,NA,NA,NA,NA,NA,NA,NA,NA
audio-instructions,69,3536875,0.0-7.7-0.7,voc_e2,12191,"[{""event"":""fullscreenenter"",""trial"":1,""time"":5844}]",NA,144873.5,static/audio/instructions15.wav,NA,0,NA,NA,NA,NA,NA,NA,NA,NA,NA,NA,NA,NA,NA,NA,NA,NA,NA,NA,NA,NA,NA,NA,NA,NA,NA
audio-instructions,70,3552556,0.0-7.7-1.7,voc_e2,12191,"[{""event"":""fullscreenenter"",""trial"":1,""time"":5844}]",NA,8596.29999999702,static/audio/instructions16.wav,NA,0,NA,NA,NA,NA,NA,NA,NA,NA,NA,NA,NA,NA,NA,NA,NA,NA,NA,NA,NA,NA,NA,NA,NA,NA,NA
audio-instructions,71,3561936,0.0-7.7-2.7,voc_e2,12191,"[{""event"":""fullscreenenter"",""trial"":1,""time"":5844}]",NA,1706.2999999970198,static/audio/instructions17.wav,NA,0,NA,NA,NA,NA,NA,NA,NA,NA,NA,NA,NA,NA,NA,NA,NA,NA,NA,NA,NA,NA,NA,NA,NA,NA,NA
audio-instructions,72,3576883,0.0-7.7-3.7,voc_e2,12191,"[{""event"":""fullscreenenter"",""trial"":1,""time"":5844}]",NA,7173.199999988079,static/audio/instructions18.wav,NA,0,NA,NA,NA,NA,NA,NA,NA,NA,NA,NA,NA,NA,NA,NA,NA,NA,NA,NA,NA,NA,NA,NA,NA,NA,NA
audio-instructions,73,3585077,0.0-7.7-4.7,voc_e2,12191,"[{""event"":""fullscreenenter"",""trial"":1,""time"":5844}]",NA,1457.5999999940395,static/audio/instructions19.wav,NA,0,NA,NA,NA,NA,NA,NA,NA,NA,NA,NA,NA,NA,NA,NA,NA,NA,NA,NA,NA,NA,NA,NA,NA,NA,NA
fcp-comprehension,74,3622523,0.0-7.7-5.7,voc_e2,12191,"[{""event"":""fullscreenenter"",""trial"":1,""time"":5844}]",NA,37445.5,NA,NA,NA,NA,NA,NA,NA,NA,NA,NA,NA,NA,NA,NA,NA,NA,NA,NA,"true,true,true,true",3,NA,NA,NA,NA,NA,NA,NA,NA
audio-instructions,75,17145194,0.0-7.8-0.8,voc_e2,12191,"[{""event"":""fullscreenenter"",""trial"":1,""time"":5844},{""event"":""blur"",""trial"":75,""time"":5146934},{""event"":""focus"",""trial"":75,""time"":15112403},{""event"":""blur"",""trial"":75,""time"":16543611},{""event"":""focus"",""trial"":75,""time"":17128906}]",NA,13515617.200000005,static/audio/instructions15.wav,NA,0,NA,NA,NA,NA,NA,NA,NA,NA,NA,NA,NA,NA,NA,NA,NA,NA,NA,NA,NA,NA,NA,NA,NA,NA,NA
audio-instructions,76,17315739,0.0-7.8-1.8,voc_e2,12191,"[{""event"":""fullscreenenter"",""trial"":1,""time"":5844},{""event"":""blur"",""trial"":75,""time"":5146934},{""event"":""focus"",""trial"":75,""time"":15112403},{""event"":""blur"",""trial"":75,""time"":16543611},{""event"":""focus"",""trial"":75,""time"":17128906},{""event"":""fullscreenexit"",""trial"":76,""time"":17164622},{""event"":""blur"",""trial"":76,""time"":17164636},{""event"":""focus"",""trial"":76,""time"":17313274}]",NA,163245.90000000596,static/audio/instructions16.wav,NA,0,NA,NA,NA,NA,NA,NA,NA,NA,NA,NA,NA,NA,NA,NA,NA,NA,NA,NA,NA,NA,NA,NA,NA,NA,NA
audio-instructions,77,17328782,0.0-7.8-2.8,voc_e2,12191,"[{""event"":""fullscreenenter"",""trial"":1,""time"":5844},{""event"":""blur"",""trial"":75,""time"":5146934},{""event"":""focus"",""trial"":75,""time"":15112403},{""event"":""blur"",""trial"":75,""time"":16543611},{""event"":""focus"",""trial"":75,""time"":17128906},{""event"":""fullscreenexit"",""trial"":76,""time"":17164622},{""event"":""blur"",""trial"":76,""time"":17164636},{""event"":""focus"",""trial"":76,""time"":17313274}]",NA,5089.70000000298,static/audio/instructions17.wav,NA,0,NA,NA,NA,NA,NA,NA,NA,NA,NA,NA,NA,NA,NA,NA,NA,NA,NA,NA,NA,NA,NA,NA,NA,NA,NA
audio-instructions,78,17338208,0.0-7.8-3.8,voc_e2,12191,"[{""event"":""fullscreenenter"",""trial"":1,""time"":5844},{""event"":""blur"",""trial"":75,""time"":5146934},{""event"":""focus"",""trial"":75,""time"":15112403},{""event"":""blur"",""trial"":75,""time"":16543611},{""event"":""focus"",""trial"":75,""time"":17128906},{""event"":""fullscreenexit"",""trial"":76,""time"":17164622},{""event"":""blur"",""trial"":76,""time"":17164636},{""event"":""focus"",""trial"":76,""time"":17313274}]",NA,1656.1000000089407,static/audio/instructions18.wav,NA,0,NA,NA,NA,NA,NA,NA,NA,NA,NA,NA,NA,NA,NA,NA,NA,NA,NA,NA,NA,NA,NA,NA,NA,NA,NA
audio-instructions,79,17346464,0.0-7.8-4.8,voc_e2,12191,"[{""event"":""fullscreenenter"",""trial"":1,""time"":5844},{""event"":""blur"",""trial"":75,""time"":5146934},{""event"":""focus"",""trial"":75,""time"":15112403},{""event"":""blur"",""trial"":75,""time"":16543611},{""event"":""focus"",""trial"":75,""time"":17128906},{""event"":""fullscreenexit"",""trial"":76,""time"":17164622},{""event"":""blur"",""trial"":76,""time"":17164636},{""event"":""focus"",""trial"":76,""time"":17313274}]",NA,1501.2000000029802,static/audio/instructions19.wav,NA,0,NA,NA,NA,NA,NA,NA,NA,NA,NA,NA,NA,NA,NA,NA,NA,NA,NA,NA,NA,NA,NA,NA,NA,NA,NA
fcp-comprehension,80,17385667,0.0-7.8-5.8,voc_e2,12191,"[{""event"":""fullscreenenter"",""trial"":1,""time"":5844},{""event"":""blur"",""trial"":75,""time"":5146934},{""event"":""focus"",""trial"":75,""time"":15112403},{""event"":""blur"",""trial"":75,""time"":16543611},{""event"":""focus"",""trial"":75,""time"":17128906},{""event"":""fullscreenexit"",""trial"":76,""time"":17164622},{""event"":""blur"",""trial"":76,""time"":17164636},{""event"":""focus"",""trial"":76,""time"":17313274}]",NA,39198,NA,NA,NA,NA,NA,NA,NA,NA,NA,NA,NA,NA,NA,NA,NA,NA,NA,NA,"true,false,true,true",2,NA,NA,NA,NA,NA,NA,NA,NA
audio-instructions,81,17396055,0.0-7.9-0.9,voc_e2,12191,"[{""event"":""fullscreenenter"",""trial"":1,""time"":5844},{""event"":""blur"",""trial"":75,""time"":5146934},{""event"":""focus"",""trial"":75,""time"":15112403},{""event"":""blur"",""trial"":75,""time"":16543611},{""event"":""focus"",""trial"":75,""time"":17128906},{""event"":""fullscreenexit"",""trial"":76,""time"":17164622},{""event"":""blur"",""trial"":76,""time"":17164636},{""event"":""focus"",""trial"":76,""time"":17313274}]",NA,3327.29999999702,static/audio/instructions15.wav,NA,0,NA,NA,NA,NA,NA,NA,NA,NA,NA,NA,NA,NA,NA,NA,NA,NA,NA,NA,NA,NA,NA,NA,NA,NA,NA
audio-instructions,82,17404249,0.0-7.9-1.9,voc_e2,12191,"[{""event"":""fullscreenenter"",""trial"":1,""time"":5844},{""event"":""blur"",""trial"":75,""time"":5146934},{""event"":""focus"",""trial"":75,""time"":15112403},{""event"":""blur"",""trial"":75,""time"":16543611},{""event"":""focus"",""trial"":75,""time"":17128906},{""event"":""fullscreenexit"",""trial"":76,""time"":17164622},{""event"":""blur"",""trial"":76,""time"":17164636},{""event"":""focus"",""trial"":76,""time"":17313274}]",NA,1361.5,static/audio/instructions16.wav,NA,0,NA,NA,NA,NA,NA,NA,NA,NA,NA,NA,NA,NA,NA,NA,NA,NA,NA,NA,NA,NA,NA,NA,NA,NA,NA
audio-instructions,83,17412981,0.0-7.9-2.9,voc_e2,12191,"[{""event"":""fullscreenenter"",""trial"":1,""time"":5844},{""event"":""blur"",""trial"":75,""time"":5146934},{""event"":""focus"",""trial"":75,""time"":15112403},{""event"":""blur"",""trial"":75,""time"":16543611},{""event"":""focus"",""trial"":75,""time"":17128906},{""event"":""fullscreenexit"",""trial"":76,""time"":17164622},{""event"":""blur"",""trial"":76,""time"":17164636},{""event"":""focus"",""trial"":76,""time"":17313274}]",NA,1053.800000011921,static/audio/instructions17.wav,NA,0,NA,NA,NA,NA,NA,NA,NA,NA,NA,NA,NA,NA,NA,NA,NA,NA,NA,NA,NA,NA,NA,NA,NA,NA,NA
audio-instructions,84,17421388,0.0-7.9-3.9,voc_e2,12191,"[{""event"":""fullscreenenter"",""trial"":1,""time"":5844},{""event"":""blur"",""trial"":75,""time"":5146934},{""event"":""focus"",""trial"":75,""time"":15112403},{""event"":""blur"",""trial"":75,""time"":16543611},{""event"":""focus"",""trial"":75,""time"":17128906},{""event"":""fullscreenexit"",""trial"":76,""time"":17164622},{""event"":""blur"",""trial"":76,""time"":17164636},{""event"":""focus"",""trial"":76,""time"":17313274}]",NA,641.5,static/audio/instructions18.wav,NA,0,NA,NA,NA,NA,NA,NA,NA,NA,NA,NA,NA,NA,NA,NA,NA,NA,NA,NA,NA,NA,NA,NA,NA,NA,NA
audio-instructions,85,17428993,0.0-7.9-4.9,voc_e2,12191,"[{""event"":""fullscreenenter"",""trial"":1,""time"":5844},{""event"":""blur"",""trial"":75,""time"":5146934},{""event"":""focus"",""trial"":75,""time"":15112403},{""event"":""blur"",""trial"":75,""time"":16543611},{""event"":""focus"",""trial"":75,""time"":17128906},{""event"":""fullscreenexit"",""trial"":76,""time"":17164622},{""event"":""blur"",""trial"":76,""time"":17164636},{""event"":""focus"",""trial"":76,""time"":17313274}]",NA,866.1999999880791,static/audio/instructions19.wav,NA,0,NA,NA,NA,NA,NA,NA,NA,NA,NA,NA,NA,NA,NA,NA,NA,NA,NA,NA,NA,NA,NA,NA,NA,NA,NA
fcp-comprehension,86,17444824,0.0-7.9-5.9,voc_e2,12191,"[{""event"":""fullscreenenter"",""trial"":1,""time"":5844},{""event"":""blur"",""trial"":75,""time"":5146934},{""event"":""focus"",""trial"":75,""time"":15112403},{""event"":""blur"",""trial"":75,""time"":16543611},{""event"":""focus"",""trial"":75,""time"":17128906},{""event"":""fullscreenexit"",""trial"":76,""time"":17164622},{""event"":""blur"",""trial"":76,""time"":17164636},{""event"":""focus"",""trial"":76,""time"":17313274}]",NA,15825.70000000298,NA,NA,NA,NA,NA,NA,NA,NA,NA,NA,NA,NA,NA,NA,NA,NA,NA,NA,"false,false,false,true",0,NA,NA,NA,NA,NA,NA,NA,NA
audio-instructions,87,17456197,0.0-8.0,voc_e2,12191,"[{""event"":""fullscreenenter"",""trial"":1,""time"":5844},{""event"":""blur"",""trial"":75,""time"":5146934},{""event"":""focus"",""trial"":75,""time"":15112403},{""event"":""blur"",""trial"":75,""time"":16543611},{""event"":""focus"",""trial"":75,""time"":17128906},{""event"":""fullscreenexit"",""trial"":76,""time"":17164622},{""event"":""blur"",""trial"":76,""time"":17164636},{""event"":""focus"",""trial"":76,""time"":17313274}]",NA,2149.5,static/audio/ready.wav,NA,0,NA,NA,NA,NA,NA,NA,NA,NA,NA,NA,NA,NA,NA,NA,NA,NA,NA,NA,NA,NA,NA,NA,NA,NA,NA
fcp-trial,88,17469682,0.0-9.0-0.0,voc_e2,12191,"[{""event"":""fullscreenenter"",""trial"":1,""time"":5844},{""event"":""blur"",""trial"":75,""time"":5146934},{""event"":""focus"",""trial"":75,""time"":15112403},{""event"":""blur"",""trial"":75,""time"":16543611},{""event"":""focus"",""trial"":75,""time"":17128906},{""event"":""fullscreenexit"",""trial"":76,""time"":17164622},{""event"":""blur"",""trial"":76,""time"":17164636},{""event"":""focus"",""trial"":76,""time"":17313274}]",NA,NA,NA,NA,NA,0,#FA92F8,#1CD855,0,10,0,38,1,9687.5,39,0,2258.5,10,1,experiment,NA,NA,0,0.1,0.9,1,0,1,1,NA
fcp-trial,89,17478279,0.0-10.0-0.0,voc_e2,12191,"[{""event"":""fullscreenenter"",""trial"":1,""time"":5844},{""event"":""blur"",""trial"":75,""time"":5146934},{""event"":""focus"",""trial"":75,""time"":15112403},{""event"":""blur"",""trial"":75,""time"":16543611},{""event"":""focus"",""trial"":75,""time"":17128906},{""event"":""fullscreenexit"",""trial"":76,""time"":17164622},{""event"":""blur"",""trial"":76,""time"":17164636},{""event"":""focus"",""trial"":76,""time"":17313274}]",NA,NA,NA,NA,NA,6,#FA92F8,#1CD855,0,10,0,40,0,3490.2000000029802,39,0,3585.2999999970198,10,1,experiment,NA,NA,0,0.1,0.9,1,0,2,1,NA
fcp-trial,90,17483998,0.0-11.0-0.0,voc_e2,12191,"[{""event"":""fullscreenenter"",""trial"":1,""time"":5844},{""event"":""blur"",""trial"":75,""time"":5146934},{""event"":""focus"",""trial"":75,""time"":15112403},{""event"":""blur"",""trial"":75,""time"":16543611},{""event"":""focus"",""trial"":75,""time"":17128906},{""event"":""fullscreenexit"",""trial"":76,""time"":17164622},{""event"":""blur"",""trial"":76,""time"":17164636},{""event"":""focus"",""trial"":76,""time"":17313274}]",NA,NA,NA,NA,NA,4,#3386FF,#D89F1C,10,10,1,38,1,2729,37,1,1459.7999999970198,10,1,experiment,NA,NA,1,0.7,0.3,2,3,3,1,NA
fcp-trial,91,17488742,0.0-12.0-0.0,voc_e2,12191,"[{""event"":""fullscreenenter"",""trial"":1,""time"":5844},{""event"":""blur"",""trial"":75,""time"":5146934},{""event"":""focus"",""trial"":75,""time"":15112403},{""event"":""blur"",""trial"":75,""time"":16543611},{""event"":""focus"",""trial"":75,""time"":17128906},{""event"":""fullscreenexit"",""trial"":76,""time"":17164622},{""event"":""blur"",""trial"":76,""time"":17164636},{""event"":""focus"",""trial"":76,""time"":17313274}]",NA,NA,NA,NA,NA,3,#FA92F8,#1CD855,0,10,0,40,0,1931.2999999970198,39,0,1297.2000000029802,10,1,experiment,NA,NA,0,0.1,0.9,1,0,4,1,NA
fcp-trial,92,17493640,0.0-13.0-0.0,voc_e2,12191,"[{""event"":""fullscreenenter"",""trial"":1,""time"":5844},{""event"":""blur"",""trial"":75,""time"":5146934},{""event"":""focus"",""trial"":75,""time"":15112403},{""event"":""blur"",""trial"":75,""time"":16543611},{""event"":""focus"",""trial"":75,""time"":17128906},{""event"":""fullscreenexit"",""trial"":76,""time"":17164622},{""event"":""blur"",""trial"":76,""time"":17164636},{""event"":""focus"",""trial"":76,""time"":17313274}]",NA,NA,NA,NA,NA,0,#3386FF,#D89F1C,0,10,1,38,1,2029.2000000029802,39,0,1348.7999999970198,10,0,experiment,NA,NA,1,0.7,0.3,2,3,5,1,NA
fcp-trial,93,17497606,0.0-14.0-0.0,voc_e2,12191,"[{""event"":""fullscreenenter"",""trial"":1,""time"":5844},{""event"":""blur"",""trial"":75,""time"":5146934},{""event"":""focus"",""trial"":75,""time"":15112403},{""event"":""blur"",""trial"":75,""time"":16543611},{""event"":""focus"",""trial"":75,""time"":17128906},{""event"":""fullscreenexit"",""trial"":76,""time"":17164622},{""event"":""blur"",""trial"":76,""time"":17164636},{""event"":""focus"",""trial"":76,""time"":17313274}]",NA,NA,NA,NA,NA,6,#D8271C,#741CD8,0,10,0,40,0,1694.5,39,0,749.9000000059605,10,1,experiment,NA,NA,2,0.5,0.5,5,4,6,1,NA
fcp-trial,94,17500680,0.0-15.0-0.0,voc_e2,12191,"[{""event"":""fullscreenenter"",""trial"":1,""time"":5844},{""event"":""blur"",""trial"":75,""time"":5146934},{""event"":""focus"",""trial"":75,""time"":15112403},{""event"":""blur"",""trial"":75,""time"":16543611},{""event"":""focus"",""trial"":75,""time"":17128906},{""event"":""fullscreenexit"",""trial"":76,""time"":17164622},{""event"":""blur"",""trial"":76,""time"":17164636},{""event"":""focus"",""trial"":76,""time"":17313274}]",NA,NA,NA,NA,NA,5,#741CD8,#D8271C,10,0,1,40,0,883.5999999940395,39,0,663.4000000059605,0,0,experiment,NA,NA,2,0.5,0.5,4,5,7,1,NA
fcp-trial,95,17505302,0.0-16.0-0.0,voc_e2,12191,"[{""event"":""fullscreenenter"",""trial"":1,""time"":5844},{""event"":""blur"",""trial"":75,""time"":5146934},{""event"":""focus"",""trial"":75,""time"":15112403},{""event"":""blur"",""trial"":75,""time"":16543611},{""event"":""focus"",""trial"":75,""time"":17128906},{""event"":""fullscreenexit"",""trial"":76,""time"":17164622},{""event"":""blur"",""trial"":76,""time"":17164636},{""event"":""focus"",""trial"":76,""time"":17313274}]",NA,NA,NA,NA,NA,2,#1CD855,#FA92F8,10,0,1,38,1,1401.0999999940395,39,0,1696.2999999970198,0,0,experiment,NA,NA,0,0.9,0.1,0,1,8,1,NA
fcp-trial,96,17508738,0.0-17.0-0.0,voc_e2,12191,"[{""event"":""fullscreenenter"",""trial"":1,""time"":5844},{""event"":""blur"",""trial"":75,""time"":5146934},{""event"":""focus"",""trial"":75,""time"":15112403},{""event"":""blur"",""trial"":75,""time"":16543611},{""event"":""focus"",""trial"":75,""time"":17128906},{""event"":""fullscreenexit"",""trial"":76,""time"":17164622},{""event"":""blur"",""trial"":76,""time"":17164636},{""event"":""focus"",""trial"":76,""time"":17313274}]",NA,NA,NA,NA,NA,6,#D89F1C,#3386FF,0,10,0,40,0,1202.1000000089407,37,1,714.0999999940395,0,0,experiment,NA,NA,1,0.3,0.7,3,2,9,1,NA
fcp-trial,97,17512922,0.0-18.0-0.0,voc_e2,12191,"[{""event"":""fullscreenenter"",""trial"":1,""time"":5844},{""event"":""blur"",""trial"":75,""time"":5146934},{""event"":""focus"",""trial"":75,""time"":15112403},{""event"":""blur"",""trial"":75,""time"":16543611},{""event"":""focus"",""trial"":75,""time"":17128906},{""event"":""fullscreenexit"",""trial"":76,""time"":17164622},{""event"":""blur"",""trial"":76,""time"":17164636},{""event"":""focus"",""trial"":76,""time"":17313274}]",NA,NA,NA,NA,NA,2,#D89F1C,#3386FF,0,10,0,38,1,913.0999999940395,39,0,1754.4000000059605,10,1,experiment,NA,NA,1,0.3,0.7,3,2,10,1,NA
fcp-trial,98,17516420,0.0-19.0-0.0,voc_e2,12191,"[{""event"":""fullscreenenter"",""trial"":1,""time"":5844},{""event"":""blur"",""trial"":75,""time"":5146934},{""event"":""focus"",""trial"":75,""time"":15112403},{""event"":""blur"",""trial"":75,""time"":16543611},{""event"":""focus"",""trial"":75,""time"":17128906},{""event"":""fullscreenexit"",""trial"":76,""time"":17164622},{""event"":""blur"",""trial"":76,""time"":17164636},{""event"":""focus"",""trial"":76,""time"":17313274}]",NA,NA,NA,NA,NA,5,#3386FF,#D89F1C,10,10,1,40,0,1162.4000000059605,39,0,814.5,10,0,experiment,NA,NA,1,0.7,0.3,2,3,11,1,NA
fcp-trial,99,17523497,0.0-20.0-0.0,voc_e2,12191,"[{""event"":""fullscreenenter"",""trial"":1,""time"":5844},{""event"":""blur"",""trial"":75,""time"":5146934},{""event"":""focus"",""trial"":75,""time"":15112403},{""event"":""blur"",""trial"":75,""time"":16543611},{""event"":""focus"",""trial"":75,""time"":17128906},{""event"":""fullscreenexit"",""trial"":76,""time"":17164622},{""event"":""blur"",""trial"":76,""time"":17164636},{""event"":""focus"",""trial"":76,""time"":17313274}]",NA,NA,NA,NA,NA,2,#D8271C,#741CD8,10,0,0,38,1,5091.29999999702,39,0,466.5,0,1,experiment,NA,NA,2,0.5,0.5,5,4,12,1,NA
fcp-trial,100,17533039,0.0-21.0-0.0,voc_e2,12191,"[{""event"":""fullscreenenter"",""trial"":1,""time"":5844},{""event"":""blur"",""trial"":75,""time"":5146934},{""event"":""focus"",""trial"":75,""time"":15112403},{""event"":""blur"",""trial"":75,""time"":16543611},{""event"":""focus"",""trial"":75,""time"":17128906},{""event"":""fullscreenexit"",""trial"":76,""time"":17164622},{""event"":""blur"",""trial"":76,""time"":17164636},{""event"":""focus"",""trial"":76,""time"":17313274}]",NA,NA,NA,NA,NA,4,#1CD855,#FA92F8,10,0,1,38,1,7446.0999999940395,37,1,577.6999999880791,10,1,experiment,NA,NA,0,0.9,0.1,0,1,13,1,NA
fcp-trial,101,17536224,0.0-22.0-0.0,voc_e2,12191,"[{""event"":""fullscreenenter"",""trial"":1,""time"":5844},{""event"":""blur"",""trial"":75,""time"":5146934},{""event"":""focus"",""trial"":75,""time"":15112403},{""event"":""blur"",""trial"":75,""time"":16543611},{""event"":""focus"",""trial"":75,""time"":17128906},{""event"":""fullscreenexit"",""trial"":76,""time"":17164622},{""event"":""blur"",""trial"":76,""time"":17164636},{""event"":""focus"",""trial"":76,""time"":17313274}]",NA,NA,NA,NA,NA,1,#741CD8,#D8271C,0,10,1,38,1,1269.5,39,0,400.1000000089407,10,0,experiment,NA,NA,2,0.5,0.5,4,5,14,1,NA
fcp-trial,102,17539243,0.0-23.0-0.0,voc_e2,12191,"[{""event"":""fullscreenenter"",""trial"":1,""time"":5844},{""event"":""blur"",""trial"":75,""time"":5146934},{""event"":""focus"",""trial"":75,""time"":15112403},{""event"":""blur"",""trial"":75,""time"":16543611},{""event"":""focus"",""trial"":75,""time"":17128906},{""event"":""fullscreenexit"",""trial"":76,""time"":17164622},{""event"":""blur"",""trial"":76,""time"":17164636},{""event"":""focus"",""trial"":76,""time"":17313274}]",NA,NA,NA,NA,NA,0,#741CD8,#D8271C,0,10,1,38,1,1014.6000000089407,39,0,485,10,0,experiment,NA,NA,2,0.5,0.5,4,5,15,1,NA
fcp-trial,103,17546700,0.0-24.0-0.0,voc_e2,12191,"[{""event"":""fullscreenenter"",""trial"":1,""time"":5844},{""event"":""blur"",""trial"":75,""time"":5146934},{""event"":""focus"",""trial"":75,""time"":15112403},{""event"":""blur"",""trial"":75,""time"":16543611},{""event"":""focus"",""trial"":75,""time"":17128906},{""event"":""fullscreenexit"",""trial"":76,""time"":17164622},{""event"":""blur"",""trial"":76,""time"":17164636},{""event"":""focus"",""trial"":76,""time"":17313274}]",NA,NA,NA,NA,NA,1,#D89F1C,#3386FF,0,10,0,38,1,5413.5,37,1,521.2000000029802,0,0,experiment,NA,NA,1,0.3,0.7,3,2,16,1,NA
fcp-trial,104,17550934,0.0-25.0-0.0,voc_e2,12191,"[{""event"":""fullscreenenter"",""trial"":1,""time"":5844},{""event"":""blur"",""trial"":75,""time"":5146934},{""event"":""focus"",""trial"":75,""time"":15112403},{""event"":""blur"",""trial"":75,""time"":16543611},{""event"":""focus"",""trial"":75,""time"":17128906},{""event"":""fullscreenexit"",""trial"":76,""time"":17164622},{""event"":""blur"",""trial"":76,""time"":17164636},{""event"":""focus"",""trial"":76,""time"":17313274}]",NA,NA,NA,NA,NA,5,#FA92F8,#1CD855,0,10,0,40,0,2064.8999999910593,37,1,653.2999999970198,0,0,experiment,NA,NA,0,0.1,0.9,1,0,17,1,NA
fcp-trial,105,17554349,0.0-26.0-0.0,voc_e2,12191,"[{""event"":""fullscreenenter"",""trial"":1,""time"":5844},{""event"":""blur"",""trial"":75,""time"":5146934},{""event"":""focus"",""trial"":75,""time"":15112403},{""event"":""blur"",""trial"":75,""time"":16543611},{""event"":""focus"",""trial"":75,""time"":17128906},{""event"":""fullscreenexit"",""trial"":76,""time"":17164622},{""event"":""blur"",""trial"":76,""time"":17164636},{""event"":""focus"",""trial"":76,""time"":17313274}]",NA,NA,NA,NA,NA,3,#D8271C,#741CD8,10,0,0,38,1,1276.2999999970198,37,1,624.9000000059605,10,0,experiment,NA,NA,2,0.5,0.5,5,4,18,1,NA
fcp-trial,106,17558804,0.0-27.0-0.0,voc_e2,12191,"[{""event"":""fullscreenenter"",""trial"":1,""time"":5844},{""event"":""blur"",""trial"":75,""time"":5146934},{""event"":""focus"",""trial"":75,""time"":15112403},{""event"":""blur"",""trial"":75,""time"":16543611},{""event"":""focus"",""trial"":75,""time"":17128906},{""event"":""fullscreenexit"",""trial"":76,""time"":17164622},{""event"":""blur"",""trial"":76,""time"":17164636},{""event"":""focus"",""trial"":76,""time"":17313274}]",NA,NA,NA,NA,NA,4,#D8271C,#741CD8,10,0,0,38,1,2362.1000000089407,37,1,575.7000000029802,10,0,experiment,NA,NA,2,0.5,0.5,5,4,19,1,NA
fcp-trial,107,17562265,0.0-28.0-0.0,voc_e2,12191,"[{""event"":""fullscreenenter"",""trial"":1,""time"":5844},{""event"":""blur"",""trial"":75,""time"":5146934},{""event"":""focus"",""trial"":75,""time"":15112403},{""event"":""blur"",""trial"":75,""time"":16543611},{""event"":""focus"",""trial"":75,""time"":17128906},{""event"":""fullscreenexit"",""trial"":76,""time"":17164622},{""event"":""blur"",""trial"":76,""time"":17164636},{""event"":""focus"",""trial"":76,""time"":17313274}]",NA,NA,NA,NA,NA,1,#FA92F8,#1CD855,10,10,0,38,1,1176.7000000029802,37,1,762.7000000029802,10,0,experiment,NA,NA,0,0.1,0.9,1,0,20,1,NA
fcp-trial,108,17568059,0.0-29.0-0.0,voc_e2,12191,"[{""event"":""fullscreenenter"",""trial"":1,""time"":5844},{""event"":""blur"",""trial"":75,""time"":5146934},{""event"":""focus"",""trial"":75,""time"":15112403},{""event"":""blur"",""trial"":75,""time"":16543611},{""event"":""focus"",""trial"":75,""time"":17128906},{""event"":""fullscreenexit"",""trial"":76,""time"":17164622},{""event"":""blur"",""trial"":76,""time"":17164636},{""event"":""focus"",""trial"":76,""time"":17313274}]",NA,NA,NA,NA,NA,3,#3386FF,#D89F1C,10,10,1,38,1,1025.0999999940395,37,1,3243.0999999940395,10,1,experiment,NA,NA,1,0.7,0.3,2,3,21,1,NA
fcp-trial,109,17574795,0.0-30.0-0.0,voc_e2,12191,"[{""event"":""fullscreenenter"",""trial"":1,""time"":5844},{""event"":""blur"",""trial"":75,""time"":5146934},{""event"":""focus"",""trial"":75,""time"":15112403},{""event"":""blur"",""trial"":75,""time"":16543611},{""event"":""focus"",""trial"":75,""time"":17128906},{""event"":""fullscreenexit"",""trial"":76,""time"":17164622},{""event"":""blur"",""trial"":76,""time"":17164636},{""event"":""focus"",""trial"":76,""time"":17313274}]",NA,NA,NA,NA,NA,0,#1CD855,#FA92F8,10,0,1,40,0,3105.0999999940395,37,1,2109.699999988079,10,1,experiment,NA,NA,0,0.9,0.1,0,1,22,1,NA
fcp-trial,110,17580468,0.0-31.0-0.0,voc_e2,12191,"[{""event"":""fullscreenenter"",""trial"":1,""time"":5844},{""event"":""blur"",""trial"":75,""time"":5146934},{""event"":""focus"",""trial"":75,""time"":15112403},{""event"":""blur"",""trial"":75,""time"":16543611},{""event"":""focus"",""trial"":75,""time"":17128906},{""event"":""fullscreenexit"",""trial"":76,""time"":17164622},{""event"":""blur"",""trial"":76,""time"":17164636},{""event"":""focus"",""trial"":76,""time"":17313274}]",NA,NA,NA,NA,NA,2,#D89F1C,#3386FF,0,0,0,38,1,1664.0999999940395,37,1,2493.7000000029802,0,0,experiment,NA,NA,1,0.3,0.7,3,2,23,1,NA
fcp-trial,111,17583244,0.0-32.0-0.0,voc_e2,12191,"[{""event"":""fullscreenenter"",""trial"":1,""time"":5844},{""event"":""blur"",""trial"":75,""time"":5146934},{""event"":""focus"",""trial"":75,""time"":15112403},{""event"":""blur"",""trial"":75,""time"":16543611},{""event"":""focus"",""trial"":75,""time"":17128906},{""event"":""fullscreenexit"",""trial"":76,""time"":17164622},{""event"":""blur"",""trial"":76,""time"":17164636},{""event"":""focus"",""trial"":76,""time"":17313274}]",NA,NA,NA,NA,NA,4,#D89F1C,#3386FF,10,10,0,38,1,718.5,39,0,544.2999999970198,10,1,experiment,NA,NA,1,0.3,0.7,3,2,24,1,NA
fcp-trial,112,17586023,0.0-33.0-0.0,voc_e2,12191,"[{""event"":""fullscreenenter"",""trial"":1,""time"":5844},{""event"":""blur"",""trial"":75,""time"":5146934},{""event"":""focus"",""trial"":75,""time"":15112403},{""event"":""blur"",""trial"":75,""time"":16543611},{""event"":""focus"",""trial"":75,""time"":17128906},{""event"":""fullscreenexit"",""trial"":76,""time"":17164622},{""event"":""blur"",""trial"":76,""time"":17164636},{""event"":""focus"",""trial"":76,""time"":17313274}]",NA,NA,NA,NA,NA,5,#3386FF,#D89F1C,10,10,1,38,1,760.4000000059605,37,1,495.3999999910593,10,1,experiment,NA,NA,1,0.7,0.3,2,3,25,1,NA
fcp-trial,113,17589284,0.0-34.0-0.0,voc_e2,12191,"[{""event"":""fullscreenenter"",""trial"":1,""time"":5844},{""event"":""blur"",""trial"":75,""time"":5146934},{""event"":""focus"",""trial"":75,""time"":15112403},{""event"":""blur"",""trial"":75,""time"":16543611},{""event"":""focus"",""trial"":75,""time"":17128906},{""event"":""fullscreenexit"",""trial"":76,""time"":17164622},{""event"":""blur"",""trial"":76,""time"":17164636},{""event"":""focus"",""trial"":76,""time"":17313274}]",NA,NA,NA,NA,NA,0,#D8271C,#741CD8,10,10,0,38,1,1283.5,37,1,451.29999999701977,10,0,experiment,NA,NA,2,0.5,0.5,5,4,26,1,NA
fcp-trial,114,17594567,0.0-35.0-0.0,voc_e2,12191,"[{""event"":""fullscreenenter"",""trial"":1,""time"":5844},{""event"":""blur"",""trial"":75,""time"":5146934},{""event"":""focus"",""trial"":75,""time"":15112403},{""event"":""blur"",""trial"":75,""time"":16543611},{""event"":""focus"",""trial"":75,""time"":17128906},{""event"":""fullscreenexit"",""trial"":76,""time"":17164622},{""event"":""blur"",""trial"":76,""time"":17164636},{""event"":""focus"",""trial"":76,""time"":17313274}]",NA,NA,NA,NA,NA,1,#FA92F8,#1CD855,0,0,0,38,1,850.3999999910593,37,1,2895.8999999910593,0,0,experiment,NA,NA,0,0.1,0.9,1,0,27,1,NA
fcp-trial,115,17597387,0.0-36.0-0.0,voc_e2,12191,"[{""event"":""fullscreenenter"",""trial"":1,""time"":5844},{""event"":""blur"",""trial"":75,""time"":5146934},{""event"":""focus"",""trial"":75,""time"":15112403},{""event"":""blur"",""trial"":75,""time"":16543611},{""event"":""focus"",""trial"":75,""time"":17128906},{""event"":""fullscreenexit"",""trial"":76,""time"":17164622},{""event"":""blur"",""trial"":76,""time"":17164636},{""event"":""focus"",""trial"":76,""time"":17313274}]",NA,NA,NA,NA,NA,5,#D8271C,#741CD8,10,0,0,38,1,668.2000000029802,37,1,630.2000000029802,10,0,experiment,NA,NA,2,0.5,0.5,5,4,28,1,NA
fcp-trial,116,17601152,0.0-37.0-0.0,voc_e2,12191,"[{""event"":""fullscreenenter"",""trial"":1,""time"":5844},{""event"":""blur"",""trial"":75,""time"":5146934},{""event"":""focus"",""trial"":75,""time"":15112403},{""event"":""blur"",""trial"":75,""time"":16543611},{""event"":""focus"",""trial"":75,""time"":17128906},{""event"":""fullscreenexit"",""trial"":76,""time"":17164622},{""event"":""blur"",""trial"":76,""time"":17164636},{""event"":""focus"",""trial"":76,""time"":17313274}]",NA,NA,NA,NA,NA,3,#3386FF,#D89F1C,0,0,1,38,1,438.09999999403954,37,1,1811.9000000059605,0,1,experiment,NA,NA,1,0.7,0.3,2,3,29,1,NA
fcp-trial,117,17603852,0.0-38.0-0.0,voc_e2,12191,"[{""event"":""fullscreenenter"",""trial"":1,""time"":5844},{""event"":""blur"",""trial"":75,""time"":5146934},{""event"":""focus"",""trial"":75,""time"":15112403},{""event"":""blur"",""trial"":75,""time"":16543611},{""event"":""focus"",""trial"":75,""time"":17128906},{""event"":""fullscreenexit"",""trial"":76,""time"":17164622},{""event"":""blur"",""trial"":76,""time"":17164636},{""event"":""focus"",""trial"":76,""time"":17313274}]",NA,NA,NA,NA,NA,2,#1CD855,#FA92F8,10,0,1,38,1,686.2999999970198,39,0,497.5,0,0,experiment,NA,NA,0,0.9,0.1,0,1,30,1,NA
fcp-trial,118,17609079,0.0-39.0-0.0,voc_e2,12191,"[{""event"":""fullscreenenter"",""trial"":1,""time"":5844},{""event"":""blur"",""trial"":75,""time"":5146934},{""event"":""focus"",""trial"":75,""time"":15112403},{""event"":""blur"",""trial"":75,""time"":16543611},{""event"":""focus"",""trial"":75,""time"":17128906},{""event"":""fullscreenexit"",""trial"":76,""time"":17164622},{""event"":""blur"",""trial"":76,""time"":17164636},{""event"":""focus"",""trial"":76,""time"":17313274}]",NA,NA,NA,NA,NA,0,#3386FF,#D89F1C,10,10,1,38,1,2196.2999999970198,37,1,1513,10,1,experiment,NA,NA,1,0.7,0.3,2,3,31,1,NA
fcp-trial,119,17612046,0.0-40.0-0.0,voc_e2,12191,"[{""event"":""fullscreenenter"",""trial"":1,""time"":5844},{""event"":""blur"",""trial"":75,""time"":5146934},{""event"":""focus"",""trial"":75,""time"":15112403},{""event"":""blur"",""trial"":75,""time"":16543611},{""event"":""focus"",""trial"":75,""time"":17128906},{""event"":""fullscreenexit"",""trial"":76,""time"":17164622},{""event"":""blur"",""trial"":76,""time"":17164636},{""event"":""focus"",""trial"":76,""time"":17313274}]",NA,NA,NA,NA,NA,4,#741CD8,#D8271C,0,0,1,38,1,758,39,0,679,0,0,experiment,NA,NA,2,0.5,0.5,4,5,32,1,NA
fcp-trial,120,17617218,0.0-41.0-0.0,voc_e2,12191,"[{""event"":""fullscreenenter"",""trial"":1,""time"":5844},{""event"":""blur"",""trial"":75,""time"":5146934},{""event"":""focus"",""trial"":75,""time"":15112403},{""event"":""blur"",""trial"":75,""time"":16543611},{""event"":""focus"",""trial"":75,""time"":17128906},{""event"":""fullscreenexit"",""trial"":76,""time"":17164622},{""event"":""blur"",""trial"":76,""time"":17164636},{""event"":""focus"",""trial"":76,""time"":17313274}]",NA,NA,NA,NA,NA,4,#1CD855,#FA92F8,10,0,1,38,1,1287.2000000029802,37,1,2364.2000000029802,10,1,experiment,NA,NA,0,0.9,0.1,0,1,33,1,NA
fcp-trial,121,17621994,0.0-42.0-0.0,voc_e2,12191,"[{""event"":""fullscreenenter"",""trial"":1,""time"":5844},{""event"":""blur"",""trial"":75,""time"":5146934},{""event"":""focus"",""trial"":75,""time"":15112403},{""event"":""blur"",""trial"":75,""time"":16543611},{""event"":""focus"",""trial"":75,""time"":17128906},{""event"":""fullscreenexit"",""trial"":76,""time"":17164622},{""event"":""blur"",""trial"":76,""time"":17164636},{""event"":""focus"",""trial"":76,""time"":17313274}]",NA,NA,NA,NA,NA,6,#3386FF,#D89F1C,10,10,1,38,1,1174.6000000089407,37,1,2075.7000000029802,10,1,experiment,NA,NA,1,0.7,0.3,2,3,34,1,NA
fcp-trial,122,17625622,0.0-43.0-0.0,voc_e2,12191,"[{""event"":""fullscreenenter"",""trial"":1,""time"":5844},{""event"":""blur"",""trial"":75,""time"":5146934},{""event"":""focus"",""trial"":75,""time"":15112403},{""event"":""blur"",""trial"":75,""time"":16543611},{""event"":""focus"",""trial"":75,""time"":17128906},{""event"":""fullscreenexit"",""trial"":76,""time"":17164622},{""event"":""blur"",""trial"":76,""time"":17164636},{""event"":""focus"",""trial"":76,""time"":17313274}]",NA,NA,NA,NA,NA,6,#741CD8,#D8271C,0,0,1,38,1,829,39,0,1279.5,0,0,experiment,NA,NA,2,0.5,0.5,4,5,35,1,NA
fcp-trial,123,17629514,0.0-44.0-0.0,voc_e2,12191,"[{""event"":""fullscreenenter"",""trial"":1,""time"":5844},{""event"":""blur"",""trial"":75,""time"":5146934},{""event"":""focus"",""trial"":75,""time"":15112403},{""event"":""blur"",""trial"":75,""time"":16543611},{""event"":""focus"",""trial"":75,""time"":17128906},{""event"":""fullscreenexit"",""trial"":76,""time"":17164622},{""event"":""blur"",""trial"":76,""time"":17164636},{""event"":""focus"",""trial"":76,""time"":17313274}]",NA,NA,NA,NA,NA,6,#1CD855,#FA92F8,10,0,1,38,1,811.0999999940395,39,0,1563.300000011921,0,0,experiment,NA,NA,0,0.9,0.1,0,1,36,1,NA
fcp-trial,124,17633279,0.0-45.0-0.0,voc_e2,12191,"[{""event"":""fullscreenenter"",""trial"":1,""time"":5844},{""event"":""blur"",""trial"":75,""time"":5146934},{""event"":""focus"",""trial"":75,""time"":15112403},{""event"":""blur"",""trial"":75,""time"":16543611},{""event"":""focus"",""trial"":75,""time"":17128906},{""event"":""fullscreenexit"",""trial"":76,""time"":17164622},{""event"":""blur"",""trial"":76,""time"":17164636},{""event"":""focus"",""trial"":76,""time"":17313274}]",NA,NA,NA,NA,NA,3,#D8271C,#741CD8,10,10,0,38,1,763.7000000029802,37,1,1478.9000000059605,10,0,experiment,NA,NA,2,0.5,0.5,5,4,37,1,NA
fcp-trial,125,17638805,0.0-46.0-0.0,voc_e2,12191,"[{""event"":""fullscreenenter"",""trial"":1,""time"":5844},{""event"":""blur"",""trial"":75,""time"":5146934},{""event"":""focus"",""trial"":75,""time"":15112403},{""event"":""blur"",""trial"":75,""time"":16543611},{""event"":""focus"",""trial"":75,""time"":17128906},{""event"":""fullscreenexit"",""trial"":76,""time"":17164622},{""event"":""blur"",""trial"":76,""time"":17164636},{""event"":""focus"",""trial"":76,""time"":17313274}]",NA,NA,NA,NA,NA,3,#FA92F8,#1CD855,0,10,0,38,1,859.2000000029802,39,0,3138.7000000029802,10,1,experiment,NA,NA,0,0.1,0.9,1,0,38,1,NA
fcp-trial,126,17643532,0.0-47.0-0.0,voc_e2,12191,"[{""event"":""fullscreenenter"",""trial"":1,""time"":5844},{""event"":""blur"",""trial"":75,""time"":5146934},{""event"":""focus"",""trial"":75,""time"":15112403},{""event"":""blur"",""trial"":75,""time"":16543611},{""event"":""focus"",""trial"":75,""time"":17128906},{""event"":""fullscreenexit"",""trial"":76,""time"":17164622},{""event"":""blur"",""trial"":76,""time"":17164636},{""event"":""focus"",""trial"":76,""time"":17313274}]",NA,NA,NA,NA,NA,1,#D89F1C,#3386FF,10,10,0,38,1,1771.5,37,1,1435.5,10,0,experiment,NA,NA,1,0.3,0.7,3,2,39,1,NA
fcp-trial,127,17648633,0.0-48.0-0.0,voc_e2,12191,"[{""event"":""fullscreenenter"",""trial"":1,""time"":5844},{""event"":""blur"",""trial"":75,""time"":5146934},{""event"":""focus"",""trial"":75,""time"":15112403},{""event"":""blur"",""trial"":75,""time"":16543611},{""event"":""focus"",""trial"":75,""time"":17128906},{""event"":""fullscreenexit"",""trial"":76,""time"":17164622},{""event"":""blur"",""trial"":76,""time"":17164636},{""event"":""focus"",""trial"":76,""time"":17313274}]",NA,NA,NA,NA,NA,2,#D8271C,#741CD8,10,0,0,38,1,2388.9000000059605,39,0,1189.7999999970198,0,1,experiment,NA,NA,2,0.5,0.5,5,4,40,1,NA
fcp-trial,128,17651140,0.0-49.0-0.0,voc_e2,12191,"[{""event"":""fullscreenenter"",""trial"":1,""time"":5844},{""event"":""blur"",""trial"":75,""time"":5146934},{""event"":""focus"",""trial"":75,""time"":15112403},{""event"":""blur"",""trial"":75,""time"":16543611},{""event"":""focus"",""trial"":75,""time"":17128906},{""event"":""fullscreenexit"",""trial"":76,""time"":17164622},{""event"":""blur"",""trial"":76,""time"":17164636},{""event"":""focus"",""trial"":76,""time"":17313274}]",NA,NA,NA,NA,NA,1,#D8271C,#741CD8,10,0,0,38,1,379.5,37,1,608.8999999910593,10,0,experiment,NA,NA,2,0.5,0.5,5,4,41,1,NA
fcp-trial,129,17654584,0.0-50.0-0.0,voc_e2,12191,"[{""event"":""fullscreenenter"",""trial"":1,""time"":5844},{""event"":""blur"",""trial"":75,""time"":5146934},{""event"":""focus"",""trial"":75,""time"":15112403},{""event"":""blur"",""trial"":75,""time"":16543611},{""event"":""focus"",""trial"":75,""time"":17128906},{""event"":""fullscreenexit"",""trial"":76,""time"":17164622},{""event"":""blur"",""trial"":76,""time"":17164636},{""event"":""focus"",""trial"":76,""time"":17313274}]",NA,NA,NA,NA,NA,5,#1CD855,#FA92F8,10,0,1,38,1,656.7000000029802,39,0,1266.5999999940395,0,0,experiment,NA,NA,0,0.9,0.1,0,1,42,1,NA
fcp-trial,130,17657318,0.0-51.0-0.0,voc_e2,12191,"[{""event"":""fullscreenenter"",""trial"":1,""time"":5844},{""event"":""blur"",""trial"":75,""time"":5146934},{""event"":""focus"",""trial"":75,""time"":15112403},{""event"":""blur"",""trial"":75,""time"":16543611},{""event"":""focus"",""trial"":75,""time"":17128906},{""event"":""fullscreenexit"",""trial"":76,""time"":17164622},{""event"":""blur"",""trial"":76,""time"":17164636},{""event"":""focus"",""trial"":76,""time"":17313274}]",NA,NA,NA,NA,NA,2,#FA92F8,#1CD855,0,10,0,38,1,444.59999999403954,39,0,767.8999999910593,10,1,experiment,NA,NA,0,0.1,0.9,1,0,43,1,NA
fcp-trial,131,17660106,0.0-52.0-0.0,voc_e2,12191,"[{""event"":""fullscreenenter"",""trial"":1,""time"":5844},{""event"":""blur"",""trial"":75,""time"":5146934},{""event"":""focus"",""trial"":75,""time"":15112403},{""event"":""blur"",""trial"":75,""time"":16543611},{""event"":""focus"",""trial"":75,""time"":17128906},{""event"":""fullscreenexit"",""trial"":76,""time"":17164622},{""event"":""blur"",""trial"":76,""time"":17164636},{""event"":""focus"",""trial"":76,""time"":17313274}]",NA,NA,NA,NA,NA,3,#D8271C,#741CD8,0,10,0,38,1,648.9000000059605,37,1,615.9000000059605,0,0,experiment,NA,NA,2,0.5,0.5,5,4,44,1,NA
fcp-trial,132,17663803,0.0-53.0-0.0,voc_e2,12191,"[{""event"":""fullscreenenter"",""trial"":1,""time"":5844},{""event"":""blur"",""trial"":75,""time"":5146934},{""event"":""focus"",""trial"":75,""time"":15112403},{""event"":""blur"",""trial"":75,""time"":16543611},{""event"":""focus"",""trial"":75,""time"":17128906},{""event"":""fullscreenexit"",""trial"":76,""time"":17164622},{""event"":""blur"",""trial"":76,""time"":17164636},{""event"":""focus"",""trial"":76,""time"":17313274}]",NA,NA,NA,NA,NA,2,#3386FF,#D89F1C,0,10,1,38,1,1388.699999988079,37,1,793.0999999940395,0,1,experiment,NA,NA,1,0.7,0.3,2,3,45,1,NA
fcp-trial,133,17666549,0.0-54.0-0.0,voc_e2,12191,"[{""event"":""fullscreenenter"",""trial"":1,""time"":5844},{""event"":""blur"",""trial"":75,""time"":5146934},{""event"":""focus"",""trial"":75,""time"":15112403},{""event"":""blur"",""trial"":75,""time"":16543611},{""event"":""focus"",""trial"":75,""time"":17128906},{""event"":""fullscreenexit"",""trial"":76,""time"":17164622},{""event"":""blur"",""trial"":76,""time"":17164636},{""event"":""focus"",""trial"":76,""time"":17313274}]",NA,NA,NA,NA,NA,2,#D8271C,#741CD8,10,0,0,38,1,589.2000000029802,37,1,641.6000000089407,10,0,experiment,NA,NA,2,0.5,0.5,5,4,46,2,NA
fcp-trial,134,17671731,0.0-55.0-0.0,voc_e2,12191,"[{""event"":""fullscreenenter"",""trial"":1,""time"":5844},{""event"":""blur"",""trial"":75,""time"":5146934},{""event"":""focus"",""trial"":75,""time"":15112403},{""event"":""blur"",""trial"":75,""time"":16543611},{""event"":""focus"",""trial"":75,""time"":17128906},{""event"":""fullscreenexit"",""trial"":76,""time"":17164622},{""event"":""blur"",""trial"":76,""time"":17164636},{""event"":""focus"",""trial"":76,""time"":17313274}]",NA,NA,NA,NA,NA,6,#1CD855,#FA92F8,10,0,1,38,1,1424,37,1,2239.2000000029802,10,1,experiment,NA,NA,0,0.9,0.1,0,1,47,2,NA
fcp-trial,135,17675536,0.0-56.0-0.0,voc_e2,12191,"[{""event"":""fullscreenenter"",""trial"":1,""time"":5844},{""event"":""blur"",""trial"":75,""time"":5146934},{""event"":""focus"",""trial"":75,""time"":15112403},{""event"":""blur"",""trial"":75,""time"":16543611},{""event"":""focus"",""trial"":75,""time"":17128906},{""event"":""fullscreenexit"",""trial"":76,""time"":17164622},{""event"":""blur"",""trial"":76,""time"":17164636},{""event"":""focus"",""trial"":76,""time"":17313274}]",NA,NA,NA,NA,NA,6,#D8271C,#741CD8,10,0,0,38,1,1162.5999999940395,37,1,1123.8999999910593,10,0,experiment,NA,NA,2,0.5,0.5,5,4,48,2,NA
fcp-trial,136,17680541,0.0-57.0-0.0,voc_e2,12191,"[{""event"":""fullscreenenter"",""trial"":1,""time"":5844},{""event"":""blur"",""trial"":75,""time"":5146934},{""event"":""focus"",""trial"":75,""time"":15112403},{""event"":""blur"",""trial"":75,""time"":16543611},{""event"":""focus"",""trial"":75,""time"":17128906},{""event"":""fullscreenexit"",""trial"":76,""time"":17164622},{""event"":""blur"",""trial"":76,""time"":17164636},{""event"":""focus"",""trial"":76,""time"":17313274}]",NA,NA,NA,NA,NA,1,#1CD855,#FA92F8,10,0,1,38,1,1412.4000000059605,37,1,2073.5999999940395,10,1,experiment,NA,NA,0,0.9,0.1,0,1,49,2,NA
fcp-trial,137,17683431,0.0-58.0-0.0,voc_e2,12191,"[{""event"":""fullscreenenter"",""trial"":1,""time"":5844},{""event"":""blur"",""trial"":75,""time"":5146934},{""event"":""focus"",""trial"":75,""time"":15112403},{""event"":""blur"",""trial"":75,""time"":16543611},{""event"":""focus"",""trial"":75,""time"":17128906},{""event"":""fullscreenexit"",""trial"":76,""time"":17164622},{""event"":""blur"",""trial"":76,""time"":17164636},{""event"":""focus"",""trial"":76,""time"":17313274}]",NA,NA,NA,NA,NA,0,#3386FF,#D89F1C,10,0,1,38,1,788.2999999970198,39,0,583.2000000029802,0,0,experiment,NA,NA,1,0.7,0.3,2,3,50,2,NA
fcp-trial,138,17686250,0.0-59.0-0.0,voc_e2,12191,"[{""event"":""fullscreenenter"",""trial"":1,""time"":5844},{""event"":""blur"",""trial"":75,""time"":5146934},{""event"":""focus"",""trial"":75,""time"":15112403},{""event"":""blur"",""trial"":75,""time"":16543611},{""event"":""focus"",""trial"":75,""time"":17128906},{""event"":""fullscreenexit"",""trial"":76,""time"":17164622},{""event"":""blur"",""trial"":76,""time"":17164636},{""event"":""focus"",""trial"":76,""time"":17313274}]",NA,NA,NA,NA,NA,3,#3386FF,#D89F1C,10,10,1,38,1,396.70000000298023,37,1,899.3999999910593,10,1,experiment,NA,NA,1,0.7,0.3,2,3,51,2,NA
fcp-trial,139,17689301,0.0-60.0-0.0,voc_e2,12191,"[{""event"":""fullscreenenter"",""trial"":1,""time"":5844},{""event"":""blur"",""trial"":75,""time"":5146934},{""event"":""focus"",""trial"":75,""time"":15112403},{""event"":""blur"",""trial"":75,""time"":16543611},{""event"":""focus"",""trial"":75,""time"":17128906},{""event"":""fullscreenexit"",""trial"":76,""time"":17164622},{""event"":""blur"",""trial"":76,""time"":17164636},{""event"":""focus"",""trial"":76,""time"":17313274}]",NA,NA,NA,NA,NA,6,#D89F1C,#3386FF,0,0,0,38,1,888,39,0,646.7000000029802,0,1,experiment,NA,NA,1,0.3,0.7,3,2,52,2,NA
fcp-trial,140,17692968,0.0-61.0-0.0,voc_e2,12191,"[{""event"":""fullscreenenter"",""trial"":1,""time"":5844},{""event"":""blur"",""trial"":75,""time"":5146934},{""event"":""focus"",""trial"":75,""time"":15112403},{""event"":""blur"",""trial"":75,""time"":16543611},{""event"":""focus"",""trial"":75,""time"":17128906},{""event"":""fullscreenexit"",""trial"":76,""time"":17164622},{""event"":""blur"",""trial"":76,""time"":17164636},{""event"":""focus"",""trial"":76,""time"":17313274}]",NA,NA,NA,NA,NA,4,#D8271C,#741CD8,10,10,0,38,1,623.4000000059605,37,1,1520.6000000089407,10,0,experiment,NA,NA,2,0.5,0.5,5,4,53,2,NA
fcp-trial,141,17699406,0.0-62.0-0.0,voc_e2,12191,"[{""event"":""fullscreenenter"",""trial"":1,""time"":5844},{""event"":""blur"",""trial"":75,""time"":5146934},{""event"":""focus"",""trial"":75,""time"":15112403},{""event"":""blur"",""trial"":75,""time"":16543611},{""event"":""focus"",""trial"":75,""time"":17128906},{""event"":""fullscreenexit"",""trial"":76,""time"":17164622},{""event"":""blur"",""trial"":76,""time"":17164636},{""event"":""focus"",""trial"":76,""time"":17313274}]",NA,NA,NA,NA,NA,3,#FA92F8,#1CD855,0,10,0,38,1,1962.2999999970198,37,1,2959,0,0,experiment,NA,NA,0,0.1,0.9,1,0,54,2,NA
fcp-trial,142,17701996,0.0-63.0-0.0,voc_e2,12191,"[{""event"":""fullscreenenter"",""trial"":1,""time"":5844},{""event"":""blur"",""trial"":75,""time"":5146934},{""event"":""focus"",""trial"":75,""time"":15112403},{""event"":""blur"",""trial"":75,""time"":16543611},{""event"":""focus"",""trial"":75,""time"":17128906},{""event"":""fullscreenexit"",""trial"":76,""time"":17164622},{""event"":""blur"",""trial"":76,""time"":17164636},{""event"":""focus"",""trial"":76,""time"":17313274}]",NA,NA,NA,NA,NA,4,#3386FF,#D89F1C,0,10,1,38,1,427.70000000298023,39,0,648.9000000059605,10,0,experiment,NA,NA,1,0.7,0.3,2,3,55,2,NA
fcp-trial,143,17704949,0.0-64.0-0.0,voc_e2,12191,"[{""event"":""fullscreenenter"",""trial"":1,""time"":5844},{""event"":""blur"",""trial"":75,""time"":5146934},{""event"":""focus"",""trial"":75,""time"":15112403},{""event"":""blur"",""trial"":75,""time"":16543611},{""event"":""focus"",""trial"":75,""time"":17128906},{""event"":""fullscreenexit"",""trial"":76,""time"":17164622},{""event"":""blur"",""trial"":76,""time"":17164636},{""event"":""focus"",""trial"":76,""time"":17313274}]",NA,NA,NA,NA,NA,4,#1CD855,#FA92F8,10,0,1,38,1,491.59999999403954,37,1,938.5999999940395,10,1,experiment,NA,NA,0,0.9,0.1,0,1,56,2,NA
fcp-trial,144,17707545,0.0-65.0-0.0,voc_e2,12191,"[{""event"":""fullscreenenter"",""trial"":1,""time"":5844},{""event"":""blur"",""trial"":75,""time"":5146934},{""event"":""focus"",""trial"":75,""time"":15112403},{""event"":""blur"",""trial"":75,""time"":16543611},{""event"":""focus"",""trial"":75,""time"":17128906},{""event"":""fullscreenexit"",""trial"":76,""time"":17164622},{""event"":""blur"",""trial"":76,""time"":17164636},{""event"":""focus"",""trial"":76,""time"":17313274}]",NA,NA,NA,NA,NA,5,#3386FF,#D89F1C,10,0,1,38,1,573.4000000059605,39,0,503.70000000298023,0,0,experiment,NA,NA,1,0.7,0.3,2,3,57,2,NA
fcp-trial,145,17710001,0.0-66.0-0.0,voc_e2,12191,"[{""event"":""fullscreenenter"",""trial"":1,""time"":5844},{""event"":""blur"",""trial"":75,""time"":5146934},{""event"":""focus"",""trial"":75,""time"":15112403},{""event"":""blur"",""trial"":75,""time"":16543611},{""event"":""focus"",""trial"":75,""time"":17128906},{""event"":""fullscreenexit"",""trial"":76,""time"":17164622},{""event"":""blur"",""trial"":76,""time"":17164636},{""event"":""focus"",""trial"":76,""time"":17313274}]",NA,NA,NA,NA,NA,5,#741CD8,#D8271C,0,10,1,38,1,486.20000000298023,39,0,454.09999999403954,10,0,experiment,NA,NA,2,0.5,0.5,4,5,58,2,NA
fcp-trial,146,17713325,0.0-67.0-0.0,voc_e2,12191,"[{""event"":""fullscreenenter"",""trial"":1,""time"":5844},{""event"":""blur"",""trial"":75,""time"":5146934},{""event"":""focus"",""trial"":75,""time"":15112403},{""event"":""blur"",""trial"":75,""time"":16543611},{""event"":""focus"",""trial"":75,""time"":17128906},{""event"":""fullscreenexit"",""trial"":76,""time"":17164622},{""event"":""blur"",""trial"":76,""time"":17164636},{""event"":""focus"",""trial"":76,""time"":17313274}]",NA,NA,NA,NA,NA,5,#1CD855,#FA92F8,10,0,1,38,1,776.9000000059605,37,1,1029,10,1,experiment,NA,NA,0,0.9,0.1,0,1,59,2,NA
fcp-trial,147,17716380,0.0-68.0-0.0,voc_e2,12191,"[{""event"":""fullscreenenter"",""trial"":1,""time"":5844},{""event"":""blur"",""trial"":75,""time"":5146934},{""event"":""focus"",""trial"":75,""time"":15112403},{""event"":""blur"",""trial"":75,""time"":16543611},{""event"":""focus"",""trial"":75,""time"":17128906},{""event"":""fullscreenexit"",""trial"":76,""time"":17164622},{""event"":""blur"",""trial"":76,""time"":17164636},{""event"":""focus"",""trial"":76,""time"":17313274}]",NA,NA,NA,NA,NA,0,#FA92F8,#1CD855,0,10,0,38,1,1152.5999999940395,39,0,387.29999999701977,10,1,experiment,NA,NA,0,0.1,0.9,1,0,60,2,NA
fcp-trial,148,17719255,0.0-69.0-0.0,voc_e2,12191,"[{""event"":""fullscreenenter"",""trial"":1,""time"":5844},{""event"":""blur"",""trial"":75,""time"":5146934},{""event"":""focus"",""trial"":75,""time"":15112403},{""event"":""blur"",""trial"":75,""time"":16543611},{""event"":""focus"",""trial"":75,""time"":17128906},{""event"":""fullscreenexit"",""trial"":76,""time"":17164622},{""event"":""blur"",""trial"":76,""time"":17164636},{""event"":""focus"",""trial"":76,""time"":17313274}]",NA,NA,NA,NA,NA,0,#741CD8,#D8271C,0,10,1,38,1,776,39,0,581.7999999970198,10,0,experiment,NA,NA,2,0.5,0.5,4,5,61,2,NA
fcp-trial,149,17723967,0.0-70.0-0.0,voc_e2,12191,"[{""event"":""fullscreenenter"",""trial"":1,""time"":5844},{""event"":""blur"",""trial"":75,""time"":5146934},{""event"":""focus"",""trial"":75,""time"":15112403},{""event"":""blur"",""trial"":75,""time"":16543611},{""event"":""focus"",""trial"":75,""time"":17128906},{""event"":""fullscreenexit"",""trial"":76,""time"":17164622},{""event"":""blur"",""trial"":76,""time"":17164636},{""event"":""focus"",""trial"":76,""time"":17313274}]",NA,NA,NA,NA,NA,1,#D89F1C,#3386FF,10,0,0,38,1,2443.2000000029802,37,1,748.6000000089407,10,0,experiment,NA,NA,1,0.3,0.7,3,2,62,2,NA
fcp-trial,150,17726715,0.0-71.0-0.0,voc_e2,12191,"[{""event"":""fullscreenenter"",""trial"":1,""time"":5844},{""event"":""blur"",""trial"":75,""time"":5146934},{""event"":""focus"",""trial"":75,""time"":15112403},{""event"":""blur"",""trial"":75,""time"":16543611},{""event"":""focus"",""trial"":75,""time"":17128906},{""event"":""fullscreenexit"",""trial"":76,""time"":17164622},{""event"":""blur"",""trial"":76,""time"":17164636},{""event"":""focus"",""trial"":76,""time"":17313274}]",NA,NA,NA,NA,NA,1,#D8271C,#741CD8,0,10,0,38,1,658.9000000059605,37,1,567.7000000029802,0,0,experiment,NA,NA,2,0.5,0.5,5,4,63,2,NA
fcp-trial,151,17729684,0.0-72.0-0.0,voc_e2,12191,"[{""event"":""fullscreenenter"",""trial"":1,""time"":5844},{""event"":""blur"",""trial"":75,""time"":5146934},{""event"":""focus"",""trial"":75,""time"":15112403},{""event"":""blur"",""trial"":75,""time"":16543611},{""event"":""focus"",""trial"":75,""time"":17128906},{""event"":""fullscreenexit"",""trial"":76,""time"":17164622},{""event"":""blur"",""trial"":76,""time"":17164636},{""event"":""focus"",""trial"":76,""time"":17313274}]",NA,NA,NA,NA,NA,6,#1CD855,#FA92F8,10,0,1,38,1,621.5,37,1,824.2000000029802,10,1,experiment,NA,NA,0,0.9,0.1,0,1,64,2,NA
fcp-trial,152,17732168,0.0-73.0-0.0,voc_e2,12191,"[{""event"":""fullscreenenter"",""trial"":1,""time"":5844},{""event"":""blur"",""trial"":75,""time"":5146934},{""event"":""focus"",""trial"":75,""time"":15112403},{""event"":""blur"",""trial"":75,""time"":16543611},{""event"":""focus"",""trial"":75,""time"":17128906},{""event"":""fullscreenexit"",""trial"":76,""time"":17164622},{""event"":""blur"",""trial"":76,""time"":17164636},{""event"":""focus"",""trial"":76,""time"":17313274}]",NA,NA,NA,NA,NA,3,#FA92F8,#1CD855,10,10,0,38,1,526.6999999880791,39,0,440.29999999701977,10,1,experiment,NA,NA,0,0.1,0.9,1,0,65,2,NA
fcp-trial,153,17734891,0.0-74.0-0.0,voc_e2,12191,"[{""event"":""fullscreenenter"",""trial"":1,""time"":5844},{""event"":""blur"",""trial"":75,""time"":5146934},{""event"":""focus"",""trial"":75,""time"":15112403},{""event"":""blur"",""trial"":75,""time"":16543611},{""event"":""focus"",""trial"":75,""time"":17128906},{""event"":""fullscreenexit"",""trial"":76,""time"":17164622},{""event"":""blur"",""trial"":76,""time"":17164636},{""event"":""focus"",""trial"":76,""time"":17313274}]",NA,NA,NA,NA,NA,6,#741CD8,#D8271C,0,10,1,38,1,789.5,39,0,409.5,10,0,experiment,NA,NA,2,0.5,0.5,4,5,66,2,NA
fcp-trial,154,17738474,0.0-75.0-0.0,voc_e2,12191,"[{""event"":""fullscreenenter"",""trial"":1,""time"":5844},{""event"":""blur"",""trial"":75,""time"":5146934},{""event"":""focus"",""trial"":75,""time"":15112403},{""event"":""blur"",""trial"":75,""time"":16543611},{""event"":""focus"",""trial"":75,""time"":17128906},{""event"":""fullscreenexit"",""trial"":76,""time"":17164622},{""event"":""blur"",""trial"":76,""time"":17164636},{""event"":""focus"",""trial"":76,""time"":17313274}]",NA,NA,NA,NA,NA,6,#3386FF,#D89F1C,10,10,1,38,1,635,37,1,1425.5,10,1,experiment,NA,NA,1,0.7,0.3,2,3,67,2,NA
fcp-trial,155,17741715,0.0-76.0-0.0,voc_e2,12191,"[{""event"":""fullscreenenter"",""trial"":1,""time"":5844},{""event"":""blur"",""trial"":75,""time"":5146934},{""event"":""focus"",""trial"":75,""time"":15112403},{""event"":""blur"",""trial"":75,""time"":16543611},{""event"":""focus"",""trial"":75,""time"":17128906},{""event"":""fullscreenexit"",""trial"":76,""time"":17164622},{""event"":""blur"",""trial"":76,""time"":17164636},{""event"":""focus"",""trial"":76,""time"":17313274}]",NA,NA,NA,NA,NA,1,#1CD855,#FA92F8,10,0,1,38,1,555.4000000059605,37,1,1168.5,10,1,experiment,NA,NA,0,0.9,0.1,0,1,68,2,NA
fcp-trial,156,17744348,0.0-77.0-0.0,voc_e2,12191,"[{""event"":""fullscreenenter"",""trial"":1,""time"":5844},{""event"":""blur"",""trial"":75,""time"":5146934},{""event"":""focus"",""trial"":75,""time"":15112403},{""event"":""blur"",""trial"":75,""time"":16543611},{""event"":""focus"",""trial"":75,""time"":17128906},{""event"":""fullscreenexit"",""trial"":76,""time"":17164622},{""event"":""blur"",""trial"":76,""time"":17164636},{""event"":""focus"",""trial"":76,""time"":17313274}]",NA,NA,NA,NA,NA,5,#FA92F8,#1CD855,0,10,0,38,1,592.8000000119209,39,0,522.5999999940395,10,1,experiment,NA,NA,0,0.1,0.9,1,0,69,2,NA
fcp-trial,157,17748166,0.0-78.0-0.0,voc_e2,12191,"[{""event"":""fullscreenenter"",""trial"":1,""time"":5844},{""event"":""blur"",""trial"":75,""time"":5146934},{""event"":""focus"",""trial"":75,""time"":15112403},{""event"":""blur"",""trial"":75,""time"":16543611},{""event"":""focus"",""trial"":75,""time"":17128906},{""event"":""fullscreenexit"",""trial"":76,""time"":17164622},{""event"":""blur"",""trial"":76,""time"":17164636},{""event"":""focus"",""trial"":76,""time"":17313274}]",NA,NA,NA,NA,NA,3,#3386FF,#D89F1C,10,10,1,38,1,662.8999999910593,39,0,1636.5,10,0,experiment,NA,NA,1,0.7,0.3,2,3,70,2,NA
fcp-trial,158,17751739,0.0-79.0-0.0,voc_e2,12191,"[{""event"":""fullscreenenter"",""trial"":1,""time"":5844},{""event"":""blur"",""trial"":75,""time"":5146934},{""event"":""focus"",""trial"":75,""time"":15112403},{""event"":""blur"",""trial"":75,""time"":16543611},{""event"":""focus"",""trial"":75,""time"":17128906},{""event"":""fullscreenexit"",""trial"":76,""time"":17164622},{""event"":""blur"",""trial"":76,""time"":17164636},{""event"":""focus"",""trial"":76,""time"":17313274}]",NA,NA,NA,NA,NA,0,#741CD8,#D8271C,10,10,1,38,1,673.4000000059605,37,1,1384.1000000089407,10,1,experiment,NA,NA,2,0.5,0.5,4,5,71,2,NA
fcp-trial,159,17754482,0.0-80.0-0.0,voc_e2,12191,"[{""event"":""fullscreenenter"",""trial"":1,""time"":5844},{""event"":""blur"",""trial"":75,""time"":5146934},{""event"":""focus"",""trial"":75,""time"":15112403},{""event"":""blur"",""trial"":75,""time"":16543611},{""event"":""focus"",""trial"":75,""time"":17128906},{""event"":""fullscreenexit"",""trial"":76,""time"":17164622},{""event"":""blur"",""trial"":76,""time"":17164636},{""event"":""focus"",""trial"":76,""time"":17313274}]",NA,NA,NA,NA,NA,2,#D8271C,#741CD8,10,0,0,38,1,705.0999999940395,37,1,525.7000000029802,10,0,experiment,NA,NA,2,0.5,0.5,5,4,72,2,NA
fcp-trial,160,17757355,0.0-81.0-0.0,voc_e2,12191,"[{""event"":""fullscreenenter"",""trial"":1,""time"":5844},{""event"":""blur"",""trial"":75,""time"":5146934},{""event"":""focus"",""trial"":75,""time"":15112403},{""event"":""blur"",""trial"":75,""time"":16543611},{""event"":""focus"",""trial"":75,""time"":17128906},{""event"":""fullscreenexit"",""trial"":76,""time"":17164622},{""event"":""blur"",""trial"":76,""time"":17164636},{""event"":""focus"",""trial"":76,""time"":17313274}]",NA,NA,NA,NA,NA,1,#D8271C,#741CD8,10,10,0,38,1,811.9000000059605,37,1,542.1000000089407,10,0,experiment,NA,NA,2,0.5,0.5,5,4,73,2,NA
fcp-trial,161,17760339,0.0-82.0-0.0,voc_e2,12191,"[{""event"":""fullscreenenter"",""trial"":1,""time"":5844},{""event"":""blur"",""trial"":75,""time"":5146934},{""event"":""focus"",""trial"":75,""time"":15112403},{""event"":""blur"",""trial"":75,""time"":16543611},{""event"":""focus"",""trial"":75,""time"":17128906},{""event"":""fullscreenexit"",""trial"":76,""time"":17164622},{""event"":""blur"",""trial"":76,""time"":17164636},{""event"":""focus"",""trial"":76,""time"":17313274}]",NA,NA,NA,NA,NA,4,#FA92F8,#1CD855,0,0,0,38,1,595.3999999910593,39,0,867.0999999940395,0,1,experiment,NA,NA,0,0.1,0.9,1,0,74,2,NA
fcp-trial,162,17763105,0.0-83.0-0.0,voc_e2,12191,"[{""event"":""fullscreenenter"",""trial"":1,""time"":5844},{""event"":""blur"",""trial"":75,""time"":5146934},{""event"":""focus"",""trial"":75,""time"":15112403},{""event"":""blur"",""trial"":75,""time"":16543611},{""event"":""focus"",""trial"":75,""time"":17128906},{""event"":""fullscreenexit"",""trial"":76,""time"":17164622},{""event"":""blur"",""trial"":76,""time"":17164636},{""event"":""focus"",""trial"":76,""time"":17313274}]",NA,NA,NA,NA,NA,5,#3386FF,#D89F1C,10,0,1,38,1,667.7000000029802,39,0,578.8999999910593,0,0,experiment,NA,NA,1,0.7,0.3,2,3,75,2,NA
fcp-trial,163,17766264,0.0-84.0-0.0,voc_e2,12191,"[{""event"":""fullscreenenter"",""trial"":1,""time"":5844},{""event"":""blur"",""trial"":75,""time"":5146934},{""event"":""focus"",""trial"":75,""time"":15112403},{""event"":""blur"",""trial"":75,""time"":16543611},{""event"":""focus"",""trial"":75,""time"":17128906},{""event"":""fullscreenexit"",""trial"":76,""time"":17164622},{""event"":""blur"",""trial"":76,""time"":17164636},{""event"":""focus"",""trial"":76,""time"":17313274}]",NA,NA,NA,NA,NA,0,#D89F1C,#3386FF,10,0,0,38,1,569.5,39,0,1070.0999999940395,0,1,experiment,NA,NA,1,0.3,0.7,3,2,76,2,NA
fcp-trial,164,17769479,0.0-85.0-0.0,voc_e2,12191,"[{""event"":""fullscreenenter"",""trial"":1,""time"":5844},{""event"":""blur"",""trial"":75,""time"":5146934},{""event"":""focus"",""trial"":75,""time"":15112403},{""event"":""blur"",""trial"":75,""time"":16543611},{""event"":""focus"",""trial"":75,""time"":17128906},{""event"":""fullscreenexit"",""trial"":76,""time"":17164622},{""event"":""blur"",""trial"":76,""time"":17164636},{""event"":""focus"",""trial"":76,""time"":17313274}]",NA,NA,NA,NA,NA,0,#FA92F8,#1CD855,0,10,0,38,1,595.3999999910593,39,0,1097.7000000029802,10,1,experiment,NA,NA,0,0.1,0.9,1,0,77,2,NA
fcp-trial,165,17772385,0.0-86.0-0.0,voc_e2,12191,"[{""event"":""fullscreenenter"",""trial"":1,""time"":5844},{""event"":""blur"",""trial"":75,""time"":5146934},{""event"":""focus"",""trial"":75,""time"":15112403},{""event"":""blur"",""trial"":75,""time"":16543611},{""event"":""focus"",""trial"":75,""time"":17128906},{""event"":""fullscreenexit"",""trial"":76,""time"":17164622},{""event"":""blur"",""trial"":76,""time"":17164636},{""event"":""focus"",""trial"":76,""time"":17313274}]",NA,NA,NA,NA,NA,5,#741CD8,#D8271C,0,10,1,38,1,571.7999999970198,39,0,816.2999999970198,10,0,experiment,NA,NA,2,0.5,0.5,4,5,78,2,NA
fcp-trial,166,17776168,0.0-87.0-0.0,voc_e2,12191,"[{""event"":""fullscreenenter"",""trial"":1,""time"":5844},{""event"":""blur"",""trial"":75,""time"":5146934},{""event"":""focus"",""trial"":75,""time"":15112403},{""event"":""blur"",""trial"":75,""time"":16543611},{""event"":""focus"",""trial"":75,""time"":17128906},{""event"":""fullscreenexit"",""trial"":76,""time"":17164622},{""event"":""blur"",""trial"":76,""time"":17164636},{""event"":""focus"",""trial"":76,""time"":17313274}]",NA,NA,NA,NA,NA,1,#D89F1C,#3386FF,0,10,0,38,1,949.5999999940395,37,1,1317.2000000029802,0,0,experiment,NA,NA,1,0.3,0.7,3,2,79,2,NA
fcp-trial,167,17778745,0.0-88.0-0.0,voc_e2,12191,"[{""event"":""fullscreenenter"",""trial"":1,""time"":5844},{""event"":""blur"",""trial"":75,""time"":5146934},{""event"":""focus"",""trial"":75,""time"":15112403},{""event"":""blur"",""trial"":75,""time"":16543611},{""event"":""focus"",""trial"":75,""time"":17128906},{""event"":""fullscreenexit"",""trial"":76,""time"":17164622},{""event"":""blur"",""trial"":76,""time"":17164636},{""event"":""focus"",""trial"":76,""time"":17313274}]",NA,NA,NA,NA,NA,4,#3386FF,#D89F1C,10,10,1,38,1,625,37,1,433.6000000089407,10,1,experiment,NA,NA,1,0.7,0.3,2,3,80,2,NA
fcp-trial,168,17782158,0.0-89.0-0.0,voc_e2,12191,"[{""event"":""fullscreenenter"",""trial"":1,""time"":5844},{""event"":""blur"",""trial"":75,""time"":5146934},{""event"":""focus"",""trial"":75,""time"":15112403},{""event"":""blur"",""trial"":75,""time"":16543611},{""event"":""focus"",""trial"":75,""time"":17128906},{""event"":""fullscreenexit"",""trial"":76,""time"":17164622},{""event"":""blur"",""trial"":76,""time"":17164636},{""event"":""focus"",""trial"":76,""time"":17313274}]",NA,NA,NA,NA,NA,2,#3386FF,#D89F1C,10,0,1,38,1,1285.1000000089407,37,1,612.5,10,1,experiment,NA,NA,1,0.7,0.3,2,3,81,2,NA
fcp-trial,169,17786538,0.0-90.0-0.0,voc_e2,12191,"[{""event"":""fullscreenenter"",""trial"":1,""time"":5844},{""event"":""blur"",""trial"":75,""time"":5146934},{""event"":""focus"",""trial"":75,""time"":15112403},{""event"":""blur"",""trial"":75,""time"":16543611},{""event"":""focus"",""trial"":75,""time"":17128906},{""event"":""fullscreenexit"",""trial"":76,""time"":17164622},{""event"":""blur"",""trial"":76,""time"":17164636},{""event"":""focus"",""trial"":76,""time"":17313274}]",NA,NA,NA,NA,NA,2,#FA92F8,#1CD855,0,10,0,38,1,1872,39,0,986.7000000029802,10,1,experiment,NA,NA,0,0.1,0.9,1,0,82,2,NA
fcp-trial,170,17791667,0.0-91.0-0.0,voc_e2,12191,"[{""event"":""fullscreenenter"",""trial"":1,""time"":5844},{""event"":""blur"",""trial"":75,""time"":5146934},{""event"":""focus"",""trial"":75,""time"":15112403},{""event"":""blur"",""trial"":75,""time"":16543611},{""event"":""focus"",""trial"":75,""time"":17128906},{""event"":""fullscreenexit"",""trial"":76,""time"":17164622},{""event"":""blur"",""trial"":76,""time"":17164636},{""event"":""focus"",""trial"":76,""time"":17313274}]",NA,NA,NA,NA,NA,4,#D8271C,#741CD8,0,0,0,38,1,3070.5,37,1,541,0,0,experiment,NA,NA,2,0.5,0.5,5,4,83,2,NA
fcp-trial,171,17794649,0.0-92.0-0.0,voc_e2,12191,"[{""event"":""fullscreenenter"",""trial"":1,""time"":5844},{""event"":""blur"",""trial"":75,""time"":5146934},{""event"":""focus"",""trial"":75,""time"":15112403},{""event"":""blur"",""trial"":75,""time"":16543611},{""event"":""focus"",""trial"":75,""time"":17128906},{""event"":""fullscreenexit"",""trial"":76,""time"":17164622},{""event"":""blur"",""trial"":76,""time"":17164636},{""event"":""focus"",""trial"":76,""time"":17313274}]",NA,NA,NA,NA,NA,3,#741CD8,#D8271C,0,10,1,38,1,883.2999999970198,39,0,578.6000000089407,10,0,experiment,NA,NA,2,0.5,0.5,4,5,84,2,NA
fcp-trial,172,17797889,0.0-93.0-0.0,voc_e2,12191,"[{""event"":""fullscreenenter"",""trial"":1,""time"":5844},{""event"":""blur"",""trial"":75,""time"":5146934},{""event"":""focus"",""trial"":75,""time"":15112403},{""event"":""blur"",""trial"":75,""time"":16543611},{""event"":""focus"",""trial"":75,""time"":17128906},{""event"":""fullscreenexit"",""trial"":76,""time"":17164622},{""event"":""blur"",""trial"":76,""time"":17164636},{""event"":""focus"",""trial"":76,""time"":17313274}]",NA,NA,NA,NA,NA,5,#D89F1C,#3386FF,0,10,0,38,1,856.0999999940395,37,1,849.5999999940395,0,0,experiment,NA,NA,1,0.3,0.7,3,2,85,2,NA
fcp-trial,173,17801232,0.0-94.0-0.0,voc_e2,12191,"[{""event"":""fullscreenenter"",""trial"":1,""time"":5844},{""event"":""blur"",""trial"":75,""time"":5146934},{""event"":""focus"",""trial"":75,""time"":15112403},{""event"":""blur"",""trial"":75,""time"":16543611},{""event"":""focus"",""trial"":75,""time"":17128906},{""event"":""fullscreenexit"",""trial"":76,""time"":17164622},{""event"":""blur"",""trial"":76,""time"":17164636},{""event"":""focus"",""trial"":76,""time"":17313274}]",NA,NA,NA,NA,NA,0,#FA92F8,#1CD855,0,10,0,38,1,500.90000000596046,37,1,1319.199999988079,0,0,experiment,NA,NA,0,0.1,0.9,1,0,86,2,NA
fcp-trial,174,17803806,0.0-95.0-0.0,voc_e2,12191,"[{""event"":""fullscreenenter"",""trial"":1,""time"":5844},{""event"":""blur"",""trial"":75,""time"":5146934},{""event"":""focus"",""trial"":75,""time"":15112403},{""event"":""blur"",""trial"":75,""time"":16543611},{""event"":""focus"",""trial"":75,""time"":17128906},{""event"":""fullscreenexit"",""trial"":76,""time"":17164622},{""event"":""blur"",""trial"":76,""time"":17164636},{""event"":""focus"",""trial"":76,""time"":17313274}]",NA,NA,NA,NA,NA,4,#D89F1C,#3386FF,0,10,0,38,1,547.2000000029802,37,1,504.20000000298023,0,0,experiment,NA,NA,1,0.3,0.7,3,2,87,2,NA
fcp-trial,175,17806212,0.0-96.0-0.0,voc_e2,12191,"[{""event"":""fullscreenenter"",""trial"":1,""time"":5844},{""event"":""blur"",""trial"":75,""time"":5146934},{""event"":""focus"",""trial"":75,""time"":15112403},{""event"":""blur"",""trial"":75,""time"":16543611},{""event"":""focus"",""trial"":75,""time"":17128906},{""event"":""fullscreenexit"",""trial"":76,""time"":17164622},{""event"":""blur"",""trial"":76,""time"":17164636},{""event"":""focus"",""trial"":76,""time"":17313274}]",NA,NA,NA,NA,NA,6,#D8271C,#741CD8,10,10,0,38,1,396.6000000089407,37,1,486.70000000298023,10,0,experiment,NA,NA,2,0.5,0.5,5,4,88,2,NA
fcp-trial,176,17810438,0.0-97.0-0.0,voc_e2,12191,"[{""event"":""fullscreenenter"",""trial"":1,""time"":5844},{""event"":""blur"",""trial"":75,""time"":5146934},{""event"":""focus"",""trial"":75,""time"":15112403},{""event"":""blur"",""trial"":75,""time"":16543611},{""event"":""focus"",""trial"":75,""time"":17128906},{""event"":""fullscreenexit"",""trial"":76,""time"":17164622},{""event"":""blur"",""trial"":76,""time"":17164636},{""event"":""focus"",""trial"":76,""time"":17313274}]",NA,NA,NA,NA,NA,5,#1CD855,#FA92F8,10,0,1,38,1,1460.4000000059605,37,1,1252.2999999970198,10,1,experiment,NA,NA,0,0.9,0.1,0,1,89,2,NA
fcp-trial,177,17813072,0.0-98.0-0.0,voc_e2,12191,"[{""event"":""fullscreenenter"",""trial"":1,""time"":5844},{""event"":""blur"",""trial"":75,""time"":5146934},{""event"":""focus"",""trial"":75,""time"":15112403},{""event"":""blur"",""trial"":75,""time"":16543611},{""event"":""focus"",""trial"":75,""time"":17128906},{""event"":""fullscreenexit"",""trial"":76,""time"":17164622},{""event"":""blur"",""trial"":76,""time"":17164636},{""event"":""focus"",""trial"":76,""time"":17313274}]",NA,NA,NA,NA,NA,4,#741CD8,#D8271C,0,0,1,38,1,619.5,39,0,495.5,0,0,experiment,NA,NA,2,0.5,0.5,4,5,90,2,NA
fcp-trial,178,17815621,0.0-99.0-0.0,voc_e2,12191,"[{""event"":""fullscreenenter"",""trial"":1,""time"":5844},{""event"":""blur"",""trial"":75,""time"":5146934},{""event"":""focus"",""trial"":75,""time"":15112403},{""event"":""blur"",""trial"":75,""time"":16543611},{""event"":""focus"",""trial"":75,""time"":17128906},{""event"":""fullscreenexit"",""trial"":76,""time"":17164622},{""event"":""blur"",""trial"":76,""time"":17164636},{""event"":""focus"",""trial"":76,""time"":17313274}]",NA,NA,NA,NA,NA,3,#D89F1C,#3386FF,0,0,0,38,1,367.29999999701977,39,0,659.7000000029802,0,1,experiment,NA,NA,1,0.3,0.7,3,2,91,3,NA
fcp-trial,179,17818018,0.0-100.0-0.0,voc_e2,12191,"[{""event"":""fullscreenenter"",""trial"":1,""time"":5844},{""event"":""blur"",""trial"":75,""time"":5146934},{""event"":""focus"",""trial"":75,""time"":15112403},{""event"":""blur"",""trial"":75,""time"":16543611},{""event"":""focus"",""trial"":75,""time"":17128906},{""event"":""fullscreenexit"",""trial"":76,""time"":17164622},{""event"":""blur"",""trial"":76,""time"":17164636},{""event"":""focus"",""trial"":76,""time"":17313274}]",NA,NA,NA,NA,NA,3,#1CD855,#FA92F8,10,0,1,38,1,348.70000000298023,37,1,533.5,10,1,experiment,NA,NA,0,0.9,0.1,0,1,92,3,NA
fcp-trial,180,17820668,0.0-101.0-0.0,voc_e2,12191,"[{""event"":""fullscreenenter"",""trial"":1,""time"":5844},{""event"":""blur"",""trial"":75,""time"":5146934},{""event"":""focus"",""trial"":75,""time"":15112403},{""event"":""blur"",""trial"":75,""time"":16543611},{""event"":""focus"",""trial"":75,""time"":17128906},{""event"":""fullscreenexit"",""trial"":76,""time"":17164622},{""event"":""blur"",""trial"":76,""time"":17164636},{""event"":""focus"",""trial"":76,""time"":17313274}]",NA,NA,NA,NA,NA,1,#D8271C,#741CD8,10,0,0,38,1,522.5999999940395,37,1,608.2000000029802,10,0,experiment,NA,NA,2,0.5,0.5,5,4,93,3,NA
fcp-trial,181,17823147,0.0-102.0-0.0,voc_e2,12191,"[{""event"":""fullscreenenter"",""trial"":1,""time"":5844},{""event"":""blur"",""trial"":75,""time"":5146934},{""event"":""focus"",""trial"":75,""time"":15112403},{""event"":""blur"",""trial"":75,""time"":16543611},{""event"":""focus"",""trial"":75,""time"":17128906},{""event"":""fullscreenexit"",""trial"":76,""time"":17164622},{""event"":""blur"",""trial"":76,""time"":17164636},{""event"":""focus"",""trial"":76,""time"":17313274}]",NA,NA,NA,NA,NA,0,#D8271C,#741CD8,0,0,0,38,1,503.30000001192093,37,1,453.70000000298023,0,0,experiment,NA,NA,2,0.5,0.5,5,4,94,3,NA
fcp-trial,182,17825977,0.0-103.0-0.0,voc_e2,12191,"[{""event"":""fullscreenenter"",""trial"":1,""time"":5844},{""event"":""blur"",""trial"":75,""time"":5146934},{""event"":""focus"",""trial"":75,""time"":15112403},{""event"":""blur"",""trial"":75,""time"":16543611},{""event"":""focus"",""trial"":75,""time"":17128906},{""event"":""fullscreenexit"",""trial"":76,""time"":17164622},{""event"":""blur"",""trial"":76,""time"":17164636},{""event"":""focus"",""trial"":76,""time"":17313274}]",NA,NA,NA,NA,NA,6,#D89F1C,#3386FF,10,10,0,38,1,651,37,1,658.3999999910593,10,0,experiment,NA,NA,1,0.3,0.7,3,2,95,3,NA
fcp-trial,183,17830295,0.0-104.0-0.0,voc_e2,12191,"[{""event"":""fullscreenenter"",""trial"":1,""time"":5844},{""event"":""blur"",""trial"":75,""time"":5146934},{""event"":""focus"",""trial"":75,""time"":15112403},{""event"":""blur"",""trial"":75,""time"":16543611},{""event"":""focus"",""trial"":75,""time"":17128906},{""event"":""fullscreenexit"",""trial"":76,""time"":17164622},{""event"":""blur"",""trial"":76,""time"":17164636},{""event"":""focus"",""trial"":76,""time"":17313274}]",NA,NA,NA,NA,NA,3,#D8271C,#741CD8,0,0,0,38,1,2193.7000000029802,39,0,609.4000000059605,0,1,experiment,NA,NA,2,0.5,0.5,5,4,96,3,NA
fcp-trial,184,17832710,0.0-105.0-0.0,voc_e2,12191,"[{""event"":""fullscreenenter"",""trial"":1,""time"":5844},{""event"":""blur"",""trial"":75,""time"":5146934},{""event"":""focus"",""trial"":75,""time"":15112403},{""event"":""blur"",""trial"":75,""time"":16543611},{""event"":""focus"",""trial"":75,""time"":17128906},{""event"":""fullscreenexit"",""trial"":76,""time"":17164622},{""event"":""blur"",""trial"":76,""time"":17164636},{""event"":""focus"",""trial"":76,""time"":17313274}]",NA,NA,NA,NA,NA,1,#1CD855,#FA92F8,10,0,1,38,1,422.90000000596046,37,1,473.69999998807907,10,1,experiment,NA,NA,0,0.9,0.1,0,1,97,3,NA
fcp-trial,185,17835201,0.0-106.0-0.0,voc_e2,12191,"[{""event"":""fullscreenenter"",""trial"":1,""time"":5844},{""event"":""blur"",""trial"":75,""time"":5146934},{""event"":""focus"",""trial"":75,""time"":15112403},{""event"":""blur"",""trial"":75,""time"":16543611},{""event"":""focus"",""trial"":75,""time"":17128906},{""event"":""fullscreenexit"",""trial"":76,""time"":17164622},{""event"":""blur"",""trial"":76,""time"":17164636},{""event"":""focus"",""trial"":76,""time"":17313274}]",NA,NA,NA,NA,NA,1,#D89F1C,#3386FF,0,0,0,38,1,507.8999999910593,37,1,462.70000000298023,0,0,experiment,NA,NA,1,0.3,0.7,3,2,98,3,NA
fcp-trial,186,17837490,0.0-107.0-0.0,voc_e2,12191,"[{""event"":""fullscreenenter"",""trial"":1,""time"":5844},{""event"":""blur"",""trial"":75,""time"":5146934},{""event"":""focus"",""trial"":75,""time"":15112403},{""event"":""blur"",""trial"":75,""time"":16543611},{""event"":""focus"",""trial"":75,""time"":17128906},{""event"":""fullscreenexit"",""trial"":76,""time"":17164622},{""event"":""blur"",""trial"":76,""time"":17164636},{""event"":""focus"",""trial"":76,""time"":17313274}]",NA,NA,NA,NA,NA,6,#1CD855,#FA92F8,10,10,1,38,1,299.19999998807907,39,0,463.1000000089407,10,0,experiment,NA,NA,0,0.9,0.1,0,1,99,3,NA
fcp-trial,187,17839641,0.0-108.0-0.0,voc_e2,12191,"[{""event"":""fullscreenenter"",""trial"":1,""time"":5844},{""event"":""blur"",""trial"":75,""time"":5146934},{""event"":""focus"",""trial"":75,""time"":15112403},{""event"":""blur"",""trial"":75,""time"":16543611},{""event"":""focus"",""trial"":75,""time"":17128906},{""event"":""fullscreenexit"",""trial"":76,""time"":17164622},{""event"":""blur"",""trial"":76,""time"":17164636},{""event"":""focus"",""trial"":76,""time"":17313274}]",NA,NA,NA,NA,NA,5,#741CD8,#D8271C,10,0,1,38,1,190.40000000596046,39,0,443.09999999403954,0,0,experiment,NA,NA,2,0.5,0.5,4,5,100,3,NA
fcp-trial,188,17841765,0.0-109.0-0.0,voc_e2,12191,"[{""event"":""fullscreenenter"",""trial"":1,""time"":5844},{""event"":""blur"",""trial"":75,""time"":5146934},{""event"":""focus"",""trial"":75,""time"":15112403},{""event"":""blur"",""trial"":75,""time"":16543611},{""event"":""focus"",""trial"":75,""time"":17128906},{""event"":""fullscreenexit"",""trial"":76,""time"":17164622},{""event"":""blur"",""trial"":76,""time"":17164636},{""event"":""focus"",""trial"":76,""time"":17313274}]",NA,NA,NA,NA,NA,2,#1CD855,#FA92F8,10,0,1,38,1,223.20000000298023,39,0,381.29999999701977,0,0,experiment,NA,NA,0,0.9,0.1,0,1,101,3,NA
fcp-trial,189,17843774,0.0-110.0-0.0,voc_e2,12191,"[{""event"":""fullscreenenter"",""trial"":1,""time"":5844},{""event"":""blur"",""trial"":75,""time"":5146934},{""event"":""focus"",""trial"":75,""time"":15112403},{""event"":""blur"",""trial"":75,""time"":16543611},{""event"":""focus"",""trial"":75,""time"":17128906},{""event"":""fullscreenexit"",""trial"":76,""time"":17164622},{""event"":""blur"",""trial"":76,""time"":17164636},{""event"":""focus"",""trial"":76,""time"":17313274}]",NA,NA,NA,NA,NA,2,#D89F1C,#3386FF,0,10,0,38,1,13.599999994039536,39,0,477.59999999403954,10,1,experiment,NA,NA,1,0.3,0.7,3,2,102,3,NA
fcp-trial,190,17846302,0.0-111.0-0.0,voc_e2,12191,"[{""event"":""fullscreenenter"",""trial"":1,""time"":5844},{""event"":""blur"",""trial"":75,""time"":5146934},{""event"":""focus"",""trial"":75,""time"":15112403},{""event"":""blur"",""trial"":75,""time"":16543611},{""event"":""focus"",""trial"":75,""time"":17128906},{""event"":""fullscreenexit"",""trial"":76,""time"":17164622},{""event"":""blur"",""trial"":76,""time"":17164636},{""event"":""focus"",""trial"":76,""time"":17313274}]",NA,NA,NA,NA,NA,2,#741CD8,#D8271C,10,10,1,38,1,431.19999998807907,39,0,575.8000000119209,10,0,experiment,NA,NA,2,0.5,0.5,4,5,103,3,NA
fcp-trial,191,17848805,0.0-112.0-0.0,voc_e2,12191,"[{""event"":""fullscreenenter"",""trial"":1,""time"":5844},{""event"":""blur"",""trial"":75,""time"":5146934},{""event"":""focus"",""trial"":75,""time"":15112403},{""event"":""blur"",""trial"":75,""time"":16543611},{""event"":""focus"",""trial"":75,""time"":17128906},{""event"":""fullscreenexit"",""trial"":76,""time"":17164622},{""event"":""blur"",""trial"":76,""time"":17164636},{""event"":""focus"",""trial"":76,""time"":17313274}]",NA,NA,NA,NA,NA,0,#3386FF,#D89F1C,10,0,1,38,1,438.09999999403954,39,0,535.7000000029802,0,0,experiment,NA,NA,1,0.7,0.3,2,3,104,3,NA
fcp-trial,192,17851284,0.0-113.0-0.0,voc_e2,12191,"[{""event"":""fullscreenenter"",""trial"":1,""time"":5844},{""event"":""blur"",""trial"":75,""time"":5146934},{""event"":""focus"",""trial"":75,""time"":15112403},{""event"":""blur"",""trial"":75,""time"":16543611},{""event"":""focus"",""trial"":75,""time"":17128906},{""event"":""fullscreenexit"",""trial"":76,""time"":17164622},{""event"":""blur"",""trial"":76,""time"":17164636},{""event"":""focus"",""trial"":76,""time"":17313274}]",NA,NA,NA,NA,NA,4,#1CD855,#FA92F8,10,10,1,38,1,423,37,1,532.0999999940395,10,1,experiment,NA,NA,0,0.9,0.1,0,1,105,3,NA
audio-instructions,193,17858229,0.0-114.0,voc_e2,12191,"[{""event"":""fullscreenenter"",""trial"":1,""time"":5844},{""event"":""blur"",""trial"":75,""time"":5146934},{""event"":""focus"",""trial"":75,""time"":15112403},{""event"":""blur"",""trial"":75,""time"":16543611},{""event"":""focus"",""trial"":75,""time"":17128906},{""event"":""fullscreenexit"",""trial"":76,""time"":17164622},{""event"":""blur"",""trial"":76,""time"":17164636},{""event"":""focus"",""trial"":76,""time"":17313274}]",NA,2007.1000000089407,static/audio/pause.wav,NA,0,NA,NA,NA,NA,NA,NA,NA,NA,NA,NA,NA,NA,NA,NA,NA,NA,NA,NA,NA,NA,NA,NA,NA,NA,NA
fcp-trial,194,17862638,0.0-115.0-0.0,voc_e2,12191,"[{""event"":""fullscreenenter"",""trial"":1,""time"":5844},{""event"":""blur"",""trial"":75,""time"":5146934},{""event"":""focus"",""trial"":75,""time"":15112403},{""event"":""blur"",""trial"":75,""time"":16543611},{""event"":""focus"",""trial"":75,""time"":17128906},{""event"":""fullscreenexit"",""trial"":76,""time"":17164622},{""event"":""blur"",""trial"":76,""time"":17164636},{""event"":""focus"",""trial"":76,""time"":17313274}]",NA,NA,NA,NA,NA,2,#FA92F8,#1CD855,10,10,0,38,1,2108.7999999970198,37,1,779,10,0,experiment,NA,NA,0,0.1,0.9,1,0,106,3,NA
fcp-trial,195,17866975,0.0-116.0-0.0,voc_e2,12191,"[{""event"":""fullscreenenter"",""trial"":1,""time"":5844},{""event"":""blur"",""trial"":75,""time"":5146934},{""event"":""focus"",""trial"":75,""time"":15112403},{""event"":""blur"",""trial"":75,""time"":16543611},{""event"":""focus"",""trial"":75,""time"":17128906},{""event"":""fullscreenexit"",""trial"":76,""time"":17164622},{""event"":""blur"",""trial"":76,""time"":17164636},{""event"":""focus"",""trial"":76,""time"":17313274}]",NA,NA,NA,NA,NA,3,#3386FF,#D89F1C,0,10,1,40,0,2116.3999999910593,37,1,704.5999999940395,0,1,experiment,NA,NA,1,0.7,0.3,2,3,107,3,NA
fcp-trial,196,17871231,0.0-117.0-0.0,voc_e2,12191,"[{""event"":""fullscreenenter"",""trial"":1,""time"":5844},{""event"":""blur"",""trial"":75,""time"":5146934},{""event"":""focus"",""trial"":75,""time"":15112403},{""event"":""blur"",""trial"":75,""time"":16543611},{""event"":""focus"",""trial"":75,""time"":17128906},{""event"":""fullscreenexit"",""trial"":76,""time"":17164622},{""event"":""blur"",""trial"":76,""time"":17164636},{""event"":""focus"",""trial"":76,""time"":17313274}]",NA,NA,NA,NA,NA,1,#D8271C,#741CD8,0,10,0,38,1,2151.2999999970198,39,0,588.2999999970198,10,1,experiment,NA,NA,2,0.5,0.5,5,4,108,3,NA
fcp-trial,197,17874671,0.0-118.0-0.0,voc_e2,12191,"[{""event"":""fullscreenenter"",""trial"":1,""time"":5844},{""event"":""blur"",""trial"":75,""time"":5146934},{""event"":""focus"",""trial"":75,""time"":15112403},{""event"":""blur"",""trial"":75,""time"":16543611},{""event"":""focus"",""trial"":75,""time"":17128906},{""event"":""fullscreenexit"",""trial"":76,""time"":17164622},{""event"":""blur"",""trial"":76,""time"":17164636},{""event"":""focus"",""trial"":76,""time"":17313274}]",NA,NA,NA,NA,NA,4,#D89F1C,#3386FF,0,10,0,38,1,1054.2000000029802,39,0,866.1000000089407,10,1,experiment,NA,NA,1,0.3,0.7,3,2,109,3,NA
fcp-trial,198,17878228,0.0-119.0-0.0,voc_e2,12191,"[{""event"":""fullscreenenter"",""trial"":1,""time"":5844},{""event"":""blur"",""trial"":75,""time"":5146934},{""event"":""focus"",""trial"":75,""time"":15112403},{""event"":""blur"",""trial"":75,""time"":16543611},{""event"":""focus"",""trial"":75,""time"":17128906},{""event"":""fullscreenexit"",""trial"":76,""time"":17164622},{""event"":""blur"",""trial"":76,""time"":17164636},{""event"":""focus"",""trial"":76,""time"":17313274}]",NA,NA,NA,NA,NA,3,#D8271C,#741CD8,10,10,0,38,1,1095,37,1,935.2000000029802,10,0,experiment,NA,NA,2,0.5,0.5,5,4,110,3,NA
fcp-trial,199,17880908,0.0-120.0-0.0,voc_e2,12191,"[{""event"":""fullscreenenter"",""trial"":1,""time"":5844},{""event"":""blur"",""trial"":75,""time"":5146934},{""event"":""focus"",""trial"":75,""time"":15112403},{""event"":""blur"",""trial"":75,""time"":16543611},{""event"":""focus"",""trial"":75,""time"":17128906},{""event"":""fullscreenexit"",""trial"":76,""time"":17164622},{""event"":""blur"",""trial"":76,""time"":17164636},{""event"":""focus"",""trial"":76,""time"":17313274}]",NA,NA,NA,NA,NA,0,#1CD855,#FA92F8,10,0,1,38,1,659.2999999970198,37,1,497.79999999701977,10,1,experiment,NA,NA,0,0.9,0.1,0,1,111,3,NA
fcp-trial,200,17884108,0.0-121.0-0.0,voc_e2,12191,"[{""event"":""fullscreenenter"",""trial"":1,""time"":5844},{""event"":""blur"",""trial"":75,""time"":5146934},{""event"":""focus"",""trial"":75,""time"":15112403},{""event"":""blur"",""trial"":75,""time"":16543611},{""event"":""focus"",""trial"":75,""time"":17128906},{""event"":""fullscreenexit"",""trial"":76,""time"":17164622},{""event"":""blur"",""trial"":76,""time"":17164636},{""event"":""focus"",""trial"":76,""time"":17313274}]",NA,NA,NA,NA,NA,6,#741CD8,#D8271C,0,10,1,38,1,314.59999999403954,37,1,1360.7999999970198,0,1,experiment,NA,NA,2,0.5,0.5,4,5,112,3,NA
fcp-trial,201,17887433,0.0-122.0-0.0,voc_e2,12191,"[{""event"":""fullscreenenter"",""trial"":1,""time"":5844},{""event"":""blur"",""trial"":75,""time"":5146934},{""event"":""focus"",""trial"":75,""time"":15112403},{""event"":""blur"",""trial"":75,""time"":16543611},{""event"":""focus"",""trial"":75,""time"":17128906},{""event"":""fullscreenexit"",""trial"":76,""time"":17164622},{""event"":""blur"",""trial"":76,""time"":17164636},{""event"":""focus"",""trial"":76,""time"":17313274}]",NA,NA,NA,NA,NA,0,#3386FF,#D89F1C,0,10,1,38,1,357.90000000596046,37,1,1443.699999988079,0,1,experiment,NA,NA,1,0.7,0.3,2,3,113,3,NA
fcp-trial,202,17889790,0.0-123.0-0.0,voc_e2,12191,"[{""event"":""fullscreenenter"",""trial"":1,""time"":5844},{""event"":""blur"",""trial"":75,""time"":5146934},{""event"":""focus"",""trial"":75,""time"":15112403},{""event"":""blur"",""trial"":75,""time"":16543611},{""event"":""focus"",""trial"":75,""time"":17128906},{""event"":""fullscreenexit"",""trial"":76,""time"":17164622},{""event"":""blur"",""trial"":76,""time"":17164636},{""event"":""focus"",""trial"":76,""time"":17313274}]",NA,NA,NA,NA,NA,5,#FA92F8,#1CD855,0,10,0,38,1,301.6000000089407,39,0,540.0999999940395,10,1,experiment,NA,NA,0,0.1,0.9,1,0,114,3,NA
fcp-trial,203,17892299,0.0-124.0-0.0,voc_e2,12191,"[{""event"":""fullscreenenter"",""trial"":1,""time"":5844},{""event"":""blur"",""trial"":75,""time"":5146934},{""event"":""focus"",""trial"":75,""time"":15112403},{""event"":""blur"",""trial"":75,""time"":16543611},{""event"":""focus"",""trial"":75,""time"":17128906},{""event"":""fullscreenexit"",""trial"":76,""time"":17164622},{""event"":""blur"",""trial"":76,""time"":17164636},{""event"":""focus"",""trial"":76,""time"":17313274}]",NA,NA,NA,NA,NA,4,#1CD855,#FA92F8,10,0,1,38,1,540,37,1,450.79999999701977,10,1,experiment,NA,NA,0,0.9,0.1,0,1,115,3,NA
fcp-trial,204,17895010,0.0-125.0-0.0,voc_e2,12191,"[{""event"":""fullscreenenter"",""trial"":1,""time"":5844},{""event"":""blur"",""trial"":75,""time"":5146934},{""event"":""focus"",""trial"":75,""time"":15112403},{""event"":""blur"",""trial"":75,""time"":16543611},{""event"":""focus"",""trial"":75,""time"":17128906},{""event"":""fullscreenexit"",""trial"":76,""time"":17164622},{""event"":""blur"",""trial"":76,""time"":17164636},{""event"":""focus"",""trial"":76,""time"":17313274}]",NA,NA,NA,NA,NA,5,#3386FF,#D89F1C,10,0,1,38,1,758.8999999910593,39,0,429.79999999701977,0,0,experiment,NA,NA,1,0.7,0.3,2,3,116,3,NA
fcp-trial,205,17897424,0.0-126.0-0.0,voc_e2,12191,"[{""event"":""fullscreenenter"",""trial"":1,""time"":5844},{""event"":""blur"",""trial"":75,""time"":5146934},{""event"":""focus"",""trial"":75,""time"":15112403},{""event"":""blur"",""trial"":75,""time"":16543611},{""event"":""focus"",""trial"":75,""time"":17128906},{""event"":""fullscreenexit"",""trial"":76,""time"":17164622},{""event"":""blur"",""trial"":76,""time"":17164636},{""event"":""focus"",""trial"":76,""time"":17313274}]",NA,NA,NA,NA,NA,2,#D8271C,#741CD8,10,0,0,38,1,353.70000000298023,37,1,538.5999999940395,10,0,experiment,NA,NA,2,0.5,0.5,5,4,117,3,NA
fcp-trial,206,17899986,0.0-127.0-0.0,voc_e2,12191,"[{""event"":""fullscreenenter"",""trial"":1,""time"":5844},{""event"":""blur"",""trial"":75,""time"":5146934},{""event"":""focus"",""trial"":75,""time"":15112403},{""event"":""blur"",""trial"":75,""time"":16543611},{""event"":""focus"",""trial"":75,""time"":17128906},{""event"":""fullscreenexit"",""trial"":76,""time"":17164622},{""event"":""blur"",""trial"":76,""time"":17164636},{""event"":""focus"",""trial"":76,""time"":17313274}]",NA,NA,NA,NA,NA,6,#3386FF,#D89F1C,10,0,1,38,1,541,39,0,502.70000000298023,0,0,experiment,NA,NA,1,0.7,0.3,2,3,118,3,NA
fcp-trial,207,17902546,0.0-128.0-0.0,voc_e2,12191,"[{""event"":""fullscreenenter"",""trial"":1,""time"":5844},{""event"":""blur"",""trial"":75,""time"":5146934},{""event"":""focus"",""trial"":75,""time"":15112403},{""event"":""blur"",""trial"":75,""time"":16543611},{""event"":""focus"",""trial"":75,""time"":17128906},{""event"":""fullscreenexit"",""trial"":76,""time"":17164622},{""event"":""blur"",""trial"":76,""time"":17164636},{""event"":""focus"",""trial"":76,""time"":17313274}]",NA,NA,NA,NA,NA,5,#D8271C,#741CD8,0,0,0,38,1,333.70000000298023,39,0,709.6999999880791,0,1,experiment,NA,NA,2,0.5,0.5,5,4,119,3,NA
