trial_type,trial_index,time_elapsed,internal_node_id,task_version,subject_id,interactions,success,rt,stimulus,key_press,button_pressed,offer,arcade_color_L,arcade_color_R,arcade_outcome_L,arcade_outcome_R,correct,stage_1_key,stage_1_choice,stage_1_rt,stage_2_key,stage_2_choice,stage_2_rt,stage_3_outcome,accuracy,phase,responses,num_errors,context,reward_prob_L,reward_prob_R,arcade_id_L,arcade_id_R,trial,block,response
pavlovia,0,12,0.0-0.0,voc_e2,11763,[],NA,NA,NA,NA,NA,NA,NA,NA,NA,NA,NA,NA,NA,NA,NA,NA,NA,NA,NA,NA,NA,NA,NA,NA,NA,NA,NA,NA,NA,NA
fullscreen,1,5576,0.0-1.0,voc_e2,11763,"[{""event"":""fullscreenenter"",""trial"":1,""time"":4585}]",TRUE,NA,NA,NA,NA,NA,NA,NA,NA,NA,NA,NA,NA,NA,NA,NA,NA,NA,NA,NA,NA,NA,NA,NA,NA,NA,NA,NA,NA,NA
audio-keyboard-response,2,7888,0.0-2.0,voc_e2,11763,"[{""event"":""fullscreenenter"",""trial"":1,""time"":4585}]",NA,2310,static/audio/beep_loop.wav,32,NA,NA,NA,NA,NA,NA,NA,NA,NA,NA,NA,NA,NA,NA,NA,NA,NA,NA,NA,NA,NA,NA,NA,NA,NA,NA
audio-test,3,9144,0.0-3.0,voc_e2,11763,"[{""event"":""fullscreenenter"",""trial"":1,""time"":4585}]",NA,NA,static/audio/turtle.wav,NA,3,NA,NA,NA,NA,NA,NA,NA,NA,NA,NA,NA,NA,NA,NA,NA,NA,NA,NA,NA,NA,NA,NA,NA,NA,NA
audio-test,4,11134,0.0-4.0,voc_e2,11763,"[{""event"":""fullscreenenter"",""trial"":1,""time"":4585}]",NA,NA,static/audio/shark.wav,NA,2,NA,NA,NA,NA,NA,NA,NA,NA,NA,NA,NA,NA,NA,NA,NA,NA,NA,NA,NA,NA,NA,NA,NA,NA,NA
audio-instructions,5,18453,0.0-5.0-0.0,voc_e2,11763,"[{""event"":""fullscreenenter"",""trial"":1,""time"":4585}]",NA,1514.699999999255,static/audio/instructions1.wav,NA,0,NA,NA,NA,NA,NA,NA,NA,NA,NA,NA,NA,NA,NA,NA,NA,NA,NA,NA,NA,NA,NA,NA,NA,NA,NA
audio-instructions,6,26198,0.0-5.0-1.0,voc_e2,11763,"[{""event"":""fullscreenenter"",""trial"":1,""time"":4585}]",NA,999.60000000149,static/audio/instructions2.wav,NA,0,NA,NA,NA,NA,NA,NA,NA,NA,NA,NA,NA,NA,NA,NA,NA,NA,NA,NA,NA,NA,NA,NA,NA,NA,NA
audio-instructions,7,33729,0.0-5.0-2.0,voc_e2,11763,"[{""event"":""fullscreenenter"",""trial"":1,""time"":4585}]",NA,1727.10000000149,static/audio/instructions3.wav,NA,0,NA,NA,NA,NA,NA,NA,NA,NA,NA,NA,NA,NA,NA,NA,NA,NA,NA,NA,NA,NA,NA,NA,NA,NA,NA
audio-instructions,8,49036,0.0-5.0-3.0,voc_e2,11763,"[{""event"":""fullscreenenter"",""trial"":1,""time"":4585}]",NA,2074.099999997765,static/audio/instructions4.wav,NA,0,NA,NA,NA,NA,NA,NA,NA,NA,NA,NA,NA,NA,NA,NA,NA,NA,NA,NA,NA,NA,NA,NA,NA,NA,NA
audio-instructions,9,60080,0.0-5.0-4.0,voc_e2,11763,"[{""event"":""fullscreenenter"",""trial"":1,""time"":4585}]",NA,1658.300000000745,static/audio/instructions5.wav,NA,0,NA,NA,NA,NA,NA,NA,NA,NA,NA,NA,NA,NA,NA,NA,NA,NA,NA,NA,NA,NA,NA,NA,NA,NA,NA
fcp-practice,10,62549,0.0-5.0-5.0-0.0,voc_e2,11763,"[{""event"":""fullscreenenter"",""trial"":1,""time"":4585}]",NA,NA,NA,NA,NA,NA,#EDC948,#46d3c8,10,0,1,null,null,null,37,1,948.5,10,1,practice,NA,NA,NA,NA,NA,NA,NA,NA,NA,NA
fcp-practice,11,64437,0.0-5.0-5.0-1.0,voc_e2,11763,"[{""event"":""fullscreenenter"",""trial"":1,""time"":4585}]",NA,NA,NA,NA,NA,NA,#EDC948,#46d3c8,10,0,1,null,null,null,37,1,383.3999999985099,10,1,practice,NA,NA,NA,NA,NA,NA,NA,NA,NA,NA
fcp-practice,12,66861,0.0-5.0-5.0-2.0,voc_e2,11763,"[{""event"":""fullscreenenter"",""trial"":1,""time"":4585}]",NA,NA,NA,NA,NA,NA,#EDC948,#46d3c8,0,10,1,null,null,null,37,1,918.2000000029802,0,1,practice,NA,NA,NA,NA,NA,NA,NA,NA,NA,NA
fcp-practice,13,68798,0.0-5.0-5.0-3.0,voc_e2,11763,"[{""event"":""fullscreenenter"",""trial"":1,""time"":4585}]",NA,NA,NA,NA,NA,NA,#EDC948,#46d3c8,10,0,1,null,null,null,37,1,430.5,10,1,practice,NA,NA,NA,NA,NA,NA,NA,NA,NA,NA
fcp-practice,14,70949,0.0-5.0-5.0-4.0,voc_e2,11763,"[{""event"":""fullscreenenter"",""trial"":1,""time"":4585}]",NA,NA,NA,NA,NA,NA,#EDC948,#46d3c8,10,0,1,null,null,null,37,1,645,10,1,practice,NA,NA,NA,NA,NA,NA,NA,NA,NA,NA
audio-instructions,15,90855,0.0-5.0-6.0,voc_e2,11763,"[{""event"":""fullscreenenter"",""trial"":1,""time"":4585}]",NA,1898.10000000149,static/audio/instructions6.wav,NA,0,NA,NA,NA,NA,NA,NA,NA,NA,NA,NA,NA,NA,NA,NA,NA,NA,NA,NA,NA,NA,NA,NA,NA,NA,NA
audio-instructions,16,124347,0.0-5.0-7.0,voc_e2,11763,"[{""event"":""fullscreenenter"",""trial"":1,""time"":4585}]",NA,14288.5,static/audio/instructions7.wav,NA,0,NA,NA,NA,NA,NA,NA,NA,NA,NA,NA,NA,NA,NA,NA,NA,NA,NA,NA,NA,NA,NA,NA,NA,NA,NA
audio-instructions,17,134554,0.0-5.0-8.0,voc_e2,11763,"[{""event"":""fullscreenenter"",""trial"":1,""time"":4585}]",NA,735.3000000007451,static/audio/instructions8.wav,NA,0,NA,NA,NA,NA,NA,NA,NA,NA,NA,NA,NA,NA,NA,NA,NA,NA,NA,NA,NA,NA,NA,NA,NA,NA,NA
fcp-comprehension,18,142393,0.0-5.0-9.0,voc_e2,11763,"[{""event"":""fullscreenenter"",""trial"":1,""time"":4585}]",NA,7835.900000002235,NA,NA,NA,NA,NA,NA,NA,NA,NA,NA,NA,NA,NA,NA,NA,NA,NA,NA,"true,true",0,NA,NA,NA,NA,NA,NA,NA,NA
audio-instructions,19,150135,0.0-6.0-0.0,voc_e2,11763,"[{""event"":""fullscreenenter"",""trial"":1,""time"":4585}]",NA,2192,static/audio/instructions9.wav,NA,0,NA,NA,NA,NA,NA,NA,NA,NA,NA,NA,NA,NA,NA,NA,NA,NA,NA,NA,NA,NA,NA,NA,NA,NA,NA
audio-instructions,20,162975,0.0-6.0-1.0,voc_e2,11763,"[{""event"":""fullscreenenter"",""trial"":1,""time"":4585}]",NA,717.1000000014901,static/audio/instructions10.wav,NA,0,NA,NA,NA,NA,NA,NA,NA,NA,NA,NA,NA,NA,NA,NA,NA,NA,NA,NA,NA,NA,NA,NA,NA,NA,NA
fcp-trial,21,177984,0.0-6.0-2.0,voc_e2,11763,"[{""event"":""fullscreenenter"",""trial"":1,""time"":4585}]",NA,NA,NA,NA,NA,0,#EDC948,#46d3c8,10,10,1,null,null,null,null,null,null,NA,0,practice,NA,NA,NA,NA,NA,NA,NA,NA,NA,NA
audio-instructions,22,191124,0.0-6.0-3.0,voc_e2,11763,"[{""event"":""fullscreenenter"",""trial"":1,""time"":4585}]",NA,2127.800000000745,static/audio/instructions11.wav,NA,0,NA,NA,NA,NA,NA,NA,NA,NA,NA,NA,NA,NA,NA,NA,NA,NA,NA,NA,NA,NA,NA,NA,NA,NA,NA
fcp-trial,23,196577,0.0-6.0-4.0,voc_e2,11763,"[{""event"":""fullscreenenter"",""trial"":1,""time"":4585}]",NA,NA,NA,NA,NA,6,#EDC948,#46d3c8,10,10,1,40,0,2442.5,39,0,1501.1000000014901,10,0,practice,NA,NA,NA,NA,NA,NA,NA,NA,NA,NA
audio-instructions,24,217234,0.0-6.0-5.0,voc_e2,11763,"[{""event"":""fullscreenenter"",""trial"":1,""time"":4585}]",NA,1962.89999999851,static/audio/instructions12.wav,NA,0,NA,NA,NA,NA,NA,NA,NA,NA,NA,NA,NA,NA,NA,NA,NA,NA,NA,NA,NA,NA,NA,NA,NA,NA,NA
audio-instructions,25,236301,0.0-6.0-6.0,voc_e2,11763,"[{""event"":""fullscreenenter"",""trial"":1,""time"":4585}]",NA,11468.5,static/audio/instructions13.wav,NA,0,NA,NA,NA,NA,NA,NA,NA,NA,NA,NA,NA,NA,NA,NA,NA,NA,NA,NA,NA,NA,NA,NA,NA,NA,NA
audio-instructions,26,246313,0.0-6.0-7.0,voc_e2,11763,"[{""event"":""fullscreenenter"",""trial"":1,""time"":4585}]",NA,1557.699999999255,static/audio/instructions14.wav,NA,0,NA,NA,NA,NA,NA,NA,NA,NA,NA,NA,NA,NA,NA,NA,NA,NA,NA,NA,NA,NA,NA,NA,NA,NA,NA
audio-instructions,27,254086,0.0-7.0-0.0,voc_e2,11763,"[{""event"":""fullscreenenter"",""trial"":1,""time"":4585}]",NA,854.6999999992549,static/audio/instructions15.wav,NA,0,NA,NA,NA,NA,NA,NA,NA,NA,NA,NA,NA,NA,NA,NA,NA,NA,NA,NA,NA,NA,NA,NA,NA,NA,NA
audio-instructions,28,263139,0.0-7.0-1.0,voc_e2,11763,"[{""event"":""fullscreenenter"",""trial"":1,""time"":4585}]",NA,2228.10000000149,static/audio/instructions16.wav,NA,0,NA,NA,NA,NA,NA,NA,NA,NA,NA,NA,NA,NA,NA,NA,NA,NA,NA,NA,NA,NA,NA,NA,NA,NA,NA
audio-instructions,29,271466,0.0-7.0-2.0,voc_e2,11763,"[{""event"":""fullscreenenter"",""trial"":1,""time"":4585}]",NA,645.5,static/audio/instructions17.wav,NA,0,NA,NA,NA,NA,NA,NA,NA,NA,NA,NA,NA,NA,NA,NA,NA,NA,NA,NA,NA,NA,NA,NA,NA,NA,NA
audio-instructions,30,279907,0.0-7.0-3.0,voc_e2,11763,"[{""event"":""fullscreenenter"",""trial"":1,""time"":4585}]",NA,674.3000000007451,static/audio/instructions18.wav,NA,0,NA,NA,NA,NA,NA,NA,NA,NA,NA,NA,NA,NA,NA,NA,NA,NA,NA,NA,NA,NA,NA,NA,NA,NA,NA
audio-instructions,31,287185,0.0-7.0-4.0,voc_e2,11763,"[{""event"":""fullscreenenter"",""trial"":1,""time"":4585}]",NA,533.1000000014901,static/audio/instructions19.wav,NA,0,NA,NA,NA,NA,NA,NA,NA,NA,NA,NA,NA,NA,NA,NA,NA,NA,NA,NA,NA,NA,NA,NA,NA,NA,NA
fcp-comprehension,32,305454,0.0-7.0-5.0,voc_e2,11763,"[{""event"":""fullscreenenter"",""trial"":1,""time"":4585}]",NA,18265.79999999702,NA,NA,NA,NA,NA,NA,NA,NA,NA,NA,NA,NA,NA,NA,NA,NA,NA,NA,"false,false,false,true",0,NA,NA,NA,NA,NA,NA,NA,NA
audio-instructions,33,316489,0.0-8.0,voc_e2,11763,"[{""event"":""fullscreenenter"",""trial"":1,""time"":4585}]",NA,1816.39999999851,static/audio/ready.wav,NA,0,NA,NA,NA,NA,NA,NA,NA,NA,NA,NA,NA,NA,NA,NA,NA,NA,NA,NA,NA,NA,NA,NA,NA,NA,NA
fcp-trial,34,322128,0.0-9.0-0.0,voc_e2,11763,"[{""event"":""fullscreenenter"",""trial"":1,""time"":4585}]",NA,NA,NA,NA,NA,2,#1CD855,#FA92F8,0,0,0,40,0,3134.900000002235,37,1,992,0,0,experiment,NA,NA,2,0.5,0.5,5,4,1,1,NA
fcp-trial,35,326582,0.0-10.0-0.0,voc_e2,11763,"[{""event"":""fullscreenenter"",""trial"":1,""time"":4585}]",NA,NA,NA,NA,NA,5,#D89F1C,#3386FF,0,10,0,40,0,1886.2000000029802,37,1,1054.6000000014901,0,0,experiment,NA,NA,0,0.1,0.9,1,0,2,1,NA
fcp-trial,36,332567,0.0-11.0-0.0,voc_e2,11763,"[{""event"":""fullscreenenter"",""trial"":1,""time"":4585}]",NA,NA,NA,NA,NA,4,#3386FF,#D89F1C,10,0,1,38,1,2210.7000000029802,37,1,2263.7999999970198,10,1,experiment,NA,NA,0,0.9,0.1,0,1,3,1,NA
fcp-trial,37,336550,0.0-12.0-0.0,voc_e2,11763,"[{""event"":""fullscreenenter"",""trial"":1,""time"":4585}]",NA,NA,NA,NA,NA,4,#1CD855,#FA92F8,10,0,0,40,0,1563.6000000014901,39,0,907.5,0,1,experiment,NA,NA,2,0.5,0.5,5,4,4,1,NA
fcp-trial,38,341310,0.0-13.0-0.0,voc_e2,11763,"[{""event"":""fullscreenenter"",""trial"":1,""time"":4585}]",NA,NA,NA,NA,NA,3,#741CD8,#D8271C,10,0,1,38,1,1453.300000000745,39,0,1796.699999999255,0,0,experiment,NA,NA,1,0.7,0.3,2,3,5,1,NA
fcp-trial,39,346345,0.0-14.0-0.0,voc_e2,11763,"[{""event"":""fullscreenenter"",""trial"":1,""time"":4585}]",NA,NA,NA,NA,NA,0,#1CD855,#FA92F8,10,0,0,40,0,2332.2000000029802,39,0,1192.1000000014901,0,1,experiment,NA,NA,2,0.5,0.5,5,4,6,1,NA
fcp-trial,40,350192,0.0-15.0-0.0,voc_e2,11763,"[{""event"":""fullscreenenter"",""trial"":1,""time"":4585}]",NA,NA,NA,NA,NA,3,#3386FF,#D89F1C,10,0,1,38,1,1433.5,37,1,901.8999999985099,10,1,experiment,NA,NA,0,0.9,0.1,0,1,7,1,NA
fcp-trial,41,354552,0.0-16.0-0.0,voc_e2,11763,"[{""event"":""fullscreenenter"",""trial"":1,""time"":4585}]",NA,NA,NA,NA,NA,1,#D89F1C,#3386FF,0,10,0,38,1,1803,39,0,1047.800000000745,10,1,experiment,NA,NA,0,0.1,0.9,1,0,8,1,NA
fcp-trial,42,358629,0.0-17.0-0.0,voc_e2,11763,"[{""event"":""fullscreenenter"",""trial"":1,""time"":4585}]",NA,NA,NA,NA,NA,4,#741CD8,#D8271C,10,0,1,38,1,1651.199999999255,37,1,917.6000000014901,10,1,experiment,NA,NA,1,0.7,0.3,2,3,9,1,NA
fcp-trial,43,363203,0.0-18.0-0.0,voc_e2,11763,"[{""event"":""fullscreenenter"",""trial"":1,""time"":4585}]",NA,NA,NA,NA,NA,0,#D8271C,#741CD8,0,0,0,38,1,1882.6000000014901,39,0,1181.5,0,1,experiment,NA,NA,1,0.3,0.7,3,2,10,1,NA
fcp-trial,44,368248,0.0-19.0-0.0,voc_e2,11763,"[{""event"":""fullscreenenter"",""trial"":1,""time"":4585}]",NA,NA,NA,NA,NA,5,#1CD855,#FA92F8,0,0,0,38,1,2088.5,37,1,1448.300000000745,0,0,experiment,NA,NA,2,0.5,0.5,5,4,11,1,NA
fcp-trial,45,373142,0.0-20.0-0.0,voc_e2,11763,"[{""event"":""fullscreenenter"",""trial"":1,""time"":4585}]",NA,NA,NA,NA,NA,2,#D8271C,#741CD8,0,10,0,40,0,2216.199999999255,39,0,1170,10,1,experiment,NA,NA,1,0.3,0.7,3,2,12,1,NA
fcp-trial,46,377119,0.0-21.0-0.0,voc_e2,11763,"[{""event"":""fullscreenenter"",""trial"":1,""time"":4585}]",NA,NA,NA,NA,NA,0,#3386FF,#D89F1C,10,0,1,38,1,1499.9000000022352,37,1,966.6000000014901,10,1,experiment,NA,NA,0,0.9,0.1,0,1,13,1,NA
fcp-trial,47,381095,0.0-22.0-0.0,voc_e2,11763,"[{""event"":""fullscreenenter"",""trial"":1,""time"":4585}]",NA,NA,NA,NA,NA,1,#FA92F8,#1CD855,10,0,1,40,0,1528.7000000029802,39,0,938.2999999970198,0,0,experiment,NA,NA,2,0.5,0.5,4,5,14,1,NA
fcp-trial,48,385186,0.0-23.0-0.0,voc_e2,11763,"[{""event"":""fullscreenenter"",""trial"":1,""time"":4585}]",NA,NA,NA,NA,NA,1,#D8271C,#741CD8,0,10,0,38,1,1814.5,39,0,766.9000000022352,10,1,experiment,NA,NA,1,0.3,0.7,3,2,15,1,NA
fcp-trial,49,389695,0.0-24.0-0.0,voc_e2,11763,"[{""event"":""fullscreenenter"",""trial"":1,""time"":4585}]",NA,NA,NA,NA,NA,5,#D8271C,#741CD8,0,10,0,40,0,1921.3999999985099,37,1,1079.5,0,0,experiment,NA,NA,1,0.3,0.7,3,2,16,1,NA
fcp-trial,50,394911,0.0-25.0-0.0,voc_e2,11763,"[{""event"":""fullscreenenter"",""trial"":1,""time"":4585}]",NA,NA,NA,NA,NA,6,#FA92F8,#1CD855,0,0,1,38,1,1533,37,1,2174.2999999970198,0,1,experiment,NA,NA,2,0.5,0.5,4,5,17,1,NA
fcp-trial,51,399719,0.0-26.0-0.0,voc_e2,11763,"[{""event"":""fullscreenenter"",""trial"":1,""time"":4585}]",NA,NA,NA,NA,NA,2,#3386FF,#D89F1C,0,0,1,38,1,2094.60000000149,37,1,1206.300000000745,0,1,experiment,NA,NA,0,0.9,0.1,0,1,18,1,NA
fcp-trial,52,403512,0.0-27.0-0.0,voc_e2,11763,"[{""event"":""fullscreenenter"",""trial"":1,""time"":4585}]",NA,NA,NA,NA,NA,3,#FA92F8,#1CD855,0,10,1,40,0,1446.800000000745,39,0,838.6000000014901,10,0,experiment,NA,NA,2,0.5,0.5,4,5,19,1,NA
fcp-trial,53,408650,0.0-28.0-0.0,voc_e2,11763,"[{""event"":""fullscreenenter"",""trial"":1,""time"":4585}]",NA,NA,NA,NA,NA,6,#D8271C,#741CD8,0,10,0,38,1,2799.199999999255,39,0,829.6000000014901,10,1,experiment,NA,NA,1,0.3,0.7,3,2,20,1,NA
fcp-trial,54,412963,0.0-29.0-0.0,voc_e2,11763,"[{""event"":""fullscreenenter"",""trial"":1,""time"":4585}]",NA,NA,NA,NA,NA,6,#3386FF,#D89F1C,10,0,1,40,0,2128.400000002235,39,0,673.5,0,0,experiment,NA,NA,0,0.9,0.1,0,1,21,1,NA
fcp-trial,55,416803,0.0-30.0-0.0,voc_e2,11763,"[{""event"":""fullscreenenter"",""trial"":1,""time"":4585}]",NA,NA,NA,NA,NA,4,#3386FF,#D89F1C,10,0,1,40,0,1459,39,0,872.8999999985099,0,0,experiment,NA,NA,0,0.9,0.1,0,1,22,1,NA
fcp-trial,56,421195,0.0-31.0-0.0,voc_e2,11763,"[{""event"":""fullscreenenter"",""trial"":1,""time"":4585}]",NA,NA,NA,NA,NA,3,#3386FF,#D89F1C,10,10,1,38,1,2122.800000000745,37,1,760.7000000029802,10,1,experiment,NA,NA,0,0.9,0.1,0,1,23,1,NA
fcp-trial,57,425497,0.0-32.0-0.0,voc_e2,11763,"[{""event"":""fullscreenenter"",""trial"":1,""time"":4585}]",NA,NA,NA,NA,NA,2,#741CD8,#D8271C,10,0,1,40,0,2026.5,37,1,763.7999999970198,10,1,experiment,NA,NA,1,0.7,0.3,2,3,24,1,NA
fcp-trial,58,429767,0.0-33.0-0.0,voc_e2,11763,"[{""event"":""fullscreenenter"",""trial"":1,""time"":4585}]",NA,NA,NA,NA,NA,5,#FA92F8,#1CD855,0,0,1,38,1,1365.0999999977648,39,0,1398.1000000014901,0,0,experiment,NA,NA,2,0.5,0.5,4,5,25,1,NA
fcp-trial,59,433330,0.0-34.0-0.0,voc_e2,11763,"[{""event"":""fullscreenenter"",""trial"":1,""time"":4585}]",NA,NA,NA,NA,NA,1,#3386FF,#D89F1C,10,10,1,38,1,1391.1000000014901,37,1,661.9000000022352,10,1,experiment,NA,NA,0,0.9,0.1,0,1,26,1,NA
fcp-trial,60,436931,0.0-35.0-0.0,voc_e2,11763,"[{""event"":""fullscreenenter"",""trial"":1,""time"":4585}]",NA,NA,NA,NA,NA,0,#3386FF,#D89F1C,10,0,1,38,1,1409,37,1,678.6999999992549,10,1,experiment,NA,NA,0,0.9,0.1,0,1,27,1,NA
fcp-trial,61,440898,0.0-36.0-0.0,voc_e2,11763,"[{""event"":""fullscreenenter"",""trial"":1,""time"":4585}]",NA,NA,NA,NA,NA,4,#D8271C,#741CD8,0,10,0,40,0,1314.3999999985099,37,1,1142.4000000022352,0,0,experiment,NA,NA,1,0.3,0.7,3,2,28,1,NA
fcp-trial,62,445000,0.0-37.0-0.0,voc_e2,11763,"[{""event"":""fullscreenenter"",""trial"":1,""time"":4585}]",NA,NA,NA,NA,NA,1,#1CD855,#FA92F8,10,0,0,38,1,1474.8999999985099,37,1,1119.1000000014901,10,0,experiment,NA,NA,2,0.5,0.5,5,4,29,1,NA
fcp-trial,63,448746,0.0-38.0-0.0,voc_e2,11763,"[{""event"":""fullscreenenter"",""trial"":1,""time"":4585}]",NA,NA,NA,NA,NA,6,#1CD855,#FA92F8,10,10,0,38,1,1296.8999999985099,37,1,940,10,0,experiment,NA,NA,2,0.5,0.5,5,4,30,1,NA
fcp-trial,64,452365,0.0-39.0-0.0,voc_e2,11763,"[{""event"":""fullscreenenter"",""trial"":1,""time"":4585}]",NA,NA,NA,NA,NA,5,#3386FF,#D89F1C,10,0,1,38,1,1517,37,1,592.5,10,1,experiment,NA,NA,0,0.9,0.1,0,1,31,1,NA
fcp-trial,65,456006,0.0-40.0-0.0,voc_e2,11763,"[{""event"":""fullscreenenter"",""trial"":1,""time"":4585}]",NA,NA,NA,NA,NA,3,#741CD8,#D8271C,10,0,1,40,0,1282.300000000745,39,0,849.0999999977648,0,0,experiment,NA,NA,1,0.7,0.3,2,3,32,1,NA
fcp-trial,66,460458,0.0-41.0-0.0,voc_e2,11763,"[{""event"":""fullscreenenter"",""trial"":1,""time"":4585}]",NA,NA,NA,NA,NA,6,#741CD8,#D8271C,0,0,1,38,1,1248.2000000029802,37,1,1695,0,1,experiment,NA,NA,1,0.7,0.3,2,3,33,1,NA
fcp-trial,67,465618,0.0-42.0-0.0,voc_e2,11763,"[{""event"":""fullscreenenter"",""trial"":1,""time"":4585}]",NA,NA,NA,NA,NA,5,#D8271C,#741CD8,0,10,0,40,0,2856.89999999851,37,1,790.3000000007451,0,0,experiment,NA,NA,1,0.3,0.7,3,2,34,1,NA
fcp-trial,68,469505,0.0-43.0-0.0,voc_e2,11763,"[{""event"":""fullscreenenter"",""trial"":1,""time"":4585}]",NA,NA,NA,NA,NA,0,#1CD855,#FA92F8,10,10,0,38,1,950.1000000014901,37,1,1428.1000000014901,10,0,experiment,NA,NA,2,0.5,0.5,5,4,35,1,NA
fcp-trial,69,473762,0.0-44.0-0.0,voc_e2,11763,"[{""event"":""fullscreenenter"",""trial"":1,""time"":4585}]",NA,NA,NA,NA,NA,6,#D89F1C,#3386FF,0,10,0,38,1,1686.2999999970198,39,0,1062.0999999977648,10,1,experiment,NA,NA,0,0.1,0.9,1,0,36,1,NA
fcp-trial,70,480692,0.0-45.0-0.0,voc_e2,11763,"[{""event"":""fullscreenenter"",""trial"":1,""time"":4585}]",NA,NA,NA,NA,NA,1,#D8271C,#741CD8,10,10,0,38,1,1981.199999999255,39,0,3441.5,10,1,experiment,NA,NA,1,0.3,0.7,3,2,37,1,NA
fcp-trial,71,484367,0.0-46.0-0.0,voc_e2,11763,"[{""event"":""fullscreenenter"",""trial"":1,""time"":4585}]",NA,NA,NA,NA,NA,2,#FA92F8,#1CD855,10,10,1,40,0,1100.1000000014901,37,1,1065,10,1,experiment,NA,NA,2,0.5,0.5,4,5,38,1,NA
fcp-trial,72,487972,0.0-47.0-0.0,voc_e2,11763,"[{""event"":""fullscreenenter"",""trial"":1,""time"":4585}]",NA,NA,NA,NA,NA,2,#D89F1C,#3386FF,0,10,0,38,1,1303.5,39,0,790,10,1,experiment,NA,NA,0,0.1,0.9,1,0,39,1,NA
fcp-trial,73,491629,0.0-48.0-0.0,voc_e2,11763,"[{""event"":""fullscreenenter"",""trial"":1,""time"":4585}]",NA,NA,NA,NA,NA,3,#FA92F8,#1CD855,0,0,1,38,1,1312.3999999985099,39,0,829,0,0,experiment,NA,NA,2,0.5,0.5,4,5,40,1,NA
fcp-trial,74,495346,0.0-49.0-0.0,voc_e2,11763,"[{""event"":""fullscreenenter"",""trial"":1,""time"":4585}]",NA,NA,NA,NA,NA,4,#1CD855,#FA92F8,0,0,0,38,1,1328.2000000029802,37,1,877,0,0,experiment,NA,NA,2,0.5,0.5,5,4,41,1,NA
fcp-trial,75,499938,0.0-50.0-0.0,voc_e2,11763,"[{""event"":""fullscreenenter"",""trial"":1,""time"":4585}]",NA,NA,NA,NA,NA,0,#741CD8,#D8271C,0,10,1,38,1,1606.6000000014901,37,1,1477.8999999985099,0,1,experiment,NA,NA,1,0.7,0.3,2,3,42,1,NA
fcp-trial,76,504188,0.0-51.0-0.0,voc_e2,11763,"[{""event"":""fullscreenenter"",""trial"":1,""time"":4585}]",NA,NA,NA,NA,NA,5,#1CD855,#FA92F8,0,0,0,38,1,1245.3999999985099,37,1,1494.800000000745,0,0,experiment,NA,NA,2,0.5,0.5,5,4,43,1,NA
fcp-trial,77,508117,0.0-52.0-0.0,voc_e2,11763,"[{""event"":""fullscreenenter"",""trial"":1,""time"":4585}]",NA,NA,NA,NA,NA,4,#D8271C,#741CD8,10,10,0,38,1,1220.1000000014901,39,0,1197,10,1,experiment,NA,NA,1,0.3,0.7,3,2,44,1,NA
fcp-trial,78,512651,0.0-53.0-0.0,voc_e2,11763,"[{""event"":""fullscreenenter"",""trial"":1,""time"":4585}]",NA,NA,NA,NA,NA,0,#3386FF,#D89F1C,10,0,1,38,1,847.6999999992549,37,1,2173.89999999851,10,1,experiment,NA,NA,0,0.9,0.1,0,1,45,1,NA
fcp-trial,79,515870,0.0-54.0-0.0,voc_e2,11763,"[{""event"":""fullscreenenter"",""trial"":1,""time"":4585}]",NA,NA,NA,NA,NA,5,#741CD8,#D8271C,10,10,1,38,1,967.3000000007451,37,1,746.3000000007451,10,1,experiment,NA,NA,1,0.7,0.3,2,3,46,2,NA
fcp-trial,80,519204,0.0-55.0-0.0,voc_e2,11763,"[{""event"":""fullscreenenter"",""trial"":1,""time"":4585}]",NA,NA,NA,NA,NA,4,#D89F1C,#3386FF,0,10,0,38,1,722.3000000007451,39,0,1099.6000000014901,10,1,experiment,NA,NA,0,0.1,0.9,1,0,47,2,NA
fcp-trial,81,523155,0.0-56.0-0.0,voc_e2,11763,"[{""event"":""fullscreenenter"",""trial"":1,""time"":4585}]",NA,NA,NA,NA,NA,4,#1CD855,#FA92F8,10,0,0,38,1,593.3000000007451,37,1,1845.6000000014901,10,0,experiment,NA,NA,2,0.5,0.5,5,4,48,2,NA
fcp-trial,82,526744,0.0-57.0-0.0,voc_e2,11763,"[{""event"":""fullscreenenter"",""trial"":1,""time"":4585}]",NA,NA,NA,NA,NA,6,#D8271C,#741CD8,0,10,0,40,0,1118.5,39,0,962.5999999977648,10,1,experiment,NA,NA,1,0.3,0.7,3,2,49,2,NA
fcp-trial,83,531076,0.0-58.0-0.0,voc_e2,11763,"[{""event"":""fullscreenenter"",""trial"":1,""time"":4585}]",NA,NA,NA,NA,NA,2,#D89F1C,#3386FF,10,10,0,38,1,1330.8999999985099,39,0,1492,10,1,experiment,NA,NA,0,0.1,0.9,1,0,50,2,NA
fcp-trial,84,534852,0.0-59.0-0.0,voc_e2,11763,"[{""event"":""fullscreenenter"",""trial"":1,""time"":4585}]",NA,NA,NA,NA,NA,3,#D8271C,#741CD8,0,10,0,38,1,1542.3999999985099,39,0,724.5,10,1,experiment,NA,NA,1,0.3,0.7,3,2,51,2,NA
fcp-trial,85,538549,0.0-60.0-0.0,voc_e2,11763,"[{""event"":""fullscreenenter"",""trial"":1,""time"":4585}]",NA,NA,NA,NA,NA,1,#1CD855,#FA92F8,10,0,0,38,1,1270.9000000022352,37,1,918.1999999992549,10,0,experiment,NA,NA,2,0.5,0.5,5,4,52,2,NA
fcp-trial,86,542762,0.0-61.0-0.0,voc_e2,11763,"[{""event"":""fullscreenenter"",""trial"":1,""time"":4585}]",NA,NA,NA,NA,NA,2,#1CD855,#FA92F8,10,10,0,38,1,1920.199999999255,37,1,781.4000000022352,10,0,experiment,NA,NA,2,0.5,0.5,5,4,53,2,NA
fcp-trial,87,546147,0.0-62.0-0.0,voc_e2,11763,"[{""event"":""fullscreenenter"",""trial"":1,""time"":4585}]",NA,NA,NA,NA,NA,1,#D8271C,#741CD8,0,0,0,38,1,1256.1000000014901,39,0,623.3999999985099,0,1,experiment,NA,NA,1,0.3,0.7,3,2,54,2,NA
fcp-trial,88,550285,0.0-63.0-0.0,voc_e2,11763,"[{""event"":""fullscreenenter"",""trial"":1,""time"":4585}]",NA,NA,NA,NA,NA,6,#D89F1C,#3386FF,0,0,0,40,0,1875.7999999970198,39,0,750.1999999992549,0,1,experiment,NA,NA,0,0.1,0.9,1,0,55,2,NA
fcp-trial,89,555335,0.0-64.0-0.0,voc_e2,11763,"[{""event"":""fullscreenenter"",""trial"":1,""time"":4585}]",NA,NA,NA,NA,NA,2,#741CD8,#D8271C,10,0,1,40,0,2774.89999999851,39,0,764.3000000007451,0,0,experiment,NA,NA,1,0.7,0.3,2,3,56,2,NA
fcp-trial,90,558700,0.0-65.0-0.0,voc_e2,11763,"[{""event"":""fullscreenenter"",""trial"":1,""time"":4585}]",NA,NA,NA,NA,NA,3,#3386FF,#D89F1C,10,0,1,38,1,902.6000000014901,37,1,950.5999999977648,10,1,experiment,NA,NA,0,0.9,0.1,0,1,57,2,NA
fcp-trial,91,562429,0.0-66.0-0.0,voc_e2,11763,"[{""event"":""fullscreenenter"",""trial"":1,""time"":4585}]",NA,NA,NA,NA,NA,3,#FA92F8,#1CD855,0,0,1,38,1,1342.800000000745,39,0,878.0999999977648,0,0,experiment,NA,NA,2,0.5,0.5,4,5,58,2,NA
fcp-trial,92,566852,0.0-67.0-0.0,voc_e2,11763,"[{""event"":""fullscreenenter"",""trial"":1,""time"":4585}]",NA,NA,NA,NA,NA,5,#D89F1C,#3386FF,0,10,0,38,1,1707.199999999255,39,0,1206.300000000745,10,1,experiment,NA,NA,0,0.1,0.9,1,0,59,2,NA
fcp-trial,93,570774,0.0-68.0-0.0,voc_e2,11763,"[{""event"":""fullscreenenter"",""trial"":1,""time"":4585}]",NA,NA,NA,NA,NA,0,#FA92F8,#1CD855,10,10,1,38,1,1361.0999999977648,39,0,1052,10,0,experiment,NA,NA,2,0.5,0.5,4,5,60,2,NA
fcp-trial,94,574281,0.0-69.0-0.0,voc_e2,11763,"[{""event"":""fullscreenenter"",""trial"":1,""time"":4585}]",NA,NA,NA,NA,NA,0,#D8271C,#741CD8,10,10,0,38,1,1284.0999999977648,39,0,712.5,10,1,experiment,NA,NA,1,0.3,0.7,3,2,61,2,NA
fcp-trial,95,578405,0.0-70.0-0.0,voc_e2,11763,"[{""event"":""fullscreenenter"",""trial"":1,""time"":4585}]",NA,NA,NA,NA,NA,1,#3386FF,#D89F1C,10,0,1,38,1,1384.3999999985099,37,1,1231.300000000745,10,1,experiment,NA,NA,0,0.9,0.1,0,1,62,2,NA
fcp-trial,96,582197,0.0-71.0-0.0,voc_e2,11763,"[{""event"":""fullscreenenter"",""trial"":1,""time"":4585}]",NA,NA,NA,NA,NA,6,#1CD855,#FA92F8,10,10,0,40,0,1286.0999999977648,37,1,999.1999999992549,10,0,experiment,NA,NA,2,0.5,0.5,5,4,63,2,NA
fcp-trial,97,585982,0.0-72.0-0.0,voc_e2,11763,"[{""event"":""fullscreenenter"",""trial"":1,""time"":4585}]",NA,NA,NA,NA,NA,0,#D8271C,#741CD8,0,10,0,38,1,1557.8999999985099,39,0,715,10,1,experiment,NA,NA,1,0.3,0.7,3,2,64,2,NA
fcp-trial,98,590144,0.0-73.0-0.0,voc_e2,11763,"[{""event"":""fullscreenenter"",""trial"":1,""time"":4585}]",NA,NA,NA,NA,NA,4,#FA92F8,#1CD855,10,0,1,38,1,1792.800000000745,39,0,854.2999999970198,0,0,experiment,NA,NA,2,0.5,0.5,4,5,65,2,NA
fcp-trial,99,594150,0.0-74.0-0.0,voc_e2,11763,"[{""event"":""fullscreenenter"",""trial"":1,""time"":4585}]",NA,NA,NA,NA,NA,3,#D8271C,#741CD8,0,10,0,38,1,1606.300000000745,39,0,885.1999999992549,10,1,experiment,NA,NA,1,0.3,0.7,3,2,66,2,NA
fcp-trial,100,597533,0.0-75.0-0.0,voc_e2,11763,"[{""event"":""fullscreenenter"",""trial"":1,""time"":4585}]",NA,NA,NA,NA,NA,3,#D89F1C,#3386FF,0,10,0,40,0,993.7000000029802,37,1,877.9000000022352,0,0,experiment,NA,NA,0,0.1,0.9,1,0,67,2,NA
fcp-trial,101,601430,0.0-76.0-0.0,voc_e2,11763,"[{""event"":""fullscreenenter"",""trial"":1,""time"":4585}]",NA,NA,NA,NA,NA,4,#3386FF,#D89F1C,10,0,1,40,0,1502,39,0,887,0,0,experiment,NA,NA,0,0.9,0.1,0,1,68,2,NA
fcp-trial,102,605514,0.0-77.0-0.0,voc_e2,11763,"[{""event"":""fullscreenenter"",""trial"":1,""time"":4585}]",NA,NA,NA,NA,NA,5,#FA92F8,#1CD855,0,0,1,40,0,1625.1000000014901,39,0,944.8999999985099,0,0,experiment,NA,NA,2,0.5,0.5,4,5,69,2,NA
fcp-trial,103,609642,0.0-78.0-0.0,voc_e2,11763,"[{""event"":""fullscreenenter"",""trial"":1,""time"":4585}]",NA,NA,NA,NA,NA,2,#741CD8,#D8271C,10,0,1,40,0,1832.1000000014901,37,1,785,10,1,experiment,NA,NA,1,0.7,0.3,2,3,70,2,NA
fcp-trial,104,613789,0.0-79.0-0.0,voc_e2,11763,"[{""event"":""fullscreenenter"",""trial"":1,""time"":4585}]",NA,NA,NA,NA,NA,0,#D89F1C,#3386FF,0,10,0,38,1,1720.199999999255,39,0,917.8999999985099,10,1,experiment,NA,NA,0,0.1,0.9,1,0,71,2,NA
fcp-trial,105,617488,0.0-80.0-0.0,voc_e2,11763,"[{""event"":""fullscreenenter"",""trial"":1,""time"":4585}]",NA,NA,NA,NA,NA,1,#3386FF,#D89F1C,10,0,1,38,1,1357.7999999970198,37,1,831.8000000007451,10,1,experiment,NA,NA,0,0.9,0.1,0,1,72,2,NA
fcp-trial,106,621066,0.0-81.0-0.0,voc_e2,11763,"[{""event"":""fullscreenenter"",""trial"":1,""time"":4585}]",NA,NA,NA,NA,NA,6,#D8271C,#741CD8,10,0,0,40,0,1282.7999999970198,39,0,783.7999999970198,0,1,experiment,NA,NA,1,0.3,0.7,3,2,73,2,NA
fcp-trial,107,625150,0.0-82.0-0.0,voc_e2,11763,"[{""event"":""fullscreenenter"",""trial"":1,""time"":4585}]",NA,NA,NA,NA,NA,3,#FA92F8,#1CD855,0,10,1,38,1,1816.699999999255,37,1,759.5,0,1,experiment,NA,NA,2,0.5,0.5,4,5,74,2,NA
fcp-trial,108,628685,0.0-83.0-0.0,voc_e2,11763,"[{""event"":""fullscreenenter"",""trial"":1,""time"":4585}]",NA,NA,NA,NA,NA,2,#1CD855,#FA92F8,0,10,0,38,1,1243.300000000745,39,0,782.0999999977648,10,1,experiment,NA,NA,2,0.5,0.5,5,4,75,2,NA
fcp-trial,109,633193,0.0-84.0-0.0,voc_e2,11763,"[{""event"":""fullscreenenter"",""trial"":1,""time"":4585}]",NA,NA,NA,NA,NA,4,#741CD8,#D8271C,0,0,1,40,0,2129.5,39,0,869.5999999977648,0,0,experiment,NA,NA,1,0.7,0.3,2,3,76,2,NA
fcp-trial,110,636467,0.0-85.0-0.0,voc_e2,11763,"[{""event"":""fullscreenenter"",""trial"":1,""time"":4585}]",NA,NA,NA,NA,NA,2,#D89F1C,#3386FF,0,10,0,38,1,1059.5,39,0,701.6999999992549,10,1,experiment,NA,NA,0,0.1,0.9,1,0,77,2,NA
fcp-trial,111,640191,0.0-86.0-0.0,voc_e2,11763,"[{""event"":""fullscreenenter"",""trial"":1,""time"":4585}]",NA,NA,NA,NA,NA,6,#3386FF,#D89F1C,10,0,1,38,1,1248.3999999985099,37,1,966.1999999992549,10,1,experiment,NA,NA,0,0.9,0.1,0,1,78,2,NA
fcp-trial,112,645191,0.0-87.0-0.0,voc_e2,11763,"[{""event"":""fullscreenenter"",""trial"":1,""time"":4585}]",NA,NA,NA,NA,NA,1,#D8271C,#741CD8,0,10,0,38,1,1933.4000000022352,39,0,1557,10,1,experiment,NA,NA,1,0.3,0.7,3,2,79,2,NA
fcp-trial,113,648446,0.0-88.0-0.0,voc_e2,11763,"[{""event"":""fullscreenenter"",""trial"":1,""time"":4585}]",NA,NA,NA,NA,NA,1,#FA92F8,#1CD855,0,0,1,38,1,1192.3999999985099,39,0,554.3999999985099,0,0,experiment,NA,NA,2,0.5,0.5,4,5,80,2,NA
fcp-trial,114,653912,0.0-89.0-0.0,voc_e2,11763,"[{""event"":""fullscreenenter"",""trial"":1,""time"":4585}]",NA,NA,NA,NA,NA,5,#D8271C,#741CD8,0,0,0,38,1,2566.599999997765,39,0,1391.300000000745,0,1,experiment,NA,NA,1,0.3,0.7,3,2,81,2,NA
fcp-trial,115,657368,0.0-90.0-0.0,voc_e2,11763,"[{""event"":""fullscreenenter"",""trial"":1,""time"":4585}]",NA,NA,NA,NA,NA,5,#3386FF,#D89F1C,10,0,1,40,0,1342.0999999977648,37,1,605.7000000029802,10,1,experiment,NA,NA,0,0.9,0.1,0,1,82,2,NA
fcp-trial,116,660881,0.0-91.0-0.0,voc_e2,11763,"[{""event"":""fullscreenenter"",""trial"":1,""time"":4585}]",NA,NA,NA,NA,NA,6,#1CD855,#FA92F8,10,10,0,40,0,1313.5999999977648,39,0,687.1999999992549,10,1,experiment,NA,NA,2,0.5,0.5,5,4,83,2,NA
fcp-trial,117,665167,0.0-92.0-0.0,voc_e2,11763,"[{""event"":""fullscreenenter"",""trial"":1,""time"":4585}]",NA,NA,NA,NA,NA,0,#FA92F8,#1CD855,0,0,1,38,1,1904.5,37,1,870.3000000007451,0,1,experiment,NA,NA,2,0.5,0.5,4,5,84,2,NA
fcp-trial,118,668744,0.0-93.0-0.0,voc_e2,11763,"[{""event"":""fullscreenenter"",""trial"":1,""time"":4585}]",NA,NA,NA,NA,NA,3,#3386FF,#D89F1C,10,0,1,38,1,1517.5999999977648,37,1,550.6999999992549,10,1,experiment,NA,NA,0,0.9,0.1,0,1,85,2,NA
fcp-trial,119,673147,0.0-94.0-0.0,voc_e2,11763,"[{""event"":""fullscreenenter"",""trial"":1,""time"":4585}]",NA,NA,NA,NA,NA,4,#741CD8,#D8271C,10,0,1,40,0,1916.9000000022352,37,1,977.1999999992549,10,1,experiment,NA,NA,1,0.7,0.3,2,3,86,2,NA
fcp-trial,120,680153,0.0-95.0-0.0,voc_e2,11763,"[{""event"":""fullscreenenter"",""trial"":1,""time"":4585},{""event"":""blur"",""trial"":120,""time"":673416},{""event"":""focus"",""trial"":120,""time"":676470}]",NA,NA,NA,NA,NA,4,#FA92F8,#1CD855,10,10,1,38,1,4435.400000002235,39,0,1059.5,10,0,experiment,NA,NA,2,0.5,0.5,4,5,87,2,NA
fcp-trial,121,684656,0.0-96.0-0.0,voc_e2,11763,"[{""event"":""fullscreenenter"",""trial"":1,""time"":4585},{""event"":""blur"",""trial"":120,""time"":673416},{""event"":""focus"",""trial"":120,""time"":676470}]",NA,NA,NA,NA,NA,6,#3386FF,#D89F1C,10,0,1,40,0,1958.199999999255,37,1,1037.9000000022352,10,1,experiment,NA,NA,0,0.9,0.1,0,1,88,2,NA
fcp-trial,122,689537,0.0-97.0-0.0,voc_e2,11763,"[{""event"":""fullscreenenter"",""trial"":1,""time"":4585},{""event"":""blur"",""trial"":120,""time"":673416},{""event"":""focus"",""trial"":120,""time"":676470}]",NA,NA,NA,NA,NA,6,#D8271C,#741CD8,10,10,0,38,1,2184.800000000745,39,0,1189.5,10,1,experiment,NA,NA,1,0.3,0.7,3,2,89,2,NA
fcp-trial,123,693140,0.0-98.0-0.0,voc_e2,11763,"[{""event"":""fullscreenenter"",""trial"":1,""time"":4585},{""event"":""blur"",""trial"":120,""time"":673416},{""event"":""focus"",""trial"":120,""time"":676470}]",NA,NA,NA,NA,NA,5,#1CD855,#FA92F8,0,10,0,40,0,1561.699999999255,37,1,535.3000000007451,0,0,experiment,NA,NA,2,0.5,0.5,5,4,90,2,NA
fcp-trial,124,697058,0.0-99.0-0.0,voc_e2,11763,"[{""event"":""fullscreenenter"",""trial"":1,""time"":4585},{""event"":""blur"",""trial"":120,""time"":673416},{""event"":""focus"",""trial"":120,""time"":676470}]",NA,NA,NA,NA,NA,3,#D8271C,#741CD8,10,10,0,40,0,1250.800000000745,37,1,1158.5999999977648,10,0,experiment,NA,NA,1,0.3,0.7,3,2,91,3,NA
fcp-trial,125,700393,0.0-100.0-0.0,voc_e2,11763,"[{""event"":""fullscreenenter"",""trial"":1,""time"":4585},{""event"":""blur"",""trial"":120,""time"":673416},{""event"":""focus"",""trial"":120,""time"":676470}]",NA,NA,NA,NA,NA,4,#D89F1C,#3386FF,0,10,0,40,0,996.8000000007451,37,1,828.6999999992549,0,0,experiment,NA,NA,0,0.1,0.9,1,0,92,3,NA
fcp-trial,126,704498,0.0-101.0-0.0,voc_e2,11763,"[{""event"":""fullscreenenter"",""trial"":1,""time"":4585},{""event"":""blur"",""trial"":120,""time"":673416},{""event"":""focus"",""trial"":120,""time"":676470}]",NA,NA,NA,NA,NA,1,#1CD855,#FA92F8,0,0,0,38,1,1398.9000000022352,39,0,1200.4000000022352,0,1,experiment,NA,NA,2,0.5,0.5,5,4,93,3,NA
fcp-trial,127,707944,0.0-102.0-0.0,voc_e2,11763,"[{""event"":""fullscreenenter"",""trial"":1,""time"":4585},{""event"":""blur"",""trial"":120,""time"":673416},{""event"":""focus"",""trial"":120,""time"":676470}]",NA,NA,NA,NA,NA,2,#D8271C,#741CD8,0,10,0,40,0,1150.199999999255,37,1,789.8000000007451,0,0,experiment,NA,NA,1,0.3,0.7,3,2,94,3,NA
fcp-trial,128,711948,0.0-103.0-0.0,voc_e2,11763,"[{""event"":""fullscreenenter"",""trial"":1,""time"":4585},{""event"":""blur"",""trial"":120,""time"":673416},{""event"":""focus"",""trial"":120,""time"":676470}]",NA,NA,NA,NA,NA,0,#741CD8,#D8271C,10,0,1,38,1,1247.6000000014901,37,1,1250,10,1,experiment,NA,NA,1,0.7,0.3,2,3,95,3,NA
fcp-trial,129,715809,0.0-104.0-0.0,voc_e2,11763,"[{""event"":""fullscreenenter"",""trial"":1,""time"":4585},{""event"":""blur"",""trial"":120,""time"":673416},{""event"":""focus"",""trial"":120,""time"":676470}]",NA,NA,NA,NA,NA,2,#1CD855,#FA92F8,10,10,0,38,1,1227.1000000014901,37,1,1126.5999999977648,10,0,experiment,NA,NA,2,0.5,0.5,5,4,96,3,NA
fcp-trial,130,719585,0.0-105.0-0.0,voc_e2,11763,"[{""event"":""fullscreenenter"",""trial"":1,""time"":4585},{""event"":""blur"",""trial"":120,""time"":673416},{""event"":""focus"",""trial"":120,""time"":676470}]",NA,NA,NA,NA,NA,0,#D89F1C,#3386FF,0,10,0,38,1,1529,39,0,739.8000000007451,10,1,experiment,NA,NA,0,0.1,0.9,1,0,97,3,NA
fcp-trial,131,723187,0.0-106.0-0.0,voc_e2,11763,"[{""event"":""fullscreenenter"",""trial"":1,""time"":4585},{""event"":""blur"",""trial"":120,""time"":673416},{""event"":""focus"",""trial"":120,""time"":676470}]",NA,NA,NA,NA,NA,3,#FA92F8,#1CD855,0,10,1,40,0,1393,37,1,701.9000000022352,0,1,experiment,NA,NA,2,0.5,0.5,4,5,98,3,NA
fcp-trial,132,726675,0.0-107.0-0.0,voc_e2,11763,"[{""event"":""fullscreenenter"",""trial"":1,""time"":4585},{""event"":""blur"",""trial"":120,""time"":673416},{""event"":""focus"",""trial"":120,""time"":676470}]",NA,NA,NA,NA,NA,6,#1CD855,#FA92F8,0,10,0,40,0,1167.800000000745,37,1,812.3000000007451,0,0,experiment,NA,NA,2,0.5,0.5,5,4,99,3,NA
fcp-trial,133,732418,0.0-108.0-0.0,voc_e2,11763,"[{""event"":""fullscreenenter"",""trial"":1,""time"":4585},{""event"":""blur"",""trial"":120,""time"":673416},{""event"":""focus"",""trial"":120,""time"":676470}]",NA,NA,NA,NA,NA,1,#D8271C,#741CD8,10,10,0,38,1,1225,39,0,3004.800000000745,10,1,experiment,NA,NA,1,0.3,0.7,3,2,100,3,NA
fcp-trial,134,736042,0.0-109.0-0.0,voc_e2,11763,"[{""event"":""fullscreenenter"",""trial"":1,""time"":4585},{""event"":""blur"",""trial"":120,""time"":673416},{""event"":""focus"",""trial"":120,""time"":676470}]",NA,NA,NA,NA,NA,1,#D89F1C,#3386FF,0,10,0,38,1,1272.2999999970198,39,0,844.5,10,1,experiment,NA,NA,0,0.1,0.9,1,0,101,3,NA
fcp-trial,135,739402,0.0-110.0-0.0,voc_e2,11763,"[{""event"":""fullscreenenter"",""trial"":1,""time"":4585},{""event"":""blur"",""trial"":120,""time"":673416},{""event"":""focus"",""trial"":120,""time"":676470}]",NA,NA,NA,NA,NA,0,#FA92F8,#1CD855,0,0,1,38,1,1071,39,0,779.3000000007451,0,0,experiment,NA,NA,2,0.5,0.5,4,5,102,3,NA
fcp-trial,136,743627,0.0-111.0-0.0,voc_e2,11763,"[{""event"":""fullscreenenter"",""trial"":1,""time"":4585},{""event"":""blur"",""trial"":120,""time"":673416},{""event"":""focus"",""trial"":120,""time"":676470}]",NA,NA,NA,NA,NA,5,#741CD8,#D8271C,10,0,1,40,0,1635.6000000014901,37,1,1077.6000000014901,10,1,experiment,NA,NA,1,0.7,0.3,2,3,103,3,NA
fcp-trial,137,747041,0.0-112.0-0.0,voc_e2,11763,"[{""event"":""fullscreenenter"",""trial"":1,""time"":4585},{""event"":""blur"",""trial"":120,""time"":673416},{""event"":""focus"",""trial"":120,""time"":676470}]",NA,NA,NA,NA,NA,2,#D89F1C,#3386FF,0,10,0,38,1,1321.5,39,0,581.6999999992549,10,1,experiment,NA,NA,0,0.1,0.9,1,0,104,3,NA
fcp-trial,138,750782,0.0-113.0-0.0,voc_e2,11763,"[{""event"":""fullscreenenter"",""trial"":1,""time"":4585},{""event"":""blur"",""trial"":120,""time"":673416},{""event"":""focus"",""trial"":120,""time"":676470}]",NA,NA,NA,NA,NA,5,#D89F1C,#3386FF,0,10,0,40,0,1550.699999999255,39,0,684.7999999970198,10,1,experiment,NA,NA,0,0.1,0.9,1,0,105,3,NA
audio-instructions,139,793778,0.0-114.0,voc_e2,11763,"[{""event"":""fullscreenenter"",""trial"":1,""time"":4585},{""event"":""blur"",""trial"":120,""time"":673416},{""event"":""focus"",""trial"":120,""time"":676470},{""event"":""blur"",""trial"":139,""time"":778292},{""event"":""focus"",""trial"":139,""time"":787074},{""event"":""blur"",""trial"":139,""time"":789444},{""event"":""focus"",""trial"":139,""time"":792880}]",NA,38328.099999997765,static/audio/pause.wav,NA,0,NA,NA,NA,NA,NA,NA,NA,NA,NA,NA,NA,NA,NA,NA,NA,NA,NA,NA,NA,NA,NA,NA,NA,NA,NA
fcp-trial,140,797566,0.0-115.0-0.0,voc_e2,11763,"[{""event"":""fullscreenenter"",""trial"":1,""time"":4585},{""event"":""blur"",""trial"":120,""time"":673416},{""event"":""focus"",""trial"":120,""time"":676470},{""event"":""blur"",""trial"":139,""time"":778292},{""event"":""focus"",""trial"":139,""time"":787074},{""event"":""blur"",""trial"":139,""time"":789444},{""event"":""focus"",""trial"":139,""time"":792880}]",NA,NA,NA,NA,NA,0,#FA92F8,#1CD855,0,0,1,38,1,1284.199999999255,39,0,992.3999999985099,0,0,experiment,NA,NA,2,0.5,0.5,4,5,106,3,NA
fcp-trial,141,800925,0.0-116.0-0.0,voc_e2,11763,"[{""event"":""fullscreenenter"",""trial"":1,""time"":4585},{""event"":""blur"",""trial"":120,""time"":673416},{""event"":""focus"",""trial"":120,""time"":676470},{""event"":""blur"",""trial"":139,""time"":778292},{""event"":""focus"",""trial"":139,""time"":787074},{""event"":""blur"",""trial"":139,""time"":789444},{""event"":""focus"",""trial"":139,""time"":792880}]",NA,NA,NA,NA,NA,5,#1CD855,#FA92F8,0,10,0,40,0,1168.5999999977648,39,0,681.3000000007451,10,1,experiment,NA,NA,2,0.5,0.5,5,4,107,3,NA
fcp-trial,142,805150,0.0-117.0-0.0,voc_e2,11763,"[{""event"":""fullscreenenter"",""trial"":1,""time"":4585},{""event"":""blur"",""trial"":120,""time"":673416},{""event"":""focus"",""trial"":120,""time"":676470},{""event"":""blur"",""trial"":139,""time"":778292},{""event"":""focus"",""trial"":139,""time"":787074},{""event"":""blur"",""trial"":139,""time"":789444},{""event"":""focus"",""trial"":139,""time"":792880}]",NA,NA,NA,NA,NA,6,#741CD8,#D8271C,0,10,1,40,0,2013.5,39,0,703.1000000014901,10,0,experiment,NA,NA,1,0.7,0.3,2,3,108,3,NA
fcp-trial,143,808548,0.0-118.0-0.0,voc_e2,11763,"[{""event"":""fullscreenenter"",""trial"":1,""time"":4585},{""event"":""blur"",""trial"":120,""time"":673416},{""event"":""focus"",""trial"":120,""time"":676470},{""event"":""blur"",""trial"":139,""time"":778292},{""event"":""focus"",""trial"":139,""time"":787074},{""event"":""blur"",""trial"":139,""time"":789444},{""event"":""focus"",""trial"":139,""time"":792880}]",NA,NA,NA,NA,NA,5,#741CD8,#D8271C,0,10,1,40,0,1153.800000000745,37,1,735.3000000007451,0,1,experiment,NA,NA,1,0.7,0.3,2,3,109,3,NA
fcp-trial,144,812125,0.0-119.0-0.0,voc_e2,11763,"[{""event"":""fullscreenenter"",""trial"":1,""time"":4585},{""event"":""blur"",""trial"":120,""time"":673416},{""event"":""focus"",""trial"":120,""time"":676470},{""event"":""blur"",""trial"":139,""time"":778292},{""event"":""focus"",""trial"":139,""time"":787074},{""event"":""blur"",""trial"":139,""time"":789444},{""event"":""focus"",""trial"":139,""time"":792880}]",NA,NA,NA,NA,NA,0,#D89F1C,#3386FF,0,10,0,38,1,1061.8999999985099,37,1,1007.5,0,0,experiment,NA,NA,0,0.1,0.9,1,0,110,3,NA
fcp-trial,145,818067,0.0-120.0-0.0,voc_e2,11763,"[{""event"":""fullscreenenter"",""trial"":1,""time"":4585},{""event"":""blur"",""trial"":120,""time"":673416},{""event"":""focus"",""trial"":120,""time"":676470},{""event"":""blur"",""trial"":139,""time"":778292},{""event"":""focus"",""trial"":139,""time"":787074},{""event"":""blur"",""trial"":139,""time"":789444},{""event"":""focus"",""trial"":139,""time"":792880}]",NA,NA,NA,NA,NA,6,#FA92F8,#1CD855,10,10,1,40,0,3845,39,0,591.0999999977648,10,0,experiment,NA,NA,2,0.5,0.5,4,5,111,3,NA
fcp-trial,146,822572,0.0-121.0-0.0,voc_e2,11763,"[{""event"":""fullscreenenter"",""trial"":1,""time"":4585},{""event"":""blur"",""trial"":120,""time"":673416},{""event"":""focus"",""trial"":120,""time"":676470},{""event"":""blur"",""trial"":139,""time"":778292},{""event"":""focus"",""trial"":139,""time"":787074},{""event"":""blur"",""trial"":139,""time"":789444},{""event"":""focus"",""trial"":139,""time"":792880}]",NA,NA,NA,NA,NA,4,#3386FF,#D89F1C,10,10,1,38,1,2374.300000000745,37,1,623,10,1,experiment,NA,NA,0,0.9,0.1,0,1,112,3,NA
fcp-trial,147,826197,0.0-122.0-0.0,voc_e2,11763,"[{""event"":""fullscreenenter"",""trial"":1,""time"":4585},{""event"":""blur"",""trial"":120,""time"":673416},{""event"":""focus"",""trial"":120,""time"":676470},{""event"":""blur"",""trial"":139,""time"":778292},{""event"":""focus"",""trial"":139,""time"":787074},{""event"":""blur"",""trial"":139,""time"":789444},{""event"":""focus"",""trial"":139,""time"":792880}]",NA,NA,NA,NA,NA,2,#1CD855,#FA92F8,10,10,0,38,1,1252.6000000014901,37,1,860.8000000007451,10,0,experiment,NA,NA,2,0.5,0.5,5,4,113,3,NA
fcp-trial,148,831166,0.0-123.0-0.0,voc_e2,11763,"[{""event"":""fullscreenenter"",""trial"":1,""time"":4585},{""event"":""blur"",""trial"":120,""time"":673416},{""event"":""focus"",""trial"":120,""time"":676470},{""event"":""blur"",""trial"":139,""time"":778292},{""event"":""focus"",""trial"":139,""time"":787074},{""event"":""blur"",""trial"":139,""time"":789444},{""event"":""focus"",""trial"":139,""time"":792880}]",NA,NA,NA,NA,NA,0,#D8271C,#741CD8,0,10,0,38,1,1029.199999999255,39,0,2431.199999999255,10,1,experiment,NA,NA,1,0.3,0.7,3,2,114,3,NA
fcp-trial,149,834316,0.0-124.0-0.0,voc_e2,11763,"[{""event"":""fullscreenenter"",""trial"":1,""time"":4585},{""event"":""blur"",""trial"":120,""time"":673416},{""event"":""focus"",""trial"":120,""time"":676470},{""event"":""blur"",""trial"":139,""time"":778292},{""event"":""focus"",""trial"":139,""time"":787074},{""event"":""blur"",""trial"":139,""time"":789444},{""event"":""focus"",""trial"":139,""time"":792880}]",NA,NA,NA,NA,NA,1,#D89F1C,#3386FF,10,10,0,38,1,1013.3999999985099,39,0,628.5,10,1,experiment,NA,NA,0,0.1,0.9,1,0,115,3,NA
fcp-trial,150,837923,0.0-125.0-0.0,voc_e2,11763,"[{""event"":""fullscreenenter"",""trial"":1,""time"":4585},{""event"":""blur"",""trial"":120,""time"":673416},{""event"":""focus"",""trial"":120,""time"":676470},{""event"":""blur"",""trial"":139,""time"":778292},{""event"":""focus"",""trial"":139,""time"":787074},{""event"":""blur"",""trial"":139,""time"":789444},{""event"":""focus"",""trial"":139,""time"":792880}]",NA,NA,NA,NA,NA,3,#741CD8,#D8271C,10,0,1,38,1,1516.7999999970198,37,1,582.5999999977648,10,1,experiment,NA,NA,1,0.7,0.3,2,3,116,3,NA
fcp-trial,151,840996,0.0-126.0-0.0,voc_e2,11763,"[{""event"":""fullscreenenter"",""trial"":1,""time"":4585},{""event"":""blur"",""trial"":120,""time"":673416},{""event"":""focus"",""trial"":120,""time"":676470},{""event"":""blur"",""trial"":139,""time"":778292},{""event"":""focus"",""trial"":139,""time"":787074},{""event"":""blur"",""trial"":139,""time"":789444},{""event"":""focus"",""trial"":139,""time"":792880}]",NA,NA,NA,NA,NA,1,#1CD855,#FA92F8,10,10,0,38,1,973.8999999985099,37,1,590.5,10,0,experiment,NA,NA,2,0.5,0.5,5,4,117,3,NA
fcp-trial,152,844430,0.0-127.0-0.0,voc_e2,11763,"[{""event"":""fullscreenenter"",""trial"":1,""time"":4585},{""event"":""blur"",""trial"":120,""time"":673416},{""event"":""focus"",""trial"":120,""time"":676470},{""event"":""blur"",""trial"":139,""time"":778292},{""event"":""focus"",""trial"":139,""time"":787074},{""event"":""blur"",""trial"":139,""time"":789444},{""event"":""focus"",""trial"":139,""time"":792880}]",NA,NA,NA,NA,NA,1,#741CD8,#D8271C,10,0,1,38,1,1031.5,37,1,892.8000000007451,10,1,experiment,NA,NA,1,0.7,0.3,2,3,118,3,NA
fcp-trial,153,847821,0.0-128.0-0.0,voc_e2,11763,"[{""event"":""fullscreenenter"",""trial"":1,""time"":4585},{""event"":""blur"",""trial"":120,""time"":673416},{""event"":""focus"",""trial"":120,""time"":676470},{""event"":""blur"",""trial"":139,""time"":778292},{""event"":""focus"",""trial"":139,""time"":787074},{""event"":""blur"",""trial"":139,""time"":789444},{""event"":""focus"",""trial"":139,""time"":792880}]",NA,NA,NA,NA,NA,2,#D8271C,#741CD8,0,10,0,38,1,900.2999999970198,37,1,980.5999999977648,0,0,experiment,NA,NA,1,0.3,0.7,3,2,119,3,NA
fcp-trial,154,851709,0.0-129.0-0.0,voc_e2,11763,"[{""event"":""fullscreenenter"",""trial"":1,""time"":4585},{""event"":""blur"",""trial"":120,""time"":673416},{""event"":""focus"",""trial"":120,""time"":676470},{""event"":""blur"",""trial"":139,""time"":778292},{""event"":""focus"",""trial"":139,""time"":787074},{""event"":""blur"",""trial"":139,""time"":789444},{""event"":""focus"",""trial"":139,""time"":792880}]",NA,NA,NA,NA,NA,6,#3386FF,#D89F1C,10,0,1,40,0,1521.5,37,1,855.7999999970198,10,1,experiment,NA,NA,0,0.9,0.1,0,1,120,3,NA
fcp-trial,155,854927,0.0-130.0-0.0,voc_e2,11763,"[{""event"":""fullscreenenter"",""trial"":1,""time"":4585},{""event"":""blur"",""trial"":120,""time"":673416},{""event"":""focus"",""trial"":120,""time"":676470},{""event"":""blur"",""trial"":139,""time"":778292},{""event"":""focus"",""trial"":139,""time"":787074},{""event"":""blur"",""trial"":139,""time"":789444},{""event"":""focus"",""trial"":139,""time"":792880}]",NA,NA,NA,NA,NA,2,#3386FF,#D89F1C,0,0,1,38,1,1196.2000000029802,37,1,513.3000000007451,0,1,experiment,NA,NA,0,0.9,0.1,0,1,121,3,NA
fcp-trial,156,858431,0.0-131.0-0.0,voc_e2,11763,"[{""event"":""fullscreenenter"",""trial"":1,""time"":4585},{""event"":""blur"",""trial"":120,""time"":673416},{""event"":""focus"",""trial"":120,""time"":676470},{""event"":""blur"",""trial"":139,""time"":778292},{""event"":""focus"",""trial"":139,""time"":787074},{""event"":""blur"",""trial"":139,""time"":789444},{""event"":""focus"",""trial"":139,""time"":792880}]",NA,NA,NA,NA,NA,3,#1CD855,#FA92F8,10,10,0,40,0,1307.5,39,0,685.2000000029802,10,1,experiment,NA,NA,2,0.5,0.5,5,4,122,3,NA
fcp-trial,157,861798,0.0-132.0-0.0,voc_e2,11763,"[{""event"":""fullscreenenter"",""trial"":1,""time"":4585},{""event"":""blur"",""trial"":120,""time"":673416},{""event"":""focus"",""trial"":120,""time"":676470},{""event"":""blur"",""trial"":139,""time"":778292},{""event"":""focus"",""trial"":139,""time"":787074},{""event"":""blur"",""trial"":139,""time"":789444},{""event"":""focus"",""trial"":139,""time"":792880}]",NA,NA,NA,NA,NA,4,#1CD855,#FA92F8,10,0,0,40,0,1183.8999999985099,39,0,670.5,0,1,experiment,NA,NA,2,0.5,0.5,5,4,123,3,NA
fcp-trial,158,865249,0.0-133.0-0.0,voc_e2,11763,"[{""event"":""fullscreenenter"",""trial"":1,""time"":4585},{""event"":""blur"",""trial"":120,""time"":673416},{""event"":""focus"",""trial"":120,""time"":676470},{""event"":""blur"",""trial"":139,""time"":778292},{""event"":""focus"",""trial"":139,""time"":787074},{""event"":""blur"",""trial"":139,""time"":789444},{""event"":""focus"",""trial"":139,""time"":792880}]",NA,NA,NA,NA,NA,4,#741CD8,#D8271C,10,0,1,40,0,1264.7000000029802,39,0,673.8000000007451,0,0,experiment,NA,NA,1,0.7,0.3,2,3,124,3,NA
fcp-trial,159,868541,0.0-134.0-0.0,voc_e2,11763,"[{""event"":""fullscreenenter"",""trial"":1,""time"":4585},{""event"":""blur"",""trial"":120,""time"":673416},{""event"":""focus"",""trial"":120,""time"":676470},{""event"":""blur"",""trial"":139,""time"":778292},{""event"":""focus"",""trial"":139,""time"":787074},{""event"":""blur"",""trial"":139,""time"":789444},{""event"":""focus"",""trial"":139,""time"":792880}]",NA,NA,NA,NA,NA,5,#3386FF,#D89F1C,10,0,1,40,0,1102.5,39,0,678.0999999977648,0,0,experiment,NA,NA,0,0.9,0.1,0,1,125,3,NA
fcp-trial,160,872176,0.0-135.0-0.0,voc_e2,11763,"[{""event"":""fullscreenenter"",""trial"":1,""time"":4585},{""event"":""blur"",""trial"":120,""time"":673416},{""event"":""focus"",""trial"":120,""time"":676470},{""event"":""blur"",""trial"":139,""time"":778292},{""event"":""focus"",""trial"":139,""time"":787074},{""event"":""blur"",""trial"":139,""time"":789444},{""event"":""focus"",""trial"":139,""time"":792880}]",NA,NA,NA,NA,NA,3,#D89F1C,#3386FF,0,10,0,38,1,1534.300000000745,39,0,591.8000000007451,10,1,experiment,NA,NA,0,0.1,0.9,1,0,126,3,NA
fcp-trial,161,876574,0.0-136.0-0.0,voc_e2,11763,"[{""event"":""fullscreenenter"",""trial"":1,""time"":4585},{""event"":""blur"",""trial"":120,""time"":673416},{""event"":""focus"",""trial"":120,""time"":676470},{""event"":""blur"",""trial"":139,""time"":778292},{""event"":""focus"",""trial"":139,""time"":787074},{""event"":""blur"",""trial"":139,""time"":789444},{""event"":""focus"",""trial"":139,""time"":792880}]",NA,NA,NA,NA,NA,2,#FA92F8,#1CD855,0,10,1,38,1,2055.300000000745,39,0,829.6999999992549,10,0,experiment,NA,NA,2,0.5,0.5,4,5,127,3,NA
fcp-trial,162,879917,0.0-137.0-0.0,voc_e2,11763,"[{""event"":""fullscreenenter"",""trial"":1,""time"":4585},{""event"":""blur"",""trial"":120,""time"":673416},{""event"":""focus"",""trial"":120,""time"":676470},{""event"":""blur"",""trial"":139,""time"":778292},{""event"":""focus"",""trial"":139,""time"":787074},{""event"":""blur"",""trial"":139,""time"":789444},{""event"":""focus"",""trial"":139,""time"":792880}]",NA,NA,NA,NA,NA,2,#D89F1C,#3386FF,0,10,0,38,1,1123.5,39,0,711,10,1,experiment,NA,NA,0,0.1,0.9,1,0,128,3,NA
fcp-trial,163,884583,0.0-138.0-0.0,voc_e2,11763,"[{""event"":""fullscreenenter"",""trial"":1,""time"":4585},{""event"":""blur"",""trial"":120,""time"":673416},{""event"":""focus"",""trial"":120,""time"":676470},{""event"":""blur"",""trial"":139,""time"":778292},{""event"":""focus"",""trial"":139,""time"":787074},{""event"":""blur"",""trial"":139,""time"":789444},{""event"":""focus"",""trial"":139,""time"":792880}]",NA,NA,NA,NA,NA,1,#3386FF,#D89F1C,10,0,1,38,1,2398.89999999851,37,1,757.8999999985099,10,1,experiment,NA,NA,0,0.9,0.1,0,1,129,3,NA
fcp-trial,164,888805,0.0-139.0-0.0,voc_e2,11763,"[{""event"":""fullscreenenter"",""trial"":1,""time"":4585},{""event"":""blur"",""trial"":120,""time"":673416},{""event"":""focus"",""trial"":120,""time"":676470},{""event"":""blur"",""trial"":139,""time"":778292},{""event"":""focus"",""trial"":139,""time"":787074},{""event"":""blur"",""trial"":139,""time"":789444},{""event"":""focus"",""trial"":139,""time"":792880}]",NA,NA,NA,NA,NA,1,#741CD8,#D8271C,10,0,1,38,1,1189,37,1,1524.3999999985099,10,1,experiment,NA,NA,1,0.7,0.3,2,3,130,3,NA
fcp-trial,165,892598,0.0-140.0-0.0,voc_e2,11763,"[{""event"":""fullscreenenter"",""trial"":1,""time"":4585},{""event"":""blur"",""trial"":120,""time"":673416},{""event"":""focus"",""trial"":120,""time"":676470},{""event"":""blur"",""trial"":139,""time"":778292},{""event"":""focus"",""trial"":139,""time"":787074},{""event"":""blur"",""trial"":139,""time"":789444},{""event"":""focus"",""trial"":139,""time"":792880}]",NA,NA,NA,NA,NA,3,#FA92F8,#1CD855,10,10,1,38,1,1439.6000000014901,39,0,845.6000000014901,10,0,experiment,NA,NA,2,0.5,0.5,4,5,131,3,NA
fcp-trial,166,896218,0.0-141.0-0.0,voc_e2,11763,"[{""event"":""fullscreenenter"",""trial"":1,""time"":4585},{""event"":""blur"",""trial"":120,""time"":673416},{""event"":""focus"",""trial"":120,""time"":676470},{""event"":""blur"",""trial"":139,""time"":778292},{""event"":""focus"",""trial"":139,""time"":787074},{""event"":""blur"",""trial"":139,""time"":789444},{""event"":""focus"",""trial"":139,""time"":792880}]",NA,NA,NA,NA,NA,2,#D8271C,#741CD8,0,10,0,38,1,1024.3999999985099,39,0,1085.1000000014901,10,1,experiment,NA,NA,1,0.3,0.7,3,2,132,3,NA
fcp-trial,167,899608,0.0-142.0-0.0,voc_e2,11763,"[{""event"":""fullscreenenter"",""trial"":1,""time"":4585},{""event"":""blur"",""trial"":120,""time"":673416},{""event"":""focus"",""trial"":120,""time"":676470},{""event"":""blur"",""trial"":139,""time"":778292},{""event"":""focus"",""trial"":139,""time"":787074},{""event"":""blur"",""trial"":139,""time"":789444},{""event"":""focus"",""trial"":139,""time"":792880}]",NA,NA,NA,NA,NA,5,#D89F1C,#3386FF,0,10,0,40,0,1348.199999999255,39,0,533.5999999977648,10,1,experiment,NA,NA,0,0.1,0.9,1,0,133,3,NA
fcp-trial,168,902761,0.0-143.0-0.0,voc_e2,11763,"[{""event"":""fullscreenenter"",""trial"":1,""time"":4585},{""event"":""blur"",""trial"":120,""time"":673416},{""event"":""focus"",""trial"":120,""time"":676470},{""event"":""blur"",""trial"":139,""time"":778292},{""event"":""focus"",""trial"":139,""time"":787074},{""event"":""blur"",""trial"":139,""time"":789444},{""event"":""focus"",""trial"":139,""time"":792880}]",NA,NA,NA,NA,NA,3,#3386FF,#D89F1C,10,0,1,38,1,787.4000000022352,37,1,853.5999999977648,10,1,experiment,NA,NA,0,0.9,0.1,0,1,134,3,NA
fcp-trial,169,906123,0.0-144.0-0.0,voc_e2,11763,"[{""event"":""fullscreenenter"",""trial"":1,""time"":4585},{""event"":""blur"",""trial"":120,""time"":673416},{""event"":""focus"",""trial"":120,""time"":676470},{""event"":""blur"",""trial"":139,""time"":778292},{""event"":""focus"",""trial"":139,""time"":787074},{""event"":""blur"",""trial"":139,""time"":789444},{""event"":""focus"",""trial"":139,""time"":792880}]",NA,NA,NA,NA,NA,0,#1CD855,#FA92F8,10,10,0,38,1,1008.3999999985099,37,1,842.6000000014901,10,0,experiment,NA,NA,2,0.5,0.5,5,4,135,3,NA
fcp-trial,170,909414,0.0-145.0-0.0,voc_e2,11763,"[{""event"":""fullscreenenter"",""trial"":1,""time"":4585},{""event"":""blur"",""trial"":120,""time"":673416},{""event"":""focus"",""trial"":120,""time"":676470},{""event"":""blur"",""trial"":139,""time"":778292},{""event"":""focus"",""trial"":139,""time"":787074},{""event"":""blur"",""trial"":139,""time"":789444},{""event"":""focus"",""trial"":139,""time"":792880}]",NA,NA,NA,NA,NA,0,#D89F1C,#3386FF,0,10,0,38,1,1137.7000000029802,39,0,643.9000000022352,10,1,experiment,NA,NA,0,0.1,0.9,1,0,136,4,NA
fcp-trial,171,913114,0.0-146.0-0.0,voc_e2,11763,"[{""event"":""fullscreenenter"",""trial"":1,""time"":4585},{""event"":""blur"",""trial"":120,""time"":673416},{""event"":""focus"",""trial"":120,""time"":676470},{""event"":""blur"",""trial"":139,""time"":778292},{""event"":""focus"",""trial"":139,""time"":787074},{""event"":""blur"",""trial"":139,""time"":789444},{""event"":""focus"",""trial"":139,""time"":792880}]",NA,NA,NA,NA,NA,0,#D8271C,#741CD8,0,0,0,38,1,1080.699999999255,39,0,1109.9000000022352,0,1,experiment,NA,NA,1,0.3,0.7,3,2,137,4,NA
fcp-trial,172,916231,0.0-147.0-0.0,voc_e2,11763,"[{""event"":""fullscreenenter"",""trial"":1,""time"":4585},{""event"":""blur"",""trial"":120,""time"":673416},{""event"":""focus"",""trial"":120,""time"":676470},{""event"":""blur"",""trial"":139,""time"":778292},{""event"":""focus"",""trial"":139,""time"":787074},{""event"":""blur"",""trial"":139,""time"":789444},{""event"":""focus"",""trial"":139,""time"":792880}]",NA,NA,NA,NA,NA,1,#FA92F8,#1CD855,0,10,1,38,1,1078.699999999255,39,0,526.8000000007451,10,0,experiment,NA,NA,2,0.5,0.5,4,5,138,4,NA
fcp-trial,173,920434,0.0-148.0-0.0,voc_e2,11763,"[{""event"":""fullscreenenter"",""trial"":1,""time"":4585},{""event"":""blur"",""trial"":120,""time"":673416},{""event"":""focus"",""trial"":120,""time"":676470},{""event"":""blur"",""trial"":139,""time"":778292},{""event"":""focus"",""trial"":139,""time"":787074},{""event"":""blur"",""trial"":139,""time"":789444},{""event"":""focus"",""trial"":139,""time"":792880}]",NA,NA,NA,NA,NA,6,#741CD8,#D8271C,10,0,1,40,0,2081.5,37,1,615.5,10,1,experiment,NA,NA,1,0.7,0.3,2,3,139,4,NA
fcp-trial,174,923642,0.0-149.0-0.0,voc_e2,11763,"[{""event"":""fullscreenenter"",""trial"":1,""time"":4585},{""event"":""blur"",""trial"":120,""time"":673416},{""event"":""focus"",""trial"":120,""time"":676470},{""event"":""blur"",""trial"":139,""time"":778292},{""event"":""focus"",""trial"":139,""time"":787074},{""event"":""blur"",""trial"":139,""time"":789444},{""event"":""focus"",""trial"":139,""time"":792880}]",NA,NA,NA,NA,NA,6,#FA92F8,#1CD855,0,10,1,40,0,1100.800000000745,39,0,600.8000000007451,10,0,experiment,NA,NA,2,0.5,0.5,4,5,140,4,NA
fcp-trial,175,926856,0.0-150.0-0.0,voc_e2,11763,"[{""event"":""fullscreenenter"",""trial"":1,""time"":4585},{""event"":""blur"",""trial"":120,""time"":673416},{""event"":""focus"",""trial"":120,""time"":676470},{""event"":""blur"",""trial"":139,""time"":778292},{""event"":""focus"",""trial"":139,""time"":787074},{""event"":""blur"",""trial"":139,""time"":789444},{""event"":""focus"",""trial"":139,""time"":792880}]",NA,NA,NA,NA,NA,4,#D89F1C,#3386FF,0,10,0,40,0,1035,39,0,671.3000000007451,10,1,experiment,NA,NA,0,0.1,0.9,1,0,141,4,NA
fcp-trial,176,930339,0.0-151.0-0.0,voc_e2,11763,"[{""event"":""fullscreenenter"",""trial"":1,""time"":4585},{""event"":""blur"",""trial"":120,""time"":673416},{""event"":""focus"",""trial"":120,""time"":676470},{""event"":""blur"",""trial"":139,""time"":778292},{""event"":""focus"",""trial"":139,""time"":787074},{""event"":""blur"",""trial"":139,""time"":789444},{""event"":""focus"",""trial"":139,""time"":792880}]",NA,NA,NA,NA,NA,4,#1CD855,#FA92F8,0,0,0,40,0,1192.199999999255,39,0,783.0999999977648,0,1,experiment,NA,NA,2,0.5,0.5,5,4,142,4,NA
fcp-trial,177,933519,0.0-152.0-0.0,voc_e2,11763,"[{""event"":""fullscreenenter"",""trial"":1,""time"":4585},{""event"":""blur"",""trial"":120,""time"":673416},{""event"":""focus"",""trial"":120,""time"":676470},{""event"":""blur"",""trial"":139,""time"":778292},{""event"":""focus"",""trial"":139,""time"":787074},{""event"":""blur"",""trial"":139,""time"":789444},{""event"":""focus"",""trial"":139,""time"":792880}]",NA,NA,NA,NA,NA,5,#741CD8,#D8271C,0,0,1,40,0,1086.6000000014901,37,1,583.5,0,1,experiment,NA,NA,1,0.7,0.3,2,3,143,4,NA
fcp-trial,178,936972,0.0-153.0-0.0,voc_e2,11763,"[{""event"":""fullscreenenter"",""trial"":1,""time"":4585},{""event"":""blur"",""trial"":120,""time"":673416},{""event"":""focus"",""trial"":120,""time"":676470},{""event"":""blur"",""trial"":139,""time"":778292},{""event"":""focus"",""trial"":139,""time"":787074},{""event"":""blur"",""trial"":139,""time"":789444},{""event"":""focus"",""trial"":139,""time"":792880}]",NA,NA,NA,NA,NA,4,#741CD8,#D8271C,10,10,1,40,0,1296,39,0,648.6999999992549,10,0,experiment,NA,NA,1,0.7,0.3,2,3,144,4,NA
fcp-trial,179,940243,0.0-154.0-0.0,voc_e2,11763,"[{""event"":""fullscreenenter"",""trial"":1,""time"":4585},{""event"":""blur"",""trial"":120,""time"":673416},{""event"":""focus"",""trial"":120,""time"":676470},{""event"":""blur"",""trial"":139,""time"":778292},{""event"":""focus"",""trial"":139,""time"":787074},{""event"":""blur"",""trial"":139,""time"":789444},{""event"":""focus"",""trial"":139,""time"":792880}]",NA,NA,NA,NA,NA,6,#3386FF,#D89F1C,10,0,1,40,0,1199.5,37,1,559.6999999992549,10,1,experiment,NA,NA,0,0.9,0.1,0,1,145,4,NA
fcp-trial,180,943455,0.0-155.0-0.0,voc_e2,11763,"[{""event"":""fullscreenenter"",""trial"":1,""time"":4585},{""event"":""blur"",""trial"":120,""time"":673416},{""event"":""focus"",""trial"":120,""time"":676470},{""event"":""blur"",""trial"":139,""time"":778292},{""event"":""focus"",""trial"":139,""time"":787074},{""event"":""blur"",""trial"":139,""time"":789444},{""event"":""focus"",""trial"":139,""time"":792880}]",NA,NA,NA,NA,NA,5,#1CD855,#FA92F8,10,10,0,40,0,1023.6000000014901,39,0,676.7999999970198,10,1,experiment,NA,NA,2,0.5,0.5,5,4,146,4,NA
fcp-trial,181,947295,0.0-156.0-0.0,voc_e2,11763,"[{""event"":""fullscreenenter"",""trial"":1,""time"":4585},{""event"":""blur"",""trial"":120,""time"":673416},{""event"":""focus"",""trial"":120,""time"":676470},{""event"":""blur"",""trial"":139,""time"":778292},{""event"":""focus"",""trial"":139,""time"":787074},{""event"":""blur"",""trial"":139,""time"":789444},{""event"":""focus"",""trial"":139,""time"":792880}]",NA,NA,NA,NA,NA,3,#D8271C,#741CD8,10,10,0,38,1,1638.800000000745,39,0,691.8999999985099,10,1,experiment,NA,NA,1,0.3,0.7,3,2,147,4,NA
fcp-trial,182,951023,0.0-157.0-0.0,voc_e2,11763,"[{""event"":""fullscreenenter"",""trial"":1,""time"":4585},{""event"":""blur"",""trial"":120,""time"":673416},{""event"":""focus"",""trial"":120,""time"":676470},{""event"":""blur"",""trial"":139,""time"":778292},{""event"":""focus"",""trial"":139,""time"":787074},{""event"":""blur"",""trial"":139,""time"":789444},{""event"":""focus"",""trial"":139,""time"":792880}]",NA,NA,NA,NA,NA,1,#FA92F8,#1CD855,10,0,1,38,1,1301.4000000022352,39,0,918.6999999992549,0,0,experiment,NA,NA,2,0.5,0.5,4,5,148,4,NA
fcp-trial,183,954194,0.0-158.0-0.0,voc_e2,11763,"[{""event"":""fullscreenenter"",""trial"":1,""time"":4585},{""event"":""blur"",""trial"":120,""time"":673416},{""event"":""focus"",""trial"":120,""time"":676470},{""event"":""blur"",""trial"":139,""time"":778292},{""event"":""focus"",""trial"":139,""time"":787074},{""event"":""blur"",""trial"":139,""time"":789444},{""event"":""focus"",""trial"":139,""time"":792880}]",NA,NA,NA,NA,NA,5,#D89F1C,#3386FF,0,10,0,40,0,945.1999999992549,37,1,717.6000000014901,0,0,experiment,NA,NA,0,0.1,0.9,1,0,149,4,NA
fcp-trial,184,957417,0.0-159.0-0.0,voc_e2,11763,"[{""event"":""fullscreenenter"",""trial"":1,""time"":4585},{""event"":""blur"",""trial"":120,""time"":673416},{""event"":""focus"",""trial"":120,""time"":676470},{""event"":""blur"",""trial"":139,""time"":778292},{""event"":""focus"",""trial"":139,""time"":787074},{""event"":""blur"",""trial"":139,""time"":789444},{""event"":""focus"",""trial"":139,""time"":792880}]",NA,NA,NA,NA,NA,3,#D89F1C,#3386FF,0,10,0,40,0,1030.300000000745,37,1,684.8999999985099,0,0,experiment,NA,NA,0,0.1,0.9,1,0,150,4,NA
fcp-trial,185,961449,0.0-160.0-0.0,voc_e2,11763,"[{""event"":""fullscreenenter"",""trial"":1,""time"":4585},{""event"":""blur"",""trial"":120,""time"":673416},{""event"":""focus"",""trial"":120,""time"":676470},{""event"":""blur"",""trial"":139,""time"":778292},{""event"":""focus"",""trial"":139,""time"":787074},{""event"":""blur"",""trial"":139,""time"":789444},{""event"":""focus"",""trial"":139,""time"":792880}]",NA,NA,NA,NA,NA,2,#741CD8,#D8271C,10,10,1,38,1,1492.5,37,1,1029.7000000029802,10,1,experiment,NA,NA,1,0.7,0.3,2,3,151,4,NA
fcp-trial,186,964749,0.0-161.0-0.0,voc_e2,11763,"[{""event"":""fullscreenenter"",""trial"":1,""time"":4585},{""event"":""blur"",""trial"":120,""time"":673416},{""event"":""focus"",""trial"":120,""time"":676470},{""event"":""blur"",""trial"":139,""time"":778292},{""event"":""focus"",""trial"":139,""time"":787074},{""event"":""blur"",""trial"":139,""time"":789444},{""event"":""focus"",""trial"":139,""time"":792880}]",NA,NA,NA,NA,NA,0,#D89F1C,#3386FF,0,10,0,38,1,1359.699999999255,39,0,430.69999999925494,10,1,experiment,NA,NA,0,0.1,0.9,1,0,152,4,NA
fcp-trial,187,967834,0.0-162.0-0.0,voc_e2,11763,"[{""event"":""fullscreenenter"",""trial"":1,""time"":4585},{""event"":""blur"",""trial"":120,""time"":673416},{""event"":""focus"",""trial"":120,""time"":676470},{""event"":""blur"",""trial"":139,""time"":778292},{""event"":""focus"",""trial"":139,""time"":787074},{""event"":""blur"",""trial"":139,""time"":789444},{""event"":""focus"",""trial"":139,""time"":792880}]",NA,NA,NA,NA,NA,2,#FA92F8,#1CD855,10,0,1,38,1,1064.5,39,0,510.6000000014901,0,0,experiment,NA,NA,2,0.5,0.5,4,5,153,4,NA
fcp-trial,188,971521,0.0-163.0-0.0,voc_e2,11763,"[{""event"":""fullscreenenter"",""trial"":1,""time"":4585},{""event"":""blur"",""trial"":120,""time"":673416},{""event"":""focus"",""trial"":120,""time"":676470},{""event"":""blur"",""trial"":139,""time"":778292},{""event"":""focus"",""trial"":139,""time"":787074},{""event"":""blur"",""trial"":139,""time"":789444},{""event"":""focus"",""trial"":139,""time"":792880}]",NA,NA,NA,NA,NA,0,#D8271C,#741CD8,0,10,0,38,1,1178.199999999255,39,0,998.0999999977648,10,1,experiment,NA,NA,1,0.3,0.7,3,2,154,4,NA
fcp-trial,189,974788,0.0-164.0-0.0,voc_e2,11763,"[{""event"":""fullscreenenter"",""trial"":1,""time"":4585},{""event"":""blur"",""trial"":120,""time"":673416},{""event"":""focus"",""trial"":120,""time"":676470},{""event"":""blur"",""trial"":139,""time"":778292},{""event"":""focus"",""trial"":139,""time"":787074},{""event"":""blur"",""trial"":139,""time"":789444},{""event"":""focus"",""trial"":139,""time"":792880}]",NA,NA,NA,NA,NA,2,#D89F1C,#3386FF,0,10,0,38,1,1101.6000000014901,39,0,656.7000000029802,10,1,experiment,NA,NA,0,0.1,0.9,1,0,155,4,NA
fcp-trial,190,978195,0.0-165.0-0.0,voc_e2,11763,"[{""event"":""fullscreenenter"",""trial"":1,""time"":4585},{""event"":""blur"",""trial"":120,""time"":673416},{""event"":""focus"",""trial"":120,""time"":676470},{""event"":""blur"",""trial"":139,""time"":778292},{""event"":""focus"",""trial"":139,""time"":787074},{""event"":""blur"",""trial"":139,""time"":789444},{""event"":""focus"",""trial"":139,""time"":792880}]",NA,NA,NA,NA,NA,6,#1CD855,#FA92F8,0,10,0,40,0,1282.699999999255,39,0,617.6999999992549,10,1,experiment,NA,NA,2,0.5,0.5,5,4,156,4,NA
fcp-trial,191,982257,0.0-166.0-0.0,voc_e2,11763,"[{""event"":""fullscreenenter"",""trial"":1,""time"":4585},{""event"":""blur"",""trial"":120,""time"":673416},{""event"":""focus"",""trial"":120,""time"":676470},{""event"":""blur"",""trial"":139,""time"":778292},{""event"":""focus"",""trial"":139,""time"":787074},{""event"":""blur"",""trial"":139,""time"":789444},{""event"":""focus"",""trial"":139,""time"":792880}]",NA,NA,NA,NA,NA,1,#741CD8,#D8271C,10,0,1,38,1,1781.8999999985099,37,1,771.3000000007451,10,1,experiment,NA,NA,1,0.7,0.3,2,3,157,4,NA
fcp-trial,192,985628,0.0-167.0-0.0,voc_e2,11763,"[{""event"":""fullscreenenter"",""trial"":1,""time"":4585},{""event"":""blur"",""trial"":120,""time"":673416},{""event"":""focus"",""trial"":120,""time"":676470},{""event"":""blur"",""trial"":139,""time"":778292},{""event"":""focus"",""trial"":139,""time"":787074},{""event"":""blur"",""trial"":139,""time"":789444},{""event"":""focus"",""trial"":139,""time"":792880}]",NA,NA,NA,NA,NA,6,#3386FF,#D89F1C,10,0,1,40,0,1329.199999999255,37,1,535.3999999985099,10,1,experiment,NA,NA,0,0.9,0.1,0,1,158,4,NA
fcp-trial,193,989185,0.0-168.0-0.0,voc_e2,11763,"[{""event"":""fullscreenenter"",""trial"":1,""time"":4585},{""event"":""blur"",""trial"":120,""time"":673416},{""event"":""focus"",""trial"":120,""time"":676470},{""event"":""blur"",""trial"":139,""time"":778292},{""event"":""focus"",""trial"":139,""time"":787074},{""event"":""blur"",""trial"":139,""time"":789444},{""event"":""focus"",""trial"":139,""time"":792880}]",NA,NA,NA,NA,NA,3,#741CD8,#D8271C,0,0,1,38,1,1216,37,1,830.6999999992549,0,1,experiment,NA,NA,1,0.7,0.3,2,3,159,4,NA
fcp-trial,194,992586,0.0-169.0-0.0,voc_e2,11763,"[{""event"":""fullscreenenter"",""trial"":1,""time"":4585},{""event"":""blur"",""trial"":120,""time"":673416},{""event"":""focus"",""trial"":120,""time"":676470},{""event"":""blur"",""trial"":139,""time"":778292},{""event"":""focus"",""trial"":139,""time"":787074},{""event"":""blur"",""trial"":139,""time"":789444},{""event"":""focus"",""trial"":139,""time"":792880}]",NA,NA,NA,NA,NA,0,#1CD855,#FA92F8,10,0,0,38,1,1366.699999999255,37,1,525,10,0,experiment,NA,NA,2,0.5,0.5,5,4,160,4,NA
fcp-trial,195,995667,0.0-170.0-0.0,voc_e2,11763,"[{""event"":""fullscreenenter"",""trial"":1,""time"":4585},{""event"":""blur"",""trial"":120,""time"":673416},{""event"":""focus"",""trial"":120,""time"":676470},{""event"":""blur"",""trial"":139,""time"":778292},{""event"":""focus"",""trial"":139,""time"":787074},{""event"":""blur"",""trial"":139,""time"":789444},{""event"":""focus"",""trial"":139,""time"":792880}]",NA,NA,NA,NA,NA,1,#D89F1C,#3386FF,0,10,0,38,1,1056.6000000014901,39,0,510.6000000014901,10,1,experiment,NA,NA,0,0.1,0.9,1,0,161,4,NA
fcp-trial,196,999020,0.0-171.0-0.0,voc_e2,11763,"[{""event"":""fullscreenenter"",""trial"":1,""time"":4585},{""event"":""blur"",""trial"":120,""time"":673416},{""event"":""focus"",""trial"":120,""time"":676470},{""event"":""blur"",""trial"":139,""time"":778292},{""event"":""focus"",""trial"":139,""time"":787074},{""event"":""blur"",""trial"":139,""time"":789444},{""event"":""focus"",""trial"":139,""time"":792880}]",NA,NA,NA,NA,NA,5,#FA92F8,#1CD855,0,10,1,40,0,1186.1000000014901,37,1,655.1000000014901,0,1,experiment,NA,NA,2,0.5,0.5,4,5,162,4,NA
fcp-trial,197,1002365,0.0-172.0-0.0,voc_e2,11763,"[{""event"":""fullscreenenter"",""trial"":1,""time"":4585},{""event"":""blur"",""trial"":120,""time"":673416},{""event"":""focus"",""trial"":120,""time"":676470},{""event"":""blur"",""trial"":139,""time"":778292},{""event"":""focus"",""trial"":139,""time"":787074},{""event"":""blur"",""trial"":139,""time"":789444},{""event"":""focus"",""trial"":139,""time"":792880}]",NA,NA,NA,NA,NA,4,#D8271C,#741CD8,0,10,0,40,0,1299.5,39,0,530.7000000029802,10,1,experiment,NA,NA,1,0.3,0.7,3,2,163,4,NA
fcp-trial,198,1006020,0.0-173.0-0.0,voc_e2,11763,"[{""event"":""fullscreenenter"",""trial"":1,""time"":4585},{""event"":""blur"",""trial"":120,""time"":673416},{""event"":""focus"",""trial"":120,""time"":676470},{""event"":""blur"",""trial"":139,""time"":778292},{""event"":""focus"",""trial"":139,""time"":787074},{""event"":""blur"",""trial"":139,""time"":789444},{""event"":""focus"",""trial"":139,""time"":792880}]",NA,NA,NA,NA,NA,5,#741CD8,#D8271C,10,0,1,40,0,1394.5,37,1,748.5,10,1,experiment,NA,NA,1,0.7,0.3,2,3,164,4,NA
fcp-trial,199,1009665,0.0-174.0-0.0,voc_e2,11763,"[{""event"":""fullscreenenter"",""trial"":1,""time"":4585},{""event"":""blur"",""trial"":120,""time"":673416},{""event"":""focus"",""trial"":120,""time"":676470},{""event"":""blur"",""trial"":139,""time"":778292},{""event"":""focus"",""trial"":139,""time"":787074},{""event"":""blur"",""trial"":139,""time"":789444},{""event"":""focus"",""trial"":139,""time"":792880}]",NA,NA,NA,NA,NA,3,#1CD855,#FA92F8,10,0,0,38,1,1346.1000000014901,37,1,788.3000000007451,10,0,experiment,NA,NA,2,0.5,0.5,5,4,165,4,NA
fcp-trial,200,1013252,0.0-175.0-0.0,voc_e2,11763,"[{""event"":""fullscreenenter"",""trial"":1,""time"":4585},{""event"":""blur"",""trial"":120,""time"":673416},{""event"":""focus"",""trial"":120,""time"":676470},{""event"":""blur"",""trial"":139,""time"":778292},{""event"":""focus"",""trial"":139,""time"":787074},{""event"":""blur"",""trial"":139,""time"":789444},{""event"":""focus"",""trial"":139,""time"":792880}]",NA,NA,NA,NA,NA,4,#3386FF,#D89F1C,10,0,1,40,0,1494.300000000745,39,0,581.5,0,0,experiment,NA,NA,0,0.9,0.1,0,1,166,4,NA
fcp-trial,201,1016412,0.0-176.0-0.0,voc_e2,11763,"[{""event"":""fullscreenenter"",""trial"":1,""time"":4585},{""event"":""blur"",""trial"":120,""time"":673416},{""event"":""focus"",""trial"":120,""time"":676470},{""event"":""blur"",""trial"":139,""time"":778292},{""event"":""focus"",""trial"":139,""time"":787074},{""event"":""blur"",""trial"":139,""time"":789444},{""event"":""focus"",""trial"":139,""time"":792880}]",NA,NA,NA,NA,NA,6,#D8271C,#741CD8,0,0,0,40,0,1016.8000000007451,39,0,633.8000000007451,0,1,experiment,NA,NA,1,0.3,0.7,3,2,167,4,NA
fcp-trial,202,1019764,0.0-177.0-0.0,voc_e2,11763,"[{""event"":""fullscreenenter"",""trial"":1,""time"":4585},{""event"":""blur"",""trial"":120,""time"":673416},{""event"":""focus"",""trial"":120,""time"":676470},{""event"":""blur"",""trial"":139,""time"":778292},{""event"":""focus"",""trial"":139,""time"":787074},{""event"":""blur"",""trial"":139,""time"":789444},{""event"":""focus"",""trial"":139,""time"":792880}]",NA,NA,NA,NA,NA,4,#FA92F8,#1CD855,0,10,1,40,0,1082.6000000014901,37,1,760.1000000014901,0,1,experiment,NA,NA,2,0.5,0.5,4,5,168,4,NA
fcp-trial,203,1022778,0.0-178.0-0.0,voc_e2,11763,"[{""event"":""fullscreenenter"",""trial"":1,""time"":4585},{""event"":""blur"",""trial"":120,""time"":673416},{""event"":""focus"",""trial"":120,""time"":676470},{""event"":""blur"",""trial"":139,""time"":778292},{""event"":""focus"",""trial"":139,""time"":787074},{""event"":""blur"",""trial"":139,""time"":789444},{""event"":""focus"",""trial"":139,""time"":792880}]",NA,NA,NA,NA,NA,1,#D89F1C,#3386FF,0,10,0,38,1,1010.1999999992549,39,0,491,10,1,experiment,NA,NA,0,0.1,0.9,1,0,169,4,NA
fcp-trial,204,1026890,0.0-179.0-0.0,voc_e2,11763,"[{""event"":""fullscreenenter"",""trial"":1,""time"":4585},{""event"":""blur"",""trial"":120,""time"":673416},{""event"":""focus"",""trial"":120,""time"":676470},{""event"":""blur"",""trial"":139,""time"":778292},{""event"":""focus"",""trial"":139,""time"":787074},{""event"":""blur"",""trial"":139,""time"":789444},{""event"":""focus"",""trial"":139,""time"":792880}]",NA,NA,NA,NA,NA,3,#741CD8,#D8271C,0,0,1,38,1,1669.6000000014901,37,1,933.9000000022352,0,1,experiment,NA,NA,1,0.7,0.3,2,3,170,4,NA
fcp-trial,205,1030157,0.0-180.0-0.0,voc_e2,11763,"[{""event"":""fullscreenenter"",""trial"":1,""time"":4585},{""event"":""blur"",""trial"":120,""time"":673416},{""event"":""focus"",""trial"":120,""time"":676470},{""event"":""blur"",""trial"":139,""time"":778292},{""event"":""focus"",""trial"":139,""time"":787074},{""event"":""blur"",""trial"":139,""time"":789444},{""event"":""focus"",""trial"":139,""time"":792880}]",NA,NA,NA,NA,NA,6,#1CD855,#FA92F8,0,10,0,40,0,1176.1000000014901,37,1,583.2000000029802,0,0,experiment,NA,NA,2,0.5,0.5,5,4,171,4,NA
fcp-trial,206,1033618,0.0-181.0-0.0,voc_e2,11763,"[{""event"":""fullscreenenter"",""trial"":1,""time"":4585},{""event"":""blur"",""trial"":120,""time"":673416},{""event"":""focus"",""trial"":120,""time"":676470},{""event"":""blur"",""trial"":139,""time"":778292},{""event"":""focus"",""trial"":139,""time"":787074},{""event"":""blur"",""trial"":139,""time"":789444},{""event"":""focus"",""trial"":139,""time"":792880}]",NA,NA,NA,NA,NA,1,#1CD855,#FA92F8,10,10,0,38,1,1177.199999999255,37,1,772.2000000029802,10,0,experiment,NA,NA,2,0.5,0.5,5,4,172,4,NA
fcp-trial,207,1037091,0.0-182.0-0.0,voc_e2,11763,"[{""event"":""fullscreenenter"",""trial"":1,""time"":4585},{""event"":""blur"",""trial"":120,""time"":673416},{""event"":""focus"",""trial"":120,""time"":676470},{""event"":""blur"",""trial"":139,""time"":778292},{""event"":""focus"",""trial"":139,""time"":787074},{""event"":""blur"",""trial"":139,""time"":789444},{""event"":""focus"",""trial"":139,""time"":792880}]",NA,NA,NA,NA,NA,4,#D89F1C,#3386FF,0,10,0,40,0,1365.199999999255,37,1,599.0999999977648,0,0,experiment,NA,NA,0,0.1,0.9,1,0,173,4,NA
fcp-trial,208,1040355,0.0-183.0-0.0,voc_e2,11763,"[{""event"":""fullscreenenter"",""trial"":1,""time"":4585},{""event"":""blur"",""trial"":120,""time"":673416},{""event"":""focus"",""trial"":120,""time"":676470},{""event"":""blur"",""trial"":139,""time"":778292},{""event"":""focus"",""trial"":139,""time"":787074},{""event"":""blur"",""trial"":139,""time"":789444},{""event"":""focus"",""trial"":139,""time"":792880}]",NA,NA,NA,NA,NA,0,#1CD855,#FA92F8,0,10,0,38,1,1315.800000000745,37,1,437.3999999985099,0,0,experiment,NA,NA,2,0.5,0.5,5,4,174,4,NA
fcp-trial,209,1043780,0.0-184.0-0.0,voc_e2,11763,"[{""event"":""fullscreenenter"",""trial"":1,""time"":4585},{""event"":""blur"",""trial"":120,""time"":673416},{""event"":""focus"",""trial"":120,""time"":676470},{""event"":""blur"",""trial"":139,""time"":778292},{""event"":""focus"",""trial"":139,""time"":787074},{""event"":""blur"",""trial"":139,""time"":789444},{""event"":""focus"",""trial"":139,""time"":792880}]",NA,NA,NA,NA,NA,4,#D8271C,#741CD8,10,10,0,40,0,1375.9000000022352,37,1,540.4000000022352,10,0,experiment,NA,NA,1,0.3,0.7,3,2,175,4,NA
fcp-trial,210,1046812,0.0-185.0-0.0,voc_e2,11763,"[{""event"":""fullscreenenter"",""trial"":1,""time"":4585},{""event"":""blur"",""trial"":120,""time"":673416},{""event"":""focus"",""trial"":120,""time"":676470},{""event"":""blur"",""trial"":139,""time"":778292},{""event"":""focus"",""trial"":139,""time"":787074},{""event"":""blur"",""trial"":139,""time"":789444},{""event"":""focus"",""trial"":139,""time"":792880}]",NA,NA,NA,NA,NA,3,#3386FF,#D89F1C,0,10,1,38,1,976.8000000007451,37,1,542.6000000014901,0,1,experiment,NA,NA,0,0.9,0.1,0,1,176,4,NA
fcp-trial,211,1050003,0.0-186.0-0.0,voc_e2,11763,"[{""event"":""fullscreenenter"",""trial"":1,""time"":4585},{""event"":""blur"",""trial"":120,""time"":673416},{""event"":""focus"",""trial"":120,""time"":676470},{""event"":""blur"",""trial"":139,""time"":778292},{""event"":""focus"",""trial"":139,""time"":787074},{""event"":""blur"",""trial"":139,""time"":789444},{""event"":""focus"",""trial"":139,""time"":792880}]",NA,NA,NA,NA,NA,3,#1CD855,#FA92F8,0,10,0,38,1,1013,37,1,668.6000000014901,0,0,experiment,NA,NA,2,0.5,0.5,5,4,177,4,NA
fcp-trial,212,1053837,0.0-187.0-0.0,voc_e2,11763,"[{""event"":""fullscreenenter"",""trial"":1,""time"":4585},{""event"":""blur"",""trial"":120,""time"":673416},{""event"":""focus"",""trial"":120,""time"":676470},{""event"":""blur"",""trial"":139,""time"":778292},{""event"":""focus"",""trial"":139,""time"":787074},{""event"":""blur"",""trial"":139,""time"":789444},{""event"":""focus"",""trial"":139,""time"":792880}]",NA,NA,NA,NA,NA,1,#741CD8,#D8271C,0,0,1,38,1,1316.7000000029802,37,1,1007.3999999985099,0,1,experiment,NA,NA,1,0.7,0.3,2,3,178,4,NA
fcp-trial,213,1057123,0.0-188.0-0.0,voc_e2,11763,"[{""event"":""fullscreenenter"",""trial"":1,""time"":4585},{""event"":""blur"",""trial"":120,""time"":673416},{""event"":""focus"",""trial"":120,""time"":676470},{""event"":""blur"",""trial"":139,""time"":778292},{""event"":""focus"",""trial"":139,""time"":787074},{""event"":""blur"",""trial"":139,""time"":789444},{""event"":""focus"",""trial"":139,""time"":792880}]",NA,NA,NA,NA,NA,5,#741CD8,#D8271C,10,0,1,40,0,1203.5999999977648,39,0,572.9000000022352,0,0,experiment,NA,NA,1,0.7,0.3,2,3,179,4,NA
fcp-trial,214,1060422,0.0-189.0-0.0,voc_e2,11763,"[{""event"":""fullscreenenter"",""trial"":1,""time"":4585},{""event"":""blur"",""trial"":120,""time"":673416},{""event"":""focus"",""trial"":120,""time"":676470},{""event"":""blur"",""trial"":139,""time"":778292},{""event"":""focus"",""trial"":139,""time"":787074},{""event"":""blur"",""trial"":139,""time"":789444},{""event"":""focus"",""trial"":139,""time"":792880}]",NA,NA,NA,NA,NA,2,#3386FF,#D89F1C,10,0,1,38,1,1045.800000000745,37,1,742.5,10,1,experiment,NA,NA,0,0.9,0.1,0,1,180,4,NA
fcp-trial,215,1063755,0.0-190.0-0.0,voc_e2,11763,"[{""event"":""fullscreenenter"",""trial"":1,""time"":4585},{""event"":""blur"",""trial"":120,""time"":673416},{""event"":""focus"",""trial"":120,""time"":676470},{""event"":""blur"",""trial"":139,""time"":778292},{""event"":""focus"",""trial"":139,""time"":787074},{""event"":""blur"",""trial"":139,""time"":789444},{""event"":""focus"",""trial"":139,""time"":792880}]",NA,NA,NA,NA,NA,5,#FA92F8,#1CD855,0,10,1,40,0,1215,39,0,606.6999999992549,10,0,experiment,NA,NA,2,0.5,0.5,4,5,181,5,NA
fcp-trial,216,1067089,0.0-191.0-0.0,voc_e2,11763,"[{""event"":""fullscreenenter"",""trial"":1,""time"":4585},{""event"":""blur"",""trial"":120,""time"":673416},{""event"":""focus"",""trial"":120,""time"":676470},{""event"":""blur"",""trial"":139,""time"":778292},{""event"":""focus"",""trial"":139,""time"":787074},{""event"":""blur"",""trial"":139,""time"":789444},{""event"":""focus"",""trial"":139,""time"":792880}]",NA,NA,NA,NA,NA,6,#D8271C,#741CD8,0,0,0,40,0,1213.800000000745,39,0,609.0999999977648,0,1,experiment,NA,NA,1,0.3,0.7,3,2,182,5,NA
fcp-trial,217,1070358,0.0-192.0-0.0,voc_e2,11763,"[{""event"":""fullscreenenter"",""trial"":1,""time"":4585},{""event"":""blur"",""trial"":120,""time"":673416},{""event"":""focus"",""trial"":120,""time"":676470},{""event"":""blur"",""trial"":139,""time"":778292},{""event"":""focus"",""trial"":139,""time"":787074},{""event"":""blur"",""trial"":139,""time"":789444},{""event"":""focus"",""trial"":139,""time"":792880}]",NA,NA,NA,NA,NA,4,#1CD855,#FA92F8,0,10,0,40,0,1188.7999999970198,37,1,566.5999999977648,0,0,experiment,NA,NA,2,0.5,0.5,5,4,183,5,NA
fcp-trial,218,1073472,0.0-193.0-0.0,voc_e2,11763,"[{""event"":""fullscreenenter"",""trial"":1,""time"":4585},{""event"":""blur"",""trial"":120,""time"":673416},{""event"":""focus"",""trial"":120,""time"":676470},{""event"":""blur"",""trial"":139,""time"":778292},{""event"":""focus"",""trial"":139,""time"":787074},{""event"":""blur"",""trial"":139,""time"":789444},{""event"":""focus"",""trial"":139,""time"":792880}]",NA,NA,NA,NA,NA,0,#D89F1C,#3386FF,0,10,0,38,1,1190.300000000745,39,0,409.80000000074506,10,1,experiment,NA,NA,0,0.1,0.9,1,0,184,5,NA
fcp-trial,219,1077756,0.0-194.0-0.0,voc_e2,11763,"[{""event"":""fullscreenenter"",""trial"":1,""time"":4585},{""event"":""blur"",""trial"":120,""time"":673416},{""event"":""focus"",""trial"":120,""time"":676470},{""event"":""blur"",""trial"":139,""time"":778292},{""event"":""focus"",""trial"":139,""time"":787074},{""event"":""blur"",""trial"":139,""time"":789444},{""event"":""focus"",""trial"":139,""time"":792880}]",NA,NA,NA,NA,NA,0,#D8271C,#741CD8,0,0,0,38,1,2265.10000000149,39,0,510.1000000014901,0,1,experiment,NA,NA,1,0.3,0.7,3,2,185,5,NA
fcp-trial,220,1080936,0.0-195.0-0.0,voc_e2,11763,"[{""event"":""fullscreenenter"",""trial"":1,""time"":4585},{""event"":""blur"",""trial"":120,""time"":673416},{""event"":""focus"",""trial"":120,""time"":676470},{""event"":""blur"",""trial"":139,""time"":778292},{""event"":""focus"",""trial"":139,""time"":787074},{""event"":""blur"",""trial"":139,""time"":789444},{""event"":""focus"",""trial"":139,""time"":792880}]",NA,NA,NA,NA,NA,2,#1CD855,#FA92F8,10,0,0,38,1,1131.199999999255,37,1,536.3000000007451,10,0,experiment,NA,NA,2,0.5,0.5,5,4,186,5,NA
fcp-trial,221,1085429,0.0-196.0-0.0,voc_e2,11763,"[{""event"":""fullscreenenter"",""trial"":1,""time"":4585},{""event"":""blur"",""trial"":120,""time"":673416},{""event"":""focus"",""trial"":120,""time"":676470},{""event"":""blur"",""trial"":139,""time"":778292},{""event"":""focus"",""trial"":139,""time"":787074},{""event"":""blur"",""trial"":139,""time"":789444},{""event"":""focus"",""trial"":139,""time"":792880}]",NA,NA,NA,NA,NA,2,#D8271C,#741CD8,0,10,0,38,1,1168.3999999985099,39,0,1816,10,1,experiment,NA,NA,1,0.3,0.7,3,2,187,5,NA
fcp-trial,222,1088996,0.0-197.0-0.0,voc_e2,11763,"[{""event"":""fullscreenenter"",""trial"":1,""time"":4585},{""event"":""blur"",""trial"":120,""time"":673416},{""event"":""focus"",""trial"":120,""time"":676470},{""event"":""blur"",""trial"":139,""time"":778292},{""event"":""focus"",""trial"":139,""time"":787074},{""event"":""blur"",""trial"":139,""time"":789444},{""event"":""focus"",""trial"":139,""time"":792880}]",NA,NA,NA,NA,NA,6,#3386FF,#D89F1C,10,0,1,40,0,1402.8999999985099,39,0,653.9000000022352,0,0,experiment,NA,NA,0,0.9,0.1,0,1,188,5,NA
fcp-trial,223,1091972,0.0-198.0-0.0,voc_e2,11763,"[{""event"":""fullscreenenter"",""trial"":1,""time"":4585},{""event"":""blur"",""trial"":120,""time"":673416},{""event"":""focus"",""trial"":120,""time"":676470},{""event"":""blur"",""trial"":139,""time"":778292},{""event"":""focus"",""trial"":139,""time"":787074},{""event"":""blur"",""trial"":139,""time"":789444},{""event"":""focus"",""trial"":139,""time"":792880}]",NA,NA,NA,NA,NA,5,#3386FF,#D89F1C,10,0,1,40,0,930,37,1,533.1999999992549,10,1,experiment,NA,NA,0,0.9,0.1,0,1,189,5,NA
fcp-trial,224,1095062,0.0-199.0-0.0,voc_e2,11763,"[{""event"":""fullscreenenter"",""trial"":1,""time"":4585},{""event"":""blur"",""trial"":120,""time"":673416},{""event"":""focus"",""trial"":120,""time"":676470},{""event"":""blur"",""trial"":139,""time"":778292},{""event"":""focus"",""trial"":139,""time"":787074},{""event"":""blur"",""trial"":139,""time"":789444},{""event"":""focus"",""trial"":139,""time"":792880}]",NA,NA,NA,NA,NA,4,#1CD855,#FA92F8,0,0,0,40,0,1091.3999999985099,37,1,485.3999999985099,0,0,experiment,NA,NA,2,0.5,0.5,5,4,190,5,NA
fcp-trial,225,1098208,0.0-200.0-0.0,voc_e2,11763,"[{""event"":""fullscreenenter"",""trial"":1,""time"":4585},{""event"":""blur"",""trial"":120,""time"":673416},{""event"":""focus"",""trial"":120,""time"":676470},{""event"":""blur"",""trial"":139,""time"":778292},{""event"":""focus"",""trial"":139,""time"":787074},{""event"":""blur"",""trial"":139,""time"":789444},{""event"":""focus"",""trial"":139,""time"":792880}]",NA,NA,NA,NA,NA,3,#D8271C,#741CD8,10,10,0,38,1,1087.300000000745,39,0,547.3999999985099,10,1,experiment,NA,NA,1,0.3,0.7,3,2,191,5,NA
fcp-trial,226,1101667,0.0-201.0-0.0,voc_e2,11763,"[{""event"":""fullscreenenter"",""trial"":1,""time"":4585},{""event"":""blur"",""trial"":120,""time"":673416},{""event"":""focus"",""trial"":120,""time"":676470},{""event"":""blur"",""trial"":139,""time"":778292},{""event"":""focus"",""trial"":139,""time"":787074},{""event"":""blur"",""trial"":139,""time"":789444},{""event"":""focus"",""trial"":139,""time"":792880}]",NA,NA,NA,NA,NA,3,#3386FF,#D89F1C,10,0,1,38,1,1442.6000000014901,37,1,508.8999999985099,10,1,experiment,NA,NA,0,0.9,0.1,0,1,192,5,NA
fcp-trial,227,1105165,0.0-202.0-0.0,voc_e2,11763,"[{""event"":""fullscreenenter"",""trial"":1,""time"":4585},{""event"":""blur"",""trial"":120,""time"":673416},{""event"":""focus"",""trial"":120,""time"":676470},{""event"":""blur"",""trial"":139,""time"":778292},{""event"":""focus"",""trial"":139,""time"":787074},{""event"":""blur"",""trial"":139,""time"":789444},{""event"":""focus"",""trial"":139,""time"":792880}]",NA,NA,NA,NA,NA,6,#1CD855,#FA92F8,0,10,0,40,0,1329.4000000022352,39,0,661,10,1,experiment,NA,NA,2,0.5,0.5,5,4,193,5,NA
fcp-trial,228,1108206,0.0-203.0-0.0,voc_e2,11763,"[{""event"":""fullscreenenter"",""trial"":1,""time"":4585},{""event"":""blur"",""trial"":120,""time"":673416},{""event"":""focus"",""trial"":120,""time"":676470},{""event"":""blur"",""trial"":139,""time"":778292},{""event"":""focus"",""trial"":139,""time"":787074},{""event"":""blur"",""trial"":139,""time"":789444},{""event"":""focus"",""trial"":139,""time"":792880}]",NA,NA,NA,NA,NA,1,#741CD8,#D8271C,10,0,1,38,1,971,37,1,559.5,10,1,experiment,NA,NA,1,0.7,0.3,2,3,194,5,NA
fcp-trial,229,1111420,0.0-204.0-0.0,voc_e2,11763,"[{""event"":""fullscreenenter"",""trial"":1,""time"":4585},{""event"":""blur"",""trial"":120,""time"":673416},{""event"":""focus"",""trial"":120,""time"":676470},{""event"":""blur"",""trial"":139,""time"":778292},{""event"":""focus"",""trial"":139,""time"":787074},{""event"":""blur"",""trial"":139,""time"":789444},{""event"":""focus"",""trial"":139,""time"":792880}]",NA,NA,NA,NA,NA,0,#D89F1C,#3386FF,0,10,0,38,1,808.5999999977648,37,1,892.6000000014901,0,0,experiment,NA,NA,0,0.1,0.9,1,0,195,5,NA
fcp-trial,230,1114749,0.0-205.0-0.0,voc_e2,11763,"[{""event"":""fullscreenenter"",""trial"":1,""time"":4585},{""event"":""blur"",""trial"":120,""time"":673416},{""event"":""focus"",""trial"":120,""time"":676470},{""event"":""blur"",""trial"":139,""time"":778292},{""event"":""focus"",""trial"":139,""time"":787074},{""event"":""blur"",""trial"":139,""time"":789444},{""event"":""focus"",""trial"":139,""time"":792880}]",NA,NA,NA,NA,NA,3,#FA92F8,#1CD855,10,10,1,38,1,1117.6000000014901,37,1,701.8999999985099,10,1,experiment,NA,NA,2,0.5,0.5,4,5,196,5,NA
fcp-trial,231,1118185,0.0-206.0-0.0,voc_e2,11763,"[{""event"":""fullscreenenter"",""trial"":1,""time"":4585},{""event"":""blur"",""trial"":120,""time"":673416},{""event"":""focus"",""trial"":120,""time"":676470},{""event"":""blur"",""trial"":139,""time"":778292},{""event"":""focus"",""trial"":139,""time"":787074},{""event"":""blur"",""trial"":139,""time"":789444},{""event"":""focus"",""trial"":139,""time"":792880}]",NA,NA,NA,NA,NA,2,#D8271C,#741CD8,0,10,0,38,1,1277.800000000745,39,0,650,10,1,experiment,NA,NA,1,0.3,0.7,3,2,197,5,NA
fcp-trial,232,1121520,0.0-207.0-0.0,voc_e2,11763,"[{""event"":""fullscreenenter"",""trial"":1,""time"":4585},{""event"":""blur"",""trial"":120,""time"":673416},{""event"":""focus"",""trial"":120,""time"":676470},{""event"":""blur"",""trial"":139,""time"":778292},{""event"":""focus"",""trial"":139,""time"":787074},{""event"":""blur"",""trial"":139,""time"":789444},{""event"":""focus"",""trial"":139,""time"":792880}]",NA,NA,NA,NA,NA,4,#D89F1C,#3386FF,0,10,0,40,0,1136.5,39,0,686.3999999985099,10,1,experiment,NA,NA,0,0.1,0.9,1,0,198,5,NA
fcp-trial,233,1124942,0.0-208.0-0.0,voc_e2,11763,"[{""event"":""fullscreenenter"",""trial"":1,""time"":4585},{""event"":""blur"",""trial"":120,""time"":673416},{""event"":""focus"",""trial"":120,""time"":676470},{""event"":""blur"",""trial"":139,""time"":778292},{""event"":""focus"",""trial"":139,""time"":787074},{""event"":""blur"",""trial"":139,""time"":789444},{""event"":""focus"",""trial"":139,""time"":792880}]",NA,NA,NA,NA,NA,0,#741CD8,#D8271C,10,0,1,38,1,1277.800000000745,37,1,628.8999999985099,10,1,experiment,NA,NA,1,0.7,0.3,2,3,199,5,NA
fcp-trial,234,1128152,0.0-209.0-0.0,voc_e2,11763,"[{""event"":""fullscreenenter"",""trial"":1,""time"":4585},{""event"":""blur"",""trial"":120,""time"":673416},{""event"":""focus"",""trial"":120,""time"":676470},{""event"":""blur"",""trial"":139,""time"":778292},{""event"":""focus"",""trial"":139,""time"":787074},{""event"":""blur"",""trial"":139,""time"":789444},{""event"":""focus"",""trial"":139,""time"":792880}]",NA,NA,NA,NA,NA,2,#FA92F8,#1CD855,10,0,1,38,1,975.7999999970198,39,0,720.6999999992549,0,0,experiment,NA,NA,2,0.5,0.5,4,5,200,5,NA
fcp-trial,235,1131542,0.0-210.0-0.0,voc_e2,11763,"[{""event"":""fullscreenenter"",""trial"":1,""time"":4585},{""event"":""blur"",""trial"":120,""time"":673416},{""event"":""focus"",""trial"":120,""time"":676470},{""event"":""blur"",""trial"":139,""time"":778292},{""event"":""focus"",""trial"":139,""time"":787074},{""event"":""blur"",""trial"":139,""time"":789444},{""event"":""focus"",""trial"":139,""time"":792880}]",NA,NA,NA,NA,NA,5,#1CD855,#FA92F8,0,0,0,40,0,1190.1000000014901,37,1,688,0,0,experiment,NA,NA,2,0.5,0.5,5,4,201,5,NA
fcp-trial,236,1134952,0.0-211.0-0.0,voc_e2,11763,"[{""event"":""fullscreenenter"",""trial"":1,""time"":4585},{""event"":""blur"",""trial"":120,""time"":673416},{""event"":""focus"",""trial"":120,""time"":676470},{""event"":""blur"",""trial"":139,""time"":778292},{""event"":""focus"",""trial"":139,""time"":787074},{""event"":""blur"",""trial"":139,""time"":789444},{""event"":""focus"",""trial"":139,""time"":792880}]",NA,NA,NA,NA,NA,4,#D8271C,#741CD8,0,10,0,40,0,1183.8999999985099,37,1,713.6999999992549,0,0,experiment,NA,NA,1,0.3,0.7,3,2,202,5,NA
fcp-trial,237,1138044,0.0-212.0-0.0,voc_e2,11763,"[{""event"":""fullscreenenter"",""trial"":1,""time"":4585},{""event"":""blur"",""trial"":120,""time"":673416},{""event"":""focus"",""trial"":120,""time"":676470},{""event"":""blur"",""trial"":139,""time"":778292},{""event"":""focus"",""trial"":139,""time"":787074},{""event"":""blur"",""trial"":139,""time"":789444},{""event"":""focus"",""trial"":139,""time"":792880}]",NA,NA,NA,NA,NA,2,#3386FF,#D89F1C,10,0,1,38,1,997.1999999992549,37,1,582.6999999992549,10,1,experiment,NA,NA,0,0.9,0.1,0,1,203,5,NA
fcp-trial,238,1141478,0.0-213.0-0.0,voc_e2,11763,"[{""event"":""fullscreenenter"",""trial"":1,""time"":4585},{""event"":""blur"",""trial"":120,""time"":673416},{""event"":""focus"",""trial"":120,""time"":676470},{""event"":""blur"",""trial"":139,""time"":778292},{""event"":""focus"",""trial"":139,""time"":787074},{""event"":""blur"",""trial"":139,""time"":789444},{""event"":""focus"",""trial"":139,""time"":792880}]",NA,NA,NA,NA,NA,0,#1CD855,#FA92F8,0,10,0,38,1,1281,39,0,643.2999999970198,10,1,experiment,NA,NA,2,0.5,0.5,5,4,204,5,NA
fcp-trial,239,1144975,0.0-214.0-0.0,voc_e2,11763,"[{""event"":""fullscreenenter"",""trial"":1,""time"":4585},{""event"":""blur"",""trial"":120,""time"":673416},{""event"":""focus"",""trial"":120,""time"":676470},{""event"":""blur"",""trial"":139,""time"":778292},{""event"":""focus"",""trial"":139,""time"":787074},{""event"":""blur"",""trial"":139,""time"":789444},{""event"":""focus"",""trial"":139,""time"":792880}]",NA,NA,NA,NA,NA,6,#D89F1C,#3386FF,0,10,0,40,0,1322,37,1,665.3000000007451,0,0,experiment,NA,NA,0,0.1,0.9,1,0,205,5,NA
fcp-trial,240,1148054,0.0-215.0-0.0,voc_e2,11763,"[{""event"":""fullscreenenter"",""trial"":1,""time"":4585},{""event"":""blur"",""trial"":120,""time"":673416},{""event"":""focus"",""trial"":120,""time"":676470},{""event"":""blur"",""trial"":139,""time"":778292},{""event"":""focus"",""trial"":139,""time"":787074},{""event"":""blur"",""trial"":139,""time"":789444},{""event"":""focus"",""trial"":139,""time"":792880}]",NA,NA,NA,NA,NA,5,#741CD8,#D8271C,0,10,1,40,0,1018.6000000014901,39,0,550.6999999992549,10,0,experiment,NA,NA,1,0.7,0.3,2,3,206,5,NA
fcp-trial,241,1151615,0.0-216.0-0.0,voc_e2,11763,"[{""event"":""fullscreenenter"",""trial"":1,""time"":4585},{""event"":""blur"",""trial"":120,""time"":673416},{""event"":""focus"",""trial"":120,""time"":676470},{""event"":""blur"",""trial"":139,""time"":778292},{""event"":""focus"",""trial"":139,""time"":787074},{""event"":""blur"",""trial"":139,""time"":789444},{""event"":""focus"",""trial"":139,""time"":792880}]",NA,NA,NA,NA,NA,6,#D8271C,#741CD8,0,10,0,40,0,1484.9000000022352,37,1,565.8999999985099,0,0,experiment,NA,NA,1,0.3,0.7,3,2,207,5,NA
fcp-trial,242,1154901,0.0-217.0-0.0,voc_e2,11763,"[{""event"":""fullscreenenter"",""trial"":1,""time"":4585},{""event"":""blur"",""trial"":120,""time"":673416},{""event"":""focus"",""trial"":120,""time"":676470},{""event"":""blur"",""trial"":139,""time"":778292},{""event"":""focus"",""trial"":139,""time"":787074},{""event"":""blur"",""trial"":139,""time"":789444},{""event"":""focus"",""trial"":139,""time"":792880}]",NA,NA,NA,NA,NA,1,#1CD855,#FA92F8,0,10,0,38,1,1027.2000000029802,37,1,749.3999999985099,0,0,experiment,NA,NA,2,0.5,0.5,5,4,208,5,NA
fcp-trial,243,1159272,0.0-218.0-0.0,voc_e2,11763,"[{""event"":""fullscreenenter"",""trial"":1,""time"":4585},{""event"":""blur"",""trial"":120,""time"":673416},{""event"":""focus"",""trial"":120,""time"":676470},{""event"":""blur"",""trial"":139,""time"":778292},{""event"":""focus"",""trial"":139,""time"":787074},{""event"":""blur"",""trial"":139,""time"":789444},{""event"":""focus"",""trial"":139,""time"":792880}]",NA,NA,NA,NA,NA,5,#D89F1C,#3386FF,0,10,0,40,0,1430.5,39,0,1430.8999999985099,10,1,experiment,NA,NA,0,0.1,0.9,1,0,209,5,NA
fcp-trial,244,1162486,0.0-219.0-0.0,voc_e2,11763,"[{""event"":""fullscreenenter"",""trial"":1,""time"":4585},{""event"":""blur"",""trial"":120,""time"":673416},{""event"":""focus"",""trial"":120,""time"":676470},{""event"":""blur"",""trial"":139,""time"":778292},{""event"":""focus"",""trial"":139,""time"":787074},{""event"":""blur"",""trial"":139,""time"":789444},{""event"":""focus"",""trial"":139,""time"":792880}]",NA,NA,NA,NA,NA,1,#D89F1C,#3386FF,0,0,0,38,1,1320.3999999985099,39,0,382.70000000298023,0,1,experiment,NA,NA,0,0.1,0.9,1,0,210,5,NA
audio-instructions,245,1274278,0.0-220.0,voc_e2,11763,"[{""event"":""fullscreenenter"",""trial"":1,""time"":4585},{""event"":""blur"",""trial"":120,""time"":673416},{""event"":""focus"",""trial"":120,""time"":676470},{""event"":""blur"",""trial"":139,""time"":778292},{""event"":""focus"",""trial"":139,""time"":787074},{""event"":""blur"",""trial"":139,""time"":789444},{""event"":""focus"",""trial"":139,""time"":792880},{""event"":""blur"",""trial"":245,""time"":1208069},{""event"":""focus"",""trial"":245,""time"":1265543}]",NA,107122.09999999776,static/audio/pause.wav,NA,0,NA,NA,NA,NA,NA,NA,NA,NA,NA,NA,NA,NA,NA,NA,NA,NA,NA,NA,NA,NA,NA,NA,NA,NA,NA
fcp-trial,246,1277482,0.0-221.0-0.0,voc_e2,11763,"[{""event"":""fullscreenenter"",""trial"":1,""time"":4585},{""event"":""blur"",""trial"":120,""time"":673416},{""event"":""focus"",""trial"":120,""time"":676470},{""event"":""blur"",""trial"":139,""time"":778292},{""event"":""focus"",""trial"":139,""time"":787074},{""event"":""blur"",""trial"":139,""time"":789444},{""event"":""focus"",""trial"":139,""time"":792880},{""event"":""blur"",""trial"":245,""time"":1208069},{""event"":""focus"",""trial"":245,""time"":1265543}]",NA,NA,NA,NA,NA,1,#FA92F8,#1CD855,10,10,1,38,1,1192.800000000745,39,0,500.0999999977648,10,0,experiment,NA,NA,2,0.5,0.5,4,5,211,5,NA
fcp-trial,247,1281683,0.0-222.0-0.0,voc_e2,11763,"[{""event"":""fullscreenenter"",""trial"":1,""time"":4585},{""event"":""blur"",""trial"":120,""time"":673416},{""event"":""focus"",""trial"":120,""time"":676470},{""event"":""blur"",""trial"":139,""time"":778292},{""event"":""focus"",""trial"":139,""time"":787074},{""event"":""blur"",""trial"":139,""time"":789444},{""event"":""focus"",""trial"":139,""time"":792880},{""event"":""blur"",""trial"":245,""time"":1208069},{""event"":""focus"",""trial"":245,""time"":1265543}]",NA,NA,NA,NA,NA,3,#D8271C,#741CD8,0,10,0,38,1,2051.699999999255,39,0,640.1999999992549,10,1,experiment,NA,NA,1,0.3,0.7,3,2,212,5,NA
fcp-trial,248,1284617,0.0-223.0-0.0,voc_e2,11763,"[{""event"":""fullscreenenter"",""trial"":1,""time"":4585},{""event"":""blur"",""trial"":120,""time"":673416},{""event"":""focus"",""trial"":120,""time"":676470},{""event"":""blur"",""trial"":139,""time"":778292},{""event"":""focus"",""trial"":139,""time"":787074},{""event"":""blur"",""trial"":139,""time"":789444},{""event"":""focus"",""trial"":139,""time"":792880},{""event"":""blur"",""trial"":245,""time"":1208069},{""event"":""focus"",""trial"":245,""time"":1265543}]",NA,NA,NA,NA,NA,0,#D8271C,#741CD8,0,10,0,38,1,970.8999999985099,39,0,452.5,10,1,experiment,NA,NA,1,0.3,0.7,3,2,213,5,NA
fcp-trial,249,1287840,0.0-224.0-0.0,voc_e2,11763,"[{""event"":""fullscreenenter"",""trial"":1,""time"":4585},{""event"":""blur"",""trial"":120,""time"":673416},{""event"":""focus"",""trial"":120,""time"":676470},{""event"":""blur"",""trial"":139,""time"":778292},{""event"":""focus"",""trial"":139,""time"":787074},{""event"":""blur"",""trial"":139,""time"":789444},{""event"":""focus"",""trial"":139,""time"":792880},{""event"":""blur"",""trial"":245,""time"":1208069},{""event"":""focus"",""trial"":245,""time"":1265543}]",NA,NA,NA,NA,NA,3,#3386FF,#D89F1C,10,0,1,38,1,1254.5999999977648,37,1,460.3999999985099,10,1,experiment,NA,NA,0,0.9,0.1,0,1,214,5,NA
fcp-trial,250,1290945,0.0-225.0-0.0,voc_e2,11763,"[{""event"":""fullscreenenter"",""trial"":1,""time"":4585},{""event"":""blur"",""trial"":120,""time"":673416},{""event"":""focus"",""trial"":120,""time"":676470},{""event"":""blur"",""trial"":139,""time"":778292},{""event"":""focus"",""trial"":139,""time"":787074},{""event"":""blur"",""trial"":139,""time"":789444},{""event"":""focus"",""trial"":139,""time"":792880},{""event"":""blur"",""trial"":245,""time"":1208069},{""event"":""focus"",""trial"":245,""time"":1265543}]",NA,NA,NA,NA,NA,5,#1CD855,#FA92F8,0,0,0,40,0,1071.5,37,1,524.1000000014901,0,0,experiment,NA,NA,2,0.5,0.5,5,4,215,5,NA
fcp-trial,251,1294169,0.0-226.0-0.0,voc_e2,11763,"[{""event"":""fullscreenenter"",""trial"":1,""time"":4585},{""event"":""blur"",""trial"":120,""time"":673416},{""event"":""focus"",""trial"":120,""time"":676470},{""event"":""blur"",""trial"":139,""time"":778292},{""event"":""focus"",""trial"":139,""time"":787074},{""event"":""blur"",""trial"":139,""time"":789444},{""event"":""focus"",""trial"":139,""time"":792880},{""event"":""blur"",""trial"":245,""time"":1208069},{""event"":""focus"",""trial"":245,""time"":1265543}]",NA,NA,NA,NA,NA,2,#D89F1C,#3386FF,0,10,0,38,1,1191.199999999255,39,0,525.1000000014901,10,1,experiment,NA,NA,0,0.1,0.9,1,0,216,5,NA
fcp-trial,252,1297308,0.0-227.0-0.0,voc_e2,11763,"[{""event"":""fullscreenenter"",""trial"":1,""time"":4585},{""event"":""blur"",""trial"":120,""time"":673416},{""event"":""focus"",""trial"":120,""time"":676470},{""event"":""blur"",""trial"":139,""time"":778292},{""event"":""focus"",""trial"":139,""time"":787074},{""event"":""blur"",""trial"":139,""time"":789444},{""event"":""focus"",""trial"":139,""time"":792880},{""event"":""blur"",""trial"":245,""time"":1208069},{""event"":""focus"",""trial"":245,""time"":1265543}]",NA,NA,NA,NA,NA,1,#3386FF,#D89F1C,10,0,1,38,1,1214.5999999977648,37,1,415.5,10,1,experiment,NA,NA,0,0.9,0.1,0,1,217,5,NA
fcp-trial,253,1300949,0.0-228.0-0.0,voc_e2,11763,"[{""event"":""fullscreenenter"",""trial"":1,""time"":4585},{""event"":""blur"",""trial"":120,""time"":673416},{""event"":""focus"",""trial"":120,""time"":676470},{""event"":""blur"",""trial"":139,""time"":778292},{""event"":""focus"",""trial"":139,""time"":787074},{""event"":""blur"",""trial"":139,""time"":789444},{""event"":""focus"",""trial"":139,""time"":792880},{""event"":""blur"",""trial"":245,""time"":1208069},{""event"":""focus"",""trial"":245,""time"":1265543}]",NA,NA,NA,NA,NA,1,#D8271C,#741CD8,10,0,0,38,1,1165.300000000745,39,0,964.7999999970198,0,1,experiment,NA,NA,1,0.3,0.7,3,2,218,5,NA
fcp-trial,254,1304193,0.0-229.0-0.0,voc_e2,11763,"[{""event"":""fullscreenenter"",""trial"":1,""time"":4585},{""event"":""blur"",""trial"":120,""time"":673416},{""event"":""focus"",""trial"":120,""time"":676470},{""event"":""blur"",""trial"":139,""time"":778292},{""event"":""focus"",""trial"":139,""time"":787074},{""event"":""blur"",""trial"":139,""time"":789444},{""event"":""focus"",""trial"":139,""time"":792880},{""event"":""blur"",""trial"":245,""time"":1208069},{""event"":""focus"",""trial"":245,""time"":1265543}]",NA,NA,NA,NA,NA,2,#FA92F8,#1CD855,10,0,1,38,1,1120.2000000029802,37,1,614.6999999992549,10,1,experiment,NA,NA,2,0.5,0.5,4,5,219,5,NA
fcp-trial,255,1307615,0.0-230.0-0.0,voc_e2,11763,"[{""event"":""fullscreenenter"",""trial"":1,""time"":4585},{""event"":""blur"",""trial"":120,""time"":673416},{""event"":""focus"",""trial"":120,""time"":676470},{""event"":""blur"",""trial"":139,""time"":778292},{""event"":""focus"",""trial"":139,""time"":787074},{""event"":""blur"",""trial"":139,""time"":789444},{""event"":""focus"",""trial"":139,""time"":792880},{""event"":""blur"",""trial"":245,""time"":1208069},{""event"":""focus"",""trial"":245,""time"":1265543}]",NA,NA,NA,NA,NA,6,#3386FF,#D89F1C,10,0,1,40,0,1279.300000000745,39,0,634.1999999992549,0,0,experiment,NA,NA,0,0.9,0.1,0,1,220,5,NA
