trial_type,trial_index,time_elapsed,internal_node_id,task_version,subject_id,interactions,success,rt,stimulus,key_press,button_pressed,offer,arcade_color_L,arcade_color_R,arcade_outcome_L,arcade_outcome_R,correct,stage_1_key,stage_1_choice,stage_1_rt,stage_2_key,stage_2_choice,stage_2_rt,stage_3_outcome,accuracy,phase,responses,num_errors,context,reward_prob_L,reward_prob_R,arcade_id_L,arcade_id_R,trial,block,response
pavlovia,0,8,0.0-0.0,voc_e2,12077,[],NA,NA,NA,NA,NA,NA,NA,NA,NA,NA,NA,NA,NA,NA,NA,NA,NA,NA,NA,NA,NA,NA,NA,NA,NA,NA,NA,NA,NA,NA
fullscreen,1,2302,0.0-1.0,voc_e2,12077,"[{""event"":""fullscreenenter"",""trial"":1,""time"":1309}]",TRUE,NA,NA,NA,NA,NA,NA,NA,NA,NA,NA,NA,NA,NA,NA,NA,NA,NA,NA,NA,NA,NA,NA,NA,NA,NA,NA,NA,NA,NA
audio-keyboard-response,2,6586,0.0-2.0,voc_e2,12077,"[{""event"":""fullscreenenter"",""trial"":1,""time"":1309}]",NA,4240,static/audio/beep_loop.wav,32,NA,NA,NA,NA,NA,NA,NA,NA,NA,NA,NA,NA,NA,NA,NA,NA,NA,NA,NA,NA,NA,NA,NA,NA,NA,NA
audio-test,3,11829,0.0-3.0,voc_e2,12077,"[{""event"":""fullscreenenter"",""trial"":1,""time"":1309}]",NA,NA,static/audio/turtle.wav,NA,3,NA,NA,NA,NA,NA,NA,NA,NA,NA,NA,NA,NA,NA,NA,NA,NA,NA,NA,NA,NA,NA,NA,NA,NA,NA
audio-test,4,13813,0.0-4.0,voc_e2,12077,"[{""event"":""fullscreenenter"",""trial"":1,""time"":1309}]",NA,NA,static/audio/shark.wav,NA,2,NA,NA,NA,NA,NA,NA,NA,NA,NA,NA,NA,NA,NA,NA,NA,NA,NA,NA,NA,NA,NA,NA,NA,NA,NA
audio-instructions,5,21590,0.0-5.0-0.0,voc_e2,12077,"[{""event"":""fullscreenenter"",""trial"":1,""time"":1309}]",NA,1978.5999999999767,static/audio/instructions1.wav,NA,0,NA,NA,NA,NA,NA,NA,NA,NA,NA,NA,NA,NA,NA,NA,NA,NA,NA,NA,NA,NA,NA,NA,NA,NA,NA
audio-instructions,6,32648,0.0-5.0-1.0,voc_e2,12077,"[{""event"":""fullscreenenter"",""trial"":1,""time"":1309}]",NA,4311.700000000012,static/audio/instructions2.wav,NA,0,NA,NA,NA,NA,NA,NA,NA,NA,NA,NA,NA,NA,NA,NA,NA,NA,NA,NA,NA,NA,NA,NA,NA,NA,NA
audio-instructions,7,41791,0.0-5.0-2.0,voc_e2,12077,"[{""event"":""fullscreenenter"",""trial"":1,""time"":1309}]",NA,3338.5999999999767,static/audio/instructions3.wav,NA,0,NA,NA,NA,NA,NA,NA,NA,NA,NA,NA,NA,NA,NA,NA,NA,NA,NA,NA,NA,NA,NA,NA,NA,NA,NA
audio-instructions,8,56255,0.0-5.0-3.0,voc_e2,12077,"[{""event"":""fullscreenenter"",""trial"":1,""time"":1309}]",NA,1236.7000000000116,static/audio/instructions4.wav,NA,0,NA,NA,NA,NA,NA,NA,NA,NA,NA,NA,NA,NA,NA,NA,NA,NA,NA,NA,NA,NA,NA,NA,NA,NA,NA
audio-instructions,9,71085,0.0-5.0-4.0,voc_e2,12077,"[{""event"":""fullscreenenter"",""trial"":1,""time"":1309}]",NA,5441.099999999977,static/audio/instructions5.wav,NA,0,NA,NA,NA,NA,NA,NA,NA,NA,NA,NA,NA,NA,NA,NA,NA,NA,NA,NA,NA,NA,NA,NA,NA,NA,NA
fcp-practice,10,75371,0.0-5.0-5.0-0.0,voc_e2,12077,"[{""event"":""fullscreenenter"",""trial"":1,""time"":1309}]",NA,NA,NA,NA,NA,NA,#EDC948,#46d3c8,10,0,1,null,null,null,37,1,2773.5,10,1,practice,NA,NA,NA,NA,NA,NA,NA,NA,NA,NA
fcp-practice,11,77550,0.0-5.0-5.0-1.0,voc_e2,12077,"[{""event"":""fullscreenenter"",""trial"":1,""time"":1309}]",NA,NA,NA,NA,NA,NA,#EDC948,#46d3c8,10,0,1,null,null,null,37,1,671.8000000000466,10,1,practice,NA,NA,NA,NA,NA,NA,NA,NA,NA,NA
fcp-practice,12,79450,0.0-5.0-5.0-2.0,voc_e2,12077,"[{""event"":""fullscreenenter"",""trial"":1,""time"":1309}]",NA,NA,NA,NA,NA,NA,#EDC948,#46d3c8,0,10,1,null,null,null,37,1,389.70000000006985,0,1,practice,NA,NA,NA,NA,NA,NA,NA,NA,NA,NA
fcp-practice,13,81392,0.0-5.0-5.0-3.0,voc_e2,12077,"[{""event"":""fullscreenenter"",""trial"":1,""time"":1309}]",NA,NA,NA,NA,NA,NA,#EDC948,#46d3c8,10,0,1,null,null,null,37,1,433,10,1,practice,NA,NA,NA,NA,NA,NA,NA,NA,NA,NA
fcp-practice,14,83320,0.0-5.0-5.0-4.0,voc_e2,12077,"[{""event"":""fullscreenenter"",""trial"":1,""time"":1309}]",NA,NA,NA,NA,NA,NA,#EDC948,#46d3c8,10,0,1,null,null,null,37,1,419.4000000000233,10,1,practice,NA,NA,NA,NA,NA,NA,NA,NA,NA,NA
audio-instructions,15,105991,0.0-5.0-6.0,voc_e2,12077,"[{""event"":""fullscreenenter"",""trial"":1,""time"":1309}]",NA,4663.5,static/audio/instructions6.wav,NA,0,NA,NA,NA,NA,NA,NA,NA,NA,NA,NA,NA,NA,NA,NA,NA,NA,NA,NA,NA,NA,NA,NA,NA,NA,NA
audio-instructions,16,129583,0.0-5.0-7.0,voc_e2,12077,"[{""event"":""fullscreenenter"",""trial"":1,""time"":1309}]",NA,4388.199999999953,static/audio/instructions7.wav,NA,0,NA,NA,NA,NA,NA,NA,NA,NA,NA,NA,NA,NA,NA,NA,NA,NA,NA,NA,NA,NA,NA,NA,NA,NA,NA
audio-instructions,17,142217,0.0-5.0-8.0,voc_e2,12077,"[{""event"":""fullscreenenter"",""trial"":1,""time"":1309}]",NA,3161.4000000000233,static/audio/instructions8.wav,NA,0,NA,NA,NA,NA,NA,NA,NA,NA,NA,NA,NA,NA,NA,NA,NA,NA,NA,NA,NA,NA,NA,NA,NA,NA,NA
fcp-comprehension,18,154257,0.0-5.0-9.0,voc_e2,12077,"[{""event"":""fullscreenenter"",""trial"":1,""time"":1309}]",NA,12035.599999999977,NA,NA,NA,NA,NA,NA,NA,NA,NA,NA,NA,NA,NA,NA,NA,NA,NA,NA,"true,true",0,NA,NA,NA,NA,NA,NA,NA,NA
audio-instructions,19,160625,0.0-6.0-0.0,voc_e2,12077,"[{""event"":""fullscreenenter"",""trial"":1,""time"":1309}]",NA,816,static/audio/instructions9.wav,NA,0,NA,NA,NA,NA,NA,NA,NA,NA,NA,NA,NA,NA,NA,NA,NA,NA,NA,NA,NA,NA,NA,NA,NA,NA,NA
audio-instructions,20,173484,0.0-6.0-1.0,voc_e2,12077,"[{""event"":""fullscreenenter"",""trial"":1,""time"":1309}]",NA,742.0999999999767,static/audio/instructions10.wav,NA,0,NA,NA,NA,NA,NA,NA,NA,NA,NA,NA,NA,NA,NA,NA,NA,NA,NA,NA,NA,NA,NA,NA,NA,NA,NA
fcp-trial,21,183193,0.0-6.0-2.0,voc_e2,12077,"[{""event"":""fullscreenenter"",""trial"":1,""time"":1309}]",NA,NA,NA,NA,NA,0,#EDC948,#46d3c8,10,10,1,38,1,4412.699999999953,39,0,3782.899999999907,10,0,practice,NA,NA,NA,NA,NA,NA,NA,NA,NA,NA
audio-instructions,22,195584,0.0-6.0-3.0,voc_e2,12077,"[{""event"":""fullscreenenter"",""trial"":1,""time"":1309}]",NA,1380.2999999999302,static/audio/instructions11.wav,NA,0,NA,NA,NA,NA,NA,NA,NA,NA,NA,NA,NA,NA,NA,NA,NA,NA,NA,NA,NA,NA,NA,NA,NA,NA,NA
fcp-trial,23,201115,0.0-6.0-4.0,voc_e2,12077,"[{""event"":""fullscreenenter"",""trial"":1,""time"":1309}]",NA,NA,NA,NA,NA,6,#EDC948,#46d3c8,10,10,1,40,0,1301.8000000000466,37,1,2720.9000000000233,10,1,practice,NA,NA,NA,NA,NA,NA,NA,NA,NA,NA
audio-instructions,24,221355,0.0-6.0-5.0,voc_e2,12077,"[{""event"":""fullscreenenter"",""trial"":1,""time"":1309}]",NA,1545.5,static/audio/instructions12.wav,NA,0,NA,NA,NA,NA,NA,NA,NA,NA,NA,NA,NA,NA,NA,NA,NA,NA,NA,NA,NA,NA,NA,NA,NA,NA,NA
audio-instructions,25,230359,0.0-6.0-6.0,voc_e2,12077,"[{""event"":""fullscreenenter"",""trial"":1,""time"":1309}]",NA,1403.3000000000466,static/audio/instructions13.wav,NA,0,NA,NA,NA,NA,NA,NA,NA,NA,NA,NA,NA,NA,NA,NA,NA,NA,NA,NA,NA,NA,NA,NA,NA,NA,NA
audio-instructions,26,239638,0.0-6.0-7.0,voc_e2,12077,"[{""event"":""fullscreenenter"",""trial"":1,""time"":1309}]",NA,827.6000000000931,static/audio/instructions14.wav,NA,0,NA,NA,NA,NA,NA,NA,NA,NA,NA,NA,NA,NA,NA,NA,NA,NA,NA,NA,NA,NA,NA,NA,NA,NA,NA
audio-instructions,27,248963,0.0-7.0-0.0,voc_e2,12077,"[{""event"":""fullscreenenter"",""trial"":1,""time"":1309}]",NA,2408,static/audio/instructions15.wav,NA,0,NA,NA,NA,NA,NA,NA,NA,NA,NA,NA,NA,NA,NA,NA,NA,NA,NA,NA,NA,NA,NA,NA,NA,NA,NA
audio-instructions,28,256492,0.0-7.0-1.0,voc_e2,12077,"[{""event"":""fullscreenenter"",""trial"":1,""time"":1309}]",NA,698.7999999999302,static/audio/instructions16.wav,NA,0,NA,NA,NA,NA,NA,NA,NA,NA,NA,NA,NA,NA,NA,NA,NA,NA,NA,NA,NA,NA,NA,NA,NA,NA,NA
audio-instructions,29,266386,0.0-7.0-2.0,voc_e2,12077,"[{""event"":""fullscreenenter"",""trial"":1,""time"":1309}]",NA,2207.29999999993,static/audio/instructions17.wav,NA,0,NA,NA,NA,NA,NA,NA,NA,NA,NA,NA,NA,NA,NA,NA,NA,NA,NA,NA,NA,NA,NA,NA,NA,NA,NA
audio-instructions,30,278331,0.0-7.0-3.0,voc_e2,12077,"[{""event"":""fullscreenenter"",""trial"":1,""time"":1309}]",NA,4173.599999999977,static/audio/instructions18.wav,NA,0,NA,NA,NA,NA,NA,NA,NA,NA,NA,NA,NA,NA,NA,NA,NA,NA,NA,NA,NA,NA,NA,NA,NA,NA,NA
audio-instructions,31,286955,0.0-7.0-4.0,voc_e2,12077,"[{""event"":""fullscreenenter"",""trial"":1,""time"":1309}]",NA,1878.3000000000463,static/audio/instructions19.wav,NA,0,NA,NA,NA,NA,NA,NA,NA,NA,NA,NA,NA,NA,NA,NA,NA,NA,NA,NA,NA,NA,NA,NA,NA,NA,NA
fcp-comprehension,32,304414,0.0-7.0-5.0,voc_e2,12077,"[{""event"":""fullscreenenter"",""trial"":1,""time"":1309}]",NA,17455.399999999907,NA,NA,NA,NA,NA,NA,NA,NA,NA,NA,NA,NA,NA,NA,NA,NA,NA,NA,"false,false,false,true",0,NA,NA,NA,NA,NA,NA,NA,NA
audio-instructions,33,314584,0.0-8.0,voc_e2,12077,"[{""event"":""fullscreenenter"",""trial"":1,""time"":1309}]",NA,951.6000000000932,static/audio/ready.wav,NA,0,NA,NA,NA,NA,NA,NA,NA,NA,NA,NA,NA,NA,NA,NA,NA,NA,NA,NA,NA,NA,NA,NA,NA,NA,NA
fcp-trial,34,320071,0.0-9.0-0.0,voc_e2,12077,"[{""event"":""fullscreenenter"",""trial"":1,""time"":1309}]",NA,NA,NA,NA,NA,5,#1CD855,#FA92F8,0,10,0,40,0,2777.29999999993,37,1,1199.6000000000931,0,0,experiment,NA,NA,2,0.5,0.5,5,4,1,1,NA
fcp-trial,35,324877,0.0-10.0-0.0,voc_e2,12077,"[{""event"":""fullscreenenter"",""trial"":1,""time"":1309}]",NA,NA,NA,NA,NA,6,#D89F1C,#3386FF,10,10,1,40,0,2638.4000000000233,39,0,656.0999999999767,10,0,experiment,NA,NA,1,0.7,0.3,2,3,2,1,NA
fcp-trial,36,328480,0.0-11.0-0.0,voc_e2,12077,"[{""event"":""fullscreenenter"",""trial"":1,""time"":1309}]",NA,NA,NA,NA,NA,2,#3386FF,#D89F1C,10,10,0,40,0,1174,37,1,917.7999999999302,10,0,experiment,NA,NA,1,0.3,0.7,3,2,3,1,NA
fcp-trial,37,333679,0.0-12.0-0.0,voc_e2,12077,"[{""event"":""fullscreenenter"",""trial"":1,""time"":1309}]",NA,NA,NA,NA,NA,6,#FA92F8,#1CD855,10,10,1,40,0,923.1000000000931,37,1,2766.1999999999534,10,1,experiment,NA,NA,2,0.5,0.5,4,5,4,1,NA
fcp-trial,38,337432,0.0-13.0-0.0,voc_e2,12077,"[{""event"":""fullscreenenter"",""trial"":1,""time"":1309}]",NA,NA,NA,NA,NA,6,#D8271C,#741CD8,10,0,1,40,0,1684.5999999999767,37,1,562.2000000000698,10,1,experiment,NA,NA,0,0.9,0.1,0,1,5,1,NA
fcp-trial,39,344604,0.0-14.0-0.0,voc_e2,12077,"[{""event"":""fullscreenenter"",""trial"":1,""time"":1309}]",NA,NA,NA,NA,NA,0,#1CD855,#FA92F8,0,10,0,38,1,4526.900000000023,39,0,1135.5999999999767,10,1,experiment,NA,NA,2,0.5,0.5,5,4,6,1,NA
fcp-trial,40,352012,0.0-15.0-0.0,voc_e2,12077,"[{""event"":""fullscreenenter"",""trial"":1,""time"":1309}]",NA,NA,NA,NA,NA,3,#D8271C,#741CD8,10,0,1,38,1,5359.29999999993,39,0,537,0,0,experiment,NA,NA,0,0.9,0.1,0,1,7,1,NA
fcp-trial,41,356494,0.0-16.0-0.0,voc_e2,12077,"[{""event"":""fullscreenenter"",""trial"":1,""time"":1309}]",NA,NA,NA,NA,NA,3,#3386FF,#D89F1C,0,10,0,40,0,2297,39,0,673.5,10,1,experiment,NA,NA,1,0.3,0.7,3,2,8,1,NA
fcp-trial,42,359538,0.0-17.0-0.0,voc_e2,12077,"[{""event"":""fullscreenenter"",""trial"":1,""time"":1309}]",NA,NA,NA,NA,NA,4,#1CD855,#FA92F8,10,10,0,40,0,954.3999999999069,39,0,578.7999999999302,10,1,experiment,NA,NA,2,0.5,0.5,5,4,9,1,NA
fcp-trial,43,363979,0.0-18.0-0.0,voc_e2,12077,"[{""event"":""fullscreenenter"",""trial"":1,""time"":1309}]",NA,NA,NA,NA,NA,2,#FA92F8,#1CD855,0,0,1,40,0,2364.6999999999534,37,1,566,0,1,experiment,NA,NA,2,0.5,0.5,4,5,10,1,NA
fcp-trial,44,369911,0.0-19.0-0.0,voc_e2,12077,"[{""event"":""fullscreenenter"",""trial"":1,""time"":1309}]",NA,NA,NA,NA,NA,0,#D89F1C,#3386FF,10,0,1,40,0,3777.0999999999767,39,0,643.1999999999534,0,0,experiment,NA,NA,1,0.7,0.3,2,3,11,1,NA
fcp-trial,45,372888,0.0-20.0-0.0,voc_e2,12077,"[{""event"":""fullscreenenter"",""trial"":1,""time"":1309}]",NA,NA,NA,NA,NA,0,#D8271C,#741CD8,10,0,1,38,1,985.0999999999767,37,1,478.80000000004657,10,1,experiment,NA,NA,0,0.9,0.1,0,1,12,1,NA
fcp-trial,46,376037,0.0-21.0-0.0,voc_e2,12077,"[{""event"":""fullscreenenter"",""trial"":1,""time"":1309}]",NA,NA,NA,NA,NA,3,#FA92F8,#1CD855,10,10,1,40,0,987.1999999999534,39,0,649.7999999999302,10,0,experiment,NA,NA,2,0.5,0.5,4,5,13,1,NA
fcp-trial,47,379556,0.0-22.0-0.0,voc_e2,12077,"[{""event"":""fullscreenenter"",""trial"":1,""time"":1309}]",NA,NA,NA,NA,NA,5,#D89F1C,#3386FF,0,0,1,40,0,1520.7999999999302,39,0,486,0,0,experiment,NA,NA,1,0.7,0.3,2,3,14,1,NA
fcp-trial,48,385161,0.0-23.0-0.0,voc_e2,12077,"[{""event"":""fullscreenenter"",""trial"":1,""time"":1309}]",NA,NA,NA,NA,NA,4,#D89F1C,#3386FF,0,0,1,38,1,3710.6999999999534,37,1,383.30000000004657,0,1,experiment,NA,NA,1,0.7,0.3,2,3,15,1,NA
fcp-trial,49,388899,0.0-24.0-0.0,voc_e2,12077,"[{""event"":""fullscreenenter"",""trial"":1,""time"":1309}]",NA,NA,NA,NA,NA,2,#741CD8,#D8271C,0,10,0,40,0,1656.4000000000233,37,1,566.8000000000466,0,0,experiment,NA,NA,0,0.1,0.9,1,0,16,1,NA
fcp-trial,50,393219,0.0-25.0-0.0,voc_e2,12077,"[{""event"":""fullscreenenter"",""trial"":1,""time"":1309}]",NA,NA,NA,NA,NA,1,#3386FF,#D89F1C,0,0,0,38,1,2206.5999999999767,39,0,600.2000000000698,0,1,experiment,NA,NA,1,0.3,0.7,3,2,17,1,NA
fcp-trial,51,396296,0.0-26.0-0.0,voc_e2,12077,"[{""event"":""fullscreenenter"",""trial"":1,""time"":1309}]",NA,NA,NA,NA,NA,1,#FA92F8,#1CD855,0,10,1,40,0,1111.2999999999302,37,1,456.70000000006985,0,1,experiment,NA,NA,2,0.5,0.5,4,5,18,1,NA
fcp-trial,52,400961,0.0-27.0-0.0,voc_e2,12077,"[{""event"":""fullscreenenter"",""trial"":1,""time"":1309}]",NA,NA,NA,NA,NA,1,#D8271C,#741CD8,10,0,1,38,1,2580.6999999999534,37,1,575,10,1,experiment,NA,NA,0,0.9,0.1,0,1,19,1,NA
fcp-trial,53,404130,0.0-28.0-0.0,voc_e2,12077,"[{""event"":""fullscreenenter"",""trial"":1,""time"":1309}]",NA,NA,NA,NA,NA,5,#741CD8,#D8271C,0,10,0,40,0,1238.5,39,0,422.10000000009313,10,1,experiment,NA,NA,0,0.1,0.9,1,0,20,1,NA
fcp-trial,54,406777,0.0-29.0-0.0,voc_e2,12077,"[{""event"":""fullscreenenter"",""trial"":1,""time"":1309}]",NA,NA,NA,NA,NA,4,#D8271C,#741CD8,10,0,1,40,0,705,39,0,432.5999999999767,0,0,experiment,NA,NA,0,0.9,0.1,0,1,21,1,NA
fcp-trial,55,410046,0.0-30.0-0.0,voc_e2,12077,"[{""event"":""fullscreenenter"",""trial"":1,""time"":1309}]",NA,NA,NA,NA,NA,6,#741CD8,#D8271C,0,10,0,38,1,890.1000000000931,39,0,866.9000000000233,10,1,experiment,NA,NA,0,0.1,0.9,1,0,22,1,NA
fcp-trial,56,413679,0.0-31.0-0.0,voc_e2,12077,"[{""event"":""fullscreenenter"",""trial"":1,""time"":1309}]",NA,NA,NA,NA,NA,0,#D89F1C,#3386FF,0,0,1,38,1,1467.9000000000233,37,1,652.6999999999534,0,1,experiment,NA,NA,1,0.7,0.3,2,3,23,1,NA
fcp-trial,57,416818,0.0-32.0-0.0,voc_e2,12077,"[{""event"":""fullscreenenter"",""trial"":1,""time"":1309}]",NA,NA,NA,NA,NA,2,#741CD8,#D8271C,0,10,0,40,0,1208.5999999999767,39,0,418.79999999993015,10,1,experiment,NA,NA,0,0.1,0.9,1,0,24,1,NA
fcp-trial,58,421128,0.0-33.0-0.0,voc_e2,12077,"[{""event"":""fullscreenenter"",""trial"":1,""time"":1309}]",NA,NA,NA,NA,NA,1,#FA92F8,#1CD855,10,0,1,38,1,2412.9000000000233,37,1,385.5,10,1,experiment,NA,NA,2,0.5,0.5,4,5,25,1,NA
fcp-trial,59,425794,0.0-34.0-0.0,voc_e2,12077,"[{""event"":""fullscreenenter"",""trial"":1,""time"":1309}]",NA,NA,NA,NA,NA,0,#1CD855,#FA92F8,10,10,0,40,0,2666.4000000000233,37,1,487.5,10,0,experiment,NA,NA,2,0.5,0.5,5,4,26,1,NA
fcp-trial,60,429243,0.0-35.0-0.0,voc_e2,12077,"[{""event"":""fullscreenenter"",""trial"":1,""time"":1309}]",NA,NA,NA,NA,NA,4,#3386FF,#D89F1C,10,0,0,40,0,1421.0999999999767,37,1,516,10,0,experiment,NA,NA,1,0.3,0.7,3,2,27,1,NA
fcp-trial,61,433906,0.0-36.0-0.0,voc_e2,12077,"[{""event"":""fullscreenenter"",""trial"":1,""time"":1309}]",NA,NA,NA,NA,NA,0,#D8271C,#741CD8,10,0,1,38,1,2521.70000000007,39,0,632.8000000000466,0,0,experiment,NA,NA,0,0.9,0.1,0,1,28,1,NA
fcp-trial,62,437153,0.0-37.0-0.0,voc_e2,12077,"[{""event"":""fullscreenenter"",""trial"":1,""time"":1309}]",NA,NA,NA,NA,NA,6,#1CD855,#FA92F8,10,0,0,40,0,1201.2999999999302,39,0,533.6000000000931,0,1,experiment,NA,NA,2,0.5,0.5,5,4,29,1,NA
fcp-trial,63,440670,0.0-38.0-0.0,voc_e2,12077,"[{""event"":""fullscreenenter"",""trial"":1,""time"":1309}]",NA,NA,NA,NA,NA,3,#D89F1C,#3386FF,10,0,1,40,0,1620.1000000000931,39,0,386.9000000000233,0,0,experiment,NA,NA,1,0.7,0.3,2,3,30,1,NA
fcp-trial,64,444001,0.0-39.0-0.0,voc_e2,12077,"[{""event"":""fullscreenenter"",""trial"":1,""time"":1309}]",NA,NA,NA,NA,NA,5,#FA92F8,#1CD855,0,0,1,40,0,1437.5,39,0,381,0,0,experiment,NA,NA,2,0.5,0.5,4,5,31,1,NA
fcp-trial,65,449922,0.0-40.0-0.0,voc_e2,12077,"[{""event"":""fullscreenenter"",""trial"":1,""time"":1309}]",NA,NA,NA,NA,NA,1,#741CD8,#D8271C,0,10,0,38,1,3978.5999999999767,39,0,430.79999999993015,10,1,experiment,NA,NA,0,0.1,0.9,1,0,32,1,NA
fcp-trial,66,452862,0.0-41.0-0.0,voc_e2,12077,"[{""event"":""fullscreenenter"",""trial"":1,""time"":1309}]",NA,NA,NA,NA,NA,5,#3386FF,#D89F1C,10,10,0,40,0,964.9000000000233,39,0,464.10000000009313,10,1,experiment,NA,NA,1,0.3,0.7,3,2,33,1,NA
fcp-trial,67,456587,0.0-42.0-0.0,voc_e2,12077,"[{""event"":""fullscreenenter"",""trial"":1,""time"":1309}]",NA,NA,NA,NA,NA,3,#D8271C,#741CD8,10,0,1,38,1,1844.5,37,1,369.79999999993015,10,1,experiment,NA,NA,0,0.9,0.1,0,1,34,1,NA
fcp-trial,68,460501,0.0-43.0-0.0,voc_e2,12077,"[{""event"":""fullscreenenter"",""trial"":1,""time"":1309}]",NA,NA,NA,NA,NA,2,#3386FF,#D89F1C,0,0,0,38,1,2086.8000000000466,39,0,315.30000000004657,0,1,experiment,NA,NA,1,0.3,0.7,3,2,35,1,NA
fcp-trial,69,464264,0.0-44.0-0.0,voc_e2,12077,"[{""event"":""fullscreenenter"",""trial"":1,""time"":1309}]",NA,NA,NA,NA,NA,2,#1CD855,#FA92F8,0,10,0,40,0,1469,39,0,782.8000000000466,10,1,experiment,NA,NA,2,0.5,0.5,5,4,36,1,NA
fcp-trial,70,468399,0.0-45.0-0.0,voc_e2,12077,"[{""event"":""fullscreenenter"",""trial"":1,""time"":1309}]",NA,NA,NA,NA,NA,1,#D89F1C,#3386FF,0,10,1,38,1,2143.600000000093,37,1,480.5999999999767,0,1,experiment,NA,NA,1,0.7,0.3,2,3,37,1,NA
fcp-trial,71,472351,0.0-46.0-0.0,voc_e2,12077,"[{""event"":""fullscreenenter"",""trial"":1,""time"":1309}]",NA,NA,NA,NA,NA,4,#FA92F8,#1CD855,10,10,1,40,0,1981.3000000000466,37,1,462.80000000004657,10,1,experiment,NA,NA,2,0.5,0.5,4,5,38,1,NA
fcp-trial,72,476072,0.0-47.0-0.0,voc_e2,12077,"[{""event"":""fullscreenenter"",""trial"":1,""time"":1309}]",NA,NA,NA,NA,NA,5,#D8271C,#741CD8,10,10,1,40,0,1788.8999999999069,39,0,422.29999999993015,10,0,experiment,NA,NA,0,0.9,0.1,0,1,39,1,NA
fcp-trial,73,479920,0.0-48.0-0.0,voc_e2,12077,"[{""event"":""fullscreenenter"",""trial"":1,""time"":1309}]",NA,NA,NA,NA,NA,4,#D8271C,#741CD8,10,0,1,38,1,1985.4000000000233,39,0,350.5,0,0,experiment,NA,NA,0,0.9,0.1,0,1,40,1,NA
fcp-trial,74,482803,0.0-49.0-0.0,voc_e2,12077,"[{""event"":""fullscreenenter"",""trial"":1,""time"":1309}]",NA,NA,NA,NA,NA,6,#D89F1C,#3386FF,10,0,1,40,0,907.2000000000698,39,0,465,0,0,experiment,NA,NA,1,0.7,0.3,2,3,41,1,NA
fcp-trial,75,487580,0.0-50.0-0.0,voc_e2,12077,"[{""event"":""fullscreenenter"",""trial"":1,""time"":1309}]",NA,NA,NA,NA,NA,3,#1CD855,#FA92F8,10,0,0,40,0,2852.5999999999767,39,0,412.5,0,1,experiment,NA,NA,2,0.5,0.5,5,4,42,1,NA
fcp-trial,76,494904,0.0-51.0-0.0,voc_e2,12077,"[{""event"":""fullscreenenter"",""trial"":1,""time"":1309}]",NA,NA,NA,NA,NA,0,#D89F1C,#3386FF,0,0,1,38,1,962.6999999999534,39,0,4851.5,0,0,experiment,NA,NA,1,0.7,0.3,2,3,43,1,NA
fcp-trial,77,498224,0.0-52.0-0.0,voc_e2,12077,"[{""event"":""fullscreenenter"",""trial"":1,""time"":1309}]",NA,NA,NA,NA,NA,2,#D89F1C,#3386FF,10,10,1,38,1,1411.8000000000466,37,1,398.4000000000233,10,1,experiment,NA,NA,1,0.7,0.3,2,3,44,1,NA
fcp-trial,78,501206,0.0-53.0-0.0,voc_e2,12077,"[{""event"":""fullscreenenter"",""trial"":1,""time"":1309}]",NA,NA,NA,NA,NA,0,#741CD8,#D8271C,10,10,0,38,1,1140.5,39,0,328.80000000004657,10,1,experiment,NA,NA,0,0.1,0.9,1,0,45,1,NA
fcp-trial,79,504028,0.0-54.0-0.0,voc_e2,12077,"[{""event"":""fullscreenenter"",""trial"":1,""time"":1309}]",NA,NA,NA,NA,NA,5,#D8271C,#741CD8,10,0,1,38,1,955.3000000000466,37,1,354.30000000004657,10,1,experiment,NA,NA,0,0.9,0.1,0,1,46,2,NA
fcp-trial,80,507718,0.0-55.0-0.0,voc_e2,12077,"[{""event"":""fullscreenenter"",""trial"":1,""time"":1309}]",NA,NA,NA,NA,NA,0,#1CD855,#FA92F8,0,0,0,38,1,1879.0999999999767,39,0,296.9000000000233,0,1,experiment,NA,NA,2,0.5,0.5,5,4,47,2,NA
fcp-trial,81,511512,0.0-56.0-0.0,voc_e2,12077,"[{""event"":""fullscreenenter"",""trial"":1,""time"":1309}]",NA,NA,NA,NA,NA,2,#741CD8,#D8271C,0,10,0,38,1,1971.2000000000698,39,0,312.30000000004657,10,1,experiment,NA,NA,0,0.1,0.9,1,0,48,2,NA
fcp-trial,82,516834,0.0-57.0-0.0,voc_e2,12077,"[{""event"":""fullscreenenter"",""trial"":1,""time"":1309}]",NA,NA,NA,NA,NA,3,#3386FF,#D89F1C,10,10,0,38,1,3528.0999999999767,37,1,284.69999999995343,10,0,experiment,NA,NA,1,0.3,0.7,3,2,49,2,NA
fcp-trial,83,520760,0.0-58.0-0.0,voc_e2,12077,"[{""event"":""fullscreenenter"",""trial"":1,""time"":1309}]",NA,NA,NA,NA,NA,5,#3386FF,#D89F1C,0,0,0,38,1,2156.9000000000233,37,1,257.70000000006985,0,0,experiment,NA,NA,1,0.3,0.7,3,2,50,2,NA
fcp-trial,84,523606,0.0-59.0-0.0,voc_e2,12077,"[{""event"":""fullscreenenter"",""trial"":1,""time"":1309}]",NA,NA,NA,NA,NA,6,#D8271C,#741CD8,10,0,1,40,0,945.6999999999534,39,0,387.0999999999767,0,0,experiment,NA,NA,0,0.9,0.1,0,1,51,2,NA
fcp-trial,85,526999,0.0-60.0-0.0,voc_e2,12077,"[{""event"":""fullscreenenter"",""trial"":1,""time"":1309}]",NA,NA,NA,NA,NA,5,#1CD855,#FA92F8,10,10,0,40,0,1501.3000000000466,37,1,381.0999999999767,10,0,experiment,NA,NA,2,0.5,0.5,5,4,52,2,NA
fcp-trial,86,531122,0.0-61.0-0.0,voc_e2,12077,"[{""event"":""fullscreenenter"",""trial"":1,""time"":1309}]",NA,NA,NA,NA,NA,3,#1CD855,#FA92F8,10,10,0,38,1,2252.6999999999534,39,0,359.5,10,1,experiment,NA,NA,2,0.5,0.5,5,4,53,2,NA
fcp-trial,87,534751,0.0-62.0-0.0,voc_e2,12077,"[{""event"":""fullscreenenter"",""trial"":1,""time"":1309}]",NA,NA,NA,NA,NA,1,#1CD855,#FA92F8,10,10,0,38,1,1303.7000000000698,39,0,813.0999999999767,10,1,experiment,NA,NA,2,0.5,0.5,5,4,54,2,NA
fcp-trial,88,539939,0.0-63.0-0.0,voc_e2,12077,"[{""event"":""fullscreenenter"",""trial"":1,""time"":1309}]",NA,NA,NA,NA,NA,1,#D89F1C,#3386FF,10,10,1,38,1,1531.4000000000233,37,1,2145.4000000000233,10,1,experiment,NA,NA,1,0.7,0.3,2,3,55,2,NA
fcp-trial,89,542701,0.0-64.0-0.0,voc_e2,12077,"[{""event"":""fullscreenenter"",""trial"":1,""time"":1309}]",NA,NA,NA,NA,NA,1,#D8271C,#741CD8,10,10,1,38,1,879.5,37,1,372.29999999993015,10,1,experiment,NA,NA,0,0.9,0.1,0,1,56,2,NA
fcp-trial,90,546118,0.0-65.0-0.0,voc_e2,12077,"[{""event"":""fullscreenenter"",""trial"":1,""time"":1309}]",NA,NA,NA,NA,NA,6,#FA92F8,#1CD855,0,10,1,38,1,941.8999999999069,39,0,965,10,0,experiment,NA,NA,2,0.5,0.5,4,5,57,2,NA
fcp-trial,91,549081,0.0-66.0-0.0,voc_e2,12077,"[{""event"":""fullscreenenter"",""trial"":1,""time"":1309}]",NA,NA,NA,NA,NA,4,#D8271C,#741CD8,10,10,1,38,1,1021.5999999999767,37,1,431.9000000000233,10,1,experiment,NA,NA,0,0.9,0.1,0,1,58,2,NA
fcp-trial,92,554062,0.0-67.0-0.0,voc_e2,12077,"[{""event"":""fullscreenenter"",""trial"":1,""time"":1309}]",NA,NA,NA,NA,NA,2,#1CD855,#FA92F8,10,0,0,40,0,3064.9000000000233,39,0,406.4000000000233,0,1,experiment,NA,NA,2,0.5,0.5,5,4,59,2,NA
fcp-trial,93,557658,0.0-68.0-0.0,voc_e2,12077,"[{""event"":""fullscreenenter"",""trial"":1,""time"":1309}]",NA,NA,NA,NA,NA,4,#D89F1C,#3386FF,0,10,1,40,0,1739.1999999999534,37,1,347.4000000000233,0,1,experiment,NA,NA,1,0.7,0.3,2,3,60,2,NA
fcp-trial,94,560423,0.0-69.0-0.0,voc_e2,12077,"[{""event"":""fullscreenenter"",""trial"":1,""time"":1309}]",NA,NA,NA,NA,NA,4,#1CD855,#FA92F8,0,0,0,38,1,868.7000000000698,37,1,385.9000000000233,0,0,experiment,NA,NA,2,0.5,0.5,5,4,61,2,NA
fcp-trial,95,563407,0.0-70.0-0.0,voc_e2,12077,"[{""event"":""fullscreenenter"",""trial"":1,""time"":1309}]",NA,NA,NA,NA,NA,3,#741CD8,#D8271C,10,10,0,38,1,1110.0999999999767,39,0,362.79999999993015,10,1,experiment,NA,NA,0,0.1,0.9,1,0,62,2,NA
fcp-trial,96,566787,0.0-71.0-0.0,voc_e2,12077,"[{""event"":""fullscreenenter"",""trial"":1,""time"":1309}]",NA,NA,NA,NA,NA,6,#3386FF,#D89F1C,0,10,0,40,0,1525.9000000000233,37,1,344,0,0,experiment,NA,NA,1,0.3,0.7,3,2,63,2,NA
fcp-trial,97,569353,0.0-72.0-0.0,voc_e2,12077,"[{""event"":""fullscreenenter"",""trial"":1,""time"":1309}]",NA,NA,NA,NA,NA,3,#D8271C,#741CD8,10,0,1,38,1,657.5,37,1,397.0999999999767,10,1,experiment,NA,NA,0,0.9,0.1,0,1,64,2,NA
fcp-trial,98,572101,0.0-73.0-0.0,voc_e2,12077,"[{""event"":""fullscreenenter"",""trial"":1,""time"":1309}]",NA,NA,NA,NA,NA,0,#D89F1C,#3386FF,10,0,1,38,1,867.6999999999534,37,1,368,10,1,experiment,NA,NA,1,0.7,0.3,2,3,65,2,NA
fcp-trial,99,574730,0.0-74.0-0.0,voc_e2,12077,"[{""event"":""fullscreenenter"",""trial"":1,""time"":1309}]",NA,NA,NA,NA,NA,4,#3386FF,#D89F1C,0,10,0,38,1,804.6000000000931,39,0,311.5999999999767,10,1,experiment,NA,NA,1,0.3,0.7,3,2,66,2,NA
fcp-trial,100,577990,0.0-75.0-0.0,voc_e2,12077,"[{""event"":""fullscreenenter"",""trial"":1,""time"":1309}]",NA,NA,NA,NA,NA,6,#1CD855,#FA92F8,0,10,0,40,0,1350.1000000000931,39,0,400.29999999993015,10,1,experiment,NA,NA,2,0.5,0.5,5,4,67,2,NA
fcp-trial,101,580500,0.0-76.0-0.0,voc_e2,12077,"[{""event"":""fullscreenenter"",""trial"":1,""time"":1309}]",NA,NA,NA,NA,NA,2,#D8271C,#741CD8,10,0,1,38,1,689.1999999999534,37,1,309.5999999999767,10,1,experiment,NA,NA,0,0.9,0.1,0,1,68,2,NA
fcp-trial,102,583314,0.0-77.0-0.0,voc_e2,12077,"[{""event"":""fullscreenenter"",""trial"":1,""time"":1309}]",NA,NA,NA,NA,NA,2,#FA92F8,#1CD855,10,10,1,38,1,679.5,37,1,624.9000000000233,10,1,experiment,NA,NA,2,0.5,0.5,4,5,69,2,NA
fcp-trial,103,586459,0.0-78.0-0.0,voc_e2,12077,"[{""event"":""fullscreenenter"",""trial"":1,""time"":1309}]",NA,NA,NA,NA,NA,0,#741CD8,#D8271C,0,0,0,38,1,1331.8999999999069,39,0,302.5,0,1,experiment,NA,NA,0,0.1,0.9,1,0,70,2,NA
fcp-trial,104,589215,0.0-79.0-0.0,voc_e2,12077,"[{""event"":""fullscreenenter"",""trial"":1,""time"":1309}]",NA,NA,NA,NA,NA,2,#D89F1C,#3386FF,10,10,1,38,1,913,37,1,331.80000000004657,10,1,experiment,NA,NA,1,0.7,0.3,2,3,71,2,NA
fcp-trial,105,592543,0.0-80.0-0.0,voc_e2,12077,"[{""event"":""fullscreenenter"",""trial"":1,""time"":1309}]",NA,NA,NA,NA,NA,0,#FA92F8,#1CD855,0,0,1,38,1,1064.6000000000931,39,0,754.4000000000233,0,0,experiment,NA,NA,2,0.5,0.5,4,5,72,2,NA
fcp-trial,106,598294,0.0-81.0-0.0,voc_e2,12077,"[{""event"":""fullscreenenter"",""trial"":1,""time"":1309}]",NA,NA,NA,NA,NA,1,#741CD8,#D8271C,0,10,0,38,1,3877.9000000000233,39,0,365.10000000009313,10,1,experiment,NA,NA,0,0.1,0.9,1,0,73,2,NA
fcp-trial,107,601917,0.0-82.0-0.0,voc_e2,12077,"[{""event"":""fullscreenenter"",""trial"":1,""time"":1309}]",NA,NA,NA,NA,NA,5,#D89F1C,#3386FF,10,0,1,40,0,1199.1000000000931,39,0,912.4000000000233,0,0,experiment,NA,NA,1,0.7,0.3,2,3,74,2,NA
fcp-trial,108,606388,0.0-83.0-0.0,voc_e2,12077,"[{""event"":""fullscreenenter"",""trial"":1,""time"":1309}]",NA,NA,NA,NA,NA,3,#FA92F8,#1CD855,0,10,1,40,0,2594.5,37,1,364.5,0,1,experiment,NA,NA,2,0.5,0.5,4,5,75,2,NA
fcp-trial,109,609328,0.0-84.0-0.0,voc_e2,12077,"[{""event"":""fullscreenenter"",""trial"":1,""time"":1309}]",NA,NA,NA,NA,NA,4,#741CD8,#D8271C,0,10,0,38,1,939,39,0,488.69999999995343,10,1,experiment,NA,NA,0,0.1,0.9,1,0,76,2,NA
fcp-trial,110,624339,0.0-85.0-0.0,voc_e2,12077,"[{""event"":""fullscreenenter"",""trial"":1,""time"":1309}]",NA,NA,NA,NA,NA,1,#FA92F8,#1CD855,0,0,1,null,null,null,null,null,null,NA,0,experiment,NA,NA,2,0.5,0.5,4,5,77,2,NA
fcp-trial,111,639346,0.0-86.0-0.0,voc_e2,12077,"[{""event"":""fullscreenenter"",""trial"":1,""time"":1309}]",NA,NA,NA,NA,NA,6,#D89F1C,#3386FF,0,0,1,null,null,null,null,null,null,NA,0,experiment,NA,NA,1,0.7,0.3,2,3,78,2,NA
fcp-trial,112,643390,0.0-87.0-0.0,voc_e2,12077,"[{""event"":""fullscreenenter"",""trial"":1,""time"":1309}]",NA,NA,NA,NA,NA,5,#D8271C,#741CD8,10,0,1,38,1,2082.1999999999534,37,1,448.19999999995343,10,1,experiment,NA,NA,0,0.9,0.1,0,1,79,2,NA
fcp-trial,113,652512,0.0-88.0-0.0,voc_e2,12077,"[{""event"":""fullscreenenter"",""trial"":1,""time"":1309}]",NA,NA,NA,NA,NA,6,#741CD8,#D8271C,0,10,0,38,1,1664.8999999999069,39,0,5945,10,1,experiment,NA,NA,0,0.1,0.9,1,0,80,2,NA
fcp-trial,114,657745,0.0-89.0-0.0,voc_e2,12077,"[{""event"":""fullscreenenter"",""trial"":1,""time"":1309}]",NA,NA,NA,NA,NA,5,#FA92F8,#1CD855,0,0,1,40,0,3388,37,1,332.39999999990687,0,1,experiment,NA,NA,2,0.5,0.5,4,5,81,2,NA
fcp-trial,115,663298,0.0-90.0-0.0,voc_e2,12077,"[{""event"":""fullscreenenter"",""trial"":1,""time"":1309}]",NA,NA,NA,NA,NA,3,#D89F1C,#3386FF,10,0,1,38,1,2527.4000000001397,37,1,1513.6999999999534,10,1,experiment,NA,NA,1,0.7,0.3,2,3,82,2,NA
fcp-trial,116,670089,0.0-91.0-0.0,voc_e2,12077,"[{""event"":""fullscreenenter"",""trial"":1,""time"":1309}]",NA,NA,NA,NA,NA,4,#1CD855,#FA92F8,10,0,0,40,0,4904.90000000014,37,1,375.10000000009313,10,0,experiment,NA,NA,2,0.5,0.5,5,4,83,2,NA
fcp-trial,117,675402,0.0-92.0-0.0,voc_e2,12077,"[{""event"":""fullscreenenter"",""trial"":1,""time"":1309}]",NA,NA,NA,NA,NA,1,#D89F1C,#3386FF,0,10,1,40,0,3074.6999999999534,37,1,726.3000000000466,0,1,experiment,NA,NA,1,0.7,0.3,2,3,84,2,NA
fcp-trial,118,683822,0.0-93.0-0.0,voc_e2,12077,"[{""event"":""fullscreenenter"",""trial"":1,""time"":1309}]",NA,NA,NA,NA,NA,3,#D8271C,#741CD8,10,0,1,38,1,6517.300000000047,37,1,389.89999999990687,10,1,experiment,NA,NA,0,0.9,0.1,0,1,85,2,NA
fcp-trial,119,687245,0.0-94.0-0.0,voc_e2,12077,"[{""event"":""fullscreenenter"",""trial"":1,""time"":1309}]",NA,NA,NA,NA,NA,3,#3386FF,#D89F1C,0,10,0,38,1,1421.3000000000466,39,0,486.9000000001397,10,1,experiment,NA,NA,1,0.3,0.7,3,2,86,2,NA
fcp-trial,120,690109,0.0-95.0-0.0,voc_e2,12077,"[{""event"":""fullscreenenter"",""trial"":1,""time"":1309}]",NA,NA,NA,NA,NA,1,#D8271C,#741CD8,10,0,1,38,1,844.3000000000466,37,1,506.0999999998603,10,1,experiment,NA,NA,0,0.9,0.1,0,1,87,2,NA
fcp-trial,121,694662,0.0-96.0-0.0,voc_e2,12077,"[{""event"":""fullscreenenter"",""trial"":1,""time"":1309}]",NA,NA,NA,NA,NA,0,#741CD8,#D8271C,0,0,0,40,0,2311.1999999999534,37,1,731.0999999998603,0,0,experiment,NA,NA,0,0.1,0.9,1,0,88,2,NA
fcp-trial,122,699154,0.0-97.0-0.0,voc_e2,12077,"[{""event"":""fullscreenenter"",""trial"":1,""time"":1309}]",NA,NA,NA,NA,NA,5,#3386FF,#D89F1C,0,10,0,40,0,2564.4000000001397,39,0,415.39999999990687,10,1,experiment,NA,NA,1,0.3,0.7,3,2,89,2,NA
fcp-trial,123,702539,0.0-98.0-0.0,voc_e2,12077,"[{""event"":""fullscreenenter"",""trial"":1,""time"":1309}]",NA,NA,NA,NA,NA,1,#FA92F8,#1CD855,0,10,1,38,1,1294,37,1,580,0,1,experiment,NA,NA,2,0.5,0.5,4,5,90,2,NA
fcp-trial,124,705140,0.0-99.0-0.0,voc_e2,12077,"[{""event"":""fullscreenenter"",""trial"":1,""time"":1309}]",NA,NA,NA,NA,NA,4,#1CD855,#FA92F8,0,0,0,40,0,721.9000000001397,39,0,365.70000000018626,0,1,experiment,NA,NA,2,0.5,0.5,5,4,91,3,NA
fcp-trial,125,707925,0.0-100.0-0.0,voc_e2,12077,"[{""event"":""fullscreenenter"",""trial"":1,""time"":1309}]",NA,NA,NA,NA,NA,6,#D89F1C,#3386FF,10,0,1,40,0,870.5999999998603,37,1,402.0999999998603,10,1,experiment,NA,NA,1,0.7,0.3,2,3,92,3,NA
fcp-trial,126,711378,0.0-101.0-0.0,voc_e2,12077,"[{""event"":""fullscreenenter"",""trial"":1,""time"":1309}]",NA,NA,NA,NA,NA,6,#D8271C,#741CD8,10,10,1,38,1,1637.8000000000466,37,1,302.89999999990687,10,1,experiment,NA,NA,0,0.9,0.1,0,1,93,3,NA
fcp-trial,127,714992,0.0-102.0-0.0,voc_e2,12077,"[{""event"":""fullscreenenter"",""trial"":1,""time"":1309}]",NA,NA,NA,NA,NA,0,#3386FF,#D89F1C,10,0,0,40,0,1696.1000000000931,39,0,410.39999999990687,0,1,experiment,NA,NA,1,0.3,0.7,3,2,94,3,NA
fcp-trial,128,717492,0.0-103.0-0.0,voc_e2,12077,"[{""event"":""fullscreenenter"",""trial"":1,""time"":1309}]",NA,NA,NA,NA,NA,2,#741CD8,#D8271C,0,10,0,38,1,610.2999999998137,39,0,380.30000000004657,10,1,experiment,NA,NA,0,0.1,0.9,1,0,95,3,NA
fcp-trial,129,720923,0.0-104.0-0.0,voc_e2,12077,"[{""event"":""fullscreenenter"",""trial"":1,""time"":1309}]",NA,NA,NA,NA,NA,2,#FA92F8,#1CD855,10,0,1,38,1,1538.6000000000931,39,0,379,0,0,experiment,NA,NA,2,0.5,0.5,4,5,96,3,NA
fcp-trial,130,723259,0.0-105.0-0.0,voc_e2,12077,"[{""event"":""fullscreenenter"",""trial"":1,""time"":1309}]",NA,NA,NA,NA,NA,6,#FA92F8,#1CD855,0,10,1,38,1,432.80000000004657,37,1,393.69999999995343,0,1,experiment,NA,NA,2,0.5,0.5,4,5,97,3,NA
fcp-trial,131,726214,0.0-106.0-0.0,voc_e2,12077,"[{""event"":""fullscreenenter"",""trial"":1,""time"":1309}]",NA,NA,NA,NA,NA,2,#D89F1C,#3386FF,10,0,1,40,0,992.6999999999534,37,1,453.39999999990687,10,1,experiment,NA,NA,1,0.7,0.3,2,3,98,3,NA
fcp-trial,132,729025,0.0-107.0-0.0,voc_e2,12077,"[{""event"":""fullscreenenter"",""trial"":1,""time"":1309}]",NA,NA,NA,NA,NA,4,#741CD8,#D8271C,0,10,0,38,1,918.7999999998137,39,0,381.5,10,1,experiment,NA,NA,0,0.1,0.9,1,0,99,3,NA
fcp-trial,133,732059,0.0-108.0-0.0,voc_e2,12077,"[{""event"":""fullscreenenter"",""trial"":1,""time"":1309}]",NA,NA,NA,NA,NA,1,#D89F1C,#3386FF,10,0,1,38,1,1119.1000000000931,37,1,403.5,10,1,experiment,NA,NA,1,0.7,0.3,2,3,100,3,NA
fcp-trial,134,734760,0.0-109.0-0.0,voc_e2,12077,"[{""event"":""fullscreenenter"",""trial"":1,""time"":1309}]",NA,NA,NA,NA,NA,5,#1CD855,#FA92F8,0,10,0,38,1,773.5999999998603,39,0,414.10000000009313,10,1,experiment,NA,NA,2,0.5,0.5,5,4,101,3,NA
fcp-trial,135,737437,0.0-110.0-0.0,voc_e2,12077,"[{""event"":""fullscreenenter"",""trial"":1,""time"":1309}]",NA,NA,NA,NA,NA,0,#1CD855,#FA92F8,0,10,0,38,1,759.3000000000466,39,0,405.0999999998603,10,1,experiment,NA,NA,2,0.5,0.5,5,4,102,3,NA
fcp-trial,136,740548,0.0-111.0-0.0,voc_e2,12077,"[{""event"":""fullscreenenter"",""trial"":1,""time"":1309}]",NA,NA,NA,NA,NA,4,#D89F1C,#3386FF,10,0,1,40,0,1236.8000000000466,37,1,360.5,10,1,experiment,NA,NA,1,0.7,0.3,2,3,103,3,NA
fcp-trial,137,743093,0.0-112.0-0.0,voc_e2,12077,"[{""event"":""fullscreenenter"",""trial"":1,""time"":1309}]",NA,NA,NA,NA,NA,5,#741CD8,#D8271C,0,10,0,38,1,663.6999999999534,39,0,368.9000000001397,10,1,experiment,NA,NA,0,0.1,0.9,1,0,104,3,NA
fcp-trial,138,747025,0.0-113.0-0.0,voc_e2,12077,"[{""event"":""fullscreenenter"",""trial"":1,""time"":1309}]",NA,NA,NA,NA,NA,3,#FA92F8,#1CD855,10,10,1,38,1,2041.4000000001397,37,1,381.4000000001397,10,1,experiment,NA,NA,2,0.5,0.5,4,5,105,3,NA
audio-instructions,139,754561,0.0-114.0,voc_e2,12077,"[{""event"":""fullscreenenter"",""trial"":1,""time"":1309}]",NA,3062.9000000001397,static/audio/pause.wav,NA,0,NA,NA,NA,NA,NA,NA,NA,NA,NA,NA,NA,NA,NA,NA,NA,NA,NA,NA,NA,NA,NA,NA,NA,NA,NA
fcp-trial,140,757683,0.0-115.0-0.0,voc_e2,12077,"[{""event"":""fullscreenenter"",""trial"":1,""time"":1309}]",NA,NA,NA,NA,NA,6,#FA92F8,#1CD855,0,10,1,40,0,1182.1000000000931,37,1,430.19999999995343,0,1,experiment,NA,NA,2,0.5,0.5,4,5,106,3,NA
fcp-trial,141,761795,0.0-116.0-0.0,voc_e2,12077,"[{""event"":""fullscreenenter"",""trial"":1,""time"":1309}]",NA,NA,NA,NA,NA,6,#D89F1C,#3386FF,10,10,1,40,0,2222.5,39,0,379,10,0,experiment,NA,NA,1,0.7,0.3,2,3,107,3,NA
fcp-trial,142,765773,0.0-117.0-0.0,voc_e2,12077,"[{""event"":""fullscreenenter"",""trial"":1,""time"":1309}]",NA,NA,NA,NA,NA,3,#D8271C,#741CD8,10,0,1,40,0,2127.2000000001863,37,1,339.19999999995343,10,1,experiment,NA,NA,0,0.9,0.1,0,1,108,3,NA
fcp-trial,143,768495,0.0-118.0-0.0,voc_e2,12077,"[{""event"":""fullscreenenter"",""trial"":1,""time"":1309}]",NA,NA,NA,NA,NA,4,#D8271C,#741CD8,0,0,1,40,0,840.6000000000931,37,1,368.10000000009313,0,1,experiment,NA,NA,0,0.9,0.1,0,1,109,3,NA
fcp-trial,144,771230,0.0-119.0-0.0,voc_e2,12077,"[{""event"":""fullscreenenter"",""trial"":1,""time"":1309}]",NA,NA,NA,NA,NA,4,#1CD855,#FA92F8,0,0,0,40,0,771.6999999999534,37,1,451.10000000009313,0,0,experiment,NA,NA,2,0.5,0.5,5,4,110,3,NA
fcp-trial,145,773792,0.0-120.0-0.0,voc_e2,12077,"[{""event"":""fullscreenenter"",""trial"":1,""time"":1309}]",NA,NA,NA,NA,NA,1,#D89F1C,#3386FF,10,0,1,40,0,668.3000000000466,37,1,381.5,10,1,experiment,NA,NA,1,0.7,0.3,2,3,111,3,NA
fcp-trial,146,776645,0.0-121.0-0.0,voc_e2,12077,"[{""event"":""fullscreenenter"",""trial"":1,""time"":1309}]",NA,NA,NA,NA,NA,2,#D89F1C,#3386FF,0,0,1,40,0,911.8999999999069,39,0,426.60000000009313,0,0,experiment,NA,NA,1,0.7,0.3,2,3,112,3,NA
fcp-trial,147,779239,0.0-122.0-0.0,voc_e2,12077,"[{""event"":""fullscreenenter"",""trial"":1,""time"":1309}]",NA,NA,NA,NA,NA,6,#741CD8,#D8271C,0,0,0,40,0,690.1999999999534,37,1,393.89999999990687,0,0,experiment,NA,NA,0,0.1,0.9,1,0,113,3,NA
fcp-trial,148,781804,0.0-123.0-0.0,voc_e2,12077,"[{""event"":""fullscreenenter"",""trial"":1,""time"":1309}]",NA,NA,NA,NA,NA,3,#FA92F8,#1CD855,0,0,1,40,0,619.3000000000466,39,0,437.0999999998603,0,0,experiment,NA,NA,2,0.5,0.5,4,5,114,3,NA
fcp-trial,149,785292,0.0-124.0-0.0,voc_e2,12077,"[{""event"":""fullscreenenter"",""trial"":1,""time"":1309}]",NA,NA,NA,NA,NA,0,#741CD8,#D8271C,10,10,0,38,1,1626.8000000000466,39,0,349.79999999981374,10,1,experiment,NA,NA,0,0.1,0.9,1,0,115,3,NA
fcp-trial,150,788066,0.0-125.0-0.0,voc_e2,12077,"[{""event"":""fullscreenenter"",""trial"":1,""time"":1309}]",NA,NA,NA,NA,NA,4,#D89F1C,#3386FF,0,0,1,40,0,898.3000000000466,39,0,364.0999999998603,0,0,experiment,NA,NA,1,0.7,0.3,2,3,116,3,NA
fcp-trial,151,790869,0.0-126.0-0.0,voc_e2,12077,"[{""event"":""fullscreenenter"",""trial"":1,""time"":1309}]",NA,NA,NA,NA,NA,5,#FA92F8,#1CD855,10,10,1,40,0,846.6999999999534,39,0,445,10,0,experiment,NA,NA,2,0.5,0.5,4,5,117,3,NA
fcp-trial,152,793964,0.0-127.0-0.0,voc_e2,12077,"[{""event"":""fullscreenenter"",""trial"":1,""time"":1309}]",NA,NA,NA,NA,NA,1,#FA92F8,#1CD855,0,0,1,40,0,1007.8999999999069,37,1,575.6000000000931,0,1,experiment,NA,NA,2,0.5,0.5,4,5,118,3,NA
fcp-trial,153,797051,0.0-128.0-0.0,voc_e2,12077,"[{""event"":""fullscreenenter"",""trial"":1,""time"":1309}]",NA,NA,NA,NA,NA,5,#3386FF,#D89F1C,10,0,0,40,0,863.8999999999069,37,1,710.8000000000466,10,0,experiment,NA,NA,1,0.3,0.7,3,2,119,3,NA
fcp-trial,154,800280,0.0-129.0-0.0,voc_e2,12077,"[{""event"":""fullscreenenter"",""trial"":1,""time"":1309}]",NA,NA,NA,NA,NA,5,#741CD8,#D8271C,0,10,0,38,1,947.5,39,0,770.3999999999069,10,1,experiment,NA,NA,0,0.1,0.9,1,0,120,3,NA
fcp-trial,155,804234,0.0-130.0-0.0,voc_e2,12077,"[{""event"":""fullscreenenter"",""trial"":1,""time"":1309}]",NA,NA,NA,NA,NA,3,#3386FF,#D89F1C,0,10,0,40,0,1736.4000000001397,37,1,705.2999999998137,0,0,experiment,NA,NA,1,0.3,0.7,3,2,121,3,NA
fcp-trial,156,808264,0.0-131.0-0.0,voc_e2,12077,"[{""event"":""fullscreenenter"",""trial"":1,""time"":1309}]",NA,NA,NA,NA,NA,0,#D89F1C,#3386FF,0,0,1,38,1,1068.8999999999069,39,0,1450.3999999999069,0,0,experiment,NA,NA,1,0.7,0.3,2,3,122,3,NA
fcp-trial,157,811676,0.0-132.0-0.0,voc_e2,12077,"[{""event"":""fullscreenenter"",""trial"":1,""time"":1309}]",NA,NA,NA,NA,NA,0,#FA92F8,#1CD855,0,0,1,38,1,1539.8999999999069,37,1,362.10000000009313,0,1,experiment,NA,NA,2,0.5,0.5,4,5,123,3,NA
fcp-trial,158,815152,0.0-133.0-0.0,voc_e2,12077,"[{""event"":""fullscreenenter"",""trial"":1,""time"":1309}]",NA,NA,NA,NA,NA,2,#741CD8,#D8271C,0,10,0,38,1,1610.1999999999534,39,0,354,10,1,experiment,NA,NA,0,0.1,0.9,1,0,124,3,NA
fcp-trial,159,818447,0.0-134.0-0.0,voc_e2,12077,"[{""event"":""fullscreenenter"",""trial"":1,""time"":1309}]",NA,NA,NA,NA,NA,1,#741CD8,#D8271C,10,10,0,38,1,1269.1000000000931,39,0,514.9000000001397,10,1,experiment,NA,NA,0,0.1,0.9,1,0,125,3,NA
fcp-trial,160,821692,0.0-135.0-0.0,voc_e2,12077,"[{""event"":""fullscreenenter"",""trial"":1,""time"":1309}]",NA,NA,NA,NA,NA,2,#1CD855,#FA92F8,10,10,0,38,1,1020,39,0,712.8999999999069,10,1,experiment,NA,NA,2,0.5,0.5,5,4,126,3,NA
fcp-trial,161,824816,0.0-136.0-0.0,voc_e2,12077,"[{""event"":""fullscreenenter"",""trial"":1,""time"":1309}]",NA,NA,NA,NA,NA,2,#D89F1C,#3386FF,0,10,1,38,1,768.8999999999069,39,0,843.3000000000466,10,0,experiment,NA,NA,1,0.7,0.3,2,3,127,3,NA
fcp-trial,162,828162,0.0-137.0-0.0,voc_e2,12077,"[{""event"":""fullscreenenter"",""trial"":1,""time"":1309}]",NA,NA,NA,NA,NA,5,#D8271C,#741CD8,10,0,1,38,1,1437.9000000001397,37,1,395.0999999998603,10,1,experiment,NA,NA,0,0.9,0.1,0,1,128,3,NA
fcp-trial,163,831551,0.0-138.0-0.0,voc_e2,12077,"[{""event"":""fullscreenenter"",""trial"":1,""time"":1309}]",NA,NA,NA,NA,NA,6,#FA92F8,#1CD855,10,0,1,38,1,1369.3999999999069,39,0,511.69999999995343,0,0,experiment,NA,NA,2,0.5,0.5,4,5,129,3,NA
fcp-trial,164,834603,0.0-139.0-0.0,voc_e2,12077,"[{""event"":""fullscreenenter"",""trial"":1,""time"":1309}]",NA,NA,NA,NA,NA,6,#3386FF,#D89F1C,10,10,0,38,1,909.1000000000931,39,0,634.6999999999534,10,1,experiment,NA,NA,1,0.3,0.7,3,2,130,3,NA
fcp-trial,165,837912,0.0-140.0-0.0,voc_e2,12077,"[{""event"":""fullscreenenter"",""trial"":1,""time"":1309}]",NA,NA,NA,NA,NA,5,#FA92F8,#1CD855,10,0,1,38,1,1436,37,1,362.70000000018626,10,1,experiment,NA,NA,2,0.5,0.5,4,5,131,3,NA
fcp-trial,166,840645,0.0-141.0-0.0,voc_e2,12077,"[{""event"":""fullscreenenter"",""trial"":1,""time"":1309}]",NA,NA,NA,NA,NA,0,#D8271C,#741CD8,10,0,1,38,1,704.0999999998603,39,0,520.2000000001863,0,0,experiment,NA,NA,0,0.9,0.1,0,1,132,3,NA
fcp-trial,167,843125,0.0-142.0-0.0,voc_e2,12077,"[{""event"":""fullscreenenter"",""trial"":1,""time"":1309}]",NA,NA,NA,NA,NA,5,#3386FF,#D89F1C,0,10,0,38,1,529,37,1,441.80000000004657,0,0,experiment,NA,NA,1,0.3,0.7,3,2,133,3,NA
fcp-trial,168,846208,0.0-143.0-0.0,voc_e2,12077,"[{""event"":""fullscreenenter"",""trial"":1,""time"":1309}]",NA,NA,NA,NA,NA,0,#1CD855,#FA92F8,10,10,0,38,1,487.39999999990687,39,0,1087.1000000000931,10,1,experiment,NA,NA,2,0.5,0.5,5,4,134,3,NA
fcp-trial,169,849251,0.0-144.0-0.0,voc_e2,12077,"[{""event"":""fullscreenenter"",""trial"":1,""time"":1309}]",NA,NA,NA,NA,NA,1,#D89F1C,#3386FF,10,10,1,38,1,595,37,1,938.8999999999069,10,1,experiment,NA,NA,1,0.7,0.3,2,3,135,3,NA
fcp-trial,170,853318,0.0-145.0-0.0,voc_e2,12077,"[{""event"":""fullscreenenter"",""trial"":1,""time"":1309}]",NA,NA,NA,NA,NA,3,#FA92F8,#1CD855,0,0,1,38,1,1597.1000000000931,39,0,958.8000000000466,0,0,experiment,NA,NA,2,0.5,0.5,4,5,136,4,NA
fcp-trial,171,856064,0.0-146.0-0.0,voc_e2,12077,"[{""event"":""fullscreenenter"",""trial"":1,""time"":1309}]",NA,NA,NA,NA,NA,1,#741CD8,#D8271C,0,10,0,38,1,513.3000000000466,39,0,722,10,1,experiment,NA,NA,0,0.1,0.9,1,0,137,4,NA
fcp-trial,172,859259,0.0-147.0-0.0,voc_e2,12077,"[{""event"":""fullscreenenter"",""trial"":1,""time"":1309}]",NA,NA,NA,NA,NA,4,#741CD8,#D8271C,10,10,0,40,0,1232,39,0,456.60000000009313,10,1,experiment,NA,NA,0,0.1,0.9,1,0,138,4,NA
fcp-trial,173,862228,0.0-148.0-0.0,voc_e2,12077,"[{""event"":""fullscreenenter"",""trial"":1,""time"":1309}]",NA,NA,NA,NA,NA,1,#1CD855,#FA92F8,0,10,0,38,1,951.1999999999534,37,1,504.5,0,0,experiment,NA,NA,2,0.5,0.5,5,4,139,4,NA
fcp-trial,174,864899,0.0-149.0-0.0,voc_e2,12077,"[{""event"":""fullscreenenter"",""trial"":1,""time"":1309}]",NA,NA,NA,NA,NA,3,#3386FF,#D89F1C,0,10,0,38,1,793.1999999999534,39,0,367,10,1,experiment,NA,NA,1,0.3,0.7,3,2,140,4,NA
fcp-trial,175,867392,0.0-150.0-0.0,voc_e2,12077,"[{""event"":""fullscreenenter"",""trial"":1,""time"":1309}]",NA,NA,NA,NA,NA,3,#741CD8,#D8271C,0,10,0,38,1,617.5999999998603,39,0,365.30000000004657,10,1,experiment,NA,NA,0,0.1,0.9,1,0,141,4,NA
fcp-trial,176,869852,0.0-151.0-0.0,voc_e2,12077,"[{""event"":""fullscreenenter"",""trial"":1,""time"":1309}]",NA,NA,NA,NA,NA,2,#1CD855,#FA92F8,0,10,0,38,1,563.9000000001397,37,1,383.9000000001397,0,0,experiment,NA,NA,2,0.5,0.5,5,4,142,4,NA
fcp-trial,177,872347,0.0-152.0-0.0,voc_e2,12077,"[{""event"":""fullscreenenter"",""trial"":1,""time"":1309}]",NA,NA,NA,NA,NA,4,#FA92F8,#1CD855,10,10,1,38,1,637.3999999999069,39,0,345.79999999981374,10,0,experiment,NA,NA,2,0.5,0.5,4,5,143,4,NA
fcp-trial,178,876883,0.0-153.0-0.0,voc_e2,12077,"[{""event"":""fullscreenenter"",""trial"":1,""time"":1309}]",NA,NA,NA,NA,NA,0,#3386FF,#D89F1C,0,10,0,38,1,864.1000000000931,39,0,2159.7999999998137,10,1,experiment,NA,NA,1,0.3,0.7,3,2,144,4,NA
fcp-trial,179,881235,0.0-154.0-0.0,voc_e2,12077,"[{""event"":""fullscreenenter"",""trial"":1,""time"":1309}]",NA,NA,NA,NA,NA,6,#D8271C,#741CD8,10,0,1,40,0,2434.8000000000466,37,1,405.5,10,1,experiment,NA,NA,0,0.9,0.1,0,1,145,4,NA
fcp-trial,180,884463,0.0-155.0-0.0,voc_e2,12077,"[{""event"":""fullscreenenter"",""trial"":1,""time"":1309}]",NA,NA,NA,NA,NA,2,#D8271C,#741CD8,10,0,1,40,0,966.1999999999534,39,0,750.5,0,0,experiment,NA,NA,0,0.9,0.1,0,1,146,4,NA
fcp-trial,181,887355,0.0-156.0-0.0,voc_e2,12077,"[{""event"":""fullscreenenter"",""trial"":1,""time"":1309}]",NA,NA,NA,NA,NA,4,#D89F1C,#3386FF,10,0,1,40,0,978,37,1,402.69999999995343,10,1,experiment,NA,NA,1,0.7,0.3,2,3,147,4,NA
fcp-trial,182,890171,0.0-157.0-0.0,voc_e2,12077,"[{""event"":""fullscreenenter"",""trial"":1,""time"":1309}]",NA,NA,NA,NA,NA,4,#D89F1C,#3386FF,10,0,1,40,0,834.3999999999069,37,1,470.5,10,1,experiment,NA,NA,1,0.7,0.3,2,3,148,4,NA
fcp-trial,183,892794,0.0-158.0-0.0,voc_e2,12077,"[{""event"":""fullscreenenter"",""trial"":1,""time"":1309}]",NA,NA,NA,NA,NA,4,#D8271C,#741CD8,10,0,1,40,0,693.7000000001863,39,0,417.4000000001397,0,0,experiment,NA,NA,0,0.9,0.1,0,1,149,4,NA
fcp-trial,184,895939,0.0-159.0-0.0,voc_e2,12077,"[{""event"":""fullscreenenter"",""trial"":1,""time"":1309}]",NA,NA,NA,NA,NA,3,#1CD855,#FA92F8,0,10,0,40,0,1156,39,0,476.89999999990687,10,1,experiment,NA,NA,2,0.5,0.5,5,4,150,4,NA
fcp-trial,185,898885,0.0-160.0-0.0,voc_e2,12077,"[{""event"":""fullscreenenter"",""trial"":1,""time"":1309}]",NA,NA,NA,NA,NA,5,#3386FF,#D89F1C,0,0,0,40,0,600,37,1,835.1999999999534,0,0,experiment,NA,NA,1,0.3,0.7,3,2,151,4,NA
fcp-trial,186,901609,0.0-161.0-0.0,voc_e2,12077,"[{""event"":""fullscreenenter"",""trial"":1,""time"":1309}]",NA,NA,NA,NA,NA,1,#D8271C,#741CD8,10,0,1,38,1,791.6999999999534,37,1,421.89999999990687,10,1,experiment,NA,NA,0,0.9,0.1,0,1,152,4,NA
fcp-trial,187,904489,0.0-162.0-0.0,voc_e2,12077,"[{""event"":""fullscreenenter"",""trial"":1,""time"":1309}]",NA,NA,NA,NA,NA,2,#741CD8,#D8271C,0,10,0,38,1,907.1000000000931,39,0,459.9000000001397,10,1,experiment,NA,NA,0,0.1,0.9,1,0,153,4,NA
fcp-trial,188,908642,0.0-163.0-0.0,voc_e2,12077,"[{""event"":""fullscreenenter"",""trial"":1,""time"":1309}]",NA,NA,NA,NA,NA,0,#1CD855,#FA92F8,0,0,0,38,1,1648.6999999999534,37,1,993.8999999999069,0,0,experiment,NA,NA,2,0.5,0.5,5,4,154,4,NA
fcp-trial,189,911491,0.0-164.0-0.0,voc_e2,12077,"[{""event"":""fullscreenenter"",""trial"":1,""time"":1309}]",NA,NA,NA,NA,NA,6,#3386FF,#D89F1C,0,10,0,38,1,816.3000000000466,39,0,520.2999999998137,10,1,experiment,NA,NA,1,0.3,0.7,3,2,155,4,NA
fcp-trial,190,914592,0.0-165.0-0.0,voc_e2,12077,"[{""event"":""fullscreenenter"",""trial"":1,""time"":1309}]",NA,NA,NA,NA,NA,3,#741CD8,#D8271C,0,10,0,40,0,1214.5,39,0,374.5,10,1,experiment,NA,NA,0,0.1,0.9,1,0,156,4,NA
fcp-trial,191,917277,0.0-166.0-0.0,voc_e2,12077,"[{""event"":""fullscreenenter"",""trial"":1,""time"":1309}]",NA,NA,NA,NA,NA,1,#3386FF,#D89F1C,10,10,0,40,0,705.1999999999534,37,1,469.10000000009313,10,0,experiment,NA,NA,1,0.3,0.7,3,2,157,4,NA
fcp-trial,192,921543,0.0-167.0-0.0,voc_e2,12077,"[{""event"":""fullscreenenter"",""trial"":1,""time"":1309}]",NA,NA,NA,NA,NA,5,#D8271C,#741CD8,10,10,1,38,1,2347.8000000000466,37,1,408.5,10,1,experiment,NA,NA,0,0.9,0.1,0,1,158,4,NA
fcp-trial,193,925354,0.0-168.0-0.0,voc_e2,12077,"[{""event"":""fullscreenenter"",""trial"":1,""time"":1309}]",NA,NA,NA,NA,NA,2,#FA92F8,#1CD855,10,10,1,38,1,1646.3999999999069,37,1,652.3999999999069,10,1,experiment,NA,NA,2,0.5,0.5,4,5,159,4,NA
fcp-trial,194,928770,0.0-169.0-0.0,voc_e2,12077,"[{""event"":""fullscreenenter"",""trial"":1,""time"":1309}]",NA,NA,NA,NA,NA,4,#1CD855,#FA92F8,0,0,0,38,1,961.5,39,0,943.1999999999534,0,1,experiment,NA,NA,2,0.5,0.5,5,4,160,4,NA
fcp-trial,195,932538,0.0-170.0-0.0,voc_e2,12077,"[{""event"":""fullscreenenter"",""trial"":1,""time"":1309}]",NA,NA,NA,NA,NA,0,#3386FF,#D89F1C,10,10,0,38,1,1845.5,37,1,409.5,10,0,experiment,NA,NA,1,0.3,0.7,3,2,161,4,NA
fcp-trial,196,935383,0.0-171.0-0.0,voc_e2,12077,"[{""event"":""fullscreenenter"",""trial"":1,""time"":1309}]",NA,NA,NA,NA,NA,0,#D8271C,#741CD8,0,0,1,38,1,766.1000000000931,37,1,566.5,0,1,experiment,NA,NA,0,0.9,0.1,0,1,162,4,NA
fcp-trial,197,938029,0.0-172.0-0.0,voc_e2,12077,"[{""event"":""fullscreenenter"",""trial"":1,""time"":1309}]",NA,NA,NA,NA,NA,2,#3386FF,#D89F1C,0,10,0,38,1,715.6000000000931,39,0,419,10,1,experiment,NA,NA,1,0.3,0.7,3,2,163,4,NA
fcp-trial,198,940701,0.0-173.0-0.0,voc_e2,12077,"[{""event"":""fullscreenenter"",""trial"":1,""time"":1309}]",NA,NA,NA,NA,NA,6,#741CD8,#D8271C,0,10,0,38,1,786.6000000000931,39,0,375.89999999990687,10,1,experiment,NA,NA,0,0.1,0.9,1,0,164,4,NA
fcp-trial,199,943723,0.0-174.0-0.0,voc_e2,12077,"[{""event"":""fullscreenenter"",""trial"":1,""time"":1309}]",NA,NA,NA,NA,NA,1,#1CD855,#FA92F8,0,10,0,38,1,688.5,37,1,823.5,0,0,experiment,NA,NA,2,0.5,0.5,5,4,165,4,NA
fcp-trial,200,946491,0.0-175.0-0.0,voc_e2,12077,"[{""event"":""fullscreenenter"",""trial"":1,""time"":1309}]",NA,NA,NA,NA,NA,3,#3386FF,#D89F1C,0,10,0,40,0,841,39,0,418.39999999990687,10,1,experiment,NA,NA,1,0.3,0.7,3,2,166,4,NA
fcp-trial,201,949254,0.0-176.0-0.0,voc_e2,12077,"[{""event"":""fullscreenenter"",""trial"":1,""time"":1309}]",NA,NA,NA,NA,NA,6,#FA92F8,#1CD855,0,10,1,38,1,843.3000000000466,37,1,411.19999999995343,0,1,experiment,NA,NA,2,0.5,0.5,4,5,167,4,NA
fcp-trial,202,951817,0.0-177.0-0.0,voc_e2,12077,"[{""event"":""fullscreenenter"",""trial"":1,""time"":1309}]",NA,NA,NA,NA,NA,5,#FA92F8,#1CD855,0,10,1,38,1,660.1999999999534,37,1,393.5,0,1,experiment,NA,NA,2,0.5,0.5,4,5,168,4,NA
fcp-trial,203,955078,0.0-178.0-0.0,voc_e2,12077,"[{""event"":""fullscreenenter"",""trial"":1,""time"":1309}]",NA,NA,NA,NA,NA,0,#1CD855,#FA92F8,10,10,0,38,1,1268,39,0,485.19999999995343,10,1,experiment,NA,NA,2,0.5,0.5,5,4,169,4,NA
fcp-trial,204,957686,0.0-179.0-0.0,voc_e2,12077,"[{""event"":""fullscreenenter"",""trial"":1,""time"":1309}]",NA,NA,NA,NA,NA,2,#FA92F8,#1CD855,0,10,1,38,1,709.3999999999069,37,1,388,0,1,experiment,NA,NA,2,0.5,0.5,4,5,170,4,NA
fcp-trial,205,961711,0.0-180.0-0.0,voc_e2,12077,"[{""event"":""fullscreenenter"",""trial"":1,""time"":1309}]",NA,NA,NA,NA,NA,0,#3386FF,#D89F1C,0,10,0,38,1,1958.5,39,0,556.6999999999534,10,1,experiment,NA,NA,1,0.3,0.7,3,2,171,4,NA
fcp-trial,206,964261,0.0-181.0-0.0,voc_e2,12077,"[{""event"":""fullscreenenter"",""trial"":1,""time"":1309}]",NA,NA,NA,NA,NA,2,#D8271C,#741CD8,10,0,1,38,1,556.6999999999534,37,1,484.30000000004657,10,1,experiment,NA,NA,0,0.9,0.1,0,1,172,4,NA
fcp-trial,207,966899,0.0-182.0-0.0,voc_e2,12077,"[{""event"":""fullscreenenter"",""trial"":1,""time"":1309}]",NA,NA,NA,NA,NA,2,#3386FF,#D89F1C,0,0,0,38,1,551,39,0,580.3000000000466,0,1,experiment,NA,NA,1,0.3,0.7,3,2,173,4,NA
fcp-trial,208,969419,0.0-183.0-0.0,voc_e2,12077,"[{""event"":""fullscreenenter"",""trial"":1,""time"":1309}]",NA,NA,NA,NA,NA,3,#D89F1C,#3386FF,10,10,1,38,1,577.6999999999534,37,1,435.19999999995343,10,1,experiment,NA,NA,1,0.7,0.3,2,3,174,4,NA
fcp-trial,209,971819,0.0-184.0-0.0,voc_e2,12077,"[{""event"":""fullscreenenter"",""trial"":1,""time"":1309}]",NA,NA,NA,NA,NA,6,#FA92F8,#1CD855,10,0,1,38,1,476.60000000009313,37,1,414.60000000009313,10,1,experiment,NA,NA,2,0.5,0.5,4,5,175,4,NA
fcp-trial,210,974273,0.0-185.0-0.0,voc_e2,12077,"[{""event"":""fullscreenenter"",""trial"":1,""time"":1309}]",NA,NA,NA,NA,NA,3,#741CD8,#D8271C,0,10,0,38,1,564.4000000001397,39,0,380.5999999998603,10,1,experiment,NA,NA,0,0.1,0.9,1,0,176,4,NA
fcp-trial,211,976878,0.0-186.0-0.0,voc_e2,12077,"[{""event"":""fullscreenenter"",""trial"":1,""time"":1309}]",NA,NA,NA,NA,NA,1,#3386FF,#D89F1C,0,0,0,38,1,551.5,39,0,543.9000000001397,0,1,experiment,NA,NA,1,0.3,0.7,3,2,177,4,NA
fcp-trial,212,979183,0.0-187.0-0.0,voc_e2,12077,"[{""event"":""fullscreenenter"",""trial"":1,""time"":1309}]",NA,NA,NA,NA,NA,3,#1CD855,#FA92F8,10,0,0,38,1,355.30000000004657,37,1,439.30000000004657,10,0,experiment,NA,NA,2,0.5,0.5,5,4,178,4,NA
fcp-trial,213,981545,0.0-188.0-0.0,voc_e2,12077,"[{""event"":""fullscreenenter"",""trial"":1,""time"":1309}]",NA,NA,NA,NA,NA,4,#741CD8,#D8271C,0,10,0,38,1,345.79999999981374,37,1,503.4000000001397,0,0,experiment,NA,NA,0,0.1,0.9,1,0,179,4,NA
fcp-trial,214,983867,0.0-189.0-0.0,voc_e2,12077,"[{""event"":""fullscreenenter"",""trial"":1,""time"":1309}]",NA,NA,NA,NA,NA,5,#D89F1C,#3386FF,10,0,1,38,1,266.5999999998603,39,0,548.6999999999534,0,0,experiment,NA,NA,1,0.7,0.3,2,3,180,4,NA
fcp-trial,215,986174,0.0-190.0-0.0,voc_e2,12077,"[{""event"":""fullscreenenter"",""trial"":1,""time"":1309}]",NA,NA,NA,NA,NA,6,#741CD8,#D8271C,0,10,0,38,1,298.29999999981374,37,1,497.30000000004657,0,0,experiment,NA,NA,0,0.1,0.9,1,0,181,5,NA
fcp-trial,216,988443,0.0-191.0-0.0,voc_e2,12077,"[{""event"":""fullscreenenter"",""trial"":1,""time"":1309}]",NA,NA,NA,NA,NA,5,#1CD855,#FA92F8,0,10,0,38,1,342.69999999995343,39,0,415.20000000018626,10,1,experiment,NA,NA,2,0.5,0.5,5,4,182,5,NA
fcp-trial,217,992346,0.0-192.0-0.0,voc_e2,12077,"[{""event"":""fullscreenenter"",""trial"":1,""time"":1309}]",NA,NA,NA,NA,NA,4,#1CD855,#FA92F8,10,10,0,38,1,1909.6999999999534,37,1,480.30000000004657,10,0,experiment,NA,NA,2,0.5,0.5,5,4,183,5,NA
fcp-trial,218,995682,0.0-193.0-0.0,voc_e2,12077,"[{""event"":""fullscreenenter"",""trial"":1,""time"":1309}]",NA,NA,NA,NA,NA,1,#D8271C,#741CD8,10,10,1,38,1,1115.5,39,0,707.7000000001863,10,0,experiment,NA,NA,0,0.9,0.1,0,1,184,5,NA
fcp-trial,219,998983,0.0-194.0-0.0,voc_e2,12077,"[{""event"":""fullscreenenter"",""trial"":1,""time"":1309}]",NA,NA,NA,NA,NA,4,#D89F1C,#3386FF,0,0,1,38,1,682.1999999999534,37,1,1107.4000000001397,0,1,experiment,NA,NA,1,0.7,0.3,2,3,185,5,NA
fcp-trial,220,1001608,0.0-195.0-0.0,voc_e2,12077,"[{""event"":""fullscreenenter"",""trial"":1,""time"":1309}]",NA,NA,NA,NA,NA,0,#741CD8,#D8271C,0,10,0,38,1,549.3999999999069,39,0,566.0999999998603,10,1,experiment,NA,NA,0,0.1,0.9,1,0,186,5,NA
fcp-trial,221,1003700,0.0-196.0-0.0,voc_e2,12077,"[{""event"":""fullscreenenter"",""trial"":1,""time"":1309}]",NA,NA,NA,NA,NA,5,#D8271C,#741CD8,10,10,1,38,1,320,37,1,258.30000000004657,10,1,experiment,NA,NA,0,0.9,0.1,0,1,187,5,NA
fcp-trial,222,1005977,0.0-197.0-0.0,voc_e2,12077,"[{""event"":""fullscreenenter"",""trial"":1,""time"":1309}]",NA,NA,NA,NA,NA,1,#FA92F8,#1CD855,0,0,1,38,1,503.69999999995343,39,0,260.30000000004657,0,0,experiment,NA,NA,2,0.5,0.5,4,5,188,5,NA
fcp-trial,223,1008188,0.0-198.0-0.0,voc_e2,12077,"[{""event"":""fullscreenenter"",""trial"":1,""time"":1309}]",NA,NA,NA,NA,NA,6,#D89F1C,#3386FF,10,0,1,38,1,355.89999999990687,37,1,344.10000000009313,10,1,experiment,NA,NA,1,0.7,0.3,2,3,189,5,NA
fcp-trial,224,1010751,0.0-199.0-0.0,voc_e2,12077,"[{""event"":""fullscreenenter"",""trial"":1,""time"":1309}]",NA,NA,NA,NA,NA,6,#D8271C,#741CD8,10,0,1,38,1,440.89999999990687,37,1,610,10,1,experiment,NA,NA,0,0.9,0.1,0,1,190,5,NA
fcp-trial,225,1013238,0.0-200.0-0.0,voc_e2,12077,"[{""event"":""fullscreenenter"",""trial"":1,""time"":1309}]",NA,NA,NA,NA,NA,4,#3386FF,#D89F1C,10,0,0,38,1,675.7999999998137,39,0,300.9000000001397,0,1,experiment,NA,NA,1,0.3,0.7,3,2,191,5,NA
fcp-trial,226,1015385,0.0-201.0-0.0,voc_e2,12077,"[{""event"":""fullscreenenter"",""trial"":1,""time"":1309}]",NA,NA,NA,NA,NA,6,#1CD855,#FA92F8,10,10,0,38,1,288.79999999981374,37,1,345.0999999998603,10,0,experiment,NA,NA,2,0.5,0.5,5,4,192,5,NA
fcp-trial,227,1017559,0.0-202.0-0.0,voc_e2,12077,"[{""event"":""fullscreenenter"",""trial"":1,""time"":1309}]",NA,NA,NA,NA,NA,1,#FA92F8,#1CD855,10,10,1,38,1,357.69999999995343,39,0,304.39999999990687,10,0,experiment,NA,NA,2,0.5,0.5,4,5,193,5,NA
fcp-trial,228,1019866,0.0-203.0-0.0,voc_e2,12077,"[{""event"":""fullscreenenter"",""trial"":1,""time"":1309}]",NA,NA,NA,NA,NA,6,#3386FF,#D89F1C,0,10,0,38,1,374.20000000018626,37,1,421.10000000009313,0,0,experiment,NA,NA,1,0.3,0.7,3,2,194,5,NA
fcp-trial,229,1022369,0.0-204.0-0.0,voc_e2,12077,"[{""event"":""fullscreenenter"",""trial"":1,""time"":1309}]",NA,NA,NA,NA,NA,1,#741CD8,#D8271C,0,10,0,38,1,674.6999999999534,39,0,317,10,1,experiment,NA,NA,0,0.1,0.9,1,0,195,5,NA
fcp-trial,230,1024679,0.0-205.0-0.0,voc_e2,12077,"[{""event"":""fullscreenenter"",""trial"":1,""time"":1309}]",NA,NA,NA,NA,NA,2,#FA92F8,#1CD855,10,0,1,38,1,471.10000000009313,39,0,327,0,0,experiment,NA,NA,2,0.5,0.5,4,5,196,5,NA
fcp-trial,231,1027566,0.0-206.0-0.0,voc_e2,12077,"[{""event"":""fullscreenenter"",""trial"":1,""time"":1309}]",NA,NA,NA,NA,NA,0,#FA92F8,#1CD855,0,10,1,38,1,1007,37,1,366.69999999995343,0,1,experiment,NA,NA,2,0.5,0.5,4,5,197,5,NA
fcp-trial,232,1030143,0.0-207.0-0.0,voc_e2,12077,"[{""event"":""fullscreenenter"",""trial"":1,""time"":1309}]",NA,NA,NA,NA,NA,2,#D89F1C,#3386FF,0,10,1,38,1,683.5999999998603,37,1,381.60000000009313,0,1,experiment,NA,NA,1,0.7,0.3,2,3,198,5,NA
fcp-trial,233,1032586,0.0-208.0-0.0,voc_e2,12077,"[{""event"":""fullscreenenter"",""trial"":1,""time"":1309}]",NA,NA,NA,NA,NA,3,#1CD855,#FA92F8,0,0,0,40,0,619.3000000000466,39,0,309.89999999990687,0,1,experiment,NA,NA,2,0.5,0.5,5,4,199,5,NA
fcp-trial,234,1034866,0.0-209.0-0.0,voc_e2,12077,"[{""event"":""fullscreenenter"",""trial"":1,""time"":1309}]",NA,NA,NA,NA,NA,2,#D8271C,#741CD8,10,0,1,38,1,447.0999999998603,37,1,321.0999999998603,10,1,experiment,NA,NA,0,0.9,0.1,0,1,200,5,NA
fcp-trial,235,1037901,0.0-210.0-0.0,voc_e2,12077,"[{""event"":""fullscreenenter"",""trial"":1,""time"":1309}]",NA,NA,NA,NA,NA,5,#1CD855,#FA92F8,10,0,0,40,0,1186.5,39,0,338.19999999995343,0,1,experiment,NA,NA,2,0.5,0.5,5,4,201,5,NA
fcp-trial,236,1040699,0.0-211.0-0.0,voc_e2,12077,"[{""event"":""fullscreenenter"",""trial"":1,""time"":1309}]",NA,NA,NA,NA,NA,3,#741CD8,#D8271C,0,10,0,38,1,941,39,0,345.69999999995343,10,1,experiment,NA,NA,0,0.1,0.9,1,0,202,5,NA
fcp-trial,237,1043338,0.0-212.0-0.0,voc_e2,12077,"[{""event"":""fullscreenenter"",""trial"":1,""time"":1309}]",NA,NA,NA,NA,NA,0,#D89F1C,#3386FF,10,10,1,38,1,648.8000000000466,37,1,477.10000000009313,10,1,experiment,NA,NA,1,0.7,0.3,2,3,203,5,NA
fcp-trial,238,1045838,0.0-213.0-0.0,voc_e2,12077,"[{""event"":""fullscreenenter"",""trial"":1,""time"":1309}]",NA,NA,NA,NA,NA,5,#D8271C,#741CD8,10,0,1,38,1,579.6000000000931,37,1,407.69999999995343,10,1,experiment,NA,NA,0,0.9,0.1,0,1,204,5,NA
fcp-trial,239,1048248,0.0-214.0-0.0,voc_e2,12077,"[{""event"":""fullscreenenter"",""trial"":1,""time"":1309}]",NA,NA,NA,NA,NA,1,#3386FF,#D89F1C,10,0,0,38,1,519.3000000000466,39,0,379.69999999995343,0,1,experiment,NA,NA,1,0.3,0.7,3,2,205,5,NA
fcp-trial,240,1050560,0.0-215.0-0.0,voc_e2,12077,"[{""event"":""fullscreenenter"",""trial"":1,""time"":1309}]",NA,NA,NA,NA,NA,4,#1CD855,#FA92F8,0,10,0,38,1,420.10000000009313,37,1,380.5999999998603,0,0,experiment,NA,NA,2,0.5,0.5,5,4,206,5,NA
fcp-trial,241,1052823,0.0-216.0-0.0,voc_e2,12077,"[{""event"":""fullscreenenter"",""trial"":1,""time"":1309}]",NA,NA,NA,NA,NA,5,#3386FF,#D89F1C,0,10,0,38,1,405.4000000001397,39,0,347.89999999990687,10,1,experiment,NA,NA,1,0.3,0.7,3,2,207,5,NA
fcp-trial,242,1056069,0.0-217.0-0.0,voc_e2,12077,"[{""event"":""fullscreenenter"",""trial"":1,""time"":1309}]",NA,NA,NA,NA,NA,4,#D8271C,#741CD8,10,0,1,38,1,1236.5,37,1,499.0999999998603,10,1,experiment,NA,NA,0,0.9,0.1,0,1,208,5,NA
fcp-trial,243,1058507,0.0-218.0-0.0,voc_e2,12077,"[{""event"":""fullscreenenter"",""trial"":1,""time"":1309}]",NA,NA,NA,NA,NA,3,#D89F1C,#3386FF,10,0,1,38,1,485.19999999995343,39,0,440.19999999995343,0,0,experiment,NA,NA,1,0.7,0.3,2,3,209,5,NA
fcp-trial,244,1060982,0.0-219.0-0.0,voc_e2,12077,"[{""event"":""fullscreenenter"",""trial"":1,""time"":1309}]",NA,NA,NA,NA,NA,0,#D8271C,#741CD8,10,10,1,38,1,367.19999999995343,37,1,595.8000000000466,10,1,experiment,NA,NA,0,0.9,0.1,0,1,210,5,NA
audio-instructions,245,1066410,0.0-220.0,voc_e2,12077,"[{""event"":""fullscreenenter"",""trial"":1,""time"":1309}]",NA,947.5,static/audio/pause.wav,NA,0,NA,NA,NA,NA,NA,NA,NA,NA,NA,NA,NA,NA,NA,NA,NA,NA,NA,NA,NA,NA,NA,NA,NA,NA,NA
fcp-trial,246,1069041,0.0-221.0-0.0,voc_e2,12077,"[{""event"":""fullscreenenter"",""trial"":1,""time"":1309}]",NA,NA,NA,NA,NA,3,#D8271C,#741CD8,10,0,1,38,1,782.3999999999069,37,1,337.19999999995343,10,1,experiment,NA,NA,0,0.9,0.1,0,1,211,5,NA
fcp-trial,247,1071459,0.0-222.0-0.0,voc_e2,12077,"[{""event"":""fullscreenenter"",""trial"":1,""time"":1309}]",NA,NA,NA,NA,NA,5,#1CD855,#FA92F8,0,0,0,38,1,496.5,37,1,407.4000000001397,0,0,experiment,NA,NA,2,0.5,0.5,5,4,212,5,NA
fcp-trial,248,1073674,0.0-223.0-0.0,voc_e2,12077,"[{""event"":""fullscreenenter"",""trial"":1,""time"":1309}]",NA,NA,NA,NA,NA,0,#D8271C,#741CD8,10,0,1,38,1,298.19999999995343,37,1,405.80000000004657,10,1,experiment,NA,NA,0,0.9,0.1,0,1,213,5,NA
fcp-trial,249,1076988,0.0-224.0-0.0,voc_e2,12077,"[{""event"":""fullscreenenter"",""trial"":1,""time"":1309}]",NA,NA,NA,NA,NA,4,#FA92F8,#1CD855,10,10,1,38,1,1170.1999999999534,39,0,630.9000000001397,10,0,experiment,NA,NA,2,0.5,0.5,4,5,214,5,NA
fcp-trial,250,1079523,0.0-225.0-0.0,voc_e2,12077,"[{""event"":""fullscreenenter"",""trial"":1,""time"":1309}]",NA,NA,NA,NA,NA,4,#3386FF,#D89F1C,0,10,0,38,1,505.80000000004657,37,1,518,0,0,experiment,NA,NA,1,0.3,0.7,3,2,215,5,NA
fcp-trial,251,1081935,0.0-226.0-0.0,voc_e2,12077,"[{""event"":""fullscreenenter"",""trial"":1,""time"":1309}]",NA,NA,NA,NA,NA,5,#741CD8,#D8271C,0,10,0,38,1,424.89999999990687,39,0,472.89999999990687,10,1,experiment,NA,NA,0,0.1,0.9,1,0,216,5,NA
fcp-trial,252,1084592,0.0-227.0-0.0,voc_e2,12077,"[{""event"":""fullscreenenter"",""trial"":1,""time"":1309}]",NA,NA,NA,NA,NA,1,#D8271C,#741CD8,10,0,1,38,1,559.2999999998137,37,1,588.5999999998603,10,1,experiment,NA,NA,0,0.9,0.1,0,1,217,5,NA
fcp-trial,253,1087544,0.0-228.0-0.0,voc_e2,12077,"[{""event"":""fullscreenenter"",""trial"":1,""time"":1309}]",NA,NA,NA,NA,NA,2,#1CD855,#FA92F8,10,10,0,38,1,606.1999999999534,39,0,835.5,10,1,experiment,NA,NA,2,0.5,0.5,5,4,218,5,NA
fcp-trial,254,1089992,0.0-229.0-0.0,voc_e2,12077,"[{""event"":""fullscreenenter"",""trial"":1,""time"":1309}]",NA,NA,NA,NA,NA,0,#D89F1C,#3386FF,10,0,1,38,1,536,37,1,402.80000000004657,10,1,experiment,NA,NA,1,0.7,0.3,2,3,219,5,NA
fcp-trial,255,1092804,0.0-230.0-0.0,voc_e2,12077,"[{""event"":""fullscreenenter"",""trial"":1,""time"":1309}]",NA,NA,NA,NA,NA,5,#3386FF,#D89F1C,10,0,0,38,1,518.8999999999069,39,0,782.6999999999534,0,1,experiment,NA,NA,1,0.3,0.7,3,2,220,5,NA
fcp-trial,256,1095767,0.0-231.0-0.0,voc_e2,12077,"[{""event"":""fullscreenenter"",""trial"":1,""time"":1309}]",NA,NA,NA,NA,NA,6,#1CD855,#FA92F8,0,0,0,38,1,936.8999999999069,37,1,516.5,0,0,experiment,NA,NA,2,0.5,0.5,5,4,221,5,NA
fcp-trial,257,1098261,0.0-232.0-0.0,voc_e2,12077,"[{""event"":""fullscreenenter"",""trial"":1,""time"":1309}]",NA,NA,NA,NA,NA,6,#741CD8,#D8271C,0,10,0,38,1,556.1999999999534,39,0,421.39999999990687,10,1,experiment,NA,NA,0,0.1,0.9,1,0,222,5,NA
fcp-trial,258,1100607,0.0-233.0-0.0,voc_e2,12077,"[{""event"":""fullscreenenter"",""trial"":1,""time"":1309}]",NA,NA,NA,NA,NA,2,#D89F1C,#3386FF,0,10,1,38,1,391.60000000009313,37,1,441.19999999995343,0,1,experiment,NA,NA,1,0.7,0.3,2,3,223,5,NA
fcp-trial,259,1103348,0.0-234.0-0.0,voc_e2,12077,"[{""event"":""fullscreenenter"",""trial"":1,""time"":1309}]",NA,NA,NA,NA,NA,2,#D8271C,#741CD8,10,0,1,38,1,803.5,37,1,426.10000000009313,10,1,experiment,NA,NA,0,0.9,0.1,0,1,224,5,NA
fcp-trial,260,1106161,0.0-235.0-0.0,voc_e2,12077,"[{""event"":""fullscreenenter"",""trial"":1,""time"":1309}]",NA,NA,NA,NA,NA,1,#3386FF,#D89F1C,0,0,0,38,1,978,39,0,323.89999999990687,0,1,experiment,NA,NA,1,0.3,0.7,3,2,225,5,NA
fcp-trial,261,1108624,0.0-236.0-0.0,voc_e2,12077,"[{""event"":""fullscreenenter"",""trial"":1,""time"":1309}]",NA,NA,NA,NA,NA,3,#FA92F8,#1CD855,0,10,1,38,1,587.5,37,1,364,0,1,experiment,NA,NA,2,0.5,0.5,4,5,226,6,NA
fcp-trial,262,1110753,0.0-237.0-0.0,voc_e2,12077,"[{""event"":""fullscreenenter"",""trial"":1,""time"":1309}]",NA,NA,NA,NA,NA,4,#741CD8,#D8271C,10,10,0,38,1,310.69999999995343,39,0,306.19999999995343,10,1,experiment,NA,NA,0,0.1,0.9,1,0,227,6,NA
fcp-trial,263,1113519,0.0-238.0-0.0,voc_e2,12077,"[{""event"":""fullscreenenter"",""trial"":1,""time"":1309}]",NA,NA,NA,NA,NA,0,#1CD855,#FA92F8,10,0,0,38,1,457.4000000001397,37,1,795.5,10,0,experiment,NA,NA,2,0.5,0.5,5,4,228,6,NA
fcp-trial,264,1116473,0.0-239.0-0.0,voc_e2,12077,"[{""event"":""fullscreenenter"",""trial"":1,""time"":1309}]",NA,NA,NA,NA,NA,3,#D89F1C,#3386FF,0,0,1,38,1,516.5,39,0,925.8999999999069,0,0,experiment,NA,NA,1,0.7,0.3,2,3,229,6,NA
fcp-trial,265,1118833,0.0-240.0-0.0,voc_e2,12077,"[{""event"":""fullscreenenter"",""trial"":1,""time"":1309}]",NA,NA,NA,NA,NA,6,#3386FF,#D89F1C,0,0,0,38,1,385.79999999981374,37,1,459.80000000004657,0,0,experiment,NA,NA,1,0.3,0.7,3,2,230,6,NA
fcp-trial,266,1121224,0.0-241.0-0.0,voc_e2,12077,"[{""event"":""fullscreenenter"",""trial"":1,""time"":1309}]",NA,NA,NA,NA,NA,1,#FA92F8,#1CD855,10,0,1,38,1,141.69999999995343,39,0,741.1000000000931,0,0,experiment,NA,NA,2,0.5,0.5,4,5,231,6,NA
fcp-trial,267,1123335,0.0-242.0-0.0,voc_e2,12077,"[{""event"":""fullscreenenter"",""trial"":1,""time"":1309}]",NA,NA,NA,NA,NA,5,#D8271C,#741CD8,10,0,1,38,1,140.89999999990687,37,1,460.89999999990687,10,1,experiment,NA,NA,0,0.9,0.1,0,1,232,6,NA
fcp-trial,268,1127226,0.0-243.0-0.0,voc_e2,12077,"[{""event"":""fullscreenenter"",""trial"":1,""time"":1309}]",NA,NA,NA,NA,NA,2,#3386FF,#D89F1C,10,10,0,38,1,870.5,37,1,1510.8000000000466,10,0,experiment,NA,NA,1,0.3,0.7,3,2,233,6,NA
fcp-trial,269,1129732,0.0-244.0-0.0,voc_e2,12077,"[{""event"":""fullscreenenter"",""trial"":1,""time"":1309}]",NA,NA,NA,NA,NA,2,#D8271C,#741CD8,10,0,1,38,1,558.8000000000466,37,1,438.10000000009313,10,1,experiment,NA,NA,0,0.9,0.1,0,1,234,6,NA
fcp-trial,270,1132414,0.0-245.0-0.0,voc_e2,12077,"[{""event"":""fullscreenenter"",""trial"":1,""time"":1309}]",NA,NA,NA,NA,NA,2,#FA92F8,#1CD855,10,10,1,38,1,538.5,37,1,633.1999999999534,10,1,experiment,NA,NA,2,0.5,0.5,4,5,235,6,NA
fcp-trial,271,1134883,0.0-246.0-0.0,voc_e2,12077,"[{""event"":""fullscreenenter"",""trial"":1,""time"":1309}]",NA,NA,NA,NA,NA,3,#D89F1C,#3386FF,10,0,1,38,1,477.30000000004657,37,1,480.69999999995343,10,1,experiment,NA,NA,1,0.7,0.3,2,3,236,6,NA
fcp-trial,272,1137458,0.0-247.0-0.0,voc_e2,12077,"[{""event"":""fullscreenenter"",""trial"":1,""time"":1309}]",NA,NA,NA,NA,NA,6,#D8271C,#741CD8,10,0,1,38,1,508.5999999998603,37,1,558.5,10,1,experiment,NA,NA,0,0.9,0.1,0,1,237,6,NA
fcp-trial,273,1139894,0.0-248.0-0.0,voc_e2,12077,"[{""event"":""fullscreenenter"",""trial"":1,""time"":1309}]",NA,NA,NA,NA,NA,4,#1CD855,#FA92F8,10,10,0,38,1,423.5,37,1,503.39999999990687,10,0,experiment,NA,NA,2,0.5,0.5,5,4,238,6,NA
fcp-trial,274,1142406,0.0-249.0-0.0,voc_e2,12077,"[{""event"":""fullscreenenter"",""trial"":1,""time"":1309}]",NA,NA,NA,NA,NA,1,#FA92F8,#1CD855,0,0,1,38,1,339.10000000009313,39,0,663.3000000000466,0,0,experiment,NA,NA,2,0.5,0.5,4,5,239,6,NA
fcp-trial,275,1144717,0.0-250.0-0.0,voc_e2,12077,"[{""event"":""fullscreenenter"",""trial"":1,""time"":1309}]",NA,NA,NA,NA,NA,0,#1CD855,#FA92F8,0,10,0,38,1,351.89999999990687,37,1,449.10000000009313,0,0,experiment,NA,NA,2,0.5,0.5,5,4,240,6,NA
fcp-trial,276,1147110,0.0-251.0-0.0,voc_e2,12077,"[{""event"":""fullscreenenter"",""trial"":1,""time"":1309}]",NA,NA,NA,NA,NA,6,#3386FF,#D89F1C,0,10,0,38,1,403.80000000004657,39,0,475.4000000001397,10,1,experiment,NA,NA,1,0.3,0.7,3,2,241,6,NA
fcp-trial,277,1150835,0.0-252.0-0.0,voc_e2,12077,"[{""event"":""fullscreenenter"",""trial"":1,""time"":1309}]",NA,NA,NA,NA,NA,4,#D8271C,#741CD8,10,0,1,38,1,1815.6000000000931,37,1,393.5,10,1,experiment,NA,NA,0,0.9,0.1,0,1,242,6,NA
fcp-trial,278,1153528,0.0-253.0-0.0,voc_e2,12077,"[{""event"":""fullscreenenter"",""trial"":1,""time"":1309}]",NA,NA,NA,NA,NA,0,#D89F1C,#3386FF,0,0,1,38,1,759.5,37,1,421.0999999998603,0,1,experiment,NA,NA,1,0.7,0.3,2,3,243,6,NA
fcp-trial,279,1158220,0.0-254.0-0.0,voc_e2,12077,"[{""event"":""fullscreenenter"",""trial"":1,""time"":1309}]",NA,NA,NA,NA,NA,5,#1CD855,#FA92F8,10,0,0,38,1,2662.899999999907,39,0,517.3000000000466,0,1,experiment,NA,NA,2,0.5,0.5,5,4,244,6,NA
fcp-trial,280,1164190,0.0-255.0-0.0,voc_e2,12077,"[{""event"":""fullscreenenter"",""trial"":1,""time"":1309}]",NA,NA,NA,NA,NA,5,#3386FF,#D89F1C,0,10,0,40,0,4080.399999999907,37,1,375.30000000004657,0,0,experiment,NA,NA,1,0.3,0.7,3,2,245,6,NA
fcp-trial,281,1166495,0.0-256.0-0.0,voc_e2,12077,"[{""event"":""fullscreenenter"",""trial"":1,""time"":1309}]",NA,NA,NA,NA,NA,3,#741CD8,#D8271C,0,10,0,38,1,388.4000000001397,39,0,406.80000000004657,10,1,experiment,NA,NA,0,0.1,0.9,1,0,246,6,NA
fcp-trial,282,1169196,0.0-257.0-0.0,voc_e2,12077,"[{""event"":""fullscreenenter"",""trial"":1,""time"":1309}]",NA,NA,NA,NA,NA,4,#3386FF,#D89F1C,0,10,0,40,0,775.1999999999534,37,1,415,0,0,experiment,NA,NA,1,0.3,0.7,3,2,247,6,NA
fcp-trial,283,1173133,0.0-258.0-0.0,voc_e2,12077,"[{""event"":""fullscreenenter"",""trial"":1,""time"":1309}]",NA,NA,NA,NA,NA,3,#FA92F8,#1CD855,10,10,1,40,0,819.3000000000466,37,1,1607.2000000001863,10,1,experiment,NA,NA,2,0.5,0.5,4,5,248,6,NA
fcp-trial,284,1180892,0.0-259.0-0.0,voc_e2,12077,"[{""event"":""fullscreenenter"",""trial"":1,""time"":1309}]",NA,NA,NA,NA,NA,0,#741CD8,#D8271C,0,10,0,38,1,5473.699999999953,39,0,776.5,10,1,experiment,NA,NA,0,0.1,0.9,1,0,249,6,NA
fcp-trial,285,1185545,0.0-260.0-0.0,voc_e2,12077,"[{""event"":""fullscreenenter"",""trial"":1,""time"":1309}]",NA,NA,NA,NA,NA,1,#741CD8,#D8271C,0,10,0,40,0,2732.399999999907,39,0,411.80000000004657,10,1,experiment,NA,NA,0,0.1,0.9,1,0,250,6,NA
fcp-trial,286,1188781,0.0-261.0-0.0,voc_e2,12077,"[{""event"":""fullscreenenter"",""trial"":1,""time"":1309}]",NA,NA,NA,NA,NA,6,#1CD855,#FA92F8,0,10,0,40,0,1302,39,0,423.70000000018626,10,1,experiment,NA,NA,2,0.5,0.5,5,4,251,6,NA
fcp-trial,287,1191302,0.0-262.0-0.0,voc_e2,12077,"[{""event"":""fullscreenenter"",""trial"":1,""time"":1309}]",NA,NA,NA,NA,NA,1,#3386FF,#D89F1C,0,10,0,40,0,625.8999999999069,39,0,386.39999999990687,10,1,experiment,NA,NA,1,0.3,0.7,3,2,252,6,NA
fcp-trial,288,1195626,0.0-263.0-0.0,voc_e2,12077,"[{""event"":""fullscreenenter"",""trial"":1,""time"":1309}]",NA,NA,NA,NA,NA,4,#D8271C,#741CD8,0,0,1,38,1,1934.6999999999534,37,1,875.1999999999534,0,1,experiment,NA,NA,0,0.9,0.1,0,1,253,6,NA
fcp-trial,289,1198267,0.0-264.0-0.0,voc_e2,12077,"[{""event"":""fullscreenenter"",""trial"":1,""time"":1309}]",NA,NA,NA,NA,NA,6,#741CD8,#D8271C,0,10,0,40,0,785.5,39,0,341.80000000004657,10,1,experiment,NA,NA,0,0.1,0.9,1,0,254,6,NA
fcp-trial,290,1201100,0.0-265.0-0.0,voc_e2,12077,"[{""event"":""fullscreenenter"",""trial"":1,""time"":1309}]",NA,NA,NA,NA,NA,3,#FA92F8,#1CD855,10,0,1,40,0,830.8999999999069,39,0,491.9000000001397,0,0,experiment,NA,NA,2,0.5,0.5,4,5,255,6,NA
fcp-trial,291,1203986,0.0-266.0-0.0,voc_e2,12077,"[{""event"":""fullscreenenter"",""trial"":1,""time"":1309}]",NA,NA,NA,NA,NA,1,#D89F1C,#3386FF,0,10,1,40,0,957.5,37,1,417.0999999998603,0,1,experiment,NA,NA,1,0.7,0.3,2,3,256,6,NA
fcp-trial,292,1207239,0.0-267.0-0.0,voc_e2,12077,"[{""event"":""fullscreenenter"",""trial"":1,""time"":1309}]",NA,NA,NA,NA,NA,0,#3386FF,#D89F1C,0,10,0,40,0,806.8000000000466,37,1,933.8999999999069,0,0,experiment,NA,NA,1,0.3,0.7,3,2,257,6,NA
fcp-trial,293,1209724,0.0-268.0-0.0,voc_e2,12077,"[{""event"":""fullscreenenter"",""trial"":1,""time"":1309}]",NA,NA,NA,NA,NA,3,#741CD8,#D8271C,0,10,0,40,0,519.6999999999534,39,0,453.4000000001397,10,1,experiment,NA,NA,0,0.1,0.9,1,0,258,6,NA
fcp-trial,294,1212965,0.0-269.0-0.0,voc_e2,12077,"[{""event"":""fullscreenenter"",""trial"":1,""time"":1309}]",NA,NA,NA,NA,NA,2,#1CD855,#FA92F8,0,10,0,40,0,1042.8999999999069,39,0,690,10,1,experiment,NA,NA,2,0.5,0.5,5,4,259,6,NA
fcp-trial,295,1216393,0.0-270.0-0.0,voc_e2,12077,"[{""event"":""fullscreenenter"",""trial"":1,""time"":1309}]",NA,NA,NA,NA,NA,2,#D8271C,#741CD8,10,0,1,40,0,1179.3999999999069,39,0,737.1999999999534,0,0,experiment,NA,NA,0,0.9,0.1,0,1,260,6,NA
fcp-trial,296,1219500,0.0-271.0-0.0,voc_e2,12077,"[{""event"":""fullscreenenter"",""trial"":1,""time"":1309}]",NA,NA,NA,NA,NA,5,#3386FF,#D89F1C,10,10,0,40,0,1024.5,37,1,570.5,10,0,experiment,NA,NA,1,0.3,0.7,3,2,261,6,NA
fcp-trial,297,1222784,0.0-272.0-0.0,voc_e2,12077,"[{""event"":""fullscreenenter"",""trial"":1,""time"":1309}]",NA,NA,NA,NA,NA,5,#D8271C,#741CD8,10,0,1,38,1,1307.1000000000931,37,1,465.60000000009313,10,1,experiment,NA,NA,0,0.9,0.1,0,1,262,6,NA
fcp-trial,298,1226053,0.0-273.0-0.0,voc_e2,12077,"[{""event"":""fullscreenenter"",""trial"":1,""time"":1309}]",NA,NA,NA,NA,NA,1,#1CD855,#FA92F8,0,10,0,38,1,1310.4000000001397,39,0,446.80000000004657,10,1,experiment,NA,NA,2,0.5,0.5,5,4,263,6,NA
fcp-trial,299,1229048,0.0-274.0-0.0,voc_e2,12077,"[{""event"":""fullscreenenter"",""trial"":1,""time"":1309}]",NA,NA,NA,NA,NA,5,#1CD855,#FA92F8,0,10,0,38,1,750.3999999999069,37,1,737.8000000000466,0,0,experiment,NA,NA,2,0.5,0.5,5,4,264,6,NA
fcp-trial,300,1232092,0.0-275.0-0.0,voc_e2,12077,"[{""event"":""fullscreenenter"",""trial"":1,""time"":1309}]",NA,NA,NA,NA,NA,6,#D89F1C,#3386FF,10,10,1,40,0,1042,37,1,491.19999999995343,10,1,experiment,NA,NA,1,0.7,0.3,2,3,265,6,NA
fcp-trial,301,1235189,0.0-276.0-0.0,voc_e2,12077,"[{""event"":""fullscreenenter"",""trial"":1,""time"":1309}]",NA,NA,NA,NA,NA,1,#D8271C,#741CD8,0,0,1,38,1,1069.1000000000931,37,1,515.9000000001397,0,1,experiment,NA,NA,0,0.9,0.1,0,1,266,6,NA
fcp-trial,302,1238022,0.0-277.0-0.0,voc_e2,12077,"[{""event"":""fullscreenenter"",""trial"":1,""time"":1309}]",NA,NA,NA,NA,NA,0,#1CD855,#FA92F8,10,0,0,38,1,899.3000000000466,39,0,426.30000000004657,0,1,experiment,NA,NA,2,0.5,0.5,5,4,267,6,NA
fcp-trial,303,1240490,0.0-278.0-0.0,voc_e2,12077,"[{""event"":""fullscreenenter"",""trial"":1,""time"":1309}]",NA,NA,NA,NA,NA,2,#D89F1C,#3386FF,0,0,1,40,0,364.80000000004657,39,0,591.6999999999534,0,0,experiment,NA,NA,1,0.7,0.3,2,3,268,6,NA
fcp-trial,304,1243376,0.0-279.0-0.0,voc_e2,12077,"[{""event"":""fullscreenenter"",""trial"":1,""time"":1309}]",NA,NA,NA,NA,NA,3,#3386FF,#D89F1C,0,0,0,40,0,848.0999999998603,37,1,532.4000000001397,0,0,experiment,NA,NA,1,0.3,0.7,3,2,269,6,NA
fcp-trial,305,1246165,0.0-280.0-0.0,voc_e2,12077,"[{""event"":""fullscreenenter"",""trial"":1,""time"":1309}]",NA,NA,NA,NA,NA,0,#741CD8,#D8271C,0,10,0,38,1,988.1000000000931,39,0,291.80000000004657,10,1,experiment,NA,NA,0,0.1,0.9,1,0,270,6,NA
fcp-trial,306,1249622,0.0-281.0-0.0,voc_e2,12077,"[{""event"":""fullscreenenter"",""trial"":1,""time"":1309}]",NA,NA,NA,NA,NA,4,#1CD855,#FA92F8,10,0,0,38,1,1602,39,0,345.80000000004657,0,1,experiment,NA,NA,2,0.5,0.5,5,4,271,7,NA
fcp-trial,307,1252327,0.0-282.0-0.0,voc_e2,12077,"[{""event"":""fullscreenenter"",""trial"":1,""time"":1309}]",NA,NA,NA,NA,NA,6,#FA92F8,#1CD855,0,0,1,38,1,808.4000000001397,37,1,387.20000000018626,0,1,experiment,NA,NA,2,0.5,0.5,4,5,272,7,NA
fcp-trial,308,1254853,0.0-283.0-0.0,voc_e2,12077,"[{""event"":""fullscreenenter"",""trial"":1,""time"":1309}]",NA,NA,NA,NA,NA,4,#D89F1C,#3386FF,10,10,1,38,1,687.6000000000931,37,1,327,10,1,experiment,NA,NA,1,0.7,0.3,2,3,273,7,NA
fcp-trial,309,1257446,0.0-284.0-0.0,voc_e2,12077,"[{""event"":""fullscreenenter"",""trial"":1,""time"":1309}]",NA,NA,NA,NA,NA,6,#3386FF,#D89F1C,0,10,0,38,1,713.3000000000466,39,0,366.69999999995343,10,1,experiment,NA,NA,1,0.3,0.7,3,2,274,7,NA
fcp-trial,310,1260262,0.0-285.0-0.0,voc_e2,12077,"[{""event"":""fullscreenenter"",""trial"":1,""time"":1309}]",NA,NA,NA,NA,NA,6,#741CD8,#D8271C,0,10,0,38,1,852,39,0,453,10,1,experiment,NA,NA,0,0.1,0.9,1,0,275,7,NA
fcp-trial,311,1262900,0.0-286.0-0.0,voc_e2,12077,"[{""event"":""fullscreenenter"",""trial"":1,""time"":1309}]",NA,NA,NA,NA,NA,1,#3386FF,#D89F1C,10,10,0,38,1,662.8999999999069,39,0,462.4000000001397,10,1,experiment,NA,NA,1,0.3,0.7,3,2,276,7,NA
fcp-trial,312,1265715,0.0-287.0-0.0,voc_e2,12077,"[{""event"":""fullscreenenter"",""trial"":1,""time"":1309}]",NA,NA,NA,NA,NA,4,#FA92F8,#1CD855,10,10,1,38,1,785.5999999998603,37,1,516.6999999999534,10,1,experiment,NA,NA,2,0.5,0.5,4,5,277,7,NA
fcp-trial,313,1268328,0.0-288.0-0.0,voc_e2,12077,"[{""event"":""fullscreenenter"",""trial"":1,""time"":1309}]",NA,NA,NA,NA,NA,1,#1CD855,#FA92F8,0,0,0,38,1,689.3000000000466,39,0,411.5,0,1,experiment,NA,NA,2,0.5,0.5,5,4,278,7,NA
fcp-trial,314,1271061,0.0-289.0-0.0,voc_e2,12077,"[{""event"":""fullscreenenter"",""trial"":1,""time"":1309}]",NA,NA,NA,NA,NA,0,#D89F1C,#3386FF,0,0,1,38,1,833.1999999999534,37,1,386.10000000009313,0,1,experiment,NA,NA,1,0.7,0.3,2,3,279,7,NA
fcp-trial,315,1273639,0.0-290.0-0.0,voc_e2,12077,"[{""event"":""fullscreenenter"",""trial"":1,""time"":1309}]",NA,NA,NA,NA,NA,5,#741CD8,#D8271C,10,10,0,38,1,636.1000000000931,39,0,431.19999999995343,10,1,experiment,NA,NA,0,0.1,0.9,1,0,280,7,NA
fcp-trial,316,1276266,0.0-291.0-0.0,voc_e2,12077,"[{""event"":""fullscreenenter"",""trial"":1,""time"":1309}]",NA,NA,NA,NA,NA,0,#FA92F8,#1CD855,0,0,1,38,1,714.9000000001397,37,1,399.4000000001397,0,1,experiment,NA,NA,2,0.5,0.5,4,5,281,7,NA
fcp-trial,317,1279706,0.0-292.0-0.0,voc_e2,12077,"[{""event"":""fullscreenenter"",""trial"":1,""time"":1309}]",NA,NA,NA,NA,NA,2,#741CD8,#D8271C,0,10,0,38,1,1434,39,0,494.10000000009313,10,1,experiment,NA,NA,0,0.1,0.9,1,0,282,7,NA
fcp-trial,318,1282426,0.0-293.0-0.0,voc_e2,12077,"[{""event"":""fullscreenenter"",""trial"":1,""time"":1309}]",NA,NA,NA,NA,NA,4,#D89F1C,#3386FF,0,0,1,38,1,741,37,1,466.69999999995343,0,1,experiment,NA,NA,1,0.7,0.3,2,3,283,7,NA
fcp-trial,319,1284653,0.0-294.0-0.0,voc_e2,12077,"[{""event"":""fullscreenenter"",""trial"":1,""time"":1309}]",NA,NA,NA,NA,NA,3,#FA92F8,#1CD855,10,10,1,38,1,395.30000000004657,37,1,320.5999999998603,10,1,experiment,NA,NA,2,0.5,0.5,4,5,284,7,NA
fcp-trial,320,1286568,0.0-295.0-0.0,voc_e2,12077,"[{""event"":""fullscreenenter"",""trial"":1,""time"":1309}]",NA,NA,NA,NA,NA,2,#D89F1C,#3386FF,0,0,1,38,1,62.5,39,0,340.5,0,0,experiment,NA,NA,1,0.7,0.3,2,3,285,7,NA
fcp-trial,321,1288651,0.0-296.0-0.0,voc_e2,12077,"[{""event"":""fullscreenenter"",""trial"":1,""time"":1309}]",NA,NA,NA,NA,NA,4,#D8271C,#741CD8,10,10,1,38,1,261.69999999995343,37,1,309.5999999998603,10,1,experiment,NA,NA,0,0.9,0.1,0,1,286,7,NA
fcp-trial,322,1290826,0.0-297.0-0.0,voc_e2,12077,"[{""event"":""fullscreenenter"",""trial"":1,""time"":1309}]",NA,NA,NA,NA,NA,5,#FA92F8,#1CD855,10,10,1,38,1,363.5,39,0,299.69999999995343,10,0,experiment,NA,NA,2,0.5,0.5,4,5,287,7,NA
fcp-trial,323,1293069,0.0-298.0-0.0,voc_e2,12077,"[{""event"":""fullscreenenter"",""trial"":1,""time"":1309}]",NA,NA,NA,NA,NA,1,#741CD8,#D8271C,0,10,0,38,1,396.80000000004657,39,0,334.60000000009313,10,1,experiment,NA,NA,0,0.1,0.9,1,0,288,7,NA
fcp-trial,324,1295606,0.0-299.0-0.0,voc_e2,12077,"[{""event"":""fullscreenenter"",""trial"":1,""time"":1309}]",NA,NA,NA,NA,NA,3,#D89F1C,#3386FF,10,0,1,38,1,668.8999999999069,37,1,356.5999999998603,10,1,experiment,NA,NA,1,0.7,0.3,2,3,289,7,NA
fcp-trial,325,1298470,0.0-300.0-0.0,voc_e2,12077,"[{""event"":""fullscreenenter"",""trial"":1,""time"":1309}]",NA,NA,NA,NA,NA,5,#3386FF,#D89F1C,10,10,0,38,1,837.1000000000931,39,0,516.3000000000466,10,1,experiment,NA,NA,1,0.3,0.7,3,2,290,7,NA
fcp-trial,326,1304145,0.0-301.0-0.0,voc_e2,12077,"[{""event"":""fullscreenenter"",""trial"":1,""time"":1309}]",NA,NA,NA,NA,NA,2,#FA92F8,#1CD855,10,10,1,38,1,3753.5,37,1,410.39999999990687,10,1,experiment,NA,NA,2,0.5,0.5,4,5,291,7,NA
fcp-trial,327,1306673,0.0-302.0-0.0,voc_e2,12077,"[{""event"":""fullscreenenter"",""trial"":1,""time"":1309}]",NA,NA,NA,NA,NA,0,#D8271C,#741CD8,10,0,1,38,1,632.8999999999069,37,1,383.69999999995343,10,1,experiment,NA,NA,0,0.9,0.1,0,1,292,7,NA
fcp-trial,328,1309745,0.0-303.0-0.0,voc_e2,12077,"[{""event"":""fullscreenenter"",""trial"":1,""time"":1309}]",NA,NA,NA,NA,NA,6,#FA92F8,#1CD855,10,0,1,38,1,1073.1000000000931,39,0,487.80000000004657,0,0,experiment,NA,NA,2,0.5,0.5,4,5,293,7,NA
fcp-trial,329,1312107,0.0-304.0-0.0,voc_e2,12077,"[{""event"":""fullscreenenter"",""trial"":1,""time"":1309}]",NA,NA,NA,NA,NA,3,#741CD8,#D8271C,0,10,0,38,1,477.30000000004657,39,0,373.5,10,1,experiment,NA,NA,0,0.1,0.9,1,0,294,7,NA
fcp-trial,330,1314581,0.0-305.0-0.0,voc_e2,12077,"[{""event"":""fullscreenenter"",""trial"":1,""time"":1309}]",NA,NA,NA,NA,NA,4,#1CD855,#FA92F8,10,10,0,38,1,564.8999999999069,37,1,396.80000000004657,10,0,experiment,NA,NA,2,0.5,0.5,5,4,295,7,NA
fcp-trial,331,1317023,0.0-306.0-0.0,voc_e2,12077,"[{""event"":""fullscreenenter"",""trial"":1,""time"":1309}]",NA,NA,NA,NA,NA,5,#D89F1C,#3386FF,10,0,1,38,1,481.5,37,1,452.60000000009313,10,1,experiment,NA,NA,1,0.7,0.3,2,3,296,7,NA
fcp-trial,332,1319222,0.0-307.0-0.0,voc_e2,12077,"[{""event"":""fullscreenenter"",""trial"":1,""time"":1309}]",NA,NA,NA,NA,NA,6,#1CD855,#FA92F8,10,0,0,38,1,261.4000000001397,37,1,425,10,0,experiment,NA,NA,2,0.5,0.5,5,4,297,7,NA
fcp-trial,333,1321531,0.0-308.0-0.0,voc_e2,12077,"[{""event"":""fullscreenenter"",""trial"":1,""time"":1309}]",NA,NA,NA,NA,NA,2,#1CD855,#FA92F8,10,0,0,38,1,371.0999999998603,39,0,425.5999999998603,0,1,experiment,NA,NA,2,0.5,0.5,5,4,298,7,NA
fcp-trial,334,1323504,0.0-309.0-0.0,voc_e2,12077,"[{""event"":""fullscreenenter"",""trial"":1,""time"":1309}]",NA,NA,NA,NA,NA,4,#741CD8,#D8271C,0,10,0,38,1,105.5,37,1,357.4000000001397,0,0,experiment,NA,NA,0,0.1,0.9,1,0,299,7,NA
fcp-trial,335,1326399,0.0-310.0-0.0,voc_e2,12077,"[{""event"":""fullscreenenter"",""trial"":1,""time"":1309}]",NA,NA,NA,NA,NA,2,#D89F1C,#3386FF,0,0,1,38,1,389.5,37,1,995.6999999999534,0,1,experiment,NA,NA,1,0.7,0.3,2,3,300,7,NA
fcp-trial,336,1328685,0.0-311.0-0.0,voc_e2,12077,"[{""event"":""fullscreenenter"",""trial"":1,""time"":1309}]",NA,NA,NA,NA,NA,5,#FA92F8,#1CD855,0,0,1,38,1,340.0999999998603,39,0,436.5,0,0,experiment,NA,NA,2,0.5,0.5,4,5,301,7,NA
fcp-trial,337,1337342,0.0-312.0-0.0,voc_e2,12077,"[{""event"":""fullscreenenter"",""trial"":1,""time"":1309}]",NA,NA,NA,NA,NA,0,#741CD8,#D8271C,0,10,0,38,1,6761.90000000014,39,0,384.39999999990687,10,1,experiment,NA,NA,0,0.1,0.9,1,0,302,7,NA
fcp-trial,338,1340085,0.0-313.0-0.0,voc_e2,12077,"[{""event"":""fullscreenenter"",""trial"":1,""time"":1309}]",NA,NA,NA,NA,NA,1,#1CD855,#FA92F8,10,0,0,38,1,546.9000000001397,39,0,686.1999999999534,0,1,experiment,NA,NA,2,0.5,0.5,5,4,303,7,NA
fcp-trial,339,1342611,0.0-314.0-0.0,voc_e2,12077,"[{""event"":""fullscreenenter"",""trial"":1,""time"":1309}]",NA,NA,NA,NA,NA,3,#D89F1C,#3386FF,10,0,1,38,1,463.5999999998603,37,1,549.8000000000466,10,1,experiment,NA,NA,1,0.7,0.3,2,3,304,7,NA
fcp-trial,340,1345178,0.0-315.0-0.0,voc_e2,12077,"[{""event"":""fullscreenenter"",""trial"":1,""time"":1309}]",NA,NA,NA,NA,NA,6,#D89F1C,#3386FF,10,0,1,38,1,420.19999999995343,37,1,634.5,10,1,experiment,NA,NA,1,0.7,0.3,2,3,305,7,NA
fcp-trial,341,1347498,0.0-316.0-0.0,voc_e2,12077,"[{""event"":""fullscreenenter"",""trial"":1,""time"":1309}]",NA,NA,NA,NA,NA,1,#D8271C,#741CD8,10,0,1,38,1,268.29999999981374,37,1,540,10,1,experiment,NA,NA,0,0.9,0.1,0,1,306,7,NA
fcp-trial,342,1350540,0.0-317.0-0.0,voc_e2,12077,"[{""event"":""fullscreenenter"",""trial"":1,""time"":1309}]",NA,NA,NA,NA,NA,0,#FA92F8,#1CD855,10,10,1,38,1,1040.5,37,1,487.4000000001397,10,1,experiment,NA,NA,2,0.5,0.5,4,5,307,7,NA
fcp-trial,343,1352988,0.0-318.0-0.0,voc_e2,12077,"[{""event"":""fullscreenenter"",""trial"":1,""time"":1309}]",NA,NA,NA,NA,NA,5,#D8271C,#741CD8,10,10,1,38,1,476.80000000004657,37,1,465.19999999995343,10,1,experiment,NA,NA,0,0.9,0.1,0,1,308,7,NA
fcp-trial,344,1356475,0.0-319.0-0.0,voc_e2,12077,"[{""event"":""fullscreenenter"",""trial"":1,""time"":1309}]",NA,NA,NA,NA,NA,2,#741CD8,#D8271C,0,10,0,40,0,1199.5,37,1,776.1999999999534,0,0,experiment,NA,NA,0,0.1,0.9,1,0,309,7,NA
fcp-trial,345,1359176,0.0-320.0-0.0,voc_e2,12077,"[{""event"":""fullscreenenter"",""trial"":1,""time"":1309}]",NA,NA,NA,NA,NA,0,#D89F1C,#3386FF,10,0,1,38,1,682.1999999999534,37,1,508.69999999995343,10,1,experiment,NA,NA,1,0.7,0.3,2,3,310,7,NA
fcp-trial,346,1361891,0.0-321.0-0.0,voc_e2,12077,"[{""event"":""fullscreenenter"",""trial"":1,""time"":1309}]",NA,NA,NA,NA,NA,3,#FA92F8,#1CD855,0,10,1,38,1,671.5,37,1,532,0,1,experiment,NA,NA,2,0.5,0.5,4,5,311,7,NA
fcp-trial,347,1364992,0.0-322.0-0.0,voc_e2,12077,"[{""event"":""fullscreenenter"",""trial"":1,""time"":1309}]",NA,NA,NA,NA,NA,4,#D89F1C,#3386FF,10,10,1,38,1,1093.1000000000931,37,1,495.89999999990687,10,1,experiment,NA,NA,1,0.7,0.3,2,3,312,7,NA
fcp-trial,348,1367975,0.0-323.0-0.0,voc_e2,12077,"[{""event"":""fullscreenenter"",""trial"":1,""time"":1309}]",NA,NA,NA,NA,NA,1,#D89F1C,#3386FF,10,0,1,38,1,1140.6000000000931,37,1,329,10,1,experiment,NA,NA,1,0.7,0.3,2,3,313,7,NA
fcp-trial,349,1370328,0.0-324.0-0.0,voc_e2,12077,"[{""event"":""fullscreenenter"",""trial"":1,""time"":1309}]",NA,NA,NA,NA,NA,6,#D8271C,#741CD8,10,0,1,38,1,401.5,37,1,440.20000000018626,10,1,experiment,NA,NA,0,0.9,0.1,0,1,314,7,NA
fcp-trial,350,1372669,0.0-325.0-0.0,voc_e2,12077,"[{""event"":""fullscreenenter"",""trial"":1,""time"":1309}]",NA,NA,NA,NA,NA,3,#D8271C,#741CD8,10,0,1,38,1,401.80000000004657,37,1,426.60000000009313,10,1,experiment,NA,NA,0,0.9,0.1,0,1,315,7,NA
audio-instructions,351,1379090,0.0-326.0,voc_e2,12077,"[{""event"":""fullscreenenter"",""trial"":1,""time"":1309}]",NA,748.5,static/audio/finished.wav,NA,0,NA,NA,NA,NA,NA,NA,NA,NA,NA,NA,NA,NA,NA,NA,NA,NA,NA,NA,NA,NA,NA,NA,NA,NA,NA
audio-instructions,352,1392220,0.0-327.0-0.0,voc_e2,12077,"[{""event"":""fullscreenenter"",""trial"":1,""time"":1309}]",NA,2291.1999999999534,static/audio/explicit1.wav,NA,0,NA,NA,NA,NA,NA,NA,NA,NA,NA,NA,NA,NA,NA,NA,NA,NA,NA,NA,NA,NA,NA,NA,NA,NA,NA
audio-instructions,353,1400445,0.0-327.0-1.0,voc_e2,12077,"[{""event"":""fullscreenenter"",""trial"":1,""time"":1309}]",NA,626.3000000000466,static/audio/explicit2.wav,NA,0,NA,NA,NA,NA,NA,NA,NA,NA,NA,NA,NA,NA,NA,NA,NA,NA,NA,NA,NA,NA,NA,NA,NA,NA,NA
image-slider-response,354,1403436,0.0-328.0,voc_e2,12077,"[{""event"":""fullscreenenter"",""trial"":1,""time"":1309}]",NA,2986.8000000000466,static/img/machines/machine4.png,NA,NA,NA,NA,NA,NA,NA,NA,NA,NA,NA,NA,NA,NA,NA,NA,explicit,NA,NA,NA,NA,NA,NA,NA,NA,NA,7
image-slider-response,355,1406365,0.0-329.0,voc_e2,12077,"[{""event"":""fullscreenenter"",""trial"":1,""time"":1309}]",NA,2925.3000000000466,static/img/machines/machine5.png,NA,NA,NA,NA,NA,NA,NA,NA,NA,NA,NA,NA,NA,NA,NA,NA,explicit,NA,NA,NA,NA,NA,NA,NA,NA,NA,6
image-slider-response,356,1408903,0.0-330.0,voc_e2,12077,"[{""event"":""fullscreenenter"",""trial"":1,""time"":1309}]",NA,2532.600000000093,static/img/machines/machine3.png,NA,NA,NA,NA,NA,NA,NA,NA,NA,NA,NA,NA,NA,NA,NA,NA,explicit,NA,NA,NA,NA,NA,NA,NA,NA,NA,3
image-slider-response,357,1411019,0.0-331.0,voc_e2,12077,"[{""event"":""fullscreenenter"",""trial"":1,""time"":1309}]",NA,2112.600000000093,static/img/machines/machine1.png,NA,NA,NA,NA,NA,NA,NA,NA,NA,NA,NA,NA,NA,NA,NA,NA,explicit,NA,NA,NA,NA,NA,NA,NA,NA,NA,9
image-slider-response,358,1413350,0.0-332.0,voc_e2,12077,"[{""event"":""fullscreenenter"",""trial"":1,""time"":1309}]",NA,2327.399999999907,static/img/machines/machine2.png,NA,NA,NA,NA,NA,NA,NA,NA,NA,NA,NA,NA,NA,NA,NA,NA,explicit,NA,NA,NA,NA,NA,NA,NA,NA,NA,6
image-slider-response,359,1415187,0.0-333.0,voc_e2,12077,"[{""event"":""fullscreenenter"",""trial"":1,""time"":1309}]",NA,1833,static/img/machines/machine6.png,NA,NA,NA,NA,NA,NA,NA,NA,NA,NA,NA,NA,NA,NA,NA,NA,explicit,NA,NA,NA,NA,NA,NA,NA,NA,NA,6
