trial_type,trial_index,time_elapsed,internal_node_id,task_version,subject_id,interactions,success,rt,stimulus,key_press,button_pressed,offer,arcade_color_L,arcade_color_R,arcade_outcome_L,arcade_outcome_R,correct,stage_1_key,stage_1_choice,stage_1_rt,stage_2_key,stage_2_choice,stage_2_rt,stage_3_outcome,accuracy,phase,responses,num_errors,context,reward_prob_L,reward_prob_R,arcade_id_L,arcade_id_R,trial,block,response
pavlovia,0,14,0.0-0.0,voc_e2,12378,[],NA,NA,NA,NA,NA,NA,NA,NA,NA,NA,NA,NA,NA,NA,NA,NA,NA,NA,NA,NA,NA,NA,NA,NA,NA,NA,NA,NA,NA,NA
fullscreen,1,3210,0.0-1.0,voc_e2,12378,"[{""event"":""fullscreenenter"",""trial"":1,""time"":2237}]",TRUE,NA,NA,NA,NA,NA,NA,NA,NA,NA,NA,NA,NA,NA,NA,NA,NA,NA,NA,NA,NA,NA,NA,NA,NA,NA,NA,NA,NA,NA
audio-keyboard-response,2,6004,0.0-2.0,voc_e2,12378,"[{""event"":""fullscreenenter"",""trial"":1,""time"":2237}]",NA,2709,static/audio/beep_loop.wav,32,NA,NA,NA,NA,NA,NA,NA,NA,NA,NA,NA,NA,NA,NA,NA,NA,NA,NA,NA,NA,NA,NA,NA,NA,NA,NA
audio-test,3,7987,0.0-3.0,voc_e2,12378,"[{""event"":""fullscreenenter"",""trial"":1,""time"":2237}]",NA,NA,static/audio/turtle.wav,NA,3,NA,NA,NA,NA,NA,NA,NA,NA,NA,NA,NA,NA,NA,NA,NA,NA,NA,NA,NA,NA,NA,NA,NA,NA,NA
audio-test,4,10171,0.0-4.0,voc_e2,12378,"[{""event"":""fullscreenenter"",""trial"":1,""time"":2237}]",NA,NA,static/audio/shark.wav,NA,2,NA,NA,NA,NA,NA,NA,NA,NA,NA,NA,NA,NA,NA,NA,NA,NA,NA,NA,NA,NA,NA,NA,NA,NA,NA
audio-instructions,5,17523,0.0-5.0-0.0,voc_e2,12378,"[{""event"":""fullscreenenter"",""trial"":1,""time"":2237}]",NA,1565.3000000044703,static/audio/instructions1.wav,NA,0,NA,NA,NA,NA,NA,NA,NA,NA,NA,NA,NA,NA,NA,NA,NA,NA,NA,NA,NA,NA,NA,NA,NA,NA,NA
audio-instructions,6,29857,0.0-5.0-1.0,voc_e2,12378,"[{""event"":""fullscreenenter"",""trial"":1,""time"":2237}]",NA,5589.5,static/audio/instructions2.wav,NA,0,NA,NA,NA,NA,NA,NA,NA,NA,NA,NA,NA,NA,NA,NA,NA,NA,NA,NA,NA,NA,NA,NA,NA,NA,NA
audio-instructions,7,36392,0.0-5.0-2.0,voc_e2,12378,"[{""event"":""fullscreenenter"",""trial"":1,""time"":2237}]",NA,730.3999999985099,static/audio/instructions3.wav,NA,0,NA,NA,NA,NA,NA,NA,NA,NA,NA,NA,NA,NA,NA,NA,NA,NA,NA,NA,NA,NA,NA,NA,NA,NA,NA
audio-instructions,8,51111,0.0-5.0-3.0,voc_e2,12378,"[{""event"":""fullscreenenter"",""trial"":1,""time"":2237}]",NA,1489.10000000149,static/audio/instructions4.wav,NA,0,NA,NA,NA,NA,NA,NA,NA,NA,NA,NA,NA,NA,NA,NA,NA,NA,NA,NA,NA,NA,NA,NA,NA,NA,NA
audio-instructions,9,61295,0.0-5.0-4.0,voc_e2,12378,"[{""event"":""fullscreenenter"",""trial"":1,""time"":2237}]",NA,792.6999999955297,static/audio/instructions5.wav,NA,0,NA,NA,NA,NA,NA,NA,NA,NA,NA,NA,NA,NA,NA,NA,NA,NA,NA,NA,NA,NA,NA,NA,NA,NA,NA
fcp-practice,10,63912,0.0-5.0-5.0-0.0,voc_e2,12378,"[{""event"":""fullscreenenter"",""trial"":1,""time"":2237}]",NA,NA,NA,NA,NA,NA,#EDC948,#46d3c8,10,0,1,null,null,null,37,1,1098.89999999851,10,1,practice,NA,NA,NA,NA,NA,NA,NA,NA,NA,NA
fcp-practice,11,66095,0.0-5.0-5.0-1.0,voc_e2,12378,"[{""event"":""fullscreenenter"",""trial"":1,""time"":2237}]",NA,NA,NA,NA,NA,NA,#EDC948,#46d3c8,10,0,1,null,null,null,37,1,675.6000000014901,10,1,practice,NA,NA,NA,NA,NA,NA,NA,NA,NA,NA
fcp-practice,12,68119,0.0-5.0-5.0-2.0,voc_e2,12378,"[{""event"":""fullscreenenter"",""trial"":1,""time"":2237}]",NA,NA,NA,NA,NA,NA,#EDC948,#46d3c8,0,10,1,null,null,null,37,1,516.3999999985099,0,1,practice,NA,NA,NA,NA,NA,NA,NA,NA,NA,NA
fcp-practice,13,70165,0.0-5.0-5.0-3.0,voc_e2,12378,"[{""event"":""fullscreenenter"",""trial"":1,""time"":2237}]",NA,NA,NA,NA,NA,NA,#EDC948,#46d3c8,10,0,1,null,null,null,37,1,541.5999999940395,10,1,practice,NA,NA,NA,NA,NA,NA,NA,NA,NA,NA
fcp-practice,14,72267,0.0-5.0-5.0-4.0,voc_e2,12378,"[{""event"":""fullscreenenter"",""trial"":1,""time"":2237}]",NA,NA,NA,NA,NA,NA,#EDC948,#46d3c8,10,0,1,null,null,null,37,1,597.8999999985099,10,1,practice,NA,NA,NA,NA,NA,NA,NA,NA,NA,NA
audio-instructions,15,106779,0.0-5.0-6.0,voc_e2,12378,"[{""event"":""fullscreenenter"",""trial"":1,""time"":2237}]",NA,16502.10000000149,static/audio/instructions6.wav,NA,0,NA,NA,NA,NA,NA,NA,NA,NA,NA,NA,NA,NA,NA,NA,NA,NA,NA,NA,NA,NA,NA,NA,NA,NA,NA
audio-instructions,16,144897,0.0-5.0-7.0,voc_e2,12378,"[{""event"":""fullscreenenter"",""trial"":1,""time"":2237}]",NA,18914.39999999851,static/audio/instructions7.wav,NA,0,NA,NA,NA,NA,NA,NA,NA,NA,NA,NA,NA,NA,NA,NA,NA,NA,NA,NA,NA,NA,NA,NA,NA,NA,NA
audio-instructions,17,155145,0.0-5.0-8.0,voc_e2,12378,"[{""event"":""fullscreenenter"",""trial"":1,""time"":2237}]",NA,773.1000000014901,static/audio/instructions8.wav,NA,0,NA,NA,NA,NA,NA,NA,NA,NA,NA,NA,NA,NA,NA,NA,NA,NA,NA,NA,NA,NA,NA,NA,NA,NA,NA
fcp-comprehension,18,175263,0.0-5.0-9.0,voc_e2,12378,"[{""event"":""fullscreenenter"",""trial"":1,""time"":2237}]",NA,20110.89999999851,NA,NA,NA,NA,NA,NA,NA,NA,NA,NA,NA,NA,NA,NA,NA,NA,NA,NA,"true,true",0,NA,NA,NA,NA,NA,NA,NA,NA
audio-instructions,19,181646,0.0-6.0-0.0,voc_e2,12378,"[{""event"":""fullscreenenter"",""trial"":1,""time"":2237}]",NA,833.7999999970198,static/audio/instructions9.wav,NA,0,NA,NA,NA,NA,NA,NA,NA,NA,NA,NA,NA,NA,NA,NA,NA,NA,NA,NA,NA,NA,NA,NA,NA,NA,NA
audio-instructions,20,194345,0.0-6.0-1.0,voc_e2,12378,"[{""event"":""fullscreenenter"",""trial"":1,""time"":2237}]",NA,578.3999999985099,static/audio/instructions10.wav,NA,0,NA,NA,NA,NA,NA,NA,NA,NA,NA,NA,NA,NA,NA,NA,NA,NA,NA,NA,NA,NA,NA,NA,NA,NA,NA
fcp-trial,21,201882,0.0-6.0-2.0,voc_e2,12378,"[{""event"":""fullscreenenter"",""trial"":1,""time"":2237}]",NA,NA,NA,NA,NA,0,#EDC948,#46d3c8,10,10,1,38,1,4192.69999999553,39,0,1831.29999999702,10,0,practice,NA,NA,NA,NA,NA,NA,NA,NA,NA,NA
audio-instructions,22,215329,0.0-6.0-3.0,voc_e2,12378,"[{""event"":""fullscreenenter"",""trial"":1,""time"":2237}]",NA,2434.3000000044703,static/audio/instructions11.wav,NA,0,NA,NA,NA,NA,NA,NA,NA,NA,NA,NA,NA,NA,NA,NA,NA,NA,NA,NA,NA,NA,NA,NA,NA,NA,NA
fcp-trial,23,220332,0.0-6.0-4.0,voc_e2,12378,"[{""event"":""fullscreenenter"",""trial"":1,""time"":2237}]",NA,NA,NA,NA,NA,6,#EDC948,#46d3c8,10,10,1,40,0,1380.7000000029802,39,0,2112.29999999702,10,0,practice,NA,NA,NA,NA,NA,NA,NA,NA,NA,NA
audio-instructions,24,243478,0.0-6.0-5.0,voc_e2,12378,"[{""event"":""fullscreenenter"",""trial"":1,""time"":2237}]",NA,4453.29999999702,static/audio/instructions12.wav,NA,0,NA,NA,NA,NA,NA,NA,NA,NA,NA,NA,NA,NA,NA,NA,NA,NA,NA,NA,NA,NA,NA,NA,NA,NA,NA
audio-instructions,25,260562,0.0-6.0-6.0,voc_e2,12378,"[{""event"":""fullscreenenter"",""trial"":1,""time"":2237}]",NA,9488.60000000149,static/audio/instructions13.wav,NA,0,NA,NA,NA,NA,NA,NA,NA,NA,NA,NA,NA,NA,NA,NA,NA,NA,NA,NA,NA,NA,NA,NA,NA,NA,NA
audio-instructions,26,270279,0.0-6.0-7.0,voc_e2,12378,"[{""event"":""fullscreenenter"",""trial"":1,""time"":2237}]",NA,1264.9000000059605,static/audio/instructions14.wav,NA,0,NA,NA,NA,NA,NA,NA,NA,NA,NA,NA,NA,NA,NA,NA,NA,NA,NA,NA,NA,NA,NA,NA,NA,NA,NA
audio-instructions,27,281077,0.0-7.0-0.0,voc_e2,12378,"[{""event"":""fullscreenenter"",""trial"":1,""time"":2237}]",NA,3887.60000000149,static/audio/instructions15.wav,NA,0,NA,NA,NA,NA,NA,NA,NA,NA,NA,NA,NA,NA,NA,NA,NA,NA,NA,NA,NA,NA,NA,NA,NA,NA,NA
audio-instructions,28,288744,0.0-7.0-1.0,voc_e2,12378,"[{""event"":""fullscreenenter"",""trial"":1,""time"":2237}]",NA,835,static/audio/instructions16.wav,NA,0,NA,NA,NA,NA,NA,NA,NA,NA,NA,NA,NA,NA,NA,NA,NA,NA,NA,NA,NA,NA,NA,NA,NA,NA,NA
audio-instructions,29,297561,0.0-7.0-2.0,voc_e2,12378,"[{""event"":""fullscreenenter"",""trial"":1,""time"":2237}]",NA,1133.89999999851,static/audio/instructions17.wav,NA,0,NA,NA,NA,NA,NA,NA,NA,NA,NA,NA,NA,NA,NA,NA,NA,NA,NA,NA,NA,NA,NA,NA,NA,NA,NA
audio-instructions,30,305844,0.0-7.0-3.0,voc_e2,12378,"[{""event"":""fullscreenenter"",""trial"":1,""time"":2237}]",NA,516,static/audio/instructions18.wav,NA,0,NA,NA,NA,NA,NA,NA,NA,NA,NA,NA,NA,NA,NA,NA,NA,NA,NA,NA,NA,NA,NA,NA,NA,NA,NA
audio-instructions,31,314578,0.0-7.0-4.0,voc_e2,12378,"[{""event"":""fullscreenenter"",""trial"":1,""time"":2237}]",NA,1991.1999999955297,static/audio/instructions19.wav,NA,0,NA,NA,NA,NA,NA,NA,NA,NA,NA,NA,NA,NA,NA,NA,NA,NA,NA,NA,NA,NA,NA,NA,NA,NA,NA
fcp-comprehension,32,328831,0.0-7.0-5.0,voc_e2,12378,"[{""event"":""fullscreenenter"",""trial"":1,""time"":2237}]",NA,14249.20000000298,NA,NA,NA,NA,NA,NA,NA,NA,NA,NA,NA,NA,NA,NA,NA,NA,NA,NA,"false,false,false,true",0,NA,NA,NA,NA,NA,NA,NA,NA
audio-instructions,33,339675,0.0-8.0,voc_e2,12378,"[{""event"":""fullscreenenter"",""trial"":1,""time"":2237}]",NA,1627.5,static/audio/ready.wav,NA,0,NA,NA,NA,NA,NA,NA,NA,NA,NA,NA,NA,NA,NA,NA,NA,NA,NA,NA,NA,NA,NA,NA,NA,NA,NA
fcp-trial,34,345395,0.0-9.0-0.0,voc_e2,12378,"[{""event"":""fullscreenenter"",""trial"":1,""time"":2237}]",NA,NA,NA,NA,NA,1,#D89F1C,#3386FF,0,10,0,40,0,2607.89999999851,37,1,1599.6999999955297,0,0,experiment,NA,NA,0,0.1,0.9,1,0,1,1,NA
fcp-trial,35,349433,0.0-10.0-0.0,voc_e2,12378,"[{""event"":""fullscreenenter"",""trial"":1,""time"":2237}]",NA,NA,NA,NA,NA,0,#1CD855,#FA92F8,10,10,0,40,0,1283.6000000014901,37,1,1248,10,0,experiment,NA,NA,2,0.5,0.5,5,4,2,1,NA
fcp-trial,36,354117,0.0-11.0-0.0,voc_e2,12378,"[{""event"":""fullscreenenter"",""trial"":1,""time"":2237}]",NA,NA,NA,NA,NA,6,#3386FF,#D89F1C,0,0,1,40,0,2130,39,0,1049.5,0,0,experiment,NA,NA,0,0.9,0.1,0,1,3,1,NA
fcp-trial,37,357677,0.0-12.0-0.0,voc_e2,12378,"[{""event"":""fullscreenenter"",""trial"":1,""time"":2237}]",NA,NA,NA,NA,NA,3,#FA92F8,#1CD855,10,10,1,40,0,1324.7000000029802,37,1,727.5999999940395,10,1,experiment,NA,NA,2,0.5,0.5,4,5,4,1,NA
fcp-trial,38,362194,0.0-13.0-0.0,voc_e2,12378,"[{""event"":""fullscreenenter"",""trial"":1,""time"":2237}]",NA,NA,NA,NA,NA,0,#D8271C,#741CD8,10,10,1,40,0,2132.6999999955297,39,0,874.5,10,0,experiment,NA,NA,1,0.7,0.3,2,3,5,1,NA
fcp-trial,39,366432,0.0-14.0-0.0,voc_e2,12378,"[{""event"":""fullscreenenter"",""trial"":1,""time"":2237}]",NA,NA,NA,NA,NA,3,#D8271C,#741CD8,10,10,1,40,0,1900.5,37,1,829.8999999985099,10,1,experiment,NA,NA,1,0.7,0.3,2,3,6,1,NA
fcp-trial,40,369935,0.0-15.0-0.0,voc_e2,12378,"[{""event"":""fullscreenenter"",""trial"":1,""time"":2237}]",NA,NA,NA,NA,NA,2,#3386FF,#D89F1C,10,0,1,40,0,1194.1999999955297,39,0,804.3999999985099,0,0,experiment,NA,NA,0,0.9,0.1,0,1,7,1,NA
fcp-trial,41,373816,0.0-16.0-0.0,voc_e2,12378,"[{""event"":""fullscreenenter"",""trial"":1,""time"":2237}]",NA,NA,NA,NA,NA,4,#FA92F8,#1CD855,0,0,1,40,0,1540.3999999985099,37,1,830.5,0,1,experiment,NA,NA,2,0.5,0.5,4,5,8,1,NA
fcp-trial,42,377306,0.0-17.0-0.0,voc_e2,12378,"[{""event"":""fullscreenenter"",""trial"":1,""time"":2237}]",NA,NA,NA,NA,NA,2,#D8271C,#741CD8,10,0,1,40,0,1298.9000000059605,39,0,681.4000000059605,0,0,experiment,NA,NA,1,0.7,0.3,2,3,9,1,NA
fcp-trial,43,380962,0.0-18.0-0.0,voc_e2,12378,"[{""event"":""fullscreenenter"",""trial"":1,""time"":2237}]",NA,NA,NA,NA,NA,5,#3386FF,#D89F1C,10,0,1,40,0,1382.1000000014901,37,1,766.6000000014901,10,1,experiment,NA,NA,0,0.9,0.1,0,1,10,1,NA
fcp-trial,44,384133,0.0-19.0-0.0,voc_e2,12378,"[{""event"":""fullscreenenter"",""trial"":1,""time"":2237}]",NA,NA,NA,NA,NA,5,#FA92F8,#1CD855,0,10,1,40,0,1064.6000000014901,39,0,598.6000000014901,10,0,experiment,NA,NA,2,0.5,0.5,4,5,11,1,NA
fcp-trial,45,387100,0.0-20.0-0.0,voc_e2,12378,"[{""event"":""fullscreenenter"",""trial"":1,""time"":2237}]",NA,NA,NA,NA,NA,5,#D8271C,#741CD8,10,10,1,40,0,844.8000000044703,37,1,614.6000000014901,10,1,experiment,NA,NA,1,0.7,0.3,2,3,12,1,NA
fcp-trial,46,389932,0.0-21.0-0.0,voc_e2,12378,"[{""event"":""fullscreenenter"",""trial"":1,""time"":2237}]",NA,NA,NA,NA,NA,6,#FA92F8,#1CD855,10,10,1,40,0,830.3999999985099,39,0,493.79999999701977,10,0,experiment,NA,NA,2,0.5,0.5,4,5,13,1,NA
fcp-trial,47,392766,0.0-22.0-0.0,voc_e2,12378,"[{""event"":""fullscreenenter"",""trial"":1,""time"":2237}]",NA,NA,NA,NA,NA,2,#1CD855,#FA92F8,10,10,0,40,0,801.8000000044703,37,1,520.9000000059605,10,0,experiment,NA,NA,2,0.5,0.5,5,4,14,1,NA
fcp-trial,48,395836,0.0-23.0-0.0,voc_e2,12378,"[{""event"":""fullscreenenter"",""trial"":1,""time"":2237}]",NA,NA,NA,NA,NA,3,#D89F1C,#3386FF,0,10,0,40,0,809.7999999970198,39,0,749.5,10,1,experiment,NA,NA,0,0.1,0.9,1,0,15,1,NA
fcp-trial,49,398424,0.0-24.0-0.0,voc_e2,12378,"[{""event"":""fullscreenenter"",""trial"":1,""time"":2237}]",NA,NA,NA,NA,NA,0,#D89F1C,#3386FF,0,0,0,40,0,610.1000000014901,39,0,467.20000000298023,0,1,experiment,NA,NA,0,0.1,0.9,1,0,16,1,NA
fcp-trial,50,401352,0.0-25.0-0.0,voc_e2,12378,"[{""event"":""fullscreenenter"",""trial"":1,""time"":2237}]",NA,NA,NA,NA,NA,4,#D8271C,#741CD8,0,10,1,40,0,887.8999999985099,37,1,527.8999999985099,0,1,experiment,NA,NA,1,0.7,0.3,2,3,17,1,NA
fcp-trial,51,404383,0.0-26.0-0.0,voc_e2,12378,"[{""event"":""fullscreenenter"",""trial"":1,""time"":2237}]",NA,NA,NA,NA,NA,4,#3386FF,#D89F1C,10,0,1,40,0,1005.8999999985099,37,1,516,10,1,experiment,NA,NA,0,0.9,0.1,0,1,18,1,NA
fcp-trial,52,407683,0.0-27.0-0.0,voc_e2,12378,"[{""event"":""fullscreenenter"",""trial"":1,""time"":2237}]",NA,NA,NA,NA,NA,1,#FA92F8,#1CD855,0,0,1,40,0,1040.7999999970198,37,1,749.7999999970198,0,1,experiment,NA,NA,2,0.5,0.5,4,5,19,1,NA
fcp-trial,53,412785,0.0-28.0-0.0,voc_e2,12378,"[{""event"":""fullscreenenter"",""trial"":1,""time"":2237}]",NA,NA,NA,NA,NA,6,#D8271C,#741CD8,10,0,1,40,0,2929.89999999851,37,1,663.5,10,1,experiment,NA,NA,1,0.7,0.3,2,3,20,1,NA
fcp-trial,54,416070,0.0-29.0-0.0,voc_e2,12378,"[{""event"":""fullscreenenter"",""trial"":1,""time"":2237}]",NA,NA,NA,NA,NA,1,#D8271C,#741CD8,0,0,1,40,0,1226.5,39,0,548.5,0,0,experiment,NA,NA,1,0.7,0.3,2,3,21,1,NA
fcp-trial,55,419531,0.0-30.0-0.0,voc_e2,12378,"[{""event"":""fullscreenenter"",""trial"":1,""time"":2237}]",NA,NA,NA,NA,NA,3,#FA92F8,#1CD855,0,0,1,38,1,1456.6000000014901,39,0,495.3999999985099,0,0,experiment,NA,NA,2,0.5,0.5,4,5,22,1,NA
fcp-trial,56,422994,0.0-31.0-0.0,voc_e2,12378,"[{""event"":""fullscreenenter"",""trial"":1,""time"":2237}]",NA,NA,NA,NA,NA,5,#3386FF,#D89F1C,10,0,1,38,1,1448.2999999970198,37,1,504.1000000014901,10,1,experiment,NA,NA,0,0.9,0.1,0,1,23,1,NA
fcp-trial,57,427667,0.0-32.0-0.0,voc_e2,12378,"[{""event"":""fullscreenenter"",""trial"":1,""time"":2237}]",NA,NA,NA,NA,NA,0,#D8271C,#741CD8,10,0,1,38,1,2780.5,39,0,381.3999999985099,0,0,experiment,NA,NA,1,0.7,0.3,2,3,24,1,NA
fcp-trial,58,432768,0.0-33.0-0.0,voc_e2,12378,"[{""event"":""fullscreenenter"",""trial"":1,""time"":2237}]",NA,NA,NA,NA,NA,5,#741CD8,#D8271C,10,0,0,40,0,2043.5,39,0,1548.60000000149,0,1,experiment,NA,NA,1,0.3,0.7,3,2,25,1,NA
fcp-trial,59,436071,0.0-34.0-0.0,voc_e2,12378,"[{""event"":""fullscreenenter"",""trial"":1,""time"":2237}]",NA,NA,NA,NA,NA,1,#FA92F8,#1CD855,0,10,1,38,1,1373.8999999985099,39,0,418.8999999985099,10,0,experiment,NA,NA,2,0.5,0.5,4,5,26,1,NA
fcp-trial,60,438874,0.0-35.0-0.0,voc_e2,12378,"[{""event"":""fullscreenenter"",""trial"":1,""time"":2237}]",NA,NA,NA,NA,NA,4,#D89F1C,#3386FF,0,10,0,38,1,963.7999999970198,39,0,328.6000000014901,10,1,experiment,NA,NA,0,0.1,0.9,1,0,27,1,NA
fcp-trial,61,442970,0.0-36.0-0.0,voc_e2,12378,"[{""event"":""fullscreenenter"",""trial"":1,""time"":2237}]",NA,NA,NA,NA,NA,2,#D8271C,#741CD8,10,10,1,38,1,1932.0999999940395,39,0,653.7999999970198,10,0,experiment,NA,NA,1,0.7,0.3,2,3,28,1,NA
fcp-trial,62,446375,0.0-37.0-0.0,voc_e2,12378,"[{""event"":""fullscreenenter"",""trial"":1,""time"":2237}]",NA,NA,NA,NA,NA,2,#3386FF,#D89F1C,10,0,1,38,1,1515.7000000029802,37,1,380.8999999985099,10,1,experiment,NA,NA,0,0.9,0.1,0,1,29,1,NA
fcp-trial,63,449183,0.0-38.0-0.0,voc_e2,12378,"[{""event"":""fullscreenenter"",""trial"":1,""time"":2237}]",NA,NA,NA,NA,NA,2,#FA92F8,#1CD855,0,10,1,38,1,833.7000000029802,39,0,462.29999999701977,10,0,experiment,NA,NA,2,0.5,0.5,4,5,30,1,NA
fcp-trial,64,453337,0.0-39.0-0.0,voc_e2,12378,"[{""event"":""fullscreenenter"",""trial"":1,""time"":2237}]",NA,NA,NA,NA,NA,6,#D89F1C,#3386FF,0,10,0,38,1,1748.6999999955297,39,0,896,10,1,experiment,NA,NA,0,0.1,0.9,1,0,31,1,NA
fcp-trial,65,457548,0.0-40.0-0.0,voc_e2,12378,"[{""event"":""fullscreenenter"",""trial"":1,""time"":2237}]",NA,NA,NA,NA,NA,6,#741CD8,#D8271C,0,0,0,38,1,2422.3000000044703,39,0,270.6000000014901,0,1,experiment,NA,NA,1,0.3,0.7,3,2,32,1,NA
fcp-trial,66,461149,0.0-41.0-0.0,voc_e2,12378,"[{""event"":""fullscreenenter"",""trial"":1,""time"":2237}]",NA,NA,NA,NA,NA,1,#D89F1C,#3386FF,0,10,0,38,1,1228.3000000044703,39,0,863.1000000014901,10,1,experiment,NA,NA,0,0.1,0.9,1,0,33,1,NA
fcp-trial,67,465717,0.0-42.0-0.0,voc_e2,12378,"[{""event"":""fullscreenenter"",""trial"":1,""time"":2237}]",NA,NA,NA,NA,NA,5,#1CD855,#FA92F8,10,10,0,38,1,2676.8000000044703,37,1,381.6000000014901,10,0,experiment,NA,NA,2,0.5,0.5,5,4,34,1,NA
fcp-trial,68,468622,0.0-43.0-0.0,voc_e2,12378,"[{""event"":""fullscreenenter"",""trial"":1,""time"":2237}]",NA,NA,NA,NA,NA,0,#3386FF,#D89F1C,10,0,1,38,1,1058.4000000059605,37,1,336,10,1,experiment,NA,NA,0,0.9,0.1,0,1,35,1,NA
fcp-trial,69,472094,0.0-44.0-0.0,voc_e2,12378,"[{""event"":""fullscreenenter"",""trial"":1,""time"":2237}]",NA,NA,NA,NA,NA,1,#741CD8,#D8271C,10,0,0,40,0,1374.3999999985099,39,0,586.1999999955297,0,1,experiment,NA,NA,1,0.3,0.7,3,2,36,1,NA
fcp-trial,70,475605,0.0-45.0-0.0,voc_e2,12378,"[{""event"":""fullscreenenter"",""trial"":1,""time"":2237}]",NA,NA,NA,NA,NA,0,#1CD855,#FA92F8,0,10,0,38,1,1578.8999999985099,37,1,419.6000000014901,0,0,experiment,NA,NA,2,0.5,0.5,5,4,37,1,NA
fcp-trial,71,478370,0.0-46.0-0.0,voc_e2,12378,"[{""event"":""fullscreenenter"",""trial"":1,""time"":2237}]",NA,NA,NA,NA,NA,4,#1CD855,#FA92F8,10,0,0,38,1,880.7999999970198,37,1,375.6000000014901,10,0,experiment,NA,NA,2,0.5,0.5,5,4,38,1,NA
fcp-trial,72,481085,0.0-47.0-0.0,voc_e2,12378,"[{""event"":""fullscreenenter"",""trial"":1,""time"":2237}]",NA,NA,NA,NA,NA,3,#D89F1C,#3386FF,0,0,0,38,1,860,39,0,345.1000000014901,0,1,experiment,NA,NA,0,0.1,0.9,1,0,39,1,NA
fcp-trial,73,483884,0.0-48.0-0.0,voc_e2,12378,"[{""event"":""fullscreenenter"",""trial"":1,""time"":2237}]",NA,NA,NA,NA,NA,6,#FA92F8,#1CD855,10,0,1,38,1,1008.9000000059605,39,0,281.1000000014901,0,0,experiment,NA,NA,2,0.5,0.5,4,5,40,1,NA
fcp-trial,74,486617,0.0-49.0-0.0,voc_e2,12378,"[{""event"":""fullscreenenter"",""trial"":1,""time"":2237}]",NA,NA,NA,NA,NA,4,#741CD8,#D8271C,10,10,0,38,1,932.3999999985099,37,1,289.69999999552965,10,0,experiment,NA,NA,1,0.3,0.7,3,2,41,1,NA
fcp-trial,75,489102,0.0-50.0-0.0,voc_e2,12378,"[{""event"":""fullscreenenter"",""trial"":1,""time"":2237}]",NA,NA,NA,NA,NA,3,#D8271C,#741CD8,10,0,1,38,1,658.2000000029802,39,0,318.19999999552965,0,0,experiment,NA,NA,1,0.7,0.3,2,3,42,1,NA
fcp-trial,76,491806,0.0-51.0-0.0,voc_e2,12378,"[{""event"":""fullscreenenter"",""trial"":1,""time"":2237}]",NA,NA,NA,NA,NA,6,#FA92F8,#1CD855,10,0,1,38,1,790.6000000014901,39,0,404.3999999985099,0,0,experiment,NA,NA,2,0.5,0.5,4,5,43,1,NA
fcp-trial,77,494733,0.0-52.0-0.0,voc_e2,12378,"[{""event"":""fullscreenenter"",""trial"":1,""time"":2237}]",NA,NA,NA,NA,NA,4,#3386FF,#D89F1C,10,0,1,38,1,705,37,1,711,10,1,experiment,NA,NA,0,0.9,0.1,0,1,44,1,NA
fcp-trial,78,497367,0.0-53.0-0.0,voc_e2,12378,"[{""event"":""fullscreenenter"",""trial"":1,""time"":2237}]",NA,NA,NA,NA,NA,6,#D8271C,#741CD8,10,0,1,38,1,821.5,39,0,302.1000000014901,0,0,experiment,NA,NA,1,0.7,0.3,2,3,45,1,NA
fcp-trial,79,499969,0.0-54.0-0.0,voc_e2,12378,"[{""event"":""fullscreenenter"",""trial"":1,""time"":2237}]",NA,NA,NA,NA,NA,3,#3386FF,#D89F1C,10,0,1,38,1,774.7000000029802,37,1,317.80000000447035,10,1,experiment,NA,NA,0,0.9,0.1,0,1,46,2,NA
fcp-trial,80,502833,0.0-55.0-0.0,voc_e2,12378,"[{""event"":""fullscreenenter"",""trial"":1,""time"":2237}]",NA,NA,NA,NA,NA,3,#1CD855,#FA92F8,10,10,0,38,1,587.8000000044703,37,1,768.2999999970198,10,0,experiment,NA,NA,2,0.5,0.5,5,4,47,2,NA
fcp-trial,81,505988,0.0-56.0-0.0,voc_e2,12378,"[{""event"":""fullscreenenter"",""trial"":1,""time"":2237}]",NA,NA,NA,NA,NA,1,#741CD8,#D8271C,0,10,0,38,1,1042.8000000044703,37,1,602.1999999955297,0,0,experiment,NA,NA,1,0.3,0.7,3,2,48,2,NA
fcp-trial,82,508782,0.0-57.0-0.0,voc_e2,12378,"[{""event"":""fullscreenenter"",""trial"":1,""time"":2237}]",NA,NA,NA,NA,NA,5,#FA92F8,#1CD855,0,10,1,38,1,815.2000000029802,39,0,469.70000000298023,10,0,experiment,NA,NA,2,0.5,0.5,4,5,49,2,NA
fcp-trial,83,511201,0.0-58.0-0.0,voc_e2,12378,"[{""event"":""fullscreenenter"",""trial"":1,""time"":2237}]",NA,NA,NA,NA,NA,5,#D89F1C,#3386FF,10,10,0,38,1,547.6000000014901,39,0,359.5,10,1,experiment,NA,NA,0,0.1,0.9,1,0,50,2,NA
fcp-trial,84,514068,0.0-59.0-0.0,voc_e2,12378,"[{""event"":""fullscreenenter"",""trial"":1,""time"":2237}]",NA,NA,NA,NA,NA,0,#1CD855,#FA92F8,0,10,0,38,1,928.7000000029802,37,1,428.19999999552965,0,0,experiment,NA,NA,2,0.5,0.5,5,4,51,2,NA
fcp-trial,85,516648,0.0-60.0-0.0,voc_e2,12378,"[{""event"":""fullscreenenter"",""trial"":1,""time"":2237}]",NA,NA,NA,NA,NA,0,#D89F1C,#3386FF,0,10,0,38,1,723.4000000059605,39,0,348.8999999985099,10,1,experiment,NA,NA,0,0.1,0.9,1,0,52,2,NA
fcp-trial,86,520836,0.0-61.0-0.0,voc_e2,12378,"[{""event"":""fullscreenenter"",""trial"":1,""time"":2237}]",NA,NA,NA,NA,NA,4,#741CD8,#D8271C,0,10,0,38,1,1736.2000000029802,39,0,941,10,1,experiment,NA,NA,1,0.3,0.7,3,2,53,2,NA
fcp-trial,87,523453,0.0-62.0-0.0,voc_e2,12378,"[{""event"":""fullscreenenter"",""trial"":1,""time"":2237}]",NA,NA,NA,NA,NA,6,#D89F1C,#3386FF,0,10,0,38,1,731.6000000014901,39,0,375.29999999701977,10,1,experiment,NA,NA,0,0.1,0.9,1,0,54,2,NA
fcp-trial,88,525890,0.0-63.0-0.0,voc_e2,12378,"[{""event"":""fullscreenenter"",""trial"":1,""time"":2237}]",NA,NA,NA,NA,NA,4,#1CD855,#FA92F8,0,10,0,38,1,495.79999999701977,37,1,428,0,0,experiment,NA,NA,2,0.5,0.5,5,4,55,2,NA
fcp-trial,89,528532,0.0-64.0-0.0,voc_e2,12378,"[{""event"":""fullscreenenter"",""trial"":1,""time"":2237}]",NA,NA,NA,NA,NA,5,#D8271C,#741CD8,10,0,1,38,1,783.6999999955297,37,1,348,10,1,experiment,NA,NA,1,0.7,0.3,2,3,56,2,NA
fcp-trial,90,530916,0.0-65.0-0.0,voc_e2,12378,"[{""event"":""fullscreenenter"",""trial"":1,""time"":2237}]",NA,NA,NA,NA,NA,3,#741CD8,#D8271C,0,10,0,38,1,556.1999999955297,39,0,321.09999999403954,10,1,experiment,NA,NA,1,0.3,0.7,3,2,57,2,NA
fcp-trial,91,533584,0.0-66.0-0.0,voc_e2,12378,"[{""event"":""fullscreenenter"",""trial"":1,""time"":2237}]",NA,NA,NA,NA,NA,1,#D89F1C,#3386FF,0,0,0,38,1,775.6999999955297,39,0,383.70000000298023,0,1,experiment,NA,NA,0,0.1,0.9,1,0,58,2,NA
fcp-trial,92,536278,0.0-67.0-0.0,voc_e2,12378,"[{""event"":""fullscreenenter"",""trial"":1,""time"":2237}]",NA,NA,NA,NA,NA,1,#FA92F8,#1CD855,0,10,1,38,1,789.3000000044703,39,0,392.29999999701977,10,0,experiment,NA,NA,2,0.5,0.5,4,5,59,2,NA
fcp-trial,93,538851,0.0-68.0-0.0,voc_e2,12378,"[{""event"":""fullscreenenter"",""trial"":1,""time"":2237}]",NA,NA,NA,NA,NA,2,#3386FF,#D89F1C,10,0,1,38,1,691,37,1,372.3999999985099,10,1,experiment,NA,NA,0,0.9,0.1,0,1,60,2,NA
fcp-trial,94,542115,0.0-69.0-0.0,voc_e2,12378,"[{""event"":""fullscreenenter"",""trial"":1,""time"":2237}]",NA,NA,NA,NA,NA,2,#741CD8,#D8271C,0,10,0,38,1,826.1000000014901,39,0,929.60000000149,10,1,experiment,NA,NA,1,0.3,0.7,3,2,61,2,NA
fcp-trial,95,544750,0.0-70.0-0.0,voc_e2,12378,"[{""event"":""fullscreenenter"",""trial"":1,""time"":2237}]",NA,NA,NA,NA,NA,2,#1CD855,#FA92F8,10,0,0,38,1,711.6000000014901,37,1,414.8999999985099,10,0,experiment,NA,NA,2,0.5,0.5,5,4,62,2,NA
fcp-trial,96,547798,0.0-71.0-0.0,voc_e2,12378,"[{""event"":""fullscreenenter"",""trial"":1,""time"":2237}]",NA,NA,NA,NA,NA,0,#D8271C,#741CD8,10,10,1,38,1,701.4000000059605,37,1,839.3000000044703,10,1,experiment,NA,NA,1,0.7,0.3,2,3,63,2,NA
fcp-trial,97,550467,0.0-72.0-0.0,voc_e2,12378,"[{""event"":""fullscreenenter"",""trial"":1,""time"":2237}]",NA,NA,NA,NA,NA,1,#FA92F8,#1CD855,10,10,1,38,1,834.2999999970198,39,0,324.19999999552965,10,0,experiment,NA,NA,2,0.5,0.5,4,5,64,2,NA
fcp-trial,98,553250,0.0-73.0-0.0,voc_e2,12378,"[{""event"":""fullscreenenter"",""trial"":1,""time"":2237}]",NA,NA,NA,NA,NA,6,#D89F1C,#3386FF,0,10,0,38,1,792.7000000029802,39,0,481.69999999552965,10,1,experiment,NA,NA,0,0.1,0.9,1,0,65,2,NA
fcp-trial,99,555662,0.0-74.0-0.0,voc_e2,12378,"[{""event"":""fullscreenenter"",""trial"":1,""time"":2237}]",NA,NA,NA,NA,NA,0,#D89F1C,#3386FF,0,10,0,38,1,573,39,0,331.5,10,1,experiment,NA,NA,0,0.1,0.9,1,0,66,2,NA
fcp-trial,100,560120,0.0-75.0-0.0,voc_e2,12378,"[{""event"":""fullscreenenter"",""trial"":1,""time"":2237}]",NA,NA,NA,NA,NA,3,#741CD8,#D8271C,0,0,0,38,1,1767.6000000014901,39,0,1182.10000000149,0,1,experiment,NA,NA,1,0.3,0.7,3,2,67,2,NA
fcp-trial,101,563043,0.0-76.0-0.0,voc_e2,12378,"[{""event"":""fullscreenenter"",""trial"":1,""time"":2237}]",NA,NA,NA,NA,NA,4,#3386FF,#D89F1C,10,0,1,38,1,1105.5,37,1,308.5,10,1,experiment,NA,NA,0,0.9,0.1,0,1,68,2,NA
fcp-trial,102,565801,0.0-77.0-0.0,voc_e2,12378,"[{""event"":""fullscreenenter"",""trial"":1,""time"":2237}]",NA,NA,NA,NA,NA,6,#FA92F8,#1CD855,10,10,1,38,1,845.8999999985099,39,0,401.29999999701977,10,0,experiment,NA,NA,2,0.5,0.5,4,5,69,2,NA
fcp-trial,103,569200,0.0-78.0-0.0,voc_e2,12378,"[{""event"":""fullscreenenter"",""trial"":1,""time"":2237}]",NA,NA,NA,NA,NA,2,#D89F1C,#3386FF,0,10,0,38,1,1573.2999999970198,39,0,316.3999999985099,10,1,experiment,NA,NA,0,0.1,0.9,1,0,70,2,NA
fcp-trial,104,572489,0.0-79.0-0.0,voc_e2,12378,"[{""event"":""fullscreenenter"",""trial"":1,""time"":2237}]",NA,NA,NA,NA,NA,1,#741CD8,#D8271C,10,10,0,38,1,1213.0999999940395,39,0,564,10,1,experiment,NA,NA,1,0.3,0.7,3,2,71,2,NA
fcp-trial,105,574819,0.0-80.0-0.0,voc_e2,12378,"[{""event"":""fullscreenenter"",""trial"":1,""time"":2237}]",NA,NA,NA,NA,NA,0,#741CD8,#D8271C,0,10,0,38,1,486.3999999985099,39,0,333.3999999985099,10,1,experiment,NA,NA,1,0.3,0.7,3,2,72,2,NA
fcp-trial,106,577474,0.0-81.0-0.0,voc_e2,12378,"[{""event"":""fullscreenenter"",""trial"":1,""time"":2237}]",NA,NA,NA,NA,NA,0,#1CD855,#FA92F8,10,10,0,38,1,881.3000000044703,37,1,262.3999999985099,10,0,experiment,NA,NA,2,0.5,0.5,5,4,73,2,NA
fcp-trial,107,579838,0.0-82.0-0.0,voc_e2,12378,"[{""event"":""fullscreenenter"",""trial"":1,""time"":2237}]",NA,NA,NA,NA,NA,5,#D89F1C,#3386FF,10,10,0,38,1,552,39,0,301.5,10,1,experiment,NA,NA,0,0.1,0.9,1,0,74,2,NA
fcp-trial,108,582533,0.0-83.0-0.0,voc_e2,12378,"[{""event"":""fullscreenenter"",""trial"":1,""time"":2237}]",NA,NA,NA,NA,NA,6,#D8271C,#741CD8,10,0,1,38,1,788,37,1,396.8999999985099,10,1,experiment,NA,NA,1,0.7,0.3,2,3,75,2,NA
fcp-trial,109,585244,0.0-84.0-0.0,voc_e2,12378,"[{""event"":""fullscreenenter"",""trial"":1,""time"":2237}]",NA,NA,NA,NA,NA,2,#D8271C,#741CD8,0,0,1,38,1,633.7000000029802,37,1,564.4000000059605,0,1,experiment,NA,NA,1,0.7,0.3,2,3,76,2,NA
fcp-trial,110,588013,0.0-85.0-0.0,voc_e2,12378,"[{""event"":""fullscreenenter"",""trial"":1,""time"":2237}]",NA,NA,NA,NA,NA,2,#1CD855,#FA92F8,10,0,0,38,1,656,37,1,597.6000000014901,10,0,experiment,NA,NA,2,0.5,0.5,5,4,77,2,NA
fcp-trial,111,590651,0.0-86.0-0.0,voc_e2,12378,"[{""event"":""fullscreenenter"",""trial"":1,""time"":2237}]",NA,NA,NA,NA,NA,1,#3386FF,#D89F1C,10,10,1,38,1,856.2000000029802,37,1,272.79999999701977,10,1,experiment,NA,NA,0,0.9,0.1,0,1,78,2,NA
fcp-trial,112,593310,0.0-87.0-0.0,voc_e2,12378,"[{""event"":""fullscreenenter"",""trial"":1,""time"":2237}]",NA,NA,NA,NA,NA,4,#1CD855,#FA92F8,10,10,0,38,1,851,37,1,297.70000000298023,10,0,experiment,NA,NA,2,0.5,0.5,5,4,79,2,NA
fcp-trial,113,596401,0.0-88.0-0.0,voc_e2,12378,"[{""event"":""fullscreenenter"",""trial"":1,""time"":2237}]",NA,NA,NA,NA,NA,3,#1CD855,#FA92F8,0,10,0,38,1,948.6000000014901,37,1,631,0,0,experiment,NA,NA,2,0.5,0.5,5,4,80,2,NA
fcp-trial,114,599352,0.0-89.0-0.0,voc_e2,12378,"[{""event"":""fullscreenenter"",""trial"":1,""time"":2237}]",NA,NA,NA,NA,NA,5,#D8271C,#741CD8,0,0,1,38,1,1025.9000000059605,37,1,416.6000000014901,0,1,experiment,NA,NA,1,0.7,0.3,2,3,81,2,NA
fcp-trial,115,601951,0.0-90.0-0.0,voc_e2,12378,"[{""event"":""fullscreenenter"",""trial"":1,""time"":2237}]",NA,NA,NA,NA,NA,3,#D89F1C,#3386FF,0,10,0,38,1,751.0999999940395,39,0,338.79999999701977,10,1,experiment,NA,NA,0,0.1,0.9,1,0,82,2,NA
fcp-trial,116,604353,0.0-91.0-0.0,voc_e2,12378,"[{""event"":""fullscreenenter"",""trial"":1,""time"":2237}]",NA,NA,NA,NA,NA,4,#D8271C,#741CD8,10,0,1,38,1,614.3000000044703,37,1,277.3999999985099,10,1,experiment,NA,NA,1,0.7,0.3,2,3,83,2,NA
fcp-trial,117,606969,0.0-92.0-0.0,voc_e2,12378,"[{""event"":""fullscreenenter"",""trial"":1,""time"":2237}]",NA,NA,NA,NA,NA,5,#1CD855,#FA92F8,0,10,0,38,1,709.8999999985099,37,1,396.40000000596046,0,0,experiment,NA,NA,2,0.5,0.5,5,4,84,2,NA
fcp-trial,118,609469,0.0-93.0-0.0,voc_e2,12378,"[{""event"":""fullscreenenter"",""trial"":1,""time"":2237}]",NA,NA,NA,NA,NA,5,#D89F1C,#3386FF,0,10,0,38,1,678.3000000044703,39,0,311.79999999701977,10,1,experiment,NA,NA,0,0.1,0.9,1,0,85,2,NA
fcp-trial,119,612068,0.0-94.0-0.0,voc_e2,12378,"[{""event"":""fullscreenenter"",""trial"":1,""time"":2237}]",NA,NA,NA,NA,NA,6,#D8271C,#741CD8,10,0,1,38,1,729.1999999955297,37,1,360.29999999701977,10,1,experiment,NA,NA,1,0.7,0.3,2,3,86,2,NA
fcp-trial,120,614553,0.0-95.0-0.0,voc_e2,12378,"[{""event"":""fullscreenenter"",""trial"":1,""time"":2237}]",NA,NA,NA,NA,NA,0,#D89F1C,#3386FF,0,10,0,38,1,632.8000000044703,39,0,341.3999999985099,10,1,experiment,NA,NA,0,0.1,0.9,1,0,87,2,NA
fcp-trial,121,616958,0.0-96.0-0.0,voc_e2,12378,"[{""event"":""fullscreenenter"",""trial"":1,""time"":2237}]",NA,NA,NA,NA,NA,3,#D8271C,#741CD8,10,0,1,38,1,567.5,37,1,329,10,1,experiment,NA,NA,1,0.7,0.3,2,3,88,2,NA
fcp-trial,122,619457,0.0-97.0-0.0,voc_e2,12378,"[{""event"":""fullscreenenter"",""trial"":1,""time"":2237}]",NA,NA,NA,NA,NA,2,#1CD855,#FA92F8,0,10,0,38,1,526.2000000029802,37,1,462,0,0,experiment,NA,NA,2,0.5,0.5,5,4,89,2,NA
fcp-trial,123,621886,0.0-98.0-0.0,voc_e2,12378,"[{""event"":""fullscreenenter"",""trial"":1,""time"":2237}]",NA,NA,NA,NA,NA,2,#D89F1C,#3386FF,0,10,0,38,1,541.5,39,0,375.69999999552965,10,1,experiment,NA,NA,0,0.1,0.9,1,0,90,2,NA
fcp-trial,124,625119,0.0-99.0-0.0,voc_e2,12378,"[{""event"":""fullscreenenter"",""trial"":1,""time"":2237}]",NA,NA,NA,NA,NA,0,#741CD8,#D8271C,0,10,0,38,1,579.7999999970198,39,0,1142.5,10,1,experiment,NA,NA,1,0.3,0.7,3,2,91,3,NA
fcp-trial,125,627750,0.0-100.0-0.0,voc_e2,12378,"[{""event"":""fullscreenenter"",""trial"":1,""time"":2237}]",NA,NA,NA,NA,NA,3,#D89F1C,#3386FF,0,10,0,38,1,648.9000000059605,39,0,472.29999999701977,10,1,experiment,NA,NA,0,0.1,0.9,1,0,92,3,NA
fcp-trial,126,630038,0.0-101.0-0.0,voc_e2,12378,"[{""event"":""fullscreenenter"",""trial"":1,""time"":2237}]",NA,NA,NA,NA,NA,6,#1CD855,#FA92F8,10,0,0,38,1,460,37,1,318,10,0,experiment,NA,NA,2,0.5,0.5,5,4,93,3,NA
fcp-trial,127,632624,0.0-102.0-0.0,voc_e2,12378,"[{""event"":""fullscreenenter"",""trial"":1,""time"":2237}]",NA,NA,NA,NA,NA,0,#1CD855,#FA92F8,0,10,0,38,1,770.7999999970198,37,1,306.59999999403954,0,0,experiment,NA,NA,2,0.5,0.5,5,4,94,3,NA
fcp-trial,128,635539,0.0-103.0-0.0,voc_e2,12378,"[{""event"":""fullscreenenter"",""trial"":1,""time"":2237}]",NA,NA,NA,NA,NA,2,#741CD8,#D8271C,0,0,0,38,1,666.7999999970198,39,0,737.1000000014901,0,1,experiment,NA,NA,1,0.3,0.7,3,2,95,3,NA
fcp-trial,129,638151,0.0-104.0-0.0,voc_e2,12378,"[{""event"":""fullscreenenter"",""trial"":1,""time"":2237}]",NA,NA,NA,NA,NA,1,#1CD855,#FA92F8,10,0,0,38,1,771.6000000014901,37,1,328.29999999701977,10,0,experiment,NA,NA,2,0.5,0.5,5,4,96,3,NA
fcp-trial,130,640501,0.0-105.0-0.0,voc_e2,12378,"[{""event"":""fullscreenenter"",""trial"":1,""time"":2237}]",NA,NA,NA,NA,NA,1,#3386FF,#D89F1C,10,0,1,38,1,561.7000000029802,37,1,278.3999999985099,10,1,experiment,NA,NA,0,0.9,0.1,0,1,97,3,NA
fcp-trial,131,642941,0.0-106.0-0.0,voc_e2,12378,"[{""event"":""fullscreenenter"",""trial"":1,""time"":2237}]",NA,NA,NA,NA,NA,5,#1CD855,#FA92F8,0,10,0,38,1,657.5,37,1,272,0,0,experiment,NA,NA,2,0.5,0.5,5,4,98,3,NA
fcp-trial,132,645794,0.0-107.0-0.0,voc_e2,12378,"[{""event"":""fullscreenenter"",""trial"":1,""time"":2237}]",NA,NA,NA,NA,NA,5,#D8271C,#741CD8,10,10,1,38,1,458.29999999701977,37,1,883.6999999955297,10,1,experiment,NA,NA,1,0.7,0.3,2,3,99,3,NA
fcp-trial,133,648186,0.0-108.0-0.0,voc_e2,12378,"[{""event"":""fullscreenenter"",""trial"":1,""time"":2237}]",NA,NA,NA,NA,NA,4,#FA92F8,#1CD855,10,10,1,38,1,570.1000000014901,39,0,309.90000000596046,10,0,experiment,NA,NA,2,0.5,0.5,4,5,100,3,NA
fcp-trial,134,650844,0.0-109.0-0.0,voc_e2,12378,"[{""event"":""fullscreenenter"",""trial"":1,""time"":2237}]",NA,NA,NA,NA,NA,1,#D8271C,#741CD8,0,0,1,38,1,723.8999999985099,37,1,424.1000000014901,0,1,experiment,NA,NA,1,0.7,0.3,2,3,101,3,NA
fcp-trial,135,653124,0.0-110.0-0.0,voc_e2,12378,"[{""event"":""fullscreenenter"",""trial"":1,""time"":2237}]",NA,NA,NA,NA,NA,4,#3386FF,#D89F1C,10,0,1,38,1,480,37,1,289.8999999985099,10,1,experiment,NA,NA,0,0.9,0.1,0,1,102,3,NA
fcp-trial,136,656893,0.0-111.0-0.0,voc_e2,12378,"[{""event"":""fullscreenenter"",""trial"":1,""time"":2237}]",NA,NA,NA,NA,NA,3,#FA92F8,#1CD855,0,0,1,38,1,696.1000000014901,39,0,1560.89999999851,0,0,experiment,NA,NA,2,0.5,0.5,4,5,103,3,NA
fcp-trial,137,659377,0.0-112.0-0.0,voc_e2,12378,"[{""event"":""fullscreenenter"",""trial"":1,""time"":2237}]",NA,NA,NA,NA,NA,6,#3386FF,#D89F1C,10,0,1,38,1,646.3999999985099,37,1,325.90000000596046,10,1,experiment,NA,NA,0,0.9,0.1,0,1,104,3,NA
fcp-trial,138,661866,0.0-113.0-0.0,voc_e2,12378,"[{""event"":""fullscreenenter"",""trial"":1,""time"":2237}]",NA,NA,NA,NA,NA,4,#741CD8,#D8271C,0,0,0,38,1,665.1999999955297,39,0,313.1000000014901,0,1,experiment,NA,NA,1,0.3,0.7,3,2,105,3,NA
audio-instructions,139,684694,0.0-114.0,voc_e2,12378,"[{""event"":""fullscreenenter"",""trial"":1,""time"":2237}]",NA,18336.5,static/audio/pause.wav,NA,0,NA,NA,NA,NA,NA,NA,NA,NA,NA,NA,NA,NA,NA,NA,NA,NA,NA,NA,NA,NA,NA,NA,NA,NA,NA
fcp-trial,140,688833,0.0-115.0-0.0,voc_e2,12378,"[{""event"":""fullscreenenter"",""trial"":1,""time"":2237}]",NA,NA,NA,NA,NA,4,#D8271C,#741CD8,10,10,1,38,1,2016.2000000029802,37,1,613.6999999955297,10,1,experiment,NA,NA,1,0.7,0.3,2,3,106,3,NA
fcp-trial,141,691570,0.0-116.0-0.0,voc_e2,12378,"[{""event"":""fullscreenenter"",""trial"":1,""time"":2237}]",NA,NA,NA,NA,NA,1,#FA92F8,#1CD855,10,10,1,38,1,638.3999999985099,39,0,590.2999999970198,10,0,experiment,NA,NA,2,0.5,0.5,4,5,107,3,NA
fcp-trial,142,693892,0.0-117.0-0.0,voc_e2,12378,"[{""event"":""fullscreenenter"",""trial"":1,""time"":2237}]",NA,NA,NA,NA,NA,0,#1CD855,#FA92F8,0,10,0,38,1,491.5,37,1,324.20000000298023,0,0,experiment,NA,NA,2,0.5,0.5,5,4,108,3,NA
fcp-trial,143,696243,0.0-118.0-0.0,voc_e2,12378,"[{""event"":""fullscreenenter"",""trial"":1,""time"":2237}]",NA,NA,NA,NA,NA,3,#3386FF,#D89F1C,10,0,1,38,1,550.3000000044703,37,1,293.29999999701977,10,1,experiment,NA,NA,0,0.9,0.1,0,1,109,3,NA
fcp-trial,144,699384,0.0-119.0-0.0,voc_e2,12378,"[{""event"":""fullscreenenter"",""trial"":1,""time"":2237}]",NA,NA,NA,NA,NA,2,#D8271C,#741CD8,10,0,1,38,1,574.1999999955297,37,1,1054,10,1,experiment,NA,NA,1,0.7,0.3,2,3,110,3,NA
fcp-trial,145,701559,0.0-120.0-0.0,voc_e2,12378,"[{""event"":""fullscreenenter"",""trial"":1,""time"":2237}]",NA,NA,NA,NA,NA,6,#3386FF,#D89F1C,10,0,1,38,1,413.8999999985099,37,1,253.89999999850988,10,1,experiment,NA,NA,0,0.9,0.1,0,1,111,3,NA
fcp-trial,146,704692,0.0-121.0-0.0,voc_e2,12378,"[{""event"":""fullscreenenter"",""trial"":1,""time"":2237}]",NA,NA,NA,NA,NA,2,#1CD855,#FA92F8,10,0,0,38,1,920.2000000029802,37,1,701.8000000044703,10,0,experiment,NA,NA,2,0.5,0.5,5,4,112,3,NA
fcp-trial,147,706987,0.0-122.0-0.0,voc_e2,12378,"[{""event"":""fullscreenenter"",""trial"":1,""time"":2237}]",NA,NA,NA,NA,NA,6,#D8271C,#741CD8,10,0,1,38,1,458.09999999403954,37,1,324.30000000447035,10,1,experiment,NA,NA,1,0.7,0.3,2,3,113,3,NA
fcp-trial,148,709783,0.0-123.0-0.0,voc_e2,12378,"[{""event"":""fullscreenenter"",""trial"":1,""time"":2237}]",NA,NA,NA,NA,NA,2,#3386FF,#D89F1C,10,0,1,38,1,721.8999999985099,37,1,566,10,1,experiment,NA,NA,0,0.9,0.1,0,1,114,3,NA
fcp-trial,149,712407,0.0-124.0-0.0,voc_e2,12378,"[{""event"":""fullscreenenter"",""trial"":1,""time"":2237}]",NA,NA,NA,NA,NA,5,#741CD8,#D8271C,0,0,0,38,1,642.1000000014901,39,0,472.80000000447035,0,1,experiment,NA,NA,1,0.3,0.7,3,2,115,3,NA
fcp-trial,150,715309,0.0-125.0-0.0,voc_e2,12378,"[{""event"":""fullscreenenter"",""trial"":1,""time"":2237}]",NA,NA,NA,NA,NA,3,#FA92F8,#1CD855,10,10,1,38,1,503.09999999403954,39,0,889.3999999985099,10,0,experiment,NA,NA,2,0.5,0.5,4,5,116,3,NA
fcp-trial,151,717833,0.0-126.0-0.0,voc_e2,12378,"[{""event"":""fullscreenenter"",""trial"":1,""time"":2237}]",NA,NA,NA,NA,NA,6,#1CD855,#FA92F8,0,0,0,38,1,585.1999999955297,37,1,427.3999999985099,0,0,experiment,NA,NA,2,0.5,0.5,5,4,117,3,NA
fcp-trial,152,720326,0.0-127.0-0.0,voc_e2,12378,"[{""event"":""fullscreenenter"",""trial"":1,""time"":2237}]",NA,NA,NA,NA,NA,3,#741CD8,#D8271C,0,10,0,38,1,480.20000000298023,39,0,499.79999999701977,10,1,experiment,NA,NA,1,0.3,0.7,3,2,118,3,NA
fcp-trial,153,722816,0.0-128.0-0.0,voc_e2,12378,"[{""event"":""fullscreenenter"",""trial"":1,""time"":2237}]",NA,NA,NA,NA,NA,4,#3386FF,#D89F1C,10,0,1,38,1,496.5,37,1,482.5,10,1,experiment,NA,NA,0,0.9,0.1,0,1,119,3,NA
fcp-trial,154,725638,0.0-129.0-0.0,voc_e2,12378,"[{""event"":""fullscreenenter"",""trial"":1,""time"":2237}]",NA,NA,NA,NA,NA,5,#FA92F8,#1CD855,10,0,1,38,1,479.3999999985099,39,0,832,0,0,experiment,NA,NA,2,0.5,0.5,4,5,120,3,NA
fcp-trial,155,727852,0.0-130.0-0.0,voc_e2,12378,"[{""event"":""fullscreenenter"",""trial"":1,""time"":2237}]",NA,NA,NA,NA,NA,0,#D8271C,#741CD8,10,0,1,38,1,362,37,1,340.19999999552965,10,1,experiment,NA,NA,1,0.7,0.3,2,3,121,3,NA
fcp-trial,156,730216,0.0-131.0-0.0,voc_e2,12378,"[{""event"":""fullscreenenter"",""trial"":1,""time"":2237}]",NA,NA,NA,NA,NA,0,#D89F1C,#3386FF,0,10,0,38,1,556.1000000014901,39,0,298.29999999701977,10,1,experiment,NA,NA,0,0.1,0.9,1,0,122,3,NA
fcp-trial,157,732667,0.0-132.0-0.0,voc_e2,12378,"[{""event"":""fullscreenenter"",""trial"":1,""time"":2237}]",NA,NA,NA,NA,NA,1,#3386FF,#D89F1C,10,0,1,38,1,607.2000000029802,37,1,333.69999999552965,10,1,experiment,NA,NA,0,0.9,0.1,0,1,123,3,NA
fcp-trial,158,734977,0.0-133.0-0.0,voc_e2,12378,"[{""event"":""fullscreenenter"",""trial"":1,""time"":2237}]",NA,NA,NA,NA,NA,4,#FA92F8,#1CD855,0,10,1,38,1,423.8999999985099,39,0,374.20000000298023,10,0,experiment,NA,NA,2,0.5,0.5,4,5,124,3,NA
fcp-trial,159,737150,0.0-134.0-0.0,voc_e2,12378,"[{""event"":""fullscreenenter"",""trial"":1,""time"":2237}]",NA,NA,NA,NA,NA,5,#3386FF,#D89F1C,10,0,1,38,1,382.79999999701977,37,1,279.1000000014901,10,1,experiment,NA,NA,0,0.9,0.1,0,1,125,3,NA
fcp-trial,160,739950,0.0-135.0-0.0,voc_e2,12378,"[{""event"":""fullscreenenter"",""trial"":1,""time"":2237}]",NA,NA,NA,NA,NA,1,#741CD8,#D8271C,0,10,0,38,1,438.1000000014901,39,0,856.5,10,1,experiment,NA,NA,1,0.3,0.7,3,2,126,3,NA
fcp-trial,161,742219,0.0-136.0-0.0,voc_e2,12378,"[{""event"":""fullscreenenter"",""trial"":1,""time"":2237}]",NA,NA,NA,NA,NA,4,#3386FF,#D89F1C,10,0,1,38,1,492.5,37,1,266.59999999403954,10,1,experiment,NA,NA,0,0.9,0.1,0,1,127,3,NA
fcp-trial,162,744564,0.0-137.0-0.0,voc_e2,12378,"[{""event"":""fullscreenenter"",""trial"":1,""time"":2237}]",NA,NA,NA,NA,NA,6,#FA92F8,#1CD855,10,10,1,38,1,537,39,0,299,10,0,experiment,NA,NA,2,0.5,0.5,4,5,128,3,NA
fcp-trial,163,747321,0.0-138.0-0.0,voc_e2,12378,"[{""event"":""fullscreenenter"",""trial"":1,""time"":2237}]",NA,NA,NA,NA,NA,5,#1CD855,#FA92F8,0,0,0,38,1,551,37,1,695.6000000014901,0,0,experiment,NA,NA,2,0.5,0.5,5,4,129,3,NA
fcp-trial,164,750111,0.0-139.0-0.0,voc_e2,12378,"[{""event"":""fullscreenenter"",""trial"":1,""time"":2237}]",NA,NA,NA,NA,NA,4,#D8271C,#741CD8,10,10,1,38,1,614.8999999985099,37,1,668.2999999970198,10,1,experiment,NA,NA,1,0.7,0.3,2,3,130,3,NA
fcp-trial,165,752482,0.0-140.0-0.0,voc_e2,12378,"[{""event"":""fullscreenenter"",""trial"":1,""time"":2237}]",NA,NA,NA,NA,NA,6,#3386FF,#D89F1C,10,0,1,38,1,552.1000000014901,37,1,309.5,10,1,experiment,NA,NA,0,0.9,0.1,0,1,131,3,NA
fcp-trial,166,754967,0.0-141.0-0.0,voc_e2,12378,"[{""event"":""fullscreenenter"",""trial"":1,""time"":2237}]",NA,NA,NA,NA,NA,2,#FA92F8,#1CD855,10,0,1,38,1,609.0999999940395,39,0,367.20000000298023,0,0,experiment,NA,NA,2,0.5,0.5,4,5,132,3,NA
fcp-trial,167,757384,0.0-142.0-0.0,voc_e2,12378,"[{""event"":""fullscreenenter"",""trial"":1,""time"":2237}]",NA,NA,NA,NA,NA,2,#D89F1C,#3386FF,10,10,0,38,1,578.0999999940395,39,0,329.70000000298023,10,1,experiment,NA,NA,0,0.1,0.9,1,0,133,3,NA
fcp-trial,168,759836,0.0-143.0-0.0,voc_e2,12378,"[{""event"":""fullscreenenter"",""trial"":1,""time"":2237}]",NA,NA,NA,NA,NA,1,#741CD8,#D8271C,0,10,0,38,1,406.3999999985099,39,0,535.2000000029802,10,1,experiment,NA,NA,1,0.3,0.7,3,2,134,3,NA
fcp-trial,169,762259,0.0-144.0-0.0,voc_e2,12378,"[{""event"":""fullscreenenter"",""trial"":1,""time"":2237}]",NA,NA,NA,NA,NA,5,#741CD8,#D8271C,10,10,0,38,1,489.3999999985099,39,0,423.69999999552965,10,1,experiment,NA,NA,1,0.3,0.7,3,2,135,3,NA
fcp-trial,170,764750,0.0-145.0-0.0,voc_e2,12378,"[{""event"":""fullscreenenter"",""trial"":1,""time"":2237}]",NA,NA,NA,NA,NA,3,#1CD855,#FA92F8,10,0,0,38,1,650,37,1,331.90000000596046,10,0,experiment,NA,NA,2,0.5,0.5,5,4,136,4,NA
fcp-trial,171,767032,0.0-146.0-0.0,voc_e2,12378,"[{""event"":""fullscreenenter"",""trial"":1,""time"":2237}]",NA,NA,NA,NA,NA,1,#3386FF,#D89F1C,10,10,1,38,1,399.59999999403954,37,1,374.70000000298023,10,1,experiment,NA,NA,0,0.9,0.1,0,1,137,4,NA
fcp-trial,172,769431,0.0-147.0-0.0,voc_e2,12378,"[{""event"":""fullscreenenter"",""trial"":1,""time"":2237}]",NA,NA,NA,NA,NA,0,#741CD8,#D8271C,0,10,0,38,1,549.3999999985099,39,0,340.69999999552965,10,1,experiment,NA,NA,1,0.3,0.7,3,2,138,4,NA
fcp-trial,173,772134,0.0-148.0-0.0,voc_e2,12378,"[{""event"":""fullscreenenter"",""trial"":1,""time"":2237}]",NA,NA,NA,NA,NA,1,#FA92F8,#1CD855,10,10,1,38,1,814.1999999955297,39,0,378.70000000298023,10,0,experiment,NA,NA,2,0.5,0.5,4,5,139,4,NA
fcp-trial,174,774667,0.0-149.0-0.0,voc_e2,12378,"[{""event"":""fullscreenenter"",""trial"":1,""time"":2237}]",NA,NA,NA,NA,NA,5,#3386FF,#D89F1C,10,0,1,38,1,647.1000000014901,37,1,376.5,10,1,experiment,NA,NA,0,0.9,0.1,0,1,140,4,NA
fcp-trial,175,777865,0.0-150.0-0.0,voc_e2,12378,"[{""event"":""fullscreenenter"",""trial"":1,""time"":2237}]",NA,NA,NA,NA,NA,2,#741CD8,#D8271C,0,10,0,38,1,578.3999999985099,39,0,1111,10,1,experiment,NA,NA,1,0.3,0.7,3,2,141,4,NA
fcp-trial,176,780325,0.0-151.0-0.0,voc_e2,12378,"[{""event"":""fullscreenenter"",""trial"":1,""time"":2237}]",NA,NA,NA,NA,NA,0,#1CD855,#FA92F8,10,10,0,38,1,603.1000000014901,37,1,349.5,10,0,experiment,NA,NA,2,0.5,0.5,5,4,142,4,NA
fcp-trial,177,782883,0.0-152.0-0.0,voc_e2,12378,"[{""event"":""fullscreenenter"",""trial"":1,""time"":2237}]",NA,NA,NA,NA,NA,0,#D89F1C,#3386FF,0,10,0,38,1,615.1000000014901,39,0,433.30000000447035,10,1,experiment,NA,NA,0,0.1,0.9,1,0,143,4,NA
fcp-trial,178,785126,0.0-153.0-0.0,voc_e2,12378,"[{""event"":""fullscreenenter"",""trial"":1,""time"":2237}]",NA,NA,NA,NA,NA,6,#D8271C,#741CD8,10,0,1,38,1,441.29999999701977,37,1,290.5,10,1,experiment,NA,NA,1,0.7,0.3,2,3,144,4,NA
fcp-trial,179,787590,0.0-154.0-0.0,voc_e2,12378,"[{""event"":""fullscreenenter"",""trial"":1,""time"":2237}]",NA,NA,NA,NA,NA,3,#741CD8,#D8271C,0,0,0,38,1,565.4000000059605,39,0,386.59999999403954,0,1,experiment,NA,NA,1,0.3,0.7,3,2,145,4,NA
fcp-trial,180,789935,0.0-155.0-0.0,voc_e2,12378,"[{""event"":""fullscreenenter"",""trial"":1,""time"":2237}]",NA,NA,NA,NA,NA,3,#D89F1C,#3386FF,0,10,0,38,1,518.8000000044703,39,0,316.30000000447035,10,1,experiment,NA,NA,0,0.1,0.9,1,0,146,4,NA
fcp-trial,181,792265,0.0-156.0-0.0,voc_e2,12378,"[{""event"":""fullscreenenter"",""trial"":1,""time"":2237}]",NA,NA,NA,NA,NA,4,#FA92F8,#1CD855,0,10,1,38,1,452.80000000447035,37,1,372.09999999403954,0,1,experiment,NA,NA,2,0.5,0.5,4,5,147,4,NA
fcp-trial,182,795358,0.0-157.0-0.0,voc_e2,12378,"[{""event"":""fullscreenenter"",""trial"":1,""time"":2237}]",NA,NA,NA,NA,NA,2,#D8271C,#741CD8,0,0,1,38,1,717.4000000059605,37,1,868.3000000044703,0,1,experiment,NA,NA,1,0.7,0.3,2,3,148,4,NA
fcp-trial,183,797917,0.0-158.0-0.0,voc_e2,12378,"[{""event"":""fullscreenenter"",""trial"":1,""time"":2237}]",NA,NA,NA,NA,NA,0,#D8271C,#741CD8,10,0,1,38,1,700.8000000044703,37,1,349.20000000298023,10,1,experiment,NA,NA,1,0.7,0.3,2,3,149,4,NA
fcp-trial,184,800386,0.0-159.0-0.0,voc_e2,12378,"[{""event"":""fullscreenenter"",""trial"":1,""time"":2237}]",NA,NA,NA,NA,NA,1,#D89F1C,#3386FF,10,10,0,38,1,625.5,39,0,335.6000000014901,10,1,experiment,NA,NA,0,0.1,0.9,1,0,150,4,NA
fcp-trial,185,802992,0.0-160.0-0.0,voc_e2,12378,"[{""event"":""fullscreenenter"",""trial"":1,""time"":2237}]",NA,NA,NA,NA,NA,6,#FA92F8,#1CD855,0,10,1,38,1,764,39,0,334,10,0,experiment,NA,NA,2,0.5,0.5,4,5,151,4,NA
fcp-trial,186,805815,0.0-161.0-0.0,voc_e2,12378,"[{""event"":""fullscreenenter"",""trial"":1,""time"":2237}]",NA,NA,NA,NA,NA,2,#3386FF,#D89F1C,0,0,1,38,1,631.5,37,1,682.8999999985099,0,1,experiment,NA,NA,0,0.9,0.1,0,1,152,4,NA
fcp-trial,187,808716,0.0-162.0-0.0,voc_e2,12378,"[{""event"":""fullscreenenter"",""trial"":1,""time"":2237}]",NA,NA,NA,NA,NA,3,#1CD855,#FA92F8,0,0,0,38,1,677.6000000014901,37,1,716.8999999985099,0,0,experiment,NA,NA,2,0.5,0.5,5,4,153,4,NA
fcp-trial,188,811388,0.0-163.0-0.0,voc_e2,12378,"[{""event"":""fullscreenenter"",""trial"":1,""time"":2237}]",NA,NA,NA,NA,NA,5,#D8271C,#741CD8,0,0,1,38,1,847.1000000014901,37,1,318.29999999701977,0,1,experiment,NA,NA,1,0.7,0.3,2,3,154,4,NA
fcp-trial,189,813836,0.0-164.0-0.0,voc_e2,12378,"[{""event"":""fullscreenenter"",""trial"":1,""time"":2237}]",NA,NA,NA,NA,NA,6,#D89F1C,#3386FF,0,10,0,38,1,666.1000000014901,39,0,273,10,1,experiment,NA,NA,0,0.1,0.9,1,0,155,4,NA
fcp-trial,190,816300,0.0-165.0-0.0,voc_e2,12378,"[{""event"":""fullscreenenter"",""trial"":1,""time"":2237}]",NA,NA,NA,NA,NA,1,#741CD8,#D8271C,0,10,0,38,1,638,39,0,317.6000000014901,10,1,experiment,NA,NA,1,0.3,0.7,3,2,156,4,NA
fcp-trial,191,818732,0.0-166.0-0.0,voc_e2,12378,"[{""event"":""fullscreenenter"",""trial"":1,""time"":2237}]",NA,NA,NA,NA,NA,4,#D89F1C,#3386FF,0,10,0,38,1,652.3999999985099,39,0,272.1000000014901,10,1,experiment,NA,NA,0,0.1,0.9,1,0,157,4,NA
fcp-trial,192,821409,0.0-167.0-0.0,voc_e2,12378,"[{""event"":""fullscreenenter"",""trial"":1,""time"":2237}]",NA,NA,NA,NA,NA,4,#FA92F8,#1CD855,10,0,1,38,1,653.5,39,0,513.2999999970198,0,0,experiment,NA,NA,2,0.5,0.5,4,5,158,4,NA
fcp-trial,193,824316,0.0-168.0-0.0,voc_e2,12378,"[{""event"":""fullscreenenter"",""trial"":1,""time"":2237}]",NA,NA,NA,NA,NA,6,#D8271C,#741CD8,10,0,1,38,1,697.6000000014901,37,1,697.2999999970198,10,1,experiment,NA,NA,1,0.7,0.3,2,3,159,4,NA
fcp-trial,194,827758,0.0-169.0-0.0,voc_e2,12378,"[{""event"":""fullscreenenter"",""trial"":1,""time"":2237}]",NA,NA,NA,NA,NA,1,#FA92F8,#1CD855,0,10,1,38,1,845.6999999955297,39,0,1087.10000000149,10,0,experiment,NA,NA,2,0.5,0.5,4,5,160,4,NA
fcp-trial,195,831164,0.0-170.0-0.0,voc_e2,12378,"[{""event"":""fullscreenenter"",""trial"":1,""time"":2237}]",NA,NA,NA,NA,NA,0,#D89F1C,#3386FF,0,10,0,38,1,754.6000000014901,39,0,1141.10000000149,10,1,experiment,NA,NA,0,0.1,0.9,1,0,161,4,NA
fcp-trial,196,834202,0.0-171.0-0.0,voc_e2,12378,"[{""event"":""fullscreenenter"",""trial"":1,""time"":2237}]",NA,NA,NA,NA,NA,4,#741CD8,#D8271C,0,0,0,38,1,713.1000000014901,39,0,813.7999999970198,0,1,experiment,NA,NA,1,0.3,0.7,3,2,162,4,NA
fcp-trial,197,837666,0.0-172.0-0.0,voc_e2,12378,"[{""event"":""fullscreenenter"",""trial"":1,""time"":2237}]",NA,NA,NA,NA,NA,2,#1CD855,#FA92F8,0,0,0,38,1,1322.7999999970198,37,1,633.8999999985099,0,0,experiment,NA,NA,2,0.5,0.5,5,4,163,4,NA
fcp-trial,198,840715,0.0-173.0-0.0,voc_e2,12378,"[{""event"":""fullscreenenter"",""trial"":1,""time"":2237}]",NA,NA,NA,NA,NA,5,#3386FF,#D89F1C,10,0,1,38,1,586.6000000014901,37,1,954.6999999955297,10,1,experiment,NA,NA,0,0.9,0.1,0,1,164,4,NA
fcp-trial,199,843126,0.0-174.0-0.0,voc_e2,12378,"[{""event"":""fullscreenenter"",""trial"":1,""time"":2237}]",NA,NA,NA,NA,NA,0,#1CD855,#FA92F8,10,10,0,38,1,63.19999999552965,37,1,839.5,10,0,experiment,NA,NA,2,0.5,0.5,5,4,165,4,NA
fcp-trial,200,845715,0.0-175.0-0.0,voc_e2,12378,"[{""event"":""fullscreenenter"",""trial"":1,""time"":2237}]",NA,NA,NA,NA,NA,3,#3386FF,#D89F1C,10,0,1,38,1,565.1999999955297,37,1,516,10,1,experiment,NA,NA,0,0.9,0.1,0,1,166,4,NA
fcp-trial,201,849149,0.0-176.0-0.0,voc_e2,12378,"[{""event"":""fullscreenenter"",""trial"":1,""time"":2237}]",NA,NA,NA,NA,NA,3,#741CD8,#D8271C,0,10,0,38,1,543.3999999985099,39,0,1381,10,1,experiment,NA,NA,1,0.3,0.7,3,2,167,4,NA
fcp-trial,202,851966,0.0-177.0-0.0,voc_e2,12378,"[{""event"":""fullscreenenter"",""trial"":1,""time"":2237}]",NA,NA,NA,NA,NA,5,#1CD855,#FA92F8,0,0,0,38,1,542.3999999985099,37,1,764.6999999955297,0,0,experiment,NA,NA,2,0.5,0.5,5,4,168,4,NA
fcp-trial,203,854532,0.0-178.0-0.0,voc_e2,12378,"[{""event"":""fullscreenenter"",""trial"":1,""time"":2237}]",NA,NA,NA,NA,NA,3,#D8271C,#741CD8,10,10,1,38,1,509.80000000447035,37,1,547.7000000029802,10,1,experiment,NA,NA,1,0.7,0.3,2,3,169,4,NA
fcp-trial,204,856882,0.0-179.0-0.0,voc_e2,12378,"[{""event"":""fullscreenenter"",""trial"":1,""time"":2237}]",NA,NA,NA,NA,NA,5,#D89F1C,#3386FF,0,10,0,38,1,434.69999999552965,39,0,405.5,10,1,experiment,NA,NA,0,0.1,0.9,1,0,170,4,NA
fcp-trial,205,859906,0.0-180.0-0.0,voc_e2,12378,"[{""event"":""fullscreenenter"",""trial"":1,""time"":2237}]",NA,NA,NA,NA,NA,4,#FA92F8,#1CD855,0,0,1,38,1,901.3000000044703,39,0,612.6000000014901,0,0,experiment,NA,NA,2,0.5,0.5,4,5,171,4,NA
fcp-trial,206,862558,0.0-181.0-0.0,voc_e2,12378,"[{""event"":""fullscreenenter"",""trial"":1,""time"":2237}]",NA,NA,NA,NA,NA,3,#FA92F8,#1CD855,0,0,1,38,1,694.5999999940395,39,0,450.19999999552965,0,0,experiment,NA,NA,2,0.5,0.5,4,5,172,4,NA
fcp-trial,207,865497,0.0-182.0-0.0,voc_e2,12378,"[{""event"":""fullscreenenter"",""trial"":1,""time"":2237}]",NA,NA,NA,NA,NA,6,#3386FF,#D89F1C,10,0,1,38,1,830.6000000014901,37,1,598,10,1,experiment,NA,NA,0,0.9,0.1,0,1,173,4,NA
fcp-trial,208,868208,0.0-183.0-0.0,voc_e2,12378,"[{""event"":""fullscreenenter"",""trial"":1,""time"":2237}]",NA,NA,NA,NA,NA,5,#D8271C,#741CD8,0,0,1,38,1,574.2999999970198,37,1,631.1000000014901,0,1,experiment,NA,NA,1,0.7,0.3,2,3,174,4,NA
fcp-trial,209,870817,0.0-184.0-0.0,voc_e2,12378,"[{""event"":""fullscreenenter"",""trial"":1,""time"":2237}]",NA,NA,NA,NA,NA,6,#1CD855,#FA92F8,0,10,0,38,1,529.6000000014901,37,1,571.3999999985099,0,0,experiment,NA,NA,2,0.5,0.5,5,4,175,4,NA
fcp-trial,210,874067,0.0-185.0-0.0,voc_e2,12378,"[{""event"":""fullscreenenter"",""trial"":1,""time"":2237}]",NA,NA,NA,NA,NA,1,#741CD8,#D8271C,0,0,0,38,1,627,39,0,1112,0,1,experiment,NA,NA,1,0.3,0.7,3,2,176,4,NA
fcp-trial,211,876598,0.0-186.0-0.0,voc_e2,12378,"[{""event"":""fullscreenenter"",""trial"":1,""time"":2237}]",NA,NA,NA,NA,NA,1,#D89F1C,#3386FF,0,10,0,38,1,513.8999999985099,39,0,507.3999999985099,10,1,experiment,NA,NA,0,0.1,0.9,1,0,177,4,NA
fcp-trial,212,879142,0.0-187.0-0.0,voc_e2,12378,"[{""event"":""fullscreenenter"",""trial"":1,""time"":2237}]",NA,NA,NA,NA,NA,0,#3386FF,#D89F1C,10,10,1,38,1,506.5,37,1,527.5,10,1,experiment,NA,NA,0,0.9,0.1,0,1,178,4,NA
fcp-trial,213,881776,0.0-188.0-0.0,voc_e2,12378,"[{""event"":""fullscreenenter"",""trial"":1,""time"":2237}]",NA,NA,NA,NA,NA,2,#D8271C,#741CD8,10,0,1,38,1,548.7999999970198,37,1,573.1000000014901,10,1,experiment,NA,NA,1,0.7,0.3,2,3,179,4,NA
fcp-trial,214,884249,0.0-189.0-0.0,voc_e2,12378,"[{""event"":""fullscreenenter"",""trial"":1,""time"":2237}]",NA,NA,NA,NA,NA,5,#FA92F8,#1CD855,0,10,1,38,1,462.3999999985099,39,0,500.6000000014901,10,0,experiment,NA,NA,2,0.5,0.5,4,5,180,4,NA
fcp-trial,215,886824,0.0-190.0-0.0,voc_e2,12378,"[{""event"":""fullscreenenter"",""trial"":1,""time"":2237}]",NA,NA,NA,NA,NA,1,#1CD855,#FA92F8,10,10,0,38,1,487.5,37,1,577.7999999970198,10,0,experiment,NA,NA,2,0.5,0.5,5,4,181,5,NA
fcp-trial,216,889299,0.0-191.0-0.0,voc_e2,12378,"[{""event"":""fullscreenenter"",""trial"":1,""time"":2237}]",NA,NA,NA,NA,NA,4,#3386FF,#D89F1C,10,0,1,38,1,404.5,37,1,558.2000000029802,10,1,experiment,NA,NA,0,0.9,0.1,0,1,182,5,NA
fcp-trial,217,891738,0.0-192.0-0.0,voc_e2,12378,"[{""event"":""fullscreenenter"",""trial"":1,""time"":2237}]",NA,NA,NA,NA,NA,4,#741CD8,#D8271C,0,0,0,38,1,318.5,39,0,610.1999999955297,0,1,experiment,NA,NA,1,0.3,0.7,3,2,183,5,NA
fcp-trial,218,894102,0.0-193.0-0.0,voc_e2,12378,"[{""event"":""fullscreenenter"",""trial"":1,""time"":2237}]",NA,NA,NA,NA,NA,0,#D8271C,#741CD8,0,0,1,38,1,303.8999999985099,37,1,550.3000000044703,0,1,experiment,NA,NA,1,0.7,0.3,2,3,184,5,NA
fcp-trial,219,896516,0.0-194.0-0.0,voc_e2,12378,"[{""event"":""fullscreenenter"",""trial"":1,""time"":2237}]",NA,NA,NA,NA,NA,2,#3386FF,#D89F1C,10,0,1,38,1,413.3999999985099,37,1,491.3999999985099,10,1,experiment,NA,NA,0,0.9,0.1,0,1,185,5,NA
fcp-trial,220,899565,0.0-195.0-0.0,voc_e2,12378,"[{""event"":""fullscreenenter"",""trial"":1,""time"":2237}]",NA,NA,NA,NA,NA,0,#1CD855,#FA92F8,10,0,0,38,1,943.3999999985099,37,1,597.1000000014901,10,0,experiment,NA,NA,2,0.5,0.5,5,4,186,5,NA
fcp-trial,221,902186,0.0-196.0-0.0,voc_e2,12378,"[{""event"":""fullscreenenter"",""trial"":1,""time"":2237}]",NA,NA,NA,NA,NA,3,#3386FF,#D89F1C,10,0,1,38,1,659,37,1,453.09999999403954,10,1,experiment,NA,NA,0,0.9,0.1,0,1,187,5,NA
fcp-trial,222,904875,0.0-197.0-0.0,voc_e2,12378,"[{""event"":""fullscreenenter"",""trial"":1,""time"":2237}]",NA,NA,NA,NA,NA,2,#FA92F8,#1CD855,10,0,1,38,1,655,39,0,522.6999999955297,0,0,experiment,NA,NA,2,0.5,0.5,4,5,188,5,NA
fcp-trial,223,907501,0.0-198.0-0.0,voc_e2,12378,"[{""event"":""fullscreenenter"",""trial"":1,""time"":2237}]",NA,NA,NA,NA,NA,6,#D8271C,#741CD8,10,0,1,38,1,604,37,1,510.80000000447035,10,1,experiment,NA,NA,1,0.7,0.3,2,3,189,5,NA
fcp-trial,224,909933,0.0-199.0-0.0,voc_e2,12378,"[{""event"":""fullscreenenter"",""trial"":1,""time"":2237}]",NA,NA,NA,NA,NA,6,#FA92F8,#1CD855,10,10,1,38,1,456.70000000298023,39,0,467.3999999985099,10,0,experiment,NA,NA,2,0.5,0.5,4,5,190,5,NA
fcp-trial,225,912466,0.0-200.0-0.0,voc_e2,12378,"[{""event"":""fullscreenenter"",""trial"":1,""time"":2237}]",NA,NA,NA,NA,NA,0,#741CD8,#D8271C,0,10,0,38,1,507.3999999985099,37,1,517.8000000044703,0,0,experiment,NA,NA,1,0.3,0.7,3,2,191,5,NA
fcp-trial,226,915399,0.0-201.0-0.0,voc_e2,12378,"[{""event"":""fullscreenenter"",""trial"":1,""time"":2237}]",NA,NA,NA,NA,NA,3,#D89F1C,#3386FF,0,0,0,38,1,1035.6000000014901,39,0,389.5,0,1,experiment,NA,NA,0,0.1,0.9,1,0,192,5,NA
fcp-trial,227,918371,0.0-202.0-0.0,voc_e2,12378,"[{""event"":""fullscreenenter"",""trial"":1,""time"":2237}]",NA,NA,NA,NA,NA,1,#FA92F8,#1CD855,10,0,1,38,1,1019.2000000029802,39,0,442.6000000014901,0,0,experiment,NA,NA,2,0.5,0.5,4,5,193,5,NA
fcp-trial,228,920967,0.0-203.0-0.0,voc_e2,12378,"[{""event"":""fullscreenenter"",""trial"":1,""time"":2237}]",NA,NA,NA,NA,NA,3,#FA92F8,#1CD855,0,10,1,38,1,695.5999999940395,39,0,391.3999999985099,10,0,experiment,NA,NA,2,0.5,0.5,4,5,194,5,NA
fcp-trial,229,923426,0.0-204.0-0.0,voc_e2,12378,"[{""event"":""fullscreenenter"",""trial"":1,""time"":2237}]",NA,NA,NA,NA,NA,5,#D89F1C,#3386FF,0,10,0,38,1,472.80000000447035,39,0,476.8999999985099,10,1,experiment,NA,NA,0,0.1,0.9,1,0,195,5,NA
fcp-trial,230,926176,0.0-205.0-0.0,voc_e2,12378,"[{""event"":""fullscreenenter"",""trial"":1,""time"":2237}]",NA,NA,NA,NA,NA,4,#741CD8,#D8271C,0,10,0,38,1,703.5,39,0,534.8999999985099,10,1,experiment,NA,NA,1,0.3,0.7,3,2,196,5,NA
fcp-trial,231,928785,0.0-206.0-0.0,voc_e2,12378,"[{""event"":""fullscreenenter"",""trial"":1,""time"":2237}]",NA,NA,NA,NA,NA,5,#FA92F8,#1CD855,10,10,1,38,1,467.8999999985099,39,0,629.8999999985099,10,0,experiment,NA,NA,2,0.5,0.5,4,5,197,5,NA
fcp-trial,232,932131,0.0-207.0-0.0,voc_e2,12378,"[{""event"":""fullscreenenter"",""trial"":1,""time"":2237}]",NA,NA,NA,NA,NA,3,#D8271C,#741CD8,10,10,1,38,1,449,37,1,1387.8000000044703,10,1,experiment,NA,NA,1,0.7,0.3,2,3,198,5,NA
fcp-trial,233,934919,0.0-208.0-0.0,voc_e2,12378,"[{""event"":""fullscreenenter"",""trial"":1,""time"":2237}]",NA,NA,NA,NA,NA,4,#FA92F8,#1CD855,10,0,1,38,1,792.1000000014901,39,0,486.59999999403954,0,0,experiment,NA,NA,2,0.5,0.5,4,5,199,5,NA
fcp-trial,234,937681,0.0-209.0-0.0,voc_e2,12378,"[{""event"":""fullscreenenter"",""trial"":1,""time"":2237}]",NA,NA,NA,NA,NA,0,#3386FF,#D89F1C,10,0,1,38,1,768.4000000059605,37,1,483.5,10,1,experiment,NA,NA,0,0.9,0.1,0,1,200,5,NA
fcp-trial,235,940299,0.0-210.0-0.0,voc_e2,12378,"[{""event"":""fullscreenenter"",""trial"":1,""time"":2237}]",NA,NA,NA,NA,NA,1,#D89F1C,#3386FF,0,10,0,38,1,542.1000000014901,39,0,566.7999999970198,10,1,experiment,NA,NA,0,0.1,0.9,1,0,201,5,NA
fcp-trial,236,942915,0.0-211.0-0.0,voc_e2,12378,"[{""event"":""fullscreenenter"",""trial"":1,""time"":2237}]",NA,NA,NA,NA,NA,6,#741CD8,#D8271C,0,10,0,38,1,643.8999999985099,39,0,463.3999999985099,10,1,experiment,NA,NA,1,0.3,0.7,3,2,202,5,NA
fcp-trial,237,945608,0.0-212.0-0.0,voc_e2,12378,"[{""event"":""fullscreenenter"",""trial"":1,""time"":2237}]",NA,NA,NA,NA,NA,5,#741CD8,#D8271C,0,0,0,38,1,691.6000000014901,39,0,492.3999999985099,0,1,experiment,NA,NA,1,0.3,0.7,3,2,203,5,NA
fcp-trial,238,948236,0.0-213.0-0.0,voc_e2,12378,"[{""event"":""fullscreenenter"",""trial"":1,""time"":2237}]",NA,NA,NA,NA,NA,2,#FA92F8,#1CD855,10,0,1,38,1,736.5,39,0,380.6000000014901,0,0,experiment,NA,NA,2,0.5,0.5,4,5,204,5,NA
fcp-trial,239,951167,0.0-214.0-0.0,voc_e2,12378,"[{""event"":""fullscreenenter"",""trial"":1,""time"":2237}]",NA,NA,NA,NA,NA,6,#3386FF,#D89F1C,10,0,1,38,1,783.8000000044703,37,1,639.1000000014901,10,1,experiment,NA,NA,0,0.9,0.1,0,1,205,5,NA
fcp-trial,240,953640,0.0-215.0-0.0,voc_e2,12378,"[{""event"":""fullscreenenter"",""trial"":1,""time"":2237}]",NA,NA,NA,NA,NA,2,#D89F1C,#3386FF,0,10,0,38,1,493,39,0,470.30000000447035,10,1,experiment,NA,NA,0,0.1,0.9,1,0,206,5,NA
fcp-trial,241,957288,0.0-216.0-0.0,voc_e2,12378,"[{""event"":""fullscreenenter"",""trial"":1,""time"":2237}]",NA,NA,NA,NA,NA,0,#1CD855,#FA92F8,10,10,0,38,1,1415.7999999970198,37,1,721,10,0,experiment,NA,NA,2,0.5,0.5,5,4,207,5,NA
fcp-trial,242,960138,0.0-217.0-0.0,voc_e2,12378,"[{""event"":""fullscreenenter"",""trial"":1,""time"":2237}]",NA,NA,NA,NA,NA,1,#D8271C,#741CD8,10,0,1,38,1,760.6000000014901,37,1,575.7000000029802,10,1,experiment,NA,NA,1,0.7,0.3,2,3,208,5,NA
fcp-trial,243,962753,0.0-218.0-0.0,voc_e2,12378,"[{""event"":""fullscreenenter"",""trial"":1,""time"":2237}]",NA,NA,NA,NA,NA,4,#D89F1C,#3386FF,0,0,0,38,1,598.6000000014901,39,0,507,0,1,experiment,NA,NA,0,0.1,0.9,1,0,209,5,NA
fcp-trial,244,965135,0.0-219.0-0.0,voc_e2,12378,"[{""event"":""fullscreenenter"",""trial"":1,""time"":2237}]",NA,NA,NA,NA,NA,2,#D8271C,#741CD8,0,10,1,38,1,371.70000000298023,37,1,500.1000000014901,0,1,experiment,NA,NA,1,0.7,0.3,2,3,210,5,NA
audio-instructions,245,970564,0.0-220.0,voc_e2,12378,"[{""event"":""fullscreenenter"",""trial"":1,""time"":2237}]",NA,949.7000000029802,static/audio/pause.wav,NA,0,NA,NA,NA,NA,NA,NA,NA,NA,NA,NA,NA,NA,NA,NA,NA,NA,NA,NA,NA,NA,NA,NA,NA,NA,NA
fcp-trial,246,974246,0.0-221.0-0.0,voc_e2,12378,"[{""event"":""fullscreenenter"",""trial"":1,""time"":2237}]",NA,NA,NA,NA,NA,2,#FA92F8,#1CD855,10,10,1,38,1,1664.4000000059605,39,0,505.29999999701977,10,0,experiment,NA,NA,2,0.5,0.5,4,5,211,5,NA
fcp-trial,247,976837,0.0-222.0-0.0,voc_e2,12378,"[{""event"":""fullscreenenter"",""trial"":1,""time"":2237}]",NA,NA,NA,NA,NA,4,#D89F1C,#3386FF,0,10,0,38,1,598.5,39,0,480.6000000014901,10,1,experiment,NA,NA,0,0.1,0.9,1,0,212,5,NA
fcp-trial,248,979555,0.0-223.0-0.0,voc_e2,12378,"[{""event"":""fullscreenenter"",""trial"":1,""time"":2237}]",NA,NA,NA,NA,NA,6,#1CD855,#FA92F8,0,10,0,38,1,727.6000000014901,37,1,482.3999999985099,0,0,experiment,NA,NA,2,0.5,0.5,5,4,213,5,NA
fcp-trial,249,982131,0.0-224.0-0.0,voc_e2,12378,"[{""event"":""fullscreenenter"",""trial"":1,""time"":2237}]",NA,NA,NA,NA,NA,6,#741CD8,#D8271C,0,0,0,38,1,578.5,39,0,490.6000000014901,0,1,experiment,NA,NA,1,0.3,0.7,3,2,214,5,NA
fcp-trial,250,984676,0.0-225.0-0.0,voc_e2,12378,"[{""event"":""fullscreenenter"",""trial"":1,""time"":2237}]",NA,NA,NA,NA,NA,6,#3386FF,#D89F1C,0,0,1,38,1,505.80000000447035,37,1,527.2000000029802,0,1,experiment,NA,NA,0,0.9,0.1,0,1,215,5,NA
fcp-trial,251,987022,0.0-226.0-0.0,voc_e2,12378,"[{""event"":""fullscreenenter"",""trial"":1,""time"":2237}]",NA,NA,NA,NA,NA,5,#741CD8,#D8271C,0,10,0,38,1,323.1000000014901,39,0,515,10,1,experiment,NA,NA,1,0.3,0.7,3,2,216,5,NA
fcp-trial,252,989388,0.0-227.0-0.0,voc_e2,12378,"[{""event"":""fullscreenenter"",""trial"":1,""time"":2237}]",NA,NA,NA,NA,NA,2,#D8271C,#741CD8,10,10,1,38,1,399.79999999701977,37,1,456.20000000298023,10,1,experiment,NA,NA,1,0.7,0.3,2,3,217,5,NA
fcp-trial,253,991747,0.0-228.0-0.0,voc_e2,12378,"[{""event"":""fullscreenenter"",""trial"":1,""time"":2237}]",NA,NA,NA,NA,NA,1,#FA92F8,#1CD855,0,10,1,38,1,362.79999999701977,39,0,487.5,10,0,experiment,NA,NA,2,0.5,0.5,4,5,218,5,NA
fcp-trial,254,994131,0.0-229.0-0.0,voc_e2,12378,"[{""event"":""fullscreenenter"",""trial"":1,""time"":2237}]",NA,NA,NA,NA,NA,2,#D89F1C,#3386FF,0,10,0,38,1,315.70000000298023,39,0,557.5,10,1,experiment,NA,NA,0,0.1,0.9,1,0,219,5,NA
fcp-trial,255,996968,0.0-230.0-0.0,voc_e2,12378,"[{""event"":""fullscreenenter"",""trial"":1,""time"":2237}]",NA,NA,NA,NA,NA,0,#741CD8,#D8271C,0,10,0,38,1,452.70000000298023,39,0,876.1999999955297,10,1,experiment,NA,NA,1,0.3,0.7,3,2,220,5,NA
fcp-trial,256,999556,0.0-231.0-0.0,voc_e2,12378,"[{""event"":""fullscreenenter"",""trial"":1,""time"":2237}]",NA,NA,NA,NA,NA,1,#3386FF,#D89F1C,10,0,1,38,1,569,37,1,510.30000000447035,10,1,experiment,NA,NA,0,0.9,0.1,0,1,221,5,NA
fcp-trial,257,1002490,0.0-232.0-0.0,voc_e2,12378,"[{""event"":""fullscreenenter"",""trial"":1,""time"":2237}]",NA,NA,NA,NA,NA,4,#1CD855,#FA92F8,10,0,0,38,1,474.80000000447035,37,1,950.5999999940396,10,0,experiment,NA,NA,2,0.5,0.5,5,4,222,5,NA
fcp-trial,258,1005215,0.0-233.0-0.0,voc_e2,12378,"[{""event"":""fullscreenenter"",""trial"":1,""time"":2237}]",NA,NA,NA,NA,NA,3,#D89F1C,#3386FF,0,10,0,38,1,651.6999999955297,39,0,562.1000000014901,10,1,experiment,NA,NA,0,0.1,0.9,1,0,223,5,NA
fcp-trial,259,1008009,0.0-234.0-0.0,voc_e2,12378,"[{""event"":""fullscreenenter"",""trial"":1,""time"":2237}]",NA,NA,NA,NA,NA,4,#741CD8,#D8271C,0,10,0,38,1,573.8999999985099,37,1,708.6000000014901,0,0,experiment,NA,NA,1,0.3,0.7,3,2,224,5,NA
fcp-trial,260,1010892,0.0-235.0-0.0,voc_e2,12378,"[{""event"":""fullscreenenter"",""trial"":1,""time"":2237}]",NA,NA,NA,NA,NA,3,#741CD8,#D8271C,0,10,0,38,1,925.6000000014901,39,0,445.3999999985099,10,1,experiment,NA,NA,1,0.3,0.7,3,2,225,5,NA
fcp-trial,261,1013764,0.0-236.0-0.0,voc_e2,12378,"[{""event"":""fullscreenenter"",""trial"":1,""time"":2237}]",NA,NA,NA,NA,NA,3,#1CD855,#FA92F8,10,10,0,38,1,838.5,37,1,524,10,0,experiment,NA,NA,2,0.5,0.5,5,4,226,6,NA
fcp-trial,262,1016272,0.0-237.0-0.0,voc_e2,12378,"[{""event"":""fullscreenenter"",""trial"":1,""time"":2237}]",NA,NA,NA,NA,NA,5,#1CD855,#FA92F8,0,10,0,38,1,500.8999999985099,37,1,496.80000000447035,0,0,experiment,NA,NA,2,0.5,0.5,5,4,227,6,NA
fcp-trial,263,1018941,0.0-238.0-0.0,voc_e2,12378,"[{""event"":""fullscreenenter"",""trial"":1,""time"":2237}]",NA,NA,NA,NA,NA,0,#3386FF,#D89F1C,10,0,1,38,1,513.5,37,1,647.8000000044703,10,1,experiment,NA,NA,0,0.9,0.1,0,1,228,6,NA
fcp-trial,264,1021741,0.0-239.0-0.0,voc_e2,12378,"[{""event"":""fullscreenenter"",""trial"":1,""time"":2237}]",NA,NA,NA,NA,NA,1,#D8271C,#741CD8,10,10,1,38,1,368,37,1,922.39999999851,10,1,experiment,NA,NA,1,0.7,0.3,2,3,229,6,NA
fcp-trial,265,1024573,0.0-240.0-0.0,voc_e2,12378,"[{""event"":""fullscreenenter"",""trial"":1,""time"":2237}]",NA,NA,NA,NA,NA,0,#1CD855,#FA92F8,10,10,0,38,1,439.59999999403954,37,1,883.8999999985099,10,0,experiment,NA,NA,2,0.5,0.5,5,4,230,6,NA
fcp-trial,266,1027115,0.0-241.0-0.0,voc_e2,12378,"[{""event"":""fullscreenenter"",""trial"":1,""time"":2237}]",NA,NA,NA,NA,NA,5,#D89F1C,#3386FF,0,0,0,38,1,410,39,0,623.4000000059605,0,1,experiment,NA,NA,0,0.1,0.9,1,0,231,6,NA
fcp-trial,267,1029507,0.0-242.0-0.0,voc_e2,12378,"[{""event"":""fullscreenenter"",""trial"":1,""time"":2237}]",NA,NA,NA,NA,NA,6,#FA92F8,#1CD855,0,0,1,38,1,398.30000000447035,39,0,484.1000000014901,0,0,experiment,NA,NA,2,0.5,0.5,4,5,232,6,NA
fcp-trial,268,1031997,0.0-243.0-0.0,voc_e2,12378,"[{""event"":""fullscreenenter"",""trial"":1,""time"":2237}]",NA,NA,NA,NA,NA,5,#741CD8,#D8271C,0,0,0,38,1,407.80000000447035,39,0,570.6999999955297,0,1,experiment,NA,NA,1,0.3,0.7,3,2,233,6,NA
fcp-trial,269,1034340,0.0-244.0-0.0,voc_e2,12378,"[{""event"":""fullscreenenter"",""trial"":1,""time"":2237}]",NA,NA,NA,NA,NA,2,#D8271C,#741CD8,0,0,1,38,1,418.5,37,1,416.19999999552965,0,1,experiment,NA,NA,1,0.7,0.3,2,3,234,6,NA
fcp-trial,270,1036706,0.0-245.0-0.0,voc_e2,12378,"[{""event"":""fullscreenenter"",""trial"":1,""time"":2237}]",NA,NA,NA,NA,NA,0,#3386FF,#D89F1C,10,0,1,38,1,403.1000000014901,37,1,454.70000000298023,10,1,experiment,NA,NA,0,0.9,0.1,0,1,235,6,NA
fcp-trial,271,1039041,0.0-246.0-0.0,voc_e2,12378,"[{""event"":""fullscreenenter"",""trial"":1,""time"":2237}]",NA,NA,NA,NA,NA,2,#1CD855,#FA92F8,10,10,0,38,1,307.80000000447035,37,1,517.9000000059605,10,0,experiment,NA,NA,2,0.5,0.5,5,4,236,6,NA
fcp-trial,272,1041933,0.0-247.0-0.0,voc_e2,12378,"[{""event"":""fullscreenenter"",""trial"":1,""time"":2237}]",NA,NA,NA,NA,NA,4,#D89F1C,#3386FF,0,0,0,38,1,257.3999999985099,39,0,1124,0,1,experiment,NA,NA,0,0.1,0.9,1,0,237,6,NA
fcp-trial,273,1044660,0.0-248.0-0.0,voc_e2,12378,"[{""event"":""fullscreenenter"",""trial"":1,""time"":2237}]",NA,NA,NA,NA,NA,1,#D8271C,#741CD8,10,10,1,38,1,383.5,37,1,832.1000000014901,10,1,experiment,NA,NA,1,0.7,0.3,2,3,238,6,NA
fcp-trial,274,1047423,0.0-249.0-0.0,voc_e2,12378,"[{""event"":""fullscreenenter"",""trial"":1,""time"":2237}]",NA,NA,NA,NA,NA,2,#D89F1C,#3386FF,0,10,0,38,1,372.3999999985099,39,0,883.5,10,1,experiment,NA,NA,0,0.1,0.9,1,0,239,6,NA
fcp-trial,275,1049745,0.0-250.0-0.0,voc_e2,12378,"[{""event"":""fullscreenenter"",""trial"":1,""time"":2237}]",NA,NA,NA,NA,NA,1,#1CD855,#FA92F8,10,10,0,38,1,395.8999999985099,37,1,414.5,10,0,experiment,NA,NA,2,0.5,0.5,5,4,240,6,NA
fcp-trial,276,1052033,0.0-251.0-0.0,voc_e2,12378,"[{""event"":""fullscreenenter"",""trial"":1,""time"":2237}]",NA,NA,NA,NA,NA,4,#FA92F8,#1CD855,10,10,1,38,1,423.20000000298023,39,0,352.5,10,0,experiment,NA,NA,2,0.5,0.5,4,5,241,6,NA
fcp-trial,277,1054379,0.0-252.0-0.0,voc_e2,12378,"[{""event"":""fullscreenenter"",""trial"":1,""time"":2237}]",NA,NA,NA,NA,NA,6,#741CD8,#D8271C,10,0,0,38,1,349.3999999985099,39,0,485.5,0,1,experiment,NA,NA,1,0.3,0.7,3,2,242,6,NA
fcp-trial,278,1056717,0.0-253.0-0.0,voc_e2,12378,"[{""event"":""fullscreenenter"",""trial"":1,""time"":2237}]",NA,NA,NA,NA,NA,1,#D89F1C,#3386FF,0,10,0,38,1,295.5,39,0,530.5,10,1,experiment,NA,NA,0,0.1,0.9,1,0,243,6,NA
fcp-trial,279,1058967,0.0-254.0-0.0,voc_e2,12378,"[{""event"":""fullscreenenter"",""trial"":1,""time"":2237}]",NA,NA,NA,NA,NA,5,#FA92F8,#1CD855,10,10,1,38,1,306.29999999701977,39,0,431.3999999985099,10,0,experiment,NA,NA,2,0.5,0.5,4,5,244,6,NA
fcp-trial,280,1062005,0.0-255.0-0.0,voc_e2,12378,"[{""event"":""fullscreenenter"",""trial"":1,""time"":2237}]",NA,NA,NA,NA,NA,3,#741CD8,#D8271C,0,10,0,38,1,451.8999999985099,39,0,1077.7000000029802,10,1,experiment,NA,NA,1,0.3,0.7,3,2,245,6,NA
fcp-trial,281,1064492,0.0-256.0-0.0,voc_e2,12378,"[{""event"":""fullscreenenter"",""trial"":1,""time"":2237}]",NA,NA,NA,NA,NA,0,#D8271C,#741CD8,10,0,1,38,1,543,37,1,434.30000000447035,10,1,experiment,NA,NA,1,0.7,0.3,2,3,246,6,NA
fcp-trial,282,1067379,0.0-257.0-0.0,voc_e2,12378,"[{""event"":""fullscreenenter"",""trial"":1,""time"":2237}]",NA,NA,NA,NA,NA,3,#D89F1C,#3386FF,0,10,0,38,1,706.5,39,0,669.6000000014901,10,1,experiment,NA,NA,0,0.1,0.9,1,0,247,6,NA
fcp-trial,283,1069974,0.0-258.0-0.0,voc_e2,12378,"[{""event"":""fullscreenenter"",""trial"":1,""time"":2237}]",NA,NA,NA,NA,NA,3,#1CD855,#FA92F8,0,0,0,38,1,636.6000000014901,37,1,448.3999999985099,0,0,experiment,NA,NA,2,0.5,0.5,5,4,248,6,NA
fcp-trial,284,1072288,0.0-259.0-0.0,voc_e2,12378,"[{""event"":""fullscreenenter"",""trial"":1,""time"":2237}]",NA,NA,NA,NA,NA,6,#D89F1C,#3386FF,0,10,0,38,1,437,39,0,367.8999999985099,10,1,experiment,NA,NA,0,0.1,0.9,1,0,249,6,NA
fcp-trial,285,1075422,0.0-260.0-0.0,voc_e2,12378,"[{""event"":""fullscreenenter"",""trial"":1,""time"":2237}]",NA,NA,NA,NA,NA,4,#D8271C,#741CD8,10,0,1,38,1,316.3999999985099,37,1,1307.39999999851,10,1,experiment,NA,NA,1,0.7,0.3,2,3,250,6,NA
fcp-trial,286,1078371,0.0-261.0-0.0,voc_e2,12378,"[{""event"":""fullscreenenter"",""trial"":1,""time"":2237}]",NA,NA,NA,NA,NA,5,#3386FF,#D89F1C,10,0,1,38,1,693.6000000014901,37,1,747.6000000014901,10,1,experiment,NA,NA,0,0.9,0.1,0,1,251,6,NA
fcp-trial,287,1081457,0.0-262.0-0.0,voc_e2,12378,"[{""event"":""fullscreenenter"",""trial"":1,""time"":2237}]",NA,NA,NA,NA,NA,0,#1CD855,#FA92F8,10,0,0,38,1,413.5,37,1,1162.89999999851,10,0,experiment,NA,NA,2,0.5,0.5,5,4,252,6,NA
fcp-trial,288,1083823,0.0-263.0-0.0,voc_e2,12378,"[{""event"":""fullscreenenter"",""trial"":1,""time"":2237}]",NA,NA,NA,NA,NA,3,#D89F1C,#3386FF,0,10,0,38,1,308.70000000298023,39,0,548.2999999970198,10,1,experiment,NA,NA,0,0.1,0.9,1,0,253,6,NA
fcp-trial,289,1086231,0.0-264.0-0.0,voc_e2,12378,"[{""event"":""fullscreenenter"",""trial"":1,""time"":2237}]",NA,NA,NA,NA,NA,3,#FA92F8,#1CD855,10,0,1,38,1,342.69999999552965,39,0,553.2999999970198,0,0,experiment,NA,NA,2,0.5,0.5,4,5,254,6,NA
fcp-trial,290,1088576,0.0-265.0-0.0,voc_e2,12378,"[{""event"":""fullscreenenter"",""trial"":1,""time"":2237}]",NA,NA,NA,NA,NA,3,#741CD8,#D8271C,10,10,0,38,1,319.19999999552965,39,0,513.6000000014901,10,1,experiment,NA,NA,1,0.3,0.7,3,2,255,6,NA
fcp-trial,291,1091105,0.0-266.0-0.0,voc_e2,12378,"[{""event"":""fullscreenenter"",""trial"":1,""time"":2237}]",NA,NA,NA,NA,NA,4,#D89F1C,#3386FF,0,10,0,38,1,589.1000000014901,39,0,430.8999999985099,10,1,experiment,NA,NA,0,0.1,0.9,1,0,256,6,NA
fcp-trial,292,1093594,0.0-267.0-0.0,voc_e2,12378,"[{""event"":""fullscreenenter"",""trial"":1,""time"":2237}]",NA,NA,NA,NA,NA,5,#3386FF,#D89F1C,10,0,1,38,1,493.6000000014901,37,1,485.19999999552965,10,1,experiment,NA,NA,0,0.9,0.1,0,1,257,6,NA
fcp-trial,293,1096323,0.0-268.0-0.0,voc_e2,12378,"[{""event"":""fullscreenenter"",""trial"":1,""time"":2237}]",NA,NA,NA,NA,NA,2,#FA92F8,#1CD855,0,10,1,38,1,675.0999999940395,39,0,543.2999999970198,10,0,experiment,NA,NA,2,0.5,0.5,4,5,258,6,NA
fcp-trial,294,1099066,0.0-269.0-0.0,voc_e2,12378,"[{""event"":""fullscreenenter"",""trial"":1,""time"":2237}]",NA,NA,NA,NA,NA,0,#3386FF,#D89F1C,10,0,1,38,1,727,37,1,508,10,1,experiment,NA,NA,0,0.9,0.1,0,1,259,6,NA
fcp-trial,295,1102188,0.0-270.0-0.0,voc_e2,12378,"[{""event"":""fullscreenenter"",""trial"":1,""time"":2237}]",NA,NA,NA,NA,NA,5,#D8271C,#741CD8,0,0,1,38,1,547.1000000014901,37,1,1062.5,0,1,experiment,NA,NA,1,0.7,0.3,2,3,260,6,NA
fcp-trial,296,1104741,0.0-271.0-0.0,voc_e2,12378,"[{""event"":""fullscreenenter"",""trial"":1,""time"":2237}]",NA,NA,NA,NA,NA,0,#741CD8,#D8271C,0,0,0,38,1,555.8000000044703,39,0,488.1000000014901,0,1,experiment,NA,NA,1,0.3,0.7,3,2,261,6,NA
fcp-trial,297,1107284,0.0-272.0-0.0,voc_e2,12378,"[{""event"":""fullscreenenter"",""trial"":1,""time"":2237}]",NA,NA,NA,NA,NA,4,#1CD855,#FA92F8,10,10,0,38,1,616.2000000029802,37,1,415.6000000014901,10,0,experiment,NA,NA,2,0.5,0.5,5,4,262,6,NA
fcp-trial,298,1109623,0.0-273.0-0.0,voc_e2,12378,"[{""event"":""fullscreenenter"",""trial"":1,""time"":2237}]",NA,NA,NA,NA,NA,6,#D89F1C,#3386FF,0,10,0,38,1,385.6000000014901,39,0,441.8999999985099,10,1,experiment,NA,NA,0,0.1,0.9,1,0,263,6,NA
fcp-trial,299,1112208,0.0-274.0-0.0,voc_e2,12378,"[{""event"":""fullscreenenter"",""trial"":1,""time"":2237}]",NA,NA,NA,NA,NA,5,#FA92F8,#1CD855,0,10,1,38,1,651.3999999985099,39,0,423.5,10,0,experiment,NA,NA,2,0.5,0.5,4,5,264,6,NA
fcp-trial,300,1114967,0.0-275.0-0.0,voc_e2,12378,"[{""event"":""fullscreenenter"",""trial"":1,""time"":2237}]",NA,NA,NA,NA,NA,4,#D8271C,#741CD8,0,10,1,38,1,706.1999999955297,37,1,542.3999999985099,0,1,experiment,NA,NA,1,0.7,0.3,2,3,265,6,NA
fcp-trial,301,1117284,0.0-276.0-0.0,voc_e2,12378,"[{""event"":""fullscreenenter"",""trial"":1,""time"":2237}]",NA,NA,NA,NA,NA,2,#3386FF,#D89F1C,10,0,1,38,1,314.20000000298023,37,1,492.20000000298023,10,1,experiment,NA,NA,0,0.9,0.1,0,1,266,6,NA
fcp-trial,302,1120596,0.0-277.0-0.0,voc_e2,12378,"[{""event"":""fullscreenenter"",""trial"":1,""time"":2237}]",NA,NA,NA,NA,NA,2,#741CD8,#D8271C,10,10,0,38,1,525.5,39,0,1274.8000000044703,10,1,experiment,NA,NA,1,0.3,0.7,3,2,267,6,NA
fcp-trial,303,1123183,0.0-278.0-0.0,voc_e2,12378,"[{""event"":""fullscreenenter"",""trial"":1,""time"":2237}]",NA,NA,NA,NA,NA,1,#FA92F8,#1CD855,10,0,1,38,1,552.8999999985099,39,0,524.3999999985099,0,0,experiment,NA,NA,2,0.5,0.5,4,5,268,6,NA
fcp-trial,304,1125992,0.0-279.0-0.0,voc_e2,12378,"[{""event"":""fullscreenenter"",""trial"":1,""time"":2237}]",NA,NA,NA,NA,NA,1,#D89F1C,#3386FF,0,10,0,38,1,615.5,39,0,683.1000000014901,10,1,experiment,NA,NA,0,0.1,0.9,1,0,269,6,NA
fcp-trial,305,1129139,0.0-280.0-0.0,voc_e2,12378,"[{""event"":""fullscreenenter"",""trial"":1,""time"":2237}]",NA,NA,NA,NA,NA,6,#1CD855,#FA92F8,0,0,0,38,1,567.3999999985099,37,1,1069.0999999940395,0,0,experiment,NA,NA,2,0.5,0.5,5,4,270,6,NA
fcp-trial,306,1131724,0.0-281.0-0.0,voc_e2,12378,"[{""event"":""fullscreenenter"",""trial"":1,""time"":2237}]",NA,NA,NA,NA,NA,6,#741CD8,#D8271C,0,10,0,38,1,458.5,39,0,617.2999999970198,10,1,experiment,NA,NA,1,0.3,0.7,3,2,271,7,NA
fcp-trial,307,1134366,0.0-282.0-0.0,voc_e2,12378,"[{""event"":""fullscreenenter"",""trial"":1,""time"":2237}]",NA,NA,NA,NA,NA,0,#FA92F8,#1CD855,0,10,1,38,1,625.6999999955297,39,0,506.8999999985099,10,0,experiment,NA,NA,2,0.5,0.5,4,5,272,7,NA
fcp-trial,308,1137042,0.0-283.0-0.0,voc_e2,12378,"[{""event"":""fullscreenenter"",""trial"":1,""time"":2237}]",NA,NA,NA,NA,NA,1,#741CD8,#D8271C,0,10,0,38,1,665.9000000059605,39,0,499.19999999552965,10,1,experiment,NA,NA,1,0.3,0.7,3,2,273,7,NA
fcp-trial,309,1139917,0.0-284.0-0.0,voc_e2,12378,"[{""event"":""fullscreenenter"",""trial"":1,""time"":2237}]",NA,NA,NA,NA,NA,4,#3386FF,#D89F1C,10,0,1,38,1,654.6999999955297,37,1,710.6999999955297,10,1,experiment,NA,NA,0,0.9,0.1,0,1,274,7,NA
fcp-trial,310,1142473,0.0-285.0-0.0,voc_e2,12378,"[{""event"":""fullscreenenter"",""trial"":1,""time"":2237}]",NA,NA,NA,NA,NA,2,#FA92F8,#1CD855,0,10,1,38,1,596.1000000014901,39,0,450.29999999701977,10,0,experiment,NA,NA,2,0.5,0.5,4,5,275,7,NA
fcp-trial,311,1145138,0.0-286.0-0.0,voc_e2,12378,"[{""event"":""fullscreenenter"",""trial"":1,""time"":2237}]",NA,NA,NA,NA,NA,5,#741CD8,#D8271C,0,10,0,38,1,626.7999999970198,39,0,529.7000000029802,10,1,experiment,NA,NA,1,0.3,0.7,3,2,276,7,NA
fcp-trial,312,1147894,0.0-287.0-0.0,voc_e2,12378,"[{""event"":""fullscreenenter"",""trial"":1,""time"":2237}]",NA,NA,NA,NA,NA,2,#741CD8,#D8271C,10,10,0,38,1,777.3000000044703,39,0,469.69999999552965,10,1,experiment,NA,NA,1,0.3,0.7,3,2,277,7,NA
fcp-trial,313,1150643,0.0-288.0-0.0,voc_e2,12378,"[{""event"":""fullscreenenter"",""trial"":1,""time"":2237}]",NA,NA,NA,NA,NA,4,#D8271C,#741CD8,10,0,1,38,1,673.7000000029802,37,1,564.7000000029802,10,1,experiment,NA,NA,1,0.7,0.3,2,3,278,7,NA
fcp-trial,314,1153307,0.0-289.0-0.0,voc_e2,12378,"[{""event"":""fullscreenenter"",""trial"":1,""time"":2237}]",NA,NA,NA,NA,NA,2,#D89F1C,#3386FF,0,10,0,38,1,603.8999999985099,39,0,550.5,10,1,experiment,NA,NA,0,0.1,0.9,1,0,279,7,NA
fcp-trial,315,1155724,0.0-290.0-0.0,voc_e2,12378,"[{""event"":""fullscreenenter"",""trial"":1,""time"":2237}]",NA,NA,NA,NA,NA,4,#1CD855,#FA92F8,10,10,0,38,1,399.5,37,1,506.19999999552965,10,0,experiment,NA,NA,2,0.5,0.5,5,4,280,7,NA
fcp-trial,316,1158324,0.0-291.0-0.0,voc_e2,12378,"[{""event"":""fullscreenenter"",""trial"":1,""time"":2237}]",NA,NA,NA,NA,NA,5,#D89F1C,#3386FF,0,0,0,38,1,509.5,39,0,581.7000000029802,0,1,experiment,NA,NA,0,0.1,0.9,1,0,281,7,NA
fcp-trial,317,1160784,0.0-292.0-0.0,voc_e2,12378,"[{""event"":""fullscreenenter"",""trial"":1,""time"":2237}]",NA,NA,NA,NA,NA,3,#1CD855,#FA92F8,0,10,0,38,1,464.20000000298023,37,1,482.20000000298023,0,0,experiment,NA,NA,2,0.5,0.5,5,4,282,7,NA
fcp-trial,318,1163549,0.0-293.0-0.0,voc_e2,12378,"[{""event"":""fullscreenenter"",""trial"":1,""time"":2237}]",NA,NA,NA,NA,NA,3,#D8271C,#741CD8,10,0,1,38,1,564.7999999970198,37,1,689,10,1,experiment,NA,NA,1,0.7,0.3,2,3,283,7,NA
fcp-trial,319,1166179,0.0-294.0-0.0,voc_e2,12378,"[{""event"":""fullscreenenter"",""trial"":1,""time"":2237}]",NA,NA,NA,NA,NA,5,#FA92F8,#1CD855,0,10,1,38,1,549.3999999985099,39,0,567.6000000014901,10,0,experiment,NA,NA,2,0.5,0.5,4,5,284,7,NA
fcp-trial,320,1168595,0.0-295.0-0.0,voc_e2,12378,"[{""event"":""fullscreenenter"",""trial"":1,""time"":2237}]",NA,NA,NA,NA,NA,1,#3386FF,#D89F1C,10,0,1,38,1,435.8999999985099,37,1,467.5,10,1,experiment,NA,NA,0,0.9,0.1,0,1,285,7,NA
fcp-trial,321,1171273,0.0-296.0-0.0,voc_e2,12378,"[{""event"":""fullscreenenter"",""trial"":1,""time"":2237}]",NA,NA,NA,NA,NA,6,#741CD8,#D8271C,0,0,0,38,1,674.5,39,0,495,0,1,experiment,NA,NA,1,0.3,0.7,3,2,286,7,NA
fcp-trial,322,1173690,0.0-297.0-0.0,voc_e2,12378,"[{""event"":""fullscreenenter"",""trial"":1,""time"":2237}]",NA,NA,NA,NA,NA,0,#3386FF,#D89F1C,10,0,1,38,1,445.5,37,1,460.70000000298023,10,1,experiment,NA,NA,0,0.9,0.1,0,1,287,7,NA
fcp-trial,323,1175975,0.0-298.0-0.0,voc_e2,12378,"[{""event"":""fullscreenenter"",""trial"":1,""time"":2237}]",NA,NA,NA,NA,NA,3,#D89F1C,#3386FF,0,10,0,38,1,325.30000000447035,39,0,449.20000000298023,10,1,experiment,NA,NA,0,0.1,0.9,1,0,288,7,NA
fcp-trial,324,1178327,0.0-299.0-0.0,voc_e2,12378,"[{""event"":""fullscreenenter"",""trial"":1,""time"":2237}]",NA,NA,NA,NA,NA,6,#1CD855,#FA92F8,0,10,0,38,1,404.80000000447035,37,1,437.3999999985099,0,0,experiment,NA,NA,2,0.5,0.5,5,4,289,7,NA
fcp-trial,325,1180822,0.0-300.0-0.0,voc_e2,12378,"[{""event"":""fullscreenenter"",""trial"":1,""time"":2237}]",NA,NA,NA,NA,NA,1,#741CD8,#D8271C,10,10,0,38,1,571.2000000029802,39,0,414.8999999985099,10,1,experiment,NA,NA,1,0.3,0.7,3,2,290,7,NA
fcp-trial,326,1183397,0.0-301.0-0.0,voc_e2,12378,"[{""event"":""fullscreenenter"",""trial"":1,""time"":2237}]",NA,NA,NA,NA,NA,0,#1CD855,#FA92F8,10,0,0,38,1,531.7000000029802,37,1,532.8999999985099,10,0,experiment,NA,NA,2,0.5,0.5,5,4,291,7,NA
fcp-trial,327,1186075,0.0-302.0-0.0,voc_e2,12378,"[{""event"":""fullscreenenter"",""trial"":1,""time"":2237}]",NA,NA,NA,NA,NA,1,#FA92F8,#1CD855,0,0,1,38,1,809.5,39,0,356,0,0,experiment,NA,NA,2,0.5,0.5,4,5,292,7,NA
fcp-trial,328,1188709,0.0-303.0-0.0,voc_e2,12378,"[{""event"":""fullscreenenter"",""trial"":1,""time"":2237}]",NA,NA,NA,NA,NA,6,#D89F1C,#3386FF,0,10,0,38,1,698.1000000014901,39,0,427,10,1,experiment,NA,NA,0,0.1,0.9,1,0,293,7,NA
fcp-trial,329,1191474,0.0-304.0-0.0,voc_e2,12378,"[{""event"":""fullscreenenter"",""trial"":1,""time"":2237}]",NA,NA,NA,NA,NA,0,#D8271C,#741CD8,10,0,1,38,1,605.3999999985099,37,1,649.7999999970198,10,1,experiment,NA,NA,1,0.7,0.3,2,3,294,7,NA
fcp-trial,330,1193955,0.0-305.0-0.0,voc_e2,12378,"[{""event"":""fullscreenenter"",""trial"":1,""time"":2237}]",NA,NA,NA,NA,NA,6,#D89F1C,#3386FF,10,10,0,38,1,589.3000000044703,39,0,382.8999999985099,10,1,experiment,NA,NA,0,0.1,0.9,1,0,295,7,NA
fcp-trial,331,1196316,0.0-306.0-0.0,voc_e2,12378,"[{""event"":""fullscreenenter"",""trial"":1,""time"":2237}]",NA,NA,NA,NA,NA,5,#FA92F8,#1CD855,10,0,1,38,1,425.3999999985099,39,0,426.30000000447035,0,0,experiment,NA,NA,2,0.5,0.5,4,5,296,7,NA
fcp-trial,332,1198657,0.0-307.0-0.0,voc_e2,12378,"[{""event"":""fullscreenenter"",""trial"":1,""time"":2237}]",NA,NA,NA,NA,NA,1,#1CD855,#FA92F8,10,0,0,38,1,399.5,37,1,432,10,0,experiment,NA,NA,2,0.5,0.5,5,4,297,7,NA
fcp-trial,333,1200939,0.0-308.0-0.0,voc_e2,12378,"[{""event"":""fullscreenenter"",""trial"":1,""time"":2237}]",NA,NA,NA,NA,NA,4,#FA92F8,#1CD855,0,10,1,38,1,433.69999999552965,39,0,338,10,0,experiment,NA,NA,2,0.5,0.5,4,5,298,7,NA
fcp-trial,334,1203211,0.0-309.0-0.0,voc_e2,12378,"[{""event"":""fullscreenenter"",""trial"":1,""time"":2237}]",NA,NA,NA,NA,NA,0,#741CD8,#D8271C,0,10,0,38,1,267.69999999552965,39,0,492.70000000298023,10,1,experiment,NA,NA,1,0.3,0.7,3,2,299,7,NA
fcp-trial,335,1205512,0.0-310.0-0.0,voc_e2,12378,"[{""event"":""fullscreenenter"",""trial"":1,""time"":2237}]",NA,NA,NA,NA,NA,5,#3386FF,#D89F1C,10,0,1,38,1,321.5,37,1,468.1000000014901,10,1,experiment,NA,NA,0,0.9,0.1,0,1,300,7,NA
fcp-trial,336,1208750,0.0-311.0-0.0,voc_e2,12378,"[{""event"":""fullscreenenter"",""trial"":1,""time"":2237}]",NA,NA,NA,NA,NA,2,#741CD8,#D8271C,0,10,0,38,1,561.5,39,0,1166.1999999955297,10,1,experiment,NA,NA,1,0.3,0.7,3,2,301,7,NA
fcp-trial,337,1211023,0.0-312.0-0.0,voc_e2,12378,"[{""event"":""fullscreenenter"",""trial"":1,""time"":2237}]",NA,NA,NA,NA,NA,3,#FA92F8,#1CD855,10,10,1,38,1,358.5,39,0,405.6000000014901,10,0,experiment,NA,NA,2,0.5,0.5,4,5,302,7,NA
fcp-trial,338,1214212,0.0-313.0-0.0,voc_e2,12378,"[{""event"":""fullscreenenter"",""trial"":1,""time"":2237}]",NA,NA,NA,NA,NA,3,#D89F1C,#3386FF,0,10,0,38,1,458,39,0,1221.9000000059605,10,1,experiment,NA,NA,0,0.1,0.9,1,0,303,7,NA
fcp-trial,339,1216906,0.0-314.0-0.0,voc_e2,12378,"[{""event"":""fullscreenenter"",""trial"":1,""time"":2237}]",NA,NA,NA,NA,NA,2,#D89F1C,#3386FF,0,10,0,38,1,621.5999999940395,39,0,560.6000000014901,10,1,experiment,NA,NA,0,0.1,0.9,1,0,304,7,NA
fcp-trial,340,1219607,0.0-315.0-0.0,voc_e2,12378,"[{""event"":""fullscreenenter"",""trial"":1,""time"":2237}]",NA,NA,NA,NA,NA,6,#D8271C,#741CD8,0,0,1,38,1,709.6000000014901,37,1,484.09999999403954,0,1,experiment,NA,NA,1,0.7,0.3,2,3,305,7,NA
fcp-trial,341,1221987,0.0-316.0-0.0,voc_e2,12378,"[{""event"":""fullscreenenter"",""trial"":1,""time"":2237}]",NA,NA,NA,NA,NA,2,#FA92F8,#1CD855,10,0,1,38,1,544.8000000044703,39,0,325.59999999403954,0,0,experiment,NA,NA,2,0.5,0.5,4,5,306,7,NA
fcp-trial,342,1224556,0.0-317.0-0.0,voc_e2,12378,"[{""event"":""fullscreenenter"",""trial"":1,""time"":2237}]",NA,NA,NA,NA,NA,4,#3386FF,#D89F1C,10,0,1,38,1,612.1999999955297,37,1,448.40000000596046,10,1,experiment,NA,NA,0,0.9,0.1,0,1,307,7,NA
fcp-trial,343,1227277,0.0-318.0-0.0,voc_e2,12378,"[{""event"":""fullscreenenter"",""trial"":1,""time"":2237}]",NA,NA,NA,NA,NA,3,#741CD8,#D8271C,10,10,0,38,1,691.1000000014901,39,0,519.2000000029802,10,1,experiment,NA,NA,1,0.3,0.7,3,2,308,7,NA
fcp-trial,344,1229826,0.0-319.0-0.0,voc_e2,12378,"[{""event"":""fullscreenenter"",""trial"":1,""time"":2237}]",NA,NA,NA,NA,NA,5,#741CD8,#D8271C,0,10,0,38,1,432.1000000014901,39,0,607.9000000059605,10,1,experiment,NA,NA,1,0.3,0.7,3,2,309,7,NA
fcp-trial,345,1232361,0.0-320.0-0.0,voc_e2,12378,"[{""event"":""fullscreenenter"",""trial"":1,""time"":2237}]",NA,NA,NA,NA,NA,1,#741CD8,#D8271C,0,10,0,38,1,540.6000000014901,39,0,482.70000000298023,10,1,experiment,NA,NA,1,0.3,0.7,3,2,310,7,NA
fcp-trial,346,1235200,0.0-321.0-0.0,voc_e2,12378,"[{""event"":""fullscreenenter"",""trial"":1,""time"":2237}]",NA,NA,NA,NA,NA,6,#FA92F8,#1CD855,0,0,1,38,1,700.7000000029802,39,0,626.2000000029802,0,0,experiment,NA,NA,2,0.5,0.5,4,5,311,7,NA
fcp-trial,347,1237707,0.0-322.0-0.0,voc_e2,12378,"[{""event"":""fullscreenenter"",""trial"":1,""time"":2237}]",NA,NA,NA,NA,NA,1,#3386FF,#D89F1C,0,0,1,38,1,515,37,1,483,0,1,experiment,NA,NA,0,0.9,0.1,0,1,312,7,NA
fcp-trial,348,1241374,0.0-323.0-0.0,voc_e2,12378,"[{""event"":""fullscreenenter"",""trial"":1,""time"":2237}]",NA,NA,NA,NA,NA,0,#1CD855,#FA92F8,0,0,0,38,1,643.7000000029802,37,1,1514.60000000149,0,0,experiment,NA,NA,2,0.5,0.5,5,4,313,7,NA
fcp-trial,349,1244127,0.0-324.0-0.0,voc_e2,12378,"[{""event"":""fullscreenenter"",""trial"":1,""time"":2237}]",NA,NA,NA,NA,NA,0,#D89F1C,#3386FF,0,10,0,38,1,615.7000000029802,39,0,624.3999999985099,10,1,experiment,NA,NA,0,0.1,0.9,1,0,314,7,NA
fcp-trial,350,1246625,0.0-325.0-0.0,voc_e2,12378,"[{""event"":""fullscreenenter"",""trial"":1,""time"":2237}]",NA,NA,NA,NA,NA,4,#741CD8,#D8271C,0,0,0,38,1,595.2000000029802,39,0,390.1000000014901,0,1,experiment,NA,NA,1,0.3,0.7,3,2,315,7,NA
audio-instructions,351,1260668,0.0-326.0,voc_e2,12378,"[{""event"":""fullscreenenter"",""trial"":1,""time"":2237}]",NA,8366.5,static/audio/finished.wav,NA,0,NA,NA,NA,NA,NA,NA,NA,NA,NA,NA,NA,NA,NA,NA,NA,NA,NA,NA,NA,NA,NA,NA,NA,NA,NA
audio-instructions,352,1272083,0.0-327.0-0.0,voc_e2,12378,"[{""event"":""fullscreenenter"",""trial"":1,""time"":2237}]",NA,578,static/audio/explicit1.wav,NA,0,NA,NA,NA,NA,NA,NA,NA,NA,NA,NA,NA,NA,NA,NA,NA,NA,NA,NA,NA,NA,NA,NA,NA,NA,NA
audio-instructions,353,1281550,0.0-327.0-1.0,voc_e2,12378,"[{""event"":""fullscreenenter"",""trial"":1,""time"":2237}]",NA,1866.39999999851,static/audio/explicit2.wav,NA,0,NA,NA,NA,NA,NA,NA,NA,NA,NA,NA,NA,NA,NA,NA,NA,NA,NA,NA,NA,NA,NA,NA,NA,NA,NA
image-slider-response,354,1290918,0.0-328.0,voc_e2,12378,"[{""event"":""fullscreenenter"",""trial"":1,""time"":2237}]",NA,9363.10000000149,static/img/machines/machine6.png,NA,NA,NA,NA,NA,NA,NA,NA,NA,NA,NA,NA,NA,NA,NA,NA,explicit,NA,NA,NA,NA,NA,NA,NA,NA,NA,7
image-slider-response,355,1299517,0.0-329.0,voc_e2,12378,"[{""event"":""fullscreenenter"",""trial"":1,""time"":2237}]",NA,8594.90000000596,static/img/machines/machine4.png,NA,NA,NA,NA,NA,NA,NA,NA,NA,NA,NA,NA,NA,NA,NA,NA,explicit,NA,NA,NA,NA,NA,NA,NA,NA,NA,2
image-slider-response,356,1304167,0.0-330.0,voc_e2,12378,"[{""event"":""fullscreenenter"",""trial"":1,""time"":2237}]",NA,4646.79999999702,static/img/machines/machine3.png,NA,NA,NA,NA,NA,NA,NA,NA,NA,NA,NA,NA,NA,NA,NA,NA,explicit,NA,NA,NA,NA,NA,NA,NA,NA,NA,9
image-slider-response,357,1311917,0.0-331.0,voc_e2,12378,"[{""event"":""fullscreenenter"",""trial"":1,""time"":2237}]",NA,7746.5,static/img/machines/machine2.png,NA,NA,NA,NA,NA,NA,NA,NA,NA,NA,NA,NA,NA,NA,NA,NA,explicit,NA,NA,NA,NA,NA,NA,NA,NA,NA,3
image-slider-response,358,1317884,0.0-332.0,voc_e2,12378,"[{""event"":""fullscreenenter"",""trial"":1,""time"":2237}]",NA,5963.69999999553,static/img/machines/machine5.png,NA,NA,NA,NA,NA,NA,NA,NA,NA,NA,NA,NA,NA,NA,NA,NA,explicit,NA,NA,NA,NA,NA,NA,NA,NA,NA,1
image-slider-response,359,1321550,0.0-333.0,voc_e2,12378,"[{""event"":""fullscreenenter"",""trial"":1,""time"":2237}]",NA,3663.099999994039,static/img/machines/machine1.png,NA,NA,NA,NA,NA,NA,NA,NA,NA,NA,NA,NA,NA,NA,NA,NA,explicit,NA,NA,NA,NA,NA,NA,NA,NA,NA,8
