trial_type,trial_index,time_elapsed,internal_node_id,task_version,subject_id,interactions,success,rt,stimulus,key_press,button_pressed,offer,arcade_color_L,arcade_color_R,arcade_outcome_L,arcade_outcome_R,correct,stage_1_key,stage_1_choice,stage_1_rt,stage_2_key,stage_2_choice,stage_2_rt,stage_3_outcome,accuracy,phase,responses,num_errors,context,reward_prob_L,reward_prob_R,arcade_id_L,arcade_id_R,trial,block,response
pavlovia,0,10,0.0-0.0,voc_e2,11916,[],NA,NA,NA,NA,NA,NA,NA,NA,NA,NA,NA,NA,NA,NA,NA,NA,NA,NA,NA,NA,NA,NA,NA,NA,NA,NA,NA,NA,NA,NA
fullscreen,1,8546,0.0-1.0,voc_e2,11916,"[{""event"":""fullscreenenter"",""trial"":1,""time"":7576}]",TRUE,NA,NA,NA,NA,NA,NA,NA,NA,NA,NA,NA,NA,NA,NA,NA,NA,NA,NA,NA,NA,NA,NA,NA,NA,NA,NA,NA,NA,NA
audio-keyboard-response,2,14649,0.0-2.0,voc_e2,11916,"[{""event"":""fullscreenenter"",""trial"":1,""time"":7576}]",NA,4469,static/audio/beep_loop.wav,175,NA,NA,NA,NA,NA,NA,NA,NA,NA,NA,NA,NA,NA,NA,NA,NA,NA,NA,NA,NA,NA,NA,NA,NA,NA,NA
audio-test,3,17363,0.0-3.0,voc_e2,11916,"[{""event"":""fullscreenenter"",""trial"":1,""time"":7576}]",NA,NA,static/audio/turtle.wav,NA,3,NA,NA,NA,NA,NA,NA,NA,NA,NA,NA,NA,NA,NA,NA,NA,NA,NA,NA,NA,NA,NA,NA,NA,NA,NA
audio-test,4,19461,0.0-4.0,voc_e2,11916,"[{""event"":""fullscreenenter"",""trial"":1,""time"":7576}]",NA,NA,static/audio/shark.wav,NA,2,NA,NA,NA,NA,NA,NA,NA,NA,NA,NA,NA,NA,NA,NA,NA,NA,NA,NA,NA,NA,NA,NA,NA,NA,NA
audio-instructions,5,27727,0.0-5.0-0.0,voc_e2,11916,"[{""event"":""fullscreenenter"",""trial"":1,""time"":7576}]",NA,2476.699999988079,static/audio/instructions1.wav,NA,0,NA,NA,NA,NA,NA,NA,NA,NA,NA,NA,NA,NA,NA,NA,NA,NA,NA,NA,NA,NA,NA,NA,NA,NA,NA
audio-instructions,6,46833,0.0-5.0-1.0,voc_e2,11916,"[{""event"":""fullscreenenter"",""trial"":1,""time"":7576}]",NA,12362.099999964235,static/audio/instructions2.wav,NA,0,NA,NA,NA,NA,NA,NA,NA,NA,NA,NA,NA,NA,NA,NA,NA,NA,NA,NA,NA,NA,NA,NA,NA,NA,NA
audio-instructions,7,53274,0.0-5.0-2.0,voc_e2,11916,"[{""event"":""fullscreenenter"",""trial"":1,""time"":7576}]",NA,632.3000000119209,static/audio/instructions3.wav,NA,0,NA,NA,NA,NA,NA,NA,NA,NA,NA,NA,NA,NA,NA,NA,NA,NA,NA,NA,NA,NA,NA,NA,NA,NA,NA
audio-instructions,8,68109,0.0-5.0-3.0,voc_e2,11916,"[{""event"":""fullscreenenter"",""trial"":1,""time"":7576}]",NA,1607.600000023842,static/audio/instructions4.wav,NA,0,NA,NA,NA,NA,NA,NA,NA,NA,NA,NA,NA,NA,NA,NA,NA,NA,NA,NA,NA,NA,NA,NA,NA,NA,NA
audio-instructions,9,79481,0.0-5.0-4.0,voc_e2,11916,"[{""event"":""fullscreenenter"",""trial"":1,""time"":7576}]",NA,1981.399999976158,static/audio/instructions5.wav,NA,0,NA,NA,NA,NA,NA,NA,NA,NA,NA,NA,NA,NA,NA,NA,NA,NA,NA,NA,NA,NA,NA,NA,NA,NA,NA
fcp-practice,10,82124,0.0-5.0-5.0-0.0,voc_e2,11916,"[{""event"":""fullscreenenter"",""trial"":1,""time"":7576}]",NA,NA,NA,NA,NA,NA,#EDC948,#46d3c8,10,0,1,null,null,null,37,1,1109.2999999523165,10,1,practice,NA,NA,NA,NA,NA,NA,NA,NA,NA,NA
fcp-practice,11,84245,0.0-5.0-5.0-1.0,voc_e2,11916,"[{""event"":""fullscreenenter"",""trial"":1,""time"":7576}]",NA,NA,NA,NA,NA,NA,#EDC948,#46d3c8,10,0,1,null,null,null,37,1,614.6999999880791,10,1,practice,NA,NA,NA,NA,NA,NA,NA,NA,NA,NA
fcp-practice,12,86490,0.0-5.0-5.0-2.0,voc_e2,11916,"[{""event"":""fullscreenenter"",""trial"":1,""time"":7576}]",NA,NA,NA,NA,NA,NA,#EDC948,#46d3c8,0,10,1,null,null,null,37,1,735.6000000238419,0,1,practice,NA,NA,NA,NA,NA,NA,NA,NA,NA,NA
fcp-practice,13,88623,0.0-5.0-5.0-3.0,voc_e2,11916,"[{""event"":""fullscreenenter"",""trial"":1,""time"":7576}]",NA,NA,NA,NA,NA,NA,#EDC948,#46d3c8,10,0,1,null,null,null,37,1,608.8000000119209,10,1,practice,NA,NA,NA,NA,NA,NA,NA,NA,NA,NA
fcp-practice,14,90529,0.0-5.0-5.0-4.0,voc_e2,11916,"[{""event"":""fullscreenenter"",""trial"":1,""time"":7576}]",NA,NA,NA,NA,NA,NA,#EDC948,#46d3c8,10,0,1,null,null,null,37,1,395.7999999523163,10,1,practice,NA,NA,NA,NA,NA,NA,NA,NA,NA,NA
audio-instructions,15,109920,0.0-5.0-6.0,voc_e2,11916,"[{""event"":""fullscreenenter"",""trial"":1,""time"":7576}]",NA,1380.100000023842,static/audio/instructions6.wav,NA,0,NA,NA,NA,NA,NA,NA,NA,NA,NA,NA,NA,NA,NA,NA,NA,NA,NA,NA,NA,NA,NA,NA,NA,NA,NA
audio-instructions,16,134342,0.0-5.0-7.0,voc_e2,11916,"[{""event"":""fullscreenenter"",""trial"":1,""time"":7576}]",NA,5222.199999988079,static/audio/instructions7.wav,NA,0,NA,NA,NA,NA,NA,NA,NA,NA,NA,NA,NA,NA,NA,NA,NA,NA,NA,NA,NA,NA,NA,NA,NA,NA,NA
audio-instructions,17,147440,0.0-5.0-8.0,voc_e2,11916,"[{""event"":""fullscreenenter"",""trial"":1,""time"":7576}]",NA,3619.699999988079,static/audio/instructions8.wav,NA,0,NA,NA,NA,NA,NA,NA,NA,NA,NA,NA,NA,NA,NA,NA,NA,NA,NA,NA,NA,NA,NA,NA,NA,NA,NA
fcp-comprehension,18,160082,0.0-5.0-9.0,voc_e2,11916,"[{""event"":""fullscreenenter"",""trial"":1,""time"":7576}]",NA,12638.19999998808,NA,NA,NA,NA,NA,NA,NA,NA,NA,NA,NA,NA,NA,NA,NA,NA,NA,NA,"true,true",0,NA,NA,NA,NA,NA,NA,NA,NA
audio-instructions,19,167122,0.0-6.0-0.0,voc_e2,11916,"[{""event"":""fullscreenenter"",""trial"":1,""time"":7576}]",NA,1491.600000023842,static/audio/instructions9.wav,NA,0,NA,NA,NA,NA,NA,NA,NA,NA,NA,NA,NA,NA,NA,NA,NA,NA,NA,NA,NA,NA,NA,NA,NA,NA,NA
audio-instructions,20,180440,0.0-6.0-1.0,voc_e2,11916,"[{""event"":""fullscreenenter"",""trial"":1,""time"":7576}]",NA,1200.5999999642372,static/audio/instructions10.wav,NA,0,NA,NA,NA,NA,NA,NA,NA,NA,NA,NA,NA,NA,NA,NA,NA,NA,NA,NA,NA,NA,NA,NA,NA,NA,NA
fcp-trial,21,187272,0.0-6.0-2.0,voc_e2,11916,"[{""event"":""fullscreenenter"",""trial"":1,""time"":7576}]",NA,NA,NA,NA,NA,0,#EDC948,#46d3c8,10,10,1,38,1,2990.5,37,1,2280.600000023842,10,1,practice,NA,NA,NA,NA,NA,NA,NA,NA,NA,NA
audio-instructions,22,198910,0.0-6.0-3.0,voc_e2,11916,"[{""event"":""fullscreenenter"",""trial"":1,""time"":7576}]",NA,628.8000000119209,static/audio/instructions11.wav,NA,0,NA,NA,NA,NA,NA,NA,NA,NA,NA,NA,NA,NA,NA,NA,NA,NA,NA,NA,NA,NA,NA,NA,NA,NA,NA
fcp-trial,23,202914,0.0-6.0-4.0,voc_e2,11916,"[{""event"":""fullscreenenter"",""trial"":1,""time"":7576}]",NA,NA,NA,NA,NA,6,#EDC948,#46d3c8,10,10,1,40,0,1064.7999999523163,39,0,1418,10,0,practice,NA,NA,NA,NA,NA,NA,NA,NA,NA,NA
audio-instructions,24,223237,0.0-6.0-5.0,voc_e2,11916,"[{""event"":""fullscreenenter"",""trial"":1,""time"":7576}]",NA,1636.899999976158,static/audio/instructions12.wav,NA,0,NA,NA,NA,NA,NA,NA,NA,NA,NA,NA,NA,NA,NA,NA,NA,NA,NA,NA,NA,NA,NA,NA,NA,NA,NA
audio-instructions,25,233358,0.0-6.0-6.0,voc_e2,11916,"[{""event"":""fullscreenenter"",""trial"":1,""time"":7576}]",NA,2526.800000011921,static/audio/instructions13.wav,NA,0,NA,NA,NA,NA,NA,NA,NA,NA,NA,NA,NA,NA,NA,NA,NA,NA,NA,NA,NA,NA,NA,NA,NA,NA,NA
audio-instructions,26,242647,0.0-6.0-7.0,voc_e2,11916,"[{""event"":""fullscreenenter"",""trial"":1,""time"":7576}]",NA,836.3000000119209,static/audio/instructions14.wav,NA,0,NA,NA,NA,NA,NA,NA,NA,NA,NA,NA,NA,NA,NA,NA,NA,NA,NA,NA,NA,NA,NA,NA,NA,NA,NA
audio-instructions,27,250086,0.0-7.0-0.0,voc_e2,11916,"[{""event"":""fullscreenenter"",""trial"":1,""time"":7576}]",NA,525.6000000238419,static/audio/instructions15.wav,NA,0,NA,NA,NA,NA,NA,NA,NA,NA,NA,NA,NA,NA,NA,NA,NA,NA,NA,NA,NA,NA,NA,NA,NA,NA,NA
audio-instructions,28,258433,0.0-7.0-1.0,voc_e2,11916,"[{""event"":""fullscreenenter"",""trial"":1,""time"":7576}]",NA,1521.5999999642372,static/audio/instructions16.wav,NA,0,NA,NA,NA,NA,NA,NA,NA,NA,NA,NA,NA,NA,NA,NA,NA,NA,NA,NA,NA,NA,NA,NA,NA,NA,NA
audio-instructions,29,266668,0.0-7.0-2.0,voc_e2,11916,"[{""event"":""fullscreenenter"",""trial"":1,""time"":7576}]",NA,556.5999999642372,static/audio/instructions17.wav,NA,0,NA,NA,NA,NA,NA,NA,NA,NA,NA,NA,NA,NA,NA,NA,NA,NA,NA,NA,NA,NA,NA,NA,NA,NA,NA
audio-instructions,30,274869,0.0-7.0-3.0,voc_e2,11916,"[{""event"":""fullscreenenter"",""trial"":1,""time"":7576}]",NA,428.699999988079,static/audio/instructions18.wav,NA,0,NA,NA,NA,NA,NA,NA,NA,NA,NA,NA,NA,NA,NA,NA,NA,NA,NA,NA,NA,NA,NA,NA,NA,NA,NA
audio-instructions,31,285646,0.0-7.0-4.0,voc_e2,11916,"[{""event"":""fullscreenenter"",""trial"":1,""time"":7576}]",NA,4025.400000035763,static/audio/instructions19.wav,NA,0,NA,NA,NA,NA,NA,NA,NA,NA,NA,NA,NA,NA,NA,NA,NA,NA,NA,NA,NA,NA,NA,NA,NA,NA,NA
fcp-comprehension,32,304809,0.0-7.0-5.0,voc_e2,11916,"[{""event"":""fullscreenenter"",""trial"":1,""time"":7576}]",NA,19158.599999964237,NA,NA,NA,NA,NA,NA,NA,NA,NA,NA,NA,NA,NA,NA,NA,NA,NA,NA,"false,false,false,true",0,NA,NA,NA,NA,NA,NA,NA,NA
audio-instructions,33,319669,0.0-8.0,voc_e2,11916,"[{""event"":""fullscreenenter"",""trial"":1,""time"":7576}]",NA,5636.099999964237,static/audio/ready.wav,NA,0,NA,NA,NA,NA,NA,NA,NA,NA,NA,NA,NA,NA,NA,NA,NA,NA,NA,NA,NA,NA,NA,NA,NA,NA,NA
fcp-trial,34,323449,0.0-9.0-0.0,voc_e2,11916,"[{""event"":""fullscreenenter"",""trial"":1,""time"":7576}]",NA,NA,NA,NA,NA,6,#3386FF,#D89F1C,10,0,1,40,0,1334.0999999642372,37,1,916.5999999642372,10,1,experiment,NA,NA,2,0.5,0.5,4,5,1,1,NA
fcp-trial,35,327812,0.0-10.0-0.0,voc_e2,11916,"[{""event"":""fullscreenenter"",""trial"":1,""time"":7576}]",NA,NA,NA,NA,NA,1,#FA92F8,#1CD855,10,10,0,38,1,1478.300000011921,37,1,1366.5,10,0,experiment,NA,NA,1,0.3,0.7,3,2,2,1,NA
fcp-trial,36,331231,0.0-11.0-0.0,voc_e2,11916,"[{""event"":""fullscreenenter"",""trial"":1,""time"":7576}]",NA,NA,NA,NA,NA,6,#FA92F8,#1CD855,10,10,0,40,0,1051.199999988079,39,0,853.5,10,1,experiment,NA,NA,1,0.3,0.7,3,2,3,1,NA
fcp-trial,37,335614,0.0-12.0-0.0,voc_e2,11916,"[{""event"":""fullscreenenter"",""trial"":1,""time"":7576}]",NA,NA,NA,NA,NA,5,#3386FF,#D89F1C,10,10,1,40,0,2066.899999976158,39,0,796.8999999761581,10,0,experiment,NA,NA,2,0.5,0.5,4,5,4,1,NA
fcp-trial,38,338945,0.0-13.0-0.0,voc_e2,11916,"[{""event"":""fullscreenenter"",""trial"":1,""time"":7576}]",NA,NA,NA,NA,NA,1,#D8271C,#741CD8,0,10,0,38,1,1010.3999999761581,37,1,808.0999999642372,0,0,experiment,NA,NA,0,0.1,0.9,1,0,5,1,NA
fcp-trial,39,342953,0.0-14.0-0.0,voc_e2,11916,"[{""event"":""fullscreenenter"",""trial"":1,""time"":7576}]",NA,NA,NA,NA,NA,4,#741CD8,#D8271C,10,0,1,40,0,1782.699999988079,37,1,716,10,1,experiment,NA,NA,0,0.9,0.1,0,1,6,1,NA
fcp-trial,40,346801,0.0-15.0-0.0,voc_e2,11916,"[{""event"":""fullscreenenter"",""trial"":1,""time"":7576}]",NA,NA,NA,NA,NA,3,#1CD855,#FA92F8,10,0,1,38,1,1426.5,39,0,909.7999999523164,0,0,experiment,NA,NA,1,0.7,0.3,2,3,7,1,NA
fcp-trial,41,350184,0.0-16.0-0.0,voc_e2,11916,"[{""event"":""fullscreenenter"",""trial"":1,""time"":7576}]",NA,NA,NA,NA,NA,6,#741CD8,#D8271C,0,0,1,40,0,1277.5999999642372,37,1,595.8000000119209,0,1,experiment,NA,NA,0,0.9,0.1,0,1,8,1,NA
fcp-trial,42,354219,0.0-17.0-0.0,voc_e2,11916,"[{""event"":""fullscreenenter"",""trial"":1,""time"":7576}]",NA,NA,NA,NA,NA,3,#3386FF,#D89F1C,10,0,1,38,1,1459.1000000238419,37,1,1067.5,10,1,experiment,NA,NA,2,0.5,0.5,4,5,9,1,NA
fcp-trial,43,357790,0.0-18.0-0.0,voc_e2,11916,"[{""event"":""fullscreenenter"",""trial"":1,""time"":7576}]",NA,NA,NA,NA,NA,4,#1CD855,#FA92F8,10,0,1,38,1,1334,37,1,724.3000000119209,10,1,experiment,NA,NA,1,0.7,0.3,2,3,10,1,NA
fcp-trial,44,361412,0.0-19.0-0.0,voc_e2,11916,"[{""event"":""fullscreenenter"",""trial"":1,""time"":7576}]",NA,NA,NA,NA,NA,4,#3386FF,#D89F1C,10,10,1,40,0,1596.7000000476837,39,0,517.3000000119209,10,0,experiment,NA,NA,2,0.5,0.5,4,5,11,1,NA
fcp-trial,45,365254,0.0-20.0-0.0,voc_e2,11916,"[{""event"":""fullscreenenter"",""trial"":1,""time"":7576}]",NA,NA,NA,NA,NA,2,#741CD8,#D8271C,0,0,1,38,1,1281.0999999642372,37,1,1050.300000011921,0,1,experiment,NA,NA,0,0.9,0.1,0,1,12,1,NA
fcp-trial,46,368529,0.0-21.0-0.0,voc_e2,11916,"[{""event"":""fullscreenenter"",""trial"":1,""time"":7576}]",NA,NA,NA,NA,NA,2,#FA92F8,#1CD855,10,10,0,38,1,1008.7999999523163,39,0,757.8999999761581,10,1,experiment,NA,NA,1,0.3,0.7,3,2,13,1,NA
fcp-trial,47,371651,0.0-22.0-0.0,voc_e2,11916,"[{""event"":""fullscreenenter"",""trial"":1,""time"":7576}]",NA,NA,NA,NA,NA,1,#3386FF,#D89F1C,10,10,1,38,1,1004.6999999880791,39,0,604.6999999880791,10,0,experiment,NA,NA,2,0.5,0.5,4,5,14,1,NA
fcp-trial,48,374636,0.0-23.0-0.0,voc_e2,11916,"[{""event"":""fullscreenenter"",""trial"":1,""time"":7576}]",NA,NA,NA,NA,NA,0,#FA92F8,#1CD855,0,10,0,38,1,904.5999999642372,39,0,571.5,10,1,experiment,NA,NA,1,0.3,0.7,3,2,15,1,NA
fcp-trial,49,377634,0.0-24.0-0.0,voc_e2,11916,"[{""event"":""fullscreenenter"",""trial"":1,""time"":7576}]",NA,NA,NA,NA,NA,5,#741CD8,#D8271C,10,0,1,40,0,911.9000000357628,39,0,576.3000000119209,0,0,experiment,NA,NA,0,0.9,0.1,0,1,16,1,NA
fcp-trial,50,382168,0.0-25.0-0.0,voc_e2,11916,"[{""event"":""fullscreenenter"",""trial"":1,""time"":7576}]",NA,NA,NA,NA,NA,3,#D8271C,#741CD8,0,10,0,38,1,1647.199999988079,39,0,1379.100000023842,10,1,experiment,NA,NA,0,0.1,0.9,1,0,17,1,NA
fcp-trial,51,385881,0.0-26.0-0.0,voc_e2,11916,"[{""event"":""fullscreenenter"",""trial"":1,""time"":7576}]",NA,NA,NA,NA,NA,0,#3386FF,#D89F1C,0,10,1,38,1,1222.800000011921,39,0,977.100000023842,10,0,experiment,NA,NA,2,0.5,0.5,4,5,18,1,NA
fcp-trial,52,389447,0.0-27.0-0.0,voc_e2,11916,"[{""event"":""fullscreenenter"",""trial"":1,""time"":7576}]",NA,NA,NA,NA,NA,5,#FA92F8,#1CD855,0,0,0,38,1,1389,39,0,662.6999999880791,0,1,experiment,NA,NA,1,0.3,0.7,3,2,19,1,NA
fcp-trial,53,392212,0.0-28.0-0.0,voc_e2,11916,"[{""event"":""fullscreenenter"",""trial"":1,""time"":7576}]",NA,NA,NA,NA,NA,2,#3386FF,#D89F1C,0,10,1,38,1,731.5,37,1,523.0999999642372,0,1,experiment,NA,NA,2,0.5,0.5,4,5,20,1,NA
fcp-trial,54,395575,0.0-29.0-0.0,voc_e2,11916,"[{""event"":""fullscreenenter"",""trial"":1,""time"":7576}]",NA,NA,NA,NA,NA,0,#741CD8,#D8271C,10,0,1,38,1,867.8000000119209,39,0,985.8000000119208,0,0,experiment,NA,NA,0,0.9,0.1,0,1,21,1,NA
fcp-trial,55,398395,0.0-30.0-0.0,voc_e2,11916,"[{""event"":""fullscreenenter"",""trial"":1,""time"":7576}]",NA,NA,NA,NA,NA,5,#FA92F8,#1CD855,0,10,0,38,1,854.5,39,0,458.10000002384186,10,1,experiment,NA,NA,1,0.3,0.7,3,2,22,1,NA
fcp-trial,56,401161,0.0-31.0-0.0,voc_e2,11916,"[{""event"":""fullscreenenter"",""trial"":1,""time"":7576}]",NA,NA,NA,NA,NA,3,#D89F1C,#3386FF,10,10,0,38,1,574.7000000476837,39,0,673.6999999880791,10,1,experiment,NA,NA,2,0.5,0.5,5,4,23,1,NA
fcp-trial,57,403981,0.0-32.0-0.0,voc_e2,11916,"[{""event"":""fullscreenenter"",""trial"":1,""time"":7576}]",NA,NA,NA,NA,NA,0,#741CD8,#D8271C,10,0,1,38,1,570.1999999880791,37,1,739.8000000119209,10,1,experiment,NA,NA,0,0.9,0.1,0,1,24,1,NA
fcp-trial,58,406586,0.0-33.0-0.0,voc_e2,11916,"[{""event"":""fullscreenenter"",""trial"":1,""time"":7576}]",NA,NA,NA,NA,NA,6,#FA92F8,#1CD855,0,10,0,38,1,604.1000000238419,39,0,492.89999997615814,10,1,experiment,NA,NA,1,0.3,0.7,3,2,25,1,NA
fcp-trial,59,409980,0.0-34.0-0.0,voc_e2,11916,"[{""event"":""fullscreenenter"",""trial"":1,""time"":7576}]",NA,NA,NA,NA,NA,6,#D89F1C,#3386FF,0,10,0,40,0,895.3000000119209,37,1,990.3000000119208,0,0,experiment,NA,NA,2,0.5,0.5,5,4,26,1,NA
fcp-trial,60,413569,0.0-35.0-0.0,voc_e2,11916,"[{""event"":""fullscreenenter"",""trial"":1,""time"":7576}]",NA,NA,NA,NA,NA,1,#741CD8,#D8271C,10,0,1,38,1,898,37,1,1179.399999976158,10,1,experiment,NA,NA,0,0.9,0.1,0,1,27,1,NA
fcp-trial,61,416262,0.0-36.0-0.0,voc_e2,11916,"[{""event"":""fullscreenenter"",""trial"":1,""time"":7576}]",NA,NA,NA,NA,NA,3,#FA92F8,#1CD855,10,0,0,38,1,645.8000000119209,39,0,539.9000000357628,0,1,experiment,NA,NA,1,0.3,0.7,3,2,28,1,NA
fcp-trial,62,419730,0.0-37.0-0.0,voc_e2,11916,"[{""event"":""fullscreenenter"",""trial"":1,""time"":7576}]",NA,NA,NA,NA,NA,4,#741CD8,#D8271C,10,0,1,40,0,1259.800000011921,39,0,695.3000000119209,0,0,experiment,NA,NA,0,0.9,0.1,0,1,29,1,NA
fcp-trial,63,423804,0.0-38.0-0.0,voc_e2,11916,"[{""event"":""fullscreenenter"",""trial"":1,""time"":7576}]",NA,NA,NA,NA,NA,1,#D89F1C,#3386FF,10,0,0,38,1,1460.5,39,0,1102,0,1,experiment,NA,NA,2,0.5,0.5,5,4,30,1,NA
fcp-trial,64,427492,0.0-39.0-0.0,voc_e2,11916,"[{""event"":""fullscreenenter"",""trial"":1,""time"":7576}]",NA,NA,NA,NA,NA,0,#FA92F8,#1CD855,10,10,0,38,1,1296.5,39,0,884.1000000238419,10,1,experiment,NA,NA,1,0.3,0.7,3,2,31,1,NA
fcp-trial,65,431576,0.0-40.0-0.0,voc_e2,11916,"[{""event"":""fullscreenenter"",""trial"":1,""time"":7576}]",NA,NA,NA,NA,NA,4,#D89F1C,#3386FF,10,0,0,40,0,1700.5,39,0,875.6000000238419,0,1,experiment,NA,NA,2,0.5,0.5,5,4,32,1,NA
fcp-trial,66,435734,0.0-41.0-0.0,voc_e2,11916,"[{""event"":""fullscreenenter"",""trial"":1,""time"":7576}]",NA,NA,NA,NA,NA,4,#1CD855,#FA92F8,10,10,1,40,0,1860.3999999761581,37,1,783.5,10,1,experiment,NA,NA,1,0.7,0.3,2,3,33,1,NA
fcp-trial,67,439808,0.0-42.0-0.0,voc_e2,11916,"[{""event"":""fullscreenenter"",""trial"":1,""time"":7576}]",NA,NA,NA,NA,NA,3,#741CD8,#D8271C,10,0,1,38,1,1403.8999999761581,37,1,1162.199999988079,10,1,experiment,NA,NA,0,0.9,0.1,0,1,34,1,NA
fcp-trial,68,443631,0.0-43.0-0.0,voc_e2,11916,"[{""event"":""fullscreenenter"",""trial"":1,""time"":7576}]",NA,NA,NA,NA,NA,0,#3386FF,#D89F1C,10,10,1,38,1,1251.800000011921,39,0,1060.199999988079,10,0,experiment,NA,NA,2,0.5,0.5,4,5,35,1,NA
fcp-trial,69,447370,0.0-44.0-0.0,voc_e2,11916,"[{""event"":""fullscreenenter"",""trial"":1,""time"":7576}]",NA,NA,NA,NA,NA,2,#D8271C,#741CD8,0,0,0,38,1,1191.1000000238419,39,0,1040.699999988079,0,1,experiment,NA,NA,0,0.1,0.9,1,0,36,1,NA
fcp-trial,70,450668,0.0-45.0-0.0,voc_e2,11916,"[{""event"":""fullscreenenter"",""trial"":1,""time"":7576}]",NA,NA,NA,NA,NA,5,#D8271C,#741CD8,0,10,0,40,0,1099.199999988079,39,0,690.8999999761581,10,1,experiment,NA,NA,0,0.1,0.9,1,0,37,1,NA
fcp-trial,71,454659,0.0-46.0-0.0,voc_e2,11916,"[{""event"":""fullscreenenter"",""trial"":1,""time"":7576}]",NA,NA,NA,NA,NA,1,#1CD855,#FA92F8,0,0,1,38,1,1448.300000011921,37,1,1034.199999988079,0,1,experiment,NA,NA,1,0.7,0.3,2,3,38,1,NA
fcp-trial,72,457981,0.0-47.0-0.0,voc_e2,11916,"[{""event"":""fullscreenenter"",""trial"":1,""time"":7576}]",NA,NA,NA,NA,NA,6,#741CD8,#D8271C,10,0,1,40,0,1205.3999999761581,37,1,604.9000000357628,10,1,experiment,NA,NA,0,0.9,0.1,0,1,39,1,NA
fcp-trial,73,461072,0.0-48.0-0.0,voc_e2,11916,"[{""event"":""fullscreenenter"",""trial"":1,""time"":7576}]",NA,NA,NA,NA,NA,5,#3386FF,#D89F1C,10,10,1,40,0,1022.2000000476837,37,1,560.5,10,1,experiment,NA,NA,2,0.5,0.5,4,5,40,1,NA
fcp-trial,74,464553,0.0-49.0-0.0,voc_e2,11916,"[{""event"":""fullscreenenter"",""trial"":1,""time"":7576}]",NA,NA,NA,NA,NA,2,#FA92F8,#1CD855,0,10,0,38,1,989,37,1,984.0999999642372,0,0,experiment,NA,NA,1,0.3,0.7,3,2,41,1,NA
fcp-trial,75,469432,0.0-50.0-0.0,voc_e2,11916,"[{""event"":""fullscreenenter"",""trial"":1,""time"":7576}]",NA,NA,NA,NA,NA,2,#3386FF,#D89F1C,10,0,1,38,1,1903.300000011921,37,1,1462.300000011921,10,1,experiment,NA,NA,2,0.5,0.5,4,5,42,1,NA
fcp-trial,76,473102,0.0-51.0-0.0,voc_e2,11916,"[{""event"":""fullscreenenter"",""trial"":1,""time"":7576}]",NA,NA,NA,NA,NA,3,#FA92F8,#1CD855,10,0,0,38,1,1301.7000000476837,39,0,860.6000000238419,0,1,experiment,NA,NA,1,0.3,0.7,3,2,43,1,NA
fcp-trial,77,477164,0.0-52.0-0.0,voc_e2,11916,"[{""event"":""fullscreenenter"",""trial"":1,""time"":7576}]",NA,NA,NA,NA,NA,5,#D8271C,#741CD8,0,10,0,40,0,1079.7000000476837,39,0,1472.300000011921,10,1,experiment,NA,NA,0,0.1,0.9,1,0,44,1,NA
fcp-trial,78,480479,0.0-53.0-0.0,voc_e2,11916,"[{""event"":""fullscreenenter"",""trial"":1,""time"":7576}]",NA,NA,NA,NA,NA,1,#D89F1C,#3386FF,10,10,0,38,1,1286.9000000357628,37,1,517.8000000119209,10,0,experiment,NA,NA,2,0.5,0.5,5,4,45,1,NA
fcp-trial,79,484082,0.0-54.0-0.0,voc_e2,11916,"[{""event"":""fullscreenenter"",""trial"":1,""time"":7576}]",NA,NA,NA,NA,NA,1,#741CD8,#D8271C,10,0,1,38,1,1548.5999999642372,37,1,542.6000000238419,10,1,experiment,NA,NA,0,0.9,0.1,0,1,46,2,NA
fcp-trial,80,487328,0.0-55.0-0.0,voc_e2,11916,"[{""event"":""fullscreenenter"",""trial"":1,""time"":7576}]",NA,NA,NA,NA,NA,4,#D8271C,#741CD8,0,10,0,40,0,1138.800000011921,37,1,594,0,0,experiment,NA,NA,0,0.1,0.9,1,0,47,2,NA
fcp-trial,81,490977,0.0-56.0-0.0,voc_e2,11916,"[{""event"":""fullscreenenter"",""trial"":1,""time"":7576}]",NA,NA,NA,NA,NA,6,#1CD855,#FA92F8,10,0,1,40,0,1475.8999999761581,39,0,661.1000000238419,0,0,experiment,NA,NA,1,0.7,0.3,2,3,48,2,NA
fcp-trial,82,494599,0.0-57.0-0.0,voc_e2,11916,"[{""event"":""fullscreenenter"",""trial"":1,""time"":7576}]",NA,NA,NA,NA,NA,5,#3386FF,#D89F1C,0,10,1,40,0,1253.3999999761581,37,1,855.8000000119209,0,1,experiment,NA,NA,2,0.5,0.5,4,5,49,2,NA
fcp-trial,83,498056,0.0-58.0-0.0,voc_e2,11916,"[{""event"":""fullscreenenter"",""trial"":1,""time"":7576}]",NA,NA,NA,NA,NA,4,#3386FF,#D89F1C,0,10,1,40,0,1394.6000000238419,39,0,555.5,10,0,experiment,NA,NA,2,0.5,0.5,4,5,50,2,NA
fcp-trial,84,501238,0.0-59.0-0.0,voc_e2,11916,"[{""event"":""fullscreenenter"",""trial"":1,""time"":7576}]",NA,NA,NA,NA,NA,6,#D8271C,#741CD8,0,0,0,40,0,1116.5,39,0,555,0,1,experiment,NA,NA,0,0.1,0.9,1,0,51,2,NA
fcp-trial,85,504565,0.0-60.0-0.0,voc_e2,11916,"[{""event"":""fullscreenenter"",""trial"":1,""time"":7576}]",NA,NA,NA,NA,NA,6,#D89F1C,#3386FF,0,10,0,40,0,1181.699999988079,39,0,637.4000000357628,10,1,experiment,NA,NA,2,0.5,0.5,5,4,52,2,NA
fcp-trial,86,507732,0.0-61.0-0.0,voc_e2,11916,"[{""event"":""fullscreenenter"",""trial"":1,""time"":7576}]",NA,NA,NA,NA,NA,0,#FA92F8,#1CD855,0,10,0,38,1,1020.0999999642372,39,0,637.3000000119209,10,1,experiment,NA,NA,1,0.3,0.7,3,2,53,2,NA
fcp-trial,87,510944,0.0-62.0-0.0,voc_e2,11916,"[{""event"":""fullscreenenter"",""trial"":1,""time"":7576}]",NA,NA,NA,NA,NA,2,#D89F1C,#3386FF,10,0,0,38,1,955.2999999523163,39,0,749.3999999761581,0,1,experiment,NA,NA,2,0.5,0.5,5,4,54,2,NA
fcp-trial,88,513798,0.0-63.0-0.0,voc_e2,11916,"[{""event"":""fullscreenenter"",""trial"":1,""time"":7576}]",NA,NA,NA,NA,NA,2,#741CD8,#D8271C,10,0,1,38,1,953.1000000238419,37,1,388.300000011921,10,1,experiment,NA,NA,0,0.9,0.1,0,1,55,2,NA
fcp-trial,89,516849,0.0-64.0-0.0,voc_e2,11916,"[{""event"":""fullscreenenter"",""trial"":1,""time"":7576}]",NA,NA,NA,NA,NA,4,#FA92F8,#1CD855,0,0,0,38,1,849.8999999761581,39,0,693.6999999880791,0,1,experiment,NA,NA,1,0.3,0.7,3,2,56,2,NA
fcp-trial,90,520917,0.0-65.0-0.0,voc_e2,11916,"[{""event"":""fullscreenenter"",""trial"":1,""time"":7576}]",NA,NA,NA,NA,NA,0,#D89F1C,#3386FF,0,0,0,38,1,1312.5999999642372,37,1,1248.100000023842,0,0,experiment,NA,NA,2,0.5,0.5,5,4,57,2,NA
fcp-trial,91,523916,0.0-66.0-0.0,voc_e2,11916,"[{""event"":""fullscreenenter"",""trial"":1,""time"":7576}]",NA,NA,NA,NA,NA,0,#741CD8,#D8271C,10,0,1,38,1,1063.199999988079,37,1,428.5999999642372,10,1,experiment,NA,NA,0,0.9,0.1,0,1,58,2,NA
fcp-trial,92,527426,0.0-67.0-0.0,voc_e2,11916,"[{""event"":""fullscreenenter"",""trial"":1,""time"":7576}]",NA,NA,NA,NA,NA,2,#1CD855,#FA92F8,10,10,1,38,1,1414.9000000357628,39,0,588.6999999880791,10,0,experiment,NA,NA,1,0.7,0.3,2,3,59,2,NA
fcp-trial,93,532007,0.0-68.0-0.0,voc_e2,11916,"[{""event"":""fullscreenenter"",""trial"":1,""time"":7576}]",NA,NA,NA,NA,NA,3,#D8271C,#741CD8,0,0,0,38,1,1815.0999999642372,37,1,1253.399999976158,0,0,experiment,NA,NA,0,0.1,0.9,1,0,60,2,NA
fcp-trial,94,535352,0.0-69.0-0.0,voc_e2,11916,"[{""event"":""fullscreenenter"",""trial"":1,""time"":7576}]",NA,NA,NA,NA,NA,1,#FA92F8,#1CD855,0,10,0,38,1,1200.7000000476837,39,0,633.8999999761581,10,1,experiment,NA,NA,1,0.3,0.7,3,2,61,2,NA
fcp-trial,95,538715,0.0-70.0-0.0,voc_e2,11916,"[{""event"":""fullscreenenter"",""trial"":1,""time"":7576}]",NA,NA,NA,NA,NA,3,#D89F1C,#3386FF,10,10,0,38,1,1071.1000000238419,39,0,783.8999999761581,10,1,experiment,NA,NA,2,0.5,0.5,5,4,62,2,NA
fcp-trial,96,541692,0.0-71.0-0.0,voc_e2,11916,"[{""event"":""fullscreenenter"",""trial"":1,""time"":7576}]",NA,NA,NA,NA,NA,5,#1CD855,#FA92F8,10,0,1,40,0,964,39,0,506.60000002384186,0,0,experiment,NA,NA,1,0.7,0.3,2,3,63,2,NA
fcp-trial,97,544664,0.0-72.0-0.0,voc_e2,11916,"[{""event"":""fullscreenenter"",""trial"":1,""time"":7576}]",NA,NA,NA,NA,NA,2,#FA92F8,#1CD855,0,10,0,38,1,997.1999999880791,39,0,464.300000011921,10,1,experiment,NA,NA,1,0.3,0.7,3,2,64,2,NA
fcp-trial,98,547621,0.0-73.0-0.0,voc_e2,11916,"[{""event"":""fullscreenenter"",""trial"":1,""time"":7576}]",NA,NA,NA,NA,NA,3,#FA92F8,#1CD855,0,10,0,38,1,880.8999999761581,39,0,568.5,10,1,experiment,NA,NA,1,0.3,0.7,3,2,65,2,NA
fcp-trial,99,550722,0.0-74.0-0.0,voc_e2,11916,"[{""event"":""fullscreenenter"",""trial"":1,""time"":7576}]",NA,NA,NA,NA,NA,6,#D89F1C,#3386FF,10,10,0,40,0,1125.8999999761581,37,1,463.5,10,0,experiment,NA,NA,2,0.5,0.5,5,4,66,2,NA
fcp-trial,100,553932,0.0-75.0-0.0,voc_e2,11916,"[{""event"":""fullscreenenter"",""trial"":1,""time"":7576}]",NA,NA,NA,NA,NA,5,#741CD8,#D8271C,10,0,1,40,0,1167.300000011921,39,0,534.7999999523163,0,0,experiment,NA,NA,0,0.9,0.1,0,1,67,2,NA
fcp-trial,101,557714,0.0-76.0-0.0,voc_e2,11916,"[{""event"":""fullscreenenter"",""trial"":1,""time"":7576}]",NA,NA,NA,NA,NA,3,#D8271C,#741CD8,0,0,0,38,1,895.2000000476837,37,1,1380.399999976158,0,0,experiment,NA,NA,0,0.1,0.9,1,0,68,2,NA
fcp-trial,102,560812,0.0-77.0-0.0,voc_e2,11916,"[{""event"":""fullscreenenter"",""trial"":1,""time"":7576}]",NA,NA,NA,NA,NA,1,#D89F1C,#3386FF,10,10,0,38,1,1145.300000011921,39,0,444.800000011921,10,1,experiment,NA,NA,2,0.5,0.5,5,4,69,2,NA
fcp-trial,103,564919,0.0-78.0-0.0,voc_e2,11916,"[{""event"":""fullscreenenter"",""trial"":1,""time"":7576}]",NA,NA,NA,NA,NA,5,#FA92F8,#1CD855,0,10,0,40,0,1708.5,39,0,891.5,10,1,experiment,NA,NA,1,0.3,0.7,3,2,70,2,NA
fcp-trial,104,568929,0.0-79.0-0.0,voc_e2,11916,"[{""event"":""fullscreenenter"",""trial"":1,""time"":7576}]",NA,NA,NA,NA,NA,0,#741CD8,#D8271C,0,0,1,38,1,952.6999999880791,37,1,1546.100000023842,0,1,experiment,NA,NA,0,0.9,0.1,0,1,71,2,NA
fcp-trial,105,572711,0.0-80.0-0.0,voc_e2,11916,"[{""event"":""fullscreenenter"",""trial"":1,""time"":7576}]",NA,NA,NA,NA,NA,3,#D89F1C,#3386FF,10,10,0,38,1,1135.800000011921,39,0,1139.9000000357628,10,1,experiment,NA,NA,2,0.5,0.5,5,4,72,2,NA
fcp-trial,106,575738,0.0-81.0-0.0,voc_e2,11916,"[{""event"":""fullscreenenter"",""trial"":1,""time"":7576}]",NA,NA,NA,NA,NA,4,#741CD8,#D8271C,10,0,1,40,0,981.9000000357628,39,0,536.1999999880791,0,0,experiment,NA,NA,0,0.9,0.1,0,1,73,2,NA
fcp-trial,107,579476,0.0-82.0-0.0,voc_e2,11916,"[{""event"":""fullscreenenter"",""trial"":1,""time"":7576}]",NA,NA,NA,NA,NA,4,#FA92F8,#1CD855,0,0,0,40,0,1680.0999999642372,39,0,545.3999999761581,0,1,experiment,NA,NA,1,0.3,0.7,3,2,74,2,NA
fcp-trial,108,583170,0.0-83.0-0.0,voc_e2,11916,"[{""event"":""fullscreenenter"",""trial"":1,""time"":7576}]",NA,NA,NA,NA,NA,5,#3386FF,#D89F1C,0,10,1,40,0,1090.300000011921,39,0,1089.800000011921,10,0,experiment,NA,NA,2,0.5,0.5,4,5,75,2,NA
fcp-trial,109,586695,0.0-84.0-0.0,voc_e2,11916,"[{""event"":""fullscreenenter"",""trial"":1,""time"":7576}]",NA,NA,NA,NA,NA,2,#3386FF,#D89F1C,10,0,1,38,1,1098.3999999761581,37,1,916.0999999642372,10,1,experiment,NA,NA,2,0.5,0.5,4,5,76,2,NA
fcp-trial,110,589650,0.0-85.0-0.0,voc_e2,11916,"[{""event"":""fullscreenenter"",""trial"":1,""time"":7576}]",NA,NA,NA,NA,NA,6,#FA92F8,#1CD855,0,10,0,40,0,926.0999999642372,39,0,520.5,10,1,experiment,NA,NA,1,0.3,0.7,3,2,77,2,NA
fcp-trial,111,593148,0.0-86.0-0.0,voc_e2,11916,"[{""event"":""fullscreenenter"",""trial"":1,""time"":7576}]",NA,NA,NA,NA,NA,1,#741CD8,#D8271C,10,0,1,38,1,877.5999999642372,37,1,1113.0999999642372,10,1,experiment,NA,NA,0,0.9,0.1,0,1,78,2,NA
fcp-trial,112,596278,0.0-87.0-0.0,voc_e2,11916,"[{""event"":""fullscreenenter"",""trial"":1,""time"":7576}]",NA,NA,NA,NA,NA,6,#D8271C,#741CD8,0,10,0,40,0,1086.199999988079,39,0,534.0999999642372,10,1,experiment,NA,NA,0,0.1,0.9,1,0,79,2,NA
fcp-trial,113,599295,0.0-88.0-0.0,voc_e2,11916,"[{""event"":""fullscreenenter"",""trial"":1,""time"":7576}]",NA,NA,NA,NA,NA,0,#D89F1C,#3386FF,0,10,0,38,1,884.1999999880791,39,0,624.2000000476837,10,1,experiment,NA,NA,2,0.5,0.5,5,4,80,2,NA
fcp-trial,114,602700,0.0-89.0-0.0,voc_e2,11916,"[{""event"":""fullscreenenter"",""trial"":1,""time"":7576}]",NA,NA,NA,NA,NA,1,#1CD855,#FA92F8,10,0,1,38,1,701.5,37,1,1196,10,1,experiment,NA,NA,1,0.7,0.3,2,3,81,2,NA
fcp-trial,115,605783,0.0-90.0-0.0,voc_e2,11916,"[{""event"":""fullscreenenter"",""trial"":1,""time"":7576}]",NA,NA,NA,NA,NA,4,#D89F1C,#3386FF,10,10,0,40,0,1027.5,37,1,548.3999999761581,10,0,experiment,NA,NA,2,0.5,0.5,5,4,82,2,NA
fcp-trial,116,609520,0.0-91.0-0.0,voc_e2,11916,"[{""event"":""fullscreenenter"",""trial"":1,""time"":7576}]",NA,NA,NA,NA,NA,2,#D8271C,#741CD8,0,10,0,38,1,958.1999999880791,39,0,1271.5999999642372,10,1,experiment,NA,NA,0,0.1,0.9,1,0,83,2,NA
fcp-trial,117,612367,0.0-92.0-0.0,voc_e2,11916,"[{""event"":""fullscreenenter"",""trial"":1,""time"":7576}]",NA,NA,NA,NA,NA,0,#FA92F8,#1CD855,0,10,0,38,1,913.0999999642372,39,0,424.7000000476837,10,1,experiment,NA,NA,1,0.3,0.7,3,2,84,2,NA
fcp-trial,118,615377,0.0-93.0-0.0,voc_e2,11916,"[{""event"":""fullscreenenter"",""trial"":1,""time"":7576}]",NA,NA,NA,NA,NA,5,#3386FF,#D89F1C,0,0,1,40,0,989.3000000119209,37,1,512.8000000119209,0,1,experiment,NA,NA,2,0.5,0.5,4,5,85,2,NA
fcp-trial,119,618535,0.0-94.0-0.0,voc_e2,11916,"[{""event"":""fullscreenenter"",""trial"":1,""time"":7576}]",NA,NA,NA,NA,NA,3,#741CD8,#D8271C,10,10,1,38,1,1127.0999999642372,37,1,519.8000000119209,10,1,experiment,NA,NA,0,0.9,0.1,0,1,86,2,NA
fcp-trial,120,621506,0.0-95.0-0.0,voc_e2,11916,"[{""event"":""fullscreenenter"",""trial"":1,""time"":7576}]",NA,NA,NA,NA,NA,5,#741CD8,#D8271C,10,0,1,38,1,712.8000000119209,37,1,749.5,10,1,experiment,NA,NA,0,0.9,0.1,0,1,87,2,NA
fcp-trial,121,624498,0.0-96.0-0.0,voc_e2,11916,"[{""event"":""fullscreenenter"",""trial"":1,""time"":7576}]",NA,NA,NA,NA,NA,6,#1CD855,#FA92F8,10,0,1,40,0,1087.699999988079,39,0,392.699999988079,0,0,experiment,NA,NA,1,0.7,0.3,2,3,88,2,NA
fcp-trial,122,627574,0.0-97.0-0.0,voc_e2,11916,"[{""event"":""fullscreenenter"",""trial"":1,""time"":7576}]",NA,NA,NA,NA,NA,2,#FA92F8,#1CD855,0,10,0,38,1,1177,39,0,391.699999988079,10,1,experiment,NA,NA,1,0.3,0.7,3,2,89,2,NA
fcp-trial,123,630591,0.0-98.0-0.0,voc_e2,11916,"[{""event"":""fullscreenenter"",""trial"":1,""time"":7576}]",NA,NA,NA,NA,NA,6,#3386FF,#D89F1C,10,10,1,40,0,1041.199999988079,37,1,465.10000002384186,10,1,experiment,NA,NA,2,0.5,0.5,4,5,90,2,NA
fcp-trial,124,634074,0.0-99.0-0.0,voc_e2,11916,"[{""event"":""fullscreenenter"",""trial"":1,""time"":7576}]",NA,NA,NA,NA,NA,3,#FA92F8,#1CD855,0,0,0,38,1,1027.1000000238419,39,0,944.6999999880792,0,1,experiment,NA,NA,1,0.3,0.7,3,2,91,3,NA
fcp-trial,125,637219,0.0-100.0-0.0,voc_e2,11916,"[{""event"":""fullscreenenter"",""trial"":1,""time"":7576}]",NA,NA,NA,NA,NA,6,#741CD8,#D8271C,10,0,1,40,0,1156.5999999642372,39,0,478.800000011921,0,0,experiment,NA,NA,0,0.9,0.1,0,1,92,3,NA
fcp-trial,126,640375,0.0-101.0-0.0,voc_e2,11916,"[{""event"":""fullscreenenter"",""trial"":1,""time"":7576}]",NA,NA,NA,NA,NA,1,#D89F1C,#3386FF,0,10,0,38,1,1172.7000000476837,39,0,474.4000000357628,10,1,experiment,NA,NA,2,0.5,0.5,5,4,93,3,NA
fcp-trial,127,643887,0.0-102.0-0.0,voc_e2,11916,"[{""event"":""fullscreenenter"",""trial"":1,""time"":7576}]",NA,NA,NA,NA,NA,2,#741CD8,#D8271C,10,0,1,38,1,1148.5,37,1,853.6000000238419,10,1,experiment,NA,NA,0,0.9,0.1,0,1,94,3,NA
fcp-trial,128,647069,0.0-103.0-0.0,voc_e2,11916,"[{""event"":""fullscreenenter"",""trial"":1,""time"":7576}]",NA,NA,NA,NA,NA,4,#1CD855,#FA92F8,10,10,1,40,0,1075.199999988079,37,1,596.5999999642372,10,1,experiment,NA,NA,1,0.7,0.3,2,3,95,3,NA
fcp-trial,129,650669,0.0-104.0-0.0,voc_e2,11916,"[{""event"":""fullscreenenter"",""trial"":1,""time"":7576}]",NA,NA,NA,NA,NA,4,#3386FF,#D89F1C,10,0,1,38,1,1249.9000000357628,37,1,840.8000000119209,10,1,experiment,NA,NA,2,0.5,0.5,4,5,96,3,NA
fcp-trial,130,653921,0.0-105.0-0.0,voc_e2,11916,"[{""event"":""fullscreenenter"",""trial"":1,""time"":7576}]",NA,NA,NA,NA,NA,1,#FA92F8,#1CD855,10,10,0,38,1,1359,39,0,384.800000011921,10,1,experiment,NA,NA,1,0.3,0.7,3,2,97,3,NA
fcp-trial,131,657290,0.0-106.0-0.0,voc_e2,11916,"[{""event"":""fullscreenenter"",""trial"":1,""time"":7576}]",NA,NA,NA,NA,NA,4,#741CD8,#D8271C,10,0,1,40,0,1329.699999988079,39,0,525.8999999761581,0,0,experiment,NA,NA,0,0.9,0.1,0,1,98,3,NA
fcp-trial,132,660211,0.0-107.0-0.0,voc_e2,11916,"[{""event"":""fullscreenenter"",""trial"":1,""time"":7576}]",NA,NA,NA,NA,NA,2,#3386FF,#D89F1C,0,10,1,38,1,881.8999999761581,37,1,529.6000000238419,0,1,experiment,NA,NA,2,0.5,0.5,4,5,99,3,NA
fcp-trial,133,663545,0.0-108.0-0.0,voc_e2,11916,"[{""event"":""fullscreenenter"",""trial"":1,""time"":7576}]",NA,NA,NA,NA,NA,5,#1CD855,#FA92F8,10,0,1,40,0,1263,37,1,564.9000000357628,10,1,experiment,NA,NA,1,0.7,0.3,2,3,100,3,NA
fcp-trial,134,666899,0.0-109.0-0.0,voc_e2,11916,"[{""event"":""fullscreenenter"",""trial"":1,""time"":7576}]",NA,NA,NA,NA,NA,0,#FA92F8,#1CD855,10,0,0,38,1,1245.699999988079,39,0,601.4000000357628,0,1,experiment,NA,NA,1,0.3,0.7,3,2,101,3,NA
fcp-trial,135,670026,0.0-110.0-0.0,voc_e2,11916,"[{""event"":""fullscreenenter"",""trial"":1,""time"":7576}]",NA,NA,NA,NA,NA,3,#D89F1C,#3386FF,10,10,0,38,1,1005.3000000119209,39,0,611.1999999880791,10,1,experiment,NA,NA,2,0.5,0.5,5,4,102,3,NA
fcp-trial,136,673391,0.0-111.0-0.0,voc_e2,11916,"[{""event"":""fullscreenenter"",""trial"":1,""time"":7576}]",NA,NA,NA,NA,NA,0,#741CD8,#D8271C,10,0,1,38,1,1344.7999999523163,37,1,512.1000000238419,10,1,experiment,NA,NA,0,0.9,0.1,0,1,103,3,NA
fcp-trial,137,676353,0.0-112.0-0.0,voc_e2,11916,"[{""event"":""fullscreenenter"",""trial"":1,""time"":7576}]",NA,NA,NA,NA,NA,0,#D89F1C,#3386FF,0,0,0,38,1,947.8999999761581,39,0,506.699999988079,0,1,experiment,NA,NA,2,0.5,0.5,5,4,104,3,NA
fcp-trial,138,679401,0.0-113.0-0.0,voc_e2,11916,"[{""event"":""fullscreenenter"",""trial"":1,""time"":7576}]",NA,NA,NA,NA,NA,1,#D8271C,#741CD8,0,0,0,38,1,1109.300000011921,39,0,430.60000002384186,0,1,experiment,NA,NA,0,0.1,0.9,1,0,105,3,NA
audio-instructions,139,699184,0.0-114.0,voc_e2,11916,"[{""event"":""fullscreenenter"",""trial"":1,""time"":7576}]",NA,13865.600000023842,static/audio/pause.wav,NA,0,NA,NA,NA,NA,NA,NA,NA,NA,NA,NA,NA,NA,NA,NA,NA,NA,NA,NA,NA,NA,NA,NA,NA,NA,NA
fcp-trial,140,702538,0.0-115.0-0.0,voc_e2,11916,"[{""event"":""fullscreenenter"",""trial"":1,""time"":7576}]",NA,NA,NA,NA,NA,4,#D8271C,#741CD8,10,10,0,40,0,1109,39,0,717.6999999880791,10,1,experiment,NA,NA,0,0.1,0.9,1,0,106,3,NA
fcp-trial,141,706316,0.0-116.0-0.0,voc_e2,11916,"[{""event"":""fullscreenenter"",""trial"":1,""time"":7576}]",NA,NA,NA,NA,NA,5,#3386FF,#D89F1C,0,10,1,40,0,1529.6000000238419,37,1,735.5,0,1,experiment,NA,NA,2,0.5,0.5,4,5,107,3,NA
fcp-trial,142,709357,0.0-117.0-0.0,voc_e2,11916,"[{""event"":""fullscreenenter"",""trial"":1,""time"":7576}]",NA,NA,NA,NA,NA,5,#741CD8,#D8271C,10,0,1,40,0,1039.5,37,1,485.5,10,1,experiment,NA,NA,0,0.9,0.1,0,1,108,3,NA
fcp-trial,143,714325,0.0-118.0-0.0,voc_e2,11916,"[{""event"":""fullscreenenter"",""trial"":1,""time"":7576}]",NA,NA,NA,NA,NA,6,#3386FF,#D89F1C,0,10,1,40,0,1005.6999999880791,39,0,2449.699999988079,10,0,experiment,NA,NA,2,0.5,0.5,4,5,109,3,NA
fcp-trial,144,717134,0.0-119.0-0.0,voc_e2,11916,"[{""event"":""fullscreenenter"",""trial"":1,""time"":7576}]",NA,NA,NA,NA,NA,5,#FA92F8,#1CD855,10,10,0,40,0,829.0999999642372,39,0,472,10,1,experiment,NA,NA,1,0.3,0.7,3,2,110,3,NA
fcp-trial,145,720261,0.0-120.0-0.0,voc_e2,11916,"[{""event"":""fullscreenenter"",""trial"":1,""time"":7576}]",NA,NA,NA,NA,NA,1,#3386FF,#D89F1C,0,10,1,38,1,771.6000000238419,37,1,846.4000000357628,0,1,experiment,NA,NA,2,0.5,0.5,4,5,111,3,NA
fcp-trial,146,724342,0.0-121.0-0.0,voc_e2,11916,"[{""event"":""fullscreenenter"",""trial"":1,""time"":7576}]",NA,NA,NA,NA,NA,1,#741CD8,#D8271C,10,0,1,38,1,1267.1000000238419,37,1,1304.9000000357628,10,1,experiment,NA,NA,0,0.9,0.1,0,1,112,3,NA
fcp-trial,147,727144,0.0-122.0-0.0,voc_e2,11916,"[{""event"":""fullscreenenter"",""trial"":1,""time"":7576}]",NA,NA,NA,NA,NA,3,#741CD8,#D8271C,10,0,1,38,1,748.3000000119209,37,1,548,10,1,experiment,NA,NA,0,0.9,0.1,0,1,113,3,NA
fcp-trial,148,730076,0.0-123.0-0.0,voc_e2,11916,"[{""event"":""fullscreenenter"",""trial"":1,""time"":7576}]",NA,NA,NA,NA,NA,1,#FA92F8,#1CD855,0,10,0,38,1,998.3999999761581,39,0,426.60000002384186,10,1,experiment,NA,NA,1,0.3,0.7,3,2,114,3,NA
fcp-trial,149,733044,0.0-124.0-0.0,voc_e2,11916,"[{""event"":""fullscreenenter"",""trial"":1,""time"":7576}]",NA,NA,NA,NA,NA,4,#3386FF,#D89F1C,10,0,1,40,0,1008,37,1,451.7000000476837,10,1,experiment,NA,NA,2,0.5,0.5,4,5,115,3,NA
fcp-trial,150,736148,0.0-125.0-0.0,voc_e2,11916,"[{""event"":""fullscreenenter"",""trial"":1,""time"":7576}]",NA,NA,NA,NA,NA,2,#3386FF,#D89F1C,0,0,1,38,1,968.1000000238419,37,1,628.3000000119209,0,1,experiment,NA,NA,2,0.5,0.5,4,5,116,3,NA
fcp-trial,151,739563,0.0-126.0-0.0,voc_e2,11916,"[{""event"":""fullscreenenter"",""trial"":1,""time"":7576}]",NA,NA,NA,NA,NA,4,#FA92F8,#1CD855,10,10,0,40,0,1443.699999988079,39,0,463.199999988079,10,1,experiment,NA,NA,1,0.3,0.7,3,2,117,3,NA
fcp-trial,152,742807,0.0-127.0-0.0,voc_e2,11916,"[{""event"":""fullscreenenter"",""trial"":1,""time"":7576}]",NA,NA,NA,NA,NA,2,#741CD8,#D8271C,10,0,1,38,1,817.9000000357628,37,1,917.5,10,1,experiment,NA,NA,0,0.9,0.1,0,1,118,3,NA
fcp-trial,153,745811,0.0-128.0-0.0,voc_e2,11916,"[{""event"":""fullscreenenter"",""trial"":1,""time"":7576}]",NA,NA,NA,NA,NA,6,#FA92F8,#1CD855,10,10,0,40,0,988.6000000238419,37,1,506.5,10,0,experiment,NA,NA,1,0.3,0.7,3,2,119,3,NA
fcp-trial,154,749075,0.0-129.0-0.0,voc_e2,11916,"[{""event"":""fullscreenenter"",""trial"":1,""time"":7576}]",NA,NA,NA,NA,NA,0,#D89F1C,#3386FF,0,0,0,38,1,877.3000000119209,39,0,881.3999999761581,0,1,experiment,NA,NA,2,0.5,0.5,5,4,120,3,NA
fcp-trial,155,752544,0.0-130.0-0.0,voc_e2,11916,"[{""event"":""fullscreenenter"",""trial"":1,""time"":7576}]",NA,NA,NA,NA,NA,2,#1CD855,#FA92F8,10,0,1,38,1,900.5,37,1,1063.100000023842,10,1,experiment,NA,NA,1,0.7,0.3,2,3,121,3,NA
fcp-trial,156,755242,0.0-131.0-0.0,voc_e2,11916,"[{""event"":""fullscreenenter"",""trial"":1,""time"":7576}]",NA,NA,NA,NA,NA,3,#3386FF,#D89F1C,10,0,1,38,1,880.3000000119209,37,1,308,10,1,experiment,NA,NA,2,0.5,0.5,4,5,122,3,NA
fcp-trial,157,759336,0.0-132.0-0.0,voc_e2,11916,"[{""event"":""fullscreenenter"",""trial"":1,""time"":7576}]",NA,NA,NA,NA,NA,0,#D8271C,#741CD8,0,10,0,38,1,795.3000000119209,39,0,1790.0999999642372,10,1,experiment,NA,NA,0,0.1,0.9,1,0,123,3,NA
fcp-trial,158,762700,0.0-133.0-0.0,voc_e2,11916,"[{""event"":""fullscreenenter"",""trial"":1,""time"":7576}]",NA,NA,NA,NA,NA,6,#D8271C,#741CD8,0,10,0,40,0,950.8000000119209,37,1,903.1999999880792,0,0,experiment,NA,NA,0,0.1,0.9,1,0,124,3,NA
fcp-trial,159,766652,0.0-134.0-0.0,voc_e2,11916,"[{""event"":""fullscreenenter"",""trial"":1,""time"":7576}]",NA,NA,NA,NA,NA,0,#1CD855,#FA92F8,0,0,1,38,1,1636.4000000357628,37,1,802.9000000357628,0,1,experiment,NA,NA,1,0.7,0.3,2,3,125,3,NA
fcp-trial,160,769560,0.0-135.0-0.0,voc_e2,11916,"[{""event"":""fullscreenenter"",""trial"":1,""time"":7576}]",NA,NA,NA,NA,NA,3,#FA92F8,#1CD855,10,10,0,38,1,988.5999999642372,39,0,407.5999999642372,10,1,experiment,NA,NA,1,0.3,0.7,3,2,126,3,NA
fcp-trial,161,773081,0.0-136.0-0.0,voc_e2,11916,"[{""event"":""fullscreenenter"",""trial"":1,""time"":7576}]",NA,NA,NA,NA,NA,4,#D89F1C,#3386FF,0,10,0,40,0,1202.1000000238419,37,1,813.5999999642372,0,0,experiment,NA,NA,2,0.5,0.5,5,4,127,3,NA
fcp-trial,162,776620,0.0-137.0-0.0,voc_e2,11916,"[{""event"":""fullscreenenter"",""trial"":1,""time"":7576}]",NA,NA,NA,NA,NA,3,#1CD855,#FA92F8,10,10,1,38,1,1073.199999988079,37,1,956.600000023842,10,1,experiment,NA,NA,1,0.7,0.3,2,3,128,3,NA
fcp-trial,163,779797,0.0-138.0-0.0,voc_e2,11916,"[{""event"":""fullscreenenter"",""trial"":1,""time"":7576}]",NA,NA,NA,NA,NA,0,#741CD8,#D8271C,10,10,1,38,1,728,37,1,939.2999999523164,10,1,experiment,NA,NA,0,0.9,0.1,0,1,129,3,NA
fcp-trial,164,782581,0.0-139.0-0.0,voc_e2,11916,"[{""event"":""fullscreenenter"",""trial"":1,""time"":7576}]",NA,NA,NA,NA,NA,2,#3386FF,#D89F1C,0,0,1,38,1,785.1999999880791,37,1,488.10000002384186,0,1,experiment,NA,NA,2,0.5,0.5,4,5,130,3,NA
fcp-trial,165,785279,0.0-140.0-0.0,voc_e2,11916,"[{""event"":""fullscreenenter"",""trial"":1,""time"":7576}]",NA,NA,NA,NA,NA,0,#1CD855,#FA92F8,0,10,1,38,1,744.6999999880791,39,0,445.89999997615814,10,0,experiment,NA,NA,1,0.7,0.3,2,3,131,3,NA
fcp-trial,166,788611,0.0-141.0-0.0,voc_e2,11916,"[{""event"":""fullscreenenter"",""trial"":1,""time"":7576}]",NA,NA,NA,NA,NA,5,#1CD855,#FA92F8,0,10,1,40,0,1155.800000011921,37,1,669.3999999761581,0,1,experiment,NA,NA,1,0.7,0.3,2,3,132,3,NA
fcp-trial,167,791519,0.0-142.0-0.0,voc_e2,11916,"[{""event"":""fullscreenenter"",""trial"":1,""time"":7576}]",NA,NA,NA,NA,NA,5,#D8271C,#741CD8,0,10,0,40,0,913,37,1,487.300000011921,0,0,experiment,NA,NA,0,0.1,0.9,1,0,133,3,NA
fcp-trial,168,794303,0.0-143.0-0.0,voc_e2,11916,"[{""event"":""fullscreenenter"",""trial"":1,""time"":7576}]",NA,NA,NA,NA,NA,6,#D89F1C,#3386FF,0,10,0,40,0,764,39,0,508.800000011921,10,1,experiment,NA,NA,2,0.5,0.5,5,4,134,3,NA
fcp-trial,169,797408,0.0-144.0-0.0,voc_e2,11916,"[{""event"":""fullscreenenter"",""trial"":1,""time"":7576}]",NA,NA,NA,NA,NA,1,#D89F1C,#3386FF,10,10,0,38,1,744.1999999880791,39,0,849.6999999880791,10,1,experiment,NA,NA,2,0.5,0.5,5,4,135,3,NA
fcp-trial,170,800026,0.0-145.0-0.0,voc_e2,11916,"[{""event"":""fullscreenenter"",""trial"":1,""time"":7576}]",NA,NA,NA,NA,NA,6,#1CD855,#FA92F8,10,0,1,40,0,541.3000000119209,39,0,567.3999999761581,0,0,experiment,NA,NA,1,0.7,0.3,2,3,136,4,NA
fcp-trial,171,802743,0.0-146.0-0.0,voc_e2,11916,"[{""event"":""fullscreenenter"",""trial"":1,""time"":7576}]",NA,NA,NA,NA,NA,6,#D8271C,#741CD8,0,10,0,40,0,803.8999999761581,37,1,406.0999999642372,0,0,experiment,NA,NA,0,0.1,0.9,1,0,137,4,NA
fcp-trial,172,806029,0.0-147.0-0.0,voc_e2,11916,"[{""event"":""fullscreenenter"",""trial"":1,""time"":7576}]",NA,NA,NA,NA,NA,4,#D8271C,#741CD8,0,10,0,40,0,1219.5,37,1,559.3000000119209,0,0,experiment,NA,NA,0,0.1,0.9,1,0,138,4,NA
fcp-trial,173,809289,0.0-148.0-0.0,voc_e2,11916,"[{""event"":""fullscreenenter"",""trial"":1,""time"":7576}]",NA,NA,NA,NA,NA,5,#D89F1C,#3386FF,10,10,0,38,1,906.5,39,0,845.6999999880791,10,1,experiment,NA,NA,2,0.5,0.5,5,4,139,4,NA
fcp-trial,174,813276,0.0-149.0-0.0,voc_e2,11916,"[{""event"":""fullscreenenter"",""trial"":1,""time"":7576}]",NA,NA,NA,NA,NA,3,#741CD8,#D8271C,10,10,1,38,1,1416.5,37,1,1060.899999976158,10,1,experiment,NA,NA,0,0.9,0.1,0,1,140,4,NA
fcp-trial,175,816110,0.0-150.0-0.0,voc_e2,11916,"[{""event"":""fullscreenenter"",""trial"":1,""time"":7576}]",NA,NA,NA,NA,NA,2,#FA92F8,#1CD855,0,10,0,38,1,1058.9000000357628,39,0,267.9000000357628,10,1,experiment,NA,NA,1,0.3,0.7,3,2,141,4,NA
fcp-trial,176,819257,0.0-151.0-0.0,voc_e2,11916,"[{""event"":""fullscreenenter"",""trial"":1,""time"":7576}]",NA,NA,NA,NA,NA,1,#1CD855,#FA92F8,0,0,1,38,1,1047.6000000238419,37,1,592.5,0,1,experiment,NA,NA,1,0.7,0.3,2,3,142,4,NA
fcp-trial,177,823123,0.0-152.0-0.0,voc_e2,11916,"[{""event"":""fullscreenenter"",""trial"":1,""time"":7576}]",NA,NA,NA,NA,NA,2,#741CD8,#D8271C,10,0,1,38,1,1149.4000000357628,37,1,1209,10,1,experiment,NA,NA,0,0.9,0.1,0,1,143,4,NA
fcp-trial,178,826906,0.0-153.0-0.0,voc_e2,11916,"[{""event"":""fullscreenenter"",""trial"":1,""time"":7576}]",NA,NA,NA,NA,NA,3,#D89F1C,#3386FF,10,10,0,38,1,1463.699999988079,39,0,812.1999999880791,10,1,experiment,NA,NA,2,0.5,0.5,5,4,144,4,NA
fcp-trial,179,829872,0.0-154.0-0.0,voc_e2,11916,"[{""event"":""fullscreenenter"",""trial"":1,""time"":7576}]",NA,NA,NA,NA,NA,0,#3386FF,#D89F1C,0,10,1,38,1,943.8000000119209,37,1,515,0,1,experiment,NA,NA,2,0.5,0.5,4,5,145,4,NA
fcp-trial,180,833389,0.0-155.0-0.0,voc_e2,11916,"[{""event"":""fullscreenenter"",""trial"":1,""time"":7576}]",NA,NA,NA,NA,NA,4,#1CD855,#FA92F8,10,10,1,40,0,1409.199999988079,39,0,600.3000000119209,10,0,experiment,NA,NA,1,0.7,0.3,2,3,146,4,NA
fcp-trial,181,837025,0.0-156.0-0.0,voc_e2,11916,"[{""event"":""fullscreenenter"",""trial"":1,""time"":7576}]",NA,NA,NA,NA,NA,1,#D8271C,#741CD8,0,10,0,38,1,1388.5,39,0,739.5,10,1,experiment,NA,NA,0,0.1,0.9,1,0,147,4,NA
fcp-trial,182,840151,0.0-157.0-0.0,voc_e2,11916,"[{""event"":""fullscreenenter"",""trial"":1,""time"":7576}]",NA,NA,NA,NA,NA,4,#D8271C,#741CD8,0,10,0,40,0,1106.1000000238419,37,1,511.60000002384186,0,0,experiment,NA,NA,0,0.1,0.9,1,0,148,4,NA
fcp-trial,183,843429,0.0-158.0-0.0,voc_e2,11916,"[{""event"":""fullscreenenter"",""trial"":1,""time"":7576}]",NA,NA,NA,NA,NA,3,#D89F1C,#3386FF,0,10,0,38,1,728.3000000119209,39,0,1037.5,10,1,experiment,NA,NA,2,0.5,0.5,5,4,149,4,NA
fcp-trial,184,846840,0.0-159.0-0.0,voc_e2,11916,"[{""event"":""fullscreenenter"",""trial"":1,""time"":7576}]",NA,NA,NA,NA,NA,4,#1CD855,#FA92F8,10,0,1,40,0,1090.300000011921,39,0,812.8999999761581,0,0,experiment,NA,NA,1,0.7,0.3,2,3,150,4,NA
fcp-trial,185,849551,0.0-160.0-0.0,voc_e2,11916,"[{""event"":""fullscreenenter"",""trial"":1,""time"":7576}]",NA,NA,NA,NA,NA,6,#1CD855,#FA92F8,10,0,1,40,0,809.6000000238419,39,0,394.199999988079,0,0,experiment,NA,NA,1,0.7,0.3,2,3,151,4,NA
fcp-trial,186,852483,0.0-161.0-0.0,voc_e2,11916,"[{""event"":""fullscreenenter"",""trial"":1,""time"":7576}]",NA,NA,NA,NA,NA,1,#741CD8,#D8271C,10,0,1,38,1,828.6999999880791,37,1,595.5,10,1,experiment,NA,NA,0,0.9,0.1,0,1,152,4,NA
fcp-trial,187,855497,0.0-162.0-0.0,voc_e2,11916,"[{""event"":""fullscreenenter"",""trial"":1,""time"":7576}]",NA,NA,NA,NA,NA,4,#D89F1C,#3386FF,10,10,0,40,0,647.6999999880791,37,1,857.5,10,0,experiment,NA,NA,2,0.5,0.5,5,4,153,4,NA
fcp-trial,188,858531,0.0-163.0-0.0,voc_e2,11916,"[{""event"":""fullscreenenter"",""trial"":1,""time"":7576}]",NA,NA,NA,NA,NA,0,#1CD855,#FA92F8,10,10,1,38,1,1085.0999999642372,37,1,440.60000002384186,10,1,experiment,NA,NA,1,0.7,0.3,2,3,154,4,NA
fcp-trial,189,862403,0.0-164.0-0.0,voc_e2,11916,"[{""event"":""fullscreenenter"",""trial"":1,""time"":7576}]",NA,NA,NA,NA,NA,0,#D8271C,#741CD8,0,10,0,38,1,1025.5999999642372,39,0,1339.100000023842,10,1,experiment,NA,NA,0,0.1,0.9,1,0,155,4,NA
fcp-trial,190,866432,0.0-165.0-0.0,voc_e2,11916,"[{""event"":""fullscreenenter"",""trial"":1,""time"":7576}]",NA,NA,NA,NA,NA,1,#FA92F8,#1CD855,0,10,0,38,1,1698,39,0,821.5,10,1,experiment,NA,NA,1,0.3,0.7,3,2,156,4,NA
fcp-trial,191,869516,0.0-166.0-0.0,voc_e2,11916,"[{""event"":""fullscreenenter"",""trial"":1,""time"":7576}]",NA,NA,NA,NA,NA,5,#FA92F8,#1CD855,0,10,0,40,0,965.7000000476837,39,0,609.1999999880791,10,1,experiment,NA,NA,1,0.3,0.7,3,2,157,4,NA
fcp-trial,192,872358,0.0-167.0-0.0,voc_e2,11916,"[{""event"":""fullscreenenter"",""trial"":1,""time"":7576}]",NA,NA,NA,NA,NA,0,#D89F1C,#3386FF,10,0,0,38,1,798.6000000238419,39,0,533.9000000357628,0,1,experiment,NA,NA,2,0.5,0.5,5,4,158,4,NA
fcp-trial,193,876086,0.0-168.0-0.0,voc_e2,11916,"[{""event"":""fullscreenenter"",""trial"":1,""time"":7576}]",NA,NA,NA,NA,NA,2,#D8271C,#741CD8,0,10,0,38,1,907.5999999642372,39,0,1312.899999976158,10,1,experiment,NA,NA,0,0.1,0.9,1,0,159,4,NA
fcp-trial,194,880500,0.0-169.0-0.0,voc_e2,11916,"[{""event"":""fullscreenenter"",""trial"":1,""time"":7576}]",NA,NA,NA,NA,NA,2,#1CD855,#FA92F8,0,0,1,38,1,1780.0999999642372,39,0,1125.199999988079,0,0,experiment,NA,NA,1,0.7,0.3,2,3,160,4,NA
fcp-trial,195,883604,0.0-170.0-0.0,voc_e2,11916,"[{""event"":""fullscreenenter"",""trial"":1,""time"":7576}]",NA,NA,NA,NA,NA,3,#741CD8,#D8271C,10,0,1,38,1,1189.199999988079,37,1,401.300000011921,10,1,experiment,NA,NA,0,0.9,0.1,0,1,161,4,NA
fcp-trial,196,886453,0.0-171.0-0.0,voc_e2,11916,"[{""event"":""fullscreenenter"",""trial"":1,""time"":7576}]",NA,NA,NA,NA,NA,6,#3386FF,#D89F1C,0,10,1,40,0,881.1000000238419,39,0,460.5999999642372,10,0,experiment,NA,NA,2,0.5,0.5,4,5,162,4,NA
fcp-trial,197,889949,0.0-172.0-0.0,voc_e2,11916,"[{""event"":""fullscreenenter"",""trial"":1,""time"":7576}]",NA,NA,NA,NA,NA,1,#D89F1C,#3386FF,0,0,0,38,1,965.1999999880791,39,0,1022.0999999642372,0,1,experiment,NA,NA,2,0.5,0.5,5,4,163,4,NA
fcp-trial,198,892962,0.0-173.0-0.0,voc_e2,11916,"[{""event"":""fullscreenenter"",""trial"":1,""time"":7576}]",NA,NA,NA,NA,NA,5,#D89F1C,#3386FF,10,10,0,40,0,1018.8999999761581,37,1,485.10000002384186,10,0,experiment,NA,NA,2,0.5,0.5,5,4,164,4,NA
fcp-trial,199,896588,0.0-174.0-0.0,voc_e2,11916,"[{""event"":""fullscreenenter"",""trial"":1,""time"":7576}]",NA,NA,NA,NA,NA,3,#1CD855,#FA92F8,10,10,1,38,1,979.8000000119209,39,0,1138.300000011921,10,0,experiment,NA,NA,1,0.7,0.3,2,3,165,4,NA
fcp-trial,200,899857,0.0-175.0-0.0,voc_e2,11916,"[{""event"":""fullscreenenter"",""trial"":1,""time"":7576}]",NA,NA,NA,NA,NA,5,#D8271C,#741CD8,0,10,0,40,0,1208.8999999761581,39,0,553.8999999761581,10,1,experiment,NA,NA,0,0.1,0.9,1,0,166,4,NA
fcp-trial,201,904154,0.0-176.0-0.0,voc_e2,11916,"[{""event"":""fullscreenenter"",""trial"":1,""time"":7576}]",NA,NA,NA,NA,NA,6,#741CD8,#D8271C,10,0,1,40,0,1146.5,39,0,1643.899999976158,0,0,experiment,NA,NA,0,0.9,0.1,0,1,167,4,NA
fcp-trial,202,908281,0.0-177.0-0.0,voc_e2,11916,"[{""event"":""fullscreenenter"",""trial"":1,""time"":7576}]",NA,NA,NA,NA,NA,2,#3386FF,#D89F1C,0,0,1,38,1,1410,39,0,1209.4000000357628,0,0,experiment,NA,NA,2,0.5,0.5,4,5,168,4,NA
fcp-trial,203,911419,0.0-178.0-0.0,voc_e2,11916,"[{""event"":""fullscreenenter"",""trial"":1,""time"":7576}]",NA,NA,NA,NA,NA,5,#D8271C,#741CD8,0,10,0,40,0,1140.800000011921,37,1,486.699999988079,0,0,experiment,NA,NA,0,0.1,0.9,1,0,169,4,NA
fcp-trial,204,914616,0.0-179.0-0.0,voc_e2,11916,"[{""event"":""fullscreenenter"",""trial"":1,""time"":7576}]",NA,NA,NA,NA,NA,2,#741CD8,#D8271C,10,10,1,38,1,1035,37,1,653.8000000119209,10,1,experiment,NA,NA,0,0.9,0.1,0,1,170,4,NA
fcp-trial,205,917623,0.0-180.0-0.0,voc_e2,11916,"[{""event"":""fullscreenenter"",""trial"":1,""time"":7576}]",NA,NA,NA,NA,NA,1,#FA92F8,#1CD855,0,10,0,38,1,1128.3999999761581,39,0,368.300000011921,10,1,experiment,NA,NA,1,0.3,0.7,3,2,171,4,NA
fcp-trial,206,920455,0.0-181.0-0.0,voc_e2,11916,"[{""event"":""fullscreenenter"",""trial"":1,""time"":7576}]",NA,NA,NA,NA,NA,0,#D89F1C,#3386FF,0,10,0,38,1,908,39,0,416.89999997615814,10,1,experiment,NA,NA,2,0.5,0.5,5,4,172,4,NA
fcp-trial,207,923346,0.0-182.0-0.0,voc_e2,11916,"[{""event"":""fullscreenenter"",""trial"":1,""time"":7576}]",NA,NA,NA,NA,NA,4,#FA92F8,#1CD855,0,10,0,40,0,907,39,0,476.9000000357628,10,1,experiment,NA,NA,1,0.3,0.7,3,2,173,4,NA
fcp-trial,208,926220,0.0-183.0-0.0,voc_e2,11916,"[{""event"":""fullscreenenter"",""trial"":1,""time"":7576}]",NA,NA,NA,NA,NA,5,#D89F1C,#3386FF,10,0,0,40,0,870,39,0,489.89999997615814,0,1,experiment,NA,NA,2,0.5,0.5,5,4,174,4,NA
fcp-trial,209,929425,0.0-184.0-0.0,voc_e2,11916,"[{""event"":""fullscreenenter"",""trial"":1,""time"":7576}]",NA,NA,NA,NA,NA,6,#741CD8,#D8271C,10,0,1,40,0,931.5,37,1,764.1999999880791,10,1,experiment,NA,NA,0,0.9,0.1,0,1,175,4,NA
fcp-trial,210,932372,0.0-185.0-0.0,voc_e2,11916,"[{""event"":""fullscreenenter"",""trial"":1,""time"":7576}]",NA,NA,NA,NA,NA,4,#D8271C,#741CD8,0,10,0,40,0,980,39,0,459.0999999642372,10,1,experiment,NA,NA,0,0.1,0.9,1,0,176,4,NA
fcp-trial,211,935502,0.0-186.0-0.0,voc_e2,11916,"[{""event"":""fullscreenenter"",""trial"":1,""time"":7576}]",NA,NA,NA,NA,NA,6,#3386FF,#D89F1C,10,10,1,40,0,879.6999999880791,37,1,743.2000000476837,10,1,experiment,NA,NA,2,0.5,0.5,4,5,177,4,NA
fcp-trial,212,938806,0.0-187.0-0.0,voc_e2,11916,"[{""event"":""fullscreenenter"",""trial"":1,""time"":7576}]",NA,NA,NA,NA,NA,0,#1CD855,#FA92F8,10,10,1,38,1,996.4000000357628,37,1,800.3000000119209,10,1,experiment,NA,NA,1,0.7,0.3,2,3,178,4,NA
fcp-trial,213,941679,0.0-188.0-0.0,voc_e2,11916,"[{""event"":""fullscreenenter"",""trial"":1,""time"":7576}]",NA,NA,NA,NA,NA,6,#FA92F8,#1CD855,10,10,0,40,0,852.9000000357628,37,1,511.699999988079,10,0,experiment,NA,NA,1,0.3,0.7,3,2,179,4,NA
fcp-trial,214,944785,0.0-189.0-0.0,voc_e2,11916,"[{""event"":""fullscreenenter"",""trial"":1,""time"":7576}]",NA,NA,NA,NA,NA,1,#D8271C,#741CD8,0,0,0,38,1,963.6999999880791,39,0,629.5999999642372,0,1,experiment,NA,NA,0,0.1,0.9,1,0,180,4,NA
fcp-trial,215,947972,0.0-190.0-0.0,voc_e2,11916,"[{""event"":""fullscreenenter"",""trial"":1,""time"":7576}]",NA,NA,NA,NA,NA,2,#3386FF,#D89F1C,10,10,1,38,1,1176.300000011921,37,1,502.5,10,1,experiment,NA,NA,2,0.5,0.5,4,5,181,5,NA
fcp-trial,216,951685,0.0-191.0-0.0,voc_e2,11916,"[{""event"":""fullscreenenter"",""trial"":1,""time"":7576}]",NA,NA,NA,NA,NA,4,#D89F1C,#3386FF,0,0,0,38,1,1419.3999999761581,39,0,786.8000000119209,0,1,experiment,NA,NA,2,0.5,0.5,5,4,182,5,NA
fcp-trial,217,954782,0.0-192.0-0.0,voc_e2,11916,"[{""event"":""fullscreenenter"",""trial"":1,""time"":7576}]",NA,NA,NA,NA,NA,1,#3386FF,#D89F1C,10,0,1,38,1,1242.199999988079,37,1,346.39999997615814,10,1,experiment,NA,NA,2,0.5,0.5,4,5,183,5,NA
fcp-trial,218,957882,0.0-193.0-0.0,voc_e2,11916,"[{""event"":""fullscreenenter"",""trial"":1,""time"":7576}]",NA,NA,NA,NA,NA,3,#1CD855,#FA92F8,0,0,1,38,1,1198.6000000238419,37,1,389.2999999523163,0,1,experiment,NA,NA,1,0.7,0.3,2,3,184,5,NA
fcp-trial,219,961207,0.0-194.0-0.0,voc_e2,11916,"[{""event"":""fullscreenenter"",""trial"":1,""time"":7576}]",NA,NA,NA,NA,NA,3,#D8271C,#741CD8,0,10,0,38,1,858.8000000119209,39,0,954.8000000119208,10,1,experiment,NA,NA,0,0.1,0.9,1,0,185,5,NA
fcp-trial,220,965213,0.0-195.0-0.0,voc_e2,11916,"[{""event"":""fullscreenenter"",""trial"":1,""time"":7576}]",NA,NA,NA,NA,NA,3,#3386FF,#D89F1C,10,10,1,38,1,1135.199999988079,37,1,1364.5,10,1,experiment,NA,NA,2,0.5,0.5,4,5,186,5,NA
fcp-trial,221,968508,0.0-196.0-0.0,voc_e2,11916,"[{""event"":""fullscreenenter"",""trial"":1,""time"":7576}]",NA,NA,NA,NA,NA,5,#1CD855,#FA92F8,10,0,1,40,0,1093.5,37,1,690.7999999523163,10,1,experiment,NA,NA,1,0.7,0.3,2,3,187,5,NA
fcp-trial,222,971452,0.0-197.0-0.0,voc_e2,11916,"[{""event"":""fullscreenenter"",""trial"":1,""time"":7576}]",NA,NA,NA,NA,NA,0,#741CD8,#D8271C,10,0,1,38,1,897.3999999761581,37,1,541.8000000119209,10,1,experiment,NA,NA,0,0.9,0.1,0,1,188,5,NA
fcp-trial,223,975403,0.0-198.0-0.0,voc_e2,11916,"[{""event"":""fullscreenenter"",""trial"":1,""time"":7576}]",NA,NA,NA,NA,NA,2,#1CD855,#FA92F8,0,0,1,38,1,782.8000000119209,37,1,1659,0,1,experiment,NA,NA,1,0.7,0.3,2,3,189,5,NA
fcp-trial,224,979784,0.0-199.0-0.0,voc_e2,11916,"[{""event"":""fullscreenenter"",""trial"":1,""time"":7576}]",NA,NA,NA,NA,NA,5,#D89F1C,#3386FF,0,0,0,40,0,1094,37,1,1778.0999999642372,0,0,experiment,NA,NA,2,0.5,0.5,5,4,190,5,NA
fcp-trial,225,983040,0.0-200.0-0.0,voc_e2,11916,"[{""event"":""fullscreenenter"",""trial"":1,""time"":7576}]",NA,NA,NA,NA,NA,6,#D8271C,#741CD8,0,10,0,40,0,1258,37,1,490.89999997615814,0,0,experiment,NA,NA,0,0.1,0.9,1,0,191,5,NA
fcp-trial,226,986946,0.0-201.0-0.0,voc_e2,11916,"[{""event"":""fullscreenenter"",""trial"":1,""time"":7576}]",NA,NA,NA,NA,NA,4,#FA92F8,#1CD855,0,10,0,40,0,1814.199999988079,39,0,584.1000000238419,10,1,experiment,NA,NA,1,0.3,0.7,3,2,192,5,NA
fcp-trial,227,989769,0.0-202.0-0.0,voc_e2,11916,"[{""event"":""fullscreenenter"",""trial"":1,""time"":7576}]",NA,NA,NA,NA,NA,2,#FA92F8,#1CD855,0,0,0,38,1,982.3999999761581,37,1,332.0999999642372,0,0,experiment,NA,NA,1,0.3,0.7,3,2,193,5,NA
fcp-trial,228,992740,0.0-203.0-0.0,voc_e2,11916,"[{""event"":""fullscreenenter"",""trial"":1,""time"":7576}]",NA,NA,NA,NA,NA,2,#3386FF,#D89F1C,10,0,1,38,1,1114.7999999523163,37,1,349.19999998807907,10,1,experiment,NA,NA,2,0.5,0.5,4,5,194,5,NA
fcp-trial,229,995719,0.0-204.0-0.0,voc_e2,11916,"[{""event"":""fullscreenenter"",""trial"":1,""time"":7576}]",NA,NA,NA,NA,NA,5,#741CD8,#D8271C,10,0,1,40,0,992.4000000357628,39,0,479.7999999523163,0,0,experiment,NA,NA,0,0.9,0.1,0,1,195,5,NA
fcp-trial,230,998454,0.0-205.0-0.0,voc_e2,11916,"[{""event"":""fullscreenenter"",""trial"":1,""time"":7576}]",NA,NA,NA,NA,NA,2,#D8271C,#741CD8,0,10,0,38,1,795.2999999523163,37,1,433.39999997615814,0,0,experiment,NA,NA,0,0.1,0.9,1,0,196,5,NA
fcp-trial,231,1001593,0.0-206.0-0.0,voc_e2,11916,"[{""event"":""fullscreenenter"",""trial"":1,""time"":7576}]",NA,NA,NA,NA,NA,3,#FA92F8,#1CD855,10,0,0,38,1,1148.8999999761581,39,0,483.60000002384186,0,1,experiment,NA,NA,1,0.3,0.7,3,2,197,5,NA
fcp-trial,232,1004715,0.0-207.0-0.0,voc_e2,11916,"[{""event"":""fullscreenenter"",""trial"":1,""time"":7576}]",NA,NA,NA,NA,NA,0,#1CD855,#FA92F8,10,0,1,38,1,1285.800000011921,39,0,327.10000002384186,0,0,experiment,NA,NA,1,0.7,0.3,2,3,198,5,NA
fcp-trial,233,1008620,0.0-208.0-0.0,voc_e2,11916,"[{""event"":""fullscreenenter"",""trial"":1,""time"":7576}]",NA,NA,NA,NA,NA,0,#3386FF,#D89F1C,10,10,1,38,1,1704,37,1,688.1000000238419,10,1,experiment,NA,NA,2,0.5,0.5,4,5,199,5,NA
fcp-trial,234,1011789,0.0-209.0-0.0,voc_e2,11916,"[{""event"":""fullscreenenter"",""trial"":1,""time"":7576}]",NA,NA,NA,NA,NA,6,#FA92F8,#1CD855,10,10,0,40,0,1231.7000000476837,39,0,430.699999988079,10,1,experiment,NA,NA,1,0.3,0.7,3,2,200,5,NA
fcp-trial,235,1015099,0.0-210.0-0.0,voc_e2,11916,"[{""event"":""fullscreenenter"",""trial"":1,""time"":7576}]",NA,NA,NA,NA,NA,1,#D8271C,#741CD8,0,0,0,38,1,760.1000000238419,39,0,1043.5,0,1,experiment,NA,NA,0,0.1,0.9,1,0,201,5,NA
fcp-trial,236,1019502,0.0-211.0-0.0,voc_e2,11916,"[{""event"":""fullscreenenter"",""trial"":1,""time"":7576}]",NA,NA,NA,NA,NA,4,#3386FF,#D89F1C,0,10,1,40,0,1322.7999999523163,39,0,1571.5,10,0,experiment,NA,NA,2,0.5,0.5,4,5,202,5,NA
fcp-trial,237,1022562,0.0-212.0-0.0,voc_e2,11916,"[{""event"":""fullscreenenter"",""trial"":1,""time"":7576}]",NA,NA,NA,NA,NA,1,#3386FF,#D89F1C,10,0,1,38,1,133.10000002384186,39,0,1421,0,0,experiment,NA,NA,2,0.5,0.5,4,5,203,5,NA
fcp-trial,238,1025952,0.0-213.0-0.0,voc_e2,11916,"[{""event"":""fullscreenenter"",""trial"":1,""time"":7576}]",NA,NA,NA,NA,NA,5,#FA92F8,#1CD855,10,0,0,40,0,1214.2000000476837,39,0,665,0,1,experiment,NA,NA,1,0.3,0.7,3,2,204,5,NA
fcp-trial,239,1029656,0.0-214.0-0.0,voc_e2,11916,"[{""event"":""fullscreenenter"",""trial"":1,""time"":7576}]",NA,NA,NA,NA,NA,0,#741CD8,#D8271C,10,0,1,38,1,1293.5,37,1,904.100000023842,10,1,experiment,NA,NA,0,0.9,0.1,0,1,205,5,NA
fcp-trial,240,1033122,0.0-215.0-0.0,voc_e2,11916,"[{""event"":""fullscreenenter"",""trial"":1,""time"":7576}]",NA,NA,NA,NA,NA,3,#741CD8,#D8271C,0,0,1,38,1,1261.199999988079,37,1,696.9000000357628,0,1,experiment,NA,NA,0,0.9,0.1,0,1,206,5,NA
fcp-trial,241,1037143,0.0-216.0-0.0,voc_e2,11916,"[{""event"":""fullscreenenter"",""trial"":1,""time"":7576}]",NA,NA,NA,NA,NA,6,#3386FF,#D89F1C,0,10,1,40,0,1328.300000011921,39,0,1185.199999988079,10,0,experiment,NA,NA,2,0.5,0.5,4,5,207,5,NA
fcp-trial,242,1040701,0.0-217.0-0.0,voc_e2,11916,"[{""event"":""fullscreenenter"",""trial"":1,""time"":7576}]",NA,NA,NA,NA,NA,1,#FA92F8,#1CD855,0,10,0,38,1,867.3999999761581,39,0,1184.5,10,1,experiment,NA,NA,1,0.3,0.7,3,2,208,5,NA
fcp-trial,243,1044086,0.0-218.0-0.0,voc_e2,11916,"[{""event"":""fullscreenenter"",""trial"":1,""time"":7576}]",NA,NA,NA,NA,NA,4,#D8271C,#741CD8,0,10,0,40,0,1093.300000011921,37,1,781.5,0,0,experiment,NA,NA,0,0.1,0.9,1,0,209,5,NA
fcp-trial,244,1047959,0.0-219.0-0.0,voc_e2,11916,"[{""event"":""fullscreenenter"",""trial"":1,""time"":7576}]",NA,NA,NA,NA,NA,3,#D89F1C,#3386FF,0,10,0,38,1,1227.3999999761581,39,0,1139.800000011921,10,1,experiment,NA,NA,2,0.5,0.5,5,4,210,5,NA
audio-instructions,245,1062771,0.0-220.0,voc_e2,11916,"[{""event"":""fullscreenenter"",""trial"":1,""time"":7576}]",NA,8861.800000011921,static/audio/pause.wav,NA,0,NA,NA,NA,NA,NA,NA,NA,NA,NA,NA,NA,NA,NA,NA,NA,NA,NA,NA,NA,NA,NA,NA,NA,NA,NA
fcp-trial,246,1066366,0.0-221.0-0.0,voc_e2,11916,"[{""event"":""fullscreenenter"",""trial"":1,""time"":7576}]",NA,NA,NA,NA,NA,3,#1CD855,#FA92F8,10,0,1,38,1,1068,37,1,998.899999976158,10,1,experiment,NA,NA,1,0.7,0.3,2,3,211,5,NA
fcp-trial,247,1069462,0.0-222.0-0.0,voc_e2,11916,"[{""event"":""fullscreenenter"",""trial"":1,""time"":7576}]",NA,NA,NA,NA,NA,4,#D89F1C,#3386FF,10,0,0,40,0,1024.6000000238419,37,1,556.6000000238419,10,0,experiment,NA,NA,2,0.5,0.5,5,4,212,5,NA
fcp-trial,248,1072614,0.0-223.0-0.0,voc_e2,11916,"[{""event"":""fullscreenenter"",""trial"":1,""time"":7576}]",NA,NA,NA,NA,NA,2,#D8271C,#741CD8,0,10,0,38,1,918.5,39,0,713.3000000119209,10,1,experiment,NA,NA,0,0.1,0.9,1,0,213,5,NA
fcp-trial,249,1075594,0.0-224.0-0.0,voc_e2,11916,"[{""event"":""fullscreenenter"",""trial"":1,""time"":7576}]",NA,NA,NA,NA,NA,4,#741CD8,#D8271C,10,10,1,40,0,933.8000000119209,37,1,530.1999999880791,10,1,experiment,NA,NA,0,0.9,0.1,0,1,214,5,NA
fcp-trial,250,1079337,0.0-225.0-0.0,voc_e2,11916,"[{""event"":""fullscreenenter"",""trial"":1,""time"":7576}]",NA,NA,NA,NA,NA,3,#D89F1C,#3386FF,0,10,0,38,1,1166.699999988079,39,0,1056.0999999642372,10,1,experiment,NA,NA,2,0.5,0.5,5,4,215,5,NA
fcp-trial,251,1082545,0.0-226.0-0.0,voc_e2,11916,"[{""event"":""fullscreenenter"",""trial"":1,""time"":7576}]",NA,NA,NA,NA,NA,4,#FA92F8,#1CD855,0,10,0,40,0,988.8000000119209,39,0,699.5999999642372,10,1,experiment,NA,NA,1,0.3,0.7,3,2,216,5,NA
fcp-trial,252,1086455,0.0-227.0-0.0,voc_e2,11916,"[{""event"":""fullscreenenter"",""trial"":1,""time"":7576}]",NA,NA,NA,NA,NA,0,#1CD855,#FA92F8,10,0,1,38,1,1041.199999988079,37,1,1353.800000011921,10,1,experiment,NA,NA,1,0.7,0.3,2,3,217,5,NA
fcp-trial,253,1091186,0.0-228.0-0.0,voc_e2,11916,"[{""event"":""fullscreenenter"",""trial"":1,""time"":7576}]",NA,NA,NA,NA,NA,0,#D8271C,#741CD8,10,10,0,38,1,1847.6000000238419,39,0,1376.300000011921,10,1,experiment,NA,NA,0,0.1,0.9,1,0,218,5,NA
fcp-trial,254,1095359,0.0-229.0-0.0,voc_e2,11916,"[{""event"":""fullscreenenter"",""trial"":1,""time"":7576}]",NA,NA,NA,NA,NA,1,#FA92F8,#1CD855,10,10,0,38,1,1428.8999999761581,39,0,1236.5999999642372,10,1,experiment,NA,NA,1,0.3,0.7,3,2,219,5,NA
fcp-trial,255,1098445,0.0-230.0-0.0,voc_e2,11916,"[{""event"":""fullscreenenter"",""trial"":1,""time"":7576}]",NA,NA,NA,NA,NA,2,#3386FF,#D89F1C,0,10,1,38,1,853.1000000238419,37,1,718.0999999642372,0,1,experiment,NA,NA,2,0.5,0.5,4,5,220,5,NA
fcp-trial,256,1101966,0.0-231.0-0.0,voc_e2,11916,"[{""event"":""fullscreenenter"",""trial"":1,""time"":7576}]",NA,NA,NA,NA,NA,6,#1CD855,#FA92F8,10,0,1,40,0,1207.3999999761581,39,0,798.0999999642372,0,0,experiment,NA,NA,1,0.7,0.3,2,3,221,5,NA
fcp-trial,257,1105411,0.0-232.0-0.0,voc_e2,11916,"[{""event"":""fullscreenenter"",""trial"":1,""time"":7576}]",NA,NA,NA,NA,NA,0,#3386FF,#D89F1C,10,0,1,38,1,951.5,37,1,986.5999999642372,10,1,experiment,NA,NA,2,0.5,0.5,4,5,222,5,NA
fcp-trial,258,1109021,0.0-233.0-0.0,voc_e2,11916,"[{""event"":""fullscreenenter"",""trial"":1,""time"":7576}]",NA,NA,NA,NA,NA,6,#D8271C,#741CD8,0,0,0,40,0,1339.1000000238419,39,0,761.1999999880791,0,1,experiment,NA,NA,0,0.1,0.9,1,0,223,5,NA
fcp-trial,259,1112315,0.0-234.0-0.0,voc_e2,11916,"[{""event"":""fullscreenenter"",""trial"":1,""time"":7576}]",NA,NA,NA,NA,NA,5,#D89F1C,#3386FF,0,10,0,40,0,1094.9000000357628,37,1,688.1000000238419,0,0,experiment,NA,NA,2,0.5,0.5,5,4,224,5,NA
fcp-trial,260,1115350,0.0-235.0-0.0,voc_e2,11916,"[{""event"":""fullscreenenter"",""trial"":1,""time"":7576}]",NA,NA,NA,NA,NA,2,#FA92F8,#1CD855,10,10,0,38,1,897.8000000119209,39,0,629.1999999880791,10,1,experiment,NA,NA,1,0.3,0.7,3,2,225,5,NA
fcp-trial,261,1118640,0.0-236.0-0.0,voc_e2,11916,"[{""event"":""fullscreenenter"",""trial"":1,""time"":7576}]",NA,NA,NA,NA,NA,3,#741CD8,#D8271C,10,0,1,38,1,1037.5,37,1,744.0999999642372,10,1,experiment,NA,NA,0,0.9,0.1,0,1,226,6,NA
fcp-trial,262,1121981,0.0-237.0-0.0,voc_e2,11916,"[{""event"":""fullscreenenter"",""trial"":1,""time"":7576}]",NA,NA,NA,NA,NA,6,#3386FF,#D89F1C,10,10,1,40,0,1220.699999988079,39,0,611.5,10,0,experiment,NA,NA,2,0.5,0.5,4,5,227,6,NA
fcp-trial,263,1125989,0.0-238.0-0.0,voc_e2,11916,"[{""event"":""fullscreenenter"",""trial"":1,""time"":7576}]",NA,NA,NA,NA,NA,1,#741CD8,#D8271C,10,0,1,38,1,772.6999999880791,37,1,1727.100000023842,10,1,experiment,NA,NA,0,0.9,0.1,0,1,228,6,NA
fcp-trial,264,1129221,0.0-239.0-0.0,voc_e2,11916,"[{""event"":""fullscreenenter"",""trial"":1,""time"":7576}]",NA,NA,NA,NA,NA,5,#FA92F8,#1CD855,10,0,0,40,0,945.8999999761581,39,0,777.0999999642372,0,1,experiment,NA,NA,1,0.3,0.7,3,2,229,6,NA
fcp-trial,265,1132498,0.0-240.0-0.0,voc_e2,11916,"[{""event"":""fullscreenenter"",""trial"":1,""time"":7576}]",NA,NA,NA,NA,NA,1,#3386FF,#D89F1C,0,0,1,38,1,777.4000000357628,37,1,991.3000000119208,0,1,experiment,NA,NA,2,0.5,0.5,4,5,230,6,NA
fcp-trial,266,1135334,0.0-241.0-0.0,voc_e2,11916,"[{""event"":""fullscreenenter"",""trial"":1,""time"":7576}]",NA,NA,NA,NA,NA,5,#D8271C,#741CD8,0,10,0,40,0,837.0999999642372,39,0,491.0999999642372,10,1,experiment,NA,NA,0,0.1,0.9,1,0,231,6,NA
fcp-trial,267,1138699,0.0-242.0-0.0,voc_e2,11916,"[{""event"":""fullscreenenter"",""trial"":1,""time"":7576}]",NA,NA,NA,NA,NA,0,#D89F1C,#3386FF,0,0,0,38,1,827.9000000357628,39,0,1030.100000023842,0,1,experiment,NA,NA,2,0.5,0.5,5,4,232,6,NA
fcp-trial,268,1142557,0.0-243.0-0.0,voc_e2,11916,"[{""event"":""fullscreenenter"",""trial"":1,""time"":7576}]",NA,NA,NA,NA,NA,0,#741CD8,#D8271C,10,0,1,38,1,826.8000000119209,37,1,1524.300000011921,10,1,experiment,NA,NA,0,0.9,0.1,0,1,233,6,NA
fcp-trial,269,1146916,0.0-244.0-0.0,voc_e2,11916,"[{""event"":""fullscreenenter"",""trial"":1,""time"":7576}]",NA,NA,NA,NA,NA,0,#1CD855,#FA92F8,10,10,1,38,1,1300.300000011921,37,1,1547.800000011921,10,1,experiment,NA,NA,1,0.7,0.3,2,3,234,6,NA
fcp-trial,270,1151358,0.0-245.0-0.0,voc_e2,11916,"[{""event"":""fullscreenenter"",""trial"":1,""time"":7576}]",NA,NA,NA,NA,NA,2,#3386FF,#D89F1C,10,10,1,38,1,1362.300000011921,37,1,1571.899999976158,10,1,experiment,NA,NA,2,0.5,0.5,4,5,235,6,NA
fcp-trial,271,1154522,0.0-246.0-0.0,voc_e2,11916,"[{""event"":""fullscreenenter"",""trial"":1,""time"":7576}]",NA,NA,NA,NA,NA,2,#1CD855,#FA92F8,10,0,1,38,1,681.9000000357628,37,1,970.6999999880792,10,1,experiment,NA,NA,1,0.7,0.3,2,3,236,6,NA
fcp-trial,272,1157631,0.0-247.0-0.0,voc_e2,11916,"[{""event"":""fullscreenenter"",""trial"":1,""time"":7576}]",NA,NA,NA,NA,NA,1,#D89F1C,#3386FF,0,0,0,38,1,842.1999999880791,39,0,759.9000000357628,0,1,experiment,NA,NA,2,0.5,0.5,5,4,237,6,NA
fcp-trial,273,1160987,0.0-248.0-0.0,voc_e2,11916,"[{""event"":""fullscreenenter"",""trial"":1,""time"":7576}]",NA,NA,NA,NA,NA,4,#D8271C,#741CD8,0,10,0,40,0,1268.1000000238419,37,1,579.5,0,0,experiment,NA,NA,0,0.1,0.9,1,0,238,6,NA
fcp-trial,274,1164958,0.0-249.0-0.0,voc_e2,11916,"[{""event"":""fullscreenenter"",""trial"":1,""time"":7576}]",NA,NA,NA,NA,NA,1,#1CD855,#FA92F8,0,0,1,38,1,1354.0999999642372,37,1,1109.2000000476835,0,1,experiment,NA,NA,1,0.7,0.3,2,3,239,6,NA
fcp-trial,275,1168424,0.0-250.0-0.0,voc_e2,11916,"[{""event"":""fullscreenenter"",""trial"":1,""time"":7576}]",NA,NA,NA,NA,NA,6,#FA92F8,#1CD855,10,0,0,40,0,1099.800000011921,37,1,853.5,10,0,experiment,NA,NA,1,0.3,0.7,3,2,240,6,NA
fcp-trial,276,1171929,0.0-251.0-0.0,voc_e2,11916,"[{""event"":""fullscreenenter"",""trial"":1,""time"":7576}]",NA,NA,NA,NA,NA,3,#FA92F8,#1CD855,0,10,0,38,1,1199.5,39,0,793.5,10,1,experiment,NA,NA,1,0.3,0.7,3,2,241,6,NA
fcp-trial,277,1175102,0.0-252.0-0.0,voc_e2,11916,"[{""event"":""fullscreenenter"",""trial"":1,""time"":7576}]",NA,NA,NA,NA,NA,6,#D89F1C,#3386FF,10,0,0,40,0,954.1999999880791,37,1,711.3000000119209,10,0,experiment,NA,NA,2,0.5,0.5,5,4,242,6,NA
fcp-trial,278,1180182,0.0-253.0-0.0,voc_e2,11916,"[{""event"":""fullscreenenter"",""trial"":1,""time"":7576}]",NA,NA,NA,NA,NA,3,#741CD8,#D8271C,0,0,1,38,1,1969.1000000238419,37,1,1601.399999976158,0,1,experiment,NA,NA,0,0.9,0.1,0,1,243,6,NA
fcp-trial,279,1183289,0.0-254.0-0.0,voc_e2,11916,"[{""event"":""fullscreenenter"",""trial"":1,""time"":7576}]",NA,NA,NA,NA,NA,3,#D89F1C,#3386FF,0,0,0,38,1,801,37,1,798.6000000238419,0,0,experiment,NA,NA,2,0.5,0.5,5,4,244,6,NA
fcp-trial,280,1186637,0.0-255.0-0.0,voc_e2,11916,"[{""event"":""fullscreenenter"",""trial"":1,""time"":7576}]",NA,NA,NA,NA,NA,1,#741CD8,#D8271C,0,10,1,38,1,1531.0999999642372,39,0,304.7000000476837,10,0,experiment,NA,NA,0,0.9,0.1,0,1,245,6,NA
fcp-trial,281,1189507,0.0-256.0-0.0,voc_e2,11916,"[{""event"":""fullscreenenter"",""trial"":1,""time"":7576}]",NA,NA,NA,NA,NA,5,#FA92F8,#1CD855,0,10,0,40,0,1020.2999999523163,39,0,339.60000002384186,10,1,experiment,NA,NA,1,0.3,0.7,3,2,246,6,NA
fcp-trial,282,1192285,0.0-257.0-0.0,voc_e2,11916,"[{""event"":""fullscreenenter"",""trial"":1,""time"":7576}]",NA,NA,NA,NA,NA,4,#3386FF,#D89F1C,0,10,1,40,0,811.8000000119209,39,0,453.4000000357628,10,0,experiment,NA,NA,2,0.5,0.5,4,5,247,6,NA
fcp-trial,283,1195419,0.0-258.0-0.0,voc_e2,11916,"[{""event"":""fullscreenenter"",""trial"":1,""time"":7576}]",NA,NA,NA,NA,NA,4,#FA92F8,#1CD855,0,10,0,40,0,1172.7999999523163,37,1,453.39999997615814,0,0,experiment,NA,NA,1,0.3,0.7,3,2,248,6,NA
fcp-trial,284,1199904,0.0-259.0-0.0,voc_e2,11916,"[{""event"":""fullscreenenter"",""trial"":1,""time"":7576}]",NA,NA,NA,NA,NA,5,#D8271C,#741CD8,10,10,0,38,1,1250.0999999642372,37,1,1727.2999999523165,10,0,experiment,NA,NA,0,0.1,0.9,1,0,249,6,NA
fcp-trial,285,1203131,0.0-260.0-0.0,voc_e2,11916,"[{""event"":""fullscreenenter"",""trial"":1,""time"":7576}]",NA,NA,NA,NA,NA,2,#D8271C,#741CD8,0,10,0,38,1,1225.800000011921,37,1,494.199999988079,0,0,experiment,NA,NA,0,0.1,0.9,1,0,250,6,NA
fcp-trial,286,1205949,0.0-261.0-0.0,voc_e2,11916,"[{""event"":""fullscreenenter"",""trial"":1,""time"":7576}]",NA,NA,NA,NA,NA,5,#3386FF,#D89F1C,10,10,1,40,0,916.7000000476837,39,0,393.60000002384186,10,0,experiment,NA,NA,2,0.5,0.5,4,5,251,6,NA
fcp-trial,287,1208837,0.0-262.0-0.0,voc_e2,11916,"[{""event"":""fullscreenenter"",""trial"":1,""time"":7576}]",NA,NA,NA,NA,NA,6,#D8271C,#741CD8,0,10,0,40,0,894,37,1,486.10000002384186,0,0,experiment,NA,NA,0,0.1,0.9,1,0,252,6,NA
fcp-trial,288,1212465,0.0-263.0-0.0,voc_e2,11916,"[{""event"":""fullscreenenter"",""trial"":1,""time"":7576}]",NA,NA,NA,NA,NA,4,#741CD8,#D8271C,10,0,1,40,0,1124.199999988079,37,1,996.8000000119208,10,1,experiment,NA,NA,0,0.9,0.1,0,1,253,6,NA
fcp-trial,289,1215502,0.0-264.0-0.0,voc_e2,11916,"[{""event"":""fullscreenenter"",""trial"":1,""time"":7576}]",NA,NA,NA,NA,NA,1,#3386FF,#D89F1C,10,0,1,38,1,894,39,0,634.6999999880791,0,0,experiment,NA,NA,2,0.5,0.5,4,5,254,6,NA
fcp-trial,290,1218735,0.0-265.0-0.0,voc_e2,11916,"[{""event"":""fullscreenenter"",""trial"":1,""time"":7576}]",NA,NA,NA,NA,NA,6,#3386FF,#D89F1C,10,10,1,40,0,921.0999999642372,39,0,803.6999999880791,10,0,experiment,NA,NA,2,0.5,0.5,4,5,255,6,NA
fcp-trial,291,1222100,0.0-266.0-0.0,voc_e2,11916,"[{""event"":""fullscreenenter"",""trial"":1,""time"":7576}]",NA,NA,NA,NA,NA,2,#D8271C,#741CD8,0,10,0,38,1,1042.6000000238419,37,1,816.6999999880791,0,0,experiment,NA,NA,0,0.1,0.9,1,0,256,6,NA
fcp-trial,292,1225009,0.0-267.0-0.0,voc_e2,11916,"[{""event"":""fullscreenenter"",""trial"":1,""time"":7576}]",NA,NA,NA,NA,NA,5,#1CD855,#FA92F8,10,10,1,40,0,824.3000000119209,37,1,577.7000000476837,10,1,experiment,NA,NA,1,0.7,0.3,2,3,257,6,NA
fcp-trial,293,1227974,0.0-268.0-0.0,voc_e2,11916,"[{""event"":""fullscreenenter"",""trial"":1,""time"":7576}]",NA,NA,NA,NA,NA,5,#3386FF,#D89F1C,0,0,1,40,0,952.6999999880791,39,0,500.89999997615814,0,0,experiment,NA,NA,2,0.5,0.5,4,5,258,6,NA
fcp-trial,294,1231677,0.0-269.0-0.0,voc_e2,11916,"[{""event"":""fullscreenenter"",""trial"":1,""time"":7576}]",NA,NA,NA,NA,NA,3,#1CD855,#FA92F8,10,10,1,38,1,1037,37,1,1152.300000011921,10,1,experiment,NA,NA,1,0.7,0.3,2,3,259,6,NA
fcp-trial,295,1234552,0.0-270.0-0.0,voc_e2,11916,"[{""event"":""fullscreenenter"",""trial"":1,""time"":7576}]",NA,NA,NA,NA,NA,5,#D8271C,#741CD8,0,10,0,40,0,930.5,37,1,436.39999997615814,0,0,experiment,NA,NA,0,0.1,0.9,1,0,260,6,NA
fcp-trial,296,1238232,0.0-271.0-0.0,voc_e2,11916,"[{""event"":""fullscreenenter"",""trial"":1,""time"":7576}]",NA,NA,NA,NA,NA,6,#741CD8,#D8271C,10,0,1,40,0,1038.1000000238419,39,0,1135,0,0,experiment,NA,NA,0,0.9,0.1,0,1,261,6,NA
fcp-trial,297,1241537,0.0-272.0-0.0,voc_e2,11916,"[{""event"":""fullscreenenter"",""trial"":1,""time"":7576}]",NA,NA,NA,NA,NA,4,#1CD855,#FA92F8,10,0,1,40,0,1339.0999999642372,37,1,457.199999988079,10,1,experiment,NA,NA,1,0.7,0.3,2,3,262,6,NA
fcp-trial,298,1244563,0.0-273.0-0.0,voc_e2,11916,"[{""event"":""fullscreenenter"",""trial"":1,""time"":7576}]",NA,NA,NA,NA,NA,4,#3386FF,#D89F1C,10,0,1,40,0,1090,37,1,427.10000002384186,10,1,experiment,NA,NA,2,0.5,0.5,4,5,263,6,NA
fcp-trial,299,1247282,0.0-274.0-0.0,voc_e2,11916,"[{""event"":""fullscreenenter"",""trial"":1,""time"":7576}]",NA,NA,NA,NA,NA,6,#1CD855,#FA92F8,0,10,1,40,0,815.1000000238419,39,0,397.2000000476837,10,0,experiment,NA,NA,1,0.7,0.3,2,3,264,6,NA
fcp-trial,300,1250636,0.0-275.0-0.0,voc_e2,11916,"[{""event"":""fullscreenenter"",""trial"":1,""time"":7576}]",NA,NA,NA,NA,NA,1,#741CD8,#D8271C,10,0,1,38,1,818.0999999642372,39,0,1027.5999999642372,0,0,experiment,NA,NA,0,0.9,0.1,0,1,265,6,NA
fcp-trial,301,1253966,0.0-276.0-0.0,voc_e2,11916,"[{""event"":""fullscreenenter"",""trial"":1,""time"":7576}]",NA,NA,NA,NA,NA,3,#D89F1C,#3386FF,0,0,0,38,1,1416.800000011921,39,0,404.10000002384186,0,1,experiment,NA,NA,2,0.5,0.5,5,4,266,6,NA
fcp-trial,302,1257026,0.0-277.0-0.0,voc_e2,11916,"[{""event"":""fullscreenenter"",""trial"":1,""time"":7576}]",NA,NA,NA,NA,NA,2,#1CD855,#FA92F8,10,0,1,38,1,923.8000000119209,37,1,627.1999999880791,10,1,experiment,NA,NA,1,0.7,0.3,2,3,267,6,NA
fcp-trial,303,1260875,0.0-278.0-0.0,voc_e2,11916,"[{""event"":""fullscreenenter"",""trial"":1,""time"":7576}]",NA,NA,NA,NA,NA,0,#741CD8,#D8271C,0,0,1,38,1,926.8000000119209,39,0,1413.100000023842,0,0,experiment,NA,NA,0,0.9,0.1,0,1,268,6,NA
fcp-trial,304,1263699,0.0-279.0-0.0,voc_e2,11916,"[{""event"":""fullscreenenter"",""trial"":1,""time"":7576}]",NA,NA,NA,NA,NA,0,#D89F1C,#3386FF,0,10,0,38,1,846.1999999880791,39,0,467.699999988079,10,1,experiment,NA,NA,2,0.5,0.5,5,4,269,6,NA
fcp-trial,305,1266381,0.0-280.0-0.0,voc_e2,11916,"[{""event"":""fullscreenenter"",""trial"":1,""time"":7576}]",NA,NA,NA,NA,NA,1,#FA92F8,#1CD855,0,0,0,38,1,801.3000000119209,39,0,371.89999997615814,0,1,experiment,NA,NA,1,0.3,0.7,3,2,270,6,NA
fcp-trial,306,1269801,0.0-281.0-0.0,voc_e2,11916,"[{""event"":""fullscreenenter"",""trial"":1,""time"":7576}]",NA,NA,NA,NA,NA,0,#1CD855,#FA92F8,0,10,1,40,0,879.6999999880791,37,1,1034.100000023842,0,1,experiment,NA,NA,1,0.7,0.3,2,3,271,7,NA
fcp-trial,307,1276534,0.0-282.0-0.0,voc_e2,11916,"[{""event"":""fullscreenenter"",""trial"":1,""time"":7576}]",NA,NA,NA,NA,NA,3,#741CD8,#D8271C,10,0,1,38,1,3707.399999976158,37,1,1517,10,1,experiment,NA,NA,0,0.9,0.1,0,1,272,7,NA
fcp-trial,308,1280064,0.0-283.0-0.0,voc_e2,11916,"[{""event"":""fullscreenenter"",""trial"":1,""time"":7576}]",NA,NA,NA,NA,NA,2,#3386FF,#D89F1C,10,0,1,38,1,783,37,1,1240.5,10,1,experiment,NA,NA,2,0.5,0.5,4,5,273,7,NA
fcp-trial,309,1284538,0.0-284.0-0.0,voc_e2,11916,"[{""event"":""fullscreenenter"",""trial"":1,""time"":7576}]",NA,NA,NA,NA,NA,3,#1CD855,#FA92F8,10,0,1,38,1,1855.7000000476837,37,1,1108.300000011921,10,1,experiment,NA,NA,1,0.7,0.3,2,3,274,7,NA
fcp-trial,310,1287437,0.0-285.0-0.0,voc_e2,11916,"[{""event"":""fullscreenenter"",""trial"":1,""time"":7576}]",NA,NA,NA,NA,NA,6,#1CD855,#FA92F8,10,0,1,40,0,1018.8000000119209,37,1,369.10000002384186,10,1,experiment,NA,NA,1,0.7,0.3,2,3,275,7,NA
fcp-trial,311,1290719,0.0-286.0-0.0,voc_e2,11916,"[{""event"":""fullscreenenter"",""trial"":1,""time"":7576}]",NA,NA,NA,NA,NA,0,#3386FF,#D89F1C,10,10,1,38,1,952.2000000476837,37,1,822,10,1,experiment,NA,NA,2,0.5,0.5,4,5,276,7,NA
fcp-trial,312,1293709,0.0-287.0-0.0,voc_e2,11916,"[{""event"":""fullscreenenter"",""trial"":1,""time"":7576}]",NA,NA,NA,NA,NA,3,#3386FF,#D89F1C,10,10,1,38,1,745.9000000357628,37,1,731.7000000476837,10,1,experiment,NA,NA,2,0.5,0.5,4,5,277,7,NA
fcp-trial,313,1297045,0.0-288.0-0.0,voc_e2,11916,"[{""event"":""fullscreenenter"",""trial"":1,""time"":7576}]",NA,NA,NA,NA,NA,1,#741CD8,#D8271C,10,0,1,38,1,722.8000000119209,37,1,1103.5,10,1,experiment,NA,NA,0,0.9,0.1,0,1,278,7,NA
fcp-trial,314,1300141,0.0-289.0-0.0,voc_e2,11916,"[{""event"":""fullscreenenter"",""trial"":1,""time"":7576}]",NA,NA,NA,NA,NA,4,#741CD8,#D8271C,10,0,1,40,0,1112,39,0,475.5,0,0,experiment,NA,NA,0,0.9,0.1,0,1,279,7,NA
fcp-trial,315,1303128,0.0-290.0-0.0,voc_e2,11916,"[{""event"":""fullscreenenter"",""trial"":1,""time"":7576}]",NA,NA,NA,NA,NA,5,#FA92F8,#1CD855,0,10,0,40,0,1071.699999988079,39,0,403.300000011921,10,1,experiment,NA,NA,1,0.3,0.7,3,2,280,7,NA
fcp-trial,316,1306100,0.0-291.0-0.0,voc_e2,11916,"[{""event"":""fullscreenenter"",""trial"":1,""time"":7576}]",NA,NA,NA,NA,NA,5,#3386FF,#D89F1C,10,0,1,40,0,987.3999999761581,39,0,475.7999999523163,0,0,experiment,NA,NA,2,0.5,0.5,4,5,281,7,NA
fcp-trial,317,1309744,0.0-292.0-0.0,voc_e2,11916,"[{""event"":""fullscreenenter"",""trial"":1,""time"":7576}]",NA,NA,NA,NA,NA,0,#D8271C,#741CD8,0,10,0,38,1,740.6000000238419,37,1,1396.300000011921,0,0,experiment,NA,NA,0,0.1,0.9,1,0,282,7,NA
fcp-trial,318,1312950,0.0-293.0-0.0,voc_e2,11916,"[{""event"":""fullscreenenter"",""trial"":1,""time"":7576}]",NA,NA,NA,NA,NA,3,#D8271C,#741CD8,10,10,0,38,1,1210,39,0,486.5,10,1,experiment,NA,NA,0,0.1,0.9,1,0,283,7,NA
fcp-trial,319,1316845,0.0-294.0-0.0,voc_e2,11916,"[{""event"":""fullscreenenter"",""trial"":1,""time"":7576}]",NA,NA,NA,NA,NA,2,#3386FF,#D89F1C,10,10,1,38,1,830.3000000119209,37,1,1556.300000011921,10,1,experiment,NA,NA,2,0.5,0.5,4,5,284,7,NA
fcp-trial,320,1320245,0.0-295.0-0.0,voc_e2,11916,"[{""event"":""fullscreenenter"",""trial"":1,""time"":7576}]",NA,NA,NA,NA,NA,1,#1CD855,#FA92F8,10,10,1,38,1,918.6999999880791,39,0,972,10,0,experiment,NA,NA,1,0.7,0.3,2,3,285,7,NA
fcp-trial,321,1325039,0.0-296.0-0.0,voc_e2,11916,"[{""event"":""fullscreenenter"",""trial"":1,""time"":7576}]",NA,NA,NA,NA,NA,2,#D8271C,#741CD8,0,10,0,38,1,1219.1000000238419,39,0,2066.2999999523163,10,1,experiment,NA,NA,0,0.1,0.9,1,0,286,7,NA
fcp-trial,322,1329382,0.0-297.0-0.0,voc_e2,11916,"[{""event"":""fullscreenenter"",""trial"":1,""time"":7576}]",NA,NA,NA,NA,NA,4,#3386FF,#D89F1C,10,0,1,40,0,1304,37,1,1528.199999988079,10,1,experiment,NA,NA,2,0.5,0.5,4,5,287,7,NA
fcp-trial,323,1333315,0.0-298.0-0.0,voc_e2,11916,"[{""event"":""fullscreenenter"",""trial"":1,""time"":7576}]",NA,NA,NA,NA,NA,0,#1CD855,#FA92F8,0,0,1,38,1,1029.4000000357628,37,1,1394.300000011921,0,1,experiment,NA,NA,1,0.7,0.3,2,3,288,7,NA
fcp-trial,324,1337759,0.0-299.0-0.0,voc_e2,11916,"[{""event"":""fullscreenenter"",""trial"":1,""time"":7576}]",NA,NA,NA,NA,NA,4,#1CD855,#FA92F8,10,0,1,40,0,929.1999999880791,39,0,2006.9000000357628,0,0,experiment,NA,NA,1,0.7,0.3,2,3,289,7,NA
fcp-trial,325,1340728,0.0-300.0-0.0,voc_e2,11916,"[{""event"":""fullscreenenter"",""trial"":1,""time"":7576}]",NA,NA,NA,NA,NA,6,#3386FF,#D89F1C,0,0,1,40,0,940.3000000119209,37,1,522,0,1,experiment,NA,NA,2,0.5,0.5,4,5,290,7,NA
fcp-trial,326,1343784,0.0-301.0-0.0,voc_e2,11916,"[{""event"":""fullscreenenter"",""trial"":1,""time"":7576}]",NA,NA,NA,NA,NA,6,#D8271C,#741CD8,0,10,0,40,0,1123.7000000476837,37,1,425.10000002384186,0,0,experiment,NA,NA,0,0.1,0.9,1,0,291,7,NA
fcp-trial,327,1347559,0.0-302.0-0.0,voc_e2,11916,"[{""event"":""fullscreenenter"",""trial"":1,""time"":7576}]",NA,NA,NA,NA,NA,2,#1CD855,#FA92F8,10,0,1,38,1,1117.300000011921,37,1,1149.9000000357628,10,1,experiment,NA,NA,1,0.7,0.3,2,3,292,7,NA
fcp-trial,328,1351809,0.0-303.0-0.0,voc_e2,11916,"[{""event"":""fullscreenenter"",""trial"":1,""time"":7576}]",NA,NA,NA,NA,NA,1,#3386FF,#D89F1C,10,0,1,38,1,1159.8999999761581,37,1,1578.100000023842,10,1,experiment,NA,NA,2,0.5,0.5,4,5,293,7,NA
fcp-trial,329,1354848,0.0-304.0-0.0,voc_e2,11916,"[{""event"":""fullscreenenter"",""trial"":1,""time"":7576}]",NA,NA,NA,NA,NA,5,#D8271C,#741CD8,0,0,0,40,0,949.7999999523163,39,0,581.5999999642372,0,1,experiment,NA,NA,0,0.1,0.9,1,0,294,7,NA
fcp-trial,330,1358317,0.0-305.0-0.0,voc_e2,11916,"[{""event"":""fullscreenenter"",""trial"":1,""time"":7576}]",NA,NA,NA,NA,NA,2,#1CD855,#FA92F8,10,0,1,38,1,882,37,1,1077.199999988079,10,1,experiment,NA,NA,1,0.7,0.3,2,3,295,7,NA
fcp-trial,331,1361168,0.0-306.0-0.0,voc_e2,11916,"[{""event"":""fullscreenenter"",""trial"":1,""time"":7576}]",NA,NA,NA,NA,NA,5,#D89F1C,#3386FF,10,0,0,40,0,848,37,1,488.699999988079,10,0,experiment,NA,NA,2,0.5,0.5,5,4,296,7,NA
fcp-trial,332,1364741,0.0-307.0-0.0,voc_e2,11916,"[{""event"":""fullscreenenter"",""trial"":1,""time"":7576}]",NA,NA,NA,NA,NA,2,#D89F1C,#3386FF,10,0,0,38,1,730,39,0,1313.600000023842,0,1,experiment,NA,NA,2,0.5,0.5,5,4,297,7,NA
fcp-trial,333,1368001,0.0-308.0-0.0,voc_e2,11916,"[{""event"":""fullscreenenter"",""trial"":1,""time"":7576}]",NA,NA,NA,NA,NA,3,#D8271C,#741CD8,0,10,0,38,1,841.6000000238419,39,0,907.100000023842,10,1,experiment,NA,NA,0,0.1,0.9,1,0,298,7,NA
fcp-trial,334,1371244,0.0-309.0-0.0,voc_e2,11916,"[{""event"":""fullscreenenter"",""trial"":1,""time"":7576}]",NA,NA,NA,NA,NA,0,#1CD855,#FA92F8,10,10,1,38,1,905.2000000476837,37,1,826.5,10,1,experiment,NA,NA,1,0.7,0.3,2,3,299,7,NA
fcp-trial,335,1374254,0.0-310.0-0.0,voc_e2,11916,"[{""event"":""fullscreenenter"",""trial"":1,""time"":7576}]",NA,NA,NA,NA,NA,6,#FA92F8,#1CD855,0,0,0,40,0,753.3999999761581,37,1,748.7999999523163,0,0,experiment,NA,NA,1,0.3,0.7,3,2,300,7,NA
fcp-trial,336,1377729,0.0-311.0-0.0,voc_e2,11916,"[{""event"":""fullscreenenter"",""trial"":1,""time"":7576}]",NA,NA,NA,NA,NA,1,#D8271C,#741CD8,0,10,0,38,1,779.9000000357628,39,0,1182.5,10,1,experiment,NA,NA,0,0.1,0.9,1,0,301,7,NA
fcp-trial,337,1380581,0.0-312.0-0.0,voc_e2,11916,"[{""event"":""fullscreenenter"",""trial"":1,""time"":7576}]",NA,NA,NA,NA,NA,6,#D89F1C,#3386FF,0,10,0,40,0,833.1999999880791,37,1,512.1000000238419,0,0,experiment,NA,NA,2,0.5,0.5,5,4,302,7,NA
fcp-trial,338,1383724,0.0-313.0-0.0,voc_e2,11916,"[{""event"":""fullscreenenter"",""trial"":1,""time"":7576}]",NA,NA,NA,NA,NA,1,#D89F1C,#3386FF,10,0,0,38,1,742.4000000357628,37,1,891.8999999761581,10,0,experiment,NA,NA,2,0.5,0.5,5,4,303,7,NA
fcp-trial,339,1386643,0.0-314.0-0.0,voc_e2,11916,"[{""event"":""fullscreenenter"",""trial"":1,""time"":7576}]",NA,NA,NA,NA,NA,4,#D8271C,#741CD8,0,10,0,40,0,942.5,39,0,469.199999988079,10,1,experiment,NA,NA,0,0.1,0.9,1,0,304,7,NA
fcp-trial,340,1389950,0.0-315.0-0.0,voc_e2,11916,"[{""event"":""fullscreenenter"",""trial"":1,""time"":7576}]",NA,NA,NA,NA,NA,3,#1CD855,#FA92F8,10,0,1,38,1,758.1000000238419,37,1,1041.699999988079,10,1,experiment,NA,NA,1,0.7,0.3,2,3,305,7,NA
fcp-trial,341,1394010,0.0-316.0-0.0,voc_e2,11916,"[{""event"":""fullscreenenter"",""trial"":1,""time"":7576}]",NA,NA,NA,NA,NA,3,#D89F1C,#3386FF,10,10,0,38,1,747.5,39,0,1799.899999976158,10,1,experiment,NA,NA,2,0.5,0.5,5,4,306,7,NA
fcp-trial,342,1396967,0.0-317.0-0.0,voc_e2,11916,"[{""event"":""fullscreenenter"",""trial"":1,""time"":7576}]",NA,NA,NA,NA,NA,2,#741CD8,#D8271C,10,0,1,38,1,754.8000000119209,37,1,695.5,10,1,experiment,NA,NA,0,0.9,0.1,0,1,307,7,NA
fcp-trial,343,1400044,0.0-318.0-0.0,voc_e2,11916,"[{""event"":""fullscreenenter"",""trial"":1,""time"":7576}]",NA,NA,NA,NA,NA,5,#FA92F8,#1CD855,10,0,0,40,0,1008.8000000119209,37,1,554.1000000238419,10,0,experiment,NA,NA,1,0.3,0.7,3,2,308,7,NA
fcp-trial,344,1403877,0.0-319.0-0.0,voc_e2,11916,"[{""event"":""fullscreenenter"",""trial"":1,""time"":7576}]",NA,NA,NA,NA,NA,1,#1CD855,#FA92F8,10,0,1,38,1,750.1000000238419,39,0,1575.399999976158,0,0,experiment,NA,NA,1,0.7,0.3,2,3,309,7,NA
fcp-trial,345,1407201,0.0-320.0-0.0,voc_e2,11916,"[{""event"":""fullscreenenter"",""trial"":1,""time"":7576}]",NA,NA,NA,NA,NA,4,#3386FF,#D89F1C,10,10,1,40,0,992.6000000238419,39,0,821.6000000238419,10,0,experiment,NA,NA,2,0.5,0.5,4,5,310,7,NA
fcp-trial,346,1411251,0.0-321.0-0.0,voc_e2,11916,"[{""event"":""fullscreenenter"",""trial"":1,""time"":7576}]",NA,NA,NA,NA,NA,0,#D89F1C,#3386FF,0,0,0,38,1,1079.7000000476837,39,0,1456.2000000476835,0,1,experiment,NA,NA,2,0.5,0.5,5,4,311,7,NA
fcp-trial,347,1414520,0.0-322.0-0.0,voc_e2,11916,"[{""event"":""fullscreenenter"",""trial"":1,""time"":7576}]",NA,NA,NA,NA,NA,5,#D8271C,#741CD8,0,10,0,40,0,1089.300000011921,37,1,665.6999999880791,0,0,experiment,NA,NA,0,0.1,0.9,1,0,312,7,NA
fcp-trial,348,1417713,0.0-323.0-0.0,voc_e2,11916,"[{""event"":""fullscreenenter"",""trial"":1,""time"":7576}]",NA,NA,NA,NA,NA,4,#FA92F8,#1CD855,0,10,0,40,0,1079.1000000238419,37,1,600.9000000357628,0,0,experiment,NA,NA,1,0.3,0.7,3,2,313,7,NA
fcp-trial,349,1421793,0.0-324.0-0.0,voc_e2,11916,"[{""event"":""fullscreenenter"",""trial"":1,""time"":7576}]",NA,NA,NA,NA,NA,6,#D8271C,#741CD8,0,10,0,40,0,954.9000000357628,39,0,1614.699999988079,10,1,experiment,NA,NA,0,0.1,0.9,1,0,314,7,NA
fcp-trial,350,1425762,0.0-325.0-0.0,voc_e2,11916,"[{""event"":""fullscreenenter"",""trial"":1,""time"":7576}]",NA,NA,NA,NA,NA,0,#741CD8,#D8271C,10,0,1,38,1,1066.7000000476837,37,1,1395.300000011921,10,1,experiment,NA,NA,0,0.9,0.1,0,1,315,7,NA
audio-instructions,351,1434992,0.0-326.0,voc_e2,11916,"[{""event"":""fullscreenenter"",""trial"":1,""time"":7576}]",NA,1740.699999988079,static/audio/finished.wav,NA,0,NA,NA,NA,NA,NA,NA,NA,NA,NA,NA,NA,NA,NA,NA,NA,NA,NA,NA,NA,NA,NA,NA,NA,NA,NA
audio-instructions,352,1448355,0.0-327.0-0.0,voc_e2,11916,"[{""event"":""fullscreenenter"",""trial"":1,""time"":7576}]",NA,2522.899999976158,static/audio/explicit1.wav,NA,0,NA,NA,NA,NA,NA,NA,NA,NA,NA,NA,NA,NA,NA,NA,NA,NA,NA,NA,NA,NA,NA,NA,NA,NA,NA
audio-instructions,353,1457257,0.0-327.0-1.0,voc_e2,11916,"[{""event"":""fullscreenenter"",""trial"":1,""time"":7576}]",NA,1304.9000000357628,static/audio/explicit2.wav,NA,0,NA,NA,NA,NA,NA,NA,NA,NA,NA,NA,NA,NA,NA,NA,NA,NA,NA,NA,NA,NA,NA,NA,NA,NA,NA
image-slider-response,354,1466744,0.0-328.0,voc_e2,11916,"[{""event"":""fullscreenenter"",""trial"":1,""time"":7576}]",NA,9482.900000035765,static/img/machines/machine5.png,NA,NA,NA,NA,NA,NA,NA,NA,NA,NA,NA,NA,NA,NA,NA,NA,explicit,NA,NA,NA,NA,NA,NA,NA,NA,NA,3
image-slider-response,355,1475946,0.0-329.0,voc_e2,11916,"[{""event"":""fullscreenenter"",""trial"":1,""time"":7576}]",NA,9198.600000023842,static/img/machines/machine4.png,NA,NA,NA,NA,NA,NA,NA,NA,NA,NA,NA,NA,NA,NA,NA,NA,explicit,NA,NA,NA,NA,NA,NA,NA,NA,NA,4
image-slider-response,356,1488876,0.0-330.0,voc_e2,11916,"[{""event"":""fullscreenenter"",""trial"":1,""time"":7576}]",NA,12927.600000023842,static/img/machines/machine2.png,NA,NA,NA,NA,NA,NA,NA,NA,NA,NA,NA,NA,NA,NA,NA,NA,explicit,NA,NA,NA,NA,NA,NA,NA,NA,NA,7
image-slider-response,357,1519539,0.0-331.0,voc_e2,11916,"[{""event"":""fullscreenenter"",""trial"":1,""time"":7576}]",NA,30659.89999997616,static/img/machines/machine6.png,NA,NA,NA,NA,NA,NA,NA,NA,NA,NA,NA,NA,NA,NA,NA,NA,explicit,NA,NA,NA,NA,NA,NA,NA,NA,NA,8
image-slider-response,358,1532038,0.0-332.0,voc_e2,11916,"[{""event"":""fullscreenenter"",""trial"":1,""time"":7576}]",NA,12495.399999976158,static/img/machines/machine3.png,NA,NA,NA,NA,NA,NA,NA,NA,NA,NA,NA,NA,NA,NA,NA,NA,explicit,NA,NA,NA,NA,NA,NA,NA,NA,NA,7
image-slider-response,359,1545271,0.0-333.0,voc_e2,11916,"[{""event"":""fullscreenenter"",""trial"":1,""time"":7576}]",NA,13230.600000023842,static/img/machines/machine1.png,NA,NA,NA,NA,NA,NA,NA,NA,NA,NA,NA,NA,NA,NA,NA,NA,explicit,NA,NA,NA,NA,NA,NA,NA,NA,NA,4
