trial_type,trial_index,time_elapsed,internal_node_id,task_version,subject_id,interactions,success,rt,stimulus,key_press,button_pressed,offer,arcade_color_L,arcade_color_R,arcade_outcome_L,arcade_outcome_R,correct,stage_1_key,stage_1_choice,stage_1_rt,stage_2_key,stage_2_choice,stage_2_rt,stage_3_outcome,accuracy,phase,responses,num_errors,context,reward_prob_L,reward_prob_R,arcade_id_L,arcade_id_R,trial,block,response
pavlovia,0,4,0.0-0.0,voc_e2,11998,[],NA,NA,NA,NA,NA,NA,NA,NA,NA,NA,NA,NA,NA,NA,NA,NA,NA,NA,NA,NA,NA,NA,NA,NA,NA,NA,NA,NA,NA,NA
fullscreen,1,3612,0.0-1.0,voc_e2,11998,"[{""event"":""fullscreenenter"",""trial"":1,""time"":2643}]",TRUE,NA,NA,NA,NA,NA,NA,NA,NA,NA,NA,NA,NA,NA,NA,NA,NA,NA,NA,NA,NA,NA,NA,NA,NA,NA,NA,NA,NA,NA
audio-keyboard-response,2,11040,0.0-2.0,voc_e2,11998,"[{""event"":""fullscreenenter"",""trial"":1,""time"":2643}]",NA,6709,static/audio/beep_loop.wav,32,NA,NA,NA,NA,NA,NA,NA,NA,NA,NA,NA,NA,NA,NA,NA,NA,NA,NA,NA,NA,NA,NA,NA,NA,NA,NA
audio-test,3,13647,0.0-3.0,voc_e2,11998,"[{""event"":""fullscreenenter"",""trial"":1,""time"":2643}]",NA,NA,static/audio/turtle.wav,NA,3,NA,NA,NA,NA,NA,NA,NA,NA,NA,NA,NA,NA,NA,NA,NA,NA,NA,NA,NA,NA,NA,NA,NA,NA,NA
audio-test,4,16181,0.0-4.0,voc_e2,11998,"[{""event"":""fullscreenenter"",""trial"":1,""time"":2643}]",NA,NA,static/audio/shark.wav,NA,2,NA,NA,NA,NA,NA,NA,NA,NA,NA,NA,NA,NA,NA,NA,NA,NA,NA,NA,NA,NA,NA,NA,NA,NA,NA
audio-instructions,5,24394,0.0-5.0-0.0,voc_e2,11998,"[{""event"":""fullscreenenter"",""trial"":1,""time"":2643}]",NA,2421.800000011921,static/audio/instructions1.wav,NA,0,NA,NA,NA,NA,NA,NA,NA,NA,NA,NA,NA,NA,NA,NA,NA,NA,NA,NA,NA,NA,NA,NA,NA,NA,NA
audio-instructions,6,34024,0.0-5.0-1.0,voc_e2,11998,"[{""event"":""fullscreenenter"",""trial"":1,""time"":2643}]",NA,2891.7999999821186,static/audio/instructions2.wav,NA,0,NA,NA,NA,NA,NA,NA,NA,NA,NA,NA,NA,NA,NA,NA,NA,NA,NA,NA,NA,NA,NA,NA,NA,NA,NA
audio-instructions,7,47982,0.0-5.0-2.0,voc_e2,11998,"[{""event"":""fullscreenenter"",""trial"":1,""time"":2643}]",NA,8150,static/audio/instructions3.wav,NA,0,NA,NA,NA,NA,NA,NA,NA,NA,NA,NA,NA,NA,NA,NA,NA,NA,NA,NA,NA,NA,NA,NA,NA,NA,NA
audio-instructions,8,64438,0.0-5.0-3.0,voc_e2,11998,"[{""event"":""fullscreenenter"",""trial"":1,""time"":2643}]",NA,3226.300000011921,static/audio/instructions4.wav,NA,0,NA,NA,NA,NA,NA,NA,NA,NA,NA,NA,NA,NA,NA,NA,NA,NA,NA,NA,NA,NA,NA,NA,NA,NA,NA
audio-instructions,9,76671,0.0-5.0-4.0,voc_e2,11998,"[{""event"":""fullscreenenter"",""trial"":1,""time"":2643}]",NA,2848.0999999940395,static/audio/instructions5.wav,NA,0,NA,NA,NA,NA,NA,NA,NA,NA,NA,NA,NA,NA,NA,NA,NA,NA,NA,NA,NA,NA,NA,NA,NA,NA,NA
fcp-practice,10,81224,0.0-5.0-5.0-0.0,voc_e2,11998,"[{""event"":""fullscreenenter"",""trial"":1,""time"":2643}]",NA,NA,NA,NA,NA,NA,#EDC948,#46d3c8,10,0,1,null,null,null,37,1,3038.800000011921,10,1,practice,NA,NA,NA,NA,NA,NA,NA,NA,NA,NA
fcp-practice,11,83637,0.0-5.0-5.0-1.0,voc_e2,11998,"[{""event"":""fullscreenenter"",""trial"":1,""time"":2643}]",NA,NA,NA,NA,NA,NA,#EDC948,#46d3c8,10,0,1,null,null,null,37,1,902.2000000178814,10,1,practice,NA,NA,NA,NA,NA,NA,NA,NA,NA,NA
fcp-practice,12,87093,0.0-5.0-5.0-2.0,voc_e2,11998,"[{""event"":""fullscreenenter"",""trial"":1,""time"":2643}]",NA,NA,NA,NA,NA,NA,#EDC948,#46d3c8,0,10,1,null,null,null,37,1,1949.300000011921,0,1,practice,NA,NA,NA,NA,NA,NA,NA,NA,NA,NA
fcp-practice,13,89009,0.0-5.0-5.0-3.0,voc_e2,11998,"[{""event"":""fullscreenenter"",""trial"":1,""time"":2643}]",NA,NA,NA,NA,NA,NA,#EDC948,#46d3c8,10,0,1,null,null,null,37,1,409.5,10,1,practice,NA,NA,NA,NA,NA,NA,NA,NA,NA,NA
fcp-practice,14,91082,0.0-5.0-5.0-4.0,voc_e2,11998,"[{""event"":""fullscreenenter"",""trial"":1,""time"":2643}]",NA,NA,NA,NA,NA,NA,#EDC948,#46d3c8,10,0,1,null,null,null,37,1,564.4000000059605,10,1,practice,NA,NA,NA,NA,NA,NA,NA,NA,NA,NA
audio-instructions,15,111226,0.0-5.0-6.0,voc_e2,11998,"[{""event"":""fullscreenenter"",""trial"":1,""time"":2643}]",NA,2133.9000000059605,static/audio/instructions6.wav,NA,0,NA,NA,NA,NA,NA,NA,NA,NA,NA,NA,NA,NA,NA,NA,NA,NA,NA,NA,NA,NA,NA,NA,NA,NA,NA
audio-instructions,16,132528,0.0-5.0-7.0,voc_e2,11998,"[{""event"":""fullscreenenter"",""trial"":1,""time"":2643}]",NA,2106.5,static/audio/instructions7.wav,NA,0,NA,NA,NA,NA,NA,NA,NA,NA,NA,NA,NA,NA,NA,NA,NA,NA,NA,NA,NA,NA,NA,NA,NA,NA,NA
audio-instructions,17,144468,0.0-5.0-8.0,voc_e2,11998,"[{""event"":""fullscreenenter"",""trial"":1,""time"":2643}]",NA,2465.800000011921,static/audio/instructions8.wav,NA,0,NA,NA,NA,NA,NA,NA,NA,NA,NA,NA,NA,NA,NA,NA,NA,NA,NA,NA,NA,NA,NA,NA,NA,NA,NA
fcp-comprehension,18,159401,0.0-5.0-9.0,voc_e2,11998,"[{""event"":""fullscreenenter"",""trial"":1,""time"":2643}]",NA,14931.70000001788,NA,NA,NA,NA,NA,NA,NA,NA,NA,NA,NA,NA,NA,NA,NA,NA,NA,NA,"true,true",0,NA,NA,NA,NA,NA,NA,NA,NA
audio-instructions,19,166556,0.0-6.0-0.0,voc_e2,11998,"[{""event"":""fullscreenenter"",""trial"":1,""time"":2643}]",NA,1604,static/audio/instructions9.wav,NA,0,NA,NA,NA,NA,NA,NA,NA,NA,NA,NA,NA,NA,NA,NA,NA,NA,NA,NA,NA,NA,NA,NA,NA,NA,NA
audio-instructions,20,186484,0.0-6.0-1.0,voc_e2,11998,"[{""event"":""fullscreenenter"",""trial"":1,""time"":2643}]",NA,7812.200000017881,static/audio/instructions10.wav,NA,0,NA,NA,NA,NA,NA,NA,NA,NA,NA,NA,NA,NA,NA,NA,NA,NA,NA,NA,NA,NA,NA,NA,NA,NA,NA
fcp-trial,21,191463,0.0-6.0-2.0,voc_e2,11998,"[{""event"":""fullscreenenter"",""trial"":1,""time"":2643}]",NA,NA,NA,NA,NA,0,#EDC948,#46d3c8,10,10,1,38,1,2284.5999999940395,37,1,1147.199999988079,10,1,practice,NA,NA,NA,NA,NA,NA,NA,NA,NA,NA
audio-instructions,22,204515,0.0-6.0-3.0,voc_e2,11998,"[{""event"":""fullscreenenter"",""trial"":1,""time"":2643}]",NA,2043.300000011921,static/audio/instructions11.wav,NA,0,NA,NA,NA,NA,NA,NA,NA,NA,NA,NA,NA,NA,NA,NA,NA,NA,NA,NA,NA,NA,NA,NA,NA,NA,NA
fcp-trial,23,211157,0.0-6.0-4.0,voc_e2,11998,"[{""event"":""fullscreenenter"",""trial"":1,""time"":2643}]",NA,NA,NA,NA,NA,6,#EDC948,#46d3c8,10,10,1,40,0,3752.800000011921,37,1,1370.7999999821186,10,1,practice,NA,NA,NA,NA,NA,NA,NA,NA,NA,NA
audio-instructions,24,231780,0.0-6.0-5.0,voc_e2,11998,"[{""event"":""fullscreenenter"",""trial"":1,""time"":2643}]",NA,1938,static/audio/instructions12.wav,NA,0,NA,NA,NA,NA,NA,NA,NA,NA,NA,NA,NA,NA,NA,NA,NA,NA,NA,NA,NA,NA,NA,NA,NA,NA,NA
audio-instructions,25,240090,0.0-6.0-6.0,voc_e2,11998,"[{""event"":""fullscreenenter"",""trial"":1,""time"":2643}]",NA,718.4000000059605,static/audio/instructions13.wav,NA,0,NA,NA,NA,NA,NA,NA,NA,NA,NA,NA,NA,NA,NA,NA,NA,NA,NA,NA,NA,NA,NA,NA,NA,NA,NA
audio-instructions,26,249518,0.0-6.0-7.0,voc_e2,11998,"[{""event"":""fullscreenenter"",""trial"":1,""time"":2643}]",NA,985.9000000059604,static/audio/instructions14.wav,NA,0,NA,NA,NA,NA,NA,NA,NA,NA,NA,NA,NA,NA,NA,NA,NA,NA,NA,NA,NA,NA,NA,NA,NA,NA,NA
audio-instructions,27,257460,0.0-7.0-0.0,voc_e2,11998,"[{""event"":""fullscreenenter"",""trial"":1,""time"":2643}]",NA,1037.9000000059605,static/audio/instructions15.wav,NA,0,NA,NA,NA,NA,NA,NA,NA,NA,NA,NA,NA,NA,NA,NA,NA,NA,NA,NA,NA,NA,NA,NA,NA,NA,NA
audio-instructions,28,265726,0.0-7.0-1.0,voc_e2,11998,"[{""event"":""fullscreenenter"",""trial"":1,""time"":2643}]",NA,1444.2999999821186,static/audio/instructions16.wav,NA,0,NA,NA,NA,NA,NA,NA,NA,NA,NA,NA,NA,NA,NA,NA,NA,NA,NA,NA,NA,NA,NA,NA,NA,NA,NA
audio-instructions,29,275285,0.0-7.0-2.0,voc_e2,11998,"[{""event"":""fullscreenenter"",""trial"":1,""time"":2643}]",NA,1883,static/audio/instructions17.wav,NA,0,NA,NA,NA,NA,NA,NA,NA,NA,NA,NA,NA,NA,NA,NA,NA,NA,NA,NA,NA,NA,NA,NA,NA,NA,NA
audio-instructions,30,285120,0.0-7.0-3.0,voc_e2,11998,"[{""event"":""fullscreenenter"",""trial"":1,""time"":2643}]",NA,2068.4000000059605,static/audio/instructions18.wav,NA,0,NA,NA,NA,NA,NA,NA,NA,NA,NA,NA,NA,NA,NA,NA,NA,NA,NA,NA,NA,NA,NA,NA,NA,NA,NA
audio-instructions,31,293182,0.0-7.0-4.0,voc_e2,11998,"[{""event"":""fullscreenenter"",""trial"":1,""time"":2643}]",NA,1319.800000011921,static/audio/instructions19.wav,NA,0,NA,NA,NA,NA,NA,NA,NA,NA,NA,NA,NA,NA,NA,NA,NA,NA,NA,NA,NA,NA,NA,NA,NA,NA,NA
fcp-comprehension,32,310760,0.0-7.0-5.0,voc_e2,11998,"[{""event"":""fullscreenenter"",""trial"":1,""time"":2643}]",NA,17576.59999999404,NA,NA,NA,NA,NA,NA,NA,NA,NA,NA,NA,NA,NA,NA,NA,NA,NA,NA,"false,true,true,true",2,NA,NA,NA,NA,NA,NA,NA,NA
audio-instructions,33,319763,0.0-7.1-0.1,voc_e2,11998,"[{""event"":""fullscreenenter"",""trial"":1,""time"":2643}]",NA,2081.199999988079,static/audio/instructions15.wav,NA,0,NA,NA,NA,NA,NA,NA,NA,NA,NA,NA,NA,NA,NA,NA,NA,NA,NA,NA,NA,NA,NA,NA,NA,NA,NA
audio-instructions,34,327813,0.0-7.1-1.1,voc_e2,11998,"[{""event"":""fullscreenenter"",""trial"":1,""time"":2643}]",NA,1221.0999999940395,static/audio/instructions16.wav,NA,0,NA,NA,NA,NA,NA,NA,NA,NA,NA,NA,NA,NA,NA,NA,NA,NA,NA,NA,NA,NA,NA,NA,NA,NA,NA
audio-instructions,35,336165,0.0-7.1-2.1,voc_e2,11998,"[{""event"":""fullscreenenter"",""trial"":1,""time"":2643}]",NA,673.1999999880791,static/audio/instructions17.wav,NA,0,NA,NA,NA,NA,NA,NA,NA,NA,NA,NA,NA,NA,NA,NA,NA,NA,NA,NA,NA,NA,NA,NA,NA,NA,NA
audio-instructions,36,344504,0.0-7.1-3.1,voc_e2,11998,"[{""event"":""fullscreenenter"",""trial"":1,""time"":2643}]",NA,571.9000000059605,static/audio/instructions18.wav,NA,0,NA,NA,NA,NA,NA,NA,NA,NA,NA,NA,NA,NA,NA,NA,NA,NA,NA,NA,NA,NA,NA,NA,NA,NA,NA
audio-instructions,37,352931,0.0-7.1-4.1,voc_e2,11998,"[{""event"":""fullscreenenter"",""trial"":1,""time"":2643}]",NA,1679.0999999940395,static/audio/instructions19.wav,NA,0,NA,NA,NA,NA,NA,NA,NA,NA,NA,NA,NA,NA,NA,NA,NA,NA,NA,NA,NA,NA,NA,NA,NA,NA,NA
fcp-comprehension,38,373406,0.0-7.1-5.1,voc_e2,11998,"[{""event"":""fullscreenenter"",""trial"":1,""time"":2643}]",NA,20473,NA,NA,NA,NA,NA,NA,NA,NA,NA,NA,NA,NA,NA,NA,NA,NA,NA,NA,"false,true,false,true",1,NA,NA,NA,NA,NA,NA,NA,NA
audio-instructions,39,383929,0.0-7.2-0.2,voc_e2,11998,"[{""event"":""fullscreenenter"",""trial"":1,""time"":2643}]",NA,3606.400000005961,static/audio/instructions15.wav,NA,0,NA,NA,NA,NA,NA,NA,NA,NA,NA,NA,NA,NA,NA,NA,NA,NA,NA,NA,NA,NA,NA,NA,NA,NA,NA
audio-instructions,40,391456,0.0-7.2-1.2,voc_e2,11998,"[{""event"":""fullscreenenter"",""trial"":1,""time"":2643}]",NA,703.4000000059605,static/audio/instructions16.wav,NA,0,NA,NA,NA,NA,NA,NA,NA,NA,NA,NA,NA,NA,NA,NA,NA,NA,NA,NA,NA,NA,NA,NA,NA,NA,NA
audio-instructions,41,399942,0.0-7.2-2.2,voc_e2,11998,"[{""event"":""fullscreenenter"",""trial"":1,""time"":2643}]",NA,809.0999999940395,static/audio/instructions17.wav,NA,0,NA,NA,NA,NA,NA,NA,NA,NA,NA,NA,NA,NA,NA,NA,NA,NA,NA,NA,NA,NA,NA,NA,NA,NA,NA
audio-instructions,42,408320,0.0-7.2-3.2,voc_e2,11998,"[{""event"":""fullscreenenter"",""trial"":1,""time"":2643}]",NA,607.5,static/audio/instructions18.wav,NA,0,NA,NA,NA,NA,NA,NA,NA,NA,NA,NA,NA,NA,NA,NA,NA,NA,NA,NA,NA,NA,NA,NA,NA,NA,NA
audio-instructions,43,415855,0.0-7.2-4.2,voc_e2,11998,"[{""event"":""fullscreenenter"",""trial"":1,""time"":2643}]",NA,802,static/audio/instructions19.wav,NA,0,NA,NA,NA,NA,NA,NA,NA,NA,NA,NA,NA,NA,NA,NA,NA,NA,NA,NA,NA,NA,NA,NA,NA,NA,NA
fcp-comprehension,44,455894,0.0-7.2-5.2,voc_e2,11998,"[{""event"":""fullscreenenter"",""trial"":1,""time"":2643}]",NA,40038.40000000596,NA,NA,NA,NA,NA,NA,NA,NA,NA,NA,NA,NA,NA,NA,NA,NA,NA,NA,"false,false,false,true",0,NA,NA,NA,NA,NA,NA,NA,NA
audio-instructions,45,475787,0.0-8.0,voc_e2,11998,"[{""event"":""fullscreenenter"",""trial"":1,""time"":2643}]",NA,10250.90000000596,static/audio/ready.wav,NA,0,NA,NA,NA,NA,NA,NA,NA,NA,NA,NA,NA,NA,NA,NA,NA,NA,NA,NA,NA,NA,NA,NA,NA,NA,NA
fcp-trial,46,482269,0.0-9.0-0.0,voc_e2,11998,"[{""event"":""fullscreenenter"",""trial"":1,""time"":2643}]",NA,NA,NA,NA,NA,2,#741CD8,#D8271C,0,0,1,38,1,3601.699999988079,39,0,1353.699999988079,0,0,experiment,NA,NA,2,0.5,0.5,4,5,1,1,NA
fcp-trial,47,484482,0.0-10.0-0.0,voc_e2,11998,"[{""event"":""fullscreenenter"",""trial"":1,""time"":2643}]",NA,NA,NA,NA,NA,5,#3386FF,#D89F1C,10,0,1,38,1,147.2000000178814,37,1,558.9000000059605,10,1,experiment,NA,NA,0,0.9,0.1,0,1,2,1,NA
fcp-trial,48,486836,0.0-11.0-0.0,voc_e2,11998,"[{""event"":""fullscreenenter"",""trial"":1,""time"":2643}]",NA,NA,NA,NA,NA,6,#D8271C,#741CD8,10,0,0,38,1,2.2999999821186066,37,1,843.0999999940395,10,0,experiment,NA,NA,2,0.5,0.5,5,4,3,1,NA
fcp-trial,49,489257,0.0-12.0-0.0,voc_e2,11998,"[{""event"":""fullscreenenter"",""trial"":1,""time"":2643}]",NA,NA,NA,NA,NA,2,#1CD855,#FA92F8,10,10,1,38,1,415.69999998807907,37,1,495.10000002384186,10,1,experiment,NA,NA,1,0.7,0.3,2,3,4,1,NA
fcp-trial,50,491874,0.0-13.0-0.0,voc_e2,11998,"[{""event"":""fullscreenenter"",""trial"":1,""time"":2643}]",NA,NA,NA,NA,NA,4,#741CD8,#D8271C,0,0,1,38,1,44.69999998807907,39,0,1062.4000000059605,0,0,experiment,NA,NA,2,0.5,0.5,4,5,5,1,NA
fcp-trial,51,494309,0.0-14.0-0.0,voc_e2,11998,"[{""event"":""fullscreenenter"",""trial"":1,""time"":2643}]",NA,NA,NA,NA,NA,3,#1CD855,#FA92F8,10,10,1,38,1,33.5,37,1,884.5999999940395,10,1,experiment,NA,NA,1,0.7,0.3,2,3,6,1,NA
fcp-trial,52,496976,0.0-15.0-0.0,voc_e2,11998,"[{""event"":""fullscreenenter"",""trial"":1,""time"":2643}]",NA,NA,NA,NA,NA,3,#3386FF,#D89F1C,0,10,1,38,1,201.09999999403954,37,1,951.0999999940395,0,1,experiment,NA,NA,0,0.9,0.1,0,1,7,1,NA
fcp-trial,53,500527,0.0-16.0-0.0,voc_e2,11998,"[{""event"":""fullscreenenter"",""trial"":1,""time"":2643}]",NA,NA,NA,NA,NA,3,#D8271C,#741CD8,10,0,0,38,1,1509.5999999940395,37,1,536.4000000059605,10,0,experiment,NA,NA,2,0.5,0.5,5,4,8,1,NA
fcp-trial,54,503283,0.0-17.0-0.0,voc_e2,11998,"[{""event"":""fullscreenenter"",""trial"":1,""time"":2643}]",NA,NA,NA,NA,NA,5,#1CD855,#FA92F8,10,0,1,38,1,613.3000000119209,37,1,637.4000000059605,10,1,experiment,NA,NA,1,0.7,0.3,2,3,9,1,NA
fcp-trial,55,506203,0.0-18.0-0.0,voc_e2,11998,"[{""event"":""fullscreenenter"",""trial"":1,""time"":2643}]",NA,NA,NA,NA,NA,6,#3386FF,#D89F1C,10,0,1,38,1,539.5,37,1,874.5999999940395,10,1,experiment,NA,NA,0,0.9,0.1,0,1,10,1,NA
fcp-trial,56,508523,0.0-19.0-0.0,voc_e2,11998,"[{""event"":""fullscreenenter"",""trial"":1,""time"":2643}]",NA,NA,NA,NA,NA,1,#FA92F8,#1CD855,0,10,0,38,1,112.7000000178814,37,1,702.5,0,0,experiment,NA,NA,1,0.3,0.7,3,2,11,1,NA
fcp-trial,57,511092,0.0-20.0-0.0,voc_e2,11998,"[{""event"":""fullscreenenter"",""trial"":1,""time"":2643}]",NA,NA,NA,NA,NA,5,#D8271C,#741CD8,0,0,0,38,1,109.5,37,1,956.4000000059605,0,0,experiment,NA,NA,2,0.5,0.5,5,4,12,1,NA
fcp-trial,58,513723,0.0-21.0-0.0,voc_e2,11998,"[{""event"":""fullscreenenter"",""trial"":1,""time"":2643}]",NA,NA,NA,NA,NA,4,#D89F1C,#3386FF,0,10,0,38,1,418.5,39,0,708.1000000238419,10,1,experiment,NA,NA,0,0.1,0.9,1,0,13,1,NA
fcp-trial,59,516753,0.0-22.0-0.0,voc_e2,11998,"[{""event"":""fullscreenenter"",""trial"":1,""time"":2643}]",NA,NA,NA,NA,NA,6,#FA92F8,#1CD855,0,0,0,38,1,158.5,39,0,1364.5,0,1,experiment,NA,NA,1,0.3,0.7,3,2,14,1,NA
fcp-trial,60,518881,0.0-23.0-0.0,voc_e2,11998,"[{""event"":""fullscreenenter"",""trial"":1,""time"":2643}]",NA,NA,NA,NA,NA,0,#D8271C,#741CD8,10,0,0,38,1,112.40000000596046,39,0,512.0999999940395,0,1,experiment,NA,NA,2,0.5,0.5,5,4,15,1,NA
fcp-trial,61,520915,0.0-24.0-0.0,voc_e2,11998,"[{""event"":""fullscreenenter"",""trial"":1,""time"":2643}]",NA,NA,NA,NA,NA,2,#D89F1C,#3386FF,10,0,0,38,1,180.09999999403954,39,0,348.59999999403954,0,1,experiment,NA,NA,0,0.1,0.9,1,0,16,1,NA
fcp-trial,62,523364,0.0-25.0-0.0,voc_e2,11998,"[{""event"":""fullscreenenter"",""trial"":1,""time"":2643}]",NA,NA,NA,NA,NA,0,#1CD855,#FA92F8,10,0,1,38,1,622,37,1,314.80000001192093,10,1,experiment,NA,NA,1,0.7,0.3,2,3,17,1,NA
fcp-trial,63,525967,0.0-26.0-0.0,voc_e2,11998,"[{""event"":""fullscreenenter"",""trial"":1,""time"":2643}]",NA,NA,NA,NA,NA,0,#3386FF,#D89F1C,10,0,1,38,1,655.6000000238419,39,0,441.2000000178814,0,0,experiment,NA,NA,0,0.9,0.1,0,1,18,1,NA
fcp-trial,64,528025,0.0-27.0-0.0,voc_e2,11998,"[{""event"":""fullscreenenter"",""trial"":1,""time"":2643}]",NA,NA,NA,NA,NA,4,#FA92F8,#1CD855,0,10,0,38,1,226.5,37,1,326.40000000596046,0,0,experiment,NA,NA,1,0.3,0.7,3,2,19,1,NA
fcp-trial,65,530521,0.0-28.0-0.0,voc_e2,11998,"[{""event"":""fullscreenenter"",""trial"":1,""time"":2643}]",NA,NA,NA,NA,NA,1,#D8271C,#741CD8,10,10,0,38,1,398.40000000596046,39,0,593.3000000119209,10,1,experiment,NA,NA,2,0.5,0.5,5,4,20,1,NA
fcp-trial,66,533449,0.0-29.0-0.0,voc_e2,11998,"[{""event"":""fullscreenenter"",""trial"":1,""time"":2643}]",NA,NA,NA,NA,NA,1,#D89F1C,#3386FF,0,10,0,38,1,413.90000000596046,39,0,1008.9000000059605,10,1,experiment,NA,NA,0,0.1,0.9,1,0,21,1,NA
fcp-trial,67,536220,0.0-30.0-0.0,voc_e2,11998,"[{""event"":""fullscreenenter"",""trial"":1,""time"":2643}]",NA,NA,NA,NA,NA,1,#741CD8,#D8271C,10,10,1,38,1,368.5,39,0,896.1999999880791,10,0,experiment,NA,NA,2,0.5,0.5,4,5,22,1,NA
fcp-trial,68,538761,0.0-31.0-0.0,voc_e2,11998,"[{""event"":""fullscreenenter"",""trial"":1,""time"":2643}]",NA,NA,NA,NA,NA,6,#741CD8,#D8271C,10,10,1,38,1,392.5,37,1,642,10,1,experiment,NA,NA,2,0.5,0.5,4,5,23,1,NA
fcp-trial,69,540747,0.0-32.0-0.0,voc_e2,11998,"[{""event"":""fullscreenenter"",""trial"":1,""time"":2643}]",NA,NA,NA,NA,NA,0,#741CD8,#D8271C,10,0,1,38,1,62.69999998807907,37,1,417.2999999821186,10,1,experiment,NA,NA,2,0.5,0.5,4,5,24,1,NA
fcp-trial,70,546506,0.0-33.0-0.0,voc_e2,11998,"[{""event"":""fullscreenenter"",""trial"":1,""time"":2643}]",NA,NA,NA,NA,NA,3,#1CD855,#FA92F8,10,10,1,38,1,291,39,0,3963.4000000059605,10,0,experiment,NA,NA,1,0.7,0.3,2,3,25,1,NA
fcp-trial,71,549770,0.0-34.0-0.0,voc_e2,11998,"[{""event"":""fullscreenenter"",""trial"":1,""time"":2643}]",NA,NA,NA,NA,NA,0,#3386FF,#D89F1C,10,0,1,38,1,1459,39,0,301.09999999403954,0,0,experiment,NA,NA,0,0.9,0.1,0,1,26,1,NA
fcp-trial,72,553810,0.0-35.0-0.0,voc_e2,11998,"[{""event"":""fullscreenenter"",""trial"":1,""time"":2643}]",NA,NA,NA,NA,NA,6,#1CD855,#FA92F8,10,0,1,38,1,1997.5,39,0,538.1999999880791,0,0,experiment,NA,NA,1,0.7,0.3,2,3,27,1,NA
fcp-trial,73,555790,0.0-36.0-0.0,voc_e2,11998,"[{""event"":""fullscreenenter"",""trial"":1,""time"":2643}]",NA,NA,NA,NA,NA,1,#1CD855,#FA92F8,0,0,1,38,1,187.19999998807907,39,0,287.69999998807907,0,0,experiment,NA,NA,1,0.7,0.3,2,3,28,1,NA
fcp-trial,74,557768,0.0-37.0-0.0,voc_e2,11998,"[{""event"":""fullscreenenter"",""trial"":1,""time"":2643}]",NA,NA,NA,NA,NA,5,#741CD8,#D8271C,0,10,1,38,1,202.40000000596046,37,1,270.10000002384186,0,1,experiment,NA,NA,2,0.5,0.5,4,5,29,1,NA
fcp-trial,75,560747,0.0-38.0-0.0,voc_e2,11998,"[{""event"":""fullscreenenter"",""trial"":1,""time"":2643}]",NA,NA,NA,NA,NA,2,#3386FF,#D89F1C,10,0,1,38,1,1067.800000011921,37,1,405.69999998807907,10,1,experiment,NA,NA,0,0.9,0.1,0,1,30,1,NA
fcp-trial,76,563378,0.0-39.0-0.0,voc_e2,11998,"[{""event"":""fullscreenenter"",""trial"":1,""time"":2643}]",NA,NA,NA,NA,NA,2,#1CD855,#FA92F8,0,0,1,38,1,831,39,0,295.59999999403954,0,0,experiment,NA,NA,1,0.7,0.3,2,3,31,1,NA
fcp-trial,77,565622,0.0-40.0-0.0,voc_e2,11998,"[{""event"":""fullscreenenter"",""trial"":1,""time"":2643}]",NA,NA,NA,NA,NA,3,#D8271C,#741CD8,0,0,0,38,1,160.39999997615814,37,1,578.3000000119209,0,0,experiment,NA,NA,2,0.5,0.5,5,4,32,1,NA
fcp-trial,78,568667,0.0-41.0-0.0,voc_e2,11998,"[{""event"":""fullscreenenter"",""trial"":1,""time"":2643}]",NA,NA,NA,NA,NA,5,#FA92F8,#1CD855,10,10,0,38,1,481.69999998807907,39,0,1056.0999999940395,10,1,experiment,NA,NA,1,0.3,0.7,3,2,33,1,NA
fcp-trial,79,570795,0.0-42.0-0.0,voc_e2,11998,"[{""event"":""fullscreenenter"",""trial"":1,""time"":2643}]",NA,NA,NA,NA,NA,4,#D89F1C,#3386FF,0,0,0,38,1,277.40000000596046,39,0,346.80000001192093,0,1,experiment,NA,NA,0,0.1,0.9,1,0,34,1,NA
fcp-trial,80,574137,0.0-43.0-0.0,voc_e2,11998,"[{""event"":""fullscreenenter"",""trial"":1,""time"":2643}]",NA,NA,NA,NA,NA,2,#D8271C,#741CD8,0,0,0,38,1,49.099999994039536,39,0,1787.1000000238419,0,1,experiment,NA,NA,2,0.5,0.5,5,4,35,1,NA
fcp-trial,81,575976,0.0-44.0-0.0,voc_e2,11998,"[{""event"":""fullscreenenter"",""trial"":1,""time"":2643}]",NA,NA,NA,NA,NA,3,#D89F1C,#3386FF,0,0,0,38,1,27.900000005960464,39,0,306.09999999403954,0,1,experiment,NA,NA,0,0.1,0.9,1,0,36,1,NA
fcp-trial,82,578192,0.0-45.0-0.0,voc_e2,11998,"[{""event"":""fullscreenenter"",""trial"":1,""time"":2643}]",NA,NA,NA,NA,NA,5,#3386FF,#D89F1C,10,0,1,38,1,201.2000000178814,37,1,510.5,10,1,experiment,NA,NA,0,0.9,0.1,0,1,37,1,NA
fcp-trial,83,580185,0.0-46.0-0.0,voc_e2,11998,"[{""event"":""fullscreenenter"",""trial"":1,""time"":2643}]",NA,NA,NA,NA,NA,0,#1CD855,#FA92F8,10,0,1,38,1,209.7000000178814,39,0,277.09999999403954,0,0,experiment,NA,NA,1,0.7,0.3,2,3,38,1,NA
fcp-trial,84,582832,0.0-47.0-0.0,voc_e2,11998,"[{""event"":""fullscreenenter"",""trial"":1,""time"":2643}]",NA,NA,NA,NA,NA,4,#741CD8,#D8271C,0,10,1,38,1,619.2999999821186,39,0,523.4000000059605,10,0,experiment,NA,NA,2,0.5,0.5,4,5,39,1,NA
fcp-trial,85,585516,0.0-48.0-0.0,voc_e2,11998,"[{""event"":""fullscreenenter"",""trial"":1,""time"":2643}]",NA,NA,NA,NA,NA,1,#3386FF,#D89F1C,10,0,1,38,1,913.3000000119209,37,1,266.5,10,1,experiment,NA,NA,0,0.9,0.1,0,1,40,1,NA
fcp-trial,86,590119,0.0-49.0-0.0,voc_e2,11998,"[{""event"":""fullscreenenter"",""trial"":1,""time"":2643}]",NA,NA,NA,NA,NA,6,#3386FF,#D89F1C,10,0,1,38,1,2737.4000000059605,39,0,359.89999997615814,0,0,experiment,NA,NA,0,0.9,0.1,0,1,41,1,NA
fcp-trial,87,593184,0.0-50.0-0.0,voc_e2,11998,"[{""event"":""fullscreenenter"",""trial"":1,""time"":2643}]",NA,NA,NA,NA,NA,4,#FA92F8,#1CD855,0,10,0,38,1,1165.5999999940395,39,0,394.40000000596046,10,1,experiment,NA,NA,1,0.3,0.7,3,2,42,1,NA
fcp-trial,88,595371,0.0-51.0-0.0,voc_e2,11998,"[{""event"":""fullscreenenter"",""trial"":1,""time"":2643}]",NA,NA,NA,NA,NA,2,#D89F1C,#3386FF,10,10,0,38,1,71.2000000178814,37,1,610.5999999940395,10,0,experiment,NA,NA,0,0.1,0.9,1,0,43,1,NA
fcp-trial,89,601160,0.0-52.0-0.0,voc_e2,11998,"[{""event"":""fullscreenenter"",""trial"":1,""time"":2643}]",NA,NA,NA,NA,NA,1,#741CD8,#D8271C,10,10,1,38,1,704.5,39,0,3579.0999999940395,10,0,experiment,NA,NA,2,0.5,0.5,4,5,44,1,NA
fcp-trial,90,604551,0.0-53.0-0.0,voc_e2,11998,"[{""event"":""fullscreenenter"",""trial"":1,""time"":2643}]",NA,NA,NA,NA,NA,3,#3386FF,#D89F1C,10,0,1,38,1,710,37,1,1177.300000011921,10,1,experiment,NA,NA,0,0.9,0.1,0,1,45,1,NA
fcp-trial,91,606916,0.0-54.0-0.0,voc_e2,11998,"[{""event"":""fullscreenenter"",""trial"":1,""time"":2643}]",NA,NA,NA,NA,NA,2,#FA92F8,#1CD855,0,10,0,38,1,588.0999999940395,39,0,272.19999998807907,10,1,experiment,NA,NA,1,0.3,0.7,3,2,46,2,NA
fcp-trial,92,609718,0.0-55.0-0.0,voc_e2,11998,"[{""event"":""fullscreenenter"",""trial"":1,""time"":2643}]",NA,NA,NA,NA,NA,0,#741CD8,#D8271C,10,10,1,38,1,382.09999999403954,37,1,914.5999999940395,10,1,experiment,NA,NA,2,0.5,0.5,4,5,47,2,NA
fcp-trial,93,612182,0.0-56.0-0.0,voc_e2,11998,"[{""event"":""fullscreenenter"",""trial"":1,""time"":2643}]",NA,NA,NA,NA,NA,1,#D89F1C,#3386FF,0,10,0,38,1,96.90000000596046,39,0,862.4000000059605,10,1,experiment,NA,NA,0,0.1,0.9,1,0,48,2,NA
fcp-trial,94,617789,0.0-57.0-0.0,voc_e2,11998,"[{""event"":""fullscreenenter"",""trial"":1,""time"":2643}]",NA,NA,NA,NA,NA,2,#D8271C,#741CD8,10,10,0,38,1,326.09999999403954,39,0,3773.5,10,1,experiment,NA,NA,2,0.5,0.5,5,4,49,2,NA
fcp-trial,95,620316,0.0-58.0-0.0,voc_e2,11998,"[{""event"":""fullscreenenter"",""trial"":1,""time"":2643}]",NA,NA,NA,NA,NA,0,#1CD855,#FA92F8,10,10,1,38,1,295.69999998807907,37,1,721.4000000059605,10,1,experiment,NA,NA,1,0.7,0.3,2,3,50,2,NA
fcp-trial,96,626448,0.0-59.0-0.0,voc_e2,11998,"[{""event"":""fullscreenenter"",""trial"":1,""time"":2643}]",NA,NA,NA,NA,NA,0,#D89F1C,#3386FF,0,10,0,40,0,205.90000000596046,37,1,4420.300000011921,0,0,experiment,NA,NA,0,0.1,0.9,1,0,51,2,NA
fcp-trial,97,629385,0.0-60.0-0.0,voc_e2,11998,"[{""event"":""fullscreenenter"",""trial"":1,""time"":2643}]",NA,NA,NA,NA,NA,5,#D89F1C,#3386FF,0,10,0,40,0,234,39,0,1198.7000000178814,10,1,experiment,NA,NA,0,0.1,0.9,1,0,52,2,NA
fcp-trial,98,633388,0.0-61.0-0.0,voc_e2,11998,"[{""event"":""fullscreenenter"",""trial"":1,""time"":2643}]",NA,NA,NA,NA,NA,4,#741CD8,#D8271C,0,10,1,40,0,44.5,39,0,2453,10,0,experiment,NA,NA,2,0.5,0.5,4,5,53,2,NA
fcp-trial,99,636231,0.0-62.0-0.0,voc_e2,11998,"[{""event"":""fullscreenenter"",""trial"":1,""time"":2643}]",NA,NA,NA,NA,NA,1,#FA92F8,#1CD855,0,10,0,40,0,146,39,0,1191,10,1,experiment,NA,NA,1,0.3,0.7,3,2,54,2,NA
fcp-trial,100,638460,0.0-63.0-0.0,voc_e2,11998,"[{""event"":""fullscreenenter"",""trial"":1,""time"":2643}]",NA,NA,NA,NA,NA,4,#D89F1C,#3386FF,0,10,0,40,0,50.79999998211861,37,1,673.1000000238419,0,0,experiment,NA,NA,0,0.1,0.9,1,0,55,2,NA
fcp-trial,101,641001,0.0-64.0-0.0,voc_e2,11998,"[{""event"":""fullscreenenter"",""trial"":1,""time"":2643}]",NA,NA,NA,NA,NA,5,#1CD855,#FA92F8,10,10,1,40,0,444,37,1,591.7999999821186,10,1,experiment,NA,NA,1,0.7,0.3,2,3,56,2,NA
fcp-trial,102,644806,0.0-65.0-0.0,voc_e2,11998,"[{""event"":""fullscreenenter"",""trial"":1,""time"":2643}]",NA,NA,NA,NA,NA,5,#D8271C,#741CD8,10,0,0,38,1,40.400000005960464,39,0,2257.7999999821186,0,1,experiment,NA,NA,2,0.5,0.5,5,4,57,2,NA
fcp-trial,103,647376,0.0-66.0-0.0,voc_e2,11998,"[{""event"":""fullscreenenter"",""trial"":1,""time"":2643}]",NA,NA,NA,NA,NA,3,#741CD8,#D8271C,10,10,1,40,0,257.90000000596046,39,0,806.5999999940395,10,0,experiment,NA,NA,2,0.5,0.5,4,5,58,2,NA
fcp-trial,104,650932,0.0-67.0-0.0,voc_e2,11998,"[{""event"":""fullscreenenter"",""trial"":1,""time"":2643}]",NA,NA,NA,NA,NA,6,#3386FF,#D89F1C,0,0,1,38,1,1135.5999999940395,37,1,915.6999999880791,0,1,experiment,NA,NA,0,0.9,0.1,0,1,59,2,NA
fcp-trial,105,653294,0.0-68.0-0.0,voc_e2,11998,"[{""event"":""fullscreenenter"",""trial"":1,""time"":2643}]",NA,NA,NA,NA,NA,3,#1CD855,#FA92F8,0,0,1,38,1,265.5,39,0,592.1000000238419,0,0,experiment,NA,NA,1,0.7,0.3,2,3,60,2,NA
fcp-trial,106,655159,0.0-69.0-0.0,voc_e2,11998,"[{""event"":""fullscreenenter"",""trial"":1,""time"":2643}]",NA,NA,NA,NA,NA,6,#1CD855,#FA92F8,10,0,1,38,1,42,37,1,320.09999999403954,10,1,experiment,NA,NA,1,0.7,0.3,2,3,61,2,NA
fcp-trial,107,657332,0.0-70.0-0.0,voc_e2,11998,"[{""event"":""fullscreenenter"",""trial"":1,""time"":2643}]",NA,NA,NA,NA,NA,6,#D8271C,#741CD8,10,10,0,38,1,166,37,1,502.89999997615814,10,0,experiment,NA,NA,2,0.5,0.5,5,4,62,2,NA
fcp-trial,108,660304,0.0-71.0-0.0,voc_e2,11998,"[{""event"":""fullscreenenter"",""trial"":1,""time"":2643}]",NA,NA,NA,NA,NA,4,#FA92F8,#1CD855,10,10,0,38,1,536,37,1,930.5999999940395,10,0,experiment,NA,NA,1,0.3,0.7,3,2,63,2,NA
fcp-trial,109,662462,0.0-72.0-0.0,voc_e2,11998,"[{""event"":""fullscreenenter"",""trial"":1,""time"":2643}]",NA,NA,NA,NA,NA,0,#D89F1C,#3386FF,0,10,0,38,1,169,39,0,484.69999998807907,10,1,experiment,NA,NA,0,0.1,0.9,1,0,64,2,NA
fcp-trial,110,664903,0.0-73.0-0.0,voc_e2,11998,"[{""event"":""fullscreenenter"",""trial"":1,""time"":2643}]",NA,NA,NA,NA,NA,3,#FA92F8,#1CD855,0,10,0,38,1,70.80000001192093,37,1,862.9000000059605,0,0,experiment,NA,NA,1,0.3,0.7,3,2,65,2,NA
fcp-trial,111,667139,0.0-74.0-0.0,voc_e2,11998,"[{""event"":""fullscreenenter"",""trial"":1,""time"":2643}]",NA,NA,NA,NA,NA,2,#D8271C,#741CD8,0,10,0,38,1,274,39,0,457.90000000596046,10,1,experiment,NA,NA,2,0.5,0.5,5,4,66,2,NA
fcp-trial,112,669223,0.0-75.0-0.0,voc_e2,11998,"[{""event"":""fullscreenenter"",""trial"":1,""time"":2643}]",NA,NA,NA,NA,NA,2,#3386FF,#D89F1C,0,0,1,38,1,125.30000001192093,37,1,453.7999999821186,0,1,experiment,NA,NA,0,0.9,0.1,0,1,67,2,NA
fcp-trial,113,671632,0.0-76.0-0.0,voc_e2,11998,"[{""event"":""fullscreenenter"",""trial"":1,""time"":2643}]",NA,NA,NA,NA,NA,5,#D89F1C,#3386FF,0,0,0,38,1,245.40000000596046,37,1,659.5999999940395,0,0,experiment,NA,NA,0,0.1,0.9,1,0,68,2,NA
fcp-trial,114,675172,0.0-77.0-0.0,voc_e2,11998,"[{""event"":""fullscreenenter"",""trial"":1,""time"":2643}]",NA,NA,NA,NA,NA,5,#1CD855,#FA92F8,10,10,1,38,1,33.60000002384186,37,1,2002.9000000059605,10,1,experiment,NA,NA,1,0.7,0.3,2,3,69,2,NA
fcp-trial,115,683200,0.0-78.0-0.0,voc_e2,11998,"[{""event"":""fullscreenenter"",""trial"":1,""time"":2643}]",NA,NA,NA,NA,NA,4,#741CD8,#D8271C,10,0,1,38,1,634.5,39,0,5886.600000023842,0,0,experiment,NA,NA,2,0.5,0.5,4,5,70,2,NA
fcp-trial,116,686003,0.0-79.0-0.0,voc_e2,11998,"[{""event"":""fullscreenenter"",""trial"":1,""time"":2643}]",NA,NA,NA,NA,NA,5,#741CD8,#D8271C,0,0,1,38,1,165.60000002384186,37,1,1131.5,0,1,experiment,NA,NA,2,0.5,0.5,4,5,71,2,NA
fcp-trial,117,693705,0.0-80.0-0.0,voc_e2,11998,"[{""event"":""fullscreenenter"",""trial"":1,""time"":2643}]",NA,NA,NA,NA,NA,1,#1CD855,#FA92F8,0,0,1,40,0,517.5999999940395,37,1,5678.699999988079,0,1,experiment,NA,NA,1,0.7,0.3,2,3,72,2,NA
fcp-trial,118,696420,0.0-81.0-0.0,voc_e2,11998,"[{""event"":""fullscreenenter"",""trial"":1,""time"":2643}]",NA,NA,NA,NA,NA,4,#3386FF,#D89F1C,10,0,1,38,1,309.69999998807907,37,1,902.5,10,1,experiment,NA,NA,0,0.9,0.1,0,1,73,2,NA
fcp-trial,119,699718,0.0-82.0-0.0,voc_e2,11998,"[{""event"":""fullscreenenter"",""trial"":1,""time"":2643}]",NA,NA,NA,NA,NA,6,#D8271C,#741CD8,10,10,0,38,1,1133.800000011921,37,1,660.9000000059605,10,0,experiment,NA,NA,2,0.5,0.5,5,4,74,2,NA
fcp-trial,120,702129,0.0-83.0-0.0,voc_e2,11998,"[{""event"":""fullscreenenter"",""trial"":1,""time"":2643}]",NA,NA,NA,NA,NA,2,#1CD855,#FA92F8,10,10,1,38,1,288.5,37,1,617.9000000059605,10,1,experiment,NA,NA,1,0.7,0.3,2,3,75,2,NA
fcp-trial,121,704068,0.0-84.0-0.0,voc_e2,11998,"[{""event"":""fullscreenenter"",""trial"":1,""time"":2643}]",NA,NA,NA,NA,NA,6,#3386FF,#D89F1C,10,0,1,38,1,2.300000011920929,37,1,431,10,1,experiment,NA,NA,0,0.9,0.1,0,1,76,2,NA
fcp-trial,122,706167,0.0-85.0-0.0,voc_e2,11998,"[{""event"":""fullscreenenter"",""trial"":1,""time"":2643}]",NA,NA,NA,NA,NA,0,#741CD8,#D8271C,10,10,1,38,1,65,37,1,529.7999999821186,10,1,experiment,NA,NA,2,0.5,0.5,4,5,77,2,NA
fcp-trial,123,708380,0.0-86.0-0.0,voc_e2,11998,"[{""event"":""fullscreenenter"",""trial"":1,""time"":2643}]",NA,NA,NA,NA,NA,0,#FA92F8,#1CD855,0,10,0,38,1,451.30000001192093,39,0,256,10,1,experiment,NA,NA,1,0.3,0.7,3,2,78,2,NA
fcp-trial,124,710993,0.0-87.0-0.0,voc_e2,11998,"[{""event"":""fullscreenenter"",""trial"":1,""time"":2643}]",NA,NA,NA,NA,NA,1,#D8271C,#741CD8,0,0,0,40,0,684.9000000059605,39,0,421.30000001192093,0,1,experiment,NA,NA,2,0.5,0.5,5,4,79,2,NA
fcp-trial,125,713498,0.0-88.0-0.0,voc_e2,11998,"[{""event"":""fullscreenenter"",""trial"":1,""time"":2643}]",NA,NA,NA,NA,NA,1,#D89F1C,#3386FF,10,10,0,38,1,483.90000000596046,39,0,517.2999999821186,10,1,experiment,NA,NA,0,0.1,0.9,1,0,80,2,NA
fcp-trial,126,728502,0.0-89.0-0.0,voc_e2,11998,"[{""event"":""fullscreenenter"",""trial"":1,""time"":2643}]",NA,NA,NA,NA,NA,3,#741CD8,#D8271C,10,0,1,null,null,null,null,null,null,NA,0,experiment,NA,NA,2,0.5,0.5,4,5,81,2,NA
fcp-trial,127,733039,0.0-90.0-0.0,voc_e2,11998,"[{""event"":""fullscreenenter"",""trial"":1,""time"":2643}]",NA,NA,NA,NA,NA,4,#FA92F8,#1CD855,10,0,0,40,0,2285.4000000059605,37,1,742.4000000059605,10,0,experiment,NA,NA,1,0.3,0.7,3,2,82,2,NA
fcp-trial,128,736038,0.0-91.0-0.0,voc_e2,11998,"[{""event"":""fullscreenenter"",""trial"":1,""time"":2643}]",NA,NA,NA,NA,NA,3,#3386FF,#D89F1C,10,0,1,38,1,68.90000000596046,39,0,1423.300000011921,0,0,experiment,NA,NA,0,0.9,0.1,0,1,83,2,NA
fcp-trial,129,737901,0.0-92.0-0.0,voc_e2,11998,"[{""event"":""fullscreenenter"",""trial"":1,""time"":2643}]",NA,NA,NA,NA,NA,6,#1CD855,#FA92F8,10,0,1,38,1,75,37,1,277.40000000596046,10,1,experiment,NA,NA,1,0.7,0.3,2,3,84,2,NA
fcp-trial,130,741241,0.0-93.0-0.0,voc_e2,11998,"[{""event"":""fullscreenenter"",""trial"":1,""time"":2643}]",NA,NA,NA,NA,NA,1,#D89F1C,#3386FF,0,0,0,38,1,689.5,39,0,1145.6000000238419,0,1,experiment,NA,NA,0,0.1,0.9,1,0,85,2,NA
fcp-trial,131,744414,0.0-94.0-0.0,voc_e2,11998,"[{""event"":""fullscreenenter"",""trial"":1,""time"":2643}]",NA,NA,NA,NA,NA,0,#D89F1C,#3386FF,0,10,0,40,0,382.30000001192093,39,0,1285.5,10,1,experiment,NA,NA,0,0.1,0.9,1,0,86,2,NA
fcp-trial,132,746565,0.0-95.0-0.0,voc_e2,11998,"[{""event"":""fullscreenenter"",""trial"":1,""time"":2643}]",NA,NA,NA,NA,NA,3,#1CD855,#FA92F8,10,0,1,38,1,301.40000000596046,39,0,343.30000001192093,0,0,experiment,NA,NA,1,0.7,0.3,2,3,87,2,NA
fcp-trial,133,748812,0.0-96.0-0.0,voc_e2,11998,"[{""event"":""fullscreenenter"",""trial"":1,""time"":2643}]",NA,NA,NA,NA,NA,4,#FA92F8,#1CD855,0,0,0,38,1,144,39,0,599.9000000059605,0,1,experiment,NA,NA,1,0.3,0.7,3,2,88,2,NA
fcp-trial,134,751615,0.0-97.0-0.0,voc_e2,11998,"[{""event"":""fullscreenenter"",""trial"":1,""time"":2643}]",NA,NA,NA,NA,NA,5,#1CD855,#FA92F8,0,0,1,40,0,57.19999998807907,37,1,1240.2000000178814,0,1,experiment,NA,NA,1,0.7,0.3,2,3,89,2,NA
fcp-trial,135,754075,0.0-98.0-0.0,voc_e2,11998,"[{""event"":""fullscreenenter"",""trial"":1,""time"":2643}]",NA,NA,NA,NA,NA,4,#D8271C,#741CD8,0,0,0,40,0,153.90000000596046,37,1,802.5,0,0,experiment,NA,NA,2,0.5,0.5,5,4,90,2,NA
fcp-trial,136,756335,0.0-99.0-0.0,voc_e2,11998,"[{""event"":""fullscreenenter"",""trial"":1,""time"":2643}]",NA,NA,NA,NA,NA,4,#3386FF,#D89F1C,10,0,1,40,0,105.90000000596046,37,1,650.3999999761581,10,1,experiment,NA,NA,0,0.9,0.1,0,1,91,3,NA
fcp-trial,137,758325,0.0-100.0-0.0,voc_e2,11998,"[{""event"":""fullscreenenter"",""trial"":1,""time"":2643}]",NA,NA,NA,NA,NA,1,#FA92F8,#1CD855,0,10,0,38,1,25.400000005960464,37,1,460.09999999403954,0,0,experiment,NA,NA,1,0.3,0.7,3,2,92,3,NA
fcp-trial,138,762196,0.0-101.0-0.0,voc_e2,11998,"[{""event"":""fullscreenenter"",""trial"":1,""time"":2643}]",NA,NA,NA,NA,NA,0,#D8271C,#741CD8,0,0,0,40,0,33.70000001788139,39,0,2331.7999999821186,0,1,experiment,NA,NA,2,0.5,0.5,5,4,93,3,NA
fcp-trial,139,764895,0.0-102.0-0.0,voc_e2,11998,"[{""event"":""fullscreenenter"",""trial"":1,""time"":2643}]",NA,NA,NA,NA,NA,3,#D89F1C,#3386FF,0,10,0,38,1,559.6999999880791,39,0,633.1000000238419,10,1,experiment,NA,NA,0,0.1,0.9,1,0,94,3,NA
fcp-trial,140,767703,0.0-103.0-0.0,voc_e2,11998,"[{""event"":""fullscreenenter"",""trial"":1,""time"":2643}]",NA,NA,NA,NA,NA,5,#3386FF,#D89F1C,10,0,1,40,0,878.1999999880791,39,0,422.5,0,0,experiment,NA,NA,0,0.9,0.1,0,1,95,3,NA
fcp-trial,141,773174,0.0-104.0-0.0,voc_e2,11998,"[{""event"":""fullscreenenter"",""trial"":1,""time"":2643}]",NA,NA,NA,NA,NA,5,#741CD8,#D8271C,0,0,1,40,0,789.7999999821186,39,0,3176.2000000178814,0,0,experiment,NA,NA,2,0.5,0.5,4,5,96,3,NA
fcp-trial,142,776236,0.0-105.0-0.0,voc_e2,11998,"[{""event"":""fullscreenenter"",""trial"":1,""time"":2643}]",NA,NA,NA,NA,NA,0,#FA92F8,#1CD855,10,10,0,38,1,1.2999999821186066,39,0,1556.5999999940395,10,1,experiment,NA,NA,1,0.3,0.7,3,2,97,3,NA
fcp-trial,143,778536,0.0-106.0-0.0,voc_e2,11998,"[{""event"":""fullscreenenter"",""trial"":1,""time"":2643}]",NA,NA,NA,NA,NA,1,#741CD8,#D8271C,10,10,1,38,1,159.90000000596046,37,1,635.6999999880791,10,1,experiment,NA,NA,2,0.5,0.5,4,5,98,3,NA
fcp-trial,144,782635,0.0-107.0-0.0,voc_e2,11998,"[{""event"":""fullscreenenter"",""trial"":1,""time"":2643}]",NA,NA,NA,NA,NA,3,#741CD8,#D8271C,0,10,1,40,0,160.40000000596046,37,1,2434.699999988079,0,1,experiment,NA,NA,2,0.5,0.5,4,5,99,3,NA
fcp-trial,145,791057,0.0-108.0-0.0,voc_e2,11998,"[{""event"":""fullscreenenter"",""trial"":1,""time"":2643}]",NA,NA,NA,NA,NA,2,#D89F1C,#3386FF,0,10,0,40,0,2481.800000011921,39,0,4434.4000000059605,10,1,experiment,NA,NA,0,0.1,0.9,1,0,100,3,NA
fcp-trial,146,792958,0.0-109.0-0.0,voc_e2,11998,"[{""event"":""fullscreenenter"",""trial"":1,""time"":2643}]",NA,NA,NA,NA,NA,2,#1CD855,#FA92F8,0,0,1,38,1,96.40000000596046,39,0,301,0,0,experiment,NA,NA,1,0.7,0.3,2,3,101,3,NA
fcp-trial,147,797683,0.0-110.0-0.0,voc_e2,11998,"[{""event"":""fullscreenenter"",""trial"":1,""time"":2643}]",NA,NA,NA,NA,NA,6,#D89F1C,#3386FF,0,10,0,40,0,761.2999999821186,37,1,2458.5999999940395,0,0,experiment,NA,NA,0,0.1,0.9,1,0,102,3,NA
fcp-trial,148,804462,0.0-111.0-0.0,voc_e2,11998,"[{""event"":""fullscreenenter"",""trial"":1,""time"":2643}]",NA,NA,NA,NA,NA,6,#FA92F8,#1CD855,10,10,0,38,1,2966.7000000178814,37,1,2307.5999999940395,10,0,experiment,NA,NA,1,0.3,0.7,3,2,103,3,NA
fcp-trial,149,807965,0.0-112.0-0.0,voc_e2,11998,"[{""event"":""fullscreenenter"",""trial"":1,""time"":2643}]",NA,NA,NA,NA,NA,6,#D8271C,#741CD8,0,0,0,38,1,156.5,39,0,1841.0999999940395,0,1,experiment,NA,NA,2,0.5,0.5,5,4,104,3,NA
fcp-trial,150,810768,0.0-113.0-0.0,voc_e2,11998,"[{""event"":""fullscreenenter"",""trial"":1,""time"":2643}]",NA,NA,NA,NA,NA,2,#741CD8,#D8271C,0,0,1,40,0,192.40000000596046,39,0,1105.5,0,0,experiment,NA,NA,2,0.5,0.5,4,5,105,3,NA
audio-instructions,151,3520914,0.0-114.0,voc_e2,11998,"[{""event"":""fullscreenenter"",""trial"":1,""time"":2643},{""event"":""blur"",""trial"":151,""time"":1112601},{""event"":""focus"",""trial"":151,""time"":3516825}]",NA,2704966.900000006,static/audio/pause.wav,NA,0,NA,NA,NA,NA,NA,NA,NA,NA,NA,NA,NA,NA,NA,NA,NA,NA,NA,NA,NA,NA,NA,NA,NA,NA,NA
fcp-trial,152,3524098,0.0-115.0-0.0,voc_e2,11998,"[{""event"":""fullscreenenter"",""trial"":1,""time"":2643},{""event"":""blur"",""trial"":151,""time"":1112601},{""event"":""focus"",""trial"":151,""time"":3516825}]",NA,NA,NA,NA,NA,5,#D8271C,#741CD8,10,0,0,38,1,1299.2999999821186,37,1,376.40000000596046,10,0,experiment,NA,NA,2,0.5,0.5,5,4,106,3,NA
fcp-trial,153,3526251,0.0-116.0-0.0,voc_e2,11998,"[{""event"":""fullscreenenter"",""trial"":1,""time"":2643},{""event"":""blur"",""trial"":151,""time"":1112601},{""event"":""focus"",""trial"":151,""time"":3516825}]",NA,NA,NA,NA,NA,5,#3386FF,#D89F1C,0,0,1,38,1,320.59999999403954,37,1,328,0,1,experiment,NA,NA,0,0.9,0.1,0,1,107,3,NA
fcp-trial,154,3528648,0.0-117.0-0.0,voc_e2,11998,"[{""event"":""fullscreenenter"",""trial"":1,""time"":2643},{""event"":""blur"",""trial"":151,""time"":1112601},{""event"":""focus"",""trial"":151,""time"":3516825}]",NA,NA,NA,NA,NA,0,#D8271C,#741CD8,10,0,0,40,0,203.69999998807907,39,0,685.6999999880791,0,1,experiment,NA,NA,2,0.5,0.5,5,4,108,3,NA
fcp-trial,155,3532393,0.0-118.0-0.0,voc_e2,11998,"[{""event"":""fullscreenenter"",""trial"":1,""time"":2643},{""event"":""blur"",""trial"":151,""time"":1112601},{""event"":""focus"",""trial"":151,""time"":3516825}]",NA,NA,NA,NA,NA,4,#1CD855,#FA92F8,10,0,1,40,0,138.59999999403954,39,0,2103.2999999821186,0,0,experiment,NA,NA,1,0.7,0.3,2,3,109,3,NA
fcp-trial,156,3534958,0.0-119.0-0.0,voc_e2,11998,"[{""event"":""fullscreenenter"",""trial"":1,""time"":2643},{""event"":""blur"",""trial"":151,""time"":1112601},{""event"":""focus"",""trial"":151,""time"":3516825}]",NA,NA,NA,NA,NA,4,#D89F1C,#3386FF,0,10,0,38,1,559.5999999940395,39,0,500.2000000178814,10,1,experiment,NA,NA,0,0.1,0.9,1,0,110,3,NA
fcp-trial,157,3538230,0.0-120.0-0.0,voc_e2,11998,"[{""event"":""fullscreenenter"",""trial"":1,""time"":2643},{""event"":""blur"",""trial"":151,""time"":1112601},{""event"":""focus"",""trial"":151,""time"":3516825}]",NA,NA,NA,NA,NA,3,#D89F1C,#3386FF,0,10,0,40,0,464.19999998807907,39,0,1296.3999999761581,10,1,experiment,NA,NA,0,0.1,0.9,1,0,111,3,NA
fcp-trial,158,3540437,0.0-121.0-0.0,voc_e2,11998,"[{""event"":""fullscreenenter"",""trial"":1,""time"":2643},{""event"":""blur"",""trial"":151,""time"":1112601},{""event"":""focus"",""trial"":151,""time"":3516825}]",NA,NA,NA,NA,NA,5,#FA92F8,#1CD855,0,10,0,38,1,225.19999998807907,39,0,474.90000000596046,10,1,experiment,NA,NA,1,0.3,0.7,3,2,112,3,NA
fcp-trial,159,3543222,0.0-122.0-0.0,voc_e2,11998,"[{""event"":""fullscreenenter"",""trial"":1,""time"":2643},{""event"":""blur"",""trial"":151,""time"":1112601},{""event"":""focus"",""trial"":151,""time"":3516825}]",NA,NA,NA,NA,NA,1,#D8271C,#741CD8,10,10,0,38,1,252.59999999403954,37,1,1026.9000000059605,10,0,experiment,NA,NA,2,0.5,0.5,5,4,113,3,NA
fcp-trial,160,3546378,0.0-123.0-0.0,voc_e2,11998,"[{""event"":""fullscreenenter"",""trial"":1,""time"":2643},{""event"":""blur"",""trial"":151,""time"":1112601},{""event"":""focus"",""trial"":151,""time"":3516825}]",NA,NA,NA,NA,NA,3,#D8271C,#741CD8,0,0,0,40,0,423,37,1,1225.7000000178814,0,0,experiment,NA,NA,2,0.5,0.5,5,4,114,3,NA
fcp-trial,161,3562598,0.0-124.0-0.0,voc_e2,11998,"[{""event"":""fullscreenenter"",""trial"":1,""time"":2643},{""event"":""blur"",""trial"":151,""time"":1112601},{""event"":""focus"",""trial"":151,""time"":3516825}]",NA,NA,NA,NA,NA,6,#1CD855,#FA92F8,10,10,1,40,0,964.3000000119209,null,null,null,NA,0,experiment,NA,NA,1,0.7,0.3,2,3,115,3,NA
fcp-trial,162,3565646,0.0-125.0-0.0,voc_e2,11998,"[{""event"":""fullscreenenter"",""trial"":1,""time"":2643},{""event"":""blur"",""trial"":151,""time"":1112601},{""event"":""focus"",""trial"":151,""time"":3516825}]",NA,NA,NA,NA,NA,2,#D89F1C,#3386FF,10,10,0,40,0,593.5999999940395,37,1,948.6000000238419,10,0,experiment,NA,NA,0,0.1,0.9,1,0,116,3,NA
fcp-trial,163,3568481,0.0-126.0-0.0,voc_e2,11998,"[{""event"":""fullscreenenter"",""trial"":1,""time"":2643},{""event"":""blur"",""trial"":151,""time"":1112601},{""event"":""focus"",""trial"":151,""time"":3516825}]",NA,NA,NA,NA,NA,2,#D8271C,#741CD8,10,0,0,40,0,705.7999999821186,37,1,624.2000000178814,10,0,experiment,NA,NA,2,0.5,0.5,5,4,117,3,NA
fcp-trial,164,3570762,0.0-127.0-0.0,voc_e2,11998,"[{""event"":""fullscreenenter"",""trial"":1,""time"":2643},{""event"":""blur"",""trial"":151,""time"":1112601},{""event"":""focus"",""trial"":151,""time"":3516825}]",NA,NA,NA,NA,NA,1,#1CD855,#FA92F8,10,0,1,40,0,219.5,37,1,555.1999999880791,10,1,experiment,NA,NA,1,0.7,0.3,2,3,118,3,NA
fcp-trial,165,3580935,0.0-128.0-0.0,voc_e2,11998,"[{""event"":""fullscreenenter"",""trial"":1,""time"":2643},{""event"":""blur"",""trial"":151,""time"":1112601},{""event"":""focus"",""trial"":151,""time"":3516825}]",NA,NA,NA,NA,NA,0,#D89F1C,#3386FF,0,10,0,40,0,339.39999997615814,39,0,8328.300000011921,10,1,experiment,NA,NA,0,0.1,0.9,1,0,119,3,NA
fcp-trial,166,3584505,0.0-129.0-0.0,voc_e2,11998,"[{""event"":""fullscreenenter"",""trial"":1,""time"":2643},{""event"":""blur"",""trial"":151,""time"":1112601},{""event"":""focus"",""trial"":151,""time"":3516825}]",NA,NA,NA,NA,NA,1,#D89F1C,#3386FF,10,10,0,40,0,640.0999999940395,37,1,1425.7000000178814,10,0,experiment,NA,NA,0,0.1,0.9,1,0,120,3,NA
fcp-trial,167,3586974,0.0-130.0-0.0,voc_e2,11998,"[{""event"":""fullscreenenter"",""trial"":1,""time"":2643},{""event"":""blur"",""trial"":151,""time"":1112601},{""event"":""focus"",""trial"":151,""time"":3516825}]",NA,NA,NA,NA,NA,2,#FA92F8,#1CD855,10,10,0,40,0,22.599999994039536,37,1,942.7000000178814,10,0,experiment,NA,NA,1,0.3,0.7,3,2,121,3,NA
fcp-trial,168,3602478,0.0-131.0-0.0,voc_e2,11998,"[{""event"":""fullscreenenter"",""trial"":1,""time"":2643},{""event"":""blur"",""trial"":151,""time"":1112601},{""event"":""focus"",""trial"":151,""time"":3516825}]",NA,NA,NA,NA,NA,4,#741CD8,#D8271C,10,10,1,40,0,246.90000000596046,null,null,null,NA,0,experiment,NA,NA,2,0.5,0.5,4,5,122,3,NA
fcp-trial,169,3605120,0.0-132.0-0.0,voc_e2,11998,"[{""event"":""fullscreenenter"",""trial"":1,""time"":2643},{""event"":""blur"",""trial"":151,""time"":1112601},{""event"":""focus"",""trial"":151,""time"":3516825}]",NA,NA,NA,NA,NA,6,#D89F1C,#3386FF,0,0,0,40,0,377.19999998807907,37,1,741,0,0,experiment,NA,NA,0,0.1,0.9,1,0,123,3,NA
fcp-trial,170,3607768,0.0-133.0-0.0,voc_e2,11998,"[{""event"":""fullscreenenter"",""trial"":1,""time"":2643},{""event"":""blur"",""trial"":151,""time"":1112601},{""event"":""focus"",""trial"":151,""time"":3516825}]",NA,NA,NA,NA,NA,3,#FA92F8,#1CD855,0,10,0,40,0,482.5,37,1,658.5,0,0,experiment,NA,NA,1,0.3,0.7,3,2,124,3,NA
fcp-trial,171,3613001,0.0-134.0-0.0,voc_e2,11998,"[{""event"":""fullscreenenter"",""trial"":1,""time"":2643},{""event"":""blur"",""trial"":151,""time"":1112601},{""event"":""focus"",""trial"":151,""time"":3516825}]",NA,NA,NA,NA,NA,0,#FA92F8,#1CD855,10,0,0,40,0,2924.5,39,0,805,0,1,experiment,NA,NA,1,0.3,0.7,3,2,125,3,NA
fcp-trial,172,3615349,0.0-135.0-0.0,voc_e2,11998,"[{""event"":""fullscreenenter"",""trial"":1,""time"":2643},{""event"":""blur"",""trial"":151,""time"":1112601},{""event"":""focus"",""trial"":151,""time"":3516825}]",NA,NA,NA,NA,NA,6,#D8271C,#741CD8,0,10,0,40,0,451.5,37,1,390.80000001192093,0,0,experiment,NA,NA,2,0.5,0.5,5,4,126,3,NA
fcp-trial,173,3618349,0.0-136.0-0.0,voc_e2,11998,"[{""event"":""fullscreenenter"",""trial"":1,""time"":2643},{""event"":""blur"",""trial"":151,""time"":1112601},{""event"":""focus"",""trial"":151,""time"":3516825}]",NA,NA,NA,NA,NA,1,#D89F1C,#3386FF,0,10,0,40,0,753.0999999940395,39,0,743,10,1,experiment,NA,NA,0,0.1,0.9,1,0,127,3,NA
fcp-trial,174,3620959,0.0-137.0-0.0,voc_e2,11998,"[{""event"":""fullscreenenter"",""trial"":1,""time"":2643},{""event"":""blur"",""trial"":151,""time"":1112601},{""event"":""focus"",""trial"":151,""time"":3516825}]",NA,NA,NA,NA,NA,3,#3386FF,#D89F1C,0,0,1,40,0,630.5999999940395,37,1,474.09999999403954,0,1,experiment,NA,NA,0,0.9,0.1,0,1,128,3,NA
fcp-trial,175,3623849,0.0-138.0-0.0,voc_e2,11998,"[{""event"":""fullscreenenter"",""trial"":1,""time"":2643},{""event"":""blur"",""trial"":151,""time"":1112601},{""event"":""focus"",""trial"":151,""time"":3516825}]",NA,NA,NA,NA,NA,1,#741CD8,#D8271C,0,10,1,40,0,584.6999999880791,39,0,800.4000000059605,10,0,experiment,NA,NA,2,0.5,0.5,4,5,129,3,NA
fcp-trial,176,3626558,0.0-139.0-0.0,voc_e2,11998,"[{""event"":""fullscreenenter"",""trial"":1,""time"":2643},{""event"":""blur"",""trial"":151,""time"":1112601},{""event"":""focus"",""trial"":151,""time"":3516825}]",NA,NA,NA,NA,NA,5,#FA92F8,#1CD855,0,0,0,38,1,653.1000000238419,37,1,550.7999999821186,0,0,experiment,NA,NA,1,0.3,0.7,3,2,130,3,NA
fcp-trial,177,3629066,0.0-140.0-0.0,voc_e2,11998,"[{""event"":""fullscreenenter"",""trial"":1,""time"":2643},{""event"":""blur"",""trial"":151,""time"":1112601},{""event"":""focus"",""trial"":151,""time"":3516825}]",NA,NA,NA,NA,NA,6,#D89F1C,#3386FF,0,10,0,38,1,480.40000000596046,39,0,521,10,1,experiment,NA,NA,0,0.1,0.9,1,0,131,3,NA
fcp-trial,178,3635473,0.0-141.0-0.0,voc_e2,11998,"[{""event"":""fullscreenenter"",""trial"":1,""time"":2643},{""event"":""blur"",""trial"":151,""time"":1112601},{""event"":""focus"",""trial"":151,""time"":3516825}]",NA,NA,NA,NA,NA,6,#FA92F8,#1CD855,0,10,0,38,1,3681.199999988079,39,0,1221.9000000059605,10,1,experiment,NA,NA,1,0.3,0.7,3,2,132,3,NA
fcp-trial,179,3638701,0.0-142.0-0.0,voc_e2,11998,"[{""event"":""fullscreenenter"",""trial"":1,""time"":2643},{""event"":""blur"",""trial"":151,""time"":1112601},{""event"":""focus"",""trial"":151,""time"":3516825}]",NA,NA,NA,NA,NA,0,#FA92F8,#1CD855,0,10,0,38,1,1373.5,37,1,348.90000000596046,0,0,experiment,NA,NA,1,0.3,0.7,3,2,133,3,NA
fcp-trial,180,3642252,0.0-143.0-0.0,voc_e2,11998,"[{""event"":""fullscreenenter"",""trial"":1,""time"":2643},{""event"":""blur"",""trial"":151,""time"":1112601},{""event"":""focus"",""trial"":151,""time"":3516825}]",NA,NA,NA,NA,NA,2,#741CD8,#D8271C,10,0,1,38,1,1361.7000000178814,39,0,684.0999999940395,0,0,experiment,NA,NA,2,0.5,0.5,4,5,134,3,NA
fcp-trial,181,3644424,0.0-144.0-0.0,voc_e2,11998,"[{""event"":""fullscreenenter"",""trial"":1,""time"":2643},{""event"":""blur"",""trial"":151,""time"":1112601},{""event"":""focus"",""trial"":151,""time"":3516825}]",NA,NA,NA,NA,NA,4,#1CD855,#FA92F8,10,0,1,38,1,306.2999999821186,37,1,360.10000002384186,10,1,experiment,NA,NA,1,0.7,0.3,2,3,135,3,NA
fcp-trial,182,3649072,0.0-145.0-0.0,voc_e2,11998,"[{""event"":""fullscreenenter"",""trial"":1,""time"":2643},{""event"":""blur"",""trial"":151,""time"":1112601},{""event"":""focus"",""trial"":151,""time"":3516825}]",NA,NA,NA,NA,NA,4,#3386FF,#D89F1C,10,0,1,38,1,1252.5999999940395,39,0,1890.9000000059605,0,0,experiment,NA,NA,0,0.9,0.1,0,1,136,4,NA
fcp-trial,183,3651777,0.0-146.0-0.0,voc_e2,11998,"[{""event"":""fullscreenenter"",""trial"":1,""time"":2643},{""event"":""blur"",""trial"":151,""time"":1112601},{""event"":""focus"",""trial"":151,""time"":3516825}]",NA,NA,NA,NA,NA,1,#FA92F8,#1CD855,0,10,0,38,1,691.3000000119209,37,1,509.7999999821186,0,0,experiment,NA,NA,1,0.3,0.7,3,2,137,4,NA
fcp-trial,184,3655499,0.0-147.0-0.0,voc_e2,11998,"[{""event"":""fullscreenenter"",""trial"":1,""time"":2643},{""event"":""blur"",""trial"":151,""time"":1112601},{""event"":""focus"",""trial"":151,""time"":3516825}]",NA,NA,NA,NA,NA,0,#741CD8,#D8271C,0,0,1,38,1,90.90000000596046,39,0,2123,0,0,experiment,NA,NA,2,0.5,0.5,4,5,138,4,NA
fcp-trial,185,3659637,0.0-148.0-0.0,voc_e2,11998,"[{""event"":""fullscreenenter"",""trial"":1,""time"":2643},{""event"":""blur"",""trial"":151,""time"":1112601},{""event"":""focus"",""trial"":151,""time"":3516825}]",NA,NA,NA,NA,NA,4,#741CD8,#D8271C,0,0,1,38,1,2276.0999999940395,37,1,355.7999999821186,0,1,experiment,NA,NA,2,0.5,0.5,4,5,139,4,NA
fcp-trial,186,3666263,0.0-149.0-0.0,voc_e2,11998,"[{""event"":""fullscreenenter"",""trial"":1,""time"":2643},{""event"":""blur"",""trial"":151,""time"":1112601},{""event"":""focus"",""trial"":151,""time"":3516825}]",NA,NA,NA,NA,NA,6,#741CD8,#D8271C,10,0,1,38,1,2707.2999999821186,39,0,2413.5,0,0,experiment,NA,NA,2,0.5,0.5,4,5,140,4,NA
fcp-trial,187,3669710,0.0-150.0-0.0,voc_e2,11998,"[{""event"":""fullscreenenter"",""trial"":1,""time"":2643},{""event"":""blur"",""trial"":151,""time"":1112601},{""event"":""focus"",""trial"":151,""time"":3516825}]",NA,NA,NA,NA,NA,0,#3386FF,#D89F1C,10,0,1,38,1,1482.7000000178814,39,0,457.69999998807907,0,0,experiment,NA,NA,0,0.9,0.1,0,1,141,4,NA
fcp-trial,188,3672850,0.0-151.0-0.0,voc_e2,11998,"[{""event"":""fullscreenenter"",""trial"":1,""time"":2643},{""event"":""blur"",""trial"":151,""time"":1112601},{""event"":""focus"",""trial"":151,""time"":3516825}]",NA,NA,NA,NA,NA,3,#1CD855,#FA92F8,10,0,1,38,1,979.5,39,0,655.0999999940395,0,0,experiment,NA,NA,1,0.7,0.3,2,3,142,4,NA
fcp-trial,189,3675776,0.0-152.0-0.0,voc_e2,11998,"[{""event"":""fullscreenenter"",""trial"":1,""time"":2643},{""event"":""blur"",""trial"":151,""time"":1112601},{""event"":""focus"",""trial"":151,""time"":3516825}]",NA,NA,NA,NA,NA,3,#741CD8,#D8271C,0,10,1,38,1,1003.4000000059605,39,0,416,10,0,experiment,NA,NA,2,0.5,0.5,4,5,143,4,NA
fcp-trial,190,3679749,0.0-153.0-0.0,voc_e2,11998,"[{""event"":""fullscreenenter"",""trial"":1,""time"":2643},{""event"":""blur"",""trial"":151,""time"":1112601},{""event"":""focus"",""trial"":151,""time"":3516825}]",NA,NA,NA,NA,NA,2,#FA92F8,#1CD855,0,10,0,38,1,764.5999999940395,39,0,1705,10,1,experiment,NA,NA,1,0.3,0.7,3,2,144,4,NA
fcp-trial,191,3682792,0.0-154.0-0.0,voc_e2,11998,"[{""event"":""fullscreenenter"",""trial"":1,""time"":2643},{""event"":""blur"",""trial"":151,""time"":1112601},{""event"":""focus"",""trial"":151,""time"":3516825}]",NA,NA,NA,NA,NA,2,#D89F1C,#3386FF,0,10,0,38,1,702.5999999940395,37,1,834,0,0,experiment,NA,NA,0,0.1,0.9,1,0,145,4,NA
fcp-trial,192,3686638,0.0-155.0-0.0,voc_e2,11998,"[{""event"":""fullscreenenter"",""trial"":1,""time"":2643},{""event"":""blur"",""trial"":151,""time"":1112601},{""event"":""focus"",""trial"":151,""time"":3516825}]",NA,NA,NA,NA,NA,5,#741CD8,#D8271C,0,10,1,38,1,716.4000000059605,39,0,1624.5999999940395,10,0,experiment,NA,NA,2,0.5,0.5,4,5,146,4,NA
fcp-trial,193,3691573,0.0-156.0-0.0,voc_e2,11998,"[{""event"":""fullscreenenter"",""trial"":1,""time"":2643},{""event"":""blur"",""trial"":151,""time"":1112601},{""event"":""focus"",""trial"":151,""time"":3516825}]",NA,NA,NA,NA,NA,5,#3386FF,#D89F1C,10,10,1,38,1,1947.2999999821186,39,0,1483,10,0,experiment,NA,NA,0,0.9,0.1,0,1,147,4,NA
fcp-trial,194,3696968,0.0-157.0-0.0,voc_e2,11998,"[{""event"":""fullscreenenter"",""trial"":1,""time"":2643},{""event"":""blur"",""trial"":151,""time"":1112601},{""event"":""focus"",""trial"":151,""time"":3516825}]",NA,NA,NA,NA,NA,1,#D89F1C,#3386FF,0,10,0,38,1,1631.199999988079,39,0,2258.5999999940395,10,1,experiment,NA,NA,0,0.1,0.9,1,0,148,4,NA
fcp-trial,195,3700034,0.0-158.0-0.0,voc_e2,11998,"[{""event"":""fullscreenenter"",""trial"":1,""time"":2643},{""event"":""blur"",""trial"":151,""time"":1112601},{""event"":""focus"",""trial"":151,""time"":3516825}]",NA,NA,NA,NA,NA,1,#741CD8,#D8271C,10,0,1,40,0,494.59999999403954,37,1,1064.2000000178814,10,1,experiment,NA,NA,2,0.5,0.5,4,5,149,4,NA
fcp-trial,196,3702096,0.0-159.0-0.0,voc_e2,11998,"[{""event"":""fullscreenenter"",""trial"":1,""time"":2643},{""event"":""blur"",""trial"":151,""time"":1112601},{""event"":""focus"",""trial"":151,""time"":3516825}]",NA,NA,NA,NA,NA,4,#D8271C,#741CD8,10,0,0,38,1,233.30000001192093,37,1,324.5,10,0,experiment,NA,NA,2,0.5,0.5,5,4,150,4,NA
fcp-trial,197,3705195,0.0-160.0-0.0,voc_e2,11998,"[{""event"":""fullscreenenter"",""trial"":1,""time"":2643},{""event"":""blur"",""trial"":151,""time"":1112601},{""event"":""focus"",""trial"":151,""time"":3516825}]",NA,NA,NA,NA,NA,5,#FA92F8,#1CD855,0,0,0,38,1,769.5999999940395,39,0,824.5,0,1,experiment,NA,NA,1,0.3,0.7,3,2,151,4,NA
fcp-trial,198,3707630,0.0-161.0-0.0,voc_e2,11998,"[{""event"":""fullscreenenter"",""trial"":1,""time"":2643},{""event"":""blur"",""trial"":151,""time"":1112601},{""event"":""focus"",""trial"":151,""time"":3516825}]",NA,NA,NA,NA,NA,2,#D8271C,#741CD8,0,0,0,38,1,97.7999999821186,37,1,833.4000000059605,0,0,experiment,NA,NA,2,0.5,0.5,5,4,152,4,NA
fcp-trial,199,3709666,0.0-162.0-0.0,voc_e2,11998,"[{""event"":""fullscreenenter"",""trial"":1,""time"":2643},{""event"":""blur"",""trial"":151,""time"":1112601},{""event"":""focus"",""trial"":151,""time"":3516825}]",NA,NA,NA,NA,NA,3,#D89F1C,#3386FF,0,10,0,38,1,181,39,0,349.80000001192093,10,1,experiment,NA,NA,0,0.1,0.9,1,0,153,4,NA
fcp-trial,200,3711581,0.0-163.0-0.0,voc_e2,11998,"[{""event"":""fullscreenenter"",""trial"":1,""time"":2643},{""event"":""blur"",""trial"":151,""time"":1112601},{""event"":""focus"",""trial"":151,""time"":3516825}]",NA,NA,NA,NA,NA,0,#FA92F8,#1CD855,0,10,0,38,1,13.299999982118607,39,0,397.90000000596046,10,1,experiment,NA,NA,1,0.3,0.7,3,2,154,4,NA
fcp-trial,201,3715630,0.0-164.0-0.0,voc_e2,11998,"[{""event"":""fullscreenenter"",""trial"":1,""time"":2643},{""event"":""blur"",""trial"":151,""time"":1112601},{""event"":""focus"",""trial"":151,""time"":3516825}]",NA,NA,NA,NA,NA,6,#3386FF,#D89F1C,10,10,1,38,1,566.4000000059605,37,1,1978.699999988079,10,1,experiment,NA,NA,0,0.9,0.1,0,1,155,4,NA
fcp-trial,202,3718703,0.0-165.0-0.0,voc_e2,11998,"[{""event"":""fullscreenenter"",""trial"":1,""time"":2643},{""event"":""blur"",""trial"":151,""time"":1112601},{""event"":""focus"",""trial"":151,""time"":3516825}]",NA,NA,NA,NA,NA,2,#FA92F8,#1CD855,0,10,0,38,1,164,39,0,1403.4000000059605,10,1,experiment,NA,NA,1,0.3,0.7,3,2,156,4,NA
fcp-trial,203,3725375,0.0-166.0-0.0,voc_e2,11998,"[{""event"":""fullscreenenter"",""trial"":1,""time"":2643},{""event"":""blur"",""trial"":151,""time"":1112601},{""event"":""focus"",""trial"":151,""time"":3516825}]",NA,NA,NA,NA,NA,5,#D8271C,#741CD8,10,10,0,40,0,1071.2999999821186,37,1,4096.5999999940395,10,0,experiment,NA,NA,2,0.5,0.5,5,4,157,4,NA
fcp-trial,204,3727443,0.0-167.0-0.0,voc_e2,11998,"[{""event"":""fullscreenenter"",""trial"":1,""time"":2643},{""event"":""blur"",""trial"":151,""time"":1112601},{""event"":""focus"",""trial"":151,""time"":3516825}]",NA,NA,NA,NA,NA,3,#1CD855,#FA92F8,10,0,1,38,1,96.7000000178814,37,1,464.10000002384186,10,1,experiment,NA,NA,1,0.7,0.3,2,3,158,4,NA
fcp-trial,205,3731331,0.0-168.0-0.0,voc_e2,11998,"[{""event"":""fullscreenenter"",""trial"":1,""time"":2643},{""event"":""blur"",""trial"":151,""time"":1112601},{""event"":""focus"",""trial"":151,""time"":3516825}]",NA,NA,NA,NA,NA,0,#D89F1C,#3386FF,0,10,0,40,0,167.10000002384186,39,0,2215.0999999940395,10,1,experiment,NA,NA,0,0.1,0.9,1,0,159,4,NA
fcp-trial,206,3736710,0.0-169.0-0.0,voc_e2,11998,"[{""event"":""fullscreenenter"",""trial"":1,""time"":2643},{""event"":""blur"",""trial"":151,""time"":1112601},{""event"":""focus"",""trial"":151,""time"":3516825}]",NA,NA,NA,NA,NA,2,#D89F1C,#3386FF,0,10,0,40,0,62.099999994039536,37,1,3812.199999988079,0,0,experiment,NA,NA,0,0.1,0.9,1,0,160,4,NA
fcp-trial,207,3739216,0.0-170.0-0.0,voc_e2,11998,"[{""event"":""fullscreenenter"",""trial"":1,""time"":2643},{""event"":""blur"",""trial"":151,""time"":1112601},{""event"":""focus"",""trial"":151,""time"":3516825}]",NA,NA,NA,NA,NA,3,#741CD8,#D8271C,0,10,1,38,1,509.39999997615814,37,1,493.19999998807907,0,1,experiment,NA,NA,2,0.5,0.5,4,5,161,4,NA
fcp-trial,208,3743430,0.0-171.0-0.0,voc_e2,11998,"[{""event"":""fullscreenenter"",""trial"":1,""time"":2643},{""event"":""blur"",""trial"":151,""time"":1112601},{""event"":""focus"",""trial"":151,""time"":3516825}]",NA,NA,NA,NA,NA,1,#FA92F8,#1CD855,10,10,0,38,1,103.09999999403954,37,1,2606.2000000178814,10,0,experiment,NA,NA,1,0.3,0.7,3,2,162,4,NA
fcp-trial,209,3745661,0.0-172.0-0.0,voc_e2,11998,"[{""event"":""fullscreenenter"",""trial"":1,""time"":2643},{""event"":""blur"",""trial"":151,""time"":1112601},{""event"":""focus"",""trial"":151,""time"":3516825}]",NA,NA,NA,NA,NA,0,#D8271C,#741CD8,10,0,0,38,1,442.59999999403954,37,1,282.90000000596046,10,0,experiment,NA,NA,2,0.5,0.5,5,4,163,4,NA
fcp-trial,210,3751869,0.0-173.0-0.0,voc_e2,11998,"[{""event"":""fullscreenenter"",""trial"":1,""time"":2643},{""event"":""blur"",""trial"":151,""time"":1112601},{""event"":""focus"",""trial"":151,""time"":3516825}]",NA,NA,NA,NA,NA,5,#3386FF,#D89F1C,0,10,1,38,1,400.69999998807907,39,0,4303.699999988079,10,0,experiment,NA,NA,0,0.9,0.1,0,1,164,4,NA
fcp-trial,211,3754636,0.0-174.0-0.0,voc_e2,11998,"[{""event"":""fullscreenenter"",""trial"":1,""time"":2643},{""event"":""blur"",""trial"":151,""time"":1112601},{""event"":""focus"",""trial"":151,""time"":3516825}]",NA,NA,NA,NA,NA,6,#741CD8,#D8271C,10,0,1,40,0,472.09999999403954,39,0,789.7999999821186,0,0,experiment,NA,NA,2,0.5,0.5,4,5,165,4,NA
fcp-trial,212,3757513,0.0-175.0-0.0,voc_e2,11998,"[{""event"":""fullscreenenter"",""trial"":1,""time"":2643},{""event"":""blur"",""trial"":151,""time"":1112601},{""event"":""focus"",""trial"":151,""time"":3516825}]",NA,NA,NA,NA,NA,4,#1CD855,#FA92F8,10,0,1,40,0,759.3999999761581,39,0,612.4000000059605,0,0,experiment,NA,NA,1,0.7,0.3,2,3,166,4,NA
fcp-trial,213,3762623,0.0-176.0-0.0,voc_e2,11998,"[{""event"":""fullscreenenter"",""trial"":1,""time"":2643},{""event"":""blur"",""trial"":151,""time"":1112601},{""event"":""focus"",""trial"":151,""time"":3516825}]",NA,NA,NA,NA,NA,4,#D89F1C,#3386FF,0,10,0,38,1,1173.0999999940395,39,0,2432.9000000059605,10,1,experiment,NA,NA,0,0.1,0.9,1,0,167,4,NA
fcp-trial,214,3765122,0.0-177.0-0.0,voc_e2,11998,"[{""event"":""fullscreenenter"",""trial"":1,""time"":2643},{""event"":""blur"",""trial"":151,""time"":1112601},{""event"":""focus"",""trial"":151,""time"":3516825}]",NA,NA,NA,NA,NA,6,#1CD855,#FA92F8,10,0,1,40,0,126.7000000178814,39,0,866.6999999880791,0,0,experiment,NA,NA,1,0.7,0.3,2,3,168,4,NA
fcp-trial,215,3767559,0.0-178.0-0.0,voc_e2,11998,"[{""event"":""fullscreenenter"",""trial"":1,""time"":2643},{""event"":""blur"",""trial"":151,""time"":1112601},{""event"":""focus"",""trial"":151,""time"":3516825}]",NA,NA,NA,NA,NA,1,#741CD8,#D8271C,10,10,1,38,1,654.6999999880791,37,1,277.89999997615814,10,1,experiment,NA,NA,2,0.5,0.5,4,5,169,4,NA
fcp-trial,216,3769651,0.0-179.0-0.0,voc_e2,11998,"[{""event"":""fullscreenenter"",""trial"":1,""time"":2643},{""event"":""blur"",""trial"":151,""time"":1112601},{""event"":""focus"",""trial"":151,""time"":3516825}]",NA,NA,NA,NA,NA,6,#1CD855,#FA92F8,0,0,1,40,0,111.69999998807907,39,0,474.30000001192093,0,0,experiment,NA,NA,1,0.7,0.3,2,3,170,4,NA
fcp-trial,217,3772060,0.0-180.0-0.0,voc_e2,11998,"[{""event"":""fullscreenenter"",""trial"":1,""time"":2643},{""event"":""blur"",""trial"":151,""time"":1112601},{""event"":""focus"",""trial"":151,""time"":3516825}]",NA,NA,NA,NA,NA,5,#FA92F8,#1CD855,0,0,0,38,1,249.09999999403954,39,0,653.5999999940395,0,1,experiment,NA,NA,1,0.3,0.7,3,2,171,4,NA
fcp-trial,218,3774301,0.0-181.0-0.0,voc_e2,11998,"[{""event"":""fullscreenenter"",""trial"":1,""time"":2643},{""event"":""blur"",""trial"":151,""time"":1112601},{""event"":""focus"",""trial"":151,""time"":3516825}]",NA,NA,NA,NA,NA,2,#3386FF,#D89F1C,10,0,1,40,0,381.7999999821186,37,1,354.2999999821186,10,1,experiment,NA,NA,0,0.9,0.1,0,1,172,4,NA
fcp-trial,219,3780509,0.0-182.0-0.0,voc_e2,11998,"[{""event"":""fullscreenenter"",""trial"":1,""time"":2643},{""event"":""blur"",""trial"":151,""time"":1112601},{""event"":""focus"",""trial"":151,""time"":3516825}]",NA,NA,NA,NA,NA,3,#741CD8,#D8271C,10,0,1,40,0,1560.0999999940395,37,1,3142.699999988079,10,1,experiment,NA,NA,2,0.5,0.5,4,5,173,4,NA
fcp-trial,220,3790484,0.0-183.0-0.0,voc_e2,11998,"[{""event"":""fullscreenenter"",""trial"":1,""time"":2643},{""event"":""blur"",""trial"":151,""time"":1112601},{""event"":""focus"",""trial"":151,""time"":3516825}]",NA,NA,NA,NA,NA,0,#1CD855,#FA92F8,10,0,1,38,1,48,39,0,8421,0,0,experiment,NA,NA,1,0.7,0.3,2,3,174,4,NA
fcp-trial,221,3792865,0.0-184.0-0.0,voc_e2,11998,"[{""event"":""fullscreenenter"",""trial"":1,""time"":2643},{""event"":""blur"",""trial"":151,""time"":1112601},{""event"":""focus"",""trial"":151,""time"":3516825}]",NA,NA,NA,NA,NA,2,#D8271C,#741CD8,10,10,0,38,1,145.59999999403954,37,1,732,10,0,experiment,NA,NA,2,0.5,0.5,5,4,175,4,NA
fcp-trial,222,3801749,0.0-185.0-0.0,voc_e2,11998,"[{""event"":""fullscreenenter"",""trial"":1,""time"":2643},{""event"":""blur"",""trial"":151,""time"":1112601},{""event"":""focus"",""trial"":151,""time"":3516825}]",NA,NA,NA,NA,NA,3,#D89F1C,#3386FF,0,10,0,40,0,6745.199999988079,37,1,631.9000000059605,0,0,experiment,NA,NA,0,0.1,0.9,1,0,176,4,NA
fcp-trial,223,3804292,0.0-186.0-0.0,voc_e2,11998,"[{""event"":""fullscreenenter"",""trial"":1,""time"":2643},{""event"":""blur"",""trial"":151,""time"":1112601},{""event"":""focus"",""trial"":151,""time"":3516825}]",NA,NA,NA,NA,NA,3,#FA92F8,#1CD855,0,0,0,38,1,351.5,39,0,685.0999999940395,0,1,experiment,NA,NA,1,0.3,0.7,3,2,177,4,NA
fcp-trial,224,3810881,0.0-187.0-0.0,voc_e2,11998,"[{""event"":""fullscreenenter"",""trial"":1,""time"":2643},{""event"":""blur"",""trial"":151,""time"":1112601},{""event"":""focus"",""trial"":151,""time"":3516825}]",NA,NA,NA,NA,NA,4,#1CD855,#FA92F8,10,0,1,38,1,215,39,0,4868.9000000059605,0,0,experiment,NA,NA,1,0.7,0.3,2,3,178,4,NA
fcp-trial,225,3815992,0.0-188.0-0.0,voc_e2,11998,"[{""event"":""fullscreenenter"",""trial"":1,""time"":2643},{""event"":""blur"",""trial"":151,""time"":1112601},{""event"":""focus"",""trial"":151,""time"":3516825}]",NA,NA,NA,NA,NA,5,#741CD8,#D8271C,0,0,1,40,0,2719,39,0,887.4000000059605,0,0,experiment,NA,NA,2,0.5,0.5,4,5,179,4,NA
fcp-trial,226,3819766,0.0-189.0-0.0,voc_e2,11998,"[{""event"":""fullscreenenter"",""trial"":1,""time"":2643},{""event"":""blur"",""trial"":151,""time"":1112601},{""event"":""focus"",""trial"":151,""time"":3516825}]",NA,NA,NA,NA,NA,2,#FA92F8,#1CD855,0,10,0,40,0,1815.5999999940395,39,0,450.19999998807907,10,1,experiment,NA,NA,1,0.3,0.7,3,2,180,4,NA
fcp-trial,227,3824126,0.0-190.0-0.0,voc_e2,11998,"[{""event"":""fullscreenenter"",""trial"":1,""time"":2643},{""event"":""blur"",""trial"":151,""time"":1112601},{""event"":""focus"",""trial"":151,""time"":3516825}]",NA,NA,NA,NA,NA,0,#3386FF,#D89F1C,10,0,1,40,0,836.3999999761581,37,1,2019.800000011921,10,1,experiment,NA,NA,0,0.9,0.1,0,1,181,5,NA
fcp-trial,228,3826330,0.0-191.0-0.0,voc_e2,11998,"[{""event"":""fullscreenenter"",""trial"":1,""time"":2643},{""event"":""blur"",""trial"":151,""time"":1112601},{""event"":""focus"",""trial"":151,""time"":3516825}]",NA,NA,NA,NA,NA,6,#741CD8,#D8271C,0,0,1,38,1,160.69999998807907,39,0,538.5999999940395,0,0,experiment,NA,NA,2,0.5,0.5,4,5,182,5,NA
fcp-trial,229,3832014,0.0-192.0-0.0,voc_e2,11998,"[{""event"":""fullscreenenter"",""trial"":1,""time"":2643},{""event"":""blur"",""trial"":151,""time"":1112601},{""event"":""focus"",""trial"":151,""time"":3516825}]",NA,NA,NA,NA,NA,4,#D89F1C,#3386FF,0,10,0,40,0,58.79999998211861,39,0,4119.600000023842,10,1,experiment,NA,NA,0,0.1,0.9,1,0,183,5,NA
fcp-trial,230,3834865,0.0-193.0-0.0,voc_e2,11998,"[{""event"":""fullscreenenter"",""trial"":1,""time"":2643},{""event"":""blur"",""trial"":151,""time"":1112601},{""event"":""focus"",""trial"":151,""time"":3516825}]",NA,NA,NA,NA,NA,5,#D89F1C,#3386FF,0,10,0,38,1,961,39,0,383.5,10,1,experiment,NA,NA,0,0.1,0.9,1,0,184,5,NA
fcp-trial,231,3837227,0.0-194.0-0.0,voc_e2,11998,"[{""event"":""fullscreenenter"",""trial"":1,""time"":2643},{""event"":""blur"",""trial"":151,""time"":1112601},{""event"":""focus"",""trial"":151,""time"":3516825}]",NA,NA,NA,NA,NA,1,#FA92F8,#1CD855,0,10,0,40,0,58.5,39,0,796.9000000059605,10,1,experiment,NA,NA,1,0.3,0.7,3,2,185,5,NA
fcp-trial,232,3840615,0.0-195.0-0.0,voc_e2,11998,"[{""event"":""fullscreenenter"",""trial"":1,""time"":2643},{""event"":""blur"",""trial"":151,""time"":1112601},{""event"":""focus"",""trial"":151,""time"":3516825}]",NA,NA,NA,NA,NA,6,#D89F1C,#3386FF,0,10,0,40,0,214.7000000178814,37,1,1668.5,0,0,experiment,NA,NA,0,0.1,0.9,1,0,186,5,NA
fcp-trial,233,3842850,0.0-196.0-0.0,voc_e2,11998,"[{""event"":""fullscreenenter"",""trial"":1,""time"":2643},{""event"":""blur"",""trial"":151,""time"":1112601},{""event"":""focus"",""trial"":151,""time"":3516825}]",NA,NA,NA,NA,NA,4,#741CD8,#D8271C,0,0,1,38,1,240.7000000178814,39,0,484.90000000596046,0,0,experiment,NA,NA,2,0.5,0.5,4,5,187,5,NA
fcp-trial,234,3845971,0.0-197.0-0.0,voc_e2,11998,"[{""event"":""fullscreenenter"",""trial"":1,""time"":2643},{""event"":""blur"",""trial"":151,""time"":1112601},{""event"":""focus"",""trial"":151,""time"":3516825}]",NA,NA,NA,NA,NA,0,#741CD8,#D8271C,10,10,1,40,0,889.8000000119209,39,0,725.0999999940395,10,0,experiment,NA,NA,2,0.5,0.5,4,5,188,5,NA
fcp-trial,235,3848752,0.0-198.0-0.0,voc_e2,11998,"[{""event"":""fullscreenenter"",""trial"":1,""time"":2643},{""event"":""blur"",""trial"":151,""time"":1112601},{""event"":""focus"",""trial"":151,""time"":3516825}]",NA,NA,NA,NA,NA,1,#3386FF,#D89F1C,10,0,1,40,0,506.90000000596046,39,0,766.7999999821186,0,0,experiment,NA,NA,0,0.9,0.1,0,1,189,5,NA
fcp-trial,236,3850871,0.0-199.0-0.0,voc_e2,11998,"[{""event"":""fullscreenenter"",""trial"":1,""time"":2643},{""event"":""blur"",""trial"":151,""time"":1112601},{""event"":""focus"",""trial"":151,""time"":3516825}]",NA,NA,NA,NA,NA,1,#3386FF,#D89F1C,10,0,1,38,1,199.40000000596046,37,1,413.09999999403954,10,1,experiment,NA,NA,0,0.9,0.1,0,1,190,5,NA
fcp-trial,237,3853253,0.0-200.0-0.0,voc_e2,11998,"[{""event"":""fullscreenenter"",""trial"":1,""time"":2643},{""event"":""blur"",""trial"":151,""time"":1112601},{""event"":""focus"",""trial"":151,""time"":3516825}]",NA,NA,NA,NA,NA,0,#741CD8,#D8271C,10,10,1,38,1,330.30000001192093,39,0,531.2999999821186,10,0,experiment,NA,NA,2,0.5,0.5,4,5,191,5,NA
fcp-trial,238,3855599,0.0-201.0-0.0,voc_e2,11998,"[{""event"":""fullscreenenter"",""trial"":1,""time"":2643},{""event"":""blur"",""trial"":151,""time"":1112601},{""event"":""focus"",""trial"":151,""time"":3516825}]",NA,NA,NA,NA,NA,5,#3386FF,#D89F1C,10,0,1,40,0,43.599999994039536,37,1,796.5,10,1,experiment,NA,NA,0,0.9,0.1,0,1,192,5,NA
fcp-trial,239,3857996,0.0-202.0-0.0,voc_e2,11998,"[{""event"":""fullscreenenter"",""trial"":1,""time"":2643},{""event"":""blur"",""trial"":151,""time"":1112601},{""event"":""focus"",""trial"":151,""time"":3516825}]",NA,NA,NA,NA,NA,6,#1CD855,#FA92F8,0,0,1,38,1,617.2000000178814,39,0,274.90000000596046,0,0,experiment,NA,NA,1,0.7,0.3,2,3,193,5,NA
fcp-trial,240,3860544,0.0-203.0-0.0,voc_e2,11998,"[{""event"":""fullscreenenter"",""trial"":1,""time"":2643},{""event"":""blur"",""trial"":151,""time"":1112601},{""event"":""focus"",""trial"":151,""time"":3516825}]",NA,NA,NA,NA,NA,4,#741CD8,#D8271C,10,0,1,40,0,152.19999998807907,39,0,890.9000000059605,0,0,experiment,NA,NA,2,0.5,0.5,4,5,194,5,NA
fcp-trial,241,3865113,0.0-204.0-0.0,voc_e2,11998,"[{""event"":""fullscreenenter"",""trial"":1,""time"":2643},{""event"":""blur"",""trial"":151,""time"":1112601},{""event"":""focus"",""trial"":151,""time"":3516825}]",NA,NA,NA,NA,NA,4,#3386FF,#D89F1C,10,0,1,40,0,883.2999999821186,39,0,2182.0999999940395,0,0,experiment,NA,NA,0,0.9,0.1,0,1,195,5,NA
fcp-trial,242,3867553,0.0-205.0-0.0,voc_e2,11998,"[{""event"":""fullscreenenter"",""trial"":1,""time"":2643},{""event"":""blur"",""trial"":151,""time"":1112601},{""event"":""focus"",""trial"":151,""time"":3516825}]",NA,NA,NA,NA,NA,3,#3386FF,#D89F1C,0,0,1,38,1,621.1999999880791,37,1,310.30000001192093,0,1,experiment,NA,NA,0,0.9,0.1,0,1,196,5,NA
fcp-trial,243,3870447,0.0-206.0-0.0,voc_e2,11998,"[{""event"":""fullscreenenter"",""trial"":1,""time"":2643},{""event"":""blur"",""trial"":151,""time"":1112601},{""event"":""focus"",""trial"":151,""time"":3516825}]",NA,NA,NA,NA,NA,1,#1CD855,#FA92F8,10,0,1,40,0,509.2000000178814,37,1,878.0999999940395,10,1,experiment,NA,NA,1,0.7,0.3,2,3,197,5,NA
fcp-trial,244,3873751,0.0-207.0-0.0,voc_e2,11998,"[{""event"":""fullscreenenter"",""trial"":1,""time"":2643},{""event"":""blur"",""trial"":151,""time"":1112601},{""event"":""focus"",""trial"":151,""time"":3516825}]",NA,NA,NA,NA,NA,3,#741CD8,#D8271C,0,0,1,38,1,385.90000000596046,39,0,1412.8999999761581,0,0,experiment,NA,NA,2,0.5,0.5,4,5,198,5,NA
fcp-trial,245,3877651,0.0-208.0-0.0,voc_e2,11998,"[{""event"":""fullscreenenter"",""trial"":1,""time"":2643},{""event"":""blur"",""trial"":151,""time"":1112601},{""event"":""focus"",""trial"":151,""time"":3516825}]",NA,NA,NA,NA,NA,5,#741CD8,#D8271C,10,0,1,38,1,685.2999999821186,39,0,1709.199999988079,0,0,experiment,NA,NA,2,0.5,0.5,4,5,199,5,NA
fcp-trial,246,3884399,0.0-209.0-0.0,voc_e2,11998,"[{""event"":""fullscreenenter"",""trial"":1,""time"":2643},{""event"":""blur"",""trial"":151,""time"":1112601},{""event"":""focus"",""trial"":151,""time"":3516825}]",NA,NA,NA,NA,NA,3,#FA92F8,#1CD855,0,0,0,40,0,1373.3999999761581,39,0,3870.2000000178814,0,1,experiment,NA,NA,1,0.3,0.7,3,2,200,5,NA
fcp-trial,247,3887115,0.0-210.0-0.0,voc_e2,11998,"[{""event"":""fullscreenenter"",""trial"":1,""time"":2643},{""event"":""blur"",""trial"":151,""time"":1112601},{""event"":""focus"",""trial"":151,""time"":3516825}]",NA,NA,NA,NA,NA,2,#3386FF,#D89F1C,0,0,1,38,1,688.5999999940395,37,1,522.2000000178814,0,1,experiment,NA,NA,0,0.9,0.1,0,1,201,5,NA
fcp-trial,248,3890336,0.0-211.0-0.0,voc_e2,11998,"[{""event"":""fullscreenenter"",""trial"":1,""time"":2643},{""event"":""blur"",""trial"":151,""time"":1112601},{""event"":""focus"",""trial"":151,""time"":3516825}]",NA,NA,NA,NA,NA,2,#1CD855,#FA92F8,10,10,1,38,1,977.0999999940395,39,0,738.2999999821186,10,0,experiment,NA,NA,1,0.7,0.3,2,3,202,5,NA
fcp-trial,249,3892841,0.0-212.0-0.0,voc_e2,11998,"[{""event"":""fullscreenenter"",""trial"":1,""time"":2643},{""event"":""blur"",""trial"":151,""time"":1112601},{""event"":""focus"",""trial"":151,""time"":3516825}]",NA,NA,NA,NA,NA,4,#FA92F8,#1CD855,0,10,0,38,1,41.099999994039536,37,1,957.5999999940395,0,0,experiment,NA,NA,1,0.3,0.7,3,2,203,5,NA
fcp-trial,250,3895217,0.0-213.0-0.0,voc_e2,11998,"[{""event"":""fullscreenenter"",""trial"":1,""time"":2643},{""event"":""blur"",""trial"":151,""time"":1112601},{""event"":""focus"",""trial"":151,""time"":3516825}]",NA,NA,NA,NA,NA,6,#741CD8,#D8271C,10,10,1,38,1,545.6000000238419,39,0,324.7999999821186,10,0,experiment,NA,NA,2,0.5,0.5,4,5,204,5,NA
fcp-trial,251,3904482,0.0-214.0-0.0,voc_e2,11998,"[{""event"":""fullscreenenter"",""trial"":1,""time"":2643},{""event"":""blur"",""trial"":151,""time"":1112601},{""event"":""focus"",""trial"":151,""time"":3516825}]",NA,NA,NA,NA,NA,2,#741CD8,#D8271C,0,0,1,40,0,229.69999998807907,39,0,7531.4000000059605,0,0,experiment,NA,NA,2,0.5,0.5,4,5,205,5,NA
fcp-trial,252,3906893,0.0-215.0-0.0,voc_e2,11998,"[{""event"":""fullscreenenter"",""trial"":1,""time"":2643},{""event"":""blur"",""trial"":151,""time"":1112601},{""event"":""focus"",""trial"":151,""time"":3516825}]",NA,NA,NA,NA,NA,0,#D89F1C,#3386FF,10,0,0,38,1,441.5,37,1,463.69999998807907,10,0,experiment,NA,NA,0,0.1,0.9,1,0,206,5,NA
fcp-trial,253,3910462,0.0-216.0-0.0,voc_e2,11998,"[{""event"":""fullscreenenter"",""trial"":1,""time"":2643},{""event"":""blur"",""trial"":151,""time"":1112601},{""event"":""focus"",""trial"":151,""time"":3516825}]",NA,NA,NA,NA,NA,0,#1CD855,#FA92F8,10,0,1,38,1,257.09999999403954,37,1,1808.0999999940395,10,1,experiment,NA,NA,1,0.7,0.3,2,3,207,5,NA
fcp-trial,254,3914569,0.0-217.0-0.0,voc_e2,11998,"[{""event"":""fullscreenenter"",""trial"":1,""time"":2643},{""event"":""blur"",""trial"":151,""time"":1112601},{""event"":""focus"",""trial"":151,""time"":3516825}]",NA,NA,NA,NA,NA,1,#741CD8,#D8271C,10,10,1,40,0,650.4000000059605,37,1,1950.5,10,1,experiment,NA,NA,2,0.5,0.5,4,5,208,5,NA
fcp-trial,255,3917788,0.0-218.0-0.0,voc_e2,11998,"[{""event"":""fullscreenenter"",""trial"":1,""time"":2643},{""event"":""blur"",""trial"":151,""time"":1112601},{""event"":""focus"",""trial"":151,""time"":3516825}]",NA,NA,NA,NA,NA,6,#3386FF,#D89F1C,0,0,1,38,1,649.2999999821186,39,0,1063.199999988079,0,0,experiment,NA,NA,0,0.9,0.1,0,1,209,5,NA
fcp-trial,256,3920249,0.0-219.0-0.0,voc_e2,11998,"[{""event"":""fullscreenenter"",""trial"":1,""time"":2643},{""event"":""blur"",""trial"":151,""time"":1112601},{""event"":""focus"",""trial"":151,""time"":3516825}]",NA,NA,NA,NA,NA,5,#1CD855,#FA92F8,10,0,1,40,0,218.30000001192093,39,0,737.5999999940395,0,0,experiment,NA,NA,1,0.7,0.3,2,3,210,5,NA
audio-instructions,257,3943141,0.0-220.0,voc_e2,11998,"[{""event"":""fullscreenenter"",""trial"":1,""time"":2643},{""event"":""blur"",""trial"":151,""time"":1112601},{""event"":""focus"",""trial"":151,""time"":3516825},{""event"":""blur"",""trial"":257,""time"":3925907},{""event"":""focus"",""trial"":257,""time"":3940827}]",NA,17708.19999998808,static/audio/pause.wav,NA,0,NA,NA,NA,NA,NA,NA,NA,NA,NA,NA,NA,NA,NA,NA,NA,NA,NA,NA,NA,NA,NA,NA,NA,NA,NA
fcp-trial,258,3947373,0.0-221.0-0.0,voc_e2,11998,"[{""event"":""fullscreenenter"",""trial"":1,""time"":2643},{""event"":""blur"",""trial"":151,""time"":1112601},{""event"":""focus"",""trial"":151,""time"":3516825},{""event"":""blur"",""trial"":257,""time"":3925907},{""event"":""focus"",""trial"":257,""time"":3940827}]",NA,NA,NA,NA,NA,6,#D8271C,#741CD8,10,0,0,38,1,2138.199999988079,39,0,586.5,0,1,experiment,NA,NA,2,0.5,0.5,5,4,211,5,NA
fcp-trial,259,3950246,0.0-222.0-0.0,voc_e2,11998,"[{""event"":""fullscreenenter"",""trial"":1,""time"":2643},{""event"":""blur"",""trial"":151,""time"":1112601},{""event"":""focus"",""trial"":151,""time"":3516825},{""event"":""blur"",""trial"":257,""time"":3925907},{""event"":""focus"",""trial"":257,""time"":3940827}]",NA,NA,NA,NA,NA,5,#3386FF,#D89F1C,10,0,1,38,1,126.40000000596046,37,1,1232.0999999940395,10,1,experiment,NA,NA,0,0.9,0.1,0,1,212,5,NA
fcp-trial,260,3952565,0.0-223.0-0.0,voc_e2,11998,"[{""event"":""fullscreenenter"",""trial"":1,""time"":2643},{""event"":""blur"",""trial"":151,""time"":1112601},{""event"":""focus"",""trial"":151,""time"":3516825},{""event"":""blur"",""trial"":257,""time"":3925907},{""event"":""focus"",""trial"":257,""time"":3940827}]",NA,NA,NA,NA,NA,3,#1CD855,#FA92F8,10,0,1,38,1,97.30000001192093,39,0,700,0,0,experiment,NA,NA,1,0.7,0.3,2,3,213,5,NA
fcp-trial,261,3955440,0.0-224.0-0.0,voc_e2,11998,"[{""event"":""fullscreenenter"",""trial"":1,""time"":2643},{""event"":""blur"",""trial"":151,""time"":1112601},{""event"":""focus"",""trial"":151,""time"":3516825},{""event"":""blur"",""trial"":257,""time"":3925907},{""event"":""focus"",""trial"":257,""time"":3940827}]",NA,NA,NA,NA,NA,0,#3386FF,#D89F1C,10,0,1,38,1,821.4000000059605,37,1,542.5999999940395,10,1,experiment,NA,NA,0,0.9,0.1,0,1,214,5,NA
fcp-trial,262,3958268,0.0-225.0-0.0,voc_e2,11998,"[{""event"":""fullscreenenter"",""trial"":1,""time"":2643},{""event"":""blur"",""trial"":151,""time"":1112601},{""event"":""focus"",""trial"":151,""time"":3516825},{""event"":""blur"",""trial"":257,""time"":3925907},{""event"":""focus"",""trial"":257,""time"":3940827}]",NA,NA,NA,NA,NA,4,#FA92F8,#1CD855,0,0,0,38,1,658.5,39,0,664.2999999821186,0,1,experiment,NA,NA,1,0.3,0.7,3,2,215,5,NA
fcp-trial,263,3960396,0.0-226.0-0.0,voc_e2,11998,"[{""event"":""fullscreenenter"",""trial"":1,""time"":2643},{""event"":""blur"",""trial"":151,""time"":1112601},{""event"":""focus"",""trial"":151,""time"":3516825},{""event"":""blur"",""trial"":257,""time"":3925907},{""event"":""focus"",""trial"":257,""time"":3940827}]",NA,NA,NA,NA,NA,0,#741CD8,#D8271C,0,0,1,38,1,1.300000011920929,37,1,621.3000000119209,0,1,experiment,NA,NA,2,0.5,0.5,4,5,216,5,NA
fcp-trial,264,3963813,0.0-227.0-0.0,voc_e2,11998,"[{""event"":""fullscreenenter"",""trial"":1,""time"":2643},{""event"":""blur"",""trial"":151,""time"":1112601},{""event"":""focus"",""trial"":151,""time"":3516825},{""event"":""blur"",""trial"":257,""time"":3925907},{""event"":""focus"",""trial"":257,""time"":3940827}]",NA,NA,NA,NA,NA,2,#D89F1C,#3386FF,10,10,0,40,0,1626.7000000178814,37,1,284.5,10,0,experiment,NA,NA,0,0.1,0.9,1,0,217,5,NA
fcp-trial,265,3965998,0.0-228.0-0.0,voc_e2,11998,"[{""event"":""fullscreenenter"",""trial"":1,""time"":2643},{""event"":""blur"",""trial"":151,""time"":1112601},{""event"":""focus"",""trial"":151,""time"":3516825},{""event"":""blur"",""trial"":257,""time"":3925907},{""event"":""focus"",""trial"":257,""time"":3940827}]",NA,NA,NA,NA,NA,6,#1CD855,#FA92F8,10,0,1,38,1,250.80000001192093,39,0,426.89999997615814,0,0,experiment,NA,NA,1,0.7,0.3,2,3,218,5,NA
fcp-trial,266,3969443,0.0-229.0-0.0,voc_e2,11998,"[{""event"":""fullscreenenter"",""trial"":1,""time"":2643},{""event"":""blur"",""trial"":151,""time"":1112601},{""event"":""focus"",""trial"":151,""time"":3516825},{""event"":""blur"",""trial"":257,""time"":3925907},{""event"":""focus"",""trial"":257,""time"":3940827}]",NA,NA,NA,NA,NA,3,#741CD8,#D8271C,0,10,1,38,1,1271.8999999761581,37,1,667.5,0,1,experiment,NA,NA,2,0.5,0.5,4,5,219,5,NA
fcp-trial,267,3976341,0.0-230.0-0.0,voc_e2,11998,"[{""event"":""fullscreenenter"",""trial"":1,""time"":2643},{""event"":""blur"",""trial"":151,""time"":1112601},{""event"":""focus"",""trial"":151,""time"":3516825},{""event"":""blur"",""trial"":257,""time"":3925907},{""event"":""focus"",""trial"":257,""time"":3940827}]",NA,NA,NA,NA,NA,5,#FA92F8,#1CD855,0,10,0,38,1,981.9000000059605,39,0,4410.5,10,1,experiment,NA,NA,1,0.3,0.7,3,2,220,5,NA
fcp-trial,268,3979339,0.0-231.0-0.0,voc_e2,11998,"[{""event"":""fullscreenenter"",""trial"":1,""time"":2643},{""event"":""blur"",""trial"":151,""time"":1112601},{""event"":""focus"",""trial"":151,""time"":3516825},{""event"":""blur"",""trial"":257,""time"":3925907},{""event"":""focus"",""trial"":257,""time"":3940827}]",NA,NA,NA,NA,NA,2,#D8271C,#741CD8,0,10,0,40,0,1182.5,39,0,309.60000002384186,10,1,experiment,NA,NA,2,0.5,0.5,5,4,221,5,NA
fcp-trial,269,3981452,0.0-232.0-0.0,voc_e2,11998,"[{""event"":""fullscreenenter"",""trial"":1,""time"":2643},{""event"":""blur"",""trial"":151,""time"":1112601},{""event"":""focus"",""trial"":151,""time"":3516825},{""event"":""blur"",""trial"":257,""time"":3925907},{""event"":""focus"",""trial"":257,""time"":3940827}]",NA,NA,NA,NA,NA,4,#D89F1C,#3386FF,0,10,0,40,0,31.899999976158142,37,1,576.7000000178814,0,0,experiment,NA,NA,0,0.1,0.9,1,0,222,5,NA
fcp-trial,270,3983752,0.0-233.0-0.0,voc_e2,11998,"[{""event"":""fullscreenenter"",""trial"":1,""time"":2643},{""event"":""blur"",""trial"":151,""time"":1112601},{""event"":""focus"",""trial"":151,""time"":3516825},{""event"":""blur"",""trial"":257,""time"":3925907},{""event"":""focus"",""trial"":257,""time"":3940827}]",NA,NA,NA,NA,NA,0,#1CD855,#FA92F8,0,0,1,38,1,397.69999998807907,37,1,394.89999997615814,0,1,experiment,NA,NA,1,0.7,0.3,2,3,223,5,NA
fcp-trial,271,3988055,0.0-234.0-0.0,voc_e2,11998,"[{""event"":""fullscreenenter"",""trial"":1,""time"":2643},{""event"":""blur"",""trial"":151,""time"":1112601},{""event"":""focus"",""trial"":151,""time"":3516825},{""event"":""blur"",""trial"":257,""time"":3925907},{""event"":""focus"",""trial"":257,""time"":3940827}]",NA,NA,NA,NA,NA,5,#741CD8,#D8271C,0,0,1,38,1,99.19999998807907,39,0,2696.199999988079,0,0,experiment,NA,NA,2,0.5,0.5,4,5,224,5,NA
fcp-trial,272,3995183,0.0-235.0-0.0,voc_e2,11998,"[{""event"":""fullscreenenter"",""trial"":1,""time"":2643},{""event"":""blur"",""trial"":151,""time"":1112601},{""event"":""focus"",""trial"":151,""time"":3516825},{""event"":""blur"",""trial"":257,""time"":3925907},{""event"":""focus"",""trial"":257,""time"":3940827}]",NA,NA,NA,NA,NA,3,#D89F1C,#3386FF,0,10,0,40,0,479.59999999403954,37,1,5142.9000000059605,0,0,experiment,NA,NA,0,0.1,0.9,1,0,225,5,NA
fcp-trial,273,3998198,0.0-236.0-0.0,voc_e2,11998,"[{""event"":""fullscreenenter"",""trial"":1,""time"":2643},{""event"":""blur"",""trial"":151,""time"":1112601},{""event"":""focus"",""trial"":151,""time"":3516825},{""event"":""blur"",""trial"":257,""time"":3925907},{""event"":""focus"",""trial"":257,""time"":3940827}]",NA,NA,NA,NA,NA,2,#FA92F8,#1CD855,10,10,0,38,1,177.90000000596046,39,0,1331.300000011921,10,1,experiment,NA,NA,1,0.3,0.7,3,2,226,6,NA
fcp-trial,274,4000856,0.0-237.0-0.0,voc_e2,11998,"[{""event"":""fullscreenenter"",""trial"":1,""time"":2643},{""event"":""blur"",""trial"":151,""time"":1112601},{""event"":""focus"",""trial"":151,""time"":3516825},{""event"":""blur"",""trial"":257,""time"":3925907},{""event"":""focus"",""trial"":257,""time"":3940827}]",NA,NA,NA,NA,NA,4,#741CD8,#D8271C,0,10,1,38,1,732.3000000119209,37,1,412.30000001192093,0,1,experiment,NA,NA,2,0.5,0.5,4,5,227,6,NA
fcp-trial,275,4003811,0.0-238.0-0.0,voc_e2,11998,"[{""event"":""fullscreenenter"",""trial"":1,""time"":2643},{""event"":""blur"",""trial"":151,""time"":1112601},{""event"":""focus"",""trial"":151,""time"":3516825},{""event"":""blur"",""trial"":257,""time"":3925907},{""event"":""focus"",""trial"":257,""time"":3940827}]",NA,NA,NA,NA,NA,1,#741CD8,#D8271C,10,10,1,38,1,864,37,1,584.1000000238419,10,1,experiment,NA,NA,2,0.5,0.5,4,5,228,6,NA
fcp-trial,276,4006639,0.0-239.0-0.0,voc_e2,11998,"[{""event"":""fullscreenenter"",""trial"":1,""time"":2643},{""event"":""blur"",""trial"":151,""time"":1112601},{""event"":""focus"",""trial"":151,""time"":3516825},{""event"":""blur"",""trial"":257,""time"":3925907},{""event"":""focus"",""trial"":257,""time"":3940827}]",NA,NA,NA,NA,NA,1,#3386FF,#D89F1C,10,0,1,38,1,744.8000000119209,39,0,580.5,0,0,experiment,NA,NA,0,0.9,0.1,0,1,229,6,NA
fcp-trial,277,4008812,0.0-240.0-0.0,voc_e2,11998,"[{""event"":""fullscreenenter"",""trial"":1,""time"":2643},{""event"":""blur"",""trial"":151,""time"":1112601},{""event"":""focus"",""trial"":151,""time"":3516825},{""event"":""blur"",""trial"":257,""time"":3925907},{""event"":""focus"",""trial"":257,""time"":3940827}]",NA,NA,NA,NA,NA,6,#3386FF,#D89F1C,10,0,1,38,1,43.599999994039536,39,0,622.2999999821186,0,0,experiment,NA,NA,0,0.9,0.1,0,1,230,6,NA
fcp-trial,278,4011938,0.0-241.0-0.0,voc_e2,11998,"[{""event"":""fullscreenenter"",""trial"":1,""time"":2643},{""event"":""blur"",""trial"":151,""time"":1112601},{""event"":""focus"",""trial"":151,""time"":3516825},{""event"":""blur"",""trial"":257,""time"":3925907},{""event"":""focus"",""trial"":257,""time"":3940827}]",NA,NA,NA,NA,NA,1,#1CD855,#FA92F8,0,0,1,38,1,0.9000000059604645,37,1,1621.4000000059605,0,1,experiment,NA,NA,1,0.7,0.3,2,3,231,6,NA
fcp-trial,279,4014593,0.0-242.0-0.0,voc_e2,11998,"[{""event"":""fullscreenenter"",""trial"":1,""time"":2643},{""event"":""blur"",""trial"":151,""time"":1112601},{""event"":""focus"",""trial"":151,""time"":3516825},{""event"":""blur"",""trial"":257,""time"":3925907},{""event"":""focus"",""trial"":257,""time"":3940827}]",NA,NA,NA,NA,NA,1,#D89F1C,#3386FF,0,10,0,38,1,802.6000000238419,39,0,346.7000000178814,10,1,experiment,NA,NA,0,0.1,0.9,1,0,232,6,NA
fcp-trial,280,4016983,0.0-243.0-0.0,voc_e2,11998,"[{""event"":""fullscreenenter"",""trial"":1,""time"":2643},{""event"":""blur"",""trial"":151,""time"":1112601},{""event"":""focus"",""trial"":151,""time"":3516825},{""event"":""blur"",""trial"":257,""time"":3925907},{""event"":""focus"",""trial"":257,""time"":3940827}]",NA,NA,NA,NA,NA,3,#FA92F8,#1CD855,0,10,0,38,1,597.3999999761581,39,0,285.09999999403954,10,1,experiment,NA,NA,1,0.3,0.7,3,2,233,6,NA
fcp-trial,281,4023886,0.0-244.0-0.0,voc_e2,11998,"[{""event"":""fullscreenenter"",""trial"":1,""time"":2643},{""event"":""blur"",""trial"":151,""time"":1112601},{""event"":""focus"",""trial"":151,""time"":3516825},{""event"":""blur"",""trial"":257,""time"":3925907},{""event"":""focus"",""trial"":257,""time"":3940827}]",NA,NA,NA,NA,NA,0,#D8271C,#741CD8,0,10,0,40,0,53.099999994039536,37,1,5344.800000011921,0,0,experiment,NA,NA,2,0.5,0.5,5,4,234,6,NA
fcp-trial,282,4026058,0.0-245.0-0.0,voc_e2,11998,"[{""event"":""fullscreenenter"",""trial"":1,""time"":2643},{""event"":""blur"",""trial"":151,""time"":1112601},{""event"":""focus"",""trial"":151,""time"":3516825},{""event"":""blur"",""trial"":257,""time"":3925907},{""event"":""focus"",""trial"":257,""time"":3940827}]",NA,NA,NA,NA,NA,3,#3386FF,#D89F1C,10,0,1,40,0,45.80000001192093,37,1,622,10,1,experiment,NA,NA,0,0.9,0.1,0,1,235,6,NA
fcp-trial,283,4031866,0.0-246.0-0.0,voc_e2,11998,"[{""event"":""fullscreenenter"",""trial"":1,""time"":2643},{""event"":""blur"",""trial"":151,""time"":1112601},{""event"":""focus"",""trial"":151,""time"":3516825},{""event"":""blur"",""trial"":257,""time"":3925907},{""event"":""focus"",""trial"":257,""time"":3940827}]",NA,NA,NA,NA,NA,2,#D89F1C,#3386FF,10,10,0,40,0,635.6999999880791,37,1,3666.0999999940395,10,0,experiment,NA,NA,0,0.1,0.9,1,0,236,6,NA
fcp-trial,284,4034734,0.0-247.0-0.0,voc_e2,11998,"[{""event"":""fullscreenenter"",""trial"":1,""time"":2643},{""event"":""blur"",""trial"":151,""time"":1112601},{""event"":""focus"",""trial"":151,""time"":3516825},{""event"":""blur"",""trial"":257,""time"":3925907},{""event"":""focus"",""trial"":257,""time"":3940827}]",NA,NA,NA,NA,NA,0,#FA92F8,#1CD855,10,0,0,40,0,558.4000000059605,37,1,803,10,0,experiment,NA,NA,1,0.3,0.7,3,2,237,6,NA
fcp-trial,285,4037056,0.0-248.0-0.0,voc_e2,11998,"[{""event"":""fullscreenenter"",""trial"":1,""time"":2643},{""event"":""blur"",""trial"":151,""time"":1112601},{""event"":""focus"",""trial"":151,""time"":3516825},{""event"":""blur"",""trial"":257,""time"":3925907},{""event"":""focus"",""trial"":257,""time"":3940827}]",NA,NA,NA,NA,NA,1,#741CD8,#D8271C,0,0,1,40,0,174.60000002384186,37,1,642.9000000059605,0,1,experiment,NA,NA,2,0.5,0.5,4,5,238,6,NA
fcp-trial,286,4039487,0.0-249.0-0.0,voc_e2,11998,"[{""event"":""fullscreenenter"",""trial"":1,""time"":2643},{""event"":""blur"",""trial"":151,""time"":1112601},{""event"":""focus"",""trial"":151,""time"":3516825},{""event"":""blur"",""trial"":257,""time"":3925907},{""event"":""focus"",""trial"":257,""time"":3940827}]",NA,NA,NA,NA,NA,6,#741CD8,#D8271C,0,10,1,40,0,224.90000000596046,37,1,699.6000000238419,0,1,experiment,NA,NA,2,0.5,0.5,4,5,239,6,NA
fcp-trial,287,4042385,0.0-250.0-0.0,voc_e2,11998,"[{""event"":""fullscreenenter"",""trial"":1,""time"":2643},{""event"":""blur"",""trial"":151,""time"":1112601},{""event"":""focus"",""trial"":151,""time"":3516825},{""event"":""blur"",""trial"":257,""time"":3925907},{""event"":""focus"",""trial"":257,""time"":3940827}]",NA,NA,NA,NA,NA,6,#D89F1C,#3386FF,0,10,0,38,1,465.30000001192093,39,0,927.0999999940395,10,1,experiment,NA,NA,0,0.1,0.9,1,0,240,6,NA
fcp-trial,288,4045939,0.0-251.0-0.0,voc_e2,11998,"[{""event"":""fullscreenenter"",""trial"":1,""time"":2643},{""event"":""blur"",""trial"":151,""time"":1112601},{""event"":""focus"",""trial"":151,""time"":3516825},{""event"":""blur"",""trial"":257,""time"":3925907},{""event"":""focus"",""trial"":257,""time"":3940827}]",NA,NA,NA,NA,NA,5,#741CD8,#D8271C,0,10,1,38,1,1496.4000000059605,39,0,552.7999999821186,10,0,experiment,NA,NA,2,0.5,0.5,4,5,241,6,NA
fcp-trial,289,4048495,0.0-252.0-0.0,voc_e2,11998,"[{""event"":""fullscreenenter"",""trial"":1,""time"":2643},{""event"":""blur"",""trial"":151,""time"":1112601},{""event"":""focus"",""trial"":151,""time"":3516825},{""event"":""blur"",""trial"":257,""time"":3925907},{""event"":""focus"",""trial"":257,""time"":3940827}]",NA,NA,NA,NA,NA,2,#FA92F8,#1CD855,0,0,0,38,1,169.80000001192093,39,0,882.9000000059605,0,1,experiment,NA,NA,1,0.3,0.7,3,2,242,6,NA
fcp-trial,290,4050896,0.0-253.0-0.0,voc_e2,11998,"[{""event"":""fullscreenenter"",""trial"":1,""time"":2643},{""event"":""blur"",""trial"":151,""time"":1112601},{""event"":""focus"",""trial"":151,""time"":3516825},{""event"":""blur"",""trial"":257,""time"":3925907},{""event"":""focus"",""trial"":257,""time"":3940827}]",NA,NA,NA,NA,NA,4,#D89F1C,#3386FF,0,10,0,40,0,121.5,39,0,773.8000000119209,10,1,experiment,NA,NA,0,0.1,0.9,1,0,243,6,NA
fcp-trial,291,4053389,0.0-254.0-0.0,voc_e2,11998,"[{""event"":""fullscreenenter"",""trial"":1,""time"":2643},{""event"":""blur"",""trial"":151,""time"":1112601},{""event"":""focus"",""trial"":151,""time"":3516825},{""event"":""blur"",""trial"":257,""time"":3925907},{""event"":""focus"",""trial"":257,""time"":3940827}]",NA,NA,NA,NA,NA,6,#FA92F8,#1CD855,0,10,0,40,0,153.40000000596046,39,0,833.0999999940395,10,1,experiment,NA,NA,1,0.3,0.7,3,2,244,6,NA
fcp-trial,292,4056438,0.0-255.0-0.0,voc_e2,11998,"[{""event"":""fullscreenenter"",""trial"":1,""time"":2643},{""event"":""blur"",""trial"":151,""time"":1112601},{""event"":""focus"",""trial"":151,""time"":3516825},{""event"":""blur"",""trial"":257,""time"":3925907},{""event"":""focus"",""trial"":257,""time"":3940827}]",NA,NA,NA,NA,NA,5,#FA92F8,#1CD855,0,0,0,40,0,603.5999999940395,39,0,941.2999999821186,0,1,experiment,NA,NA,1,0.3,0.7,3,2,245,6,NA
fcp-trial,293,4058629,0.0-256.0-0.0,voc_e2,11998,"[{""event"":""fullscreenenter"",""trial"":1,""time"":2643},{""event"":""blur"",""trial"":151,""time"":1112601},{""event"":""focus"",""trial"":151,""time"":3516825},{""event"":""blur"",""trial"":257,""time"":3925907},{""event"":""focus"",""trial"":257,""time"":3940827}]",NA,NA,NA,NA,NA,3,#741CD8,#D8271C,10,10,1,38,1,90.7999999821186,37,1,595.2999999821186,10,1,experiment,NA,NA,2,0.5,0.5,4,5,246,6,NA
fcp-trial,294,4061334,0.0-257.0-0.0,voc_e2,11998,"[{""event"":""fullscreenenter"",""trial"":1,""time"":2643},{""event"":""blur"",""trial"":151,""time"":1112601},{""event"":""focus"",""trial"":151,""time"":3516825},{""event"":""blur"",""trial"":257,""time"":3925907},{""event"":""focus"",""trial"":257,""time"":3940827}]",NA,NA,NA,NA,NA,5,#3386FF,#D89F1C,10,0,1,40,0,216.80000001192093,39,0,983,0,0,experiment,NA,NA,0,0.9,0.1,0,1,247,6,NA
fcp-trial,295,4064178,0.0-258.0-0.0,voc_e2,11998,"[{""event"":""fullscreenenter"",""trial"":1,""time"":2643},{""event"":""blur"",""trial"":151,""time"":1112601},{""event"":""focus"",""trial"":151,""time"":3516825},{""event"":""blur"",""trial"":257,""time"":3925907},{""event"":""focus"",""trial"":257,""time"":3940827}]",NA,NA,NA,NA,NA,4,#D8271C,#741CD8,0,0,0,40,0,667.2999999821186,39,0,668.9000000059605,0,1,experiment,NA,NA,2,0.5,0.5,5,4,248,6,NA
fcp-trial,296,4066324,0.0-259.0-0.0,voc_e2,11998,"[{""event"":""fullscreenenter"",""trial"":1,""time"":2643},{""event"":""blur"",""trial"":151,""time"":1112601},{""event"":""focus"",""trial"":151,""time"":3516825},{""event"":""blur"",""trial"":257,""time"":3925907},{""event"":""focus"",""trial"":257,""time"":3940827}]",NA,NA,NA,NA,NA,1,#FA92F8,#1CD855,0,0,0,38,1,109.39999997615814,37,1,531,0,0,experiment,NA,NA,1,0.3,0.7,3,2,249,6,NA
fcp-trial,297,4068756,0.0-260.0-0.0,voc_e2,11998,"[{""event"":""fullscreenenter"",""trial"":1,""time"":2643},{""event"":""blur"",""trial"":151,""time"":1112601},{""event"":""focus"",""trial"":151,""time"":3516825},{""event"":""blur"",""trial"":257,""time"":3925907},{""event"":""focus"",""trial"":257,""time"":3940827}]",NA,NA,NA,NA,NA,0,#D89F1C,#3386FF,0,10,0,40,0,305.59999999403954,39,0,621.2999999821186,10,1,experiment,NA,NA,0,0.1,0.9,1,0,250,6,NA
fcp-trial,298,4071572,0.0-261.0-0.0,voc_e2,11998,"[{""event"":""fullscreenenter"",""trial"":1,""time"":2643},{""event"":""blur"",""trial"":151,""time"":1112601},{""event"":""focus"",""trial"":151,""time"":3516825},{""event"":""blur"",""trial"":257,""time"":3925907},{""event"":""focus"",""trial"":257,""time"":3940827}]",NA,NA,NA,NA,NA,2,#741CD8,#D8271C,10,0,1,40,0,487.19999998807907,39,0,824.8000000119209,0,0,experiment,NA,NA,2,0.5,0.5,4,5,251,6,NA
fcp-trial,299,4074805,0.0-262.0-0.0,voc_e2,11998,"[{""event"":""fullscreenenter"",""trial"":1,""time"":2643},{""event"":""blur"",""trial"":151,""time"":1112601},{""event"":""focus"",""trial"":151,""time"":3516825},{""event"":""blur"",""trial"":257,""time"":3925907},{""event"":""focus"",""trial"":257,""time"":3940827}]",NA,NA,NA,NA,NA,4,#FA92F8,#1CD855,10,0,0,40,0,610.0999999940395,37,1,1118.7000000178814,10,0,experiment,NA,NA,1,0.3,0.7,3,2,252,6,NA
fcp-trial,300,4078081,0.0-263.0-0.0,voc_e2,11998,"[{""event"":""fullscreenenter"",""trial"":1,""time"":2643},{""event"":""blur"",""trial"":151,""time"":1112601},{""event"":""focus"",""trial"":151,""time"":3516825},{""event"":""blur"",""trial"":257,""time"":3925907},{""event"":""focus"",""trial"":257,""time"":3940827}]",NA,NA,NA,NA,NA,3,#D89F1C,#3386FF,0,10,0,40,0,1020.5999999940395,39,0,751.5,10,1,experiment,NA,NA,0,0.1,0.9,1,0,253,6,NA
fcp-trial,301,4081369,0.0-264.0-0.0,voc_e2,11998,"[{""event"":""fullscreenenter"",""trial"":1,""time"":2643},{""event"":""blur"",""trial"":151,""time"":1112601},{""event"":""focus"",""trial"":151,""time"":3516825},{""event"":""blur"",""trial"":257,""time"":3925907},{""event"":""focus"",""trial"":257,""time"":3940827}]",NA,NA,NA,NA,NA,0,#FA92F8,#1CD855,0,10,0,40,0,758.6999999880791,37,1,1024.300000011921,0,0,experiment,NA,NA,1,0.3,0.7,3,2,254,6,NA
fcp-trial,302,4086056,0.0-265.0-0.0,voc_e2,11998,"[{""event"":""fullscreenenter"",""trial"":1,""time"":2643},{""event"":""blur"",""trial"":151,""time"":1112601},{""event"":""focus"",""trial"":151,""time"":3516825},{""event"":""blur"",""trial"":257,""time"":3925907},{""event"":""focus"",""trial"":257,""time"":3940827}]",NA,NA,NA,NA,NA,2,#FA92F8,#1CD855,0,10,0,40,0,886.3999999761581,39,0,2292.9000000059605,10,1,experiment,NA,NA,1,0.3,0.7,3,2,255,6,NA
fcp-trial,303,4088883,0.0-266.0-0.0,voc_e2,11998,"[{""event"":""fullscreenenter"",""trial"":1,""time"":2643},{""event"":""blur"",""trial"":151,""time"":1112601},{""event"":""focus"",""trial"":151,""time"":3516825},{""event"":""blur"",""trial"":257,""time"":3925907},{""event"":""focus"",""trial"":257,""time"":3940827}]",NA,NA,NA,NA,NA,1,#D8271C,#741CD8,10,10,0,40,0,533.2999999821186,39,0,788.4000000059605,10,1,experiment,NA,NA,2,0.5,0.5,5,4,256,6,NA
fcp-trial,304,4091625,0.0-267.0-0.0,voc_e2,11998,"[{""event"":""fullscreenenter"",""trial"":1,""time"":2643},{""event"":""blur"",""trial"":151,""time"":1112601},{""event"":""focus"",""trial"":151,""time"":3516825},{""event"":""blur"",""trial"":257,""time"":3925907},{""event"":""focus"",""trial"":257,""time"":3940827}]",NA,NA,NA,NA,NA,4,#D8271C,#741CD8,0,10,0,40,0,641.7000000178814,37,1,595,0,0,experiment,NA,NA,2,0.5,0.5,5,4,257,6,NA
fcp-trial,305,4094643,0.0-268.0-0.0,voc_e2,11998,"[{""event"":""fullscreenenter"",""trial"":1,""time"":2643},{""event"":""blur"",""trial"":151,""time"":1112601},{""event"":""focus"",""trial"":151,""time"":3516825},{""event"":""blur"",""trial"":257,""time"":3925907},{""event"":""focus"",""trial"":257,""time"":3940827}]",NA,NA,NA,NA,NA,4,#3386FF,#D89F1C,10,10,1,40,0,907.8000000119209,39,0,603,10,0,experiment,NA,NA,0,0.9,0.1,0,1,258,6,NA
fcp-trial,306,4097434,0.0-269.0-0.0,voc_e2,11998,"[{""event"":""fullscreenenter"",""trial"":1,""time"":2643},{""event"":""blur"",""trial"":151,""time"":1112601},{""event"":""focus"",""trial"":151,""time"":3516825},{""event"":""blur"",""trial"":257,""time"":3925907},{""event"":""focus"",""trial"":257,""time"":3940827}]",NA,NA,NA,NA,NA,5,#D8271C,#741CD8,0,0,0,40,0,939.9000000059605,37,1,345.7000000178814,0,0,experiment,NA,NA,2,0.5,0.5,5,4,259,6,NA
fcp-trial,307,4100149,0.0-270.0-0.0,voc_e2,11998,"[{""event"":""fullscreenenter"",""trial"":1,""time"":2643},{""event"":""blur"",""trial"":151,""time"":1112601},{""event"":""focus"",""trial"":151,""time"":3516825},{""event"":""blur"",""trial"":257,""time"":3925907},{""event"":""focus"",""trial"":257,""time"":3940827}]",NA,NA,NA,NA,NA,5,#FA92F8,#1CD855,0,0,0,40,0,574,37,1,637,0,0,experiment,NA,NA,1,0.3,0.7,3,2,260,6,NA
fcp-trial,308,4102507,0.0-271.0-0.0,voc_e2,11998,"[{""event"":""fullscreenenter"",""trial"":1,""time"":2643},{""event"":""blur"",""trial"":151,""time"":1112601},{""event"":""focus"",""trial"":151,""time"":3516825},{""event"":""blur"",""trial"":257,""time"":3925907},{""event"":""focus"",""trial"":257,""time"":3940827}]",NA,NA,NA,NA,NA,5,#D89F1C,#3386FF,0,10,0,38,1,258.09999999403954,39,0,595.2000000178814,10,1,experiment,NA,NA,0,0.1,0.9,1,0,261,6,NA
fcp-trial,309,4104461,0.0-272.0-0.0,voc_e2,11998,"[{""event"":""fullscreenenter"",""trial"":1,""time"":2643},{""event"":""blur"",""trial"":151,""time"":1112601},{""event"":""focus"",""trial"":151,""time"":3516825},{""event"":""blur"",""trial"":257,""time"":3925907},{""event"":""focus"",""trial"":257,""time"":3940827}]",NA,NA,NA,NA,NA,4,#1CD855,#FA92F8,0,0,1,38,1,175.40000000596046,39,0,273.59999999403954,0,0,experiment,NA,NA,1,0.7,0.3,2,3,262,6,NA
fcp-trial,310,4107091,0.0-273.0-0.0,voc_e2,11998,"[{""event"":""fullscreenenter"",""trial"":1,""time"":2643},{""event"":""blur"",""trial"":151,""time"":1112601},{""event"":""focus"",""trial"":151,""time"":3516825},{""event"":""blur"",""trial"":257,""time"":3925907},{""event"":""focus"",""trial"":257,""time"":3940827}]",NA,NA,NA,NA,NA,0,#D8271C,#741CD8,10,0,0,38,1,772.4000000059605,39,0,353,0,1,experiment,NA,NA,2,0.5,0.5,5,4,263,6,NA
fcp-trial,311,4109419,0.0-274.0-0.0,voc_e2,11998,"[{""event"":""fullscreenenter"",""trial"":1,""time"":2643},{""event"":""blur"",""trial"":151,""time"":1112601},{""event"":""focus"",""trial"":151,""time"":3516825},{""event"":""blur"",""trial"":257,""time"":3925907},{""event"":""focus"",""trial"":257,""time"":3940827}]",NA,NA,NA,NA,NA,1,#1CD855,#FA92F8,10,10,1,38,1,322.19999998807907,37,1,498.09999999403954,10,1,experiment,NA,NA,1,0.7,0.3,2,3,264,6,NA
fcp-trial,312,4111944,0.0-275.0-0.0,voc_e2,11998,"[{""event"":""fullscreenenter"",""trial"":1,""time"":2643},{""event"":""blur"",""trial"":151,""time"":1112601},{""event"":""focus"",""trial"":151,""time"":3516825},{""event"":""blur"",""trial"":257,""time"":3925907},{""event"":""focus"",""trial"":257,""time"":3940827}]",NA,NA,NA,NA,NA,3,#D8271C,#741CD8,0,0,0,40,0,363.89999997615814,39,0,655.1999999880791,0,1,experiment,NA,NA,2,0.5,0.5,5,4,265,6,NA
fcp-trial,313,4114143,0.0-276.0-0.0,voc_e2,11998,"[{""event"":""fullscreenenter"",""trial"":1,""time"":2643},{""event"":""blur"",""trial"":151,""time"":1112601},{""event"":""focus"",""trial"":151,""time"":3516825},{""event"":""blur"",""trial"":257,""time"":3925907},{""event"":""focus"",""trial"":257,""time"":3940827}]",NA,NA,NA,NA,NA,0,#3386FF,#D89F1C,0,0,1,40,0,215.5,39,0,477.30000001192093,0,0,experiment,NA,NA,0,0.9,0.1,0,1,266,6,NA
fcp-trial,314,4116509,0.0-277.0-0.0,voc_e2,11998,"[{""event"":""fullscreenenter"",""trial"":1,""time"":2643},{""event"":""blur"",""trial"":151,""time"":1112601},{""event"":""focus"",""trial"":151,""time"":3516825},{""event"":""blur"",""trial"":257,""time"":3925907},{""event"":""focus"",""trial"":257,""time"":3940827}]",NA,NA,NA,NA,NA,1,#D89F1C,#3386FF,10,10,0,38,1,78,39,0,782.7000000178814,10,1,experiment,NA,NA,0,0.1,0.9,1,0,267,6,NA
fcp-trial,315,4119047,0.0-278.0-0.0,voc_e2,11998,"[{""event"":""fullscreenenter"",""trial"":1,""time"":2643},{""event"":""blur"",""trial"":151,""time"":1112601},{""event"":""focus"",""trial"":151,""time"":3516825},{""event"":""blur"",""trial"":257,""time"":3925907},{""event"":""focus"",""trial"":257,""time"":3940827}]",NA,NA,NA,NA,NA,6,#FA92F8,#1CD855,0,10,0,40,0,274.09999999403954,37,1,758.3999999761581,0,0,experiment,NA,NA,1,0.3,0.7,3,2,268,6,NA
fcp-trial,316,4121086,0.0-279.0-0.0,voc_e2,11998,"[{""event"":""fullscreenenter"",""trial"":1,""time"":2643},{""event"":""blur"",""trial"":151,""time"":1112601},{""event"":""focus"",""trial"":151,""time"":3516825},{""event"":""blur"",""trial"":257,""time"":3925907},{""event"":""focus"",""trial"":257,""time"":3940827}]",NA,NA,NA,NA,NA,2,#D89F1C,#3386FF,10,10,0,40,0,74.09999999403954,37,1,458.40000000596046,10,0,experiment,NA,NA,0,0.1,0.9,1,0,269,6,NA
fcp-trial,317,4124663,0.0-280.0-0.0,voc_e2,11998,"[{""event"":""fullscreenenter"",""trial"":1,""time"":2643},{""event"":""blur"",""trial"":151,""time"":1112601},{""event"":""focus"",""trial"":151,""time"":3516825},{""event"":""blur"",""trial"":257,""time"":3925907},{""event"":""focus"",""trial"":257,""time"":3940827}]",NA,NA,NA,NA,NA,2,#741CD8,#D8271C,10,10,1,40,0,1678.5,37,1,393.09999999403954,10,1,experiment,NA,NA,2,0.5,0.5,4,5,270,6,NA
fcp-trial,318,4128083,0.0-281.0-0.0,voc_e2,11998,"[{""event"":""fullscreenenter"",""trial"":1,""time"":2643},{""event"":""blur"",""trial"":151,""time"":1112601},{""event"":""focus"",""trial"":151,""time"":3516825},{""event"":""blur"",""trial"":257,""time"":3925907},{""event"":""focus"",""trial"":257,""time"":3940827}]",NA,NA,NA,NA,NA,6,#D89F1C,#3386FF,0,10,0,40,0,1203.0999999940395,37,1,711,0,0,experiment,NA,NA,0,0.1,0.9,1,0,271,7,NA
