trial_type,trial_index,time_elapsed,internal_node_id,task_version,subject_id,interactions,success,rt,stimulus,key_press,button_pressed,offer,arcade_color_L,arcade_color_R,arcade_outcome_L,arcade_outcome_R,correct,stage_1_key,stage_1_choice,stage_1_rt,stage_2_key,stage_2_choice,stage_2_rt,stage_3_outcome,accuracy,phase,responses,num_errors,context,reward_prob_L,reward_prob_R,arcade_id_L,arcade_id_R,trial,block,response
pavlovia,0,13,0.0-0.0,voc_e2,12170,[],NA,NA,NA,NA,NA,NA,NA,NA,NA,NA,NA,NA,NA,NA,NA,NA,NA,NA,NA,NA,NA,NA,NA,NA,NA,NA,NA,NA,NA,NA
fullscreen,1,2350,0.0-1.0,voc_e2,12170,"[{""event"":""fullscreenenter"",""trial"":1,""time"":1396}]",TRUE,NA,NA,NA,NA,NA,NA,NA,NA,NA,NA,NA,NA,NA,NA,NA,NA,NA,NA,NA,NA,NA,NA,NA,NA,NA,NA,NA,NA,NA
audio-keyboard-response,2,5846,0.0-2.0,voc_e2,12170,"[{""event"":""fullscreenenter"",""trial"":1,""time"":1396}]",NA,2461,static/audio/beep_loop.wav,32,NA,NA,NA,NA,NA,NA,NA,NA,NA,NA,NA,NA,NA,NA,NA,NA,NA,NA,NA,NA,NA,NA,NA,NA,NA,NA
audio-test,3,7571,0.0-3.0,voc_e2,12170,"[{""event"":""fullscreenenter"",""trial"":1,""time"":1396}]",NA,NA,static/audio/turtle.wav,NA,3,NA,NA,NA,NA,NA,NA,NA,NA,NA,NA,NA,NA,NA,NA,NA,NA,NA,NA,NA,NA,NA,NA,NA,NA,NA
audio-test,4,9851,0.0-4.0,voc_e2,12170,"[{""event"":""fullscreenenter"",""trial"":1,""time"":1396}]",NA,NA,static/audio/shark.wav,NA,2,NA,NA,NA,NA,NA,NA,NA,NA,NA,NA,NA,NA,NA,NA,NA,NA,NA,NA,NA,NA,NA,NA,NA,NA,NA
audio-instructions,5,17005,0.0-5.0-0.0,voc_e2,12170,"[{""event"":""fullscreenenter"",""trial"":1,""time"":1396}]",NA,1355.2999999970198,static/audio/instructions1.wav,NA,0,NA,NA,NA,NA,NA,NA,NA,NA,NA,NA,NA,NA,NA,NA,NA,NA,NA,NA,NA,NA,NA,NA,NA,NA,NA
audio-instructions,6,25034,0.0-5.0-1.0,voc_e2,12170,"[{""event"":""fullscreenenter"",""trial"":1,""time"":1396}]",NA,1283.7999999970198,static/audio/instructions2.wav,NA,0,NA,NA,NA,NA,NA,NA,NA,NA,NA,NA,NA,NA,NA,NA,NA,NA,NA,NA,NA,NA,NA,NA,NA,NA,NA
audio-instructions,7,31754,0.0-5.0-2.0,voc_e2,12170,"[{""event"":""fullscreenenter"",""trial"":1,""time"":1396}]",NA,913.10000000149,static/audio/instructions3.wav,NA,0,NA,NA,NA,NA,NA,NA,NA,NA,NA,NA,NA,NA,NA,NA,NA,NA,NA,NA,NA,NA,NA,NA,NA,NA,NA
audio-instructions,8,47460,0.0-5.0-3.0,voc_e2,12170,"[{""event"":""fullscreenenter"",""trial"":1,""time"":1396}]",NA,2479.5,static/audio/instructions4.wav,NA,0,NA,NA,NA,NA,NA,NA,NA,NA,NA,NA,NA,NA,NA,NA,NA,NA,NA,NA,NA,NA,NA,NA,NA,NA,NA
audio-instructions,9,58751,0.0-5.0-4.0,voc_e2,12170,"[{""event"":""fullscreenenter"",""trial"":1,""time"":1396}]",NA,1900,static/audio/instructions5.wav,NA,0,NA,NA,NA,NA,NA,NA,NA,NA,NA,NA,NA,NA,NA,NA,NA,NA,NA,NA,NA,NA,NA,NA,NA,NA,NA
fcp-practice,10,60929,0.0-5.0-5.0-0.0,voc_e2,12170,"[{""event"":""fullscreenenter"",""trial"":1,""time"":1396}]",NA,NA,NA,NA,NA,NA,#EDC948,#46d3c8,10,0,1,null,null,null,37,1,656.2999999970198,10,1,practice,NA,NA,NA,NA,NA,NA,NA,NA,NA,NA
fcp-practice,11,62793,0.0-5.0-5.0-1.0,voc_e2,12170,"[{""event"":""fullscreenenter"",""trial"":1,""time"":1396}]",NA,NA,NA,NA,NA,NA,#EDC948,#46d3c8,10,0,1,null,null,null,37,1,345.69999999552965,10,1,practice,NA,NA,NA,NA,NA,NA,NA,NA,NA,NA
fcp-practice,12,64677,0.0-5.0-5.0-2.0,voc_e2,12170,"[{""event"":""fullscreenenter"",""trial"":1,""time"":1396}]",NA,NA,NA,NA,NA,NA,#EDC948,#46d3c8,0,10,1,null,null,null,37,1,364.6000000014901,0,1,practice,NA,NA,NA,NA,NA,NA,NA,NA,NA,NA
fcp-practice,13,66594,0.0-5.0-5.0-3.0,voc_e2,12170,"[{""event"":""fullscreenenter"",""trial"":1,""time"":1396}]",NA,NA,NA,NA,NA,NA,#EDC948,#46d3c8,10,0,1,null,null,null,37,1,398.1000000014901,10,1,practice,NA,NA,NA,NA,NA,NA,NA,NA,NA,NA
fcp-practice,14,68659,0.0-5.0-5.0-4.0,voc_e2,12170,"[{""event"":""fullscreenenter"",""trial"":1,""time"":1396}]",NA,NA,NA,NA,NA,NA,#EDC948,#46d3c8,10,0,1,null,null,null,37,1,544.0999999940395,10,1,practice,NA,NA,NA,NA,NA,NA,NA,NA,NA,NA
audio-instructions,15,89302,0.0-5.0-6.0,voc_e2,12170,"[{""event"":""fullscreenenter"",""trial"":1,""time"":1396}]",NA,2631.89999999851,static/audio/instructions6.wav,NA,0,NA,NA,NA,NA,NA,NA,NA,NA,NA,NA,NA,NA,NA,NA,NA,NA,NA,NA,NA,NA,NA,NA,NA,NA,NA
audio-instructions,16,112833,0.0-5.0-7.0,voc_e2,12170,"[{""event"":""fullscreenenter"",""trial"":1,""time"":1396}]",NA,4333.20000000298,static/audio/instructions7.wav,NA,0,NA,NA,NA,NA,NA,NA,NA,NA,NA,NA,NA,NA,NA,NA,NA,NA,NA,NA,NA,NA,NA,NA,NA,NA,NA
audio-instructions,17,123847,0.0-5.0-8.0,voc_e2,12170,"[{""event"":""fullscreenenter"",""trial"":1,""time"":1396}]",NA,1535.5,static/audio/instructions8.wav,NA,0,NA,NA,NA,NA,NA,NA,NA,NA,NA,NA,NA,NA,NA,NA,NA,NA,NA,NA,NA,NA,NA,NA,NA,NA,NA
fcp-comprehension,18,138685,0.0-5.0-9.0,voc_e2,12170,"[{""event"":""fullscreenenter"",""trial"":1,""time"":1396}]",NA,14834.40000000596,NA,NA,NA,NA,NA,NA,NA,NA,NA,NA,NA,NA,NA,NA,NA,NA,NA,NA,"false,true",1,NA,NA,NA,NA,NA,NA,NA,NA
audio-instructions,19,144281,0.0-5.1-0.1,voc_e2,12170,"[{""event"":""fullscreenenter"",""trial"":1,""time"":1396}]",NA,820.1000000014901,static/audio/instructions1.wav,NA,0,NA,NA,NA,NA,NA,NA,NA,NA,NA,NA,NA,NA,NA,NA,NA,NA,NA,NA,NA,NA,NA,NA,NA,NA,NA
audio-instructions,20,152984,0.0-5.1-1.1,voc_e2,12170,"[{""event"":""fullscreenenter"",""trial"":1,""time"":1396}]",NA,1954.10000000149,static/audio/instructions2.wav,NA,0,NA,NA,NA,NA,NA,NA,NA,NA,NA,NA,NA,NA,NA,NA,NA,NA,NA,NA,NA,NA,NA,NA,NA,NA,NA
audio-instructions,21,160735,0.0-5.1-2.1,voc_e2,12170,"[{""event"":""fullscreenenter"",""trial"":1,""time"":1396}]",NA,1945.60000000149,static/audio/instructions3.wav,NA,0,NA,NA,NA,NA,NA,NA,NA,NA,NA,NA,NA,NA,NA,NA,NA,NA,NA,NA,NA,NA,NA,NA,NA,NA,NA
audio-instructions,22,174732,0.0-5.1-3.1,voc_e2,12170,"[{""event"":""fullscreenenter"",""trial"":1,""time"":1396}]",NA,772.6999999955297,static/audio/instructions4.wav,NA,0,NA,NA,NA,NA,NA,NA,NA,NA,NA,NA,NA,NA,NA,NA,NA,NA,NA,NA,NA,NA,NA,NA,NA,NA,NA
audio-instructions,23,184473,0.0-5.1-4.1,voc_e2,12170,"[{""event"":""fullscreenenter"",""trial"":1,""time"":1396}]",NA,353.29999999701977,static/audio/instructions5.wav,NA,0,NA,NA,NA,NA,NA,NA,NA,NA,NA,NA,NA,NA,NA,NA,NA,NA,NA,NA,NA,NA,NA,NA,NA,NA,NA
fcp-practice,24,186420,0.0-5.1-5.1-0.1,voc_e2,12170,"[{""event"":""fullscreenenter"",""trial"":1,""time"":1396}]",NA,NA,NA,NA,NA,NA,#EDC948,#46d3c8,10,0,1,null,null,null,37,1,431.79999999701977,10,1,practice,NA,NA,NA,NA,NA,NA,NA,NA,NA,NA
fcp-practice,25,188417,0.0-5.1-5.1-1.1,voc_e2,12170,"[{""event"":""fullscreenenter"",""trial"":1,""time"":1396}]",NA,NA,NA,NA,NA,NA,#EDC948,#46d3c8,10,0,1,null,null,null,37,1,485.69999999552965,10,1,practice,NA,NA,NA,NA,NA,NA,NA,NA,NA,NA
fcp-practice,26,190282,0.0-5.1-5.1-2.1,voc_e2,12170,"[{""event"":""fullscreenenter"",""trial"":1,""time"":1396}]",NA,NA,NA,NA,NA,NA,#EDC948,#46d3c8,0,10,1,null,null,null,37,1,351.5,0,1,practice,NA,NA,NA,NA,NA,NA,NA,NA,NA,NA
fcp-practice,27,192349,0.0-5.1-5.1-3.1,voc_e2,12170,"[{""event"":""fullscreenenter"",""trial"":1,""time"":1396}]",NA,NA,NA,NA,NA,NA,#EDC948,#46d3c8,10,0,1,null,null,null,37,1,556.7000000029802,10,1,practice,NA,NA,NA,NA,NA,NA,NA,NA,NA,NA
fcp-practice,28,195147,0.0-5.1-5.1-4.1,voc_e2,12170,"[{""event"":""fullscreenenter"",""trial"":1,""time"":1396}]",NA,NA,NA,NA,NA,NA,#EDC948,#46d3c8,10,0,1,null,null,null,37,1,1280.5,10,1,practice,NA,NA,NA,NA,NA,NA,NA,NA,NA,NA
audio-instructions,29,216288,0.0-5.1-6.1,voc_e2,12170,"[{""event"":""fullscreenenter"",""trial"":1,""time"":1396}]",NA,3128.5,static/audio/instructions6.wav,NA,0,NA,NA,NA,NA,NA,NA,NA,NA,NA,NA,NA,NA,NA,NA,NA,NA,NA,NA,NA,NA,NA,NA,NA,NA,NA
audio-instructions,30,236344,0.0-5.1-7.1,voc_e2,12170,"[{""event"":""fullscreenenter"",""trial"":1,""time"":1396}]",NA,855.1999999955297,static/audio/instructions7.wav,NA,0,NA,NA,NA,NA,NA,NA,NA,NA,NA,NA,NA,NA,NA,NA,NA,NA,NA,NA,NA,NA,NA,NA,NA,NA,NA
audio-instructions,31,248599,0.0-5.1-8.1,voc_e2,12170,"[{""event"":""fullscreenenter"",""trial"":1,""time"":1396}]",NA,2779.79999999702,static/audio/instructions8.wav,NA,0,NA,NA,NA,NA,NA,NA,NA,NA,NA,NA,NA,NA,NA,NA,NA,NA,NA,NA,NA,NA,NA,NA,NA,NA,NA
fcp-comprehension,32,276573,0.0-5.1-9.1,voc_e2,12170,"[{""event"":""fullscreenenter"",""trial"":1,""time"":1396}]",NA,27971.19999999553,NA,NA,NA,NA,NA,NA,NA,NA,NA,NA,NA,NA,NA,NA,NA,NA,NA,NA,"true,true",0,NA,NA,NA,NA,NA,NA,NA,NA
audio-instructions,33,285827,0.0-6.0-0.0,voc_e2,12170,"[{""event"":""fullscreenenter"",""trial"":1,""time"":1396}]",NA,3628.1999999955297,static/audio/instructions9.wav,NA,0,NA,NA,NA,NA,NA,NA,NA,NA,NA,NA,NA,NA,NA,NA,NA,NA,NA,NA,NA,NA,NA,NA,NA,NA,NA
audio-instructions,34,299920,0.0-6.0-1.0,voc_e2,12170,"[{""event"":""fullscreenenter"",""trial"":1,""time"":1396}]",NA,1971.29999999702,static/audio/instructions10.wav,NA,0,NA,NA,NA,NA,NA,NA,NA,NA,NA,NA,NA,NA,NA,NA,NA,NA,NA,NA,NA,NA,NA,NA,NA,NA,NA
fcp-trial,35,304192,0.0-6.0-2.0,voc_e2,12170,"[{""event"":""fullscreenenter"",""trial"":1,""time"":1396}]",NA,NA,NA,NA,NA,0,#EDC948,#46d3c8,10,10,1,38,1,1533.2000000029802,39,0,1209.3000000044703,10,0,practice,NA,NA,NA,NA,NA,NA,NA,NA,NA,NA
audio-instructions,36,315989,0.0-6.0-3.0,voc_e2,12170,"[{""event"":""fullscreenenter"",""trial"":1,""time"":1396}]",NA,789.2000000029802,static/audio/instructions11.wav,NA,0,NA,NA,NA,NA,NA,NA,NA,NA,NA,NA,NA,NA,NA,NA,NA,NA,NA,NA,NA,NA,NA,NA,NA,NA,NA
fcp-trial,37,320284,0.0-6.0-4.0,voc_e2,12170,"[{""event"":""fullscreenenter"",""trial"":1,""time"":1396}]",NA,NA,NA,NA,NA,6,#EDC948,#46d3c8,10,10,1,40,0,642.3000000044703,39,0,2129.29999999702,10,0,practice,NA,NA,NA,NA,NA,NA,NA,NA,NA,NA
audio-instructions,38,340079,0.0-6.0-5.0,voc_e2,12170,"[{""event"":""fullscreenenter"",""trial"":1,""time"":1396}]",NA,1099.7999999970198,static/audio/instructions12.wav,NA,0,NA,NA,NA,NA,NA,NA,NA,NA,NA,NA,NA,NA,NA,NA,NA,NA,NA,NA,NA,NA,NA,NA,NA,NA,NA
audio-instructions,39,348469,0.0-6.0-6.0,voc_e2,12170,"[{""event"":""fullscreenenter"",""trial"":1,""time"":1396}]",NA,790.1999999955297,static/audio/instructions13.wav,NA,0,NA,NA,NA,NA,NA,NA,NA,NA,NA,NA,NA,NA,NA,NA,NA,NA,NA,NA,NA,NA,NA,NA,NA,NA,NA
audio-instructions,40,357928,0.0-6.0-7.0,voc_e2,12170,"[{""event"":""fullscreenenter"",""trial"":1,""time"":1396}]",NA,1010,static/audio/instructions14.wav,NA,0,NA,NA,NA,NA,NA,NA,NA,NA,NA,NA,NA,NA,NA,NA,NA,NA,NA,NA,NA,NA,NA,NA,NA,NA,NA
audio-instructions,41,365759,0.0-7.0-0.0,voc_e2,12170,"[{""event"":""fullscreenenter"",""trial"":1,""time"":1396}]",NA,909.39999999851,static/audio/instructions15.wav,NA,0,NA,NA,NA,NA,NA,NA,NA,NA,NA,NA,NA,NA,NA,NA,NA,NA,NA,NA,NA,NA,NA,NA,NA,NA,NA
audio-instructions,42,379618,0.0-7.0-1.0,voc_e2,12170,"[{""event"":""fullscreenenter"",""trial"":1,""time"":1396}]",NA,7029.70000000298,static/audio/instructions16.wav,NA,0,NA,NA,NA,NA,NA,NA,NA,NA,NA,NA,NA,NA,NA,NA,NA,NA,NA,NA,NA,NA,NA,NA,NA,NA,NA
audio-instructions,43,387899,0.0-7.0-2.0,voc_e2,12170,"[{""event"":""fullscreenenter"",""trial"":1,""time"":1396}]",NA,601,static/audio/instructions17.wav,NA,0,NA,NA,NA,NA,NA,NA,NA,NA,NA,NA,NA,NA,NA,NA,NA,NA,NA,NA,NA,NA,NA,NA,NA,NA,NA
audio-instructions,44,396668,0.0-7.0-3.0,voc_e2,12170,"[{""event"":""fullscreenenter"",""trial"":1,""time"":1396}]",NA,999.5,static/audio/instructions18.wav,NA,0,NA,NA,NA,NA,NA,NA,NA,NA,NA,NA,NA,NA,NA,NA,NA,NA,NA,NA,NA,NA,NA,NA,NA,NA,NA
audio-instructions,45,406278,0.0-7.0-4.0,voc_e2,12170,"[{""event"":""fullscreenenter"",""trial"":1,""time"":1396}]",NA,2859.29999999702,static/audio/instructions19.wav,NA,0,NA,NA,NA,NA,NA,NA,NA,NA,NA,NA,NA,NA,NA,NA,NA,NA,NA,NA,NA,NA,NA,NA,NA,NA,NA
fcp-comprehension,46,417350,0.0-7.0-5.0,voc_e2,12170,"[{""event"":""fullscreenenter"",""trial"":1,""time"":1396}]",NA,11068.90000000596,NA,NA,NA,NA,NA,NA,NA,NA,NA,NA,NA,NA,NA,NA,NA,NA,NA,NA,"false,false,false,true",0,NA,NA,NA,NA,NA,NA,NA,NA
audio-instructions,47,429230,0.0-8.0,voc_e2,12170,"[{""event"":""fullscreenenter"",""trial"":1,""time"":1396}]",NA,2660.79999999702,static/audio/ready.wav,NA,0,NA,NA,NA,NA,NA,NA,NA,NA,NA,NA,NA,NA,NA,NA,NA,NA,NA,NA,NA,NA,NA,NA,NA,NA,NA
fcp-trial,48,432827,0.0-9.0-0.0,voc_e2,12170,"[{""event"":""fullscreenenter"",""trial"":1,""time"":1396}]",NA,NA,NA,NA,NA,4,#741CD8,#D8271C,10,0,0,38,1,698.8999999985099,39,0,1372.60000000149,0,1,experiment,NA,NA,2,0.5,0.5,5,4,1,1,NA
fcp-trial,49,439159,0.0-10.0-0.0,voc_e2,12170,"[{""event"":""fullscreenenter"",""trial"":1,""time"":1396}]",NA,NA,NA,NA,NA,6,#3386FF,#D89F1C,0,10,0,40,0,3582.10000000149,39,0,1226.60000000149,10,1,experiment,NA,NA,0,0.1,0.9,1,0,2,1,NA
fcp-trial,50,443107,0.0-11.0-0.0,voc_e2,12170,"[{""event"":""fullscreenenter"",""trial"":1,""time"":1396}]",NA,NA,NA,NA,NA,1,#3386FF,#D89F1C,0,0,0,38,1,1609.9000000059605,37,1,809.5,0,0,experiment,NA,NA,0,0.1,0.9,1,0,3,1,NA
fcp-trial,51,447871,0.0-12.0-0.0,voc_e2,12170,"[{""event"":""fullscreenenter"",""trial"":1,""time"":1396}]",NA,NA,NA,NA,NA,6,#FA92F8,#1CD855,0,0,1,40,0,2343.3000000044703,39,0,900.1000000014901,0,0,experiment,NA,NA,1,0.7,0.3,2,3,4,1,NA
fcp-trial,52,453452,0.0-13.0-0.0,voc_e2,12170,"[{""event"":""fullscreenenter"",""trial"":1,""time"":1396}]",NA,NA,NA,NA,NA,4,#3386FF,#D89F1C,0,0,0,38,1,2631.3000000044703,37,1,1430,0,0,experiment,NA,NA,0,0.1,0.9,1,0,5,1,NA
fcp-trial,53,458274,0.0-14.0-0.0,voc_e2,12170,"[{""event"":""fullscreenenter"",""trial"":1,""time"":1396}]",NA,NA,NA,NA,NA,2,#741CD8,#D8271C,0,10,0,38,1,2826.60000000149,39,0,487.79999999701977,10,1,experiment,NA,NA,2,0.5,0.5,5,4,6,1,NA
fcp-trial,54,462271,0.0-15.0-0.0,voc_e2,12170,"[{""event"":""fullscreenenter"",""trial"":1,""time"":1396}]",NA,NA,NA,NA,NA,3,#FA92F8,#1CD855,10,0,1,38,1,1528.7999999970198,39,0,959.7000000029802,0,0,experiment,NA,NA,1,0.7,0.3,2,3,7,1,NA
fcp-trial,55,466015,0.0-16.0-0.0,voc_e2,12170,"[{""event"":""fullscreenenter"",""trial"":1,""time"":1396}]",NA,NA,NA,NA,NA,0,#3386FF,#D89F1C,0,10,0,38,1,1760.8999999985099,39,0,476.29999999701977,10,1,experiment,NA,NA,0,0.1,0.9,1,0,8,1,NA
fcp-trial,56,469982,0.0-17.0-0.0,voc_e2,12170,"[{""event"":""fullscreenenter"",""trial"":1,""time"":1396}]",NA,NA,NA,NA,NA,5,#1CD855,#FA92F8,10,0,0,38,1,1225,37,1,1234,10,0,experiment,NA,NA,1,0.3,0.7,3,2,9,1,NA
fcp-trial,57,473098,0.0-18.0-0.0,voc_e2,12170,"[{""event"":""fullscreenenter"",""trial"":1,""time"":1396}]",NA,NA,NA,NA,NA,2,#3386FF,#D89F1C,0,10,0,38,1,1213,39,0,396.3999999985099,10,1,experiment,NA,NA,0,0.1,0.9,1,0,10,1,NA
fcp-trial,58,480893,0.0-19.0-0.0,voc_e2,12170,"[{""event"":""fullscreenenter"",""trial"":1,""time"":1396}]",NA,NA,NA,NA,NA,5,#D8271C,#741CD8,10,0,1,40,0,5407.20000000298,39,0,881.1000000014901,0,0,experiment,NA,NA,2,0.5,0.5,4,5,11,1,NA
fcp-trial,59,484938,0.0-20.0-0.0,voc_e2,12170,"[{""event"":""fullscreenenter"",""trial"":1,""time"":1396}]",NA,NA,NA,NA,NA,1,#741CD8,#D8271C,10,10,0,38,1,1707.5999999940395,37,1,830.2999999970198,10,0,experiment,NA,NA,2,0.5,0.5,5,4,12,1,NA
fcp-trial,60,491847,0.0-21.0-0.0,voc_e2,12170,"[{""event"":""fullscreenenter"",""trial"":1,""time"":1396}]",NA,NA,NA,NA,NA,4,#FA92F8,#1CD855,10,10,1,38,1,2215.89999999851,37,1,3186.3000000044703,10,1,experiment,NA,NA,1,0.7,0.3,2,3,13,1,NA
fcp-trial,61,495540,0.0-22.0-0.0,voc_e2,12170,"[{""event"":""fullscreenenter"",""trial"":1,""time"":1396}]",NA,NA,NA,NA,NA,3,#D89F1C,#3386FF,10,10,1,38,1,1903.1000000014901,37,1,283,10,1,experiment,NA,NA,0,0.9,0.1,0,1,14,1,NA
fcp-trial,62,500561,0.0-23.0-0.0,voc_e2,12170,"[{""event"":""fullscreenenter"",""trial"":1,""time"":1396}]",NA,NA,NA,NA,NA,6,#D8271C,#741CD8,0,0,1,40,0,2618.7000000029802,37,1,895.6000000014901,0,1,experiment,NA,NA,2,0.5,0.5,4,5,15,1,NA
fcp-trial,63,505863,0.0-24.0-0.0,voc_e2,12170,"[{""event"":""fullscreenenter"",""trial"":1,""time"":1396}]",NA,NA,NA,NA,NA,2,#1CD855,#FA92F8,10,10,0,38,1,3175.89999999851,39,0,618.1999999955297,10,1,experiment,NA,NA,1,0.3,0.7,3,2,16,1,NA
fcp-trial,64,510657,0.0-25.0-0.0,voc_e2,12170,"[{""event"":""fullscreenenter"",""trial"":1,""time"":1396}]",NA,NA,NA,NA,NA,0,#D8271C,#741CD8,0,0,1,38,1,2289.5,37,1,997.5,0,1,experiment,NA,NA,2,0.5,0.5,4,5,17,1,NA
fcp-trial,65,514407,0.0-26.0-0.0,voc_e2,12170,"[{""event"":""fullscreenenter"",""trial"":1,""time"":1396}]",NA,NA,NA,NA,NA,3,#741CD8,#D8271C,10,0,0,38,1,1828,39,0,414,0,1,experiment,NA,NA,2,0.5,0.5,5,4,18,1,NA
fcp-trial,66,518496,0.0-27.0-0.0,voc_e2,12170,"[{""event"":""fullscreenenter"",""trial"":1,""time"":1396}]",NA,NA,NA,NA,NA,5,#D89F1C,#3386FF,10,10,1,40,0,1947.8999999985099,37,1,634.8000000044703,10,1,experiment,NA,NA,0,0.9,0.1,0,1,19,1,NA
fcp-trial,67,523477,0.0-28.0-0.0,voc_e2,12170,"[{""event"":""fullscreenenter"",""trial"":1,""time"":1396}]",NA,NA,NA,NA,NA,1,#FA92F8,#1CD855,10,0,1,38,1,2107.10000000149,39,0,1363,0,0,experiment,NA,NA,1,0.7,0.3,2,3,20,1,NA
fcp-trial,68,526889,0.0-29.0-0.0,voc_e2,12170,"[{""event"":""fullscreenenter"",""trial"":1,""time"":1396}]",NA,NA,NA,NA,NA,0,#FA92F8,#1CD855,10,0,1,38,1,1191.8999999985099,37,1,710.8999999985099,10,1,experiment,NA,NA,1,0.7,0.3,2,3,21,1,NA
fcp-trial,69,530608,0.0-30.0-0.0,voc_e2,12170,"[{""event"":""fullscreenenter"",""trial"":1,""time"":1396}]",NA,NA,NA,NA,NA,3,#1CD855,#FA92F8,0,10,0,38,1,1602.8000000044703,39,0,608.8999999985099,10,1,experiment,NA,NA,1,0.3,0.7,3,2,22,1,NA
fcp-trial,70,534772,0.0-31.0-0.0,voc_e2,12170,"[{""event"":""fullscreenenter"",""trial"":1,""time"":1396}]",NA,NA,NA,NA,NA,6,#3386FF,#D89F1C,0,10,0,40,0,2198.4000000059605,39,0,456.79999999701977,10,1,experiment,NA,NA,0,0.1,0.9,1,0,23,1,NA
fcp-trial,71,538927,0.0-32.0-0.0,voc_e2,12170,"[{""event"":""fullscreenenter"",""trial"":1,""time"":1396}]",NA,NA,NA,NA,NA,5,#1CD855,#FA92F8,0,0,0,40,0,2130.5,39,0,515.2000000029802,0,1,experiment,NA,NA,1,0.3,0.7,3,2,24,1,NA
fcp-trial,72,544647,0.0-33.0-0.0,voc_e2,12170,"[{""event"":""fullscreenenter"",""trial"":1,""time"":1396}]",NA,NA,NA,NA,NA,4,#1CD855,#FA92F8,10,10,0,38,1,3656.6999999955297,39,0,556.6000000014901,10,1,experiment,NA,NA,1,0.3,0.7,3,2,25,1,NA
fcp-trial,73,548070,0.0-34.0-0.0,voc_e2,12170,"[{""event"":""fullscreenenter"",""trial"":1,""time"":1396}]",NA,NA,NA,NA,NA,3,#D89F1C,#3386FF,10,0,1,38,1,1401.3000000044703,37,1,513.5,10,1,experiment,NA,NA,0,0.9,0.1,0,1,26,1,NA
fcp-trial,74,554011,0.0-35.0-0.0,voc_e2,12170,"[{""event"":""fullscreenenter"",""trial"":1,""time"":1396}]",NA,NA,NA,NA,NA,1,#741CD8,#D8271C,10,0,0,38,1,3102.7000000029802,37,1,1329.60000000149,10,0,experiment,NA,NA,2,0.5,0.5,5,4,27,1,NA
fcp-trial,75,558368,0.0-36.0-0.0,voc_e2,12170,"[{""event"":""fullscreenenter"",""trial"":1,""time"":1396}]",NA,NA,NA,NA,NA,2,#741CD8,#D8271C,0,10,0,40,0,2208.9000000059605,39,0,642.5,10,1,experiment,NA,NA,2,0.5,0.5,5,4,28,1,NA
fcp-trial,76,562697,0.0-37.0-0.0,voc_e2,12170,"[{""event"":""fullscreenenter"",""trial"":1,""time"":1396}]",NA,NA,NA,NA,NA,5,#741CD8,#D8271C,10,0,0,40,0,2143.0999999940395,37,1,678.7000000029802,10,0,experiment,NA,NA,2,0.5,0.5,5,4,29,1,NA
fcp-trial,77,566499,0.0-38.0-0.0,voc_e2,12170,"[{""event"":""fullscreenenter"",""trial"":1,""time"":1396}]",NA,NA,NA,NA,NA,2,#1CD855,#FA92F8,0,10,0,38,1,1983,39,0,312.20000000298023,10,1,experiment,NA,NA,1,0.3,0.7,3,2,30,1,NA
fcp-trial,78,570413,0.0-39.0-0.0,voc_e2,12170,"[{""event"":""fullscreenenter"",""trial"":1,""time"":1396}]",NA,NA,NA,NA,NA,1,#3386FF,#D89F1C,0,10,0,38,1,1941.0999999940395,39,0,465.09999999403954,10,1,experiment,NA,NA,0,0.1,0.9,1,0,31,1,NA
fcp-trial,79,574179,0.0-40.0-0.0,voc_e2,12170,"[{""event"":""fullscreenenter"",""trial"":1,""time"":1396}]",NA,NA,NA,NA,NA,2,#3386FF,#D89F1C,0,10,0,38,1,1647.300000011921,39,0,611.6000000089407,10,1,experiment,NA,NA,0,0.1,0.9,1,0,32,1,NA
fcp-trial,80,577208,0.0-41.0-0.0,voc_e2,12170,"[{""event"":""fullscreenenter"",""trial"":1,""time"":1396}]",NA,NA,NA,NA,NA,5,#3386FF,#D89F1C,0,10,0,38,1,815.5999999940395,39,0,703.7000000029802,10,1,experiment,NA,NA,0,0.1,0.9,1,0,33,1,NA
fcp-trial,81,581258,0.0-42.0-0.0,voc_e2,12170,"[{""event"":""fullscreenenter"",""trial"":1,""time"":1396}]",NA,NA,NA,NA,NA,3,#D8271C,#741CD8,0,0,1,38,1,1960.5999999940395,39,0,582.2999999970198,0,0,experiment,NA,NA,2,0.5,0.5,4,5,34,1,NA
fcp-trial,82,585911,0.0-43.0-0.0,voc_e2,12170,"[{""event"":""fullscreenenter"",""trial"":1,""time"":1396}]",NA,NA,NA,NA,NA,1,#1CD855,#FA92F8,0,10,0,38,1,2804.1000000089407,39,0,344.29999999701977,10,1,experiment,NA,NA,1,0.3,0.7,3,2,35,1,NA
fcp-trial,83,589042,0.0-44.0-0.0,voc_e2,12170,"[{""event"":""fullscreenenter"",""trial"":1,""time"":1396}]",NA,NA,NA,NA,NA,0,#3386FF,#D89F1C,0,10,0,38,1,1260.4000000059605,39,0,362.8999999910593,10,1,experiment,NA,NA,0,0.1,0.9,1,0,36,1,NA
fcp-trial,84,593451,0.0-45.0-0.0,voc_e2,12170,"[{""event"":""fullscreenenter"",""trial"":1,""time"":1396}]",NA,NA,NA,NA,NA,4,#D8271C,#741CD8,10,0,1,40,0,2386,39,0,514.8000000119209,0,0,experiment,NA,NA,2,0.5,0.5,4,5,37,1,NA
fcp-trial,85,597435,0.0-46.0-0.0,voc_e2,12170,"[{""event"":""fullscreenenter"",""trial"":1,""time"":1396}]",NA,NA,NA,NA,NA,0,#741CD8,#D8271C,0,0,0,38,1,2058.2000000029802,37,1,417.59999999403954,0,0,experiment,NA,NA,2,0.5,0.5,5,4,38,1,NA
fcp-trial,86,601590,0.0-47.0-0.0,voc_e2,12170,"[{""event"":""fullscreenenter"",""trial"":1,""time"":1396}]",NA,NA,NA,NA,NA,6,#FA92F8,#1CD855,0,0,1,40,0,2220.2000000029802,37,1,426.09999999403954,0,1,experiment,NA,NA,1,0.7,0.3,2,3,39,1,NA
fcp-trial,87,604912,0.0-48.0-0.0,voc_e2,12170,"[{""event"":""fullscreenenter"",""trial"":1,""time"":1396}]",NA,NA,NA,NA,NA,4,#D89F1C,#3386FF,10,0,1,38,1,1430.199999988079,37,1,382.79999999701977,10,1,experiment,NA,NA,0,0.9,0.1,0,1,40,1,NA
fcp-trial,88,608863,0.0-49.0-0.0,voc_e2,12170,"[{""event"":""fullscreenenter"",""trial"":1,""time"":1396}]",NA,NA,NA,NA,NA,6,#741CD8,#D8271C,0,0,0,38,1,2052.8999999910593,39,0,391.59999999403954,0,1,experiment,NA,NA,2,0.5,0.5,5,4,41,1,NA
fcp-trial,89,614831,0.0-50.0-0.0,voc_e2,12170,"[{""event"":""fullscreenenter"",""trial"":1,""time"":1396}]",NA,NA,NA,NA,NA,0,#1CD855,#FA92F8,0,10,0,38,1,2934.7999999970198,39,0,1523.8999999910593,10,1,experiment,NA,NA,1,0.3,0.7,3,2,42,1,NA
fcp-trial,90,618713,0.0-51.0-0.0,voc_e2,12170,"[{""event"":""fullscreenenter"",""trial"":1,""time"":1396}]",NA,NA,NA,NA,NA,6,#1CD855,#FA92F8,0,0,0,40,0,1615.5,37,1,758.1000000089407,0,0,experiment,NA,NA,1,0.3,0.7,3,2,43,1,NA
fcp-trial,91,622110,0.0-52.0-0.0,voc_e2,12170,"[{""event"":""fullscreenenter"",""trial"":1,""time"":1396}]",NA,NA,NA,NA,NA,1,#D89F1C,#3386FF,10,0,1,38,1,1497.7999999970198,37,1,389.800000011921,10,1,experiment,NA,NA,0,0.9,0.1,0,1,44,1,NA
fcp-trial,92,625991,0.0-53.0-0.0,voc_e2,12170,"[{""event"":""fullscreenenter"",""trial"":1,""time"":1396}]",NA,NA,NA,NA,NA,0,#D8271C,#741CD8,10,0,1,38,1,1320.5,39,0,1051.699999988079,0,0,experiment,NA,NA,2,0.5,0.5,4,5,45,1,NA
fcp-trial,93,630147,0.0-54.0-0.0,voc_e2,12170,"[{""event"":""fullscreenenter"",""trial"":1,""time"":1396}]",NA,NA,NA,NA,NA,2,#D89F1C,#3386FF,10,0,1,38,1,2372,37,1,279.5,10,1,experiment,NA,NA,0,0.9,0.1,0,1,46,2,NA
fcp-trial,94,633526,0.0-55.0-0.0,voc_e2,12170,"[{""event"":""fullscreenenter"",""trial"":1,""time"":1396}]",NA,NA,NA,NA,NA,3,#3386FF,#D89F1C,0,10,0,38,1,1501.5,39,0,369.79999999701977,10,1,experiment,NA,NA,0,0.1,0.9,1,0,47,2,NA
fcp-trial,95,637295,0.0-56.0-0.0,voc_e2,12170,"[{""event"":""fullscreenenter"",""trial"":1,""time"":1396}]",NA,NA,NA,NA,NA,3,#1CD855,#FA92F8,10,10,0,40,0,1859.199999988079,39,0,399.5,10,1,experiment,NA,NA,1,0.3,0.7,3,2,48,2,NA
fcp-trial,96,640613,0.0-57.0-0.0,voc_e2,12170,"[{""event"":""fullscreenenter"",""trial"":1,""time"":1396}]",NA,NA,NA,NA,NA,5,#3386FF,#D89F1C,0,10,0,40,0,1359.4000000059605,39,0,452.5,10,1,experiment,NA,NA,0,0.1,0.9,1,0,49,2,NA
fcp-trial,97,646265,0.0-58.0-0.0,voc_e2,12170,"[{""event"":""fullscreenenter"",""trial"":1,""time"":1396}]",NA,NA,NA,NA,NA,2,#741CD8,#D8271C,10,0,0,40,0,3440.3999999910593,37,1,704.3000000119209,10,0,experiment,NA,NA,2,0.5,0.5,5,4,50,2,NA
fcp-trial,98,650223,0.0-59.0-0.0,voc_e2,12170,"[{""event"":""fullscreenenter"",""trial"":1,""time"":1396}]",NA,NA,NA,NA,NA,3,#741CD8,#D8271C,0,10,0,40,0,1900.8999999910593,37,1,548.5,0,0,experiment,NA,NA,2,0.5,0.5,5,4,51,2,NA
fcp-trial,99,653440,0.0-60.0-0.0,voc_e2,12170,"[{""event"":""fullscreenenter"",""trial"":1,""time"":1396}]",NA,NA,NA,NA,NA,0,#3386FF,#D89F1C,10,0,0,38,1,1423.7000000029802,39,0,285.5,0,1,experiment,NA,NA,0,0.1,0.9,1,0,52,2,NA
fcp-trial,100,656826,0.0-61.0-0.0,voc_e2,12170,"[{""event"":""fullscreenenter"",""trial"":1,""time"":1396}]",NA,NA,NA,NA,NA,2,#FA92F8,#1CD855,10,0,1,38,1,1542.5,37,1,336.5,10,1,experiment,NA,NA,1,0.7,0.3,2,3,53,2,NA
fcp-trial,101,661689,0.0-62.0-0.0,voc_e2,12170,"[{""event"":""fullscreenenter"",""trial"":1,""time"":1396}]",NA,NA,NA,NA,NA,1,#741CD8,#D8271C,10,10,0,38,1,2273.300000011921,37,1,1081.7000000029802,10,0,experiment,NA,NA,2,0.5,0.5,5,4,54,2,NA
fcp-trial,102,666371,0.0-63.0-0.0,voc_e2,12170,"[{""event"":""fullscreenenter"",""trial"":1,""time"":1396}]",NA,NA,NA,NA,NA,5,#1CD855,#FA92F8,10,10,0,40,0,2635.5,39,0,538.2000000029802,10,1,experiment,NA,NA,1,0.3,0.7,3,2,55,2,NA
fcp-trial,103,669867,0.0-64.0-0.0,voc_e2,12170,"[{""event"":""fullscreenenter"",""trial"":1,""time"":1396}]",NA,NA,NA,NA,NA,4,#3386FF,#D89F1C,0,10,0,40,0,1336.6000000089407,37,1,652,0,0,experiment,NA,NA,0,0.1,0.9,1,0,56,2,NA
fcp-trial,104,673778,0.0-65.0-0.0,voc_e2,12170,"[{""event"":""fullscreenenter"",""trial"":1,""time"":1396}]",NA,NA,NA,NA,NA,6,#741CD8,#D8271C,10,0,0,40,0,1867.0999999940395,39,0,534,0,1,experiment,NA,NA,2,0.5,0.5,5,4,57,2,NA
fcp-trial,105,678674,0.0-66.0-0.0,voc_e2,12170,"[{""event"":""fullscreenenter"",""trial"":1,""time"":1396}]",NA,NA,NA,NA,NA,4,#FA92F8,#1CD855,10,10,1,38,1,1618.800000011921,37,1,1768.6000000089407,10,1,experiment,NA,NA,1,0.7,0.3,2,3,58,2,NA
fcp-trial,106,682252,0.0-67.0-0.0,voc_e2,12170,"[{""event"":""fullscreenenter"",""trial"":1,""time"":1396}]",NA,NA,NA,NA,NA,6,#D89F1C,#3386FF,10,0,1,40,0,1374.2999999970198,37,1,697.1000000089407,10,1,experiment,NA,NA,0,0.9,0.1,0,1,59,2,NA
fcp-trial,107,686638,0.0-68.0-0.0,voc_e2,12170,"[{""event"":""fullscreenenter"",""trial"":1,""time"":1396}]",NA,NA,NA,NA,NA,4,#741CD8,#D8271C,0,0,0,40,0,2027,39,0,849.7999999970198,0,1,experiment,NA,NA,2,0.5,0.5,5,4,60,2,NA
fcp-trial,108,690665,0.0-69.0-0.0,voc_e2,12170,"[{""event"":""fullscreenenter"",""trial"":1,""time"":1396}]",NA,NA,NA,NA,NA,5,#741CD8,#D8271C,10,0,0,40,0,1996.8999999910593,39,0,522.2999999970198,0,1,experiment,NA,NA,2,0.5,0.5,5,4,61,2,NA
fcp-trial,109,695739,0.0-70.0-0.0,voc_e2,12170,"[{""event"":""fullscreenenter"",""trial"":1,""time"":1396}]",NA,NA,NA,NA,NA,0,#1CD855,#FA92F8,0,0,0,38,1,2059.7999999970198,39,0,1506.2999999970198,0,1,experiment,NA,NA,1,0.3,0.7,3,2,62,2,NA
fcp-trial,110,699191,0.0-71.0-0.0,voc_e2,12170,"[{""event"":""fullscreenenter"",""trial"":1,""time"":1396}]",NA,NA,NA,NA,NA,1,#FA92F8,#1CD855,10,0,1,38,1,1533,37,1,406.5,10,1,experiment,NA,NA,1,0.7,0.3,2,3,63,2,NA
fcp-trial,111,702344,0.0-72.0-0.0,voc_e2,12170,"[{""event"":""fullscreenenter"",""trial"":1,""time"":1396}]",NA,NA,NA,NA,NA,0,#D89F1C,#3386FF,10,0,1,38,1,1189.5999999940395,37,1,453.800000011921,10,1,experiment,NA,NA,0,0.9,0.1,0,1,64,2,NA
fcp-trial,112,706477,0.0-73.0-0.0,voc_e2,12170,"[{""event"":""fullscreenenter"",""trial"":1,""time"":1396}]",NA,NA,NA,NA,NA,0,#1CD855,#FA92F8,0,10,0,38,1,1359.2999999970198,39,0,1265.5,10,1,experiment,NA,NA,1,0.3,0.7,3,2,65,2,NA
fcp-trial,113,710571,0.0-74.0-0.0,voc_e2,12170,"[{""event"":""fullscreenenter"",""trial"":1,""time"":1396}]",NA,NA,NA,NA,NA,5,#D8271C,#741CD8,0,10,1,40,0,1794.2999999970198,37,1,792.7000000029802,0,1,experiment,NA,NA,2,0.5,0.5,4,5,66,2,NA
fcp-trial,114,713376,0.0-75.0-0.0,voc_e2,12170,"[{""event"":""fullscreenenter"",""trial"":1,""time"":1396}]",NA,NA,NA,NA,NA,2,#3386FF,#D89F1C,10,10,0,38,1,844.8999999910593,39,0,452.5,10,1,experiment,NA,NA,0,0.1,0.9,1,0,67,2,NA
fcp-trial,115,718981,0.0-76.0-0.0,voc_e2,12170,"[{""event"":""fullscreenenter"",""trial"":1,""time"":1396}]",NA,NA,NA,NA,NA,0,#741CD8,#D8271C,10,0,0,38,1,3081.2999999970198,39,0,1017.6000000089408,0,1,experiment,NA,NA,2,0.5,0.5,5,4,68,2,NA
fcp-trial,116,722538,0.0-77.0-0.0,voc_e2,12170,"[{""event"":""fullscreenenter"",""trial"":1,""time"":1396}]",NA,NA,NA,NA,NA,6,#1CD855,#FA92F8,0,10,0,40,0,1593.5999999940395,39,0,451.79999999701977,10,1,experiment,NA,NA,1,0.3,0.7,3,2,69,2,NA
fcp-trial,117,726801,0.0-78.0-0.0,voc_e2,12170,"[{""event"":""fullscreenenter"",""trial"":1,""time"":1396}]",NA,NA,NA,NA,NA,6,#741CD8,#D8271C,10,0,0,40,0,2157.5999999940395,39,0,598.1999999880791,0,1,experiment,NA,NA,2,0.5,0.5,5,4,70,2,NA
fcp-trial,118,730570,0.0-79.0-0.0,voc_e2,12170,"[{""event"":""fullscreenenter"",""trial"":1,""time"":1396}]",NA,NA,NA,NA,NA,4,#3386FF,#D89F1C,0,10,0,40,0,1883.1000000089407,39,0,378.6000000089407,10,1,experiment,NA,NA,0,0.1,0.9,1,0,71,2,NA
fcp-trial,119,735332,0.0-80.0-0.0,voc_e2,12170,"[{""event"":""fullscreenenter"",""trial"":1,""time"":1396}]",NA,NA,NA,NA,NA,5,#1CD855,#FA92F8,10,10,0,40,0,2402.5,37,1,852,10,0,experiment,NA,NA,1,0.3,0.7,3,2,72,2,NA
fcp-trial,120,738910,0.0-81.0-0.0,voc_e2,12170,"[{""event"":""fullscreenenter"",""trial"":1,""time"":1396}]",NA,NA,NA,NA,NA,5,#D89F1C,#3386FF,10,0,1,40,0,1491.2000000029802,37,1,578.9000000059605,10,1,experiment,NA,NA,0,0.9,0.1,0,1,73,2,NA
fcp-trial,121,743556,0.0-82.0-0.0,voc_e2,12170,"[{""event"":""fullscreenenter"",""trial"":1,""time"":1396}]",NA,NA,NA,NA,NA,3,#1CD855,#FA92F8,10,10,0,38,1,2275.4000000059605,39,0,861.2999999970198,10,1,experiment,NA,NA,1,0.3,0.7,3,2,74,2,NA
fcp-trial,122,747384,0.0-83.0-0.0,voc_e2,12170,"[{""event"":""fullscreenenter"",""trial"":1,""time"":1396}]",NA,NA,NA,NA,NA,2,#741CD8,#D8271C,10,10,0,40,0,1579.1000000089407,37,1,740.9000000059605,10,0,experiment,NA,NA,2,0.5,0.5,5,4,75,2,NA
fcp-trial,123,750805,0.0-84.0-0.0,voc_e2,12170,"[{""event"":""fullscreenenter"",""trial"":1,""time"":1396}]",NA,NA,NA,NA,NA,4,#741CD8,#D8271C,0,0,0,40,0,1378.7000000029802,39,0,533.2000000029802,0,1,experiment,NA,NA,2,0.5,0.5,5,4,76,2,NA
fcp-trial,124,755062,0.0-85.0-0.0,voc_e2,12170,"[{""event"":""fullscreenenter"",""trial"":1,""time"":1396}]",NA,NA,NA,NA,NA,2,#1CD855,#FA92F8,0,10,0,38,1,1640.2999999970198,39,0,1108.1000000089407,10,1,experiment,NA,NA,1,0.3,0.7,3,2,77,2,NA
fcp-trial,125,758515,0.0-86.0-0.0,voc_e2,12170,"[{""event"":""fullscreenenter"",""trial"":1,""time"":1396}]",NA,NA,NA,NA,NA,6,#3386FF,#D89F1C,0,10,0,40,0,1265.8999999910593,37,1,677.5,0,0,experiment,NA,NA,0,0.1,0.9,1,0,78,2,NA
fcp-trial,126,763867,0.0-87.0-0.0,voc_e2,12170,"[{""event"":""fullscreenenter"",""trial"":1,""time"":1396}]",NA,NA,NA,NA,NA,1,#FA92F8,#1CD855,10,10,1,38,1,2793.3999999910593,37,1,1051.2999999970198,10,1,experiment,NA,NA,1,0.7,0.3,2,3,79,2,NA
fcp-trial,127,769183,0.0-88.0-0.0,voc_e2,12170,"[{""event"":""fullscreenenter"",""trial"":1,""time"":1396}]",NA,NA,NA,NA,NA,1,#D8271C,#741CD8,10,10,1,38,1,2502.5,39,0,1305.4000000059605,10,0,experiment,NA,NA,2,0.5,0.5,4,5,80,2,NA
fcp-trial,128,772921,0.0-89.0-0.0,voc_e2,12170,"[{""event"":""fullscreenenter"",""trial"":1,""time"":1396}]",NA,NA,NA,NA,NA,3,#D89F1C,#3386FF,10,0,1,40,0,1383.2000000029802,39,0,845.2000000029802,0,0,experiment,NA,NA,0,0.9,0.1,0,1,81,2,NA
fcp-trial,129,776582,0.0-90.0-0.0,voc_e2,12170,"[{""event"":""fullscreenenter"",""trial"":1,""time"":1396}]",NA,NA,NA,NA,NA,4,#FA92F8,#1CD855,10,10,1,38,1,1408.7999999970198,37,1,738.7000000029802,10,1,experiment,NA,NA,1,0.7,0.3,2,3,82,2,NA
fcp-trial,130,781150,0.0-91.0-0.0,voc_e2,12170,"[{""event"":""fullscreenenter"",""trial"":1,""time"":1396}]",NA,NA,NA,NA,NA,3,#D8271C,#741CD8,0,10,1,38,1,2268.2999999970198,39,0,791.5,10,0,experiment,NA,NA,2,0.5,0.5,4,5,83,2,NA
fcp-trial,131,784360,0.0-92.0-0.0,voc_e2,12170,"[{""event"":""fullscreenenter"",""trial"":1,""time"":1396}]",NA,NA,NA,NA,NA,1,#D89F1C,#3386FF,0,0,1,38,1,1379.7999999970198,37,1,321.29999999701977,0,1,experiment,NA,NA,0,0.9,0.1,0,1,84,2,NA
fcp-trial,132,791071,0.0-93.0-0.0,voc_e2,12170,"[{""event"":""fullscreenenter"",""trial"":1,""time"":1396}]",NA,NA,NA,NA,NA,2,#741CD8,#D8271C,0,10,0,40,0,4579.800000011921,37,1,622.1000000089407,0,0,experiment,NA,NA,2,0.5,0.5,5,4,85,2,NA
fcp-trial,133,795099,0.0-94.0-0.0,voc_e2,12170,"[{""event"":""fullscreenenter"",""trial"":1,""time"":1396}]",NA,NA,NA,NA,NA,4,#3386FF,#D89F1C,0,0,0,40,0,1439.8999999910593,37,1,1081.2999999970198,0,0,experiment,NA,NA,0,0.1,0.9,1,0,86,2,NA
fcp-trial,134,799489,0.0-95.0-0.0,voc_e2,12170,"[{""event"":""fullscreenenter"",""trial"":1,""time"":1396}]",NA,NA,NA,NA,NA,5,#FA92F8,#1CD855,10,0,1,38,1,2533.3999999910593,37,1,349.69999998807907,10,1,experiment,NA,NA,1,0.7,0.3,2,3,87,2,NA
fcp-trial,135,803791,0.0-96.0-0.0,voc_e2,12170,"[{""event"":""fullscreenenter"",""trial"":1,""time"":1396}]",NA,NA,NA,NA,NA,4,#1CD855,#FA92F8,0,10,0,40,0,1864.9000000059605,37,1,928.7000000029802,0,0,experiment,NA,NA,1,0.3,0.7,3,2,88,2,NA
fcp-trial,136,807160,0.0-97.0-0.0,voc_e2,12170,"[{""event"":""fullscreenenter"",""trial"":1,""time"":1396}]",NA,NA,NA,NA,NA,2,#3386FF,#D89F1C,0,10,0,38,1,1314,39,0,547.4000000059605,10,1,experiment,NA,NA,0,0.1,0.9,1,0,89,2,NA
fcp-trial,137,811257,0.0-98.0-0.0,voc_e2,12170,"[{""event"":""fullscreenenter"",""trial"":1,""time"":1396}]",NA,NA,NA,NA,NA,5,#741CD8,#D8271C,10,0,0,40,0,1677.7999999970198,37,1,911,10,0,experiment,NA,NA,2,0.5,0.5,5,4,90,2,NA
fcp-trial,138,815973,0.0-99.0-0.0,voc_e2,12170,"[{""event"":""fullscreenenter"",""trial"":1,""time"":1396}]",NA,NA,NA,NA,NA,1,#1CD855,#FA92F8,0,10,0,38,1,2176.9000000059605,39,0,1031.3999999910593,10,1,experiment,NA,NA,1,0.3,0.7,3,2,91,3,NA
fcp-trial,139,820984,0.0-100.0-0.0,voc_e2,12170,"[{""event"":""fullscreenenter"",""trial"":1,""time"":1396}]",NA,NA,NA,NA,NA,3,#741CD8,#D8271C,10,0,0,40,0,2799.5999999940395,39,0,702,0,1,experiment,NA,NA,2,0.5,0.5,5,4,92,3,NA
fcp-trial,140,823934,0.0-101.0-0.0,voc_e2,12170,"[{""event"":""fullscreenenter"",""trial"":1,""time"":1396}]",NA,NA,NA,NA,NA,1,#3386FF,#D89F1C,10,10,0,38,1,1181.2999999970198,39,0,258.5,10,1,experiment,NA,NA,0,0.1,0.9,1,0,93,3,NA
fcp-trial,141,828611,0.0-102.0-0.0,voc_e2,12170,"[{""event"":""fullscreenenter"",""trial"":1,""time"":1396}]",NA,NA,NA,NA,NA,4,#D8271C,#741CD8,0,0,1,40,0,2600.7000000029802,37,1,566.7999999970198,0,1,experiment,NA,NA,2,0.5,0.5,4,5,94,3,NA
fcp-trial,142,832096,0.0-103.0-0.0,voc_e2,12170,"[{""event"":""fullscreenenter"",""trial"":1,""time"":1396}]",NA,NA,NA,NA,NA,5,#D89F1C,#3386FF,0,0,1,40,0,1450.2999999970198,39,0,522,0,0,experiment,NA,NA,0,0.9,0.1,0,1,95,3,NA
fcp-trial,143,835051,0.0-104.0-0.0,voc_e2,12170,"[{""event"":""fullscreenenter"",""trial"":1,""time"":1396}]",NA,NA,NA,NA,NA,2,#1CD855,#FA92F8,10,10,0,38,1,1043.8999999910593,39,0,402.09999999403954,10,1,experiment,NA,NA,1,0.3,0.7,3,2,96,3,NA
fcp-trial,144,838397,0.0-105.0-0.0,voc_e2,12170,"[{""event"":""fullscreenenter"",""trial"":1,""time"":1396}]",NA,NA,NA,NA,NA,0,#D89F1C,#3386FF,0,0,1,38,1,1425.2999999970198,37,1,410.79999999701977,0,1,experiment,NA,NA,0,0.9,0.1,0,1,97,3,NA
fcp-trial,145,842695,0.0-106.0-0.0,voc_e2,12170,"[{""event"":""fullscreenenter"",""trial"":1,""time"":1396}]",NA,NA,NA,NA,NA,6,#741CD8,#D8271C,0,10,0,40,0,2250.2000000029802,37,1,540.0999999940395,0,0,experiment,NA,NA,2,0.5,0.5,5,4,98,3,NA
fcp-trial,146,847074,0.0-107.0-0.0,voc_e2,12170,"[{""event"":""fullscreenenter"",""trial"":1,""time"":1396}]",NA,NA,NA,NA,NA,0,#FA92F8,#1CD855,10,0,1,38,1,1506.4000000059605,37,1,1362.7000000029802,10,1,experiment,NA,NA,1,0.7,0.3,2,3,99,3,NA
fcp-trial,147,850665,0.0-108.0-0.0,voc_e2,12170,"[{""event"":""fullscreenenter"",""trial"":1,""time"":1396}]",NA,NA,NA,NA,NA,6,#1CD855,#FA92F8,0,0,0,40,0,1598.8999999910593,39,0,482.90000000596046,0,1,experiment,NA,NA,1,0.3,0.7,3,2,100,3,NA
fcp-trial,148,857124,0.0-109.0-0.0,voc_e2,12170,"[{""event"":""fullscreenenter"",""trial"":1,""time"":1396}]",NA,NA,NA,NA,NA,1,#741CD8,#D8271C,10,0,0,38,1,4494.0999999940395,37,1,452.79999999701977,10,0,experiment,NA,NA,2,0.5,0.5,5,4,101,3,NA
fcp-trial,149,860465,0.0-110.0-0.0,voc_e2,12170,"[{""event"":""fullscreenenter"",""trial"":1,""time"":1396}]",NA,NA,NA,NA,NA,6,#3386FF,#D89F1C,0,0,0,40,0,1360.0999999940395,39,0,471,0,1,experiment,NA,NA,0,0.1,0.9,1,0,102,3,NA
fcp-trial,150,864094,0.0-111.0-0.0,voc_e2,12170,"[{""event"":""fullscreenenter"",""trial"":1,""time"":1396}]",NA,NA,NA,NA,NA,3,#3386FF,#D89F1C,0,10,0,38,1,1730.2999999970198,39,0,388.40000000596046,10,1,experiment,NA,NA,0,0.1,0.9,1,0,103,3,NA
fcp-trial,151,868415,0.0-112.0-0.0,voc_e2,12170,"[{""event"":""fullscreenenter"",""trial"":1,""time"":1396}]",NA,NA,NA,NA,NA,0,#741CD8,#D8271C,10,0,0,38,1,2283.300000011921,37,1,525.6000000089407,10,0,experiment,NA,NA,2,0.5,0.5,5,4,104,3,NA
fcp-trial,152,872205,0.0-113.0-0.0,voc_e2,12170,"[{""event"":""fullscreenenter"",""trial"":1,""time"":1396}]",NA,NA,NA,NA,NA,3,#FA92F8,#1CD855,10,10,1,38,1,1822.199999988079,37,1,460.79999999701977,10,1,experiment,NA,NA,1,0.7,0.3,2,3,105,3,NA
audio-instructions,153,884683,0.0-114.0,voc_e2,12170,"[{""event"":""fullscreenenter"",""trial"":1,""time"":1396}]",NA,6946.100000008941,static/audio/pause.wav,NA,0,NA,NA,NA,NA,NA,NA,NA,NA,NA,NA,NA,NA,NA,NA,NA,NA,NA,NA,NA,NA,NA,NA,NA,NA,NA
fcp-trial,154,888099,0.0-115.0-0.0,voc_e2,12170,"[{""event"":""fullscreenenter"",""trial"":1,""time"":1396}]",NA,NA,NA,NA,NA,0,#741CD8,#D8271C,0,0,0,38,1,1200,37,1,690.3999999910593,0,0,experiment,NA,NA,2,0.5,0.5,5,4,106,3,NA
fcp-trial,155,891425,0.0-116.0-0.0,voc_e2,12170,"[{""event"":""fullscreenenter"",""trial"":1,""time"":1396}]",NA,NA,NA,NA,NA,1,#D89F1C,#3386FF,10,10,1,38,1,1517.2999999970198,37,1,293,10,1,experiment,NA,NA,0,0.9,0.1,0,1,107,3,NA
fcp-trial,156,894430,0.0-117.0-0.0,voc_e2,12170,"[{""event"":""fullscreenenter"",""trial"":1,""time"":1396}]",NA,NA,NA,NA,NA,0,#D89F1C,#3386FF,10,0,1,38,1,1230.3999999910593,37,1,265.1000000089407,10,1,experiment,NA,NA,0,0.9,0.1,0,1,108,3,NA
fcp-trial,157,897877,0.0-118.0-0.0,voc_e2,12170,"[{""event"":""fullscreenenter"",""trial"":1,""time"":1396}]",NA,NA,NA,NA,NA,2,#FA92F8,#1CD855,10,0,1,40,0,1417.2000000029802,39,0,509.5,0,0,experiment,NA,NA,1,0.7,0.3,2,3,109,3,NA
fcp-trial,158,901361,0.0-119.0-0.0,voc_e2,12170,"[{""event"":""fullscreenenter"",""trial"":1,""time"":1396}]",NA,NA,NA,NA,NA,3,#D8271C,#741CD8,0,10,1,38,1,1528.800000011921,39,0,431.20000000298023,10,0,experiment,NA,NA,2,0.5,0.5,4,5,110,3,NA
fcp-trial,159,905176,0.0-120.0-0.0,voc_e2,12170,"[{""event"":""fullscreenenter"",""trial"":1,""time"":1396}]",NA,NA,NA,NA,NA,5,#1CD855,#FA92F8,10,10,0,40,0,1873.4000000059605,39,0,428.79999999701977,10,1,experiment,NA,NA,1,0.3,0.7,3,2,111,3,NA
fcp-trial,160,908298,0.0-121.0-0.0,voc_e2,12170,"[{""event"":""fullscreenenter"",""trial"":1,""time"":1396}]",NA,NA,NA,NA,NA,3,#3386FF,#D89F1C,0,10,0,38,1,1238.0999999940395,39,0,374.40000000596046,10,1,experiment,NA,NA,0,0.1,0.9,1,0,112,3,NA
fcp-trial,161,912515,0.0-122.0-0.0,voc_e2,12170,"[{""event"":""fullscreenenter"",""trial"":1,""time"":1396}]",NA,NA,NA,NA,NA,2,#741CD8,#D8271C,10,0,0,38,1,2345.300000011921,37,1,365.20000000298023,10,0,experiment,NA,NA,2,0.5,0.5,5,4,113,3,NA
fcp-trial,162,916068,0.0-123.0-0.0,voc_e2,12170,"[{""event"":""fullscreenenter"",""trial"":1,""time"":1396}]",NA,NA,NA,NA,NA,3,#FA92F8,#1CD855,10,10,1,40,0,1617.5,37,1,427.29999999701977,10,1,experiment,NA,NA,1,0.7,0.3,2,3,114,3,NA
fcp-trial,163,919964,0.0-124.0-0.0,voc_e2,12170,"[{""event"":""fullscreenenter"",""trial"":1,""time"":1396}]",NA,NA,NA,NA,NA,4,#FA92F8,#1CD855,10,0,1,38,1,1836.4000000059605,37,1,551.7000000029802,10,1,experiment,NA,NA,1,0.7,0.3,2,3,115,3,NA
fcp-trial,164,923093,0.0-125.0-0.0,voc_e2,12170,"[{""event"":""fullscreenenter"",""trial"":1,""time"":1396}]",NA,NA,NA,NA,NA,1,#D8271C,#741CD8,10,10,1,38,1,1340,39,0,279.19999998807907,10,0,experiment,NA,NA,2,0.5,0.5,4,5,116,3,NA
fcp-trial,165,926279,0.0-126.0-0.0,voc_e2,12170,"[{""event"":""fullscreenenter"",""trial"":1,""time"":1396}]",NA,NA,NA,NA,NA,2,#D89F1C,#3386FF,10,0,1,40,0,1282.5,37,1,394.79999999701977,10,1,experiment,NA,NA,0,0.9,0.1,0,1,117,3,NA
fcp-trial,166,929645,0.0-127.0-0.0,voc_e2,12170,"[{""event"":""fullscreenenter"",""trial"":1,""time"":1396}]",NA,NA,NA,NA,NA,5,#D8271C,#741CD8,10,0,1,40,0,1478,39,0,379.40000000596046,0,0,experiment,NA,NA,2,0.5,0.5,4,5,118,3,NA
fcp-trial,167,933371,0.0-128.0-0.0,voc_e2,12170,"[{""event"":""fullscreenenter"",""trial"":1,""time"":1396}]",NA,NA,NA,NA,NA,0,#1CD855,#FA92F8,0,10,0,38,1,1426.5999999940395,39,0,791,10,1,experiment,NA,NA,1,0.3,0.7,3,2,119,3,NA
fcp-trial,168,937412,0.0-129.0-0.0,voc_e2,12170,"[{""event"":""fullscreenenter"",""trial"":1,""time"":1396}]",NA,NA,NA,NA,NA,4,#D8271C,#741CD8,10,10,1,40,0,2006.3999999910593,37,1,527.7000000029802,10,1,experiment,NA,NA,2,0.5,0.5,4,5,120,3,NA
fcp-trial,169,940928,0.0-130.0-0.0,voc_e2,12170,"[{""event"":""fullscreenenter"",""trial"":1,""time"":1396}]",NA,NA,NA,NA,NA,5,#3386FF,#D89F1C,0,10,0,40,0,1627.6000000089407,39,0,381.59999999403954,10,1,experiment,NA,NA,0,0.1,0.9,1,0,121,3,NA
fcp-trial,170,944209,0.0-131.0-0.0,voc_e2,12170,"[{""event"":""fullscreenenter"",""trial"":1,""time"":1396}]",NA,NA,NA,NA,NA,6,#D89F1C,#3386FF,10,10,1,40,0,1322.4000000059605,37,1,451.5,10,1,experiment,NA,NA,0,0.9,0.1,0,1,122,3,NA
fcp-trial,171,948366,0.0-132.0-0.0,voc_e2,12170,"[{""event"":""fullscreenenter"",""trial"":1,""time"":1396}]",NA,NA,NA,NA,NA,6,#741CD8,#D8271C,10,0,0,40,0,1496.7000000029802,39,0,1153.3999999910593,0,1,experiment,NA,NA,2,0.5,0.5,5,4,123,3,NA
fcp-trial,172,952762,0.0-133.0-0.0,voc_e2,12170,"[{""event"":""fullscreenenter"",""trial"":1,""time"":1396}]",NA,NA,NA,NA,NA,1,#1CD855,#FA92F8,0,0,0,38,1,1800.2999999970198,39,0,1087.7999999970198,0,1,experiment,NA,NA,1,0.3,0.7,3,2,124,3,NA
fcp-trial,173,956269,0.0-134.0-0.0,voc_e2,12170,"[{""event"":""fullscreenenter"",""trial"":1,""time"":1396}]",NA,NA,NA,NA,NA,4,#3386FF,#D89F1C,10,0,0,40,0,1482.2999999970198,39,0,513.6999999880791,0,1,experiment,NA,NA,0,0.1,0.9,1,0,125,3,NA
fcp-trial,174,961733,0.0-135.0-0.0,voc_e2,12170,"[{""event"":""fullscreenenter"",""trial"":1,""time"":1396}]",NA,NA,NA,NA,NA,6,#1CD855,#FA92F8,0,10,0,38,1,3469.199999988079,39,0,486.1000000089407,10,1,experiment,NA,NA,1,0.3,0.7,3,2,126,3,NA
fcp-trial,175,965514,0.0-136.0-0.0,voc_e2,12170,"[{""event"":""fullscreenenter"",""trial"":1,""time"":1396}]",NA,NA,NA,NA,NA,5,#1CD855,#FA92F8,0,10,0,40,0,1700.7000000029802,39,0,573.5,10,1,experiment,NA,NA,1,0.3,0.7,3,2,127,3,NA
fcp-trial,176,969598,0.0-137.0-0.0,voc_e2,12170,"[{""event"":""fullscreenenter"",""trial"":1,""time"":1396}]",NA,NA,NA,NA,NA,3,#D8271C,#741CD8,10,10,1,38,1,1414.7999999970198,39,0,1160.4000000059605,10,0,experiment,NA,NA,2,0.5,0.5,4,5,128,3,NA
fcp-trial,177,973990,0.0-138.0-0.0,voc_e2,12170,"[{""event"":""fullscreenenter"",""trial"":1,""time"":1396}]",NA,NA,NA,NA,NA,5,#3386FF,#D89F1C,0,10,0,38,1,2445.8999999910593,39,0,437.79999999701977,10,1,experiment,NA,NA,0,0.1,0.9,1,0,129,3,NA
fcp-trial,178,977588,0.0-139.0-0.0,voc_e2,12170,"[{""event"":""fullscreenenter"",""trial"":1,""time"":1396}]",NA,NA,NA,NA,NA,0,#D89F1C,#3386FF,10,0,1,40,0,882.7000000029802,39,0,1207.2999999970198,0,0,experiment,NA,NA,0,0.9,0.1,0,1,130,3,NA
fcp-trial,179,981118,0.0-140.0-0.0,voc_e2,12170,"[{""event"":""fullscreenenter"",""trial"":1,""time"":1396}]",NA,NA,NA,NA,NA,2,#FA92F8,#1CD855,10,0,1,38,1,1338.5999999940395,37,1,682,10,1,experiment,NA,NA,1,0.7,0.3,2,3,131,3,NA
fcp-trial,180,984639,0.0-141.0-0.0,voc_e2,12170,"[{""event"":""fullscreenenter"",""trial"":1,""time"":1396}]",NA,NA,NA,NA,NA,0,#D8271C,#741CD8,0,10,1,38,1,1633.7000000029802,39,0,377.8999999910593,10,0,experiment,NA,NA,2,0.5,0.5,4,5,132,3,NA
fcp-trial,181,987842,0.0-142.0-0.0,voc_e2,12170,"[{""event"":""fullscreenenter"",""trial"":1,""time"":1396}]",NA,NA,NA,NA,NA,1,#D89F1C,#3386FF,10,0,1,38,1,1421.199999988079,37,1,276,10,1,experiment,NA,NA,0,0.9,0.1,0,1,133,3,NA
fcp-trial,182,992809,0.0-143.0-0.0,voc_e2,12170,"[{""event"":""fullscreenenter"",""trial"":1,""time"":1396}]",NA,NA,NA,NA,NA,6,#1CD855,#FA92F8,0,10,0,40,0,2466.3999999910593,37,1,992.2999999970198,0,0,experiment,NA,NA,1,0.3,0.7,3,2,134,3,NA
fcp-trial,183,997323,0.0-144.0-0.0,voc_e2,12170,"[{""event"":""fullscreenenter"",""trial"":1,""time"":1396}]",NA,NA,NA,NA,NA,6,#3386FF,#D89F1C,0,10,0,40,0,1419.7999999970198,37,1,1584.2000000029802,0,0,experiment,NA,NA,0,0.1,0.9,1,0,135,3,NA
fcp-trial,184,1001175,0.0-145.0-0.0,voc_e2,12170,"[{""event"":""fullscreenenter"",""trial"":1,""time"":1396}]",NA,NA,NA,NA,NA,3,#1CD855,#FA92F8,0,10,0,38,1,1961.199999988079,39,0,378.29999999701977,10,1,experiment,NA,NA,1,0.3,0.7,3,2,136,4,NA
fcp-trial,185,1004897,0.0-146.0-0.0,voc_e2,12170,"[{""event"":""fullscreenenter"",""trial"":1,""time"":1396}]",NA,NA,NA,NA,NA,5,#D8271C,#741CD8,0,10,1,40,0,1431.5999999940395,39,0,782.2000000029802,10,0,experiment,NA,NA,2,0.5,0.5,4,5,137,4,NA
fcp-trial,186,1008838,0.0-147.0-0.0,voc_e2,12170,"[{""event"":""fullscreenenter"",""trial"":1,""time"":1396}]",NA,NA,NA,NA,NA,1,#D8271C,#741CD8,0,0,1,38,1,1964.5999999940395,39,0,468.20000000298023,0,0,experiment,NA,NA,2,0.5,0.5,4,5,138,4,NA
fcp-trial,187,1012710,0.0-148.0-0.0,voc_e2,12170,"[{""event"":""fullscreenenter"",""trial"":1,""time"":1396}]",NA,NA,NA,NA,NA,2,#3386FF,#D89F1C,0,10,0,40,0,1450.6000000089407,37,1,911.3000000119208,0,0,experiment,NA,NA,0,0.1,0.9,1,0,139,4,NA
fcp-trial,188,1016643,0.0-149.0-0.0,voc_e2,12170,"[{""event"":""fullscreenenter"",""trial"":1,""time"":1396}]",NA,NA,NA,NA,NA,0,#FA92F8,#1CD855,10,10,1,38,1,2041,39,0,386.59999999403954,10,0,experiment,NA,NA,1,0.7,0.3,2,3,140,4,NA
fcp-trial,189,1020650,0.0-150.0-0.0,voc_e2,12170,"[{""event"":""fullscreenenter"",""trial"":1,""time"":1396}]",NA,NA,NA,NA,NA,6,#741CD8,#D8271C,10,0,0,40,0,1738.699999988079,39,0,760.9000000059605,0,1,experiment,NA,NA,2,0.5,0.5,5,4,141,4,NA
fcp-trial,190,1023854,0.0-151.0-0.0,voc_e2,12170,"[{""event"":""fullscreenenter"",""trial"":1,""time"":1396}]",NA,NA,NA,NA,NA,1,#1CD855,#FA92F8,0,0,0,38,1,1260.5,39,0,436,0,1,experiment,NA,NA,1,0.3,0.7,3,2,142,4,NA
fcp-trial,191,1027907,0.0-152.0-0.0,voc_e2,12170,"[{""event"":""fullscreenenter"",""trial"":1,""time"":1396}]",NA,NA,NA,NA,NA,4,#3386FF,#D89F1C,0,10,0,40,0,1618.2000000029802,37,1,924.2000000029802,0,0,experiment,NA,NA,0,0.1,0.9,1,0,143,4,NA
fcp-trial,192,1031177,0.0-153.0-0.0,voc_e2,12170,"[{""event"":""fullscreenenter"",""trial"":1,""time"":1396}]",NA,NA,NA,NA,NA,2,#741CD8,#D8271C,10,10,0,38,1,1465.7999999970198,37,1,295.3999999910593,10,0,experiment,NA,NA,2,0.5,0.5,5,4,144,4,NA
fcp-trial,193,1034361,0.0-154.0-0.0,voc_e2,12170,"[{""event"":""fullscreenenter"",""trial"":1,""time"":1396}]",NA,NA,NA,NA,NA,3,#3386FF,#D89F1C,0,10,0,38,1,1028.3999999910593,39,0,646.7999999970198,10,1,experiment,NA,NA,0,0.1,0.9,1,0,145,4,NA
fcp-trial,194,1038561,0.0-155.0-0.0,voc_e2,12170,"[{""event"":""fullscreenenter"",""trial"":1,""time"":1396}]",NA,NA,NA,NA,NA,4,#1CD855,#FA92F8,0,0,0,40,0,2292.0999999940395,39,0,398.79999999701977,0,1,experiment,NA,NA,1,0.3,0.7,3,2,146,4,NA
fcp-trial,195,1042411,0.0-156.0-0.0,voc_e2,12170,"[{""event"":""fullscreenenter"",""trial"":1,""time"":1396}]",NA,NA,NA,NA,NA,4,#741CD8,#D8271C,10,0,0,38,1,1958.7999999970198,37,1,383.699999988079,10,0,experiment,NA,NA,2,0.5,0.5,5,4,147,4,NA
fcp-trial,196,1045983,0.0-157.0-0.0,voc_e2,12170,"[{""event"":""fullscreenenter"",""trial"":1,""time"":1396}]",NA,NA,NA,NA,NA,5,#3386FF,#D89F1C,0,10,0,40,0,1678.5,39,0,386.40000000596046,10,1,experiment,NA,NA,0,0.1,0.9,1,0,148,4,NA
fcp-trial,197,1050066,0.0-158.0-0.0,voc_e2,12170,"[{""event"":""fullscreenenter"",""trial"":1,""time"":1396}]",NA,NA,NA,NA,NA,3,#1CD855,#FA92F8,0,0,0,38,1,1908.2999999970198,39,0,665,0,1,experiment,NA,NA,1,0.3,0.7,3,2,149,4,NA
fcp-trial,198,1054858,0.0-159.0-0.0,voc_e2,12170,"[{""event"":""fullscreenenter"",""trial"":1,""time"":1396}]",NA,NA,NA,NA,NA,3,#D8271C,#741CD8,0,0,1,38,1,2594.5,39,0,687,0,0,experiment,NA,NA,2,0.5,0.5,4,5,150,4,NA
fcp-trial,199,1057980,0.0-160.0-0.0,voc_e2,12170,"[{""event"":""fullscreenenter"",""trial"":1,""time"":1396}]",NA,NA,NA,NA,NA,5,#741CD8,#D8271C,0,10,0,40,0,752.0999999940395,37,1,862.2000000029802,0,0,experiment,NA,NA,2,0.5,0.5,5,4,151,4,NA
fcp-trial,200,1061536,0.0-161.0-0.0,voc_e2,12170,"[{""event"":""fullscreenenter"",""trial"":1,""time"":1396}]",NA,NA,NA,NA,NA,6,#FA92F8,#1CD855,10,0,1,40,0,1588.5999999940395,39,0,458.300000011921,0,0,experiment,NA,NA,1,0.7,0.3,2,3,152,4,NA
fcp-trial,201,1064665,0.0-162.0-0.0,voc_e2,12170,"[{""event"":""fullscreenenter"",""trial"":1,""time"":1396}]",NA,NA,NA,NA,NA,3,#3386FF,#D89F1C,10,10,0,38,1,1346.7999999970198,39,0,275.30000001192093,10,1,experiment,NA,NA,0,0.1,0.9,1,0,153,4,NA
fcp-trial,202,1068345,0.0-163.0-0.0,voc_e2,12170,"[{""event"":""fullscreenenter"",""trial"":1,""time"":1396}]",NA,NA,NA,NA,NA,5,#1CD855,#FA92F8,0,10,0,40,0,1740.2000000029802,39,0,432.6000000089407,10,1,experiment,NA,NA,1,0.3,0.7,3,2,154,4,NA
fcp-trial,203,1072603,0.0-164.0-0.0,voc_e2,12170,"[{""event"":""fullscreenenter"",""trial"":1,""time"":1396}]",NA,NA,NA,NA,NA,4,#D8271C,#741CD8,10,10,1,40,0,1968.9000000059605,39,0,782.2999999970198,10,0,experiment,NA,NA,2,0.5,0.5,4,5,155,4,NA
fcp-trial,204,1075590,0.0-165.0-0.0,voc_e2,12170,"[{""event"":""fullscreenenter"",""trial"":1,""time"":1396}]",NA,NA,NA,NA,NA,1,#3386FF,#D89F1C,0,10,0,38,1,1165.7000000029802,39,0,311.20000000298023,10,1,experiment,NA,NA,0,0.1,0.9,1,0,156,4,NA
fcp-trial,205,1079170,0.0-166.0-0.0,voc_e2,12170,"[{""event"":""fullscreenenter"",""trial"":1,""time"":1396}]",NA,NA,NA,NA,NA,4,#D89F1C,#3386FF,10,0,1,40,0,1637.3999999910593,37,1,433.3999999910593,10,1,experiment,NA,NA,0,0.9,0.1,0,1,157,4,NA
fcp-trial,206,1082271,0.0-167.0-0.0,voc_e2,12170,"[{""event"":""fullscreenenter"",""trial"":1,""time"":1396}]",NA,NA,NA,NA,NA,0,#D8271C,#741CD8,0,10,1,38,1,1093.9000000059605,39,0,498,10,0,experiment,NA,NA,2,0.5,0.5,4,5,158,4,NA
fcp-trial,207,1085428,0.0-168.0-0.0,voc_e2,12170,"[{""event"":""fullscreenenter"",""trial"":1,""time"":1396}]",NA,NA,NA,NA,NA,1,#1CD855,#FA92F8,0,0,0,40,0,1292.2999999970198,39,0,357,0,1,experiment,NA,NA,1,0.3,0.7,3,2,159,4,NA
fcp-trial,208,1090110,0.0-169.0-0.0,voc_e2,12170,"[{""event"":""fullscreenenter"",""trial"":1,""time"":1396}]",NA,NA,NA,NA,NA,1,#741CD8,#D8271C,10,0,0,38,1,2601.2999999970198,37,1,572.2999999970198,10,0,experiment,NA,NA,2,0.5,0.5,5,4,160,4,NA
fcp-trial,209,1093401,0.0-170.0-0.0,voc_e2,12170,"[{""event"":""fullscreenenter"",""trial"":1,""time"":1396}]",NA,NA,NA,NA,NA,0,#D89F1C,#3386FF,10,0,1,38,1,1179.7000000029802,37,1,604.0999999940395,10,1,experiment,NA,NA,0,0.9,0.1,0,1,161,4,NA
fcp-trial,210,1097905,0.0-171.0-0.0,voc_e2,12170,"[{""event"":""fullscreenenter"",""trial"":1,""time"":1396}]",NA,NA,NA,NA,NA,4,#FA92F8,#1CD855,0,0,1,40,0,2464.5,39,0,532.5,0,0,experiment,NA,NA,1,0.7,0.3,2,3,162,4,NA
fcp-trial,211,1101650,0.0-172.0-0.0,voc_e2,12170,"[{""event"":""fullscreenenter"",""trial"":1,""time"":1396}]",NA,NA,NA,NA,NA,2,#3386FF,#D89F1C,0,10,0,38,1,1573.9000000059605,39,0,663,10,1,experiment,NA,NA,0,0.1,0.9,1,0,163,4,NA
fcp-trial,212,1105368,0.0-173.0-0.0,voc_e2,12170,"[{""event"":""fullscreenenter"",""trial"":1,""time"":1396}]",NA,NA,NA,NA,NA,0,#FA92F8,#1CD855,0,10,1,38,1,1897.6000000089407,37,1,313.79999999701977,0,1,experiment,NA,NA,1,0.7,0.3,2,3,164,4,NA
fcp-trial,213,1110724,0.0-174.0-0.0,voc_e2,12170,"[{""event"":""fullscreenenter"",""trial"":1,""time"":1396}]",NA,NA,NA,NA,NA,2,#741CD8,#D8271C,0,0,0,40,0,3300.5,37,1,548.5999999940395,0,0,experiment,NA,NA,2,0.5,0.5,5,4,165,4,NA
fcp-trial,214,1114041,0.0-175.0-0.0,voc_e2,12170,"[{""event"":""fullscreenenter"",""trial"":1,""time"":1396}]",NA,NA,NA,NA,NA,6,#D89F1C,#3386FF,10,0,1,40,0,1385.9000000059605,37,1,424.20000000298023,10,1,experiment,NA,NA,0,0.9,0.1,0,1,166,4,NA
fcp-trial,215,1117984,0.0-176.0-0.0,voc_e2,12170,"[{""event"":""fullscreenenter"",""trial"":1,""time"":1396}]",NA,NA,NA,NA,NA,6,#D8271C,#741CD8,10,0,1,40,0,1945.9000000059605,39,0,489.29999999701977,0,0,experiment,NA,NA,2,0.5,0.5,4,5,167,4,NA
fcp-trial,216,1121618,0.0-177.0-0.0,voc_e2,12170,"[{""event"":""fullscreenenter"",""trial"":1,""time"":1396}]",NA,NA,NA,NA,NA,2,#FA92F8,#1CD855,10,10,1,38,1,1521.8999999910593,37,1,602.1999999880791,10,1,experiment,NA,NA,1,0.7,0.3,2,3,168,4,NA
fcp-trial,217,1126285,0.0-178.0-0.0,voc_e2,12170,"[{""event"":""fullscreenenter"",""trial"":1,""time"":1396}]",NA,NA,NA,NA,NA,1,#741CD8,#D8271C,10,10,0,38,1,2838.4000000059605,37,1,321.20000000298023,10,0,experiment,NA,NA,2,0.5,0.5,5,4,169,4,NA
fcp-trial,218,1129894,0.0-179.0-0.0,voc_e2,12170,"[{""event"":""fullscreenenter"",""trial"":1,""time"":1396}]",NA,NA,NA,NA,NA,6,#1CD855,#FA92F8,0,10,0,40,0,1302.7000000029802,39,0,798.5999999940395,10,1,experiment,NA,NA,1,0.3,0.7,3,2,170,4,NA
fcp-trial,219,1134591,0.0-180.0-0.0,voc_e2,12170,"[{""event"":""fullscreenenter"",""trial"":1,""time"":1396}]",NA,NA,NA,NA,NA,1,#3386FF,#D89F1C,0,10,0,38,1,2117.5,39,0,1070.5,10,1,experiment,NA,NA,0,0.1,0.9,1,0,171,4,NA
fcp-trial,220,1140096,0.0-181.0-0.0,voc_e2,12170,"[{""event"":""fullscreenenter"",""trial"":1,""time"":1396}]",NA,NA,NA,NA,NA,5,#1CD855,#FA92F8,0,10,0,40,0,3301.7000000029802,37,1,693.9000000059605,0,0,experiment,NA,NA,1,0.3,0.7,3,2,172,4,NA
fcp-trial,221,1143362,0.0-182.0-0.0,voc_e2,12170,"[{""event"":""fullscreenenter"",""trial"":1,""time"":1396}]",NA,NA,NA,NA,NA,3,#D8271C,#741CD8,10,10,1,38,1,1336.2999999970198,39,0,417.79999999701977,10,0,experiment,NA,NA,2,0.5,0.5,4,5,173,4,NA
fcp-trial,222,1148524,0.0-183.0-0.0,voc_e2,12170,"[{""event"":""fullscreenenter"",""trial"":1,""time"":1396}]",NA,NA,NA,NA,NA,1,#1CD855,#FA92F8,0,10,0,38,1,3381.7999999970198,39,0,272.8999999910593,10,1,experiment,NA,NA,1,0.3,0.7,3,2,174,4,NA
fcp-trial,223,1152098,0.0-184.0-0.0,voc_e2,12170,"[{""event"":""fullscreenenter"",""trial"":1,""time"":1396}]",NA,NA,NA,NA,NA,6,#D89F1C,#3386FF,10,0,1,40,0,1174.2999999970198,39,0,892.7999999970198,0,0,experiment,NA,NA,0,0.9,0.1,0,1,175,4,NA
fcp-trial,224,1155552,0.0-185.0-0.0,voc_e2,12170,"[{""event"":""fullscreenenter"",""trial"":1,""time"":1396}]",NA,NA,NA,NA,NA,6,#741CD8,#D8271C,10,10,0,40,0,1396.7000000029802,37,1,547.9000000059605,10,0,experiment,NA,NA,2,0.5,0.5,5,4,176,4,NA
fcp-trial,225,1158960,0.0-186.0-0.0,voc_e2,12170,"[{""event"":""fullscreenenter"",""trial"":1,""time"":1396}]",NA,NA,NA,NA,NA,4,#3386FF,#D89F1C,10,10,0,38,1,1376.2000000029802,39,0,525.7000000029802,10,1,experiment,NA,NA,0,0.1,0.9,1,0,177,4,NA
fcp-trial,226,1162551,0.0-187.0-0.0,voc_e2,12170,"[{""event"":""fullscreenenter"",""trial"":1,""time"":1396}]",NA,NA,NA,NA,NA,3,#3386FF,#D89F1C,0,10,0,40,0,1586.5999999940395,39,0,495.20000000298023,10,1,experiment,NA,NA,0,0.1,0.9,1,0,178,4,NA
fcp-trial,227,1166278,0.0-188.0-0.0,voc_e2,12170,"[{""event"":""fullscreenenter"",""trial"":1,""time"":1396}]",NA,NA,NA,NA,NA,3,#FA92F8,#1CD855,10,0,1,38,1,1500.6000000089407,37,1,718.7999999970198,10,1,experiment,NA,NA,1,0.7,0.3,2,3,179,4,NA
fcp-trial,228,1169923,0.0-189.0-0.0,voc_e2,12170,"[{""event"":""fullscreenenter"",""trial"":1,""time"":1396}]",NA,NA,NA,NA,NA,2,#D89F1C,#3386FF,10,0,1,40,0,1462.5,39,0,675.0999999940395,0,0,experiment,NA,NA,0,0.9,0.1,0,1,180,4,NA
fcp-trial,229,1174350,0.0-190.0-0.0,voc_e2,12170,"[{""event"":""fullscreenenter"",""trial"":1,""time"":1396}]",NA,NA,NA,NA,NA,0,#741CD8,#D8271C,10,0,0,38,1,2062.199999988079,37,1,854.9000000059605,10,0,experiment,NA,NA,2,0.5,0.5,5,4,181,5,NA
fcp-trial,230,1180747,0.0-191.0-0.0,voc_e2,12170,"[{""event"":""fullscreenenter"",""trial"":1,""time"":1396}]",NA,NA,NA,NA,NA,0,#1CD855,#FA92F8,10,10,0,38,1,4633.399999991059,39,0,256.20000000298023,10,1,experiment,NA,NA,1,0.3,0.7,3,2,182,5,NA
fcp-trial,231,1184828,0.0-192.0-0.0,voc_e2,12170,"[{""event"":""fullscreenenter"",""trial"":1,""time"":1396}]",NA,NA,NA,NA,NA,4,#D8271C,#741CD8,0,10,1,40,0,2185.8999999910593,39,0,390.20000000298023,10,0,experiment,NA,NA,2,0.5,0.5,4,5,183,5,NA
fcp-trial,232,1190616,0.0-193.0-0.0,voc_e2,12170,"[{""event"":""fullscreenenter"",""trial"":1,""time"":1396}]",NA,NA,NA,NA,NA,0,#3386FF,#D89F1C,0,10,0,38,1,3648.7999999970198,39,0,630.2999999970198,10,1,experiment,NA,NA,0,0.1,0.9,1,0,184,5,NA
fcp-trial,233,1193858,0.0-194.0-0.0,voc_e2,12170,"[{""event"":""fullscreenenter"",""trial"":1,""time"":1396}]",NA,NA,NA,NA,NA,4,#1CD855,#FA92F8,0,10,0,40,0,1337.300000011921,39,0,397.199999988079,10,1,experiment,NA,NA,1,0.3,0.7,3,2,185,5,NA
fcp-trial,234,1196894,0.0-195.0-0.0,voc_e2,12170,"[{""event"":""fullscreenenter"",""trial"":1,""time"":1396}]",NA,NA,NA,NA,NA,2,#1CD855,#FA92F8,0,10,0,38,1,1215.6000000089407,39,0,308.5,10,1,experiment,NA,NA,1,0.3,0.7,3,2,186,5,NA
fcp-trial,235,1200017,0.0-196.0-0.0,voc_e2,12170,"[{""event"":""fullscreenenter"",""trial"":1,""time"":1396}]",NA,NA,NA,NA,NA,5,#D89F1C,#3386FF,0,0,1,40,0,1170.300000011921,37,1,444.79999999701977,0,1,experiment,NA,NA,0,0.9,0.1,0,1,187,5,NA
fcp-trial,236,1203364,0.0-197.0-0.0,voc_e2,12170,"[{""event"":""fullscreenenter"",""trial"":1,""time"":1396}]",NA,NA,NA,NA,NA,2,#D8271C,#741CD8,10,10,1,38,1,1131.7999999970198,39,0,706.6000000089407,10,0,experiment,NA,NA,2,0.5,0.5,4,5,188,5,NA
fcp-trial,237,1206926,0.0-198.0-0.0,voc_e2,12170,"[{""event"":""fullscreenenter"",""trial"":1,""time"":1396}]",NA,NA,NA,NA,NA,5,#741CD8,#D8271C,10,0,0,40,0,1503.2000000029802,39,0,551.7000000029802,0,1,experiment,NA,NA,2,0.5,0.5,5,4,189,5,NA
fcp-trial,238,1209804,0.0-199.0-0.0,voc_e2,12170,"[{""event"":""fullscreenenter"",""trial"":1,""time"":1396}]",NA,NA,NA,NA,NA,0,#D89F1C,#3386FF,10,0,1,38,1,1022.7999999970198,37,1,349.70000000298023,10,1,experiment,NA,NA,0,0.9,0.1,0,1,190,5,NA
fcp-trial,239,1213185,0.0-200.0-0.0,voc_e2,12170,"[{""event"":""fullscreenenter"",""trial"":1,""time"":1396}]",NA,NA,NA,NA,NA,6,#D89F1C,#3386FF,10,0,1,40,0,1386.7999999970198,37,1,485.59999999403954,10,1,experiment,NA,NA,0,0.9,0.1,0,1,191,5,NA
fcp-trial,240,1216345,0.0-201.0-0.0,voc_e2,12170,"[{""event"":""fullscreenenter"",""trial"":1,""time"":1396}]",NA,NA,NA,NA,NA,3,#D8271C,#741CD8,10,0,1,38,1,1076.5,39,0,573.5,0,0,experiment,NA,NA,2,0.5,0.5,4,5,192,5,NA
fcp-trial,241,1220192,0.0-202.0-0.0,voc_e2,12170,"[{""event"":""fullscreenenter"",""trial"":1,""time"":1396}]",NA,NA,NA,NA,NA,1,#1CD855,#FA92F8,0,0,0,38,1,1850.1000000089407,39,0,487.09999999403954,0,1,experiment,NA,NA,1,0.3,0.7,3,2,193,5,NA
fcp-trial,242,1223793,0.0-203.0-0.0,voc_e2,12170,"[{""event"":""fullscreenenter"",""trial"":1,""time"":1396}]",NA,NA,NA,NA,NA,2,#1CD855,#FA92F8,0,0,0,40,0,1627.5999999940395,39,0,466.300000011921,0,1,experiment,NA,NA,1,0.3,0.7,3,2,194,5,NA
fcp-trial,243,1227296,0.0-204.0-0.0,voc_e2,12170,"[{""event"":""fullscreenenter"",""trial"":1,""time"":1396}]",NA,NA,NA,NA,NA,5,#D89F1C,#3386FF,10,0,1,40,0,1449.7999999970198,37,1,542.0999999940395,10,1,experiment,NA,NA,0,0.9,0.1,0,1,195,5,NA
fcp-trial,244,1230347,0.0-205.0-0.0,voc_e2,12170,"[{""event"":""fullscreenenter"",""trial"":1,""time"":1396}]",NA,NA,NA,NA,NA,0,#D8271C,#741CD8,0,0,1,38,1,1121.7999999970198,39,0,420.70000000298023,0,0,experiment,NA,NA,2,0.5,0.5,4,5,196,5,NA
fcp-trial,245,1233564,0.0-206.0-0.0,voc_e2,12170,"[{""event"":""fullscreenenter"",""trial"":1,""time"":1396}]",NA,NA,NA,NA,NA,3,#3386FF,#D89F1C,0,10,0,38,1,1298.5,39,0,412.5,10,1,experiment,NA,NA,0,0.1,0.9,1,0,197,5,NA
fcp-trial,246,1236629,0.0-207.0-0.0,voc_e2,12170,"[{""event"":""fullscreenenter"",""trial"":1,""time"":1396}]",NA,NA,NA,NA,NA,6,#741CD8,#D8271C,0,0,0,40,0,1149.5999999940395,37,1,407.79999999701977,0,0,experiment,NA,NA,2,0.5,0.5,5,4,198,5,NA
fcp-trial,247,1239719,0.0-208.0-0.0,voc_e2,12170,"[{""event"":""fullscreenenter"",""trial"":1,""time"":1396}]",NA,NA,NA,NA,NA,4,#1CD855,#FA92F8,10,10,0,38,1,790.9000000059605,39,0,792.3000000119209,10,1,experiment,NA,NA,1,0.3,0.7,3,2,199,5,NA
fcp-trial,248,1242666,0.0-209.0-0.0,voc_e2,12170,"[{""event"":""fullscreenenter"",""trial"":1,""time"":1396}]",NA,NA,NA,NA,NA,4,#3386FF,#D89F1C,0,0,0,40,0,1033.5,39,0,404.3999999910593,0,1,experiment,NA,NA,0,0.1,0.9,1,0,200,5,NA
fcp-trial,249,1247012,0.0-210.0-0.0,voc_e2,12170,"[{""event"":""fullscreenenter"",""trial"":1,""time"":1396}]",NA,NA,NA,NA,NA,2,#D8271C,#741CD8,0,10,1,40,0,2237.1000000089407,37,1,601.3999999910593,0,1,experiment,NA,NA,2,0.5,0.5,4,5,201,5,NA
fcp-trial,250,1250038,0.0-211.0-0.0,voc_e2,12170,"[{""event"":""fullscreenenter"",""trial"":1,""time"":1396}]",NA,NA,NA,NA,NA,5,#741CD8,#D8271C,0,10,0,40,0,1057.2999999970198,39,0,462.5,10,1,experiment,NA,NA,2,0.5,0.5,5,4,202,5,NA
fcp-trial,251,1254453,0.0-212.0-0.0,voc_e2,12170,"[{""event"":""fullscreenenter"",""trial"":1,""time"":1396}]",NA,NA,NA,NA,NA,4,#741CD8,#D8271C,10,0,0,38,1,2316.2000000029802,37,1,591.7999999970198,10,0,experiment,NA,NA,2,0.5,0.5,5,4,203,5,NA
fcp-trial,252,1258083,0.0-213.0-0.0,voc_e2,12170,"[{""event"":""fullscreenenter"",""trial"":1,""time"":1396}]",NA,NA,NA,NA,NA,3,#1CD855,#FA92F8,0,0,0,40,0,1169.2000000029802,37,1,954.2999999970198,0,0,experiment,NA,NA,1,0.3,0.7,3,2,204,5,NA
fcp-trial,253,1261715,0.0-214.0-0.0,voc_e2,12170,"[{""event"":""fullscreenenter"",""trial"":1,""time"":1396}]",NA,NA,NA,NA,NA,2,#3386FF,#D89F1C,0,10,0,40,0,1428.2999999970198,37,1,696.4000000059605,0,0,experiment,NA,NA,0,0.1,0.9,1,0,205,5,NA
fcp-trial,254,1265573,0.0-215.0-0.0,voc_e2,12170,"[{""event"":""fullscreenenter"",""trial"":1,""time"":1396}]",NA,NA,NA,NA,NA,1,#741CD8,#D8271C,0,0,0,38,1,1339.5,37,1,1008.8000000119208,0,0,experiment,NA,NA,2,0.5,0.5,5,4,206,5,NA
fcp-trial,255,1269163,0.0-216.0-0.0,voc_e2,12170,"[{""event"":""fullscreenenter"",""trial"":1,""time"":1396}]",NA,NA,NA,NA,NA,5,#FA92F8,#1CD855,10,0,1,40,0,1514.2000000029802,37,1,566.7000000029802,10,1,experiment,NA,NA,1,0.7,0.3,2,3,207,5,NA
fcp-trial,256,1272070,0.0-217.0-0.0,voc_e2,12170,"[{""event"":""fullscreenenter"",""trial"":1,""time"":1396}]",NA,NA,NA,NA,NA,1,#D89F1C,#3386FF,0,0,1,38,1,1087,37,1,313.09999999403954,0,1,experiment,NA,NA,0,0.9,0.1,0,1,208,5,NA
fcp-trial,257,1275632,0.0-218.0-0.0,voc_e2,12170,"[{""event"":""fullscreenenter"",""trial"":1,""time"":1396}]",NA,NA,NA,NA,NA,6,#1CD855,#FA92F8,0,0,0,40,0,1409,37,1,644.7000000029802,0,0,experiment,NA,NA,1,0.3,0.7,3,2,209,5,NA
fcp-trial,258,1278788,0.0-219.0-0.0,voc_e2,12170,"[{""event"":""fullscreenenter"",""trial"":1,""time"":1396}]",NA,NA,NA,NA,NA,0,#1CD855,#FA92F8,10,10,0,38,1,1147.0999999940395,39,0,498.79999999701977,10,1,experiment,NA,NA,1,0.3,0.7,3,2,210,5,NA
audio-instructions,259,1327566,0.0-220.0,voc_e2,12170,"[{""event"":""fullscreenenter"",""trial"":1,""time"":1396}]",NA,44191.09999999404,static/audio/pause.wav,NA,0,NA,NA,NA,NA,NA,NA,NA,NA,NA,NA,NA,NA,NA,NA,NA,NA,NA,NA,NA,NA,NA,NA,NA,NA,NA
fcp-trial,260,1330652,0.0-221.0-0.0,voc_e2,12170,"[{""event"":""fullscreenenter"",""trial"":1,""time"":1396}]",NA,NA,NA,NA,NA,6,#D89F1C,#3386FF,0,0,1,40,0,1045.9000000059605,39,0,533.0999999940395,0,0,experiment,NA,NA,0,0.9,0.1,0,1,211,5,NA
fcp-trial,261,1333582,0.0-222.0-0.0,voc_e2,12170,"[{""event"":""fullscreenenter"",""trial"":1,""time"":1396}]",NA,NA,NA,NA,NA,5,#FA92F8,#1CD855,10,10,1,38,1,1049.8999999910593,37,1,372.59999999403954,10,1,experiment,NA,NA,1,0.7,0.3,2,3,212,5,NA
fcp-trial,262,1337006,0.0-223.0-0.0,voc_e2,12170,"[{""event"":""fullscreenenter"",""trial"":1,""time"":1396}]",NA,NA,NA,NA,NA,2,#D8271C,#741CD8,10,0,1,38,1,1569.5999999940395,39,0,348.20000000298023,0,0,experiment,NA,NA,2,0.5,0.5,4,5,213,5,NA
fcp-trial,263,1340841,0.0-224.0-0.0,voc_e2,12170,"[{""event"":""fullscreenenter"",""trial"":1,""time"":1396}]",NA,NA,NA,NA,NA,3,#FA92F8,#1CD855,0,10,1,38,1,1946.5,37,1,379.40000000596046,0,1,experiment,NA,NA,1,0.7,0.3,2,3,214,5,NA
fcp-trial,264,1344731,0.0-225.0-0.0,voc_e2,12170,"[{""event"":""fullscreenenter"",""trial"":1,""time"":1396}]",NA,NA,NA,NA,NA,3,#D8271C,#741CD8,10,10,1,38,1,1871.0999999940395,39,0,510.79999999701977,10,0,experiment,NA,NA,2,0.5,0.5,4,5,215,5,NA
fcp-trial,265,1348174,0.0-226.0-0.0,voc_e2,12170,"[{""event"":""fullscreenenter"",""trial"":1,""time"":1396}]",NA,NA,NA,NA,NA,1,#D89F1C,#3386FF,10,0,1,38,1,1466.5,37,1,468.09999999403954,10,1,experiment,NA,NA,0,0.9,0.1,0,1,216,5,NA
fcp-trial,266,1351162,0.0-227.0-0.0,voc_e2,12170,"[{""event"":""fullscreenenter"",""trial"":1,""time"":1396}]",NA,NA,NA,NA,NA,6,#FA92F8,#1CD855,10,10,1,40,0,972.7999999970198,37,1,505.79999999701977,10,1,experiment,NA,NA,1,0.7,0.3,2,3,217,5,NA
fcp-trial,267,1354216,0.0-228.0-0.0,voc_e2,12170,"[{""event"":""fullscreenenter"",""trial"":1,""time"":1396}]",NA,NA,NA,NA,NA,0,#D89F1C,#3386FF,10,0,1,38,1,1136.6000000089407,37,1,397.699999988079,10,1,experiment,NA,NA,0,0.9,0.1,0,1,218,5,NA
fcp-trial,268,1358065,0.0-229.0-0.0,voc_e2,12170,"[{""event"":""fullscreenenter"",""trial"":1,""time"":1396}]",NA,NA,NA,NA,NA,6,#741CD8,#D8271C,10,10,0,40,0,1782.5999999940395,37,1,556.5,10,0,experiment,NA,NA,2,0.5,0.5,5,4,219,5,NA
fcp-trial,269,1361731,0.0-230.0-0.0,voc_e2,12170,"[{""event"":""fullscreenenter"",""trial"":1,""time"":1396}]",NA,NA,NA,NA,NA,3,#D89F1C,#3386FF,10,0,1,38,1,1421.8999999910593,37,1,735.5,10,1,experiment,NA,NA,0,0.9,0.1,0,1,220,5,NA
fcp-trial,270,1365570,0.0-231.0-0.0,voc_e2,12170,"[{""event"":""fullscreenenter"",""trial"":1,""time"":1396}]",NA,NA,NA,NA,NA,5,#741CD8,#D8271C,0,0,0,40,0,1467.8999999910593,37,1,864.2999999970198,0,0,experiment,NA,NA,2,0.5,0.5,5,4,221,5,NA
fcp-trial,271,1368963,0.0-232.0-0.0,voc_e2,12170,"[{""event"":""fullscreenenter"",""trial"":1,""time"":1396}]",NA,NA,NA,NA,NA,1,#FA92F8,#1CD855,0,0,1,38,1,1330.7000000029802,37,1,554.4000000059605,0,1,experiment,NA,NA,1,0.7,0.3,2,3,222,5,NA
fcp-trial,272,1372083,0.0-233.0-0.0,voc_e2,12170,"[{""event"":""fullscreenenter"",""trial"":1,""time"":1396}]",NA,NA,NA,NA,NA,1,#741CD8,#D8271C,10,10,0,38,1,1225.2000000029802,37,1,387.199999988079,10,0,experiment,NA,NA,2,0.5,0.5,5,4,223,5,NA
fcp-trial,273,1375373,0.0-234.0-0.0,voc_e2,12170,"[{""event"":""fullscreenenter"",""trial"":1,""time"":1396}]",NA,NA,NA,NA,NA,2,#FA92F8,#1CD855,0,0,1,38,1,1185.7999999970198,37,1,597.4000000059605,0,1,experiment,NA,NA,1,0.7,0.3,2,3,224,5,NA
fcp-trial,274,1378255,0.0-235.0-0.0,voc_e2,12170,"[{""event"":""fullscreenenter"",""trial"":1,""time"":1396}]",NA,NA,NA,NA,NA,2,#D89F1C,#3386FF,10,0,1,38,1,978.4000000059605,37,1,395.09999999403954,10,1,experiment,NA,NA,0,0.9,0.1,0,1,225,5,NA
fcp-trial,275,1382141,0.0-236.0-0.0,voc_e2,12170,"[{""event"":""fullscreenenter"",""trial"":1,""time"":1396}]",NA,NA,NA,NA,NA,4,#1CD855,#FA92F8,0,10,0,40,0,1602.5999999940395,37,1,775.7999999970198,0,0,experiment,NA,NA,1,0.3,0.7,3,2,226,6,NA
fcp-trial,276,1387222,0.0-237.0-0.0,voc_e2,12170,"[{""event"":""fullscreenenter"",""trial"":1,""time"":1396}]",NA,NA,NA,NA,NA,4,#D8271C,#741CD8,10,0,1,38,1,2170.2000000029802,39,0,1400.7999999970198,0,0,experiment,NA,NA,2,0.5,0.5,4,5,227,6,NA
fcp-trial,277,1390411,0.0-238.0-0.0,voc_e2,12170,"[{""event"":""fullscreenenter"",""trial"":1,""time"":1396}]",NA,NA,NA,NA,NA,0,#D8271C,#741CD8,10,10,1,38,1,1154.7999999970198,39,0,524.7000000029802,10,0,experiment,NA,NA,2,0.5,0.5,4,5,228,6,NA
fcp-trial,278,1393479,0.0-239.0-0.0,voc_e2,12170,"[{""event"":""fullscreenenter"",""trial"":1,""time"":1396}]",NA,NA,NA,NA,NA,5,#D89F1C,#3386FF,10,0,1,40,0,1004.5,37,1,553,10,1,experiment,NA,NA,0,0.9,0.1,0,1,229,6,NA
fcp-trial,279,1396600,0.0-240.0-0.0,voc_e2,12170,"[{""event"":""fullscreenenter"",""trial"":1,""time"":1396}]",NA,NA,NA,NA,NA,0,#FA92F8,#1CD855,10,0,1,38,1,1028.5,37,1,584.5,10,1,experiment,NA,NA,1,0.7,0.3,2,3,230,6,NA
fcp-trial,280,1399598,0.0-241.0-0.0,voc_e2,12170,"[{""event"":""fullscreenenter"",""trial"":1,""time"":1396}]",NA,NA,NA,NA,NA,4,#D89F1C,#3386FF,10,0,1,38,1,1105.7000000029802,37,1,383.29999999701977,10,1,experiment,NA,NA,0,0.9,0.1,0,1,231,6,NA
fcp-trial,281,1402503,0.0-242.0-0.0,voc_e2,12170,"[{""event"":""fullscreenenter"",""trial"":1,""time"":1396}]",NA,NA,NA,NA,NA,5,#3386FF,#D89F1C,0,10,0,40,0,980.2999999970198,39,0,417.59999999403954,10,1,experiment,NA,NA,0,0.1,0.9,1,0,232,6,NA
fcp-trial,282,1406240,0.0-243.0-0.0,voc_e2,12170,"[{""event"":""fullscreenenter"",""trial"":1,""time"":1396}]",NA,NA,NA,NA,NA,4,#D8271C,#741CD8,10,0,1,40,0,1294.800000011921,37,1,935.9000000059604,10,1,experiment,NA,NA,2,0.5,0.5,4,5,233,6,NA
fcp-trial,283,1409970,0.0-244.0-0.0,voc_e2,12170,"[{""event"":""fullscreenenter"",""trial"":1,""time"":1396}]",NA,NA,NA,NA,NA,6,#FA92F8,#1CD855,10,0,1,40,0,1577.5999999940395,39,0,643.7000000029802,0,0,experiment,NA,NA,1,0.7,0.3,2,3,234,6,NA
fcp-trial,284,1413662,0.0-245.0-0.0,voc_e2,12170,"[{""event"":""fullscreenenter"",""trial"":1,""time"":1396}]",NA,NA,NA,NA,NA,4,#1CD855,#FA92F8,0,10,0,40,0,1519.2000000029802,39,0,663.7999999970198,10,1,experiment,NA,NA,1,0.3,0.7,3,2,235,6,NA
fcp-trial,285,1417057,0.0-246.0-0.0,voc_e2,12170,"[{""event"":""fullscreenenter"",""trial"":1,""time"":1396}]",NA,NA,NA,NA,NA,0,#741CD8,#D8271C,0,0,0,38,1,1062.5,37,1,825.8000000119209,0,0,experiment,NA,NA,2,0.5,0.5,5,4,236,6,NA
fcp-trial,286,1421462,0.0-247.0-0.0,voc_e2,12170,"[{""event"":""fullscreenenter"",""trial"":1,""time"":1396}]",NA,NA,NA,NA,NA,4,#D89F1C,#3386FF,10,0,1,38,1,2297.1000000089407,37,1,599.5999999940395,10,1,experiment,NA,NA,0,0.9,0.1,0,1,237,6,NA
fcp-trial,287,1424508,0.0-248.0-0.0,voc_e2,12170,"[{""event"":""fullscreenenter"",""trial"":1,""time"":1396}]",NA,NA,NA,NA,NA,6,#D89F1C,#3386FF,10,0,1,40,0,1086.5999999940395,37,1,449.29999999701977,10,1,experiment,NA,NA,0,0.9,0.1,0,1,238,6,NA
fcp-trial,288,1427976,0.0-249.0-0.0,voc_e2,12170,"[{""event"":""fullscreenenter"",""trial"":1,""time"":1396}]",NA,NA,NA,NA,NA,0,#FA92F8,#1CD855,10,10,1,38,1,977.8999999910593,37,1,982.7000000029802,10,1,experiment,NA,NA,1,0.7,0.3,2,3,239,6,NA
fcp-trial,289,1431430,0.0-250.0-0.0,voc_e2,12170,"[{""event"":""fullscreenenter"",""trial"":1,""time"":1396}]",NA,NA,NA,NA,NA,1,#FA92F8,#1CD855,10,0,1,38,1,1403.2999999970198,37,1,540.5999999940395,10,1,experiment,NA,NA,1,0.7,0.3,2,3,240,6,NA
fcp-trial,290,1434506,0.0-251.0-0.0,voc_e2,12170,"[{""event"":""fullscreenenter"",""trial"":1,""time"":1396}]",NA,NA,NA,NA,NA,6,#741CD8,#D8271C,0,0,0,40,0,992.5,39,0,576.2999999970198,0,1,experiment,NA,NA,2,0.5,0.5,5,4,241,6,NA
fcp-trial,291,1437373,0.0-252.0-0.0,voc_e2,12170,"[{""event"":""fullscreenenter"",""trial"":1,""time"":1396}]",NA,NA,NA,NA,NA,3,#D89F1C,#3386FF,10,0,1,38,1,977.5,37,1,378,10,1,experiment,NA,NA,0,0.9,0.1,0,1,242,6,NA
fcp-trial,292,1441048,0.0-253.0-0.0,voc_e2,12170,"[{""event"":""fullscreenenter"",""trial"":1,""time"":1396}]",NA,NA,NA,NA,NA,1,#D89F1C,#3386FF,10,0,1,40,0,1679.5,39,0,489.1000000089407,0,0,experiment,NA,NA,0,0.9,0.1,0,1,243,6,NA
fcp-trial,293,1445002,0.0-254.0-0.0,voc_e2,12170,"[{""event"":""fullscreenenter"",""trial"":1,""time"":1396}]",NA,NA,NA,NA,NA,5,#D8271C,#741CD8,10,0,1,38,1,1912.3999999910593,39,0,534.7999999970198,0,0,experiment,NA,NA,2,0.5,0.5,4,5,244,6,NA
fcp-trial,294,1448830,0.0-255.0-0.0,voc_e2,12170,"[{""event"":""fullscreenenter"",""trial"":1,""time"":1396}]",NA,NA,NA,NA,NA,3,#1CD855,#FA92F8,0,10,0,38,1,1855.7000000029802,39,0,462.09999999403954,10,1,experiment,NA,NA,1,0.3,0.7,3,2,245,6,NA
fcp-trial,295,1452461,0.0-256.0-0.0,voc_e2,12170,"[{""event"":""fullscreenenter"",""trial"":1,""time"":1396}]",NA,NA,NA,NA,NA,3,#D8271C,#741CD8,0,10,1,38,1,1238.5999999940395,39,0,884.5,10,0,experiment,NA,NA,2,0.5,0.5,4,5,246,6,NA
fcp-trial,296,1455802,0.0-257.0-0.0,voc_e2,12170,"[{""event"":""fullscreenenter"",""trial"":1,""time"":1396}]",NA,NA,NA,NA,NA,1,#D8271C,#741CD8,10,0,1,38,1,1218.2999999970198,39,0,614.5,0,0,experiment,NA,NA,2,0.5,0.5,4,5,247,6,NA
fcp-trial,297,1458778,0.0-258.0-0.0,voc_e2,12170,"[{""event"":""fullscreenenter"",""trial"":1,""time"":1396}]",NA,NA,NA,NA,NA,0,#D89F1C,#3386FF,10,0,1,38,1,1046.9000000059605,37,1,422.3999999910593,10,1,experiment,NA,NA,0,0.9,0.1,0,1,248,6,NA
fcp-trial,298,1462259,0.0-259.0-0.0,voc_e2,12170,"[{""event"":""fullscreenenter"",""trial"":1,""time"":1396}]",NA,NA,NA,NA,NA,2,#D89F1C,#3386FF,10,0,1,38,1,1662.5,37,1,310.40000000596046,10,1,experiment,NA,NA,0,0.9,0.1,0,1,249,6,NA
fcp-trial,299,1466027,0.0-260.0-0.0,voc_e2,12170,"[{""event"":""fullscreenenter"",""trial"":1,""time"":1396}]",NA,NA,NA,NA,NA,5,#FA92F8,#1CD855,0,0,1,40,0,1627,39,0,629.0999999940395,0,0,experiment,NA,NA,1,0.7,0.3,2,3,250,6,NA
fcp-trial,300,1469305,0.0-261.0-0.0,voc_e2,12170,"[{""event"":""fullscreenenter"",""trial"":1,""time"":1396}]",NA,NA,NA,NA,NA,2,#FA92F8,#1CD855,0,0,1,38,1,1332,37,1,437.20000000298023,0,1,experiment,NA,NA,1,0.7,0.3,2,3,251,6,NA
fcp-trial,301,1472436,0.0-262.0-0.0,voc_e2,12170,"[{""event"":""fullscreenenter"",""trial"":1,""time"":1396}]",NA,NA,NA,NA,NA,2,#741CD8,#D8271C,10,0,0,38,1,961.5,37,1,663.2000000029802,10,0,experiment,NA,NA,2,0.5,0.5,5,4,252,6,NA
fcp-trial,302,1475645,0.0-263.0-0.0,voc_e2,12170,"[{""event"":""fullscreenenter"",""trial"":1,""time"":1396}]",NA,NA,NA,NA,NA,0,#FA92F8,#1CD855,0,0,1,38,1,1165.5999999940395,37,1,534,0,1,experiment,NA,NA,1,0.7,0.3,2,3,253,6,NA
fcp-trial,303,1479698,0.0-264.0-0.0,voc_e2,12170,"[{""event"":""fullscreenenter"",""trial"":1,""time"":1396}]",NA,NA,NA,NA,NA,4,#FA92F8,#1CD855,10,10,1,40,0,2051.4000000059605,39,0,494.5,10,0,experiment,NA,NA,1,0.7,0.3,2,3,254,6,NA
fcp-trial,304,1483376,0.0-265.0-0.0,voc_e2,12170,"[{""event"":""fullscreenenter"",""trial"":1,""time"":1396}]",NA,NA,NA,NA,NA,6,#D8271C,#741CD8,0,10,1,40,0,1522.5999999940395,39,0,650.3999999910593,10,0,experiment,NA,NA,2,0.5,0.5,4,5,255,6,NA
fcp-trial,305,1486587,0.0-266.0-0.0,voc_e2,12170,"[{""event"":""fullscreenenter"",""trial"":1,""time"":1396}]",NA,NA,NA,NA,NA,3,#741CD8,#D8271C,10,10,0,38,1,1259.699999988079,37,1,443.40000000596046,10,0,experiment,NA,NA,2,0.5,0.5,5,4,256,6,NA
fcp-trial,306,1490308,0.0-267.0-0.0,voc_e2,12170,"[{""event"":""fullscreenenter"",""trial"":1,""time"":1396}]",NA,NA,NA,NA,NA,4,#D89F1C,#3386FF,10,0,1,40,0,1592.3999999910593,37,1,620.9000000059605,10,1,experiment,NA,NA,0,0.9,0.1,0,1,257,6,NA
fcp-trial,307,1493693,0.0-268.0-0.0,voc_e2,12170,"[{""event"":""fullscreenenter"",""trial"":1,""time"":1396}]",NA,NA,NA,NA,NA,3,#1CD855,#FA92F8,10,10,0,38,1,1314.2999999970198,39,0,563.7999999970198,10,1,experiment,NA,NA,1,0.3,0.7,3,2,258,6,NA
fcp-trial,308,1497132,0.0-269.0-0.0,voc_e2,12170,"[{""event"":""fullscreenenter"",""trial"":1,""time"":1396}]",NA,NA,NA,NA,NA,6,#3386FF,#D89F1C,0,10,0,40,0,1107.5,39,0,821.0999999940395,10,1,experiment,NA,NA,0,0.1,0.9,1,0,259,6,NA
fcp-trial,309,1500681,0.0-270.0-0.0,voc_e2,12170,"[{""event"":""fullscreenenter"",""trial"":1,""time"":1396}]",NA,NA,NA,NA,NA,0,#D8271C,#741CD8,0,0,1,38,1,986,39,0,1056.2999999970198,0,0,experiment,NA,NA,2,0.5,0.5,4,5,260,6,NA
fcp-trial,310,1504143,0.0-271.0-0.0,voc_e2,12170,"[{""event"":""fullscreenenter"",""trial"":1,""time"":1396}]",NA,NA,NA,NA,NA,5,#D8271C,#741CD8,0,10,1,40,0,1337.3999999910593,39,0,617.4000000059605,10,0,experiment,NA,NA,2,0.5,0.5,4,5,261,6,NA
fcp-trial,311,1508054,0.0-272.0-0.0,voc_e2,12170,"[{""event"":""fullscreenenter"",""trial"":1,""time"":1396}]",NA,NA,NA,NA,NA,5,#1CD855,#FA92F8,0,10,0,40,0,1827.3999999910593,37,1,574.2999999970198,0,0,experiment,NA,NA,1,0.3,0.7,3,2,262,6,NA
fcp-trial,312,1511749,0.0-273.0-0.0,voc_e2,12170,"[{""event"":""fullscreenenter"",""trial"":1,""time"":1396}]",NA,NA,NA,NA,NA,2,#D8271C,#741CD8,10,10,1,38,1,1640.2000000029802,39,0,545.6000000089407,10,0,experiment,NA,NA,2,0.5,0.5,4,5,263,6,NA
fcp-trial,313,1515063,0.0-274.0-0.0,voc_e2,12170,"[{""event"":""fullscreenenter"",""trial"":1,""time"":1396}]",NA,NA,NA,NA,NA,3,#D89F1C,#3386FF,10,10,1,40,0,1239,39,0,566.0999999940395,10,0,experiment,NA,NA,0,0.9,0.1,0,1,264,6,NA
fcp-trial,314,1518570,0.0-275.0-0.0,voc_e2,12170,"[{""event"":""fullscreenenter"",""trial"":1,""time"":1396}]",NA,NA,NA,NA,NA,6,#FA92F8,#1CD855,10,0,1,40,0,1007.0999999940395,39,0,991.6999999880792,0,0,experiment,NA,NA,1,0.7,0.3,2,3,265,6,NA
fcp-trial,315,1521482,0.0-276.0-0.0,voc_e2,12170,"[{""event"":""fullscreenenter"",""trial"":1,""time"":1396}]",NA,NA,NA,NA,NA,2,#D89F1C,#3386FF,10,0,1,38,1,1015.1000000089407,37,1,389.5,10,1,experiment,NA,NA,0,0.9,0.1,0,1,266,6,NA
fcp-trial,316,1524628,0.0-277.0-0.0,voc_e2,12170,"[{""event"":""fullscreenenter"",""trial"":1,""time"":1396}]",NA,NA,NA,NA,NA,1,#3386FF,#D89F1C,0,10,0,38,1,1263.3999999910593,39,0,373.20000000298023,10,1,experiment,NA,NA,0,0.1,0.9,1,0,267,6,NA
fcp-trial,317,1527814,0.0-278.0-0.0,voc_e2,12170,"[{""event"":""fullscreenenter"",""trial"":1,""time"":1396}]",NA,NA,NA,NA,NA,4,#741CD8,#D8271C,0,10,0,38,1,1277.5,37,1,398.3999999910593,0,0,experiment,NA,NA,2,0.5,0.5,5,4,268,6,NA
fcp-trial,318,1530964,0.0-279.0-0.0,voc_e2,12170,"[{""event"":""fullscreenenter"",""trial"":1,""time"":1396}]",NA,NA,NA,NA,NA,5,#3386FF,#D89F1C,10,10,0,40,0,1084.5,37,1,557.7999999970198,10,0,experiment,NA,NA,0,0.1,0.9,1,0,269,6,NA
fcp-trial,319,1534349,0.0-280.0-0.0,voc_e2,12170,"[{""event"":""fullscreenenter"",""trial"":1,""time"":1396}]",NA,NA,NA,NA,NA,1,#FA92F8,#1CD855,0,0,1,38,1,1266.4000000059605,39,0,611.2000000029802,0,0,experiment,NA,NA,1,0.7,0.3,2,3,270,6,NA
fcp-trial,320,1537178,0.0-281.0-0.0,voc_e2,12170,"[{""event"":""fullscreenenter"",""trial"":1,""time"":1396}]",NA,NA,NA,NA,NA,0,#3386FF,#D89F1C,0,10,0,38,1,993,39,0,329,10,1,experiment,NA,NA,0,0.1,0.9,1,0,271,7,NA
fcp-trial,321,1540338,0.0-282.0-0.0,voc_e2,12170,"[{""event"":""fullscreenenter"",""trial"":1,""time"":1396}]",NA,NA,NA,NA,NA,1,#741CD8,#D8271C,0,0,0,38,1,854.0999999940395,37,1,797.5999999940395,0,0,experiment,NA,NA,2,0.5,0.5,5,4,272,7,NA
fcp-trial,322,1545298,0.0-283.0-0.0,voc_e2,12170,"[{""event"":""fullscreenenter"",""trial"":1,""time"":1396}]",NA,NA,NA,NA,NA,2,#FA92F8,#1CD855,10,10,1,38,1,2609,37,1,840.7999999970198,10,1,experiment,NA,NA,1,0.7,0.3,2,3,273,7,NA
fcp-trial,323,1550186,0.0-284.0-0.0,voc_e2,12170,"[{""event"":""fullscreenenter"",""trial"":1,""time"":1396}]",NA,NA,NA,NA,NA,0,#D8271C,#741CD8,10,10,1,38,1,2976.2999999970198,39,0,403.199999988079,10,0,experiment,NA,NA,2,0.5,0.5,4,5,274,7,NA
fcp-trial,324,1553510,0.0-285.0-0.0,voc_e2,12170,"[{""event"":""fullscreenenter"",""trial"":1,""time"":1396}]",NA,NA,NA,NA,NA,2,#1CD855,#FA92F8,0,0,0,40,0,1420.5,39,0,399.59999999403954,0,1,experiment,NA,NA,1,0.3,0.7,3,2,275,7,NA
fcp-trial,325,1556788,0.0-286.0-0.0,voc_e2,12170,"[{""event"":""fullscreenenter"",""trial"":1,""time"":1396}]",NA,NA,NA,NA,NA,0,#3386FF,#D89F1C,0,10,0,38,1,1377.2999999970198,39,0,391,10,1,experiment,NA,NA,0,0.1,0.9,1,0,276,7,NA
fcp-trial,326,1560800,0.0-287.0-0.0,voc_e2,12170,"[{""event"":""fullscreenenter"",""trial"":1,""time"":1396}]",NA,NA,NA,NA,NA,5,#3386FF,#D89F1C,0,10,0,40,0,1920.5,37,1,582.5,0,0,experiment,NA,NA,0,0.1,0.9,1,0,277,7,NA
fcp-trial,327,1565039,0.0-288.0-0.0,voc_e2,12170,"[{""event"":""fullscreenenter"",""trial"":1,""time"":1396}]",NA,NA,NA,NA,NA,3,#D8271C,#741CD8,10,10,1,40,0,2167.7000000029802,37,1,563.7999999970198,10,1,experiment,NA,NA,2,0.5,0.5,4,5,278,7,NA
fcp-trial,328,1568881,0.0-289.0-0.0,voc_e2,12170,"[{""event"":""fullscreenenter"",""trial"":1,""time"":1396}]",NA,NA,NA,NA,NA,3,#FA92F8,#1CD855,0,0,1,38,1,1882.4000000059605,37,1,448.40000000596046,0,1,experiment,NA,NA,1,0.7,0.3,2,3,279,7,NA
fcp-trial,329,1571954,0.0-290.0-0.0,voc_e2,12170,"[{""event"":""fullscreenenter"",""trial"":1,""time"":1396}]",NA,NA,NA,NA,NA,4,#D8271C,#741CD8,0,0,1,40,0,802.5,37,1,764.2999999970198,0,1,experiment,NA,NA,2,0.5,0.5,4,5,280,7,NA
fcp-trial,330,1574809,0.0-291.0-0.0,voc_e2,12170,"[{""event"":""fullscreenenter"",""trial"":1,""time"":1396}]",NA,NA,NA,NA,NA,1,#FA92F8,#1CD855,10,0,1,38,1,989.7000000029802,37,1,356.40000000596046,10,1,experiment,NA,NA,1,0.7,0.3,2,3,281,7,NA
fcp-trial,331,1577818,0.0-292.0-0.0,voc_e2,12170,"[{""event"":""fullscreenenter"",""trial"":1,""time"":1396}]",NA,NA,NA,NA,NA,1,#3386FF,#D89F1C,0,10,0,38,1,1102,39,0,399.90000000596046,10,1,experiment,NA,NA,0,0.1,0.9,1,0,282,7,NA
fcp-trial,332,1580921,0.0-293.0-0.0,voc_e2,12170,"[{""event"":""fullscreenenter"",""trial"":1,""time"":1396}]",NA,NA,NA,NA,NA,0,#1CD855,#FA92F8,0,10,0,38,1,906.5999999940395,39,0,685.2000000029802,10,1,experiment,NA,NA,1,0.3,0.7,3,2,283,7,NA
fcp-trial,333,1584530,0.0-294.0-0.0,voc_e2,12170,"[{""event"":""fullscreenenter"",""trial"":1,""time"":1396}]",NA,NA,NA,NA,NA,6,#D8271C,#741CD8,0,10,1,40,0,1432.2999999970198,37,1,670.4000000059605,0,1,experiment,NA,NA,2,0.5,0.5,4,5,284,7,NA
fcp-trial,334,1588234,0.0-295.0-0.0,voc_e2,12170,"[{""event"":""fullscreenenter"",""trial"":1,""time"":1396}]",NA,NA,NA,NA,NA,6,#FA92F8,#1CD855,10,0,1,40,0,1467.7999999970198,37,1,726.2999999970198,10,1,experiment,NA,NA,1,0.7,0.3,2,3,285,7,NA
fcp-trial,335,1592153,0.0-296.0-0.0,voc_e2,12170,"[{""event"":""fullscreenenter"",""trial"":1,""time"":1396}]",NA,NA,NA,NA,NA,5,#741CD8,#D8271C,0,10,0,40,0,1896,37,1,515.2999999970198,0,0,experiment,NA,NA,2,0.5,0.5,5,4,286,7,NA
fcp-trial,336,1594967,0.0-297.0-0.0,voc_e2,12170,"[{""event"":""fullscreenenter"",""trial"":1,""time"":1396}]",NA,NA,NA,NA,NA,4,#D89F1C,#3386FF,10,0,1,38,1,923.1000000089407,37,1,382.59999999403954,10,1,experiment,NA,NA,0,0.9,0.1,0,1,287,7,NA
fcp-trial,337,1598534,0.0-298.0-0.0,voc_e2,12170,"[{""event"":""fullscreenenter"",""trial"":1,""time"":1396}]",NA,NA,NA,NA,NA,1,#D8271C,#741CD8,0,0,1,38,1,1646.8999999910593,39,0,412.40000000596046,0,0,experiment,NA,NA,2,0.5,0.5,4,5,288,7,NA
fcp-trial,338,1602541,0.0-299.0-0.0,voc_e2,12170,"[{""event"":""fullscreenenter"",""trial"":1,""time"":1396}]",NA,NA,NA,NA,NA,4,#1CD855,#FA92F8,0,0,0,38,1,1983.5999999940395,39,0,515.9000000059605,0,1,experiment,NA,NA,1,0.3,0.7,3,2,289,7,NA
fcp-trial,339,1605828,0.0-300.0-0.0,voc_e2,12170,"[{""event"":""fullscreenenter"",""trial"":1,""time"":1396}]",NA,NA,NA,NA,NA,2,#D8271C,#741CD8,0,0,1,38,1,904.3999999910593,39,0,874,0,0,experiment,NA,NA,2,0.5,0.5,4,5,290,7,NA
fcp-trial,340,1608888,0.0-301.0-0.0,voc_e2,12170,"[{""event"":""fullscreenenter"",""trial"":1,""time"":1396}]",NA,NA,NA,NA,NA,2,#3386FF,#D89F1C,0,10,0,38,1,1175.5999999940395,39,0,376.79999999701977,10,1,experiment,NA,NA,0,0.1,0.9,1,0,291,7,NA
fcp-trial,341,1612598,0.0-302.0-0.0,voc_e2,12170,"[{""event"":""fullscreenenter"",""trial"":1,""time"":1396}]",NA,NA,NA,NA,NA,5,#1CD855,#FA92F8,10,0,0,40,0,1575.2000000029802,37,1,625.0999999940395,10,0,experiment,NA,NA,1,0.3,0.7,3,2,292,7,NA
fcp-trial,342,1615872,0.0-303.0-0.0,voc_e2,12170,"[{""event"":""fullscreenenter"",""trial"":1,""time"":1396}]",NA,NA,NA,NA,NA,3,#3386FF,#D89F1C,10,10,0,38,1,1362.6000000089407,39,0,400.20000000298023,10,1,experiment,NA,NA,0,0.1,0.9,1,0,293,7,NA
fcp-trial,343,1618899,0.0-304.0-0.0,voc_e2,12170,"[{""event"":""fullscreenenter"",""trial"":1,""time"":1396}]",NA,NA,NA,NA,NA,6,#D89F1C,#3386FF,10,0,1,40,0,1021.7000000029802,37,1,491.6000000089407,10,1,experiment,NA,NA,0,0.9,0.1,0,1,294,7,NA
fcp-trial,344,1621777,0.0-305.0-0.0,voc_e2,12170,"[{""event"":""fullscreenenter"",""trial"":1,""time"":1396}]",NA,NA,NA,NA,NA,0,#D8271C,#741CD8,10,10,1,38,1,980.7999999970198,39,0,388.20000000298023,10,0,experiment,NA,NA,2,0.5,0.5,4,5,295,7,NA
fcp-trial,345,1624703,0.0-306.0-0.0,voc_e2,12170,"[{""event"":""fullscreenenter"",""trial"":1,""time"":1396}]",NA,NA,NA,NA,NA,4,#FA92F8,#1CD855,10,0,1,40,0,912.0999999940395,39,0,508.40000000596046,0,0,experiment,NA,NA,1,0.7,0.3,2,3,296,7,NA
fcp-trial,346,1627320,0.0-307.0-0.0,voc_e2,12170,"[{""event"":""fullscreenenter"",""trial"":1,""time"":1396}]",NA,NA,NA,NA,NA,1,#3386FF,#D89F1C,0,10,0,38,1,801.5,39,0,303.40000000596046,10,1,experiment,NA,NA,0,0.1,0.9,1,0,297,7,NA
fcp-trial,347,1630299,0.0-308.0-0.0,voc_e2,12170,"[{""event"":""fullscreenenter"",""trial"":1,""time"":1396}]",NA,NA,NA,NA,NA,5,#D8271C,#741CD8,0,0,1,40,0,1043.5999999940395,37,1,427,0,1,experiment,NA,NA,2,0.5,0.5,4,5,298,7,NA
fcp-trial,348,1633830,0.0-309.0-0.0,voc_e2,12170,"[{""event"":""fullscreenenter"",""trial"":1,""time"":1396}]",NA,NA,NA,NA,NA,3,#FA92F8,#1CD855,10,0,1,38,1,1687.7999999970198,37,1,337.09999999403954,10,1,experiment,NA,NA,1,0.7,0.3,2,3,299,7,NA
fcp-trial,349,1637834,0.0-310.0-0.0,voc_e2,12170,"[{""event"":""fullscreenenter"",""trial"":1,""time"":1396}]",NA,NA,NA,NA,NA,4,#741CD8,#D8271C,10,0,0,38,1,1406.1000000089407,37,1,1089,10,0,experiment,NA,NA,2,0.5,0.5,5,4,300,7,NA
fcp-trial,350,1641641,0.0-311.0-0.0,voc_e2,12170,"[{""event"":""fullscreenenter"",""trial"":1,""time"":1396}]",NA,NA,NA,NA,NA,0,#D89F1C,#3386FF,10,0,1,38,1,1298.7000000029802,37,1,999.6999999880792,10,1,experiment,NA,NA,0,0.9,0.1,0,1,301,7,NA
fcp-trial,351,1644875,0.0-312.0-0.0,voc_e2,12170,"[{""event"":""fullscreenenter"",""trial"":1,""time"":1396}]",NA,NA,NA,NA,NA,6,#741CD8,#D8271C,0,0,0,40,0,1310,37,1,417.20000000298023,0,0,experiment,NA,NA,2,0.5,0.5,5,4,302,7,NA
fcp-trial,352,1649434,0.0-313.0-0.0,voc_e2,12170,"[{""event"":""fullscreenenter"",""trial"":1,""time"":1396}]",NA,NA,NA,NA,NA,6,#1CD855,#FA92F8,0,0,0,40,0,1825.5,39,0,1227.0999999940395,0,1,experiment,NA,NA,1,0.3,0.7,3,2,303,7,NA
fcp-trial,353,1653127,0.0-314.0-0.0,voc_e2,12170,"[{""event"":""fullscreenenter"",""trial"":1,""time"":1396}]",NA,NA,NA,NA,NA,5,#FA92F8,#1CD855,0,10,1,40,0,1177.2999999970198,39,0,1006.9000000059604,10,0,experiment,NA,NA,1,0.7,0.3,2,3,304,7,NA
fcp-trial,354,1656452,0.0-315.0-0.0,voc_e2,12170,"[{""event"":""fullscreenenter"",""trial"":1,""time"":1396}]",NA,NA,NA,NA,NA,2,#3386FF,#D89F1C,0,0,0,38,1,1452.7999999970198,39,0,362.09999999403954,0,1,experiment,NA,NA,0,0.1,0.9,1,0,305,7,NA
fcp-trial,355,1661069,0.0-316.0-0.0,voc_e2,12170,"[{""event"":""fullscreenenter"",""trial"":1,""time"":1396}]",NA,NA,NA,NA,NA,1,#D8271C,#741CD8,10,0,1,38,1,2442.2000000029802,39,0,667.3999999910593,0,0,experiment,NA,NA,2,0.5,0.5,4,5,306,7,NA
fcp-trial,356,1664520,0.0-317.0-0.0,voc_e2,12170,"[{""event"":""fullscreenenter"",""trial"":1,""time"":1396}]",NA,NA,NA,NA,NA,3,#D8271C,#741CD8,0,0,1,40,0,1366.5,37,1,576,0,1,experiment,NA,NA,2,0.5,0.5,4,5,307,7,NA
fcp-trial,357,1667280,0.0-318.0-0.0,voc_e2,12170,"[{""event"":""fullscreenenter"",""trial"":1,""time"":1396}]",NA,NA,NA,NA,NA,5,#D89F1C,#3386FF,10,0,1,38,1,825.9000000059605,37,1,427,10,1,experiment,NA,NA,0,0.9,0.1,0,1,308,7,NA
fcp-trial,358,1669916,0.0-319.0-0.0,voc_e2,12170,"[{""event"":""fullscreenenter"",""trial"":1,""time"":1396}]",NA,NA,NA,NA,NA,0,#1CD855,#FA92F8,0,0,0,38,1,715.9000000059605,39,0,411.29999999701977,0,1,experiment,NA,NA,1,0.3,0.7,3,2,309,7,NA
fcp-trial,359,1672967,0.0-320.0-0.0,voc_e2,12170,"[{""event"":""fullscreenenter"",""trial"":1,""time"":1396}]",NA,NA,NA,NA,NA,4,#D89F1C,#3386FF,10,0,1,40,0,934.7000000029802,39,0,607.6000000089407,0,0,experiment,NA,NA,0,0.9,0.1,0,1,310,7,NA
fcp-trial,360,1675928,0.0-321.0-0.0,voc_e2,12170,"[{""event"":""fullscreenenter"",""trial"":1,""time"":1396}]",NA,NA,NA,NA,NA,2,#741CD8,#D8271C,10,10,0,38,1,732.7999999970198,37,1,720.1000000089407,10,0,experiment,NA,NA,2,0.5,0.5,5,4,311,7,NA
fcp-trial,361,1678966,0.0-322.0-0.0,voc_e2,12170,"[{""event"":""fullscreenenter"",""trial"":1,""time"":1396}]",NA,NA,NA,NA,NA,1,#FA92F8,#1CD855,0,0,1,38,1,1108.4000000059605,37,1,420.90000000596046,0,1,experiment,NA,NA,1,0.7,0.3,2,3,312,7,NA
fcp-trial,362,1681946,0.0-323.0-0.0,voc_e2,12170,"[{""event"":""fullscreenenter"",""trial"":1,""time"":1396}]",NA,NA,NA,NA,NA,6,#3386FF,#D89F1C,0,10,0,40,0,1060.199999988079,39,0,410.40000000596046,10,1,experiment,NA,NA,0,0.1,0.9,1,0,313,7,NA
fcp-trial,363,1685612,0.0-324.0-0.0,voc_e2,12170,"[{""event"":""fullscreenenter"",""trial"":1,""time"":1396}]",NA,NA,NA,NA,NA,3,#D89F1C,#3386FF,10,0,1,38,1,1743.3999999910593,37,1,414.90000000596046,10,1,experiment,NA,NA,0,0.9,0.1,0,1,314,7,NA
fcp-trial,364,1688737,0.0-325.0-0.0,voc_e2,12170,"[{""event"":""fullscreenenter"",""trial"":1,""time"":1396}]",NA,NA,NA,NA,NA,2,#1CD855,#FA92F8,0,10,0,38,1,963.8000000119209,39,0,650.8999999910593,10,1,experiment,NA,NA,1,0.3,0.7,3,2,315,7,NA
audio-instructions,365,1701310,0.0-326.0,voc_e2,12170,"[{""event"":""fullscreenenter"",""trial"":1,""time"":1396}]",NA,5849,static/audio/finished.wav,NA,0,NA,NA,NA,NA,NA,NA,NA,NA,NA,NA,NA,NA,NA,NA,NA,NA,NA,NA,NA,NA,NA,NA,NA,NA,NA
audio-instructions,366,1717420,0.0-327.0-0.0,voc_e2,12170,"[{""event"":""fullscreenenter"",""trial"":1,""time"":1396}]",NA,5270.20000000298,static/audio/explicit1.wav,NA,0,NA,NA,NA,NA,NA,NA,NA,NA,NA,NA,NA,NA,NA,NA,NA,NA,NA,NA,NA,NA,NA,NA,NA,NA,NA
audio-instructions,367,1726430,0.0-327.0-1.0,voc_e2,12170,"[{""event"":""fullscreenenter"",""trial"":1,""time"":1396}]",NA,1410.1000000089407,static/audio/explicit2.wav,NA,0,NA,NA,NA,NA,NA,NA,NA,NA,NA,NA,NA,NA,NA,NA,NA,NA,NA,NA,NA,NA,NA,NA,NA,NA,NA
image-slider-response,368,1732306,0.0-328.0,voc_e2,12170,"[{""event"":""fullscreenenter"",""trial"":1,""time"":1396}]",NA,5870.899999991059,static/img/machines/machine3.png,NA,NA,NA,NA,NA,NA,NA,NA,NA,NA,NA,NA,NA,NA,NA,NA,explicit,NA,NA,NA,NA,NA,NA,NA,NA,NA,5
image-slider-response,369,1738387,0.0-329.0,voc_e2,12170,"[{""event"":""fullscreenenter"",""trial"":1,""time"":1396}]",NA,6079.600000008941,static/img/machines/machine2.png,NA,NA,NA,NA,NA,NA,NA,NA,NA,NA,NA,NA,NA,NA,NA,NA,explicit,NA,NA,NA,NA,NA,NA,NA,NA,NA,5
image-slider-response,370,1743026,0.0-330.0,voc_e2,12170,"[{""event"":""fullscreenenter"",""trial"":1,""time"":1396}]",NA,4636.199999988079,static/img/machines/machine1.png,NA,NA,NA,NA,NA,NA,NA,NA,NA,NA,NA,NA,NA,NA,NA,NA,explicit,NA,NA,NA,NA,NA,NA,NA,NA,NA,3
image-slider-response,371,1749130,0.0-331.0,voc_e2,12170,"[{""event"":""fullscreenenter"",""trial"":1,""time"":1396}]",NA,6101.300000011921,static/img/machines/machine4.png,NA,NA,NA,NA,NA,NA,NA,NA,NA,NA,NA,NA,NA,NA,NA,NA,explicit,NA,NA,NA,NA,NA,NA,NA,NA,NA,8
image-slider-response,372,1753996,0.0-332.0,voc_e2,12170,"[{""event"":""fullscreenenter"",""trial"":1,""time"":1396}]",NA,4864.5,static/img/machines/machine5.png,NA,NA,NA,NA,NA,NA,NA,NA,NA,NA,NA,NA,NA,NA,NA,NA,explicit,NA,NA,NA,NA,NA,NA,NA,NA,NA,7
image-slider-response,373,1759551,0.0-333.0,voc_e2,12170,"[{""event"":""fullscreenenter"",""trial"":1,""time"":1396}]",NA,5552.199999988079,static/img/machines/machine6.png,NA,NA,NA,NA,NA,NA,NA,NA,NA,NA,NA,NA,NA,NA,NA,NA,explicit,NA,NA,NA,NA,NA,NA,NA,NA,NA,4
