trial_type,trial_index,time_elapsed,internal_node_id,task_version,subject_id,interactions,success,rt,stimulus,key_press,button_pressed,offer,arcade_color_L,arcade_color_R,arcade_outcome_L,arcade_outcome_R,correct,stage_1_key,stage_1_choice,stage_1_rt,stage_2_key,stage_2_choice,stage_2_rt,stage_3_outcome,accuracy,phase,responses,num_errors,context,reward_prob_L,reward_prob_R,arcade_id_L,arcade_id_R,trial,block,response
pavlovia,0,23,0.0-0.0,voc_e2,12402,[],NA,NA,NA,NA,NA,NA,NA,NA,NA,NA,NA,NA,NA,NA,NA,NA,NA,NA,NA,NA,NA,NA,NA,NA,NA,NA,NA,NA,NA,NA
fullscreen,1,2584,0.0-1.0,voc_e2,12402,"[{""event"":""fullscreenenter"",""trial"":1,""time"":1607}]",TRUE,NA,NA,NA,NA,NA,NA,NA,NA,NA,NA,NA,NA,NA,NA,NA,NA,NA,NA,NA,NA,NA,NA,NA,NA,NA,NA,NA,NA,NA
audio-keyboard-response,2,5273,0.0-2.0,voc_e2,12402,"[{""event"":""fullscreenenter"",""trial"":1,""time"":1607}]",NA,2360,static/audio/beep_loop.wav,32,NA,NA,NA,NA,NA,NA,NA,NA,NA,NA,NA,NA,NA,NA,NA,NA,NA,NA,NA,NA,NA,NA,NA,NA,NA,NA
audio-test,3,6831,0.0-3.0,voc_e2,12402,"[{""event"":""fullscreenenter"",""trial"":1,""time"":1607}]",NA,NA,static/audio/turtle.wav,NA,3,NA,NA,NA,NA,NA,NA,NA,NA,NA,NA,NA,NA,NA,NA,NA,NA,NA,NA,NA,NA,NA,NA,NA,NA,NA
audio-test,4,10285,0.0-4.0,voc_e2,12402,"[{""event"":""fullscreenenter"",""trial"":1,""time"":1607}]",NA,NA,static/audio/shark.wav,NA,2,NA,NA,NA,NA,NA,NA,NA,NA,NA,NA,NA,NA,NA,NA,NA,NA,NA,NA,NA,NA,NA,NA,NA,NA,NA
audio-instructions,5,17272,0.0-5.0-0.0,voc_e2,12402,"[{""event"":""fullscreenenter"",""trial"":1,""time"":1607}]",NA,1194.899999976158,static/audio/instructions1.wav,NA,0,NA,NA,NA,NA,NA,NA,NA,NA,NA,NA,NA,NA,NA,NA,NA,NA,NA,NA,NA,NA,NA,NA,NA,NA,NA
audio-instructions,6,25705,0.0-5.0-1.0,voc_e2,12402,"[{""event"":""fullscreenenter"",""trial"":1,""time"":1607}]",NA,1695.199999988079,static/audio/instructions2.wav,NA,0,NA,NA,NA,NA,NA,NA,NA,NA,NA,NA,NA,NA,NA,NA,NA,NA,NA,NA,NA,NA,NA,NA,NA,NA,NA
audio-instructions,7,33204,0.0-5.0-2.0,voc_e2,12402,"[{""event"":""fullscreenenter"",""trial"":1,""time"":1607}]",NA,1694.5999999940395,static/audio/instructions3.wav,NA,0,NA,NA,NA,NA,NA,NA,NA,NA,NA,NA,NA,NA,NA,NA,NA,NA,NA,NA,NA,NA,NA,NA,NA,NA,NA
audio-instructions,8,48110,0.0-5.0-3.0,voc_e2,12402,"[{""event"":""fullscreenenter"",""trial"":1,""time"":1607}]",NA,1680.300000011921,static/audio/instructions4.wav,NA,0,NA,NA,NA,NA,NA,NA,NA,NA,NA,NA,NA,NA,NA,NA,NA,NA,NA,NA,NA,NA,NA,NA,NA,NA,NA
audio-instructions,9,58948,0.0-5.0-4.0,voc_e2,12402,"[{""event"":""fullscreenenter"",""trial"":1,""time"":1607}]",NA,1447.800000011921,static/audio/instructions5.wav,NA,0,NA,NA,NA,NA,NA,NA,NA,NA,NA,NA,NA,NA,NA,NA,NA,NA,NA,NA,NA,NA,NA,NA,NA,NA,NA
fcp-practice,10,61368,0.0-5.0-5.0-0.0,voc_e2,12402,"[{""event"":""fullscreenenter"",""trial"":1,""time"":1607}]",NA,NA,NA,NA,NA,NA,#EDC948,#46d3c8,10,0,1,null,null,null,37,1,898.8000000119209,10,1,practice,NA,NA,NA,NA,NA,NA,NA,NA,NA,NA
fcp-practice,11,63366,0.0-5.0-5.0-1.0,voc_e2,12402,"[{""event"":""fullscreenenter"",""trial"":1,""time"":1607}]",NA,NA,NA,NA,NA,NA,#EDC948,#46d3c8,10,0,1,null,null,null,37,1,486.90000000596046,10,1,practice,NA,NA,NA,NA,NA,NA,NA,NA,NA,NA
fcp-practice,12,65284,0.0-5.0-5.0-2.0,voc_e2,12402,"[{""event"":""fullscreenenter"",""trial"":1,""time"":1607}]",NA,NA,NA,NA,NA,NA,#EDC948,#46d3c8,0,10,1,null,null,null,37,1,401.5,0,1,practice,NA,NA,NA,NA,NA,NA,NA,NA,NA,NA
fcp-practice,13,67139,0.0-5.0-5.0-3.0,voc_e2,12402,"[{""event"":""fullscreenenter"",""trial"":1,""time"":1607}]",NA,NA,NA,NA,NA,NA,#EDC948,#46d3c8,10,0,1,null,null,null,37,1,341.7000000178814,10,1,practice,NA,NA,NA,NA,NA,NA,NA,NA,NA,NA
fcp-practice,14,69038,0.0-5.0-5.0-4.0,voc_e2,12402,"[{""event"":""fullscreenenter"",""trial"":1,""time"":1607}]",NA,NA,NA,NA,NA,NA,#EDC948,#46d3c8,10,0,1,null,null,null,37,1,389.7000000178814,10,1,practice,NA,NA,NA,NA,NA,NA,NA,NA,NA,NA
audio-instructions,15,88924,0.0-5.0-6.0,voc_e2,12402,"[{""event"":""fullscreenenter"",""trial"":1,""time"":1607}]",NA,1873.800000011921,static/audio/instructions6.wav,NA,0,NA,NA,NA,NA,NA,NA,NA,NA,NA,NA,NA,NA,NA,NA,NA,NA,NA,NA,NA,NA,NA,NA,NA,NA,NA
audio-instructions,16,109429,0.0-5.0-7.0,voc_e2,12402,"[{""event"":""fullscreenenter"",""trial"":1,""time"":1607}]",NA,1308,static/audio/instructions7.wav,NA,0,NA,NA,NA,NA,NA,NA,NA,NA,NA,NA,NA,NA,NA,NA,NA,NA,NA,NA,NA,NA,NA,NA,NA,NA,NA
audio-instructions,17,120562,0.0-5.0-8.0,voc_e2,12402,"[{""event"":""fullscreenenter"",""trial"":1,""time"":1607}]",NA,1652.2000000178814,static/audio/instructions8.wav,NA,0,NA,NA,NA,NA,NA,NA,NA,NA,NA,NA,NA,NA,NA,NA,NA,NA,NA,NA,NA,NA,NA,NA,NA,NA,NA
fcp-comprehension,18,127198,0.0-5.0-9.0,voc_e2,12402,"[{""event"":""fullscreenenter"",""trial"":1,""time"":1607}]",NA,6632.5,NA,NA,NA,NA,NA,NA,NA,NA,NA,NA,NA,NA,NA,NA,NA,NA,NA,NA,"false,true",1,NA,NA,NA,NA,NA,NA,NA,NA
audio-instructions,19,132663,0.0-5.1-0.1,voc_e2,12402,"[{""event"":""fullscreenenter"",""trial"":1,""time"":1607}]",NA,682.6999999880791,static/audio/instructions1.wav,NA,0,NA,NA,NA,NA,NA,NA,NA,NA,NA,NA,NA,NA,NA,NA,NA,NA,NA,NA,NA,NA,NA,NA,NA,NA,NA
audio-instructions,20,144811,0.0-5.1-1.1,voc_e2,12402,"[{""event"":""fullscreenenter"",""trial"":1,""time"":1607}]",NA,5410.299999982119,static/audio/instructions2.wav,NA,0,NA,NA,NA,NA,NA,NA,NA,NA,NA,NA,NA,NA,NA,NA,NA,NA,NA,NA,NA,NA,NA,NA,NA,NA,NA
audio-instructions,21,152821,0.0-5.1-2.1,voc_e2,12402,"[{""event"":""fullscreenenter"",""trial"":1,""time"":1607}]",NA,2200.2999999821186,static/audio/instructions3.wav,NA,0,NA,NA,NA,NA,NA,NA,NA,NA,NA,NA,NA,NA,NA,NA,NA,NA,NA,NA,NA,NA,NA,NA,NA,NA,NA
audio-instructions,22,167093,0.0-5.1-3.1,voc_e2,12402,"[{""event"":""fullscreenenter"",""trial"":1,""time"":1607}]",NA,1042,static/audio/instructions4.wav,NA,0,NA,NA,NA,NA,NA,NA,NA,NA,NA,NA,NA,NA,NA,NA,NA,NA,NA,NA,NA,NA,NA,NA,NA,NA,NA
audio-instructions,23,177412,0.0-5.1-4.1,voc_e2,12402,"[{""event"":""fullscreenenter"",""trial"":1,""time"":1607}]",NA,931,static/audio/instructions5.wav,NA,0,NA,NA,NA,NA,NA,NA,NA,NA,NA,NA,NA,NA,NA,NA,NA,NA,NA,NA,NA,NA,NA,NA,NA,NA,NA
fcp-practice,24,180350,0.0-5.1-5.1-0.1,voc_e2,12402,"[{""event"":""fullscreenenter"",""trial"":1,""time"":1607}]",NA,NA,NA,NA,NA,NA,#EDC948,#46d3c8,10,0,1,null,null,null,37,1,1425.4000000059605,10,1,practice,NA,NA,NA,NA,NA,NA,NA,NA,NA,NA
fcp-practice,25,182183,0.0-5.1-5.1-1.1,voc_e2,12402,"[{""event"":""fullscreenenter"",""trial"":1,""time"":1607}]",NA,NA,NA,NA,NA,NA,#EDC948,#46d3c8,10,0,1,null,null,null,37,1,321.59999999403954,10,1,practice,NA,NA,NA,NA,NA,NA,NA,NA,NA,NA
fcp-practice,26,184017,0.0-5.1-5.1-2.1,voc_e2,12402,"[{""event"":""fullscreenenter"",""trial"":1,""time"":1607}]",NA,NA,NA,NA,NA,NA,#EDC948,#46d3c8,0,10,1,null,null,null,37,1,316.40000000596046,0,1,practice,NA,NA,NA,NA,NA,NA,NA,NA,NA,NA
fcp-practice,27,185700,0.0-5.1-5.1-3.1,voc_e2,12402,"[{""event"":""fullscreenenter"",""trial"":1,""time"":1607}]",NA,NA,NA,NA,NA,NA,#EDC948,#46d3c8,10,0,1,null,null,null,37,1,171.59999999403954,10,1,practice,NA,NA,NA,NA,NA,NA,NA,NA,NA,NA
fcp-practice,28,187589,0.0-5.1-5.1-4.1,voc_e2,12402,"[{""event"":""fullscreenenter"",""trial"":1,""time"":1607}]",NA,NA,NA,NA,NA,NA,#EDC948,#46d3c8,10,0,1,null,null,null,37,1,380.2000000178814,10,1,practice,NA,NA,NA,NA,NA,NA,NA,NA,NA,NA
audio-instructions,29,208781,0.0-5.1-6.1,voc_e2,12402,"[{""event"":""fullscreenenter"",""trial"":1,""time"":1607}]",NA,3179.0999999940395,static/audio/instructions6.wav,NA,0,NA,NA,NA,NA,NA,NA,NA,NA,NA,NA,NA,NA,NA,NA,NA,NA,NA,NA,NA,NA,NA,NA,NA,NA,NA
audio-instructions,30,229090,0.0-5.1-7.1,voc_e2,12402,"[{""event"":""fullscreenenter"",""trial"":1,""time"":1607}]",NA,1109.699999988079,static/audio/instructions7.wav,NA,0,NA,NA,NA,NA,NA,NA,NA,NA,NA,NA,NA,NA,NA,NA,NA,NA,NA,NA,NA,NA,NA,NA,NA,NA,NA
audio-instructions,31,239717,0.0-5.1-8.1,voc_e2,12402,"[{""event"":""fullscreenenter"",""trial"":1,""time"":1607}]",NA,1145.9000000059605,static/audio/instructions8.wav,NA,0,NA,NA,NA,NA,NA,NA,NA,NA,NA,NA,NA,NA,NA,NA,NA,NA,NA,NA,NA,NA,NA,NA,NA,NA,NA
fcp-comprehension,32,259132,0.0-5.1-9.1,voc_e2,12402,"[{""event"":""fullscreenenter"",""trial"":1,""time"":1607}]",NA,19412.20000001788,NA,NA,NA,NA,NA,NA,NA,NA,NA,NA,NA,NA,NA,NA,NA,NA,NA,NA,"true,true",0,NA,NA,NA,NA,NA,NA,NA,NA
audio-instructions,33,266088,0.0-6.0-0.0,voc_e2,12402,"[{""event"":""fullscreenenter"",""trial"":1,""time"":1607}]",NA,1406.4000000059605,static/audio/instructions9.wav,NA,0,NA,NA,NA,NA,NA,NA,NA,NA,NA,NA,NA,NA,NA,NA,NA,NA,NA,NA,NA,NA,NA,NA,NA,NA,NA
audio-instructions,34,289272,0.0-6.0-1.0,voc_e2,12402,"[{""event"":""fullscreenenter"",""trial"":1,""time"":1607}]",NA,11069.899999976158,static/audio/instructions10.wav,NA,0,NA,NA,NA,NA,NA,NA,NA,NA,NA,NA,NA,NA,NA,NA,NA,NA,NA,NA,NA,NA,NA,NA,NA,NA,NA
fcp-trial,35,296381,0.0-6.0-2.0,voc_e2,12402,"[{""event"":""fullscreenenter"",""trial"":1,""time"":1607}]",NA,NA,NA,NA,NA,0,#EDC948,#46d3c8,10,10,1,38,1,4670.4000000059605,37,1,902.9000000059604,10,1,practice,NA,NA,NA,NA,NA,NA,NA,NA,NA,NA
audio-instructions,36,309358,0.0-6.0-3.0,voc_e2,12402,"[{""event"":""fullscreenenter"",""trial"":1,""time"":1607}]",NA,1965.800000011921,static/audio/instructions11.wav,NA,0,NA,NA,NA,NA,NA,NA,NA,NA,NA,NA,NA,NA,NA,NA,NA,NA,NA,NA,NA,NA,NA,NA,NA,NA,NA
fcp-trial,37,314715,0.0-6.0-4.0,voc_e2,12402,"[{""event"":""fullscreenenter"",""trial"":1,""time"":1607}]",NA,NA,NA,NA,NA,6,#EDC948,#46d3c8,10,10,1,40,0,791.4000000059605,37,1,3048.5,10,1,practice,NA,NA,NA,NA,NA,NA,NA,NA,NA,NA
audio-instructions,38,334832,0.0-6.0-5.0,voc_e2,12402,"[{""event"":""fullscreenenter"",""trial"":1,""time"":1607}]",NA,1430.399999976158,static/audio/instructions12.wav,NA,0,NA,NA,NA,NA,NA,NA,NA,NA,NA,NA,NA,NA,NA,NA,NA,NA,NA,NA,NA,NA,NA,NA,NA,NA,NA
audio-instructions,39,343223,0.0-6.0-6.0,voc_e2,12402,"[{""event"":""fullscreenenter"",""trial"":1,""time"":1607}]",NA,791.0999999940395,static/audio/instructions13.wav,NA,0,NA,NA,NA,NA,NA,NA,NA,NA,NA,NA,NA,NA,NA,NA,NA,NA,NA,NA,NA,NA,NA,NA,NA,NA,NA
audio-instructions,40,352355,0.0-6.0-7.0,voc_e2,12402,"[{""event"":""fullscreenenter"",""trial"":1,""time"":1607}]",NA,682.9000000059605,static/audio/instructions14.wav,NA,0,NA,NA,NA,NA,NA,NA,NA,NA,NA,NA,NA,NA,NA,NA,NA,NA,NA,NA,NA,NA,NA,NA,NA,NA,NA
audio-instructions,41,359923,0.0-7.0-0.0,voc_e2,12402,"[{""event"":""fullscreenenter"",""trial"":1,""time"":1607}]",NA,651.0999999940395,static/audio/instructions15.wav,NA,0,NA,NA,NA,NA,NA,NA,NA,NA,NA,NA,NA,NA,NA,NA,NA,NA,NA,NA,NA,NA,NA,NA,NA,NA,NA
audio-instructions,42,367505,0.0-7.0-1.0,voc_e2,12402,"[{""event"":""fullscreenenter"",""trial"":1,""time"":1607}]",NA,752.5,static/audio/instructions16.wav,NA,0,NA,NA,NA,NA,NA,NA,NA,NA,NA,NA,NA,NA,NA,NA,NA,NA,NA,NA,NA,NA,NA,NA,NA,NA,NA
audio-instructions,43,375854,0.0-7.0-2.0,voc_e2,12402,"[{""event"":""fullscreenenter"",""trial"":1,""time"":1607}]",NA,672.2000000178814,static/audio/instructions17.wav,NA,0,NA,NA,NA,NA,NA,NA,NA,NA,NA,NA,NA,NA,NA,NA,NA,NA,NA,NA,NA,NA,NA,NA,NA,NA,NA
audio-instructions,44,384333,0.0-7.0-3.0,voc_e2,12402,"[{""event"":""fullscreenenter"",""trial"":1,""time"":1607}]",NA,711.7999999821186,static/audio/instructions18.wav,NA,0,NA,NA,NA,NA,NA,NA,NA,NA,NA,NA,NA,NA,NA,NA,NA,NA,NA,NA,NA,NA,NA,NA,NA,NA,NA
audio-instructions,45,391728,0.0-7.0-4.0,voc_e2,12402,"[{""event"":""fullscreenenter"",""trial"":1,""time"":1607}]",NA,646.4000000059605,static/audio/instructions19.wav,NA,0,NA,NA,NA,NA,NA,NA,NA,NA,NA,NA,NA,NA,NA,NA,NA,NA,NA,NA,NA,NA,NA,NA,NA,NA,NA
fcp-comprehension,46,407308,0.0-7.0-5.0,voc_e2,12402,"[{""event"":""fullscreenenter"",""trial"":1,""time"":1607}]",NA,15576,NA,NA,NA,NA,NA,NA,NA,NA,NA,NA,NA,NA,NA,NA,NA,NA,NA,NA,"false,true,false,true",1,NA,NA,NA,NA,NA,NA,NA,NA
audio-instructions,47,415299,0.0-7.1-0.1,voc_e2,12402,"[{""event"":""fullscreenenter"",""trial"":1,""time"":1607}]",NA,1066.4000000059605,static/audio/instructions15.wav,NA,0,NA,NA,NA,NA,NA,NA,NA,NA,NA,NA,NA,NA,NA,NA,NA,NA,NA,NA,NA,NA,NA,NA,NA,NA,NA
audio-instructions,48,422794,0.0-7.1-1.1,voc_e2,12402,"[{""event"":""fullscreenenter"",""trial"":1,""time"":1607}]",NA,672.1000000238419,static/audio/instructions16.wav,NA,0,NA,NA,NA,NA,NA,NA,NA,NA,NA,NA,NA,NA,NA,NA,NA,NA,NA,NA,NA,NA,NA,NA,NA,NA,NA
audio-instructions,49,431109,0.0-7.1-2.1,voc_e2,12402,"[{""event"":""fullscreenenter"",""trial"":1,""time"":1607}]",NA,637,static/audio/instructions17.wav,NA,0,NA,NA,NA,NA,NA,NA,NA,NA,NA,NA,NA,NA,NA,NA,NA,NA,NA,NA,NA,NA,NA,NA,NA,NA,NA
audio-instructions,50,439590,0.0-7.1-3.1,voc_e2,12402,"[{""event"":""fullscreenenter"",""trial"":1,""time"":1607}]",NA,717.5,static/audio/instructions18.wav,NA,0,NA,NA,NA,NA,NA,NA,NA,NA,NA,NA,NA,NA,NA,NA,NA,NA,NA,NA,NA,NA,NA,NA,NA,NA,NA
audio-instructions,51,446924,0.0-7.1-4.1,voc_e2,12402,"[{""event"":""fullscreenenter"",""trial"":1,""time"":1607}]",NA,591.4000000059605,static/audio/instructions19.wav,NA,0,NA,NA,NA,NA,NA,NA,NA,NA,NA,NA,NA,NA,NA,NA,NA,NA,NA,NA,NA,NA,NA,NA,NA,NA,NA
fcp-comprehension,52,456996,0.0-7.1-5.1,voc_e2,12402,"[{""event"":""fullscreenenter"",""trial"":1,""time"":1607}]",NA,10068.5,NA,NA,NA,NA,NA,NA,NA,NA,NA,NA,NA,NA,NA,NA,NA,NA,NA,NA,"false,false,false,true",0,NA,NA,NA,NA,NA,NA,NA,NA
audio-instructions,53,467637,0.0-8.0,voc_e2,12402,"[{""event"":""fullscreenenter"",""trial"":1,""time"":1607}]",NA,1424,static/audio/ready.wav,NA,0,NA,NA,NA,NA,NA,NA,NA,NA,NA,NA,NA,NA,NA,NA,NA,NA,NA,NA,NA,NA,NA,NA,NA,NA,NA
fcp-trial,54,475095,0.0-9.0-0.0,voc_e2,12402,"[{""event"":""fullscreenenter"",""trial"":1,""time"":1607}]",NA,NA,NA,NA,NA,5,#1CD855,#FA92F8,10,0,1,40,0,4823.5,39,0,1118.2000000178814,0,0,experiment,NA,NA,0,0.9,0.1,0,1,1,1,NA
fcp-trial,55,481309,0.0-10.0-0.0,voc_e2,12402,"[{""event"":""fullscreenenter"",""trial"":1,""time"":1607}]",NA,NA,NA,NA,NA,5,#D8271C,#741CD8,10,10,1,38,1,4160.300000011921,37,1,537.9000000059605,10,1,experiment,NA,NA,2,0.5,0.5,4,5,2,1,NA
fcp-trial,56,487152,0.0-11.0-0.0,voc_e2,12402,"[{""event"":""fullscreenenter"",""trial"":1,""time"":1607}]",NA,NA,NA,NA,NA,0,#3386FF,#D89F1C,10,0,0,38,1,3725.7999999821186,37,1,599.8999999761581,10,0,experiment,NA,NA,1,0.3,0.7,3,2,3,1,NA
fcp-trial,57,490334,0.0-12.0-0.0,voc_e2,12402,"[{""event"":""fullscreenenter"",""trial"":1,""time"":1607}]",NA,NA,NA,NA,NA,0,#FA92F8,#1CD855,0,10,0,38,1,1160.800000011921,39,0,505.59999999403954,10,1,experiment,NA,NA,0,0.1,0.9,1,0,4,1,NA
fcp-trial,58,493201,0.0-13.0-0.0,voc_e2,12402,"[{""event"":""fullscreenenter"",""trial"":1,""time"":1607}]",NA,NA,NA,NA,NA,2,#FA92F8,#1CD855,10,10,0,38,1,853.2000000178814,39,0,498.59999999403954,10,1,experiment,NA,NA,0,0.1,0.9,1,0,5,1,NA
fcp-trial,59,496094,0.0-14.0-0.0,voc_e2,12402,"[{""event"":""fullscreenenter"",""trial"":1,""time"":1607}]",NA,NA,NA,NA,NA,6,#741CD8,#D8271C,0,10,0,38,1,943.4000000059605,39,0,432.60000002384186,10,1,experiment,NA,NA,2,0.5,0.5,5,4,6,1,NA
fcp-trial,60,498844,0.0-15.0-0.0,voc_e2,12402,"[{""event"":""fullscreenenter"",""trial"":1,""time"":1607}]",NA,NA,NA,NA,NA,2,#741CD8,#D8271C,0,10,0,38,1,716.0999999940395,39,0,514,10,1,experiment,NA,NA,2,0.5,0.5,5,4,7,1,NA
fcp-trial,61,502165,0.0-16.0-0.0,voc_e2,12402,"[{""event"":""fullscreenenter"",""trial"":1,""time"":1607}]",NA,NA,NA,NA,NA,4,#D89F1C,#3386FF,10,0,1,38,1,967.6000000238419,39,0,833.6999999880791,0,0,experiment,NA,NA,1,0.7,0.3,2,3,8,1,NA
fcp-trial,62,505357,0.0-17.0-0.0,voc_e2,12402,"[{""event"":""fullscreenenter"",""trial"":1,""time"":1607}]",NA,NA,NA,NA,NA,1,#FA92F8,#1CD855,0,10,0,38,1,1039.8999999761581,39,0,638.9000000059605,10,1,experiment,NA,NA,0,0.1,0.9,1,0,9,1,NA
fcp-trial,63,510371,0.0-18.0-0.0,voc_e2,12402,"[{""event"":""fullscreenenter"",""trial"":1,""time"":1607}]",NA,NA,NA,NA,NA,0,#D8271C,#741CD8,0,0,1,38,1,778.1999999880791,39,0,2721.199999988079,0,0,experiment,NA,NA,2,0.5,0.5,4,5,10,1,NA
fcp-trial,64,513145,0.0-19.0-0.0,voc_e2,12402,"[{""event"":""fullscreenenter"",""trial"":1,""time"":1607}]",NA,NA,NA,NA,NA,1,#3386FF,#D89F1C,0,10,0,38,1,613.6999999880791,37,1,648.5999999940395,0,0,experiment,NA,NA,1,0.3,0.7,3,2,11,1,NA
fcp-trial,65,515905,0.0-20.0-0.0,voc_e2,12402,"[{""event"":""fullscreenenter"",""trial"":1,""time"":1607}]",NA,NA,NA,NA,NA,3,#D8271C,#741CD8,0,0,1,38,1,600.1000000238419,37,1,646.5,0,1,experiment,NA,NA,2,0.5,0.5,4,5,12,1,NA
fcp-trial,66,518710,0.0-21.0-0.0,voc_e2,12402,"[{""event"":""fullscreenenter"",""trial"":1,""time"":1607}]",NA,NA,NA,NA,NA,1,#D8271C,#741CD8,0,10,1,38,1,535.8000000119209,39,0,753.5,10,0,experiment,NA,NA,2,0.5,0.5,4,5,13,1,NA
fcp-trial,67,521674,0.0-22.0-0.0,voc_e2,12402,"[{""event"":""fullscreenenter"",""trial"":1,""time"":1607}]",NA,NA,NA,NA,NA,3,#1CD855,#FA92F8,10,0,1,38,1,594.8999999761581,37,1,859.0999999940395,10,1,experiment,NA,NA,0,0.9,0.1,0,1,14,1,NA
fcp-trial,68,525359,0.0-23.0-0.0,voc_e2,12402,"[{""event"":""fullscreenenter"",""trial"":1,""time"":1607}]",NA,NA,NA,NA,NA,3,#D89F1C,#3386FF,10,0,1,38,1,877.8000000119209,39,0,1298.5,0,0,experiment,NA,NA,1,0.7,0.3,2,3,15,1,NA
fcp-trial,69,528612,0.0-24.0-0.0,voc_e2,12402,"[{""event"":""fullscreenenter"",""trial"":1,""time"":1607}]",NA,NA,NA,NA,NA,4,#FA92F8,#1CD855,0,10,0,38,1,761.3000000119209,39,0,978.0999999940396,10,1,experiment,NA,NA,0,0.1,0.9,1,0,16,1,NA
fcp-trial,70,531849,0.0-25.0-0.0,voc_e2,12402,"[{""event"":""fullscreenenter"",""trial"":1,""time"":1607}]",NA,NA,NA,NA,NA,4,#741CD8,#D8271C,10,10,0,38,1,1253.7999999821186,39,0,469.300000011921,10,1,experiment,NA,NA,2,0.5,0.5,5,4,17,1,NA
fcp-trial,71,535932,0.0-26.0-0.0,voc_e2,12402,"[{""event"":""fullscreenenter"",""trial"":1,""time"":1607}]",NA,NA,NA,NA,NA,6,#D89F1C,#3386FF,10,10,1,38,1,653.3000000119209,39,0,1914.199999988079,10,0,experiment,NA,NA,1,0.7,0.3,2,3,18,1,NA
fcp-trial,72,538742,0.0-27.0-0.0,voc_e2,12402,"[{""event"":""fullscreenenter"",""trial"":1,""time"":1607}]",NA,NA,NA,NA,NA,5,#3386FF,#D89F1C,10,10,0,38,1,707.9000000059605,37,1,586.5,10,0,experiment,NA,NA,1,0.3,0.7,3,2,19,1,NA
fcp-trial,73,541236,0.0-28.0-0.0,voc_e2,12402,"[{""event"":""fullscreenenter"",""trial"":1,""time"":1607}]",NA,NA,NA,NA,NA,2,#D89F1C,#3386FF,10,0,1,38,1,480.59999999403954,39,0,491.90000000596046,0,0,experiment,NA,NA,1,0.7,0.3,2,3,20,1,NA
fcp-trial,74,545805,0.0-29.0-0.0,voc_e2,12402,"[{""event"":""fullscreenenter"",""trial"":1,""time"":1607}]",NA,NA,NA,NA,NA,6,#1CD855,#FA92F8,10,0,1,40,0,1594.6000000238419,39,0,1458.5999999940395,0,0,experiment,NA,NA,0,0.9,0.1,0,1,21,1,NA
fcp-trial,75,549752,0.0-30.0-0.0,voc_e2,12402,"[{""event"":""fullscreenenter"",""trial"":1,""time"":1607}]",NA,NA,NA,NA,NA,2,#741CD8,#D8271C,10,10,0,38,1,1275.5999999940395,39,0,1156.4000000059605,10,1,experiment,NA,NA,2,0.5,0.5,5,4,22,1,NA
fcp-trial,76,552212,0.0-31.0-0.0,voc_e2,12402,"[{""event"":""fullscreenenter"",""trial"":1,""time"":1607}]",NA,NA,NA,NA,NA,4,#D89F1C,#3386FF,10,10,1,38,1,523,39,0,422.699999988079,10,0,experiment,NA,NA,1,0.7,0.3,2,3,23,1,NA
fcp-trial,77,556850,0.0-32.0-0.0,voc_e2,12402,"[{""event"":""fullscreenenter"",""trial"":1,""time"":1607}]",NA,NA,NA,NA,NA,0,#FA92F8,#1CD855,0,10,0,38,1,1598.5,39,0,1528.800000011921,10,1,experiment,NA,NA,0,0.1,0.9,1,0,24,1,NA
fcp-trial,78,563209,0.0-33.0-0.0,voc_e2,12402,"[{""event"":""fullscreenenter"",""trial"":1,""time"":1607}]",NA,NA,NA,NA,NA,0,#741CD8,#D8271C,0,10,0,38,1,562.5,39,0,4284.100000023842,10,1,experiment,NA,NA,2,0.5,0.5,5,4,25,1,NA
fcp-trial,79,566908,0.0-34.0-0.0,voc_e2,12402,"[{""event"":""fullscreenenter"",""trial"":1,""time"":1607}]",NA,NA,NA,NA,NA,1,#FA92F8,#1CD855,0,10,0,38,1,691.5999999940395,37,1,1491.300000011921,0,0,experiment,NA,NA,0,0.1,0.9,1,0,26,1,NA
fcp-trial,80,570325,0.0-35.0-0.0,voc_e2,12402,"[{""event"":""fullscreenenter"",""trial"":1,""time"":1607}]",NA,NA,NA,NA,NA,2,#3386FF,#D89F1C,0,10,0,38,1,464.59999999403954,37,1,1438.0999999940395,0,0,experiment,NA,NA,1,0.3,0.7,3,2,27,1,NA
fcp-trial,81,573271,0.0-36.0-0.0,voc_e2,12402,"[{""event"":""fullscreenenter"",""trial"":1,""time"":1607}]",NA,NA,NA,NA,NA,6,#741CD8,#D8271C,10,0,0,38,1,455.80000001192093,39,0,979.2000000178814,0,1,experiment,NA,NA,2,0.5,0.5,5,4,28,1,NA
fcp-trial,82,575826,0.0-37.0-0.0,voc_e2,12402,"[{""event"":""fullscreenenter"",""trial"":1,""time"":1607}]",NA,NA,NA,NA,NA,3,#D8271C,#741CD8,10,0,1,38,1,482.09999999403954,37,1,559.7999999821186,10,1,experiment,NA,NA,2,0.5,0.5,4,5,29,1,NA
fcp-trial,83,578522,0.0-38.0-0.0,voc_e2,12402,"[{""event"":""fullscreenenter"",""trial"":1,""time"":1607}]",NA,NA,NA,NA,NA,6,#FA92F8,#1CD855,0,10,0,38,1,454,37,1,722.4000000059605,0,0,experiment,NA,NA,0,0.1,0.9,1,0,30,1,NA
fcp-trial,84,582433,0.0-39.0-0.0,voc_e2,12402,"[{""event"":""fullscreenenter"",""trial"":1,""time"":1607}]",NA,NA,NA,NA,NA,5,#3386FF,#D89F1C,0,0,0,40,0,1491.9000000059605,39,0,901.399999976158,0,1,experiment,NA,NA,1,0.3,0.7,3,2,31,1,NA
fcp-trial,85,585591,0.0-40.0-0.0,voc_e2,12402,"[{""event"":""fullscreenenter"",""trial"":1,""time"":1607}]",NA,NA,NA,NA,NA,2,#FA92F8,#1CD855,0,10,0,38,1,457.19999998807907,39,0,1188,10,1,experiment,NA,NA,0,0.1,0.9,1,0,32,1,NA
fcp-trial,86,588156,0.0-41.0-0.0,voc_e2,12402,"[{""event"":""fullscreenenter"",""trial"":1,""time"":1607}]",NA,NA,NA,NA,NA,5,#741CD8,#D8271C,0,0,0,38,1,442.59999999403954,39,0,607.7000000178814,0,1,experiment,NA,NA,2,0.5,0.5,5,4,33,1,NA
fcp-trial,87,590939,0.0-42.0-0.0,voc_e2,12402,"[{""event"":""fullscreenenter"",""trial"":1,""time"":1607}]",NA,NA,NA,NA,NA,3,#D89F1C,#3386FF,0,0,1,38,1,529.3000000119209,39,0,735,0,0,experiment,NA,NA,1,0.7,0.3,2,3,34,1,NA
fcp-trial,88,593693,0.0-43.0-0.0,voc_e2,12402,"[{""event"":""fullscreenenter"",""trial"":1,""time"":1607}]",NA,NA,NA,NA,NA,4,#1CD855,#FA92F8,0,0,1,38,1,572.1000000238419,37,1,666.5999999940395,0,1,experiment,NA,NA,0,0.9,0.1,0,1,35,1,NA
fcp-trial,89,596250,0.0-44.0-0.0,voc_e2,12402,"[{""event"":""fullscreenenter"",""trial"":1,""time"":1607}]",NA,NA,NA,NA,NA,3,#FA92F8,#1CD855,0,0,0,38,1,461.7999999821186,37,1,588.1000000238419,0,0,experiment,NA,NA,0,0.1,0.9,1,0,36,1,NA
fcp-trial,90,598811,0.0-45.0-0.0,voc_e2,12402,"[{""event"":""fullscreenenter"",""trial"":1,""time"":1607}]",NA,NA,NA,NA,NA,4,#741CD8,#D8271C,0,10,0,38,1,492.59999999403954,37,1,558.4000000059605,0,0,experiment,NA,NA,2,0.5,0.5,5,4,37,1,NA
fcp-trial,91,601232,0.0-46.0-0.0,voc_e2,12402,"[{""event"":""fullscreenenter"",""trial"":1,""time"":1607}]",NA,NA,NA,NA,NA,1,#D8271C,#741CD8,10,10,1,38,1,429.09999999403954,37,1,473.300000011921,10,1,experiment,NA,NA,2,0.5,0.5,4,5,38,1,NA
fcp-trial,92,604517,0.0-47.0-0.0,voc_e2,12402,"[{""event"":""fullscreenenter"",""trial"":1,""time"":1607}]",NA,NA,NA,NA,NA,1,#3386FF,#D89F1C,10,10,0,38,1,555.4000000059605,39,0,1211.9000000059605,10,1,experiment,NA,NA,1,0.3,0.7,3,2,39,1,NA
fcp-trial,93,609159,0.0-48.0-0.0,voc_e2,12402,"[{""event"":""fullscreenenter"",""trial"":1,""time"":1607}]",NA,NA,NA,NA,NA,5,#FA92F8,#1CD855,0,10,0,38,1,977.0999999940395,37,1,2156.7000000178814,0,0,experiment,NA,NA,0,0.1,0.9,1,0,40,1,NA
fcp-trial,94,612111,0.0-49.0-0.0,voc_e2,12402,"[{""event"":""fullscreenenter"",""trial"":1,""time"":1607}]",NA,NA,NA,NA,NA,0,#D89F1C,#3386FF,10,0,1,38,1,515.1999999880791,37,1,923.2999999821186,10,1,experiment,NA,NA,1,0.7,0.3,2,3,41,1,NA
fcp-trial,95,614441,0.0-50.0-0.0,voc_e2,12402,"[{""event"":""fullscreenenter"",""trial"":1,""time"":1607}]",NA,NA,NA,NA,NA,6,#D89F1C,#3386FF,10,0,1,38,1,402.69999998807907,37,1,419.40000000596046,10,1,experiment,NA,NA,1,0.7,0.3,2,3,42,1,NA
fcp-trial,96,619033,0.0-51.0-0.0,voc_e2,12402,"[{""event"":""fullscreenenter"",""trial"":1,""time"":1607}]",NA,NA,NA,NA,NA,5,#741CD8,#D8271C,0,0,0,38,1,2723,39,0,353.90000000596046,0,1,experiment,NA,NA,2,0.5,0.5,5,4,43,1,NA
fcp-trial,97,621552,0.0-52.0-0.0,voc_e2,12402,"[{""event"":""fullscreenenter"",""trial"":1,""time"":1607}]",NA,NA,NA,NA,NA,2,#D89F1C,#3386FF,10,0,1,38,1,611.1999999880791,37,1,391.2000000178814,10,1,experiment,NA,NA,1,0.7,0.3,2,3,44,1,NA
fcp-trial,98,625113,0.0-53.0-0.0,voc_e2,12402,"[{""event"":""fullscreenenter"",""trial"":1,""time"":1607}]",NA,NA,NA,NA,NA,1,#FA92F8,#1CD855,0,10,0,38,1,562.4000000059605,37,1,1483.7999999821186,0,0,experiment,NA,NA,0,0.1,0.9,1,0,45,1,NA
fcp-trial,99,627500,0.0-54.0-0.0,voc_e2,12402,"[{""event"":""fullscreenenter"",""trial"":1,""time"":1607}]",NA,NA,NA,NA,NA,2,#1CD855,#FA92F8,10,0,1,38,1,408.19999998807907,37,1,469.5,10,1,experiment,NA,NA,0,0.9,0.1,0,1,46,2,NA
fcp-trial,100,630302,0.0-55.0-0.0,voc_e2,12402,"[{""event"":""fullscreenenter"",""trial"":1,""time"":1607}]",NA,NA,NA,NA,NA,6,#D8271C,#741CD8,10,10,1,38,1,463.30000001192093,37,1,827.9000000059605,10,1,experiment,NA,NA,2,0.5,0.5,4,5,47,2,NA
fcp-trial,101,632750,0.0-56.0-0.0,voc_e2,12402,"[{""event"":""fullscreenenter"",""trial"":1,""time"":1607}]",NA,NA,NA,NA,NA,4,#1CD855,#FA92F8,10,0,1,38,1,461.5,37,1,478.2000000178814,10,1,experiment,NA,NA,0,0.9,0.1,0,1,48,2,NA
fcp-trial,102,636971,0.0-57.0-0.0,voc_e2,12402,"[{""event"":""fullscreenenter"",""trial"":1,""time"":1607}]",NA,NA,NA,NA,NA,6,#3386FF,#D89F1C,0,10,0,38,1,2171.7999999821186,39,0,532.4000000059605,10,1,experiment,NA,NA,1,0.3,0.7,3,2,49,2,NA
fcp-trial,103,639230,0.0-58.0-0.0,voc_e2,12402,"[{""event"":""fullscreenenter"",""trial"":1,""time"":1607}]",NA,NA,NA,NA,NA,3,#D89F1C,#3386FF,10,0,1,38,1,490.19999998807907,37,1,257,10,1,experiment,NA,NA,1,0.7,0.3,2,3,50,2,NA
fcp-trial,104,641707,0.0-59.0-0.0,voc_e2,12402,"[{""event"":""fullscreenenter"",""trial"":1,""time"":1607}]",NA,NA,NA,NA,NA,1,#D89F1C,#3386FF,10,0,1,38,1,393.2000000178814,37,1,568.8000000119209,10,1,experiment,NA,NA,1,0.7,0.3,2,3,51,2,NA
fcp-trial,105,645396,0.0-60.0-0.0,voc_e2,12402,"[{""event"":""fullscreenenter"",""trial"":1,""time"":1607}]",NA,NA,NA,NA,NA,4,#D8271C,#741CD8,0,0,1,38,1,1404,37,1,764,0,1,experiment,NA,NA,2,0.5,0.5,4,5,52,2,NA
fcp-trial,106,649170,0.0-61.0-0.0,voc_e2,12402,"[{""event"":""fullscreenenter"",""trial"":1,""time"":1607}]",NA,NA,NA,NA,NA,5,#FA92F8,#1CD855,0,10,0,40,0,1157.5999999940395,37,1,1108.199999988079,0,0,experiment,NA,NA,0,0.1,0.9,1,0,53,2,NA
fcp-trial,107,653095,0.0-62.0-0.0,voc_e2,12402,"[{""event"":""fullscreenenter"",""trial"":1,""time"":1607}]",NA,NA,NA,NA,NA,2,#741CD8,#D8271C,0,0,0,38,1,594,37,1,1817.7000000178816,0,0,experiment,NA,NA,2,0.5,0.5,5,4,54,2,NA
fcp-trial,108,655890,0.0-63.0-0.0,voc_e2,12402,"[{""event"":""fullscreenenter"",""trial"":1,""time"":1607}]",NA,NA,NA,NA,NA,5,#D89F1C,#3386FF,0,0,1,38,1,468,37,1,814.9000000059605,0,1,experiment,NA,NA,1,0.7,0.3,2,3,55,2,NA
fcp-trial,109,658393,0.0-64.0-0.0,voc_e2,12402,"[{""event"":""fullscreenenter"",""trial"":1,""time"":1607}]",NA,NA,NA,NA,NA,4,#3386FF,#D89F1C,0,0,0,38,1,453.59999999403954,39,0,538.5999999940395,0,1,experiment,NA,NA,1,0.3,0.7,3,2,56,2,NA
fcp-trial,110,661003,0.0-65.0-0.0,voc_e2,12402,"[{""event"":""fullscreenenter"",""trial"":1,""time"":1607}]",NA,NA,NA,NA,NA,6,#1CD855,#FA92F8,10,0,1,38,1,390.39999997615814,37,1,706.7000000178814,10,1,experiment,NA,NA,0,0.9,0.1,0,1,57,2,NA
fcp-trial,111,664023,0.0-66.0-0.0,voc_e2,12402,"[{""event"":""fullscreenenter"",""trial"":1,""time"":1607}]",NA,NA,NA,NA,NA,0,#741CD8,#D8271C,0,0,0,38,1,487.7000000178814,39,0,1015.899999976158,0,1,experiment,NA,NA,2,0.5,0.5,5,4,58,2,NA
fcp-trial,112,666493,0.0-67.0-0.0,voc_e2,12402,"[{""event"":""fullscreenenter"",""trial"":1,""time"":1607}]",NA,NA,NA,NA,NA,0,#D89F1C,#3386FF,10,10,1,38,1,441.60000002384186,37,1,516.9000000059605,10,1,experiment,NA,NA,1,0.7,0.3,2,3,59,2,NA
fcp-trial,113,672150,0.0-68.0-0.0,voc_e2,12402,"[{""event"":""fullscreenenter"",""trial"":1,""time"":1607}]",NA,NA,NA,NA,NA,0,#1CD855,#FA92F8,10,0,1,38,1,1700.9000000059605,37,1,2443,10,1,experiment,NA,NA,0,0.9,0.1,0,1,60,2,NA
fcp-trial,114,675003,0.0-69.0-0.0,voc_e2,12402,"[{""event"":""fullscreenenter"",""trial"":1,""time"":1607}]",NA,NA,NA,NA,NA,3,#741CD8,#D8271C,0,0,0,38,1,584.0999999940395,39,0,753.0999999940395,0,1,experiment,NA,NA,2,0.5,0.5,5,4,61,2,NA
fcp-trial,115,677465,0.0-70.0-0.0,voc_e2,12402,"[{""event"":""fullscreenenter"",""trial"":1,""time"":1607}]",NA,NA,NA,NA,NA,3,#FA92F8,#1CD855,0,10,0,38,1,430.30000001192093,39,0,513.1999999880791,10,1,experiment,NA,NA,0,0.1,0.9,1,0,62,2,NA
fcp-trial,116,679952,0.0-71.0-0.0,voc_e2,12402,"[{""event"":""fullscreenenter"",""trial"":1,""time"":1607}]",NA,NA,NA,NA,NA,1,#D8271C,#741CD8,10,0,1,38,1,397,37,1,577.5,10,1,experiment,NA,NA,2,0.5,0.5,4,5,63,2,NA
fcp-trial,117,682402,0.0-72.0-0.0,voc_e2,12402,"[{""event"":""fullscreenenter"",""trial"":1,""time"":1607}]",NA,NA,NA,NA,NA,2,#FA92F8,#1CD855,0,10,0,38,1,433.40000000596046,39,0,502.90000000596046,10,1,experiment,NA,NA,0,0.1,0.9,1,0,64,2,NA
fcp-trial,118,684990,0.0-73.0-0.0,voc_e2,12402,"[{""event"":""fullscreenenter"",""trial"":1,""time"":1607}]",NA,NA,NA,NA,NA,2,#741CD8,#D8271C,10,10,0,38,1,559.2999999821186,39,0,518.7999999821186,10,1,experiment,NA,NA,2,0.5,0.5,5,4,65,2,NA
fcp-trial,119,687490,0.0-74.0-0.0,voc_e2,12402,"[{""event"":""fullscreenenter"",""trial"":1,""time"":1607}]",NA,NA,NA,NA,NA,4,#D89F1C,#3386FF,10,10,1,38,1,504.09999999403954,37,1,487.59999999403954,10,1,experiment,NA,NA,1,0.7,0.3,2,3,66,2,NA
fcp-trial,120,689881,0.0-75.0-0.0,voc_e2,12402,"[{""event"":""fullscreenenter"",""trial"":1,""time"":1607}]",NA,NA,NA,NA,NA,4,#FA92F8,#1CD855,0,10,0,38,1,393.59999999403954,39,0,486.800000011921,10,1,experiment,NA,NA,0,0.1,0.9,1,0,67,2,NA
fcp-trial,121,692362,0.0-76.0-0.0,voc_e2,12402,"[{""event"":""fullscreenenter"",""trial"":1,""time"":1607}]",NA,NA,NA,NA,NA,5,#D8271C,#741CD8,0,0,1,38,1,383.90000000596046,37,1,588.5,0,1,experiment,NA,NA,2,0.5,0.5,4,5,68,2,NA
fcp-trial,122,694850,0.0-77.0-0.0,voc_e2,12402,"[{""event"":""fullscreenenter"",""trial"":1,""time"":1607}]",NA,NA,NA,NA,NA,2,#3386FF,#D89F1C,0,10,0,38,1,442.10000002384186,39,0,537.0999999940395,10,1,experiment,NA,NA,1,0.3,0.7,3,2,69,2,NA
fcp-trial,123,697246,0.0-78.0-0.0,voc_e2,12402,"[{""event"":""fullscreenenter"",""trial"":1,""time"":1607}]",NA,NA,NA,NA,NA,1,#D89F1C,#3386FF,10,0,1,38,1,393.40000000596046,37,1,488.2999999821186,10,1,experiment,NA,NA,1,0.7,0.3,2,3,70,2,NA
fcp-trial,124,699522,0.0-79.0-0.0,voc_e2,12402,"[{""event"":""fullscreenenter"",""trial"":1,""time"":1607}]",NA,NA,NA,NA,NA,5,#3386FF,#D89F1C,10,10,0,38,1,325.40000000596046,39,0,439,10,1,experiment,NA,NA,1,0.3,0.7,3,2,71,2,NA
fcp-trial,125,703441,0.0-80.0-0.0,voc_e2,12402,"[{""event"":""fullscreenenter"",""trial"":1,""time"":1607}]",NA,NA,NA,NA,NA,1,#FA92F8,#1CD855,0,10,0,38,1,412.5,39,0,1992.4000000059605,10,1,experiment,NA,NA,0,0.1,0.9,1,0,72,2,NA
fcp-trial,126,706010,0.0-81.0-0.0,voc_e2,12402,"[{""event"":""fullscreenenter"",""trial"":1,""time"":1607}]",NA,NA,NA,NA,NA,1,#741CD8,#D8271C,10,0,0,38,1,443,39,0,617.8000000119209,0,1,experiment,NA,NA,2,0.5,0.5,5,4,73,2,NA
fcp-trial,127,708340,0.0-82.0-0.0,voc_e2,12402,"[{""event"":""fullscreenenter"",""trial"":1,""time"":1607}]",NA,NA,NA,NA,NA,0,#1CD855,#FA92F8,10,0,1,38,1,373.59999999403954,37,1,446.40000000596046,10,1,experiment,NA,NA,0,0.9,0.1,0,1,74,2,NA
fcp-trial,128,710713,0.0-83.0-0.0,voc_e2,12402,"[{""event"":""fullscreenenter"",""trial"":1,""time"":1607}]",NA,NA,NA,NA,NA,3,#741CD8,#D8271C,10,10,0,38,1,485.2999999821186,39,0,372.40000000596046,10,1,experiment,NA,NA,2,0.5,0.5,5,4,75,2,NA
fcp-trial,129,714583,0.0-84.0-0.0,voc_e2,12402,"[{""event"":""fullscreenenter"",""trial"":1,""time"":1607}]",NA,NA,NA,NA,NA,3,#D89F1C,#3386FF,10,0,1,38,1,472.80000001192093,37,1,1886.2999999821184,10,1,experiment,NA,NA,1,0.7,0.3,2,3,76,2,NA
fcp-trial,130,720280,0.0-85.0-0.0,voc_e2,12402,"[{""event"":""fullscreenenter"",""trial"":1,""time"":1607}]",NA,NA,NA,NA,NA,5,#1CD855,#FA92F8,10,0,1,38,1,541,39,0,3645.599999994039,0,0,experiment,NA,NA,0,0.9,0.1,0,1,77,2,NA
fcp-trial,131,722611,0.0-86.0-0.0,voc_e2,12402,"[{""event"":""fullscreenenter"",""trial"":1,""time"":1607}]",NA,NA,NA,NA,NA,4,#741CD8,#D8271C,10,10,0,38,1,363.59999999403954,39,0,455.09999999403954,10,1,experiment,NA,NA,2,0.5,0.5,5,4,78,2,NA
fcp-trial,132,726482,0.0-87.0-0.0,voc_e2,12402,"[{""event"":""fullscreenenter"",""trial"":1,""time"":1607}]",NA,NA,NA,NA,NA,6,#FA92F8,#1CD855,0,10,0,38,1,390.5,37,1,1968.2999999821184,0,0,experiment,NA,NA,0,0.1,0.9,1,0,79,2,NA
fcp-trial,133,728818,0.0-88.0-0.0,voc_e2,12402,"[{""event"":""fullscreenenter"",""trial"":1,""time"":1607}]",NA,NA,NA,NA,NA,0,#3386FF,#D89F1C,10,0,0,38,1,509.40000000596046,39,0,309.10000002384186,0,1,experiment,NA,NA,1,0.3,0.7,3,2,80,2,NA
fcp-trial,134,731261,0.0-89.0-0.0,voc_e2,12402,"[{""event"":""fullscreenenter"",""trial"":1,""time"":1607}]",NA,NA,NA,NA,NA,6,#3386FF,#D89F1C,0,0,0,38,1,353.7999999821186,39,0,574.7000000178814,0,1,experiment,NA,NA,1,0.3,0.7,3,2,81,2,NA
fcp-trial,135,733587,0.0-90.0-0.0,voc_e2,12402,"[{""event"":""fullscreenenter"",""trial"":1,""time"":1607}]",NA,NA,NA,NA,NA,3,#1CD855,#FA92F8,10,0,1,38,1,363.7000000178814,39,0,443.59999999403954,0,0,experiment,NA,NA,0,0.9,0.1,0,1,82,2,NA
fcp-trial,136,735964,0.0-91.0-0.0,voc_e2,12402,"[{""event"":""fullscreenenter"",""trial"":1,""time"":1607}]",NA,NA,NA,NA,NA,0,#D8271C,#741CD8,10,10,1,38,1,214.69999998807907,37,1,640.5999999940395,10,1,experiment,NA,NA,2,0.5,0.5,4,5,83,2,NA
fcp-trial,137,738393,0.0-92.0-0.0,voc_e2,12402,"[{""event"":""fullscreenenter"",""trial"":1,""time"":1607}]",NA,NA,NA,NA,NA,6,#D8271C,#741CD8,10,10,1,38,1,410.30000001192093,37,1,504.7999999821186,10,1,experiment,NA,NA,2,0.5,0.5,4,5,84,2,NA
fcp-trial,138,745146,0.0-93.0-0.0,voc_e2,12402,"[{""event"":""fullscreenenter"",""trial"":1,""time"":1607}]",NA,NA,NA,NA,NA,3,#FA92F8,#1CD855,0,10,0,38,1,462.90000000596046,39,0,4777,10,1,experiment,NA,NA,0,0.1,0.9,1,0,85,2,NA
fcp-trial,139,747733,0.0-94.0-0.0,voc_e2,12402,"[{""event"":""fullscreenenter"",""trial"":1,""time"":1607}]",NA,NA,NA,NA,NA,6,#D8271C,#741CD8,10,10,1,38,1,514.3000000119209,37,1,556.4000000059605,10,1,experiment,NA,NA,2,0.5,0.5,4,5,86,2,NA
fcp-trial,140,750166,0.0-95.0-0.0,voc_e2,12402,"[{""event"":""fullscreenenter"",""trial"":1,""time"":1607}]",NA,NA,NA,NA,NA,6,#FA92F8,#1CD855,0,10,0,38,1,412.40000000596046,39,0,508.5,10,1,experiment,NA,NA,0,0.1,0.9,1,0,87,2,NA
fcp-trial,141,752602,0.0-96.0-0.0,voc_e2,12402,"[{""event"":""fullscreenenter"",""trial"":1,""time"":1607}]",NA,NA,NA,NA,NA,0,#D89F1C,#3386FF,10,0,1,38,1,417,37,1,508.59999999403954,10,1,experiment,NA,NA,1,0.7,0.3,2,3,88,2,NA
fcp-trial,142,756522,0.0-97.0-0.0,voc_e2,12402,"[{""event"":""fullscreenenter"",""trial"":1,""time"":1607}]",NA,NA,NA,NA,NA,5,#1CD855,#FA92F8,10,0,1,38,1,1403.199999988079,37,1,1002.5999999940396,10,1,experiment,NA,NA,0,0.9,0.1,0,1,89,2,NA
fcp-trial,143,758957,0.0-98.0-0.0,voc_e2,12402,"[{""event"":""fullscreenenter"",""trial"":1,""time"":1607}]",NA,NA,NA,NA,NA,5,#D89F1C,#3386FF,10,0,1,38,1,432.7999999821186,37,1,481.39999997615814,10,1,experiment,NA,NA,1,0.7,0.3,2,3,90,2,NA
fcp-trial,144,762709,0.0-99.0-0.0,voc_e2,12402,"[{""event"":""fullscreenenter"",""trial"":1,""time"":1607}]",NA,NA,NA,NA,NA,1,#D8271C,#741CD8,10,0,1,38,1,1487.699999988079,37,1,744.2999999821186,10,1,experiment,NA,NA,2,0.5,0.5,4,5,91,3,NA
fcp-trial,145,765505,0.0-100.0-0.0,voc_e2,12402,"[{""event"":""fullscreenenter"",""trial"":1,""time"":1607}]",NA,NA,NA,NA,NA,4,#D89F1C,#3386FF,10,0,1,38,1,774.6000000238419,37,1,508.40000000596046,10,1,experiment,NA,NA,1,0.7,0.3,2,3,92,3,NA
fcp-trial,146,767945,0.0-101.0-0.0,voc_e2,12402,"[{""event"":""fullscreenenter"",""trial"":1,""time"":1607}]",NA,NA,NA,NA,NA,4,#741CD8,#D8271C,10,0,0,38,1,402.30000001192093,39,0,527.7000000178814,0,1,experiment,NA,NA,2,0.5,0.5,5,4,93,3,NA
fcp-trial,147,770282,0.0-102.0-0.0,voc_e2,12402,"[{""event"":""fullscreenenter"",""trial"":1,""time"":1607}]",NA,NA,NA,NA,NA,2,#1CD855,#FA92F8,10,0,1,38,1,347.90000000596046,37,1,478.09999999403954,10,1,experiment,NA,NA,0,0.9,0.1,0,1,94,3,NA
fcp-trial,148,772824,0.0-103.0-0.0,voc_e2,12402,"[{""event"":""fullscreenenter"",""trial"":1,""time"":1607}]",NA,NA,NA,NA,NA,5,#741CD8,#D8271C,0,10,0,38,1,413.30000001192093,39,0,616.1999999880791,10,1,experiment,NA,NA,2,0.5,0.5,5,4,95,3,NA
fcp-trial,149,775215,0.0-104.0-0.0,voc_e2,12402,"[{""event"":""fullscreenenter"",""trial"":1,""time"":1607}]",NA,NA,NA,NA,NA,2,#D8271C,#741CD8,10,10,1,38,1,362.09999999403954,37,1,512.4000000059605,10,1,experiment,NA,NA,2,0.5,0.5,4,5,96,3,NA
fcp-trial,150,777685,0.0-105.0-0.0,voc_e2,12402,"[{""event"":""fullscreenenter"",""trial"":1,""time"":1607}]",NA,NA,NA,NA,NA,3,#D89F1C,#3386FF,10,0,1,38,1,447.69999998807907,37,1,508.2000000178814,10,1,experiment,NA,NA,1,0.7,0.3,2,3,97,3,NA
fcp-trial,151,780005,0.0-106.0-0.0,voc_e2,12402,"[{""event"":""fullscreenenter"",""trial"":1,""time"":1607}]",NA,NA,NA,NA,NA,1,#D89F1C,#3386FF,10,0,1,38,1,307.40000000596046,37,1,498.800000011921,10,1,experiment,NA,NA,1,0.7,0.3,2,3,98,3,NA
fcp-trial,152,783592,0.0-107.0-0.0,voc_e2,12402,"[{""event"":""fullscreenenter"",""trial"":1,""time"":1607}]",NA,NA,NA,NA,NA,1,#1CD855,#FA92F8,10,0,1,38,1,540.3000000119209,37,1,1537.399999976158,10,1,experiment,NA,NA,0,0.9,0.1,0,1,99,3,NA
fcp-trial,153,785983,0.0-108.0-0.0,voc_e2,12402,"[{""event"":""fullscreenenter"",""trial"":1,""time"":1607}]",NA,NA,NA,NA,NA,3,#741CD8,#D8271C,10,0,0,38,1,433.69999998807907,39,0,441.90000000596046,0,1,experiment,NA,NA,2,0.5,0.5,5,4,100,3,NA
fcp-trial,154,788876,0.0-109.0-0.0,voc_e2,12402,"[{""event"":""fullscreenenter"",""trial"":1,""time"":1607}]",NA,NA,NA,NA,NA,0,#1CD855,#FA92F8,10,0,1,38,1,983.3999999761581,37,1,395.90000000596046,10,1,experiment,NA,NA,0,0.9,0.1,0,1,101,3,NA
fcp-trial,155,791214,0.0-110.0-0.0,voc_e2,12402,"[{""event"":""fullscreenenter"",""trial"":1,""time"":1607}]",NA,NA,NA,NA,NA,4,#1CD855,#FA92F8,10,0,1,38,1,379,37,1,444.300000011921,10,1,experiment,NA,NA,0,0.9,0.1,0,1,102,3,NA
fcp-trial,156,794805,0.0-111.0-0.0,voc_e2,12402,"[{""event"":""fullscreenenter"",""trial"":1,""time"":1607}]",NA,NA,NA,NA,NA,6,#3386FF,#D89F1C,10,10,0,40,0,1352.5999999940395,37,1,722,10,0,experiment,NA,NA,1,0.3,0.7,3,2,103,3,NA
fcp-trial,157,798549,0.0-112.0-0.0,voc_e2,12402,"[{""event"":""fullscreenenter"",""trial"":1,""time"":1607}]",NA,NA,NA,NA,NA,0,#D8271C,#741CD8,10,0,1,38,1,1568.699999988079,37,1,658.9000000059605,10,1,experiment,NA,NA,2,0.5,0.5,4,5,104,3,NA
fcp-trial,158,801128,0.0-113.0-0.0,voc_e2,12402,"[{""event"":""fullscreenenter"",""trial"":1,""time"":1607}]",NA,NA,NA,NA,NA,2,#D89F1C,#3386FF,10,0,1,38,1,554.2999999821186,37,1,504.800000011921,10,1,experiment,NA,NA,1,0.7,0.3,2,3,105,3,NA
audio-instructions,159,860426,0.0-114.0,voc_e2,12402,"[{""event"":""fullscreenenter"",""trial"":1,""time"":1607}]",NA,54359.09999999404,static/audio/pause.wav,NA,0,NA,NA,NA,NA,NA,NA,NA,NA,NA,NA,NA,NA,NA,NA,NA,NA,NA,NA,NA,NA,NA,NA,NA,NA,NA
fcp-trial,160,864580,0.0-115.0-0.0,voc_e2,12402,"[{""event"":""fullscreenenter"",""trial"":1,""time"":1607}]",NA,NA,NA,NA,NA,6,#D89F1C,#3386FF,10,0,1,38,1,2049.7000000178814,37,1,584,10,1,experiment,NA,NA,1,0.7,0.3,2,3,106,3,NA
fcp-trial,161,866968,0.0-116.0-0.0,voc_e2,12402,"[{""event"":""fullscreenenter"",""trial"":1,""time"":1607}]",NA,NA,NA,NA,NA,3,#741CD8,#D8271C,0,0,0,38,1,439.40000000596046,39,0,436.40000000596046,0,1,experiment,NA,NA,2,0.5,0.5,5,4,107,3,NA
fcp-trial,162,869400,0.0-117.0-0.0,voc_e2,12402,"[{""event"":""fullscreenenter"",""trial"":1,""time"":1607}]",NA,NA,NA,NA,NA,2,#D89F1C,#3386FF,10,0,1,38,1,454.5,37,1,468,10,1,experiment,NA,NA,1,0.7,0.3,2,3,108,3,NA
fcp-trial,163,872661,0.0-118.0-0.0,voc_e2,12402,"[{""event"":""fullscreenenter"",""trial"":1,""time"":1607}]",NA,NA,NA,NA,NA,5,#FA92F8,#1CD855,0,10,0,40,0,1019.8000000119209,37,1,722.3000000119209,0,0,experiment,NA,NA,0,0.1,0.9,1,0,109,3,NA
fcp-trial,164,875054,0.0-119.0-0.0,voc_e2,12402,"[{""event"":""fullscreenenter"",""trial"":1,""time"":1607}]",NA,NA,NA,NA,NA,2,#741CD8,#D8271C,10,0,0,38,1,381.80000001192093,39,0,495.59999999403954,0,1,experiment,NA,NA,2,0.5,0.5,5,4,110,3,NA
fcp-trial,165,878040,0.0-120.0-0.0,voc_e2,12402,"[{""event"":""fullscreenenter"",""trial"":1,""time"":1607}]",NA,NA,NA,NA,NA,0,#FA92F8,#1CD855,0,10,0,38,1,715.4000000059605,37,1,757.5999999940395,0,0,experiment,NA,NA,0,0.1,0.9,1,0,111,3,NA
fcp-trial,166,880391,0.0-121.0-0.0,voc_e2,12402,"[{""event"":""fullscreenenter"",""trial"":1,""time"":1607}]",NA,NA,NA,NA,NA,5,#D89F1C,#3386FF,0,0,1,38,1,379.80000001192093,37,1,456.5,0,1,experiment,NA,NA,1,0.7,0.3,2,3,112,3,NA
fcp-trial,167,883143,0.0-122.0-0.0,voc_e2,12402,"[{""event"":""fullscreenenter"",""trial"":1,""time"":1607}]",NA,NA,NA,NA,NA,1,#1CD855,#FA92F8,10,0,1,38,1,769.7000000178814,37,1,463.89999997615814,10,1,experiment,NA,NA,0,0.9,0.1,0,1,113,3,NA
fcp-trial,168,885868,0.0-123.0-0.0,voc_e2,12402,"[{""event"":""fullscreenenter"",""trial"":1,""time"":1607}]",NA,NA,NA,NA,NA,1,#3386FF,#D89F1C,0,0,0,38,1,678.5,37,1,536.5,0,0,experiment,NA,NA,1,0.3,0.7,3,2,114,3,NA
fcp-trial,169,888238,0.0-124.0-0.0,voc_e2,12402,"[{""event"":""fullscreenenter"",""trial"":1,""time"":1607}]",NA,NA,NA,NA,NA,1,#741CD8,#D8271C,10,10,0,38,1,434.90000000596046,39,0,424.7000000178814,10,1,experiment,NA,NA,2,0.5,0.5,5,4,115,3,NA
fcp-trial,170,890580,0.0-125.0-0.0,voc_e2,12402,"[{""event"":""fullscreenenter"",""trial"":1,""time"":1607}]",NA,NA,NA,NA,NA,4,#D8271C,#741CD8,10,0,1,38,1,394.90000000596046,37,1,430.90000000596046,10,1,experiment,NA,NA,2,0.5,0.5,4,5,116,3,NA
fcp-trial,171,892909,0.0-126.0-0.0,voc_e2,12402,"[{""event"":""fullscreenenter"",""trial"":1,""time"":1607}]",NA,NA,NA,NA,NA,4,#FA92F8,#1CD855,0,10,0,38,1,368.80000001192093,39,0,444.59999999403954,10,1,experiment,NA,NA,0,0.1,0.9,1,0,117,3,NA
fcp-trial,172,895151,0.0-127.0-0.0,voc_e2,12402,"[{""event"":""fullscreenenter"",""trial"":1,""time"":1607}]",NA,NA,NA,NA,NA,5,#D8271C,#741CD8,0,10,1,38,1,264.09999999403954,37,1,464.5,0,1,experiment,NA,NA,2,0.5,0.5,4,5,118,3,NA
fcp-trial,173,898262,0.0-128.0-0.0,voc_e2,12402,"[{""event"":""fullscreenenter"",""trial"":1,""time"":1607}]",NA,NA,NA,NA,NA,3,#D89F1C,#3386FF,10,10,1,38,1,399.19999998807907,39,0,1197.4000000059605,10,0,experiment,NA,NA,1,0.7,0.3,2,3,119,3,NA
fcp-trial,174,900662,0.0-129.0-0.0,voc_e2,12402,"[{""event"":""fullscreenenter"",""trial"":1,""time"":1607}]",NA,NA,NA,NA,NA,6,#D8271C,#741CD8,0,10,1,38,1,372.10000002384186,37,1,517.6999999880791,0,1,experiment,NA,NA,2,0.5,0.5,4,5,120,3,NA
fcp-trial,175,903007,0.0-130.0-0.0,voc_e2,12402,"[{""event"":""fullscreenenter"",""trial"":1,""time"":1607}]",NA,NA,NA,NA,NA,2,#FA92F8,#1CD855,0,10,0,38,1,400.5,39,0,427.800000011921,10,1,experiment,NA,NA,0,0.1,0.9,1,0,121,3,NA
fcp-trial,176,905210,0.0-131.0-0.0,voc_e2,12402,"[{""event"":""fullscreenenter"",""trial"":1,""time"":1607}]",NA,NA,NA,NA,NA,4,#3386FF,#D89F1C,0,10,0,38,1,232.59999999403954,37,1,454.2999999821186,0,0,experiment,NA,NA,1,0.3,0.7,3,2,122,3,NA
fcp-trial,177,908110,0.0-132.0-0.0,voc_e2,12402,"[{""event"":""fullscreenenter"",""trial"":1,""time"":1607}]",NA,NA,NA,NA,NA,0,#741CD8,#D8271C,10,10,0,38,1,353.59999999403954,39,0,1032.100000023842,10,1,experiment,NA,NA,2,0.5,0.5,5,4,123,3,NA
fcp-trial,178,911229,0.0-133.0-0.0,voc_e2,12402,"[{""event"":""fullscreenenter"",""trial"":1,""time"":1607}]",NA,NA,NA,NA,NA,6,#FA92F8,#1CD855,0,10,0,38,1,411.69999998807907,39,0,1197.7000000178814,10,1,experiment,NA,NA,0,0.1,0.9,1,0,124,3,NA
fcp-trial,179,913550,0.0-134.0-0.0,voc_e2,12402,"[{""event"":""fullscreenenter"",""trial"":1,""time"":1607}]",NA,NA,NA,NA,NA,0,#D89F1C,#3386FF,10,0,1,38,1,312.40000000596046,37,1,494.90000000596046,10,1,experiment,NA,NA,1,0.7,0.3,2,3,125,3,NA
fcp-trial,180,917359,0.0-135.0-0.0,voc_e2,12402,"[{""event"":""fullscreenenter"",""trial"":1,""time"":1607}]",NA,NA,NA,NA,NA,3,#1CD855,#FA92F8,0,0,1,40,0,1773.199999988079,39,0,527,0,0,experiment,NA,NA,0,0.9,0.1,0,1,126,3,NA
fcp-trial,181,920388,0.0-136.0-0.0,voc_e2,12402,"[{""event"":""fullscreenenter"",""trial"":1,""time"":1607}]",NA,NA,NA,NA,NA,3,#741CD8,#D8271C,0,0,0,38,1,673.8000000119209,39,0,849.3999999761581,0,1,experiment,NA,NA,2,0.5,0.5,5,4,127,3,NA
fcp-trial,182,922622,0.0-137.0-0.0,voc_e2,12402,"[{""event"":""fullscreenenter"",""trial"":1,""time"":1607}]",NA,NA,NA,NA,NA,2,#741CD8,#D8271C,10,10,0,38,1,324.5,39,0,398.40000000596046,10,1,experiment,NA,NA,2,0.5,0.5,5,4,128,3,NA
fcp-trial,183,925113,0.0-138.0-0.0,voc_e2,12402,"[{""event"":""fullscreenenter"",""trial"":1,""time"":1607}]",NA,NA,NA,NA,NA,4,#FA92F8,#1CD855,0,0,0,38,1,441.09999999403954,39,0,533.7999999821186,0,1,experiment,NA,NA,0,0.1,0.9,1,0,129,3,NA
fcp-trial,184,927535,0.0-139.0-0.0,voc_e2,12402,"[{""event"":""fullscreenenter"",""trial"":1,""time"":1607}]",NA,NA,NA,NA,NA,3,#3386FF,#D89F1C,0,10,0,38,1,449.69999998807907,39,0,458,10,1,experiment,NA,NA,1,0.3,0.7,3,2,130,3,NA
fcp-trial,185,930223,0.0-140.0-0.0,voc_e2,12402,"[{""event"":""fullscreenenter"",""trial"":1,""time"":1607}]",NA,NA,NA,NA,NA,0,#741CD8,#D8271C,0,10,0,38,1,379.5,39,0,795.0999999940395,10,1,experiment,NA,NA,2,0.5,0.5,5,4,131,3,NA
fcp-trial,186,932543,0.0-141.0-0.0,voc_e2,12402,"[{""event"":""fullscreenenter"",""trial"":1,""time"":1607}]",NA,NA,NA,NA,NA,5,#3386FF,#D89F1C,10,10,0,38,1,415.59999999403954,39,0,387.40000000596046,10,1,experiment,NA,NA,1,0.3,0.7,3,2,132,3,NA
fcp-trial,187,934980,0.0-142.0-0.0,voc_e2,12402,"[{""event"":""fullscreenenter"",""trial"":1,""time"":1607}]",NA,NA,NA,NA,NA,2,#D89F1C,#3386FF,0,10,1,38,1,456,37,1,468.800000011921,0,1,experiment,NA,NA,1,0.7,0.3,2,3,133,3,NA
fcp-trial,188,937380,0.0-143.0-0.0,voc_e2,12402,"[{""event"":""fullscreenenter"",""trial"":1,""time"":1607}]",NA,NA,NA,NA,NA,6,#1CD855,#FA92F8,10,0,1,38,1,395,39,0,484.300000011921,0,0,experiment,NA,NA,0,0.9,0.1,0,1,134,3,NA
fcp-trial,189,939882,0.0-144.0-0.0,voc_e2,12402,"[{""event"":""fullscreenenter"",""trial"":1,""time"":1607}]",NA,NA,NA,NA,NA,5,#D8271C,#741CD8,10,0,1,38,1,251.09999999403954,37,1,731.4000000059605,10,1,experiment,NA,NA,2,0.5,0.5,4,5,135,3,NA
fcp-trial,190,942192,0.0-145.0-0.0,voc_e2,12402,"[{""event"":""fullscreenenter"",""trial"":1,""time"":1607}]",NA,NA,NA,NA,NA,5,#1CD855,#FA92F8,10,0,1,38,1,296.90000000596046,37,1,497.2999999821186,10,1,experiment,NA,NA,0,0.9,0.1,0,1,136,4,NA
fcp-trial,191,944441,0.0-146.0-0.0,voc_e2,12402,"[{""event"":""fullscreenenter"",""trial"":1,""time"":1607}]",NA,NA,NA,NA,NA,3,#FA92F8,#1CD855,0,10,0,38,1,350.89999997615814,39,0,388.40000000596046,10,1,experiment,NA,NA,0,0.1,0.9,1,0,137,4,NA
fcp-trial,192,947873,0.0-147.0-0.0,voc_e2,12402,"[{""event"":""fullscreenenter"",""trial"":1,""time"":1607}]",NA,NA,NA,NA,NA,0,#3386FF,#D89F1C,10,10,0,38,1,1252.7999999821186,39,0,665,10,1,experiment,NA,NA,1,0.3,0.7,3,2,138,4,NA
fcp-trial,193,950323,0.0-148.0-0.0,voc_e2,12402,"[{""event"":""fullscreenenter"",""trial"":1,""time"":1607}]",NA,NA,NA,NA,NA,6,#D89F1C,#3386FF,0,10,1,38,1,400.5,39,0,539.1999999880791,10,0,experiment,NA,NA,1,0.7,0.3,2,3,139,4,NA
fcp-trial,194,952835,0.0-149.0-0.0,voc_e2,12402,"[{""event"":""fullscreenenter"",""trial"":1,""time"":1607}]",NA,NA,NA,NA,NA,4,#741CD8,#D8271C,0,10,0,38,1,528.8999999761581,39,0,463.5,10,1,experiment,NA,NA,2,0.5,0.5,5,4,140,4,NA
fcp-trial,195,955393,0.0-150.0-0.0,voc_e2,12402,"[{""event"":""fullscreenenter"",""trial"":1,""time"":1607}]",NA,NA,NA,NA,NA,2,#1CD855,#FA92F8,10,0,1,38,1,470.09999999403954,37,1,577.7000000178814,10,1,experiment,NA,NA,0,0.9,0.1,0,1,141,4,NA
fcp-trial,196,957811,0.0-151.0-0.0,voc_e2,12402,"[{""event"":""fullscreenenter"",""trial"":1,""time"":1607}]",NA,NA,NA,NA,NA,1,#D8271C,#741CD8,0,0,1,38,1,378.40000000596046,37,1,528.1999999880791,0,1,experiment,NA,NA,2,0.5,0.5,4,5,142,4,NA
fcp-trial,197,960149,0.0-152.0-0.0,voc_e2,12402,"[{""event"":""fullscreenenter"",""trial"":1,""time"":1607}]",NA,NA,NA,NA,NA,0,#FA92F8,#1CD855,0,10,0,38,1,379.09999999403954,39,0,446.2000000178814,10,1,experiment,NA,NA,0,0.1,0.9,1,0,143,4,NA
fcp-trial,198,963330,0.0-153.0-0.0,voc_e2,12402,"[{""event"":""fullscreenenter"",""trial"":1,""time"":1607}]",NA,NA,NA,NA,NA,4,#D89F1C,#3386FF,10,0,1,38,1,314.59999999403954,37,1,1357.2000000178814,10,1,experiment,NA,NA,1,0.7,0.3,2,3,144,4,NA
fcp-trial,199,965616,0.0-154.0-0.0,voc_e2,12402,"[{""event"":""fullscreenenter"",""trial"":1,""time"":1607}]",NA,NA,NA,NA,NA,1,#D89F1C,#3386FF,0,0,1,38,1,341.09999999403954,37,1,428,0,1,experiment,NA,NA,1,0.7,0.3,2,3,145,4,NA
fcp-trial,200,968170,0.0-155.0-0.0,voc_e2,12402,"[{""event"":""fullscreenenter"",""trial"":1,""time"":1607}]",NA,NA,NA,NA,NA,6,#D8271C,#741CD8,0,0,1,38,1,443.5,37,1,595.9000000059605,0,1,experiment,NA,NA,2,0.5,0.5,4,5,146,4,NA
fcp-trial,201,970562,0.0-156.0-0.0,voc_e2,12402,"[{""event"":""fullscreenenter"",""trial"":1,""time"":1607}]",NA,NA,NA,NA,NA,1,#FA92F8,#1CD855,0,10,0,38,1,453.19999998807907,39,0,425.10000002384186,10,1,experiment,NA,NA,0,0.1,0.9,1,0,147,4,NA
fcp-trial,202,972707,0.0-157.0-0.0,voc_e2,12402,"[{""event"":""fullscreenenter"",""trial"":1,""time"":1607}]",NA,NA,NA,NA,NA,4,#D89F1C,#3386FF,10,10,1,38,1,201.5,37,1,429.40000000596046,10,1,experiment,NA,NA,1,0.7,0.3,2,3,148,4,NA
fcp-trial,203,975264,0.0-158.0-0.0,voc_e2,12402,"[{""event"":""fullscreenenter"",""trial"":1,""time"":1607}]",NA,NA,NA,NA,NA,3,#3386FF,#D89F1C,0,0,0,38,1,616.3999999761581,39,0,429.5,0,1,experiment,NA,NA,1,0.3,0.7,3,2,149,4,NA
fcp-trial,204,978692,0.0-159.0-0.0,voc_e2,12402,"[{""event"":""fullscreenenter"",""trial"":1,""time"":1607}]",NA,NA,NA,NA,NA,4,#1CD855,#FA92F8,10,0,1,40,0,1349.5999999940395,39,0,566.5,0,0,experiment,NA,NA,0,0.9,0.1,0,1,150,4,NA
fcp-trial,205,981229,0.0-160.0-0.0,voc_e2,12402,"[{""event"":""fullscreenenter"",""trial"":1,""time"":1607}]",NA,NA,NA,NA,NA,1,#741CD8,#D8271C,10,10,0,38,1,339.2999999821186,39,0,687,10,1,experiment,NA,NA,2,0.5,0.5,5,4,151,4,NA
fcp-trial,206,984213,0.0-161.0-0.0,voc_e2,12402,"[{""event"":""fullscreenenter"",""trial"":1,""time"":1607}]",NA,NA,NA,NA,NA,6,#1CD855,#FA92F8,10,0,1,38,1,273.90000000596046,37,1,1197.5999999940395,10,1,experiment,NA,NA,0,0.9,0.1,0,1,152,4,NA
fcp-trial,207,987014,0.0-162.0-0.0,voc_e2,12402,"[{""event"":""fullscreenenter"",""trial"":1,""time"":1607}]",NA,NA,NA,NA,NA,3,#741CD8,#D8271C,0,10,0,38,1,926.1999999880791,39,0,358.69999998807907,10,1,experiment,NA,NA,2,0.5,0.5,5,4,153,4,NA
fcp-trial,208,989291,0.0-163.0-0.0,voc_e2,12402,"[{""event"":""fullscreenenter"",""trial"":1,""time"":1607}]",NA,NA,NA,NA,NA,1,#D89F1C,#3386FF,10,0,1,38,1,395.90000000596046,39,0,369,0,0,experiment,NA,NA,1,0.7,0.3,2,3,154,4,NA
fcp-trial,209,991451,0.0-164.0-0.0,voc_e2,12402,"[{""event"":""fullscreenenter"",""trial"":1,""time"":1607}]",NA,NA,NA,NA,NA,5,#3386FF,#D89F1C,0,10,0,38,1,302.40000000596046,39,0,348.80000001192093,10,1,experiment,NA,NA,1,0.3,0.7,3,2,155,4,NA
fcp-trial,210,995238,0.0-165.0-0.0,voc_e2,12402,"[{""event"":""fullscreenenter"",""trial"":1,""time"":1607}]",NA,NA,NA,NA,NA,0,#1CD855,#FA92F8,10,0,1,38,1,968,37,1,1305.7999999821186,10,1,experiment,NA,NA,0,0.9,0.1,0,1,156,4,NA
fcp-trial,211,997805,0.0-166.0-0.0,voc_e2,12402,"[{""event"":""fullscreenenter"",""trial"":1,""time"":1607}]",NA,NA,NA,NA,NA,0,#741CD8,#D8271C,10,0,0,38,1,224.69999998807907,39,0,827.7000000178814,0,1,experiment,NA,NA,2,0.5,0.5,5,4,157,4,NA
fcp-trial,212,1000165,0.0-167.0-0.0,voc_e2,12402,"[{""event"":""fullscreenenter"",""trial"":1,""time"":1607}]",NA,NA,NA,NA,NA,1,#FA92F8,#1CD855,0,10,0,38,1,327.5,39,0,517.5999999940395,10,1,experiment,NA,NA,0,0.1,0.9,1,0,158,4,NA
fcp-trial,213,1002649,0.0-168.0-0.0,voc_e2,12402,"[{""event"":""fullscreenenter"",""trial"":1,""time"":1607}]",NA,NA,NA,NA,NA,6,#D89F1C,#3386FF,10,0,1,38,1,278.09999999403954,37,1,691.9000000059605,10,1,experiment,NA,NA,1,0.7,0.3,2,3,159,4,NA
fcp-trial,214,1005127,0.0-169.0-0.0,voc_e2,12402,"[{""event"":""fullscreenenter"",""trial"":1,""time"":1607}]",NA,NA,NA,NA,NA,2,#FA92F8,#1CD855,0,10,0,38,1,193.2999999821186,39,0,768.3999999761581,10,1,experiment,NA,NA,0,0.1,0.9,1,0,160,4,NA
fcp-trial,215,1007470,0.0-170.0-0.0,voc_e2,12402,"[{""event"":""fullscreenenter"",""trial"":1,""time"":1607}]",NA,NA,NA,NA,NA,2,#741CD8,#D8271C,10,0,0,38,1,384.40000000596046,39,0,442.59999999403954,0,1,experiment,NA,NA,2,0.5,0.5,5,4,161,4,NA
fcp-trial,216,1009743,0.0-171.0-0.0,voc_e2,12402,"[{""event"":""fullscreenenter"",""trial"":1,""time"":1607}]",NA,NA,NA,NA,NA,5,#FA92F8,#1CD855,0,10,0,38,1,303.30000001192093,39,0,459.2000000178814,10,1,experiment,NA,NA,0,0.1,0.9,1,0,162,4,NA
fcp-trial,217,1011984,0.0-172.0-0.0,voc_e2,12402,"[{""event"":""fullscreenenter"",""trial"":1,""time"":1607}]",NA,NA,NA,NA,NA,2,#3386FF,#D89F1C,10,10,0,38,1,309.69999998807907,39,0,418.300000011921,10,1,experiment,NA,NA,1,0.3,0.7,3,2,163,4,NA
fcp-trial,218,1014385,0.0-173.0-0.0,voc_e2,12402,"[{""event"":""fullscreenenter"",""trial"":1,""time"":1607}]",NA,NA,NA,NA,NA,3,#FA92F8,#1CD855,10,10,0,38,1,275.40000000596046,39,0,605.0999999940395,10,1,experiment,NA,NA,0,0.1,0.9,1,0,164,4,NA
fcp-trial,219,1016820,0.0-174.0-0.0,voc_e2,12402,"[{""event"":""fullscreenenter"",""trial"":1,""time"":1607}]",NA,NA,NA,NA,NA,4,#D8271C,#741CD8,0,0,1,38,1,438.19999998807907,37,1,486.59999999403954,0,1,experiment,NA,NA,2,0.5,0.5,4,5,165,4,NA
fcp-trial,220,1020154,0.0-175.0-0.0,voc_e2,12402,"[{""event"":""fullscreenenter"",""trial"":1,""time"":1607}]",NA,NA,NA,NA,NA,5,#D8271C,#741CD8,10,10,1,40,0,1092.5,39,0,730.0999999940395,10,0,experiment,NA,NA,2,0.5,0.5,4,5,166,4,NA
fcp-trial,221,1023431,0.0-176.0-0.0,voc_e2,12402,"[{""event"":""fullscreenenter"",""trial"":1,""time"":1607}]",NA,NA,NA,NA,NA,6,#741CD8,#D8271C,10,0,0,38,1,1386,39,0,373.09999999403954,0,1,experiment,NA,NA,2,0.5,0.5,5,4,167,4,NA
fcp-trial,222,1026900,0.0-177.0-0.0,voc_e2,12402,"[{""event"":""fullscreenenter"",""trial"":1,""time"":1607}]",NA,NA,NA,NA,NA,0,#D89F1C,#3386FF,10,0,1,38,1,1362.5999999940395,37,1,599.2000000178814,10,1,experiment,NA,NA,1,0.7,0.3,2,3,168,4,NA
fcp-trial,223,1030329,0.0-178.0-0.0,voc_e2,12402,"[{""event"":""fullscreenenter"",""trial"":1,""time"":1607}]",NA,NA,NA,NA,NA,5,#FA92F8,#1CD855,0,10,0,40,0,1413,39,0,503,10,1,experiment,NA,NA,0,0.1,0.9,1,0,169,4,NA
fcp-trial,224,1033997,0.0-179.0-0.0,voc_e2,12402,"[{""event"":""fullscreenenter"",""trial"":1,""time"":1607}]",NA,NA,NA,NA,NA,6,#3386FF,#D89F1C,10,10,0,38,1,681.6000000238419,39,0,1463.600000023842,10,1,experiment,NA,NA,1,0.3,0.7,3,2,170,4,NA
fcp-trial,225,1036229,0.0-180.0-0.0,voc_e2,12402,"[{""event"":""fullscreenenter"",""trial"":1,""time"":1607}]",NA,NA,NA,NA,NA,4,#3386FF,#D89F1C,0,10,0,38,1,272.30000001192093,39,0,445.5,10,1,experiment,NA,NA,1,0.3,0.7,3,2,171,4,NA
fcp-trial,226,1040349,0.0-181.0-0.0,voc_e2,12402,"[{""event"":""fullscreenenter"",""trial"":1,""time"":1607}]",NA,NA,NA,NA,NA,2,#FA92F8,#1CD855,0,10,0,38,1,1334.5999999940395,39,0,1274.699999988079,10,1,experiment,NA,NA,0,0.1,0.9,1,0,172,4,NA
fcp-trial,227,1044151,0.0-182.0-0.0,voc_e2,12402,"[{""event"":""fullscreenenter"",""trial"":1,""time"":1607}]",NA,NA,NA,NA,NA,0,#D89F1C,#3386FF,0,0,1,38,1,1400.0999999940395,39,0,887.5999999940395,0,0,experiment,NA,NA,1,0.7,0.3,2,3,173,4,NA
fcp-trial,228,1047171,0.0-183.0-0.0,voc_e2,12402,"[{""event"":""fullscreenenter"",""trial"":1,""time"":1607}]",NA,NA,NA,NA,NA,3,#741CD8,#D8271C,0,10,0,40,0,958.2000000178814,37,1,547,0,0,experiment,NA,NA,2,0.5,0.5,5,4,174,4,NA
fcp-trial,229,1049529,0.0-184.0-0.0,voc_e2,12402,"[{""event"":""fullscreenenter"",""trial"":1,""time"":1607}]",NA,NA,NA,NA,NA,5,#3386FF,#D89F1C,10,10,0,38,1,388.09999999403954,39,0,457.699999988079,10,1,experiment,NA,NA,1,0.3,0.7,3,2,175,4,NA
fcp-trial,230,1052494,0.0-185.0-0.0,voc_e2,12402,"[{""event"":""fullscreenenter"",""trial"":1,""time"":1607}]",NA,NA,NA,NA,NA,6,#1CD855,#FA92F8,10,0,1,40,0,924.5,37,1,527.7999999821186,10,1,experiment,NA,NA,0,0.9,0.1,0,1,176,4,NA
fcp-trial,231,1055201,0.0-186.0-0.0,voc_e2,12402,"[{""event"":""fullscreenenter"",""trial"":1,""time"":1607}]",NA,NA,NA,NA,NA,1,#1CD855,#FA92F8,10,0,1,38,1,528.2999999821186,37,1,668.3999999761581,10,1,experiment,NA,NA,0,0.9,0.1,0,1,177,4,NA
fcp-trial,232,1058669,0.0-187.0-0.0,voc_e2,12402,"[{""event"":""fullscreenenter"",""trial"":1,""time"":1607}]",NA,NA,NA,NA,NA,2,#3386FF,#D89F1C,10,10,0,40,0,1500.9000000059605,39,0,456.09999999403954,10,1,experiment,NA,NA,1,0.3,0.7,3,2,178,4,NA
fcp-trial,233,1062051,0.0-188.0-0.0,voc_e2,12402,"[{""event"":""fullscreenenter"",""trial"":1,""time"":1607}]",NA,NA,NA,NA,NA,5,#D8271C,#741CD8,10,0,1,38,1,603.7999999821186,37,1,1268.9000000059605,10,1,experiment,NA,NA,2,0.5,0.5,4,5,179,4,NA
fcp-trial,234,1066084,0.0-189.0-0.0,voc_e2,12402,"[{""event"":""fullscreenenter"",""trial"":1,""time"":1607}]",NA,NA,NA,NA,NA,1,#D89F1C,#3386FF,10,10,1,38,1,1580.9000000059605,37,1,937.9000000059604,10,1,experiment,NA,NA,1,0.7,0.3,2,3,180,4,NA
fcp-trial,235,1069410,0.0-190.0-0.0,voc_e2,12402,"[{""event"":""fullscreenenter"",""trial"":1,""time"":1607}]",NA,NA,NA,NA,NA,0,#D8271C,#741CD8,10,0,1,38,1,1304.699999988079,37,1,506.300000011921,10,1,experiment,NA,NA,2,0.5,0.5,4,5,181,5,NA
fcp-trial,236,1073571,0.0-191.0-0.0,voc_e2,12402,"[{""event"":""fullscreenenter"",""trial"":1,""time"":1607}]",NA,NA,NA,NA,NA,0,#FA92F8,#1CD855,0,10,0,38,1,862.5,39,0,1788.9000000059605,10,1,experiment,NA,NA,0,0.1,0.9,1,0,182,5,NA
fcp-trial,237,1076491,0.0-192.0-0.0,voc_e2,12402,"[{""event"":""fullscreenenter"",""trial"":1,""time"":1607}]",NA,NA,NA,NA,NA,1,#D8271C,#741CD8,10,10,1,38,1,898.6000000238419,37,1,505.699999988079,10,1,experiment,NA,NA,2,0.5,0.5,4,5,183,5,NA
fcp-trial,238,1079819,0.0-193.0-0.0,voc_e2,12402,"[{""event"":""fullscreenenter"",""trial"":1,""time"":1607}]",NA,NA,NA,NA,NA,4,#D8271C,#741CD8,0,0,1,40,0,1256.4000000059605,39,0,558,0,0,experiment,NA,NA,2,0.5,0.5,4,5,184,5,NA
fcp-trial,239,1083532,0.0-194.0-0.0,voc_e2,12402,"[{""event"":""fullscreenenter"",""trial"":1,""time"":1607}]",NA,NA,NA,NA,NA,3,#3386FF,#D89F1C,0,10,0,38,1,1231.300000011921,37,1,966.5,0,0,experiment,NA,NA,1,0.3,0.7,3,2,185,5,NA
fcp-trial,240,1085873,0.0-195.0-0.0,voc_e2,12402,"[{""event"":""fullscreenenter"",""trial"":1,""time"":1607}]",NA,NA,NA,NA,NA,6,#741CD8,#D8271C,10,10,0,38,1,470.80000001192093,39,0,354.40000000596046,10,1,experiment,NA,NA,2,0.5,0.5,5,4,186,5,NA
fcp-trial,241,1088469,0.0-196.0-0.0,voc_e2,12402,"[{""event"":""fullscreenenter"",""trial"":1,""time"":1607}]",NA,NA,NA,NA,NA,3,#FA92F8,#1CD855,0,10,0,38,1,449.5,39,0,636,10,1,experiment,NA,NA,0,0.1,0.9,1,0,187,5,NA
fcp-trial,242,1092042,0.0-197.0-0.0,voc_e2,12402,"[{""event"":""fullscreenenter"",""trial"":1,""time"":1607}]",NA,NA,NA,NA,NA,4,#1CD855,#FA92F8,10,0,1,40,0,1173.2999999821186,39,0,887,0,0,experiment,NA,NA,0,0.9,0.1,0,1,188,5,NA
fcp-trial,243,1094328,0.0-198.0-0.0,voc_e2,12402,"[{""event"":""fullscreenenter"",""trial"":1,""time"":1607}]",NA,NA,NA,NA,NA,2,#741CD8,#D8271C,10,10,0,38,1,460.2000000178814,39,0,317.59999999403954,10,1,experiment,NA,NA,2,0.5,0.5,5,4,189,5,NA
fcp-trial,244,1096713,0.0-199.0-0.0,voc_e2,12402,"[{""event"":""fullscreenenter"",""trial"":1,""time"":1607}]",NA,NA,NA,NA,NA,2,#741CD8,#D8271C,0,10,0,38,1,556,39,0,316.5,10,1,experiment,NA,NA,2,0.5,0.5,5,4,190,5,NA
fcp-trial,245,1100135,0.0-200.0-0.0,voc_e2,12402,"[{""event"":""fullscreenenter"",""trial"":1,""time"":1607}]",NA,NA,NA,NA,NA,0,#1CD855,#FA92F8,10,0,1,38,1,1080.5999999940395,37,1,821.5999999940395,10,1,experiment,NA,NA,0,0.9,0.1,0,1,191,5,NA
fcp-trial,246,1102643,0.0-201.0-0.0,voc_e2,12402,"[{""event"":""fullscreenenter"",""trial"":1,""time"":1607}]",NA,NA,NA,NA,NA,3,#D8271C,#741CD8,0,0,1,38,1,420.09999999403954,37,1,578.6999999880791,0,1,experiment,NA,NA,2,0.5,0.5,4,5,192,5,NA
fcp-trial,247,1105555,0.0-202.0-0.0,voc_e2,12402,"[{""event"":""fullscreenenter"",""trial"":1,""time"":1607}]",NA,NA,NA,NA,NA,5,#1CD855,#FA92F8,10,0,1,40,0,880.7000000178814,39,0,512.2000000178814,0,0,experiment,NA,NA,0,0.9,0.1,0,1,193,5,NA
fcp-trial,248,1109050,0.0-203.0-0.0,voc_e2,12402,"[{""event"":""fullscreenenter"",""trial"":1,""time"":1607}]",NA,NA,NA,NA,NA,6,#3386FF,#D89F1C,0,10,0,38,1,810,39,0,1170.5999999940395,10,1,experiment,NA,NA,1,0.3,0.7,3,2,194,5,NA
fcp-trial,249,1111442,0.0-204.0-0.0,voc_e2,12402,"[{""event"":""fullscreenenter"",""trial"":1,""time"":1607}]",NA,NA,NA,NA,NA,1,#3386FF,#D89F1C,10,10,0,38,1,431.5,39,0,448.300000011921,10,1,experiment,NA,NA,1,0.3,0.7,3,2,195,5,NA
fcp-trial,250,1114795,0.0-205.0-0.0,voc_e2,12402,"[{""event"":""fullscreenenter"",""trial"":1,""time"":1607}]",NA,NA,NA,NA,NA,1,#FA92F8,#1CD855,0,10,0,38,1,833.3000000119209,39,0,1004.4000000059604,10,1,experiment,NA,NA,0,0.1,0.9,1,0,196,5,NA
fcp-trial,251,1117238,0.0-206.0-0.0,voc_e2,12402,"[{""event"":""fullscreenenter"",""trial"":1,""time"":1607}]",NA,NA,NA,NA,NA,1,#D8271C,#741CD8,0,0,1,38,1,270,39,0,659.2000000178814,0,0,experiment,NA,NA,2,0.5,0.5,4,5,197,5,NA
fcp-trial,252,1119442,0.0-207.0-0.0,voc_e2,12402,"[{""event"":""fullscreenenter"",""trial"":1,""time"":1607}]",NA,NA,NA,NA,NA,3,#3386FF,#D89F1C,10,0,0,38,1,295.69999998807907,39,0,394,0,1,experiment,NA,NA,1,0.3,0.7,3,2,198,5,NA
fcp-trial,253,1121885,0.0-208.0-0.0,voc_e2,12402,"[{""event"":""fullscreenenter"",""trial"":1,""time"":1607}]",NA,NA,NA,NA,NA,3,#FA92F8,#1CD855,0,10,0,40,0,262.59999999403954,39,0,668.5999999940395,10,1,experiment,NA,NA,0,0.1,0.9,1,0,199,5,NA
fcp-trial,254,1125576,0.0-209.0-0.0,voc_e2,12402,"[{""event"":""fullscreenenter"",""trial"":1,""time"":1607}]",NA,NA,NA,NA,NA,0,#3386FF,#D89F1C,0,10,0,38,1,419.5,39,0,1758.2000000178814,10,1,experiment,NA,NA,1,0.3,0.7,3,2,200,5,NA
fcp-trial,255,1128213,0.0-210.0-0.0,voc_e2,12402,"[{""event"":""fullscreenenter"",""trial"":1,""time"":1607}]",NA,NA,NA,NA,NA,5,#741CD8,#D8271C,10,10,0,38,1,455.80000001192093,39,0,666.2999999821186,10,1,experiment,NA,NA,2,0.5,0.5,5,4,201,5,NA
fcp-trial,256,1131001,0.0-211.0-0.0,voc_e2,12402,"[{""event"":""fullscreenenter"",""trial"":1,""time"":1607}]",NA,NA,NA,NA,NA,6,#FA92F8,#1CD855,0,10,0,40,0,799.4000000059605,39,0,476.2999999821186,10,1,experiment,NA,NA,0,0.1,0.9,1,0,202,5,NA
fcp-trial,257,1133541,0.0-212.0-0.0,voc_e2,12402,"[{""event"":""fullscreenenter"",""trial"":1,""time"":1607}]",NA,NA,NA,NA,NA,5,#3386FF,#D89F1C,0,10,0,38,1,524,39,0,507.09999999403954,10,1,experiment,NA,NA,1,0.3,0.7,3,2,203,5,NA
fcp-trial,258,1136394,0.0-213.0-0.0,voc_e2,12402,"[{""event"":""fullscreenenter"",""trial"":1,""time"":1607}]",NA,NA,NA,NA,NA,2,#D89F1C,#3386FF,10,0,1,38,1,883.6999999880791,37,1,457.09999999403954,10,1,experiment,NA,NA,1,0.7,0.3,2,3,204,5,NA
fcp-trial,259,1138637,0.0-214.0-0.0,voc_e2,12402,"[{""event"":""fullscreenenter"",""trial"":1,""time"":1607}]",NA,NA,NA,NA,NA,6,#D8271C,#741CD8,0,0,1,38,1,310.59999999403954,39,0,413.09999999403954,0,0,experiment,NA,NA,2,0.5,0.5,4,5,205,5,NA
fcp-trial,260,1141814,0.0-215.0-0.0,voc_e2,12402,"[{""event"":""fullscreenenter"",""trial"":1,""time"":1607}]",NA,NA,NA,NA,NA,2,#1CD855,#FA92F8,10,0,1,38,1,1075.4000000059605,37,1,587.9000000059605,10,1,experiment,NA,NA,0,0.9,0.1,0,1,206,5,NA
fcp-trial,261,1144904,0.0-216.0-0.0,voc_e2,12402,"[{""event"":""fullscreenenter"",""trial"":1,""time"":1607}]",NA,NA,NA,NA,NA,4,#3386FF,#D89F1C,0,10,0,40,0,1150.7000000178814,39,0,427,10,1,experiment,NA,NA,1,0.3,0.7,3,2,207,5,NA
fcp-trial,262,1147434,0.0-217.0-0.0,voc_e2,12402,"[{""event"":""fullscreenenter"",""trial"":1,""time"":1607}]",NA,NA,NA,NA,NA,4,#741CD8,#D8271C,0,0,0,38,1,540.0999999940395,39,0,470.7000000178814,0,1,experiment,NA,NA,2,0.5,0.5,5,4,208,5,NA
fcp-trial,263,1150044,0.0-218.0-0.0,voc_e2,12402,"[{""event"":""fullscreenenter"",""trial"":1,""time"":1607}]",NA,NA,NA,NA,NA,0,#741CD8,#D8271C,0,10,0,38,1,731.2000000178814,39,0,363.5,10,1,experiment,NA,NA,2,0.5,0.5,5,4,209,5,NA
fcp-trial,264,1154133,0.0-219.0-0.0,voc_e2,12402,"[{""event"":""fullscreenenter"",""trial"":1,""time"":1607}]",NA,NA,NA,NA,NA,4,#1CD855,#FA92F8,10,0,1,40,0,2136.0999999940395,39,0,433.40000000596046,0,0,experiment,NA,NA,0,0.9,0.1,0,1,210,5,NA
audio-instructions,265,1160166,0.0-220.0,voc_e2,12402,"[{""event"":""fullscreenenter"",""trial"":1,""time"":1607}]",NA,1113.300000011921,static/audio/pause.wav,NA,0,NA,NA,NA,NA,NA,NA,NA,NA,NA,NA,NA,NA,NA,NA,NA,NA,NA,NA,NA,NA,NA,NA,NA,NA,NA
fcp-trial,266,1165217,0.0-221.0-0.0,voc_e2,12402,"[{""event"":""fullscreenenter"",""trial"":1,""time"":1607}]",NA,NA,NA,NA,NA,3,#741CD8,#D8271C,0,0,0,38,1,3207.699999988079,39,0,326.5,0,1,experiment,NA,NA,2,0.5,0.5,5,4,211,5,NA
fcp-trial,267,1167838,0.0-222.0-0.0,voc_e2,12402,"[{""event"":""fullscreenenter"",""trial"":1,""time"":1607}]",NA,NA,NA,NA,NA,1,#D89F1C,#3386FF,10,10,1,38,1,738.6999999880791,39,0,357.7000000178814,10,0,experiment,NA,NA,1,0.7,0.3,2,3,212,5,NA
fcp-trial,268,1170478,0.0-223.0-0.0,voc_e2,12402,"[{""event"":""fullscreenenter"",""trial"":1,""time"":1607}]",NA,NA,NA,NA,NA,0,#741CD8,#D8271C,10,10,0,38,1,506.59999999403954,39,0,623.3000000119209,10,1,experiment,NA,NA,2,0.5,0.5,5,4,213,5,NA
fcp-trial,269,1174797,0.0-224.0-0.0,voc_e2,12402,"[{""event"":""fullscreenenter"",""trial"":1,""time"":1607}]",NA,NA,NA,NA,NA,1,#1CD855,#FA92F8,10,0,1,38,1,1389,37,1,1416.300000011921,10,1,experiment,NA,NA,0,0.9,0.1,0,1,214,5,NA
fcp-trial,270,1177311,0.0-225.0-0.0,voc_e2,12402,"[{""event"":""fullscreenenter"",""trial"":1,""time"":1607}]",NA,NA,NA,NA,NA,2,#1CD855,#FA92F8,10,0,1,38,1,541.5,37,1,456.59999999403954,10,1,experiment,NA,NA,0,0.9,0.1,0,1,215,5,NA
fcp-trial,271,1179900,0.0-226.0-0.0,voc_e2,12402,"[{""event"":""fullscreenenter"",""trial"":1,""time"":1607}]",NA,NA,NA,NA,NA,3,#3386FF,#D89F1C,10,0,0,38,1,613.6000000238419,39,0,459,0,1,experiment,NA,NA,1,0.3,0.7,3,2,216,5,NA
fcp-trial,272,1183011,0.0-227.0-0.0,voc_e2,12402,"[{""event"":""fullscreenenter"",""trial"":1,""time"":1607}]",NA,NA,NA,NA,NA,5,#FA92F8,#1CD855,0,10,0,40,0,1078.800000011921,37,1,518.1999999880791,0,0,experiment,NA,NA,0,0.1,0.9,1,0,217,5,NA
fcp-trial,273,1186014,0.0-228.0-0.0,voc_e2,12402,"[{""event"":""fullscreenenter"",""trial"":1,""time"":1607}]",NA,NA,NA,NA,NA,1,#D8271C,#741CD8,0,0,1,40,0,656.4000000059605,37,1,825,0,1,experiment,NA,NA,2,0.5,0.5,4,5,218,5,NA
fcp-trial,274,1188599,0.0-229.0-0.0,voc_e2,12402,"[{""event"":""fullscreenenter"",""trial"":1,""time"":1607}]",NA,NA,NA,NA,NA,2,#D89F1C,#3386FF,10,10,1,40,0,535.5,39,0,536.8000000119209,10,0,experiment,NA,NA,1,0.7,0.3,2,3,219,5,NA
fcp-trial,275,1191914,0.0-230.0-0.0,voc_e2,12402,"[{""event"":""fullscreenenter"",""trial"":1,""time"":1607}]",NA,NA,NA,NA,NA,5,#D8271C,#741CD8,0,10,1,38,1,1299.199999988079,37,1,508.59999999403954,0,1,experiment,NA,NA,2,0.5,0.5,4,5,220,5,NA
fcp-trial,276,1194689,0.0-231.0-0.0,voc_e2,12402,"[{""event"":""fullscreenenter"",""trial"":1,""time"":1607}]",NA,NA,NA,NA,NA,0,#FA92F8,#1CD855,0,10,0,38,1,473.09999999403954,39,0,785.8000000119209,10,1,experiment,NA,NA,0,0.1,0.9,1,0,221,5,NA
fcp-trial,277,1197560,0.0-232.0-0.0,voc_e2,12402,"[{""event"":""fullscreenenter"",""trial"":1,""time"":1607}]",NA,NA,NA,NA,NA,5,#3386FF,#D89F1C,0,10,0,40,0,861.9000000059605,39,0,489.39999997615814,10,1,experiment,NA,NA,1,0.3,0.7,3,2,222,5,NA
fcp-trial,278,1200746,0.0-233.0-0.0,voc_e2,12402,"[{""event"":""fullscreenenter"",""trial"":1,""time"":1607}]",NA,NA,NA,NA,NA,4,#D89F1C,#3386FF,10,0,1,40,0,1125.4000000059605,37,1,548.2000000178814,10,1,experiment,NA,NA,1,0.7,0.3,2,3,223,5,NA
fcp-trial,279,1205334,0.0-234.0-0.0,voc_e2,12402,"[{""event"":""fullscreenenter"",""trial"":1,""time"":1607}]",NA,NA,NA,NA,NA,2,#741CD8,#D8271C,10,10,0,38,1,2689,39,0,386,10,1,experiment,NA,NA,2,0.5,0.5,5,4,224,5,NA
fcp-trial,280,1208173,0.0-235.0-0.0,voc_e2,12402,"[{""event"":""fullscreenenter"",""trial"":1,""time"":1607}]",NA,NA,NA,NA,NA,0,#3386FF,#D89F1C,0,0,0,38,1,913.5,39,0,416.09999999403954,0,1,experiment,NA,NA,1,0.3,0.7,3,2,225,5,NA
fcp-trial,281,1210977,0.0-236.0-0.0,voc_e2,12402,"[{""event"":""fullscreenenter"",""trial"":1,""time"":1607}]",NA,NA,NA,NA,NA,6,#1CD855,#FA92F8,0,0,1,38,1,585.2000000178814,37,1,704.0999999940395,0,1,experiment,NA,NA,0,0.9,0.1,0,1,226,6,NA
fcp-trial,282,1213995,0.0-237.0-0.0,voc_e2,12402,"[{""event"":""fullscreenenter"",""trial"":1,""time"":1607}]",NA,NA,NA,NA,NA,4,#1CD855,#FA92F8,10,0,1,40,0,950.1999999880791,39,0,555.6999999880791,0,0,experiment,NA,NA,0,0.9,0.1,0,1,227,6,NA
fcp-trial,283,1216725,0.0-238.0-0.0,voc_e2,12402,"[{""event"":""fullscreenenter"",""trial"":1,""time"":1607}]",NA,NA,NA,NA,NA,6,#741CD8,#D8271C,10,0,0,40,0,712,37,1,502.7000000178814,10,0,experiment,NA,NA,2,0.5,0.5,5,4,228,6,NA
fcp-trial,284,1220866,0.0-239.0-0.0,voc_e2,12402,"[{""event"":""fullscreenenter"",""trial"":1,""time"":1607}]",NA,NA,NA,NA,NA,4,#741CD8,#D8271C,10,0,0,40,0,2082.199999988079,37,1,548.9000000059605,10,0,experiment,NA,NA,2,0.5,0.5,5,4,229,6,NA
fcp-trial,285,1223683,0.0-240.0-0.0,voc_e2,12402,"[{""event"":""fullscreenenter"",""trial"":1,""time"":1607}]",NA,NA,NA,NA,NA,6,#D89F1C,#3386FF,0,0,1,40,0,830.0999999940395,39,0,472.09999999403954,0,0,experiment,NA,NA,1,0.7,0.3,2,3,230,6,NA
fcp-trial,286,1226378,0.0-241.0-0.0,voc_e2,12402,"[{""event"":""fullscreenenter"",""trial"":1,""time"":1607}]",NA,NA,NA,NA,NA,3,#FA92F8,#1CD855,0,10,0,40,0,694.4000000059605,39,0,485.5,10,1,experiment,NA,NA,0,0.1,0.9,1,0,231,6,NA
fcp-trial,287,1229251,0.0-242.0-0.0,voc_e2,12402,"[{""event"":""fullscreenenter"",""trial"":1,""time"":1607}]",NA,NA,NA,NA,NA,5,#741CD8,#D8271C,0,10,0,40,0,822.7000000178814,39,0,537.6999999880791,10,1,experiment,NA,NA,2,0.5,0.5,5,4,232,6,NA
fcp-trial,288,1234042,0.0-243.0-0.0,voc_e2,12402,"[{""event"":""fullscreenenter"",""trial"":1,""time"":1607}]",NA,NA,NA,NA,NA,3,#D8271C,#741CD8,10,10,1,40,0,886.5,37,1,2393,10,1,experiment,NA,NA,2,0.5,0.5,4,5,233,6,NA
fcp-trial,289,1236869,0.0-244.0-0.0,voc_e2,12402,"[{""event"":""fullscreenenter"",""trial"":1,""time"":1607}]",NA,NA,NA,NA,NA,6,#3386FF,#D89F1C,0,10,0,40,0,793.9000000059605,37,1,515.2999999821186,0,0,experiment,NA,NA,1,0.3,0.7,3,2,234,6,NA
fcp-trial,290,1241608,0.0-245.0-0.0,voc_e2,12402,"[{""event"":""fullscreenenter"",""trial"":1,""time"":1607}]",NA,NA,NA,NA,NA,1,#FA92F8,#1CD855,0,0,0,38,1,2834.0999999940395,39,0,388.2000000178814,0,1,experiment,NA,NA,0,0.1,0.9,1,0,235,6,NA
fcp-trial,291,1244116,0.0-246.0-0.0,voc_e2,12402,"[{""event"":""fullscreenenter"",""trial"":1,""time"":1607}]",NA,NA,NA,NA,NA,2,#D8271C,#741CD8,10,0,1,40,0,417.7999999821186,37,1,572.1000000238419,10,1,experiment,NA,NA,2,0.5,0.5,4,5,236,6,NA
fcp-trial,292,1246843,0.0-247.0-0.0,voc_e2,12402,"[{""event"":""fullscreenenter"",""trial"":1,""time"":1607}]",NA,NA,NA,NA,NA,4,#741CD8,#D8271C,0,10,0,40,0,659.7000000178814,37,1,558.0999999940395,0,0,experiment,NA,NA,2,0.5,0.5,5,4,237,6,NA
fcp-trial,293,1250278,0.0-248.0-0.0,voc_e2,12402,"[{""event"":""fullscreenenter"",""trial"":1,""time"":1607}]",NA,NA,NA,NA,NA,5,#1CD855,#FA92F8,10,0,1,40,0,589.4000000059605,39,0,1328.2999999821186,0,0,experiment,NA,NA,0,0.9,0.1,0,1,238,6,NA
fcp-trial,294,1252602,0.0-249.0-0.0,voc_e2,12402,"[{""event"":""fullscreenenter"",""trial"":1,""time"":1607}]",NA,NA,NA,NA,NA,2,#3386FF,#D89F1C,0,10,0,40,0,254.5,39,0,556.1999999880791,10,1,experiment,NA,NA,1,0.3,0.7,3,2,239,6,NA
fcp-trial,295,1255973,0.0-250.0-0.0,voc_e2,12402,"[{""event"":""fullscreenenter"",""trial"":1,""time"":1607}]",NA,NA,NA,NA,NA,0,#D89F1C,#3386FF,10,0,1,38,1,1414.5,37,1,448.40000000596046,10,1,experiment,NA,NA,1,0.7,0.3,2,3,240,6,NA
fcp-trial,296,1258892,0.0-251.0-0.0,voc_e2,12402,"[{""event"":""fullscreenenter"",""trial"":1,""time"":1607}]",NA,NA,NA,NA,NA,1,#D8271C,#741CD8,0,10,1,38,1,712.8000000119209,37,1,695,0,1,experiment,NA,NA,2,0.5,0.5,4,5,241,6,NA
fcp-trial,297,1262655,0.0-252.0-0.0,voc_e2,12402,"[{""event"":""fullscreenenter"",""trial"":1,""time"":1607}]",NA,NA,NA,NA,NA,3,#D89F1C,#3386FF,10,0,1,40,0,1503.8999999761581,39,0,748.8999999761581,0,0,experiment,NA,NA,1,0.7,0.3,2,3,242,6,NA
fcp-trial,298,1265639,0.0-253.0-0.0,voc_e2,12402,"[{""event"":""fullscreenenter"",""trial"":1,""time"":1607}]",NA,NA,NA,NA,NA,4,#1CD855,#FA92F8,10,0,1,40,0,870.1999999880791,39,0,595.0999999940395,0,0,experiment,NA,NA,0,0.9,0.1,0,1,243,6,NA
fcp-trial,299,1268582,0.0-254.0-0.0,voc_e2,12402,"[{""event"":""fullscreenenter"",""trial"":1,""time"":1607}]",NA,NA,NA,NA,NA,4,#D89F1C,#3386FF,10,10,1,40,0,904.0999999940395,39,0,524.8999999761581,10,0,experiment,NA,NA,1,0.7,0.3,2,3,244,6,NA
fcp-trial,300,1272107,0.0-255.0-0.0,voc_e2,12402,"[{""event"":""fullscreenenter"",""trial"":1,""time"":1607}]",NA,NA,NA,NA,NA,0,#D8271C,#741CD8,10,10,1,38,1,1583.9000000059605,37,1,425.09999999403954,10,1,experiment,NA,NA,2,0.5,0.5,4,5,245,6,NA
fcp-trial,301,1275131,0.0-256.0-0.0,voc_e2,12402,"[{""event"":""fullscreenenter"",""trial"":1,""time"":1607}]",NA,NA,NA,NA,NA,6,#FA92F8,#1CD855,0,0,0,38,1,664.8000000119209,39,0,845.4000000059605,0,1,experiment,NA,NA,0,0.1,0.9,1,0,246,6,NA
fcp-trial,302,1278684,0.0-257.0-0.0,voc_e2,12402,"[{""event"":""fullscreenenter"",""trial"":1,""time"":1607}]",NA,NA,NA,NA,NA,1,#D89F1C,#3386FF,10,0,1,38,1,775.4000000059605,37,1,1269.899999976158,10,1,experiment,NA,NA,1,0.7,0.3,2,3,247,6,NA
fcp-trial,303,1281774,0.0-258.0-0.0,voc_e2,12402,"[{""event"":""fullscreenenter"",""trial"":1,""time"":1607}]",NA,NA,NA,NA,NA,6,#741CD8,#D8271C,0,0,0,40,0,1033.0999999940395,37,1,547.8999999761581,0,0,experiment,NA,NA,2,0.5,0.5,5,4,248,6,NA
fcp-trial,304,1285337,0.0-259.0-0.0,voc_e2,12402,"[{""event"":""fullscreenenter"",""trial"":1,""time"":1607}]",NA,NA,NA,NA,NA,0,#1CD855,#FA92F8,10,0,1,38,1,1573,37,1,476.699999988079,10,1,experiment,NA,NA,0,0.9,0.1,0,1,249,6,NA
fcp-trial,305,1287828,0.0-260.0-0.0,voc_e2,12402,"[{""event"":""fullscreenenter"",""trial"":1,""time"":1607}]",NA,NA,NA,NA,NA,3,#1CD855,#FA92F8,10,0,1,38,1,428.5,37,1,544.7999999821186,10,1,experiment,NA,NA,0,0.9,0.1,0,1,250,6,NA
fcp-trial,306,1290845,0.0-261.0-0.0,voc_e2,12402,"[{""event"":""fullscreenenter"",""trial"":1,""time"":1607}]",NA,NA,NA,NA,NA,2,#FA92F8,#1CD855,0,10,0,38,1,1157.699999988079,39,0,346.80000001192093,10,1,experiment,NA,NA,0,0.1,0.9,1,0,251,6,NA
fcp-trial,307,1293726,0.0-262.0-0.0,voc_e2,12402,"[{""event"":""fullscreenenter"",""trial"":1,""time"":1607}]",NA,NA,NA,NA,NA,5,#3386FF,#D89F1C,0,10,0,38,1,660.3000000119209,39,0,707.0999999940395,10,1,experiment,NA,NA,1,0.3,0.7,3,2,252,6,NA
fcp-trial,308,1296601,0.0-263.0-0.0,voc_e2,12402,"[{""event"":""fullscreenenter"",""trial"":1,""time"":1607}]",NA,NA,NA,NA,NA,0,#D89F1C,#3386FF,10,10,1,38,1,909.0999999940395,37,1,458.5,10,1,experiment,NA,NA,1,0.7,0.3,2,3,253,6,NA
fcp-trial,309,1299727,0.0-264.0-0.0,voc_e2,12402,"[{""event"":""fullscreenenter"",""trial"":1,""time"":1607}]",NA,NA,NA,NA,NA,3,#FA92F8,#1CD855,0,10,0,38,1,1165.199999988079,39,0,443.800000011921,10,1,experiment,NA,NA,0,0.1,0.9,1,0,254,6,NA
fcp-trial,310,1302747,0.0-265.0-0.0,voc_e2,12402,"[{""event"":""fullscreenenter"",""trial"":1,""time"":1607}]",NA,NA,NA,NA,NA,4,#741CD8,#D8271C,10,0,0,38,1,1115.4000000059605,39,0,387.09999999403954,0,1,experiment,NA,NA,2,0.5,0.5,5,4,255,6,NA
fcp-trial,311,1305885,0.0-266.0-0.0,voc_e2,12402,"[{""event"":""fullscreenenter"",""trial"":1,""time"":1607}]",NA,NA,NA,NA,NA,1,#3386FF,#D89F1C,10,10,0,38,1,875.6999999880791,39,0,748.5999999940395,10,1,experiment,NA,NA,1,0.3,0.7,3,2,256,6,NA
fcp-trial,312,1308753,0.0-267.0-0.0,voc_e2,12402,"[{""event"":""fullscreenenter"",""trial"":1,""time"":1607}]",NA,NA,NA,NA,NA,0,#1CD855,#FA92F8,10,0,1,38,1,440.69999998807907,37,1,919,10,1,experiment,NA,NA,0,0.9,0.1,0,1,257,6,NA
fcp-trial,313,1311595,0.0-268.0-0.0,voc_e2,12402,"[{""event"":""fullscreenenter"",""trial"":1,""time"":1607}]",NA,NA,NA,NA,NA,6,#D8271C,#741CD8,0,0,1,38,1,772.5,39,0,556.5,0,0,experiment,NA,NA,2,0.5,0.5,4,5,258,6,NA
fcp-trial,314,1313983,0.0-269.0-0.0,voc_e2,12402,"[{""event"":""fullscreenenter"",""trial"":1,""time"":1607}]",NA,NA,NA,NA,NA,0,#D8271C,#741CD8,0,10,1,38,1,400.69999998807907,37,1,476.7000000178814,0,1,experiment,NA,NA,2,0.5,0.5,4,5,259,6,NA
fcp-trial,315,1317010,0.0-270.0-0.0,voc_e2,12402,"[{""event"":""fullscreenenter"",""trial"":1,""time"":1607}]",NA,NA,NA,NA,NA,5,#3386FF,#D89F1C,0,10,0,38,1,932.2999999821186,39,0,578.3000000119209,10,1,experiment,NA,NA,1,0.3,0.7,3,2,260,6,NA
fcp-trial,316,1320309,0.0-271.0-0.0,voc_e2,12402,"[{""event"":""fullscreenenter"",""trial"":1,""time"":1607}]",NA,NA,NA,NA,NA,6,#FA92F8,#1CD855,0,10,0,38,1,842,37,1,934.6999999880792,0,0,experiment,NA,NA,0,0.1,0.9,1,0,261,6,NA
fcp-trial,317,1323535,0.0-272.0-0.0,voc_e2,12402,"[{""event"":""fullscreenenter"",""trial"":1,""time"":1607}]",NA,NA,NA,NA,NA,1,#1CD855,#FA92F8,10,0,1,38,1,1273.5,37,1,436.90000000596046,10,1,experiment,NA,NA,0,0.9,0.1,0,1,262,6,NA
fcp-trial,318,1326455,0.0-273.0-0.0,voc_e2,12402,"[{""event"":""fullscreenenter"",""trial"":1,""time"":1607}]",NA,NA,NA,NA,NA,6,#3386FF,#D89F1C,0,10,0,40,0,900.5999999940395,39,0,505.40000000596046,10,1,experiment,NA,NA,1,0.3,0.7,3,2,263,6,NA
fcp-trial,319,1329649,0.0-274.0-0.0,voc_e2,12402,"[{""event"":""fullscreenenter"",""trial"":1,""time"":1607}]",NA,NA,NA,NA,NA,2,#741CD8,#D8271C,10,0,0,40,0,1200.8999999761581,37,1,478.39999997615814,10,0,experiment,NA,NA,2,0.5,0.5,5,4,264,6,NA
fcp-trial,320,1333534,0.0-275.0-0.0,voc_e2,12402,"[{""event"":""fullscreenenter"",""trial"":1,""time"":1607}]",NA,NA,NA,NA,NA,5,#741CD8,#D8271C,0,10,0,40,0,1862.199999988079,39,0,506,10,1,experiment,NA,NA,2,0.5,0.5,5,4,265,6,NA
fcp-trial,321,1336873,0.0-276.0-0.0,voc_e2,12402,"[{""event"":""fullscreenenter"",""trial"":1,""time"":1607}]",NA,NA,NA,NA,NA,5,#1CD855,#FA92F8,10,0,1,40,0,1331,39,0,494.5,0,0,experiment,NA,NA,0,0.9,0.1,0,1,266,6,NA
fcp-trial,322,1339843,0.0-277.0-0.0,voc_e2,12402,"[{""event"":""fullscreenenter"",""trial"":1,""time"":1607}]",NA,NA,NA,NA,NA,4,#FA92F8,#1CD855,0,10,0,40,0,992.6999999880791,39,0,467.09999999403954,10,1,experiment,NA,NA,0,0.1,0.9,1,0,267,6,NA
fcp-trial,323,1344174,0.0-278.0-0.0,voc_e2,12402,"[{""event"":""fullscreenenter"",""trial"":1,""time"":1607}]",NA,NA,NA,NA,NA,2,#3386FF,#D89F1C,10,10,0,38,1,2424.199999988079,39,0,396,10,1,experiment,NA,NA,1,0.3,0.7,3,2,268,6,NA
fcp-trial,324,1346853,0.0-279.0-0.0,voc_e2,12402,"[{""event"":""fullscreenenter"",""trial"":1,""time"":1607}]",NA,NA,NA,NA,NA,3,#D89F1C,#3386FF,10,10,1,38,1,759.3000000119209,37,1,407.2000000178814,10,1,experiment,NA,NA,1,0.7,0.3,2,3,269,6,NA
fcp-trial,325,1349872,0.0-280.0-0.0,voc_e2,12402,"[{""event"":""fullscreenenter"",""trial"":1,""time"":1607}]",NA,NA,NA,NA,NA,1,#741CD8,#D8271C,10,0,0,38,1,1213.0999999940395,39,0,292.69999998807907,0,1,experiment,NA,NA,2,0.5,0.5,5,4,270,6,NA
fcp-trial,326,1352423,0.0-281.0-0.0,voc_e2,12402,"[{""event"":""fullscreenenter"",""trial"":1,""time"":1607}]",NA,NA,NA,NA,NA,2,#FA92F8,#1CD855,0,10,0,40,0,495.30000001192093,37,1,548.8000000119209,0,0,experiment,NA,NA,0,0.1,0.9,1,0,271,7,NA
fcp-trial,327,1355067,0.0-282.0-0.0,voc_e2,12402,"[{""event"":""fullscreenenter"",""trial"":1,""time"":1607}]",NA,NA,NA,NA,NA,4,#3386FF,#D89F1C,10,0,0,40,0,634.4000000059605,37,1,492.800000011921,10,0,experiment,NA,NA,1,0.3,0.7,3,2,272,7,NA
fcp-trial,328,1357978,0.0-283.0-0.0,voc_e2,12402,"[{""event"":""fullscreenenter"",""trial"":1,""time"":1607}]",NA,NA,NA,NA,NA,3,#741CD8,#D8271C,10,10,0,38,1,1007,39,0,387.40000000596046,10,1,experiment,NA,NA,2,0.5,0.5,5,4,273,7,NA
fcp-trial,329,1360613,0.0-284.0-0.0,voc_e2,12402,"[{""event"":""fullscreenenter"",""trial"":1,""time"":1607}]",NA,NA,NA,NA,NA,1,#D89F1C,#3386FF,10,0,1,40,0,540,39,0,588.4000000059605,0,0,experiment,NA,NA,1,0.7,0.3,2,3,274,7,NA
fcp-trial,330,1363673,0.0-285.0-0.0,voc_e2,12402,"[{""event"":""fullscreenenter"",""trial"":1,""time"":1607}]",NA,NA,NA,NA,NA,1,#1CD855,#FA92F8,10,0,1,38,1,785.3999999761581,37,1,767.8000000119209,10,1,experiment,NA,NA,0,0.9,0.1,0,1,275,7,NA
fcp-trial,331,1366694,0.0-286.0-0.0,voc_e2,12402,"[{""event"":""fullscreenenter"",""trial"":1,""time"":1607}]",NA,NA,NA,NA,NA,0,#3386FF,#D89F1C,0,10,0,38,1,431.09999999403954,39,0,1078.2000000178814,10,1,experiment,NA,NA,1,0.3,0.7,3,2,276,7,NA
fcp-trial,332,1369227,0.0-287.0-0.0,voc_e2,12402,"[{""event"":""fullscreenenter"",""trial"":1,""time"":1607}]",NA,NA,NA,NA,NA,2,#FA92F8,#1CD855,0,10,0,38,1,593.1000000238419,37,1,429,0,0,experiment,NA,NA,0,0.1,0.9,1,0,277,7,NA
fcp-trial,333,1371604,0.0-288.0-0.0,voc_e2,12402,"[{""event"":""fullscreenenter"",""trial"":1,""time"":1607}]",NA,NA,NA,NA,NA,5,#D89F1C,#3386FF,10,0,1,38,1,596.3999999761581,37,1,265.2999999821186,10,1,experiment,NA,NA,1,0.7,0.3,2,3,278,7,NA
fcp-trial,334,1374806,0.0-289.0-0.0,voc_e2,12402,"[{""event"":""fullscreenenter"",""trial"":1,""time"":1607}]",NA,NA,NA,NA,NA,0,#FA92F8,#1CD855,0,10,0,38,1,1203.199999988079,39,0,487.699999988079,10,1,experiment,NA,NA,0,0.1,0.9,1,0,279,7,NA
fcp-trial,335,1378701,0.0-290.0-0.0,voc_e2,12402,"[{""event"":""fullscreenenter"",""trial"":1,""time"":1607}]",NA,NA,NA,NA,NA,3,#741CD8,#D8271C,0,0,0,38,1,2101.699999988079,39,0,278.2000000178814,0,1,experiment,NA,NA,2,0.5,0.5,5,4,280,7,NA
fcp-trial,336,1381150,0.0-291.0-0.0,voc_e2,12402,"[{""event"":""fullscreenenter"",""trial"":1,""time"":1607}]",NA,NA,NA,NA,NA,2,#D8271C,#741CD8,0,0,1,38,1,523.0999999940395,37,1,409,0,1,experiment,NA,NA,2,0.5,0.5,4,5,281,7,NA
fcp-trial,337,1383545,0.0-292.0-0.0,voc_e2,12402,"[{""event"":""fullscreenenter"",""trial"":1,""time"":1607}]",NA,NA,NA,NA,NA,5,#1CD855,#FA92F8,10,0,1,38,1,454.10000002384186,39,0,423.40000000596046,0,0,experiment,NA,NA,0,0.9,0.1,0,1,282,7,NA
fcp-trial,338,1385918,0.0-293.0-0.0,voc_e2,12402,"[{""event"":""fullscreenenter"",""trial"":1,""time"":1607}]",NA,NA,NA,NA,NA,2,#D89F1C,#3386FF,10,0,1,38,1,431.5,37,1,423.5,10,1,experiment,NA,NA,1,0.7,0.3,2,3,283,7,NA
fcp-trial,339,1388916,0.0-294.0-0.0,voc_e2,12402,"[{""event"":""fullscreenenter"",""trial"":1,""time"":1607}]",NA,NA,NA,NA,NA,3,#1CD855,#FA92F8,10,0,1,40,0,899.5,39,0,588.6999999880791,0,0,experiment,NA,NA,0,0.9,0.1,0,1,284,7,NA
fcp-trial,340,1391413,0.0-295.0-0.0,voc_e2,12402,"[{""event"":""fullscreenenter"",""trial"":1,""time"":1607}]",NA,NA,NA,NA,NA,6,#D89F1C,#3386FF,10,10,1,40,0,472.7000000178814,39,0,516.9000000059605,10,0,experiment,NA,NA,1,0.7,0.3,2,3,285,7,NA
fcp-trial,341,1394995,0.0-296.0-0.0,voc_e2,12402,"[{""event"":""fullscreenenter"",""trial"":1,""time"":1607}]",NA,NA,NA,NA,NA,0,#741CD8,#D8271C,0,0,0,38,1,1624.199999988079,39,0,448.59999999403954,0,1,experiment,NA,NA,2,0.5,0.5,5,4,286,7,NA
fcp-trial,342,1397605,0.0-297.0-0.0,voc_e2,12402,"[{""event"":""fullscreenenter"",""trial"":1,""time"":1607}]",NA,NA,NA,NA,NA,6,#D8271C,#741CD8,10,0,1,38,1,588.1999999880791,37,1,505.40000000596046,10,1,experiment,NA,NA,2,0.5,0.5,4,5,287,7,NA
fcp-trial,343,1400334,0.0-298.0-0.0,voc_e2,12402,"[{""event"":""fullscreenenter"",""trial"":1,""time"":1607}]",NA,NA,NA,NA,NA,3,#3386FF,#D89F1C,10,0,0,38,1,632.5,39,0,586.0999999940395,0,1,experiment,NA,NA,1,0.3,0.7,3,2,288,7,NA
fcp-trial,344,1403926,0.0-299.0-0.0,voc_e2,12402,"[{""event"":""fullscreenenter"",""trial"":1,""time"":1607}]",NA,NA,NA,NA,NA,4,#1CD855,#FA92F8,10,0,1,38,1,545.1999999880791,37,1,1535.2000000178814,10,1,experiment,NA,NA,0,0.9,0.1,0,1,289,7,NA
fcp-trial,345,1406844,0.0-300.0-0.0,voc_e2,12402,"[{""event"":""fullscreenenter"",""trial"":1,""time"":1607}]",NA,NA,NA,NA,NA,4,#741CD8,#D8271C,10,0,0,40,0,890.0999999940395,39,0,514.9000000059605,0,1,experiment,NA,NA,2,0.5,0.5,5,4,290,7,NA
fcp-trial,346,1409489,0.0-301.0-0.0,voc_e2,12402,"[{""event"":""fullscreenenter"",""trial"":1,""time"":1607}]",NA,NA,NA,NA,NA,5,#D8271C,#741CD8,0,10,1,40,0,612.9000000059605,37,1,511.300000011921,0,1,experiment,NA,NA,2,0.5,0.5,4,5,291,7,NA
fcp-trial,347,1412393,0.0-302.0-0.0,voc_e2,12402,"[{""event"":""fullscreenenter"",""trial"":1,""time"":1607}]",NA,NA,NA,NA,NA,6,#FA92F8,#1CD855,0,10,0,40,0,932.9000000059605,39,0,455.2999999821186,10,1,experiment,NA,NA,0,0.1,0.9,1,0,292,7,NA
fcp-trial,348,1415783,0.0-303.0-0.0,voc_e2,12402,"[{""event"":""fullscreenenter"",""trial"":1,""time"":1607}]",NA,NA,NA,NA,NA,4,#3386FF,#D89F1C,0,10,0,40,0,1304,37,1,574.1999999880791,0,0,experiment,NA,NA,1,0.3,0.7,3,2,293,7,NA
fcp-trial,349,1418695,0.0-304.0-0.0,voc_e2,12402,"[{""event"":""fullscreenenter"",""trial"":1,""time"":1607}]",NA,NA,NA,NA,NA,1,#741CD8,#D8271C,10,10,0,38,1,926.3000000119209,39,0,474.800000011921,10,1,experiment,NA,NA,2,0.5,0.5,5,4,294,7,NA
fcp-trial,350,1421652,0.0-305.0-0.0,voc_e2,12402,"[{""event"":""fullscreenenter"",""trial"":1,""time"":1607}]",NA,NA,NA,NA,NA,4,#D89F1C,#3386FF,10,10,1,40,0,949.0999999940395,39,0,499.40000000596046,10,0,experiment,NA,NA,1,0.7,0.3,2,3,295,7,NA
fcp-trial,351,1424607,0.0-306.0-0.0,voc_e2,12402,"[{""event"":""fullscreenenter"",""trial"":1,""time"":1607}]",NA,NA,NA,NA,NA,0,#1CD855,#FA92F8,10,0,1,38,1,935.0999999940395,37,1,504.5,10,1,experiment,NA,NA,0,0.9,0.1,0,1,296,7,NA
fcp-trial,352,1427543,0.0-307.0-0.0,voc_e2,12402,"[{""event"":""fullscreenenter"",""trial"":1,""time"":1607}]",NA,NA,NA,NA,NA,2,#D89F1C,#3386FF,10,10,1,38,1,1019.8999999761581,39,0,408.300000011921,10,0,experiment,NA,NA,1,0.7,0.3,2,3,297,7,NA
fcp-trial,353,1430076,0.0-308.0-0.0,voc_e2,12402,"[{""event"":""fullscreenenter"",""trial"":1,""time"":1607}]",NA,NA,NA,NA,NA,0,#D89F1C,#3386FF,0,0,1,38,1,533.8000000119209,37,1,488.5,0,1,experiment,NA,NA,1,0.7,0.3,2,3,298,7,NA
fcp-trial,354,1432987,0.0-309.0-0.0,voc_e2,12402,"[{""event"":""fullscreenenter"",""trial"":1,""time"":1607}]",NA,NA,NA,NA,NA,5,#D8271C,#741CD8,10,10,1,40,0,951.2999999821186,37,1,446.199999988079,10,1,experiment,NA,NA,2,0.5,0.5,4,5,299,7,NA
fcp-trial,355,1435957,0.0-310.0-0.0,voc_e2,12402,"[{""event"":""fullscreenenter"",""trial"":1,""time"":1607}]",NA,NA,NA,NA,NA,6,#FA92F8,#1CD855,0,10,0,40,0,978.5999999940395,37,1,476.90000000596046,0,0,experiment,NA,NA,0,0.1,0.9,1,0,300,7,NA
fcp-trial,356,1439016,0.0-311.0-0.0,voc_e2,12402,"[{""event"":""fullscreenenter"",""trial"":1,""time"":1607}]",NA,NA,NA,NA,NA,2,#FA92F8,#1CD855,0,10,0,40,0,747.0999999940395,39,0,796.8000000119209,10,1,experiment,NA,NA,0,0.1,0.9,1,0,301,7,NA
fcp-trial,357,1442003,0.0-312.0-0.0,voc_e2,12402,"[{""event"":""fullscreenenter"",""trial"":1,""time"":1607}]",NA,NA,NA,NA,NA,6,#3386FF,#D89F1C,10,10,0,40,0,980.9000000059605,39,0,494.5,10,1,experiment,NA,NA,1,0.3,0.7,3,2,302,7,NA
fcp-trial,358,1445983,0.0-313.0-0.0,voc_e2,12402,"[{""event"":""fullscreenenter"",""trial"":1,""time"":1607}]",NA,NA,NA,NA,NA,3,#741CD8,#D8271C,10,0,0,40,0,2006.5,39,0,457.59999999403954,0,1,experiment,NA,NA,2,0.5,0.5,5,4,303,7,NA
fcp-trial,359,1448598,0.0-314.0-0.0,voc_e2,12402,"[{""event"":""fullscreenenter"",""trial"":1,""time"":1607}]",NA,NA,NA,NA,NA,1,#FA92F8,#1CD855,0,10,0,40,0,624.4000000059605,39,0,477.300000011921,10,1,experiment,NA,NA,0,0.1,0.9,1,0,304,7,NA
fcp-trial,360,1451684,0.0-315.0-0.0,voc_e2,12402,"[{""event"":""fullscreenenter"",""trial"":1,""time"":1607}]",NA,NA,NA,NA,NA,0,#741CD8,#D8271C,10,0,0,38,1,1216.9000000059605,39,0,358.59999999403954,0,1,experiment,NA,NA,2,0.5,0.5,5,4,305,7,NA
fcp-trial,361,1455253,0.0-316.0-0.0,voc_e2,12402,"[{""event"":""fullscreenenter"",""trial"":1,""time"":1607}]",NA,NA,NA,NA,NA,1,#3386FF,#D89F1C,0,10,0,38,1,1130.800000011921,39,0,927.5999999940396,10,1,experiment,NA,NA,1,0.3,0.7,3,2,306,7,NA
fcp-trial,362,1458625,0.0-317.0-0.0,voc_e2,12402,"[{""event"":""fullscreenenter"",""trial"":1,""time"":1607}]",NA,NA,NA,NA,NA,3,#FA92F8,#1CD855,0,10,0,38,1,1491.9000000059605,39,0,369.90000000596046,10,1,experiment,NA,NA,0,0.1,0.9,1,0,307,7,NA
fcp-trial,363,1462605,0.0-318.0-0.0,voc_e2,12402,"[{""event"":""fullscreenenter"",""trial"":1,""time"":1607}]",NA,NA,NA,NA,NA,1,#741CD8,#D8271C,10,0,0,38,1,2081.4000000059605,39,0,388.300000011921,0,1,experiment,NA,NA,2,0.5,0.5,5,4,308,7,NA
fcp-trial,364,1465686,0.0-319.0-0.0,voc_e2,12402,"[{""event"":""fullscreenenter"",""trial"":1,""time"":1607}]",NA,NA,NA,NA,NA,4,#741CD8,#D8271C,0,10,0,40,0,1021.5,37,1,549.0999999940395,0,0,experiment,NA,NA,2,0.5,0.5,5,4,309,7,NA
fcp-trial,365,1468309,0.0-320.0-0.0,voc_e2,12402,"[{""event"":""fullscreenenter"",""trial"":1,""time"":1607}]",NA,NA,NA,NA,NA,3,#D89F1C,#3386FF,10,10,1,40,0,612.6999999880791,37,1,491.699999988079,10,1,experiment,NA,NA,1,0.7,0.3,2,3,310,7,NA
fcp-trial,366,1471206,0.0-321.0-0.0,voc_e2,12402,"[{""event"":""fullscreenenter"",""trial"":1,""time"":1607}]",NA,NA,NA,NA,NA,5,#1CD855,#FA92F8,10,0,1,40,0,897.8000000119209,39,0,489.59999999403954,0,0,experiment,NA,NA,0,0.9,0.1,0,1,311,7,NA
fcp-trial,367,1474626,0.0-322.0-0.0,voc_e2,12402,"[{""event"":""fullscreenenter"",""trial"":1,""time"":1607}]",NA,NA,NA,NA,NA,2,#D8271C,#741CD8,10,0,1,38,1,1452.699999988079,37,1,457,10,1,experiment,NA,NA,2,0.5,0.5,4,5,312,7,NA
fcp-trial,368,1478163,0.0-323.0-0.0,voc_e2,12402,"[{""event"":""fullscreenenter"",""trial"":1,""time"":1607}]",NA,NA,NA,NA,NA,5,#3386FF,#D89F1C,0,0,0,40,0,1512.6000000238419,39,0,505.7999999821186,0,1,experiment,NA,NA,1,0.3,0.7,3,2,313,7,NA
fcp-trial,369,1481055,0.0-324.0-0.0,voc_e2,12402,"[{""event"":""fullscreenenter"",""trial"":1,""time"":1607}]",NA,NA,NA,NA,NA,6,#741CD8,#D8271C,0,0,0,40,0,887.7999999821186,39,0,492,0,1,experiment,NA,NA,2,0.5,0.5,5,4,314,7,NA
fcp-trial,370,1483526,0.0-325.0-0.0,voc_e2,12402,"[{""event"":""fullscreenenter"",""trial"":1,""time"":1607}]",NA,NA,NA,NA,NA,4,#FA92F8,#1CD855,0,10,0,40,0,461.19999998807907,37,1,495.699999988079,0,0,experiment,NA,NA,0,0.1,0.9,1,0,315,7,NA
audio-instructions,371,1490546,0.0-326.0,voc_e2,12402,"[{""event"":""fullscreenenter"",""trial"":1,""time"":1607}]",NA,944.5,static/audio/finished.wav,NA,0,NA,NA,NA,NA,NA,NA,NA,NA,NA,NA,NA,NA,NA,NA,NA,NA,NA,NA,NA,NA,NA,NA,NA,NA,NA
audio-instructions,372,1502176,0.0-327.0-0.0,voc_e2,12402,"[{""event"":""fullscreenenter"",""trial"":1,""time"":1607}]",NA,795.4000000059605,static/audio/explicit1.wav,NA,0,NA,NA,NA,NA,NA,NA,NA,NA,NA,NA,NA,NA,NA,NA,NA,NA,NA,NA,NA,NA,NA,NA,NA,NA,NA
audio-instructions,373,1510403,0.0-327.0-1.0,voc_e2,12402,"[{""event"":""fullscreenenter"",""trial"":1,""time"":1607}]",NA,632.5,static/audio/explicit2.wav,NA,0,NA,NA,NA,NA,NA,NA,NA,NA,NA,NA,NA,NA,NA,NA,NA,NA,NA,NA,NA,NA,NA,NA,NA,NA,NA
image-slider-response,374,1524542,0.0-328.0,voc_e2,12402,"[{""event"":""fullscreenenter"",""trial"":1,""time"":1607}]",NA,14133.59999999404,static/img/machines/machine4.png,NA,NA,NA,NA,NA,NA,NA,NA,NA,NA,NA,NA,NA,NA,NA,NA,explicit,NA,NA,NA,NA,NA,NA,NA,NA,NA,6
image-slider-response,375,1527345,0.0-329.0,voc_e2,12402,"[{""event"":""fullscreenenter"",""trial"":1,""time"":1607}]",NA,2801,static/img/machines/machine1.png,NA,NA,NA,NA,NA,NA,NA,NA,NA,NA,NA,NA,NA,NA,NA,NA,explicit,NA,NA,NA,NA,NA,NA,NA,NA,NA,6
image-slider-response,376,1530291,0.0-330.0,voc_e2,12402,"[{""event"":""fullscreenenter"",""trial"":1,""time"":1607}]",NA,2943.699999988079,static/img/machines/machine2.png,NA,NA,NA,NA,NA,NA,NA,NA,NA,NA,NA,NA,NA,NA,NA,NA,explicit,NA,NA,NA,NA,NA,NA,NA,NA,NA,3
image-slider-response,377,1533254,0.0-331.0,voc_e2,12402,"[{""event"":""fullscreenenter"",""trial"":1,""time"":1607}]",NA,2960.4000000059605,static/img/machines/machine6.png,NA,NA,NA,NA,NA,NA,NA,NA,NA,NA,NA,NA,NA,NA,NA,NA,explicit,NA,NA,NA,NA,NA,NA,NA,NA,NA,6
image-slider-response,378,1536642,0.0-332.0,voc_e2,12402,"[{""event"":""fullscreenenter"",""trial"":1,""time"":1607}]",NA,3385.300000011921,static/img/machines/machine5.png,NA,NA,NA,NA,NA,NA,NA,NA,NA,NA,NA,NA,NA,NA,NA,NA,explicit,NA,NA,NA,NA,NA,NA,NA,NA,NA,3
image-slider-response,379,1539435,0.0-333.0,voc_e2,12402,"[{""event"":""fullscreenenter"",""trial"":1,""time"":1607}]",NA,2790.699999988079,static/img/machines/machine3.png,NA,NA,NA,NA,NA,NA,NA,NA,NA,NA,NA,NA,NA,NA,NA,NA,explicit,NA,NA,NA,NA,NA,NA,NA,NA,NA,3
