trial_type,trial_index,time_elapsed,internal_node_id,task_version,subject_id,interactions,success,rt,stimulus,key_press,button_pressed,offer,arcade_color_L,arcade_color_R,arcade_outcome_L,arcade_outcome_R,correct,stage_1_key,stage_1_choice,stage_1_rt,stage_2_key,stage_2_choice,stage_2_rt,stage_3_outcome,accuracy,phase,responses,num_errors,context,reward_prob_L,reward_prob_R,arcade_id_L,arcade_id_R,trial,block,response
pavlovia,0,8,0.0-0.0,voc_e2,11815,[],NA,NA,NA,NA,NA,NA,NA,NA,NA,NA,NA,NA,NA,NA,NA,NA,NA,NA,NA,NA,NA,NA,NA,NA,NA,NA,NA,NA,NA,NA
fullscreen,1,4448,0.0-1.0,voc_e2,11815,"[{""event"":""fullscreenenter"",""trial"":1,""time"":3462}]",TRUE,NA,NA,NA,NA,NA,NA,NA,NA,NA,NA,NA,NA,NA,NA,NA,NA,NA,NA,NA,NA,NA,NA,NA,NA,NA,NA,NA,NA,NA
audio-keyboard-response,2,6633,0.0-2.0,voc_e2,11815,"[{""event"":""fullscreenenter"",""trial"":1,""time"":3462}]",NA,1981,static/audio/beep_loop.wav,32,NA,NA,NA,NA,NA,NA,NA,NA,NA,NA,NA,NA,NA,NA,NA,NA,NA,NA,NA,NA,NA,NA,NA,NA,NA,NA
audio-test,3,8738,0.0-3.0,voc_e2,11815,"[{""event"":""fullscreenenter"",""trial"":1,""time"":3462}]",NA,NA,static/audio/turtle.wav,NA,3,NA,NA,NA,NA,NA,NA,NA,NA,NA,NA,NA,NA,NA,NA,NA,NA,NA,NA,NA,NA,NA,NA,NA,NA,NA
audio-test,4,11157,0.0-4.0,voc_e2,11815,"[{""event"":""fullscreenenter"",""trial"":1,""time"":3462}]",NA,NA,static/audio/shark.wav,NA,2,NA,NA,NA,NA,NA,NA,NA,NA,NA,NA,NA,NA,NA,NA,NA,NA,NA,NA,NA,NA,NA,NA,NA,NA,NA
audio-instructions,5,19541,0.0-5.0-0.0,voc_e2,11815,"[{""event"":""fullscreenenter"",""trial"":1,""time"":3462}]",NA,2595.099999904633,static/audio/instructions1.wav,NA,0,NA,NA,NA,NA,NA,NA,NA,NA,NA,NA,NA,NA,NA,NA,NA,NA,NA,NA,NA,NA,NA,NA,NA,NA,NA
audio-instructions,6,29055,0.0-5.0-1.0,voc_e2,11815,"[{""event"":""fullscreenenter"",""trial"":1,""time"":3462}]",NA,2763.2000000476837,static/audio/instructions2.wav,NA,0,NA,NA,NA,NA,NA,NA,NA,NA,NA,NA,NA,NA,NA,NA,NA,NA,NA,NA,NA,NA,NA,NA,NA,NA,NA
audio-instructions,7,38097,0.0-5.0-2.0,voc_e2,11815,"[{""event"":""fullscreenenter"",""trial"":1,""time"":3462}]",NA,3236.100000143051,static/audio/instructions3.wav,NA,0,NA,NA,NA,NA,NA,NA,NA,NA,NA,NA,NA,NA,NA,NA,NA,NA,NA,NA,NA,NA,NA,NA,NA,NA,NA
audio-instructions,8,53101,0.0-5.0-3.0,voc_e2,11815,"[{""event"":""fullscreenenter"",""trial"":1,""time"":3462}]",NA,1780.5,static/audio/instructions4.wav,NA,0,NA,NA,NA,NA,NA,NA,NA,NA,NA,NA,NA,NA,NA,NA,NA,NA,NA,NA,NA,NA,NA,NA,NA,NA,NA
audio-instructions,9,76075,0.0-5.0-4.0,voc_e2,11815,"[{""event"":""fullscreenenter"",""trial"":1,""time"":3462}]",NA,13583.200000047684,static/audio/instructions5.wav,NA,0,NA,NA,NA,NA,NA,NA,NA,NA,NA,NA,NA,NA,NA,NA,NA,NA,NA,NA,NA,NA,NA,NA,NA,NA,NA
fcp-practice,10,79519,0.0-5.0-5.0-0.0,voc_e2,11815,"[{""event"":""fullscreenenter"",""trial"":1,""time"":3462}]",NA,NA,NA,NA,NA,NA,#EDC948,#46d3c8,10,0,1,null,null,null,37,1,1930.8999998569489,10,1,practice,NA,NA,NA,NA,NA,NA,NA,NA,NA,NA
fcp-practice,11,81600,0.0-5.0-5.0-1.0,voc_e2,11815,"[{""event"":""fullscreenenter"",""trial"":1,""time"":3462}]",NA,NA,NA,NA,NA,NA,#EDC948,#46d3c8,10,0,1,null,null,null,37,1,573.5,10,1,practice,NA,NA,NA,NA,NA,NA,NA,NA,NA,NA
fcp-practice,12,83439,0.0-5.0-5.0-2.0,voc_e2,11815,"[{""event"":""fullscreenenter"",""trial"":1,""time"":3462}]",NA,NA,NA,NA,NA,NA,#EDC948,#46d3c8,0,10,1,null,null,null,37,1,331.60000014305115,0,1,practice,NA,NA,NA,NA,NA,NA,NA,NA,NA,NA
fcp-practice,13,85647,0.0-5.0-5.0-3.0,voc_e2,11815,"[{""event"":""fullscreenenter"",""trial"":1,""time"":3462}]",NA,NA,NA,NA,NA,NA,#EDC948,#46d3c8,10,0,1,null,null,null,37,1,696.3999998569489,10,1,practice,NA,NA,NA,NA,NA,NA,NA,NA,NA,NA
fcp-practice,14,87594,0.0-5.0-5.0-4.0,voc_e2,11815,"[{""event"":""fullscreenenter"",""trial"":1,""time"":3462}]",NA,NA,NA,NA,NA,NA,#EDC948,#46d3c8,10,0,1,null,null,null,37,1,432.2000000476837,10,1,practice,NA,NA,NA,NA,NA,NA,NA,NA,NA,NA
audio-instructions,15,111170,0.0-5.0-6.0,voc_e2,11815,"[{""event"":""fullscreenenter"",""trial"":1,""time"":3462}]",NA,5568.800000190735,static/audio/instructions6.wav,NA,0,NA,NA,NA,NA,NA,NA,NA,NA,NA,NA,NA,NA,NA,NA,NA,NA,NA,NA,NA,NA,NA,NA,NA,NA,NA
audio-instructions,16,131780,0.0-5.0-7.0,voc_e2,11815,"[{""event"":""fullscreenenter"",""trial"":1,""time"":3462}]",NA,1408.7000000476835,static/audio/instructions7.wav,NA,0,NA,NA,NA,NA,NA,NA,NA,NA,NA,NA,NA,NA,NA,NA,NA,NA,NA,NA,NA,NA,NA,NA,NA,NA,NA
audio-instructions,17,144774,0.0-5.0-8.0,voc_e2,11815,"[{""event"":""fullscreenenter"",""trial"":1,""time"":3462}]",NA,3512.7000000476837,static/audio/instructions8.wav,NA,0,NA,NA,NA,NA,NA,NA,NA,NA,NA,NA,NA,NA,NA,NA,NA,NA,NA,NA,NA,NA,NA,NA,NA,NA,NA
fcp-comprehension,18,162574,0.0-5.0-9.0,voc_e2,11815,"[{""event"":""fullscreenenter"",""trial"":1,""time"":3462}]",NA,17798.400000095367,NA,NA,NA,NA,NA,NA,NA,NA,NA,NA,NA,NA,NA,NA,NA,NA,NA,NA,"true,true",0,NA,NA,NA,NA,NA,NA,NA,NA
audio-instructions,19,170650,0.0-6.0-0.0,voc_e2,11815,"[{""event"":""fullscreenenter"",""trial"":1,""time"":3462}]",NA,2529.2000000476837,static/audio/instructions9.wav,NA,0,NA,NA,NA,NA,NA,NA,NA,NA,NA,NA,NA,NA,NA,NA,NA,NA,NA,NA,NA,NA,NA,NA,NA,NA,NA
audio-instructions,20,184936,0.0-6.0-1.0,voc_e2,11815,"[{""event"":""fullscreenenter"",""trial"":1,""time"":3462}]",NA,2165.2000000476837,static/audio/instructions10.wav,NA,0,NA,NA,NA,NA,NA,NA,NA,NA,NA,NA,NA,NA,NA,NA,NA,NA,NA,NA,NA,NA,NA,NA,NA,NA,NA
fcp-trial,21,191804,0.0-6.0-2.0,voc_e2,11815,"[{""event"":""fullscreenenter"",""trial"":1,""time"":3462}]",NA,NA,NA,NA,NA,0,#EDC948,#46d3c8,10,10,1,38,1,3960.2000000476837,37,1,1368,10,1,practice,NA,NA,NA,NA,NA,NA,NA,NA,NA,NA
audio-instructions,22,205551,0.0-6.0-3.0,voc_e2,11815,"[{""event"":""fullscreenenter"",""trial"":1,""time"":3462}]",NA,2740.2999999523163,static/audio/instructions11.wav,NA,0,NA,NA,NA,NA,NA,NA,NA,NA,NA,NA,NA,NA,NA,NA,NA,NA,NA,NA,NA,NA,NA,NA,NA,NA,NA
fcp-trial,23,209500,0.0-6.0-4.0,voc_e2,11815,"[{""event"":""fullscreenenter"",""trial"":1,""time"":3462}]",NA,NA,NA,NA,NA,6,#EDC948,#46d3c8,10,10,1,40,0,1095.8999998569489,39,0,1336.5999999046326,10,0,practice,NA,NA,NA,NA,NA,NA,NA,NA,NA,NA
audio-instructions,24,229914,0.0-6.0-5.0,voc_e2,11815,"[{""event"":""fullscreenenter"",""trial"":1,""time"":3462}]",NA,1723.2999999523165,static/audio/instructions12.wav,NA,0,NA,NA,NA,NA,NA,NA,NA,NA,NA,NA,NA,NA,NA,NA,NA,NA,NA,NA,NA,NA,NA,NA,NA,NA,NA
audio-instructions,25,239786,0.0-6.0-6.0,voc_e2,11815,"[{""event"":""fullscreenenter"",""trial"":1,""time"":3462}]",NA,2274.5,static/audio/instructions13.wav,NA,0,NA,NA,NA,NA,NA,NA,NA,NA,NA,NA,NA,NA,NA,NA,NA,NA,NA,NA,NA,NA,NA,NA,NA,NA,NA
audio-instructions,26,250013,0.0-6.0-7.0,voc_e2,11815,"[{""event"":""fullscreenenter"",""trial"":1,""time"":3462}]",NA,1782.5999999046326,static/audio/instructions14.wav,NA,0,NA,NA,NA,NA,NA,NA,NA,NA,NA,NA,NA,NA,NA,NA,NA,NA,NA,NA,NA,NA,NA,NA,NA,NA,NA
audio-instructions,27,260699,0.0-7.0-0.0,voc_e2,11815,"[{""event"":""fullscreenenter"",""trial"":1,""time"":3462}]",NA,3767.699999809265,static/audio/instructions15.wav,NA,0,NA,NA,NA,NA,NA,NA,NA,NA,NA,NA,NA,NA,NA,NA,NA,NA,NA,NA,NA,NA,NA,NA,NA,NA,NA
audio-instructions,28,268006,0.0-7.0-1.0,voc_e2,11815,"[{""event"":""fullscreenenter"",""trial"":1,""time"":3462}]",NA,484.60000014305115,static/audio/instructions16.wav,NA,0,NA,NA,NA,NA,NA,NA,NA,NA,NA,NA,NA,NA,NA,NA,NA,NA,NA,NA,NA,NA,NA,NA,NA,NA,NA
audio-instructions,29,277048,0.0-7.0-2.0,voc_e2,11815,"[{""event"":""fullscreenenter"",""trial"":1,""time"":3462}]",NA,1367,static/audio/instructions17.wav,NA,0,NA,NA,NA,NA,NA,NA,NA,NA,NA,NA,NA,NA,NA,NA,NA,NA,NA,NA,NA,NA,NA,NA,NA,NA,NA
audio-instructions,30,285769,0.0-7.0-3.0,voc_e2,11815,"[{""event"":""fullscreenenter"",""trial"":1,""time"":3462}]",NA,957.7999999523164,static/audio/instructions18.wav,NA,0,NA,NA,NA,NA,NA,NA,NA,NA,NA,NA,NA,NA,NA,NA,NA,NA,NA,NA,NA,NA,NA,NA,NA,NA,NA
audio-instructions,31,293375,0.0-7.0-4.0,voc_e2,11815,"[{""event"":""fullscreenenter"",""trial"":1,""time"":3462}]",NA,874.5999999046326,static/audio/instructions19.wav,NA,0,NA,NA,NA,NA,NA,NA,NA,NA,NA,NA,NA,NA,NA,NA,NA,NA,NA,NA,NA,NA,NA,NA,NA,NA,NA
fcp-comprehension,32,320888,0.0-7.0-5.0,voc_e2,11815,"[{""event"":""fullscreenenter"",""trial"":1,""time"":3462}]",NA,27510.699999809265,NA,NA,NA,NA,NA,NA,NA,NA,NA,NA,NA,NA,NA,NA,NA,NA,NA,NA,"false,false,false,true",0,NA,NA,NA,NA,NA,NA,NA,NA
audio-instructions,33,332907,0.0-8.0,voc_e2,11815,"[{""event"":""fullscreenenter"",""trial"":1,""time"":3462}]",NA,2805.900000095367,static/audio/ready.wav,NA,0,NA,NA,NA,NA,NA,NA,NA,NA,NA,NA,NA,NA,NA,NA,NA,NA,NA,NA,NA,NA,NA,NA,NA,NA,NA
fcp-trial,34,338676,0.0-9.0-0.0,voc_e2,11815,"[{""event"":""fullscreenenter"",""trial"":1,""time"":3462}]",NA,NA,NA,NA,NA,2,#1CD855,#FA92F8,0,10,0,38,1,3318,37,1,926.7999999523164,0,0,experiment,NA,NA,0,0.1,0.9,1,0,1,1,NA
fcp-trial,35,342739,0.0-10.0-0.0,voc_e2,11815,"[{""event"":""fullscreenenter"",""trial"":1,""time"":3462}]",NA,NA,NA,NA,NA,2,#D89F1C,#3386FF,0,10,0,40,0,1805.2000000476837,37,1,734.2000000476837,0,0,experiment,NA,NA,2,0.5,0.5,5,4,2,1,NA
fcp-trial,36,346120,0.0-11.0-0.0,voc_e2,11815,"[{""event"":""fullscreenenter"",""trial"":1,""time"":3462}]",NA,NA,NA,NA,NA,0,#741CD8,#D8271C,10,0,1,38,1,1244.5,39,0,624.4000000953674,0,0,experiment,NA,NA,1,0.7,0.3,2,3,3,1,NA
fcp-trial,37,350731,0.0-12.0-0.0,voc_e2,11815,"[{""event"":""fullscreenenter"",""trial"":1,""time"":3462}]",NA,NA,NA,NA,NA,5,#3386FF,#D89F1C,10,0,1,40,0,2411.0999999046326,37,1,685.6000001430511,10,1,experiment,NA,NA,2,0.5,0.5,4,5,4,1,NA
fcp-trial,38,354663,0.0-13.0-0.0,voc_e2,11815,"[{""event"":""fullscreenenter"",""trial"":1,""time"":3462}]",NA,NA,NA,NA,NA,3,#FA92F8,#1CD855,10,0,1,40,0,1912.7999999523163,37,1,496.2000000476837,10,1,experiment,NA,NA,0,0.9,0.1,0,1,5,1,NA
fcp-trial,39,357819,0.0-14.0-0.0,voc_e2,11815,"[{""event"":""fullscreenenter"",""trial"":1,""time"":3462}]",NA,NA,NA,NA,NA,4,#D8271C,#741CD8,10,0,0,40,0,985.0999999046326,37,1,656.5,10,0,experiment,NA,NA,1,0.3,0.7,3,2,6,1,NA
fcp-trial,40,361185,0.0-15.0-0.0,voc_e2,11815,"[{""event"":""fullscreenenter"",""trial"":1,""time"":3462}]",NA,NA,NA,NA,NA,0,#3386FF,#D89F1C,10,10,1,38,1,1081.4000000953674,37,1,774.3999998569489,10,1,experiment,NA,NA,2,0.5,0.5,4,5,7,1,NA
fcp-trial,41,367658,0.0-16.0-0.0,voc_e2,11815,"[{""event"":""fullscreenenter"",""trial"":1,""time"":3462}]",NA,NA,NA,NA,NA,1,#FA92F8,#1CD855,10,0,1,38,1,3999.5,37,1,967.0999999046326,10,1,experiment,NA,NA,0,0.9,0.1,0,1,8,1,NA
fcp-trial,42,372561,0.0-17.0-0.0,voc_e2,11815,"[{""event"":""fullscreenenter"",""trial"":1,""time"":3462}]",NA,NA,NA,NA,NA,1,#741CD8,#D8271C,10,0,1,40,0,2818.100000143051,37,1,579.5,10,1,experiment,NA,NA,1,0.7,0.3,2,3,9,1,NA
fcp-trial,43,376706,0.0-18.0-0.0,voc_e2,11815,"[{""event"":""fullscreenenter"",""trial"":1,""time"":3462}]",NA,NA,NA,NA,NA,4,#FA92F8,#1CD855,10,0,1,40,0,2037.0999999046326,37,1,599.5999999046326,10,1,experiment,NA,NA,0,0.9,0.1,0,1,10,1,NA
fcp-trial,44,381447,0.0-19.0-0.0,voc_e2,11815,"[{""event"":""fullscreenenter"",""trial"":1,""time"":3462}]",NA,NA,NA,NA,NA,6,#3386FF,#D89F1C,0,10,1,40,0,2667.699999809265,39,0,566.3000001907349,10,0,experiment,NA,NA,2,0.5,0.5,4,5,11,1,NA
fcp-trial,45,385070,0.0-20.0-0.0,voc_e2,11815,"[{""event"":""fullscreenenter"",""trial"":1,""time"":3462}]",NA,NA,NA,NA,NA,6,#FA92F8,#1CD855,10,10,1,40,0,1542.9000000953674,37,1,573.7000000476837,10,1,experiment,NA,NA,0,0.9,0.1,0,1,12,1,NA
fcp-trial,46,388156,0.0-21.0-0.0,voc_e2,11815,"[{""event"":""fullscreenenter"",""trial"":1,""time"":3462}]",NA,NA,NA,NA,NA,5,#FA92F8,#1CD855,10,0,1,40,0,910,39,0,668.4000000953674,0,0,experiment,NA,NA,0,0.9,0.1,0,1,13,1,NA
fcp-trial,47,391256,0.0-22.0-0.0,voc_e2,11815,"[{""event"":""fullscreenenter"",""trial"":1,""time"":3462}]",NA,NA,NA,NA,NA,6,#D8271C,#741CD8,0,10,0,40,0,977.5999999046326,37,1,616,0,0,experiment,NA,NA,1,0.3,0.7,3,2,14,1,NA
fcp-trial,48,394289,0.0-23.0-0.0,voc_e2,11815,"[{""event"":""fullscreenenter"",""trial"":1,""time"":3462}]",NA,NA,NA,NA,NA,4,#3386FF,#D89F1C,10,0,1,40,0,770.7000000476837,37,1,753.5,10,1,experiment,NA,NA,2,0.5,0.5,4,5,15,1,NA
fcp-trial,49,397748,0.0-24.0-0.0,voc_e2,11815,"[{""event"":""fullscreenenter"",""trial"":1,""time"":3462}]",NA,NA,NA,NA,NA,3,#D8271C,#741CD8,0,10,0,40,0,1397.5,37,1,554.2999999523163,0,0,experiment,NA,NA,1,0.3,0.7,3,2,16,1,NA
fcp-trial,50,401101,0.0-25.0-0.0,voc_e2,11815,"[{""event"":""fullscreenenter"",""trial"":1,""time"":3462}]",NA,NA,NA,NA,NA,0,#FA92F8,#1CD855,0,0,1,38,1,914.7999999523163,37,1,932,0,1,experiment,NA,NA,0,0.9,0.1,0,1,17,1,NA
fcp-trial,51,404470,0.0-26.0-0.0,voc_e2,11815,"[{""event"":""fullscreenenter"",""trial"":1,""time"":3462}]",NA,NA,NA,NA,NA,2,#741CD8,#D8271C,0,0,1,40,0,1145.2000000476837,39,0,715.7999999523163,0,0,experiment,NA,NA,1,0.7,0.3,2,3,18,1,NA
fcp-trial,52,407841,0.0-27.0-0.0,voc_e2,11815,"[{""event"":""fullscreenenter"",""trial"":1,""time"":3462}]",NA,NA,NA,NA,NA,1,#3386FF,#D89F1C,10,10,1,38,1,1391.2000000476837,37,1,474.90000009536743,10,1,experiment,NA,NA,2,0.5,0.5,4,5,19,1,NA
fcp-trial,53,410931,0.0-28.0-0.0,voc_e2,11815,"[{""event"":""fullscreenenter"",""trial"":1,""time"":3462}]",NA,NA,NA,NA,NA,5,#741CD8,#D8271C,0,0,1,40,0,1020.2000000476837,39,0,561.2000000476837,0,0,experiment,NA,NA,1,0.7,0.3,2,3,20,1,NA
fcp-trial,54,414681,0.0-29.0-0.0,voc_e2,11815,"[{""event"":""fullscreenenter"",""trial"":1,""time"":3462}]",NA,NA,NA,NA,NA,3,#D89F1C,#3386FF,0,10,0,40,0,1806.5,39,0,435.2999999523163,10,1,experiment,NA,NA,2,0.5,0.5,5,4,21,1,NA
fcp-trial,55,418063,0.0-30.0-0.0,voc_e2,11815,"[{""event"":""fullscreenenter"",""trial"":1,""time"":3462}]",NA,NA,NA,NA,NA,2,#1CD855,#FA92F8,0,10,0,40,0,1382.9000000953674,39,0,494.2000000476837,10,1,experiment,NA,NA,0,0.1,0.9,1,0,22,1,NA
fcp-trial,56,421812,0.0-31.0-0.0,voc_e2,11815,"[{""event"":""fullscreenenter"",""trial"":1,""time"":3462}]",NA,NA,NA,NA,NA,1,#741CD8,#D8271C,10,0,1,38,1,1574.7000000476837,37,1,668.4000000953674,10,1,experiment,NA,NA,1,0.7,0.3,2,3,23,1,NA
fcp-trial,57,426218,0.0-32.0-0.0,voc_e2,11815,"[{""event"":""fullscreenenter"",""trial"":1,""time"":3462}]",NA,NA,NA,NA,NA,4,#1CD855,#FA92F8,0,10,0,40,0,2199.899999856949,37,1,701.7000000476837,0,0,experiment,NA,NA,0,0.1,0.9,1,0,24,1,NA
fcp-trial,58,429546,0.0-33.0-0.0,voc_e2,11815,"[{""event"":""fullscreenenter"",""trial"":1,""time"":3462}]",NA,NA,NA,NA,NA,3,#1CD855,#FA92F8,0,10,0,38,1,1404.1000001430511,39,0,415.7000000476837,10,1,experiment,NA,NA,0,0.1,0.9,1,0,25,1,NA
fcp-trial,59,432950,0.0-34.0-0.0,voc_e2,11815,"[{""event"":""fullscreenenter"",""trial"":1,""time"":3462}]",NA,NA,NA,NA,NA,2,#D89F1C,#3386FF,10,0,0,38,1,1452.1000001430511,39,0,440.2999999523163,0,1,experiment,NA,NA,2,0.5,0.5,5,4,26,1,NA
fcp-trial,60,436090,0.0-35.0-0.0,voc_e2,11815,"[{""event"":""fullscreenenter"",""trial"":1,""time"":3462}]",NA,NA,NA,NA,NA,5,#D89F1C,#3386FF,10,0,0,40,0,1114.7000000476837,37,1,520,10,0,experiment,NA,NA,2,0.5,0.5,5,4,27,1,NA
fcp-trial,61,439616,0.0-36.0-0.0,voc_e2,11815,"[{""event"":""fullscreenenter"",""trial"":1,""time"":3462}]",NA,NA,NA,NA,NA,3,#D8271C,#741CD8,0,0,0,40,0,1470.2000000476837,37,1,547.9000000953674,0,0,experiment,NA,NA,1,0.3,0.7,3,2,28,1,NA
fcp-trial,62,442776,0.0-37.0-0.0,voc_e2,11815,"[{""event"":""fullscreenenter"",""trial"":1,""time"":3462}]",NA,NA,NA,NA,NA,0,#3386FF,#D89F1C,10,0,1,38,1,1175.6000001430511,37,1,481.09999990463257,10,1,experiment,NA,NA,2,0.5,0.5,4,5,29,1,NA
fcp-trial,63,447442,0.0-38.0-0.0,voc_e2,11815,"[{""event"":""fullscreenenter"",""trial"":1,""time"":3462}]",NA,NA,NA,NA,NA,1,#1CD855,#FA92F8,0,10,0,38,1,2631.800000190735,39,0,528,10,1,experiment,NA,NA,0,0.1,0.9,1,0,30,1,NA
fcp-trial,64,451204,0.0-39.0-0.0,voc_e2,11815,"[{""event"":""fullscreenenter"",""trial"":1,""time"":3462}]",NA,NA,NA,NA,NA,6,#741CD8,#D8271C,10,10,1,40,0,1632.5,39,0,625.2999999523163,10,0,experiment,NA,NA,1,0.7,0.3,2,3,31,1,NA
fcp-trial,65,454391,0.0-40.0-0.0,voc_e2,11815,"[{""event"":""fullscreenenter"",""trial"":1,""time"":3462}]",NA,NA,NA,NA,NA,6,#3386FF,#D89F1C,0,0,1,40,0,1178,37,1,500.30000019073486,0,1,experiment,NA,NA,2,0.5,0.5,4,5,32,1,NA
fcp-trial,66,457641,0.0-41.0-0.0,voc_e2,11815,"[{""event"":""fullscreenenter"",""trial"":1,""time"":3462}]",NA,NA,NA,NA,NA,0,#1CD855,#FA92F8,0,10,0,38,1,1311.5,39,0,431.7999999523163,10,1,experiment,NA,NA,0,0.1,0.9,1,0,33,1,NA
fcp-trial,67,460671,0.0-42.0-0.0,voc_e2,11815,"[{""event"":""fullscreenenter"",""trial"":1,""time"":3462}]",NA,NA,NA,NA,NA,2,#741CD8,#D8271C,0,0,1,38,1,894,37,1,629.7000000476837,0,1,experiment,NA,NA,1,0.7,0.3,2,3,34,1,NA
fcp-trial,68,463839,0.0-43.0-0.0,voc_e2,11815,"[{""event"":""fullscreenenter"",""trial"":1,""time"":3462}]",NA,NA,NA,NA,NA,4,#3386FF,#D89F1C,10,0,1,40,0,1150.5,37,1,512.1000001430511,10,1,experiment,NA,NA,2,0.5,0.5,4,5,35,1,NA
fcp-trial,69,466761,0.0-44.0-0.0,voc_e2,11815,"[{""event"":""fullscreenenter"",""trial"":1,""time"":3462}]",NA,NA,NA,NA,NA,5,#FA92F8,#1CD855,10,0,1,40,0,909.4000000953674,37,1,506.5,10,1,experiment,NA,NA,0,0.9,0.1,0,1,36,1,NA
fcp-trial,70,469689,0.0-45.0-0.0,voc_e2,11815,"[{""event"":""fullscreenenter"",""trial"":1,""time"":3462}]",NA,NA,NA,NA,NA,4,#D8271C,#741CD8,0,10,0,40,0,936.5999999046326,39,0,485.2999999523163,10,1,experiment,NA,NA,1,0.3,0.7,3,2,37,1,NA
fcp-trial,71,472927,0.0-46.0-0.0,voc_e2,11815,"[{""event"":""fullscreenenter"",""trial"":1,""time"":3462}]",NA,NA,NA,NA,NA,0,#741CD8,#D8271C,0,0,1,38,1,1258.5999999046326,37,1,471.7999999523163,0,1,experiment,NA,NA,1,0.7,0.3,2,3,38,1,NA
fcp-trial,72,476148,0.0-47.0-0.0,voc_e2,11815,"[{""event"":""fullscreenenter"",""trial"":1,""time"":3462}]",NA,NA,NA,NA,NA,3,#D89F1C,#3386FF,10,10,0,38,1,1146.3000001907349,39,0,570.4000000953674,10,1,experiment,NA,NA,2,0.5,0.5,5,4,39,1,NA
fcp-trial,73,479188,0.0-48.0-0.0,voc_e2,11815,"[{""event"":""fullscreenenter"",""trial"":1,""time"":3462}]",NA,NA,NA,NA,NA,1,#3386FF,#D89F1C,10,0,1,38,1,866.7999999523163,37,1,667.5,10,1,experiment,NA,NA,2,0.5,0.5,4,5,40,1,NA
fcp-trial,74,482348,0.0-49.0-0.0,voc_e2,11815,"[{""event"":""fullscreenenter"",""trial"":1,""time"":3462}]",NA,NA,NA,NA,NA,6,#1CD855,#FA92F8,0,10,0,40,0,1125.5999999046326,37,1,530.7999999523163,0,0,experiment,NA,NA,0,0.1,0.9,1,0,41,1,NA
fcp-trial,75,485519,0.0-50.0-0.0,voc_e2,11815,"[{""event"":""fullscreenenter"",""trial"":1,""time"":3462}]",NA,NA,NA,NA,NA,5,#741CD8,#D8271C,10,10,1,40,0,1169.7000000476837,37,1,496.5,10,1,experiment,NA,NA,1,0.7,0.3,2,3,42,1,NA
fcp-trial,76,488887,0.0-51.0-0.0,voc_e2,11815,"[{""event"":""fullscreenenter"",""trial"":1,""time"":3462}]",NA,NA,NA,NA,NA,3,#D8271C,#741CD8,10,10,0,38,1,1399,39,0,457.40000009536743,10,1,experiment,NA,NA,1,0.3,0.7,3,2,43,1,NA
fcp-trial,77,492202,0.0-52.0-0.0,voc_e2,11815,"[{""event"":""fullscreenenter"",""trial"":1,""time"":3462}]",NA,NA,NA,NA,NA,0,#FA92F8,#1CD855,10,0,1,38,1,1272.5,37,1,534.5999999046326,10,1,experiment,NA,NA,0,0.9,0.1,0,1,44,1,NA
fcp-trial,78,497301,0.0-53.0-0.0,voc_e2,11815,"[{""event"":""fullscreenenter"",""trial"":1,""time"":3462}]",NA,NA,NA,NA,NA,1,#D8271C,#741CD8,0,10,0,38,1,2808.600000143051,39,0,783.4000000953674,10,1,experiment,NA,NA,1,0.3,0.7,3,2,45,1,NA
fcp-trial,79,500582,0.0-54.0-0.0,voc_e2,11815,"[{""event"":""fullscreenenter"",""trial"":1,""time"":3462}]",NA,NA,NA,NA,NA,6,#D8271C,#741CD8,10,0,0,40,0,1157.7999999523163,37,1,614.8999998569489,10,0,experiment,NA,NA,1,0.3,0.7,3,2,46,2,NA
fcp-trial,80,503543,0.0-55.0-0.0,voc_e2,11815,"[{""event"":""fullscreenenter"",""trial"":1,""time"":3462}]",NA,NA,NA,NA,NA,5,#3386FF,#D89F1C,10,0,1,40,0,920,39,0,530.0999999046326,0,0,experiment,NA,NA,2,0.5,0.5,4,5,47,2,NA
fcp-trial,81,506782,0.0-56.0-0.0,voc_e2,11815,"[{""event"":""fullscreenenter"",""trial"":1,""time"":3462}]",NA,NA,NA,NA,NA,2,#D8271C,#741CD8,10,10,0,38,1,1268.9000000953674,39,0,464.19999980926514,10,1,experiment,NA,NA,1,0.3,0.7,3,2,48,2,NA
fcp-trial,82,511185,0.0-57.0-0.0,voc_e2,11815,"[{""event"":""fullscreenenter"",""trial"":1,""time"":3462}]",NA,NA,NA,NA,NA,3,#1CD855,#FA92F8,0,10,0,38,1,2255.7999999523163,39,0,640.6000001430511,10,1,experiment,NA,NA,0,0.1,0.9,1,0,49,2,NA
fcp-trial,83,514219,0.0-58.0-0.0,voc_e2,11815,"[{""event"":""fullscreenenter"",""trial"":1,""time"":3462}]",NA,NA,NA,NA,NA,2,#FA92F8,#1CD855,10,0,1,38,1,1067.2000000476837,37,1,458.5,10,1,experiment,NA,NA,0,0.9,0.1,0,1,50,2,NA
fcp-trial,84,517416,0.0-59.0-0.0,voc_e2,11815,"[{""event"":""fullscreenenter"",""trial"":1,""time"":3462}]",NA,NA,NA,NA,NA,1,#D89F1C,#3386FF,0,10,0,38,1,1272.1999998092651,39,0,417.7000000476837,10,1,experiment,NA,NA,2,0.5,0.5,5,4,51,2,NA
fcp-trial,85,520602,0.0-60.0-0.0,voc_e2,11815,"[{""event"":""fullscreenenter"",""trial"":1,""time"":3462}]",NA,NA,NA,NA,NA,2,#3386FF,#D89F1C,10,0,1,38,1,1134.5,37,1,543.5,10,1,experiment,NA,NA,2,0.5,0.5,4,5,52,2,NA
fcp-trial,86,523600,0.0-61.0-0.0,voc_e2,11815,"[{""event"":""fullscreenenter"",""trial"":1,""time"":3462}]",NA,NA,NA,NA,NA,4,#741CD8,#D8271C,10,0,1,40,0,999.5999999046326,39,0,493.09999990463257,0,0,experiment,NA,NA,1,0.7,0.3,2,3,53,2,NA
fcp-trial,87,526946,0.0-62.0-0.0,voc_e2,11815,"[{""event"":""fullscreenenter"",""trial"":1,""time"":3462}]",NA,NA,NA,NA,NA,1,#1CD855,#FA92F8,0,10,0,38,1,1462.4000000953674,39,0,376.2999999523163,10,1,experiment,NA,NA,0,0.1,0.9,1,0,54,2,NA
fcp-trial,88,530581,0.0-63.0-0.0,voc_e2,11815,"[{""event"":""fullscreenenter"",""trial"":1,""time"":3462}]",NA,NA,NA,NA,NA,6,#D89F1C,#3386FF,0,10,0,38,1,1039.3999998569489,39,0,1091.7999999523165,10,1,experiment,NA,NA,2,0.5,0.5,5,4,55,2,NA
fcp-trial,89,533783,0.0-64.0-0.0,voc_e2,11815,"[{""event"":""fullscreenenter"",""trial"":1,""time"":3462}]",NA,NA,NA,NA,NA,4,#1CD855,#FA92F8,0,10,0,40,0,1255.5999999046326,39,0,439.2000000476837,10,1,experiment,NA,NA,0,0.1,0.9,1,0,56,2,NA
fcp-trial,90,537268,0.0-65.0-0.0,voc_e2,11815,"[{""event"":""fullscreenenter"",""trial"":1,""time"":3462}]",NA,NA,NA,NA,NA,0,#D8271C,#741CD8,10,10,0,38,1,1138.6999998092651,39,0,840,10,1,experiment,NA,NA,1,0.3,0.7,3,2,57,2,NA
fcp-trial,91,540233,0.0-66.0-0.0,voc_e2,11815,"[{""event"":""fullscreenenter"",""trial"":1,""time"":3462}]",NA,NA,NA,NA,NA,0,#D89F1C,#3386FF,0,10,0,38,1,960.6999998092651,39,0,493.09999990463257,10,1,experiment,NA,NA,2,0.5,0.5,5,4,58,2,NA
fcp-trial,92,543520,0.0-67.0-0.0,voc_e2,11815,"[{""event"":""fullscreenenter"",""trial"":1,""time"":3462}]",NA,NA,NA,NA,NA,4,#D89F1C,#3386FF,10,0,0,40,0,1038.0999999046326,37,1,739.0999999046326,10,0,experiment,NA,NA,2,0.5,0.5,5,4,59,2,NA
fcp-trial,93,546726,0.0-68.0-0.0,voc_e2,11815,"[{""event"":""fullscreenenter"",""trial"":1,""time"":3462}]",NA,NA,NA,NA,NA,5,#1CD855,#FA92F8,0,10,0,40,0,1289.5999999046326,39,0,410.5,10,1,experiment,NA,NA,0,0.1,0.9,1,0,60,2,NA
fcp-trial,94,550599,0.0-69.0-0.0,voc_e2,11815,"[{""event"":""fullscreenenter"",""trial"":1,""time"":3462}]",NA,NA,NA,NA,NA,3,#D89F1C,#3386FF,0,0,0,38,1,1929.9000000953674,39,0,435.7000000476837,0,1,experiment,NA,NA,2,0.5,0.5,5,4,61,2,NA
fcp-trial,95,554105,0.0-70.0-0.0,voc_e2,11815,"[{""event"":""fullscreenenter"",""trial"":1,""time"":3462}]",NA,NA,NA,NA,NA,5,#741CD8,#D8271C,0,0,1,40,0,1481.2999999523163,39,0,517.7999999523163,0,0,experiment,NA,NA,1,0.7,0.3,2,3,62,2,NA
fcp-trial,96,557301,0.0-71.0-0.0,voc_e2,11815,"[{""event"":""fullscreenenter"",""trial"":1,""time"":3462}]",NA,NA,NA,NA,NA,6,#1CD855,#FA92F8,0,10,0,40,0,1272.1999998092651,39,0,419.39999985694885,10,1,experiment,NA,NA,0,0.1,0.9,1,0,63,2,NA
fcp-trial,97,560431,0.0-72.0-0.0,voc_e2,11815,"[{""event"":""fullscreenenter"",""trial"":1,""time"":3462}]",NA,NA,NA,NA,NA,4,#3386FF,#D89F1C,0,10,1,40,0,1148.2000000476837,37,1,473.7000000476837,0,1,experiment,NA,NA,2,0.5,0.5,4,5,64,2,NA
fcp-trial,98,563412,0.0-73.0-0.0,voc_e2,11815,"[{""event"":""fullscreenenter"",""trial"":1,""time"":3462}]",NA,NA,NA,NA,NA,0,#1CD855,#FA92F8,0,10,0,38,1,1106.8999998569489,39,0,366.7000000476837,10,1,experiment,NA,NA,0,0.1,0.9,1,0,65,2,NA
fcp-trial,99,566554,0.0-74.0-0.0,voc_e2,11815,"[{""event"":""fullscreenenter"",""trial"":1,""time"":3462}]",NA,NA,NA,NA,NA,0,#741CD8,#D8271C,10,10,1,38,1,1229.5999999046326,37,1,406.59999990463257,10,1,experiment,NA,NA,1,0.7,0.3,2,3,66,2,NA
fcp-trial,100,569597,0.0-75.0-0.0,voc_e2,11815,"[{""event"":""fullscreenenter"",""trial"":1,""time"":3462}]",NA,NA,NA,NA,NA,1,#D89F1C,#3386FF,10,0,0,38,1,1089.2999999523163,39,0,446.5,0,1,experiment,NA,NA,2,0.5,0.5,5,4,67,2,NA
fcp-trial,101,572756,0.0-76.0-0.0,voc_e2,11815,"[{""event"":""fullscreenenter"",""trial"":1,""time"":3462}]",NA,NA,NA,NA,NA,3,#FA92F8,#1CD855,10,0,1,38,1,1184.2000000476837,37,1,465.7000000476837,10,1,experiment,NA,NA,0,0.9,0.1,0,1,68,2,NA
fcp-trial,102,576099,0.0-77.0-0.0,voc_e2,11815,"[{""event"":""fullscreenenter"",""trial"":1,""time"":3462}]",NA,NA,NA,NA,NA,3,#D89F1C,#3386FF,10,10,0,38,1,1362.5,39,0,466.59999990463257,10,1,experiment,NA,NA,2,0.5,0.5,5,4,69,2,NA
fcp-trial,103,579159,0.0-78.0-0.0,voc_e2,11815,"[{""event"":""fullscreenenter"",""trial"":1,""time"":3462}]",NA,NA,NA,NA,NA,2,#741CD8,#D8271C,10,0,1,38,1,1037.5,37,1,516.4000000953674,10,1,experiment,NA,NA,1,0.7,0.3,2,3,70,2,NA
fcp-trial,104,582676,0.0-79.0-0.0,voc_e2,11815,"[{""event"":""fullscreenenter"",""trial"":1,""time"":3462}]",NA,NA,NA,NA,NA,4,#D8271C,#741CD8,0,0,0,38,1,1546,39,0,466.90000009536743,0,1,experiment,NA,NA,1,0.3,0.7,3,2,71,2,NA
fcp-trial,105,585756,0.0-80.0-0.0,voc_e2,11815,"[{""event"":""fullscreenenter"",""trial"":1,""time"":3462}]",NA,NA,NA,NA,NA,4,#1CD855,#FA92F8,0,0,0,38,1,967.5,39,0,606.2000000476837,0,1,experiment,NA,NA,0,0.1,0.9,1,0,72,2,NA
fcp-trial,106,589130,0.0-81.0-0.0,voc_e2,11815,"[{""event"":""fullscreenenter"",""trial"":1,""time"":3462}]",NA,NA,NA,NA,NA,1,#FA92F8,#1CD855,10,0,1,38,1,915.2000000476837,37,1,955.1000001430511,10,1,experiment,NA,NA,0,0.9,0.1,0,1,73,2,NA
fcp-trial,107,592533,0.0-82.0-0.0,voc_e2,11815,"[{""event"":""fullscreenenter"",""trial"":1,""time"":3462}]",NA,NA,NA,NA,NA,6,#D89F1C,#3386FF,10,0,0,40,0,1243.2000000476837,37,1,653.3999998569489,10,0,experiment,NA,NA,2,0.5,0.5,5,4,74,2,NA
fcp-trial,108,596093,0.0-83.0-0.0,voc_e2,11815,"[{""event"":""fullscreenenter"",""trial"":1,""time"":3462}]",NA,NA,NA,NA,NA,1,#D8271C,#741CD8,10,10,0,38,1,1653.8999998569489,39,0,401.2000000476837,10,1,experiment,NA,NA,1,0.3,0.7,3,2,75,2,NA
fcp-trial,109,599618,0.0-84.0-0.0,voc_e2,11815,"[{""event"":""fullscreenenter"",""trial"":1,""time"":3462}]",NA,NA,NA,NA,NA,5,#FA92F8,#1CD855,10,0,1,40,0,1486.3999998569489,39,0,534.7999999523163,0,0,experiment,NA,NA,0,0.9,0.1,0,1,76,2,NA
fcp-trial,110,602977,0.0-85.0-0.0,voc_e2,11815,"[{""event"":""fullscreenenter"",""trial"":1,""time"":3462}]",NA,NA,NA,NA,NA,5,#741CD8,#D8271C,10,0,1,40,0,1189.7999999523163,39,0,663.4000000953674,0,0,experiment,NA,NA,1,0.7,0.3,2,3,77,2,NA
fcp-trial,111,605899,0.0-86.0-0.0,voc_e2,11815,"[{""event"":""fullscreenenter"",""trial"":1,""time"":3462}]",NA,NA,NA,NA,NA,6,#741CD8,#D8271C,10,10,1,40,0,900.6000001430511,37,1,514.5,10,1,experiment,NA,NA,1,0.7,0.3,2,3,78,2,NA
fcp-trial,112,609421,0.0-87.0-0.0,voc_e2,11815,"[{""event"":""fullscreenenter"",""trial"":1,""time"":3462}]",NA,NA,NA,NA,NA,0,#3386FF,#D89F1C,10,0,1,38,1,1348.1000001430511,37,1,669.2999999523163,10,1,experiment,NA,NA,2,0.5,0.5,4,5,79,2,NA
fcp-trial,113,612560,0.0-88.0-0.0,voc_e2,11815,"[{""event"":""fullscreenenter"",""trial"":1,""time"":3462}]",NA,NA,NA,NA,NA,2,#FA92F8,#1CD855,0,0,1,38,1,1116.1000001430511,37,1,517.7000000476837,0,1,experiment,NA,NA,0,0.9,0.1,0,1,80,2,NA
fcp-trial,114,615594,0.0-89.0-0.0,voc_e2,11815,"[{""event"":""fullscreenenter"",""trial"":1,""time"":3462}]",NA,NA,NA,NA,NA,5,#3386FF,#D89F1C,0,0,1,40,0,1049,39,0,477.89999985694885,0,0,experiment,NA,NA,2,0.5,0.5,4,5,81,2,NA
fcp-trial,115,618643,0.0-90.0-0.0,voc_e2,11815,"[{""event"":""fullscreenenter"",""trial"":1,""time"":3462}]",NA,NA,NA,NA,NA,6,#FA92F8,#1CD855,10,0,1,40,0,983.2000000476837,37,1,561,10,1,experiment,NA,NA,0,0.9,0.1,0,1,82,2,NA
fcp-trial,116,622229,0.0-91.0-0.0,voc_e2,11815,"[{""event"":""fullscreenenter"",""trial"":1,""time"":3462}]",NA,NA,NA,NA,NA,3,#741CD8,#D8271C,10,0,1,38,1,1635.0999999046326,37,1,445.2999999523163,10,1,experiment,NA,NA,1,0.7,0.3,2,3,83,2,NA
fcp-trial,117,625236,0.0-92.0-0.0,voc_e2,11815,"[{""event"":""fullscreenenter"",""trial"":1,""time"":3462}]",NA,NA,NA,NA,NA,2,#D89F1C,#3386FF,0,0,0,38,1,828,39,0,673.2999999523163,0,1,experiment,NA,NA,2,0.5,0.5,5,4,84,2,NA
fcp-trial,118,628412,0.0-93.0-0.0,voc_e2,11815,"[{""event"":""fullscreenenter"",""trial"":1,""time"":3462}]",NA,NA,NA,NA,NA,1,#741CD8,#D8271C,0,0,1,38,1,988.4000000953674,37,1,683.4000000953674,0,1,experiment,NA,NA,1,0.7,0.3,2,3,85,2,NA
fcp-trial,119,631912,0.0-94.0-0.0,voc_e2,11815,"[{""event"":""fullscreenenter"",""trial"":1,""time"":3462}]",NA,NA,NA,NA,NA,5,#1CD855,#FA92F8,0,10,0,40,0,1432.7999999523163,39,0,563.9000000953674,10,1,experiment,NA,NA,0,0.1,0.9,1,0,86,2,NA
fcp-trial,120,634832,0.0-95.0-0.0,voc_e2,11815,"[{""event"":""fullscreenenter"",""trial"":1,""time"":3462}]",NA,NA,NA,NA,NA,0,#D8271C,#741CD8,0,10,0,38,1,1044.5,39,0,367.09999990463257,10,1,experiment,NA,NA,1,0.3,0.7,3,2,87,2,NA
fcp-trial,121,637907,0.0-96.0-0.0,voc_e2,11815,"[{""event"":""fullscreenenter"",""trial"":1,""time"":3462}]",NA,NA,NA,NA,NA,3,#741CD8,#D8271C,10,0,1,38,1,1119,37,1,446.60000014305115,10,1,experiment,NA,NA,1,0.7,0.3,2,3,88,2,NA
fcp-trial,122,641309,0.0-97.0-0.0,voc_e2,11815,"[{""event"":""fullscreenenter"",""trial"":1,""time"":3462}]",NA,NA,NA,NA,NA,1,#1CD855,#FA92F8,0,10,0,38,1,1544.5,39,0,351.7999999523163,10,1,experiment,NA,NA,0,0.1,0.9,1,0,89,2,NA
fcp-trial,123,644562,0.0-98.0-0.0,voc_e2,11815,"[{""event"":""fullscreenenter"",""trial"":1,""time"":3462}]",NA,NA,NA,NA,NA,6,#3386FF,#D89F1C,0,0,1,40,0,1212.3999998569489,37,1,536,0,1,experiment,NA,NA,2,0.5,0.5,4,5,90,2,NA
fcp-trial,124,647687,0.0-99.0-0.0,voc_e2,11815,"[{""event"":""fullscreenenter"",""trial"":1,""time"":3462}]",NA,NA,NA,NA,NA,4,#741CD8,#D8271C,10,0,1,40,0,1089.1999998092651,39,0,527.5,0,0,experiment,NA,NA,1,0.7,0.3,2,3,91,3,NA
fcp-trial,125,650434,0.0-100.0-0.0,voc_e2,11815,"[{""event"":""fullscreenenter"",""trial"":1,""time"":3462}]",NA,NA,NA,NA,NA,0,#FA92F8,#1CD855,10,0,1,38,1,895.3000001907349,37,1,339.30000019073486,10,1,experiment,NA,NA,0,0.9,0.1,0,1,92,3,NA
fcp-trial,126,653336,0.0-101.0-0.0,voc_e2,11815,"[{""event"":""fullscreenenter"",""trial"":1,""time"":3462}]",NA,NA,NA,NA,NA,4,#1CD855,#FA92F8,0,10,0,40,0,878.6999998092651,39,0,516.7000000476837,10,1,experiment,NA,NA,0,0.1,0.9,1,0,93,3,NA
fcp-trial,127,656602,0.0-102.0-0.0,voc_e2,11815,"[{""event"":""fullscreenenter"",""trial"":1,""time"":3462}]",NA,NA,NA,NA,NA,5,#D8271C,#741CD8,0,10,0,40,0,874.5,37,1,885.0999999046326,0,0,experiment,NA,NA,1,0.3,0.7,3,2,94,3,NA
fcp-trial,128,659494,0.0-103.0-0.0,voc_e2,11815,"[{""event"":""fullscreenenter"",""trial"":1,""time"":3462}]",NA,NA,NA,NA,NA,1,#3386FF,#D89F1C,10,10,1,38,1,813.2999999523163,37,1,574,10,1,experiment,NA,NA,2,0.5,0.5,4,5,95,3,NA
fcp-trial,129,662899,0.0-104.0-0.0,voc_e2,11815,"[{""event"":""fullscreenenter"",""trial"":1,""time"":3462}]",NA,NA,NA,NA,NA,4,#D89F1C,#3386FF,10,10,0,40,0,1278.0999999046326,37,1,619.2999999523163,10,0,experiment,NA,NA,2,0.5,0.5,5,4,96,3,NA
fcp-trial,130,666655,0.0-105.0-0.0,voc_e2,11815,"[{""event"":""fullscreenenter"",""trial"":1,""time"":3462}]",NA,NA,NA,NA,NA,3,#FA92F8,#1CD855,10,0,1,38,1,1855.7999999523163,37,1,393.89999985694885,10,1,experiment,NA,NA,0,0.9,0.1,0,1,97,3,NA
fcp-trial,131,670498,0.0-106.0-0.0,voc_e2,11815,"[{""event"":""fullscreenenter"",""trial"":1,""time"":3462}]",NA,NA,NA,NA,NA,2,#1CD855,#FA92F8,0,10,0,38,1,1583.5999999046326,39,0,751.5999999046326,10,1,experiment,NA,NA,0,0.1,0.9,1,0,98,3,NA
fcp-trial,132,673782,0.0-107.0-0.0,voc_e2,11815,"[{""event"":""fullscreenenter"",""trial"":1,""time"":3462}]",NA,NA,NA,NA,NA,6,#D8271C,#741CD8,10,0,0,40,0,1353.5,39,0,423.40000009536743,0,1,experiment,NA,NA,1,0.3,0.7,3,2,99,3,NA
fcp-trial,133,676939,0.0-108.0-0.0,voc_e2,11815,"[{""event"":""fullscreenenter"",""trial"":1,""time"":3462}]",NA,NA,NA,NA,NA,0,#D89F1C,#3386FF,0,0,0,38,1,1268.5,39,0,380.7999999523163,0,1,experiment,NA,NA,2,0.5,0.5,5,4,100,3,NA
fcp-trial,134,680304,0.0-109.0-0.0,voc_e2,11815,"[{""event"":""fullscreenenter"",""trial"":1,""time"":3462}]",NA,NA,NA,NA,NA,2,#741CD8,#D8271C,0,10,1,38,1,1279.2999999523163,37,1,579.7999999523163,0,1,experiment,NA,NA,1,0.7,0.3,2,3,101,3,NA
fcp-trial,135,683405,0.0-110.0-0.0,voc_e2,11815,"[{""event"":""fullscreenenter"",""trial"":1,""time"":3462}]",NA,NA,NA,NA,NA,6,#FA92F8,#1CD855,10,0,1,40,0,1111.9000000953674,39,0,484.90000009536743,0,0,experiment,NA,NA,0,0.9,0.1,0,1,102,3,NA
fcp-trial,136,686796,0.0-111.0-0.0,voc_e2,11815,"[{""event"":""fullscreenenter"",""trial"":1,""time"":3462}]",NA,NA,NA,NA,NA,2,#3386FF,#D89F1C,10,0,1,38,1,1477.7000000476837,37,1,410.59999990463257,10,1,experiment,NA,NA,2,0.5,0.5,4,5,103,3,NA
fcp-trial,137,690096,0.0-112.0-0.0,voc_e2,11815,"[{""event"":""fullscreenenter"",""trial"":1,""time"":3462}]",NA,NA,NA,NA,NA,5,#D89F1C,#3386FF,10,0,0,40,0,1106.2999999523163,37,1,686.7000000476837,10,0,experiment,NA,NA,2,0.5,0.5,5,4,104,3,NA
fcp-trial,138,693149,0.0-113.0-0.0,voc_e2,11815,"[{""event"":""fullscreenenter"",""trial"":1,""time"":3462}]",NA,NA,NA,NA,NA,3,#D89F1C,#3386FF,10,10,0,38,1,1133.4000000953674,39,0,415.40000009536743,10,1,experiment,NA,NA,2,0.5,0.5,5,4,105,3,NA
audio-instructions,139,786766,0.0-114.0,voc_e2,11815,"[{""event"":""fullscreenenter"",""trial"":1,""time"":3462}]",NA,88849.89999985695,static/audio/pause.wav,NA,0,NA,NA,NA,NA,NA,NA,NA,NA,NA,NA,NA,NA,NA,NA,NA,NA,NA,NA,NA,NA,NA,NA,NA,NA,NA
fcp-trial,140,790613,0.0-115.0-0.0,voc_e2,11815,"[{""event"":""fullscreenenter"",""trial"":1,""time"":3462}]",NA,NA,NA,NA,NA,2,#3386FF,#D89F1C,10,0,1,38,1,1747.3999998569489,37,1,590.2999999523163,10,1,experiment,NA,NA,2,0.5,0.5,4,5,106,3,NA
fcp-trial,141,793418,0.0-116.0-0.0,voc_e2,11815,"[{""event"":""fullscreenenter"",""trial"":1,""time"":3462}]",NA,NA,NA,NA,NA,2,#FA92F8,#1CD855,10,10,1,38,1,998.5,37,1,299.09999990463257,10,1,experiment,NA,NA,0,0.9,0.1,0,1,107,3,NA
fcp-trial,142,795857,0.0-117.0-0.0,voc_e2,11815,"[{""event"":""fullscreenenter"",""trial"":1,""time"":3462}]",NA,NA,NA,NA,NA,0,#D8271C,#741CD8,0,10,0,38,1,666.8999998569489,39,0,267.2999999523163,10,1,experiment,NA,NA,1,0.3,0.7,3,2,108,3,NA
fcp-trial,143,799080,0.0-118.0-0.0,voc_e2,11815,"[{""event"":""fullscreenenter"",""trial"":1,""time"":3462}]",NA,NA,NA,NA,NA,4,#3386FF,#D89F1C,10,0,1,40,0,1108.5,39,0,608.4000000953674,0,0,experiment,NA,NA,2,0.5,0.5,4,5,109,3,NA
fcp-trial,144,802249,0.0-119.0-0.0,voc_e2,11815,"[{""event"":""fullscreenenter"",""trial"":1,""time"":3462}]",NA,NA,NA,NA,NA,6,#741CD8,#D8271C,10,10,1,40,0,1188.6000001430511,39,0,475.90000009536743,10,0,experiment,NA,NA,1,0.7,0.3,2,3,110,3,NA
fcp-trial,145,804977,0.0-120.0-0.0,voc_e2,11815,"[{""event"":""fullscreenenter"",""trial"":1,""time"":3462}]",NA,NA,NA,NA,NA,6,#FA92F8,#1CD855,10,0,1,40,0,732.1999998092651,37,1,491.30000019073486,10,1,experiment,NA,NA,0,0.9,0.1,0,1,111,3,NA
fcp-trial,146,807812,0.0-121.0-0.0,voc_e2,11815,"[{""event"":""fullscreenenter"",""trial"":1,""time"":3462}]",NA,NA,NA,NA,NA,5,#741CD8,#D8271C,10,0,1,40,0,917,39,0,413.39999985694885,0,0,experiment,NA,NA,1,0.7,0.3,2,3,112,3,NA
fcp-trial,147,810252,0.0-122.0-0.0,voc_e2,11815,"[{""event"":""fullscreenenter"",""trial"":1,""time"":3462}]",NA,NA,NA,NA,NA,0,#D89F1C,#3386FF,0,10,0,38,1,614,39,0,320.90000009536743,10,1,experiment,NA,NA,2,0.5,0.5,5,4,113,3,NA
fcp-trial,148,813364,0.0-123.0-0.0,voc_e2,11815,"[{""event"":""fullscreenenter"",""trial"":1,""time"":3462}]",NA,NA,NA,NA,NA,3,#D8271C,#741CD8,0,0,0,38,1,1131,39,0,473.59999990463257,0,1,experiment,NA,NA,1,0.3,0.7,3,2,114,3,NA
fcp-trial,149,816272,0.0-124.0-0.0,voc_e2,11815,"[{""event"":""fullscreenenter"",""trial"":1,""time"":3462}]",NA,NA,NA,NA,NA,6,#D89F1C,#3386FF,10,0,0,40,0,961.9000000953674,39,0,439.59999990463257,0,1,experiment,NA,NA,2,0.5,0.5,5,4,115,3,NA
fcp-trial,150,819292,0.0-125.0-0.0,voc_e2,11815,"[{""event"":""fullscreenenter"",""trial"":1,""time"":3462}]",NA,NA,NA,NA,NA,1,#1CD855,#FA92F8,0,10,0,38,1,1072.7999999523163,39,0,442.60000014305115,10,1,experiment,NA,NA,0,0.1,0.9,1,0,116,3,NA
fcp-trial,151,822126,0.0-126.0-0.0,voc_e2,11815,"[{""event"":""fullscreenenter"",""trial"":1,""time"":3462}]",NA,NA,NA,NA,NA,4,#D8271C,#741CD8,0,10,0,38,1,891.8999998569489,39,0,436.7999999523163,10,1,experiment,NA,NA,1,0.3,0.7,3,2,117,3,NA
fcp-trial,152,825373,0.0-127.0-0.0,voc_e2,11815,"[{""event"":""fullscreenenter"",""trial"":1,""time"":3462}]",NA,NA,NA,NA,NA,3,#3386FF,#D89F1C,0,10,1,38,1,1210.3000001907349,37,1,520.5,0,1,experiment,NA,NA,2,0.5,0.5,4,5,118,3,NA
fcp-trial,153,828597,0.0-128.0-0.0,voc_e2,11815,"[{""event"":""fullscreenenter"",""trial"":1,""time"":3462}]",NA,NA,NA,NA,NA,1,#D8271C,#741CD8,0,10,0,38,1,1399,39,0,320.5,10,1,experiment,NA,NA,1,0.3,0.7,3,2,119,3,NA
fcp-trial,154,831408,0.0-129.0-0.0,voc_e2,11815,"[{""event"":""fullscreenenter"",""trial"":1,""time"":3462}]",NA,NA,NA,NA,NA,3,#1CD855,#FA92F8,0,10,0,38,1,928.8999998569489,39,0,375.7000000476837,10,1,experiment,NA,NA,0,0.1,0.9,1,0,120,3,NA
fcp-trial,155,834393,0.0-130.0-0.0,voc_e2,11815,"[{""event"":""fullscreenenter"",""trial"":1,""time"":3462}]",NA,NA,NA,NA,NA,0,#1CD855,#FA92F8,0,10,0,38,1,1138.5,39,0,338.7999999523163,10,1,experiment,NA,NA,0,0.1,0.9,1,0,121,3,NA
fcp-trial,156,838516,0.0-131.0-0.0,voc_e2,11815,"[{""event"":""fullscreenenter"",""trial"":1,""time"":3462}]",NA,NA,NA,NA,NA,5,#3386FF,#D89F1C,0,10,1,40,0,1081.7000000476837,39,0,1533.0999999046326,10,0,experiment,NA,NA,2,0.5,0.5,4,5,122,3,NA
fcp-trial,157,841517,0.0-132.0-0.0,voc_e2,11815,"[{""event"":""fullscreenenter"",""trial"":1,""time"":3462}]",NA,NA,NA,NA,NA,2,#D8271C,#741CD8,0,0,0,38,1,1141.3999998569489,39,0,352.7000000476837,0,1,experiment,NA,NA,1,0.3,0.7,3,2,123,3,NA
fcp-trial,158,844990,0.0-133.0-0.0,voc_e2,11815,"[{""event"":""fullscreenenter"",""trial"":1,""time"":3462}]",NA,NA,NA,NA,NA,1,#3386FF,#D89F1C,10,0,1,38,1,1497.3000001907349,37,1,469.2000000476837,10,1,experiment,NA,NA,2,0.5,0.5,4,5,124,3,NA
fcp-trial,159,848214,0.0-134.0-0.0,voc_e2,11815,"[{""event"":""fullscreenenter"",""trial"":1,""time"":3462}]",NA,NA,NA,NA,NA,4,#1CD855,#FA92F8,0,10,0,40,0,1325.9000000953674,39,0,392.2000000476837,10,1,experiment,NA,NA,0,0.1,0.9,1,0,125,3,NA
fcp-trial,160,851268,0.0-135.0-0.0,voc_e2,11815,"[{""event"":""fullscreenenter"",""trial"":1,""time"":3462}]",NA,NA,NA,NA,NA,5,#1CD855,#FA92F8,0,10,0,40,0,1130.7999999523163,39,0,415.09999990463257,10,1,experiment,NA,NA,0,0.1,0.9,1,0,126,3,NA
fcp-trial,161,854159,0.0-136.0-0.0,voc_e2,11815,"[{""event"":""fullscreenenter"",""trial"":1,""time"":3462}]",NA,NA,NA,NA,NA,2,#3386FF,#D89F1C,0,10,1,38,1,1009.0999999046326,37,1,375.59999990463257,0,1,experiment,NA,NA,2,0.5,0.5,4,5,127,3,NA
fcp-trial,162,857328,0.0-137.0-0.0,voc_e2,11815,"[{""event"":""fullscreenenter"",""trial"":1,""time"":3462}]",NA,NA,NA,NA,NA,3,#741CD8,#D8271C,0,10,1,38,1,1038.5999999046326,37,1,620,0,1,experiment,NA,NA,1,0.7,0.3,2,3,128,3,NA
fcp-trial,163,860280,0.0-138.0-0.0,voc_e2,11815,"[{""event"":""fullscreenenter"",""trial"":1,""time"":3462}]",NA,NA,NA,NA,NA,4,#D8271C,#741CD8,0,10,0,38,1,1135.5,39,0,310.90000009536743,10,1,experiment,NA,NA,1,0.3,0.7,3,2,129,3,NA
fcp-trial,164,863553,0.0-139.0-0.0,voc_e2,11815,"[{""event"":""fullscreenenter"",""trial"":1,""time"":3462}]",NA,NA,NA,NA,NA,2,#741CD8,#D8271C,0,0,1,38,1,809.2999999523163,37,1,959,0,1,experiment,NA,NA,1,0.7,0.3,2,3,130,3,NA
fcp-trial,165,866565,0.0-140.0-0.0,voc_e2,11815,"[{""event"":""fullscreenenter"",""trial"":1,""time"":3462}]",NA,NA,NA,NA,NA,4,#1CD855,#FA92F8,0,10,0,38,1,1195.7000000476837,39,0,304.2000000476837,10,1,experiment,NA,NA,0,0.1,0.9,1,0,131,3,NA
fcp-trial,166,869557,0.0-141.0-0.0,voc_e2,11815,"[{""event"":""fullscreenenter"",""trial"":1,""time"":3462}]",NA,NA,NA,NA,NA,6,#3386FF,#D89F1C,10,10,1,40,0,971.5,37,1,514.1999998092651,10,1,experiment,NA,NA,2,0.5,0.5,4,5,132,3,NA
fcp-trial,167,872497,0.0-142.0-0.0,voc_e2,11815,"[{""event"":""fullscreenenter"",""trial"":1,""time"":3462}]",NA,NA,NA,NA,NA,0,#FA92F8,#1CD855,10,0,1,38,1,1069.1000001430511,37,1,364.59999990463257,10,1,experiment,NA,NA,0,0.9,0.1,0,1,133,3,NA
fcp-trial,168,875088,0.0-143.0-0.0,voc_e2,11815,"[{""event"":""fullscreenenter"",""trial"":1,""time"":3462}]",NA,NA,NA,NA,NA,2,#FA92F8,#1CD855,10,0,1,38,1,734.2999999523163,37,1,350.5,10,1,experiment,NA,NA,0,0.9,0.1,0,1,134,3,NA
fcp-trial,169,878255,0.0-144.0-0.0,voc_e2,11815,"[{""event"":""fullscreenenter"",""trial"":1,""time"":3462}]",NA,NA,NA,NA,NA,6,#741CD8,#D8271C,10,0,1,40,0,1105.5,37,1,556.4000000953674,10,1,experiment,NA,NA,1,0.7,0.3,2,3,135,3,NA
fcp-trial,170,881689,0.0-145.0-0.0,voc_e2,11815,"[{""event"":""fullscreenenter"",""trial"":1,""time"":3462}]",NA,NA,NA,NA,NA,5,#FA92F8,#1CD855,10,0,1,40,0,1313.3999998569489,39,0,613.1000001430511,0,0,experiment,NA,NA,0,0.9,0.1,0,1,136,4,NA
fcp-trial,171,884897,0.0-146.0-0.0,voc_e2,11815,"[{""event"":""fullscreenenter"",""trial"":1,""time"":3462}]",NA,NA,NA,NA,NA,4,#D89F1C,#3386FF,10,10,0,40,0,1172.5,37,1,529.7999999523163,10,0,experiment,NA,NA,2,0.5,0.5,5,4,137,4,NA
fcp-trial,172,888673,0.0-147.0-0.0,voc_e2,11815,"[{""event"":""fullscreenenter"",""trial"":1,""time"":3462}]",NA,NA,NA,NA,NA,5,#D8271C,#741CD8,0,10,0,40,0,1317.0999999046326,37,1,952.2000000476836,0,0,experiment,NA,NA,1,0.3,0.7,3,2,138,4,NA
fcp-trial,173,892069,0.0-148.0-0.0,voc_e2,11815,"[{""event"":""fullscreenenter"",""trial"":1,""time"":3462}]",NA,NA,NA,NA,NA,0,#3386FF,#D89F1C,0,10,1,38,1,1530.5,37,1,358.39999985694885,0,1,experiment,NA,NA,2,0.5,0.5,4,5,139,4,NA
fcp-trial,174,895779,0.0-149.0-0.0,voc_e2,11815,"[{""event"":""fullscreenenter"",""trial"":1,""time"":3462}]",NA,NA,NA,NA,NA,3,#FA92F8,#1CD855,10,0,1,38,1,1490.4000000953674,37,1,713.2000000476837,10,1,experiment,NA,NA,0,0.9,0.1,0,1,140,4,NA
fcp-trial,175,898763,0.0-150.0-0.0,voc_e2,11815,"[{""event"":""fullscreenenter"",""trial"":1,""time"":3462}]",NA,NA,NA,NA,NA,1,#3386FF,#D89F1C,0,10,1,38,1,1152.4000000953674,37,1,328.2000000476837,0,1,experiment,NA,NA,2,0.5,0.5,4,5,141,4,NA
fcp-trial,176,902310,0.0-151.0-0.0,voc_e2,11815,"[{""event"":""fullscreenenter"",""trial"":1,""time"":3462}]",NA,NA,NA,NA,NA,1,#FA92F8,#1CD855,10,0,1,38,1,1741.2999999523163,37,1,298.09999990463257,10,1,experiment,NA,NA,0,0.9,0.1,0,1,142,4,NA
fcp-trial,177,905596,0.0-152.0-0.0,voc_e2,11815,"[{""event"":""fullscreenenter"",""trial"":1,""time"":3462}]",NA,NA,NA,NA,NA,1,#D8271C,#741CD8,10,10,0,38,1,1185.1000001430511,39,0,594.0999999046326,10,1,experiment,NA,NA,1,0.3,0.7,3,2,143,4,NA
fcp-trial,178,909181,0.0-153.0-0.0,voc_e2,11815,"[{""event"":""fullscreenenter"",""trial"":1,""time"":3462}]",NA,NA,NA,NA,NA,5,#3386FF,#D89F1C,0,10,1,40,0,1232.2999999523163,39,0,846.2000000476837,10,0,experiment,NA,NA,2,0.5,0.5,4,5,144,4,NA
fcp-trial,179,911972,0.0-154.0-0.0,voc_e2,11815,"[{""event"":""fullscreenenter"",""trial"":1,""time"":3462}]",NA,NA,NA,NA,NA,3,#3386FF,#D89F1C,0,0,1,38,1,952.5,37,1,332.2000000476837,0,1,experiment,NA,NA,2,0.5,0.5,4,5,145,4,NA
fcp-trial,180,914983,0.0-155.0-0.0,voc_e2,11815,"[{""event"":""fullscreenenter"",""trial"":1,""time"":3462}]",NA,NA,NA,NA,NA,6,#1CD855,#FA92F8,0,10,0,40,0,1059.8000001907349,37,1,446.90000009536743,0,0,experiment,NA,NA,0,0.1,0.9,1,0,146,4,NA
fcp-trial,181,918010,0.0-156.0-0.0,voc_e2,11815,"[{""event"":""fullscreenenter"",""trial"":1,""time"":3462}]",NA,NA,NA,NA,NA,0,#D8271C,#741CD8,0,0,0,38,1,1181.2999999523163,39,0,335.89999985694885,0,1,experiment,NA,NA,1,0.3,0.7,3,2,147,4,NA
fcp-trial,182,921359,0.0-157.0-0.0,voc_e2,11815,"[{""event"":""fullscreenenter"",""trial"":1,""time"":3462}]",NA,NA,NA,NA,NA,1,#3386FF,#D89F1C,10,0,1,38,1,1393.7000000476837,37,1,452,10,1,experiment,NA,NA,2,0.5,0.5,4,5,148,4,NA
fcp-trial,183,924306,0.0-158.0-0.0,voc_e2,11815,"[{""event"":""fullscreenenter"",""trial"":1,""time"":3462}]",NA,NA,NA,NA,NA,0,#3386FF,#D89F1C,0,10,1,38,1,1044.5999999046326,37,1,398.40000009536743,0,1,experiment,NA,NA,2,0.5,0.5,4,5,149,4,NA
fcp-trial,184,927271,0.0-159.0-0.0,voc_e2,11815,"[{""event"":""fullscreenenter"",""trial"":1,""time"":3462}]",NA,NA,NA,NA,NA,5,#741CD8,#D8271C,10,10,1,40,0,1061.7000000476837,37,1,398.90000009536743,10,1,experiment,NA,NA,1,0.7,0.3,2,3,150,4,NA
fcp-trial,185,930212,0.0-160.0-0.0,voc_e2,11815,"[{""event"":""fullscreenenter"",""trial"":1,""time"":3462}]",NA,NA,NA,NA,NA,0,#741CD8,#D8271C,10,0,1,38,1,1041.8000001907349,37,1,393.90000009536743,10,1,experiment,NA,NA,1,0.7,0.3,2,3,151,4,NA
fcp-trial,186,933131,0.0-161.0-0.0,voc_e2,11815,"[{""event"":""fullscreenenter"",""trial"":1,""time"":3462}]",NA,NA,NA,NA,NA,0,#FA92F8,#1CD855,10,0,1,38,1,995.4000000953674,37,1,418.60000014305115,10,1,experiment,NA,NA,0,0.9,0.1,0,1,152,4,NA
fcp-trial,187,936769,0.0-162.0-0.0,voc_e2,11815,"[{""event"":""fullscreenenter"",""trial"":1,""time"":3462}]",NA,NA,NA,NA,NA,5,#D89F1C,#3386FF,10,10,0,40,0,1754,39,0,379.59999990463257,10,1,experiment,NA,NA,2,0.5,0.5,5,4,153,4,NA
fcp-trial,188,939541,0.0-163.0-0.0,voc_e2,11815,"[{""event"":""fullscreenenter"",""trial"":1,""time"":3462}]",NA,NA,NA,NA,NA,1,#1CD855,#FA92F8,0,10,0,38,1,907.7999999523163,39,0,355,10,1,experiment,NA,NA,0,0.1,0.9,1,0,154,4,NA
fcp-trial,189,942400,0.0-164.0-0.0,voc_e2,11815,"[{""event"":""fullscreenenter"",""trial"":1,""time"":3462}]",NA,NA,NA,NA,NA,3,#FA92F8,#1CD855,10,0,1,38,1,912.2999999523163,37,1,442.2999999523163,10,1,experiment,NA,NA,0,0.9,0.1,0,1,155,4,NA
fcp-trial,190,945606,0.0-165.0-0.0,voc_e2,11815,"[{""event"":""fullscreenenter"",""trial"":1,""time"":3462}]",NA,NA,NA,NA,NA,1,#D8271C,#741CD8,10,10,0,38,1,1310.7000000476837,39,0,391.7999999523163,10,1,experiment,NA,NA,1,0.3,0.7,3,2,156,4,NA
fcp-trial,191,950936,0.0-166.0-0.0,voc_e2,11815,"[{""event"":""fullscreenenter"",""trial"":1,""time"":3462}]",NA,NA,NA,NA,NA,2,#D8271C,#741CD8,0,10,0,38,1,3494.2999999523163,39,0,329.7000000476837,10,1,experiment,NA,NA,1,0.3,0.7,3,2,157,4,NA
fcp-trial,192,954264,0.0-167.0-0.0,voc_e2,11815,"[{""event"":""fullscreenenter"",""trial"":1,""time"":3462}]",NA,NA,NA,NA,NA,2,#3386FF,#D89F1C,10,0,1,38,1,1465.0999999046326,37,1,357.7000000476837,10,1,experiment,NA,NA,2,0.5,0.5,4,5,158,4,NA
fcp-trial,193,958495,0.0-168.0-0.0,voc_e2,11815,"[{""event"":""fullscreenenter"",""trial"":1,""time"":3462}]",NA,NA,NA,NA,NA,3,#3386FF,#D89F1C,10,10,1,38,1,1840.2000000476837,37,1,885.1999998092651,10,1,experiment,NA,NA,2,0.5,0.5,4,5,159,4,NA
fcp-trial,194,961548,0.0-169.0-0.0,voc_e2,11815,"[{""event"":""fullscreenenter"",""trial"":1,""time"":3462}]",NA,NA,NA,NA,NA,6,#FA92F8,#1CD855,10,0,1,40,0,1075.8000001907349,37,1,472.2000000476837,10,1,experiment,NA,NA,0,0.9,0.1,0,1,160,4,NA
fcp-trial,195,964883,0.0-170.0-0.0,voc_e2,11815,"[{""event"":""fullscreenenter"",""trial"":1,""time"":3462}]",NA,NA,NA,NA,NA,4,#D8271C,#741CD8,0,0,0,40,0,1229.9000000953674,37,1,595.6000001430511,0,0,experiment,NA,NA,1,0.3,0.7,3,2,161,4,NA
fcp-trial,196,969595,0.0-171.0-0.0,voc_e2,11815,"[{""event"":""fullscreenenter"",""trial"":1,""time"":3462}]",NA,NA,NA,NA,NA,6,#D89F1C,#3386FF,0,0,0,40,0,2594.899999856949,37,1,606.3999998569489,0,0,experiment,NA,NA,2,0.5,0.5,5,4,162,4,NA
fcp-trial,197,975175,0.0-172.0-0.0,voc_e2,11815,"[{""event"":""fullscreenenter"",""trial"":1,""time"":3462}]",NA,NA,NA,NA,NA,5,#FA92F8,#1CD855,10,0,1,40,0,3161.0999999046326,39,0,911.6000001430511,0,0,experiment,NA,NA,0,0.9,0.1,0,1,163,4,NA
fcp-trial,198,979696,0.0-173.0-0.0,voc_e2,11815,"[{""event"":""fullscreenenter"",""trial"":1,""time"":3462}]",NA,NA,NA,NA,NA,3,#741CD8,#D8271C,0,0,1,38,1,2684.5,37,1,331.89999985694885,0,1,experiment,NA,NA,1,0.7,0.3,2,3,164,4,NA
fcp-trial,199,982958,0.0-174.0-0.0,voc_e2,11815,"[{""event"":""fullscreenenter"",""trial"":1,""time"":3462}]",NA,NA,NA,NA,NA,4,#FA92F8,#1CD855,10,10,1,40,0,990.5,39,0,767.5,10,0,experiment,NA,NA,0,0.9,0.1,0,1,165,4,NA
fcp-trial,200,986853,0.0-175.0-0.0,voc_e2,11815,"[{""event"":""fullscreenenter"",""trial"":1,""time"":3462}]",NA,NA,NA,NA,NA,2,#1CD855,#FA92F8,0,10,0,38,1,2065.399999856949,39,0,323.7999999523163,10,1,experiment,NA,NA,0,0.1,0.9,1,0,166,4,NA
fcp-trial,201,990427,0.0-176.0-0.0,voc_e2,11815,"[{""event"":""fullscreenenter"",""trial"":1,""time"":3462}]",NA,NA,NA,NA,NA,4,#D89F1C,#3386FF,0,0,0,38,1,1715.6999998092651,39,0,355,0,1,experiment,NA,NA,2,0.5,0.5,5,4,167,4,NA
fcp-trial,202,994644,0.0-177.0-0.0,voc_e2,11815,"[{""event"":""fullscreenenter"",""trial"":1,""time"":3462}]",NA,NA,NA,NA,NA,6,#D8271C,#741CD8,0,10,0,40,0,2309.7999999523163,39,0,400.5,10,1,experiment,NA,NA,1,0.3,0.7,3,2,168,4,NA
fcp-trial,203,999577,0.0-178.0-0.0,voc_e2,11815,"[{""event"":""fullscreenenter"",""trial"":1,""time"":3462}]",NA,NA,NA,NA,NA,1,#3386FF,#D89F1C,10,10,1,38,1,3083.7999999523163,37,1,343.59999990463257,10,1,experiment,NA,NA,2,0.5,0.5,4,5,169,4,NA
fcp-trial,204,1003444,0.0-179.0-0.0,voc_e2,11815,"[{""event"":""fullscreenenter"",""trial"":1,""time"":3462}]",NA,NA,NA,NA,NA,2,#1CD855,#FA92F8,0,10,0,38,1,2091.7999999523163,39,0,271.40000009536743,10,1,experiment,NA,NA,0,0.1,0.9,1,0,170,4,NA
fcp-trial,205,1007212,0.0-180.0-0.0,voc_e2,11815,"[{""event"":""fullscreenenter"",""trial"":1,""time"":3462}]",NA,NA,NA,NA,NA,2,#D89F1C,#3386FF,10,10,0,38,1,1971.6999998092651,39,0,290.5,10,1,experiment,NA,NA,2,0.5,0.5,5,4,171,4,NA
fcp-trial,206,1013280,0.0-181.0-0.0,voc_e2,11815,"[{""event"":""fullscreenenter"",""trial"":1,""time"":3462}]",NA,NA,NA,NA,NA,2,#741CD8,#D8271C,10,10,1,38,1,4008,37,1,553.8000001907349,10,1,experiment,NA,NA,1,0.7,0.3,2,3,172,4,NA
fcp-trial,207,1017034,0.0-182.0-0.0,voc_e2,11815,"[{""event"":""fullscreenenter"",""trial"":1,""time"":3462}]",NA,NA,NA,NA,NA,1,#1CD855,#FA92F8,0,10,0,38,1,1728.5,39,0,522,10,1,experiment,NA,NA,0,0.1,0.9,1,0,173,4,NA
fcp-trial,208,1020409,0.0-183.0-0.0,voc_e2,11815,"[{""event"":""fullscreenenter"",""trial"":1,""time"":3462}]",NA,NA,NA,NA,NA,0,#741CD8,#D8271C,10,10,1,38,1,1438.2000000476837,37,1,430.2999999523163,10,1,experiment,NA,NA,1,0.7,0.3,2,3,174,4,NA
fcp-trial,209,1022981,0.0-184.0-0.0,voc_e2,11815,"[{""event"":""fullscreenenter"",""trial"":1,""time"":3462}]",NA,NA,NA,NA,NA,0,#FA92F8,#1CD855,10,0,1,38,1,718.2999999523163,37,1,348.5,10,1,experiment,NA,NA,0,0.9,0.1,0,1,175,4,NA
fcp-trial,210,1025816,0.0-185.0-0.0,voc_e2,11815,"[{""event"":""fullscreenenter"",""trial"":1,""time"":3462}]",NA,NA,NA,NA,NA,4,#3386FF,#D89F1C,10,10,1,38,1,911,37,1,417.7000000476837,10,1,experiment,NA,NA,2,0.5,0.5,4,5,176,4,NA
fcp-trial,211,1029747,0.0-186.0-0.0,voc_e2,11815,"[{""event"":""fullscreenenter"",""trial"":1,""time"":3462}]",NA,NA,NA,NA,NA,5,#3386FF,#D89F1C,10,0,1,40,0,1656.8000001907349,39,0,769.3999998569489,0,0,experiment,NA,NA,2,0.5,0.5,4,5,177,4,NA
fcp-trial,212,1033154,0.0-187.0-0.0,voc_e2,11815,"[{""event"":""fullscreenenter"",""trial"":1,""time"":3462}]",NA,NA,NA,NA,NA,5,#741CD8,#D8271C,10,0,1,40,0,1344.0999999046326,39,0,557.4000000953674,0,0,experiment,NA,NA,1,0.7,0.3,2,3,178,4,NA
fcp-trial,213,1035988,0.0-188.0-0.0,voc_e2,11815,"[{""event"":""fullscreenenter"",""trial"":1,""time"":3462}]",NA,NA,NA,NA,NA,3,#3386FF,#D89F1C,10,0,1,38,1,932.3000001907349,37,1,397.90000009536743,10,1,experiment,NA,NA,2,0.5,0.5,4,5,179,4,NA
fcp-trial,214,1038832,0.0-189.0-0.0,voc_e2,11815,"[{""event"":""fullscreenenter"",""trial"":1,""time"":3462}]",NA,NA,NA,NA,NA,5,#1CD855,#FA92F8,0,0,0,40,0,951.7000000476837,39,0,388.2999999523163,0,1,experiment,NA,NA,0,0.1,0.9,1,0,180,4,NA
fcp-trial,215,1042578,0.0-190.0-0.0,voc_e2,11815,"[{""event"":""fullscreenenter"",""trial"":1,""time"":3462}]",NA,NA,NA,NA,NA,1,#741CD8,#D8271C,10,0,1,38,1,1830,37,1,410.09999990463257,10,1,experiment,NA,NA,1,0.7,0.3,2,3,181,5,NA
fcp-trial,216,1045772,0.0-191.0-0.0,voc_e2,11815,"[{""event"":""fullscreenenter"",""trial"":1,""time"":3462}]",NA,NA,NA,NA,NA,6,#D8271C,#741CD8,0,10,0,40,0,1153,37,1,532.4000000953674,0,0,experiment,NA,NA,1,0.3,0.7,3,2,182,5,NA
fcp-trial,217,1049524,0.0-192.0-0.0,voc_e2,11815,"[{""event"":""fullscreenenter"",""trial"":1,""time"":3462}]",NA,NA,NA,NA,NA,4,#1CD855,#FA92F8,10,10,0,40,0,1779.9000000953674,39,0,467.30000019073486,10,1,experiment,NA,NA,0,0.1,0.9,1,0,183,5,NA
fcp-trial,218,1052478,0.0-193.0-0.0,voc_e2,11815,"[{""event"":""fullscreenenter"",""trial"":1,""time"":3462}]",NA,NA,NA,NA,NA,0,#3386FF,#D89F1C,10,0,1,38,1,1120.9000000953674,37,1,327.59999990463257,10,1,experiment,NA,NA,2,0.5,0.5,4,5,184,5,NA
fcp-trial,219,1055478,0.0-194.0-0.0,voc_e2,11815,"[{""event"":""fullscreenenter"",""trial"":1,""time"":3462}]",NA,NA,NA,NA,NA,6,#FA92F8,#1CD855,10,0,1,40,0,1106.7000000476837,37,1,385.09999990463257,10,1,experiment,NA,NA,0,0.9,0.1,0,1,185,5,NA
fcp-trial,220,1058564,0.0-195.0-0.0,voc_e2,11815,"[{""event"":""fullscreenenter"",""trial"":1,""time"":3462}]",NA,NA,NA,NA,NA,4,#741CD8,#D8271C,0,10,1,40,0,1109.7999999523163,37,1,468.7999999523163,0,1,experiment,NA,NA,1,0.7,0.3,2,3,186,5,NA
fcp-trial,221,1063286,0.0-196.0-0.0,voc_e2,11815,"[{""event"":""fullscreenenter"",""trial"":1,""time"":3462}]",NA,NA,NA,NA,NA,3,#FA92F8,#1CD855,10,10,1,38,1,2835.5999999046326,37,1,373.40000009536743,10,1,experiment,NA,NA,0,0.9,0.1,0,1,187,5,NA
fcp-trial,222,1067029,0.0-197.0-0.0,voc_e2,11815,"[{""event"":""fullscreenenter"",""trial"":1,""time"":3462}]",NA,NA,NA,NA,NA,3,#741CD8,#D8271C,10,0,1,38,1,1731,37,1,509.39999985694885,10,1,experiment,NA,NA,1,0.7,0.3,2,3,188,5,NA
fcp-trial,223,1070575,0.0-198.0-0.0,voc_e2,11815,"[{""event"":""fullscreenenter"",""trial"":1,""time"":3462}]",NA,NA,NA,NA,NA,6,#D89F1C,#3386FF,0,10,0,40,0,1576.2999999523163,37,1,463.90000009536743,0,0,experiment,NA,NA,2,0.5,0.5,5,4,189,5,NA
fcp-trial,224,1075535,0.0-199.0-0.0,voc_e2,11815,"[{""event"":""fullscreenenter"",""trial"":1,""time"":3462}]",NA,NA,NA,NA,NA,4,#FA92F8,#1CD855,10,0,1,38,1,2962.899999856949,37,1,492.2999999523163,10,1,experiment,NA,NA,0,0.9,0.1,0,1,190,5,NA
fcp-trial,225,1081350,0.0-200.0-0.0,voc_e2,11815,"[{""event"":""fullscreenenter"",""trial"":1,""time"":3462}]",NA,NA,NA,NA,NA,0,#D89F1C,#3386FF,10,10,0,38,1,3781.800000190735,39,0,529.4000000953674,10,1,experiment,NA,NA,2,0.5,0.5,5,4,191,5,NA
fcp-trial,226,1084235,0.0-201.0-0.0,voc_e2,11815,"[{""event"":""fullscreenenter"",""trial"":1,""time"":3462}]",NA,NA,NA,NA,NA,1,#D8271C,#741CD8,0,0,0,38,1,1043.7000000476837,39,0,334.2999999523163,0,1,experiment,NA,NA,1,0.3,0.7,3,2,192,5,NA
fcp-trial,227,1087917,0.0-202.0-0.0,voc_e2,11815,"[{""event"":""fullscreenenter"",""trial"":1,""time"":3462}]",NA,NA,NA,NA,NA,4,#D89F1C,#3386FF,10,10,0,38,1,1416.4000000953674,39,0,758.3999998569489,10,1,experiment,NA,NA,2,0.5,0.5,5,4,193,5,NA
fcp-trial,228,1092676,0.0-203.0-0.0,voc_e2,11815,"[{""event"":""fullscreenenter"",""trial"":1,""time"":3462}]",NA,NA,NA,NA,NA,6,#1CD855,#FA92F8,0,10,0,40,0,2730.5999999046326,39,0,521.7000000476837,10,1,experiment,NA,NA,0,0.1,0.9,1,0,194,5,NA
fcp-trial,229,1095439,0.0-204.0-0.0,voc_e2,11815,"[{""event"":""fullscreenenter"",""trial"":1,""time"":3462}]",NA,NA,NA,NA,NA,0,#1CD855,#FA92F8,0,10,0,38,1,848.2000000476837,39,0,407.5,10,1,experiment,NA,NA,0,0.1,0.9,1,0,195,5,NA
fcp-trial,230,1098458,0.0-205.0-0.0,voc_e2,11815,"[{""event"":""fullscreenenter"",""trial"":1,""time"":3462}]",NA,NA,NA,NA,NA,5,#741CD8,#D8271C,10,10,1,40,0,886.3999998569489,39,0,627.7000000476837,10,0,experiment,NA,NA,1,0.7,0.3,2,3,196,5,NA
fcp-trial,231,1101789,0.0-206.0-0.0,voc_e2,11815,"[{""event"":""fullscreenenter"",""trial"":1,""time"":3462}]",NA,NA,NA,NA,NA,2,#741CD8,#D8271C,10,0,1,38,1,1097.5,37,1,727.9000000953674,10,1,experiment,NA,NA,1,0.7,0.3,2,3,197,5,NA
fcp-trial,232,1104846,0.0-207.0-0.0,voc_e2,11815,"[{""event"":""fullscreenenter"",""trial"":1,""time"":3462}]",NA,NA,NA,NA,NA,5,#3386FF,#D89F1C,0,10,1,40,0,1060.5,37,1,492.39999985694885,0,1,experiment,NA,NA,2,0.5,0.5,4,5,198,5,NA
fcp-trial,233,1108354,0.0-208.0-0.0,voc_e2,11815,"[{""event"":""fullscreenenter"",""trial"":1,""time"":3462}]",NA,NA,NA,NA,NA,4,#741CD8,#D8271C,10,0,1,40,0,1578.1999998092651,37,1,423.90000009536743,10,1,experiment,NA,NA,1,0.7,0.3,2,3,199,5,NA
fcp-trial,234,1111179,0.0-209.0-0.0,voc_e2,11815,"[{""event"":""fullscreenenter"",""trial"":1,""time"":3462}]",NA,NA,NA,NA,NA,1,#1CD855,#FA92F8,0,10,0,38,1,1020.7000000476837,39,0,297.7000000476837,10,1,experiment,NA,NA,0,0.1,0.9,1,0,200,5,NA
fcp-trial,235,1116973,0.0-210.0-0.0,voc_e2,11815,"[{""event"":""fullscreenenter"",""trial"":1,""time"":3462}]",NA,NA,NA,NA,NA,6,#D89F1C,#3386FF,10,0,0,40,0,3765,39,0,524.2999999523163,0,1,experiment,NA,NA,2,0.5,0.5,5,4,201,5,NA
fcp-trial,236,1120658,0.0-211.0-0.0,voc_e2,11815,"[{""event"":""fullscreenenter"",""trial"":1,""time"":3462}]",NA,NA,NA,NA,NA,6,#741CD8,#D8271C,0,0,1,40,0,1767.9000000953674,37,1,407.89999985694885,0,1,experiment,NA,NA,1,0.7,0.3,2,3,202,5,NA
fcp-trial,237,1124089,0.0-212.0-0.0,voc_e2,11815,"[{""event"":""fullscreenenter"",""trial"":1,""time"":3462}]",NA,NA,NA,NA,NA,1,#3386FF,#D89F1C,0,0,1,38,1,1655.7999999523163,37,1,270.2999999523163,0,1,experiment,NA,NA,2,0.5,0.5,4,5,203,5,NA
fcp-trial,238,1127124,0.0-213.0-0.0,voc_e2,11815,"[{""event"":""fullscreenenter"",""trial"":1,""time"":3462}]",NA,NA,NA,NA,NA,5,#1CD855,#FA92F8,0,10,0,40,0,1112,39,0,413.40000009536743,10,1,experiment,NA,NA,0,0.1,0.9,1,0,204,5,NA
fcp-trial,239,1129976,0.0-214.0-0.0,voc_e2,11815,"[{""event"":""fullscreenenter"",""trial"":1,""time"":3462}]",NA,NA,NA,NA,NA,3,#741CD8,#D8271C,10,0,1,38,1,1032,37,1,314.40000009536743,10,1,experiment,NA,NA,1,0.7,0.3,2,3,205,5,NA
fcp-trial,240,1132878,0.0-215.0-0.0,voc_e2,11815,"[{""event"":""fullscreenenter"",""trial"":1,""time"":3462}]",NA,NA,NA,NA,NA,3,#3386FF,#D89F1C,10,0,1,38,1,1048.2999999523163,37,1,349.7000000476837,10,1,experiment,NA,NA,2,0.5,0.5,4,5,206,5,NA
fcp-trial,241,1135638,0.0-216.0-0.0,voc_e2,11815,"[{""event"":""fullscreenenter"",""trial"":1,""time"":3462}]",NA,NA,NA,NA,NA,2,#FA92F8,#1CD855,10,0,1,38,1,935.1999998092651,37,1,318,10,1,experiment,NA,NA,0,0.9,0.1,0,1,207,5,NA
fcp-trial,242,1138890,0.0-217.0-0.0,voc_e2,11815,"[{""event"":""fullscreenenter"",""trial"":1,""time"":3462}]",NA,NA,NA,NA,NA,0,#741CD8,#D8271C,0,0,1,38,1,1450.0999999046326,37,1,296.5,0,1,experiment,NA,NA,1,0.7,0.3,2,3,208,5,NA
fcp-trial,243,1141951,0.0-218.0-0.0,voc_e2,11815,"[{""event"":""fullscreenenter"",""trial"":1,""time"":3462}]",NA,NA,NA,NA,NA,3,#1CD855,#FA92F8,0,10,0,38,1,1237.6000001430511,39,0,317.7999999523163,10,1,experiment,NA,NA,0,0.1,0.9,1,0,209,5,NA
fcp-trial,244,1144562,0.0-219.0-0.0,voc_e2,11815,"[{""event"":""fullscreenenter"",""trial"":1,""time"":3462}]",NA,NA,NA,NA,NA,2,#D89F1C,#3386FF,0,0,0,38,1,709.9000000953674,39,0,394.7999999523163,0,1,experiment,NA,NA,2,0.5,0.5,5,4,210,5,NA
audio-instructions,245,1197798,0.0-220.0,voc_e2,11815,"[{""event"":""fullscreenenter"",""trial"":1,""time"":3462}]",NA,48433.70000004768,static/audio/pause.wav,NA,0,NA,NA,NA,NA,NA,NA,NA,NA,NA,NA,NA,NA,NA,NA,NA,NA,NA,NA,NA,NA,NA,NA,NA,NA,NA
fcp-trial,246,1201740,0.0-221.0-0.0,voc_e2,11815,"[{""event"":""fullscreenenter"",""trial"":1,""time"":3462}]",NA,NA,NA,NA,NA,1,#D89F1C,#3386FF,0,0,0,38,1,2117.9000000953674,39,0,319.7999999523163,0,1,experiment,NA,NA,2,0.5,0.5,5,4,211,5,NA
fcp-trial,247,1204238,0.0-222.0-0.0,voc_e2,11815,"[{""event"":""fullscreenenter"",""trial"":1,""time"":3462}]",NA,NA,NA,NA,NA,0,#D89F1C,#3386FF,0,10,0,38,1,711.5999999046326,39,0,274.90000009536743,10,1,experiment,NA,NA,2,0.5,0.5,5,4,212,5,NA
fcp-trial,248,1206709,0.0-223.0-0.0,voc_e2,11815,"[{""event"":""fullscreenenter"",""trial"":1,""time"":3462}]",NA,NA,NA,NA,NA,0,#741CD8,#D8271C,0,10,1,38,1,627.0999999046326,37,1,329.7000000476837,0,1,experiment,NA,NA,1,0.7,0.3,2,3,213,5,NA
fcp-trial,249,1209452,0.0-224.0-0.0,voc_e2,11815,"[{""event"":""fullscreenenter"",""trial"":1,""time"":3462}]",NA,NA,NA,NA,NA,3,#FA92F8,#1CD855,10,0,1,38,1,866.2000000476837,37,1,373.69999980926514,10,1,experiment,NA,NA,0,0.9,0.1,0,1,214,5,NA
fcp-trial,250,1211907,0.0-225.0-0.0,voc_e2,11815,"[{""event"":""fullscreenenter"",""trial"":1,""time"":3462}]",NA,NA,NA,NA,NA,2,#FA92F8,#1CD855,10,0,1,38,1,633.3000001907349,37,1,318,10,1,experiment,NA,NA,0,0.9,0.1,0,1,215,5,NA
fcp-trial,251,1214728,0.0-226.0-0.0,voc_e2,11815,"[{""event"":""fullscreenenter"",""trial"":1,""time"":3462}]",NA,NA,NA,NA,NA,6,#3386FF,#D89F1C,10,10,1,40,0,866.5,39,0,449.2000000476837,10,0,experiment,NA,NA,2,0.5,0.5,4,5,216,5,NA
fcp-trial,252,1217671,0.0-227.0-0.0,voc_e2,11815,"[{""event"":""fullscreenenter"",""trial"":1,""time"":3462}]",NA,NA,NA,NA,NA,6,#D8271C,#741CD8,10,0,0,40,0,980,37,1,455.09999990463257,10,0,experiment,NA,NA,1,0.3,0.7,3,2,217,5,NA
fcp-trial,253,1220522,0.0-228.0-0.0,voc_e2,11815,"[{""event"":""fullscreenenter"",""trial"":1,""time"":3462}]",NA,NA,NA,NA,NA,1,#FA92F8,#1CD855,10,0,1,38,1,1014.6999998092651,37,1,331.60000014305115,10,1,experiment,NA,NA,0,0.9,0.1,0,1,218,5,NA
fcp-trial,254,1223723,0.0-229.0-0.0,voc_e2,11815,"[{""event"":""fullscreenenter"",""trial"":1,""time"":3462}]",NA,NA,NA,NA,NA,5,#3386FF,#D89F1C,10,10,1,40,0,1249,39,0,440.40000009536743,10,0,experiment,NA,NA,2,0.5,0.5,4,5,219,5,NA
fcp-trial,255,1226663,0.0-230.0-0.0,voc_e2,11815,"[{""event"":""fullscreenenter"",""trial"":1,""time"":3462}]",NA,NA,NA,NA,NA,5,#D8271C,#741CD8,10,10,0,40,0,1041.0999999046326,37,1,392,10,0,experiment,NA,NA,1,0.3,0.7,3,2,220,5,NA
fcp-trial,256,1229482,0.0-231.0-0.0,voc_e2,11815,"[{""event"":""fullscreenenter"",""trial"":1,""time"":3462}]",NA,NA,NA,NA,NA,6,#FA92F8,#1CD855,10,0,1,40,0,790.2000000476837,37,1,523.6000001430511,10,1,experiment,NA,NA,0,0.9,0.1,0,1,221,5,NA
fcp-trial,257,1232235,0.0-232.0-0.0,voc_e2,11815,"[{""event"":""fullscreenenter"",""trial"":1,""time"":3462}]",NA,NA,NA,NA,NA,1,#D8271C,#741CD8,10,0,0,38,1,839.2000000476837,39,0,407.2999999523163,0,1,experiment,NA,NA,1,0.3,0.7,3,2,222,5,NA
fcp-trial,258,1235352,0.0-233.0-0.0,voc_e2,11815,"[{""event"":""fullscreenenter"",""trial"":1,""time"":3462}]",NA,NA,NA,NA,NA,3,#3386FF,#D89F1C,0,0,1,40,0,911.4000000953674,39,0,701.5,0,0,experiment,NA,NA,2,0.5,0.5,4,5,223,5,NA
fcp-trial,259,1238571,0.0-234.0-0.0,voc_e2,11815,"[{""event"":""fullscreenenter"",""trial"":1,""time"":3462}]",NA,NA,NA,NA,NA,4,#FA92F8,#1CD855,10,0,1,38,1,855.6999998092651,37,1,856.2999999523163,10,1,experiment,NA,NA,0,0.9,0.1,0,1,224,5,NA
fcp-trial,260,1242027,0.0-235.0-0.0,voc_e2,11815,"[{""event"":""fullscreenenter"",""trial"":1,""time"":3462}]",NA,NA,NA,NA,NA,4,#D8271C,#741CD8,0,10,0,40,0,1537.5,37,1,412.7999999523163,0,0,experiment,NA,NA,1,0.3,0.7,3,2,225,5,NA
fcp-trial,261,1245001,0.0-236.0-0.0,voc_e2,11815,"[{""event"":""fullscreenenter"",""trial"":1,""time"":3462}]",NA,NA,NA,NA,NA,3,#741CD8,#D8271C,10,0,1,38,1,1103.0999999046326,37,1,365.7999999523163,10,1,experiment,NA,NA,1,0.7,0.3,2,3,226,6,NA
fcp-trial,262,1248627,0.0-237.0-0.0,voc_e2,11815,"[{""event"":""fullscreenenter"",""trial"":1,""time"":3462}]",NA,NA,NA,NA,NA,2,#D89F1C,#3386FF,10,0,0,38,1,1643.2000000476837,39,0,476.80000019073486,0,1,experiment,NA,NA,2,0.5,0.5,5,4,227,6,NA
fcp-trial,263,1251404,0.0-238.0-0.0,voc_e2,11815,"[{""event"":""fullscreenenter"",""trial"":1,""time"":3462}]",NA,NA,NA,NA,NA,5,#FA92F8,#1CD855,10,0,1,40,0,724.8999998569489,39,0,546.9000000953674,0,0,experiment,NA,NA,0,0.9,0.1,0,1,228,6,NA
fcp-trial,264,1254279,0.0-239.0-0.0,voc_e2,11815,"[{""event"":""fullscreenenter"",""trial"":1,""time"":3462}]",NA,NA,NA,NA,NA,2,#741CD8,#D8271C,0,10,1,38,1,831.3999998569489,37,1,539.2000000476837,0,1,experiment,NA,NA,1,0.7,0.3,2,3,229,6,NA
fcp-trial,265,1257043,0.0-240.0-0.0,voc_e2,11815,"[{""event"":""fullscreenenter"",""trial"":1,""time"":3462}]",NA,NA,NA,NA,NA,0,#FA92F8,#1CD855,0,0,1,38,1,919.3999998569489,37,1,340.89999985694885,0,1,experiment,NA,NA,0,0.9,0.1,0,1,230,6,NA
fcp-trial,266,1260287,0.0-241.0-0.0,voc_e2,11815,"[{""event"":""fullscreenenter"",""trial"":1,""time"":3462}]",NA,NA,NA,NA,NA,4,#D89F1C,#3386FF,10,0,0,40,0,1334.7999999523163,37,1,401.2000000476837,10,0,experiment,NA,NA,2,0.5,0.5,5,4,231,6,NA
fcp-trial,267,1263131,0.0-242.0-0.0,voc_e2,11815,"[{""event"":""fullscreenenter"",""trial"":1,""time"":3462}]",NA,NA,NA,NA,NA,5,#1CD855,#FA92F8,0,10,0,40,0,984.3999998569489,39,0,353.89999985694885,10,1,experiment,NA,NA,0,0.1,0.9,1,0,232,6,NA
fcp-trial,268,1266069,0.0-243.0-0.0,voc_e2,11815,"[{""event"":""fullscreenenter"",""trial"":1,""time"":3462}]",NA,NA,NA,NA,NA,1,#3386FF,#D89F1C,10,10,1,38,1,1061.8000001907349,37,1,372.90000009536743,10,1,experiment,NA,NA,2,0.5,0.5,4,5,233,6,NA
fcp-trial,269,1268622,0.0-244.0-0.0,voc_e2,11815,"[{""event"":""fullscreenenter"",""trial"":1,""time"":3462}]",NA,NA,NA,NA,NA,0,#FA92F8,#1CD855,10,10,1,38,1,679.5999999046326,37,1,368.10000014305115,10,1,experiment,NA,NA,0,0.9,0.1,0,1,234,6,NA
fcp-trial,270,1273688,0.0-245.0-0.0,voc_e2,11815,"[{""event"":""fullscreenenter"",""trial"":1,""time"":3462}]",NA,NA,NA,NA,NA,1,#D8271C,#741CD8,0,10,0,38,1,3249.7999999523163,39,0,310.7000000476837,10,1,experiment,NA,NA,1,0.3,0.7,3,2,235,6,NA
fcp-trial,271,1276700,0.0-246.0-0.0,voc_e2,11815,"[{""event"":""fullscreenenter"",""trial"":1,""time"":3462}]",NA,NA,NA,NA,NA,4,#3386FF,#D89F1C,10,0,1,40,0,1085.4000000953674,39,0,420.40000009536743,0,0,experiment,NA,NA,2,0.5,0.5,4,5,236,6,NA
fcp-trial,272,1279458,0.0-247.0-0.0,voc_e2,11815,"[{""event"":""fullscreenenter"",""trial"":1,""time"":3462}]",NA,NA,NA,NA,NA,6,#1CD855,#FA92F8,0,10,0,40,0,909.5,39,0,345.5,10,1,experiment,NA,NA,0,0.1,0.9,1,0,237,6,NA
fcp-trial,273,1282391,0.0-248.0-0.0,voc_e2,11815,"[{""event"":""fullscreenenter"",""trial"":1,""time"":3462}]",NA,NA,NA,NA,NA,3,#741CD8,#D8271C,10,0,1,38,1,988.8999998569489,37,1,438,10,1,experiment,NA,NA,1,0.7,0.3,2,3,238,6,NA
fcp-trial,274,1285482,0.0-249.0-0.0,voc_e2,11815,"[{""event"":""fullscreenenter"",""trial"":1,""time"":3462}]",NA,NA,NA,NA,NA,0,#D8271C,#741CD8,0,10,0,38,1,1254.6999998092651,39,0,332.2999999523163,10,1,experiment,NA,NA,1,0.3,0.7,3,2,239,6,NA
fcp-trial,275,1288022,0.0-250.0-0.0,voc_e2,11815,"[{""event"":""fullscreenenter"",""trial"":1,""time"":3462}]",NA,NA,NA,NA,NA,2,#1CD855,#FA92F8,0,0,0,38,1,726.0999999046326,39,0,305.59999990463257,0,1,experiment,NA,NA,0,0.1,0.9,1,0,240,6,NA
fcp-trial,276,1290783,0.0-251.0-0.0,voc_e2,11815,"[{""event"":""fullscreenenter"",""trial"":1,""time"":3462}]",NA,NA,NA,NA,NA,2,#3386FF,#D89F1C,0,0,1,38,1,894.7999999523163,37,1,357.40000009536743,0,1,experiment,NA,NA,2,0.5,0.5,4,5,241,6,NA
fcp-trial,277,1293398,0.0-252.0-0.0,voc_e2,11815,"[{""event"":""fullscreenenter"",""trial"":1,""time"":3462}]",NA,NA,NA,NA,NA,3,#D89F1C,#3386FF,10,10,0,38,1,771.7000000476837,39,0,337.7999999523163,10,1,experiment,NA,NA,2,0.5,0.5,5,4,242,6,NA
fcp-trial,278,1296180,0.0-253.0-0.0,voc_e2,11815,"[{""event"":""fullscreenenter"",""trial"":1,""time"":3462}]",NA,NA,NA,NA,NA,4,#FA92F8,#1CD855,10,0,1,40,0,835.9000000953674,37,1,440.2000000476837,10,1,experiment,NA,NA,0,0.9,0.1,0,1,243,6,NA
fcp-trial,279,1298786,0.0-254.0-0.0,voc_e2,11815,"[{""event"":""fullscreenenter"",""trial"":1,""time"":3462}]",NA,NA,NA,NA,NA,6,#D8271C,#741CD8,10,10,0,40,0,729,39,0,371.09999990463257,10,1,experiment,NA,NA,1,0.3,0.7,3,2,244,6,NA
fcp-trial,280,1301960,0.0-255.0-0.0,voc_e2,11815,"[{""event"":""fullscreenenter"",""trial"":1,""time"":3462}]",NA,NA,NA,NA,NA,3,#1CD855,#FA92F8,0,10,0,38,1,1252.0999999046326,39,0,416.2999999523163,10,1,experiment,NA,NA,0,0.1,0.9,1,0,245,6,NA
fcp-trial,281,1305215,0.0-256.0-0.0,voc_e2,11815,"[{""event"":""fullscreenenter"",""trial"":1,""time"":3462}]",NA,NA,NA,NA,NA,5,#3386FF,#D89F1C,10,0,1,40,0,1205,39,0,540.7999999523163,0,0,experiment,NA,NA,2,0.5,0.5,4,5,246,6,NA
fcp-trial,282,1308579,0.0-257.0-0.0,voc_e2,11815,"[{""event"":""fullscreenenter"",""trial"":1,""time"":3462}]",NA,NA,NA,NA,NA,4,#D8271C,#741CD8,0,10,0,40,0,1168.2000000476837,37,1,688.6000001430511,0,0,experiment,NA,NA,1,0.3,0.7,3,2,247,6,NA
fcp-trial,283,1311393,0.0-258.0-0.0,voc_e2,11815,"[{""event"":""fullscreenenter"",""trial"":1,""time"":3462}]",NA,NA,NA,NA,NA,5,#D8271C,#741CD8,10,10,0,40,0,891.2000000476837,39,0,411.5,10,1,experiment,NA,NA,1,0.3,0.7,3,2,248,6,NA
fcp-trial,284,1314308,0.0-259.0-0.0,voc_e2,11815,"[{""event"":""fullscreenenter"",""trial"":1,""time"":3462}]",NA,NA,NA,NA,NA,6,#D89F1C,#3386FF,0,0,0,40,0,910.6000001430511,39,0,497.89999985694885,0,1,experiment,NA,NA,2,0.5,0.5,5,4,249,6,NA
fcp-trial,285,1317431,0.0-260.0-0.0,voc_e2,11815,"[{""event"":""fullscreenenter"",""trial"":1,""time"":3462}]",NA,NA,NA,NA,NA,1,#FA92F8,#1CD855,10,10,1,38,1,1204.7000000476837,37,1,410.7999999523163,10,1,experiment,NA,NA,0,0.9,0.1,0,1,250,6,NA
fcp-trial,286,1320578,0.0-261.0-0.0,voc_e2,11815,"[{""event"":""fullscreenenter"",""trial"":1,""time"":3462}]",NA,NA,NA,NA,NA,0,#3386FF,#D89F1C,10,0,1,38,1,1104.4000000953674,37,1,537.4000000953674,10,1,experiment,NA,NA,2,0.5,0.5,4,5,251,6,NA
fcp-trial,287,1323857,0.0-262.0-0.0,voc_e2,11815,"[{""event"":""fullscreenenter"",""trial"":1,""time"":3462}]",NA,NA,NA,NA,NA,2,#741CD8,#D8271C,10,10,1,38,1,1169,37,1,606.0999999046326,10,1,experiment,NA,NA,1,0.7,0.3,2,3,252,6,NA
fcp-trial,288,1326893,0.0-263.0-0.0,voc_e2,11815,"[{""event"":""fullscreenenter"",""trial"":1,""time"":3462}]",NA,NA,NA,NA,NA,5,#741CD8,#D8271C,10,0,1,40,0,1029.2999999523163,39,0,501.2999999523163,0,0,experiment,NA,NA,1,0.7,0.3,2,3,253,6,NA
fcp-trial,289,1329836,0.0-264.0-0.0,voc_e2,11815,"[{""event"":""fullscreenenter"",""trial"":1,""time"":3462}]",NA,NA,NA,NA,NA,4,#741CD8,#D8271C,0,0,1,40,0,1041.7999999523163,39,0,397.7999999523163,0,0,experiment,NA,NA,1,0.7,0.3,2,3,254,6,NA
fcp-trial,290,1332622,0.0-265.0-0.0,voc_e2,11815,"[{""event"":""fullscreenenter"",""trial"":1,""time"":3462}]",NA,NA,NA,NA,NA,2,#1CD855,#FA92F8,0,10,0,38,1,951.5,39,0,331.30000019073486,10,1,experiment,NA,NA,0,0.1,0.9,1,0,255,6,NA
fcp-trial,291,1335675,0.0-266.0-0.0,voc_e2,11815,"[{""event"":""fullscreenenter"",""trial"":1,""time"":3462}]",NA,NA,NA,NA,NA,6,#FA92F8,#1CD855,10,0,1,40,0,1071.5,37,1,476.2999999523163,10,1,experiment,NA,NA,0,0.9,0.1,0,1,256,6,NA
fcp-trial,292,1338850,0.0-267.0-0.0,voc_e2,11815,"[{""event"":""fullscreenenter"",""trial"":1,""time"":3462}]",NA,NA,NA,NA,NA,5,#3386FF,#D89F1C,10,10,1,40,0,950.7000000476837,39,0,717.4000000953674,10,0,experiment,NA,NA,2,0.5,0.5,4,5,257,6,NA
fcp-trial,293,1342020,0.0-268.0-0.0,voc_e2,11815,"[{""event"":""fullscreenenter"",""trial"":1,""time"":3462}]",NA,NA,NA,NA,NA,3,#D8271C,#741CD8,10,0,0,38,1,1289.7999999523163,39,0,373.10000014305115,0,1,experiment,NA,NA,1,0.3,0.7,3,2,258,6,NA
fcp-trial,294,1346513,0.0-269.0-0.0,voc_e2,11815,"[{""event"":""fullscreenenter"",""trial"":1,""time"":3462}]",NA,NA,NA,NA,NA,4,#D89F1C,#3386FF,0,0,0,40,0,2368.600000143051,39,0,618.2999999523163,0,1,experiment,NA,NA,2,0.5,0.5,5,4,259,6,NA
fcp-trial,295,1350129,0.0-270.0-0.0,voc_e2,11815,"[{""event"":""fullscreenenter"",""trial"":1,""time"":3462}]",NA,NA,NA,NA,NA,3,#1CD855,#FA92F8,0,10,0,38,1,1572.5,39,0,537.1999998092651,10,1,experiment,NA,NA,0,0.1,0.9,1,0,260,6,NA
fcp-trial,296,1353430,0.0-271.0-0.0,voc_e2,11815,"[{""event"":""fullscreenenter"",""trial"":1,""time"":3462}]",NA,NA,NA,NA,NA,2,#741CD8,#D8271C,10,10,1,38,1,1396.3000001907349,37,1,397.09999990463257,10,1,experiment,NA,NA,1,0.7,0.3,2,3,261,6,NA
fcp-trial,297,1358822,0.0-272.0-0.0,voc_e2,11815,"[{""event"":""fullscreenenter"",""trial"":1,""time"":3462}]",NA,NA,NA,NA,NA,1,#D89F1C,#3386FF,0,10,0,38,1,3169.2000000476837,39,0,716.7000000476837,10,1,experiment,NA,NA,2,0.5,0.5,5,4,262,6,NA
fcp-trial,298,1362328,0.0-273.0-0.0,voc_e2,11815,"[{""event"":""fullscreenenter"",""trial"":1,""time"":3462}]",NA,NA,NA,NA,NA,4,#FA92F8,#1CD855,10,0,1,40,0,1445,39,0,555,0,0,experiment,NA,NA,0,0.9,0.1,0,1,263,6,NA
fcp-trial,299,1365801,0.0-274.0-0.0,voc_e2,11815,"[{""event"":""fullscreenenter"",""trial"":1,""time"":3462}]",NA,NA,NA,NA,NA,0,#D89F1C,#3386FF,10,0,0,38,1,1285.5,39,0,684.2999999523163,0,1,experiment,NA,NA,2,0.5,0.5,5,4,264,6,NA
fcp-trial,300,1368801,0.0-275.0-0.0,voc_e2,11815,"[{""event"":""fullscreenenter"",""trial"":1,""time"":3462}]",NA,NA,NA,NA,NA,0,#D8271C,#741CD8,10,10,0,38,1,1009,39,0,484.7000000476837,10,1,experiment,NA,NA,1,0.3,0.7,3,2,265,6,NA
fcp-trial,301,1373441,0.0-276.0-0.0,voc_e2,11815,"[{""event"":""fullscreenenter"",""trial"":1,""time"":3462}]",NA,NA,NA,NA,NA,1,#741CD8,#D8271C,10,0,1,38,1,2801.4000000953674,37,1,334,10,1,experiment,NA,NA,1,0.7,0.3,2,3,266,6,NA
fcp-trial,302,1376437,0.0-277.0-0.0,voc_e2,11815,"[{""event"":""fullscreenenter"",""trial"":1,""time"":3462}]",NA,NA,NA,NA,NA,6,#3386FF,#D89F1C,0,10,1,40,0,1001.9000000953674,39,0,482.59999990463257,10,0,experiment,NA,NA,2,0.5,0.5,4,5,267,6,NA
fcp-trial,303,1379445,0.0-278.0-0.0,voc_e2,11815,"[{""event"":""fullscreenenter"",""trial"":1,""time"":3462}]",NA,NA,NA,NA,NA,0,#FA92F8,#1CD855,10,0,1,38,1,997.5999999046326,37,1,503.90000009536743,10,1,experiment,NA,NA,0,0.9,0.1,0,1,268,6,NA
fcp-trial,304,1382653,0.0-279.0-0.0,voc_e2,11815,"[{""event"":""fullscreenenter"",""trial"":1,""time"":3462}]",NA,NA,NA,NA,NA,1,#FA92F8,#1CD855,10,0,1,38,1,1388.2999999523163,37,1,314.7000000476837,10,1,experiment,NA,NA,0,0.9,0.1,0,1,269,6,NA
fcp-trial,305,1385872,0.0-280.0-0.0,voc_e2,11815,"[{""event"":""fullscreenenter"",""trial"":1,""time"":3462}]",NA,NA,NA,NA,NA,6,#741CD8,#D8271C,0,0,1,40,0,1354.8999998569489,37,1,359.89999985694885,0,1,experiment,NA,NA,1,0.7,0.3,2,3,270,6,NA
fcp-trial,306,1389028,0.0-281.0-0.0,voc_e2,11815,"[{""event"":""fullscreenenter"",""trial"":1,""time"":3462}]",NA,NA,NA,NA,NA,5,#1CD855,#FA92F8,0,10,0,40,0,977.2999999523163,37,1,672.0999999046326,0,0,experiment,NA,NA,0,0.1,0.9,1,0,271,7,NA
fcp-trial,307,1391950,0.0-282.0-0.0,voc_e2,11815,"[{""event"":""fullscreenenter"",""trial"":1,""time"":3462}]",NA,NA,NA,NA,NA,3,#D89F1C,#3386FF,10,0,0,38,1,883.5,39,0,534.2000000476837,0,1,experiment,NA,NA,2,0.5,0.5,5,4,272,7,NA
fcp-trial,308,1394745,0.0-283.0-0.0,voc_e2,11815,"[{""event"":""fullscreenenter"",""trial"":1,""time"":3462}]",NA,NA,NA,NA,NA,2,#D89F1C,#3386FF,10,0,0,38,1,904.7000000476837,39,0,385.60000014305115,0,1,experiment,NA,NA,2,0.5,0.5,5,4,273,7,NA
fcp-trial,309,1397815,0.0-284.0-0.0,voc_e2,11815,"[{""event"":""fullscreenenter"",""trial"":1,""time"":3462}]",NA,NA,NA,NA,NA,5,#D89F1C,#3386FF,10,0,0,40,0,885.5999999046326,37,1,675.6000001430511,10,0,experiment,NA,NA,2,0.5,0.5,5,4,274,7,NA
fcp-trial,310,1401080,0.0-285.0-0.0,voc_e2,11815,"[{""event"":""fullscreenenter"",""trial"":1,""time"":3462}]",NA,NA,NA,NA,NA,1,#741CD8,#D8271C,10,0,1,38,1,1202.7999999523163,37,1,555.2999999523163,10,1,experiment,NA,NA,1,0.7,0.3,2,3,275,7,NA
fcp-trial,311,1405087,0.0-286.0-0.0,voc_e2,11815,"[{""event"":""fullscreenenter"",""trial"":1,""time"":3462}]",NA,NA,NA,NA,NA,4,#FA92F8,#1CD855,10,0,1,40,0,2026.7000000476837,37,1,473,10,1,experiment,NA,NA,0,0.9,0.1,0,1,276,7,NA
fcp-trial,312,1408225,0.0-287.0-0.0,voc_e2,11815,"[{""event"":""fullscreenenter"",""trial"":1,""time"":3462}]",NA,NA,NA,NA,NA,1,#FA92F8,#1CD855,10,0,1,38,1,1298.9000000953674,37,1,331.5,10,1,experiment,NA,NA,0,0.9,0.1,0,1,277,7,NA
fcp-trial,313,1410883,0.0-288.0-0.0,voc_e2,11815,"[{""event"":""fullscreenenter"",""trial"":1,""time"":3462}]",NA,NA,NA,NA,NA,0,#D8271C,#741CD8,0,10,0,38,1,817.5999999046326,39,0,329.90000009536743,10,1,experiment,NA,NA,1,0.3,0.7,3,2,278,7,NA
fcp-trial,314,1414010,0.0-289.0-0.0,voc_e2,11815,"[{""event"":""fullscreenenter"",""trial"":1,""time"":3462}]",NA,NA,NA,NA,NA,1,#3386FF,#D89F1C,0,0,1,38,1,1340,37,1,281.89999985694885,0,1,experiment,NA,NA,2,0.5,0.5,4,5,279,7,NA
fcp-trial,315,1416818,0.0-290.0-0.0,voc_e2,11815,"[{""event"":""fullscreenenter"",""trial"":1,""time"":3462}]",NA,NA,NA,NA,NA,3,#741CD8,#D8271C,10,0,1,38,1,946.9000000953674,37,1,354.59999990463257,10,1,experiment,NA,NA,1,0.7,0.3,2,3,280,7,NA
fcp-trial,316,1420602,0.0-291.0-0.0,voc_e2,11815,"[{""event"":""fullscreenenter"",""trial"":1,""time"":3462}]",NA,NA,NA,NA,NA,5,#1CD855,#FA92F8,0,10,0,38,1,1892.5,39,0,380.59999990463257,10,1,experiment,NA,NA,0,0.1,0.9,1,0,281,7,NA
fcp-trial,317,1423446,0.0-292.0-0.0,voc_e2,11815,"[{""event"":""fullscreenenter"",""trial"":1,""time"":3462}]",NA,NA,NA,NA,NA,0,#FA92F8,#1CD855,10,0,1,38,1,992.2999999523163,37,1,344,10,1,experiment,NA,NA,0,0.9,0.1,0,1,282,7,NA
fcp-trial,318,1426391,0.0-293.0-0.0,voc_e2,11815,"[{""event"":""fullscreenenter"",""trial"":1,""time"":3462}]",NA,NA,NA,NA,NA,3,#D89F1C,#3386FF,0,10,0,38,1,1171.9000000953674,39,0,264.40000009536743,10,1,experiment,NA,NA,2,0.5,0.5,5,4,283,7,NA
fcp-trial,319,1429458,0.0-294.0-0.0,voc_e2,11815,"[{""event"":""fullscreenenter"",""trial"":1,""time"":3462}]",NA,NA,NA,NA,NA,6,#D8271C,#741CD8,0,0,0,40,0,1068.5,37,1,491.2000000476837,0,0,experiment,NA,NA,1,0.3,0.7,3,2,284,7,NA
fcp-trial,320,1432434,0.0-295.0-0.0,voc_e2,11815,"[{""event"":""fullscreenenter"",""trial"":1,""time"":3462}]",NA,NA,NA,NA,NA,4,#D8271C,#741CD8,0,0,0,40,0,894.7000000476837,37,1,573.9000000953674,0,0,experiment,NA,NA,1,0.3,0.7,3,2,285,7,NA
fcp-trial,321,1435158,0.0-296.0-0.0,voc_e2,11815,"[{""event"":""fullscreenenter"",""trial"":1,""time"":3462}]",NA,NA,NA,NA,NA,6,#3386FF,#D89F1C,10,10,1,40,0,731.7999999523163,37,1,487.2000000476837,10,1,experiment,NA,NA,2,0.5,0.5,4,5,286,7,NA
fcp-trial,322,1437565,0.0-297.0-0.0,voc_e2,11815,"[{""event"":""fullscreenenter"",""trial"":1,""time"":3462}]",NA,NA,NA,NA,NA,6,#1CD855,#FA92F8,0,10,0,40,0,595.7999999523163,39,0,306,10,1,experiment,NA,NA,0,0.1,0.9,1,0,287,7,NA
fcp-trial,323,1440391,0.0-298.0-0.0,voc_e2,11815,"[{""event"":""fullscreenenter"",""trial"":1,""time"":3462}]",NA,NA,NA,NA,NA,0,#3386FF,#D89F1C,0,10,1,38,1,1024.1000001430511,37,1,298.7000000476837,0,1,experiment,NA,NA,2,0.5,0.5,4,5,288,7,NA
fcp-trial,324,1443191,0.0-299.0-0.0,voc_e2,11815,"[{""event"":""fullscreenenter"",""trial"":1,""time"":3462}]",NA,NA,NA,NA,NA,5,#741CD8,#D8271C,10,0,1,40,0,782.5,39,0,510.7999999523163,0,0,experiment,NA,NA,1,0.7,0.3,2,3,289,7,NA
fcp-trial,325,1445925,0.0-300.0-0.0,voc_e2,11815,"[{""event"":""fullscreenenter"",""trial"":1,""time"":3462}]",NA,NA,NA,NA,NA,2,#1CD855,#FA92F8,10,10,0,38,1,904.5999999046326,39,0,325,10,1,experiment,NA,NA,0,0.1,0.9,1,0,290,7,NA
fcp-trial,326,1448484,0.0-301.0-0.0,voc_e2,11815,"[{""event"":""fullscreenenter"",""trial"":1,""time"":3462}]",NA,NA,NA,NA,NA,3,#1CD855,#FA92F8,0,0,0,38,1,701.8999998569489,39,0,348.60000014305115,0,1,experiment,NA,NA,0,0.1,0.9,1,0,291,7,NA
fcp-trial,327,1451264,0.0-302.0-0.0,voc_e2,11815,"[{""event"":""fullscreenenter"",""trial"":1,""time"":3462}]",NA,NA,NA,NA,NA,4,#3386FF,#D89F1C,10,0,1,38,1,949.7999999523163,37,1,327.09999990463257,10,1,experiment,NA,NA,2,0.5,0.5,4,5,292,7,NA
fcp-trial,328,1456070,0.0-303.0-0.0,voc_e2,11815,"[{""event"":""fullscreenenter"",""trial"":1,""time"":3462}]",NA,NA,NA,NA,NA,2,#741CD8,#D8271C,10,0,1,38,1,2922.600000143051,37,1,379.59999990463257,10,1,experiment,NA,NA,1,0.7,0.3,2,3,293,7,NA
fcp-trial,329,1460607,0.0-304.0-0.0,voc_e2,11815,"[{""event"":""fullscreenenter"",""trial"":1,""time"":3462}]",NA,NA,NA,NA,NA,2,#D89F1C,#3386FF,10,0,0,38,1,2667.5999999046326,39,0,362.7000000476837,0,1,experiment,NA,NA,2,0.5,0.5,5,4,294,7,NA
fcp-trial,330,1463387,0.0-305.0-0.0,voc_e2,11815,"[{""event"":""fullscreenenter"",""trial"":1,""time"":3462}]",NA,NA,NA,NA,NA,0,#741CD8,#D8271C,0,0,1,38,1,809.5,37,1,463.90000009536743,0,1,experiment,NA,NA,1,0.7,0.3,2,3,295,7,NA
fcp-trial,331,1467229,0.0-306.0-0.0,voc_e2,11815,"[{""event"":""fullscreenenter"",""trial"":1,""time"":3462}]",NA,NA,NA,NA,NA,0,#1CD855,#FA92F8,0,0,0,38,1,1538.7000000476837,39,0,796.7999999523163,0,1,experiment,NA,NA,0,0.1,0.9,1,0,296,7,NA
fcp-trial,332,1471001,0.0-307.0-0.0,voc_e2,11815,"[{""event"":""fullscreenenter"",""trial"":1,""time"":3462}]",NA,NA,NA,NA,NA,1,#1CD855,#FA92F8,0,10,0,38,1,1981.9000000953674,39,0,286.2000000476837,10,1,experiment,NA,NA,0,0.1,0.9,1,0,297,7,NA
fcp-trial,333,1474086,0.0-308.0-0.0,voc_e2,11815,"[{""event"":""fullscreenenter"",""trial"":1,""time"":3462}]",NA,NA,NA,NA,NA,2,#D89F1C,#3386FF,0,10,0,38,1,868.5,39,0,703.2000000476837,10,1,experiment,NA,NA,2,0.5,0.5,5,4,298,7,NA
fcp-trial,334,1477019,0.0-309.0-0.0,voc_e2,11815,"[{""event"":""fullscreenenter"",""trial"":1,""time"":3462}]",NA,NA,NA,NA,NA,4,#D89F1C,#3386FF,10,0,0,38,1,1086.8999998569489,39,0,339,0,1,experiment,NA,NA,2,0.5,0.5,5,4,299,7,NA
fcp-trial,335,1480190,0.0-310.0-0.0,voc_e2,11815,"[{""event"":""fullscreenenter"",""trial"":1,""time"":3462}]",NA,NA,NA,NA,NA,3,#741CD8,#D8271C,10,10,1,38,1,1112.2000000476837,37,1,551.8000001907349,10,1,experiment,NA,NA,1,0.7,0.3,2,3,300,7,NA
fcp-trial,336,1482898,0.0-311.0-0.0,voc_e2,11815,"[{""event"":""fullscreenenter"",""trial"":1,""time"":3462}]",NA,NA,NA,NA,NA,0,#3386FF,#D89F1C,10,0,1,38,1,799.6000001430511,37,1,401.89999985694885,10,1,experiment,NA,NA,2,0.5,0.5,4,5,301,7,NA
fcp-trial,337,1486392,0.0-312.0-0.0,voc_e2,11815,"[{""event"":""fullscreenenter"",""trial"":1,""time"":3462}]",NA,NA,NA,NA,NA,4,#1CD855,#FA92F8,0,10,0,38,1,1586.2999999523163,39,0,401.90000009536743,10,1,experiment,NA,NA,0,0.1,0.9,1,0,302,7,NA
fcp-trial,338,1490761,0.0-313.0-0.0,voc_e2,11815,"[{""event"":""fullscreenenter"",""trial"":1,""time"":3462}]",NA,NA,NA,NA,NA,2,#741CD8,#D8271C,10,0,1,38,1,2482.5,37,1,379.89999985694885,10,1,experiment,NA,NA,1,0.7,0.3,2,3,303,7,NA
fcp-trial,339,1494726,0.0-314.0-0.0,voc_e2,11815,"[{""event"":""fullscreenenter"",""trial"":1,""time"":3462}]",NA,NA,NA,NA,NA,6,#1CD855,#FA92F8,0,0,0,40,0,1194.2000000476837,37,1,1262.5,0,0,experiment,NA,NA,0,0.1,0.9,1,0,304,7,NA
fcp-trial,340,1497764,0.0-315.0-0.0,voc_e2,11815,"[{""event"":""fullscreenenter"",""trial"":1,""time"":3462}]",NA,NA,NA,NA,NA,5,#3386FF,#D89F1C,0,10,1,40,0,1117.2000000476837,37,1,414.90000009536743,0,1,experiment,NA,NA,2,0.5,0.5,4,5,305,7,NA
fcp-trial,341,1502122,0.0-316.0-0.0,voc_e2,11815,"[{""event"":""fullscreenenter"",""trial"":1,""time"":3462}]",NA,NA,NA,NA,NA,6,#D8271C,#741CD8,0,10,0,40,0,766.7000000476837,37,1,2083.599999904633,0,0,experiment,NA,NA,1,0.3,0.7,3,2,306,7,NA
fcp-trial,342,1505439,0.0-317.0-0.0,voc_e2,11815,"[{""event"":""fullscreenenter"",""trial"":1,""time"":3462}]",NA,NA,NA,NA,NA,3,#1CD855,#FA92F8,10,10,0,40,0,1415.2000000476837,39,0,396.10000014305115,10,1,experiment,NA,NA,0,0.1,0.9,1,0,307,7,NA
fcp-trial,343,1511917,0.0-318.0-0.0,voc_e2,11815,"[{""event"":""fullscreenenter"",""trial"":1,""time"":3462}]",NA,NA,NA,NA,NA,3,#D89F1C,#3386FF,10,10,0,38,1,4405.100000143051,39,0,569,10,1,experiment,NA,NA,2,0.5,0.5,5,4,308,7,NA
fcp-trial,344,1514935,0.0-319.0-0.0,voc_e2,11815,"[{""event"":""fullscreenenter"",""trial"":1,""time"":3462}]",NA,NA,NA,NA,NA,4,#741CD8,#D8271C,0,0,1,40,0,910.7000000476837,39,0,601,0,0,experiment,NA,NA,1,0.7,0.3,2,3,309,7,NA
fcp-trial,345,1517828,0.0-320.0-0.0,voc_e2,11815,"[{""event"":""fullscreenenter"",""trial"":1,""time"":3462}]",NA,NA,NA,NA,NA,5,#FA92F8,#1CD855,10,10,1,40,0,885.2999999523163,37,1,503.10000014305115,10,1,experiment,NA,NA,0,0.9,0.1,0,1,310,7,NA
fcp-trial,346,1521372,0.0-321.0-0.0,voc_e2,11815,"[{""event"":""fullscreenenter"",""trial"":1,""time"":3462}]",NA,NA,NA,NA,NA,5,#D8271C,#741CD8,0,10,0,40,0,1265.8000001907349,37,1,772,0,0,experiment,NA,NA,1,0.3,0.7,3,2,311,7,NA
fcp-trial,347,1524380,0.0-322.0-0.0,voc_e2,11815,"[{""event"":""fullscreenenter"",""trial"":1,""time"":3462}]",NA,NA,NA,NA,NA,6,#D89F1C,#3386FF,0,10,0,40,0,945.2999999523163,37,1,558.1000001430511,0,0,experiment,NA,NA,2,0.5,0.5,5,4,312,7,NA
fcp-trial,348,1527409,0.0-323.0-0.0,voc_e2,11815,"[{""event"":""fullscreenenter"",""trial"":1,""time"":3462}]",NA,NA,NA,NA,NA,2,#FA92F8,#1CD855,10,0,1,38,1,1152.2000000476837,37,1,370.39999985694885,10,1,experiment,NA,NA,0,0.9,0.1,0,1,313,7,NA
fcp-trial,349,1530600,0.0-324.0-0.0,voc_e2,11815,"[{""event"":""fullscreenenter"",""trial"":1,""time"":3462}]",NA,NA,NA,NA,NA,1,#D89F1C,#3386FF,0,0,0,38,1,1203.7999999523163,39,0,482.7000000476837,0,1,experiment,NA,NA,2,0.5,0.5,5,4,314,7,NA
fcp-trial,350,1534219,0.0-325.0-0.0,voc_e2,11815,"[{""event"":""fullscreenenter"",""trial"":1,""time"":3462}]",NA,NA,NA,NA,NA,1,#D8271C,#741CD8,10,10,0,40,0,1553.0999999046326,37,1,557.9000000953674,10,0,experiment,NA,NA,1,0.3,0.7,3,2,315,7,NA
audio-instructions,351,1678841,0.0-326.0,voc_e2,11815,"[{""event"":""fullscreenenter"",""trial"":1,""time"":3462}]",NA,138640.79999995232,static/audio/finished.wav,NA,0,NA,NA,NA,NA,NA,NA,NA,NA,NA,NA,NA,NA,NA,NA,NA,NA,NA,NA,NA,NA,NA,NA,NA,NA,NA
audio-instructions,352,1691475,0.0-327.0-0.0,voc_e2,11815,"[{""event"":""fullscreenenter"",""trial"":1,""time"":3462}]",NA,1520.5999999046326,static/audio/explicit1.wav,NA,0,NA,NA,NA,NA,NA,NA,NA,NA,NA,NA,NA,NA,NA,NA,NA,NA,NA,NA,NA,NA,NA,NA,NA,NA,NA
audio-instructions,353,1704870,0.0-327.0-1.0,voc_e2,11815,"[{""event"":""fullscreenenter"",""trial"":1,""time"":3462}]",NA,5795.200000047684,static/audio/explicit2.wav,NA,0,NA,NA,NA,NA,NA,NA,NA,NA,NA,NA,NA,NA,NA,NA,NA,NA,NA,NA,NA,NA,NA,NA,NA,NA,NA
image-slider-response,354,1710942,0.0-328.0,voc_e2,11815,"[{""event"":""fullscreenenter"",""trial"":1,""time"":3462}]",NA,6069.899999856949,static/img/machines/machine2.png,NA,NA,NA,NA,NA,NA,NA,NA,NA,NA,NA,NA,NA,NA,NA,NA,explicit,NA,NA,NA,NA,NA,NA,NA,NA,NA,6
image-slider-response,355,1718318,0.0-329.0,voc_e2,11815,"[{""event"":""fullscreenenter"",""trial"":1,""time"":3462}]",NA,7375,static/img/machines/machine5.png,NA,NA,NA,NA,NA,NA,NA,NA,NA,NA,NA,NA,NA,NA,NA,NA,explicit,NA,NA,NA,NA,NA,NA,NA,NA,NA,9
image-slider-response,356,1724452,0.0-330.0,voc_e2,11815,"[{""event"":""fullscreenenter"",""trial"":1,""time"":3462}]",NA,6132.400000095367,static/img/machines/machine1.png,NA,NA,NA,NA,NA,NA,NA,NA,NA,NA,NA,NA,NA,NA,NA,NA,explicit,NA,NA,NA,NA,NA,NA,NA,NA,NA,1
image-slider-response,357,1730343,0.0-331.0,voc_e2,11815,"[{""event"":""fullscreenenter"",""trial"":1,""time"":3462}]",NA,5889.400000095367,static/img/machines/machine3.png,NA,NA,NA,NA,NA,NA,NA,NA,NA,NA,NA,NA,NA,NA,NA,NA,explicit,NA,NA,NA,NA,NA,NA,NA,NA,NA,8
image-slider-response,358,1734376,0.0-332.0,voc_e2,11815,"[{""event"":""fullscreenenter"",""trial"":1,""time"":3462}]",NA,4029.799999952316,static/img/machines/machine4.png,NA,NA,NA,NA,NA,NA,NA,NA,NA,NA,NA,NA,NA,NA,NA,NA,explicit,NA,NA,NA,NA,NA,NA,NA,NA,NA,3
image-slider-response,359,1740619,0.0-333.0,voc_e2,11815,"[{""event"":""fullscreenenter"",""trial"":1,""time"":3462}]",NA,6242.100000143051,static/img/machines/machine6.png,NA,NA,NA,NA,NA,NA,NA,NA,NA,NA,NA,NA,NA,NA,NA,NA,explicit,NA,NA,NA,NA,NA,NA,NA,NA,NA,3
