trial_type,trial_index,time_elapsed,internal_node_id,task_version,subject_id,interactions,success,rt,stimulus,key_press,button_pressed,offer,arcade_color_L,arcade_color_R,arcade_outcome_L,arcade_outcome_R,correct,stage_1_key,stage_1_choice,stage_1_rt,stage_2_key,stage_2_choice,stage_2_rt,stage_3_outcome,accuracy,phase,responses,num_errors,context,reward_prob_L,reward_prob_R,arcade_id_L,arcade_id_R,trial,block,response
pavlovia,0,21,0.0-0.0,voc_e2,11947,"[{""event"":""blur"",""trial"":0,""time"":0},{""event"":""focus"",""trial"":0,""time"":0},{""event"":""blur"",""trial"":0,""time"":0},{""event"":""focus"",""trial"":0,""time"":0}]",NA,NA,NA,NA,NA,NA,NA,NA,NA,NA,NA,NA,NA,NA,NA,NA,NA,NA,NA,NA,NA,NA,NA,NA,NA,NA,NA,NA,NA,NA
fullscreen,1,2853,0.0-1.0,voc_e2,11947,"[{""event"":""blur"",""trial"":0,""time"":0},{""event"":""focus"",""trial"":0,""time"":0},{""event"":""blur"",""trial"":0,""time"":0},{""event"":""focus"",""trial"":0,""time"":0},{""event"":""fullscreenenter"",""trial"":1,""time"":1861}]",TRUE,NA,NA,NA,NA,NA,NA,NA,NA,NA,NA,NA,NA,NA,NA,NA,NA,NA,NA,NA,NA,NA,NA,NA,NA,NA,NA,NA,NA,NA
audio-keyboard-response,2,15390,0.0-2.0,voc_e2,11947,"[{""event"":""blur"",""trial"":0,""time"":0},{""event"":""focus"",""trial"":0,""time"":0},{""event"":""blur"",""trial"":0,""time"":0},{""event"":""focus"",""trial"":0,""time"":0},{""event"":""fullscreenenter"",""trial"":1,""time"":1861}]",NA,12501,static/audio/beep_loop.wav,32,NA,NA,NA,NA,NA,NA,NA,NA,NA,NA,NA,NA,NA,NA,NA,NA,NA,NA,NA,NA,NA,NA,NA,NA,NA,NA
audio-test,3,123129,0.0-3.0,voc_e2,11947,"[{""event"":""blur"",""trial"":0,""time"":0},{""event"":""focus"",""trial"":0,""time"":0},{""event"":""blur"",""trial"":0,""time"":0},{""event"":""focus"",""trial"":0,""time"":0},{""event"":""fullscreenenter"",""trial"":1,""time"":1861},{""event"":""blur"",""trial"":3,""time"":91329},{""event"":""focus"",""trial"":3,""time"":91330},{""event"":""fullscreenexit"",""trial"":3,""time"":91340},{""event"":""blur"",""trial"":3,""time"":93546},{""event"":""focus"",""trial"":3,""time"":101012}]",NA,NA,static/audio/turtle.wav,NA,3,NA,NA,NA,NA,NA,NA,NA,NA,NA,NA,NA,NA,NA,NA,NA,NA,NA,NA,NA,NA,NA,NA,NA,NA,NA
audio-test,4,131760,0.0-4.0,voc_e2,11947,"[{""event"":""blur"",""trial"":0,""time"":0},{""event"":""focus"",""trial"":0,""time"":0},{""event"":""blur"",""trial"":0,""time"":0},{""event"":""focus"",""trial"":0,""time"":0},{""event"":""fullscreenenter"",""trial"":1,""time"":1861},{""event"":""blur"",""trial"":3,""time"":91329},{""event"":""focus"",""trial"":3,""time"":91330},{""event"":""fullscreenexit"",""trial"":3,""time"":91340},{""event"":""blur"",""trial"":3,""time"":93546},{""event"":""focus"",""trial"":3,""time"":101012}]",NA,NA,static/audio/shark.wav,NA,2,NA,NA,NA,NA,NA,NA,NA,NA,NA,NA,NA,NA,NA,NA,NA,NA,NA,NA,NA,NA,NA,NA,NA,NA,NA
audio-instructions,5,141985,0.0-5.0-0.0,voc_e2,11947,"[{""event"":""blur"",""trial"":0,""time"":0},{""event"":""focus"",""trial"":0,""time"":0},{""event"":""blur"",""trial"":0,""time"":0},{""event"":""focus"",""trial"":0,""time"":0},{""event"":""fullscreenenter"",""trial"":1,""time"":1861},{""event"":""blur"",""trial"":3,""time"":91329},{""event"":""focus"",""trial"":3,""time"":91330},{""event"":""fullscreenexit"",""trial"":3,""time"":91340},{""event"":""blur"",""trial"":3,""time"":93546},{""event"":""focus"",""trial"":3,""time"":101012}]",NA,4432.899999976158,static/audio/instructions1.wav,NA,0,NA,NA,NA,NA,NA,NA,NA,NA,NA,NA,NA,NA,NA,NA,NA,NA,NA,NA,NA,NA,NA,NA,NA,NA,NA
audio-instructions,6,152073,0.0-5.0-1.0,voc_e2,11947,"[{""event"":""blur"",""trial"":0,""time"":0},{""event"":""focus"",""trial"":0,""time"":0},{""event"":""blur"",""trial"":0,""time"":0},{""event"":""focus"",""trial"":0,""time"":0},{""event"":""fullscreenenter"",""trial"":1,""time"":1861},{""event"":""blur"",""trial"":3,""time"":91329},{""event"":""focus"",""trial"":3,""time"":91330},{""event"":""fullscreenexit"",""trial"":3,""time"":91340},{""event"":""blur"",""trial"":3,""time"":93546},{""event"":""focus"",""trial"":3,""time"":101012}]",NA,3341.099999904633,static/audio/instructions2.wav,NA,0,NA,NA,NA,NA,NA,NA,NA,NA,NA,NA,NA,NA,NA,NA,NA,NA,NA,NA,NA,NA,NA,NA,NA,NA,NA
audio-instructions,7,160233,0.0-5.0-2.0,voc_e2,11947,"[{""event"":""blur"",""trial"":0,""time"":0},{""event"":""focus"",""trial"":0,""time"":0},{""event"":""blur"",""trial"":0,""time"":0},{""event"":""focus"",""trial"":0,""time"":0},{""event"":""fullscreenenter"",""trial"":1,""time"":1861},{""event"":""blur"",""trial"":3,""time"":91329},{""event"":""focus"",""trial"":3,""time"":91330},{""event"":""fullscreenexit"",""trial"":3,""time"":91340},{""event"":""blur"",""trial"":3,""time"":93546},{""event"":""focus"",""trial"":3,""time"":101012}]",NA,2350.8000000715256,static/audio/instructions3.wav,NA,0,NA,NA,NA,NA,NA,NA,NA,NA,NA,NA,NA,NA,NA,NA,NA,NA,NA,NA,NA,NA,NA,NA,NA,NA,NA
audio-instructions,8,176184,0.0-5.0-3.0,voc_e2,11947,"[{""event"":""blur"",""trial"":0,""time"":0},{""event"":""focus"",""trial"":0,""time"":0},{""event"":""blur"",""trial"":0,""time"":0},{""event"":""focus"",""trial"":0,""time"":0},{""event"":""fullscreenenter"",""trial"":1,""time"":1861},{""event"":""blur"",""trial"":3,""time"":91329},{""event"":""focus"",""trial"":3,""time"":91330},{""event"":""fullscreenexit"",""trial"":3,""time"":91340},{""event"":""blur"",""trial"":3,""time"":93546},{""event"":""focus"",""trial"":3,""time"":101012}]",NA,2722.7000000476837,static/audio/instructions4.wav,NA,0,NA,NA,NA,NA,NA,NA,NA,NA,NA,NA,NA,NA,NA,NA,NA,NA,NA,NA,NA,NA,NA,NA,NA,NA,NA
audio-instructions,9,189536,0.0-5.0-4.0,voc_e2,11947,"[{""event"":""blur"",""trial"":0,""time"":0},{""event"":""focus"",""trial"":0,""time"":0},{""event"":""blur"",""trial"":0,""time"":0},{""event"":""focus"",""trial"":0,""time"":0},{""event"":""fullscreenenter"",""trial"":1,""time"":1861},{""event"":""blur"",""trial"":3,""time"":91329},{""event"":""focus"",""trial"":3,""time"":91330},{""event"":""fullscreenexit"",""trial"":3,""time"":91340},{""event"":""blur"",""trial"":3,""time"":93546},{""event"":""focus"",""trial"":3,""time"":101012}]",NA,3964.8000000715256,static/audio/instructions5.wav,NA,0,NA,NA,NA,NA,NA,NA,NA,NA,NA,NA,NA,NA,NA,NA,NA,NA,NA,NA,NA,NA,NA,NA,NA,NA,NA
fcp-practice,10,195772,0.0-5.0-5.0-0.0,voc_e2,11947,"[{""event"":""blur"",""trial"":0,""time"":0},{""event"":""focus"",""trial"":0,""time"":0},{""event"":""blur"",""trial"":0,""time"":0},{""event"":""focus"",""trial"":0,""time"":0},{""event"":""fullscreenenter"",""trial"":1,""time"":1861},{""event"":""blur"",""trial"":3,""time"":91329},{""event"":""focus"",""trial"":3,""time"":91330},{""event"":""fullscreenexit"",""trial"":3,""time"":91340},{""event"":""blur"",""trial"":3,""time"":93546},{""event"":""focus"",""trial"":3,""time"":101012},{""event"":""blur"",""trial"":10,""time"":192633},{""event"":""focus"",""trial"":10,""time"":193717}]",NA,NA,NA,NA,NA,NA,#EDC948,#46d3c8,10,0,1,null,null,null,37,1,4701,10,1,practice,NA,NA,NA,NA,NA,NA,NA,NA,NA,NA
fcp-practice,11,199254,0.0-5.0-5.0-1.0,voc_e2,11947,"[{""event"":""blur"",""trial"":0,""time"":0},{""event"":""focus"",""trial"":0,""time"":0},{""event"":""blur"",""trial"":0,""time"":0},{""event"":""focus"",""trial"":0,""time"":0},{""event"":""fullscreenenter"",""trial"":1,""time"":1861},{""event"":""blur"",""trial"":3,""time"":91329},{""event"":""focus"",""trial"":3,""time"":91330},{""event"":""fullscreenexit"",""trial"":3,""time"":91340},{""event"":""blur"",""trial"":3,""time"":93546},{""event"":""focus"",""trial"":3,""time"":101012},{""event"":""blur"",""trial"":10,""time"":192633},{""event"":""focus"",""trial"":10,""time"":193717}]",NA,NA,NA,NA,NA,NA,#EDC948,#46d3c8,10,0,1,null,null,null,37,1,1962.7999999523165,10,1,practice,NA,NA,NA,NA,NA,NA,NA,NA,NA,NA
fcp-practice,12,202271,0.0-5.0-5.0-2.0,voc_e2,11947,"[{""event"":""blur"",""trial"":0,""time"":0},{""event"":""focus"",""trial"":0,""time"":0},{""event"":""blur"",""trial"":0,""time"":0},{""event"":""focus"",""trial"":0,""time"":0},{""event"":""fullscreenenter"",""trial"":1,""time"":1861},{""event"":""blur"",""trial"":3,""time"":91329},{""event"":""focus"",""trial"":3,""time"":91330},{""event"":""fullscreenexit"",""trial"":3,""time"":91340},{""event"":""blur"",""trial"":3,""time"":93546},{""event"":""focus"",""trial"":3,""time"":101012},{""event"":""blur"",""trial"":10,""time"":192633},{""event"":""focus"",""trial"":10,""time"":193717}]",NA,NA,NA,NA,NA,NA,#EDC948,#46d3c8,0,10,1,null,null,null,37,1,1507.600000023842,0,1,practice,NA,NA,NA,NA,NA,NA,NA,NA,NA,NA
fcp-practice,13,206505,0.0-5.0-5.0-3.0,voc_e2,11947,"[{""event"":""blur"",""trial"":0,""time"":0},{""event"":""focus"",""trial"":0,""time"":0},{""event"":""blur"",""trial"":0,""time"":0},{""event"":""focus"",""trial"":0,""time"":0},{""event"":""fullscreenenter"",""trial"":1,""time"":1861},{""event"":""blur"",""trial"":3,""time"":91329},{""event"":""focus"",""trial"":3,""time"":91330},{""event"":""fullscreenexit"",""trial"":3,""time"":91340},{""event"":""blur"",""trial"":3,""time"":93546},{""event"":""focus"",""trial"":3,""time"":101012},{""event"":""blur"",""trial"":10,""time"":192633},{""event"":""focus"",""trial"":10,""time"":193717}]",NA,NA,NA,NA,NA,NA,#EDC948,#46d3c8,10,0,1,null,null,null,37,1,2722.600000023842,10,1,practice,NA,NA,NA,NA,NA,NA,NA,NA,NA,NA
fcp-practice,14,209705,0.0-5.0-5.0-4.0,voc_e2,11947,"[{""event"":""blur"",""trial"":0,""time"":0},{""event"":""focus"",""trial"":0,""time"":0},{""event"":""blur"",""trial"":0,""time"":0},{""event"":""focus"",""trial"":0,""time"":0},{""event"":""fullscreenenter"",""trial"":1,""time"":1861},{""event"":""blur"",""trial"":3,""time"":91329},{""event"":""focus"",""trial"":3,""time"":91330},{""event"":""fullscreenexit"",""trial"":3,""time"":91340},{""event"":""blur"",""trial"":3,""time"":93546},{""event"":""focus"",""trial"":3,""time"":101012},{""event"":""blur"",""trial"":10,""time"":192633},{""event"":""focus"",""trial"":10,""time"":193717}]",NA,NA,NA,NA,NA,NA,#EDC948,#46d3c8,10,0,1,null,null,null,37,1,1684.600000023842,10,1,practice,NA,NA,NA,NA,NA,NA,NA,NA,NA,NA
audio-instructions,15,230616,0.0-5.0-6.0,voc_e2,11947,"[{""event"":""blur"",""trial"":0,""time"":0},{""event"":""focus"",""trial"":0,""time"":0},{""event"":""blur"",""trial"":0,""time"":0},{""event"":""focus"",""trial"":0,""time"":0},{""event"":""fullscreenenter"",""trial"":1,""time"":1861},{""event"":""blur"",""trial"":3,""time"":91329},{""event"":""focus"",""trial"":3,""time"":91330},{""event"":""fullscreenexit"",""trial"":3,""time"":91340},{""event"":""blur"",""trial"":3,""time"":93546},{""event"":""focus"",""trial"":3,""time"":101012},{""event"":""blur"",""trial"":10,""time"":192633},{""event"":""focus"",""trial"":10,""time"":193717}]",NA,2904.7999999523163,static/audio/instructions6.wav,NA,0,NA,NA,NA,NA,NA,NA,NA,NA,NA,NA,NA,NA,NA,NA,NA,NA,NA,NA,NA,NA,NA,NA,NA,NA,NA
audio-instructions,16,251929,0.0-5.0-7.0,voc_e2,11947,"[{""event"":""blur"",""trial"":0,""time"":0},{""event"":""focus"",""trial"":0,""time"":0},{""event"":""blur"",""trial"":0,""time"":0},{""event"":""focus"",""trial"":0,""time"":0},{""event"":""fullscreenenter"",""trial"":1,""time"":1861},{""event"":""blur"",""trial"":3,""time"":91329},{""event"":""focus"",""trial"":3,""time"":91330},{""event"":""fullscreenexit"",""trial"":3,""time"":91340},{""event"":""blur"",""trial"":3,""time"":93546},{""event"":""focus"",""trial"":3,""time"":101012},{""event"":""blur"",""trial"":10,""time"":192633},{""event"":""focus"",""trial"":10,""time"":193717}]",NA,2117.7999999523163,static/audio/instructions7.wav,NA,0,NA,NA,NA,NA,NA,NA,NA,NA,NA,NA,NA,NA,NA,NA,NA,NA,NA,NA,NA,NA,NA,NA,NA,NA,NA
audio-instructions,17,263633,0.0-5.0-8.0,voc_e2,11947,"[{""event"":""blur"",""trial"":0,""time"":0},{""event"":""focus"",""trial"":0,""time"":0},{""event"":""blur"",""trial"":0,""time"":0},{""event"":""focus"",""trial"":0,""time"":0},{""event"":""fullscreenenter"",""trial"":1,""time"":1861},{""event"":""blur"",""trial"":3,""time"":91329},{""event"":""focus"",""trial"":3,""time"":91330},{""event"":""fullscreenexit"",""trial"":3,""time"":91340},{""event"":""blur"",""trial"":3,""time"":93546},{""event"":""focus"",""trial"":3,""time"":101012},{""event"":""blur"",""trial"":10,""time"":192633},{""event"":""focus"",""trial"":10,""time"":193717}]",NA,2221.7999999523163,static/audio/instructions8.wav,NA,0,NA,NA,NA,NA,NA,NA,NA,NA,NA,NA,NA,NA,NA,NA,NA,NA,NA,NA,NA,NA,NA,NA,NA,NA,NA
fcp-comprehension,18,293297,0.0-5.0-9.0,voc_e2,11947,"[{""event"":""blur"",""trial"":0,""time"":0},{""event"":""focus"",""trial"":0,""time"":0},{""event"":""blur"",""trial"":0,""time"":0},{""event"":""focus"",""trial"":0,""time"":0},{""event"":""fullscreenenter"",""trial"":1,""time"":1861},{""event"":""blur"",""trial"":3,""time"":91329},{""event"":""focus"",""trial"":3,""time"":91330},{""event"":""fullscreenexit"",""trial"":3,""time"":91340},{""event"":""blur"",""trial"":3,""time"":93546},{""event"":""focus"",""trial"":3,""time"":101012},{""event"":""blur"",""trial"":10,""time"":192633},{""event"":""focus"",""trial"":10,""time"":193717}]",NA,29658.10000002384,NA,NA,NA,NA,NA,NA,NA,NA,NA,NA,NA,NA,NA,NA,NA,NA,NA,NA,"true,true",0,NA,NA,NA,NA,NA,NA,NA,NA
audio-instructions,19,302231,0.0-6.0-0.0,voc_e2,11947,"[{""event"":""blur"",""trial"":0,""time"":0},{""event"":""focus"",""trial"":0,""time"":0},{""event"":""blur"",""trial"":0,""time"":0},{""event"":""focus"",""trial"":0,""time"":0},{""event"":""fullscreenenter"",""trial"":1,""time"":1861},{""event"":""blur"",""trial"":3,""time"":91329},{""event"":""focus"",""trial"":3,""time"":91330},{""event"":""fullscreenexit"",""trial"":3,""time"":91340},{""event"":""blur"",""trial"":3,""time"":93546},{""event"":""focus"",""trial"":3,""time"":101012},{""event"":""blur"",""trial"":10,""time"":192633},{""event"":""focus"",""trial"":10,""time"":193717}]",NA,3389.899999976158,static/audio/instructions9.wav,NA,0,NA,NA,NA,NA,NA,NA,NA,NA,NA,NA,NA,NA,NA,NA,NA,NA,NA,NA,NA,NA,NA,NA,NA,NA,NA
audio-instructions,20,316383,0.0-6.0-1.0,voc_e2,11947,"[{""event"":""blur"",""trial"":0,""time"":0},{""event"":""focus"",""trial"":0,""time"":0},{""event"":""blur"",""trial"":0,""time"":0},{""event"":""focus"",""trial"":0,""time"":0},{""event"":""fullscreenenter"",""trial"":1,""time"":1861},{""event"":""blur"",""trial"":3,""time"":91329},{""event"":""focus"",""trial"":3,""time"":91330},{""event"":""fullscreenexit"",""trial"":3,""time"":91340},{""event"":""blur"",""trial"":3,""time"":93546},{""event"":""focus"",""trial"":3,""time"":101012},{""event"":""blur"",""trial"":10,""time"":192633},{""event"":""focus"",""trial"":10,""time"":193717}]",NA,2031,static/audio/instructions10.wav,NA,0,NA,NA,NA,NA,NA,NA,NA,NA,NA,NA,NA,NA,NA,NA,NA,NA,NA,NA,NA,NA,NA,NA,NA,NA,NA
fcp-trial,21,325870,0.0-6.0-2.0,voc_e2,11947,"[{""event"":""blur"",""trial"":0,""time"":0},{""event"":""focus"",""trial"":0,""time"":0},{""event"":""blur"",""trial"":0,""time"":0},{""event"":""focus"",""trial"":0,""time"":0},{""event"":""fullscreenenter"",""trial"":1,""time"":1861},{""event"":""blur"",""trial"":3,""time"":91329},{""event"":""focus"",""trial"":3,""time"":91330},{""event"":""fullscreenexit"",""trial"":3,""time"":91340},{""event"":""blur"",""trial"":3,""time"":93546},{""event"":""focus"",""trial"":3,""time"":101012},{""event"":""blur"",""trial"":10,""time"":192633},{""event"":""focus"",""trial"":10,""time"":193717}]",NA,NA,NA,NA,NA,0,#EDC948,#46d3c8,10,10,1,38,1,3354.5,39,0,4589.400000095367,10,0,practice,NA,NA,NA,NA,NA,NA,NA,NA,NA,NA
audio-instructions,22,338767,0.0-6.0-3.0,voc_e2,11947,"[{""event"":""blur"",""trial"":0,""time"":0},{""event"":""focus"",""trial"":0,""time"":0},{""event"":""blur"",""trial"":0,""time"":0},{""event"":""focus"",""trial"":0,""time"":0},{""event"":""fullscreenenter"",""trial"":1,""time"":1861},{""event"":""blur"",""trial"":3,""time"":91329},{""event"":""focus"",""trial"":3,""time"":91330},{""event"":""fullscreenexit"",""trial"":3,""time"":91340},{""event"":""blur"",""trial"":3,""time"":93546},{""event"":""focus"",""trial"":3,""time"":101012},{""event"":""blur"",""trial"":10,""time"":192633},{""event"":""focus"",""trial"":10,""time"":193717}]",NA,1885.8000000715256,static/audio/instructions11.wav,NA,0,NA,NA,NA,NA,NA,NA,NA,NA,NA,NA,NA,NA,NA,NA,NA,NA,NA,NA,NA,NA,NA,NA,NA,NA,NA
fcp-trial,23,343139,0.0-6.0-4.0,voc_e2,11947,"[{""event"":""blur"",""trial"":0,""time"":0},{""event"":""focus"",""trial"":0,""time"":0},{""event"":""blur"",""trial"":0,""time"":0},{""event"":""focus"",""trial"":0,""time"":0},{""event"":""fullscreenenter"",""trial"":1,""time"":1861},{""event"":""blur"",""trial"":3,""time"":91329},{""event"":""focus"",""trial"":3,""time"":91330},{""event"":""fullscreenexit"",""trial"":3,""time"":91340},{""event"":""blur"",""trial"":3,""time"":93546},{""event"":""focus"",""trial"":3,""time"":101012},{""event"":""blur"",""trial"":10,""time"":192633},{""event"":""focus"",""trial"":10,""time"":193717}]",NA,NA,NA,NA,NA,6,#EDC948,#46d3c8,10,10,1,40,0,593,37,1,2261.7999999523163,10,1,practice,NA,NA,NA,NA,NA,NA,NA,NA,NA,NA
audio-instructions,24,363399,0.0-6.0-5.0,voc_e2,11947,"[{""event"":""blur"",""trial"":0,""time"":0},{""event"":""focus"",""trial"":0,""time"":0},{""event"":""blur"",""trial"":0,""time"":0},{""event"":""focus"",""trial"":0,""time"":0},{""event"":""fullscreenenter"",""trial"":1,""time"":1861},{""event"":""blur"",""trial"":3,""time"":91329},{""event"":""focus"",""trial"":3,""time"":91330},{""event"":""fullscreenexit"",""trial"":3,""time"":91340},{""event"":""blur"",""trial"":3,""time"":93546},{""event"":""focus"",""trial"":3,""time"":101012},{""event"":""blur"",""trial"":10,""time"":192633},{""event"":""focus"",""trial"":10,""time"":193717}]",NA,1567.100000023842,static/audio/instructions12.wav,NA,0,NA,NA,NA,NA,NA,NA,NA,NA,NA,NA,NA,NA,NA,NA,NA,NA,NA,NA,NA,NA,NA,NA,NA,NA,NA
audio-instructions,25,373414,0.0-6.0-6.0,voc_e2,11947,"[{""event"":""blur"",""trial"":0,""time"":0},{""event"":""focus"",""trial"":0,""time"":0},{""event"":""blur"",""trial"":0,""time"":0},{""event"":""focus"",""trial"":0,""time"":0},{""event"":""fullscreenenter"",""trial"":1,""time"":1861},{""event"":""blur"",""trial"":3,""time"":91329},{""event"":""focus"",""trial"":3,""time"":91330},{""event"":""fullscreenexit"",""trial"":3,""time"":91340},{""event"":""blur"",""trial"":3,""time"":93546},{""event"":""focus"",""trial"":3,""time"":101012},{""event"":""blur"",""trial"":10,""time"":192633},{""event"":""focus"",""trial"":10,""time"":193717}]",NA,2423.599999904633,static/audio/instructions13.wav,NA,0,NA,NA,NA,NA,NA,NA,NA,NA,NA,NA,NA,NA,NA,NA,NA,NA,NA,NA,NA,NA,NA,NA,NA,NA,NA
audio-instructions,26,383694,0.0-6.0-7.0,voc_e2,11947,"[{""event"":""blur"",""trial"":0,""time"":0},{""event"":""focus"",""trial"":0,""time"":0},{""event"":""blur"",""trial"":0,""time"":0},{""event"":""focus"",""trial"":0,""time"":0},{""event"":""fullscreenenter"",""trial"":1,""time"":1861},{""event"":""blur"",""trial"":3,""time"":91329},{""event"":""focus"",""trial"":3,""time"":91330},{""event"":""fullscreenexit"",""trial"":3,""time"":91340},{""event"":""blur"",""trial"":3,""time"":93546},{""event"":""focus"",""trial"":3,""time"":101012},{""event"":""blur"",""trial"":10,""time"":192633},{""event"":""focus"",""trial"":10,""time"":193717}]",NA,1833.6999999284744,static/audio/instructions14.wav,NA,0,NA,NA,NA,NA,NA,NA,NA,NA,NA,NA,NA,NA,NA,NA,NA,NA,NA,NA,NA,NA,NA,NA,NA,NA,NA
audio-instructions,27,391198,0.0-7.0-0.0,voc_e2,11947,"[{""event"":""blur"",""trial"":0,""time"":0},{""event"":""focus"",""trial"":0,""time"":0},{""event"":""blur"",""trial"":0,""time"":0},{""event"":""focus"",""trial"":0,""time"":0},{""event"":""fullscreenenter"",""trial"":1,""time"":1861},{""event"":""blur"",""trial"":3,""time"":91329},{""event"":""focus"",""trial"":3,""time"":91330},{""event"":""fullscreenexit"",""trial"":3,""time"":91340},{""event"":""blur"",""trial"":3,""time"":93546},{""event"":""focus"",""trial"":3,""time"":101012},{""event"":""blur"",""trial"":10,""time"":192633},{""event"":""focus"",""trial"":10,""time"":193717}]",NA,587.7000000476837,static/audio/instructions15.wav,NA,0,NA,NA,NA,NA,NA,NA,NA,NA,NA,NA,NA,NA,NA,NA,NA,NA,NA,NA,NA,NA,NA,NA,NA,NA,NA
audio-instructions,28,399142,0.0-7.0-1.0,voc_e2,11947,"[{""event"":""blur"",""trial"":0,""time"":0},{""event"":""focus"",""trial"":0,""time"":0},{""event"":""blur"",""trial"":0,""time"":0},{""event"":""focus"",""trial"":0,""time"":0},{""event"":""fullscreenenter"",""trial"":1,""time"":1861},{""event"":""blur"",""trial"":3,""time"":91329},{""event"":""focus"",""trial"":3,""time"":91330},{""event"":""fullscreenexit"",""trial"":3,""time"":91340},{""event"":""blur"",""trial"":3,""time"":93546},{""event"":""focus"",""trial"":3,""time"":101012},{""event"":""blur"",""trial"":10,""time"":192633},{""event"":""focus"",""trial"":10,""time"":193717}]",NA,1121.9000000953674,static/audio/instructions16.wav,NA,0,NA,NA,NA,NA,NA,NA,NA,NA,NA,NA,NA,NA,NA,NA,NA,NA,NA,NA,NA,NA,NA,NA,NA,NA,NA
audio-instructions,29,407551,0.0-7.0-2.0,voc_e2,11947,"[{""event"":""blur"",""trial"":0,""time"":0},{""event"":""focus"",""trial"":0,""time"":0},{""event"":""blur"",""trial"":0,""time"":0},{""event"":""focus"",""trial"":0,""time"":0},{""event"":""fullscreenenter"",""trial"":1,""time"":1861},{""event"":""blur"",""trial"":3,""time"":91329},{""event"":""focus"",""trial"":3,""time"":91330},{""event"":""fullscreenexit"",""trial"":3,""time"":91340},{""event"":""blur"",""trial"":3,""time"":93546},{""event"":""focus"",""trial"":3,""time"":101012},{""event"":""blur"",""trial"":10,""time"":192633},{""event"":""focus"",""trial"":10,""time"":193717}]",NA,730.1000000238419,static/audio/instructions17.wav,NA,0,NA,NA,NA,NA,NA,NA,NA,NA,NA,NA,NA,NA,NA,NA,NA,NA,NA,NA,NA,NA,NA,NA,NA,NA,NA
audio-instructions,30,416086,0.0-7.0-3.0,voc_e2,11947,"[{""event"":""blur"",""trial"":0,""time"":0},{""event"":""focus"",""trial"":0,""time"":0},{""event"":""blur"",""trial"":0,""time"":0},{""event"":""focus"",""trial"":0,""time"":0},{""event"":""fullscreenenter"",""trial"":1,""time"":1861},{""event"":""blur"",""trial"":3,""time"":91329},{""event"":""focus"",""trial"":3,""time"":91330},{""event"":""fullscreenexit"",""trial"":3,""time"":91340},{""event"":""blur"",""trial"":3,""time"":93546},{""event"":""focus"",""trial"":3,""time"":101012},{""event"":""blur"",""trial"":10,""time"":192633},{""event"":""focus"",""trial"":10,""time"":193717}]",NA,765.7000000476837,static/audio/instructions18.wav,NA,0,NA,NA,NA,NA,NA,NA,NA,NA,NA,NA,NA,NA,NA,NA,NA,NA,NA,NA,NA,NA,NA,NA,NA,NA,NA
audio-instructions,31,423838,0.0-7.0-4.0,voc_e2,11947,"[{""event"":""blur"",""trial"":0,""time"":0},{""event"":""focus"",""trial"":0,""time"":0},{""event"":""blur"",""trial"":0,""time"":0},{""event"":""focus"",""trial"":0,""time"":0},{""event"":""fullscreenenter"",""trial"":1,""time"":1861},{""event"":""blur"",""trial"":3,""time"":91329},{""event"":""focus"",""trial"":3,""time"":91330},{""event"":""fullscreenexit"",""trial"":3,""time"":91340},{""event"":""blur"",""trial"":3,""time"":93546},{""event"":""focus"",""trial"":3,""time"":101012},{""event"":""blur"",""trial"":10,""time"":192633},{""event"":""focus"",""trial"":10,""time"":193717}]",NA,1017.7000000476836,static/audio/instructions19.wav,NA,0,NA,NA,NA,NA,NA,NA,NA,NA,NA,NA,NA,NA,NA,NA,NA,NA,NA,NA,NA,NA,NA,NA,NA,NA,NA
fcp-comprehension,32,467079,0.0-7.0-5.0,voc_e2,11947,"[{""event"":""blur"",""trial"":0,""time"":0},{""event"":""focus"",""trial"":0,""time"":0},{""event"":""blur"",""trial"":0,""time"":0},{""event"":""focus"",""trial"":0,""time"":0},{""event"":""fullscreenenter"",""trial"":1,""time"":1861},{""event"":""blur"",""trial"":3,""time"":91329},{""event"":""focus"",""trial"":3,""time"":91330},{""event"":""fullscreenexit"",""trial"":3,""time"":91340},{""event"":""blur"",""trial"":3,""time"":93546},{""event"":""focus"",""trial"":3,""time"":101012},{""event"":""blur"",""trial"":10,""time"":192633},{""event"":""focus"",""trial"":10,""time"":193717}]",NA,43238.60000002384,NA,NA,NA,NA,NA,NA,NA,NA,NA,NA,NA,NA,NA,NA,NA,NA,NA,NA,"false,false,false,true",0,NA,NA,NA,NA,NA,NA,NA,NA
audio-instructions,33,480654,0.0-8.0,voc_e2,11947,"[{""event"":""blur"",""trial"":0,""time"":0},{""event"":""focus"",""trial"":0,""time"":0},{""event"":""blur"",""trial"":0,""time"":0},{""event"":""focus"",""trial"":0,""time"":0},{""event"":""fullscreenenter"",""trial"":1,""time"":1861},{""event"":""blur"",""trial"":3,""time"":91329},{""event"":""focus"",""trial"":3,""time"":91330},{""event"":""fullscreenexit"",""trial"":3,""time"":91340},{""event"":""blur"",""trial"":3,""time"":93546},{""event"":""focus"",""trial"":3,""time"":101012},{""event"":""blur"",""trial"":10,""time"":192633},{""event"":""focus"",""trial"":10,""time"":193717}]",NA,4277.600000023842,static/audio/ready.wav,NA,0,NA,NA,NA,NA,NA,NA,NA,NA,NA,NA,NA,NA,NA,NA,NA,NA,NA,NA,NA,NA,NA,NA,NA,NA,NA
fcp-trial,34,489232,0.0-9.0-0.0,voc_e2,11947,"[{""event"":""blur"",""trial"":0,""time"":0},{""event"":""focus"",""trial"":0,""time"":0},{""event"":""blur"",""trial"":0,""time"":0},{""event"":""focus"",""trial"":0,""time"":0},{""event"":""fullscreenenter"",""trial"":1,""time"":1861},{""event"":""blur"",""trial"":3,""time"":91329},{""event"":""focus"",""trial"":3,""time"":91330},{""event"":""fullscreenexit"",""trial"":3,""time"":91340},{""event"":""blur"",""trial"":3,""time"":93546},{""event"":""focus"",""trial"":3,""time"":101012},{""event"":""blur"",""trial"":10,""time"":192633},{""event"":""focus"",""trial"":10,""time"":193717}]",NA,NA,NA,NA,NA,3,#D89F1C,#3386FF,10,10,0,38,1,5377.700000047684,37,1,1670.399999976158,10,0,experiment,NA,NA,1,0.3,0.7,3,2,1,1,NA
fcp-trial,35,495498,0.0-10.0-0.0,voc_e2,11947,"[{""event"":""blur"",""trial"":0,""time"":0},{""event"":""focus"",""trial"":0,""time"":0},{""event"":""blur"",""trial"":0,""time"":0},{""event"":""focus"",""trial"":0,""time"":0},{""event"":""fullscreenenter"",""trial"":1,""time"":1861},{""event"":""blur"",""trial"":3,""time"":91329},{""event"":""focus"",""trial"":3,""time"":91330},{""event"":""fullscreenexit"",""trial"":3,""time"":91340},{""event"":""blur"",""trial"":3,""time"":93546},{""event"":""focus"",""trial"":3,""time"":101012},{""event"":""blur"",""trial"":10,""time"":192633},{""event"":""focus"",""trial"":10,""time"":193717}]",NA,NA,NA,NA,NA,4,#741CD8,#D8271C,10,0,1,40,0,3018.2000000476837,37,1,1723.0999999046326,10,1,experiment,NA,NA,2,0.5,0.5,4,5,2,1,NA
fcp-trial,36,500916,0.0-11.0-0.0,voc_e2,11947,"[{""event"":""blur"",""trial"":0,""time"":0},{""event"":""focus"",""trial"":0,""time"":0},{""event"":""blur"",""trial"":0,""time"":0},{""event"":""focus"",""trial"":0,""time"":0},{""event"":""fullscreenenter"",""trial"":1,""time"":1861},{""event"":""blur"",""trial"":3,""time"":91329},{""event"":""focus"",""trial"":3,""time"":91330},{""event"":""fullscreenexit"",""trial"":3,""time"":91340},{""event"":""blur"",""trial"":3,""time"":93546},{""event"":""focus"",""trial"":3,""time"":101012},{""event"":""blur"",""trial"":10,""time"":192633},{""event"":""focus"",""trial"":10,""time"":193717}]",NA,NA,NA,NA,NA,1,#1CD855,#FA92F8,0,10,0,38,1,2076.600000023842,37,1,1822.6999999284744,0,0,experiment,NA,NA,0,0.1,0.9,1,0,3,1,NA
fcp-trial,37,506521,0.0-12.0-0.0,voc_e2,11947,"[{""event"":""blur"",""trial"":0,""time"":0},{""event"":""focus"",""trial"":0,""time"":0},{""event"":""blur"",""trial"":0,""time"":0},{""event"":""focus"",""trial"":0,""time"":0},{""event"":""fullscreenenter"",""trial"":1,""time"":1861},{""event"":""blur"",""trial"":3,""time"":91329},{""event"":""focus"",""trial"":3,""time"":91330},{""event"":""fullscreenexit"",""trial"":3,""time"":91340},{""event"":""blur"",""trial"":3,""time"":93546},{""event"":""focus"",""trial"":3,""time"":101012},{""event"":""blur"",""trial"":10,""time"":192633},{""event"":""focus"",""trial"":10,""time"":193717}]",NA,NA,NA,NA,NA,0,#3386FF,#D89F1C,10,10,1,38,1,2744.7000000476837,39,0,1338.2999999523165,10,0,experiment,NA,NA,1,0.7,0.3,2,3,4,1,NA
fcp-trial,38,512146,0.0-13.0-0.0,voc_e2,11947,"[{""event"":""blur"",""trial"":0,""time"":0},{""event"":""focus"",""trial"":0,""time"":0},{""event"":""blur"",""trial"":0,""time"":0},{""event"":""focus"",""trial"":0,""time"":0},{""event"":""fullscreenenter"",""trial"":1,""time"":1861},{""event"":""blur"",""trial"":3,""time"":91329},{""event"":""focus"",""trial"":3,""time"":91330},{""event"":""fullscreenexit"",""trial"":3,""time"":91340},{""event"":""blur"",""trial"":3,""time"":93546},{""event"":""focus"",""trial"":3,""time"":101012},{""event"":""blur"",""trial"":10,""time"":192633},{""event"":""focus"",""trial"":10,""time"":193717}]",NA,NA,NA,NA,NA,3,#D8271C,#741CD8,10,10,0,40,0,2838,37,1,1277.1999999284744,10,0,experiment,NA,NA,2,0.5,0.5,5,4,5,1,NA
fcp-trial,39,516809,0.0-14.0-0.0,voc_e2,11947,"[{""event"":""blur"",""trial"":0,""time"":0},{""event"":""focus"",""trial"":0,""time"":0},{""event"":""blur"",""trial"":0,""time"":0},{""event"":""focus"",""trial"":0,""time"":0},{""event"":""fullscreenenter"",""trial"":1,""time"":1861},{""event"":""blur"",""trial"":3,""time"":91329},{""event"":""focus"",""trial"":3,""time"":91330},{""event"":""fullscreenexit"",""trial"":3,""time"":91340},{""event"":""blur"",""trial"":3,""time"":93546},{""event"":""focus"",""trial"":3,""time"":101012},{""event"":""blur"",""trial"":10,""time"":192633},{""event"":""focus"",""trial"":10,""time"":193717}]",NA,NA,NA,NA,NA,1,#D89F1C,#3386FF,0,10,0,40,0,1112.7999999523163,37,1,2037.7999999523165,0,0,experiment,NA,NA,1,0.3,0.7,3,2,6,1,NA
fcp-trial,40,523256,0.0-15.0-0.0,voc_e2,11947,"[{""event"":""blur"",""trial"":0,""time"":0},{""event"":""focus"",""trial"":0,""time"":0},{""event"":""blur"",""trial"":0,""time"":0},{""event"":""focus"",""trial"":0,""time"":0},{""event"":""fullscreenenter"",""trial"":1,""time"":1861},{""event"":""blur"",""trial"":3,""time"":91329},{""event"":""focus"",""trial"":3,""time"":91330},{""event"":""fullscreenexit"",""trial"":3,""time"":91340},{""event"":""blur"",""trial"":3,""time"":93546},{""event"":""focus"",""trial"":3,""time"":101012},{""event"":""blur"",""trial"":10,""time"":192633},{""event"":""focus"",""trial"":10,""time"":193717}]",NA,NA,NA,NA,NA,2,#FA92F8,#1CD855,10,0,1,38,1,2004.9000000953674,37,1,2933.399999976158,10,1,experiment,NA,NA,0,0.9,0.1,0,1,7,1,NA
fcp-trial,41,529553,0.0-16.0-0.0,voc_e2,11947,"[{""event"":""blur"",""trial"":0,""time"":0},{""event"":""focus"",""trial"":0,""time"":0},{""event"":""blur"",""trial"":0,""time"":0},{""event"":""focus"",""trial"":0,""time"":0},{""event"":""fullscreenenter"",""trial"":1,""time"":1861},{""event"":""blur"",""trial"":3,""time"":91329},{""event"":""focus"",""trial"":3,""time"":91330},{""event"":""fullscreenexit"",""trial"":3,""time"":91340},{""event"":""blur"",""trial"":3,""time"":93546},{""event"":""focus"",""trial"":3,""time"":101012},{""event"":""blur"",""trial"":10,""time"":192633},{""event"":""focus"",""trial"":10,""time"":193717}]",NA,NA,NA,NA,NA,5,#FA92F8,#1CD855,10,0,1,40,0,2820.5,39,0,1966.399999976158,0,0,experiment,NA,NA,0,0.9,0.1,0,1,8,1,NA
fcp-trial,42,534698,0.0-17.0-0.0,voc_e2,11947,"[{""event"":""blur"",""trial"":0,""time"":0},{""event"":""focus"",""trial"":0,""time"":0},{""event"":""blur"",""trial"":0,""time"":0},{""event"":""focus"",""trial"":0,""time"":0},{""event"":""fullscreenenter"",""trial"":1,""time"":1861},{""event"":""blur"",""trial"":3,""time"":91329},{""event"":""focus"",""trial"":3,""time"":91330},{""event"":""fullscreenexit"",""trial"":3,""time"":91340},{""event"":""blur"",""trial"":3,""time"":93546},{""event"":""focus"",""trial"":3,""time"":101012},{""event"":""blur"",""trial"":10,""time"":192633},{""event"":""focus"",""trial"":10,""time"":193717}]",NA,NA,NA,NA,NA,0,#741CD8,#D8271C,0,0,1,40,0,2059.7000000476837,37,1,1575.7000000476835,0,1,experiment,NA,NA,2,0.5,0.5,4,5,9,1,NA
fcp-trial,43,539610,0.0-18.0-0.0,voc_e2,11947,"[{""event"":""blur"",""trial"":0,""time"":0},{""event"":""focus"",""trial"":0,""time"":0},{""event"":""blur"",""trial"":0,""time"":0},{""event"":""focus"",""trial"":0,""time"":0},{""event"":""fullscreenenter"",""trial"":1,""time"":1861},{""event"":""blur"",""trial"":3,""time"":91329},{""event"":""focus"",""trial"":3,""time"":91330},{""event"":""fullscreenexit"",""trial"":3,""time"":91340},{""event"":""blur"",""trial"":3,""time"":93546},{""event"":""focus"",""trial"":3,""time"":101012},{""event"":""blur"",""trial"":10,""time"":192633},{""event"":""focus"",""trial"":10,""time"":193717}]",NA,NA,NA,NA,NA,6,#D89F1C,#3386FF,0,10,0,40,0,1864.9000000953674,39,0,1534.399999976158,10,1,experiment,NA,NA,1,0.3,0.7,3,2,10,1,NA
fcp-trial,44,544257,0.0-19.0-0.0,voc_e2,11947,"[{""event"":""blur"",""trial"":0,""time"":0},{""event"":""focus"",""trial"":0,""time"":0},{""event"":""blur"",""trial"":0,""time"":0},{""event"":""focus"",""trial"":0,""time"":0},{""event"":""fullscreenenter"",""trial"":1,""time"":1861},{""event"":""blur"",""trial"":3,""time"":91329},{""event"":""focus"",""trial"":3,""time"":91330},{""event"":""fullscreenexit"",""trial"":3,""time"":91340},{""event"":""blur"",""trial"":3,""time"":93546},{""event"":""focus"",""trial"":3,""time"":101012},{""event"":""blur"",""trial"":10,""time"":192633},{""event"":""focus"",""trial"":10,""time"":193717}]",NA,NA,NA,NA,NA,1,#D8271C,#741CD8,0,10,0,38,1,2269.5,37,1,870.3000000715256,0,0,experiment,NA,NA,2,0.5,0.5,5,4,11,1,NA
fcp-trial,45,549650,0.0-20.0-0.0,voc_e2,11947,"[{""event"":""blur"",""trial"":0,""time"":0},{""event"":""focus"",""trial"":0,""time"":0},{""event"":""blur"",""trial"":0,""time"":0},{""event"":""focus"",""trial"":0,""time"":0},{""event"":""fullscreenenter"",""trial"":1,""time"":1861},{""event"":""blur"",""trial"":3,""time"":91329},{""event"":""focus"",""trial"":3,""time"":91330},{""event"":""fullscreenexit"",""trial"":3,""time"":91340},{""event"":""blur"",""trial"":3,""time"":93546},{""event"":""focus"",""trial"":3,""time"":101012},{""event"":""blur"",""trial"":10,""time"":192633},{""event"":""focus"",""trial"":10,""time"":193717}]",NA,NA,NA,NA,NA,4,#FA92F8,#1CD855,10,0,1,40,0,2516,39,0,1365.3000000715256,0,0,experiment,NA,NA,0,0.9,0.1,0,1,12,1,NA
fcp-trial,46,556053,0.0-21.0-0.0,voc_e2,11947,"[{""event"":""blur"",""trial"":0,""time"":0},{""event"":""focus"",""trial"":0,""time"":0},{""event"":""blur"",""trial"":0,""time"":0},{""event"":""focus"",""trial"":0,""time"":0},{""event"":""fullscreenenter"",""trial"":1,""time"":1861},{""event"":""blur"",""trial"":3,""time"":91329},{""event"":""focus"",""trial"":3,""time"":91330},{""event"":""fullscreenexit"",""trial"":3,""time"":91340},{""event"":""blur"",""trial"":3,""time"":93546},{""event"":""focus"",""trial"":3,""time"":101012},{""event"":""blur"",""trial"":10,""time"":192633},{""event"":""focus"",""trial"":10,""time"":193717}]",NA,NA,NA,NA,NA,6,#741CD8,#D8271C,0,10,1,38,1,3082.399999976158,39,0,1810.7000000476835,10,0,experiment,NA,NA,2,0.5,0.5,4,5,13,1,NA
fcp-trial,47,561976,0.0-22.0-0.0,voc_e2,11947,"[{""event"":""blur"",""trial"":0,""time"":0},{""event"":""focus"",""trial"":0,""time"":0},{""event"":""blur"",""trial"":0,""time"":0},{""event"":""focus"",""trial"":0,""time"":0},{""event"":""fullscreenenter"",""trial"":1,""time"":1861},{""event"":""blur"",""trial"":3,""time"":91329},{""event"":""focus"",""trial"":3,""time"":91330},{""event"":""fullscreenexit"",""trial"":3,""time"":91340},{""event"":""blur"",""trial"":3,""time"":93546},{""event"":""focus"",""trial"":3,""time"":101012},{""event"":""blur"",""trial"":10,""time"":192633},{""event"":""focus"",""trial"":10,""time"":193717}]",NA,NA,NA,NA,NA,5,#D89F1C,#3386FF,0,10,0,40,0,3015.7000000476837,39,0,1399.100000023842,10,1,experiment,NA,NA,1,0.3,0.7,3,2,14,1,NA
fcp-trial,48,566600,0.0-23.0-0.0,voc_e2,11947,"[{""event"":""blur"",""trial"":0,""time"":0},{""event"":""focus"",""trial"":0,""time"":0},{""event"":""blur"",""trial"":0,""time"":0},{""event"":""focus"",""trial"":0,""time"":0},{""event"":""fullscreenenter"",""trial"":1,""time"":1861},{""event"":""blur"",""trial"":3,""time"":91329},{""event"":""focus"",""trial"":3,""time"":91330},{""event"":""fullscreenexit"",""trial"":3,""time"":91340},{""event"":""blur"",""trial"":3,""time"":93546},{""event"":""focus"",""trial"":3,""time"":101012},{""event"":""blur"",""trial"":10,""time"":192633},{""event"":""focus"",""trial"":10,""time"":193717}]",NA,NA,NA,NA,NA,0,#FA92F8,#1CD855,10,0,1,40,0,1325.3999999761581,39,0,1791.3000000715256,0,0,experiment,NA,NA,0,0.9,0.1,0,1,15,1,NA
fcp-trial,49,573450,0.0-24.0-0.0,voc_e2,11947,"[{""event"":""blur"",""trial"":0,""time"":0},{""event"":""focus"",""trial"":0,""time"":0},{""event"":""blur"",""trial"":0,""time"":0},{""event"":""focus"",""trial"":0,""time"":0},{""event"":""fullscreenenter"",""trial"":1,""time"":1861},{""event"":""blur"",""trial"":3,""time"":91329},{""event"":""focus"",""trial"":3,""time"":91330},{""event"":""fullscreenexit"",""trial"":3,""time"":91340},{""event"":""blur"",""trial"":3,""time"":93546},{""event"":""focus"",""trial"":3,""time"":101012},{""event"":""blur"",""trial"":10,""time"":192633},{""event"":""focus"",""trial"":10,""time"":193717}]",NA,NA,NA,NA,NA,4,#3386FF,#D89F1C,0,0,1,38,1,3012.8000000715256,39,0,2327.3000000715256,0,0,experiment,NA,NA,1,0.7,0.3,2,3,16,1,NA
fcp-trial,50,578392,0.0-25.0-0.0,voc_e2,11947,"[{""event"":""blur"",""trial"":0,""time"":0},{""event"":""focus"",""trial"":0,""time"":0},{""event"":""blur"",""trial"":0,""time"":0},{""event"":""focus"",""trial"":0,""time"":0},{""event"":""fullscreenenter"",""trial"":1,""time"":1861},{""event"":""blur"",""trial"":3,""time"":91329},{""event"":""focus"",""trial"":3,""time"":91330},{""event"":""fullscreenexit"",""trial"":3,""time"":91340},{""event"":""blur"",""trial"":3,""time"":93546},{""event"":""focus"",""trial"":3,""time"":101012},{""event"":""blur"",""trial"":10,""time"":192633},{""event"":""focus"",""trial"":10,""time"":193717}]",NA,NA,NA,NA,NA,2,#741CD8,#D8271C,0,10,1,38,1,2300.7000000476837,37,1,1135.5,0,1,experiment,NA,NA,2,0.5,0.5,4,5,17,1,NA
fcp-trial,51,583450,0.0-26.0-0.0,voc_e2,11947,"[{""event"":""blur"",""trial"":0,""time"":0},{""event"":""focus"",""trial"":0,""time"":0},{""event"":""blur"",""trial"":0,""time"":0},{""event"":""focus"",""trial"":0,""time"":0},{""event"":""fullscreenenter"",""trial"":1,""time"":1861},{""event"":""blur"",""trial"":3,""time"":91329},{""event"":""focus"",""trial"":3,""time"":91330},{""event"":""fullscreenexit"",""trial"":3,""time"":91340},{""event"":""blur"",""trial"":3,""time"":93546},{""event"":""focus"",""trial"":3,""time"":101012},{""event"":""blur"",""trial"":10,""time"":192633},{""event"":""focus"",""trial"":10,""time"":193717}]",NA,NA,NA,NA,NA,2,#3386FF,#D89F1C,10,10,1,38,1,2740.100000023842,39,0,807.2999999523163,10,0,experiment,NA,NA,1,0.7,0.3,2,3,18,1,NA
fcp-trial,52,588452,0.0-27.0-0.0,voc_e2,11947,"[{""event"":""blur"",""trial"":0,""time"":0},{""event"":""focus"",""trial"":0,""time"":0},{""event"":""blur"",""trial"":0,""time"":0},{""event"":""focus"",""trial"":0,""time"":0},{""event"":""fullscreenenter"",""trial"":1,""time"":1861},{""event"":""blur"",""trial"":3,""time"":91329},{""event"":""focus"",""trial"":3,""time"":91330},{""event"":""fullscreenexit"",""trial"":3,""time"":91340},{""event"":""blur"",""trial"":3,""time"":93546},{""event"":""focus"",""trial"":3,""time"":101012},{""event"":""blur"",""trial"":10,""time"":192633},{""event"":""focus"",""trial"":10,""time"":193717}]",NA,NA,NA,NA,NA,5,#D8271C,#741CD8,10,10,0,40,0,2833.8000000715256,39,0,657.2999999523163,10,1,experiment,NA,NA,2,0.5,0.5,5,4,19,1,NA
fcp-trial,53,592113,0.0-28.0-0.0,voc_e2,11947,"[{""event"":""blur"",""trial"":0,""time"":0},{""event"":""focus"",""trial"":0,""time"":0},{""event"":""blur"",""trial"":0,""time"":0},{""event"":""focus"",""trial"":0,""time"":0},{""event"":""fullscreenenter"",""trial"":1,""time"":1861},{""event"":""blur"",""trial"":3,""time"":91329},{""event"":""focus"",""trial"":3,""time"":91330},{""event"":""fullscreenexit"",""trial"":3,""time"":91340},{""event"":""blur"",""trial"":3,""time"":93546},{""event"":""focus"",""trial"":3,""time"":101012},{""event"":""blur"",""trial"":10,""time"":192633},{""event"":""focus"",""trial"":10,""time"":193717}]",NA,NA,NA,NA,NA,3,#FA92F8,#1CD855,10,0,1,40,0,995.1000000238419,37,1,1159.2000000476835,10,1,experiment,NA,NA,0,0.9,0.1,0,1,20,1,NA
fcp-trial,54,596960,0.0-29.0-0.0,voc_e2,11947,"[{""event"":""blur"",""trial"":0,""time"":0},{""event"":""focus"",""trial"":0,""time"":0},{""event"":""blur"",""trial"":0,""time"":0},{""event"":""focus"",""trial"":0,""time"":0},{""event"":""fullscreenenter"",""trial"":1,""time"":1861},{""event"":""blur"",""trial"":3,""time"":91329},{""event"":""focus"",""trial"":3,""time"":91330},{""event"":""fullscreenexit"",""trial"":3,""time"":91340},{""event"":""blur"",""trial"":3,""time"":93546},{""event"":""focus"",""trial"":3,""time"":101012},{""event"":""blur"",""trial"":10,""time"":192633},{""event"":""focus"",""trial"":10,""time"":193717}]",NA,NA,NA,NA,NA,6,#1CD855,#FA92F8,0,10,0,40,0,2593.7999999523163,39,0,741.7000000476837,10,1,experiment,NA,NA,0,0.1,0.9,1,0,21,1,NA
fcp-trial,55,600434,0.0-30.0-0.0,voc_e2,11947,"[{""event"":""blur"",""trial"":0,""time"":0},{""event"":""focus"",""trial"":0,""time"":0},{""event"":""blur"",""trial"":0,""time"":0},{""event"":""focus"",""trial"":0,""time"":0},{""event"":""fullscreenenter"",""trial"":1,""time"":1861},{""event"":""blur"",""trial"":3,""time"":91329},{""event"":""focus"",""trial"":3,""time"":91330},{""event"":""fullscreenexit"",""trial"":3,""time"":91340},{""event"":""blur"",""trial"":3,""time"":93546},{""event"":""focus"",""trial"":3,""time"":101012},{""event"":""blur"",""trial"":10,""time"":192633},{""event"":""focus"",""trial"":10,""time"":193717}]",NA,NA,NA,NA,NA,0,#741CD8,#D8271C,0,10,1,40,0,1010.1000000238419,37,1,950.7999999523164,0,1,experiment,NA,NA,2,0.5,0.5,4,5,22,1,NA
fcp-trial,56,604481,0.0-31.0-0.0,voc_e2,11947,"[{""event"":""blur"",""trial"":0,""time"":0},{""event"":""focus"",""trial"":0,""time"":0},{""event"":""blur"",""trial"":0,""time"":0},{""event"":""focus"",""trial"":0,""time"":0},{""event"":""fullscreenenter"",""trial"":1,""time"":1861},{""event"":""blur"",""trial"":3,""time"":91329},{""event"":""focus"",""trial"":3,""time"":91330},{""event"":""fullscreenexit"",""trial"":3,""time"":91340},{""event"":""blur"",""trial"":3,""time"":93546},{""event"":""focus"",""trial"":3,""time"":101012},{""event"":""blur"",""trial"":10,""time"":192633},{""event"":""focus"",""trial"":10,""time"":193717}]",NA,NA,NA,NA,NA,4,#FA92F8,#1CD855,0,0,1,40,0,1453.5,39,0,1087.600000023842,0,0,experiment,NA,NA,0,0.9,0.1,0,1,23,1,NA
fcp-trial,57,608136,0.0-32.0-0.0,voc_e2,11947,"[{""event"":""blur"",""trial"":0,""time"":0},{""event"":""focus"",""trial"":0,""time"":0},{""event"":""blur"",""trial"":0,""time"":0},{""event"":""focus"",""trial"":0,""time"":0},{""event"":""fullscreenenter"",""trial"":1,""time"":1861},{""event"":""blur"",""trial"":3,""time"":91329},{""event"":""focus"",""trial"":3,""time"":91330},{""event"":""fullscreenexit"",""trial"":3,""time"":91340},{""event"":""blur"",""trial"":3,""time"":93546},{""event"":""focus"",""trial"":3,""time"":101012},{""event"":""blur"",""trial"":10,""time"":192633},{""event"":""focus"",""trial"":10,""time"":193717}]",NA,NA,NA,NA,NA,4,#3386FF,#D89F1C,10,10,1,40,0,1717.5999999046326,37,1,430.89999997615814,10,1,experiment,NA,NA,1,0.7,0.3,2,3,24,1,NA
fcp-trial,58,611000,0.0-33.0-0.0,voc_e2,11947,"[{""event"":""blur"",""trial"":0,""time"":0},{""event"":""focus"",""trial"":0,""time"":0},{""event"":""blur"",""trial"":0,""time"":0},{""event"":""focus"",""trial"":0,""time"":0},{""event"":""fullscreenenter"",""trial"":1,""time"":1861},{""event"":""blur"",""trial"":3,""time"":91329},{""event"":""focus"",""trial"":3,""time"":91330},{""event"":""fullscreenexit"",""trial"":3,""time"":91340},{""event"":""blur"",""trial"":3,""time"":93546},{""event"":""focus"",""trial"":3,""time"":101012},{""event"":""blur"",""trial"":10,""time"":192633},{""event"":""focus"",""trial"":10,""time"":193717}]",NA,NA,NA,NA,NA,1,#D8271C,#741CD8,10,0,0,38,1,575.2000000476837,39,0,782,0,1,experiment,NA,NA,2,0.5,0.5,5,4,25,1,NA
fcp-trial,59,615952,0.0-34.0-0.0,voc_e2,11947,"[{""event"":""blur"",""trial"":0,""time"":0},{""event"":""focus"",""trial"":0,""time"":0},{""event"":""blur"",""trial"":0,""time"":0},{""event"":""focus"",""trial"":0,""time"":0},{""event"":""fullscreenenter"",""trial"":1,""time"":1861},{""event"":""blur"",""trial"":3,""time"":91329},{""event"":""focus"",""trial"":3,""time"":91330},{""event"":""fullscreenexit"",""trial"":3,""time"":91340},{""event"":""blur"",""trial"":3,""time"":93546},{""event"":""focus"",""trial"":3,""time"":101012},{""event"":""blur"",""trial"":10,""time"":192633},{""event"":""focus"",""trial"":10,""time"":193717}]",NA,NA,NA,NA,NA,5,#1CD855,#FA92F8,0,10,0,38,1,2776.100000023842,37,1,669.2999999523163,0,0,experiment,NA,NA,0,0.1,0.9,1,0,26,1,NA
fcp-trial,60,620360,0.0-35.0-0.0,voc_e2,11947,"[{""event"":""blur"",""trial"":0,""time"":0},{""event"":""focus"",""trial"":0,""time"":0},{""event"":""blur"",""trial"":0,""time"":0},{""event"":""focus"",""trial"":0,""time"":0},{""event"":""fullscreenenter"",""trial"":1,""time"":1861},{""event"":""blur"",""trial"":3,""time"":91329},{""event"":""focus"",""trial"":3,""time"":91330},{""event"":""fullscreenexit"",""trial"":3,""time"":91340},{""event"":""blur"",""trial"":3,""time"":93546},{""event"":""focus"",""trial"":3,""time"":101012},{""event"":""blur"",""trial"":10,""time"":192633},{""event"":""focus"",""trial"":10,""time"":193717}]",NA,NA,NA,NA,NA,2,#FA92F8,#1CD855,10,0,1,38,1,1484.1000000238419,39,0,1410.0999999046326,0,0,experiment,NA,NA,0,0.9,0.1,0,1,27,1,NA
fcp-trial,61,624251,0.0-36.0-0.0,voc_e2,11947,"[{""event"":""blur"",""trial"":0,""time"":0},{""event"":""focus"",""trial"":0,""time"":0},{""event"":""blur"",""trial"":0,""time"":0},{""event"":""focus"",""trial"":0,""time"":0},{""event"":""fullscreenenter"",""trial"":1,""time"":1861},{""event"":""blur"",""trial"":3,""time"":91329},{""event"":""focus"",""trial"":3,""time"":91330},{""event"":""fullscreenexit"",""trial"":3,""time"":91340},{""event"":""blur"",""trial"":3,""time"":93546},{""event"":""focus"",""trial"":3,""time"":101012},{""event"":""blur"",""trial"":10,""time"":192633},{""event"":""focus"",""trial"":10,""time"":193717}]",NA,NA,NA,NA,NA,2,#D8271C,#741CD8,10,0,0,38,1,1603.6000000238419,39,0,777,0,1,experiment,NA,NA,2,0.5,0.5,5,4,28,1,NA
fcp-trial,62,629361,0.0-37.0-0.0,voc_e2,11947,"[{""event"":""blur"",""trial"":0,""time"":0},{""event"":""focus"",""trial"":0,""time"":0},{""event"":""blur"",""trial"":0,""time"":0},{""event"":""focus"",""trial"":0,""time"":0},{""event"":""fullscreenenter"",""trial"":1,""time"":1861},{""event"":""blur"",""trial"":3,""time"":91329},{""event"":""focus"",""trial"":3,""time"":91330},{""event"":""fullscreenexit"",""trial"":3,""time"":91340},{""event"":""blur"",""trial"":3,""time"":93546},{""event"":""focus"",""trial"":3,""time"":101012},{""event"":""blur"",""trial"":10,""time"":192633},{""event"":""focus"",""trial"":10,""time"":193717}]",NA,NA,NA,NA,NA,0,#3386FF,#D89F1C,10,0,1,38,1,3067.0999999046326,39,0,536.2000000476837,0,0,experiment,NA,NA,1,0.7,0.3,2,3,29,1,NA
fcp-trial,63,632920,0.0-38.0-0.0,voc_e2,11947,"[{""event"":""blur"",""trial"":0,""time"":0},{""event"":""focus"",""trial"":0,""time"":0},{""event"":""blur"",""trial"":0,""time"":0},{""event"":""focus"",""trial"":0,""time"":0},{""event"":""fullscreenenter"",""trial"":1,""time"":1861},{""event"":""blur"",""trial"":3,""time"":91329},{""event"":""focus"",""trial"":3,""time"":91330},{""event"":""fullscreenexit"",""trial"":3,""time"":91340},{""event"":""blur"",""trial"":3,""time"":93546},{""event"":""focus"",""trial"":3,""time"":101012},{""event"":""blur"",""trial"":10,""time"":192633},{""event"":""focus"",""trial"":10,""time"":193717}]",NA,NA,NA,NA,NA,3,#741CD8,#D8271C,0,0,1,40,0,1320.9000000953674,37,1,727.3999999761581,0,1,experiment,NA,NA,2,0.5,0.5,4,5,30,1,NA
fcp-trial,64,637465,0.0-39.0-0.0,voc_e2,11947,"[{""event"":""blur"",""trial"":0,""time"":0},{""event"":""focus"",""trial"":0,""time"":0},{""event"":""blur"",""trial"":0,""time"":0},{""event"":""focus"",""trial"":0,""time"":0},{""event"":""fullscreenenter"",""trial"":1,""time"":1861},{""event"":""blur"",""trial"":3,""time"":91329},{""event"":""focus"",""trial"":3,""time"":91330},{""event"":""fullscreenexit"",""trial"":3,""time"":91340},{""event"":""blur"",""trial"":3,""time"":93546},{""event"":""focus"",""trial"":3,""time"":101012},{""event"":""blur"",""trial"":10,""time"":192633},{""event"":""focus"",""trial"":10,""time"":193717}]",NA,NA,NA,NA,NA,5,#741CD8,#D8271C,10,10,1,40,0,1366.3000000715256,39,0,1672.2000000476835,10,0,experiment,NA,NA,2,0.5,0.5,4,5,31,1,NA
fcp-trial,65,642467,0.0-40.0-0.0,voc_e2,11947,"[{""event"":""blur"",""trial"":0,""time"":0},{""event"":""focus"",""trial"":0,""time"":0},{""event"":""blur"",""trial"":0,""time"":0},{""event"":""focus"",""trial"":0,""time"":0},{""event"":""fullscreenenter"",""trial"":1,""time"":1861},{""event"":""blur"",""trial"":3,""time"":91329},{""event"":""focus"",""trial"":3,""time"":91330},{""event"":""fullscreenexit"",""trial"":3,""time"":91340},{""event"":""blur"",""trial"":3,""time"":93546},{""event"":""focus"",""trial"":3,""time"":101012},{""event"":""blur"",""trial"":10,""time"":192633},{""event"":""focus"",""trial"":10,""time"":193717}]",NA,NA,NA,NA,NA,0,#FA92F8,#1CD855,10,10,1,38,1,2309.5,37,1,1185.2000000476835,10,1,experiment,NA,NA,0,0.9,0.1,0,1,32,1,NA
fcp-trial,66,646785,0.0-41.0-0.0,voc_e2,11947,"[{""event"":""blur"",""trial"":0,""time"":0},{""event"":""focus"",""trial"":0,""time"":0},{""event"":""blur"",""trial"":0,""time"":0},{""event"":""focus"",""trial"":0,""time"":0},{""event"":""fullscreenenter"",""trial"":1,""time"":1861},{""event"":""blur"",""trial"":3,""time"":91329},{""event"":""focus"",""trial"":3,""time"":91330},{""event"":""fullscreenexit"",""trial"":3,""time"":91340},{""event"":""blur"",""trial"":3,""time"":93546},{""event"":""focus"",""trial"":3,""time"":101012},{""event"":""blur"",""trial"":10,""time"":192633},{""event"":""focus"",""trial"":10,""time"":193717}]",NA,NA,NA,NA,NA,6,#D89F1C,#3386FF,0,10,0,40,0,1360.2999999523163,37,1,1446.3000000715256,0,0,experiment,NA,NA,1,0.3,0.7,3,2,33,1,NA
fcp-trial,67,651607,0.0-42.0-0.0,voc_e2,11947,"[{""event"":""blur"",""trial"":0,""time"":0},{""event"":""focus"",""trial"":0,""time"":0},{""event"":""blur"",""trial"":0,""time"":0},{""event"":""focus"",""trial"":0,""time"":0},{""event"":""fullscreenenter"",""trial"":1,""time"":1861},{""event"":""blur"",""trial"":3,""time"":91329},{""event"":""focus"",""trial"":3,""time"":91330},{""event"":""fullscreenexit"",""trial"":3,""time"":91340},{""event"":""blur"",""trial"":3,""time"":93546},{""event"":""focus"",""trial"":3,""time"":101012},{""event"":""blur"",""trial"":10,""time"":192633},{""event"":""focus"",""trial"":10,""time"":193717}]",NA,NA,NA,NA,NA,6,#D8271C,#741CD8,0,0,0,40,0,1843.6000000238419,39,0,1469.7000000476835,0,1,experiment,NA,NA,2,0.5,0.5,5,4,34,1,NA
fcp-trial,68,656343,0.0-43.0-0.0,voc_e2,11947,"[{""event"":""blur"",""trial"":0,""time"":0},{""event"":""focus"",""trial"":0,""time"":0},{""event"":""blur"",""trial"":0,""time"":0},{""event"":""focus"",""trial"":0,""time"":0},{""event"":""fullscreenenter"",""trial"":1,""time"":1861},{""event"":""blur"",""trial"":3,""time"":91329},{""event"":""focus"",""trial"":3,""time"":91330},{""event"":""fullscreenexit"",""trial"":3,""time"":91340},{""event"":""blur"",""trial"":3,""time"":93546},{""event"":""focus"",""trial"":3,""time"":101012},{""event"":""blur"",""trial"":10,""time"":192633},{""event"":""focus"",""trial"":10,""time"":193717}]",NA,NA,NA,NA,NA,1,#3386FF,#D89F1C,10,0,1,40,0,1155.8000000715256,39,0,2070.899999976158,0,0,experiment,NA,NA,1,0.7,0.3,2,3,35,1,NA
fcp-trial,69,661344,0.0-44.0-0.0,voc_e2,11947,"[{""event"":""blur"",""trial"":0,""time"":0},{""event"":""focus"",""trial"":0,""time"":0},{""event"":""blur"",""trial"":0,""time"":0},{""event"":""focus"",""trial"":0,""time"":0},{""event"":""fullscreenenter"",""trial"":1,""time"":1861},{""event"":""blur"",""trial"":3,""time"":91329},{""event"":""focus"",""trial"":3,""time"":91330},{""event"":""fullscreenexit"",""trial"":3,""time"":91340},{""event"":""blur"",""trial"":3,""time"":93546},{""event"":""focus"",""trial"":3,""time"":101012},{""event"":""blur"",""trial"":10,""time"":192633},{""event"":""focus"",""trial"":10,""time"":193717}]",NA,NA,NA,NA,NA,3,#D89F1C,#3386FF,0,10,0,38,1,1545.7999999523163,37,1,1941.7000000476835,0,0,experiment,NA,NA,1,0.3,0.7,3,2,36,1,NA
fcp-trial,70,664816,0.0-45.0-0.0,voc_e2,11947,"[{""event"":""blur"",""trial"":0,""time"":0},{""event"":""focus"",""trial"":0,""time"":0},{""event"":""blur"",""trial"":0,""time"":0},{""event"":""focus"",""trial"":0,""time"":0},{""event"":""fullscreenenter"",""trial"":1,""time"":1861},{""event"":""blur"",""trial"":3,""time"":91329},{""event"":""focus"",""trial"":3,""time"":91330},{""event"":""fullscreenexit"",""trial"":3,""time"":91340},{""event"":""blur"",""trial"":3,""time"":93546},{""event"":""focus"",""trial"":3,""time"":101012},{""event"":""blur"",""trial"":10,""time"":192633},{""event"":""focus"",""trial"":10,""time"":193717}]",NA,NA,NA,NA,NA,1,#1CD855,#FA92F8,0,10,0,38,1,1256.5999999046326,39,0,700.3999999761581,10,1,experiment,NA,NA,0,0.1,0.9,1,0,37,1,NA
fcp-trial,71,670914,0.0-46.0-0.0,voc_e2,11947,"[{""event"":""blur"",""trial"":0,""time"":0},{""event"":""focus"",""trial"":0,""time"":0},{""event"":""blur"",""trial"":0,""time"":0},{""event"":""focus"",""trial"":0,""time"":0},{""event"":""fullscreenenter"",""trial"":1,""time"":1861},{""event"":""blur"",""trial"":3,""time"":91329},{""event"":""focus"",""trial"":3,""time"":91330},{""event"":""fullscreenexit"",""trial"":3,""time"":91340},{""event"":""blur"",""trial"":3,""time"":93546},{""event"":""focus"",""trial"":3,""time"":101012},{""event"":""blur"",""trial"":10,""time"":192633},{""event"":""focus"",""trial"":10,""time"":193717}]",NA,NA,NA,NA,NA,4,#D8271C,#741CD8,10,10,0,40,0,2019.8999999761581,37,1,2565.899999976158,10,0,experiment,NA,NA,2,0.5,0.5,5,4,38,1,NA
fcp-trial,72,674720,0.0-47.0-0.0,voc_e2,11947,"[{""event"":""blur"",""trial"":0,""time"":0},{""event"":""focus"",""trial"":0,""time"":0},{""event"":""blur"",""trial"":0,""time"":0},{""event"":""focus"",""trial"":0,""time"":0},{""event"":""fullscreenenter"",""trial"":1,""time"":1861},{""event"":""blur"",""trial"":3,""time"":91329},{""event"":""focus"",""trial"":3,""time"":91330},{""event"":""fullscreenexit"",""trial"":3,""time"":91340},{""event"":""blur"",""trial"":3,""time"":93546},{""event"":""focus"",""trial"":3,""time"":101012},{""event"":""blur"",""trial"":10,""time"":192633},{""event"":""focus"",""trial"":10,""time"":193717}]",NA,NA,NA,NA,NA,2,#D89F1C,#3386FF,10,10,0,40,0,1123.7999999523163,37,1,1173.7999999523165,10,0,experiment,NA,NA,1,0.3,0.7,3,2,39,1,NA
fcp-trial,73,678599,0.0-48.0-0.0,voc_e2,11947,"[{""event"":""blur"",""trial"":0,""time"":0},{""event"":""focus"",""trial"":0,""time"":0},{""event"":""blur"",""trial"":0,""time"":0},{""event"":""focus"",""trial"":0,""time"":0},{""event"":""fullscreenenter"",""trial"":1,""time"":1861},{""event"":""blur"",""trial"":3,""time"":91329},{""event"":""focus"",""trial"":3,""time"":91330},{""event"":""fullscreenexit"",""trial"":3,""time"":91340},{""event"":""blur"",""trial"":3,""time"":93546},{""event"":""focus"",""trial"":3,""time"":101012},{""event"":""blur"",""trial"":10,""time"":192633},{""event"":""focus"",""trial"":10,""time"":193717}]",NA,NA,NA,NA,NA,5,#3386FF,#D89F1C,10,0,1,40,0,1310.3999999761581,39,0,1062.6999999284744,0,0,experiment,NA,NA,1,0.7,0.3,2,3,40,1,NA
fcp-trial,74,686240,0.0-49.0-0.0,voc_e2,11947,"[{""event"":""blur"",""trial"":0,""time"":0},{""event"":""focus"",""trial"":0,""time"":0},{""event"":""blur"",""trial"":0,""time"":0},{""event"":""focus"",""trial"":0,""time"":0},{""event"":""fullscreenenter"",""trial"":1,""time"":1861},{""event"":""blur"",""trial"":3,""time"":91329},{""event"":""focus"",""trial"":3,""time"":91330},{""event"":""fullscreenexit"",""trial"":3,""time"":91340},{""event"":""blur"",""trial"":3,""time"":93546},{""event"":""focus"",""trial"":3,""time"":101012},{""event"":""blur"",""trial"":10,""time"":192633},{""event"":""focus"",""trial"":10,""time"":193717}]",NA,NA,NA,NA,NA,3,#FA92F8,#1CD855,10,0,1,38,1,5519.100000023842,39,0,615.2000000476837,0,0,experiment,NA,NA,0,0.9,0.1,0,1,41,1,NA
fcp-trial,75,690097,0.0-50.0-0.0,voc_e2,11947,"[{""event"":""blur"",""trial"":0,""time"":0},{""event"":""focus"",""trial"":0,""time"":0},{""event"":""blur"",""trial"":0,""time"":0},{""event"":""focus"",""trial"":0,""time"":0},{""event"":""fullscreenenter"",""trial"":1,""time"":1861},{""event"":""blur"",""trial"":3,""time"":91329},{""event"":""focus"",""trial"":3,""time"":91330},{""event"":""fullscreenexit"",""trial"":3,""time"":91340},{""event"":""blur"",""trial"":3,""time"":93546},{""event"":""focus"",""trial"":3,""time"":101012},{""event"":""blur"",""trial"":10,""time"":192633},{""event"":""focus"",""trial"":10,""time"":193717}]",NA,NA,NA,NA,NA,6,#1CD855,#FA92F8,0,0,0,40,0,1442.6000000238419,39,0,903.399999976158,0,1,experiment,NA,NA,0,0.1,0.9,1,0,42,1,NA
fcp-trial,76,695080,0.0-51.0-0.0,voc_e2,11947,"[{""event"":""blur"",""trial"":0,""time"":0},{""event"":""focus"",""trial"":0,""time"":0},{""event"":""blur"",""trial"":0,""time"":0},{""event"":""focus"",""trial"":0,""time"":0},{""event"":""fullscreenenter"",""trial"":1,""time"":1861},{""event"":""blur"",""trial"":3,""time"":91329},{""event"":""focus"",""trial"":3,""time"":91330},{""event"":""fullscreenexit"",""trial"":3,""time"":91340},{""event"":""blur"",""trial"":3,""time"":93546},{""event"":""focus"",""trial"":3,""time"":101012},{""event"":""blur"",""trial"":10,""time"":192633},{""event"":""focus"",""trial"":10,""time"":193717}]",NA,NA,NA,NA,NA,3,#1CD855,#FA92F8,0,10,0,38,1,2106,39,0,1365.600000023842,10,1,experiment,NA,NA,0,0.1,0.9,1,0,43,1,NA
fcp-trial,77,700265,0.0-52.0-0.0,voc_e2,11947,"[{""event"":""blur"",""trial"":0,""time"":0},{""event"":""focus"",""trial"":0,""time"":0},{""event"":""blur"",""trial"":0,""time"":0},{""event"":""focus"",""trial"":0,""time"":0},{""event"":""fullscreenenter"",""trial"":1,""time"":1861},{""event"":""blur"",""trial"":3,""time"":91329},{""event"":""focus"",""trial"":3,""time"":91330},{""event"":""fullscreenexit"",""trial"":3,""time"":91340},{""event"":""blur"",""trial"":3,""time"":93546},{""event"":""focus"",""trial"":3,""time"":101012},{""event"":""blur"",""trial"":10,""time"":192633},{""event"":""focus"",""trial"":10,""time"":193717}]",NA,NA,NA,NA,NA,4,#FA92F8,#1CD855,10,0,1,38,1,2898.2000000476837,37,1,775.9000000953674,10,1,experiment,NA,NA,0,0.9,0.1,0,1,44,1,NA
fcp-trial,78,705288,0.0-53.0-0.0,voc_e2,11947,"[{""event"":""blur"",""trial"":0,""time"":0},{""event"":""focus"",""trial"":0,""time"":0},{""event"":""blur"",""trial"":0,""time"":0},{""event"":""focus"",""trial"":0,""time"":0},{""event"":""fullscreenenter"",""trial"":1,""time"":1861},{""event"":""blur"",""trial"":3,""time"":91329},{""event"":""focus"",""trial"":3,""time"":91330},{""event"":""fullscreenexit"",""trial"":3,""time"":91340},{""event"":""blur"",""trial"":3,""time"":93546},{""event"":""focus"",""trial"":3,""time"":101012},{""event"":""blur"",""trial"":10,""time"":192633},{""event"":""focus"",""trial"":10,""time"":193717}]",NA,NA,NA,NA,NA,6,#D89F1C,#3386FF,0,0,0,40,0,2862.2000000476837,37,1,654.8000000715256,0,0,experiment,NA,NA,1,0.3,0.7,3,2,45,1,NA
fcp-trial,79,710271,0.0-54.0-0.0,voc_e2,11947,"[{""event"":""blur"",""trial"":0,""time"":0},{""event"":""focus"",""trial"":0,""time"":0},{""event"":""blur"",""trial"":0,""time"":0},{""event"":""focus"",""trial"":0,""time"":0},{""event"":""fullscreenenter"",""trial"":1,""time"":1861},{""event"":""blur"",""trial"":3,""time"":91329},{""event"":""focus"",""trial"":3,""time"":91330},{""event"":""fullscreenexit"",""trial"":3,""time"":91340},{""event"":""blur"",""trial"":3,""time"":93546},{""event"":""focus"",""trial"":3,""time"":101012},{""event"":""blur"",""trial"":10,""time"":192633},{""event"":""focus"",""trial"":10,""time"":193717}]",NA,NA,NA,NA,NA,2,#D89F1C,#3386FF,0,10,0,40,0,1818.5,39,0,1655.600000023842,10,1,experiment,NA,NA,1,0.3,0.7,3,2,46,2,NA
fcp-trial,80,714943,0.0-55.0-0.0,voc_e2,11947,"[{""event"":""blur"",""trial"":0,""time"":0},{""event"":""focus"",""trial"":0,""time"":0},{""event"":""blur"",""trial"":0,""time"":0},{""event"":""focus"",""trial"":0,""time"":0},{""event"":""fullscreenenter"",""trial"":1,""time"":1861},{""event"":""blur"",""trial"":3,""time"":91329},{""event"":""focus"",""trial"":3,""time"":91330},{""event"":""fullscreenexit"",""trial"":3,""time"":91340},{""event"":""blur"",""trial"":3,""time"":93546},{""event"":""focus"",""trial"":3,""time"":101012},{""event"":""blur"",""trial"":10,""time"":192633},{""event"":""focus"",""trial"":10,""time"":193717}]",NA,NA,NA,NA,NA,6,#FA92F8,#1CD855,10,0,1,40,0,2002.1000000238419,39,0,1157.2000000476835,0,0,experiment,NA,NA,0,0.9,0.1,0,1,47,2,NA
fcp-trial,81,719935,0.0-56.0-0.0,voc_e2,11947,"[{""event"":""blur"",""trial"":0,""time"":0},{""event"":""focus"",""trial"":0,""time"":0},{""event"":""blur"",""trial"":0,""time"":0},{""event"":""focus"",""trial"":0,""time"":0},{""event"":""fullscreenenter"",""trial"":1,""time"":1861},{""event"":""blur"",""trial"":3,""time"":91329},{""event"":""focus"",""trial"":3,""time"":91330},{""event"":""fullscreenexit"",""trial"":3,""time"":91340},{""event"":""blur"",""trial"":3,""time"":93546},{""event"":""focus"",""trial"":3,""time"":101012},{""event"":""blur"",""trial"":10,""time"":192633},{""event"":""focus"",""trial"":10,""time"":193717}]",NA,NA,NA,NA,NA,4,#D89F1C,#3386FF,0,0,0,38,1,3138.2000000476837,37,1,343.60000002384186,0,0,experiment,NA,NA,1,0.3,0.7,3,2,48,2,NA
fcp-trial,82,724904,0.0-57.0-0.0,voc_e2,11947,"[{""event"":""blur"",""trial"":0,""time"":0},{""event"":""focus"",""trial"":0,""time"":0},{""event"":""blur"",""trial"":0,""time"":0},{""event"":""focus"",""trial"":0,""time"":0},{""event"":""fullscreenenter"",""trial"":1,""time"":1861},{""event"":""blur"",""trial"":3,""time"":91329},{""event"":""focus"",""trial"":3,""time"":91330},{""event"":""fullscreenexit"",""trial"":3,""time"":91340},{""event"":""blur"",""trial"":3,""time"":93546},{""event"":""focus"",""trial"":3,""time"":101012},{""event"":""blur"",""trial"":10,""time"":192633},{""event"":""focus"",""trial"":10,""time"":193717}]",NA,NA,NA,NA,NA,0,#D89F1C,#3386FF,0,10,0,40,0,1079.2000000476837,37,1,2381.399999976158,0,0,experiment,NA,NA,1,0.3,0.7,3,2,49,2,NA
fcp-trial,83,728736,0.0-58.0-0.0,voc_e2,11947,"[{""event"":""blur"",""trial"":0,""time"":0},{""event"":""focus"",""trial"":0,""time"":0},{""event"":""blur"",""trial"":0,""time"":0},{""event"":""focus"",""trial"":0,""time"":0},{""event"":""fullscreenenter"",""trial"":1,""time"":1861},{""event"":""blur"",""trial"":3,""time"":91329},{""event"":""focus"",""trial"":3,""time"":91330},{""event"":""fullscreenexit"",""trial"":3,""time"":91340},{""event"":""blur"",""trial"":3,""time"":93546},{""event"":""focus"",""trial"":3,""time"":101012},{""event"":""blur"",""trial"":10,""time"":192633},{""event"":""focus"",""trial"":10,""time"":193717}]",NA,NA,NA,NA,NA,6,#D8271C,#741CD8,10,10,0,40,0,1499.5,39,0,820.3999999761581,10,1,experiment,NA,NA,2,0.5,0.5,5,4,50,2,NA
fcp-trial,84,732743,0.0-59.0-0.0,voc_e2,11947,"[{""event"":""blur"",""trial"":0,""time"":0},{""event"":""focus"",""trial"":0,""time"":0},{""event"":""blur"",""trial"":0,""time"":0},{""event"":""focus"",""trial"":0,""time"":0},{""event"":""fullscreenenter"",""trial"":1,""time"":1861},{""event"":""blur"",""trial"":3,""time"":91329},{""event"":""focus"",""trial"":3,""time"":91330},{""event"":""fullscreenexit"",""trial"":3,""time"":91340},{""event"":""blur"",""trial"":3,""time"":93546},{""event"":""focus"",""trial"":3,""time"":101012},{""event"":""blur"",""trial"":10,""time"":192633},{""event"":""focus"",""trial"":10,""time"":193717}]",NA,NA,NA,NA,NA,2,#FA92F8,#1CD855,10,0,1,40,0,1422.1000000238419,39,0,1075.7000000476835,0,0,experiment,NA,NA,0,0.9,0.1,0,1,51,2,NA
fcp-trial,85,736759,0.0-60.0-0.0,voc_e2,11947,"[{""event"":""blur"",""trial"":0,""time"":0},{""event"":""focus"",""trial"":0,""time"":0},{""event"":""blur"",""trial"":0,""time"":0},{""event"":""focus"",""trial"":0,""time"":0},{""event"":""fullscreenenter"",""trial"":1,""time"":1861},{""event"":""blur"",""trial"":3,""time"":91329},{""event"":""focus"",""trial"":3,""time"":91330},{""event"":""fullscreenexit"",""trial"":3,""time"":91340},{""event"":""blur"",""trial"":3,""time"":93546},{""event"":""focus"",""trial"":3,""time"":101012},{""event"":""blur"",""trial"":10,""time"":192633},{""event"":""focus"",""trial"":10,""time"":193717}]",NA,NA,NA,NA,NA,5,#D89F1C,#3386FF,0,0,0,40,0,1416.2999999523163,39,0,1086.6999999284744,0,1,experiment,NA,NA,1,0.3,0.7,3,2,52,2,NA
fcp-trial,86,743871,0.0-61.0-0.0,voc_e2,11947,"[{""event"":""blur"",""trial"":0,""time"":0},{""event"":""focus"",""trial"":0,""time"":0},{""event"":""blur"",""trial"":0,""time"":0},{""event"":""focus"",""trial"":0,""time"":0},{""event"":""fullscreenenter"",""trial"":1,""time"":1861},{""event"":""blur"",""trial"":3,""time"":91329},{""event"":""focus"",""trial"":3,""time"":91330},{""event"":""fullscreenexit"",""trial"":3,""time"":91340},{""event"":""blur"",""trial"":3,""time"":93546},{""event"":""focus"",""trial"":3,""time"":101012},{""event"":""blur"",""trial"":10,""time"":192633},{""event"":""focus"",""trial"":10,""time"":193717}]",NA,NA,NA,NA,NA,3,#741CD8,#D8271C,10,10,1,38,1,4512,37,1,1086.399999976158,10,1,experiment,NA,NA,2,0.5,0.5,4,5,53,2,NA
fcp-trial,87,748559,0.0-62.0-0.0,voc_e2,11947,"[{""event"":""blur"",""trial"":0,""time"":0},{""event"":""focus"",""trial"":0,""time"":0},{""event"":""blur"",""trial"":0,""time"":0},{""event"":""focus"",""trial"":0,""time"":0},{""event"":""fullscreenenter"",""trial"":1,""time"":1861},{""event"":""blur"",""trial"":3,""time"":91329},{""event"":""focus"",""trial"":3,""time"":91330},{""event"":""fullscreenexit"",""trial"":3,""time"":91340},{""event"":""blur"",""trial"":3,""time"":93546},{""event"":""focus"",""trial"":3,""time"":101012},{""event"":""blur"",""trial"":10,""time"":192633},{""event"":""focus"",""trial"":10,""time"":193717}]",NA,NA,NA,NA,NA,4,#741CD8,#D8271C,10,0,1,38,1,2321.6999999284744,37,1,854.5,10,1,experiment,NA,NA,2,0.5,0.5,4,5,54,2,NA
fcp-trial,88,754639,0.0-63.0-0.0,voc_e2,11947,"[{""event"":""blur"",""trial"":0,""time"":0},{""event"":""focus"",""trial"":0,""time"":0},{""event"":""blur"",""trial"":0,""time"":0},{""event"":""focus"",""trial"":0,""time"":0},{""event"":""fullscreenenter"",""trial"":1,""time"":1861},{""event"":""blur"",""trial"":3,""time"":91329},{""event"":""focus"",""trial"":3,""time"":91330},{""event"":""fullscreenexit"",""trial"":3,""time"":91340},{""event"":""blur"",""trial"":3,""time"":93546},{""event"":""focus"",""trial"":3,""time"":101012},{""event"":""blur"",""trial"":10,""time"":192633},{""event"":""focus"",""trial"":10,""time"":193717}]",NA,NA,NA,NA,NA,5,#1CD855,#FA92F8,0,10,0,38,1,3768.100000023842,39,0,798.3999999761581,10,1,experiment,NA,NA,0,0.1,0.9,1,0,55,2,NA
fcp-trial,89,759735,0.0-64.0-0.0,voc_e2,11947,"[{""event"":""blur"",""trial"":0,""time"":0},{""event"":""focus"",""trial"":0,""time"":0},{""event"":""blur"",""trial"":0,""time"":0},{""event"":""focus"",""trial"":0,""time"":0},{""event"":""fullscreenenter"",""trial"":1,""time"":1861},{""event"":""blur"",""trial"":3,""time"":91329},{""event"":""focus"",""trial"":3,""time"":91330},{""event"":""fullscreenexit"",""trial"":3,""time"":91340},{""event"":""blur"",""trial"":3,""time"":93546},{""event"":""focus"",""trial"":3,""time"":101012},{""event"":""blur"",""trial"":10,""time"":192633},{""event"":""focus"",""trial"":10,""time"":193717}]",NA,NA,NA,NA,NA,3,#D89F1C,#3386FF,10,10,0,40,0,2839.2000000476837,37,1,743.3000000715256,10,0,experiment,NA,NA,1,0.3,0.7,3,2,56,2,NA
fcp-trial,90,764545,0.0-65.0-0.0,voc_e2,11947,"[{""event"":""blur"",""trial"":0,""time"":0},{""event"":""focus"",""trial"":0,""time"":0},{""event"":""blur"",""trial"":0,""time"":0},{""event"":""focus"",""trial"":0,""time"":0},{""event"":""fullscreenenter"",""trial"":1,""time"":1861},{""event"":""blur"",""trial"":3,""time"":91329},{""event"":""focus"",""trial"":3,""time"":91330},{""event"":""fullscreenexit"",""trial"":3,""time"":91340},{""event"":""blur"",""trial"":3,""time"":93546},{""event"":""focus"",""trial"":3,""time"":101012},{""event"":""blur"",""trial"":10,""time"":192633},{""event"":""focus"",""trial"":10,""time"":193717}]",NA,NA,NA,NA,NA,5,#741CD8,#D8271C,0,0,1,40,0,2060.4000000953674,37,1,1239.5999999046326,0,1,experiment,NA,NA,2,0.5,0.5,4,5,57,2,NA
fcp-trial,91,770919,0.0-66.0-0.0,voc_e2,11947,"[{""event"":""blur"",""trial"":0,""time"":0},{""event"":""focus"",""trial"":0,""time"":0},{""event"":""blur"",""trial"":0,""time"":0},{""event"":""focus"",""trial"":0,""time"":0},{""event"":""fullscreenenter"",""trial"":1,""time"":1861},{""event"":""blur"",""trial"":3,""time"":91329},{""event"":""focus"",""trial"":3,""time"":91330},{""event"":""fullscreenexit"",""trial"":3,""time"":91340},{""event"":""blur"",""trial"":3,""time"":93546},{""event"":""focus"",""trial"":3,""time"":101012},{""event"":""blur"",""trial"":10,""time"":192633},{""event"":""focus"",""trial"":10,""time"":193717}]",NA,NA,NA,NA,NA,0,#FA92F8,#1CD855,10,0,1,38,1,3215.5,39,0,1647.2000000476835,0,0,experiment,NA,NA,0,0.9,0.1,0,1,58,2,NA
fcp-trial,92,774968,0.0-67.0-0.0,voc_e2,11947,"[{""event"":""blur"",""trial"":0,""time"":0},{""event"":""focus"",""trial"":0,""time"":0},{""event"":""blur"",""trial"":0,""time"":0},{""event"":""focus"",""trial"":0,""time"":0},{""event"":""fullscreenenter"",""trial"":1,""time"":1861},{""event"":""blur"",""trial"":3,""time"":91329},{""event"":""focus"",""trial"":3,""time"":91330},{""event"":""fullscreenexit"",""trial"":3,""time"":91340},{""event"":""blur"",""trial"":3,""time"":93546},{""event"":""focus"",""trial"":3,""time"":101012},{""event"":""blur"",""trial"":10,""time"":192633},{""event"":""focus"",""trial"":10,""time"":193717}]",NA,NA,NA,NA,NA,0,#741CD8,#D8271C,0,0,1,38,1,1860.3999999761581,37,1,679.7999999523163,0,1,experiment,NA,NA,2,0.5,0.5,4,5,59,2,NA
fcp-trial,93,780699,0.0-68.0-0.0,voc_e2,11947,"[{""event"":""blur"",""trial"":0,""time"":0},{""event"":""focus"",""trial"":0,""time"":0},{""event"":""blur"",""trial"":0,""time"":0},{""event"":""focus"",""trial"":0,""time"":0},{""event"":""fullscreenenter"",""trial"":1,""time"":1861},{""event"":""blur"",""trial"":3,""time"":91329},{""event"":""focus"",""trial"":3,""time"":91330},{""event"":""fullscreenexit"",""trial"":3,""time"":91340},{""event"":""blur"",""trial"":3,""time"":93546},{""event"":""focus"",""trial"":3,""time"":101012},{""event"":""blur"",""trial"":10,""time"":192633},{""event"":""focus"",""trial"":10,""time"":193717}]",NA,NA,NA,NA,NA,1,#741CD8,#D8271C,10,10,1,40,0,1173.3999999761581,37,1,3049,10,1,experiment,NA,NA,2,0.5,0.5,4,5,60,2,NA
fcp-trial,94,784518,0.0-69.0-0.0,voc_e2,11947,"[{""event"":""blur"",""trial"":0,""time"":0},{""event"":""focus"",""trial"":0,""time"":0},{""event"":""blur"",""trial"":0,""time"":0},{""event"":""focus"",""trial"":0,""time"":0},{""event"":""fullscreenenter"",""trial"":1,""time"":1861},{""event"":""blur"",""trial"":3,""time"":91329},{""event"":""focus"",""trial"":3,""time"":91330},{""event"":""fullscreenexit"",""trial"":3,""time"":91340},{""event"":""blur"",""trial"":3,""time"":93546},{""event"":""focus"",""trial"":3,""time"":101012},{""event"":""blur"",""trial"":10,""time"":192633},{""event"":""focus"",""trial"":10,""time"":193717}]",NA,NA,NA,NA,NA,1,#D89F1C,#3386FF,0,10,0,38,1,1692.2999999523163,37,1,618.5,0,0,experiment,NA,NA,1,0.3,0.7,3,2,61,2,NA
fcp-trial,95,789703,0.0-70.0-0.0,voc_e2,11947,"[{""event"":""blur"",""trial"":0,""time"":0},{""event"":""focus"",""trial"":0,""time"":0},{""event"":""blur"",""trial"":0,""time"":0},{""event"":""focus"",""trial"":0,""time"":0},{""event"":""fullscreenenter"",""trial"":1,""time"":1861},{""event"":""blur"",""trial"":3,""time"":91329},{""event"":""focus"",""trial"":3,""time"":91330},{""event"":""fullscreenexit"",""trial"":3,""time"":91340},{""event"":""blur"",""trial"":3,""time"":93546},{""event"":""focus"",""trial"":3,""time"":101012},{""event"":""blur"",""trial"":10,""time"":192633},{""event"":""focus"",""trial"":10,""time"":193717}]",NA,NA,NA,NA,NA,2,#D8271C,#741CD8,0,0,0,38,1,1740.8999999761581,37,1,1933.899999976158,0,0,experiment,NA,NA,2,0.5,0.5,5,4,62,2,NA
fcp-trial,96,795250,0.0-71.0-0.0,voc_e2,11947,"[{""event"":""blur"",""trial"":0,""time"":0},{""event"":""focus"",""trial"":0,""time"":0},{""event"":""blur"",""trial"":0,""time"":0},{""event"":""focus"",""trial"":0,""time"":0},{""event"":""fullscreenenter"",""trial"":1,""time"":1861},{""event"":""blur"",""trial"":3,""time"":91329},{""event"":""focus"",""trial"":3,""time"":91330},{""event"":""fullscreenexit"",""trial"":3,""time"":91340},{""event"":""blur"",""trial"":3,""time"":93546},{""event"":""focus"",""trial"":3,""time"":101012},{""event"":""blur"",""trial"":10,""time"":192633},{""event"":""focus"",""trial"":10,""time"":193717}]",NA,NA,NA,NA,NA,1,#1CD855,#FA92F8,10,10,0,38,1,3299.399999976158,39,0,734.6000000238419,10,1,experiment,NA,NA,0,0.1,0.9,1,0,63,2,NA
fcp-trial,97,798999,0.0-72.0-0.0,voc_e2,11947,"[{""event"":""blur"",""trial"":0,""time"":0},{""event"":""focus"",""trial"":0,""time"":0},{""event"":""blur"",""trial"":0,""time"":0},{""event"":""focus"",""trial"":0,""time"":0},{""event"":""fullscreenenter"",""trial"":1,""time"":1861},{""event"":""blur"",""trial"":3,""time"":91329},{""event"":""focus"",""trial"":3,""time"":91330},{""event"":""fullscreenexit"",""trial"":3,""time"":91340},{""event"":""blur"",""trial"":3,""time"":93546},{""event"":""focus"",""trial"":3,""time"":101012},{""event"":""blur"",""trial"":10,""time"":192633},{""event"":""focus"",""trial"":10,""time"":193717}]",NA,NA,NA,NA,NA,3,#1CD855,#FA92F8,0,10,0,38,1,1625.8999999761581,39,0,613.6999999284744,10,1,experiment,NA,NA,0,0.1,0.9,1,0,64,2,NA
fcp-trial,98,804531,0.0-73.0-0.0,voc_e2,11947,"[{""event"":""blur"",""trial"":0,""time"":0},{""event"":""focus"",""trial"":0,""time"":0},{""event"":""blur"",""trial"":0,""time"":0},{""event"":""focus"",""trial"":0,""time"":0},{""event"":""fullscreenenter"",""trial"":1,""time"":1861},{""event"":""blur"",""trial"":3,""time"":91329},{""event"":""focus"",""trial"":3,""time"":91330},{""event"":""fullscreenexit"",""trial"":3,""time"":91340},{""event"":""blur"",""trial"":3,""time"":93546},{""event"":""focus"",""trial"":3,""time"":101012},{""event"":""blur"",""trial"":10,""time"":192633},{""event"":""focus"",""trial"":10,""time"":193717}]",NA,NA,NA,NA,NA,5,#FA92F8,#1CD855,0,0,1,40,0,3291.399999976158,37,1,725.8999999761581,0,1,experiment,NA,NA,0,0.9,0.1,0,1,65,2,NA
fcp-trial,99,808559,0.0-74.0-0.0,voc_e2,11947,"[{""event"":""blur"",""trial"":0,""time"":0},{""event"":""focus"",""trial"":0,""time"":0},{""event"":""blur"",""trial"":0,""time"":0},{""event"":""focus"",""trial"":0,""time"":0},{""event"":""fullscreenenter"",""trial"":1,""time"":1861},{""event"":""blur"",""trial"":3,""time"":91329},{""event"":""focus"",""trial"":3,""time"":91330},{""event"":""fullscreenexit"",""trial"":3,""time"":91340},{""event"":""blur"",""trial"":3,""time"":93546},{""event"":""focus"",""trial"":3,""time"":101012},{""event"":""blur"",""trial"":10,""time"":192633},{""event"":""focus"",""trial"":10,""time"":193717}]",NA,NA,NA,NA,NA,1,#D89F1C,#3386FF,0,10,0,38,1,1911.5999999046326,37,1,606.7999999523163,0,0,experiment,NA,NA,1,0.3,0.7,3,2,66,2,NA
fcp-trial,100,813775,0.0-75.0-0.0,voc_e2,11947,"[{""event"":""blur"",""trial"":0,""time"":0},{""event"":""focus"",""trial"":0,""time"":0},{""event"":""blur"",""trial"":0,""time"":0},{""event"":""focus"",""trial"":0,""time"":0},{""event"":""fullscreenenter"",""trial"":1,""time"":1861},{""event"":""blur"",""trial"":3,""time"":91329},{""event"":""focus"",""trial"":3,""time"":91330},{""event"":""fullscreenexit"",""trial"":3,""time"":91340},{""event"":""blur"",""trial"":3,""time"":93546},{""event"":""focus"",""trial"":3,""time"":101012},{""event"":""blur"",""trial"":10,""time"":192633},{""event"":""focus"",""trial"":10,""time"":193717}]",NA,NA,NA,NA,NA,2,#741CD8,#D8271C,10,10,1,38,1,2267.100000023842,39,0,1437.7000000476835,10,0,experiment,NA,NA,2,0.5,0.5,4,5,67,2,NA
fcp-trial,101,818265,0.0-76.0-0.0,voc_e2,11947,"[{""event"":""blur"",""trial"":0,""time"":0},{""event"":""focus"",""trial"":0,""time"":0},{""event"":""blur"",""trial"":0,""time"":0},{""event"":""focus"",""trial"":0,""time"":0},{""event"":""fullscreenenter"",""trial"":1,""time"":1861},{""event"":""blur"",""trial"":3,""time"":91329},{""event"":""focus"",""trial"":3,""time"":91330},{""event"":""fullscreenexit"",""trial"":3,""time"":91340},{""event"":""blur"",""trial"":3,""time"":93546},{""event"":""focus"",""trial"":3,""time"":101012},{""event"":""blur"",""trial"":10,""time"":192633},{""event"":""focus"",""trial"":10,""time"":193717}]",NA,NA,NA,NA,NA,2,#1CD855,#FA92F8,0,10,0,38,1,1516,39,0,1465,10,1,experiment,NA,NA,0,0.1,0.9,1,0,68,2,NA
fcp-trial,102,823113,0.0-77.0-0.0,voc_e2,11947,"[{""event"":""blur"",""trial"":0,""time"":0},{""event"":""focus"",""trial"":0,""time"":0},{""event"":""blur"",""trial"":0,""time"":0},{""event"":""focus"",""trial"":0,""time"":0},{""event"":""fullscreenenter"",""trial"":1,""time"":1861},{""event"":""blur"",""trial"":3,""time"":91329},{""event"":""focus"",""trial"":3,""time"":91330},{""event"":""fullscreenexit"",""trial"":3,""time"":91340},{""event"":""blur"",""trial"":3,""time"":93546},{""event"":""focus"",""trial"":3,""time"":101012},{""event"":""blur"",""trial"":10,""time"":192633},{""event"":""focus"",""trial"":10,""time"":193717}]",NA,NA,NA,NA,NA,5,#3386FF,#D89F1C,0,0,1,38,1,1996.8000000715256,37,1,1344.0999999046326,0,1,experiment,NA,NA,1,0.7,0.3,2,3,69,2,NA
fcp-trial,103,828144,0.0-78.0-0.0,voc_e2,11947,"[{""event"":""blur"",""trial"":0,""time"":0},{""event"":""focus"",""trial"":0,""time"":0},{""event"":""blur"",""trial"":0,""time"":0},{""event"":""focus"",""trial"":0,""time"":0},{""event"":""fullscreenenter"",""trial"":1,""time"":1861},{""event"":""blur"",""trial"":3,""time"":91329},{""event"":""focus"",""trial"":3,""time"":91330},{""event"":""fullscreenexit"",""trial"":3,""time"":91340},{""event"":""blur"",""trial"":3,""time"":93546},{""event"":""focus"",""trial"":3,""time"":101012},{""event"":""blur"",""trial"":10,""time"":192633},{""event"":""focus"",""trial"":10,""time"":193717}]",NA,NA,NA,NA,NA,1,#741CD8,#D8271C,10,10,1,38,1,1410.8999999761581,37,1,2109.600000023842,10,1,experiment,NA,NA,2,0.5,0.5,4,5,70,2,NA
fcp-trial,104,832167,0.0-79.0-0.0,voc_e2,11947,"[{""event"":""blur"",""trial"":0,""time"":0},{""event"":""focus"",""trial"":0,""time"":0},{""event"":""blur"",""trial"":0,""time"":0},{""event"":""focus"",""trial"":0,""time"":0},{""event"":""fullscreenenter"",""trial"":1,""time"":1861},{""event"":""blur"",""trial"":3,""time"":91329},{""event"":""focus"",""trial"":3,""time"":91330},{""event"":""fullscreenexit"",""trial"":3,""time"":91340},{""event"":""blur"",""trial"":3,""time"":93546},{""event"":""focus"",""trial"":3,""time"":101012},{""event"":""blur"",""trial"":10,""time"":192633},{""event"":""focus"",""trial"":10,""time"":193717}]",NA,NA,NA,NA,NA,3,#D8271C,#741CD8,0,10,0,38,1,780.5,39,0,1734.399999976158,10,1,experiment,NA,NA,2,0.5,0.5,5,4,71,2,NA
fcp-trial,105,835687,0.0-80.0-0.0,voc_e2,11947,"[{""event"":""blur"",""trial"":0,""time"":0},{""event"":""focus"",""trial"":0,""time"":0},{""event"":""blur"",""trial"":0,""time"":0},{""event"":""focus"",""trial"":0,""time"":0},{""event"":""fullscreenenter"",""trial"":1,""time"":1861},{""event"":""blur"",""trial"":3,""time"":91329},{""event"":""focus"",""trial"":3,""time"":91330},{""event"":""fullscreenexit"",""trial"":3,""time"":91340},{""event"":""blur"",""trial"":3,""time"":93546},{""event"":""focus"",""trial"":3,""time"":101012},{""event"":""blur"",""trial"":10,""time"":192633},{""event"":""focus"",""trial"":10,""time"":193717}]",NA,NA,NA,NA,NA,0,#FA92F8,#1CD855,10,0,1,38,1,973.4000000953674,37,1,1037.100000023842,10,1,experiment,NA,NA,0,0.9,0.1,0,1,72,2,NA
fcp-trial,106,841423,0.0-81.0-0.0,voc_e2,11947,"[{""event"":""blur"",""trial"":0,""time"":0},{""event"":""focus"",""trial"":0,""time"":0},{""event"":""blur"",""trial"":0,""time"":0},{""event"":""focus"",""trial"":0,""time"":0},{""event"":""fullscreenenter"",""trial"":1,""time"":1861},{""event"":""blur"",""trial"":3,""time"":91329},{""event"":""focus"",""trial"":3,""time"":91330},{""event"":""fullscreenexit"",""trial"":3,""time"":91340},{""event"":""blur"",""trial"":3,""time"":93546},{""event"":""focus"",""trial"":3,""time"":101012},{""event"":""blur"",""trial"":10,""time"":192633},{""event"":""focus"",""trial"":10,""time"":193717}]",NA,NA,NA,NA,NA,0,#741CD8,#D8271C,0,10,1,38,1,2705.2999999523163,39,0,1519.3000000715256,10,0,experiment,NA,NA,2,0.5,0.5,4,5,73,2,NA
fcp-trial,107,845039,0.0-82.0-0.0,voc_e2,11947,"[{""event"":""blur"",""trial"":0,""time"":0},{""event"":""focus"",""trial"":0,""time"":0},{""event"":""blur"",""trial"":0,""time"":0},{""event"":""focus"",""trial"":0,""time"":0},{""event"":""fullscreenenter"",""trial"":1,""time"":1861},{""event"":""blur"",""trial"":3,""time"":91329},{""event"":""focus"",""trial"":3,""time"":91330},{""event"":""fullscreenexit"",""trial"":3,""time"":91340},{""event"":""blur"",""trial"":3,""time"":93546},{""event"":""focus"",""trial"":3,""time"":101012},{""event"":""blur"",""trial"":10,""time"":192633},{""event"":""focus"",""trial"":10,""time"":193717}]",NA,NA,NA,NA,NA,3,#D89F1C,#3386FF,0,10,0,38,1,1466,39,0,637.8999999761581,10,1,experiment,NA,NA,1,0.3,0.7,3,2,74,2,NA
fcp-trial,108,849183,0.0-83.0-0.0,voc_e2,11947,"[{""event"":""blur"",""trial"":0,""time"":0},{""event"":""focus"",""trial"":0,""time"":0},{""event"":""blur"",""trial"":0,""time"":0},{""event"":""focus"",""trial"":0,""time"":0},{""event"":""fullscreenenter"",""trial"":1,""time"":1861},{""event"":""blur"",""trial"":3,""time"":91329},{""event"":""focus"",""trial"":3,""time"":91330},{""event"":""fullscreenexit"",""trial"":3,""time"":91340},{""event"":""blur"",""trial"":3,""time"":93546},{""event"":""focus"",""trial"":3,""time"":101012},{""event"":""blur"",""trial"":10,""time"":192633},{""event"":""focus"",""trial"":10,""time"":193717}]",NA,NA,NA,NA,NA,1,#FA92F8,#1CD855,10,0,1,38,1,779.8999999761581,39,0,1851.7999999523165,0,0,experiment,NA,NA,0,0.9,0.1,0,1,75,2,NA
fcp-trial,109,852557,0.0-84.0-0.0,voc_e2,11947,"[{""event"":""blur"",""trial"":0,""time"":0},{""event"":""focus"",""trial"":0,""time"":0},{""event"":""blur"",""trial"":0,""time"":0},{""event"":""focus"",""trial"":0,""time"":0},{""event"":""fullscreenenter"",""trial"":1,""time"":1861},{""event"":""blur"",""trial"":3,""time"":91329},{""event"":""focus"",""trial"":3,""time"":91330},{""event"":""fullscreenexit"",""trial"":3,""time"":91340},{""event"":""blur"",""trial"":3,""time"":93546},{""event"":""focus"",""trial"":3,""time"":101012},{""event"":""blur"",""trial"":10,""time"":192633},{""event"":""focus"",""trial"":10,""time"":193717}]",NA,NA,NA,NA,NA,2,#D89F1C,#3386FF,0,10,0,40,0,1108.1000000238419,39,0,750.5,10,1,experiment,NA,NA,1,0.3,0.7,3,2,76,2,NA
fcp-trial,110,857496,0.0-85.0-0.0,voc_e2,11947,"[{""event"":""blur"",""trial"":0,""time"":0},{""event"":""focus"",""trial"":0,""time"":0},{""event"":""blur"",""trial"":0,""time"":0},{""event"":""focus"",""trial"":0,""time"":0},{""event"":""fullscreenenter"",""trial"":1,""time"":1861},{""event"":""blur"",""trial"":3,""time"":91329},{""event"":""focus"",""trial"":3,""time"":91330},{""event"":""fullscreenexit"",""trial"":3,""time"":91340},{""event"":""blur"",""trial"":3,""time"":93546},{""event"":""focus"",""trial"":3,""time"":101012},{""event"":""blur"",""trial"":10,""time"":192633},{""event"":""focus"",""trial"":10,""time"":193717}]",NA,NA,NA,NA,NA,6,#741CD8,#D8271C,10,0,1,38,1,896.8999999761581,37,1,2527.600000023842,10,1,experiment,NA,NA,2,0.5,0.5,4,5,77,2,NA
fcp-trial,111,861805,0.0-86.0-0.0,voc_e2,11947,"[{""event"":""blur"",""trial"":0,""time"":0},{""event"":""focus"",""trial"":0,""time"":0},{""event"":""blur"",""trial"":0,""time"":0},{""event"":""focus"",""trial"":0,""time"":0},{""event"":""fullscreenenter"",""trial"":1,""time"":1861},{""event"":""blur"",""trial"":3,""time"":91329},{""event"":""focus"",""trial"":3,""time"":91330},{""event"":""fullscreenexit"",""trial"":3,""time"":91340},{""event"":""blur"",""trial"":3,""time"":93546},{""event"":""focus"",""trial"":3,""time"":101012},{""event"":""blur"",""trial"":10,""time"":192633},{""event"":""focus"",""trial"":10,""time"":193717}]",NA,NA,NA,NA,NA,4,#D89F1C,#3386FF,0,10,0,40,0,2194.3000000715256,37,1,607.1999999284744,0,0,experiment,NA,NA,1,0.3,0.7,3,2,78,2,NA
fcp-trial,112,864870,0.0-87.0-0.0,voc_e2,11947,"[{""event"":""blur"",""trial"":0,""time"":0},{""event"":""focus"",""trial"":0,""time"":0},{""event"":""blur"",""trial"":0,""time"":0},{""event"":""focus"",""trial"":0,""time"":0},{""event"":""fullscreenenter"",""trial"":1,""time"":1861},{""event"":""blur"",""trial"":3,""time"":91329},{""event"":""focus"",""trial"":3,""time"":91330},{""event"":""fullscreenexit"",""trial"":3,""time"":91340},{""event"":""blur"",""trial"":3,""time"":93546},{""event"":""focus"",""trial"":3,""time"":101012},{""event"":""blur"",""trial"":10,""time"":192633},{""event"":""focus"",""trial"":10,""time"":193717}]",NA,NA,NA,NA,NA,4,#FA92F8,#1CD855,10,0,1,40,0,904.5,39,0,647,0,0,experiment,NA,NA,0,0.9,0.1,0,1,79,2,NA
fcp-trial,113,869390,0.0-88.0-0.0,voc_e2,11947,"[{""event"":""blur"",""trial"":0,""time"":0},{""event"":""focus"",""trial"":0,""time"":0},{""event"":""blur"",""trial"":0,""time"":0},{""event"":""focus"",""trial"":0,""time"":0},{""event"":""fullscreenenter"",""trial"":1,""time"":1861},{""event"":""blur"",""trial"":3,""time"":91329},{""event"":""focus"",""trial"":3,""time"":91330},{""event"":""fullscreenexit"",""trial"":3,""time"":91340},{""event"":""blur"",""trial"":3,""time"":93546},{""event"":""focus"",""trial"":3,""time"":101012},{""event"":""blur"",""trial"":10,""time"":192633},{""event"":""focus"",""trial"":10,""time"":193717}]",NA,NA,NA,NA,NA,5,#D8271C,#741CD8,0,10,0,40,0,2249.899999976158,39,0,757.8000000715256,10,1,experiment,NA,NA,2,0.5,0.5,5,4,80,2,NA
fcp-trial,114,873366,0.0-89.0-0.0,voc_e2,11947,"[{""event"":""blur"",""trial"":0,""time"":0},{""event"":""focus"",""trial"":0,""time"":0},{""event"":""blur"",""trial"":0,""time"":0},{""event"":""focus"",""trial"":0,""time"":0},{""event"":""fullscreenenter"",""trial"":1,""time"":1861},{""event"":""blur"",""trial"":3,""time"":91329},{""event"":""focus"",""trial"":3,""time"":91330},{""event"":""fullscreenexit"",""trial"":3,""time"":91340},{""event"":""blur"",""trial"":3,""time"":93546},{""event"":""focus"",""trial"":3,""time"":101012},{""event"":""blur"",""trial"":10,""time"":192633},{""event"":""focus"",""trial"":10,""time"":193717}]",NA,NA,NA,NA,NA,6,#1CD855,#FA92F8,0,10,0,40,0,1871.7000000476837,39,0,590.9000000953674,10,1,experiment,NA,NA,0,0.1,0.9,1,0,81,2,NA
fcp-trial,115,877729,0.0-90.0-0.0,voc_e2,11947,"[{""event"":""blur"",""trial"":0,""time"":0},{""event"":""focus"",""trial"":0,""time"":0},{""event"":""blur"",""trial"":0,""time"":0},{""event"":""focus"",""trial"":0,""time"":0},{""event"":""fullscreenenter"",""trial"":1,""time"":1861},{""event"":""blur"",""trial"":3,""time"":91329},{""event"":""focus"",""trial"":3,""time"":91330},{""event"":""fullscreenexit"",""trial"":3,""time"":91340},{""event"":""blur"",""trial"":3,""time"":93546},{""event"":""focus"",""trial"":3,""time"":101012},{""event"":""blur"",""trial"":10,""time"":192633},{""event"":""focus"",""trial"":10,""time"":193717}]",NA,NA,NA,NA,NA,4,#741CD8,#D8271C,0,10,1,40,0,2237.7000000476837,39,0,615,10,0,experiment,NA,NA,2,0.5,0.5,4,5,82,2,NA
fcp-trial,116,881295,0.0-91.0-0.0,voc_e2,11947,"[{""event"":""blur"",""trial"":0,""time"":0},{""event"":""focus"",""trial"":0,""time"":0},{""event"":""blur"",""trial"":0,""time"":0},{""event"":""focus"",""trial"":0,""time"":0},{""event"":""fullscreenenter"",""trial"":1,""time"":1861},{""event"":""blur"",""trial"":3,""time"":91329},{""event"":""focus"",""trial"":3,""time"":91330},{""event"":""fullscreenexit"",""trial"":3,""time"":91340},{""event"":""blur"",""trial"":3,""time"":93546},{""event"":""focus"",""trial"":3,""time"":101012},{""event"":""blur"",""trial"":10,""time"":192633},{""event"":""focus"",""trial"":10,""time"":193717}]",NA,NA,NA,NA,NA,0,#3386FF,#D89F1C,10,0,1,38,1,1569.1000000238419,39,0,486.8000000715256,0,0,experiment,NA,NA,1,0.7,0.3,2,3,83,2,NA
fcp-trial,117,885614,0.0-92.0-0.0,voc_e2,11947,"[{""event"":""blur"",""trial"":0,""time"":0},{""event"":""focus"",""trial"":0,""time"":0},{""event"":""blur"",""trial"":0,""time"":0},{""event"":""focus"",""trial"":0,""time"":0},{""event"":""fullscreenenter"",""trial"":1,""time"":1861},{""event"":""blur"",""trial"":3,""time"":91329},{""event"":""focus"",""trial"":3,""time"":91330},{""event"":""fullscreenexit"",""trial"":3,""time"":91340},{""event"":""blur"",""trial"":3,""time"":93546},{""event"":""focus"",""trial"":3,""time"":101012},{""event"":""blur"",""trial"":10,""time"":192633},{""event"":""focus"",""trial"":10,""time"":193717}]",NA,NA,NA,NA,NA,6,#3386FF,#D89F1C,10,0,1,40,0,1434.3999999761581,37,1,1374.8000000715256,10,1,experiment,NA,NA,1,0.7,0.3,2,3,84,2,NA
fcp-trial,118,890166,0.0-93.0-0.0,voc_e2,11947,"[{""event"":""blur"",""trial"":0,""time"":0},{""event"":""focus"",""trial"":0,""time"":0},{""event"":""blur"",""trial"":0,""time"":0},{""event"":""focus"",""trial"":0,""time"":0},{""event"":""fullscreenenter"",""trial"":1,""time"":1861},{""event"":""blur"",""trial"":3,""time"":91329},{""event"":""focus"",""trial"":3,""time"":91330},{""event"":""fullscreenexit"",""trial"":3,""time"":91340},{""event"":""blur"",""trial"":3,""time"":93546},{""event"":""focus"",""trial"":3,""time"":101012},{""event"":""blur"",""trial"":10,""time"":192633},{""event"":""focus"",""trial"":10,""time"":193717}]",NA,NA,NA,NA,NA,1,#D89F1C,#3386FF,0,0,0,38,1,2179.7000000476837,39,0,861.9000000953674,0,1,experiment,NA,NA,1,0.3,0.7,3,2,85,2,NA
fcp-trial,119,894880,0.0-94.0-0.0,voc_e2,11947,"[{""event"":""blur"",""trial"":0,""time"":0},{""event"":""focus"",""trial"":0,""time"":0},{""event"":""blur"",""trial"":0,""time"":0},{""event"":""focus"",""trial"":0,""time"":0},{""event"":""fullscreenenter"",""trial"":1,""time"":1861},{""event"":""blur"",""trial"":3,""time"":91329},{""event"":""focus"",""trial"":3,""time"":91330},{""event"":""fullscreenexit"",""trial"":3,""time"":91340},{""event"":""blur"",""trial"":3,""time"":93546},{""event"":""focus"",""trial"":3,""time"":101012},{""event"":""blur"",""trial"":10,""time"":192633},{""event"":""focus"",""trial"":10,""time"":193717}]",NA,NA,NA,NA,NA,3,#3386FF,#D89F1C,0,0,1,38,1,2724,37,1,481.39999997615814,0,1,experiment,NA,NA,1,0.7,0.3,2,3,86,2,NA
fcp-trial,120,900494,0.0-95.0-0.0,voc_e2,11947,"[{""event"":""blur"",""trial"":0,""time"":0},{""event"":""focus"",""trial"":0,""time"":0},{""event"":""blur"",""trial"":0,""time"":0},{""event"":""focus"",""trial"":0,""time"":0},{""event"":""fullscreenenter"",""trial"":1,""time"":1861},{""event"":""blur"",""trial"":3,""time"":91329},{""event"":""focus"",""trial"":3,""time"":91330},{""event"":""fullscreenexit"",""trial"":3,""time"":91340},{""event"":""blur"",""trial"":3,""time"":93546},{""event"":""focus"",""trial"":3,""time"":101012},{""event"":""blur"",""trial"":10,""time"":192633},{""event"":""focus"",""trial"":10,""time"":193717}]",NA,NA,NA,NA,NA,2,#1CD855,#FA92F8,0,10,0,40,0,1124.3000000715256,39,0,2981.400000095367,10,1,experiment,NA,NA,0,0.1,0.9,1,0,87,2,NA
fcp-trial,121,905021,0.0-96.0-0.0,voc_e2,11947,"[{""event"":""blur"",""trial"":0,""time"":0},{""event"":""focus"",""trial"":0,""time"":0},{""event"":""blur"",""trial"":0,""time"":0},{""event"":""focus"",""trial"":0,""time"":0},{""event"":""fullscreenenter"",""trial"":1,""time"":1861},{""event"":""blur"",""trial"":3,""time"":91329},{""event"":""focus"",""trial"":3,""time"":91330},{""event"":""fullscreenexit"",""trial"":3,""time"":91340},{""event"":""blur"",""trial"":3,""time"":93546},{""event"":""focus"",""trial"":3,""time"":101012},{""event"":""blur"",""trial"":10,""time"":192633},{""event"":""focus"",""trial"":10,""time"":193717}]",NA,NA,NA,NA,NA,6,#741CD8,#D8271C,10,0,1,40,0,2051.2000000476837,39,0,967.3000000715256,0,0,experiment,NA,NA,2,0.5,0.5,4,5,88,2,NA
fcp-trial,122,909054,0.0-97.0-0.0,voc_e2,11947,"[{""event"":""blur"",""trial"":0,""time"":0},{""event"":""focus"",""trial"":0,""time"":0},{""event"":""blur"",""trial"":0,""time"":0},{""event"":""focus"",""trial"":0,""time"":0},{""event"":""fullscreenenter"",""trial"":1,""time"":1861},{""event"":""blur"",""trial"":3,""time"":91329},{""event"":""focus"",""trial"":3,""time"":91330},{""event"":""fullscreenexit"",""trial"":3,""time"":91340},{""event"":""blur"",""trial"":3,""time"":93546},{""event"":""focus"",""trial"":3,""time"":101012},{""event"":""blur"",""trial"":10,""time"":192633},{""event"":""focus"",""trial"":10,""time"":193717}]",NA,NA,NA,NA,NA,1,#1CD855,#FA92F8,0,10,0,40,0,1048.1000000238419,37,1,1471.399999976158,0,0,experiment,NA,NA,0,0.1,0.9,1,0,89,2,NA
fcp-trial,123,912631,0.0-98.0-0.0,voc_e2,11947,"[{""event"":""blur"",""trial"":0,""time"":0},{""event"":""focus"",""trial"":0,""time"":0},{""event"":""blur"",""trial"":0,""time"":0},{""event"":""focus"",""trial"":0,""time"":0},{""event"":""fullscreenenter"",""trial"":1,""time"":1861},{""event"":""blur"",""trial"":3,""time"":91329},{""event"":""focus"",""trial"":3,""time"":91330},{""event"":""fullscreenexit"",""trial"":3,""time"":91340},{""event"":""blur"",""trial"":3,""time"":93546},{""event"":""focus"",""trial"":3,""time"":101012},{""event"":""blur"",""trial"":10,""time"":192633},{""event"":""focus"",""trial"":10,""time"":193717}]",NA,NA,NA,NA,NA,4,#FA92F8,#1CD855,10,0,1,38,1,1169.6000000238419,37,1,895.5999999046326,10,1,experiment,NA,NA,0,0.9,0.1,0,1,90,2,NA
fcp-trial,124,919063,0.0-99.0-0.0,voc_e2,11947,"[{""event"":""blur"",""trial"":0,""time"":0},{""event"":""focus"",""trial"":0,""time"":0},{""event"":""blur"",""trial"":0,""time"":0},{""event"":""focus"",""trial"":0,""time"":0},{""event"":""fullscreenenter"",""trial"":1,""time"":1861},{""event"":""blur"",""trial"":3,""time"":91329},{""event"":""focus"",""trial"":3,""time"":91330},{""event"":""fullscreenexit"",""trial"":3,""time"":91340},{""event"":""blur"",""trial"":3,""time"":93546},{""event"":""focus"",""trial"":3,""time"":101012},{""event"":""blur"",""trial"":10,""time"":192633},{""event"":""focus"",""trial"":10,""time"":193717}]",NA,NA,NA,NA,NA,2,#3386FF,#D89F1C,0,0,1,38,1,2082.600000023842,37,1,2840,0,1,experiment,NA,NA,1,0.7,0.3,2,3,91,3,NA
fcp-trial,125,923344,0.0-100.0-0.0,voc_e2,11947,"[{""event"":""blur"",""trial"":0,""time"":0},{""event"":""focus"",""trial"":0,""time"":0},{""event"":""blur"",""trial"":0,""time"":0},{""event"":""focus"",""trial"":0,""time"":0},{""event"":""fullscreenenter"",""trial"":1,""time"":1861},{""event"":""blur"",""trial"":3,""time"":91329},{""event"":""focus"",""trial"":3,""time"":91330},{""event"":""fullscreenexit"",""trial"":3,""time"":91340},{""event"":""blur"",""trial"":3,""time"":93546},{""event"":""focus"",""trial"":3,""time"":101012},{""event"":""blur"",""trial"":10,""time"":192633},{""event"":""focus"",""trial"":10,""time"":193717}]",NA,NA,NA,NA,NA,3,#741CD8,#D8271C,10,10,1,38,1,2074.899999976158,39,0,694.0999999046326,10,0,experiment,NA,NA,2,0.5,0.5,4,5,92,3,NA
fcp-trial,126,928301,0.0-101.0-0.0,voc_e2,11947,"[{""event"":""blur"",""trial"":0,""time"":0},{""event"":""focus"",""trial"":0,""time"":0},{""event"":""blur"",""trial"":0,""time"":0},{""event"":""focus"",""trial"":0,""time"":0},{""event"":""fullscreenenter"",""trial"":1,""time"":1861},{""event"":""blur"",""trial"":3,""time"":91329},{""event"":""focus"",""trial"":3,""time"":91330},{""event"":""fullscreenexit"",""trial"":3,""time"":91340},{""event"":""blur"",""trial"":3,""time"":93546},{""event"":""focus"",""trial"":3,""time"":101012},{""event"":""blur"",""trial"":10,""time"":192633},{""event"":""focus"",""trial"":10,""time"":193717}]",NA,NA,NA,NA,NA,0,#FA92F8,#1CD855,10,0,1,38,1,2827.399999976158,39,0,620.6999999284744,0,0,experiment,NA,NA,0,0.9,0.1,0,1,93,3,NA
fcp-trial,127,932205,0.0-102.0-0.0,voc_e2,11947,"[{""event"":""blur"",""trial"":0,""time"":0},{""event"":""focus"",""trial"":0,""time"":0},{""event"":""blur"",""trial"":0,""time"":0},{""event"":""focus"",""trial"":0,""time"":0},{""event"":""fullscreenenter"",""trial"":1,""time"":1861},{""event"":""blur"",""trial"":3,""time"":91329},{""event"":""focus"",""trial"":3,""time"":91330},{""event"":""fullscreenexit"",""trial"":3,""time"":91340},{""event"":""blur"",""trial"":3,""time"":93546},{""event"":""focus"",""trial"":3,""time"":101012},{""event"":""blur"",""trial"":10,""time"":192633},{""event"":""focus"",""trial"":10,""time"":193717}]",NA,NA,NA,NA,NA,0,#3386FF,#D89F1C,0,0,1,38,1,1720.8000000715256,39,0,669.5999999046326,0,0,experiment,NA,NA,1,0.7,0.3,2,3,94,3,NA
fcp-trial,128,936968,0.0-103.0-0.0,voc_e2,11947,"[{""event"":""blur"",""trial"":0,""time"":0},{""event"":""focus"",""trial"":0,""time"":0},{""event"":""blur"",""trial"":0,""time"":0},{""event"":""focus"",""trial"":0,""time"":0},{""event"":""fullscreenenter"",""trial"":1,""time"":1861},{""event"":""blur"",""trial"":3,""time"":91329},{""event"":""focus"",""trial"":3,""time"":91330},{""event"":""fullscreenexit"",""trial"":3,""time"":91340},{""event"":""blur"",""trial"":3,""time"":93546},{""event"":""focus"",""trial"":3,""time"":101012},{""event"":""blur"",""trial"":10,""time"":192633},{""event"":""focus"",""trial"":10,""time"":193717}]",NA,NA,NA,NA,NA,5,#FA92F8,#1CD855,10,0,1,40,0,2232.100000023842,39,0,1016.7000000476836,0,0,experiment,NA,NA,0,0.9,0.1,0,1,95,3,NA
fcp-trial,129,940989,0.0-104.0-0.0,voc_e2,11947,"[{""event"":""blur"",""trial"":0,""time"":0},{""event"":""focus"",""trial"":0,""time"":0},{""event"":""blur"",""trial"":0,""time"":0},{""event"":""focus"",""trial"":0,""time"":0},{""event"":""fullscreenenter"",""trial"":1,""time"":1861},{""event"":""blur"",""trial"":3,""time"":91329},{""event"":""focus"",""trial"":3,""time"":91330},{""event"":""fullscreenexit"",""trial"":3,""time"":91340},{""event"":""blur"",""trial"":3,""time"":93546},{""event"":""focus"",""trial"":3,""time"":101012},{""event"":""blur"",""trial"":10,""time"":192633},{""event"":""focus"",""trial"":10,""time"":193717}]",NA,NA,NA,NA,NA,1,#741CD8,#D8271C,0,0,1,38,1,1767.7999999523163,37,1,740.8000000715256,0,1,experiment,NA,NA,2,0.5,0.5,4,5,96,3,NA
fcp-trial,130,945670,0.0-105.0-0.0,voc_e2,11947,"[{""event"":""blur"",""trial"":0,""time"":0},{""event"":""focus"",""trial"":0,""time"":0},{""event"":""blur"",""trial"":0,""time"":0},{""event"":""focus"",""trial"":0,""time"":0},{""event"":""fullscreenenter"",""trial"":1,""time"":1861},{""event"":""blur"",""trial"":3,""time"":91329},{""event"":""focus"",""trial"":3,""time"":91330},{""event"":""fullscreenexit"",""trial"":3,""time"":91340},{""event"":""blur"",""trial"":3,""time"":93546},{""event"":""focus"",""trial"":3,""time"":101012},{""event"":""blur"",""trial"":10,""time"":192633},{""event"":""focus"",""trial"":10,""time"":193717}]",NA,NA,NA,NA,NA,6,#D89F1C,#3386FF,10,0,0,40,0,2395.399999976158,39,0,772.2000000476837,0,1,experiment,NA,NA,1,0.3,0.7,3,2,97,3,NA
fcp-trial,131,949653,0.0-106.0-0.0,voc_e2,11947,"[{""event"":""blur"",""trial"":0,""time"":0},{""event"":""focus"",""trial"":0,""time"":0},{""event"":""blur"",""trial"":0,""time"":0},{""event"":""focus"",""trial"":0,""time"":0},{""event"":""fullscreenenter"",""trial"":1,""time"":1861},{""event"":""blur"",""trial"":3,""time"":91329},{""event"":""focus"",""trial"":3,""time"":91330},{""event"":""fullscreenexit"",""trial"":3,""time"":91340},{""event"":""blur"",""trial"":3,""time"":93546},{""event"":""focus"",""trial"":3,""time"":101012},{""event"":""blur"",""trial"":10,""time"":192633},{""event"":""focus"",""trial"":10,""time"":193717}]",NA,NA,NA,NA,NA,5,#741CD8,#D8271C,10,10,1,40,0,1929.6999999284744,39,0,540,10,0,experiment,NA,NA,2,0.5,0.5,4,5,98,3,NA
