trial_type,trial_index,time_elapsed,internal_node_id,task_version,subject_id,interactions,success,rt,stimulus,key_press,button_pressed,offer,arcade_color_L,arcade_color_R,arcade_outcome_L,arcade_outcome_R,correct,stage_1_key,stage_1_choice,stage_1_rt,stage_2_key,stage_2_choice,stage_2_rt,stage_3_outcome,accuracy,phase,responses,num_errors,context,reward_prob_L,reward_prob_R,arcade_id_L,arcade_id_R,trial,block,response
pavlovia,0,13,0.0-0.0,voc_e2,12137,"[{""event"":""blur"",""trial"":0,""time"":0}]",NA,NA,NA,NA,NA,NA,NA,NA,NA,NA,NA,NA,NA,NA,NA,NA,NA,NA,NA,NA,NA,NA,NA,NA,NA,NA,NA,NA,NA,NA
fullscreen,1,6852,0.0-1.0,voc_e2,12137,"[{""event"":""blur"",""trial"":0,""time"":0},{""event"":""focus"",""trial"":1,""time"":5725},{""event"":""fullscreenenter"",""trial"":1,""time"":5875}]",TRUE,NA,NA,NA,NA,NA,NA,NA,NA,NA,NA,NA,NA,NA,NA,NA,NA,NA,NA,NA,NA,NA,NA,NA,NA,NA,NA,NA,NA,NA
audio-keyboard-response,2,9929,0.0-2.0,voc_e2,12137,"[{""event"":""blur"",""trial"":0,""time"":0},{""event"":""focus"",""trial"":1,""time"":5725},{""event"":""fullscreenenter"",""trial"":1,""time"":5875}]",NA,2749,static/audio/beep_loop.wav,32,NA,NA,NA,NA,NA,NA,NA,NA,NA,NA,NA,NA,NA,NA,NA,NA,NA,NA,NA,NA,NA,NA,NA,NA,NA,NA
audio-test,3,11565,0.0-3.0,voc_e2,12137,"[{""event"":""blur"",""trial"":0,""time"":0},{""event"":""focus"",""trial"":1,""time"":5725},{""event"":""fullscreenenter"",""trial"":1,""time"":5875}]",NA,NA,static/audio/turtle.wav,NA,3,NA,NA,NA,NA,NA,NA,NA,NA,NA,NA,NA,NA,NA,NA,NA,NA,NA,NA,NA,NA,NA,NA,NA,NA,NA
audio-test,4,15093,0.0-4.0,voc_e2,12137,"[{""event"":""blur"",""trial"":0,""time"":0},{""event"":""focus"",""trial"":1,""time"":5725},{""event"":""fullscreenenter"",""trial"":1,""time"":5875}]",NA,NA,static/audio/shark.wav,NA,2,NA,NA,NA,NA,NA,NA,NA,NA,NA,NA,NA,NA,NA,NA,NA,NA,NA,NA,NA,NA,NA,NA,NA,NA,NA
audio-instructions,5,22317,0.0-5.0-0.0,voc_e2,12137,"[{""event"":""blur"",""trial"":0,""time"":0},{""event"":""focus"",""trial"":1,""time"":5725},{""event"":""fullscreenenter"",""trial"":1,""time"":5875}]",NA,1440.3999996185305,static/audio/instructions1.wav,NA,0,NA,NA,NA,NA,NA,NA,NA,NA,NA,NA,NA,NA,NA,NA,NA,NA,NA,NA,NA,NA,NA,NA,NA,NA,NA
audio-instructions,6,33043,0.0-5.0-1.0,voc_e2,12137,"[{""event"":""blur"",""trial"":0,""time"":0},{""event"":""focus"",""trial"":1,""time"":5725},{""event"":""fullscreenenter"",""trial"":1,""time"":5875}]",NA,3976.800000190735,static/audio/instructions2.wav,NA,0,NA,NA,NA,NA,NA,NA,NA,NA,NA,NA,NA,NA,NA,NA,NA,NA,NA,NA,NA,NA,NA,NA,NA,NA,NA
audio-instructions,7,40135,0.0-5.0-2.0,voc_e2,12137,"[{""event"":""blur"",""trial"":0,""time"":0},{""event"":""focus"",""trial"":1,""time"":5725},{""event"":""fullscreenenter"",""trial"":1,""time"":5875}]",NA,1288.6999998092651,static/audio/instructions3.wav,NA,0,NA,NA,NA,NA,NA,NA,NA,NA,NA,NA,NA,NA,NA,NA,NA,NA,NA,NA,NA,NA,NA,NA,NA,NA,NA
audio-instructions,8,54271,0.0-5.0-3.0,voc_e2,12137,"[{""event"":""blur"",""trial"":0,""time"":0},{""event"":""focus"",""trial"":1,""time"":5725},{""event"":""fullscreenenter"",""trial"":1,""time"":5875}]",NA,914.9000005722046,static/audio/instructions4.wav,NA,0,NA,NA,NA,NA,NA,NA,NA,NA,NA,NA,NA,NA,NA,NA,NA,NA,NA,NA,NA,NA,NA,NA,NA,NA,NA
audio-instructions,9,64466,0.0-5.0-4.0,voc_e2,12137,"[{""event"":""blur"",""trial"":0,""time"":0},{""event"":""focus"",""trial"":1,""time"":5725},{""event"":""fullscreenenter"",""trial"":1,""time"":5875}]",NA,808.5,static/audio/instructions5.wav,NA,0,NA,NA,NA,NA,NA,NA,NA,NA,NA,NA,NA,NA,NA,NA,NA,NA,NA,NA,NA,NA,NA,NA,NA,NA,NA
fcp-practice,10,67154,0.0-5.0-5.0-0.0,voc_e2,12137,"[{""event"":""blur"",""trial"":0,""time"":0},{""event"":""focus"",""trial"":1,""time"":5725},{""event"":""fullscreenenter"",""trial"":1,""time"":5875}]",NA,NA,NA,NA,NA,NA,#EDC948,#46d3c8,10,0,1,null,null,null,37,1,1166,10,1,practice,NA,NA,NA,NA,NA,NA,NA,NA,NA,NA
fcp-practice,11,69502,0.0-5.0-5.0-1.0,voc_e2,12137,"[{""event"":""blur"",""trial"":0,""time"":0},{""event"":""focus"",""trial"":1,""time"":5725},{""event"":""fullscreenenter"",""trial"":1,""time"":5875}]",NA,NA,NA,NA,NA,NA,#EDC948,#46d3c8,10,0,1,null,null,null,37,1,839.8000001907349,10,1,practice,NA,NA,NA,NA,NA,NA,NA,NA,NA,NA
fcp-practice,12,71426,0.0-5.0-5.0-2.0,voc_e2,12137,"[{""event"":""blur"",""trial"":0,""time"":0},{""event"":""focus"",""trial"":1,""time"":5725},{""event"":""fullscreenenter"",""trial"":1,""time"":5875}]",NA,NA,NA,NA,NA,NA,#EDC948,#46d3c8,0,10,1,null,null,null,37,1,413.80000019073486,0,1,practice,NA,NA,NA,NA,NA,NA,NA,NA,NA,NA
fcp-practice,13,73319,0.0-5.0-5.0-3.0,voc_e2,12137,"[{""event"":""blur"",""trial"":0,""time"":0},{""event"":""focus"",""trial"":1,""time"":5725},{""event"":""fullscreenenter"",""trial"":1,""time"":5875}]",NA,NA,NA,NA,NA,NA,#EDC948,#46d3c8,10,0,1,null,null,null,37,1,371.30000019073486,10,1,practice,NA,NA,NA,NA,NA,NA,NA,NA,NA,NA
fcp-practice,14,75235,0.0-5.0-5.0-4.0,voc_e2,12137,"[{""event"":""blur"",""trial"":0,""time"":0},{""event"":""focus"",""trial"":1,""time"":5725},{""event"":""fullscreenenter"",""trial"":1,""time"":5875}]",NA,NA,NA,NA,NA,NA,#EDC948,#46d3c8,10,0,1,null,null,null,37,1,399.8999996185303,10,1,practice,NA,NA,NA,NA,NA,NA,NA,NA,NA,NA
audio-instructions,15,98107,0.0-5.0-6.0,voc_e2,12137,"[{""event"":""blur"",""trial"":0,""time"":0},{""event"":""focus"",""trial"":1,""time"":5725},{""event"":""fullscreenenter"",""trial"":1,""time"":5875}]",NA,4859,static/audio/instructions6.wav,NA,0,NA,NA,NA,NA,NA,NA,NA,NA,NA,NA,NA,NA,NA,NA,NA,NA,NA,NA,NA,NA,NA,NA,NA,NA,NA
audio-instructions,16,119106,0.0-5.0-7.0,voc_e2,12137,"[{""event"":""blur"",""trial"":0,""time"":0},{""event"":""focus"",""trial"":1,""time"":5725},{""event"":""fullscreenenter"",""trial"":1,""time"":5875}]",NA,1796.6000003814695,static/audio/instructions7.wav,NA,0,NA,NA,NA,NA,NA,NA,NA,NA,NA,NA,NA,NA,NA,NA,NA,NA,NA,NA,NA,NA,NA,NA,NA,NA,NA
audio-instructions,17,129797,0.0-5.0-8.0,voc_e2,12137,"[{""event"":""blur"",""trial"":0,""time"":0},{""event"":""focus"",""trial"":1,""time"":5725},{""event"":""fullscreenenter"",""trial"":1,""time"":5875}]",NA,1217.6000003814695,static/audio/instructions8.wav,NA,0,NA,NA,NA,NA,NA,NA,NA,NA,NA,NA,NA,NA,NA,NA,NA,NA,NA,NA,NA,NA,NA,NA,NA,NA,NA
fcp-comprehension,18,139997,0.0-5.0-9.0,voc_e2,12137,"[{""event"":""blur"",""trial"":0,""time"":0},{""event"":""focus"",""trial"":1,""time"":5725},{""event"":""fullscreenenter"",""trial"":1,""time"":5875}]",NA,10196,NA,NA,NA,NA,NA,NA,NA,NA,NA,NA,NA,NA,NA,NA,NA,NA,NA,NA,"false,true",1,NA,NA,NA,NA,NA,NA,NA,NA
audio-instructions,19,145238,0.0-5.1-0.1,voc_e2,12137,"[{""event"":""blur"",""trial"":0,""time"":0},{""event"":""focus"",""trial"":1,""time"":5725},{""event"":""fullscreenenter"",""trial"":1,""time"":5875}]",NA,458.6000003814697,static/audio/instructions1.wav,NA,0,NA,NA,NA,NA,NA,NA,NA,NA,NA,NA,NA,NA,NA,NA,NA,NA,NA,NA,NA,NA,NA,NA,NA,NA,NA
audio-instructions,20,154358,0.0-5.1-1.1,voc_e2,12137,"[{""event"":""blur"",""trial"":0,""time"":0},{""event"":""focus"",""trial"":1,""time"":5725},{""event"":""fullscreenenter"",""trial"":1,""time"":5875}]",NA,2368.5999994277954,static/audio/instructions2.wav,NA,0,NA,NA,NA,NA,NA,NA,NA,NA,NA,NA,NA,NA,NA,NA,NA,NA,NA,NA,NA,NA,NA,NA,NA,NA,NA
audio-instructions,21,162258,0.0-5.1-2.1,voc_e2,12137,"[{""event"":""blur"",""trial"":0,""time"":0},{""event"":""focus"",""trial"":1,""time"":5725},{""event"":""fullscreenenter"",""trial"":1,""time"":5875}]",NA,2088.5,static/audio/instructions3.wav,NA,0,NA,NA,NA,NA,NA,NA,NA,NA,NA,NA,NA,NA,NA,NA,NA,NA,NA,NA,NA,NA,NA,NA,NA,NA,NA
audio-instructions,22,176072,0.0-5.1-3.1,voc_e2,12137,"[{""event"":""blur"",""trial"":0,""time"":0},{""event"":""focus"",""trial"":1,""time"":5725},{""event"":""fullscreenenter"",""trial"":1,""time"":5875}]",NA,583.7999992370605,static/audio/instructions4.wav,NA,0,NA,NA,NA,NA,NA,NA,NA,NA,NA,NA,NA,NA,NA,NA,NA,NA,NA,NA,NA,NA,NA,NA,NA,NA,NA
audio-instructions,23,186580,0.0-5.1-4.1,voc_e2,12137,"[{""event"":""blur"",""trial"":0,""time"":0},{""event"":""focus"",""trial"":1,""time"":5725},{""event"":""fullscreenenter"",""trial"":1,""time"":5875}]",NA,1121.5,static/audio/instructions5.wav,NA,0,NA,NA,NA,NA,NA,NA,NA,NA,NA,NA,NA,NA,NA,NA,NA,NA,NA,NA,NA,NA,NA,NA,NA,NA,NA
fcp-practice,24,188668,0.0-5.1-5.1-0.1,voc_e2,12137,"[{""event"":""blur"",""trial"":0,""time"":0},{""event"":""focus"",""trial"":1,""time"":5725},{""event"":""fullscreenenter"",""trial"":1,""time"":5875}]",NA,NA,NA,NA,NA,NA,#EDC948,#46d3c8,10,0,1,null,null,null,37,1,571.4000005722046,10,1,practice,NA,NA,NA,NA,NA,NA,NA,NA,NA,NA
fcp-practice,25,190585,0.0-5.1-5.1-1.1,voc_e2,12137,"[{""event"":""blur"",""trial"":0,""time"":0},{""event"":""focus"",""trial"":1,""time"":5725},{""event"":""fullscreenenter"",""trial"":1,""time"":5875}]",NA,NA,NA,NA,NA,NA,#EDC948,#46d3c8,10,0,1,null,null,null,37,1,402.5999994277954,10,1,practice,NA,NA,NA,NA,NA,NA,NA,NA,NA,NA
fcp-practice,26,192462,0.0-5.1-5.1-2.1,voc_e2,12137,"[{""event"":""blur"",""trial"":0,""time"":0},{""event"":""focus"",""trial"":1,""time"":5725},{""event"":""fullscreenenter"",""trial"":1,""time"":5875}]",NA,NA,NA,NA,NA,NA,#EDC948,#46d3c8,0,10,1,null,null,null,37,1,363.8999996185303,0,1,practice,NA,NA,NA,NA,NA,NA,NA,NA,NA,NA
fcp-practice,27,194320,0.0-5.1-5.1-3.1,voc_e2,12137,"[{""event"":""blur"",""trial"":0,""time"":0},{""event"":""focus"",""trial"":1,""time"":5725},{""event"":""fullscreenenter"",""trial"":1,""time"":5875}]",NA,NA,NA,NA,NA,NA,#EDC948,#46d3c8,10,0,1,null,null,null,37,1,342.6000003814697,10,1,practice,NA,NA,NA,NA,NA,NA,NA,NA,NA,NA
fcp-practice,28,196183,0.0-5.1-5.1-4.1,voc_e2,12137,"[{""event"":""blur"",""trial"":0,""time"":0},{""event"":""focus"",""trial"":1,""time"":5725},{""event"":""fullscreenenter"",""trial"":1,""time"":5875}]",NA,NA,NA,NA,NA,NA,#EDC948,#46d3c8,10,0,1,null,null,null,37,1,345.20000076293945,10,1,practice,NA,NA,NA,NA,NA,NA,NA,NA,NA,NA
audio-instructions,29,215421,0.0-5.1-6.1,voc_e2,12137,"[{""event"":""blur"",""trial"":0,""time"":0},{""event"":""focus"",""trial"":1,""time"":5725},{""event"":""fullscreenenter"",""trial"":1,""time"":5875}]",NA,1232.1999998092651,static/audio/instructions6.wav,NA,0,NA,NA,NA,NA,NA,NA,NA,NA,NA,NA,NA,NA,NA,NA,NA,NA,NA,NA,NA,NA,NA,NA,NA,NA,NA
audio-instructions,30,237773,0.0-5.1-7.1,voc_e2,12137,"[{""event"":""blur"",""trial"":0,""time"":0},{""event"":""focus"",""trial"":1,""time"":5725},{""event"":""fullscreenenter"",""trial"":1,""time"":5875}]",NA,3153.7000007629395,static/audio/instructions7.wav,NA,0,NA,NA,NA,NA,NA,NA,NA,NA,NA,NA,NA,NA,NA,NA,NA,NA,NA,NA,NA,NA,NA,NA,NA,NA,NA
audio-instructions,31,248363,0.0-5.1-8.1,voc_e2,12137,"[{""event"":""blur"",""trial"":0,""time"":0},{""event"":""focus"",""trial"":1,""time"":5725},{""event"":""fullscreenenter"",""trial"":1,""time"":5875}]",NA,1123.8000001907349,static/audio/instructions8.wav,NA,0,NA,NA,NA,NA,NA,NA,NA,NA,NA,NA,NA,NA,NA,NA,NA,NA,NA,NA,NA,NA,NA,NA,NA,NA,NA
fcp-comprehension,32,264798,0.0-5.1-9.1,voc_e2,12137,"[{""event"":""blur"",""trial"":0,""time"":0},{""event"":""focus"",""trial"":1,""time"":5725},{""event"":""fullscreenenter"",""trial"":1,""time"":5875}]",NA,16433.300000190735,NA,NA,NA,NA,NA,NA,NA,NA,NA,NA,NA,NA,NA,NA,NA,NA,NA,NA,"false,true",1,NA,NA,NA,NA,NA,NA,NA,NA
audio-instructions,33,270359,0.0-5.2-0.2,voc_e2,12137,"[{""event"":""blur"",""trial"":0,""time"":0},{""event"":""focus"",""trial"":1,""time"":5725},{""event"":""fullscreenenter"",""trial"":1,""time"":5875}]",NA,779.8000001907349,static/audio/instructions1.wav,NA,0,NA,NA,NA,NA,NA,NA,NA,NA,NA,NA,NA,NA,NA,NA,NA,NA,NA,NA,NA,NA,NA,NA,NA,NA,NA
audio-instructions,34,277954,0.0-5.2-1.2,voc_e2,12137,"[{""event"":""blur"",""trial"":0,""time"":0},{""event"":""focus"",""trial"":1,""time"":5725},{""event"":""fullscreenenter"",""trial"":1,""time"":5875}]",NA,844.5,static/audio/instructions2.wav,NA,0,NA,NA,NA,NA,NA,NA,NA,NA,NA,NA,NA,NA,NA,NA,NA,NA,NA,NA,NA,NA,NA,NA,NA,NA,NA
audio-instructions,35,284186,0.0-5.2-2.2,voc_e2,12137,"[{""event"":""blur"",""trial"":0,""time"":0},{""event"":""focus"",""trial"":1,""time"":5725},{""event"":""fullscreenenter"",""trial"":1,""time"":5875}]",NA,427.1000003814697,static/audio/instructions3.wav,NA,0,NA,NA,NA,NA,NA,NA,NA,NA,NA,NA,NA,NA,NA,NA,NA,NA,NA,NA,NA,NA,NA,NA,NA,NA,NA
audio-instructions,36,299784,0.0-5.2-3.2,voc_e2,12137,"[{""event"":""blur"",""trial"":0,""time"":0},{""event"":""focus"",""trial"":1,""time"":5725},{""event"":""fullscreenenter"",""trial"":1,""time"":5875}]",NA,2365.699999809265,static/audio/instructions4.wav,NA,0,NA,NA,NA,NA,NA,NA,NA,NA,NA,NA,NA,NA,NA,NA,NA,NA,NA,NA,NA,NA,NA,NA,NA,NA,NA
audio-instructions,37,311543,0.0-5.2-4.2,voc_e2,12137,"[{""event"":""blur"",""trial"":0,""time"":0},{""event"":""focus"",""trial"":1,""time"":5725},{""event"":""fullscreenenter"",""trial"":1,""time"":5875}]",NA,2375.3999996185303,static/audio/instructions5.wav,NA,0,NA,NA,NA,NA,NA,NA,NA,NA,NA,NA,NA,NA,NA,NA,NA,NA,NA,NA,NA,NA,NA,NA,NA,NA,NA
fcp-practice,38,313691,0.0-5.2-5.2-0.2,voc_e2,12137,"[{""event"":""blur"",""trial"":0,""time"":0},{""event"":""focus"",""trial"":1,""time"":5725},{""event"":""fullscreenenter"",""trial"":1,""time"":5875}]",NA,NA,NA,NA,NA,NA,#EDC948,#46d3c8,10,0,1,null,null,null,37,1,633.9000005722046,10,1,practice,NA,NA,NA,NA,NA,NA,NA,NA,NA,NA
fcp-practice,39,315606,0.0-5.2-5.2-1.2,voc_e2,12137,"[{""event"":""blur"",""trial"":0,""time"":0},{""event"":""focus"",""trial"":1,""time"":5725},{""event"":""fullscreenenter"",""trial"":1,""time"":5875}]",NA,NA,NA,NA,NA,NA,#EDC948,#46d3c8,10,0,1,null,null,null,37,1,404.1000003814697,10,1,practice,NA,NA,NA,NA,NA,NA,NA,NA,NA,NA
fcp-practice,40,317440,0.0-5.2-5.2-2.2,voc_e2,12137,"[{""event"":""blur"",""trial"":0,""time"":0},{""event"":""focus"",""trial"":1,""time"":5725},{""event"":""fullscreenenter"",""trial"":1,""time"":5875}]",NA,NA,NA,NA,NA,NA,#EDC948,#46d3c8,0,10,1,null,null,null,37,1,320.8999996185303,0,1,practice,NA,NA,NA,NA,NA,NA,NA,NA,NA,NA
fcp-practice,41,319051,0.0-5.2-5.2-3.2,voc_e2,12137,"[{""event"":""blur"",""trial"":0,""time"":0},{""event"":""focus"",""trial"":1,""time"":5725},{""event"":""fullscreenenter"",""trial"":1,""time"":5875}]",NA,NA,NA,NA,NA,NA,#EDC948,#46d3c8,10,0,1,null,null,null,37,1,98.30000019073486,10,1,practice,NA,NA,NA,NA,NA,NA,NA,NA,NA,NA
fcp-practice,42,320787,0.0-5.2-5.2-4.2,voc_e2,12137,"[{""event"":""blur"",""trial"":0,""time"":0},{""event"":""focus"",""trial"":1,""time"":5725},{""event"":""fullscreenenter"",""trial"":1,""time"":5875}]",NA,NA,NA,NA,NA,NA,#EDC948,#46d3c8,10,0,1,null,null,null,37,1,213.5999994277954,10,1,practice,NA,NA,NA,NA,NA,NA,NA,NA,NA,NA
audio-instructions,43,341814,0.0-5.2-6.2,voc_e2,12137,"[{""event"":""blur"",""trial"":0,""time"":0},{""event"":""focus"",""trial"":1,""time"":5725},{""event"":""fullscreenenter"",""trial"":1,""time"":5875}]",NA,3015,static/audio/instructions6.wav,NA,0,NA,NA,NA,NA,NA,NA,NA,NA,NA,NA,NA,NA,NA,NA,NA,NA,NA,NA,NA,NA,NA,NA,NA,NA,NA
audio-instructions,44,363765,0.0-5.2-7.2,voc_e2,12137,"[{""event"":""blur"",""trial"":0,""time"":0},{""event"":""focus"",""trial"":1,""time"":5725},{""event"":""fullscreenenter"",""trial"":1,""time"":5875}]",NA,2756.8999996185303,static/audio/instructions7.wav,NA,0,NA,NA,NA,NA,NA,NA,NA,NA,NA,NA,NA,NA,NA,NA,NA,NA,NA,NA,NA,NA,NA,NA,NA,NA,NA
audio-instructions,45,376094,0.0-5.2-8.2,voc_e2,12137,"[{""event"":""blur"",""trial"":0,""time"":0},{""event"":""focus"",""trial"":1,""time"":5725},{""event"":""fullscreenenter"",""trial"":1,""time"":5875}]",NA,2855.800000190735,static/audio/instructions8.wav,NA,0,NA,NA,NA,NA,NA,NA,NA,NA,NA,NA,NA,NA,NA,NA,NA,NA,NA,NA,NA,NA,NA,NA,NA,NA,NA
fcp-comprehension,46,381028,0.0-5.2-9.2,voc_e2,12137,"[{""event"":""blur"",""trial"":0,""time"":0},{""event"":""focus"",""trial"":1,""time"":5725},{""event"":""fullscreenenter"",""trial"":1,""time"":5875}]",NA,4930.199999809265,NA,NA,NA,NA,NA,NA,NA,NA,NA,NA,NA,NA,NA,NA,NA,NA,NA,NA,"true,true",0,NA,NA,NA,NA,NA,NA,NA,NA
audio-instructions,47,399873,0.0-6.0-0.0,voc_e2,12137,"[{""event"":""blur"",""trial"":0,""time"":0},{""event"":""focus"",""trial"":1,""time"":5725},{""event"":""fullscreenenter"",""trial"":1,""time"":5875}]",NA,13294.599999427795,static/audio/instructions9.wav,NA,0,NA,NA,NA,NA,NA,NA,NA,NA,NA,NA,NA,NA,NA,NA,NA,NA,NA,NA,NA,NA,NA,NA,NA,NA,NA
audio-instructions,48,412719,0.0-6.0-1.0,voc_e2,12137,"[{""event"":""blur"",""trial"":0,""time"":0},{""event"":""focus"",""trial"":1,""time"":5725},{""event"":""fullscreenenter"",""trial"":1,""time"":5875}]",NA,730.5999994277954,static/audio/instructions10.wav,NA,0,NA,NA,NA,NA,NA,NA,NA,NA,NA,NA,NA,NA,NA,NA,NA,NA,NA,NA,NA,NA,NA,NA,NA,NA,NA
fcp-trial,49,419278,0.0-6.0-2.0,voc_e2,12137,"[{""event"":""blur"",""trial"":0,""time"":0},{""event"":""focus"",""trial"":1,""time"":5725},{""event"":""fullscreenenter"",""trial"":1,""time"":5875}]",NA,NA,NA,NA,NA,0,#EDC948,#46d3c8,10,10,1,38,1,3963.800000190735,37,1,1045.8000001907349,10,1,practice,NA,NA,NA,NA,NA,NA,NA,NA,NA,NA
audio-instructions,50,431453,0.0-6.0-3.0,voc_e2,12137,"[{""event"":""blur"",""trial"":0,""time"":0},{""event"":""focus"",""trial"":1,""time"":5725},{""event"":""fullscreenenter"",""trial"":1,""time"":5875}]",NA,1164,static/audio/instructions11.wav,NA,0,NA,NA,NA,NA,NA,NA,NA,NA,NA,NA,NA,NA,NA,NA,NA,NA,NA,NA,NA,NA,NA,NA,NA,NA,NA
fcp-trial,51,435046,0.0-6.0-4.0,voc_e2,12137,"[{""event"":""blur"",""trial"":0,""time"":0},{""event"":""focus"",""trial"":1,""time"":5725},{""event"":""fullscreenenter"",""trial"":1,""time"":5875}]",NA,NA,NA,NA,NA,6,#EDC948,#46d3c8,10,10,1,40,0,982.1999998092651,37,1,1096,10,1,practice,NA,NA,NA,NA,NA,NA,NA,NA,NA,NA
audio-instructions,52,454510,0.0-6.0-5.0,voc_e2,12137,"[{""event"":""blur"",""trial"":0,""time"":0},{""event"":""focus"",""trial"":1,""time"":5725},{""event"":""fullscreenenter"",""trial"":1,""time"":5875}]",NA,770.6999998092651,static/audio/instructions12.wav,NA,0,NA,NA,NA,NA,NA,NA,NA,NA,NA,NA,NA,NA,NA,NA,NA,NA,NA,NA,NA,NA,NA,NA,NA,NA,NA
audio-instructions,53,462622,0.0-6.0-6.0,voc_e2,12137,"[{""event"":""blur"",""trial"":0,""time"":0},{""event"":""focus"",""trial"":1,""time"":5725},{""event"":""fullscreenenter"",""trial"":1,""time"":5875}]",NA,513.6000003814697,static/audio/instructions13.wav,NA,0,NA,NA,NA,NA,NA,NA,NA,NA,NA,NA,NA,NA,NA,NA,NA,NA,NA,NA,NA,NA,NA,NA,NA,NA,NA
audio-instructions,54,471661,0.0-6.0-7.0,voc_e2,12137,"[{""event"":""blur"",""trial"":0,""time"":0},{""event"":""focus"",""trial"":1,""time"":5725},{""event"":""fullscreenenter"",""trial"":1,""time"":5875}]",NA,592.5,static/audio/instructions14.wav,NA,0,NA,NA,NA,NA,NA,NA,NA,NA,NA,NA,NA,NA,NA,NA,NA,NA,NA,NA,NA,NA,NA,NA,NA,NA,NA
audio-instructions,55,479043,0.0-7.0-0.0,voc_e2,12137,"[{""event"":""blur"",""trial"":0,""time"":0},{""event"":""focus"",""trial"":1,""time"":5725},{""event"":""fullscreenenter"",""trial"":1,""time"":5875}]",NA,463.80000019073486,static/audio/instructions15.wav,NA,0,NA,NA,NA,NA,NA,NA,NA,NA,NA,NA,NA,NA,NA,NA,NA,NA,NA,NA,NA,NA,NA,NA,NA,NA,NA
audio-instructions,56,486084,0.0-7.0-1.0,voc_e2,12137,"[{""event"":""blur"",""trial"":0,""time"":0},{""event"":""focus"",""trial"":1,""time"":5725},{""event"":""fullscreenenter"",""trial"":1,""time"":5875}]",NA,216,static/audio/instructions16.wav,NA,0,NA,NA,NA,NA,NA,NA,NA,NA,NA,NA,NA,NA,NA,NA,NA,NA,NA,NA,NA,NA,NA,NA,NA,NA,NA
audio-instructions,57,493921,0.0-7.0-2.0,voc_e2,12137,"[{""event"":""blur"",""trial"":0,""time"":0},{""event"":""focus"",""trial"":1,""time"":5725},{""event"":""fullscreenenter"",""trial"":1,""time"":5875}]",NA,161,static/audio/instructions17.wav,NA,0,NA,NA,NA,NA,NA,NA,NA,NA,NA,NA,NA,NA,NA,NA,NA,NA,NA,NA,NA,NA,NA,NA,NA,NA,NA
audio-instructions,58,502010,0.0-7.0-3.0,voc_e2,12137,"[{""event"":""blur"",""trial"":0,""time"":0},{""event"":""focus"",""trial"":1,""time"":5725},{""event"":""fullscreenenter"",""trial"":1,""time"":5875}]",NA,321,static/audio/instructions18.wav,NA,0,NA,NA,NA,NA,NA,NA,NA,NA,NA,NA,NA,NA,NA,NA,NA,NA,NA,NA,NA,NA,NA,NA,NA,NA,NA
audio-instructions,59,509101,0.0-7.0-4.0,voc_e2,12137,"[{""event"":""blur"",""trial"":0,""time"":0},{""event"":""focus"",""trial"":1,""time"":5725},{""event"":""fullscreenenter"",""trial"":1,""time"":5875}]",NA,351.5,static/audio/instructions19.wav,NA,0,NA,NA,NA,NA,NA,NA,NA,NA,NA,NA,NA,NA,NA,NA,NA,NA,NA,NA,NA,NA,NA,NA,NA,NA,NA
fcp-comprehension,60,521064,0.0-7.0-5.0,voc_e2,12137,"[{""event"":""blur"",""trial"":0,""time"":0},{""event"":""focus"",""trial"":1,""time"":5725},{""event"":""fullscreenenter"",""trial"":1,""time"":5875}]",NA,11958.89999961853,NA,NA,NA,NA,NA,NA,NA,NA,NA,NA,NA,NA,NA,NA,NA,NA,NA,NA,"false,false,false,true",0,NA,NA,NA,NA,NA,NA,NA,NA
audio-instructions,61,532447,0.0-8.0,voc_e2,12137,"[{""event"":""blur"",""trial"":0,""time"":0},{""event"":""focus"",""trial"":1,""time"":5725},{""event"":""fullscreenenter"",""trial"":1,""time"":5875}]",NA,2156.8999996185303,static/audio/ready.wav,NA,0,NA,NA,NA,NA,NA,NA,NA,NA,NA,NA,NA,NA,NA,NA,NA,NA,NA,NA,NA,NA,NA,NA,NA,NA,NA
fcp-trial,62,537420,0.0-9.0-0.0,voc_e2,12137,"[{""event"":""blur"",""trial"":0,""time"":0},{""event"":""focus"",""trial"":1,""time"":5725},{""event"":""fullscreenenter"",""trial"":1,""time"":5875}]",NA,NA,NA,NA,NA,4,#741CD8,#D8271C,0,0,0,40,0,2428.8999996185303,39,0,1027.3000001907349,0,1,experiment,NA,NA,1,0.3,0.7,3,2,1,1,NA
fcp-trial,63,541028,0.0-10.0-0.0,voc_e2,12137,"[{""event"":""blur"",""trial"":0,""time"":0},{""event"":""focus"",""trial"":1,""time"":5725},{""event"":""fullscreenenter"",""trial"":1,""time"":5875}]",NA,NA,NA,NA,NA,6,#D89F1C,#3386FF,10,10,1,40,0,1304.1999998092651,37,1,792.4000005722046,10,1,experiment,NA,NA,2,0.5,0.5,4,5,2,1,NA
fcp-trial,64,545926,0.0-11.0-0.0,voc_e2,12137,"[{""event"":""blur"",""trial"":0,""time"":0},{""event"":""focus"",""trial"":1,""time"":5725},{""event"":""fullscreenenter"",""trial"":1,""time"":5875}]",NA,NA,NA,NA,NA,6,#1CD855,#FA92F8,10,0,1,40,0,2334.2000007629395,39,0,1048.6000003814695,0,0,experiment,NA,NA,0,0.9,0.1,0,1,3,1,NA
fcp-trial,65,550422,0.0-12.0-0.0,voc_e2,12137,"[{""event"":""blur"",""trial"":0,""time"":0},{""event"":""focus"",""trial"":1,""time"":5725},{""event"":""fullscreenenter"",""trial"":1,""time"":5875}]",NA,NA,NA,NA,NA,0,#D89F1C,#3386FF,0,10,1,38,1,2219.6000003814697,37,1,759.1999998092651,0,1,experiment,NA,NA,2,0.5,0.5,4,5,4,1,NA
fcp-trial,66,554461,0.0-13.0-0.0,voc_e2,12137,"[{""event"":""blur"",""trial"":0,""time"":0},{""event"":""focus"",""trial"":1,""time"":5725},{""event"":""fullscreenenter"",""trial"":1,""time"":5875}]",NA,NA,NA,NA,NA,5,#D8271C,#741CD8,10,0,1,40,0,1534.5,39,0,990.6999998092653,0,0,experiment,NA,NA,1,0.7,0.3,2,3,5,1,NA
fcp-trial,67,559998,0.0-14.0-0.0,voc_e2,12137,"[{""event"":""blur"",""trial"":0,""time"":0},{""event"":""focus"",""trial"":1,""time"":5725},{""event"":""fullscreenenter"",""trial"":1,""time"":5875}]",NA,NA,NA,NA,NA,3,#D89F1C,#3386FF,0,0,1,40,0,3145,37,1,872.1999998092651,0,1,experiment,NA,NA,2,0.5,0.5,4,5,6,1,NA
fcp-trial,68,564145,0.0-15.0-0.0,voc_e2,12137,"[{""event"":""blur"",""trial"":0,""time"":0},{""event"":""focus"",""trial"":1,""time"":5725},{""event"":""fullscreenenter"",""trial"":1,""time"":5875}]",NA,NA,NA,NA,NA,1,#FA92F8,#1CD855,0,10,0,40,0,1923.1999998092651,37,1,716,0,0,experiment,NA,NA,0,0.1,0.9,1,0,7,1,NA
fcp-trial,69,568024,0.0-16.0-0.0,voc_e2,12137,"[{""event"":""blur"",""trial"":0,""time"":0},{""event"":""focus"",""trial"":1,""time"":5725},{""event"":""fullscreenenter"",""trial"":1,""time"":5875}]",NA,NA,NA,NA,NA,2,#D8271C,#741CD8,0,10,1,40,0,1681.6000003814697,39,0,686.8000001907349,10,0,experiment,NA,NA,1,0.7,0.3,2,3,8,1,NA
fcp-trial,70,571980,0.0-17.0-0.0,voc_e2,12137,"[{""event"":""blur"",""trial"":0,""time"":0},{""event"":""focus"",""trial"":1,""time"":5725},{""event"":""fullscreenenter"",""trial"":1,""time"":5875}]",NA,NA,NA,NA,NA,3,#D8271C,#741CD8,10,0,1,40,0,1653.3000001907349,37,1,794.2999992370605,10,1,experiment,NA,NA,1,0.7,0.3,2,3,9,1,NA
fcp-trial,71,575803,0.0-18.0-0.0,voc_e2,12137,"[{""event"":""blur"",""trial"":0,""time"":0},{""event"":""focus"",""trial"":1,""time"":5725},{""event"":""fullscreenenter"",""trial"":1,""time"":5875}]",NA,NA,NA,NA,NA,5,#1CD855,#FA92F8,10,0,1,40,0,1440.5999994277954,39,0,871,0,0,experiment,NA,NA,0,0.9,0.1,0,1,10,1,NA
fcp-trial,72,579287,0.0-19.0-0.0,voc_e2,12137,"[{""event"":""blur"",""trial"":0,""time"":0},{""event"":""focus"",""trial"":1,""time"":5725},{""event"":""fullscreenenter"",""trial"":1,""time"":5875}]",NA,NA,NA,NA,NA,5,#D89F1C,#3386FF,0,0,1,40,0,1345.3000001907349,37,1,628.3999996185303,0,1,experiment,NA,NA,2,0.5,0.5,4,5,11,1,NA
fcp-trial,73,582949,0.0-20.0-0.0,voc_e2,12137,"[{""event"":""blur"",""trial"":0,""time"":0},{""event"":""focus"",""trial"":1,""time"":5725},{""event"":""fullscreenenter"",""trial"":1,""time"":5875}]",NA,NA,NA,NA,NA,3,#1CD855,#FA92F8,0,0,1,40,0,1517,39,0,636.4000005722046,0,0,experiment,NA,NA,0,0.9,0.1,0,1,12,1,NA
fcp-trial,74,586595,0.0-21.0-0.0,voc_e2,12137,"[{""event"":""blur"",""trial"":0,""time"":0},{""event"":""focus"",""trial"":1,""time"":5725},{""event"":""fullscreenenter"",""trial"":1,""time"":5875}]",NA,NA,NA,NA,NA,2,#D89F1C,#3386FF,10,10,1,40,0,1467,39,0,670.3000001907349,10,0,experiment,NA,NA,2,0.5,0.5,4,5,13,1,NA
fcp-trial,75,590367,0.0-22.0-0.0,voc_e2,12137,"[{""event"":""blur"",""trial"":0,""time"":0},{""event"":""focus"",""trial"":1,""time"":5725},{""event"":""fullscreenenter"",""trial"":1,""time"":5875}]",NA,NA,NA,NA,NA,1,#741CD8,#D8271C,10,10,0,40,0,1548,37,1,718.6999998092651,10,0,experiment,NA,NA,1,0.3,0.7,3,2,14,1,NA
fcp-trial,76,594696,0.0-23.0-0.0,voc_e2,12137,"[{""event"":""blur"",""trial"":0,""time"":0},{""event"":""focus"",""trial"":1,""time"":5725},{""event"":""fullscreenenter"",""trial"":1,""time"":5875}]",NA,NA,NA,NA,NA,0,#1CD855,#FA92F8,10,0,1,38,1,1833.5999994277954,37,1,985.2999992370604,10,1,experiment,NA,NA,0,0.9,0.1,0,1,15,1,NA
fcp-trial,77,598528,0.0-24.0-0.0,voc_e2,12137,"[{""event"":""blur"",""trial"":0,""time"":0},{""event"":""focus"",""trial"":1,""time"":5725},{""event"":""fullscreenenter"",""trial"":1,""time"":5875}]",NA,NA,NA,NA,NA,4,#3386FF,#D89F1C,10,0,0,40,0,1608.8999996185303,37,1,714.7000007629395,10,0,experiment,NA,NA,2,0.5,0.5,5,4,16,1,NA
fcp-trial,78,602072,0.0-25.0-0.0,voc_e2,12137,"[{""event"":""blur"",""trial"":0,""time"":0},{""event"":""focus"",""trial"":1,""time"":5725},{""event"":""fullscreenenter"",""trial"":1,""time"":5875}]",NA,NA,NA,NA,NA,1,#3386FF,#D89F1C,10,10,0,38,1,1438.6000003814697,37,1,598.1000003814697,10,0,experiment,NA,NA,2,0.5,0.5,5,4,17,1,NA
fcp-trial,79,606648,0.0-26.0-0.0,voc_e2,12137,"[{""event"":""blur"",""trial"":0,""time"":0},{""event"":""focus"",""trial"":1,""time"":5725},{""event"":""fullscreenenter"",""trial"":1,""time"":5875}]",NA,NA,NA,NA,NA,2,#1CD855,#FA92F8,10,0,1,38,1,2468.800000190735,37,1,597.1999998092651,10,1,experiment,NA,NA,0,0.9,0.1,0,1,18,1,NA
fcp-trial,80,611515,0.0-27.0-0.0,voc_e2,12137,"[{""event"":""blur"",""trial"":0,""time"":0},{""event"":""focus"",""trial"":1,""time"":5725},{""event"":""fullscreenenter"",""trial"":1,""time"":5875}]",NA,NA,NA,NA,NA,0,#741CD8,#D8271C,0,10,0,38,1,1670.6999998092651,37,1,1686.1000003814695,0,0,experiment,NA,NA,1,0.3,0.7,3,2,19,1,NA
fcp-trial,81,615626,0.0-28.0-0.0,voc_e2,12137,"[{""event"":""blur"",""trial"":0,""time"":0},{""event"":""focus"",""trial"":1,""time"":5725},{""event"":""fullscreenenter"",""trial"":1,""time"":5875}]",NA,NA,NA,NA,NA,4,#1CD855,#FA92F8,10,0,1,40,0,1888,37,1,716.5,10,1,experiment,NA,NA,0,0.9,0.1,0,1,20,1,NA
fcp-trial,82,619542,0.0-29.0-0.0,voc_e2,12137,"[{""event"":""blur"",""trial"":0,""time"":0},{""event"":""focus"",""trial"":1,""time"":5725},{""event"":""fullscreenenter"",""trial"":1,""time"":5875}]",NA,NA,NA,NA,NA,6,#741CD8,#D8271C,0,10,0,40,0,1596,39,0,808.1000003814697,10,1,experiment,NA,NA,1,0.3,0.7,3,2,21,1,NA
fcp-trial,83,623207,0.0-30.0-0.0,voc_e2,12137,"[{""event"":""blur"",""trial"":0,""time"":0},{""event"":""focus"",""trial"":1,""time"":5725},{""event"":""fullscreenenter"",""trial"":1,""time"":5875}]",NA,NA,NA,NA,NA,0,#3386FF,#D89F1C,0,0,0,38,1,1356.4000005722046,37,1,801.5,0,0,experiment,NA,NA,2,0.5,0.5,5,4,22,1,NA
fcp-trial,84,627108,0.0-31.0-0.0,voc_e2,12137,"[{""event"":""blur"",""trial"":0,""time"":0},{""event"":""focus"",""trial"":1,""time"":5725},{""event"":""fullscreenenter"",""trial"":1,""time"":5875}]",NA,NA,NA,NA,NA,3,#741CD8,#D8271C,0,10,0,40,0,1723.6999998092651,37,1,668,0,0,experiment,NA,NA,1,0.3,0.7,3,2,23,1,NA
fcp-trial,85,630768,0.0-32.0-0.0,voc_e2,12137,"[{""event"":""blur"",""trial"":0,""time"":0},{""event"":""focus"",""trial"":1,""time"":5725},{""event"":""fullscreenenter"",""trial"":1,""time"":5875}]",NA,NA,NA,NA,NA,1,#741CD8,#D8271C,0,10,0,38,1,1526.8000001907349,39,0,626.3000001907349,10,1,experiment,NA,NA,1,0.3,0.7,3,2,24,1,NA
fcp-trial,86,634672,0.0-33.0-0.0,voc_e2,12137,"[{""event"":""blur"",""trial"":0,""time"":0},{""event"":""focus"",""trial"":1,""time"":5725},{""event"":""fullscreenenter"",""trial"":1,""time"":5875}]",NA,NA,NA,NA,NA,6,#D89F1C,#3386FF,10,0,1,40,0,1733.5,39,0,662.5,0,0,experiment,NA,NA,2,0.5,0.5,4,5,25,1,NA
fcp-trial,87,638540,0.0-34.0-0.0,voc_e2,12137,"[{""event"":""blur"",""trial"":0,""time"":0},{""event"":""focus"",""trial"":1,""time"":5725},{""event"":""fullscreenenter"",""trial"":1,""time"":5875}]",NA,NA,NA,NA,NA,5,#FA92F8,#1CD855,0,10,0,40,0,1727.5,39,0,633.5,10,1,experiment,NA,NA,0,0.1,0.9,1,0,26,1,NA
fcp-trial,88,642542,0.0-35.0-0.0,voc_e2,12137,"[{""event"":""blur"",""trial"":0,""time"":0},{""event"":""focus"",""trial"":1,""time"":5725},{""event"":""fullscreenenter"",""trial"":1,""time"":5875}]",NA,NA,NA,NA,NA,1,#D89F1C,#3386FF,10,0,1,38,1,1846.8999996185303,39,0,647.5,0,0,experiment,NA,NA,2,0.5,0.5,4,5,27,1,NA
fcp-trial,89,646247,0.0-36.0-0.0,voc_e2,12137,"[{""event"":""blur"",""trial"":0,""time"":0},{""event"":""focus"",""trial"":1,""time"":5725},{""event"":""fullscreenenter"",""trial"":1,""time"":5875}]",NA,NA,NA,NA,NA,2,#1CD855,#FA92F8,10,0,1,38,1,1637.5,37,1,559.5,10,1,experiment,NA,NA,0,0.9,0.1,0,1,28,1,NA
fcp-trial,90,649679,0.0-37.0-0.0,voc_e2,12137,"[{""event"":""blur"",""trial"":0,""time"":0},{""event"":""focus"",""trial"":1,""time"":5725},{""event"":""fullscreenenter"",""trial"":1,""time"":5875}]",NA,NA,NA,NA,NA,0,#741CD8,#D8271C,10,10,0,38,1,1306,39,0,617.8000001907349,10,1,experiment,NA,NA,1,0.3,0.7,3,2,29,1,NA
fcp-trial,91,653316,0.0-38.0-0.0,voc_e2,12137,"[{""event"":""blur"",""trial"":0,""time"":0},{""event"":""focus"",""trial"":1,""time"":5725},{""event"":""fullscreenenter"",""trial"":1,""time"":5875}]",NA,NA,NA,NA,NA,3,#3386FF,#D89F1C,10,0,0,40,0,1488.8000001907349,39,0,641.1000003814697,0,1,experiment,NA,NA,2,0.5,0.5,5,4,30,1,NA
fcp-trial,92,656709,0.0-39.0-0.0,voc_e2,12137,"[{""event"":""blur"",""trial"":0,""time"":0},{""event"":""focus"",""trial"":1,""time"":5725},{""event"":""fullscreenenter"",""trial"":1,""time"":5875}]",NA,NA,NA,NA,NA,3,#1CD855,#FA92F8,10,10,1,38,1,1330.5,37,1,553.3999996185303,10,1,experiment,NA,NA,0,0.9,0.1,0,1,31,1,NA
fcp-trial,93,660636,0.0-40.0-0.0,voc_e2,12137,"[{""event"":""blur"",""trial"":0,""time"":0},{""event"":""focus"",""trial"":1,""time"":5725},{""event"":""fullscreenenter"",""trial"":1,""time"":5875}]",NA,NA,NA,NA,NA,5,#D8271C,#741CD8,0,10,1,40,0,1588.5999994277954,39,0,831.8000001907349,10,0,experiment,NA,NA,1,0.7,0.3,2,3,32,1,NA
fcp-trial,94,664133,0.0-41.0-0.0,voc_e2,12137,"[{""event"":""blur"",""trial"":0,""time"":0},{""event"":""focus"",""trial"":1,""time"":5725},{""event"":""fullscreenenter"",""trial"":1,""time"":5875}]",NA,NA,NA,NA,NA,0,#FA92F8,#1CD855,0,10,0,38,1,1348.6999998092651,39,0,627.5,10,1,experiment,NA,NA,0,0.1,0.9,1,0,33,1,NA
fcp-trial,95,667575,0.0-42.0-0.0,voc_e2,12137,"[{""event"":""blur"",""trial"":0,""time"":0},{""event"":""focus"",""trial"":1,""time"":5725},{""event"":""fullscreenenter"",""trial"":1,""time"":5875}]",NA,NA,NA,NA,NA,5,#3386FF,#D89F1C,10,10,0,40,0,1268.7000007629395,37,1,657.1999998092651,10,0,experiment,NA,NA,2,0.5,0.5,5,4,34,1,NA
fcp-trial,96,671087,0.0-43.0-0.0,voc_e2,12137,"[{""event"":""blur"",""trial"":0,""time"":0},{""event"":""focus"",""trial"":1,""time"":5725},{""event"":""fullscreenenter"",""trial"":1,""time"":5875}]",NA,NA,NA,NA,NA,2,#D8271C,#741CD8,0,0,1,38,1,1261.5999994277954,37,1,731.2000007629395,0,1,experiment,NA,NA,1,0.7,0.3,2,3,35,1,NA
fcp-trial,97,674407,0.0-44.0-0.0,voc_e2,12137,"[{""event"":""blur"",""trial"":0,""time"":0},{""event"":""focus"",""trial"":1,""time"":5725},{""event"":""fullscreenenter"",""trial"":1,""time"":5875}]",NA,NA,NA,NA,NA,4,#FA92F8,#1CD855,0,10,0,40,0,1197.3999996185303,39,0,600.1000003814697,10,1,experiment,NA,NA,0,0.1,0.9,1,0,36,1,NA
fcp-trial,98,677699,0.0-45.0-0.0,voc_e2,12137,"[{""event"":""blur"",""trial"":0,""time"":0},{""event"":""focus"",""trial"":1,""time"":5725},{""event"":""fullscreenenter"",""trial"":1,""time"":5875}]",NA,NA,NA,NA,NA,6,#FA92F8,#1CD855,10,10,0,40,0,1136.3000001907349,39,0,635.5,10,1,experiment,NA,NA,0,0.1,0.9,1,0,37,1,NA
fcp-trial,99,680945,0.0-46.0-0.0,voc_e2,12137,"[{""event"":""blur"",""trial"":0,""time"":0},{""event"":""focus"",""trial"":1,""time"":5725},{""event"":""fullscreenenter"",""trial"":1,""time"":5875}]",NA,NA,NA,NA,NA,6,#741CD8,#D8271C,10,10,0,40,0,1109.5,37,1,618.3000001907349,10,0,experiment,NA,NA,1,0.3,0.7,3,2,38,1,NA
fcp-trial,100,685202,0.0-47.0-0.0,voc_e2,12137,"[{""event"":""blur"",""trial"":0,""time"":0},{""event"":""focus"",""trial"":1,""time"":5725},{""event"":""fullscreenenter"",""trial"":1,""time"":5875}]",NA,NA,NA,NA,NA,2,#3386FF,#D89F1C,0,10,0,38,1,1875.8000001907349,37,1,862.6000003814697,0,0,experiment,NA,NA,2,0.5,0.5,5,4,39,1,NA
fcp-trial,101,688642,0.0-48.0-0.0,voc_e2,12137,"[{""event"":""blur"",""trial"":0,""time"":0},{""event"":""focus"",""trial"":1,""time"":5725},{""event"":""fullscreenenter"",""trial"":1,""time"":5875}]",NA,NA,NA,NA,NA,4,#741CD8,#D8271C,0,10,0,40,0,1357.8000001907349,39,0,567.8999996185303,10,1,experiment,NA,NA,1,0.3,0.7,3,2,40,1,NA
fcp-trial,102,691775,0.0-49.0-0.0,voc_e2,12137,"[{""event"":""blur"",""trial"":0,""time"":0},{""event"":""focus"",""trial"":1,""time"":5725},{""event"":""fullscreenenter"",""trial"":1,""time"":5875}]",NA,NA,NA,NA,NA,1,#FA92F8,#1CD855,0,10,0,38,1,1100.6999998092651,39,0,515.6999998092651,10,1,experiment,NA,NA,0,0.1,0.9,1,0,41,1,NA
fcp-trial,103,695359,0.0-50.0-0.0,voc_e2,12137,"[{""event"":""blur"",""trial"":0,""time"":0},{""event"":""focus"",""trial"":1,""time"":5725},{""event"":""fullscreenenter"",""trial"":1,""time"":5875}]",NA,NA,NA,NA,NA,4,#D89F1C,#3386FF,0,10,1,40,0,1316.5999994277954,37,1,749,0,1,experiment,NA,NA,2,0.5,0.5,4,5,42,1,NA
fcp-trial,104,698489,0.0-51.0-0.0,voc_e2,12137,"[{""event"":""blur"",""trial"":0,""time"":0},{""event"":""focus"",""trial"":1,""time"":5725},{""event"":""fullscreenenter"",""trial"":1,""time"":5875}]",NA,NA,NA,NA,NA,3,#D89F1C,#3386FF,0,0,1,38,1,1056.3999996185303,39,0,554.6000003814697,0,0,experiment,NA,NA,2,0.5,0.5,4,5,43,1,NA
fcp-trial,105,702324,0.0-52.0-0.0,voc_e2,12137,"[{""event"":""blur"",""trial"":0,""time"":0},{""event"":""focus"",""trial"":1,""time"":5725},{""event"":""fullscreenenter"",""trial"":1,""time"":5875}]",NA,NA,NA,NA,NA,0,#D8271C,#741CD8,0,0,1,38,1,1358.3000001907349,37,1,960.6000003814696,0,1,experiment,NA,NA,1,0.7,0.3,2,3,44,1,NA
fcp-trial,106,707573,0.0-53.0-0.0,voc_e2,12137,"[{""event"":""blur"",""trial"":0,""time"":0},{""event"":""focus"",""trial"":1,""time"":5725},{""event"":""fullscreenenter"",""trial"":1,""time"":5875}]",NA,NA,NA,NA,NA,2,#D89F1C,#3386FF,0,0,1,40,0,3186.8999996185303,39,0,546.3000001907349,0,0,experiment,NA,NA,2,0.5,0.5,4,5,45,1,NA
fcp-trial,107,710608,0.0-54.0-0.0,voc_e2,12137,"[{""event"":""blur"",""trial"":0,""time"":0},{""event"":""focus"",""trial"":1,""time"":5725},{""event"":""fullscreenenter"",""trial"":1,""time"":5875}]",NA,NA,NA,NA,NA,1,#FA92F8,#1CD855,0,10,0,38,1,961.8999996185303,39,0,558,10,1,experiment,NA,NA,0,0.1,0.9,1,0,46,2,NA
fcp-trial,108,714608,0.0-55.0-0.0,voc_e2,12137,"[{""event"":""blur"",""trial"":0,""time"":0},{""event"":""focus"",""trial"":1,""time"":5725},{""event"":""fullscreenenter"",""trial"":1,""time"":5875}]",NA,NA,NA,NA,NA,0,#3386FF,#D89F1C,0,0,0,38,1,1758.0999994277954,37,1,725.4000005722046,0,0,experiment,NA,NA,2,0.5,0.5,5,4,47,2,NA
fcp-trial,109,718612,0.0-56.0-0.0,voc_e2,12137,"[{""event"":""blur"",""trial"":0,""time"":0},{""event"":""focus"",""trial"":1,""time"":5725},{""event"":""fullscreenenter"",""trial"":1,""time"":5875}]",NA,NA,NA,NA,NA,5,#1CD855,#FA92F8,10,0,1,40,0,1900.3999996185303,37,1,588.5,10,1,experiment,NA,NA,0,0.9,0.1,0,1,48,2,NA
fcp-trial,110,722035,0.0-57.0-0.0,voc_e2,12137,"[{""event"":""blur"",""trial"":0,""time"":0},{""event"":""focus"",""trial"":1,""time"":5725},{""event"":""fullscreenenter"",""trial"":1,""time"":5875}]",NA,NA,NA,NA,NA,4,#D8271C,#741CD8,10,10,1,40,0,1333.1999998092651,39,0,576.3000001907349,10,0,experiment,NA,NA,1,0.7,0.3,2,3,49,2,NA
fcp-trial,111,725488,0.0-58.0-0.0,voc_e2,12137,"[{""event"":""blur"",""trial"":0,""time"":0},{""event"":""focus"",""trial"":1,""time"":5725},{""event"":""fullscreenenter"",""trial"":1,""time"":5875}]",NA,NA,NA,NA,NA,6,#1CD855,#FA92F8,10,0,1,40,0,1315.5,37,1,618.8000001907349,10,1,experiment,NA,NA,0,0.9,0.1,0,1,50,2,NA
fcp-trial,112,729785,0.0-59.0-0.0,voc_e2,12137,"[{""event"":""blur"",""trial"":0,""time"":0},{""event"":""focus"",""trial"":1,""time"":5725},{""event"":""fullscreenenter"",""trial"":1,""time"":5875}]",NA,NA,NA,NA,NA,1,#D89F1C,#3386FF,0,10,1,38,1,2075.199999809265,37,1,704,0,1,experiment,NA,NA,2,0.5,0.5,4,5,51,2,NA
fcp-trial,113,732937,0.0-60.0-0.0,voc_e2,12137,"[{""event"":""blur"",""trial"":0,""time"":0},{""event"":""focus"",""trial"":1,""time"":5725},{""event"":""fullscreenenter"",""trial"":1,""time"":5875}]",NA,NA,NA,NA,NA,4,#D89F1C,#3386FF,10,0,1,40,0,1034.4000005722046,37,1,602,10,1,experiment,NA,NA,2,0.5,0.5,4,5,52,2,NA
fcp-trial,114,736350,0.0-61.0-0.0,voc_e2,12137,"[{""event"":""blur"",""trial"":0,""time"":0},{""event"":""focus"",""trial"":1,""time"":5725},{""event"":""fullscreenenter"",""trial"":1,""time"":5875}]",NA,NA,NA,NA,NA,5,#741CD8,#D8271C,10,10,0,40,0,1261.7999992370605,37,1,630.1000003814697,10,0,experiment,NA,NA,1,0.3,0.7,3,2,53,2,NA
fcp-trial,115,739569,0.0-62.0-0.0,voc_e2,12137,"[{""event"":""blur"",""trial"":0,""time"":0},{""event"":""focus"",""trial"":1,""time"":5725},{""event"":""fullscreenenter"",""trial"":1,""time"":5875}]",NA,NA,NA,NA,NA,1,#741CD8,#D8271C,10,0,0,38,1,1139,37,1,563.3999996185303,10,0,experiment,NA,NA,1,0.3,0.7,3,2,54,2,NA
fcp-trial,116,742570,0.0-63.0-0.0,voc_e2,12137,"[{""event"":""blur"",""trial"":0,""time"":0},{""event"":""focus"",""trial"":1,""time"":5725},{""event"":""fullscreenenter"",""trial"":1,""time"":5875}]",NA,NA,NA,NA,NA,2,#FA92F8,#1CD855,0,10,0,38,1,933.8999996185303,39,0,550,10,1,experiment,NA,NA,0,0.1,0.9,1,0,55,2,NA
fcp-trial,117,745501,0.0-64.0-0.0,voc_e2,12137,"[{""event"":""blur"",""trial"":0,""time"":0},{""event"":""focus"",""trial"":1,""time"":5725},{""event"":""fullscreenenter"",""trial"":1,""time"":5875}]",NA,NA,NA,NA,NA,0,#FA92F8,#1CD855,0,10,0,38,1,826.3999996185303,39,0,588.9000005722046,10,1,experiment,NA,NA,0,0.1,0.9,1,0,56,2,NA
fcp-trial,118,748886,0.0-65.0-0.0,voc_e2,12137,"[{""event"":""blur"",""trial"":0,""time"":0},{""event"":""focus"",""trial"":1,""time"":5725},{""event"":""fullscreenenter"",""trial"":1,""time"":5875}]",NA,NA,NA,NA,NA,5,#3386FF,#D89F1C,0,0,0,40,0,1267.7999992370605,39,0,601,0,1,experiment,NA,NA,2,0.5,0.5,5,4,57,2,NA
fcp-trial,119,752359,0.0-66.0-0.0,voc_e2,12137,"[{""event"":""blur"",""trial"":0,""time"":0},{""event"":""focus"",""trial"":1,""time"":5725},{""event"":""fullscreenenter"",""trial"":1,""time"":5875}]",NA,NA,NA,NA,NA,3,#D8271C,#741CD8,10,0,1,38,1,1337.8000001907349,39,0,619.2000007629395,0,0,experiment,NA,NA,1,0.7,0.3,2,3,58,2,NA
fcp-trial,120,755728,0.0-67.0-0.0,voc_e2,12137,"[{""event"":""blur"",""trial"":0,""time"":0},{""event"":""focus"",""trial"":1,""time"":5725},{""event"":""fullscreenenter"",""trial"":1,""time"":5875}]",NA,NA,NA,NA,NA,6,#D89F1C,#3386FF,0,0,1,40,0,1239.3000001907349,39,0,618,0,0,experiment,NA,NA,2,0.5,0.5,4,5,59,2,NA
fcp-trial,121,759023,0.0-68.0-0.0,voc_e2,12137,"[{""event"":""blur"",""trial"":0,""time"":0},{""event"":""focus"",""trial"":1,""time"":5725},{""event"":""fullscreenenter"",""trial"":1,""time"":5875}]",NA,NA,NA,NA,NA,6,#741CD8,#D8271C,0,10,0,40,0,1128.6999998092651,37,1,643.3000001907349,0,0,experiment,NA,NA,1,0.3,0.7,3,2,60,2,NA
fcp-trial,122,762060,0.0-69.0-0.0,voc_e2,12137,"[{""event"":""blur"",""trial"":0,""time"":0},{""event"":""focus"",""trial"":1,""time"":5725},{""event"":""fullscreenenter"",""trial"":1,""time"":5875}]",NA,NA,NA,NA,NA,3,#FA92F8,#1CD855,0,10,0,38,1,957.0999994277954,39,0,562.3000001907349,10,1,experiment,NA,NA,0,0.1,0.9,1,0,61,2,NA
fcp-trial,123,765643,0.0-70.0-0.0,voc_e2,12137,"[{""event"":""blur"",""trial"":0,""time"":0},{""event"":""focus"",""trial"":1,""time"":5725},{""event"":""fullscreenenter"",""trial"":1,""time"":5875}]",NA,NA,NA,NA,NA,2,#741CD8,#D8271C,0,10,0,40,0,1431.8000001907349,37,1,633.3999996185303,0,0,experiment,NA,NA,1,0.3,0.7,3,2,62,2,NA
fcp-trial,124,768858,0.0-71.0-0.0,voc_e2,12137,"[{""event"":""blur"",""trial"":0,""time"":0},{""event"":""focus"",""trial"":1,""time"":5725},{""event"":""fullscreenenter"",""trial"":1,""time"":5875}]",NA,NA,NA,NA,NA,4,#1CD855,#FA92F8,10,0,1,40,0,1054.3999996185303,37,1,646.5999994277954,10,1,experiment,NA,NA,0,0.9,0.1,0,1,63,2,NA
fcp-trial,125,772158,0.0-72.0-0.0,voc_e2,12137,"[{""event"":""blur"",""trial"":0,""time"":0},{""event"":""focus"",""trial"":1,""time"":5725},{""event"":""fullscreenenter"",""trial"":1,""time"":5875}]",NA,NA,NA,NA,NA,2,#1CD855,#FA92F8,10,0,1,38,1,1186.2999992370605,37,1,596.6000003814697,10,1,experiment,NA,NA,0,0.9,0.1,0,1,64,2,NA
fcp-trial,126,775410,0.0-73.0-0.0,voc_e2,12137,"[{""event"":""blur"",""trial"":0,""time"":0},{""event"":""focus"",""trial"":1,""time"":5725},{""event"":""fullscreenenter"",""trial"":1,""time"":5875}]",NA,NA,NA,NA,NA,5,#741CD8,#D8271C,0,0,0,40,0,1120,37,1,618.2000007629395,0,0,experiment,NA,NA,1,0.3,0.7,3,2,65,2,NA
fcp-trial,127,778227,0.0-74.0-0.0,voc_e2,12137,"[{""event"":""blur"",""trial"":0,""time"":0},{""event"":""focus"",""trial"":1,""time"":5725},{""event"":""fullscreenenter"",""trial"":1,""time"":5875}]",NA,NA,NA,NA,NA,1,#741CD8,#D8271C,0,10,0,38,1,777.6000003814697,39,0,527.8000001907349,10,1,experiment,NA,NA,1,0.3,0.7,3,2,66,2,NA
fcp-trial,128,781357,0.0-75.0-0.0,voc_e2,12137,"[{""event"":""blur"",""trial"":0,""time"":0},{""event"":""focus"",""trial"":1,""time"":5725},{""event"":""fullscreenenter"",""trial"":1,""time"":5875}]",NA,NA,NA,NA,NA,0,#FA92F8,#1CD855,0,10,0,38,1,1085.7999992370605,39,0,538.1000003814697,10,1,experiment,NA,NA,0,0.1,0.9,1,0,67,2,NA
fcp-trial,129,785061,0.0-76.0-0.0,voc_e2,12137,"[{""event"":""blur"",""trial"":0,""time"":0},{""event"":""focus"",""trial"":1,""time"":5725},{""event"":""fullscreenenter"",""trial"":1,""time"":5875}]",NA,NA,NA,NA,NA,2,#3386FF,#D89F1C,0,0,0,40,0,1686.1000003814697,39,0,514.3000001907349,0,1,experiment,NA,NA,2,0.5,0.5,5,4,68,2,NA
fcp-trial,130,787815,0.0-77.0-0.0,voc_e2,12137,"[{""event"":""blur"",""trial"":0,""time"":0},{""event"":""focus"",""trial"":1,""time"":5725},{""event"":""fullscreenenter"",""trial"":1,""time"":5875}]",NA,NA,NA,NA,NA,0,#3386FF,#D89F1C,10,10,0,38,1,724,37,1,522.1000003814697,10,0,experiment,NA,NA,2,0.5,0.5,5,4,69,2,NA
fcp-trial,131,791179,0.0-78.0-0.0,voc_e2,12137,"[{""event"":""blur"",""trial"":0,""time"":0},{""event"":""focus"",""trial"":1,""time"":5725},{""event"":""fullscreenenter"",""trial"":1,""time"":5875}]",NA,NA,NA,NA,NA,4,#D8271C,#741CD8,10,0,1,40,0,1302.3999996185303,37,1,557.3000001907349,10,1,experiment,NA,NA,1,0.7,0.3,2,3,70,2,NA
fcp-trial,132,794923,0.0-79.0-0.0,voc_e2,12137,"[{""event"":""blur"",""trial"":0,""time"":0},{""event"":""focus"",""trial"":1,""time"":5725},{""event"":""fullscreenenter"",""trial"":1,""time"":5875}]",NA,NA,NA,NA,NA,3,#D89F1C,#3386FF,0,10,1,38,1,1777.6999998092651,39,0,461.5999994277954,10,0,experiment,NA,NA,2,0.5,0.5,4,5,71,2,NA
fcp-trial,133,798896,0.0-80.0-0.0,voc_e2,12137,"[{""event"":""blur"",""trial"":0,""time"":0},{""event"":""focus"",""trial"":1,""time"":5725},{""event"":""fullscreenenter"",""trial"":1,""time"":5875}]",NA,NA,NA,NA,NA,5,#FA92F8,#1CD855,0,10,0,38,1,1912.1000003814697,39,0,553.3999996185303,10,1,experiment,NA,NA,0,0.1,0.9,1,0,72,2,NA
fcp-trial,134,804199,0.0-81.0-0.0,voc_e2,12137,"[{""event"":""blur"",""trial"":0,""time"":0},{""event"":""focus"",""trial"":1,""time"":5725},{""event"":""fullscreenenter"",""trial"":1,""time"":5875}]",NA,NA,NA,NA,NA,0,#741CD8,#D8271C,10,10,0,38,1,2405.5,39,0,1391,10,1,experiment,NA,NA,1,0.3,0.7,3,2,73,2,NA
fcp-trial,135,807539,0.0-82.0-0.0,voc_e2,12137,"[{""event"":""blur"",""trial"":0,""time"":0},{""event"":""focus"",""trial"":1,""time"":5725},{""event"":""fullscreenenter"",""trial"":1,""time"":5875}]",NA,NA,NA,NA,NA,1,#3386FF,#D89F1C,0,10,0,38,1,1277.7999992370605,37,1,558.3000001907349,0,0,experiment,NA,NA,2,0.5,0.5,5,4,74,2,NA
fcp-trial,136,811048,0.0-83.0-0.0,voc_e2,12137,"[{""event"":""blur"",""trial"":0,""time"":0},{""event"":""focus"",""trial"":1,""time"":5725},{""event"":""fullscreenenter"",""trial"":1,""time"":5875}]",NA,NA,NA,NA,NA,6,#FA92F8,#1CD855,0,10,0,40,0,1447.2999992370605,39,0,557.8000001907349,10,1,experiment,NA,NA,0,0.1,0.9,1,0,75,2,NA
fcp-trial,137,814401,0.0-84.0-0.0,voc_e2,12137,"[{""event"":""blur"",""trial"":0,""time"":0},{""event"":""focus"",""trial"":1,""time"":5725},{""event"":""fullscreenenter"",""trial"":1,""time"":5875}]",NA,NA,NA,NA,NA,6,#D8271C,#741CD8,10,0,1,40,0,1290.3999996185303,37,1,557.5,10,1,experiment,NA,NA,1,0.7,0.3,2,3,76,2,NA
fcp-trial,138,817660,0.0-85.0-0.0,voc_e2,12137,"[{""event"":""blur"",""trial"":0,""time"":0},{""event"":""focus"",""trial"":1,""time"":5725},{""event"":""fullscreenenter"",""trial"":1,""time"":5875}]",NA,NA,NA,NA,NA,4,#FA92F8,#1CD855,0,0,0,38,1,1210.8000001907349,39,0,543,0,1,experiment,NA,NA,0,0.1,0.9,1,0,77,2,NA
fcp-trial,139,822599,0.0-86.0-0.0,voc_e2,12137,"[{""event"":""blur"",""trial"":0,""time"":0},{""event"":""focus"",""trial"":1,""time"":5725},{""event"":""fullscreenenter"",""trial"":1,""time"":5875}]",NA,NA,NA,NA,NA,3,#741CD8,#D8271C,0,10,0,40,0,2865.699999809265,37,1,567.0999994277954,0,0,experiment,NA,NA,1,0.3,0.7,3,2,78,2,NA
fcp-trial,140,825710,0.0-87.0-0.0,voc_e2,12137,"[{""event"":""blur"",""trial"":0,""time"":0},{""event"":""focus"",""trial"":1,""time"":5725},{""event"":""fullscreenenter"",""trial"":1,""time"":5875}]",NA,NA,NA,NA,NA,6,#3386FF,#D89F1C,10,0,0,40,0,1036.6999998092651,37,1,567.1999998092651,10,0,experiment,NA,NA,2,0.5,0.5,5,4,79,2,NA
fcp-trial,141,829154,0.0-88.0-0.0,voc_e2,12137,"[{""event"":""blur"",""trial"":0,""time"":0},{""event"":""focus"",""trial"":1,""time"":5725},{""event"":""fullscreenenter"",""trial"":1,""time"":5875}]",NA,NA,NA,NA,NA,2,#D8271C,#741CD8,0,0,1,38,1,1163,37,1,775.8000001907349,0,1,experiment,NA,NA,1,0.7,0.3,2,3,80,2,NA
fcp-trial,142,832603,0.0-89.0-0.0,voc_e2,12137,"[{""event"":""blur"",""trial"":0,""time"":0},{""event"":""focus"",""trial"":1,""time"":5725},{""event"":""fullscreenenter"",""trial"":1,""time"":5875}]",NA,NA,NA,NA,NA,5,#D89F1C,#3386FF,10,10,1,40,0,1273.3999996185303,37,1,669.5,10,1,experiment,NA,NA,2,0.5,0.5,4,5,81,2,NA
fcp-trial,143,835971,0.0-90.0-0.0,voc_e2,12137,"[{""event"":""blur"",""trial"":0,""time"":0},{""event"":""focus"",""trial"":1,""time"":5725},{""event"":""fullscreenenter"",""trial"":1,""time"":5875}]",NA,NA,NA,NA,NA,3,#FA92F8,#1CD855,0,10,0,38,1,1380.5,39,0,483.0999994277954,10,1,experiment,NA,NA,0,0.1,0.9,1,0,82,2,NA
fcp-trial,144,839708,0.0-91.0-0.0,voc_e2,12137,"[{""event"":""blur"",""trial"":0,""time"":0},{""event"":""focus"",""trial"":1,""time"":5725},{""event"":""fullscreenenter"",""trial"":1,""time"":5875}]",NA,NA,NA,NA,NA,4,#D89F1C,#3386FF,10,10,1,40,0,1682,39,0,549.3999996185303,10,0,experiment,NA,NA,2,0.5,0.5,4,5,83,2,NA
fcp-trial,145,842830,0.0-92.0-0.0,voc_e2,12137,"[{""event"":""blur"",""trial"":0,""time"":0},{""event"":""focus"",""trial"":1,""time"":5725},{""event"":""fullscreenenter"",""trial"":1,""time"":5875}]",NA,NA,NA,NA,NA,1,#1CD855,#FA92F8,10,0,1,38,1,1049.4000005722046,37,1,567.0999994277954,10,1,experiment,NA,NA,0,0.9,0.1,0,1,84,2,NA
fcp-trial,146,846158,0.0-93.0-0.0,voc_e2,12137,"[{""event"":""blur"",""trial"":0,""time"":0},{""event"":""focus"",""trial"":1,""time"":5725},{""event"":""fullscreenenter"",""trial"":1,""time"":5875}]",NA,NA,NA,NA,NA,4,#FA92F8,#1CD855,0,10,0,38,1,1263.5999994277954,39,0,559,10,1,experiment,NA,NA,0,0.1,0.9,1,0,85,2,NA
fcp-trial,147,849453,0.0-94.0-0.0,voc_e2,12137,"[{""event"":""blur"",""trial"":0,""time"":0},{""event"":""focus"",""trial"":1,""time"":5725},{""event"":""fullscreenenter"",""trial"":1,""time"":5875}]",NA,NA,NA,NA,NA,6,#1CD855,#FA92F8,10,0,1,40,0,1226,37,1,565,10,1,experiment,NA,NA,0,0.9,0.1,0,1,86,2,NA
fcp-trial,148,853062,0.0-95.0-0.0,voc_e2,12137,"[{""event"":""blur"",""trial"":0,""time"":0},{""event"":""focus"",""trial"":1,""time"":5725},{""event"":""fullscreenenter"",""trial"":1,""time"":5875}]",NA,NA,NA,NA,NA,1,#3386FF,#D89F1C,10,0,0,38,1,1598.9000005722046,37,1,501,10,0,experiment,NA,NA,2,0.5,0.5,5,4,87,2,NA
fcp-trial,149,856207,0.0-96.0-0.0,voc_e2,12137,"[{""event"":""blur"",""trial"":0,""time"":0},{""event"":""focus"",""trial"":1,""time"":5725},{""event"":""fullscreenenter"",""trial"":1,""time"":5875}]",NA,NA,NA,NA,NA,5,#FA92F8,#1CD855,0,10,0,40,0,1064.8999996185303,39,0,575.5,10,1,experiment,NA,NA,0,0.1,0.9,1,0,88,2,NA
fcp-trial,150,859712,0.0-97.0-0.0,voc_e2,12137,"[{""event"":""blur"",""trial"":0,""time"":0},{""event"":""focus"",""trial"":1,""time"":5725},{""event"":""fullscreenenter"",""trial"":1,""time"":5875}]",NA,NA,NA,NA,NA,3,#D8271C,#741CD8,0,0,1,38,1,1442.2000007629395,37,1,558,0,1,experiment,NA,NA,1,0.7,0.3,2,3,89,2,NA
fcp-trial,151,863269,0.0-98.0-0.0,voc_e2,12137,"[{""event"":""blur"",""trial"":0,""time"":0},{""event"":""focus"",""trial"":1,""time"":5725},{""event"":""fullscreenenter"",""trial"":1,""time"":5875}]",NA,NA,NA,NA,NA,0,#3386FF,#D89F1C,10,10,0,38,1,1475.1999998092651,37,1,577.8000001907349,10,0,experiment,NA,NA,2,0.5,0.5,5,4,90,2,NA
fcp-trial,152,867066,0.0-99.0-0.0,voc_e2,12137,"[{""event"":""blur"",""trial"":0,""time"":0},{""event"":""focus"",""trial"":1,""time"":5725},{""event"":""fullscreenenter"",""trial"":1,""time"":5875}]",NA,NA,NA,NA,NA,1,#741CD8,#D8271C,0,10,0,38,1,1792.1999998092651,39,0,499.5,10,1,experiment,NA,NA,1,0.3,0.7,3,2,91,3,NA
fcp-trial,153,870233,0.0-100.0-0.0,voc_e2,12137,"[{""event"":""blur"",""trial"":0,""time"":0},{""event"":""focus"",""trial"":1,""time"":5725},{""event"":""fullscreenenter"",""trial"":1,""time"":5875}]",NA,NA,NA,NA,NA,0,#1CD855,#FA92F8,10,0,1,38,1,1137.3000001907349,37,1,526.1000003814697,10,1,experiment,NA,NA,0,0.9,0.1,0,1,92,3,NA
fcp-trial,154,873382,0.0-101.0-0.0,voc_e2,12137,"[{""event"":""blur"",""trial"":0,""time"":0},{""event"":""focus"",""trial"":1,""time"":5725},{""event"":""fullscreenenter"",""trial"":1,""time"":5875}]",NA,NA,NA,NA,NA,5,#741CD8,#D8271C,0,0,0,40,0,1078.5999994277954,39,0,564.4000005722046,0,1,experiment,NA,NA,1,0.3,0.7,3,2,93,3,NA
fcp-trial,155,877152,0.0-102.0-0.0,voc_e2,12137,"[{""event"":""blur"",""trial"":0,""time"":0},{""event"":""focus"",""trial"":1,""time"":5725},{""event"":""fullscreenenter"",""trial"":1,""time"":5875}]",NA,NA,NA,NA,NA,6,#3386FF,#D89F1C,0,0,0,40,0,1496.4000005722046,39,0,768,0,1,experiment,NA,NA,2,0.5,0.5,5,4,94,3,NA
fcp-trial,156,880814,0.0-103.0-0.0,voc_e2,12137,"[{""event"":""blur"",""trial"":0,""time"":0},{""event"":""focus"",""trial"":1,""time"":5725},{""event"":""fullscreenenter"",""trial"":1,""time"":5875}]",NA,NA,NA,NA,NA,3,#FA92F8,#1CD855,0,10,0,38,1,1629.8000001907349,39,0,527.1000003814697,10,1,experiment,NA,NA,0,0.1,0.9,1,0,95,3,NA
fcp-trial,157,884208,0.0-104.0-0.0,voc_e2,12137,"[{""event"":""blur"",""trial"":0,""time"":0},{""event"":""focus"",""trial"":1,""time"":5725},{""event"":""fullscreenenter"",""trial"":1,""time"":5875}]",NA,NA,NA,NA,NA,2,#741CD8,#D8271C,0,10,0,38,1,1388.4000005722046,39,0,500.20000076293945,10,1,experiment,NA,NA,1,0.3,0.7,3,2,96,3,NA
fcp-trial,158,888214,0.0-105.0-0.0,voc_e2,12137,"[{""event"":""blur"",""trial"":0,""time"":0},{""event"":""focus"",""trial"":1,""time"":5725},{""event"":""fullscreenenter"",""trial"":1,""time"":5875}]",NA,NA,NA,NA,NA,3,#D89F1C,#3386FF,10,0,1,40,0,2013.4000005722046,39,0,486.80000019073486,0,0,experiment,NA,NA,2,0.5,0.5,4,5,97,3,NA
fcp-trial,159,892195,0.0-106.0-0.0,voc_e2,12137,"[{""event"":""blur"",""trial"":0,""time"":0},{""event"":""focus"",""trial"":1,""time"":5725},{""event"":""fullscreenenter"",""trial"":1,""time"":5875}]",NA,NA,NA,NA,NA,6,#741CD8,#D8271C,0,10,0,40,0,1897.8000001907349,37,1,569.2999992370605,0,0,experiment,NA,NA,1,0.3,0.7,3,2,98,3,NA
fcp-trial,160,895642,0.0-107.0-0.0,voc_e2,12137,"[{""event"":""blur"",""trial"":0,""time"":0},{""event"":""focus"",""trial"":1,""time"":5725},{""event"":""fullscreenenter"",""trial"":1,""time"":5875}]",NA,NA,NA,NA,NA,2,#1CD855,#FA92F8,10,0,1,38,1,1434.8999996185303,37,1,507.4000005722046,10,1,experiment,NA,NA,0,0.9,0.1,0,1,99,3,NA
fcp-trial,161,899271,0.0-108.0-0.0,voc_e2,12137,"[{""event"":""blur"",""trial"":0,""time"":0},{""event"":""focus"",""trial"":1,""time"":5725},{""event"":""fullscreenenter"",""trial"":1,""time"":5875}]",NA,NA,NA,NA,NA,4,#741CD8,#D8271C,0,0,0,38,1,1634.5999994277954,39,0,487.69999980926514,0,1,experiment,NA,NA,1,0.3,0.7,3,2,100,3,NA
fcp-trial,162,902346,0.0-109.0-0.0,voc_e2,12137,"[{""event"":""blur"",""trial"":0,""time"":0},{""event"":""focus"",""trial"":1,""time"":5725},{""event"":""fullscreenenter"",""trial"":1,""time"":5875}]",NA,NA,NA,NA,NA,0,#741CD8,#D8271C,0,10,0,38,1,1061.6999998092651,39,0,507.79999923706055,10,1,experiment,NA,NA,1,0.3,0.7,3,2,101,3,NA
fcp-trial,163,905658,0.0-110.0-0.0,voc_e2,12137,"[{""event"":""blur"",""trial"":0,""time"":0},{""event"":""focus"",""trial"":1,""time"":5725},{""event"":""fullscreenenter"",""trial"":1,""time"":5875}]",NA,NA,NA,NA,NA,4,#D89F1C,#3386FF,10,0,1,40,0,1237.4000005722046,39,0,567.8000001907349,0,0,experiment,NA,NA,2,0.5,0.5,4,5,102,3,NA
fcp-trial,164,908676,0.0-111.0-0.0,voc_e2,12137,"[{""event"":""blur"",""trial"":0,""time"":0},{""event"":""focus"",""trial"":1,""time"":5725},{""event"":""fullscreenenter"",""trial"":1,""time"":5875}]",NA,NA,NA,NA,NA,5,#3386FF,#D89F1C,0,10,0,40,0,942.5999994277954,37,1,569.5,0,0,experiment,NA,NA,2,0.5,0.5,5,4,103,3,NA
fcp-trial,165,911676,0.0-112.0-0.0,voc_e2,12137,"[{""event"":""blur"",""trial"":0,""time"":0},{""event"":""focus"",""trial"":1,""time"":5725},{""event"":""fullscreenenter"",""trial"":1,""time"":5875}]",NA,NA,NA,NA,NA,1,#1CD855,#FA92F8,10,0,1,38,1,952.3000001907349,37,1,541.8000001907349,10,1,experiment,NA,NA,0,0.9,0.1,0,1,104,3,NA
fcp-trial,166,916327,0.0-113.0-0.0,voc_e2,12137,"[{""event"":""blur"",""trial"":0,""time"":0},{""event"":""focus"",""trial"":1,""time"":5725},{""event"":""fullscreenenter"",""trial"":1,""time"":5875}]",NA,NA,NA,NA,NA,2,#D89F1C,#3386FF,0,10,1,38,1,1753.2999992370605,39,0,1390.1999998092651,10,0,experiment,NA,NA,2,0.5,0.5,4,5,105,3,NA
audio-instructions,167,925177,0.0-114.0,voc_e2,12137,"[{""event"":""blur"",""trial"":0,""time"":0},{""event"":""focus"",""trial"":1,""time"":5725},{""event"":""fullscreenenter"",""trial"":1,""time"":5875}]",NA,4106,static/audio/pause.wav,NA,0,NA,NA,NA,NA,NA,NA,NA,NA,NA,NA,NA,NA,NA,NA,NA,NA,NA,NA,NA,NA,NA,NA,NA,NA,NA
fcp-trial,168,928917,0.0-115.0-0.0,voc_e2,12137,"[{""event"":""blur"",""trial"":0,""time"":0},{""event"":""focus"",""trial"":1,""time"":5725},{""event"":""fullscreenenter"",""trial"":1,""time"":5875}]",NA,NA,NA,NA,NA,6,#D8271C,#741CD8,10,0,1,40,0,1688.1999998092651,37,1,538.6000003814697,10,1,experiment,NA,NA,1,0.7,0.3,2,3,106,3,NA
fcp-trial,169,931760,0.0-116.0-0.0,voc_e2,12137,"[{""event"":""blur"",""trial"":0,""time"":0},{""event"":""focus"",""trial"":1,""time"":5725},{""event"":""fullscreenenter"",""trial"":1,""time"":5875}]",NA,NA,NA,NA,NA,5,#1CD855,#FA92F8,10,0,1,40,0,866,37,1,462,10,1,experiment,NA,NA,0,0.9,0.1,0,1,107,3,NA
fcp-trial,170,934788,0.0-117.0-0.0,voc_e2,12137,"[{""event"":""blur"",""trial"":0,""time"":0},{""event"":""focus"",""trial"":1,""time"":5725},{""event"":""fullscreenenter"",""trial"":1,""time"":5875}]",NA,NA,NA,NA,NA,0,#741CD8,#D8271C,0,0,0,38,1,1016.3999996185303,39,0,504.19999980926514,0,1,experiment,NA,NA,1,0.3,0.7,3,2,108,3,NA
fcp-trial,171,938339,0.0-118.0-0.0,voc_e2,12137,"[{""event"":""blur"",""trial"":0,""time"":0},{""event"":""focus"",""trial"":1,""time"":5725},{""event"":""fullscreenenter"",""trial"":1,""time"":5875}]",NA,NA,NA,NA,NA,2,#3386FF,#D89F1C,0,10,0,40,0,1549.3000001907349,37,1,492.1000003814697,0,0,experiment,NA,NA,2,0.5,0.5,5,4,109,3,NA
fcp-trial,172,941346,0.0-119.0-0.0,voc_e2,12137,"[{""event"":""blur"",""trial"":0,""time"":0},{""event"":""focus"",""trial"":1,""time"":5725},{""event"":""fullscreenenter"",""trial"":1,""time"":5875}]",NA,NA,NA,NA,NA,2,#1CD855,#FA92F8,10,0,1,38,1,1042.6000003814697,37,1,441.5,10,1,experiment,NA,NA,0,0.9,0.1,0,1,110,3,NA
fcp-trial,173,944501,0.0-120.0-0.0,voc_e2,12137,"[{""event"":""blur"",""trial"":0,""time"":0},{""event"":""focus"",""trial"":1,""time"":5725},{""event"":""fullscreenenter"",""trial"":1,""time"":5875}]",NA,NA,NA,NA,NA,0,#FA92F8,#1CD855,0,10,0,38,1,1140.8000001907349,39,0,502.69999980926514,10,1,experiment,NA,NA,0,0.1,0.9,1,0,111,3,NA
fcp-trial,174,947757,0.0-121.0-0.0,voc_e2,12137,"[{""event"":""blur"",""trial"":0,""time"":0},{""event"":""focus"",""trial"":1,""time"":5725},{""event"":""fullscreenenter"",""trial"":1,""time"":5875}]",NA,NA,NA,NA,NA,6,#D89F1C,#3386FF,0,10,1,40,0,1181.6000003814697,39,0,551.8999996185303,10,0,experiment,NA,NA,2,0.5,0.5,4,5,112,3,NA
fcp-trial,175,951206,0.0-122.0-0.0,voc_e2,12137,"[{""event"":""blur"",""trial"":0,""time"":0},{""event"":""focus"",""trial"":1,""time"":5725},{""event"":""fullscreenenter"",""trial"":1,""time"":5875}]",NA,NA,NA,NA,NA,3,#D8271C,#741CD8,0,10,1,40,0,1361.0999994277954,37,1,574.6999998092651,0,1,experiment,NA,NA,1,0.7,0.3,2,3,113,3,NA
fcp-trial,176,954242,0.0-123.0-0.0,voc_e2,12137,"[{""event"":""blur"",""trial"":0,""time"":0},{""event"":""focus"",""trial"":1,""time"":5725},{""event"":""fullscreenenter"",""trial"":1,""time"":5875}]",NA,NA,NA,NA,NA,3,#FA92F8,#1CD855,0,10,0,38,1,987.3999996185303,39,0,544,10,1,experiment,NA,NA,0,0.1,0.9,1,0,114,3,NA
fcp-trial,177,958008,0.0-124.0-0.0,voc_e2,12137,"[{""event"":""blur"",""trial"":0,""time"":0},{""event"":""focus"",""trial"":1,""time"":5725},{""event"":""fullscreenenter"",""trial"":1,""time"":5875}]",NA,NA,NA,NA,NA,0,#3386FF,#D89F1C,10,10,0,38,1,1658.3000001907349,37,1,598.4000005722046,10,0,experiment,NA,NA,2,0.5,0.5,5,4,115,3,NA
fcp-trial,178,961332,0.0-125.0-0.0,voc_e2,12137,"[{""event"":""blur"",""trial"":0,""time"":0},{""event"":""focus"",""trial"":1,""time"":5725},{""event"":""fullscreenenter"",""trial"":1,""time"":5875}]",NA,NA,NA,NA,NA,6,#1CD855,#FA92F8,0,0,1,40,0,1201.6999998092651,39,0,616.3999996185303,0,0,experiment,NA,NA,0,0.9,0.1,0,1,116,3,NA
fcp-trial,179,964424,0.0-126.0-0.0,voc_e2,12137,"[{""event"":""blur"",""trial"":0,""time"":0},{""event"":""focus"",""trial"":1,""time"":5725},{""event"":""fullscreenenter"",""trial"":1,""time"":5875}]",NA,NA,NA,NA,NA,5,#3386FF,#D89F1C,0,0,0,40,0,1080.3000001907349,37,1,502.5,0,0,experiment,NA,NA,2,0.5,0.5,5,4,117,3,NA
fcp-trial,180,967740,0.0-127.0-0.0,voc_e2,12137,"[{""event"":""blur"",""trial"":0,""time"":0},{""event"":""focus"",""trial"":1,""time"":5725},{""event"":""fullscreenenter"",""trial"":1,""time"":5875}]",NA,NA,NA,NA,NA,5,#D8271C,#741CD8,0,0,1,40,0,1144.4000005722046,39,0,666.1000003814697,0,0,experiment,NA,NA,1,0.7,0.3,2,3,118,3,NA
fcp-trial,181,970704,0.0-128.0-0.0,voc_e2,12137,"[{""event"":""blur"",""trial"":0,""time"":0},{""event"":""focus"",""trial"":1,""time"":5725},{""event"":""fullscreenenter"",""trial"":1,""time"":5875}]",NA,NA,NA,NA,NA,2,#D8271C,#741CD8,10,0,1,38,1,950.8000001907349,37,1,510,10,1,experiment,NA,NA,1,0.7,0.3,2,3,119,3,NA
fcp-trial,182,974278,0.0-129.0-0.0,voc_e2,12137,"[{""event"":""blur"",""trial"":0,""time"":0},{""event"":""focus"",""trial"":1,""time"":5725},{""event"":""fullscreenenter"",""trial"":1,""time"":5875}]",NA,NA,NA,NA,NA,1,#741CD8,#D8271C,0,0,0,38,1,1507.4000005722046,39,0,561.1999998092651,0,1,experiment,NA,NA,1,0.3,0.7,3,2,120,3,NA
fcp-trial,183,977214,0.0-130.0-0.0,voc_e2,12137,"[{""event"":""blur"",""trial"":0,""time"":0},{""event"":""focus"",""trial"":1,""time"":5725},{""event"":""fullscreenenter"",""trial"":1,""time"":5875}]",NA,NA,NA,NA,NA,1,#FA92F8,#1CD855,0,10,0,38,1,916.7999992370605,39,0,513,10,1,experiment,NA,NA,0,0.1,0.9,1,0,121,3,NA
fcp-trial,184,980459,0.0-131.0-0.0,voc_e2,12137,"[{""event"":""blur"",""trial"":0,""time"":0},{""event"":""focus"",""trial"":1,""time"":5725},{""event"":""fullscreenenter"",""trial"":1,""time"":5875}]",NA,NA,NA,NA,NA,1,#3386FF,#D89F1C,0,0,0,40,0,1219.4000005722046,37,1,519.6999998092651,0,0,experiment,NA,NA,2,0.5,0.5,5,4,122,3,NA
fcp-trial,185,983414,0.0-132.0-0.0,voc_e2,12137,"[{""event"":""blur"",""trial"":0,""time"":0},{""event"":""focus"",""trial"":1,""time"":5725},{""event"":""fullscreenenter"",""trial"":1,""time"":5875}]",NA,NA,NA,NA,NA,4,#3386FF,#D89F1C,0,0,0,40,0,928.5999994277954,37,1,521,0,0,experiment,NA,NA,2,0.5,0.5,5,4,123,3,NA
fcp-trial,186,986591,0.0-133.0-0.0,voc_e2,12137,"[{""event"":""blur"",""trial"":0,""time"":0},{""event"":""focus"",""trial"":1,""time"":5725},{""event"":""fullscreenenter"",""trial"":1,""time"":5875}]",NA,NA,NA,NA,NA,3,#D89F1C,#3386FF,0,0,1,40,0,1113.8999996185303,37,1,558.5,0,1,experiment,NA,NA,2,0.5,0.5,4,5,124,3,NA
fcp-trial,187,990334,0.0-134.0-0.0,voc_e2,12137,"[{""event"":""blur"",""trial"":0,""time"":0},{""event"":""focus"",""trial"":1,""time"":5725},{""event"":""fullscreenenter"",""trial"":1,""time"":5875}]",NA,NA,NA,NA,NA,4,#D8271C,#741CD8,0,10,1,40,0,1708.2000007629395,39,0,529.8000001907349,10,0,experiment,NA,NA,1,0.7,0.3,2,3,125,3,NA
fcp-trial,188,993657,0.0-135.0-0.0,voc_e2,12137,"[{""event"":""blur"",""trial"":0,""time"":0},{""event"":""focus"",""trial"":1,""time"":5725},{""event"":""fullscreenenter"",""trial"":1,""time"":5875}]",NA,NA,NA,NA,NA,4,#FA92F8,#1CD855,0,10,0,38,1,1399.8999996185303,39,0,418.70000076293945,10,1,experiment,NA,NA,0,0.1,0.9,1,0,126,3,NA
fcp-trial,189,996606,0.0-136.0-0.0,voc_e2,12137,"[{""event"":""blur"",""trial"":0,""time"":0},{""event"":""focus"",""trial"":1,""time"":5725},{""event"":""fullscreenenter"",""trial"":1,""time"":5875}]",NA,NA,NA,NA,NA,0,#FA92F8,#1CD855,0,10,0,38,1,933.6999998092651,39,0,507.1000003814697,10,1,experiment,NA,NA,0,0.1,0.9,1,0,127,3,NA
fcp-trial,190,999724,0.0-137.0-0.0,voc_e2,12137,"[{""event"":""blur"",""trial"":0,""time"":0},{""event"":""focus"",""trial"":1,""time"":5725},{""event"":""fullscreenenter"",""trial"":1,""time"":5875}]",NA,NA,NA,NA,NA,6,#741CD8,#D8271C,0,0,0,40,0,1113.8999996185303,37,1,498.30000019073486,0,0,experiment,NA,NA,1,0.3,0.7,3,2,128,3,NA
fcp-trial,191,1004012,0.0-138.0-0.0,voc_e2,12137,"[{""event"":""blur"",""trial"":0,""time"":0},{""event"":""focus"",""trial"":1,""time"":5725},{""event"":""fullscreenenter"",""trial"":1,""time"":5875}]",NA,NA,NA,NA,NA,2,#1CD855,#FA92F8,10,0,1,38,1,2263.5,37,1,506,10,1,experiment,NA,NA,0,0.9,0.1,0,1,129,3,NA
fcp-trial,192,1007502,0.0-139.0-0.0,voc_e2,12137,"[{""event"":""blur"",""trial"":0,""time"":0},{""event"":""focus"",""trial"":1,""time"":5725},{""event"":""fullscreenenter"",""trial"":1,""time"":5875}]",NA,NA,NA,NA,NA,2,#D8271C,#741CD8,10,10,1,38,1,1475.6000003814697,37,1,492.30000019073486,10,1,experiment,NA,NA,1,0.7,0.3,2,3,130,3,NA
fcp-trial,193,1010809,0.0-140.0-0.0,voc_e2,12137,"[{""event"":""blur"",""trial"":0,""time"":0},{""event"":""focus"",""trial"":1,""time"":5725},{""event"":""fullscreenenter"",""trial"":1,""time"":5875}]",NA,NA,NA,NA,NA,1,#3386FF,#D89F1C,0,10,0,38,1,1243.8000001907349,37,1,547.9000005722046,0,0,experiment,NA,NA,2,0.5,0.5,5,4,131,3,NA
fcp-trial,194,1013866,0.0-141.0-0.0,voc_e2,12137,"[{""event"":""blur"",""trial"":0,""time"":0},{""event"":""focus"",""trial"":1,""time"":5725},{""event"":""fullscreenenter"",""trial"":1,""time"":5875}]",NA,NA,NA,NA,NA,0,#D8271C,#741CD8,0,10,1,38,1,992.2000007629395,37,1,542,0,1,experiment,NA,NA,1,0.7,0.3,2,3,132,3,NA
fcp-trial,195,1017099,0.0-142.0-0.0,voc_e2,12137,"[{""event"":""blur"",""trial"":0,""time"":0},{""event"":""focus"",""trial"":1,""time"":5725},{""event"":""fullscreenenter"",""trial"":1,""time"":5875}]",NA,NA,NA,NA,NA,3,#D89F1C,#3386FF,10,0,1,40,0,1065.6999998092651,37,1,658,10,1,experiment,NA,NA,2,0.5,0.5,4,5,133,3,NA
fcp-trial,196,1020474,0.0-143.0-0.0,voc_e2,12137,"[{""event"":""blur"",""trial"":0,""time"":0},{""event"":""focus"",""trial"":1,""time"":5725},{""event"":""fullscreenenter"",""trial"":1,""time"":5875}]",NA,NA,NA,NA,NA,3,#FA92F8,#1CD855,0,10,0,40,0,1239.3000001907349,37,1,615.3000001907349,0,0,experiment,NA,NA,0,0.1,0.9,1,0,134,3,NA
fcp-trial,197,1023814,0.0-144.0-0.0,voc_e2,12137,"[{""event"":""blur"",""trial"":0,""time"":0},{""event"":""focus"",""trial"":1,""time"":5725},{""event"":""fullscreenenter"",""trial"":1,""time"":5875}]",NA,NA,NA,NA,NA,1,#741CD8,#D8271C,0,10,0,38,1,1315.5,39,0,507.5,10,1,experiment,NA,NA,1,0.3,0.7,3,2,135,3,NA
fcp-trial,198,1027197,0.0-145.0-0.0,voc_e2,12137,"[{""event"":""blur"",""trial"":0,""time"":0},{""event"":""focus"",""trial"":1,""time"":5725},{""event"":""fullscreenenter"",""trial"":1,""time"":5875}]",NA,NA,NA,NA,NA,1,#FA92F8,#1CD855,0,10,0,38,1,1344.6999998092651,39,0,522,10,1,experiment,NA,NA,0,0.1,0.9,1,0,136,4,NA
fcp-trial,199,1030635,0.0-146.0-0.0,voc_e2,12137,"[{""event"":""blur"",""trial"":0,""time"":0},{""event"":""focus"",""trial"":1,""time"":5725},{""event"":""fullscreenenter"",""trial"":1,""time"":5875}]",NA,NA,NA,NA,NA,6,#FA92F8,#1CD855,0,10,0,38,1,1363.1000003814697,39,0,558.1999998092651,10,1,experiment,NA,NA,0,0.1,0.9,1,0,137,4,NA
fcp-trial,200,1034415,0.0-147.0-0.0,voc_e2,12137,"[{""event"":""blur"",""trial"":0,""time"":0},{""event"":""focus"",""trial"":1,""time"":5725},{""event"":""fullscreenenter"",""trial"":1,""time"":5875}]",NA,NA,NA,NA,NA,2,#D89F1C,#3386FF,0,0,1,40,0,1670.1000003814697,37,1,603.1999998092651,0,1,experiment,NA,NA,2,0.5,0.5,4,5,138,4,NA
fcp-trial,201,1037467,0.0-148.0-0.0,voc_e2,12137,"[{""event"":""blur"",""trial"":0,""time"":0},{""event"":""focus"",""trial"":1,""time"":5725},{""event"":""fullscreenenter"",""trial"":1,""time"":5875}]",NA,NA,NA,NA,NA,4,#3386FF,#D89F1C,10,10,0,40,0,1001,39,0,546.6999998092651,10,1,experiment,NA,NA,2,0.5,0.5,5,4,139,4,NA
fcp-trial,202,1040916,0.0-149.0-0.0,voc_e2,12137,"[{""event"":""blur"",""trial"":0,""time"":0},{""event"":""focus"",""trial"":1,""time"":5725},{""event"":""fullscreenenter"",""trial"":1,""time"":5875}]",NA,NA,NA,NA,NA,3,#741CD8,#D8271C,0,10,0,38,1,1410.2000007629395,39,0,522.3999996185303,10,1,experiment,NA,NA,1,0.3,0.7,3,2,140,4,NA
fcp-trial,203,1044232,0.0-150.0-0.0,voc_e2,12137,"[{""event"":""blur"",""trial"":0,""time"":0},{""event"":""focus"",""trial"":1,""time"":5725},{""event"":""fullscreenenter"",""trial"":1,""time"":5875}]",NA,NA,NA,NA,NA,0,#D89F1C,#3386FF,0,0,1,38,1,1256.9000005722046,37,1,554.6999998092651,0,1,experiment,NA,NA,2,0.5,0.5,4,5,141,4,NA
fcp-trial,204,1047525,0.0-151.0-0.0,voc_e2,12137,"[{""event"":""blur"",""trial"":0,""time"":0},{""event"":""focus"",""trial"":1,""time"":5725},{""event"":""fullscreenenter"",""trial"":1,""time"":5875}]",NA,NA,NA,NA,NA,5,#1CD855,#FA92F8,10,0,1,40,0,1201.8999996185303,37,1,585.2000007629395,10,1,experiment,NA,NA,0,0.9,0.1,0,1,142,4,NA
fcp-trial,205,1050400,0.0-152.0-0.0,voc_e2,12137,"[{""event"":""blur"",""trial"":0,""time"":0},{""event"":""focus"",""trial"":1,""time"":5725},{""event"":""fullscreenenter"",""trial"":1,""time"":5875}]",NA,NA,NA,NA,NA,4,#1CD855,#FA92F8,10,0,1,40,0,850.1000003814697,39,0,517,0,0,experiment,NA,NA,0,0.9,0.1,0,1,143,4,NA
fcp-trial,206,1053640,0.0-153.0-0.0,voc_e2,12137,"[{""event"":""blur"",""trial"":0,""time"":0},{""event"":""focus"",""trial"":1,""time"":5725},{""event"":""fullscreenenter"",""trial"":1,""time"":5875}]",NA,NA,NA,NA,NA,4,#D8271C,#741CD8,10,0,1,40,0,1188.2999992370605,39,0,538.5,0,0,experiment,NA,NA,1,0.7,0.3,2,3,144,4,NA
fcp-trial,207,1056546,0.0-154.0-0.0,voc_e2,12137,"[{""event"":""blur"",""trial"":0,""time"":0},{""event"":""focus"",""trial"":1,""time"":5725},{""event"":""fullscreenenter"",""trial"":1,""time"":5875}]",NA,NA,NA,NA,NA,6,#3386FF,#D89F1C,10,0,0,40,0,865.8000001907349,39,0,532.3000001907349,0,1,experiment,NA,NA,2,0.5,0.5,5,4,145,4,NA
fcp-trial,208,1059492,0.0-155.0-0.0,voc_e2,12137,"[{""event"":""blur"",""trial"":0,""time"":0},{""event"":""focus"",""trial"":1,""time"":5725},{""event"":""fullscreenenter"",""trial"":1,""time"":5875}]",NA,NA,NA,NA,NA,5,#D89F1C,#3386FF,0,0,1,40,0,927.3000001907349,39,0,511.8999996185303,0,0,experiment,NA,NA,2,0.5,0.5,4,5,146,4,NA
fcp-trial,209,1062869,0.0-156.0-0.0,voc_e2,12137,"[{""event"":""blur"",""trial"":0,""time"":0},{""event"":""focus"",""trial"":1,""time"":5725},{""event"":""fullscreenenter"",""trial"":1,""time"":5875}]",NA,NA,NA,NA,NA,5,#D8271C,#741CD8,10,0,1,40,0,1319.6000003814697,39,0,544.1000003814697,0,0,experiment,NA,NA,1,0.7,0.3,2,3,147,4,NA
fcp-trial,210,1065819,0.0-157.0-0.0,voc_e2,12137,"[{""event"":""blur"",""trial"":0,""time"":0},{""event"":""focus"",""trial"":1,""time"":5725},{""event"":""fullscreenenter"",""trial"":1,""time"":5875}]",NA,NA,NA,NA,NA,2,#1CD855,#FA92F8,10,0,1,38,1,948.8000001907349,37,1,488.3999996185303,10,1,experiment,NA,NA,0,0.9,0.1,0,1,148,4,NA
fcp-trial,211,1069023,0.0-158.0-0.0,voc_e2,12137,"[{""event"":""blur"",""trial"":0,""time"":0},{""event"":""focus"",""trial"":1,""time"":5725},{""event"":""fullscreenenter"",""trial"":1,""time"":5875}]",NA,NA,NA,NA,NA,6,#741CD8,#D8271C,10,10,0,40,0,1124,39,0,566.0999994277954,10,1,experiment,NA,NA,1,0.3,0.7,3,2,149,4,NA
fcp-trial,212,1072274,0.0-159.0-0.0,voc_e2,12137,"[{""event"":""blur"",""trial"":0,""time"":0},{""event"":""focus"",""trial"":1,""time"":5725},{""event"":""fullscreenenter"",""trial"":1,""time"":5875}]",NA,NA,NA,NA,NA,6,#3386FF,#D89F1C,10,10,0,40,0,1178.8999996185303,39,0,556,10,1,experiment,NA,NA,2,0.5,0.5,5,4,150,4,NA
fcp-trial,213,1075493,0.0-160.0-0.0,voc_e2,12137,"[{""event"":""blur"",""trial"":0,""time"":0},{""event"":""focus"",""trial"":1,""time"":5725},{""event"":""fullscreenenter"",""trial"":1,""time"":5875}]",NA,NA,NA,NA,NA,4,#FA92F8,#1CD855,0,10,0,38,1,1219.8999996185303,39,0,481.6000003814697,10,1,experiment,NA,NA,0,0.1,0.9,1,0,151,4,NA
fcp-trial,214,1078971,0.0-161.0-0.0,voc_e2,12137,"[{""event"":""blur"",""trial"":0,""time"":0},{""event"":""focus"",""trial"":1,""time"":5725},{""event"":""fullscreenenter"",""trial"":1,""time"":5875}]",NA,NA,NA,NA,NA,3,#D8271C,#741CD8,10,10,1,40,0,1383.6000003814697,39,0,573.1000003814697,10,0,experiment,NA,NA,1,0.7,0.3,2,3,152,4,NA
fcp-trial,215,1082609,0.0-162.0-0.0,voc_e2,12137,"[{""event"":""blur"",""trial"":0,""time"":0},{""event"":""focus"",""trial"":1,""time"":5725},{""event"":""fullscreenenter"",""trial"":1,""time"":5875}]",NA,NA,NA,NA,NA,6,#FA92F8,#1CD855,0,10,0,40,0,1544.8000001907349,37,1,578.6000003814697,0,0,experiment,NA,NA,0,0.1,0.9,1,0,153,4,NA
fcp-trial,216,1086317,0.0-163.0-0.0,voc_e2,12137,"[{""event"":""blur"",""trial"":0,""time"":0},{""event"":""focus"",""trial"":1,""time"":5725},{""event"":""fullscreenenter"",""trial"":1,""time"":5875}]",NA,NA,NA,NA,NA,4,#741CD8,#D8271C,0,10,0,40,0,1505.1000003814697,37,1,679,0,0,experiment,NA,NA,1,0.3,0.7,3,2,154,4,NA
fcp-trial,217,1089797,0.0-164.0-0.0,voc_e2,12137,"[{""event"":""blur"",""trial"":0,""time"":0},{""event"":""focus"",""trial"":1,""time"":5725},{""event"":""fullscreenenter"",""trial"":1,""time"":5875}]",NA,NA,NA,NA,NA,1,#3386FF,#D89F1C,0,0,0,40,0,1421.6999998092651,37,1,542.8999996185303,0,0,experiment,NA,NA,2,0.5,0.5,5,4,155,4,NA
fcp-trial,218,1092813,0.0-165.0-0.0,voc_e2,12137,"[{""event"":""blur"",""trial"":0,""time"":0},{""event"":""focus"",""trial"":1,""time"":5725},{""event"":""fullscreenenter"",""trial"":1,""time"":5875}]",NA,NA,NA,NA,NA,3,#3386FF,#D89F1C,10,0,0,40,0,955.8000001907349,37,1,554.9000005722046,10,0,experiment,NA,NA,2,0.5,0.5,5,4,156,4,NA
fcp-trial,219,1095928,0.0-166.0-0.0,voc_e2,12137,"[{""event"":""blur"",""trial"":0,""time"":0},{""event"":""focus"",""trial"":1,""time"":5725},{""event"":""fullscreenenter"",""trial"":1,""time"":5875}]",NA,NA,NA,NA,NA,2,#741CD8,#D8271C,10,0,0,38,1,1107.5999994277954,39,0,493.5,0,1,experiment,NA,NA,1,0.3,0.7,3,2,157,4,NA
fcp-trial,220,1098828,0.0-167.0-0.0,voc_e2,12137,"[{""event"":""blur"",""trial"":0,""time"":0},{""event"":""focus"",""trial"":1,""time"":5725},{""event"":""fullscreenenter"",""trial"":1,""time"":5875}]",NA,NA,NA,NA,NA,1,#FA92F8,#1CD855,0,10,0,38,1,926.3000001907349,39,0,461.6000003814697,10,1,experiment,NA,NA,0,0.1,0.9,1,0,158,4,NA
fcp-trial,221,1101702,0.0-168.0-0.0,voc_e2,12137,"[{""event"":""blur"",""trial"":0,""time"":0},{""event"":""focus"",""trial"":1,""time"":5725},{""event"":""fullscreenenter"",""trial"":1,""time"":5875}]",NA,NA,NA,NA,NA,0,#FA92F8,#1CD855,10,10,0,38,1,828.1000003814697,39,0,532,10,1,experiment,NA,NA,0,0.1,0.9,1,0,159,4,NA
fcp-trial,222,1105628,0.0-169.0-0.0,voc_e2,12137,"[{""event"":""blur"",""trial"":0,""time"":0},{""event"":""focus"",""trial"":1,""time"":5725},{""event"":""fullscreenenter"",""trial"":1,""time"":5875}]",NA,NA,NA,NA,NA,2,#D89F1C,#3386FF,10,0,1,40,0,1921.1000003814697,39,0,487.79999923706055,0,0,experiment,NA,NA,2,0.5,0.5,4,5,160,4,NA
fcp-trial,223,1109427,0.0-170.0-0.0,voc_e2,12137,"[{""event"":""blur"",""trial"":0,""time"":0},{""event"":""focus"",""trial"":1,""time"":5725},{""event"":""fullscreenenter"",""trial"":1,""time"":5875}]",NA,NA,NA,NA,NA,5,#741CD8,#D8271C,0,10,0,40,0,1688.4000005722046,39,0,594.6999998092651,10,1,experiment,NA,NA,1,0.3,0.7,3,2,161,4,NA
fcp-trial,224,1113198,0.0-171.0-0.0,voc_e2,12137,"[{""event"":""blur"",""trial"":0,""time"":0},{""event"":""focus"",""trial"":1,""time"":5725},{""event"":""fullscreenenter"",""trial"":1,""time"":5875}]",NA,NA,NA,NA,NA,0,#D89F1C,#3386FF,10,0,1,38,1,1658.3000001907349,37,1,600.8000001907349,10,1,experiment,NA,NA,2,0.5,0.5,4,5,162,4,NA
fcp-trial,225,1116624,0.0-172.0-0.0,voc_e2,12137,"[{""event"":""blur"",""trial"":0,""time"":0},{""event"":""focus"",""trial"":1,""time"":5725},{""event"":""fullscreenenter"",""trial"":1,""time"":5875}]",NA,NA,NA,NA,NA,3,#1CD855,#FA92F8,10,0,1,38,1,1354,37,1,554,10,1,experiment,NA,NA,0,0.9,0.1,0,1,163,4,NA
fcp-trial,226,1120836,0.0-173.0-0.0,voc_e2,12137,"[{""event"":""blur"",""trial"":0,""time"":0},{""event"":""focus"",""trial"":1,""time"":5725},{""event"":""fullscreenenter"",""trial"":1,""time"":5875}]",NA,NA,NA,NA,NA,0,#D8271C,#741CD8,10,0,1,38,1,2079.9000005722046,37,1,611.1000003814697,10,1,experiment,NA,NA,1,0.7,0.3,2,3,164,4,NA
fcp-trial,227,1124347,0.0-174.0-0.0,voc_e2,12137,"[{""event"":""blur"",""trial"":0,""time"":0},{""event"":""focus"",""trial"":1,""time"":5725},{""event"":""fullscreenenter"",""trial"":1,""time"":5875}]",NA,NA,NA,NA,NA,1,#D8271C,#741CD8,10,10,1,38,1,1405.1000003814697,37,1,588.1999998092651,10,1,experiment,NA,NA,1,0.7,0.3,2,3,165,4,NA
fcp-trial,228,1127619,0.0-175.0-0.0,voc_e2,12137,"[{""event"":""blur"",""trial"":0,""time"":0},{""event"":""focus"",""trial"":1,""time"":5725},{""event"":""fullscreenenter"",""trial"":1,""time"":5875}]",NA,NA,NA,NA,NA,5,#3386FF,#D89F1C,0,10,0,40,0,1176.8000001907349,39,0,582.5,10,1,experiment,NA,NA,2,0.5,0.5,5,4,166,4,NA
fcp-trial,229,1130944,0.0-176.0-0.0,voc_e2,12137,"[{""event"":""blur"",""trial"":0,""time"":0},{""event"":""focus"",""trial"":1,""time"":5725},{""event"":""fullscreenenter"",""trial"":1,""time"":5875}]",NA,NA,NA,NA,NA,5,#1CD855,#FA92F8,10,0,1,38,1,1290.3000001907349,37,1,516.7000007629395,10,1,experiment,NA,NA,0,0.9,0.1,0,1,167,4,NA
fcp-trial,230,1133972,0.0-177.0-0.0,voc_e2,12137,"[{""event"":""blur"",""trial"":0,""time"":0},{""event"":""focus"",""trial"":1,""time"":5725},{""event"":""fullscreenenter"",""trial"":1,""time"":5875}]",NA,NA,NA,NA,NA,4,#3386FF,#D89F1C,10,0,0,40,0,955.6999998092651,37,1,555,10,0,experiment,NA,NA,2,0.5,0.5,5,4,168,4,NA
fcp-trial,231,1137272,0.0-178.0-0.0,voc_e2,12137,"[{""event"":""blur"",""trial"":0,""time"":0},{""event"":""focus"",""trial"":1,""time"":5725},{""event"":""fullscreenenter"",""trial"":1,""time"":5875}]",NA,NA,NA,NA,NA,1,#3386FF,#D89F1C,0,0,0,40,0,1191.5999994277954,37,1,591.6000003814697,0,0,experiment,NA,NA,2,0.5,0.5,5,4,169,4,NA
fcp-trial,232,1140539,0.0-179.0-0.0,voc_e2,12137,"[{""event"":""blur"",""trial"":0,""time"":0},{""event"":""focus"",""trial"":1,""time"":5725},{""event"":""fullscreenenter"",""trial"":1,""time"":5875}]",NA,NA,NA,NA,NA,3,#FA92F8,#1CD855,0,10,0,38,1,1266.6999998092651,39,0,488.70000076293945,10,1,experiment,NA,NA,0,0.1,0.9,1,0,170,4,NA
fcp-trial,233,1143687,0.0-180.0-0.0,voc_e2,12137,"[{""event"":""blur"",""trial"":0,""time"":0},{""event"":""focus"",""trial"":1,""time"":5725},{""event"":""fullscreenenter"",""trial"":1,""time"":5875}]",NA,NA,NA,NA,NA,5,#D8271C,#741CD8,0,0,1,40,0,1072.1000003814697,39,0,556,0,0,experiment,NA,NA,1,0.7,0.3,2,3,171,4,NA
fcp-trial,234,1147927,0.0-181.0-0.0,voc_e2,12137,"[{""event"":""blur"",""trial"":0,""time"":0},{""event"":""focus"",""trial"":1,""time"":5725},{""event"":""fullscreenenter"",""trial"":1,""time"":5875}]",NA,NA,NA,NA,NA,3,#3386FF,#D89F1C,0,10,0,40,0,2212.199999809265,37,1,508.69999980926514,0,0,experiment,NA,NA,2,0.5,0.5,5,4,172,4,NA
fcp-trial,235,1152154,0.0-182.0-0.0,voc_e2,12137,"[{""event"":""blur"",""trial"":0,""time"":0},{""event"":""focus"",""trial"":1,""time"":5725},{""event"":""fullscreenenter"",""trial"":1,""time"":5875}]",NA,NA,NA,NA,NA,0,#D8271C,#741CD8,0,0,1,38,1,1686.9000005722046,37,1,1022.3999996185304,0,1,experiment,NA,NA,1,0.7,0.3,2,3,173,4,NA
fcp-trial,236,1156242,0.0-183.0-0.0,voc_e2,12137,"[{""event"":""blur"",""trial"":0,""time"":0},{""event"":""focus"",""trial"":1,""time"":5725},{""event"":""fullscreenenter"",""trial"":1,""time"":5875}]",NA,NA,NA,NA,NA,2,#D89F1C,#3386FF,10,0,1,40,0,2035.3000001907349,37,1,537.3000001907349,10,1,experiment,NA,NA,2,0.5,0.5,4,5,174,4,NA
fcp-trial,237,1159657,0.0-184.0-0.0,voc_e2,12137,"[{""event"":""blur"",""trial"":0,""time"":0},{""event"":""focus"",""trial"":1,""time"":5725},{""event"":""fullscreenenter"",""trial"":1,""time"":5875}]",NA,NA,NA,NA,NA,6,#1CD855,#FA92F8,10,0,1,40,0,1280.3999996185303,39,0,616.3999996185303,0,0,experiment,NA,NA,0,0.9,0.1,0,1,175,4,NA
fcp-trial,238,1162845,0.0-185.0-0.0,voc_e2,12137,"[{""event"":""blur"",""trial"":0,""time"":0},{""event"":""focus"",""trial"":1,""time"":5725},{""event"":""fullscreenenter"",""trial"":1,""time"":5875}]",NA,NA,NA,NA,NA,6,#D8271C,#741CD8,10,10,1,40,0,1072,39,0,601.6000003814697,10,0,experiment,NA,NA,1,0.7,0.3,2,3,176,4,NA
fcp-trial,239,1165964,0.0-186.0-0.0,voc_e2,12137,"[{""event"":""blur"",""trial"":0,""time"":0},{""event"":""focus"",""trial"":1,""time"":5725},{""event"":""fullscreenenter"",""trial"":1,""time"":5875}]",NA,NA,NA,NA,NA,4,#3386FF,#D89F1C,10,0,0,40,0,998.3999996185303,39,0,605.1000003814697,0,1,experiment,NA,NA,2,0.5,0.5,5,4,177,4,NA
fcp-trial,240,1168797,0.0-187.0-0.0,voc_e2,12137,"[{""event"":""blur"",""trial"":0,""time"":0},{""event"":""focus"",""trial"":1,""time"":5725},{""event"":""fullscreenenter"",""trial"":1,""time"":5875}]",NA,NA,NA,NA,NA,5,#3386FF,#D89F1C,10,10,0,40,0,726.3000001907349,39,0,587.0999994277954,10,1,experiment,NA,NA,2,0.5,0.5,5,4,178,4,NA
fcp-trial,241,1171900,0.0-188.0-0.0,voc_e2,12137,"[{""event"":""blur"",""trial"":0,""time"":0},{""event"":""focus"",""trial"":1,""time"":5725},{""event"":""fullscreenenter"",""trial"":1,""time"":5875}]",NA,NA,NA,NA,NA,2,#D8271C,#741CD8,10,0,1,38,1,996.8000001907349,37,1,586.7000007629395,10,1,experiment,NA,NA,1,0.7,0.3,2,3,179,4,NA
fcp-trial,242,1174755,0.0-189.0-0.0,voc_e2,12137,"[{""event"":""blur"",""trial"":0,""time"":0},{""event"":""focus"",""trial"":1,""time"":5725},{""event"":""fullscreenenter"",""trial"":1,""time"":5875}]",NA,NA,NA,NA,NA,1,#1CD855,#FA92F8,10,0,1,38,1,766.5,37,1,572.8999996185303,10,1,experiment,NA,NA,0,0.9,0.1,0,1,180,4,NA
fcp-trial,243,1177932,0.0-190.0-0.0,voc_e2,12137,"[{""event"":""blur"",""trial"":0,""time"":0},{""event"":""focus"",""trial"":1,""time"":5725},{""event"":""fullscreenenter"",""trial"":1,""time"":5875}]",NA,NA,NA,NA,NA,1,#D8271C,#741CD8,10,0,1,38,1,1104.6000003814697,37,1,550.5999994277954,10,1,experiment,NA,NA,1,0.7,0.3,2,3,181,5,NA
fcp-trial,244,1181022,0.0-191.0-0.0,voc_e2,12137,"[{""event"":""blur"",""trial"":0,""time"":0},{""event"":""focus"",""trial"":1,""time"":5725},{""event"":""fullscreenenter"",""trial"":1,""time"":5875}]",NA,NA,NA,NA,NA,3,#741CD8,#D8271C,10,0,0,38,1,1098.4000005722046,39,0,476.4000005722046,0,1,experiment,NA,NA,1,0.3,0.7,3,2,182,5,NA
fcp-trial,245,1184130,0.0-192.0-0.0,voc_e2,12137,"[{""event"":""blur"",""trial"":0,""time"":0},{""event"":""focus"",""trial"":1,""time"":5725},{""event"":""fullscreenenter"",""trial"":1,""time"":5875}]",NA,NA,NA,NA,NA,6,#D89F1C,#3386FF,10,0,1,40,0,1025.8000001907349,37,1,563.3999996185303,10,1,experiment,NA,NA,2,0.5,0.5,4,5,183,5,NA
fcp-trial,246,1187265,0.0-193.0-0.0,voc_e2,12137,"[{""event"":""blur"",""trial"":0,""time"":0},{""event"":""focus"",""trial"":1,""time"":5725},{""event"":""fullscreenenter"",""trial"":1,""time"":5875}]",NA,NA,NA,NA,NA,0,#1CD855,#FA92F8,10,0,1,38,1,1045.1000003814697,37,1,573.2000007629395,10,1,experiment,NA,NA,0,0.9,0.1,0,1,184,5,NA
fcp-trial,247,1191365,0.0-194.0-0.0,voc_e2,12137,"[{""event"":""blur"",""trial"":0,""time"":0},{""event"":""focus"",""trial"":1,""time"":5725},{""event"":""fullscreenenter"",""trial"":1,""time"":5875}]",NA,NA,NA,NA,NA,0,#D89F1C,#3386FF,0,0,1,38,1,1540.5,39,0,1039,0,0,experiment,NA,NA,2,0.5,0.5,4,5,185,5,NA
fcp-trial,248,1195101,0.0-195.0-0.0,voc_e2,12137,"[{""event"":""blur"",""trial"":0,""time"":0},{""event"":""focus"",""trial"":1,""time"":5725},{""event"":""fullscreenenter"",""trial"":1,""time"":5875}]",NA,NA,NA,NA,NA,2,#1CD855,#FA92F8,10,0,1,38,1,1730.3000001907349,37,1,487.3999996185303,10,1,experiment,NA,NA,0,0.9,0.1,0,1,186,5,NA
fcp-trial,249,1198320,0.0-196.0-0.0,voc_e2,12137,"[{""event"":""blur"",""trial"":0,""time"":0},{""event"":""focus"",""trial"":1,""time"":5725},{""event"":""fullscreenenter"",""trial"":1,""time"":5875}]",NA,NA,NA,NA,NA,4,#741CD8,#D8271C,0,10,0,38,1,1214.8999996185303,39,0,491.0999994277954,10,1,experiment,NA,NA,1,0.3,0.7,3,2,187,5,NA
fcp-trial,250,1201694,0.0-197.0-0.0,voc_e2,12137,"[{""event"":""blur"",""trial"":0,""time"":0},{""event"":""focus"",""trial"":1,""time"":5725},{""event"":""fullscreenenter"",""trial"":1,""time"":5875}]",NA,NA,NA,NA,NA,5,#1CD855,#FA92F8,0,0,1,38,1,1364.7000007629395,37,1,491.19999980926514,0,1,experiment,NA,NA,0,0.9,0.1,0,1,188,5,NA
fcp-trial,251,1204551,0.0-198.0-0.0,voc_e2,12137,"[{""event"":""blur"",""trial"":0,""time"":0},{""event"":""focus"",""trial"":1,""time"":5725},{""event"":""fullscreenenter"",""trial"":1,""time"":5875}]",NA,NA,NA,NA,NA,4,#FA92F8,#1CD855,0,10,0,38,1,851.3000001907349,39,0,488.69999980926514,10,1,experiment,NA,NA,0,0.1,0.9,1,0,189,5,NA
fcp-trial,252,1207525,0.0-199.0-0.0,voc_e2,12137,"[{""event"":""blur"",""trial"":0,""time"":0},{""event"":""focus"",""trial"":1,""time"":5725},{""event"":""fullscreenenter"",""trial"":1,""time"":5875}]",NA,NA,NA,NA,NA,3,#1CD855,#FA92F8,10,0,1,38,1,923.1999998092651,37,1,541.3000001907349,10,1,experiment,NA,NA,0,0.9,0.1,0,1,190,5,NA
fcp-trial,253,1211071,0.0-200.0-0.0,voc_e2,12137,"[{""event"":""blur"",""trial"":0,""time"":0},{""event"":""focus"",""trial"":1,""time"":5725},{""event"":""fullscreenenter"",""trial"":1,""time"":5875}]",NA,NA,NA,NA,NA,3,#D8271C,#741CD8,10,0,1,40,0,1500,39,0,528.1000003814697,0,0,experiment,NA,NA,1,0.7,0.3,2,3,191,5,NA
fcp-trial,254,1214113,0.0-201.0-0.0,voc_e2,12137,"[{""event"":""blur"",""trial"":0,""time"":0},{""event"":""focus"",""trial"":1,""time"":5725},{""event"":""fullscreenenter"",""trial"":1,""time"":5875}]",NA,NA,NA,NA,NA,4,#D8271C,#741CD8,10,10,1,40,0,1008.1999998092651,39,0,516.9000005722046,10,0,experiment,NA,NA,1,0.7,0.3,2,3,192,5,NA
fcp-trial,255,1216864,0.0-202.0-0.0,voc_e2,12137,"[{""event"":""blur"",""trial"":0,""time"":0},{""event"":""focus"",""trial"":1,""time"":5725},{""event"":""fullscreenenter"",""trial"":1,""time"":5875}]",NA,NA,NA,NA,NA,6,#741CD8,#D8271C,0,0,0,40,0,782.4000005722046,39,0,450.20000076293945,0,1,experiment,NA,NA,1,0.3,0.7,3,2,193,5,NA
fcp-trial,256,1220076,0.0-203.0-0.0,voc_e2,12137,"[{""event"":""blur"",""trial"":0,""time"":0},{""event"":""focus"",""trial"":1,""time"":5725},{""event"":""fullscreenenter"",""trial"":1,""time"":5875}]",NA,NA,NA,NA,NA,2,#3386FF,#D89F1C,0,10,0,40,0,1126.8000001907349,39,0,567.5999994277954,10,1,experiment,NA,NA,2,0.5,0.5,5,4,194,5,NA
fcp-trial,257,1223133,0.0-204.0-0.0,voc_e2,12137,"[{""event"":""blur"",""trial"":0,""time"":0},{""event"":""focus"",""trial"":1,""time"":5725},{""event"":""fullscreenenter"",""trial"":1,""time"":5875}]",NA,NA,NA,NA,NA,5,#1CD855,#FA92F8,10,0,1,38,1,1021.5,37,1,523.6000003814697,10,1,experiment,NA,NA,0,0.9,0.1,0,1,195,5,NA
fcp-trial,258,1226679,0.0-205.0-0.0,voc_e2,12137,"[{""event"":""blur"",""trial"":0,""time"":0},{""event"":""focus"",""trial"":1,""time"":5725},{""event"":""fullscreenenter"",""trial"":1,""time"":5875}]",NA,NA,NA,NA,NA,0,#D89F1C,#3386FF,10,0,1,38,1,1233.3000001907349,37,1,791.3999996185303,10,1,experiment,NA,NA,2,0.5,0.5,4,5,196,5,NA
fcp-trial,259,1230244,0.0-206.0-0.0,voc_e2,12137,"[{""event"":""blur"",""trial"":0,""time"":0},{""event"":""focus"",""trial"":1,""time"":5725},{""event"":""fullscreenenter"",""trial"":1,""time"":5875}]",NA,NA,NA,NA,NA,2,#741CD8,#D8271C,0,10,0,38,1,1506.3999996185303,39,0,541.7000007629395,10,1,experiment,NA,NA,1,0.3,0.7,3,2,197,5,NA
fcp-trial,260,1233653,0.0-207.0-0.0,voc_e2,12137,"[{""event"":""blur"",""trial"":0,""time"":0},{""event"":""focus"",""trial"":1,""time"":5725},{""event"":""fullscreenenter"",""trial"":1,""time"":5875}]",NA,NA,NA,NA,NA,0,#741CD8,#D8271C,0,10,0,38,1,1138.8000001907349,39,0,752.2000007629395,10,1,experiment,NA,NA,1,0.3,0.7,3,2,198,5,NA
fcp-trial,261,1237138,0.0-208.0-0.0,voc_e2,12137,"[{""event"":""blur"",""trial"":0,""time"":0},{""event"":""focus"",""trial"":1,""time"":5725},{""event"":""fullscreenenter"",""trial"":1,""time"":5875}]",NA,NA,NA,NA,NA,3,#3386FF,#D89F1C,10,10,0,40,0,1354.8000001907349,39,0,609,10,1,experiment,NA,NA,2,0.5,0.5,5,4,199,5,NA
fcp-trial,262,1240653,0.0-209.0-0.0,voc_e2,12137,"[{""event"":""blur"",""trial"":0,""time"":0},{""event"":""focus"",""trial"":1,""time"":5725},{""event"":""fullscreenenter"",""trial"":1,""time"":5875}]",NA,NA,NA,NA,NA,6,#FA92F8,#1CD855,0,10,0,38,1,1401.3999996185303,39,0,591.0999994277954,10,1,experiment,NA,NA,0,0.1,0.9,1,0,200,5,NA
fcp-trial,263,1243651,0.0-210.0-0.0,voc_e2,12137,"[{""event"":""blur"",""trial"":0,""time"":0},{""event"":""focus"",""trial"":1,""time"":5725},{""event"":""fullscreenenter"",""trial"":1,""time"":5875}]",NA,NA,NA,NA,NA,4,#1CD855,#FA92F8,10,0,1,38,1,957.1999998092651,37,1,520.8000001907349,10,1,experiment,NA,NA,0,0.9,0.1,0,1,201,5,NA
fcp-trial,264,1246803,0.0-211.0-0.0,voc_e2,12137,"[{""event"":""blur"",""trial"":0,""time"":0},{""event"":""focus"",""trial"":1,""time"":5725},{""event"":""fullscreenenter"",""trial"":1,""time"":5875}]",NA,NA,NA,NA,NA,5,#D89F1C,#3386FF,0,10,1,40,0,1083.6999998092651,39,0,550.8999996185303,10,0,experiment,NA,NA,2,0.5,0.5,4,5,202,5,NA
fcp-trial,265,1250384,0.0-212.0-0.0,voc_e2,12137,"[{""event"":""blur"",""trial"":0,""time"":0},{""event"":""focus"",""trial"":1,""time"":5725},{""event"":""fullscreenenter"",""trial"":1,""time"":5875}]",NA,NA,NA,NA,NA,5,#741CD8,#D8271C,0,10,0,40,0,1478.0999994277954,39,0,588.1999998092651,10,1,experiment,NA,NA,1,0.3,0.7,3,2,203,5,NA
fcp-trial,266,1253122,0.0-213.0-0.0,voc_e2,12137,"[{""event"":""blur"",""trial"":0,""time"":0},{""event"":""focus"",""trial"":1,""time"":5725},{""event"":""fullscreenenter"",""trial"":1,""time"":5875}]",NA,NA,NA,NA,NA,2,#1CD855,#FA92F8,10,0,1,38,1,739.5999994277954,37,1,478.80000019073486,10,1,experiment,NA,NA,0,0.9,0.1,0,1,204,5,NA
fcp-trial,267,1256416,0.0-214.0-0.0,voc_e2,12137,"[{""event"":""blur"",""trial"":0,""time"":0},{""event"":""focus"",""trial"":1,""time"":5725},{""event"":""fullscreenenter"",""trial"":1,""time"":5875}]",NA,NA,NA,NA,NA,4,#D89F1C,#3386FF,0,10,1,40,0,1207.1999998092651,39,0,562.8000001907349,10,0,experiment,NA,NA,2,0.5,0.5,4,5,205,5,NA
fcp-trial,268,1259502,0.0-215.0-0.0,voc_e2,12137,"[{""event"":""blur"",""trial"":0,""time"":0},{""event"":""focus"",""trial"":1,""time"":5725},{""event"":""fullscreenenter"",""trial"":1,""time"":5875}]",NA,NA,NA,NA,NA,1,#D8271C,#741CD8,0,0,1,38,1,1085.1000003814697,37,1,480.6000003814697,0,1,experiment,NA,NA,1,0.7,0.3,2,3,206,5,NA
fcp-trial,269,1262184,0.0-216.0-0.0,voc_e2,12137,"[{""event"":""blur"",""trial"":0,""time"":0},{""event"":""focus"",""trial"":1,""time"":5725},{""event"":""fullscreenenter"",""trial"":1,""time"":5875}]",NA,NA,NA,NA,NA,0,#1CD855,#FA92F8,10,0,1,38,1,658.6000003814697,37,1,504.80000019073486,10,1,experiment,NA,NA,0,0.9,0.1,0,1,207,5,NA
fcp-trial,270,1265436,0.0-217.0-0.0,voc_e2,12137,"[{""event"":""blur"",""trial"":0,""time"":0},{""event"":""focus"",""trial"":1,""time"":5725},{""event"":""fullscreenenter"",""trial"":1,""time"":5875}]",NA,NA,NA,NA,NA,6,#3386FF,#D89F1C,0,10,0,40,0,1177.8999996185303,39,0,559.3000001907349,10,1,experiment,NA,NA,2,0.5,0.5,5,4,208,5,NA
fcp-trial,271,1268341,0.0-218.0-0.0,voc_e2,12137,"[{""event"":""blur"",""trial"":0,""time"":0},{""event"":""focus"",""trial"":1,""time"":5725},{""event"":""fullscreenenter"",""trial"":1,""time"":5875}]",NA,NA,NA,NA,NA,1,#1CD855,#FA92F8,10,0,1,38,1,827,37,1,564,10,1,experiment,NA,NA,0,0.9,0.1,0,1,209,5,NA
fcp-trial,272,1271503,0.0-219.0-0.0,voc_e2,12137,"[{""event"":""blur"",""trial"":0,""time"":0},{""event"":""focus"",""trial"":1,""time"":5725},{""event"":""fullscreenenter"",""trial"":1,""time"":5875}]",NA,NA,NA,NA,NA,1,#D89F1C,#3386FF,10,10,1,40,0,1105.0999994277954,37,1,539.6000003814697,10,1,experiment,NA,NA,2,0.5,0.5,4,5,210,5,NA
audio-instructions,273,1323002,0.0-220.0,voc_e2,12137,"[{""event"":""blur"",""trial"":0,""time"":0},{""event"":""focus"",""trial"":1,""time"":5725},{""event"":""fullscreenenter"",""trial"":1,""time"":5875}]",NA,46739.89999961853,static/audio/pause.wav,NA,0,NA,NA,NA,NA,NA,NA,NA,NA,NA,NA,NA,NA,NA,NA,NA,NA,NA,NA,NA,NA,NA,NA,NA,NA,NA
fcp-trial,274,1328262,0.0-221.0-0.0,voc_e2,12137,"[{""event"":""blur"",""trial"":0,""time"":0},{""event"":""focus"",""trial"":1,""time"":5725},{""event"":""fullscreenenter"",""trial"":1,""time"":5875}]",NA,NA,NA,NA,NA,4,#741CD8,#D8271C,10,10,0,38,1,3107.699999809265,39,0,643,10,1,experiment,NA,NA,1,0.3,0.7,3,2,211,5,NA
fcp-trial,275,1331146,0.0-222.0-0.0,voc_e2,12137,"[{""event"":""blur"",""trial"":0,""time"":0},{""event"":""focus"",""trial"":1,""time"":5725},{""event"":""fullscreenenter"",""trial"":1,""time"":5875}]",NA,NA,NA,NA,NA,1,#741CD8,#D8271C,0,0,0,38,1,939.5,39,0,425.30000019073486,0,1,experiment,NA,NA,1,0.3,0.7,3,2,212,5,NA
fcp-trial,276,1334289,0.0-223.0-0.0,voc_e2,12137,"[{""event"":""blur"",""trial"":0,""time"":0},{""event"":""focus"",""trial"":1,""time"":5725},{""event"":""fullscreenenter"",""trial"":1,""time"":5875}]",NA,NA,NA,NA,NA,5,#3386FF,#D89F1C,10,0,0,40,0,1067.6999998092651,37,1,555.8000001907349,10,0,experiment,NA,NA,2,0.5,0.5,5,4,213,5,NA
fcp-trial,277,1337695,0.0-224.0-0.0,voc_e2,12137,"[{""event"":""blur"",""trial"":0,""time"":0},{""event"":""focus"",""trial"":1,""time"":5725},{""event"":""fullscreenenter"",""trial"":1,""time"":5875}]",NA,NA,NA,NA,NA,5,#FA92F8,#1CD855,0,0,0,38,1,1374.5,39,0,514.8999996185303,0,1,experiment,NA,NA,0,0.1,0.9,1,0,214,5,NA
fcp-trial,278,1340697,0.0-225.0-0.0,voc_e2,12137,"[{""event"":""blur"",""trial"":0,""time"":0},{""event"":""focus"",""trial"":1,""time"":5725},{""event"":""fullscreenenter"",""trial"":1,""time"":5875}]",NA,NA,NA,NA,NA,3,#1CD855,#FA92F8,10,0,1,38,1,966.2000007629395,37,1,515.6000003814697,10,1,experiment,NA,NA,0,0.9,0.1,0,1,215,5,NA
fcp-trial,279,1344098,0.0-226.0-0.0,voc_e2,12137,"[{""event"":""blur"",""trial"":0,""time"":0},{""event"":""focus"",""trial"":1,""time"":5725},{""event"":""fullscreenenter"",""trial"":1,""time"":5875}]",NA,NA,NA,NA,NA,0,#D8271C,#741CD8,10,10,1,38,1,1385.5,37,1,506.6000003814697,10,1,experiment,NA,NA,1,0.7,0.3,2,3,216,5,NA
fcp-trial,280,1347995,0.0-227.0-0.0,voc_e2,12137,"[{""event"":""blur"",""trial"":0,""time"":0},{""event"":""focus"",""trial"":1,""time"":5725},{""event"":""fullscreenenter"",""trial"":1,""time"":5875}]",NA,NA,NA,NA,NA,0,#3386FF,#D89F1C,0,10,0,38,1,1602.9000005722046,37,1,776.8000001907349,0,0,experiment,NA,NA,2,0.5,0.5,5,4,217,5,NA
fcp-trial,281,1351286,0.0-228.0-0.0,voc_e2,12137,"[{""event"":""blur"",""trial"":0,""time"":0},{""event"":""focus"",""trial"":1,""time"":5725},{""event"":""fullscreenenter"",""trial"":1,""time"":5875}]",NA,NA,NA,NA,NA,1,#1CD855,#FA92F8,0,0,1,38,1,1245.8000001907349,37,1,526.1999998092651,0,1,experiment,NA,NA,0,0.9,0.1,0,1,218,5,NA
fcp-trial,282,1354794,0.0-229.0-0.0,voc_e2,12137,"[{""event"":""blur"",""trial"":0,""time"":0},{""event"":""focus"",""trial"":1,""time"":5725},{""event"":""fullscreenenter"",""trial"":1,""time"":5875}]",NA,NA,NA,NA,NA,4,#1CD855,#FA92F8,10,0,1,38,1,1457.6000003814697,37,1,530.4000005722046,10,1,experiment,NA,NA,0,0.9,0.1,0,1,219,5,NA
fcp-trial,283,1357843,0.0-230.0-0.0,voc_e2,12137,"[{""event"":""blur"",""trial"":0,""time"":0},{""event"":""focus"",""trial"":1,""time"":5725},{""event"":""fullscreenenter"",""trial"":1,""time"":5875}]",NA,NA,NA,NA,NA,4,#3386FF,#D89F1C,10,0,0,40,0,1067.8000001907349,39,0,461.70000076293945,0,1,experiment,NA,NA,2,0.5,0.5,5,4,220,5,NA
fcp-trial,284,1361185,0.0-231.0-0.0,voc_e2,12137,"[{""event"":""blur"",""trial"":0,""time"":0},{""event"":""focus"",""trial"":1,""time"":5725},{""event"":""fullscreenenter"",""trial"":1,""time"":5875}]",NA,NA,NA,NA,NA,3,#D8271C,#741CD8,10,0,1,38,1,1283.1999998092651,37,1,542.2000007629395,10,1,experiment,NA,NA,1,0.7,0.3,2,3,221,5,NA
fcp-trial,285,1364381,0.0-232.0-0.0,voc_e2,12137,"[{""event"":""blur"",""trial"":0,""time"":0},{""event"":""focus"",""trial"":1,""time"":5725},{""event"":""fullscreenenter"",""trial"":1,""time"":5875}]",NA,NA,NA,NA,NA,2,#D89F1C,#3386FF,0,0,1,40,0,1146.1999998092651,39,0,531.6999998092651,0,0,experiment,NA,NA,2,0.5,0.5,4,5,222,5,NA
fcp-trial,286,1367680,0.0-233.0-0.0,voc_e2,12137,"[{""event"":""blur"",""trial"":0,""time"":0},{""event"":""focus"",""trial"":1,""time"":5725},{""event"":""fullscreenenter"",""trial"":1,""time"":5875}]",NA,NA,NA,NA,NA,6,#D8271C,#741CD8,10,0,1,40,0,1207,37,1,572.2999992370605,10,1,experiment,NA,NA,1,0.7,0.3,2,3,223,5,NA
fcp-trial,287,1371087,0.0-234.0-0.0,voc_e2,12137,"[{""event"":""blur"",""trial"":0,""time"":0},{""event"":""focus"",""trial"":1,""time"":5725},{""event"":""fullscreenenter"",""trial"":1,""time"":5875}]",NA,NA,NA,NA,NA,0,#1CD855,#FA92F8,10,0,1,38,1,1339.5,37,1,550.4000005722046,10,1,experiment,NA,NA,0,0.9,0.1,0,1,224,5,NA
fcp-trial,288,1373956,0.0-235.0-0.0,voc_e2,12137,"[{""event"":""blur"",""trial"":0,""time"":0},{""event"":""focus"",""trial"":1,""time"":5725},{""event"":""fullscreenenter"",""trial"":1,""time"":5875}]",NA,NA,NA,NA,NA,2,#FA92F8,#1CD855,0,10,0,38,1,845.1000003814697,39,0,506.30000019073486,10,1,experiment,NA,NA,0,0.1,0.9,1,0,225,5,NA
fcp-trial,289,1377273,0.0-236.0-0.0,voc_e2,12137,"[{""event"":""blur"",""trial"":0,""time"":0},{""event"":""focus"",""trial"":1,""time"":5725},{""event"":""fullscreenenter"",""trial"":1,""time"":5875}]",NA,NA,NA,NA,NA,5,#D8271C,#741CD8,10,10,1,40,0,1225.5999994277954,39,0,574.1999998092651,10,0,experiment,NA,NA,1,0.7,0.3,2,3,226,6,NA
fcp-trial,290,1380822,0.0-237.0-0.0,voc_e2,12137,"[{""event"":""blur"",""trial"":0,""time"":0},{""event"":""focus"",""trial"":1,""time"":5725},{""event"":""fullscreenenter"",""trial"":1,""time"":5875}]",NA,NA,NA,NA,NA,1,#3386FF,#D89F1C,0,0,0,40,0,1477.1999998092651,37,1,548.0999994277954,0,0,experiment,NA,NA,2,0.5,0.5,5,4,227,6,NA
fcp-trial,291,1383905,0.0-238.0-0.0,voc_e2,12137,"[{""event"":""blur"",""trial"":0,""time"":0},{""event"":""focus"",""trial"":1,""time"":5725},{""event"":""fullscreenenter"",""trial"":1,""time"":5875}]",NA,NA,NA,NA,NA,6,#D89F1C,#3386FF,10,10,1,40,0,983.5,39,0,583.5,10,0,experiment,NA,NA,2,0.5,0.5,4,5,228,6,NA
fcp-trial,292,1386852,0.0-239.0-0.0,voc_e2,12137,"[{""event"":""blur"",""trial"":0,""time"":0},{""event"":""focus"",""trial"":1,""time"":5725},{""event"":""fullscreenenter"",""trial"":1,""time"":5875}]",NA,NA,NA,NA,NA,6,#1CD855,#FA92F8,10,0,1,38,1,889.0999994277954,37,1,541.0999994277954,10,1,experiment,NA,NA,0,0.9,0.1,0,1,229,6,NA
fcp-trial,293,1390353,0.0-240.0-0.0,voc_e2,12137,"[{""event"":""blur"",""trial"":0,""time"":0},{""event"":""focus"",""trial"":1,""time"":5725},{""event"":""fullscreenenter"",""trial"":1,""time"":5875}]",NA,NA,NA,NA,NA,3,#3386FF,#D89F1C,0,0,0,40,0,1421.7999992370605,39,0,565.4000005722046,0,1,experiment,NA,NA,2,0.5,0.5,5,4,230,6,NA
fcp-trial,294,1393662,0.0-241.0-0.0,voc_e2,12137,"[{""event"":""blur"",""trial"":0,""time"":0},{""event"":""focus"",""trial"":1,""time"":5725},{""event"":""fullscreenenter"",""trial"":1,""time"":5875}]",NA,NA,NA,NA,NA,2,#741CD8,#D8271C,10,10,0,38,1,1237,39,0,557.9000005722046,10,1,experiment,NA,NA,1,0.3,0.7,3,2,231,6,NA
fcp-trial,295,1396862,0.0-242.0-0.0,voc_e2,12137,"[{""event"":""blur"",""trial"":0,""time"":0},{""event"":""focus"",""trial"":1,""time"":5725},{""event"":""fullscreenenter"",""trial"":1,""time"":5875}]",NA,NA,NA,NA,NA,4,#D8271C,#741CD8,0,0,1,40,0,1124.8000001907349,37,1,558.8000001907349,0,1,experiment,NA,NA,1,0.7,0.3,2,3,232,6,NA
fcp-trial,296,1400592,0.0-243.0-0.0,voc_e2,12137,"[{""event"":""blur"",""trial"":0,""time"":0},{""event"":""focus"",""trial"":1,""time"":5725},{""event"":""fullscreenenter"",""trial"":1,""time"":5875}]",NA,NA,NA,NA,NA,5,#1CD855,#FA92F8,10,0,1,38,1,1718,37,1,496.30000019073486,10,1,experiment,NA,NA,0,0.9,0.1,0,1,233,6,NA
fcp-trial,297,1403841,0.0-244.0-0.0,voc_e2,12137,"[{""event"":""blur"",""trial"":0,""time"":0},{""event"":""focus"",""trial"":1,""time"":5725},{""event"":""fullscreenenter"",""trial"":1,""time"":5875}]",NA,NA,NA,NA,NA,5,#D89F1C,#3386FF,10,10,1,40,0,1244.4000005722046,39,0,487.5999994277954,10,0,experiment,NA,NA,2,0.5,0.5,4,5,234,6,NA
fcp-trial,298,1407322,0.0-245.0-0.0,voc_e2,12137,"[{""event"":""blur"",""trial"":0,""time"":0},{""event"":""focus"",""trial"":1,""time"":5725},{""event"":""fullscreenenter"",""trial"":1,""time"":5875}]",NA,NA,NA,NA,NA,0,#D8271C,#741CD8,10,0,1,38,1,1144.2999992370605,37,1,820,10,1,experiment,NA,NA,1,0.7,0.3,2,3,235,6,NA
fcp-trial,299,1410517,0.0-246.0-0.0,voc_e2,12137,"[{""event"":""blur"",""trial"":0,""time"":0},{""event"":""focus"",""trial"":1,""time"":5725},{""event"":""fullscreenenter"",""trial"":1,""time"":5875}]",NA,NA,NA,NA,NA,2,#741CD8,#D8271C,0,10,0,38,1,1235.0999994277954,39,0,441.0999994277954,10,1,experiment,NA,NA,1,0.3,0.7,3,2,236,6,NA
fcp-trial,300,1414274,0.0-247.0-0.0,voc_e2,12137,"[{""event"":""blur"",""trial"":0,""time"":0},{""event"":""focus"",""trial"":1,""time"":5725},{""event"":""fullscreenenter"",""trial"":1,""time"":5875}]",NA,NA,NA,NA,NA,0,#D89F1C,#3386FF,0,0,1,38,1,1299.3000001907349,37,1,938,0,1,experiment,NA,NA,2,0.5,0.5,4,5,237,6,NA
fcp-trial,301,1417251,0.0-248.0-0.0,voc_e2,12137,"[{""event"":""blur"",""trial"":0,""time"":0},{""event"":""focus"",""trial"":1,""time"":5725},{""event"":""fullscreenenter"",""trial"":1,""time"":5875}]",NA,NA,NA,NA,NA,2,#1CD855,#FA92F8,10,0,1,38,1,928.6999998092651,37,1,532.3999996185303,10,1,experiment,NA,NA,0,0.9,0.1,0,1,238,6,NA
fcp-trial,302,1420833,0.0-249.0-0.0,voc_e2,12137,"[{""event"":""blur"",""trial"":0,""time"":0},{""event"":""focus"",""trial"":1,""time"":5725},{""event"":""fullscreenenter"",""trial"":1,""time"":5875}]",NA,NA,NA,NA,NA,3,#1CD855,#FA92F8,0,0,1,38,1,1523.5,37,1,539.3000001907349,0,1,experiment,NA,NA,0,0.9,0.1,0,1,239,6,NA
fcp-trial,303,1424377,0.0-250.0-0.0,voc_e2,12137,"[{""event"":""blur"",""trial"":0,""time"":0},{""event"":""focus"",""trial"":1,""time"":5725},{""event"":""fullscreenenter"",""trial"":1,""time"":5875}]",NA,NA,NA,NA,NA,3,#D89F1C,#3386FF,10,0,1,40,0,1561,39,0,463.5,0,0,experiment,NA,NA,2,0.5,0.5,4,5,240,6,NA
