trial_type,trial_index,time_elapsed,internal_node_id,task_version,subject_id,interactions,success,rt,stimulus,key_press,button_pressed,offer,arcade_color_L,arcade_color_R,arcade_outcome_L,arcade_outcome_R,correct,stage_1_key,stage_1_choice,stage_1_rt,stage_2_key,stage_2_choice,stage_2_rt,stage_3_outcome,accuracy,phase,responses,num_errors,context,reward_prob_L,reward_prob_R,arcade_id_L,arcade_id_R,trial,block,response
pavlovia,0,17,0.0-0.0,voc_e2,12111,[],NA,NA,NA,NA,NA,NA,NA,NA,NA,NA,NA,NA,NA,NA,NA,NA,NA,NA,NA,NA,NA,NA,NA,NA,NA,NA,NA,NA,NA,NA
fullscreen,1,2704,0.0-1.0,voc_e2,12111,"[{""event"":""fullscreenenter"",""trial"":1,""time"":1724}]",TRUE,NA,NA,NA,NA,NA,NA,NA,NA,NA,NA,NA,NA,NA,NA,NA,NA,NA,NA,NA,NA,NA,NA,NA,NA,NA,NA,NA,NA,NA
audio-keyboard-response,2,4303,0.0-2.0,voc_e2,12111,"[{""event"":""fullscreenenter"",""trial"":1,""time"":1724}]",NA,1552,static/audio/beep_loop.wav,32,NA,NA,NA,NA,NA,NA,NA,NA,NA,NA,NA,NA,NA,NA,NA,NA,NA,NA,NA,NA,NA,NA,NA,NA,NA,NA
audio-test,3,5820,0.0-3.0,voc_e2,12111,"[{""event"":""fullscreenenter"",""trial"":1,""time"":1724}]",NA,NA,static/audio/turtle.wav,NA,3,NA,NA,NA,NA,NA,NA,NA,NA,NA,NA,NA,NA,NA,NA,NA,NA,NA,NA,NA,NA,NA,NA,NA,NA,NA
audio-test,4,8887,0.0-4.0,voc_e2,12111,"[{""event"":""fullscreenenter"",""trial"":1,""time"":1724}]",NA,NA,static/audio/shark.wav,NA,2,NA,NA,NA,NA,NA,NA,NA,NA,NA,NA,NA,NA,NA,NA,NA,NA,NA,NA,NA,NA,NA,NA,NA,NA,NA
audio-instructions,5,16247,0.0-5.0-0.0,voc_e2,12111,"[{""event"":""fullscreenenter"",""trial"":1,""time"":1724}]",NA,1579.2000000476835,static/audio/instructions1.wav,NA,0,NA,NA,NA,NA,NA,NA,NA,NA,NA,NA,NA,NA,NA,NA,NA,NA,NA,NA,NA,NA,NA,NA,NA,NA,NA
audio-instructions,6,24612,0.0-5.0-1.0,voc_e2,12111,"[{""event"":""fullscreenenter"",""trial"":1,""time"":1724}]",NA,1625,static/audio/instructions2.wav,NA,0,NA,NA,NA,NA,NA,NA,NA,NA,NA,NA,NA,NA,NA,NA,NA,NA,NA,NA,NA,NA,NA,NA,NA,NA,NA
audio-instructions,7,31143,0.0-5.0-2.0,voc_e2,12111,"[{""event"":""fullscreenenter"",""trial"":1,""time"":1724}]",NA,726.3000000119209,static/audio/instructions3.wav,NA,0,NA,NA,NA,NA,NA,NA,NA,NA,NA,NA,NA,NA,NA,NA,NA,NA,NA,NA,NA,NA,NA,NA,NA,NA,NA
audio-instructions,8,45772,0.0-5.0-3.0,voc_e2,12111,"[{""event"":""fullscreenenter"",""trial"":1,""time"":1724}]",NA,1403.399999976158,static/audio/instructions4.wav,NA,0,NA,NA,NA,NA,NA,NA,NA,NA,NA,NA,NA,NA,NA,NA,NA,NA,NA,NA,NA,NA,NA,NA,NA,NA,NA
audio-instructions,9,56611,0.0-5.0-4.0,voc_e2,12111,"[{""event"":""fullscreenenter"",""trial"":1,""time"":1724}]",NA,1453.699999988079,static/audio/instructions5.wav,NA,0,NA,NA,NA,NA,NA,NA,NA,NA,NA,NA,NA,NA,NA,NA,NA,NA,NA,NA,NA,NA,NA,NA,NA,NA,NA
fcp-practice,10,59249,0.0-5.0-5.0-0.0,voc_e2,12111,"[{""event"":""fullscreenenter"",""trial"":1,""time"":1724}]",NA,NA,NA,NA,NA,NA,#EDC948,#46d3c8,10,0,1,null,null,null,37,1,1124.399999976158,10,1,practice,NA,NA,NA,NA,NA,NA,NA,NA,NA,NA
fcp-practice,11,62077,0.0-5.0-5.0-1.0,voc_e2,12111,"[{""event"":""fullscreenenter"",""trial"":1,""time"":1724}]",NA,NA,NA,NA,NA,NA,#EDC948,#46d3c8,10,0,1,null,null,null,37,1,1322.300000011921,10,1,practice,NA,NA,NA,NA,NA,NA,NA,NA,NA,NA
fcp-practice,12,63943,0.0-5.0-5.0-2.0,voc_e2,12111,"[{""event"":""fullscreenenter"",""trial"":1,""time"":1724}]",NA,NA,NA,NA,NA,NA,#EDC948,#46d3c8,0,10,1,null,null,null,37,1,359,0,1,practice,NA,NA,NA,NA,NA,NA,NA,NA,NA,NA
fcp-practice,13,65850,0.0-5.0-5.0-3.0,voc_e2,12111,"[{""event"":""fullscreenenter"",""trial"":1,""time"":1724}]",NA,NA,NA,NA,NA,NA,#EDC948,#46d3c8,10,0,1,null,null,null,37,1,399.800000011921,10,1,practice,NA,NA,NA,NA,NA,NA,NA,NA,NA,NA
fcp-practice,14,67821,0.0-5.0-5.0-4.0,voc_e2,12111,"[{""event"":""fullscreenenter"",""trial"":1,""time"":1724}]",NA,NA,NA,NA,NA,NA,#EDC948,#46d3c8,10,0,1,null,null,null,37,1,463.0999999642372,10,1,practice,NA,NA,NA,NA,NA,NA,NA,NA,NA,NA
audio-instructions,15,89919,0.0-5.0-6.0,voc_e2,12111,"[{""event"":""fullscreenenter"",""trial"":1,""time"":1724}]",NA,4090.399999976158,static/audio/instructions6.wav,NA,0,NA,NA,NA,NA,NA,NA,NA,NA,NA,NA,NA,NA,NA,NA,NA,NA,NA,NA,NA,NA,NA,NA,NA,NA,NA
audio-instructions,16,109806,0.0-5.0-7.0,voc_e2,12111,"[{""event"":""fullscreenenter"",""trial"":1,""time"":1724}]",NA,687.3000000119209,static/audio/instructions7.wav,NA,0,NA,NA,NA,NA,NA,NA,NA,NA,NA,NA,NA,NA,NA,NA,NA,NA,NA,NA,NA,NA,NA,NA,NA,NA,NA
audio-instructions,17,120394,0.0-5.0-8.0,voc_e2,12111,"[{""event"":""fullscreenenter"",""trial"":1,""time"":1724}]",NA,1115.300000011921,static/audio/instructions8.wav,NA,0,NA,NA,NA,NA,NA,NA,NA,NA,NA,NA,NA,NA,NA,NA,NA,NA,NA,NA,NA,NA,NA,NA,NA,NA,NA
fcp-comprehension,18,125888,0.0-5.0-9.0,voc_e2,12111,"[{""event"":""fullscreenenter"",""trial"":1,""time"":1724}]",NA,5491.800000011921,NA,NA,NA,NA,NA,NA,NA,NA,NA,NA,NA,NA,NA,NA,NA,NA,NA,NA,"true,true",0,NA,NA,NA,NA,NA,NA,NA,NA
audio-instructions,19,133803,0.0-6.0-0.0,voc_e2,12111,"[{""event"":""fullscreenenter"",""trial"":1,""time"":1724}]",NA,2364.099999964237,static/audio/instructions9.wav,NA,0,NA,NA,NA,NA,NA,NA,NA,NA,NA,NA,NA,NA,NA,NA,NA,NA,NA,NA,NA,NA,NA,NA,NA,NA,NA
audio-instructions,20,150860,0.0-6.0-1.0,voc_e2,12111,"[{""event"":""fullscreenenter"",""trial"":1,""time"":1724}]",NA,4941.699999988079,static/audio/instructions10.wav,NA,0,NA,NA,NA,NA,NA,NA,NA,NA,NA,NA,NA,NA,NA,NA,NA,NA,NA,NA,NA,NA,NA,NA,NA,NA,NA
fcp-trial,21,156579,0.0-6.0-2.0,voc_e2,12111,"[{""event"":""fullscreenenter"",""trial"":1,""time"":1724}]",NA,NA,NA,NA,NA,0,#EDC948,#46d3c8,10,10,1,38,1,2607.199999988079,37,1,1597.800000011921,10,1,practice,NA,NA,NA,NA,NA,NA,NA,NA,NA,NA
audio-instructions,22,168245,0.0-6.0-3.0,voc_e2,12111,"[{""event"":""fullscreenenter"",""trial"":1,""time"":1724}]",NA,658.5,static/audio/instructions11.wav,NA,0,NA,NA,NA,NA,NA,NA,NA,NA,NA,NA,NA,NA,NA,NA,NA,NA,NA,NA,NA,NA,NA,NA,NA,NA,NA
fcp-trial,23,172800,0.0-6.0-4.0,voc_e2,12111,"[{""event"":""fullscreenenter"",""trial"":1,""time"":1724}]",NA,NA,NA,NA,NA,6,#EDC948,#46d3c8,10,10,1,40,0,1116.2000000476837,39,0,1928.600000023842,10,0,practice,NA,NA,NA,NA,NA,NA,NA,NA,NA,NA
audio-instructions,24,192271,0.0-6.0-5.0,voc_e2,12111,"[{""event"":""fullscreenenter"",""trial"":1,""time"":1724}]",NA,780.5,static/audio/instructions12.wav,NA,0,NA,NA,NA,NA,NA,NA,NA,NA,NA,NA,NA,NA,NA,NA,NA,NA,NA,NA,NA,NA,NA,NA,NA,NA,NA
audio-instructions,25,201140,0.0-6.0-6.0,voc_e2,12111,"[{""event"":""fullscreenenter"",""trial"":1,""time"":1724}]",NA,1276.4000000357628,static/audio/instructions13.wav,NA,0,NA,NA,NA,NA,NA,NA,NA,NA,NA,NA,NA,NA,NA,NA,NA,NA,NA,NA,NA,NA,NA,NA,NA,NA,NA
audio-instructions,26,213325,0.0-6.0-7.0,voc_e2,12111,"[{""event"":""fullscreenenter"",""trial"":1,""time"":1724}]",NA,3738.900000035763,static/audio/instructions14.wav,NA,0,NA,NA,NA,NA,NA,NA,NA,NA,NA,NA,NA,NA,NA,NA,NA,NA,NA,NA,NA,NA,NA,NA,NA,NA,NA
audio-instructions,27,221467,0.0-7.0-0.0,voc_e2,12111,"[{""event"":""fullscreenenter"",""trial"":1,""time"":1724}]",NA,1230.199999988079,static/audio/instructions15.wav,NA,0,NA,NA,NA,NA,NA,NA,NA,NA,NA,NA,NA,NA,NA,NA,NA,NA,NA,NA,NA,NA,NA,NA,NA,NA,NA
audio-instructions,28,230012,0.0-7.0-1.0,voc_e2,12111,"[{""event"":""fullscreenenter"",""trial"":1,""time"":1724}]",NA,1716.899999976158,static/audio/instructions16.wav,NA,0,NA,NA,NA,NA,NA,NA,NA,NA,NA,NA,NA,NA,NA,NA,NA,NA,NA,NA,NA,NA,NA,NA,NA,NA,NA
audio-instructions,29,240161,0.0-7.0-2.0,voc_e2,12111,"[{""event"":""fullscreenenter"",""trial"":1,""time"":1724}]",NA,2468.5,static/audio/instructions17.wav,NA,0,NA,NA,NA,NA,NA,NA,NA,NA,NA,NA,NA,NA,NA,NA,NA,NA,NA,NA,NA,NA,NA,NA,NA,NA,NA
audio-instructions,30,248614,0.0-7.0-3.0,voc_e2,12111,"[{""event"":""fullscreenenter"",""trial"":1,""time"":1724}]",NA,686.6000000238419,static/audio/instructions18.wav,NA,0,NA,NA,NA,NA,NA,NA,NA,NA,NA,NA,NA,NA,NA,NA,NA,NA,NA,NA,NA,NA,NA,NA,NA,NA,NA
audio-instructions,31,262341,0.0-7.0-4.0,voc_e2,12111,"[{""event"":""fullscreenenter"",""trial"":1,""time"":1724}]",NA,6984.699999988079,static/audio/instructions19.wav,NA,0,NA,NA,NA,NA,NA,NA,NA,NA,NA,NA,NA,NA,NA,NA,NA,NA,NA,NA,NA,NA,NA,NA,NA,NA,NA
fcp-comprehension,32,271679,0.0-7.0-5.0,voc_e2,12111,"[{""event"":""fullscreenenter"",""trial"":1,""time"":1724}]",NA,9336.69999998808,NA,NA,NA,NA,NA,NA,NA,NA,NA,NA,NA,NA,NA,NA,NA,NA,NA,NA,"false,false,false,true",0,NA,NA,NA,NA,NA,NA,NA,NA
audio-instructions,33,282590,0.0-8.0,voc_e2,12111,"[{""event"":""fullscreenenter"",""trial"":1,""time"":1724}]",NA,1693.100000023842,static/audio/ready.wav,NA,0,NA,NA,NA,NA,NA,NA,NA,NA,NA,NA,NA,NA,NA,NA,NA,NA,NA,NA,NA,NA,NA,NA,NA,NA,NA
fcp-trial,34,287056,0.0-9.0-0.0,voc_e2,12111,"[{""event"":""fullscreenenter"",""trial"":1,""time"":1724}]",NA,NA,NA,NA,NA,4,#D8271C,#741CD8,0,0,1,40,0,1984.5,37,1,970.100000023842,0,1,experiment,NA,NA,1,0.7,0.3,2,3,1,1,NA
fcp-trial,35,291621,0.0-10.0-0.0,voc_e2,12111,"[{""event"":""fullscreenenter"",""trial"":1,""time"":1724}]",NA,NA,NA,NA,NA,1,#D8271C,#741CD8,0,0,1,38,1,2016.3999999761581,39,0,1037.0999999642372,0,0,experiment,NA,NA,1,0.7,0.3,2,3,2,1,NA
fcp-trial,36,294996,0.0-11.0-0.0,voc_e2,12111,"[{""event"":""fullscreenenter"",""trial"":1,""time"":1724}]",NA,NA,NA,NA,NA,6,#741CD8,#D8271C,10,0,0,40,0,1035.2000000476837,39,0,830.0999999642372,0,1,experiment,NA,NA,1,0.3,0.7,3,2,3,1,NA
fcp-trial,37,301236,0.0-12.0-0.0,voc_e2,12111,"[{""event"":""fullscreenenter"",""trial"":1,""time"":1724}]",NA,NA,NA,NA,NA,1,#FA92F8,#1CD855,0,0,0,38,1,1784.199999988079,37,1,2947.899999976158,0,0,experiment,NA,NA,0,0.1,0.9,1,0,4,1,NA
fcp-trial,38,304895,0.0-13.0-0.0,voc_e2,12111,"[{""event"":""fullscreenenter"",""trial"":1,""time"":1724}]",NA,NA,NA,NA,NA,4,#3386FF,#D89F1C,0,10,1,40,0,1556.8999999761581,37,1,591.2000000476837,0,1,experiment,NA,NA,2,0.5,0.5,4,5,5,1,NA
fcp-trial,39,308723,0.0-14.0-0.0,voc_e2,12111,"[{""event"":""fullscreenenter"",""trial"":1,""time"":1724}]",NA,NA,NA,NA,NA,5,#D89F1C,#3386FF,0,10,0,40,0,1750,39,0,569.6999999880791,10,1,experiment,NA,NA,2,0.5,0.5,5,4,6,1,NA
fcp-trial,40,313761,0.0-15.0-0.0,voc_e2,12111,"[{""event"":""fullscreenenter"",""trial"":1,""time"":1724}]",NA,NA,NA,NA,NA,4,#FA92F8,#1CD855,0,10,0,40,0,2939.199999988079,37,1,590.1999999880791,0,0,experiment,NA,NA,0,0.1,0.9,1,0,7,1,NA
fcp-trial,41,319072,0.0-16.0-0.0,voc_e2,12111,"[{""event"":""fullscreenenter"",""trial"":1,""time"":1724}]",NA,NA,NA,NA,NA,0,#D8271C,#741CD8,10,10,1,40,0,2968.5,39,0,833.6999999880791,10,0,experiment,NA,NA,1,0.7,0.3,2,3,8,1,NA
fcp-trial,42,323458,0.0-17.0-0.0,voc_e2,12111,"[{""event"":""fullscreenenter"",""trial"":1,""time"":1724}]",NA,NA,NA,NA,NA,6,#FA92F8,#1CD855,0,10,0,40,0,2064.300000011921,37,1,810,0,0,experiment,NA,NA,0,0.1,0.9,1,0,9,1,NA
fcp-trial,43,327560,0.0-18.0-0.0,voc_e2,12111,"[{""event"":""fullscreenenter"",""trial"":1,""time"":1724}]",NA,NA,NA,NA,NA,2,#741CD8,#D8271C,10,10,0,38,1,1646.9000000357628,39,0,946.899999976158,10,1,experiment,NA,NA,1,0.3,0.7,3,2,10,1,NA
fcp-trial,44,330769,0.0-19.0-0.0,voc_e2,12111,"[{""event"":""fullscreenenter"",""trial"":1,""time"":1724}]",NA,NA,NA,NA,NA,2,#D89F1C,#3386FF,0,10,0,40,0,1118.5,39,0,581,10,1,experiment,NA,NA,2,0.5,0.5,5,4,11,1,NA
fcp-trial,45,336850,0.0-20.0-0.0,voc_e2,12111,"[{""event"":""fullscreenenter"",""trial"":1,""time"":1724}]",NA,NA,NA,NA,NA,0,#1CD855,#FA92F8,10,10,1,38,1,3581.5,37,1,991.899999976158,10,1,experiment,NA,NA,0,0.9,0.1,0,1,12,1,NA
fcp-trial,46,342483,0.0-21.0-0.0,voc_e2,12111,"[{""event"":""fullscreenenter"",""trial"":1,""time"":1724}]",NA,NA,NA,NA,NA,3,#D89F1C,#3386FF,10,0,0,40,0,3454.300000011921,37,1,670,10,0,experiment,NA,NA,2,0.5,0.5,5,4,13,1,NA
fcp-trial,47,345645,0.0-22.0-0.0,voc_e2,12111,"[{""event"":""fullscreenenter"",""trial"":1,""time"":1724}]",NA,NA,NA,NA,NA,1,#D89F1C,#3386FF,10,0,0,38,1,1259.6000000238419,39,0,394.300000011921,0,1,experiment,NA,NA,2,0.5,0.5,5,4,14,1,NA
fcp-trial,48,349903,0.0-23.0-0.0,voc_e2,12111,"[{""event"":""fullscreenenter"",""trial"":1,""time"":1724}]",NA,NA,NA,NA,NA,5,#D8271C,#741CD8,10,0,1,40,0,2151.2000000476837,37,1,599.3000000119209,10,1,experiment,NA,NA,1,0.7,0.3,2,3,15,1,NA
fcp-trial,49,353922,0.0-24.0-0.0,voc_e2,12111,"[{""event"":""fullscreenenter"",""trial"":1,""time"":1724}]",NA,NA,NA,NA,NA,2,#FA92F8,#1CD855,0,0,0,40,0,2040.8999999761581,37,1,469.199999988079,0,0,experiment,NA,NA,0,0.1,0.9,1,0,16,1,NA
fcp-trial,50,357084,0.0-25.0-0.0,voc_e2,12111,"[{""event"":""fullscreenenter"",""trial"":1,""time"":1724}]",NA,NA,NA,NA,NA,6,#D89F1C,#3386FF,0,10,0,40,0,1135.300000011921,37,1,517.3999999761581,0,0,experiment,NA,NA,2,0.5,0.5,5,4,17,1,NA
fcp-trial,51,360020,0.0-26.0-0.0,voc_e2,12111,"[{""event"":""fullscreenenter"",""trial"":1,""time"":1724}]",NA,NA,NA,NA,NA,3,#FA92F8,#1CD855,0,10,0,38,1,1103.699999988079,39,0,322.7999999523163,10,1,experiment,NA,NA,0,0.1,0.9,1,0,18,1,NA
fcp-trial,52,363497,0.0-27.0-0.0,voc_e2,12111,"[{""event"":""fullscreenenter"",""trial"":1,""time"":1724}]",NA,NA,NA,NA,NA,0,#3386FF,#D89F1C,10,10,1,38,1,1439.2000000476837,37,1,530.1999999880791,10,1,experiment,NA,NA,2,0.5,0.5,4,5,19,1,NA
fcp-trial,53,368465,0.0-28.0-0.0,voc_e2,12111,"[{""event"":""fullscreenenter"",""trial"":1,""time"":1724}]",NA,NA,NA,NA,NA,3,#741CD8,#D8271C,0,10,0,38,1,3031,39,0,429.4000000357628,10,1,experiment,NA,NA,1,0.3,0.7,3,2,20,1,NA
fcp-trial,54,373180,0.0-29.0-0.0,voc_e2,12111,"[{""event"":""fullscreenenter"",""trial"":1,""time"":1724}]",NA,NA,NA,NA,NA,5,#1CD855,#FA92F8,10,0,1,40,0,2524.099999964237,39,0,682.8999999761581,0,0,experiment,NA,NA,0,0.9,0.1,0,1,21,1,NA
fcp-trial,55,376527,0.0-30.0-0.0,voc_e2,12111,"[{""event"":""fullscreenenter"",""trial"":1,""time"":1724}]",NA,NA,NA,NA,NA,0,#1CD855,#FA92F8,10,0,1,38,1,1314.199999988079,37,1,525.6999999880791,10,1,experiment,NA,NA,0,0.9,0.1,0,1,22,1,NA
fcp-trial,56,379989,0.0-31.0-0.0,voc_e2,12111,"[{""event"":""fullscreenenter"",""trial"":1,""time"":1724}]",NA,NA,NA,NA,NA,5,#741CD8,#D8271C,0,10,0,40,0,1541.199999988079,39,0,414.5999999642372,10,1,experiment,NA,NA,1,0.3,0.7,3,2,23,1,NA
fcp-trial,57,383526,0.0-32.0-0.0,voc_e2,12111,"[{""event"":""fullscreenenter"",""trial"":1,""time"":1724}]",NA,NA,NA,NA,NA,6,#3386FF,#D89F1C,0,0,1,40,0,1500.6000000238419,39,0,526.9000000357628,0,0,experiment,NA,NA,2,0.5,0.5,4,5,24,1,NA
fcp-trial,58,386929,0.0-33.0-0.0,voc_e2,12111,"[{""event"":""fullscreenenter"",""trial"":1,""time"":1724}]",NA,NA,NA,NA,NA,3,#741CD8,#D8271C,0,10,0,38,1,1431.199999988079,37,1,464.199999988079,0,0,experiment,NA,NA,1,0.3,0.7,3,2,25,1,NA
fcp-trial,59,390737,0.0-34.0-0.0,voc_e2,12111,"[{""event"":""fullscreenenter"",""trial"":1,""time"":1724}]",NA,NA,NA,NA,NA,2,#3386FF,#D89F1C,0,0,1,38,1,1664.2000000476837,37,1,637.5,0,1,experiment,NA,NA,2,0.5,0.5,4,5,26,1,NA
fcp-trial,60,394511,0.0-35.0-0.0,voc_e2,12111,"[{""event"":""fullscreenenter"",""trial"":1,""time"":1724}]",NA,NA,NA,NA,NA,3,#FA92F8,#1CD855,0,10,0,38,1,1794.5,39,0,470.300000011921,10,1,experiment,NA,NA,0,0.1,0.9,1,0,27,1,NA
fcp-trial,61,397969,0.0-36.0-0.0,voc_e2,12111,"[{""event"":""fullscreenenter"",""trial"":1,""time"":1724}]",NA,NA,NA,NA,NA,4,#D89F1C,#3386FF,10,10,0,40,0,1378.800000011921,37,1,574.3000000119209,10,0,experiment,NA,NA,2,0.5,0.5,5,4,28,1,NA
fcp-trial,62,401072,0.0-37.0-0.0,voc_e2,12111,"[{""event"":""fullscreenenter"",""trial"":1,""time"":1724}]",NA,NA,NA,NA,NA,1,#D89F1C,#3386FF,10,0,0,38,1,1294.0999999642372,39,0,297.7000000476837,0,1,experiment,NA,NA,2,0.5,0.5,5,4,29,1,NA
fcp-trial,63,404527,0.0-38.0-0.0,voc_e2,12111,"[{""event"":""fullscreenenter"",""trial"":1,""time"":1724}]",NA,NA,NA,NA,NA,1,#741CD8,#D8271C,10,10,0,38,1,1169.5,39,0,777.2000000476837,10,1,experiment,NA,NA,1,0.3,0.7,3,2,30,1,NA
fcp-trial,64,407935,0.0-39.0-0.0,voc_e2,12111,"[{""event"":""fullscreenenter"",""trial"":1,""time"":1724}]",NA,NA,NA,NA,NA,4,#1CD855,#FA92F8,10,0,1,40,0,1380.699999988079,39,0,519,0,0,experiment,NA,NA,0,0.9,0.1,0,1,31,1,NA
fcp-trial,65,411348,0.0-40.0-0.0,voc_e2,12111,"[{""event"":""fullscreenenter"",""trial"":1,""time"":1724}]",NA,NA,NA,NA,NA,5,#D89F1C,#3386FF,10,0,0,40,0,1333.5,37,1,569.7999999523163,10,0,experiment,NA,NA,2,0.5,0.5,5,4,32,1,NA
fcp-trial,66,414979,0.0-41.0-0.0,voc_e2,12111,"[{""event"":""fullscreenenter"",""trial"":1,""time"":1724}]",NA,NA,NA,NA,NA,5,#FA92F8,#1CD855,0,10,0,40,0,1623.800000011921,39,0,500.39999997615814,10,1,experiment,NA,NA,0,0.1,0.9,1,0,33,1,NA
fcp-trial,67,418493,0.0-42.0-0.0,voc_e2,12111,"[{""event"":""fullscreenenter"",""trial"":1,""time"":1724}]",NA,NA,NA,NA,NA,2,#D8271C,#741CD8,10,0,1,38,1,1108.5,37,1,898.0999999642372,10,1,experiment,NA,NA,1,0.7,0.3,2,3,34,1,NA
fcp-trial,68,424149,0.0-43.0-0.0,voc_e2,12111,"[{""event"":""fullscreenenter"",""trial"":1,""time"":1724}]",NA,NA,NA,NA,NA,3,#3386FF,#D89F1C,0,10,1,40,0,3629.100000023842,39,0,519.5999999642372,10,0,experiment,NA,NA,2,0.5,0.5,4,5,35,1,NA
fcp-trial,69,427620,0.0-44.0-0.0,voc_e2,12111,"[{""event"":""fullscreenenter"",""trial"":1,""time"":1724}]",NA,NA,NA,NA,NA,2,#1CD855,#FA92F8,10,0,1,38,1,964,37,1,998.9000000357628,10,1,experiment,NA,NA,0,0.9,0.1,0,1,36,1,NA
fcp-trial,70,431260,0.0-45.0-0.0,voc_e2,12111,"[{""event"":""fullscreenenter"",""trial"":1,""time"":1724}]",NA,NA,NA,NA,NA,1,#FA92F8,#1CD855,0,10,0,38,1,1824.1000000238419,39,0,305.30000001192093,10,1,experiment,NA,NA,0,0.1,0.9,1,0,37,1,NA
fcp-trial,71,434593,0.0-46.0-0.0,voc_e2,12111,"[{""event"":""fullscreenenter"",""trial"":1,""time"":1724}]",NA,NA,NA,NA,NA,0,#741CD8,#D8271C,0,0,0,38,1,1468.5,39,0,357.60000002384186,0,1,experiment,NA,NA,1,0.3,0.7,3,2,38,1,NA
fcp-trial,72,438510,0.0-47.0-0.0,voc_e2,12111,"[{""event"":""fullscreenenter"",""trial"":1,""time"":1724}]",NA,NA,NA,NA,NA,0,#D89F1C,#3386FF,10,0,0,38,1,1947.7000000476837,39,0,462.4000000357628,0,1,experiment,NA,NA,2,0.5,0.5,5,4,39,1,NA
fcp-trial,73,442922,0.0-48.0-0.0,voc_e2,12111,"[{""event"":""fullscreenenter"",""trial"":1,""time"":1724}]",NA,NA,NA,NA,NA,6,#741CD8,#D8271C,0,0,0,40,0,2433.100000023842,39,0,469.699999988079,0,1,experiment,NA,NA,1,0.3,0.7,3,2,40,1,NA
fcp-trial,74,445938,0.0-49.0-0.0,voc_e2,12111,"[{""event"":""fullscreenenter"",""trial"":1,""time"":1724}]",NA,NA,NA,NA,NA,4,#741CD8,#D8271C,0,10,0,40,0,1136.300000011921,39,0,367.800000011921,10,1,experiment,NA,NA,1,0.3,0.7,3,2,41,1,NA
fcp-trial,75,449059,0.0-50.0-0.0,voc_e2,12111,"[{""event"":""fullscreenenter"",""trial"":1,""time"":1724}]",NA,NA,NA,NA,NA,6,#1CD855,#FA92F8,10,0,1,40,0,1131,37,1,482.39999997615814,10,1,experiment,NA,NA,0,0.9,0.1,0,1,42,1,NA
fcp-trial,76,452114,0.0-51.0-0.0,voc_e2,12111,"[{""event"":""fullscreenenter"",""trial"":1,""time"":1724}]",NA,NA,NA,NA,NA,5,#FA92F8,#1CD855,0,10,0,40,0,827.1000000238419,37,1,720.3999999761581,0,0,experiment,NA,NA,0,0.1,0.9,1,0,43,1,NA
fcp-trial,77,455726,0.0-52.0-0.0,voc_e2,12111,"[{""event"":""fullscreenenter"",""trial"":1,""time"":1724}]",NA,NA,NA,NA,NA,4,#FA92F8,#1CD855,0,10,0,38,1,1249.699999988079,39,0,855.3000000119209,10,1,experiment,NA,NA,0,0.1,0.9,1,0,44,1,NA
fcp-trial,78,458670,0.0-53.0-0.0,voc_e2,12111,"[{""event"":""fullscreenenter"",""trial"":1,""time"":1724}]",NA,NA,NA,NA,NA,5,#D8271C,#741CD8,10,0,1,40,0,989.2999999523163,37,1,446.7000000476837,10,1,experiment,NA,NA,1,0.7,0.3,2,3,45,1,NA
fcp-trial,79,462134,0.0-54.0-0.0,voc_e2,12111,"[{""event"":""fullscreenenter"",""trial"":1,""time"":1724}]",NA,NA,NA,NA,NA,3,#D89F1C,#3386FF,0,0,0,38,1,1648.8999999761581,39,0,306.4000000357628,0,1,experiment,NA,NA,2,0.5,0.5,5,4,46,2,NA
fcp-trial,80,465078,0.0-55.0-0.0,voc_e2,12111,"[{""event"":""fullscreenenter"",""trial"":1,""time"":1724}]",NA,NA,NA,NA,NA,5,#3386FF,#D89F1C,0,10,1,40,0,1053.9000000357628,37,1,384,0,1,experiment,NA,NA,2,0.5,0.5,4,5,47,2,NA
fcp-trial,81,468809,0.0-56.0-0.0,voc_e2,12111,"[{""event"":""fullscreenenter"",""trial"":1,""time"":1724}]",NA,NA,NA,NA,NA,0,#FA92F8,#1CD855,0,10,0,38,1,1930.800000011921,39,0,293,10,1,experiment,NA,NA,0,0.1,0.9,1,0,48,2,NA
fcp-trial,82,473728,0.0-57.0-0.0,voc_e2,12111,"[{""event"":""fullscreenenter"",""trial"":1,""time"":1724}]",NA,NA,NA,NA,NA,1,#741CD8,#D8271C,0,10,0,38,1,2430.899999976158,39,0,979.5999999642372,10,1,experiment,NA,NA,1,0.3,0.7,3,2,49,2,NA
fcp-trial,83,476997,0.0-58.0-0.0,voc_e2,12111,"[{""event"":""fullscreenenter"",""trial"":1,""time"":1724}]",NA,NA,NA,NA,NA,1,#D89F1C,#3386FF,10,10,0,38,1,1446.199999988079,39,0,315.5,10,1,experiment,NA,NA,2,0.5,0.5,5,4,50,2,NA
fcp-trial,84,480586,0.0-59.0-0.0,voc_e2,12111,"[{""event"":""fullscreenenter"",""trial"":1,""time"":1724}]",NA,NA,NA,NA,NA,2,#1CD855,#FA92F8,10,0,1,38,1,1386,37,1,695,10,1,experiment,NA,NA,0,0.9,0.1,0,1,51,2,NA
fcp-trial,85,483559,0.0-60.0-0.0,voc_e2,12111,"[{""event"":""fullscreenenter"",""trial"":1,""time"":1724}]",NA,NA,NA,NA,NA,6,#FA92F8,#1CD855,0,10,0,40,0,1135.699999988079,39,0,328.89999997615814,10,1,experiment,NA,NA,0,0.1,0.9,1,0,52,2,NA
fcp-trial,86,487659,0.0-61.0-0.0,voc_e2,12111,"[{""event"":""fullscreenenter"",""trial"":1,""time"":1724}]",NA,NA,NA,NA,NA,0,#3386FF,#D89F1C,10,10,1,38,1,1988.300000011921,37,1,605.1999999880791,10,1,experiment,NA,NA,2,0.5,0.5,4,5,53,2,NA
fcp-trial,87,490939,0.0-62.0-0.0,voc_e2,12111,"[{""event"":""fullscreenenter"",""trial"":1,""time"":1724}]",NA,NA,NA,NA,NA,4,#741CD8,#D8271C,0,10,0,40,0,1178.800000011921,37,1,592.6000000238419,0,0,experiment,NA,NA,1,0.3,0.7,3,2,54,2,NA
fcp-trial,88,494904,0.0-63.0-0.0,voc_e2,12111,"[{""event"":""fullscreenenter"",""trial"":1,""time"":1724}]",NA,NA,NA,NA,NA,3,#D8271C,#741CD8,10,10,1,38,1,1715.2000000476837,37,1,740.8000000119209,10,1,experiment,NA,NA,1,0.7,0.3,2,3,55,2,NA
fcp-trial,89,506092,0.0-64.0-0.0,voc_e2,12111,"[{""event"":""fullscreenenter"",""trial"":1,""time"":1724}]",NA,NA,NA,NA,NA,1,#FA92F8,#1CD855,0,10,0,38,1,9364,39,0,315.5,10,1,experiment,NA,NA,0,0.1,0.9,1,0,56,2,NA
fcp-trial,90,509093,0.0-65.0-0.0,voc_e2,12111,"[{""event"":""fullscreenenter"",""trial"":1,""time"":1724}]",NA,NA,NA,NA,NA,0,#741CD8,#D8271C,10,10,0,38,1,1083.2999999523163,39,0,410.300000011921,10,1,experiment,NA,NA,1,0.3,0.7,3,2,57,2,NA
fcp-trial,91,512638,0.0-66.0-0.0,voc_e2,12111,"[{""event"":""fullscreenenter"",""trial"":1,""time"":1724}]",NA,NA,NA,NA,NA,2,#D89F1C,#3386FF,0,10,0,38,1,1372.7999999523163,39,0,665,10,1,experiment,NA,NA,2,0.5,0.5,5,4,58,2,NA
fcp-trial,92,515222,0.0-67.0-0.0,voc_e2,12111,"[{""event"":""fullscreenenter"",""trial"":1,""time"":1724}]",NA,NA,NA,NA,NA,4,#D89F1C,#3386FF,10,10,0,38,1,688,39,0,385.39999997615814,10,1,experiment,NA,NA,2,0.5,0.5,5,4,59,2,NA
fcp-trial,93,518214,0.0-68.0-0.0,voc_e2,12111,"[{""event"":""fullscreenenter"",""trial"":1,""time"":1724}]",NA,NA,NA,NA,NA,2,#741CD8,#D8271C,0,10,0,38,1,1200.5,39,0,283.0999999642372,10,1,experiment,NA,NA,1,0.3,0.7,3,2,60,2,NA
fcp-trial,94,521321,0.0-69.0-0.0,voc_e2,12111,"[{""event"":""fullscreenenter"",""trial"":1,""time"":1724}]",NA,NA,NA,NA,NA,3,#1CD855,#FA92F8,10,0,1,38,1,901,37,1,697.8000000119209,10,1,experiment,NA,NA,0,0.9,0.1,0,1,61,2,NA
fcp-trial,95,523982,0.0-70.0-0.0,voc_e2,12111,"[{""event"":""fullscreenenter"",""trial"":1,""time"":1724}]",NA,NA,NA,NA,NA,6,#741CD8,#D8271C,0,10,0,38,1,801.5999999642372,39,0,348.60000002384186,10,1,experiment,NA,NA,1,0.3,0.7,3,2,62,2,NA
fcp-trial,96,526409,0.0-71.0-0.0,voc_e2,12111,"[{""event"":""fullscreenenter"",""trial"":1,""time"":1724}]",NA,NA,NA,NA,NA,6,#3386FF,#D89F1C,0,10,1,38,1,621.5,37,1,299.5,0,1,experiment,NA,NA,2,0.5,0.5,4,5,63,2,NA
fcp-trial,97,529109,0.0-72.0-0.0,voc_e2,12111,"[{""event"":""fullscreenenter"",""trial"":1,""time"":1724}]",NA,NA,NA,NA,NA,0,#1CD855,#FA92F8,10,0,1,38,1,881.6000000238419,37,1,310.9000000357628,10,1,experiment,NA,NA,0,0.9,0.1,0,1,64,2,NA
fcp-trial,98,533576,0.0-73.0-0.0,voc_e2,12111,"[{""event"":""fullscreenenter"",""trial"":1,""time"":1724}]",NA,NA,NA,NA,NA,6,#D8271C,#741CD8,10,10,1,38,1,2678.699999988079,37,1,281.19999998807907,10,1,experiment,NA,NA,1,0.7,0.3,2,3,65,2,NA
fcp-trial,99,536659,0.0-74.0-0.0,voc_e2,12111,"[{""event"":""fullscreenenter"",""trial"":1,""time"":1724}]",NA,NA,NA,NA,NA,1,#D89F1C,#3386FF,10,10,0,38,1,1155.699999988079,39,0,419.89999997615814,10,1,experiment,NA,NA,2,0.5,0.5,5,4,66,2,NA
fcp-trial,100,538988,0.0-75.0-0.0,voc_e2,12111,"[{""event"":""fullscreenenter"",""trial"":1,""time"":1724}]",NA,NA,NA,NA,NA,5,#3386FF,#D89F1C,0,10,1,38,1,17.099999964237213,37,1,805.6999999880791,0,1,experiment,NA,NA,2,0.5,0.5,4,5,67,2,NA
fcp-trial,101,542062,0.0-76.0-0.0,voc_e2,12111,"[{""event"":""fullscreenenter"",""trial"":1,""time"":1724}]",NA,NA,NA,NA,NA,4,#D8271C,#741CD8,10,0,1,38,1,983.4000000357628,37,1,579.5999999642372,10,1,experiment,NA,NA,1,0.7,0.3,2,3,68,2,NA
fcp-trial,102,545572,0.0-77.0-0.0,voc_e2,12111,"[{""event"":""fullscreenenter"",""trial"":1,""time"":1724}]",NA,NA,NA,NA,NA,5,#FA92F8,#1CD855,0,10,0,40,0,1269.5,37,1,732.3999999761581,0,0,experiment,NA,NA,0,0.1,0.9,1,0,69,2,NA
fcp-trial,103,549395,0.0-78.0-0.0,voc_e2,12111,"[{""event"":""fullscreenenter"",""trial"":1,""time"":1724}]",NA,NA,NA,NA,NA,2,#1CD855,#FA92F8,10,0,1,38,1,1755.800000011921,37,1,557.3999999761581,10,1,experiment,NA,NA,0,0.9,0.1,0,1,70,2,NA
fcp-trial,104,551884,0.0-79.0-0.0,voc_e2,12111,"[{""event"":""fullscreenenter"",""trial"":1,""time"":1724}]",NA,NA,NA,NA,NA,5,#741CD8,#D8271C,10,0,0,38,1,571.1999999880791,39,0,408.5999999642372,0,1,experiment,NA,NA,1,0.3,0.7,3,2,71,2,NA
fcp-trial,105,554308,0.0-80.0-0.0,voc_e2,12111,"[{""event"":""fullscreenenter"",""trial"":1,""time"":1724}]",NA,NA,NA,NA,NA,6,#3386FF,#D89F1C,10,0,1,38,1,507.89999997615814,37,1,409,10,1,experiment,NA,NA,2,0.5,0.5,4,5,72,2,NA
fcp-trial,106,556716,0.0-81.0-0.0,voc_e2,12111,"[{""event"":""fullscreenenter"",""trial"":1,""time"":1724}]",NA,NA,NA,NA,NA,4,#D89F1C,#3386FF,0,0,0,38,1,561.8999999761581,39,0,339.0999999642372,0,1,experiment,NA,NA,2,0.5,0.5,5,4,73,2,NA
fcp-trial,107,558954,0.0-82.0-0.0,voc_e2,12111,"[{""event"":""fullscreenenter"",""trial"":1,""time"":1724}]",NA,NA,NA,NA,NA,1,#741CD8,#D8271C,0,10,0,38,1,465,39,0,264.5,10,1,experiment,NA,NA,1,0.3,0.7,3,2,74,2,NA
fcp-trial,108,561414,0.0-83.0-0.0,voc_e2,12111,"[{""event"":""fullscreenenter"",""trial"":1,""time"":1724}]",NA,NA,NA,NA,NA,1,#1CD855,#FA92F8,10,0,1,38,1,564.3000000119209,37,1,385.39999997615814,10,1,experiment,NA,NA,0,0.9,0.1,0,1,75,2,NA
fcp-trial,109,563721,0.0-84.0-0.0,voc_e2,12111,"[{""event"":""fullscreenenter"",""trial"":1,""time"":1724}]",NA,NA,NA,NA,NA,3,#741CD8,#D8271C,10,10,0,38,1,513.0999999642372,39,0,283.89999997615814,10,1,experiment,NA,NA,1,0.3,0.7,3,2,76,2,NA
fcp-trial,110,566288,0.0-85.0-0.0,voc_e2,12111,"[{""event"":""fullscreenenter"",""trial"":1,""time"":1724}]",NA,NA,NA,NA,NA,0,#D89F1C,#3386FF,0,10,0,38,1,735,39,0,321,10,1,experiment,NA,NA,2,0.5,0.5,5,4,77,2,NA
fcp-trial,111,569043,0.0-86.0-0.0,voc_e2,12111,"[{""event"":""fullscreenenter"",""trial"":1,""time"":1724}]",NA,NA,NA,NA,NA,6,#FA92F8,#1CD855,0,10,0,38,1,579.2000000476837,39,0,666.3000000119209,10,1,experiment,NA,NA,0,0.1,0.9,1,0,78,2,NA
fcp-trial,112,571714,0.0-87.0-0.0,voc_e2,12111,"[{""event"":""fullscreenenter"",""trial"":1,""time"":1724}]",NA,NA,NA,NA,NA,2,#741CD8,#D8271C,0,10,0,38,1,611.8000000119209,39,0,551.2999999523163,10,1,experiment,NA,NA,1,0.3,0.7,3,2,79,2,NA
fcp-trial,113,575220,0.0-88.0-0.0,voc_e2,12111,"[{""event"":""fullscreenenter"",""trial"":1,""time"":1724}]",NA,NA,NA,NA,NA,3,#D89F1C,#3386FF,10,10,0,38,1,1297.800000011921,39,0,698.8000000119209,10,1,experiment,NA,NA,2,0.5,0.5,5,4,80,2,NA
fcp-trial,114,577710,0.0-89.0-0.0,voc_e2,12111,"[{""event"":""fullscreenenter"",""trial"":1,""time"":1724}]",NA,NA,NA,NA,NA,3,#FA92F8,#1CD855,0,10,0,38,1,647.4000000357628,39,0,333,10,1,experiment,NA,NA,0,0.1,0.9,1,0,81,2,NA
fcp-trial,115,580277,0.0-90.0-0.0,voc_e2,12111,"[{""event"":""fullscreenenter"",""trial"":1,""time"":1724}]",NA,NA,NA,NA,NA,4,#FA92F8,#1CD855,10,10,0,38,1,708.8000000119209,39,0,349.60000002384186,10,1,experiment,NA,NA,0,0.1,0.9,1,0,82,2,NA
fcp-trial,116,582994,0.0-91.0-0.0,voc_e2,12111,"[{""event"":""fullscreenenter"",""trial"":1,""time"":1724}]",NA,NA,NA,NA,NA,2,#D89F1C,#3386FF,0,10,0,38,1,736.4000000357628,39,0,471.7000000476837,10,1,experiment,NA,NA,2,0.5,0.5,5,4,83,2,NA
fcp-trial,117,585535,0.0-92.0-0.0,voc_e2,12111,"[{""event"":""fullscreenenter"",""trial"":1,""time"":1724}]",NA,NA,NA,NA,NA,0,#D8271C,#741CD8,10,0,1,38,1,525.1000000238419,37,1,508.39999997615814,10,1,experiment,NA,NA,1,0.7,0.3,2,3,84,2,NA
fcp-trial,118,588426,0.0-93.0-0.0,voc_e2,12111,"[{""event"":""fullscreenenter"",""trial"":1,""time"":1724}]",NA,NA,NA,NA,NA,5,#D89F1C,#3386FF,0,0,0,38,1,899.8999999761581,39,0,482.800000011921,0,1,experiment,NA,NA,2,0.5,0.5,5,4,85,2,NA
fcp-trial,119,590794,0.0-94.0-0.0,voc_e2,12111,"[{""event"":""fullscreenenter"",""trial"":1,""time"":1724}]",NA,NA,NA,NA,NA,1,#1CD855,#FA92F8,10,0,1,38,1,562.9000000357628,37,1,297.80000001192093,10,1,experiment,NA,NA,0,0.9,0.1,0,1,86,2,NA
fcp-trial,120,593135,0.0-95.0-0.0,voc_e2,12111,"[{""event"":""fullscreenenter"",""trial"":1,""time"":1724}]",NA,NA,NA,NA,NA,6,#741CD8,#D8271C,0,10,0,38,1,408.4000000357628,39,0,425.199999988079,10,1,experiment,NA,NA,1,0.3,0.7,3,2,87,2,NA
fcp-trial,121,595687,0.0-96.0-0.0,voc_e2,12111,"[{""event"":""fullscreenenter"",""trial"":1,""time"":1724}]",NA,NA,NA,NA,NA,4,#D89F1C,#3386FF,0,10,0,38,1,502.5,39,0,538.8000000119209,10,1,experiment,NA,NA,2,0.5,0.5,5,4,88,2,NA
fcp-trial,122,598210,0.0-97.0-0.0,voc_e2,12111,"[{""event"":""fullscreenenter"",""trial"":1,""time"":1724}]",NA,NA,NA,NA,NA,3,#D8271C,#741CD8,0,0,1,38,1,619.3999999761581,37,1,393.800000011921,0,1,experiment,NA,NA,1,0.7,0.3,2,3,89,2,NA
fcp-trial,123,600943,0.0-98.0-0.0,voc_e2,12111,"[{""event"":""fullscreenenter"",""trial"":1,""time"":1724}]",NA,NA,NA,NA,NA,3,#1CD855,#FA92F8,10,0,1,38,1,829.2000000476837,37,1,396.10000002384186,10,1,experiment,NA,NA,0,0.9,0.1,0,1,90,2,NA
fcp-trial,124,603342,0.0-99.0-0.0,voc_e2,12111,"[{""event"":""fullscreenenter"",""trial"":1,""time"":1724}]",NA,NA,NA,NA,NA,5,#741CD8,#D8271C,0,0,0,38,1,510.9000000357628,39,0,380.800000011921,0,1,experiment,NA,NA,1,0.3,0.7,3,2,91,3,NA
fcp-trial,125,605716,0.0-100.0-0.0,voc_e2,12111,"[{""event"":""fullscreenenter"",""trial"":1,""time"":1724}]",NA,NA,NA,NA,NA,4,#D8271C,#741CD8,0,10,1,38,1,451.39999997615814,37,1,414.300000011921,0,1,experiment,NA,NA,1,0.7,0.3,2,3,92,3,NA
fcp-trial,126,608087,0.0-101.0-0.0,voc_e2,12111,"[{""event"":""fullscreenenter"",""trial"":1,""time"":1724}]",NA,NA,NA,NA,NA,3,#D89F1C,#3386FF,10,0,0,38,1,519.3999999761581,39,0,343,0,1,experiment,NA,NA,2,0.5,0.5,5,4,93,3,NA
fcp-trial,127,610527,0.0-102.0-0.0,voc_e2,12111,"[{""event"":""fullscreenenter"",""trial"":1,""time"":1724}]",NA,NA,NA,NA,NA,2,#FA92F8,#1CD855,10,10,0,38,1,463.9000000357628,39,0,466.699999988079,10,1,experiment,NA,NA,0,0.1,0.9,1,0,94,3,NA
fcp-trial,128,613159,0.0-103.0-0.0,voc_e2,12111,"[{""event"":""fullscreenenter"",""trial"":1,""time"":1724}]",NA,NA,NA,NA,NA,0,#D89F1C,#3386FF,10,10,0,38,1,860,39,0,264,10,1,experiment,NA,NA,2,0.5,0.5,5,4,95,3,NA
fcp-trial,129,615514,0.0-104.0-0.0,voc_e2,12111,"[{""event"":""fullscreenenter"",""trial"":1,""time"":1724}]",NA,NA,NA,NA,NA,5,#FA92F8,#1CD855,0,10,0,38,1,480.5999999642372,39,0,365.5,10,1,experiment,NA,NA,0,0.1,0.9,1,0,96,3,NA
fcp-trial,130,617811,0.0-105.0-0.0,voc_e2,12111,"[{""event"":""fullscreenenter"",""trial"":1,""time"":1724}]",NA,NA,NA,NA,NA,1,#741CD8,#D8271C,10,10,0,38,1,507.9000000357628,39,0,281.89999997615814,10,1,experiment,NA,NA,1,0.3,0.7,3,2,97,3,NA
fcp-trial,131,620611,0.0-106.0-0.0,voc_e2,12111,"[{""event"":""fullscreenenter"",""trial"":1,""time"":1724}]",NA,NA,NA,NA,NA,2,#3386FF,#D89F1C,0,10,1,40,0,765.1000000238419,37,1,525.5999999642372,0,1,experiment,NA,NA,2,0.5,0.5,4,5,98,3,NA
fcp-trial,132,623128,0.0-107.0-0.0,voc_e2,12111,"[{""event"":""fullscreenenter"",""trial"":1,""time"":1724}]",NA,NA,NA,NA,NA,0,#1CD855,#FA92F8,10,0,1,38,1,611.0999999642372,37,1,397.699999988079,10,1,experiment,NA,NA,0,0.9,0.1,0,1,99,3,NA
fcp-trial,133,625842,0.0-108.0-0.0,voc_e2,12111,"[{""event"":""fullscreenenter"",""trial"":1,""time"":1724}]",NA,NA,NA,NA,NA,2,#741CD8,#D8271C,0,10,0,38,1,792.1000000238419,39,0,414,10,1,experiment,NA,NA,1,0.3,0.7,3,2,100,3,NA
fcp-trial,134,629591,0.0-109.0-0.0,voc_e2,12111,"[{""event"":""fullscreenenter"",""trial"":1,""time"":1724}]",NA,NA,NA,NA,NA,1,#3386FF,#D89F1C,0,10,1,38,1,1664.0999999642372,37,1,578.1000000238419,0,1,experiment,NA,NA,2,0.5,0.5,4,5,101,3,NA
fcp-trial,135,632495,0.0-110.0-0.0,voc_e2,12111,"[{""event"":""fullscreenenter"",""trial"":1,""time"":1724}]",NA,NA,NA,NA,NA,6,#D89F1C,#3386FF,0,10,0,38,1,919,39,0,477.0999999642372,10,1,experiment,NA,NA,2,0.5,0.5,5,4,102,3,NA
fcp-trial,136,635110,0.0-111.0-0.0,voc_e2,12111,"[{""event"":""fullscreenenter"",""trial"":1,""time"":1724}]",NA,NA,NA,NA,NA,6,#FA92F8,#1CD855,0,10,0,38,1,735.3000000119209,39,0,371.2000000476837,10,1,experiment,NA,NA,0,0.1,0.9,1,0,103,3,NA
fcp-trial,137,637918,0.0-112.0-0.0,voc_e2,12111,"[{""event"":""fullscreenenter"",""trial"":1,""time"":1724}]",NA,NA,NA,NA,NA,0,#741CD8,#D8271C,0,10,0,38,1,883.0999999642372,39,0,417.699999988079,10,1,experiment,NA,NA,1,0.3,0.7,3,2,104,3,NA
fcp-trial,138,641010,0.0-113.0-0.0,voc_e2,12111,"[{""event"":""fullscreenenter"",""trial"":1,""time"":1724}]",NA,NA,NA,NA,NA,4,#1CD855,#FA92F8,10,0,1,40,0,1219.699999988079,37,1,361.39999997615814,10,1,experiment,NA,NA,0,0.9,0.1,0,1,105,3,NA
audio-instructions,139,645757,0.0-114.0,voc_e2,12111,"[{""event"":""fullscreenenter"",""trial"":1,""time"":1724}]",NA,275.7000000476837,static/audio/pause.wav,NA,0,NA,NA,NA,NA,NA,NA,NA,NA,NA,NA,NA,NA,NA,NA,NA,NA,NA,NA,NA,NA,NA,NA,NA,NA,NA
fcp-trial,140,649716,0.0-115.0-0.0,voc_e2,12111,"[{""event"":""fullscreenenter"",""trial"":1,""time"":1724}]",NA,NA,NA,NA,NA,1,#FA92F8,#1CD855,0,10,0,38,1,1989.199999988079,39,0,459.800000011921,10,1,experiment,NA,NA,0,0.1,0.9,1,0,106,3,NA
fcp-trial,141,652593,0.0-116.0-0.0,voc_e2,12111,"[{""event"":""fullscreenenter"",""trial"":1,""time"":1724}]",NA,NA,NA,NA,NA,0,#D8271C,#741CD8,10,0,1,38,1,1012.6000000238419,37,1,357.0999999642372,10,1,experiment,NA,NA,1,0.7,0.3,2,3,107,3,NA
fcp-trial,142,655925,0.0-117.0-0.0,voc_e2,12111,"[{""event"":""fullscreenenter"",""trial"":1,""time"":1724}]",NA,NA,NA,NA,NA,3,#FA92F8,#1CD855,0,10,0,38,1,1417,39,0,406.699999988079,10,1,experiment,NA,NA,0,0.1,0.9,1,0,108,3,NA
fcp-trial,143,659057,0.0-118.0-0.0,voc_e2,12111,"[{""event"":""fullscreenenter"",""trial"":1,""time"":1724}]",NA,NA,NA,NA,NA,6,#D89F1C,#3386FF,10,0,0,40,0,1179.199999988079,39,0,445.199999988079,0,1,experiment,NA,NA,2,0.5,0.5,5,4,109,3,NA
fcp-trial,144,662276,0.0-119.0-0.0,voc_e2,12111,"[{""event"":""fullscreenenter"",""trial"":1,""time"":1724}]",NA,NA,NA,NA,NA,3,#D8271C,#741CD8,10,0,1,38,1,1228,37,1,484.300000011921,10,1,experiment,NA,NA,1,0.7,0.3,2,3,110,3,NA
fcp-trial,145,664634,0.0-120.0-0.0,voc_e2,12111,"[{""event"":""fullscreenenter"",""trial"":1,""time"":1724}]",NA,NA,NA,NA,NA,2,#D8271C,#741CD8,0,0,1,38,1,536.6999999880791,37,1,313.39999997615814,0,1,experiment,NA,NA,1,0.7,0.3,2,3,111,3,NA
fcp-trial,146,667332,0.0-121.0-0.0,voc_e2,12111,"[{""event"":""fullscreenenter"",""trial"":1,""time"":1724}]",NA,NA,NA,NA,NA,4,#FA92F8,#1CD855,0,10,0,38,1,906.6999999880791,39,0,282.0999999642372,10,1,experiment,NA,NA,0,0.1,0.9,1,0,112,3,NA
fcp-trial,147,670392,0.0-122.0-0.0,voc_e2,12111,"[{""event"":""fullscreenenter"",""trial"":1,""time"":1724}]",NA,NA,NA,NA,NA,5,#D89F1C,#3386FF,0,0,0,40,0,1142.8999999761581,37,1,408.800000011921,0,0,experiment,NA,NA,2,0.5,0.5,5,4,113,3,NA
fcp-trial,148,673291,0.0-123.0-0.0,voc_e2,12111,"[{""event"":""fullscreenenter"",""trial"":1,""time"":1724}]",NA,NA,NA,NA,NA,1,#D89F1C,#3386FF,10,0,0,38,1,1031.5999999642372,39,0,360.19999998807907,0,1,experiment,NA,NA,2,0.5,0.5,5,4,114,3,NA
fcp-trial,149,676269,0.0-124.0-0.0,voc_e2,12111,"[{""event"":""fullscreenenter"",""trial"":1,""time"":1724}]",NA,NA,NA,NA,NA,6,#741CD8,#D8271C,0,10,0,38,1,1043.5,39,0,426.10000002384186,10,1,experiment,NA,NA,1,0.3,0.7,3,2,115,3,NA
fcp-trial,150,678698,0.0-125.0-0.0,voc_e2,12111,"[{""event"":""fullscreenenter"",""trial"":1,""time"":1724}]",NA,NA,NA,NA,NA,5,#1CD855,#FA92F8,10,10,1,38,1,521,37,1,398.199999988079,10,1,experiment,NA,NA,0,0.9,0.1,0,1,116,3,NA
fcp-trial,151,681291,0.0-126.0-0.0,voc_e2,12111,"[{""event"":""fullscreenenter"",""trial"":1,""time"":1724}]",NA,NA,NA,NA,NA,4,#D8271C,#741CD8,10,10,1,38,1,654.5,37,1,430.60000002384186,10,1,experiment,NA,NA,1,0.7,0.3,2,3,117,3,NA
fcp-trial,152,684708,0.0-127.0-0.0,voc_e2,12111,"[{""event"":""fullscreenenter"",""trial"":1,""time"":1724}]",NA,NA,NA,NA,NA,3,#3386FF,#D89F1C,10,10,1,38,1,1511.300000011921,37,1,399.300000011921,10,1,experiment,NA,NA,2,0.5,0.5,4,5,118,3,NA
fcp-trial,153,687461,0.0-128.0-0.0,voc_e2,12111,"[{""event"":""fullscreenenter"",""trial"":1,""time"":1724}]",NA,NA,NA,NA,NA,1,#D8271C,#741CD8,10,10,1,38,1,876.7000000476837,37,1,369.7999999523163,10,1,experiment,NA,NA,1,0.7,0.3,2,3,119,3,NA
fcp-trial,154,690157,0.0-129.0-0.0,voc_e2,12111,"[{""event"":""fullscreenenter"",""trial"":1,""time"":1724}]",NA,NA,NA,NA,NA,2,#3386FF,#D89F1C,0,0,1,40,0,705.6999999880791,39,0,482.60000002384186,0,0,experiment,NA,NA,2,0.5,0.5,4,5,120,3,NA
fcp-trial,155,693237,0.0-130.0-0.0,voc_e2,12111,"[{""event"":""fullscreenenter"",""trial"":1,""time"":1724}]",NA,NA,NA,NA,NA,2,#1CD855,#FA92F8,10,0,1,38,1,1241,37,1,330.60000002384186,10,1,experiment,NA,NA,0,0.9,0.1,0,1,121,3,NA
fcp-trial,156,695736,0.0-131.0-0.0,voc_e2,12111,"[{""event"":""fullscreenenter"",""trial"":1,""time"":1724}]",NA,NA,NA,NA,NA,0,#1CD855,#FA92F8,10,0,1,38,1,671.6000000238419,37,1,316.89999997615814,10,1,experiment,NA,NA,0,0.9,0.1,0,1,122,3,NA
fcp-trial,157,698591,0.0-132.0-0.0,voc_e2,12111,"[{""event"":""fullscreenenter"",""trial"":1,""time"":1724}]",NA,NA,NA,NA,NA,5,#741CD8,#D8271C,0,10,0,38,1,950.3000000119209,39,0,394.699999988079,10,1,experiment,NA,NA,1,0.3,0.7,3,2,123,3,NA
fcp-trial,158,701457,0.0-133.0-0.0,voc_e2,12111,"[{""event"":""fullscreenenter"",""trial"":1,""time"":1724}]",NA,NA,NA,NA,NA,0,#D89F1C,#3386FF,0,10,0,40,0,860.0999999642372,37,1,498.5,0,0,experiment,NA,NA,2,0.5,0.5,5,4,124,3,NA
fcp-trial,159,704292,0.0-134.0-0.0,voc_e2,12111,"[{""event"":""fullscreenenter"",""trial"":1,""time"":1724}]",NA,NA,NA,NA,NA,6,#1CD855,#FA92F8,10,0,1,38,1,978.7000000476837,37,1,350.19999998807907,10,1,experiment,NA,NA,0,0.9,0.1,0,1,125,3,NA
fcp-trial,160,707827,0.0-135.0-0.0,voc_e2,12111,"[{""event"":""fullscreenenter"",""trial"":1,""time"":1724}]",NA,NA,NA,NA,NA,4,#D89F1C,#3386FF,10,0,0,40,0,1579.3999999761581,37,1,448.60000002384186,10,0,experiment,NA,NA,2,0.5,0.5,5,4,126,3,NA
fcp-trial,161,710914,0.0-136.0-0.0,voc_e2,12111,"[{""event"":""fullscreenenter"",""trial"":1,""time"":1724}]",NA,NA,NA,NA,NA,1,#3386FF,#D89F1C,10,10,1,38,1,1227.1000000238419,37,1,350.89999997615814,10,1,experiment,NA,NA,2,0.5,0.5,4,5,127,3,NA
fcp-trial,162,714579,0.0-137.0-0.0,voc_e2,12111,"[{""event"":""fullscreenenter"",""trial"":1,""time"":1724}]",NA,NA,NA,NA,NA,0,#FA92F8,#1CD855,0,10,0,38,1,1830.3999999761581,39,0,325.80000001192093,10,1,experiment,NA,NA,0,0.1,0.9,1,0,128,3,NA
fcp-trial,163,717360,0.0-138.0-0.0,voc_e2,12111,"[{""event"":""fullscreenenter"",""trial"":1,""time"":1724}]",NA,NA,NA,NA,NA,6,#D89F1C,#3386FF,10,10,0,38,1,854.6000000238419,37,1,419.300000011921,10,0,experiment,NA,NA,2,0.5,0.5,5,4,129,3,NA
fcp-trial,164,720934,0.0-139.0-0.0,voc_e2,12111,"[{""event"":""fullscreenenter"",""trial"":1,""time"":1724}]",NA,NA,NA,NA,NA,5,#FA92F8,#1CD855,0,10,0,38,1,1741.3999999761581,39,0,324.30000001192093,10,1,experiment,NA,NA,0,0.1,0.9,1,0,130,3,NA
fcp-trial,165,723789,0.0-140.0-0.0,voc_e2,12111,"[{""event"":""fullscreenenter"",""trial"":1,""time"":1724}]",NA,NA,NA,NA,NA,2,#741CD8,#D8271C,0,10,0,38,1,771.5,39,0,574.6999999880791,10,1,experiment,NA,NA,1,0.3,0.7,3,2,131,3,NA
fcp-trial,166,726197,0.0-141.0-0.0,voc_e2,12111,"[{""event"":""fullscreenenter"",""trial"":1,""time"":1724}]",NA,NA,NA,NA,NA,3,#D89F1C,#3386FF,10,10,0,38,1,597.4000000357628,37,1,303.30000001192093,10,0,experiment,NA,NA,2,0.5,0.5,5,4,132,3,NA
fcp-trial,167,728774,0.0-142.0-0.0,voc_e2,12111,"[{""event"":""fullscreenenter"",""trial"":1,""time"":1724}]",NA,NA,NA,NA,NA,0,#3386FF,#D89F1C,10,0,1,38,1,588.1000000238419,37,1,481.699999988079,10,1,experiment,NA,NA,2,0.5,0.5,4,5,133,3,NA
fcp-trial,168,731232,0.0-143.0-0.0,voc_e2,12111,"[{""event"":""fullscreenenter"",""trial"":1,""time"":1724}]",NA,NA,NA,NA,NA,2,#FA92F8,#1CD855,0,10,0,38,1,697.5999999642372,39,0,252.80000001192093,10,1,experiment,NA,NA,0,0.1,0.9,1,0,134,3,NA
fcp-trial,169,733860,0.0-144.0-0.0,voc_e2,12111,"[{""event"":""fullscreenenter"",""trial"":1,""time"":1724}]",NA,NA,NA,NA,NA,4,#741CD8,#D8271C,0,10,0,38,1,600.6000000238419,39,0,518.0999999642372,10,1,experiment,NA,NA,1,0.3,0.7,3,2,135,3,NA
fcp-trial,170,736129,0.0-145.0-0.0,voc_e2,12111,"[{""event"":""fullscreenenter"",""trial"":1,""time"":1724}]",NA,NA,NA,NA,NA,4,#1CD855,#FA92F8,10,10,1,38,1,462.60000002384186,37,1,299,10,1,experiment,NA,NA,0,0.9,0.1,0,1,136,4,NA
fcp-trial,171,738550,0.0-146.0-0.0,voc_e2,12111,"[{""event"":""fullscreenenter"",""trial"":1,""time"":1724}]",NA,NA,NA,NA,NA,3,#1CD855,#FA92F8,10,0,1,38,1,382.39999997615814,37,1,529.6999999880791,10,1,experiment,NA,NA,0,0.9,0.1,0,1,137,4,NA
fcp-trial,172,741124,0.0-147.0-0.0,voc_e2,12111,"[{""event"":""fullscreenenter"",""trial"":1,""time"":1724}]",NA,NA,NA,NA,NA,5,#D89F1C,#3386FF,10,0,0,38,1,562.6999999880791,37,1,504,10,0,experiment,NA,NA,2,0.5,0.5,5,4,138,4,NA
fcp-trial,173,743592,0.0-148.0-0.0,voc_e2,12111,"[{""event"":""fullscreenenter"",""trial"":1,""time"":1724}]",NA,NA,NA,NA,NA,1,#D8271C,#741CD8,0,0,1,38,1,697.3999999761581,37,1,263.10000002384186,0,1,experiment,NA,NA,1,0.7,0.3,2,3,139,4,NA
fcp-trial,174,746073,0.0-149.0-0.0,voc_e2,12111,"[{""event"":""fullscreenenter"",""trial"":1,""time"":1724}]",NA,NA,NA,NA,NA,4,#D89F1C,#3386FF,0,10,0,38,1,569.1999999880791,37,1,404.699999988079,0,0,experiment,NA,NA,2,0.5,0.5,5,4,140,4,NA
fcp-trial,175,748528,0.0-150.0-0.0,voc_e2,12111,"[{""event"":""fullscreenenter"",""trial"":1,""time"":1724}]",NA,NA,NA,NA,NA,3,#D8271C,#741CD8,10,0,1,38,1,551,37,1,396.699999988079,10,1,experiment,NA,NA,1,0.7,0.3,2,3,141,4,NA
fcp-trial,176,751252,0.0-151.0-0.0,voc_e2,12111,"[{""event"":""fullscreenenter"",""trial"":1,""time"":1724}]",NA,NA,NA,NA,NA,1,#FA92F8,#1CD855,0,10,0,38,1,550.1999999880791,39,0,665.3000000119209,10,1,experiment,NA,NA,0,0.1,0.9,1,0,142,4,NA
fcp-trial,177,753974,0.0-152.0-0.0,voc_e2,12111,"[{""event"":""fullscreenenter"",""trial"":1,""time"":1724}]",NA,NA,NA,NA,NA,6,#FA92F8,#1CD855,0,10,0,38,1,730.0999999642372,39,0,483.10000002384186,10,1,experiment,NA,NA,0,0.1,0.9,1,0,143,4,NA
fcp-trial,178,756639,0.0-153.0-0.0,voc_e2,12111,"[{""event"":""fullscreenenter"",""trial"":1,""time"":1724}]",NA,NA,NA,NA,NA,2,#3386FF,#D89F1C,10,0,1,38,1,654,39,0,504.4000000357628,0,0,experiment,NA,NA,2,0.5,0.5,4,5,144,4,NA
fcp-trial,179,759325,0.0-154.0-0.0,voc_e2,12111,"[{""event"":""fullscreenenter"",""trial"":1,""time"":1724}]",NA,NA,NA,NA,NA,5,#D8271C,#741CD8,10,0,1,38,1,788.6999999880791,37,1,389.5999999642372,10,1,experiment,NA,NA,1,0.7,0.3,2,3,145,4,NA
fcp-trial,180,761724,0.0-155.0-0.0,voc_e2,12111,"[{""event"":""fullscreenenter"",""trial"":1,""time"":1724}]",NA,NA,NA,NA,NA,0,#741CD8,#D8271C,0,0,0,38,1,530.5,39,0,360.60000002384186,0,1,experiment,NA,NA,1,0.3,0.7,3,2,146,4,NA
fcp-trial,181,764327,0.0-156.0-0.0,voc_e2,12111,"[{""event"":""fullscreenenter"",""trial"":1,""time"":1724}]",NA,NA,NA,NA,NA,6,#741CD8,#D8271C,10,0,0,38,1,697.5,39,0,397.7999999523163,0,1,experiment,NA,NA,1,0.3,0.7,3,2,147,4,NA
fcp-trial,182,766707,0.0-157.0-0.0,voc_e2,12111,"[{""event"":""fullscreenenter"",""trial"":1,""time"":1724}]",NA,NA,NA,NA,NA,0,#D8271C,#741CD8,10,0,1,38,1,545,37,1,327,10,1,experiment,NA,NA,1,0.7,0.3,2,3,148,4,NA
fcp-trial,183,769041,0.0-158.0-0.0,voc_e2,12111,"[{""event"":""fullscreenenter"",""trial"":1,""time"":1724}]",NA,NA,NA,NA,NA,6,#741CD8,#D8271C,10,10,0,38,1,464.89999997615814,39,0,361.699999988079,10,1,experiment,NA,NA,1,0.3,0.7,3,2,149,4,NA
fcp-trial,184,774685,0.0-159.0-0.0,voc_e2,12111,"[{""event"":""fullscreenenter"",""trial"":1,""time"":1724}]",NA,NA,NA,NA,NA,0,#3386FF,#D89F1C,0,0,1,38,1,2394.599999964237,39,0,1742.100000023842,0,0,experiment,NA,NA,2,0.5,0.5,4,5,150,4,NA
fcp-trial,185,777907,0.0-160.0-0.0,voc_e2,12111,"[{""event"":""fullscreenenter"",""trial"":1,""time"":1724}]",NA,NA,NA,NA,NA,3,#1CD855,#FA92F8,0,10,1,38,1,1396,37,1,315.89999997615814,0,1,experiment,NA,NA,0,0.9,0.1,0,1,151,4,NA
fcp-trial,186,780606,0.0-161.0-0.0,voc_e2,12111,"[{""event"":""fullscreenenter"",""trial"":1,""time"":1724}]",NA,NA,NA,NA,NA,4,#1CD855,#FA92F8,10,0,1,38,1,601,37,1,592.1999999880791,10,1,experiment,NA,NA,0,0.9,0.1,0,1,152,4,NA
fcp-trial,187,783157,0.0-162.0-0.0,voc_e2,12111,"[{""event"":""fullscreenenter"",""trial"":1,""time"":1724}]",NA,NA,NA,NA,NA,0,#1CD855,#FA92F8,10,0,1,38,1,622,37,1,421,10,1,experiment,NA,NA,0,0.9,0.1,0,1,153,4,NA
fcp-trial,188,786007,0.0-163.0-0.0,voc_e2,12111,"[{""event"":""fullscreenenter"",""trial"":1,""time"":1724}]",NA,NA,NA,NA,NA,4,#741CD8,#D8271C,0,0,0,38,1,981.6999999880791,39,0,361.5999999642372,0,1,experiment,NA,NA,1,0.3,0.7,3,2,154,4,NA
fcp-trial,189,788985,0.0-164.0-0.0,voc_e2,12111,"[{""event"":""fullscreenenter"",""trial"":1,""time"":1724}]",NA,NA,NA,NA,NA,5,#3386FF,#D89F1C,10,10,1,38,1,894.3999999761581,37,1,576,10,1,experiment,NA,NA,2,0.5,0.5,4,5,155,4,NA
fcp-trial,190,791929,0.0-165.0-0.0,voc_e2,12111,"[{""event"":""fullscreenenter"",""trial"":1,""time"":1724}]",NA,NA,NA,NA,NA,1,#1CD855,#FA92F8,10,0,1,38,1,882.1999999880791,37,1,551.1999999880791,10,1,experiment,NA,NA,0,0.9,0.1,0,1,156,4,NA
fcp-trial,191,794499,0.0-166.0-0.0,voc_e2,12111,"[{""event"":""fullscreenenter"",""trial"":1,""time"":1724}]",NA,NA,NA,NA,NA,2,#741CD8,#D8271C,0,10,0,38,1,696.2000000476837,39,0,365.60000002384186,10,1,experiment,NA,NA,1,0.3,0.7,3,2,157,4,NA
fcp-trial,192,796826,0.0-167.0-0.0,voc_e2,12111,"[{""event"":""fullscreenenter"",""trial"":1,""time"":1724}]",NA,NA,NA,NA,NA,4,#D89F1C,#3386FF,10,10,0,38,1,360.2000000476837,37,1,457.800000011921,10,0,experiment,NA,NA,2,0.5,0.5,5,4,158,4,NA
fcp-trial,193,799206,0.0-168.0-0.0,voc_e2,12111,"[{""event"":""fullscreenenter"",""trial"":1,""time"":1724}]",NA,NA,NA,NA,NA,3,#D89F1C,#3386FF,0,10,0,38,1,290.10000002384186,37,1,581.8000000119209,0,0,experiment,NA,NA,2,0.5,0.5,5,4,159,4,NA
fcp-trial,194,801456,0.0-169.0-0.0,voc_e2,12111,"[{""event"":""fullscreenenter"",""trial"":1,""time"":1724}]",NA,NA,NA,NA,NA,5,#1CD855,#FA92F8,10,0,1,38,1,381.80000001192093,37,1,361.800000011921,10,1,experiment,NA,NA,0,0.9,0.1,0,1,160,4,NA
fcp-trial,195,804028,0.0-170.0-0.0,voc_e2,12111,"[{""event"":""fullscreenenter"",""trial"":1,""time"":1724}]",NA,NA,NA,NA,NA,5,#D8271C,#741CD8,0,0,1,38,1,550.1000000238419,37,1,513.6999999880791,0,1,experiment,NA,NA,1,0.7,0.3,2,3,161,4,NA
fcp-trial,196,806566,0.0-171.0-0.0,voc_e2,12111,"[{""event"":""fullscreenenter"",""trial"":1,""time"":1724}]",NA,NA,NA,NA,NA,2,#D89F1C,#3386FF,10,10,0,38,1,496.5,37,1,532.3000000119209,10,0,experiment,NA,NA,2,0.5,0.5,5,4,162,4,NA
fcp-trial,197,808952,0.0-172.0-0.0,voc_e2,12111,"[{""event"":""fullscreenenter"",""trial"":1,""time"":1724}]",NA,NA,NA,NA,NA,6,#3386FF,#D89F1C,0,10,1,38,1,378.69999998807907,39,0,498.199999988079,10,0,experiment,NA,NA,2,0.5,0.5,4,5,163,4,NA
fcp-trial,198,811283,0.0-173.0-0.0,voc_e2,12111,"[{""event"":""fullscreenenter"",""trial"":1,""time"":1724}]",NA,NA,NA,NA,NA,1,#3386FF,#D89F1C,10,0,1,38,1,430.0999999642372,39,0,391.10000002384186,0,0,experiment,NA,NA,2,0.5,0.5,4,5,164,4,NA
fcp-trial,199,813658,0.0-174.0-0.0,voc_e2,12111,"[{""event"":""fullscreenenter"",""trial"":1,""time"":1724}]",NA,NA,NA,NA,NA,6,#1CD855,#FA92F8,10,0,1,38,1,491.30000001192093,37,1,373.300000011921,10,1,experiment,NA,NA,0,0.9,0.1,0,1,165,4,NA
fcp-trial,200,816049,0.0-175.0-0.0,voc_e2,12111,"[{""event"":""fullscreenenter"",""trial"":1,""time"":1724}]",NA,NA,NA,NA,NA,1,#741CD8,#D8271C,10,10,0,38,1,579,39,0,304.5999999642372,10,1,experiment,NA,NA,1,0.3,0.7,3,2,166,4,NA
fcp-trial,201,818611,0.0-176.0-0.0,voc_e2,12111,"[{""event"":""fullscreenenter"",""trial"":1,""time"":1724}]",NA,NA,NA,NA,NA,2,#1CD855,#FA92F8,10,0,1,38,1,555.1999999880791,37,1,498.39999997615814,10,1,experiment,NA,NA,0,0.9,0.1,0,1,167,4,NA
fcp-trial,202,821096,0.0-177.0-0.0,voc_e2,12111,"[{""event"":""fullscreenenter"",""trial"":1,""time"":1724}]",NA,NA,NA,NA,NA,3,#741CD8,#D8271C,0,0,0,38,1,528.5,39,0,449.10000002384186,0,1,experiment,NA,NA,1,0.3,0.7,3,2,168,4,NA
fcp-trial,203,823426,0.0-178.0-0.0,voc_e2,12111,"[{""event"":""fullscreenenter"",""trial"":1,""time"":1724}]",NA,NA,NA,NA,NA,2,#D8271C,#741CD8,10,10,1,38,1,379.2000000476837,37,1,441.7000000476837,10,1,experiment,NA,NA,1,0.7,0.3,2,3,169,4,NA
fcp-trial,204,825925,0.0-179.0-0.0,voc_e2,12111,"[{""event"":""fullscreenenter"",""trial"":1,""time"":1724}]",NA,NA,NA,NA,NA,5,#1CD855,#FA92F8,10,0,1,38,1,560.5,37,1,431.0999999642372,10,1,experiment,NA,NA,0,0.9,0.1,0,1,170,4,NA
fcp-trial,205,828357,0.0-180.0-0.0,voc_e2,12111,"[{""event"":""fullscreenenter"",""trial"":1,""time"":1724}]",NA,NA,NA,NA,NA,2,#FA92F8,#1CD855,0,10,0,38,1,527.3000000119209,39,0,398.39999997615814,10,1,experiment,NA,NA,0,0.1,0.9,1,0,171,4,NA
fcp-trial,206,830866,0.0-181.0-0.0,voc_e2,12111,"[{""event"":""fullscreenenter"",""trial"":1,""time"":1724}]",NA,NA,NA,NA,NA,6,#D8271C,#741CD8,0,0,1,38,1,605.4000000357628,37,1,394.5,0,1,experiment,NA,NA,1,0.7,0.3,2,3,172,4,NA
fcp-trial,207,833140,0.0-182.0-0.0,voc_e2,12111,"[{""event"":""fullscreenenter"",""trial"":1,""time"":1724}]",NA,NA,NA,NA,NA,1,#D8271C,#741CD8,10,0,1,38,1,428.10000002384186,37,1,337.10000002384186,10,1,experiment,NA,NA,1,0.7,0.3,2,3,173,4,NA
fcp-trial,208,835515,0.0-183.0-0.0,voc_e2,12111,"[{""event"":""fullscreenenter"",""trial"":1,""time"":1724}]",NA,NA,NA,NA,NA,3,#3386FF,#D89F1C,0,0,1,38,1,585.8000000119209,39,0,281.9000000357628,0,0,experiment,NA,NA,2,0.5,0.5,4,5,174,4,NA
fcp-trial,209,839351,0.0-184.0-0.0,voc_e2,12111,"[{""event"":""fullscreenenter"",""trial"":1,""time"":1724}]",NA,NA,NA,NA,NA,6,#3386FF,#D89F1C,10,10,1,40,0,1901.800000011921,39,0,425.699999988079,10,0,experiment,NA,NA,2,0.5,0.5,4,5,175,4,NA
fcp-trial,210,848241,0.0-185.0-0.0,voc_e2,12111,"[{""event"":""fullscreenenter"",""trial"":1,""time"":1724}]",NA,NA,NA,NA,NA,3,#FA92F8,#1CD855,10,10,0,38,1,7050,39,0,330.5,10,1,experiment,NA,NA,0,0.1,0.9,1,0,176,4,NA
fcp-trial,211,850639,0.0-186.0-0.0,voc_e2,12111,"[{""event"":""fullscreenenter"",""trial"":1,""time"":1724}]",NA,NA,NA,NA,NA,6,#FA92F8,#1CD855,0,10,0,38,1,576.3000000119209,39,0,315.39999997615814,10,1,experiment,NA,NA,0,0.1,0.9,1,0,177,4,NA
fcp-trial,212,853007,0.0-187.0-0.0,voc_e2,12111,"[{""event"":""fullscreenenter"",""trial"":1,""time"":1724}]",NA,NA,NA,NA,NA,3,#D8271C,#741CD8,10,0,1,38,1,573.4000000357628,37,1,288.2000000476837,10,1,experiment,NA,NA,1,0.7,0.3,2,3,178,4,NA
fcp-trial,213,856168,0.0-188.0-0.0,voc_e2,12111,"[{""event"":""fullscreenenter"",""trial"":1,""time"":1724}]",NA,NA,NA,NA,NA,0,#3386FF,#D89F1C,10,0,1,38,1,1376.4000000357628,39,0,275.60000002384186,0,0,experiment,NA,NA,2,0.5,0.5,4,5,179,4,NA
fcp-trial,214,858768,0.0-189.0-0.0,voc_e2,12111,"[{""event"":""fullscreenenter"",""trial"":1,""time"":1724}]",NA,NA,NA,NA,NA,0,#1CD855,#FA92F8,10,0,1,38,1,532.4000000357628,37,1,559.2000000476837,10,1,experiment,NA,NA,0,0.9,0.1,0,1,180,4,NA
fcp-trial,215,861449,0.0-190.0-0.0,voc_e2,12111,"[{""event"":""fullscreenenter"",""trial"":1,""time"":1724}]",NA,NA,NA,NA,NA,4,#3386FF,#D89F1C,10,0,1,38,1,706.2999999523163,39,0,467.0999999642372,0,0,experiment,NA,NA,2,0.5,0.5,4,5,181,5,NA
fcp-trial,216,863890,0.0-191.0-0.0,voc_e2,12111,"[{""event"":""fullscreenenter"",""trial"":1,""time"":1724}]",NA,NA,NA,NA,NA,1,#FA92F8,#1CD855,0,10,0,38,1,566.2999999523163,39,0,365.199999988079,10,1,experiment,NA,NA,0,0.1,0.9,1,0,182,5,NA
fcp-trial,217,866445,0.0-192.0-0.0,voc_e2,12111,"[{""event"":""fullscreenenter"",""trial"":1,""time"":1724}]",NA,NA,NA,NA,NA,0,#D8271C,#741CD8,10,0,1,38,1,634.3999999761581,37,1,413.4000000357628,10,1,experiment,NA,NA,1,0.7,0.3,2,3,183,5,NA
fcp-trial,218,868791,0.0-193.0-0.0,voc_e2,12111,"[{""event"":""fullscreenenter"",""trial"":1,""time"":1724}]",NA,NA,NA,NA,NA,4,#D8271C,#741CD8,10,10,1,38,1,430.60000002384186,37,1,407.89999997615814,10,1,experiment,NA,NA,1,0.7,0.3,2,3,184,5,NA
fcp-trial,219,871431,0.0-194.0-0.0,voc_e2,12111,"[{""event"":""fullscreenenter"",""trial"":1,""time"":1724}]",NA,NA,NA,NA,NA,2,#3386FF,#D89F1C,10,10,1,38,1,659.5999999642372,39,0,471.39999997615814,10,0,experiment,NA,NA,2,0.5,0.5,4,5,185,5,NA
fcp-trial,220,873882,0.0-195.0-0.0,voc_e2,12111,"[{""event"":""fullscreenenter"",""trial"":1,""time"":1724}]",NA,NA,NA,NA,NA,4,#FA92F8,#1CD855,0,10,0,38,1,543.5,39,0,397.5,10,1,experiment,NA,NA,0,0.1,0.9,1,0,186,5,NA
fcp-trial,221,876125,0.0-196.0-0.0,voc_e2,12111,"[{""event"":""fullscreenenter"",""trial"":1,""time"":1724}]",NA,NA,NA,NA,NA,5,#741CD8,#D8271C,0,0,0,38,1,445.89999997615814,39,0,288.10000002384186,0,1,experiment,NA,NA,1,0.3,0.7,3,2,187,5,NA
fcp-trial,222,878572,0.0-197.0-0.0,voc_e2,12111,"[{""event"":""fullscreenenter"",""trial"":1,""time"":1724}]",NA,NA,NA,NA,NA,1,#3386FF,#D89F1C,0,10,1,38,1,622.8999999761581,39,0,317.2999999523163,10,0,experiment,NA,NA,2,0.5,0.5,4,5,188,5,NA
fcp-trial,223,880985,0.0-198.0-0.0,voc_e2,12111,"[{""event"":""fullscreenenter"",""trial"":1,""time"":1724}]",NA,NA,NA,NA,NA,5,#D89F1C,#3386FF,10,0,0,38,1,519.1999999880791,37,1,385.300000011921,10,0,experiment,NA,NA,2,0.5,0.5,5,4,189,5,NA
fcp-trial,224,883348,0.0-199.0-0.0,voc_e2,12111,"[{""event"":""fullscreenenter"",""trial"":1,""time"":1724}]",NA,NA,NA,NA,NA,1,#FA92F8,#1CD855,0,10,0,38,1,542.0999999642372,39,0,310.80000001192093,10,1,experiment,NA,NA,0,0.1,0.9,1,0,190,5,NA
fcp-trial,225,885749,0.0-200.0-0.0,voc_e2,12111,"[{""event"":""fullscreenenter"",""trial"":1,""time"":1724}]",NA,NA,NA,NA,NA,1,#D8271C,#741CD8,10,0,1,38,1,546.8000000119209,37,1,344.4000000357628,10,1,experiment,NA,NA,1,0.7,0.3,2,3,191,5,NA
fcp-trial,226,888067,0.0-201.0-0.0,voc_e2,12111,"[{""event"":""fullscreenenter"",""trial"":1,""time"":1724}]",NA,NA,NA,NA,NA,2,#D89F1C,#3386FF,10,0,0,38,1,376.5999999642372,37,1,433.5,10,0,experiment,NA,NA,2,0.5,0.5,5,4,192,5,NA
fcp-trial,227,890989,0.0-202.0-0.0,voc_e2,12111,"[{""event"":""fullscreenenter"",""trial"":1,""time"":1724}]",NA,NA,NA,NA,NA,3,#D89F1C,#3386FF,10,0,0,38,1,642.8999999761581,37,1,769.5999999642372,10,0,experiment,NA,NA,2,0.5,0.5,5,4,193,5,NA
fcp-trial,228,893339,0.0-203.0-0.0,voc_e2,12111,"[{""event"":""fullscreenenter"",""trial"":1,""time"":1724}]",NA,NA,NA,NA,NA,5,#FA92F8,#1CD855,0,0,0,38,1,480.69999998807907,39,0,361.800000011921,0,1,experiment,NA,NA,0,0.1,0.9,1,0,194,5,NA
fcp-trial,229,895789,0.0-204.0-0.0,voc_e2,12111,"[{""event"":""fullscreenenter"",""trial"":1,""time"":1724}]",NA,NA,NA,NA,NA,4,#D8271C,#741CD8,10,0,1,38,1,424.89999997615814,37,1,519.4000000357628,10,1,experiment,NA,NA,1,0.7,0.3,2,3,195,5,NA
fcp-trial,230,898312,0.0-205.0-0.0,voc_e2,12111,"[{""event"":""fullscreenenter"",""trial"":1,""time"":1724}]",NA,NA,NA,NA,NA,2,#741CD8,#D8271C,0,10,0,38,1,428,39,0,587.8999999761581,10,1,experiment,NA,NA,1,0.3,0.7,3,2,196,5,NA
fcp-trial,231,901214,0.0-206.0-0.0,voc_e2,12111,"[{""event"":""fullscreenenter"",""trial"":1,""time"":1724}]",NA,NA,NA,NA,NA,2,#FA92F8,#1CD855,0,10,0,38,1,1123.8999999761581,39,0,269.9000000357628,10,1,experiment,NA,NA,0,0.1,0.9,1,0,197,5,NA
fcp-trial,232,904972,0.0-207.0-0.0,voc_e2,12111,"[{""event"":""fullscreenenter"",""trial"":1,""time"":1724}]",NA,NA,NA,NA,NA,1,#3386FF,#D89F1C,0,10,1,38,1,699.8999999761581,39,0,1548.7999999523165,10,0,experiment,NA,NA,2,0.5,0.5,4,5,198,5,NA
fcp-trial,233,907606,0.0-208.0-0.0,voc_e2,12111,"[{""event"":""fullscreenenter"",""trial"":1,""time"":1724}]",NA,NA,NA,NA,NA,3,#1CD855,#FA92F8,10,0,1,38,1,871.6999999880791,37,1,256.10000002384186,10,1,experiment,NA,NA,0,0.9,0.1,0,1,199,5,NA
fcp-trial,234,910114,0.0-209.0-0.0,voc_e2,12111,"[{""event"":""fullscreenenter"",""trial"":1,""time"":1724}]",NA,NA,NA,NA,NA,3,#741CD8,#D8271C,0,10,0,38,1,732.7000000476837,39,0,267.0999999642372,10,1,experiment,NA,NA,1,0.3,0.7,3,2,200,5,NA
fcp-trial,235,913615,0.0-210.0-0.0,voc_e2,12111,"[{""event"":""fullscreenenter"",""trial"":1,""time"":1724}]",NA,NA,NA,NA,NA,6,#FA92F8,#1CD855,0,10,0,38,1,1461,39,0,529.9000000357628,10,1,experiment,NA,NA,0,0.1,0.9,1,0,201,5,NA
fcp-trial,236,915917,0.0-211.0-0.0,voc_e2,12111,"[{""event"":""fullscreenenter"",""trial"":1,""time"":1724}]",NA,NA,NA,NA,NA,4,#3386FF,#D89F1C,10,10,1,38,1,464.4000000357628,39,0,327.19999998807907,10,0,experiment,NA,NA,2,0.5,0.5,4,5,202,5,NA
fcp-trial,237,919006,0.0-212.0-0.0,voc_e2,12111,"[{""event"":""fullscreenenter"",""trial"":1,""time"":1724}]",NA,NA,NA,NA,NA,6,#741CD8,#D8271C,0,10,0,38,1,1047.3999999761581,39,0,533,10,1,experiment,NA,NA,1,0.3,0.7,3,2,203,5,NA
fcp-trial,238,922638,0.0-213.0-0.0,voc_e2,12111,"[{""event"":""fullscreenenter"",""trial"":1,""time"":1724}]",NA,NA,NA,NA,NA,4,#1CD855,#FA92F8,10,0,1,38,1,1609.8999999761581,37,1,514.3000000119209,10,1,experiment,NA,NA,0,0.9,0.1,0,1,204,5,NA
fcp-trial,239,925472,0.0-214.0-0.0,voc_e2,12111,"[{""event"":""fullscreenenter"",""trial"":1,""time"":1724}]",NA,NA,NA,NA,NA,0,#D89F1C,#3386FF,0,10,0,38,1,812.1999999880791,37,1,514.9000000357628,0,0,experiment,NA,NA,2,0.5,0.5,5,4,205,5,NA
fcp-trial,240,927766,0.0-215.0-0.0,voc_e2,12111,"[{""event"":""fullscreenenter"",""trial"":1,""time"":1724}]",NA,NA,NA,NA,NA,6,#D89F1C,#3386FF,0,10,0,38,1,343.7999999523163,37,1,442.60000002384186,0,0,experiment,NA,NA,2,0.5,0.5,5,4,206,5,NA
fcp-trial,241,930051,0.0-216.0-0.0,voc_e2,12111,"[{""event"":""fullscreenenter"",""trial"":1,""time"":1724}]",NA,NA,NA,NA,NA,5,#3386FF,#D89F1C,10,0,1,38,1,376.69999998807907,39,0,398.199999988079,0,0,experiment,NA,NA,2,0.5,0.5,4,5,207,5,NA
fcp-trial,242,932412,0.0-217.0-0.0,voc_e2,12111,"[{""event"":""fullscreenenter"",""trial"":1,""time"":1724}]",NA,NA,NA,NA,NA,0,#741CD8,#D8271C,10,0,0,38,1,335.89999997615814,39,0,512.8999999761581,0,1,experiment,NA,NA,1,0.3,0.7,3,2,208,5,NA
fcp-trial,243,934765,0.0-218.0-0.0,voc_e2,12111,"[{""event"":""fullscreenenter"",""trial"":1,""time"":1724}]",NA,NA,NA,NA,NA,0,#1CD855,#FA92F8,10,0,1,38,1,390.39999997615814,37,1,453.89999997615814,10,1,experiment,NA,NA,0,0.9,0.1,0,1,209,5,NA
fcp-trial,244,936913,0.0-219.0-0.0,voc_e2,12111,"[{""event"":""fullscreenenter"",""trial"":1,""time"":1724}]",NA,NA,NA,NA,NA,5,#741CD8,#D8271C,10,10,0,38,1,270.30000001192093,39,0,372.699999988079,10,1,experiment,NA,NA,1,0.3,0.7,3,2,210,5,NA
audio-instructions,245,951386,0.0-220.0,voc_e2,12111,"[{""event"":""fullscreenenter"",""trial"":1,""time"":1724}]",NA,10003.19999998808,static/audio/pause.wav,NA,0,NA,NA,NA,NA,NA,NA,NA,NA,NA,NA,NA,NA,NA,NA,NA,NA,NA,NA,NA,NA,NA,NA,NA,NA,NA
fcp-trial,246,955518,0.0-221.0-0.0,voc_e2,12111,"[{""event"":""fullscreenenter"",""trial"":1,""time"":1724}]",NA,NA,NA,NA,NA,1,#1CD855,#FA92F8,10,0,1,38,1,1894.8999999761581,37,1,727.5,10,1,experiment,NA,NA,0,0.9,0.1,0,1,211,5,NA
fcp-trial,247,958085,0.0-222.0-0.0,voc_e2,12111,"[{""event"":""fullscreenenter"",""trial"":1,""time"":1724}]",NA,NA,NA,NA,NA,3,#1CD855,#FA92F8,10,0,1,38,1,583.1999999880791,37,1,473.0999999642372,10,1,experiment,NA,NA,0,0.9,0.1,0,1,212,5,NA
fcp-trial,248,960722,0.0-223.0-0.0,voc_e2,12111,"[{""event"":""fullscreenenter"",""trial"":1,""time"":1724}]",NA,NA,NA,NA,NA,0,#1CD855,#FA92F8,10,0,1,38,1,680.8999999761581,37,1,449.199999988079,10,1,experiment,NA,NA,0,0.9,0.1,0,1,213,5,NA
fcp-trial,249,963421,0.0-224.0-0.0,voc_e2,12111,"[{""event"":""fullscreenenter"",""trial"":1,""time"":1724}]",NA,NA,NA,NA,NA,2,#3386FF,#D89F1C,0,0,1,38,1,665.3000000119209,39,0,526.8000000119209,0,0,experiment,NA,NA,2,0.5,0.5,4,5,214,5,NA
fcp-trial,250,965967,0.0-225.0-0.0,voc_e2,12111,"[{""event"":""fullscreenenter"",""trial"":1,""time"":1724}]",NA,NA,NA,NA,NA,4,#741CD8,#D8271C,10,10,0,38,1,535.5999999642372,39,0,500.699999988079,10,1,experiment,NA,NA,1,0.3,0.7,3,2,215,5,NA
fcp-trial,251,968504,0.0-226.0-0.0,voc_e2,12111,"[{""event"":""fullscreenenter"",""trial"":1,""time"":1724}]",NA,NA,NA,NA,NA,3,#D89F1C,#3386FF,10,10,0,38,1,555.6000000238419,37,1,470.5,10,0,experiment,NA,NA,2,0.5,0.5,5,4,216,5,NA
fcp-trial,252,971071,0.0-227.0-0.0,voc_e2,12111,"[{""event"":""fullscreenenter"",""trial"":1,""time"":1724}]",NA,NA,NA,NA,NA,4,#1CD855,#FA92F8,10,0,1,38,1,628.1999999880791,37,1,432.5,10,1,experiment,NA,NA,0,0.9,0.1,0,1,217,5,NA
fcp-trial,253,973445,0.0-228.0-0.0,voc_e2,12111,"[{""event"":""fullscreenenter"",""trial"":1,""time"":1724}]",NA,NA,NA,NA,NA,5,#3386FF,#D89F1C,0,10,1,38,1,411.80000001192093,39,0,454.7000000476837,10,0,experiment,NA,NA,2,0.5,0.5,4,5,218,5,NA
fcp-trial,254,975938,0.0-229.0-0.0,voc_e2,12111,"[{""event"":""fullscreenenter"",""trial"":1,""time"":1724}]",NA,NA,NA,NA,NA,0,#D8271C,#741CD8,10,0,1,38,1,548.8000000119209,37,1,436.9000000357628,10,1,experiment,NA,NA,1,0.7,0.3,2,3,219,5,NA
fcp-trial,255,978208,0.0-230.0-0.0,voc_e2,12111,"[{""event"":""fullscreenenter"",""trial"":1,""time"":1724}]",NA,NA,NA,NA,NA,3,#D8271C,#741CD8,10,10,1,38,1,385.39999997615814,37,1,376.300000011921,10,1,experiment,NA,NA,1,0.7,0.3,2,3,220,5,NA
fcp-trial,256,980571,0.0-231.0-0.0,voc_e2,12111,"[{""event"":""fullscreenenter"",""trial"":1,""time"":1724}]",NA,NA,NA,NA,NA,6,#741CD8,#D8271C,0,10,0,38,1,577.9000000357628,39,0,276.89999997615814,10,1,experiment,NA,NA,1,0.3,0.7,3,2,221,5,NA
fcp-trial,257,983056,0.0-232.0-0.0,voc_e2,12111,"[{""event"":""fullscreenenter"",""trial"":1,""time"":1724}]",NA,NA,NA,NA,NA,2,#FA92F8,#1CD855,0,10,0,38,1,583.3000000119209,39,0,393.5999999642372,10,1,experiment,NA,NA,0,0.1,0.9,1,0,222,5,NA
fcp-trial,258,985948,0.0-233.0-0.0,voc_e2,12111,"[{""event"":""fullscreenenter"",""trial"":1,""time"":1724}]",NA,NA,NA,NA,NA,1,#3386FF,#D89F1C,0,0,1,38,1,801.5,39,0,580.8999999761581,0,0,experiment,NA,NA,2,0.5,0.5,4,5,223,5,NA
fcp-trial,259,988073,0.0-234.0-0.0,voc_e2,12111,"[{""event"":""fullscreenenter"",""trial"":1,""time"":1724}]",NA,NA,NA,NA,NA,2,#741CD8,#D8271C,10,0,0,38,1,219.30000001192093,39,0,395.5,0,1,experiment,NA,NA,1,0.3,0.7,3,2,224,5,NA
fcp-trial,260,990134,0.0-235.0-0.0,voc_e2,12111,"[{""event"":""fullscreenenter"",""trial"":1,""time"":1724}]",NA,NA,NA,NA,NA,5,#741CD8,#D8271C,0,10,0,38,1,300,39,0,254.30000001192093,10,1,experiment,NA,NA,1,0.3,0.7,3,2,225,5,NA
fcp-trial,261,992239,0.0-236.0-0.0,voc_e2,12111,"[{""event"":""fullscreenenter"",""trial"":1,""time"":1724}]",NA,NA,NA,NA,NA,4,#D89F1C,#3386FF,10,0,0,38,1,296.30000001192093,37,1,299,10,0,experiment,NA,NA,2,0.5,0.5,5,4,226,6,NA
fcp-trial,262,994734,0.0-237.0-0.0,voc_e2,12111,"[{""event"":""fullscreenenter"",""trial"":1,""time"":1724}]",NA,NA,NA,NA,NA,5,#1CD855,#FA92F8,10,0,1,38,1,388.39999997615814,37,1,598.1000000238419,10,1,experiment,NA,NA,0,0.9,0.1,0,1,227,6,NA
fcp-trial,263,997957,0.0-238.0-0.0,voc_e2,12111,"[{""event"":""fullscreenenter"",""trial"":1,""time"":1724}]",NA,NA,NA,NA,NA,1,#741CD8,#D8271C,10,10,0,38,1,407.0999999642372,39,0,1310.399999976158,10,1,experiment,NA,NA,1,0.3,0.7,3,2,228,6,NA
fcp-trial,264,1000339,0.0-239.0-0.0,voc_e2,12111,"[{""event"":""fullscreenenter"",""trial"":1,""time"":1724}]",NA,NA,NA,NA,NA,6,#3386FF,#D89F1C,0,0,1,38,1,574.0999999642372,39,0,299.80000001192093,0,0,experiment,NA,NA,2,0.5,0.5,4,5,229,6,NA
fcp-trial,265,1002597,0.0-240.0-0.0,voc_e2,12111,"[{""event"":""fullscreenenter"",""trial"":1,""time"":1724}]",NA,NA,NA,NA,NA,6,#FA92F8,#1CD855,0,10,0,38,1,462.5999999642372,39,0,286.60000002384186,10,1,experiment,NA,NA,0,0.1,0.9,1,0,230,6,NA
fcp-trial,266,1004971,0.0-241.0-0.0,voc_e2,12111,"[{""event"":""fullscreenenter"",""trial"":1,""time"":1724}]",NA,NA,NA,NA,NA,0,#D89F1C,#3386FF,0,0,0,38,1,543.3999999761581,37,1,322.39999997615814,0,0,experiment,NA,NA,2,0.5,0.5,5,4,231,6,NA
fcp-trial,267,1007221,0.0-242.0-0.0,voc_e2,12111,"[{""event"":""fullscreenenter"",""trial"":1,""time"":1724}]",NA,NA,NA,NA,NA,4,#741CD8,#D8271C,0,0,0,38,1,383.9000000357628,39,0,358.5999999642372,0,1,experiment,NA,NA,1,0.3,0.7,3,2,232,6,NA
fcp-trial,268,1009466,0.0-243.0-0.0,voc_e2,12111,"[{""event"":""fullscreenenter"",""trial"":1,""time"":1724}]",NA,NA,NA,NA,NA,4,#3386FF,#D89F1C,10,0,1,38,1,344.39999997615814,39,0,391.9000000357628,0,0,experiment,NA,NA,2,0.5,0.5,4,5,233,6,NA
fcp-trial,269,1011688,0.0-244.0-0.0,voc_e2,12111,"[{""event"":""fullscreenenter"",""trial"":1,""time"":1724}]",NA,NA,NA,NA,NA,4,#FA92F8,#1CD855,0,10,0,38,1,347.10000002384186,39,0,366,10,1,experiment,NA,NA,0,0.1,0.9,1,0,234,6,NA
fcp-trial,270,1013872,0.0-245.0-0.0,voc_e2,12111,"[{""event"":""fullscreenenter"",""trial"":1,""time"":1724}]",NA,NA,NA,NA,NA,0,#741CD8,#D8271C,10,10,0,38,1,346.2999999523163,39,0,330.60000002384186,10,1,experiment,NA,NA,1,0.3,0.7,3,2,235,6,NA
fcp-trial,271,1015863,0.0-246.0-0.0,voc_e2,12111,"[{""event"":""fullscreenenter"",""trial"":1,""time"":1724}]",NA,NA,NA,NA,NA,3,#FA92F8,#1CD855,0,10,0,38,1,227.89999997615814,39,0,254.80000001192093,10,1,experiment,NA,NA,0,0.1,0.9,1,0,236,6,NA
fcp-trial,272,1018098,0.0-247.0-0.0,voc_e2,12111,"[{""event"":""fullscreenenter"",""trial"":1,""time"":1724}]",NA,NA,NA,NA,NA,5,#1CD855,#FA92F8,10,0,1,38,1,195.69999998807907,37,1,530.6999999880791,10,1,experiment,NA,NA,0,0.9,0.1,0,1,237,6,NA
fcp-trial,273,1020276,0.0-248.0-0.0,voc_e2,12111,"[{""event"":""fullscreenenter"",""trial"":1,""time"":1724}]",NA,NA,NA,NA,NA,6,#3386FF,#D89F1C,0,0,1,38,1,393.60000002384186,39,0,274.5,0,0,experiment,NA,NA,2,0.5,0.5,4,5,238,6,NA
fcp-trial,274,1022455,0.0-249.0-0.0,voc_e2,12111,"[{""event"":""fullscreenenter"",""trial"":1,""time"":1724}]",NA,NA,NA,NA,NA,5,#741CD8,#D8271C,0,0,0,38,1,254.69999998807907,39,0,415.699999988079,0,1,experiment,NA,NA,1,0.3,0.7,3,2,239,6,NA
fcp-trial,275,1024598,0.0-250.0-0.0,voc_e2,12111,"[{""event"":""fullscreenenter"",""trial"":1,""time"":1724}]",NA,NA,NA,NA,NA,6,#FA92F8,#1CD855,0,10,0,38,1,322.5,39,0,313.60000002384186,10,1,experiment,NA,NA,0,0.1,0.9,1,0,240,6,NA
fcp-trial,276,1026660,0.0-251.0-0.0,voc_e2,12111,"[{""event"":""fullscreenenter"",""trial"":1,""time"":1724}]",NA,NA,NA,NA,NA,2,#FA92F8,#1CD855,0,10,0,38,1,234.10000002384186,39,0,319.39999997615814,10,1,experiment,NA,NA,0,0.1,0.9,1,0,241,6,NA
fcp-trial,277,1028740,0.0-252.0-0.0,voc_e2,12111,"[{""event"":""fullscreenenter"",""trial"":1,""time"":1724}]",NA,NA,NA,NA,NA,1,#741CD8,#D8271C,0,10,0,38,1,242.80000001192093,39,0,328.39999997615814,10,1,experiment,NA,NA,1,0.3,0.7,3,2,242,6,NA
fcp-trial,278,1030886,0.0-253.0-0.0,voc_e2,12111,"[{""event"":""fullscreenenter"",""trial"":1,""time"":1724}]",NA,NA,NA,NA,NA,3,#D89F1C,#3386FF,0,0,0,38,1,169.5,37,1,469.39999997615814,0,0,experiment,NA,NA,2,0.5,0.5,5,4,243,6,NA
fcp-trial,279,1033120,0.0-254.0-0.0,voc_e2,12111,"[{""event"":""fullscreenenter"",""trial"":1,""time"":1724}]",NA,NA,NA,NA,NA,1,#1CD855,#FA92F8,10,0,1,38,1,345.80000001192093,37,1,382.0999999642372,10,1,experiment,NA,NA,0,0.9,0.1,0,1,244,6,NA
fcp-trial,280,1035287,0.0-255.0-0.0,voc_e2,12111,"[{""event"":""fullscreenenter"",""trial"":1,""time"":1724}]",NA,NA,NA,NA,NA,1,#3386FF,#D89F1C,0,10,1,38,1,311.89999997615814,39,0,348.2999999523163,10,0,experiment,NA,NA,2,0.5,0.5,4,5,245,6,NA
fcp-trial,281,1037407,0.0-256.0-0.0,voc_e2,12111,"[{""event"":""fullscreenenter"",""trial"":1,""time"":1724}]",NA,NA,NA,NA,NA,0,#3386FF,#D89F1C,0,10,1,38,1,256,39,0,355.89999997615814,10,0,experiment,NA,NA,2,0.5,0.5,4,5,246,6,NA
fcp-trial,282,1039598,0.0-257.0-0.0,voc_e2,12111,"[{""event"":""fullscreenenter"",""trial"":1,""time"":1724}]",NA,NA,NA,NA,NA,6,#741CD8,#D8271C,0,10,0,38,1,416.7000000476837,39,0,265.60000002384186,10,1,experiment,NA,NA,1,0.3,0.7,3,2,247,6,NA
fcp-trial,283,1041763,0.0-258.0-0.0,voc_e2,12111,"[{""event"":""fullscreenenter"",""trial"":1,""time"":1724}]",NA,NA,NA,NA,NA,5,#D89F1C,#3386FF,10,0,0,38,1,280.9000000357628,37,1,374.10000002384186,10,0,experiment,NA,NA,2,0.5,0.5,5,4,248,6,NA
fcp-trial,284,1043887,0.0-259.0-0.0,voc_e2,12111,"[{""event"":""fullscreenenter"",""trial"":1,""time"":1724}]",NA,NA,NA,NA,NA,0,#1CD855,#FA92F8,10,10,1,38,1,240.60000002384186,37,1,374.4000000357628,10,1,experiment,NA,NA,0,0.9,0.1,0,1,249,6,NA
fcp-trial,285,1046032,0.0-260.0-0.0,voc_e2,12111,"[{""event"":""fullscreenenter"",""trial"":1,""time"":1724}]",NA,NA,NA,NA,NA,2,#741CD8,#D8271C,10,0,0,38,1,278.10000002384186,39,0,358.69999998807907,0,1,experiment,NA,NA,1,0.3,0.7,3,2,250,6,NA
fcp-trial,286,1048029,0.0-261.0-0.0,voc_e2,12111,"[{""event"":""fullscreenenter"",""trial"":1,""time"":1724}]",NA,NA,NA,NA,NA,3,#741CD8,#D8271C,0,10,0,38,1,133.5,39,0,354.9000000357628,10,1,experiment,NA,NA,1,0.3,0.7,3,2,251,6,NA
fcp-trial,287,1050314,0.0-262.0-0.0,voc_e2,12111,"[{""event"":""fullscreenenter"",""trial"":1,""time"":1724}]",NA,NA,NA,NA,NA,2,#D89F1C,#3386FF,0,10,0,38,1,415.19999998807907,37,1,360.0999999642372,0,0,experiment,NA,NA,2,0.5,0.5,5,4,252,6,NA
fcp-trial,288,1052605,0.0-263.0-0.0,voc_e2,12111,"[{""event"":""fullscreenenter"",""trial"":1,""time"":1724}]",NA,NA,NA,NA,NA,1,#3386FF,#D89F1C,10,0,1,38,1,410.89999997615814,39,0,371.199999988079,0,0,experiment,NA,NA,2,0.5,0.5,4,5,253,6,NA
fcp-trial,289,1054855,0.0-264.0-0.0,voc_e2,12111,"[{""event"":""fullscreenenter"",""trial"":1,""time"":1724}]",NA,NA,NA,NA,NA,5,#741CD8,#D8271C,0,10,0,38,1,376.30000001192093,39,0,364.5999999642372,10,1,experiment,NA,NA,1,0.3,0.7,3,2,254,6,NA
fcp-trial,290,1056995,0.0-265.0-0.0,voc_e2,12111,"[{""event"":""fullscreenenter"",""trial"":1,""time"":1724}]",NA,NA,NA,NA,NA,1,#FA92F8,#1CD855,0,10,0,38,1,320.5999999642372,39,0,313.19999998807907,10,1,experiment,NA,NA,0,0.1,0.9,1,0,255,6,NA
fcp-trial,291,1059454,0.0-266.0-0.0,voc_e2,12111,"[{""event"":""fullscreenenter"",""trial"":1,""time"":1724}]",NA,NA,NA,NA,NA,1,#D8271C,#741CD8,0,0,1,38,1,318.60000002384186,37,1,633.3999999761581,0,1,experiment,NA,NA,1,0.7,0.3,2,3,256,6,NA
fcp-trial,292,1061437,0.0-267.0-0.0,voc_e2,12111,"[{""event"":""fullscreenenter"",""trial"":1,""time"":1724}]",NA,NA,NA,NA,NA,6,#D8271C,#741CD8,10,10,1,38,1,126.5,37,1,349.89999997615814,10,1,experiment,NA,NA,1,0.7,0.3,2,3,257,6,NA
fcp-trial,293,1063422,0.0-268.0-0.0,voc_e2,12111,"[{""event"":""fullscreenenter"",""trial"":1,""time"":1724}]",NA,NA,NA,NA,NA,5,#3386FF,#D89F1C,10,0,1,38,1,135.89999997615814,39,0,340.5,0,0,experiment,NA,NA,2,0.5,0.5,4,5,258,6,NA
fcp-trial,294,1066469,0.0-269.0-0.0,voc_e2,12111,"[{""event"":""fullscreenenter"",""trial"":1,""time"":1724}]",NA,NA,NA,NA,NA,5,#FA92F8,#1CD855,0,10,0,38,1,1128.699999988079,39,0,411.9000000357628,10,1,experiment,NA,NA,0,0.1,0.9,1,0,259,6,NA
fcp-trial,295,1068487,0.0-270.0-0.0,voc_e2,12111,"[{""event"":""fullscreenenter"",""trial"":1,""time"":1724}]",NA,NA,NA,NA,NA,4,#741CD8,#D8271C,10,10,0,38,1,112.80000001192093,39,0,398.5,10,1,experiment,NA,NA,1,0.3,0.7,3,2,260,6,NA
fcp-trial,296,1070637,0.0-271.0-0.0,voc_e2,12111,"[{""event"":""fullscreenenter"",""trial"":1,""time"":1724}]",NA,NA,NA,NA,NA,2,#3386FF,#D89F1C,10,10,1,38,1,278.5,39,0,364.5,10,0,experiment,NA,NA,2,0.5,0.5,4,5,261,6,NA
fcp-trial,297,1072970,0.0-272.0-0.0,voc_e2,12111,"[{""event"":""fullscreenenter"",""trial"":1,""time"":1724}]",NA,NA,NA,NA,NA,2,#1CD855,#FA92F8,10,0,1,38,1,527.5,37,1,298,10,1,experiment,NA,NA,0,0.9,0.1,0,1,262,6,NA
fcp-trial,298,1075455,0.0-273.0-0.0,voc_e2,12111,"[{""event"":""fullscreenenter"",""trial"":1,""time"":1724}]",NA,NA,NA,NA,NA,0,#FA92F8,#1CD855,0,0,0,38,1,531.3999999761581,39,0,445.699999988079,0,1,experiment,NA,NA,0,0.1,0.9,1,0,263,6,NA
fcp-trial,299,1077587,0.0-274.0-0.0,voc_e2,12111,"[{""event"":""fullscreenenter"",""trial"":1,""time"":1724}]",NA,NA,NA,NA,NA,3,#FA92F8,#1CD855,0,10,0,38,1,284.30000001192093,39,0,339.39999997615814,10,1,experiment,NA,NA,0,0.1,0.9,1,0,264,6,NA
fcp-trial,300,1079841,0.0-275.0-0.0,voc_e2,12111,"[{""event"":""fullscreenenter"",""trial"":1,""time"":1724}]",NA,NA,NA,NA,NA,0,#D8271C,#741CD8,10,10,1,38,1,404,37,1,341,10,1,experiment,NA,NA,1,0.7,0.3,2,3,265,6,NA
fcp-trial,301,1081970,0.0-276.0-0.0,voc_e2,12111,"[{""event"":""fullscreenenter"",""trial"":1,""time"":1724}]",NA,NA,NA,NA,NA,4,#D89F1C,#3386FF,0,0,0,38,1,328.69999998807907,37,1,292.5999999642372,0,0,experiment,NA,NA,2,0.5,0.5,5,4,266,6,NA
fcp-trial,302,1084140,0.0-277.0-0.0,voc_e2,12111,"[{""event"":""fullscreenenter"",""trial"":1,""time"":1724}]",NA,NA,NA,NA,NA,3,#741CD8,#D8271C,0,10,0,38,1,296.80000001192093,39,0,365.199999988079,10,1,experiment,NA,NA,1,0.3,0.7,3,2,267,6,NA
fcp-trial,303,1086899,0.0-278.0-0.0,voc_e2,12111,"[{""event"":""fullscreenenter"",""trial"":1,""time"":1724}]",NA,NA,NA,NA,NA,0,#D89F1C,#3386FF,10,0,0,38,1,366.5999999642372,37,1,884.8000000119209,10,0,experiment,NA,NA,2,0.5,0.5,5,4,268,6,NA
fcp-trial,304,1090932,0.0-279.0-0.0,voc_e2,12111,"[{""event"":""fullscreenenter"",""trial"":1,""time"":1724}]",NA,NA,NA,NA,NA,4,#1CD855,#FA92F8,10,0,1,38,1,2156.5,37,1,368.699999988079,10,1,experiment,NA,NA,0,0.9,0.1,0,1,269,6,NA
fcp-trial,305,1094415,0.0-280.0-0.0,voc_e2,12111,"[{""event"":""fullscreenenter"",""trial"":1,""time"":1724}]",NA,NA,NA,NA,NA,2,#D8271C,#741CD8,10,10,1,38,1,1535.1000000238419,37,1,437.60000002384186,10,1,experiment,NA,NA,1,0.7,0.3,2,3,270,6,NA
fcp-trial,306,1096754,0.0-281.0-0.0,voc_e2,12111,"[{""event"":""fullscreenenter"",""trial"":1,""time"":1724}]",NA,NA,NA,NA,NA,6,#FA92F8,#1CD855,0,10,0,38,1,457.69999998807907,39,0,370.39999997615814,10,1,experiment,NA,NA,0,0.1,0.9,1,0,271,7,NA
fcp-trial,307,1099245,0.0-282.0-0.0,voc_e2,12111,"[{""event"":""fullscreenenter"",""trial"":1,""time"":1724}]",NA,NA,NA,NA,NA,6,#3386FF,#D89F1C,10,0,1,38,1,490.30000001192093,39,0,494.300000011921,0,0,experiment,NA,NA,2,0.5,0.5,4,5,272,7,NA
fcp-trial,308,1101554,0.0-283.0-0.0,voc_e2,12111,"[{""event"":""fullscreenenter"",""trial"":1,""time"":1724}]",NA,NA,NA,NA,NA,3,#D89F1C,#3386FF,0,0,0,38,1,408.5,37,1,392.300000011921,0,0,experiment,NA,NA,2,0.5,0.5,5,4,273,7,NA
fcp-trial,309,1103699,0.0-284.0-0.0,voc_e2,12111,"[{""event"":""fullscreenenter"",""trial"":1,""time"":1724}]",NA,NA,NA,NA,NA,0,#D8271C,#741CD8,0,0,1,38,1,95.80000001192093,37,1,541.8000000119209,0,1,experiment,NA,NA,1,0.7,0.3,2,3,274,7,NA
fcp-trial,310,1105769,0.0-285.0-0.0,voc_e2,12111,"[{""event"":""fullscreenenter"",""trial"":1,""time"":1724}]",NA,NA,NA,NA,NA,6,#D8271C,#741CD8,0,0,1,38,1,254.10000002384186,37,1,306.0999999642372,0,1,experiment,NA,NA,1,0.7,0.3,2,3,275,7,NA
fcp-trial,311,1108220,0.0-286.0-0.0,voc_e2,12111,"[{""event"":""fullscreenenter"",""trial"":1,""time"":1724}]",NA,NA,NA,NA,NA,1,#1CD855,#FA92F8,10,0,1,38,1,279,37,1,664.3999999761581,10,1,experiment,NA,NA,0,0.9,0.1,0,1,276,7,NA
fcp-trial,312,1111771,0.0-287.0-0.0,voc_e2,12111,"[{""event"":""fullscreenenter"",""trial"":1,""time"":1724}]",NA,NA,NA,NA,NA,6,#D89F1C,#3386FF,10,0,0,38,1,1697.9000000357628,37,1,345.39999997615814,10,0,experiment,NA,NA,2,0.5,0.5,5,4,277,7,NA
fcp-trial,313,1115887,0.0-288.0-0.0,voc_e2,12111,"[{""event"":""fullscreenenter"",""trial"":1,""time"":1724}]",NA,NA,NA,NA,NA,0,#D89F1C,#3386FF,10,10,0,38,1,2270.300000011921,37,1,338.30000001192093,10,0,experiment,NA,NA,2,0.5,0.5,5,4,278,7,NA
fcp-trial,314,1118376,0.0-289.0-0.0,voc_e2,12111,"[{""event"":""fullscreenenter"",""trial"":1,""time"":1724}]",NA,NA,NA,NA,NA,0,#1CD855,#FA92F8,0,0,1,38,1,514.3000000119209,37,1,466.300000011921,0,1,experiment,NA,NA,0,0.9,0.1,0,1,279,7,NA
fcp-trial,315,1120580,0.0-290.0-0.0,voc_e2,12111,"[{""event"":""fullscreenenter"",""trial"":1,""time"":1724}]",NA,NA,NA,NA,NA,3,#741CD8,#D8271C,0,10,0,38,1,388.5,39,0,307.4000000357628,10,1,experiment,NA,NA,1,0.3,0.7,3,2,280,7,NA
fcp-trial,316,1124270,0.0-291.0-0.0,voc_e2,12111,"[{""event"":""fullscreenenter"",""trial"":1,""time"":1724}]",NA,NA,NA,NA,NA,4,#1CD855,#FA92F8,10,0,1,38,1,1879.1000000238419,37,1,301.2000000476837,10,1,experiment,NA,NA,0,0.9,0.1,0,1,281,7,NA
fcp-trial,317,1126731,0.0-292.0-0.0,voc_e2,12111,"[{""event"":""fullscreenenter"",""trial"":1,""time"":1724}]",NA,NA,NA,NA,NA,1,#D89F1C,#3386FF,0,0,0,38,1,567.6999999880791,37,1,385.300000011921,0,0,experiment,NA,NA,2,0.5,0.5,5,4,282,7,NA
fcp-trial,318,1128938,0.0-293.0-0.0,voc_e2,12111,"[{""event"":""fullscreenenter"",""trial"":1,""time"":1724}]",NA,NA,NA,NA,NA,6,#FA92F8,#1CD855,0,10,0,38,1,277.0999999642372,39,0,420,10,1,experiment,NA,NA,0,0.1,0.9,1,0,283,7,NA
fcp-trial,319,1131230,0.0-294.0-0.0,voc_e2,12111,"[{""event"":""fullscreenenter"",""trial"":1,""time"":1724}]",NA,NA,NA,NA,NA,2,#3386FF,#D89F1C,0,10,1,38,1,379.9000000357628,37,1,404.39999997615814,0,1,experiment,NA,NA,2,0.5,0.5,4,5,284,7,NA
fcp-trial,320,1133737,0.0-295.0-0.0,voc_e2,12111,"[{""event"":""fullscreenenter"",""trial"":1,""time"":1724}]",NA,NA,NA,NA,NA,1,#741CD8,#D8271C,0,0,0,38,1,564.1000000238419,39,0,433,0,1,experiment,NA,NA,1,0.3,0.7,3,2,285,7,NA
fcp-trial,321,1135954,0.0-296.0-0.0,voc_e2,12111,"[{""event"":""fullscreenenter"",""trial"":1,""time"":1724}]",NA,NA,NA,NA,NA,3,#FA92F8,#1CD855,0,10,0,38,1,299.10000002384186,37,1,409.39999997615814,0,0,experiment,NA,NA,0,0.1,0.9,1,0,286,7,NA
fcp-trial,322,1138146,0.0-297.0-0.0,voc_e2,12111,"[{""event"":""fullscreenenter"",""trial"":1,""time"":1724}]",NA,NA,NA,NA,NA,4,#3386FF,#D89F1C,10,10,1,38,1,68.90000003576279,37,1,614.6000000238419,10,1,experiment,NA,NA,2,0.5,0.5,4,5,287,7,NA
fcp-trial,323,1140465,0.0-298.0-0.0,voc_e2,12111,"[{""event"":""fullscreenenter"",""trial"":1,""time"":1724}]",NA,NA,NA,NA,NA,2,#D8271C,#741CD8,10,0,1,38,1,432.30000001192093,37,1,375.5,10,1,experiment,NA,NA,1,0.7,0.3,2,3,288,7,NA
fcp-trial,324,1142605,0.0-299.0-0.0,voc_e2,12111,"[{""event"":""fullscreenenter"",""trial"":1,""time"":1724}]",NA,NA,NA,NA,NA,4,#741CD8,#D8271C,10,0,0,38,1,314.2999999523163,39,0,315.80000001192093,0,1,experiment,NA,NA,1,0.3,0.7,3,2,289,7,NA
fcp-trial,325,1144824,0.0-300.0-0.0,voc_e2,12111,"[{""event"":""fullscreenenter"",""trial"":1,""time"":1724}]",NA,NA,NA,NA,NA,2,#FA92F8,#1CD855,0,0,0,38,1,393.9000000357628,39,0,317.60000002384186,0,1,experiment,NA,NA,0,0.1,0.9,1,0,290,7,NA
fcp-trial,326,1146987,0.0-301.0-0.0,voc_e2,12111,"[{""event"":""fullscreenenter"",""trial"":1,""time"":1724}]",NA,NA,NA,NA,NA,5,#3386FF,#D89F1C,10,10,1,38,1,355.60000002384186,39,0,299.30000001192093,10,0,experiment,NA,NA,2,0.5,0.5,4,5,291,7,NA
fcp-trial,327,1149059,0.0-302.0-0.0,voc_e2,12111,"[{""event"":""fullscreenenter"",""trial"":1,""time"":1724}]",NA,NA,NA,NA,NA,5,#FA92F8,#1CD855,0,10,0,38,1,151,39,0,412.300000011921,10,1,experiment,NA,NA,0,0.1,0.9,1,0,292,7,NA
fcp-trial,328,1151486,0.0-303.0-0.0,voc_e2,12111,"[{""event"":""fullscreenenter"",""trial"":1,""time"":1724}]",NA,NA,NA,NA,NA,3,#3386FF,#D89F1C,10,10,1,38,1,165.30000001192093,39,0,753.2000000476837,10,0,experiment,NA,NA,2,0.5,0.5,4,5,293,7,NA
fcp-trial,329,1153586,0.0-304.0-0.0,voc_e2,12111,"[{""event"":""fullscreenenter"",""trial"":1,""time"":1724}]",NA,NA,NA,NA,NA,5,#741CD8,#D8271C,10,10,0,38,1,322.60000002384186,39,0,270.30000001192093,10,1,experiment,NA,NA,1,0.3,0.7,3,2,294,7,NA
fcp-trial,330,1156030,0.0-305.0-0.0,voc_e2,12111,"[{""event"":""fullscreenenter"",""trial"":1,""time"":1724}]",NA,NA,NA,NA,NA,2,#1CD855,#FA92F8,10,0,1,38,1,411.7999999523163,37,1,524.1000000238419,10,1,experiment,NA,NA,0,0.9,0.1,0,1,295,7,NA
fcp-trial,331,1158414,0.0-306.0-0.0,voc_e2,12111,"[{""event"":""fullscreenenter"",""trial"":1,""time"":1724}]",NA,NA,NA,NA,NA,0,#D89F1C,#3386FF,10,10,0,38,1,465.19999998807907,37,1,409.199999988079,10,0,experiment,NA,NA,2,0.5,0.5,5,4,296,7,NA
fcp-trial,332,1161153,0.0-307.0-0.0,voc_e2,12111,"[{""event"":""fullscreenenter"",""trial"":1,""time"":1724}]",NA,NA,NA,NA,NA,6,#741CD8,#D8271C,0,10,0,38,1,430.9000000357628,39,0,799.1999999880791,10,1,experiment,NA,NA,1,0.3,0.7,3,2,297,7,NA
fcp-trial,333,1163364,0.0-308.0-0.0,voc_e2,12111,"[{""event"":""fullscreenenter"",""trial"":1,""time"":1724}]",NA,NA,NA,NA,NA,3,#1CD855,#FA92F8,10,0,1,38,1,415.39999997615814,37,1,286.5,10,1,experiment,NA,NA,0,0.9,0.1,0,1,298,7,NA
fcp-trial,334,1165553,0.0-309.0-0.0,voc_e2,12111,"[{""event"":""fullscreenenter"",""trial"":1,""time"":1724}]",NA,NA,NA,NA,NA,6,#3386FF,#D89F1C,0,10,1,38,1,374.7000000476837,39,0,305,10,0,experiment,NA,NA,2,0.5,0.5,4,5,299,7,NA
fcp-trial,335,1167628,0.0-310.0-0.0,voc_e2,12111,"[{""event"":""fullscreenenter"",""trial"":1,""time"":1724}]",NA,NA,NA,NA,NA,5,#D8271C,#741CD8,10,10,1,38,1,280.69999998807907,37,1,286.30000001192093,10,1,experiment,NA,NA,1,0.7,0.3,2,3,300,7,NA
fcp-trial,336,1170058,0.0-311.0-0.0,voc_e2,12111,"[{""event"":""fullscreenenter"",""trial"":1,""time"":1724}]",NA,NA,NA,NA,NA,3,#D8271C,#741CD8,10,0,1,38,1,304.69999998807907,37,1,614.1999999880791,10,1,experiment,NA,NA,1,0.7,0.3,2,3,301,7,NA
fcp-trial,337,1172094,0.0-312.0-0.0,voc_e2,12111,"[{""event"":""fullscreenenter"",""trial"":1,""time"":1724}]",NA,NA,NA,NA,NA,5,#3386FF,#D89F1C,0,10,1,38,1,277.60000002384186,39,0,250.10000002384183,10,0,experiment,NA,NA,2,0.5,0.5,4,5,302,7,NA
fcp-trial,338,1174330,0.0-313.0-0.0,voc_e2,12111,"[{""event"":""fullscreenenter"",""trial"":1,""time"":1724}]",NA,NA,NA,NA,NA,4,#1CD855,#FA92F8,0,0,1,38,1,334.30000001192093,37,1,393.4000000357628,0,1,experiment,NA,NA,0,0.9,0.1,0,1,303,7,NA
fcp-trial,339,1176464,0.0-314.0-0.0,voc_e2,12111,"[{""event"":""fullscreenenter"",""trial"":1,""time"":1724}]",NA,NA,NA,NA,NA,3,#D89F1C,#3386FF,10,0,0,38,1,179.30000001192093,39,0,446.5999999642372,0,1,experiment,NA,NA,2,0.5,0.5,5,4,304,7,NA
fcp-trial,340,1178888,0.0-315.0-0.0,voc_e2,12111,"[{""event"":""fullscreenenter"",""trial"":1,""time"":1724}]",NA,NA,NA,NA,NA,4,#741CD8,#D8271C,0,10,0,38,1,424.5,39,0,489.9000000357628,10,1,experiment,NA,NA,1,0.3,0.7,3,2,305,7,NA
fcp-trial,341,1180881,0.0-316.0-0.0,voc_e2,12111,"[{""event"":""fullscreenenter"",""trial"":1,""time"":1724}]",NA,NA,NA,NA,NA,0,#D8271C,#741CD8,0,0,1,38,1,171.20000004768372,37,1,312.80000001192093,0,1,experiment,NA,NA,1,0.7,0.3,2,3,306,7,NA
fcp-trial,342,1183070,0.0-317.0-0.0,voc_e2,12111,"[{""event"":""fullscreenenter"",""trial"":1,""time"":1724}]",NA,NA,NA,NA,NA,6,#1CD855,#FA92F8,10,10,1,38,1,130,37,1,550.5999999642372,10,1,experiment,NA,NA,0,0.9,0.1,0,1,307,7,NA
fcp-trial,343,1185007,0.0-318.0-0.0,voc_e2,12111,"[{""event"":""fullscreenenter"",""trial"":1,""time"":1724}]",NA,NA,NA,NA,NA,4,#3386FF,#D89F1C,10,0,1,38,1,92.80000001192093,39,0,336.5,0,0,experiment,NA,NA,2,0.5,0.5,4,5,308,7,NA
fcp-trial,344,1187186,0.0-319.0-0.0,voc_e2,12111,"[{""event"":""fullscreenenter"",""trial"":1,""time"":1724}]",NA,NA,NA,NA,NA,1,#3386FF,#D89F1C,0,10,1,38,1,399.60000002384186,39,0,272.39999997615814,10,0,experiment,NA,NA,2,0.5,0.5,4,5,309,7,NA
fcp-trial,345,1189745,0.0-320.0-0.0,voc_e2,12111,"[{""event"":""fullscreenenter"",""trial"":1,""time"":1724}]",NA,NA,NA,NA,NA,0,#1CD855,#FA92F8,10,0,1,38,1,410.80000001192093,37,1,640.1999999880791,10,1,experiment,NA,NA,0,0.9,0.1,0,1,310,7,NA
fcp-trial,346,1191949,0.0-321.0-0.0,voc_e2,12111,"[{""event"":""fullscreenenter"",""trial"":1,""time"":1724}]",NA,NA,NA,NA,NA,1,#741CD8,#D8271C,0,10,0,38,1,351.39999997615814,39,0,344.5,10,1,experiment,NA,NA,1,0.3,0.7,3,2,311,7,NA
fcp-trial,347,1194257,0.0-322.0-0.0,voc_e2,12111,"[{""event"":""fullscreenenter"",""trial"":1,""time"":1724}]",NA,NA,NA,NA,NA,5,#1CD855,#FA92F8,10,0,1,38,1,517.1000000238419,37,1,281.7999999523163,10,1,experiment,NA,NA,0,0.9,0.1,0,1,312,7,NA
fcp-trial,348,1196388,0.0-323.0-0.0,voc_e2,12111,"[{""event"":""fullscreenenter"",""trial"":1,""time"":1724}]",NA,NA,NA,NA,NA,1,#FA92F8,#1CD855,0,10,0,38,1,345.69999998807907,39,0,276.7000000476837,10,1,experiment,NA,NA,0,0.1,0.9,1,0,313,7,NA
fcp-trial,349,1199063,0.0-324.0-0.0,voc_e2,12111,"[{""event"":""fullscreenenter"",""trial"":1,""time"":1724}]",NA,NA,NA,NA,NA,2,#3386FF,#D89F1C,0,0,1,38,1,718.1999999880791,39,0,447.39999997615814,0,0,experiment,NA,NA,2,0.5,0.5,4,5,314,7,NA
fcp-trial,350,1201471,0.0-325.0-0.0,voc_e2,12111,"[{""event"":""fullscreenenter"",""trial"":1,""time"":1724}]",NA,NA,NA,NA,NA,2,#741CD8,#D8271C,0,10,0,38,1,451.5999999642372,39,0,449.199999988079,10,1,experiment,NA,NA,1,0.3,0.7,3,2,315,7,NA
audio-instructions,351,1207893,0.0-326.0,voc_e2,12111,"[{""event"":""fullscreenenter"",""trial"":1,""time"":1724}]",NA,757.3000000119209,static/audio/finished.wav,NA,0,NA,NA,NA,NA,NA,NA,NA,NA,NA,NA,NA,NA,NA,NA,NA,NA,NA,NA,NA,NA,NA,NA,NA,NA,NA
audio-instructions,352,1219683,0.0-327.0-0.0,voc_e2,12111,"[{""event"":""fullscreenenter"",""trial"":1,""time"":1724}]",NA,902,static/audio/explicit1.wav,NA,0,NA,NA,NA,NA,NA,NA,NA,NA,NA,NA,NA,NA,NA,NA,NA,NA,NA,NA,NA,NA,NA,NA,NA,NA,NA
audio-instructions,353,1227492,0.0-327.0-1.0,voc_e2,12111,"[{""event"":""fullscreenenter"",""trial"":1,""time"":1724}]",NA,215.10000002384183,static/audio/explicit2.wav,NA,0,NA,NA,NA,NA,NA,NA,NA,NA,NA,NA,NA,NA,NA,NA,NA,NA,NA,NA,NA,NA,NA,NA,NA,NA,NA
image-slider-response,354,1274327,0.0-328.0,voc_e2,12111,"[{""event"":""fullscreenenter"",""trial"":1,""time"":1724}]",NA,46830.59999996424,static/img/machines/machine1.png,NA,NA,NA,NA,NA,NA,NA,NA,NA,NA,NA,NA,NA,NA,NA,NA,explicit,NA,NA,NA,NA,NA,NA,NA,NA,NA,9
image-slider-response,355,1294333,0.0-329.0,voc_e2,12111,"[{""event"":""fullscreenenter"",""trial"":1,""time"":1724}]",NA,20002.10000002384,static/img/machines/machine2.png,NA,NA,NA,NA,NA,NA,NA,NA,NA,NA,NA,NA,NA,NA,NA,NA,explicit,NA,NA,NA,NA,NA,NA,NA,NA,NA,2
image-slider-response,356,1297262,0.0-330.0,voc_e2,12111,"[{""event"":""fullscreenenter"",""trial"":1,""time"":1724}]",NA,2925.899999976158,static/img/machines/machine3.png,NA,NA,NA,NA,NA,NA,NA,NA,NA,NA,NA,NA,NA,NA,NA,NA,explicit,NA,NA,NA,NA,NA,NA,NA,NA,NA,9
image-slider-response,357,1300063,0.0-331.0,voc_e2,12111,"[{""event"":""fullscreenenter"",""trial"":1,""time"":1724}]",NA,2797.100000023842,static/img/machines/machine5.png,NA,NA,NA,NA,NA,NA,NA,NA,NA,NA,NA,NA,NA,NA,NA,NA,explicit,NA,NA,NA,NA,NA,NA,NA,NA,NA,5
image-slider-response,358,1304061,0.0-332.0,voc_e2,12111,"[{""event"":""fullscreenenter"",""trial"":1,""time"":1724}]",NA,3994.800000011921,static/img/machines/machine6.png,NA,NA,NA,NA,NA,NA,NA,NA,NA,NA,NA,NA,NA,NA,NA,NA,explicit,NA,NA,NA,NA,NA,NA,NA,NA,NA,3
image-slider-response,359,1310196,0.0-333.0,voc_e2,12111,"[{""event"":""fullscreenenter"",""trial"":1,""time"":1724}]",NA,6131.800000011921,static/img/machines/machine4.png,NA,NA,NA,NA,NA,NA,NA,NA,NA,NA,NA,NA,NA,NA,NA,NA,explicit,NA,NA,NA,NA,NA,NA,NA,NA,NA,9
