trial_type,trial_index,time_elapsed,internal_node_id,task_version,subject_id,interactions,success,rt,stimulus,key_press,button_pressed,offer,arcade_color_L,arcade_color_R,arcade_outcome_L,arcade_outcome_R,correct,stage_1_key,stage_1_choice,stage_1_rt,stage_2_key,stage_2_choice,stage_2_rt,stage_3_outcome,accuracy,phase,responses,num_errors,context,reward_prob_L,reward_prob_R,arcade_id_L,arcade_id_R,trial,block,response
pavlovia,0,9,0.0-0.0,voc_e2,12310,[],NA,NA,NA,NA,NA,NA,NA,NA,NA,NA,NA,NA,NA,NA,NA,NA,NA,NA,NA,NA,NA,NA,NA,NA,NA,NA,NA,NA,NA,NA
fullscreen,1,6648,0.0-1.0,voc_e2,12310,"[{""event"":""fullscreenenter"",""trial"":1,""time"":5658}]",TRUE,NA,NA,NA,NA,NA,NA,NA,NA,NA,NA,NA,NA,NA,NA,NA,NA,NA,NA,NA,NA,NA,NA,NA,NA,NA,NA,NA,NA,NA
audio-keyboard-response,2,9233,0.0-2.0,voc_e2,12310,"[{""event"":""fullscreenenter"",""trial"":1,""time"":5658}]",NA,2061,static/audio/beep_loop.wav,32,NA,NA,NA,NA,NA,NA,NA,NA,NA,NA,NA,NA,NA,NA,NA,NA,NA,NA,NA,NA,NA,NA,NA,NA,NA,NA
audio-test,3,10321,0.0-3.0,voc_e2,12310,"[{""event"":""fullscreenenter"",""trial"":1,""time"":5658}]",NA,NA,static/audio/turtle.wav,NA,3,NA,NA,NA,NA,NA,NA,NA,NA,NA,NA,NA,NA,NA,NA,NA,NA,NA,NA,NA,NA,NA,NA,NA,NA,NA
audio-test,4,12385,0.0-4.0,voc_e2,12310,"[{""event"":""fullscreenenter"",""trial"":1,""time"":5658}]",NA,NA,static/audio/shark.wav,NA,2,NA,NA,NA,NA,NA,NA,NA,NA,NA,NA,NA,NA,NA,NA,NA,NA,NA,NA,NA,NA,NA,NA,NA,NA,NA
audio-instructions,5,19193,0.0-5.0-0.0,voc_e2,12310,"[{""event"":""fullscreenenter"",""trial"":1,""time"":5658}]",NA,1027.7000000476835,static/audio/instructions1.wav,NA,0,NA,NA,NA,NA,NA,NA,NA,NA,NA,NA,NA,NA,NA,NA,NA,NA,NA,NA,NA,NA,NA,NA,NA,NA,NA
audio-instructions,6,32377,0.0-5.0-1.0,voc_e2,12310,"[{""event"":""fullscreenenter"",""trial"":1,""time"":5658}]",NA,6432.900000035763,static/audio/instructions2.wav,NA,0,NA,NA,NA,NA,NA,NA,NA,NA,NA,NA,NA,NA,NA,NA,NA,NA,NA,NA,NA,NA,NA,NA,NA,NA,NA
audio-instructions,7,40601,0.0-5.0-2.0,voc_e2,12310,"[{""event"":""fullscreenenter"",""trial"":1,""time"":5658}]",NA,2416.199999988079,static/audio/instructions3.wav,NA,0,NA,NA,NA,NA,NA,NA,NA,NA,NA,NA,NA,NA,NA,NA,NA,NA,NA,NA,NA,NA,NA,NA,NA,NA,NA
audio-instructions,8,58105,0.0-5.0-3.0,voc_e2,12310,"[{""event"":""fullscreenenter"",""trial"":1,""time"":5658}]",NA,4280.199999988079,static/audio/instructions4.wav,NA,0,NA,NA,NA,NA,NA,NA,NA,NA,NA,NA,NA,NA,NA,NA,NA,NA,NA,NA,NA,NA,NA,NA,NA,NA,NA
audio-instructions,9,69865,0.0-5.0-4.0,voc_e2,12310,"[{""event"":""fullscreenenter"",""trial"":1,""time"":5658}]",NA,2369.899999976158,static/audio/instructions5.wav,NA,0,NA,NA,NA,NA,NA,NA,NA,NA,NA,NA,NA,NA,NA,NA,NA,NA,NA,NA,NA,NA,NA,NA,NA,NA,NA
fcp-practice,10,73009,0.0-5.0-5.0-0.0,voc_e2,12310,"[{""event"":""fullscreenenter"",""trial"":1,""time"":5658}]",NA,NA,NA,NA,NA,NA,#EDC948,#46d3c8,10,0,1,null,null,null,37,1,1634.4000000357628,10,1,practice,NA,NA,NA,NA,NA,NA,NA,NA,NA,NA
fcp-practice,11,76571,0.0-5.0-5.0-1.0,voc_e2,12310,"[{""event"":""fullscreenenter"",""trial"":1,""time"":5658}]",NA,NA,NA,NA,NA,NA,#EDC948,#46d3c8,10,0,1,null,null,null,37,1,2054.100000023842,10,1,practice,NA,NA,NA,NA,NA,NA,NA,NA,NA,NA
fcp-practice,12,78955,0.0-5.0-5.0-2.0,voc_e2,12310,"[{""event"":""fullscreenenter"",""trial"":1,""time"":5658}]",NA,NA,NA,NA,NA,NA,#EDC948,#46d3c8,0,10,1,null,null,null,37,1,864.8999999761581,0,1,practice,NA,NA,NA,NA,NA,NA,NA,NA,NA,NA
fcp-practice,13,82359,0.0-5.0-5.0-3.0,voc_e2,12310,"[{""event"":""fullscreenenter"",""trial"":1,""time"":5658}]",NA,NA,NA,NA,NA,NA,#EDC948,#46d3c8,10,0,1,null,null,null,37,1,1897.899999976158,10,1,practice,NA,NA,NA,NA,NA,NA,NA,NA,NA,NA
fcp-practice,14,85321,0.0-5.0-5.0-4.0,voc_e2,12310,"[{""event"":""fullscreenenter"",""trial"":1,""time"":5658}]",NA,NA,NA,NA,NA,NA,#EDC948,#46d3c8,10,0,1,null,null,null,37,1,1446.800000011921,10,1,practice,NA,NA,NA,NA,NA,NA,NA,NA,NA,NA
audio-instructions,15,105816,0.0-5.0-6.0,voc_e2,12310,"[{""event"":""fullscreenenter"",""trial"":1,""time"":5658}]",NA,2492.100000023842,static/audio/instructions6.wav,NA,0,NA,NA,NA,NA,NA,NA,NA,NA,NA,NA,NA,NA,NA,NA,NA,NA,NA,NA,NA,NA,NA,NA,NA,NA,NA
audio-instructions,16,126984,0.0-5.0-7.0,voc_e2,12310,"[{""event"":""fullscreenenter"",""trial"":1,""time"":5658}]",NA,1969.5,static/audio/instructions7.wav,NA,0,NA,NA,NA,NA,NA,NA,NA,NA,NA,NA,NA,NA,NA,NA,NA,NA,NA,NA,NA,NA,NA,NA,NA,NA,NA
audio-instructions,17,138800,0.0-5.0-8.0,voc_e2,12310,"[{""event"":""fullscreenenter"",""trial"":1,""time"":5658}]",NA,2336.2000000476837,static/audio/instructions8.wav,NA,0,NA,NA,NA,NA,NA,NA,NA,NA,NA,NA,NA,NA,NA,NA,NA,NA,NA,NA,NA,NA,NA,NA,NA,NA,NA
fcp-comprehension,18,144529,0.0-5.0-9.0,voc_e2,12310,"[{""event"":""fullscreenenter"",""trial"":1,""time"":5658}]",NA,5727.099999964237,NA,NA,NA,NA,NA,NA,NA,NA,NA,NA,NA,NA,NA,NA,NA,NA,NA,NA,"true,true",0,NA,NA,NA,NA,NA,NA,NA,NA
audio-instructions,19,150912,0.0-6.0-0.0,voc_e2,12310,"[{""event"":""fullscreenenter"",""trial"":1,""time"":5658}]",NA,838.1999999880791,static/audio/instructions9.wav,NA,0,NA,NA,NA,NA,NA,NA,NA,NA,NA,NA,NA,NA,NA,NA,NA,NA,NA,NA,NA,NA,NA,NA,NA,NA,NA
audio-instructions,20,164024,0.0-6.0-1.0,voc_e2,12310,"[{""event"":""fullscreenenter"",""trial"":1,""time"":5658}]",NA,989.7000000476836,static/audio/instructions10.wav,NA,0,NA,NA,NA,NA,NA,NA,NA,NA,NA,NA,NA,NA,NA,NA,NA,NA,NA,NA,NA,NA,NA,NA,NA,NA,NA
fcp-trial,21,168649,0.0-6.0-2.0,voc_e2,12310,"[{""event"":""fullscreenenter"",""trial"":1,""time"":5658}]",NA,NA,NA,NA,NA,0,#EDC948,#46d3c8,10,10,1,38,1,1594.800000011921,37,1,1510.0999999642372,10,1,practice,NA,NA,NA,NA,NA,NA,NA,NA,NA,NA
audio-instructions,22,182832,0.0-6.0-3.0,voc_e2,12310,"[{""event"":""fullscreenenter"",""trial"":1,""time"":5658}]",NA,3178.2999999523163,static/audio/instructions11.wav,NA,0,NA,NA,NA,NA,NA,NA,NA,NA,NA,NA,NA,NA,NA,NA,NA,NA,NA,NA,NA,NA,NA,NA,NA,NA,NA
fcp-trial,23,187214,0.0-6.0-4.0,voc_e2,12310,"[{""event"":""fullscreenenter"",""trial"":1,""time"":5658}]",NA,NA,NA,NA,NA,6,#EDC948,#46d3c8,10,10,1,40,0,1204.800000011921,37,1,1663.800000011921,10,1,practice,NA,NA,NA,NA,NA,NA,NA,NA,NA,NA
audio-instructions,24,209081,0.0-6.0-5.0,voc_e2,12310,"[{""event"":""fullscreenenter"",""trial"":1,""time"":5658}]",NA,3176.300000011921,static/audio/instructions12.wav,NA,0,NA,NA,NA,NA,NA,NA,NA,NA,NA,NA,NA,NA,NA,NA,NA,NA,NA,NA,NA,NA,NA,NA,NA,NA,NA
audio-instructions,25,217569,0.0-6.0-6.0,voc_e2,12310,"[{""event"":""fullscreenenter"",""trial"":1,""time"":5658}]",NA,894.1999999880791,static/audio/instructions13.wav,NA,0,NA,NA,NA,NA,NA,NA,NA,NA,NA,NA,NA,NA,NA,NA,NA,NA,NA,NA,NA,NA,NA,NA,NA,NA,NA
audio-instructions,26,226785,0.0-6.0-7.0,voc_e2,12310,"[{""event"":""fullscreenenter"",""trial"":1,""time"":5658}]",NA,769.6000000238419,static/audio/instructions14.wav,NA,0,NA,NA,NA,NA,NA,NA,NA,NA,NA,NA,NA,NA,NA,NA,NA,NA,NA,NA,NA,NA,NA,NA,NA,NA,NA
audio-instructions,27,236128,0.0-7.0-0.0,voc_e2,12310,"[{""event"":""fullscreenenter"",""trial"":1,""time"":5658}]",NA,2425.900000035763,static/audio/instructions15.wav,NA,0,NA,NA,NA,NA,NA,NA,NA,NA,NA,NA,NA,NA,NA,NA,NA,NA,NA,NA,NA,NA,NA,NA,NA,NA,NA
audio-instructions,28,259864,0.0-7.0-1.0,voc_e2,12310,"[{""event"":""fullscreenenter"",""trial"":1,""time"":5658}]",NA,16909.600000023842,static/audio/instructions16.wav,NA,0,NA,NA,NA,NA,NA,NA,NA,NA,NA,NA,NA,NA,NA,NA,NA,NA,NA,NA,NA,NA,NA,NA,NA,NA,NA
audio-instructions,29,272304,0.0-7.0-2.0,voc_e2,12310,"[{""event"":""fullscreenenter"",""trial"":1,""time"":5658}]",NA,4760.199999988079,static/audio/instructions17.wav,NA,0,NA,NA,NA,NA,NA,NA,NA,NA,NA,NA,NA,NA,NA,NA,NA,NA,NA,NA,NA,NA,NA,NA,NA,NA,NA
audio-instructions,30,284600,0.0-7.0-3.0,voc_e2,12310,"[{""event"":""fullscreenenter"",""trial"":1,""time"":5658}]",NA,4526.300000011921,static/audio/instructions18.wav,NA,0,NA,NA,NA,NA,NA,NA,NA,NA,NA,NA,NA,NA,NA,NA,NA,NA,NA,NA,NA,NA,NA,NA,NA,NA,NA
audio-instructions,31,292960,0.0-7.0-4.0,voc_e2,12310,"[{""event"":""fullscreenenter"",""trial"":1,""time"":5658}]",NA,1616.199999988079,static/audio/instructions19.wav,NA,0,NA,NA,NA,NA,NA,NA,NA,NA,NA,NA,NA,NA,NA,NA,NA,NA,NA,NA,NA,NA,NA,NA,NA,NA,NA
fcp-comprehension,32,300976,0.0-7.0-5.0,voc_e2,12310,"[{""event"":""fullscreenenter"",""trial"":1,""time"":5658}]",NA,8015.400000035763,NA,NA,NA,NA,NA,NA,NA,NA,NA,NA,NA,NA,NA,NA,NA,NA,NA,NA,"false,false,false,true",0,NA,NA,NA,NA,NA,NA,NA,NA
audio-instructions,33,311160,0.0-8.0,voc_e2,12310,"[{""event"":""fullscreenenter"",""trial"":1,""time"":5658}]",NA,966,static/audio/ready.wav,NA,0,NA,NA,NA,NA,NA,NA,NA,NA,NA,NA,NA,NA,NA,NA,NA,NA,NA,NA,NA,NA,NA,NA,NA,NA,NA
fcp-trial,34,316258,0.0-9.0-0.0,voc_e2,12310,"[{""event"":""fullscreenenter"",""trial"":1,""time"":5658}]",NA,NA,NA,NA,NA,5,#3386FF,#D89F1C,0,0,1,38,1,2493,37,1,1093.9000000357628,0,1,experiment,NA,NA,2,0.5,0.5,4,5,1,1,NA
fcp-trial,35,322658,0.0-10.0-0.0,voc_e2,12310,"[{""event"":""fullscreenenter"",""trial"":1,""time"":5658}]",NA,NA,NA,NA,NA,4,#1CD855,#FA92F8,0,0,1,38,1,3487.699999988079,37,1,1394.4000000357628,0,1,experiment,NA,NA,1,0.7,0.3,2,3,2,1,NA
fcp-trial,36,328293,0.0-11.0-0.0,voc_e2,12310,"[{""event"":""fullscreenenter"",""trial"":1,""time"":5658}]",NA,NA,NA,NA,NA,4,#D8271C,#741CD8,10,0,1,38,1,2984.899999976158,37,1,1139.199999988079,10,1,experiment,NA,NA,0,0.9,0.1,0,1,3,1,NA
fcp-trial,37,332355,0.0-12.0-0.0,voc_e2,12310,"[{""event"":""fullscreenenter"",""trial"":1,""time"":5658}]",NA,NA,NA,NA,NA,0,#1CD855,#FA92F8,10,10,1,38,1,1877.9000000357628,39,0,657.7999999523163,10,0,experiment,NA,NA,1,0.7,0.3,2,3,4,1,NA
fcp-trial,38,335909,0.0-13.0-0.0,voc_e2,12310,"[{""event"":""fullscreenenter"",""trial"":1,""time"":5658}]",NA,NA,NA,NA,NA,0,#D89F1C,#3386FF,10,10,0,38,1,1080.9000000357628,37,1,966.5999999642372,10,0,experiment,NA,NA,2,0.5,0.5,5,4,5,1,NA
fcp-trial,39,339290,0.0-14.0-0.0,voc_e2,12310,"[{""event"":""fullscreenenter"",""trial"":1,""time"":5658}]",NA,NA,NA,NA,NA,1,#FA92F8,#1CD855,0,10,0,38,1,1015.6000000238419,37,1,852.7999999523163,0,0,experiment,NA,NA,1,0.3,0.7,3,2,6,1,NA
fcp-trial,40,342487,0.0-15.0-0.0,voc_e2,12310,"[{""event"":""fullscreenenter"",""trial"":1,""time"":5658}]",NA,NA,NA,NA,NA,2,#741CD8,#D8271C,0,10,0,38,1,896.6999999880791,39,0,790.8999999761581,10,1,experiment,NA,NA,0,0.1,0.9,1,0,7,1,NA
fcp-trial,41,345438,0.0-16.0-0.0,voc_e2,12310,"[{""event"":""fullscreenenter"",""trial"":1,""time"":5658}]",NA,NA,NA,NA,NA,6,#D89F1C,#3386FF,0,10,0,38,1,963.7999999523163,37,1,477.300000011921,0,0,experiment,NA,NA,2,0.5,0.5,5,4,8,1,NA
fcp-trial,42,347967,0.0-17.0-0.0,voc_e2,12310,"[{""event"":""fullscreenenter"",""trial"":1,""time"":5658}]",NA,NA,NA,NA,NA,6,#741CD8,#D8271C,0,10,0,38,1,617.0999999642372,39,0,398.300000011921,10,1,experiment,NA,NA,0,0.1,0.9,1,0,9,1,NA
fcp-trial,43,350839,0.0-18.0-0.0,voc_e2,12310,"[{""event"":""fullscreenenter"",""trial"":1,""time"":5658}]",NA,NA,NA,NA,NA,2,#1CD855,#FA92F8,0,0,1,38,1,978.6000000238419,39,0,383.4000000357628,0,0,experiment,NA,NA,1,0.7,0.3,2,3,10,1,NA
fcp-trial,44,353511,0.0-19.0-0.0,voc_e2,12310,"[{""event"":""fullscreenenter"",""trial"":1,""time"":5658}]",NA,NA,NA,NA,NA,4,#D89F1C,#3386FF,10,0,0,38,1,503.69999998807907,37,1,654.9000000357628,10,0,experiment,NA,NA,2,0.5,0.5,5,4,11,1,NA
fcp-trial,45,356574,0.0-20.0-0.0,voc_e2,12310,"[{""event"":""fullscreenenter"",""trial"":1,""time"":5658}]",NA,NA,NA,NA,NA,0,#D8271C,#741CD8,10,0,1,38,1,691,37,1,862.1999999880791,10,1,experiment,NA,NA,0,0.9,0.1,0,1,12,1,NA
fcp-trial,46,359333,0.0-21.0-0.0,voc_e2,12310,"[{""event"":""fullscreenenter"",""trial"":1,""time"":5658}]",NA,NA,NA,NA,NA,3,#FA92F8,#1CD855,0,10,0,38,1,973,37,1,278.5,0,0,experiment,NA,NA,1,0.3,0.7,3,2,13,1,NA
fcp-trial,47,362102,0.0-22.0-0.0,voc_e2,12310,"[{""event"":""fullscreenenter"",""trial"":1,""time"":5658}]",NA,NA,NA,NA,NA,1,#D89F1C,#3386FF,10,10,0,38,1,590.8999999761581,37,1,671.5,10,0,experiment,NA,NA,2,0.5,0.5,5,4,14,1,NA
fcp-trial,48,364550,0.0-23.0-0.0,voc_e2,12310,"[{""event"":""fullscreenenter"",""trial"":1,""time"":5658}]",NA,NA,NA,NA,NA,6,#FA92F8,#1CD855,10,0,0,38,1,642.9000000357628,39,0,294.69999998807907,0,1,experiment,NA,NA,1,0.3,0.7,3,2,15,1,NA
fcp-trial,49,367189,0.0-24.0-0.0,voc_e2,12310,"[{""event"":""fullscreenenter"",""trial"":1,""time"":5658}]",NA,NA,NA,NA,NA,2,#D89F1C,#3386FF,0,0,0,38,1,755.3999999761581,37,1,374,0,0,experiment,NA,NA,2,0.5,0.5,5,4,16,1,NA
fcp-trial,50,370045,0.0-25.0-0.0,voc_e2,12310,"[{""event"":""fullscreenenter"",""trial"":1,""time"":5658}]",NA,NA,NA,NA,NA,1,#D8271C,#741CD8,10,0,1,38,1,649.3000000119209,37,1,694.2000000476837,10,1,experiment,NA,NA,0,0.9,0.1,0,1,17,1,NA
fcp-trial,51,372485,0.0-26.0-0.0,voc_e2,12310,"[{""event"":""fullscreenenter"",""trial"":1,""time"":5658}]",NA,NA,NA,NA,NA,3,#D8271C,#741CD8,10,0,1,38,1,443,37,1,486.89999997615814,10,1,experiment,NA,NA,0,0.9,0.1,0,1,18,1,NA
fcp-trial,52,375205,0.0-27.0-0.0,voc_e2,12310,"[{""event"":""fullscreenenter"",""trial"":1,""time"":5658}]",NA,NA,NA,NA,NA,3,#3386FF,#D89F1C,10,0,1,38,1,722.7999999523163,39,0,487.800000011921,0,0,experiment,NA,NA,2,0.5,0.5,4,5,19,1,NA
fcp-trial,53,378438,0.0-28.0-0.0,voc_e2,12310,"[{""event"":""fullscreenenter"",""trial"":1,""time"":5658}]",NA,NA,NA,NA,NA,5,#FA92F8,#1CD855,0,10,0,38,1,1380.8999999761581,39,0,342.19999998807907,10,1,experiment,NA,NA,1,0.3,0.7,3,2,20,1,NA
fcp-trial,54,381046,0.0-29.0-0.0,voc_e2,12310,"[{""event"":""fullscreenenter"",""trial"":1,""time"":5658}]",NA,NA,NA,NA,NA,5,#741CD8,#D8271C,0,0,0,38,1,772,39,0,327.10000002384186,0,1,experiment,NA,NA,0,0.1,0.9,1,0,21,1,NA
fcp-trial,55,383495,0.0-30.0-0.0,voc_e2,12310,"[{""event"":""fullscreenenter"",""trial"":1,""time"":5658}]",NA,NA,NA,NA,NA,6,#1CD855,#FA92F8,0,10,1,38,1,627.5,37,1,310.89999997615814,0,1,experiment,NA,NA,1,0.7,0.3,2,3,22,1,NA
fcp-trial,56,387511,0.0-31.0-0.0,voc_e2,12310,"[{""event"":""fullscreenenter"",""trial"":1,""time"":5658}]",NA,NA,NA,NA,NA,5,#3386FF,#D89F1C,0,0,1,38,1,1034.5999999642372,39,0,1470.5,0,0,experiment,NA,NA,2,0.5,0.5,4,5,23,1,NA
fcp-trial,57,390188,0.0-32.0-0.0,voc_e2,12310,"[{""event"":""fullscreenenter"",""trial"":1,""time"":5658}]",NA,NA,NA,NA,NA,0,#1CD855,#FA92F8,10,0,1,38,1,610.6999999880791,37,1,558.6000000238419,10,1,experiment,NA,NA,1,0.7,0.3,2,3,24,1,NA
fcp-trial,58,393301,0.0-33.0-0.0,voc_e2,12310,"[{""event"":""fullscreenenter"",""trial"":1,""time"":5658}]",NA,NA,NA,NA,NA,6,#741CD8,#D8271C,0,10,0,38,1,774.5,39,0,830.6000000238419,10,1,experiment,NA,NA,0,0.1,0.9,1,0,25,1,NA
fcp-trial,59,395548,0.0-34.0-0.0,voc_e2,12310,"[{""event"":""fullscreenenter"",""trial"":1,""time"":5658}]",NA,NA,NA,NA,NA,4,#FA92F8,#1CD855,10,0,0,38,1,333.80000001192093,37,1,407.4000000357628,10,0,experiment,NA,NA,1,0.3,0.7,3,2,26,1,NA
fcp-trial,60,397900,0.0-35.0-0.0,voc_e2,12310,"[{""event"":""fullscreenenter"",""trial"":1,""time"":5658}]",NA,NA,NA,NA,NA,0,#D89F1C,#3386FF,10,0,0,38,1,567,37,1,277.89999997615814,10,0,experiment,NA,NA,2,0.5,0.5,5,4,27,1,NA
fcp-trial,61,400542,0.0-36.0-0.0,voc_e2,12310,"[{""event"":""fullscreenenter"",""trial"":1,""time"":5658}]",NA,NA,NA,NA,NA,4,#741CD8,#D8271C,0,10,0,38,1,806.7000000476837,39,0,326.80000001192093,10,1,experiment,NA,NA,0,0.1,0.9,1,0,28,1,NA
fcp-trial,62,403165,0.0-37.0-0.0,voc_e2,12310,"[{""event"":""fullscreenenter"",""trial"":1,""time"":5658}]",NA,NA,NA,NA,NA,1,#3386FF,#D89F1C,10,10,1,38,1,741.8999999761581,39,0,374.800000011921,10,0,experiment,NA,NA,2,0.5,0.5,4,5,29,1,NA
fcp-trial,63,405676,0.0-38.0-0.0,voc_e2,12310,"[{""event"":""fullscreenenter"",""trial"":1,""time"":5658}]",NA,NA,NA,NA,NA,2,#3386FF,#D89F1C,0,10,1,38,1,446.0999999642372,39,0,559.3999999761581,10,0,experiment,NA,NA,2,0.5,0.5,4,5,30,1,NA
fcp-trial,64,408349,0.0-39.0-0.0,voc_e2,12310,"[{""event"":""fullscreenenter"",""trial"":1,""time"":5658}]",NA,NA,NA,NA,NA,2,#1CD855,#FA92F8,10,10,1,38,1,758.3000000119209,37,1,407,10,1,experiment,NA,NA,1,0.7,0.3,2,3,31,1,NA
fcp-trial,65,411173,0.0-40.0-0.0,voc_e2,12310,"[{""event"":""fullscreenenter"",""trial"":1,""time"":5658}]",NA,NA,NA,NA,NA,1,#FA92F8,#1CD855,10,10,0,38,1,854.1999999880791,37,1,463.60000002384186,10,0,experiment,NA,NA,1,0.3,0.7,3,2,32,1,NA
fcp-trial,66,413597,0.0-41.0-0.0,voc_e2,12310,"[{""event"":""fullscreenenter"",""trial"":1,""time"":5658}]",NA,NA,NA,NA,NA,0,#741CD8,#D8271C,0,10,0,38,1,653.8000000119209,39,0,262.5999999642372,10,1,experiment,NA,NA,0,0.1,0.9,1,0,33,1,NA
fcp-trial,67,416029,0.0-42.0-0.0,voc_e2,12310,"[{""event"":""fullscreenenter"",""trial"":1,""time"":5658}]",NA,NA,NA,NA,NA,4,#3386FF,#D89F1C,0,10,1,38,1,611.4000000357628,39,0,309.19999998807907,10,0,experiment,NA,NA,2,0.5,0.5,4,5,34,1,NA
fcp-trial,68,418406,0.0-43.0-0.0,voc_e2,12310,"[{""event"":""fullscreenenter"",""trial"":1,""time"":5658}]",NA,NA,NA,NA,NA,1,#741CD8,#D8271C,0,10,0,38,1,555.1000000238419,39,0,312.39999997615814,10,1,experiment,NA,NA,0,0.1,0.9,1,0,35,1,NA
fcp-trial,69,421094,0.0-44.0-0.0,voc_e2,12310,"[{""event"":""fullscreenenter"",""trial"":1,""time"":5658}]",NA,NA,NA,NA,NA,3,#D8271C,#741CD8,10,0,1,38,1,538,37,1,637.6999999880791,10,1,experiment,NA,NA,0,0.9,0.1,0,1,36,1,NA
fcp-trial,70,423805,0.0-45.0-0.0,voc_e2,12310,"[{""event"":""fullscreenenter"",""trial"":1,""time"":5658}]",NA,NA,NA,NA,NA,5,#1CD855,#FA92F8,10,10,1,38,1,908.6000000238419,39,0,294.89999997615814,10,0,experiment,NA,NA,1,0.7,0.3,2,3,37,1,NA
fcp-trial,71,426540,0.0-46.0-0.0,voc_e2,12310,"[{""event"":""fullscreenenter"",""trial"":1,""time"":5658}]",NA,NA,NA,NA,NA,6,#3386FF,#D89F1C,10,10,1,38,1,572.3000000119209,39,0,654.3000000119209,10,0,experiment,NA,NA,2,0.5,0.5,4,5,38,1,NA
fcp-trial,72,428940,0.0-47.0-0.0,voc_e2,12310,"[{""event"":""fullscreenenter"",""trial"":1,""time"":5658}]",NA,NA,NA,NA,NA,3,#FA92F8,#1CD855,0,0,0,38,1,547.4000000357628,37,1,343.2000000476837,0,0,experiment,NA,NA,1,0.3,0.7,3,2,39,1,NA
fcp-trial,73,431724,0.0-48.0-0.0,voc_e2,12310,"[{""event"":""fullscreenenter"",""trial"":1,""time"":5658}]",NA,NA,NA,NA,NA,3,#3386FF,#D89F1C,0,10,1,38,1,918.3000000119209,39,0,359.19999998807907,10,0,experiment,NA,NA,2,0.5,0.5,4,5,40,1,NA
fcp-trial,74,434348,0.0-49.0-0.0,voc_e2,12310,"[{""event"":""fullscreenenter"",""trial"":1,""time"":5658}]",NA,NA,NA,NA,NA,5,#741CD8,#D8271C,0,10,0,38,1,613.3999999761581,39,0,502.4000000357628,10,1,experiment,NA,NA,0,0.1,0.9,1,0,41,1,NA
fcp-trial,75,437501,0.0-50.0-0.0,voc_e2,12310,"[{""event"":""fullscreenenter"",""trial"":1,""time"":5658}]",NA,NA,NA,NA,NA,2,#741CD8,#D8271C,0,10,0,38,1,1222.5,39,0,422.7000000476837,10,1,experiment,NA,NA,0,0.1,0.9,1,0,42,1,NA
fcp-trial,76,440214,0.0-51.0-0.0,voc_e2,12310,"[{""event"":""fullscreenenter"",""trial"":1,""time"":5658}]",NA,NA,NA,NA,NA,1,#3386FF,#D89F1C,0,10,1,38,1,872.8999999761581,39,0,325,10,0,experiment,NA,NA,2,0.5,0.5,4,5,43,1,NA
fcp-trial,77,442732,0.0-52.0-0.0,voc_e2,12310,"[{""event"":""fullscreenenter"",""trial"":1,""time"":5658}]",NA,NA,NA,NA,NA,0,#1CD855,#FA92F8,10,0,1,38,1,725.3000000119209,37,1,285.30000001192093,10,1,experiment,NA,NA,1,0.7,0.3,2,3,44,1,NA
fcp-trial,78,445573,0.0-53.0-0.0,voc_e2,12310,"[{""event"":""fullscreenenter"",""trial"":1,""time"":5658}]",NA,NA,NA,NA,NA,6,#D8271C,#741CD8,10,0,1,38,1,1041.3999999761581,37,1,294.9000000357628,10,1,experiment,NA,NA,0,0.9,0.1,0,1,45,1,NA
fcp-trial,79,448100,0.0-54.0-0.0,voc_e2,12310,"[{""event"":""fullscreenenter"",""trial"":1,""time"":5658}]",NA,NA,NA,NA,NA,3,#741CD8,#D8271C,0,0,0,38,1,691,39,0,326.30000001192093,0,1,experiment,NA,NA,0,0.1,0.9,1,0,46,2,NA
fcp-trial,80,450806,0.0-55.0-0.0,voc_e2,12310,"[{""event"":""fullscreenenter"",""trial"":1,""time"":5658}]",NA,NA,NA,NA,NA,6,#D89F1C,#3386FF,10,10,0,38,1,592.1999999880791,37,1,608.1999999880791,10,0,experiment,NA,NA,2,0.5,0.5,5,4,47,2,NA
fcp-trial,81,453413,0.0-56.0-0.0,voc_e2,12310,"[{""event"":""fullscreenenter"",""trial"":1,""time"":5658}]",NA,NA,NA,NA,NA,2,#D89F1C,#3386FF,0,10,0,38,1,627.6000000238419,37,1,471.10000002384186,0,0,experiment,NA,NA,2,0.5,0.5,5,4,48,2,NA
fcp-trial,82,456206,0.0-57.0-0.0,voc_e2,12310,"[{""event"":""fullscreenenter"",""trial"":1,""time"":5658}]",NA,NA,NA,NA,NA,3,#FA92F8,#1CD855,10,0,0,38,1,827.6000000238419,37,1,453.9000000357628,10,0,experiment,NA,NA,1,0.3,0.7,3,2,49,2,NA
fcp-trial,83,459078,0.0-58.0-0.0,voc_e2,12310,"[{""event"":""fullscreenenter"",""trial"":1,""time"":5658}]",NA,NA,NA,NA,NA,5,#741CD8,#D8271C,0,10,0,38,1,493.5,39,0,870.8000000119209,10,1,experiment,NA,NA,0,0.1,0.9,1,0,50,2,NA
fcp-trial,84,461733,0.0-59.0-0.0,voc_e2,12310,"[{""event"":""fullscreenenter"",""trial"":1,""time"":5658}]",NA,NA,NA,NA,NA,4,#3386FF,#D89F1C,10,0,1,38,1,693.5999999642372,39,0,455,0,0,experiment,NA,NA,2,0.5,0.5,4,5,51,2,NA
fcp-trial,85,464062,0.0-60.0-0.0,voc_e2,12310,"[{""event"":""fullscreenenter"",""trial"":1,""time"":5658}]",NA,NA,NA,NA,NA,0,#741CD8,#D8271C,0,0,0,38,1,430,39,0,390.300000011921,0,1,experiment,NA,NA,0,0.1,0.9,1,0,52,2,NA
fcp-trial,86,466477,0.0-61.0-0.0,voc_e2,12310,"[{""event"":""fullscreenenter"",""trial"":1,""time"":5658}]",NA,NA,NA,NA,NA,2,#1CD855,#FA92F8,10,0,1,38,1,330.5,39,0,573.8999999761581,0,0,experiment,NA,NA,1,0.7,0.3,2,3,53,2,NA
fcp-trial,87,468756,0.0-62.0-0.0,voc_e2,12310,"[{""event"":""fullscreenenter"",""trial"":1,""time"":5658}]",NA,NA,NA,NA,NA,4,#D8271C,#741CD8,10,0,1,38,1,430.19999998807907,37,1,342.60000002384186,10,1,experiment,NA,NA,0,0.9,0.1,0,1,54,2,NA
fcp-trial,88,471181,0.0-63.0-0.0,voc_e2,12310,"[{""event"":""fullscreenenter"",""trial"":1,""time"":5658}]",NA,NA,NA,NA,NA,5,#1CD855,#FA92F8,10,10,1,38,1,465.19999998807907,37,1,454.5,10,1,experiment,NA,NA,1,0.7,0.3,2,3,55,2,NA
fcp-trial,89,473414,0.0-64.0-0.0,voc_e2,12310,"[{""event"":""fullscreenenter"",""trial"":1,""time"":5658}]",NA,NA,NA,NA,NA,3,#D89F1C,#3386FF,10,10,0,38,1,366.80000001192093,37,1,358.5999999642372,10,0,experiment,NA,NA,2,0.5,0.5,5,4,56,2,NA
fcp-trial,90,475973,0.0-65.0-0.0,voc_e2,12310,"[{""event"":""fullscreenenter"",""trial"":1,""time"":5658}]",NA,NA,NA,NA,NA,2,#741CD8,#D8271C,0,10,0,38,1,705.0999999642372,39,0,341.80000001192093,10,1,experiment,NA,NA,0,0.1,0.9,1,0,57,2,NA
fcp-trial,91,479325,0.0-66.0-0.0,voc_e2,12310,"[{""event"":""fullscreenenter"",""trial"":1,""time"":5658}]",NA,NA,NA,NA,NA,4,#1CD855,#FA92F8,0,0,1,38,1,830.1999999880791,39,0,1013.899999976158,0,0,experiment,NA,NA,1,0.7,0.3,2,3,58,2,NA
fcp-trial,92,482197,0.0-67.0-0.0,voc_e2,12310,"[{""event"":""fullscreenenter"",""trial"":1,""time"":5658}]",NA,NA,NA,NA,NA,5,#3386FF,#D89F1C,0,0,1,38,1,573.4000000357628,39,0,789.6000000238419,0,0,experiment,NA,NA,2,0.5,0.5,4,5,59,2,NA
fcp-trial,93,484589,0.0-68.0-0.0,voc_e2,12310,"[{""event"":""fullscreenenter"",""trial"":1,""time"":5658}]",NA,NA,NA,NA,NA,1,#1CD855,#FA92F8,10,0,1,38,1,558,37,1,327.4000000357628,10,1,experiment,NA,NA,1,0.7,0.3,2,3,60,2,NA
fcp-trial,94,487069,0.0-69.0-0.0,voc_e2,12310,"[{""event"":""fullscreenenter"",""trial"":1,""time"":5658}]",NA,NA,NA,NA,NA,1,#D8271C,#741CD8,0,0,1,38,1,643.6999999880791,37,1,326.10000002384186,0,1,experiment,NA,NA,0,0.9,0.1,0,1,61,2,NA
fcp-trial,95,489461,0.0-70.0-0.0,voc_e2,12310,"[{""event"":""fullscreenenter"",""trial"":1,""time"":5658}]",NA,NA,NA,NA,NA,6,#1CD855,#FA92F8,10,10,1,38,1,428.0999999642372,39,0,454.300000011921,10,0,experiment,NA,NA,1,0.7,0.3,2,3,62,2,NA
fcp-trial,96,491646,0.0-71.0-0.0,voc_e2,12310,"[{""event"":""fullscreenenter"",""trial"":1,""time"":5658}]",NA,NA,NA,NA,NA,0,#D89F1C,#3386FF,10,0,0,38,1,347.69999998807907,37,1,325.4000000357628,10,0,experiment,NA,NA,2,0.5,0.5,5,4,63,2,NA
fcp-trial,97,493989,0.0-72.0-0.0,voc_e2,12310,"[{""event"":""fullscreenenter"",""trial"":1,""time"":5658}]",NA,NA,NA,NA,NA,6,#D89F1C,#3386FF,10,0,0,38,1,490.80000001192093,37,1,343.30000001192093,10,0,experiment,NA,NA,2,0.5,0.5,5,4,64,2,NA
fcp-trial,98,496454,0.0-73.0-0.0,voc_e2,12310,"[{""event"":""fullscreenenter"",""trial"":1,""time"":5658}]",NA,NA,NA,NA,NA,6,#FA92F8,#1CD855,10,10,0,38,1,611.6000000238419,39,0,342.9000000357628,10,1,experiment,NA,NA,1,0.3,0.7,3,2,65,2,NA
fcp-trial,99,498718,0.0-74.0-0.0,voc_e2,12310,"[{""event"":""fullscreenenter"",""trial"":1,""time"":5658}]",NA,NA,NA,NA,NA,5,#741CD8,#D8271C,0,10,0,38,1,395.19999998807907,39,0,356.19999998807907,10,1,experiment,NA,NA,0,0.1,0.9,1,0,66,2,NA
fcp-trial,100,501094,0.0-75.0-0.0,voc_e2,12310,"[{""event"":""fullscreenenter"",""trial"":1,""time"":5658}]",NA,NA,NA,NA,NA,2,#1CD855,#FA92F8,10,0,1,38,1,553.6999999880791,37,1,310.5,10,1,experiment,NA,NA,1,0.7,0.3,2,3,67,2,NA
fcp-trial,101,503308,0.0-76.0-0.0,voc_e2,12310,"[{""event"":""fullscreenenter"",""trial"":1,""time"":5658}]",NA,NA,NA,NA,NA,5,#3386FF,#D89F1C,0,0,1,38,1,361.7000000476837,39,0,343,0,0,experiment,NA,NA,2,0.5,0.5,4,5,68,2,NA
fcp-trial,102,505838,0.0-77.0-0.0,voc_e2,12310,"[{""event"":""fullscreenenter"",""trial"":1,""time"":5658}]",NA,NA,NA,NA,NA,1,#FA92F8,#1CD855,0,10,0,38,1,414.80000001192093,39,0,607.1999999880791,10,1,experiment,NA,NA,1,0.3,0.7,3,2,69,2,NA
fcp-trial,103,508036,0.0-78.0-0.0,voc_e2,12310,"[{""event"":""fullscreenenter"",""trial"":1,""time"":5658}]",NA,NA,NA,NA,NA,0,#D8271C,#741CD8,10,0,1,38,1,378.10000002384186,37,1,309.7999999523163,10,1,experiment,NA,NA,0,0.9,0.1,0,1,70,2,NA
fcp-trial,104,510182,0.0-79.0-0.0,voc_e2,12310,"[{""event"":""fullscreenenter"",""trial"":1,""time"":5658}]",NA,NA,NA,NA,NA,0,#FA92F8,#1CD855,0,10,0,38,1,373.80000001192093,39,0,261.4000000357628,10,1,experiment,NA,NA,1,0.3,0.7,3,2,71,2,NA
fcp-trial,105,512461,0.0-80.0-0.0,voc_e2,12310,"[{""event"":""fullscreenenter"",""trial"":1,""time"":5658}]",NA,NA,NA,NA,NA,1,#D8271C,#741CD8,10,0,1,38,1,398.7999999523163,37,1,373.9000000357628,10,1,experiment,NA,NA,0,0.9,0.1,0,1,72,2,NA
fcp-trial,106,515189,0.0-81.0-0.0,voc_e2,12310,"[{""event"":""fullscreenenter"",""trial"":1,""time"":5658}]",NA,NA,NA,NA,NA,3,#3386FF,#D89F1C,10,0,1,38,1,550.5999999642372,39,0,670.8999999761581,0,0,experiment,NA,NA,2,0.5,0.5,4,5,73,2,NA
fcp-trial,107,517957,0.0-82.0-0.0,voc_e2,12310,"[{""event"":""fullscreenenter"",""trial"":1,""time"":5658}]",NA,NA,NA,NA,NA,5,#1CD855,#FA92F8,0,10,1,38,1,554.2999999523163,37,1,703.6999999880791,0,1,experiment,NA,NA,1,0.7,0.3,2,3,74,2,NA
fcp-trial,108,520621,0.0-83.0-0.0,voc_e2,12310,"[{""event"":""fullscreenenter"",""trial"":1,""time"":5658}]",NA,NA,NA,NA,NA,2,#D89F1C,#3386FF,10,0,0,38,1,773.6999999880791,37,1,383.39999997615814,10,0,experiment,NA,NA,2,0.5,0.5,5,4,75,2,NA
fcp-trial,109,523404,0.0-84.0-0.0,voc_e2,12310,"[{""event"":""fullscreenenter"",""trial"":1,""time"":5658}]",NA,NA,NA,NA,NA,4,#D8271C,#741CD8,10,0,1,38,1,754.5,37,1,518.0999999642372,10,1,experiment,NA,NA,0,0.9,0.1,0,1,76,2,NA
fcp-trial,110,525701,0.0-85.0-0.0,voc_e2,12310,"[{""event"":""fullscreenenter"",""trial"":1,""time"":5658}]",NA,NA,NA,NA,NA,1,#D89F1C,#3386FF,10,0,0,38,1,462.60000002384186,37,1,327.10000002384186,10,0,experiment,NA,NA,2,0.5,0.5,5,4,77,2,NA
fcp-trial,111,528380,0.0-86.0-0.0,voc_e2,12310,"[{""event"":""fullscreenenter"",""trial"":1,""time"":5658}]",NA,NA,NA,NA,NA,4,#1CD855,#FA92F8,0,10,1,38,1,551.1999999880791,37,1,622.4000000357628,0,1,experiment,NA,NA,1,0.7,0.3,2,3,78,2,NA
fcp-trial,112,530727,0.0-87.0-0.0,voc_e2,12310,"[{""event"":""fullscreenenter"",""trial"":1,""time"":5658}]",NA,NA,NA,NA,NA,0,#D89F1C,#3386FF,0,0,0,38,1,523.6000000238419,37,1,310.80000001192093,0,0,experiment,NA,NA,2,0.5,0.5,5,4,79,2,NA
fcp-trial,113,533086,0.0-88.0-0.0,voc_e2,12310,"[{""event"":""fullscreenenter"",""trial"":1,""time"":5658}]",NA,NA,NA,NA,NA,2,#741CD8,#D8271C,10,10,0,38,1,489.80000001192093,39,0,359.19999998807907,10,1,experiment,NA,NA,0,0.1,0.9,1,0,80,2,NA
fcp-trial,114,535500,0.0-89.0-0.0,voc_e2,12310,"[{""event"":""fullscreenenter"",""trial"":1,""time"":5658}]",NA,NA,NA,NA,NA,6,#741CD8,#D8271C,0,10,0,38,1,444.30000001192093,39,0,462.800000011921,10,1,experiment,NA,NA,0,0.1,0.9,1,0,81,2,NA
fcp-trial,115,537956,0.0-90.0-0.0,voc_e2,12310,"[{""event"":""fullscreenenter"",""trial"":1,""time"":5658}]",NA,NA,NA,NA,NA,3,#D8271C,#741CD8,10,0,1,38,1,588.3000000119209,37,1,356.7999999523163,10,1,experiment,NA,NA,0,0.9,0.1,0,1,82,2,NA
fcp-trial,116,540966,0.0-91.0-0.0,voc_e2,12310,"[{""event"":""fullscreenenter"",""trial"":1,""time"":5658}]",NA,NA,NA,NA,NA,3,#FA92F8,#1CD855,0,0,0,38,1,427.9000000357628,37,1,1068.9000000357628,0,0,experiment,NA,NA,1,0.3,0.7,3,2,83,2,NA
fcp-trial,117,543406,0.0-92.0-0.0,voc_e2,12310,"[{""event"":""fullscreenenter"",""trial"":1,""time"":5658}]",NA,NA,NA,NA,NA,4,#3386FF,#D89F1C,10,10,1,38,1,585.9000000357628,39,0,341.7999999523163,10,0,experiment,NA,NA,2,0.5,0.5,4,5,84,2,NA
fcp-trial,118,545837,0.0-93.0-0.0,voc_e2,12310,"[{""event"":""fullscreenenter"",""trial"":1,""time"":5658}]",NA,NA,NA,NA,NA,6,#FA92F8,#1CD855,0,10,0,38,1,490.0999999642372,39,0,430.199999988079,10,1,experiment,NA,NA,1,0.3,0.7,3,2,85,2,NA
fcp-trial,119,548462,0.0-94.0-0.0,voc_e2,12310,"[{""event"":""fullscreenenter"",""trial"":1,""time"":5658}]",NA,NA,NA,NA,NA,3,#1CD855,#FA92F8,10,0,1,38,1,706.7999999523163,37,1,407,10,1,experiment,NA,NA,1,0.7,0.3,2,3,86,2,NA
fcp-trial,120,550708,0.0-95.0-0.0,voc_e2,12310,"[{""event"":""fullscreenenter"",""trial"":1,""time"":5658}]",NA,NA,NA,NA,NA,2,#3386FF,#D89F1C,10,0,1,38,1,327.80000001192093,39,0,405.39999997615814,0,0,experiment,NA,NA,2,0.5,0.5,4,5,87,2,NA
fcp-trial,121,553318,0.0-96.0-0.0,voc_e2,12310,"[{""event"":""fullscreenenter"",""trial"":1,""time"":5658}]",NA,NA,NA,NA,NA,2,#1CD855,#FA92F8,0,10,1,38,1,384.9000000357628,37,1,716.3999999761581,0,1,experiment,NA,NA,1,0.7,0.3,2,3,88,2,NA
fcp-trial,122,555925,0.0-97.0-0.0,voc_e2,12310,"[{""event"":""fullscreenenter"",""trial"":1,""time"":5658}]",NA,NA,NA,NA,NA,0,#D8271C,#741CD8,10,10,1,38,1,708.1999999880791,39,0,390.800000011921,10,0,experiment,NA,NA,0,0.9,0.1,0,1,89,2,NA
fcp-trial,123,558205,0.0-98.0-0.0,voc_e2,12310,"[{""event"":""fullscreenenter"",""trial"":1,""time"":5658}]",NA,NA,NA,NA,NA,4,#D89F1C,#3386FF,0,10,0,38,1,283.2999999523163,37,1,485.60000002384186,0,0,experiment,NA,NA,2,0.5,0.5,5,4,90,2,NA
fcp-trial,124,561013,0.0-99.0-0.0,voc_e2,12310,"[{""event"":""fullscreenenter"",""trial"":1,""time"":5658}]",NA,NA,NA,NA,NA,4,#1CD855,#FA92F8,10,0,1,38,1,549.6999999880791,39,0,752.3999999761581,0,0,experiment,NA,NA,1,0.7,0.3,2,3,91,3,NA
fcp-trial,125,563404,0.0-100.0-0.0,voc_e2,12310,"[{""event"":""fullscreenenter"",""trial"":1,""time"":5658}]",NA,NA,NA,NA,NA,3,#741CD8,#D8271C,0,10,0,38,1,478.5,39,0,406.4000000357628,10,1,experiment,NA,NA,0,0.1,0.9,1,0,92,3,NA
fcp-trial,126,566117,0.0-101.0-0.0,voc_e2,12310,"[{""event"":""fullscreenenter"",""trial"":1,""time"":5658}]",NA,NA,NA,NA,NA,4,#D8271C,#741CD8,10,0,1,38,1,642.8999999761581,37,1,558.2000000476837,10,1,experiment,NA,NA,0,0.9,0.1,0,1,93,3,NA
fcp-trial,127,568638,0.0-102.0-0.0,voc_e2,12310,"[{""event"":""fullscreenenter"",""trial"":1,""time"":5658}]",NA,NA,NA,NA,NA,1,#1CD855,#FA92F8,10,0,1,38,1,558,37,1,455.4000000357628,10,1,experiment,NA,NA,1,0.7,0.3,2,3,94,3,NA
fcp-trial,128,571181,0.0-103.0-0.0,voc_e2,12310,"[{""event"":""fullscreenenter"",""trial"":1,""time"":5658}]",NA,NA,NA,NA,NA,6,#D89F1C,#3386FF,0,0,0,38,1,530.0999999642372,37,1,503.60000002384186,0,0,experiment,NA,NA,2,0.5,0.5,5,4,95,3,NA
fcp-trial,129,573532,0.0-104.0-0.0,voc_e2,12310,"[{""event"":""fullscreenenter"",""trial"":1,""time"":5658}]",NA,NA,NA,NA,NA,0,#3386FF,#D89F1C,10,0,1,38,1,443,39,0,398.5,0,0,experiment,NA,NA,2,0.5,0.5,4,5,96,3,NA
fcp-trial,130,576037,0.0-105.0-0.0,voc_e2,12310,"[{""event"":""fullscreenenter"",""trial"":1,""time"":5658}]",NA,NA,NA,NA,NA,6,#741CD8,#D8271C,0,10,0,38,1,573.8999999761581,39,0,421.60000002384186,10,1,experiment,NA,NA,0,0.1,0.9,1,0,97,3,NA
fcp-trial,131,578388,0.0-106.0-0.0,voc_e2,12310,"[{""event"":""fullscreenenter"",""trial"":1,""time"":5658}]",NA,NA,NA,NA,NA,0,#FA92F8,#1CD855,10,10,0,38,1,482.5,37,1,358.60000002384186,10,0,experiment,NA,NA,1,0.3,0.7,3,2,98,3,NA
fcp-trial,132,580764,0.0-107.0-0.0,voc_e2,12310,"[{""event"":""fullscreenenter"",""trial"":1,""time"":5658}]",NA,NA,NA,NA,NA,1,#3386FF,#D89F1C,0,10,1,38,1,496.30000001192093,39,0,375.39999997615814,10,0,experiment,NA,NA,2,0.5,0.5,4,5,99,3,NA
fcp-trial,133,583012,0.0-108.0-0.0,voc_e2,12310,"[{""event"":""fullscreenenter"",""trial"":1,""time"":5658}]",NA,NA,NA,NA,NA,5,#D8271C,#741CD8,0,0,1,38,1,366.60000002384186,37,1,375.4000000357628,0,1,experiment,NA,NA,0,0.9,0.1,0,1,100,3,NA
fcp-trial,134,585556,0.0-109.0-0.0,voc_e2,12310,"[{""event"":""fullscreenenter"",""trial"":1,""time"":5658}]",NA,NA,NA,NA,NA,3,#D89F1C,#3386FF,0,10,0,38,1,709.6999999880791,37,1,325.80000001192093,0,0,experiment,NA,NA,2,0.5,0.5,5,4,101,3,NA
fcp-trial,135,588115,0.0-110.0-0.0,voc_e2,12310,"[{""event"":""fullscreenenter"",""trial"":1,""time"":5658}]",NA,NA,NA,NA,NA,1,#D8271C,#741CD8,10,0,1,38,1,742.4000000357628,37,1,309.39999997615814,10,1,experiment,NA,NA,0,0.9,0.1,0,1,102,3,NA
fcp-trial,136,590566,0.0-111.0-0.0,voc_e2,12310,"[{""event"":""fullscreenenter"",""trial"":1,""time"":5658}]",NA,NA,NA,NA,NA,5,#FA92F8,#1CD855,0,0,0,38,1,469.19999998807907,39,0,473.5,0,1,experiment,NA,NA,1,0.3,0.7,3,2,103,3,NA
fcp-trial,137,593052,0.0-112.0-0.0,voc_e2,12310,"[{""event"":""fullscreenenter"",""trial"":1,""time"":5658}]",NA,NA,NA,NA,NA,2,#D8271C,#741CD8,10,0,1,38,1,633.8999999761581,37,1,343.30000001192093,10,1,experiment,NA,NA,0,0.9,0.1,0,1,104,3,NA
fcp-trial,138,595668,0.0-113.0-0.0,voc_e2,12310,"[{""event"":""fullscreenenter"",""trial"":1,""time"":5658}]",NA,NA,NA,NA,NA,5,#3386FF,#D89F1C,10,10,1,38,1,648.1000000238419,39,0,463.300000011921,10,0,experiment,NA,NA,2,0.5,0.5,4,5,105,3,NA
audio-instructions,139,604543,0.0-114.0,voc_e2,12310,"[{""event"":""fullscreenenter"",""trial"":1,""time"":5658}]",NA,4160.199999988079,static/audio/pause.wav,NA,0,NA,NA,NA,NA,NA,NA,NA,NA,NA,NA,NA,NA,NA,NA,NA,NA,NA,NA,NA,NA,NA,NA,NA,NA,NA
fcp-trial,140,610767,0.0-115.0-0.0,voc_e2,12310,"[{""event"":""fullscreenenter"",""trial"":1,""time"":5658}]",NA,NA,NA,NA,NA,4,#D8271C,#741CD8,10,0,1,40,0,3485.5,39,0,1229.2000000476835,0,0,experiment,NA,NA,0,0.9,0.1,0,1,106,3,NA
fcp-trial,141,614359,0.0-116.0-0.0,voc_e2,12310,"[{""event"":""fullscreenenter"",""trial"":1,""time"":5658}]",NA,NA,NA,NA,NA,0,#D8271C,#741CD8,0,0,1,38,1,930.9000000357628,37,1,1147.800000011921,0,1,experiment,NA,NA,0,0.9,0.1,0,1,107,3,NA
fcp-trial,142,617223,0.0-117.0-0.0,voc_e2,12310,"[{""event"":""fullscreenenter"",""trial"":1,""time"":5658}]",NA,NA,NA,NA,NA,5,#D89F1C,#3386FF,0,0,0,38,1,878.5,37,1,457.39999997615814,0,0,experiment,NA,NA,2,0.5,0.5,5,4,108,3,NA
fcp-trial,143,620229,0.0-118.0-0.0,voc_e2,12310,"[{""event"":""fullscreenenter"",""trial"":1,""time"":5658}]",NA,NA,NA,NA,NA,2,#FA92F8,#1CD855,0,10,0,38,1,527.5,37,1,954.5999999642372,0,0,experiment,NA,NA,1,0.3,0.7,3,2,109,3,NA
fcp-trial,144,623542,0.0-119.0-0.0,voc_e2,12310,"[{""event"":""fullscreenenter"",""trial"":1,""time"":5658}]",NA,NA,NA,NA,NA,3,#1CD855,#FA92F8,0,0,1,38,1,819.1999999880791,37,1,983.0999999642372,0,1,experiment,NA,NA,1,0.7,0.3,2,3,110,3,NA
fcp-trial,145,625975,0.0-120.0-0.0,voc_e2,12310,"[{""event"":""fullscreenenter"",""trial"":1,""time"":5658}]",NA,NA,NA,NA,NA,5,#741CD8,#D8271C,0,10,0,38,1,542.5999999642372,39,0,365.4000000357628,10,1,experiment,NA,NA,0,0.1,0.9,1,0,111,3,NA
fcp-trial,146,628337,0.0-121.0-0.0,voc_e2,12310,"[{""event"":""fullscreenenter"",""trial"":1,""time"":5658}]",NA,NA,NA,NA,NA,4,#D89F1C,#3386FF,0,0,0,38,1,486.30000001192093,39,0,357.39999997615814,0,1,experiment,NA,NA,2,0.5,0.5,5,4,112,3,NA
fcp-trial,147,631029,0.0-122.0-0.0,voc_e2,12310,"[{""event"":""fullscreenenter"",""trial"":1,""time"":5658}]",NA,NA,NA,NA,NA,0,#3386FF,#D89F1C,10,10,1,38,1,686.3000000119209,39,0,493.89999997615814,10,0,experiment,NA,NA,2,0.5,0.5,4,5,113,3,NA
fcp-trial,148,633716,0.0-123.0-0.0,voc_e2,12310,"[{""event"":""fullscreenenter"",""trial"":1,""time"":5658}]",NA,NA,NA,NA,NA,0,#FA92F8,#1CD855,0,10,0,38,1,541.3000000119209,39,0,638.1000000238419,10,1,experiment,NA,NA,1,0.3,0.7,3,2,114,3,NA
fcp-trial,149,636430,0.0-124.0-0.0,voc_e2,12310,"[{""event"":""fullscreenenter"",""trial"":1,""time"":5658}]",NA,NA,NA,NA,NA,1,#D8271C,#741CD8,10,0,1,38,1,598.3000000119209,37,1,607.9000000357628,10,1,experiment,NA,NA,0,0.9,0.1,0,1,115,3,NA
fcp-trial,150,639727,0.0-125.0-0.0,voc_e2,12310,"[{""event"":""fullscreenenter"",""trial"":1,""time"":5658}]",NA,NA,NA,NA,NA,2,#3386FF,#D89F1C,10,0,1,38,1,538.5,39,0,1247.100000023842,0,0,experiment,NA,NA,2,0.5,0.5,4,5,116,3,NA
fcp-trial,151,642365,0.0-126.0-0.0,voc_e2,12310,"[{""event"":""fullscreenenter"",""trial"":1,""time"":5658}]",NA,NA,NA,NA,NA,4,#1CD855,#FA92F8,10,0,1,38,1,457.0999999642372,37,1,669.7999999523163,10,1,experiment,NA,NA,1,0.7,0.3,2,3,117,3,NA
fcp-trial,152,644780,0.0-127.0-0.0,voc_e2,12310,"[{""event"":""fullscreenenter"",""trial"":1,""time"":5658}]",NA,NA,NA,NA,NA,3,#741CD8,#D8271C,0,10,0,38,1,522,39,0,381.10000002384186,10,1,experiment,NA,NA,0,0.1,0.9,1,0,118,3,NA
fcp-trial,153,647699,0.0-128.0-0.0,voc_e2,12310,"[{""event"":""fullscreenenter"",""trial"":1,""time"":5658}]",NA,NA,NA,NA,NA,1,#D89F1C,#3386FF,10,10,0,38,1,570.8999999761581,37,1,839.3000000119209,10,0,experiment,NA,NA,2,0.5,0.5,5,4,119,3,NA
fcp-trial,154,650197,0.0-129.0-0.0,voc_e2,12310,"[{""event"":""fullscreenenter"",""trial"":1,""time"":5658}]",NA,NA,NA,NA,NA,3,#D89F1C,#3386FF,10,0,0,38,1,571.6000000238419,37,1,414.199999988079,10,0,experiment,NA,NA,2,0.5,0.5,5,4,120,3,NA
fcp-trial,155,652732,0.0-130.0-0.0,voc_e2,12310,"[{""event"":""fullscreenenter"",""trial"":1,""time"":5658}]",NA,NA,NA,NA,NA,2,#D8271C,#741CD8,10,10,1,38,1,647,37,1,374.5,10,1,experiment,NA,NA,0,0.9,0.1,0,1,121,3,NA
fcp-trial,156,655542,0.0-131.0-0.0,voc_e2,12310,"[{""event"":""fullscreenenter"",""trial"":1,""time"":5658}]",NA,NA,NA,NA,NA,5,#1CD855,#FA92F8,0,0,1,38,1,674.9000000357628,39,0,622.6000000238419,0,0,experiment,NA,NA,1,0.7,0.3,2,3,122,3,NA
fcp-trial,157,658068,0.0-132.0-0.0,voc_e2,12310,"[{""event"":""fullscreenenter"",""trial"":1,""time"":5658}]",NA,NA,NA,NA,NA,6,#741CD8,#D8271C,0,10,0,38,1,642.1000000238419,39,0,374,10,1,experiment,NA,NA,0,0.1,0.9,1,0,123,3,NA
fcp-trial,158,660364,0.0-133.0-0.0,voc_e2,12310,"[{""event"":""fullscreenenter"",""trial"":1,""time"":5658}]",NA,NA,NA,NA,NA,1,#FA92F8,#1CD855,10,10,0,38,1,443.5,39,0,341.9000000357628,10,1,experiment,NA,NA,1,0.3,0.7,3,2,124,3,NA
fcp-trial,159,662892,0.0-134.0-0.0,voc_e2,12310,"[{""event"":""fullscreenenter"",""trial"":1,""time"":5658}]",NA,NA,NA,NA,NA,6,#3386FF,#D89F1C,10,0,1,38,1,643.1000000238419,39,0,374.800000011921,0,0,experiment,NA,NA,2,0.5,0.5,4,5,125,3,NA
fcp-trial,160,665156,0.0-135.0-0.0,voc_e2,12310,"[{""event"":""fullscreenenter"",""trial"":1,""time"":5658}]",NA,NA,NA,NA,NA,6,#1CD855,#FA92F8,0,0,1,38,1,428.5,37,1,325.39999997615814,0,1,experiment,NA,NA,1,0.7,0.3,2,3,126,3,NA
fcp-trial,161,667358,0.0-136.0-0.0,voc_e2,12310,"[{""event"":""fullscreenenter"",""trial"":1,""time"":5658}]",NA,NA,NA,NA,NA,0,#741CD8,#D8271C,0,10,0,38,1,380.7999999523163,39,0,311.7000000476837,10,1,experiment,NA,NA,0,0.1,0.9,1,0,127,3,NA
fcp-trial,162,669619,0.0-137.0-0.0,voc_e2,12310,"[{""event"":""fullscreenenter"",""trial"":1,""time"":5658}]",NA,NA,NA,NA,NA,6,#3386FF,#D89F1C,10,0,1,38,1,425.39999997615814,39,0,324.5999999642372,0,0,experiment,NA,NA,2,0.5,0.5,4,5,128,3,NA
fcp-trial,163,672053,0.0-138.0-0.0,voc_e2,12310,"[{""event"":""fullscreenenter"",""trial"":1,""time"":5658}]",NA,NA,NA,NA,NA,5,#D8271C,#741CD8,10,0,1,38,1,352.39999997615814,37,1,574.6999999880791,10,1,experiment,NA,NA,0,0.9,0.1,0,1,129,3,NA
fcp-trial,164,674236,0.0-139.0-0.0,voc_e2,12310,"[{""event"":""fullscreenenter"",""trial"":1,""time"":5658}]",NA,NA,NA,NA,NA,3,#1CD855,#FA92F8,10,0,1,38,1,327.80000001192093,37,1,340.39999997615814,10,1,experiment,NA,NA,1,0.7,0.3,2,3,130,3,NA
fcp-trial,165,676468,0.0-140.0-0.0,voc_e2,12310,"[{""event"":""fullscreenenter"",""trial"":1,""time"":5658}]",NA,NA,NA,NA,NA,2,#741CD8,#D8271C,0,10,0,38,1,399.0999999642372,39,0,326.80000001192093,10,1,experiment,NA,NA,0,0.1,0.9,1,0,131,3,NA
fcp-trial,166,678643,0.0-141.0-0.0,voc_e2,12310,"[{""event"":""fullscreenenter"",""trial"":1,""time"":5658}]",NA,NA,NA,NA,NA,4,#D89F1C,#3386FF,0,0,0,38,1,368.39999997615814,37,1,303.19999998807907,0,0,experiment,NA,NA,2,0.5,0.5,5,4,132,3,NA
fcp-trial,167,680963,0.0-142.0-0.0,voc_e2,12310,"[{""event"":""fullscreenenter"",""trial"":1,""time"":5658}]",NA,NA,NA,NA,NA,5,#3386FF,#D89F1C,10,10,1,38,1,488.4000000357628,39,0,325.69999998807907,10,0,experiment,NA,NA,2,0.5,0.5,4,5,133,3,NA
fcp-trial,168,683244,0.0-143.0-0.0,voc_e2,12310,"[{""event"":""fullscreenenter"",""trial"":1,""time"":5658}]",NA,NA,NA,NA,NA,5,#1CD855,#FA92F8,10,10,1,38,1,385.80000001192093,37,1,391.4000000357628,10,1,experiment,NA,NA,1,0.7,0.3,2,3,134,3,NA
fcp-trial,169,685556,0.0-144.0-0.0,voc_e2,12310,"[{""event"":""fullscreenenter"",""trial"":1,""time"":5658}]",NA,NA,NA,NA,NA,0,#D89F1C,#3386FF,10,0,0,38,1,459.2999999523163,37,1,343,10,0,experiment,NA,NA,2,0.5,0.5,5,4,135,3,NA
fcp-trial,170,688590,0.0-145.0-0.0,voc_e2,12310,"[{""event"":""fullscreenenter"",""trial"":1,""time"":5658}]",NA,NA,NA,NA,NA,3,#D8271C,#741CD8,10,0,1,38,1,1149.6000000238419,37,1,373.9000000357628,10,1,experiment,NA,NA,0,0.9,0.1,0,1,136,4,NA
fcp-trial,171,692164,0.0-146.0-0.0,voc_e2,12310,"[{""event"":""fullscreenenter"",""trial"":1,""time"":5658}]",NA,NA,NA,NA,NA,2,#1CD855,#FA92F8,10,0,1,38,1,1792.3999999761581,37,1,271.89999997615814,10,1,experiment,NA,NA,1,0.7,0.3,2,3,137,4,NA
fcp-trial,172,696124,0.0-147.0-0.0,voc_e2,12310,"[{""event"":""fullscreenenter"",""trial"":1,""time"":5658}]",NA,NA,NA,NA,NA,0,#1CD855,#FA92F8,0,10,1,38,1,1906.699999988079,37,1,542.4000000357628,0,1,experiment,NA,NA,1,0.7,0.3,2,3,138,4,NA
fcp-trial,173,699324,0.0-148.0-0.0,voc_e2,12310,"[{""event"":""fullscreenenter"",""trial"":1,""time"":5658}]",NA,NA,NA,NA,NA,1,#D89F1C,#3386FF,10,0,0,38,1,1317.8999999761581,37,1,375.199999988079,10,0,experiment,NA,NA,2,0.5,0.5,5,4,139,4,NA
fcp-trial,174,702748,0.0-149.0-0.0,voc_e2,12310,"[{""event"":""fullscreenenter"",""trial"":1,""time"":5658}]",NA,NA,NA,NA,NA,6,#741CD8,#D8271C,0,10,0,38,1,1543.199999988079,39,0,373.89999997615814,10,1,experiment,NA,NA,0,0.1,0.9,1,0,140,4,NA
fcp-trial,175,705276,0.0-150.0-0.0,voc_e2,12310,"[{""event"":""fullscreenenter"",""trial"":1,""time"":5658}]",NA,NA,NA,NA,NA,1,#1CD855,#FA92F8,10,0,1,38,1,532.1999999880791,39,0,485.199999988079,0,0,experiment,NA,NA,1,0.7,0.3,2,3,141,4,NA
fcp-trial,176,712612,0.0-151.0-0.0,voc_e2,12310,"[{""event"":""fullscreenenter"",""trial"":1,""time"":5658}]",NA,NA,NA,NA,NA,3,#3386FF,#D89F1C,0,10,1,38,1,5501,39,0,325.0999999642372,10,0,experiment,NA,NA,2,0.5,0.5,4,5,142,4,NA
fcp-trial,177,717436,0.0-152.0-0.0,voc_e2,12310,"[{""event"":""fullscreenenter"",""trial"":1,""time"":5658}]",NA,NA,NA,NA,NA,1,#741CD8,#D8271C,0,10,0,38,1,3054.300000011921,39,0,262.19999998807907,10,1,experiment,NA,NA,0,0.1,0.9,1,0,143,4,NA
fcp-trial,178,722329,0.0-153.0-0.0,voc_e2,12310,"[{""event"":""fullscreenenter"",""trial"":1,""time"":5658}]",NA,NA,NA,NA,NA,6,#FA92F8,#1CD855,0,10,0,38,1,2269.699999988079,37,1,1111.800000011921,0,0,experiment,NA,NA,1,0.3,0.7,3,2,144,4,NA
fcp-trial,179,726805,0.0-154.0-0.0,voc_e2,12310,"[{""event"":""fullscreenenter"",""trial"":1,""time"":5658}]",NA,NA,NA,NA,NA,4,#1CD855,#FA92F8,10,0,1,38,1,2438,39,0,526.8999999761581,0,0,experiment,NA,NA,1,0.7,0.3,2,3,145,4,NA
fcp-trial,180,731564,0.0-155.0-0.0,voc_e2,12310,"[{""event"":""fullscreenenter"",""trial"":1,""time"":5658}]",NA,NA,NA,NA,NA,4,#D8271C,#741CD8,10,0,1,38,1,2873,37,1,374.800000011921,10,1,experiment,NA,NA,0,0.9,0.1,0,1,146,4,NA
fcp-trial,181,735683,0.0-156.0-0.0,voc_e2,12310,"[{""event"":""fullscreenenter"",""trial"":1,""time"":5658}]",NA,NA,NA,NA,NA,2,#3386FF,#D89F1C,10,0,1,38,1,2114.699999988079,39,0,495,0,0,experiment,NA,NA,2,0.5,0.5,4,5,147,4,NA
fcp-trial,182,742115,0.0-157.0-0.0,voc_e2,12310,"[{""event"":""fullscreenenter"",""trial"":1,""time"":5658}]",NA,NA,NA,NA,NA,1,#FA92F8,#1CD855,0,0,0,38,1,4128.699999988079,37,1,791.5,0,0,experiment,NA,NA,1,0.3,0.7,3,2,148,4,NA
fcp-trial,183,744555,0.0-158.0-0.0,voc_e2,12310,"[{""event"":""fullscreenenter"",""trial"":1,""time"":5658}]",NA,NA,NA,NA,NA,6,#1CD855,#FA92F8,0,0,1,38,1,584,39,0,343.2000000476837,0,0,experiment,NA,NA,1,0.7,0.3,2,3,149,4,NA
fcp-trial,184,747052,0.0-159.0-0.0,voc_e2,12310,"[{""event"":""fullscreenenter"",""trial"":1,""time"":5658}]",NA,NA,NA,NA,NA,2,#D89F1C,#3386FF,10,0,0,38,1,532.4000000357628,37,1,454.300000011921,10,0,experiment,NA,NA,2,0.5,0.5,5,4,150,4,NA
fcp-trial,185,752454,0.0-160.0-0.0,voc_e2,12310,"[{""event"":""fullscreenenter"",""trial"":1,""time"":5658}]",NA,NA,NA,NA,NA,0,#741CD8,#D8271C,0,10,0,38,1,2957.699999988079,39,0,933.5999999642372,10,1,experiment,NA,NA,0,0.1,0.9,1,0,151,4,NA
fcp-trial,186,755029,0.0-161.0-0.0,voc_e2,12310,"[{""event"":""fullscreenenter"",""trial"":1,""time"":5658}]",NA,NA,NA,NA,NA,4,#741CD8,#D8271C,0,0,0,38,1,769.6999999880791,39,0,295.0999999642372,0,1,experiment,NA,NA,0,0.1,0.9,1,0,152,4,NA
fcp-trial,187,758324,0.0-162.0-0.0,voc_e2,12310,"[{""event"":""fullscreenenter"",""trial"":1,""time"":5658}]",NA,NA,NA,NA,NA,4,#1CD855,#FA92F8,10,0,1,40,0,834.8999999761581,37,1,949.8000000119208,10,1,experiment,NA,NA,1,0.7,0.3,2,3,153,4,NA
fcp-trial,188,761324,0.0-163.0-0.0,voc_e2,12310,"[{""event"":""fullscreenenter"",""trial"":1,""time"":5658}]",NA,NA,NA,NA,NA,6,#D89F1C,#3386FF,0,10,0,38,1,1222,37,1,270.5,0,0,experiment,NA,NA,2,0.5,0.5,5,4,154,4,NA
fcp-trial,189,764100,0.0-164.0-0.0,voc_e2,12310,"[{""event"":""fullscreenenter"",""trial"":1,""time"":5658}]",NA,NA,NA,NA,NA,3,#D8271C,#741CD8,10,0,1,38,1,954.6999999880791,37,1,309.60000002384186,10,1,experiment,NA,NA,0,0.9,0.1,0,1,155,4,NA
fcp-trial,190,769629,0.0-165.0-0.0,voc_e2,12310,"[{""event"":""fullscreenenter"",""trial"":1,""time"":5658}]",NA,NA,NA,NA,NA,6,#D8271C,#741CD8,10,0,1,38,1,2921.5,37,1,1094,10,1,experiment,NA,NA,0,0.9,0.1,0,1,156,4,NA
fcp-trial,191,773948,0.0-166.0-0.0,voc_e2,12310,"[{""event"":""fullscreenenter"",""trial"":1,""time"":5658}]",NA,NA,NA,NA,NA,5,#D89F1C,#3386FF,10,0,0,38,1,2457.399999976158,37,1,351,10,0,experiment,NA,NA,2,0.5,0.5,5,4,157,4,NA
fcp-trial,192,781325,0.0-167.0-0.0,voc_e2,12310,"[{""event"":""fullscreenenter"",""trial"":1,""time"":5658}]",NA,NA,NA,NA,NA,3,#FA92F8,#1CD855,0,10,0,40,0,3504.5,39,0,2359.7000000476837,10,1,experiment,NA,NA,1,0.3,0.7,3,2,158,4,NA
fcp-trial,193,785348,0.0-168.0-0.0,voc_e2,12310,"[{""event"":""fullscreenenter"",""trial"":1,""time"":5658}]",NA,NA,NA,NA,NA,0,#D89F1C,#3386FF,10,0,0,40,0,1611,37,1,902.8000000119208,10,0,experiment,NA,NA,2,0.5,0.5,5,4,159,4,NA
fcp-trial,194,790174,0.0-169.0-0.0,voc_e2,12310,"[{""event"":""fullscreenenter"",""trial"":1,""time"":5658}]",NA,NA,NA,NA,NA,1,#741CD8,#D8271C,0,10,0,38,1,2116.199999988079,39,0,1199.899999976158,10,1,experiment,NA,NA,0,0.1,0.9,1,0,160,4,NA
fcp-trial,195,792963,0.0-170.0-0.0,voc_e2,12310,"[{""event"":""fullscreenenter"",""trial"":1,""time"":5658}]",NA,NA,NA,NA,NA,2,#741CD8,#D8271C,0,10,0,38,1,912.8000000119209,39,0,367.4000000357628,10,1,experiment,NA,NA,0,0.1,0.9,1,0,161,4,NA
fcp-trial,196,796964,0.0-171.0-0.0,voc_e2,12310,"[{""event"":""fullscreenenter"",""trial"":1,""time"":5658}]",NA,NA,NA,NA,NA,1,#3386FF,#D89F1C,10,0,1,38,1,2073.599999964237,39,0,422.89999997615814,0,0,experiment,NA,NA,2,0.5,0.5,4,5,162,4,NA
fcp-trial,197,799869,0.0-172.0-0.0,voc_e2,12310,"[{""event"":""fullscreenenter"",""trial"":1,""time"":5658}]",NA,NA,NA,NA,NA,0,#1CD855,#FA92F8,10,0,1,38,1,505.10000002384186,37,1,887.8000000119209,10,1,experiment,NA,NA,1,0.7,0.3,2,3,163,4,NA
fcp-trial,198,802862,0.0-173.0-0.0,voc_e2,12310,"[{""event"":""fullscreenenter"",""trial"":1,""time"":5658}]",NA,NA,NA,NA,NA,5,#D8271C,#741CD8,10,0,1,38,1,939.3999999761581,37,1,541.0999999642372,10,1,experiment,NA,NA,0,0.9,0.1,0,1,164,4,NA
fcp-trial,199,805628,0.0-174.0-0.0,voc_e2,12310,"[{""event"":""fullscreenenter"",""trial"":1,""time"":5658}]",NA,NA,NA,NA,NA,3,#D89F1C,#3386FF,10,10,0,38,1,896.8000000119209,37,1,359.10000002384186,10,0,experiment,NA,NA,2,0.5,0.5,5,4,165,4,NA
fcp-trial,200,809812,0.0-175.0-0.0,voc_e2,12310,"[{""event"":""fullscreenenter"",""trial"":1,""time"":5658}]",NA,NA,NA,NA,NA,5,#1CD855,#FA92F8,10,0,1,40,0,1613.5,39,0,1063.4000000357628,0,0,experiment,NA,NA,1,0.7,0.3,2,3,166,4,NA
fcp-trial,201,813244,0.0-176.0-0.0,voc_e2,12310,"[{""event"":""fullscreenenter"",""trial"":1,""time"":5658}]",NA,NA,NA,NA,NA,4,#3386FF,#D89F1C,0,10,1,38,1,1534.2999999523163,39,0,390.5,10,0,experiment,NA,NA,2,0.5,0.5,4,5,167,4,NA
fcp-trial,202,816708,0.0-177.0-0.0,voc_e2,12310,"[{""event"":""fullscreenenter"",""trial"":1,""time"":5658}]",NA,NA,NA,NA,NA,2,#FA92F8,#1CD855,0,0,0,40,0,971,37,1,982.899999976158,0,0,experiment,NA,NA,1,0.3,0.7,3,2,168,4,NA
fcp-trial,203,820565,0.0-178.0-0.0,voc_e2,12310,"[{""event"":""fullscreenenter"",""trial"":1,""time"":5658}]",NA,NA,NA,NA,NA,1,#D8271C,#741CD8,10,0,1,38,1,1834.5999999642372,37,1,512.6000000238419,10,1,experiment,NA,NA,0,0.9,0.1,0,1,169,4,NA
fcp-trial,204,823125,0.0-179.0-0.0,voc_e2,12310,"[{""event"":""fullscreenenter"",""trial"":1,""time"":5658}]",NA,NA,NA,NA,NA,3,#741CD8,#D8271C,0,10,0,38,1,664,39,0,383.300000011921,10,1,experiment,NA,NA,0,0.1,0.9,1,0,170,4,NA
fcp-trial,205,826357,0.0-180.0-0.0,voc_e2,12310,"[{""event"":""fullscreenenter"",""trial"":1,""time"":5658}]",NA,NA,NA,NA,NA,3,#1CD855,#FA92F8,10,0,1,40,0,930.1000000238419,37,1,790.8999999761581,10,1,experiment,NA,NA,1,0.7,0.3,2,3,171,4,NA
fcp-trial,206,829404,0.0-181.0-0.0,voc_e2,12310,"[{""event"":""fullscreenenter"",""trial"":1,""time"":5658}]",NA,NA,NA,NA,NA,5,#1CD855,#FA92F8,10,0,1,40,0,866.0999999642372,39,0,670.5,0,0,experiment,NA,NA,1,0.7,0.3,2,3,172,4,NA
fcp-trial,207,832619,0.0-182.0-0.0,voc_e2,12310,"[{""event"":""fullscreenenter"",""trial"":1,""time"":5658}]",NA,NA,NA,NA,NA,5,#D8271C,#741CD8,10,0,1,38,1,1349.8999999761581,37,1,357.80000001192093,10,1,experiment,NA,NA,0,0.9,0.1,0,1,173,4,NA
fcp-trial,208,835244,0.0-183.0-0.0,voc_e2,12310,"[{""event"":""fullscreenenter"",""trial"":1,""time"":5658}]",NA,NA,NA,NA,NA,1,#D89F1C,#3386FF,10,0,0,38,1,772.2000000476837,37,1,343.69999998807907,10,0,experiment,NA,NA,2,0.5,0.5,5,4,174,4,NA
fcp-trial,209,837972,0.0-184.0-0.0,voc_e2,12310,"[{""event"":""fullscreenenter"",""trial"":1,""time"":5658}]",NA,NA,NA,NA,NA,4,#1CD855,#FA92F8,10,10,1,38,1,440.19999998807907,39,0,774.3000000119209,10,0,experiment,NA,NA,1,0.7,0.3,2,3,175,4,NA
fcp-trial,210,840564,0.0-185.0-0.0,voc_e2,12310,"[{""event"":""fullscreenenter"",""trial"":1,""time"":5658}]",NA,NA,NA,NA,NA,3,#3386FF,#D89F1C,10,0,1,38,1,726.3999999761581,39,0,359.5999999642372,0,0,experiment,NA,NA,2,0.5,0.5,4,5,176,4,NA
fcp-trial,211,843108,0.0-186.0-0.0,voc_e2,12310,"[{""event"":""fullscreenenter"",""trial"":1,""time"":5658}]",NA,NA,NA,NA,NA,4,#D89F1C,#3386FF,0,10,0,38,1,694.6999999880791,37,1,341.89999997615814,0,0,experiment,NA,NA,2,0.5,0.5,5,4,177,4,NA
fcp-trial,212,845949,0.0-187.0-0.0,voc_e2,12310,"[{""event"":""fullscreenenter"",""trial"":1,""time"":5658}]",NA,NA,NA,NA,NA,2,#D8271C,#741CD8,10,0,1,38,1,931.4000000357628,37,1,398.0999999642372,10,1,experiment,NA,NA,0,0.9,0.1,0,1,178,4,NA
fcp-trial,213,849060,0.0-188.0-0.0,voc_e2,12310,"[{""event"":""fullscreenenter"",""trial"":1,""time"":5658}]",NA,NA,NA,NA,NA,2,#FA92F8,#1CD855,10,10,0,40,0,993.8000000119209,37,1,606.5,10,0,experiment,NA,NA,1,0.3,0.7,3,2,179,4,NA
fcp-trial,214,852212,0.0-189.0-0.0,voc_e2,12310,"[{""event"":""fullscreenenter"",""trial"":1,""time"":5658}]",NA,NA,NA,NA,NA,6,#741CD8,#D8271C,0,10,0,38,1,1279.3999999761581,39,0,358.80000001192093,10,1,experiment,NA,NA,0,0.1,0.9,1,0,180,4,NA
fcp-trial,215,855117,0.0-190.0-0.0,voc_e2,12310,"[{""event"":""fullscreenenter"",""trial"":1,""time"":5658}]",NA,NA,NA,NA,NA,1,#1CD855,#FA92F8,10,10,1,40,0,756.1999999880791,39,0,640.3000000119209,10,0,experiment,NA,NA,1,0.7,0.3,2,3,181,5,NA
fcp-trial,216,857660,0.0-191.0-0.0,voc_e2,12310,"[{""event"":""fullscreenenter"",""trial"":1,""time"":5658}]",NA,NA,NA,NA,NA,0,#3386FF,#D89F1C,10,10,1,38,1,659.0999999642372,39,0,373.199999988079,10,0,experiment,NA,NA,2,0.5,0.5,4,5,182,5,NA
fcp-trial,217,860717,0.0-192.0-0.0,voc_e2,12310,"[{""event"":""fullscreenenter"",""trial"":1,""time"":5658}]",NA,NA,NA,NA,NA,0,#741CD8,#D8271C,10,10,0,38,1,1192.7000000476837,39,0,350,10,1,experiment,NA,NA,0,0.1,0.9,1,0,183,5,NA
fcp-trial,218,863188,0.0-193.0-0.0,voc_e2,12310,"[{""event"":""fullscreenenter"",""trial"":1,""time"":5658}]",NA,NA,NA,NA,NA,5,#3386FF,#D89F1C,0,10,1,38,1,652.9000000357628,39,0,310.9000000357628,10,0,experiment,NA,NA,2,0.5,0.5,4,5,184,5,NA
fcp-trial,219,866308,0.0-194.0-0.0,voc_e2,12310,"[{""event"":""fullscreenenter"",""trial"":1,""time"":5658}]",NA,NA,NA,NA,NA,6,#FA92F8,#1CD855,10,0,0,40,0,1103.5,39,0,509.199999988079,0,1,experiment,NA,NA,1,0.3,0.7,3,2,185,5,NA
fcp-trial,220,868788,0.0-195.0-0.0,voc_e2,12310,"[{""event"":""fullscreenenter"",""trial"":1,""time"":5658}]",NA,NA,NA,NA,NA,4,#741CD8,#D8271C,0,0,0,38,1,658.8999999761581,39,0,310.39999997615814,0,1,experiment,NA,NA,0,0.1,0.9,1,0,186,5,NA
fcp-trial,221,871331,0.0-196.0-0.0,voc_e2,12310,"[{""event"":""fullscreenenter"",""trial"":1,""time"":5658}]",NA,NA,NA,NA,NA,2,#3386FF,#D89F1C,10,10,1,38,1,674.3000000119209,39,0,359.60000002384186,10,0,experiment,NA,NA,2,0.5,0.5,4,5,187,5,NA
fcp-trial,222,874563,0.0-197.0-0.0,voc_e2,12310,"[{""event"":""fullscreenenter"",""trial"":1,""time"":5658}]",NA,NA,NA,NA,NA,0,#1CD855,#FA92F8,0,0,1,40,0,1214.5,39,0,510.199999988079,0,0,experiment,NA,NA,1,0.7,0.3,2,3,188,5,NA
fcp-trial,223,877347,0.0-198.0-0.0,voc_e2,12310,"[{""event"":""fullscreenenter"",""trial"":1,""time"":5658}]",NA,NA,NA,NA,NA,6,#D89F1C,#3386FF,10,0,0,38,1,678.7000000476837,37,1,599.6999999880791,10,0,experiment,NA,NA,2,0.5,0.5,5,4,189,5,NA
fcp-trial,224,880076,0.0-199.0-0.0,voc_e2,12310,"[{""event"":""fullscreenenter"",""trial"":1,""time"":5658}]",NA,NA,NA,NA,NA,5,#D89F1C,#3386FF,0,0,0,38,1,892.6999999880791,37,1,326.10000002384186,0,0,experiment,NA,NA,2,0.5,0.5,5,4,190,5,NA
fcp-trial,225,883123,0.0-200.0-0.0,voc_e2,12310,"[{""event"":""fullscreenenter"",""trial"":1,""time"":5658}]",NA,NA,NA,NA,NA,6,#D8271C,#741CD8,10,0,1,38,1,1165.2999999523163,37,1,374.800000011921,10,1,experiment,NA,NA,0,0.9,0.1,0,1,191,5,NA
fcp-trial,226,886307,0.0-201.0-0.0,voc_e2,12310,"[{""event"":""fullscreenenter"",""trial"":1,""time"":5658}]",NA,NA,NA,NA,NA,0,#1CD855,#FA92F8,10,10,1,40,0,894.8999999761581,37,1,782.8000000119209,10,1,experiment,NA,NA,1,0.7,0.3,2,3,192,5,NA
fcp-trial,227,889476,0.0-202.0-0.0,voc_e2,12310,"[{""event"":""fullscreenenter"",""trial"":1,""time"":5658}]",NA,NA,NA,NA,NA,1,#3386FF,#D89F1C,0,0,1,38,1,908.1000000238419,39,0,750.6999999880791,0,0,experiment,NA,NA,2,0.5,0.5,4,5,193,5,NA
fcp-trial,228,892443,0.0-203.0-0.0,voc_e2,12310,"[{""event"":""fullscreenenter"",""trial"":1,""time"":5658}]",NA,NA,NA,NA,NA,6,#1CD855,#FA92F8,10,10,1,40,0,822,37,1,638.1999999880791,10,1,experiment,NA,NA,1,0.7,0.3,2,3,194,5,NA
fcp-trial,229,895426,0.0-204.0-0.0,voc_e2,12310,"[{""event"":""fullscreenenter"",""trial"":1,""time"":5658}]",NA,NA,NA,NA,NA,5,#D8271C,#741CD8,10,0,1,38,1,1093.7999999523163,37,1,372.300000011921,10,1,experiment,NA,NA,0,0.9,0.1,0,1,195,5,NA
fcp-trial,230,898091,0.0-205.0-0.0,voc_e2,12310,"[{""event"":""fullscreenenter"",""trial"":1,""time"":5658}]",NA,NA,NA,NA,NA,0,#D89F1C,#3386FF,10,0,0,38,1,776.0999999642372,37,1,373.5999999642372,10,0,experiment,NA,NA,2,0.5,0.5,5,4,196,5,NA
fcp-trial,231,900573,0.0-206.0-0.0,voc_e2,12310,"[{""event"":""fullscreenenter"",""trial"":1,""time"":5658}]",NA,NA,NA,NA,NA,2,#D89F1C,#3386FF,10,0,0,38,1,544.8999999761581,37,1,430.800000011921,10,0,experiment,NA,NA,2,0.5,0.5,5,4,197,5,NA
fcp-trial,232,903411,0.0-207.0-0.0,voc_e2,12310,"[{""event"":""fullscreenenter"",""trial"":1,""time"":5658}]",NA,NA,NA,NA,NA,4,#1CD855,#FA92F8,10,10,1,40,0,898,39,0,430.199999988079,10,0,experiment,NA,NA,1,0.7,0.3,2,3,198,5,NA
fcp-trial,233,905851,0.0-208.0-0.0,voc_e2,12310,"[{""event"":""fullscreenenter"",""trial"":1,""time"":5658}]",NA,NA,NA,NA,NA,4,#D8271C,#741CD8,10,0,1,38,1,606.3999999761581,37,1,326.9000000357628,10,1,experiment,NA,NA,0,0.9,0.1,0,1,199,5,NA
fcp-trial,234,908771,0.0-209.0-0.0,voc_e2,12310,"[{""event"":""fullscreenenter"",""trial"":1,""time"":5658}]",NA,NA,NA,NA,NA,3,#FA92F8,#1CD855,0,10,0,40,0,890.6000000238419,39,0,519.3000000119209,10,1,experiment,NA,NA,1,0.3,0.7,3,2,200,5,NA
fcp-trial,235,911522,0.0-210.0-0.0,voc_e2,12310,"[{""event"":""fullscreenenter"",""trial"":1,""time"":5658}]",NA,NA,NA,NA,NA,4,#3386FF,#D89F1C,0,0,1,38,1,891.1999999880791,39,0,342,0,0,experiment,NA,NA,2,0.5,0.5,4,5,201,5,NA
fcp-trial,236,914219,0.0-211.0-0.0,voc_e2,12310,"[{""event"":""fullscreenenter"",""trial"":1,""time"":5658}]",NA,NA,NA,NA,NA,0,#D8271C,#741CD8,10,0,1,38,1,825.3000000119209,37,1,357.5999999642372,10,1,experiment,NA,NA,0,0.9,0.1,0,1,202,5,NA
fcp-trial,237,917163,0.0-212.0-0.0,voc_e2,12310,"[{""event"":""fullscreenenter"",""trial"":1,""time"":5658}]",NA,NA,NA,NA,NA,5,#1CD855,#FA92F8,0,0,1,40,0,1051.6000000238419,39,0,382.5,0,0,experiment,NA,NA,1,0.7,0.3,2,3,203,5,NA
fcp-trial,238,919931,0.0-213.0-0.0,voc_e2,12310,"[{""event"":""fullscreenenter"",""trial"":1,""time"":5658}]",NA,NA,NA,NA,NA,2,#741CD8,#D8271C,0,10,0,38,1,915.1000000238419,39,0,342.89999997615814,10,1,experiment,NA,NA,0,0.1,0.9,1,0,204,5,NA
fcp-trial,239,923100,0.0-214.0-0.0,voc_e2,12310,"[{""event"":""fullscreenenter"",""trial"":1,""time"":5658}]",NA,NA,NA,NA,NA,1,#FA92F8,#1CD855,0,10,0,40,0,1224,39,0,437.199999988079,10,1,experiment,NA,NA,1,0.3,0.7,3,2,205,5,NA
fcp-trial,240,925531,0.0-215.0-0.0,voc_e2,12310,"[{""event"":""fullscreenenter"",""trial"":1,""time"":5658}]",NA,NA,NA,NA,NA,6,#3386FF,#D89F1C,10,10,1,38,1,626.5,39,0,295.19999998807907,10,0,experiment,NA,NA,2,0.5,0.5,4,5,206,5,NA
fcp-trial,241,928235,0.0-216.0-0.0,voc_e2,12310,"[{""event"":""fullscreenenter"",""trial"":1,""time"":5658}]",NA,NA,NA,NA,NA,1,#D8271C,#741CD8,10,0,1,38,1,838.3000000119209,37,1,359.80000001192093,10,1,experiment,NA,NA,0,0.9,0.1,0,1,207,5,NA
fcp-trial,242,931156,0.0-217.0-0.0,voc_e2,12310,"[{""event"":""fullscreenenter"",""trial"":1,""time"":5658}]",NA,NA,NA,NA,NA,3,#3386FF,#D89F1C,10,0,1,38,1,1015.6000000238419,39,0,390.800000011921,0,0,experiment,NA,NA,2,0.5,0.5,4,5,208,5,NA
fcp-trial,243,933852,0.0-218.0-0.0,voc_e2,12310,"[{""event"":""fullscreenenter"",""trial"":1,""time"":5658}]",NA,NA,NA,NA,NA,3,#741CD8,#D8271C,0,10,0,38,1,809.8999999761581,39,0,373,10,1,experiment,NA,NA,0,0.1,0.9,1,0,209,5,NA
fcp-trial,244,936964,0.0-219.0-0.0,voc_e2,12310,"[{""event"":""fullscreenenter"",""trial"":1,""time"":5658}]",NA,NA,NA,NA,NA,2,#1CD855,#FA92F8,0,10,1,40,0,1226.6000000238419,39,0,374.199999988079,10,0,experiment,NA,NA,1,0.7,0.3,2,3,210,5,NA
audio-instructions,245,1034981,0.0-220.0,voc_e2,12310,"[{""event"":""fullscreenenter"",""trial"":1,""time"":5658}]",NA,93083.79999995232,static/audio/pause.wav,NA,0,NA,NA,NA,NA,NA,NA,NA,NA,NA,NA,NA,NA,NA,NA,NA,NA,NA,NA,NA,NA,NA,NA,NA,NA,NA
fcp-trial,246,1038228,0.0-221.0-0.0,voc_e2,12310,"[{""event"":""fullscreenenter"",""trial"":1,""time"":5658}]",NA,NA,NA,NA,NA,4,#741CD8,#D8271C,0,10,0,38,1,1429.9000000357628,39,0,310.9000000357628,10,1,experiment,NA,NA,0,0.1,0.9,1,0,211,5,NA
fcp-trial,247,1041084,0.0-222.0-0.0,voc_e2,12310,"[{""event"":""fullscreenenter"",""trial"":1,""time"":5658}]",NA,NA,NA,NA,NA,1,#1CD855,#FA92F8,0,0,1,40,0,818.3999999761581,39,0,526.6999999880791,0,0,experiment,NA,NA,1,0.7,0.3,2,3,212,5,NA
fcp-trial,248,1043845,0.0-223.0-0.0,voc_e2,12310,"[{""event"":""fullscreenenter"",""trial"":1,""time"":5658}]",NA,NA,NA,NA,NA,3,#D89F1C,#3386FF,0,10,0,38,1,967.5,37,1,277.89999997615814,0,0,experiment,NA,NA,2,0.5,0.5,5,4,213,5,NA
fcp-trial,249,1046850,0.0-224.0-0.0,voc_e2,12310,"[{""event"":""fullscreenenter"",""trial"":1,""time"":5658}]",NA,NA,NA,NA,NA,6,#1CD855,#FA92F8,10,0,1,40,0,848.8000000119209,37,1,639.1000000238419,10,1,experiment,NA,NA,1,0.7,0.3,2,3,214,5,NA
fcp-trial,250,1050524,0.0-225.0-0.0,voc_e2,12310,"[{""event"":""fullscreenenter"",""trial"":1,""time"":5658}]",NA,NA,NA,NA,NA,1,#D8271C,#741CD8,10,0,1,38,1,1730,37,1,430.4000000357628,10,1,experiment,NA,NA,0,0.9,0.1,0,1,215,5,NA
fcp-trial,251,1053348,0.0-226.0-0.0,voc_e2,12310,"[{""event"":""fullscreenenter"",""trial"":1,""time"":5658}]",NA,NA,NA,NA,NA,2,#D89F1C,#3386FF,10,0,0,38,1,1003,37,1,308.19999998807907,10,0,experiment,NA,NA,2,0.5,0.5,5,4,216,5,NA
fcp-trial,252,1056508,0.0-227.0-0.0,voc_e2,12310,"[{""event"":""fullscreenenter"",""trial"":1,""time"":5658}]",NA,NA,NA,NA,NA,5,#D8271C,#741CD8,10,0,1,38,1,1337.9000000357628,37,1,311.10000002384186,10,1,experiment,NA,NA,0,0.9,0.1,0,1,217,5,NA
fcp-trial,253,1059468,0.0-228.0-0.0,voc_e2,12310,"[{""event"":""fullscreenenter"",""trial"":1,""time"":5658}]",NA,NA,NA,NA,NA,6,#D89F1C,#3386FF,0,0,0,38,1,989.0999999642372,37,1,460.0999999642372,0,0,experiment,NA,NA,2,0.5,0.5,5,4,218,5,NA
fcp-trial,254,1062323,0.0-229.0-0.0,voc_e2,12310,"[{""event"":""fullscreenenter"",""trial"":1,""time"":5658}]",NA,NA,NA,NA,NA,2,#1CD855,#FA92F8,10,0,1,40,0,751.8000000119209,37,1,591.1000000238419,10,1,experiment,NA,NA,1,0.7,0.3,2,3,219,5,NA
fcp-trial,255,1067492,0.0-230.0-0.0,voc_e2,12310,"[{""event"":""fullscreenenter"",""trial"":1,""time"":5658}]",NA,NA,NA,NA,NA,4,#FA92F8,#1CD855,0,10,0,40,0,3130.699999988079,37,1,526.8000000119209,0,0,experiment,NA,NA,1,0.3,0.7,3,2,220,5,NA
fcp-trial,256,1070428,0.0-231.0-0.0,voc_e2,12310,"[{""event"":""fullscreenenter"",""trial"":1,""time"":5658}]",NA,NA,NA,NA,NA,2,#741CD8,#D8271C,0,10,0,38,1,1037.300000011921,39,0,388,10,1,experiment,NA,NA,0,0.1,0.9,1,0,221,5,NA
fcp-trial,257,1074254,0.0-232.0-0.0,voc_e2,12310,"[{""event"":""fullscreenenter"",""trial"":1,""time"":5658}]",NA,NA,NA,NA,NA,6,#741CD8,#D8271C,0,10,0,38,1,1690.2999999523163,39,0,622.1999999880791,10,1,experiment,NA,NA,0,0.1,0.9,1,0,222,5,NA
fcp-trial,258,1077470,0.0-233.0-0.0,voc_e2,12310,"[{""event"":""fullscreenenter"",""trial"":1,""time"":5658}]",NA,NA,NA,NA,NA,4,#3386FF,#D89F1C,0,0,1,38,1,1265,39,0,437.5,0,0,experiment,NA,NA,2,0.5,0.5,4,5,223,5,NA
fcp-trial,259,1080406,0.0-234.0-0.0,voc_e2,12310,"[{""event"":""fullscreenenter"",""trial"":1,""time"":5658}]",NA,NA,NA,NA,NA,3,#741CD8,#D8271C,0,10,0,38,1,952.3000000119209,39,0,472.699999988079,10,1,experiment,NA,NA,0,0.1,0.9,1,0,224,5,NA
fcp-trial,260,1083324,0.0-235.0-0.0,voc_e2,12310,"[{""event"":""fullscreenenter"",""trial"":1,""time"":5658}]",NA,NA,NA,NA,NA,3,#1CD855,#FA92F8,10,10,1,40,0,856.8000000119209,37,1,551,10,1,experiment,NA,NA,1,0.7,0.3,2,3,225,5,NA
fcp-trial,261,1086691,0.0-236.0-0.0,voc_e2,12310,"[{""event"":""fullscreenenter"",""trial"":1,""time"":5658}]",NA,NA,NA,NA,NA,0,#3386FF,#D89F1C,10,10,1,38,1,1469,39,0,390.199999988079,10,0,experiment,NA,NA,2,0.5,0.5,4,5,226,6,NA
fcp-trial,262,1090644,0.0-237.0-0.0,voc_e2,12310,"[{""event"":""fullscreenenter"",""trial"":1,""time"":5658}]",NA,NA,NA,NA,NA,5,#1CD855,#FA92F8,10,10,1,40,0,1971.699999988079,37,1,470.60000002384186,10,1,experiment,NA,NA,1,0.7,0.3,2,3,227,6,NA
fcp-trial,263,1095469,0.0-238.0-0.0,voc_e2,12310,"[{""event"":""fullscreenenter"",""trial"":1,""time"":5658}]",NA,NA,NA,NA,NA,0,#FA92F8,#1CD855,10,10,0,38,1,2721.5,37,1,591.6000000238419,10,0,experiment,NA,NA,1,0.3,0.7,3,2,228,6,NA
fcp-trial,264,1099131,0.0-239.0-0.0,voc_e2,12310,"[{""event"":""fullscreenenter"",""trial"":1,""time"":5658}]",NA,NA,NA,NA,NA,0,#D8271C,#741CD8,10,10,1,38,1,1857.5999999642372,37,1,294.39999997615814,10,1,experiment,NA,NA,0,0.9,0.1,0,1,229,6,NA
fcp-trial,265,1101723,0.0-240.0-0.0,voc_e2,12310,"[{""event"":""fullscreenenter"",""trial"":1,""time"":5658}]",NA,NA,NA,NA,NA,5,#3386FF,#D89F1C,0,0,1,38,1,800.8000000119209,39,0,278.19999998807907,0,0,experiment,NA,NA,2,0.5,0.5,4,5,230,6,NA
fcp-trial,266,1104234,0.0-241.0-0.0,voc_e2,12310,"[{""event"":""fullscreenenter"",""trial"":1,""time"":5658}]",NA,NA,NA,NA,NA,1,#3386FF,#D89F1C,10,10,1,38,1,689.3000000119209,39,0,311.19999998807907,10,0,experiment,NA,NA,2,0.5,0.5,4,5,231,6,NA
fcp-trial,267,1106627,0.0-242.0-0.0,voc_e2,12310,"[{""event"":""fullscreenenter"",""trial"":1,""time"":5658}]",NA,NA,NA,NA,NA,5,#D89F1C,#3386FF,10,0,0,38,1,619.5,37,1,262.80000001192093,10,0,experiment,NA,NA,2,0.5,0.5,5,4,232,6,NA
fcp-trial,268,1110059,0.0-243.0-0.0,voc_e2,12310,"[{""event"":""fullscreenenter"",""trial"":1,""time"":5658}]",NA,NA,NA,NA,NA,3,#D8271C,#741CD8,10,10,1,38,1,1562.8999999761581,37,1,356.5,10,1,experiment,NA,NA,0,0.9,0.1,0,1,233,6,NA
fcp-trial,269,1113419,0.0-244.0-0.0,voc_e2,12310,"[{""event"":""fullscreenenter"",""trial"":1,""time"":5658}]",NA,NA,NA,NA,NA,0,#1CD855,#FA92F8,10,10,1,40,0,1522.8999999761581,39,0,326.60000002384186,10,0,experiment,NA,NA,1,0.7,0.3,2,3,234,6,NA
fcp-trial,270,1116915,0.0-245.0-0.0,voc_e2,12310,"[{""event"":""fullscreenenter"",""trial"":1,""time"":5658}]",NA,NA,NA,NA,NA,5,#741CD8,#D8271C,0,10,0,38,1,1626.699999988079,39,0,359.5,10,1,experiment,NA,NA,0,0.1,0.9,1,0,235,6,NA
fcp-trial,271,1120691,0.0-246.0-0.0,voc_e2,12310,"[{""event"":""fullscreenenter"",""trial"":1,""time"":5658}]",NA,NA,NA,NA,NA,6,#D89F1C,#3386FF,0,10,0,38,1,1407.5999999642372,37,1,855.1000000238419,0,0,experiment,NA,NA,2,0.5,0.5,5,4,236,6,NA
fcp-trial,272,1126717,0.0-247.0-0.0,voc_e2,12310,"[{""event"":""fullscreenenter"",""trial"":1,""time"":5658}]",NA,NA,NA,NA,NA,6,#1CD855,#FA92F8,10,0,1,40,0,3842.399999976158,37,1,670.8999999761581,10,1,experiment,NA,NA,1,0.7,0.3,2,3,237,6,NA
fcp-trial,273,1130603,0.0-248.0-0.0,voc_e2,12310,"[{""event"":""fullscreenenter"",""trial"":1,""time"":5658}]",NA,NA,NA,NA,NA,1,#1CD855,#FA92F8,0,0,1,40,0,1816.8999999761581,37,1,558.6999999880791,0,1,experiment,NA,NA,1,0.7,0.3,2,3,238,6,NA
fcp-trial,274,1133227,0.0-249.0-0.0,voc_e2,12310,"[{""event"":""fullscreenenter"",""trial"":1,""time"":5658}]",NA,NA,NA,NA,NA,4,#741CD8,#D8271C,0,10,0,38,1,771,39,0,342.39999997615814,10,1,experiment,NA,NA,0,0.1,0.9,1,0,239,6,NA
fcp-trial,275,1135916,0.0-250.0-0.0,voc_e2,12310,"[{""event"":""fullscreenenter"",""trial"":1,""time"":5658}]",NA,NA,NA,NA,NA,4,#D89F1C,#3386FF,10,10,0,38,1,767.8999999761581,37,1,407.199999988079,10,0,experiment,NA,NA,2,0.5,0.5,5,4,240,6,NA
fcp-trial,276,1138483,0.0-251.0-0.0,voc_e2,12310,"[{""event"":""fullscreenenter"",""trial"":1,""time"":5658}]",NA,NA,NA,NA,NA,0,#3386FF,#D89F1C,0,0,1,38,1,593,39,0,463,0,0,experiment,NA,NA,2,0.5,0.5,4,5,241,6,NA
fcp-trial,277,1141955,0.0-252.0-0.0,voc_e2,12310,"[{""event"":""fullscreenenter"",""trial"":1,""time"":5658}]",NA,NA,NA,NA,NA,1,#741CD8,#D8271C,0,10,0,38,1,1572.6000000238419,39,0,390.2000000476837,10,1,experiment,NA,NA,0,0.1,0.9,1,0,242,6,NA
fcp-trial,278,1145194,0.0-253.0-0.0,voc_e2,12310,"[{""event"":""fullscreenenter"",""trial"":1,""time"":5658}]",NA,NA,NA,NA,NA,2,#FA92F8,#1CD855,0,10,0,40,0,1235,37,1,492.9000000357628,0,0,experiment,NA,NA,1,0.3,0.7,3,2,243,6,NA
fcp-trial,279,1149179,0.0-254.0-0.0,voc_e2,12310,"[{""event"":""fullscreenenter"",""trial"":1,""time"":5658}]",NA,NA,NA,NA,NA,2,#D8271C,#741CD8,10,0,1,38,1,2113.199999988079,37,1,357.5999999642372,10,1,experiment,NA,NA,0,0.9,0.1,0,1,244,6,NA
fcp-trial,280,1152819,0.0-255.0-0.0,voc_e2,12310,"[{""event"":""fullscreenenter"",""trial"":1,""time"":5658}]",NA,NA,NA,NA,NA,3,#FA92F8,#1CD855,10,0,0,40,0,1576.800000011921,37,1,550.2000000476837,10,0,experiment,NA,NA,1,0.3,0.7,3,2,245,6,NA
fcp-trial,281,1156403,0.0-256.0-0.0,voc_e2,12310,"[{""event"":""fullscreenenter"",""trial"":1,""time"":5658}]",NA,NA,NA,NA,NA,3,#3386FF,#D89F1C,10,10,1,38,1,1730.5,39,0,342.39999997615814,10,0,experiment,NA,NA,2,0.5,0.5,4,5,246,6,NA
fcp-trial,282,1159668,0.0-257.0-0.0,voc_e2,12310,"[{""event"":""fullscreenenter"",""trial"":1,""time"":5658}]",NA,NA,NA,NA,NA,6,#D8271C,#741CD8,10,0,1,38,1,1442.9000000357628,37,1,309.5,10,1,experiment,NA,NA,0,0.9,0.1,0,1,247,6,NA
fcp-trial,283,1163651,0.0-258.0-0.0,voc_e2,12310,"[{""event"":""fullscreenenter"",""trial"":1,""time"":5658}]",NA,NA,NA,NA,NA,5,#1CD855,#FA92F8,10,10,1,40,0,1490.1000000238419,37,1,983.100000023842,10,1,experiment,NA,NA,1,0.7,0.3,2,3,248,6,NA
fcp-trial,284,1166411,0.0-259.0-0.0,voc_e2,12310,"[{""event"":""fullscreenenter"",""trial"":1,""time"":5658}]",NA,NA,NA,NA,NA,0,#D8271C,#741CD8,10,0,1,38,1,939.9000000357628,37,1,309.5999999642372,10,1,experiment,NA,NA,0,0.9,0.1,0,1,249,6,NA
fcp-trial,285,1169308,0.0-260.0-0.0,voc_e2,12310,"[{""event"":""fullscreenenter"",""trial"":1,""time"":5658}]",NA,NA,NA,NA,NA,1,#3386FF,#D89F1C,0,0,1,38,1,1032.1000000238419,39,0,344.10000002384186,0,0,experiment,NA,NA,2,0.5,0.5,4,5,250,6,NA
fcp-trial,286,1171843,0.0-261.0-0.0,voc_e2,12310,"[{""event"":""fullscreenenter"",""trial"":1,""time"":5658}]",NA,NA,NA,NA,NA,2,#3386FF,#D89F1C,0,0,1,38,1,646.8000000119209,39,0,374.699999988079,0,0,experiment,NA,NA,2,0.5,0.5,4,5,251,6,NA
fcp-trial,287,1175171,0.0-262.0-0.0,voc_e2,12310,"[{""event"":""fullscreenenter"",""trial"":1,""time"":5658}]",NA,NA,NA,NA,NA,4,#FA92F8,#1CD855,0,10,0,40,0,1095.800000011921,39,0,719.1999999880791,10,1,experiment,NA,NA,1,0.3,0.7,3,2,252,6,NA
fcp-trial,288,1177868,0.0-263.0-0.0,voc_e2,12310,"[{""event"":""fullscreenenter"",""trial"":1,""time"":5658}]",NA,NA,NA,NA,NA,0,#D8271C,#741CD8,0,0,1,38,1,770.6000000238419,37,1,415.10000002384186,0,1,experiment,NA,NA,0,0.9,0.1,0,1,253,6,NA
fcp-trial,289,1180774,0.0-264.0-0.0,voc_e2,12310,"[{""event"":""fullscreenenter"",""trial"":1,""time"":5658}]",NA,NA,NA,NA,NA,6,#1CD855,#FA92F8,10,0,1,40,0,1017.8000000119209,39,0,375.199999988079,0,0,experiment,NA,NA,1,0.7,0.3,2,3,254,6,NA
fcp-trial,290,1183788,0.0-265.0-0.0,voc_e2,12310,"[{""event"":""fullscreenenter"",""trial"":1,""time"":5658}]",NA,NA,NA,NA,NA,2,#741CD8,#D8271C,10,10,0,38,1,1159.6000000238419,39,0,342.60000002384186,10,1,experiment,NA,NA,0,0.1,0.9,1,0,255,6,NA
fcp-trial,291,1186347,0.0-266.0-0.0,voc_e2,12310,"[{""event"":""fullscreenenter"",""trial"":1,""time"":5658}]",NA,NA,NA,NA,NA,0,#3386FF,#D89F1C,10,0,1,38,1,737,39,0,310.89999997615814,0,0,experiment,NA,NA,2,0.5,0.5,4,5,256,6,NA
fcp-trial,292,1189548,0.0-267.0-0.0,voc_e2,12310,"[{""event"":""fullscreenenter"",""trial"":1,""time"":5658}]",NA,NA,NA,NA,NA,3,#1CD855,#FA92F8,0,0,1,40,0,1234.7000000476837,39,0,456.2000000476837,0,0,experiment,NA,NA,1,0.7,0.3,2,3,257,6,NA
fcp-trial,293,1192436,0.0-268.0-0.0,voc_e2,12310,"[{""event"":""fullscreenenter"",""trial"":1,""time"":5658}]",NA,NA,NA,NA,NA,1,#1CD855,#FA92F8,10,0,1,40,0,890.7999999523163,37,1,486,10,1,experiment,NA,NA,1,0.7,0.3,2,3,258,6,NA
fcp-trial,294,1195227,0.0-269.0-0.0,voc_e2,12310,"[{""event"":""fullscreenenter"",""trial"":1,""time"":5658}]",NA,NA,NA,NA,NA,4,#D8271C,#741CD8,10,0,1,38,1,904.8000000119209,37,1,375.800000011921,10,1,experiment,NA,NA,0,0.9,0.1,0,1,259,6,NA
fcp-trial,295,1198148,0.0-270.0-0.0,voc_e2,12310,"[{""event"":""fullscreenenter"",""trial"":1,""time"":5658}]",NA,NA,NA,NA,NA,2,#D89F1C,#3386FF,10,10,0,38,1,1116.300000011921,37,1,295.9000000357628,10,0,experiment,NA,NA,2,0.5,0.5,5,4,260,6,NA
fcp-trial,296,1200613,0.0-271.0-0.0,voc_e2,12310,"[{""event"":""fullscreenenter"",""trial"":1,""time"":5658}]",NA,NA,NA,NA,NA,1,#D89F1C,#3386FF,0,0,0,38,1,689.8000000119209,37,1,263.39999997615814,0,0,experiment,NA,NA,2,0.5,0.5,5,4,261,6,NA
fcp-trial,297,1204035,0.0-272.0-0.0,voc_e2,12310,"[{""event"":""fullscreenenter"",""trial"":1,""time"":5658}]",NA,NA,NA,NA,NA,2,#FA92F8,#1CD855,0,10,0,40,0,1344.6000000238419,37,1,567.3000000119209,0,0,experiment,NA,NA,1,0.3,0.7,3,2,262,6,NA
fcp-trial,298,1207748,0.0-273.0-0.0,voc_e2,12310,"[{""event"":""fullscreenenter"",""trial"":1,""time"":5658}]",NA,NA,NA,NA,NA,3,#D8271C,#741CD8,10,0,1,38,1,1891.300000011921,37,1,310.89999997615814,10,1,experiment,NA,NA,0,0.9,0.1,0,1,263,6,NA
fcp-trial,299,1210387,0.0-274.0-0.0,voc_e2,12310,"[{""event"":""fullscreenenter"",""trial"":1,""time"":5658}]",NA,NA,NA,NA,NA,6,#741CD8,#D8271C,0,10,0,38,1,849.3000000119209,39,0,278.60000002384186,10,1,experiment,NA,NA,0,0.1,0.9,1,0,264,6,NA
fcp-trial,300,1213867,0.0-275.0-0.0,voc_e2,12310,"[{""event"":""fullscreenenter"",""trial"":1,""time"":5658}]",NA,NA,NA,NA,NA,0,#FA92F8,#1CD855,0,10,0,40,0,1610.800000011921,37,1,358.80000001192093,0,0,experiment,NA,NA,1,0.3,0.7,3,2,265,6,NA
fcp-trial,301,1216740,0.0-276.0-0.0,voc_e2,12310,"[{""event"":""fullscreenenter"",""trial"":1,""time"":5658}]",NA,NA,NA,NA,NA,6,#D89F1C,#3386FF,0,10,0,38,1,1101.7000000476837,37,1,262.60000002384186,0,0,experiment,NA,NA,2,0.5,0.5,5,4,266,6,NA
fcp-trial,302,1219811,0.0-277.0-0.0,voc_e2,12310,"[{""event"":""fullscreenenter"",""trial"":1,""time"":5658}]",NA,NA,NA,NA,NA,4,#D89F1C,#3386FF,0,10,0,38,1,719.3999999761581,37,1,838.6999999880791,0,0,experiment,NA,NA,2,0.5,0.5,5,4,267,6,NA
fcp-trial,303,1222355,0.0-278.0-0.0,voc_e2,12310,"[{""event"":""fullscreenenter"",""trial"":1,""time"":5658}]",NA,NA,NA,NA,NA,1,#D8271C,#741CD8,0,0,1,38,1,758.8000000119209,37,1,277.60000002384186,0,1,experiment,NA,NA,0,0.9,0.1,0,1,268,6,NA
fcp-trial,304,1225259,0.0-279.0-0.0,voc_e2,12310,"[{""event"":""fullscreenenter"",""trial"":1,""time"":5658}]",NA,NA,NA,NA,NA,5,#1CD855,#FA92F8,10,0,1,40,0,1019,39,0,374.5,0,0,experiment,NA,NA,1,0.7,0.3,2,3,269,6,NA
fcp-trial,305,1227715,0.0-280.0-0.0,voc_e2,12310,"[{""event"":""fullscreenenter"",""trial"":1,""time"":5658}]",NA,NA,NA,NA,NA,5,#3386FF,#D89F1C,0,10,1,38,1,519.8999999761581,39,0,422.300000011921,10,0,experiment,NA,NA,2,0.5,0.5,4,5,270,6,NA
fcp-trial,306,1230755,0.0-281.0-0.0,voc_e2,12310,"[{""event"":""fullscreenenter"",""trial"":1,""time"":5658}]",NA,NA,NA,NA,NA,4,#FA92F8,#1CD855,10,0,0,40,0,1174.2000000476837,39,0,357.30000001192093,0,1,experiment,NA,NA,1,0.3,0.7,3,2,271,7,NA
fcp-trial,307,1233508,0.0-282.0-0.0,voc_e2,12310,"[{""event"":""fullscreenenter"",""trial"":1,""time"":5658}]",NA,NA,NA,NA,NA,5,#741CD8,#D8271C,0,10,0,38,1,986.8000000119209,39,0,253.5,10,1,experiment,NA,NA,0,0.1,0.9,1,0,272,7,NA
fcp-trial,308,1236051,0.0-283.0-0.0,voc_e2,12310,"[{""event"":""fullscreenenter"",""trial"":1,""time"":5658}]",NA,NA,NA,NA,NA,3,#3386FF,#D89F1C,10,0,1,38,1,719.4000000357628,39,0,309.60000002384186,0,0,experiment,NA,NA,2,0.5,0.5,4,5,273,7,NA
fcp-trial,309,1238661,0.0-284.0-0.0,voc_e2,12310,"[{""event"":""fullscreenenter"",""trial"":1,""time"":5658}]",NA,NA,NA,NA,NA,6,#741CD8,#D8271C,0,10,0,38,1,754.3000000119209,39,0,343,10,1,experiment,NA,NA,0,0.1,0.9,1,0,274,7,NA
fcp-trial,310,1241275,0.0-285.0-0.0,voc_e2,12310,"[{""event"":""fullscreenenter"",""trial"":1,""time"":5658}]",NA,NA,NA,NA,NA,3,#3386FF,#D89F1C,10,0,1,38,1,793.0999999642372,39,0,311,0,0,experiment,NA,NA,2,0.5,0.5,4,5,275,7,NA
fcp-trial,311,1243651,0.0-286.0-0.0,voc_e2,12310,"[{""event"":""fullscreenenter"",""trial"":1,""time"":5658}]",NA,NA,NA,NA,NA,4,#D89F1C,#3386FF,0,10,0,38,1,520.8999999761581,37,1,342,0,0,experiment,NA,NA,2,0.5,0.5,5,4,276,7,NA
fcp-trial,312,1246604,0.0-287.0-0.0,voc_e2,12310,"[{""event"":""fullscreenenter"",""trial"":1,""time"":5658}]",NA,NA,NA,NA,NA,2,#FA92F8,#1CD855,10,10,0,40,0,1068.199999988079,39,0,372.800000011921,10,1,experiment,NA,NA,1,0.3,0.7,3,2,277,7,NA
fcp-trial,313,1249195,0.0-288.0-0.0,voc_e2,12310,"[{""event"":""fullscreenenter"",""trial"":1,""time"":5658}]",NA,NA,NA,NA,NA,1,#741CD8,#D8271C,0,10,0,38,1,793,39,0,287.39999997615814,10,1,experiment,NA,NA,0,0.1,0.9,1,0,278,7,NA
fcp-trial,314,1251828,0.0-289.0-0.0,voc_e2,12310,"[{""event"":""fullscreenenter"",""trial"":1,""time"":5658}]",NA,NA,NA,NA,NA,0,#D8271C,#741CD8,0,10,1,38,1,815.1000000238419,37,1,310.80000001192093,0,1,experiment,NA,NA,0,0.9,0.1,0,1,279,7,NA
fcp-trial,315,1254779,0.0-290.0-0.0,voc_e2,12310,"[{""event"":""fullscreenenter"",""trial"":1,""time"":5658}]",NA,NA,NA,NA,NA,6,#1CD855,#FA92F8,10,0,1,40,0,1082.1000000238419,39,0,359,0,0,experiment,NA,NA,1,0.7,0.3,2,3,280,7,NA
fcp-trial,316,1257324,0.0-291.0-0.0,voc_e2,12310,"[{""event"":""fullscreenenter"",""trial"":1,""time"":5658}]",NA,NA,NA,NA,NA,6,#D89F1C,#3386FF,0,10,0,38,1,739.1999999880791,37,1,294,0,0,experiment,NA,NA,2,0.5,0.5,5,4,281,7,NA
fcp-trial,317,1259883,0.0-292.0-0.0,voc_e2,12310,"[{""event"":""fullscreenenter"",""trial"":1,""time"":5658}]",NA,NA,NA,NA,NA,4,#741CD8,#D8271C,0,10,0,38,1,702.5999999642372,39,0,341,10,1,experiment,NA,NA,0,0.1,0.9,1,0,282,7,NA
fcp-trial,318,1262771,0.0-293.0-0.0,voc_e2,12310,"[{""event"":""fullscreenenter"",""trial"":1,""time"":5658}]",NA,NA,NA,NA,NA,0,#3386FF,#D89F1C,10,10,1,38,1,1035.1000000238419,39,0,341.39999997615814,10,0,experiment,NA,NA,2,0.5,0.5,4,5,283,7,NA
fcp-trial,319,1265460,0.0-294.0-0.0,voc_e2,12310,"[{""event"":""fullscreenenter"",""trial"":1,""time"":5658}]",NA,NA,NA,NA,NA,2,#741CD8,#D8271C,0,10,0,38,1,896.3999999761581,39,0,280.2999999523163,10,1,experiment,NA,NA,0,0.1,0.9,1,0,284,7,NA
fcp-trial,320,1268844,0.0-295.0-0.0,voc_e2,12310,"[{""event"":""fullscreenenter"",""trial"":1,""time"":5658}]",NA,NA,NA,NA,NA,1,#1CD855,#FA92F8,0,0,1,40,0,1394,39,0,479.5,0,0,experiment,NA,NA,1,0.7,0.3,2,3,285,7,NA
fcp-trial,321,1271811,0.0-296.0-0.0,voc_e2,12310,"[{""event"":""fullscreenenter"",""trial"":1,""time"":5658}]",NA,NA,NA,NA,NA,5,#FA92F8,#1CD855,0,10,0,40,0,1017.1999999880791,37,1,440.10000002384186,0,0,experiment,NA,NA,1,0.3,0.7,3,2,286,7,NA
fcp-trial,322,1274601,0.0-297.0-0.0,voc_e2,12310,"[{""event"":""fullscreenenter"",""trial"":1,""time"":5658}]",NA,NA,NA,NA,NA,0,#FA92F8,#1CD855,0,10,0,40,0,674.8000000119209,39,0,605,10,1,experiment,NA,NA,1,0.3,0.7,3,2,287,7,NA
fcp-trial,323,1277786,0.0-298.0-0.0,voc_e2,12310,"[{""event"":""fullscreenenter"",""trial"":1,""time"":5658}]",NA,NA,NA,NA,NA,5,#3386FF,#D89F1C,0,10,1,38,1,1220.3999999761581,39,0,447.199999988079,10,0,experiment,NA,NA,2,0.5,0.5,4,5,288,7,NA
fcp-trial,324,1280281,0.0-299.0-0.0,voc_e2,12310,"[{""event"":""fullscreenenter"",""trial"":1,""time"":5658}]",NA,NA,NA,NA,NA,5,#D8271C,#741CD8,10,0,1,38,1,703.2999999523163,37,1,278.19999998807907,10,1,experiment,NA,NA,0,0.9,0.1,0,1,289,7,NA
fcp-trial,325,1283563,0.0-300.0-0.0,voc_e2,12310,"[{""event"":""fullscreenenter"",""trial"":1,""time"":5658}]",NA,NA,NA,NA,NA,3,#1CD855,#FA92F8,10,10,1,40,0,1243.5,37,1,527.0999999642372,10,1,experiment,NA,NA,1,0.7,0.3,2,3,290,7,NA
fcp-trial,326,1286562,0.0-301.0-0.0,voc_e2,12310,"[{""event"":""fullscreenenter"",""trial"":1,""time"":5658}]",NA,NA,NA,NA,NA,1,#D89F1C,#3386FF,10,0,0,38,1,1194.9000000357628,37,1,293.80000001192093,10,0,experiment,NA,NA,2,0.5,0.5,5,4,291,7,NA
fcp-trial,327,1289851,0.0-302.0-0.0,voc_e2,12310,"[{""event"":""fullscreenenter"",""trial"":1,""time"":5658}]",NA,NA,NA,NA,NA,4,#FA92F8,#1CD855,0,0,0,40,0,1202.5999999642372,37,1,575.6999999880791,0,0,experiment,NA,NA,1,0.3,0.7,3,2,292,7,NA
fcp-trial,328,1292441,0.0-303.0-0.0,voc_e2,12310,"[{""event"":""fullscreenenter"",""trial"":1,""time"":5658}]",NA,NA,NA,NA,NA,3,#D8271C,#741CD8,10,0,1,38,1,724.8000000119209,37,1,358.4000000357628,10,1,experiment,NA,NA,0,0.9,0.1,0,1,293,7,NA
fcp-trial,329,1295708,0.0-304.0-0.0,voc_e2,12310,"[{""event"":""fullscreenenter"",""trial"":1,""time"":5658}]",NA,NA,NA,NA,NA,2,#3386FF,#D89F1C,0,10,1,38,1,1428.300000011921,39,0,327.39999997615814,10,0,experiment,NA,NA,2,0.5,0.5,4,5,294,7,NA
fcp-trial,330,1298186,0.0-305.0-0.0,voc_e2,12310,"[{""event"":""fullscreenenter"",""trial"":1,""time"":5658}]",NA,NA,NA,NA,NA,1,#D89F1C,#3386FF,0,10,0,38,1,593,37,1,374,0,0,experiment,NA,NA,2,0.5,0.5,5,4,295,7,NA
fcp-trial,331,1300970,0.0-306.0-0.0,voc_e2,12310,"[{""event"":""fullscreenenter"",""trial"":1,""time"":5658}]",NA,NA,NA,NA,NA,6,#741CD8,#D8271C,0,10,0,38,1,984.4000000357628,39,0,287.19999998807907,10,1,experiment,NA,NA,0,0.1,0.9,1,0,296,7,NA
fcp-trial,332,1303499,0.0-307.0-0.0,voc_e2,12310,"[{""event"":""fullscreenenter"",""trial"":1,""time"":5658}]",NA,NA,NA,NA,NA,5,#3386FF,#D89F1C,0,10,1,38,1,704.0999999642372,39,0,311,10,0,experiment,NA,NA,2,0.5,0.5,4,5,297,7,NA
fcp-trial,333,1306493,0.0-308.0-0.0,voc_e2,12310,"[{""event"":""fullscreenenter"",""trial"":1,""time"":5658}]",NA,NA,NA,NA,NA,3,#1CD855,#FA92F8,0,0,1,40,0,1090.300000011921,39,0,392.699999988079,0,0,experiment,NA,NA,1,0.7,0.3,2,3,298,7,NA
fcp-trial,334,1309299,0.0-309.0-0.0,voc_e2,12310,"[{""event"":""fullscreenenter"",""trial"":1,""time"":5658}]",NA,NA,NA,NA,NA,4,#D8271C,#741CD8,10,0,1,38,1,722.5,37,1,572.5999999642372,10,1,experiment,NA,NA,0,0.9,0.1,0,1,299,7,NA
fcp-trial,335,1312394,0.0-310.0-0.0,voc_e2,12310,"[{""event"":""fullscreenenter"",""trial"":1,""time"":5658}]",NA,NA,NA,NA,NA,2,#1CD855,#FA92F8,10,0,1,40,0,1049.3999999761581,37,1,534.6999999880791,10,1,experiment,NA,NA,1,0.7,0.3,2,3,300,7,NA
fcp-trial,336,1314714,0.0-311.0-0.0,voc_e2,12310,"[{""event"":""fullscreenenter"",""trial"":1,""time"":5658}]",NA,NA,NA,NA,NA,6,#D89F1C,#3386FF,10,0,0,38,1,514.6000000238419,37,1,295.30000001192093,10,0,experiment,NA,NA,2,0.5,0.5,5,4,301,7,NA
fcp-trial,337,1317634,0.0-312.0-0.0,voc_e2,12310,"[{""event"":""fullscreenenter"",""trial"":1,""time"":5658}]",NA,NA,NA,NA,NA,6,#1CD855,#FA92F8,0,0,1,40,0,913.6000000238419,37,1,496.199999988079,0,1,experiment,NA,NA,1,0.7,0.3,2,3,302,7,NA
fcp-trial,338,1320195,0.0-313.0-0.0,voc_e2,12310,"[{""event"":""fullscreenenter"",""trial"":1,""time"":5658}]",NA,NA,NA,NA,NA,3,#D89F1C,#3386FF,10,10,0,38,1,738.4000000357628,37,1,309.5,10,0,experiment,NA,NA,2,0.5,0.5,5,4,303,7,NA
fcp-trial,339,1322866,0.0-314.0-0.0,voc_e2,12310,"[{""event"":""fullscreenenter"",""trial"":1,""time"":5658}]",NA,NA,NA,NA,NA,5,#741CD8,#D8271C,0,10,0,38,1,803.1999999880791,39,0,358.2000000476837,10,1,experiment,NA,NA,0,0.1,0.9,1,0,304,7,NA
fcp-trial,340,1325282,0.0-315.0-0.0,voc_e2,12310,"[{""event"":""fullscreenenter"",""trial"":1,""time"":5658}]",NA,NA,NA,NA,NA,2,#D8271C,#741CD8,10,0,1,38,1,579,37,1,324.69999998807907,10,1,experiment,NA,NA,0,0.9,0.1,0,1,305,7,NA
fcp-trial,341,1329626,0.0-316.0-0.0,voc_e2,12310,"[{""event"":""fullscreenenter"",""trial"":1,""time"":5658}]",NA,NA,NA,NA,NA,0,#FA92F8,#1CD855,0,10,0,40,0,2314.800000011921,39,0,517.3999999761581,10,1,experiment,NA,NA,1,0.3,0.7,3,2,306,7,NA
fcp-trial,342,1332633,0.0-317.0-0.0,voc_e2,12310,"[{""event"":""fullscreenenter"",""trial"":1,""time"":5658}]",NA,NA,NA,NA,NA,5,#FA92F8,#1CD855,0,10,0,40,0,1121.800000011921,39,0,375.300000011921,10,1,experiment,NA,NA,1,0.3,0.7,3,2,307,7,NA
fcp-trial,343,1335146,0.0-318.0-0.0,voc_e2,12310,"[{""event"":""fullscreenenter"",""trial"":1,""time"":5658}]",NA,NA,NA,NA,NA,4,#D89F1C,#3386FF,10,10,0,38,1,647.5,37,1,351.19999998807907,10,0,experiment,NA,NA,2,0.5,0.5,5,4,308,7,NA
fcp-trial,344,1344017,0.0-319.0-0.0,voc_e2,12310,"[{""event"":""fullscreenenter"",""trial"":1,""time"":5658}]",NA,NA,NA,NA,NA,1,#1CD855,#FA92F8,10,10,1,40,0,6938.600000023842,37,1,420.4000000357628,10,1,experiment,NA,NA,1,0.7,0.3,2,3,309,7,NA
fcp-trial,345,1348931,0.0-320.0-0.0,voc_e2,12310,"[{""event"":""fullscreenenter"",""trial"":1,""time"":5658}]",NA,NA,NA,NA,NA,3,#D8271C,#741CD8,10,0,1,38,1,2713.100000023842,37,1,687.6000000238419,10,1,experiment,NA,NA,0,0.9,0.1,0,1,310,7,NA
fcp-trial,346,1354163,0.0-321.0-0.0,voc_e2,12310,"[{""event"":""fullscreenenter"",""trial"":1,""time"":5658}]",NA,NA,NA,NA,NA,2,#D89F1C,#3386FF,0,0,0,38,1,3298.5,37,1,421.300000011921,0,0,experiment,NA,NA,2,0.5,0.5,5,4,311,7,NA
fcp-trial,347,1358005,0.0-322.0-0.0,voc_e2,12310,"[{""event"":""fullscreenenter"",""trial"":1,""time"":5658}]",NA,NA,NA,NA,NA,1,#D8271C,#741CD8,10,0,1,38,1,1937.199999988079,37,1,390.800000011921,10,1,experiment,NA,NA,0,0.9,0.1,0,1,312,7,NA
fcp-trial,348,1362387,0.0-323.0-0.0,voc_e2,12310,"[{""event"":""fullscreenenter"",""trial"":1,""time"":5658}]",NA,NA,NA,NA,NA,0,#D8271C,#741CD8,10,0,1,38,1,2432.300000011921,37,1,438.89999997615814,10,1,experiment,NA,NA,0,0.9,0.1,0,1,313,7,NA
fcp-trial,349,1367301,0.0-324.0-0.0,voc_e2,12310,"[{""event"":""fullscreenenter"",""trial"":1,""time"":5658}]",NA,NA,NA,NA,NA,4,#1CD855,#FA92F8,10,0,1,40,0,2937.899999976158,37,1,454.800000011921,10,1,experiment,NA,NA,1,0.7,0.3,2,3,314,7,NA
fcp-trial,350,1373267,0.0-325.0-0.0,voc_e2,12310,"[{""event"":""fullscreenenter"",""trial"":1,""time"":5658}]",NA,NA,NA,NA,NA,0,#3386FF,#D89F1C,0,0,1,38,1,4141.800000011921,39,0,309.89999997615814,0,0,experiment,NA,NA,2,0.5,0.5,4,5,315,7,NA
audio-instructions,351,1381140,0.0-326.0,voc_e2,12310,"[{""event"":""fullscreenenter"",""trial"":1,""time"":5658}]",NA,1738.800000011921,static/audio/finished.wav,NA,0,NA,NA,NA,NA,NA,NA,NA,NA,NA,NA,NA,NA,NA,NA,NA,NA,NA,NA,NA,NA,NA,NA,NA,NA,NA
audio-instructions,352,1393364,0.0-327.0-0.0,voc_e2,12310,"[{""event"":""fullscreenenter"",""trial"":1,""time"":5658}]",NA,1381.9000000357628,static/audio/explicit1.wav,NA,0,NA,NA,NA,NA,NA,NA,NA,NA,NA,NA,NA,NA,NA,NA,NA,NA,NA,NA,NA,NA,NA,NA,NA,NA,NA
audio-instructions,353,1401548,0.0-327.0-1.0,voc_e2,12310,"[{""event"":""fullscreenenter"",""trial"":1,""time"":5658}]",NA,586.4000000357628,static/audio/explicit2.wav,NA,0,NA,NA,NA,NA,NA,NA,NA,NA,NA,NA,NA,NA,NA,NA,NA,NA,NA,NA,NA,NA,NA,NA,NA,NA,NA
image-slider-response,354,1404700,0.0-328.0,voc_e2,12310,"[{""event"":""fullscreenenter"",""trial"":1,""time"":5658}]",NA,3150.600000023842,static/img/machines/machine5.png,NA,NA,NA,NA,NA,NA,NA,NA,NA,NA,NA,NA,NA,NA,NA,NA,explicit,NA,NA,NA,NA,NA,NA,NA,NA,NA,5
image-slider-response,355,1407172,0.0-329.0,voc_e2,12310,"[{""event"":""fullscreenenter"",""trial"":1,""time"":5658}]",NA,2470.7999999523163,static/img/machines/machine2.png,NA,NA,NA,NA,NA,NA,NA,NA,NA,NA,NA,NA,NA,NA,NA,NA,explicit,NA,NA,NA,NA,NA,NA,NA,NA,NA,2
image-slider-response,356,1411164,0.0-330.0,voc_e2,12310,"[{""event"":""fullscreenenter"",""trial"":1,""time"":5658}]",NA,3991,static/img/machines/machine6.png,NA,NA,NA,NA,NA,NA,NA,NA,NA,NA,NA,NA,NA,NA,NA,NA,explicit,NA,NA,NA,NA,NA,NA,NA,NA,NA,5
image-slider-response,357,1414116,0.0-331.0,voc_e2,12310,"[{""event"":""fullscreenenter"",""trial"":1,""time"":5658}]",NA,2950.899999976158,static/img/machines/machine4.png,NA,NA,NA,NA,NA,NA,NA,NA,NA,NA,NA,NA,NA,NA,NA,NA,explicit,NA,NA,NA,NA,NA,NA,NA,NA,NA,8
image-slider-response,358,1416172,0.0-332.0,voc_e2,12310,"[{""event"":""fullscreenenter"",""trial"":1,""time"":5658}]",NA,2054.7999999523163,static/img/machines/machine1.png,NA,NA,NA,NA,NA,NA,NA,NA,NA,NA,NA,NA,NA,NA,NA,NA,explicit,NA,NA,NA,NA,NA,NA,NA,NA,NA,8
image-slider-response,359,1417869,0.0-333.0,voc_e2,12310,"[{""event"":""fullscreenenter"",""trial"":1,""time"":5658}]",NA,1695.300000011921,static/img/machines/machine3.png,NA,NA,NA,NA,NA,NA,NA,NA,NA,NA,NA,NA,NA,NA,NA,NA,explicit,NA,NA,NA,NA,NA,NA,NA,NA,NA,2
