trial_type,trial_index,time_elapsed,internal_node_id,task_version,subject_id,interactions,success,rt,stimulus,key_press,button_pressed,offer,arcade_color_L,arcade_color_R,arcade_outcome_L,arcade_outcome_R,correct,stage_1_key,stage_1_choice,stage_1_rt,stage_2_key,stage_2_choice,stage_2_rt,stage_3_outcome,accuracy,phase,responses,num_errors,context,reward_prob_L,reward_prob_R,arcade_id_L,arcade_id_R,trial,block,response
pavlovia,0,17,0.0-0.0,voc_e2,11910,"[{""event"":""focus"",""trial"":0,""time"":0},{""event"":""blur"",""trial"":0,""time"":0},{""event"":""focus"",""trial"":0,""time"":0},{""event"":""blur"",""trial"":0,""time"":0},{""event"":""focus"",""trial"":0,""time"":0},{""event"":""blur"",""trial"":0,""time"":0},{""event"":""focus"",""trial"":0,""time"":0},{""event"":""blur"",""trial"":0,""time"":0},{""event"":""focus"",""trial"":0,""time"":0}]",NA,NA,NA,NA,NA,NA,NA,NA,NA,NA,NA,NA,NA,NA,NA,NA,NA,NA,NA,NA,NA,NA,NA,NA,NA,NA,NA,NA,NA,NA
fullscreen,1,4604,0.0-1.0,voc_e2,11910,"[{""event"":""focus"",""trial"":0,""time"":0},{""event"":""blur"",""trial"":0,""time"":0},{""event"":""focus"",""trial"":0,""time"":0},{""event"":""blur"",""trial"":0,""time"":0},{""event"":""focus"",""trial"":0,""time"":0},{""event"":""blur"",""trial"":0,""time"":0},{""event"":""focus"",""trial"":0,""time"":0},{""event"":""blur"",""trial"":0,""time"":0},{""event"":""focus"",""trial"":0,""time"":0},{""event"":""fullscreenenter"",""trial"":1,""time"":3877}]",TRUE,NA,NA,NA,NA,NA,NA,NA,NA,NA,NA,NA,NA,NA,NA,NA,NA,NA,NA,NA,NA,NA,NA,NA,NA,NA,NA,NA,NA,NA
audio-keyboard-response,2,6584,0.0-2.0,voc_e2,11910,"[{""event"":""focus"",""trial"":0,""time"":0},{""event"":""blur"",""trial"":0,""time"":0},{""event"":""focus"",""trial"":0,""time"":0},{""event"":""blur"",""trial"":0,""time"":0},{""event"":""focus"",""trial"":0,""time"":0},{""event"":""blur"",""trial"":0,""time"":0},{""event"":""focus"",""trial"":0,""time"":0},{""event"":""blur"",""trial"":0,""time"":0},{""event"":""focus"",""trial"":0,""time"":0},{""event"":""fullscreenenter"",""trial"":1,""time"":3877}]",NA,1880,static/audio/beep_loop.wav,32,NA,NA,NA,NA,NA,NA,NA,NA,NA,NA,NA,NA,NA,NA,NA,NA,NA,NA,NA,NA,NA,NA,NA,NA,NA,NA
audio-test,3,7776,0.0-3.0,voc_e2,11910,"[{""event"":""focus"",""trial"":0,""time"":0},{""event"":""blur"",""trial"":0,""time"":0},{""event"":""focus"",""trial"":0,""time"":0},{""event"":""blur"",""trial"":0,""time"":0},{""event"":""focus"",""trial"":0,""time"":0},{""event"":""blur"",""trial"":0,""time"":0},{""event"":""focus"",""trial"":0,""time"":0},{""event"":""blur"",""trial"":0,""time"":0},{""event"":""focus"",""trial"":0,""time"":0},{""event"":""fullscreenenter"",""trial"":1,""time"":3877}]",NA,NA,static/audio/turtle.wav,NA,3,NA,NA,NA,NA,NA,NA,NA,NA,NA,NA,NA,NA,NA,NA,NA,NA,NA,NA,NA,NA,NA,NA,NA,NA,NA
audio-test,4,9495,0.0-4.0,voc_e2,11910,"[{""event"":""focus"",""trial"":0,""time"":0},{""event"":""blur"",""trial"":0,""time"":0},{""event"":""focus"",""trial"":0,""time"":0},{""event"":""blur"",""trial"":0,""time"":0},{""event"":""focus"",""trial"":0,""time"":0},{""event"":""blur"",""trial"":0,""time"":0},{""event"":""focus"",""trial"":0,""time"":0},{""event"":""blur"",""trial"":0,""time"":0},{""event"":""focus"",""trial"":0,""time"":0},{""event"":""fullscreenenter"",""trial"":1,""time"":3877}]",NA,NA,static/audio/shark.wav,NA,2,NA,NA,NA,NA,NA,NA,NA,NA,NA,NA,NA,NA,NA,NA,NA,NA,NA,NA,NA,NA,NA,NA,NA,NA,NA
audio-instructions,5,15889,0.0-5.0-0.0,voc_e2,11910,"[{""event"":""focus"",""trial"":0,""time"":0},{""event"":""blur"",""trial"":0,""time"":0},{""event"":""focus"",""trial"":0,""time"":0},{""event"":""blur"",""trial"":0,""time"":0},{""event"":""focus"",""trial"":0,""time"":0},{""event"":""blur"",""trial"":0,""time"":0},{""event"":""focus"",""trial"":0,""time"":0},{""event"":""blur"",""trial"":0,""time"":0},{""event"":""focus"",""trial"":0,""time"":0},{""event"":""fullscreenenter"",""trial"":1,""time"":3877}]",NA,602,static/audio/instructions1.wav,NA,0,NA,NA,NA,NA,NA,NA,NA,NA,NA,NA,NA,NA,NA,NA,NA,NA,NA,NA,NA,NA,NA,NA,NA,NA,NA
audio-instructions,6,23017,0.0-5.0-1.0,voc_e2,11910,"[{""event"":""focus"",""trial"":0,""time"":0},{""event"":""blur"",""trial"":0,""time"":0},{""event"":""focus"",""trial"":0,""time"":0},{""event"":""blur"",""trial"":0,""time"":0},{""event"":""focus"",""trial"":0,""time"":0},{""event"":""blur"",""trial"":0,""time"":0},{""event"":""focus"",""trial"":0,""time"":0},{""event"":""blur"",""trial"":0,""time"":0},{""event"":""focus"",""trial"":0,""time"":0},{""event"":""fullscreenenter"",""trial"":1,""time"":3877}]",NA,378,static/audio/instructions2.wav,NA,0,NA,NA,NA,NA,NA,NA,NA,NA,NA,NA,NA,NA,NA,NA,NA,NA,NA,NA,NA,NA,NA,NA,NA,NA,NA
audio-instructions,7,29278,0.0-5.0-2.0,voc_e2,11910,"[{""event"":""focus"",""trial"":0,""time"":0},{""event"":""blur"",""trial"":0,""time"":0},{""event"":""focus"",""trial"":0,""time"":0},{""event"":""blur"",""trial"":0,""time"":0},{""event"":""focus"",""trial"":0,""time"":0},{""event"":""blur"",""trial"":0,""time"":0},{""event"":""focus"",""trial"":0,""time"":0},{""event"":""blur"",""trial"":0,""time"":0},{""event"":""focus"",""trial"":0,""time"":0},{""event"":""fullscreenenter"",""trial"":1,""time"":3877}]",NA,441,static/audio/instructions3.wav,NA,0,NA,NA,NA,NA,NA,NA,NA,NA,NA,NA,NA,NA,NA,NA,NA,NA,NA,NA,NA,NA,NA,NA,NA,NA,NA
audio-instructions,8,48065,0.0-5.0-3.0,voc_e2,11910,"[{""event"":""focus"",""trial"":0,""time"":0},{""event"":""blur"",""trial"":0,""time"":0},{""event"":""focus"",""trial"":0,""time"":0},{""event"":""blur"",""trial"":0,""time"":0},{""event"":""focus"",""trial"":0,""time"":0},{""event"":""blur"",""trial"":0,""time"":0},{""event"":""focus"",""trial"":0,""time"":0},{""event"":""blur"",""trial"":0,""time"":0},{""event"":""focus"",""trial"":0,""time"":0},{""event"":""fullscreenenter"",""trial"":1,""time"":3877}]",NA,5548,static/audio/instructions4.wav,NA,0,NA,NA,NA,NA,NA,NA,NA,NA,NA,NA,NA,NA,NA,NA,NA,NA,NA,NA,NA,NA,NA,NA,NA,NA,NA
audio-instructions,9,58113,0.0-5.0-4.0,voc_e2,11910,"[{""event"":""focus"",""trial"":0,""time"":0},{""event"":""blur"",""trial"":0,""time"":0},{""event"":""focus"",""trial"":0,""time"":0},{""event"":""blur"",""trial"":0,""time"":0},{""event"":""focus"",""trial"":0,""time"":0},{""event"":""blur"",""trial"":0,""time"":0},{""event"":""focus"",""trial"":0,""time"":0},{""event"":""blur"",""trial"":0,""time"":0},{""event"":""focus"",""trial"":0,""time"":0},{""event"":""fullscreenenter"",""trial"":1,""time"":3877}]",NA,643,static/audio/instructions5.wav,NA,0,NA,NA,NA,NA,NA,NA,NA,NA,NA,NA,NA,NA,NA,NA,NA,NA,NA,NA,NA,NA,NA,NA,NA,NA,NA
fcp-practice,10,60069,0.0-5.0-5.0-0.0,voc_e2,11910,"[{""event"":""focus"",""trial"":0,""time"":0},{""event"":""blur"",""trial"":0,""time"":0},{""event"":""focus"",""trial"":0,""time"":0},{""event"":""blur"",""trial"":0,""time"":0},{""event"":""focus"",""trial"":0,""time"":0},{""event"":""blur"",""trial"":0,""time"":0},{""event"":""focus"",""trial"":0,""time"":0},{""event"":""blur"",""trial"":0,""time"":0},{""event"":""focus"",""trial"":0,""time"":0},{""event"":""fullscreenenter"",""trial"":1,""time"":3877}]",NA,NA,NA,NA,NA,NA,#EDC948,#46d3c8,10,0,1,null,null,null,37,1,425,10,1,practice,NA,NA,NA,NA,NA,NA,NA,NA,NA,NA
fcp-practice,11,62087,0.0-5.0-5.0-1.0,voc_e2,11910,"[{""event"":""focus"",""trial"":0,""time"":0},{""event"":""blur"",""trial"":0,""time"":0},{""event"":""focus"",""trial"":0,""time"":0},{""event"":""blur"",""trial"":0,""time"":0},{""event"":""focus"",""trial"":0,""time"":0},{""event"":""blur"",""trial"":0,""time"":0},{""event"":""focus"",""trial"":0,""time"":0},{""event"":""blur"",""trial"":0,""time"":0},{""event"":""focus"",""trial"":0,""time"":0},{""event"":""fullscreenenter"",""trial"":1,""time"":3877}]",NA,NA,NA,NA,NA,NA,#EDC948,#46d3c8,10,0,1,null,null,null,37,1,431,10,1,practice,NA,NA,NA,NA,NA,NA,NA,NA,NA,NA
fcp-practice,12,63655,0.0-5.0-5.0-2.0,voc_e2,11910,"[{""event"":""focus"",""trial"":0,""time"":0},{""event"":""blur"",""trial"":0,""time"":0},{""event"":""focus"",""trial"":0,""time"":0},{""event"":""blur"",""trial"":0,""time"":0},{""event"":""focus"",""trial"":0,""time"":0},{""event"":""blur"",""trial"":0,""time"":0},{""event"":""focus"",""trial"":0,""time"":0},{""event"":""blur"",""trial"":0,""time"":0},{""event"":""focus"",""trial"":0,""time"":0},{""event"":""fullscreenenter"",""trial"":1,""time"":3877}]",NA,NA,NA,NA,NA,NA,#EDC948,#46d3c8,0,10,1,null,null,null,37,1,61,0,1,practice,NA,NA,NA,NA,NA,NA,NA,NA,NA,NA
fcp-practice,13,65244,0.0-5.0-5.0-3.0,voc_e2,11910,"[{""event"":""focus"",""trial"":0,""time"":0},{""event"":""blur"",""trial"":0,""time"":0},{""event"":""focus"",""trial"":0,""time"":0},{""event"":""blur"",""trial"":0,""time"":0},{""event"":""focus"",""trial"":0,""time"":0},{""event"":""blur"",""trial"":0,""time"":0},{""event"":""focus"",""trial"":0,""time"":0},{""event"":""blur"",""trial"":0,""time"":0},{""event"":""focus"",""trial"":0,""time"":0},{""event"":""fullscreenenter"",""trial"":1,""time"":3877}]",NA,NA,NA,NA,NA,NA,#EDC948,#46d3c8,10,0,1,null,null,null,37,1,74,10,1,practice,NA,NA,NA,NA,NA,NA,NA,NA,NA,NA
fcp-practice,14,66847,0.0-5.0-5.0-4.0,voc_e2,11910,"[{""event"":""focus"",""trial"":0,""time"":0},{""event"":""blur"",""trial"":0,""time"":0},{""event"":""focus"",""trial"":0,""time"":0},{""event"":""blur"",""trial"":0,""time"":0},{""event"":""focus"",""trial"":0,""time"":0},{""event"":""blur"",""trial"":0,""time"":0},{""event"":""focus"",""trial"":0,""time"":0},{""event"":""blur"",""trial"":0,""time"":0},{""event"":""focus"",""trial"":0,""time"":0},{""event"":""fullscreenenter"",""trial"":1,""time"":3877}]",NA,NA,NA,NA,NA,NA,#EDC948,#46d3c8,10,0,1,null,null,null,37,1,96,10,1,practice,NA,NA,NA,NA,NA,NA,NA,NA,NA,NA
audio-instructions,15,85458,0.0-5.0-6.0,voc_e2,11910,"[{""event"":""focus"",""trial"":0,""time"":0},{""event"":""blur"",""trial"":0,""time"":0},{""event"":""focus"",""trial"":0,""time"":0},{""event"":""blur"",""trial"":0,""time"":0},{""event"":""focus"",""trial"":0,""time"":0},{""event"":""blur"",""trial"":0,""time"":0},{""event"":""focus"",""trial"":0,""time"":0},{""event"":""blur"",""trial"":0,""time"":0},{""event"":""focus"",""trial"":0,""time"":0},{""event"":""fullscreenenter"",""trial"":1,""time"":3877}]",NA,592,static/audio/instructions6.wav,NA,0,NA,NA,NA,NA,NA,NA,NA,NA,NA,NA,NA,NA,NA,NA,NA,NA,NA,NA,NA,NA,NA,NA,NA,NA,NA
audio-instructions,16,105032,0.0-5.0-7.0,voc_e2,11910,"[{""event"":""focus"",""trial"":0,""time"":0},{""event"":""blur"",""trial"":0,""time"":0},{""event"":""focus"",""trial"":0,""time"":0},{""event"":""blur"",""trial"":0,""time"":0},{""event"":""focus"",""trial"":0,""time"":0},{""event"":""blur"",""trial"":0,""time"":0},{""event"":""focus"",""trial"":0,""time"":0},{""event"":""blur"",""trial"":0,""time"":0},{""event"":""focus"",""trial"":0,""time"":0},{""event"":""fullscreenenter"",""trial"":1,""time"":3877}]",NA,365,static/audio/instructions7.wav,NA,0,NA,NA,NA,NA,NA,NA,NA,NA,NA,NA,NA,NA,NA,NA,NA,NA,NA,NA,NA,NA,NA,NA,NA,NA,NA
audio-instructions,17,114884,0.0-5.0-8.0,voc_e2,11910,"[{""event"":""focus"",""trial"":0,""time"":0},{""event"":""blur"",""trial"":0,""time"":0},{""event"":""focus"",""trial"":0,""time"":0},{""event"":""blur"",""trial"":0,""time"":0},{""event"":""focus"",""trial"":0,""time"":0},{""event"":""blur"",""trial"":0,""time"":0},{""event"":""focus"",""trial"":0,""time"":0},{""event"":""blur"",""trial"":0,""time"":0},{""event"":""focus"",""trial"":0,""time"":0},{""event"":""fullscreenenter"",""trial"":1,""time"":3877}]",NA,367,static/audio/instructions8.wav,NA,0,NA,NA,NA,NA,NA,NA,NA,NA,NA,NA,NA,NA,NA,NA,NA,NA,NA,NA,NA,NA,NA,NA,NA,NA,NA
fcp-comprehension,18,124096,0.0-5.0-9.0,voc_e2,11910,"[{""event"":""focus"",""trial"":0,""time"":0},{""event"":""blur"",""trial"":0,""time"":0},{""event"":""focus"",""trial"":0,""time"":0},{""event"":""blur"",""trial"":0,""time"":0},{""event"":""focus"",""trial"":0,""time"":0},{""event"":""blur"",""trial"":0,""time"":0},{""event"":""focus"",""trial"":0,""time"":0},{""event"":""blur"",""trial"":0,""time"":0},{""event"":""focus"",""trial"":0,""time"":0},{""event"":""fullscreenenter"",""trial"":1,""time"":3877}]",NA,9209,NA,NA,NA,NA,NA,NA,NA,NA,NA,NA,NA,NA,NA,NA,NA,NA,NA,NA,"false,true",1,NA,NA,NA,NA,NA,NA,NA,NA
audio-instructions,19,129323,0.0-5.1-0.1,voc_e2,11910,"[{""event"":""focus"",""trial"":0,""time"":0},{""event"":""blur"",""trial"":0,""time"":0},{""event"":""focus"",""trial"":0,""time"":0},{""event"":""blur"",""trial"":0,""time"":0},{""event"":""focus"",""trial"":0,""time"":0},{""event"":""blur"",""trial"":0,""time"":0},{""event"":""focus"",""trial"":0,""time"":0},{""event"":""blur"",""trial"":0,""time"":0},{""event"":""focus"",""trial"":0,""time"":0},{""event"":""fullscreenenter"",""trial"":1,""time"":3877}]",NA,435,static/audio/instructions1.wav,NA,0,NA,NA,NA,NA,NA,NA,NA,NA,NA,NA,NA,NA,NA,NA,NA,NA,NA,NA,NA,NA,NA,NA,NA,NA,NA
audio-instructions,20,139286,0.0-5.1-1.1,voc_e2,11910,"[{""event"":""focus"",""trial"":0,""time"":0},{""event"":""blur"",""trial"":0,""time"":0},{""event"":""focus"",""trial"":0,""time"":0},{""event"":""blur"",""trial"":0,""time"":0},{""event"":""focus"",""trial"":0,""time"":0},{""event"":""blur"",""trial"":0,""time"":0},{""event"":""focus"",""trial"":0,""time"":0},{""event"":""blur"",""trial"":0,""time"":0},{""event"":""focus"",""trial"":0,""time"":0},{""event"":""fullscreenenter"",""trial"":1,""time"":3877}]",NA,3209,static/audio/instructions2.wav,NA,0,NA,NA,NA,NA,NA,NA,NA,NA,NA,NA,NA,NA,NA,NA,NA,NA,NA,NA,NA,NA,NA,NA,NA,NA,NA
audio-instructions,21,145428,0.0-5.1-2.1,voc_e2,11910,"[{""event"":""focus"",""trial"":0,""time"":0},{""event"":""blur"",""trial"":0,""time"":0},{""event"":""focus"",""trial"":0,""time"":0},{""event"":""blur"",""trial"":0,""time"":0},{""event"":""focus"",""trial"":0,""time"":0},{""event"":""blur"",""trial"":0,""time"":0},{""event"":""focus"",""trial"":0,""time"":0},{""event"":""blur"",""trial"":0,""time"":0},{""event"":""focus"",""trial"":0,""time"":0},{""event"":""fullscreenenter"",""trial"":1,""time"":3877}]",NA,321,static/audio/instructions3.wav,NA,0,NA,NA,NA,NA,NA,NA,NA,NA,NA,NA,NA,NA,NA,NA,NA,NA,NA,NA,NA,NA,NA,NA,NA,NA,NA
audio-instructions,22,159038,0.0-5.1-3.1,voc_e2,11910,"[{""event"":""focus"",""trial"":0,""time"":0},{""event"":""blur"",""trial"":0,""time"":0},{""event"":""focus"",""trial"":0,""time"":0},{""event"":""blur"",""trial"":0,""time"":0},{""event"":""focus"",""trial"":0,""time"":0},{""event"":""blur"",""trial"":0,""time"":0},{""event"":""focus"",""trial"":0,""time"":0},{""event"":""blur"",""trial"":0,""time"":0},{""event"":""focus"",""trial"":0,""time"":0},{""event"":""fullscreenenter"",""trial"":1,""time"":3877}]",NA,371,static/audio/instructions4.wav,NA,0,NA,NA,NA,NA,NA,NA,NA,NA,NA,NA,NA,NA,NA,NA,NA,NA,NA,NA,NA,NA,NA,NA,NA,NA,NA
audio-instructions,23,168858,0.0-5.1-4.1,voc_e2,11910,"[{""event"":""focus"",""trial"":0,""time"":0},{""event"":""blur"",""trial"":0,""time"":0},{""event"":""focus"",""trial"":0,""time"":0},{""event"":""blur"",""trial"":0,""time"":0},{""event"":""focus"",""trial"":0,""time"":0},{""event"":""blur"",""trial"":0,""time"":0},{""event"":""focus"",""trial"":0,""time"":0},{""event"":""blur"",""trial"":0,""time"":0},{""event"":""focus"",""trial"":0,""time"":0},{""event"":""fullscreenenter"",""trial"":1,""time"":3877}]",NA,419,static/audio/instructions5.wav,NA,0,NA,NA,NA,NA,NA,NA,NA,NA,NA,NA,NA,NA,NA,NA,NA,NA,NA,NA,NA,NA,NA,NA,NA,NA,NA
fcp-practice,24,171569,0.0-5.1-5.1-0.1,voc_e2,11910,"[{""event"":""focus"",""trial"":0,""time"":0},{""event"":""blur"",""trial"":0,""time"":0},{""event"":""focus"",""trial"":0,""time"":0},{""event"":""blur"",""trial"":0,""time"":0},{""event"":""focus"",""trial"":0,""time"":0},{""event"":""blur"",""trial"":0,""time"":0},{""event"":""focus"",""trial"":0,""time"":0},{""event"":""blur"",""trial"":0,""time"":0},{""event"":""focus"",""trial"":0,""time"":0},{""event"":""fullscreenenter"",""trial"":1,""time"":3877}]",NA,NA,NA,NA,NA,NA,#EDC948,#46d3c8,10,0,1,null,null,null,37,1,1190,10,1,practice,NA,NA,NA,NA,NA,NA,NA,NA,NA,NA
fcp-practice,25,173305,0.0-5.1-5.1-1.1,voc_e2,11910,"[{""event"":""focus"",""trial"":0,""time"":0},{""event"":""blur"",""trial"":0,""time"":0},{""event"":""focus"",""trial"":0,""time"":0},{""event"":""blur"",""trial"":0,""time"":0},{""event"":""focus"",""trial"":0,""time"":0},{""event"":""blur"",""trial"":0,""time"":0},{""event"":""focus"",""trial"":0,""time"":0},{""event"":""blur"",""trial"":0,""time"":0},{""event"":""focus"",""trial"":0,""time"":0},{""event"":""fullscreenenter"",""trial"":1,""time"":3877}]",NA,NA,NA,NA,NA,NA,#EDC948,#46d3c8,10,0,1,null,null,null,37,1,232,10,1,practice,NA,NA,NA,NA,NA,NA,NA,NA,NA,NA
fcp-practice,26,175205,0.0-5.1-5.1-2.1,voc_e2,11910,"[{""event"":""focus"",""trial"":0,""time"":0},{""event"":""blur"",""trial"":0,""time"":0},{""event"":""focus"",""trial"":0,""time"":0},{""event"":""blur"",""trial"":0,""time"":0},{""event"":""focus"",""trial"":0,""time"":0},{""event"":""blur"",""trial"":0,""time"":0},{""event"":""focus"",""trial"":0,""time"":0},{""event"":""blur"",""trial"":0,""time"":0},{""event"":""focus"",""trial"":0,""time"":0},{""event"":""fullscreenenter"",""trial"":1,""time"":3877}]",NA,NA,NA,NA,NA,NA,#EDC948,#46d3c8,0,10,1,null,null,null,37,1,392,0,1,practice,NA,NA,NA,NA,NA,NA,NA,NA,NA,NA
fcp-practice,27,176889,0.0-5.1-5.1-3.1,voc_e2,11910,"[{""event"":""focus"",""trial"":0,""time"":0},{""event"":""blur"",""trial"":0,""time"":0},{""event"":""focus"",""trial"":0,""time"":0},{""event"":""blur"",""trial"":0,""time"":0},{""event"":""focus"",""trial"":0,""time"":0},{""event"":""blur"",""trial"":0,""time"":0},{""event"":""focus"",""trial"":0,""time"":0},{""event"":""blur"",""trial"":0,""time"":0},{""event"":""focus"",""trial"":0,""time"":0},{""event"":""fullscreenenter"",""trial"":1,""time"":3877}]",NA,NA,NA,NA,NA,NA,#EDC948,#46d3c8,10,0,1,null,null,null,37,1,165,10,1,practice,NA,NA,NA,NA,NA,NA,NA,NA,NA,NA
fcp-practice,28,178541,0.0-5.1-5.1-4.1,voc_e2,11910,"[{""event"":""focus"",""trial"":0,""time"":0},{""event"":""blur"",""trial"":0,""time"":0},{""event"":""focus"",""trial"":0,""time"":0},{""event"":""blur"",""trial"":0,""time"":0},{""event"":""focus"",""trial"":0,""time"":0},{""event"":""blur"",""trial"":0,""time"":0},{""event"":""focus"",""trial"":0,""time"":0},{""event"":""blur"",""trial"":0,""time"":0},{""event"":""focus"",""trial"":0,""time"":0},{""event"":""fullscreenenter"",""trial"":1,""time"":3877}]",NA,NA,NA,NA,NA,NA,#EDC948,#46d3c8,10,0,1,null,null,null,37,1,121,10,1,practice,NA,NA,NA,NA,NA,NA,NA,NA,NA,NA
audio-instructions,29,197710,0.0-5.1-6.1,voc_e2,11910,"[{""event"":""focus"",""trial"":0,""time"":0},{""event"":""blur"",""trial"":0,""time"":0},{""event"":""focus"",""trial"":0,""time"":0},{""event"":""blur"",""trial"":0,""time"":0},{""event"":""focus"",""trial"":0,""time"":0},{""event"":""blur"",""trial"":0,""time"":0},{""event"":""focus"",""trial"":0,""time"":0},{""event"":""blur"",""trial"":0,""time"":0},{""event"":""focus"",""trial"":0,""time"":0},{""event"":""fullscreenenter"",""trial"":1,""time"":3877}]",NA,1152,static/audio/instructions6.wav,NA,0,NA,NA,NA,NA,NA,NA,NA,NA,NA,NA,NA,NA,NA,NA,NA,NA,NA,NA,NA,NA,NA,NA,NA,NA,NA
audio-instructions,30,217106,0.0-5.1-7.1,voc_e2,11910,"[{""event"":""focus"",""trial"":0,""time"":0},{""event"":""blur"",""trial"":0,""time"":0},{""event"":""focus"",""trial"":0,""time"":0},{""event"":""blur"",""trial"":0,""time"":0},{""event"":""focus"",""trial"":0,""time"":0},{""event"":""blur"",""trial"":0,""time"":0},{""event"":""focus"",""trial"":0,""time"":0},{""event"":""blur"",""trial"":0,""time"":0},{""event"":""focus"",""trial"":0,""time"":0},{""event"":""fullscreenenter"",""trial"":1,""time"":3877}]",NA,188,static/audio/instructions7.wav,NA,0,NA,NA,NA,NA,NA,NA,NA,NA,NA,NA,NA,NA,NA,NA,NA,NA,NA,NA,NA,NA,NA,NA,NA,NA,NA
audio-instructions,31,227046,0.0-5.1-8.1,voc_e2,11910,"[{""event"":""focus"",""trial"":0,""time"":0},{""event"":""blur"",""trial"":0,""time"":0},{""event"":""focus"",""trial"":0,""time"":0},{""event"":""blur"",""trial"":0,""time"":0},{""event"":""focus"",""trial"":0,""time"":0},{""event"":""blur"",""trial"":0,""time"":0},{""event"":""focus"",""trial"":0,""time"":0},{""event"":""blur"",""trial"":0,""time"":0},{""event"":""focus"",""trial"":0,""time"":0},{""event"":""fullscreenenter"",""trial"":1,""time"":3877}]",NA,449,static/audio/instructions8.wav,NA,0,NA,NA,NA,NA,NA,NA,NA,NA,NA,NA,NA,NA,NA,NA,NA,NA,NA,NA,NA,NA,NA,NA,NA,NA,NA
fcp-comprehension,32,242951,0.0-5.1-9.1,voc_e2,11910,"[{""event"":""focus"",""trial"":0,""time"":0},{""event"":""blur"",""trial"":0,""time"":0},{""event"":""focus"",""trial"":0,""time"":0},{""event"":""blur"",""trial"":0,""time"":0},{""event"":""focus"",""trial"":0,""time"":0},{""event"":""blur"",""trial"":0,""time"":0},{""event"":""focus"",""trial"":0,""time"":0},{""event"":""blur"",""trial"":0,""time"":0},{""event"":""focus"",""trial"":0,""time"":0},{""event"":""fullscreenenter"",""trial"":1,""time"":3877}]",NA,15902,NA,NA,NA,NA,NA,NA,NA,NA,NA,NA,NA,NA,NA,NA,NA,NA,NA,NA,"true,true",0,NA,NA,NA,NA,NA,NA,NA,NA
audio-instructions,33,249722,0.0-6.0-0.0,voc_e2,11910,"[{""event"":""focus"",""trial"":0,""time"":0},{""event"":""blur"",""trial"":0,""time"":0},{""event"":""focus"",""trial"":0,""time"":0},{""event"":""blur"",""trial"":0,""time"":0},{""event"":""focus"",""trial"":0,""time"":0},{""event"":""blur"",""trial"":0,""time"":0},{""event"":""focus"",""trial"":0,""time"":0},{""event"":""blur"",""trial"":0,""time"":0},{""event"":""focus"",""trial"":0,""time"":0},{""event"":""fullscreenenter"",""trial"":1,""time"":3877}]",NA,1215,static/audio/instructions9.wav,NA,0,NA,NA,NA,NA,NA,NA,NA,NA,NA,NA,NA,NA,NA,NA,NA,NA,NA,NA,NA,NA,NA,NA,NA,NA,NA
audio-instructions,34,264974,0.0-6.0-1.0,voc_e2,11910,"[{""event"":""focus"",""trial"":0,""time"":0},{""event"":""blur"",""trial"":0,""time"":0},{""event"":""focus"",""trial"":0,""time"":0},{""event"":""blur"",""trial"":0,""time"":0},{""event"":""focus"",""trial"":0,""time"":0},{""event"":""blur"",""trial"":0,""time"":0},{""event"":""focus"",""trial"":0,""time"":0},{""event"":""blur"",""trial"":0,""time"":0},{""event"":""focus"",""trial"":0,""time"":0},{""event"":""fullscreenenter"",""trial"":1,""time"":3877}]",NA,3126,static/audio/instructions10.wav,NA,0,NA,NA,NA,NA,NA,NA,NA,NA,NA,NA,NA,NA,NA,NA,NA,NA,NA,NA,NA,NA,NA,NA,NA,NA,NA
fcp-trial,35,271748,0.0-6.0-2.0,voc_e2,11910,"[{""event"":""focus"",""trial"":0,""time"":0},{""event"":""blur"",""trial"":0,""time"":0},{""event"":""focus"",""trial"":0,""time"":0},{""event"":""blur"",""trial"":0,""time"":0},{""event"":""focus"",""trial"":0,""time"":0},{""event"":""blur"",""trial"":0,""time"":0},{""event"":""focus"",""trial"":0,""time"":0},{""event"":""blur"",""trial"":0,""time"":0},{""event"":""focus"",""trial"":0,""time"":0},{""event"":""fullscreenenter"",""trial"":1,""time"":3877}]",NA,NA,NA,NA,NA,0,#EDC948,#46d3c8,10,10,1,38,1,4445,37,1,785,10,1,practice,NA,NA,NA,NA,NA,NA,NA,NA,NA,NA
audio-instructions,36,282970,0.0-6.0-3.0,voc_e2,11910,"[{""event"":""focus"",""trial"":0,""time"":0},{""event"":""blur"",""trial"":0,""time"":0},{""event"":""focus"",""trial"":0,""time"":0},{""event"":""blur"",""trial"":0,""time"":0},{""event"":""focus"",""trial"":0,""time"":0},{""event"":""blur"",""trial"":0,""time"":0},{""event"":""focus"",""trial"":0,""time"":0},{""event"":""blur"",""trial"":0,""time"":0},{""event"":""focus"",""trial"":0,""time"":0},{""event"":""fullscreenenter"",""trial"":1,""time"":3877}]",NA,203,static/audio/instructions11.wav,NA,0,NA,NA,NA,NA,NA,NA,NA,NA,NA,NA,NA,NA,NA,NA,NA,NA,NA,NA,NA,NA,NA,NA,NA,NA,NA
fcp-trial,37,287312,0.0-6.0-4.0,voc_e2,11910,"[{""event"":""focus"",""trial"":0,""time"":0},{""event"":""blur"",""trial"":0,""time"":0},{""event"":""focus"",""trial"":0,""time"":0},{""event"":""blur"",""trial"":0,""time"":0},{""event"":""focus"",""trial"":0,""time"":0},{""event"":""blur"",""trial"":0,""time"":0},{""event"":""focus"",""trial"":0,""time"":0},{""event"":""blur"",""trial"":0,""time"":0},{""event"":""focus"",""trial"":0,""time"":0},{""event"":""fullscreenenter"",""trial"":1,""time"":3877}]",NA,NA,NA,NA,NA,6,#EDC948,#46d3c8,10,10,1,40,0,1574,39,0,1241,10,0,practice,NA,NA,NA,NA,NA,NA,NA,NA,NA,NA
audio-instructions,38,306416,0.0-6.0-5.0,voc_e2,11910,"[{""event"":""focus"",""trial"":0,""time"":0},{""event"":""blur"",""trial"":0,""time"":0},{""event"":""focus"",""trial"":0,""time"":0},{""event"":""blur"",""trial"":0,""time"":0},{""event"":""focus"",""trial"":0,""time"":0},{""event"":""blur"",""trial"":0,""time"":0},{""event"":""focus"",""trial"":0,""time"":0},{""event"":""blur"",""trial"":0,""time"":0},{""event"":""focus"",""trial"":0,""time"":0},{""event"":""fullscreenenter"",""trial"":1,""time"":3877}]",NA,409,static/audio/instructions12.wav,NA,0,NA,NA,NA,NA,NA,NA,NA,NA,NA,NA,NA,NA,NA,NA,NA,NA,NA,NA,NA,NA,NA,NA,NA,NA,NA
audio-instructions,39,314538,0.0-6.0-6.0,voc_e2,11910,"[{""event"":""focus"",""trial"":0,""time"":0},{""event"":""blur"",""trial"":0,""time"":0},{""event"":""focus"",""trial"":0,""time"":0},{""event"":""blur"",""trial"":0,""time"":0},{""event"":""focus"",""trial"":0,""time"":0},{""event"":""blur"",""trial"":0,""time"":0},{""event"":""focus"",""trial"":0,""time"":0},{""event"":""blur"",""trial"":0,""time"":0},{""event"":""focus"",""trial"":0,""time"":0},{""event"":""fullscreenenter"",""trial"":1,""time"":3877}]",NA,512,static/audio/instructions13.wav,NA,0,NA,NA,NA,NA,NA,NA,NA,NA,NA,NA,NA,NA,NA,NA,NA,NA,NA,NA,NA,NA,NA,NA,NA,NA,NA
audio-instructions,40,324127,0.0-6.0-7.0,voc_e2,11910,"[{""event"":""focus"",""trial"":0,""time"":0},{""event"":""blur"",""trial"":0,""time"":0},{""event"":""focus"",""trial"":0,""time"":0},{""event"":""blur"",""trial"":0,""time"":0},{""event"":""focus"",""trial"":0,""time"":0},{""event"":""blur"",""trial"":0,""time"":0},{""event"":""focus"",""trial"":0,""time"":0},{""event"":""blur"",""trial"":0,""time"":0},{""event"":""focus"",""trial"":0,""time"":0},{""event"":""fullscreenenter"",""trial"":1,""time"":3877},{""event"":""fullscreenexit"",""trial"":40,""time"":316283}]",NA,1131,static/audio/instructions14.wav,NA,0,NA,NA,NA,NA,NA,NA,NA,NA,NA,NA,NA,NA,NA,NA,NA,NA,NA,NA,NA,NA,NA,NA,NA,NA,NA
audio-instructions,41,331159,0.0-7.0-0.0,voc_e2,11910,"[{""event"":""focus"",""trial"":0,""time"":0},{""event"":""blur"",""trial"":0,""time"":0},{""event"":""focus"",""trial"":0,""time"":0},{""event"":""blur"",""trial"":0,""time"":0},{""event"":""focus"",""trial"":0,""time"":0},{""event"":""blur"",""trial"":0,""time"":0},{""event"":""focus"",""trial"":0,""time"":0},{""event"":""blur"",""trial"":0,""time"":0},{""event"":""focus"",""trial"":0,""time"":0},{""event"":""fullscreenenter"",""trial"":1,""time"":3877},{""event"":""fullscreenexit"",""trial"":40,""time"":316283}]",NA,112,static/audio/instructions15.wav,NA,0,NA,NA,NA,NA,NA,NA,NA,NA,NA,NA,NA,NA,NA,NA,NA,NA,NA,NA,NA,NA,NA,NA,NA,NA,NA
audio-instructions,42,338253,0.0-7.0-1.0,voc_e2,11910,"[{""event"":""focus"",""trial"":0,""time"":0},{""event"":""blur"",""trial"":0,""time"":0},{""event"":""focus"",""trial"":0,""time"":0},{""event"":""blur"",""trial"":0,""time"":0},{""event"":""focus"",""trial"":0,""time"":0},{""event"":""blur"",""trial"":0,""time"":0},{""event"":""focus"",""trial"":0,""time"":0},{""event"":""blur"",""trial"":0,""time"":0},{""event"":""focus"",""trial"":0,""time"":0},{""event"":""fullscreenenter"",""trial"":1,""time"":3877},{""event"":""fullscreenexit"",""trial"":40,""time"":316283}]",NA,256,static/audio/instructions16.wav,NA,0,NA,NA,NA,NA,NA,NA,NA,NA,NA,NA,NA,NA,NA,NA,NA,NA,NA,NA,NA,NA,NA,NA,NA,NA,NA
audio-instructions,43,346125,0.0-7.0-2.0,voc_e2,11910,"[{""event"":""focus"",""trial"":0,""time"":0},{""event"":""blur"",""trial"":0,""time"":0},{""event"":""focus"",""trial"":0,""time"":0},{""event"":""blur"",""trial"":0,""time"":0},{""event"":""focus"",""trial"":0,""time"":0},{""event"":""blur"",""trial"":0,""time"":0},{""event"":""focus"",""trial"":0,""time"":0},{""event"":""blur"",""trial"":0,""time"":0},{""event"":""focus"",""trial"":0,""time"":0},{""event"":""fullscreenenter"",""trial"":1,""time"":3877},{""event"":""fullscreenexit"",""trial"":40,""time"":316283}]",NA,180,static/audio/instructions17.wav,NA,0,NA,NA,NA,NA,NA,NA,NA,NA,NA,NA,NA,NA,NA,NA,NA,NA,NA,NA,NA,NA,NA,NA,NA,NA,NA
audio-instructions,44,354605,0.0-7.0-3.0,voc_e2,11910,"[{""event"":""focus"",""trial"":0,""time"":0},{""event"":""blur"",""trial"":0,""time"":0},{""event"":""focus"",""trial"":0,""time"":0},{""event"":""blur"",""trial"":0,""time"":0},{""event"":""focus"",""trial"":0,""time"":0},{""event"":""blur"",""trial"":0,""time"":0},{""event"":""focus"",""trial"":0,""time"":0},{""event"":""blur"",""trial"":0,""time"":0},{""event"":""focus"",""trial"":0,""time"":0},{""event"":""fullscreenenter"",""trial"":1,""time"":3877},{""event"":""fullscreenexit"",""trial"":40,""time"":316283}]",NA,697,static/audio/instructions18.wav,NA,0,NA,NA,NA,NA,NA,NA,NA,NA,NA,NA,NA,NA,NA,NA,NA,NA,NA,NA,NA,NA,NA,NA,NA,NA,NA
audio-instructions,45,361997,0.0-7.0-4.0,voc_e2,11910,"[{""event"":""focus"",""trial"":0,""time"":0},{""event"":""blur"",""trial"":0,""time"":0},{""event"":""focus"",""trial"":0,""time"":0},{""event"":""blur"",""trial"":0,""time"":0},{""event"":""focus"",""trial"":0,""time"":0},{""event"":""blur"",""trial"":0,""time"":0},{""event"":""focus"",""trial"":0,""time"":0},{""event"":""blur"",""trial"":0,""time"":0},{""event"":""focus"",""trial"":0,""time"":0},{""event"":""fullscreenenter"",""trial"":1,""time"":3877},{""event"":""fullscreenexit"",""trial"":40,""time"":316283}]",NA,641,static/audio/instructions19.wav,NA,0,NA,NA,NA,NA,NA,NA,NA,NA,NA,NA,NA,NA,NA,NA,NA,NA,NA,NA,NA,NA,NA,NA,NA,NA,NA
fcp-comprehension,46,372864,0.0-7.0-5.0,voc_e2,11910,"[{""event"":""focus"",""trial"":0,""time"":0},{""event"":""blur"",""trial"":0,""time"":0},{""event"":""focus"",""trial"":0,""time"":0},{""event"":""blur"",""trial"":0,""time"":0},{""event"":""focus"",""trial"":0,""time"":0},{""event"":""blur"",""trial"":0,""time"":0},{""event"":""focus"",""trial"":0,""time"":0},{""event"":""blur"",""trial"":0,""time"":0},{""event"":""focus"",""trial"":0,""time"":0},{""event"":""fullscreenenter"",""trial"":1,""time"":3877},{""event"":""fullscreenexit"",""trial"":40,""time"":316283}]",NA,10864,NA,NA,NA,NA,NA,NA,NA,NA,NA,NA,NA,NA,NA,NA,NA,NA,NA,NA,"false,false,false,true",0,NA,NA,NA,NA,NA,NA,NA,NA
audio-instructions,47,383083,0.0-8.0,voc_e2,11910,"[{""event"":""focus"",""trial"":0,""time"":0},{""event"":""blur"",""trial"":0,""time"":0},{""event"":""focus"",""trial"":0,""time"":0},{""event"":""blur"",""trial"":0,""time"":0},{""event"":""focus"",""trial"":0,""time"":0},{""event"":""blur"",""trial"":0,""time"":0},{""event"":""focus"",""trial"":0,""time"":0},{""event"":""blur"",""trial"":0,""time"":0},{""event"":""focus"",""trial"":0,""time"":0},{""event"":""fullscreenenter"",""trial"":1,""time"":3877},{""event"":""fullscreenexit"",""trial"":40,""time"":316283}]",NA,986,static/audio/ready.wav,NA,0,NA,NA,NA,NA,NA,NA,NA,NA,NA,NA,NA,NA,NA,NA,NA,NA,NA,NA,NA,NA,NA,NA,NA,NA,NA
fcp-trial,48,387463,0.0-9.0-0.0,voc_e2,11910,"[{""event"":""focus"",""trial"":0,""time"":0},{""event"":""blur"",""trial"":0,""time"":0},{""event"":""focus"",""trial"":0,""time"":0},{""event"":""blur"",""trial"":0,""time"":0},{""event"":""focus"",""trial"":0,""time"":0},{""event"":""blur"",""trial"":0,""time"":0},{""event"":""focus"",""trial"":0,""time"":0},{""event"":""blur"",""trial"":0,""time"":0},{""event"":""focus"",""trial"":0,""time"":0},{""event"":""fullscreenenter"",""trial"":1,""time"":3877},{""event"":""fullscreenexit"",""trial"":40,""time"":316283}]",NA,NA,NA,NA,NA,5,#741CD8,#D8271C,10,0,1,40,0,1893,37,1,952,10,1,experiment,NA,NA,0,0.9,0.1,0,1,1,1,NA
fcp-trial,49,392457,0.0-10.0-0.0,voc_e2,11910,"[{""event"":""focus"",""trial"":0,""time"":0},{""event"":""blur"",""trial"":0,""time"":0},{""event"":""focus"",""trial"":0,""time"":0},{""event"":""blur"",""trial"":0,""time"":0},{""event"":""focus"",""trial"":0,""time"":0},{""event"":""blur"",""trial"":0,""time"":0},{""event"":""focus"",""trial"":0,""time"":0},{""event"":""blur"",""trial"":0,""time"":0},{""event"":""focus"",""trial"":0,""time"":0},{""event"":""fullscreenenter"",""trial"":1,""time"":3877},{""event"":""fullscreenexit"",""trial"":40,""time"":316283},{""event"":""blur"",""trial"":49,""time"":387848},{""event"":""focus"",""trial"":49,""time"":389946}]",NA,NA,NA,NA,NA,0,#D8271C,#741CD8,0,10,0,40,0,2752,39,0,714,10,1,experiment,NA,NA,0,0.1,0.9,1,0,2,1,NA
fcp-trial,50,394641,0.0-11.0-0.0,voc_e2,11910,"[{""event"":""focus"",""trial"":0,""time"":0},{""event"":""blur"",""trial"":0,""time"":0},{""event"":""focus"",""trial"":0,""time"":0},{""event"":""blur"",""trial"":0,""time"":0},{""event"":""focus"",""trial"":0,""time"":0},{""event"":""blur"",""trial"":0,""time"":0},{""event"":""focus"",""trial"":0,""time"":0},{""event"":""blur"",""trial"":0,""time"":0},{""event"":""focus"",""trial"":0,""time"":0},{""event"":""fullscreenenter"",""trial"":1,""time"":3877},{""event"":""fullscreenexit"",""trial"":40,""time"":316283},{""event"":""blur"",""trial"":49,""time"":387848},{""event"":""focus"",""trial"":49,""time"":389946}]",NA,NA,NA,NA,NA,6,#3386FF,#D89F1C,10,10,1,40,0,152,39,0,514,10,0,experiment,NA,NA,1,0.7,0.3,2,3,3,1,NA
fcp-trial,51,396774,0.0-12.0-0.0,voc_e2,11910,"[{""event"":""focus"",""trial"":0,""time"":0},{""event"":""blur"",""trial"":0,""time"":0},{""event"":""focus"",""trial"":0,""time"":0},{""event"":""blur"",""trial"":0,""time"":0},{""event"":""focus"",""trial"":0,""time"":0},{""event"":""blur"",""trial"":0,""time"":0},{""event"":""focus"",""trial"":0,""time"":0},{""event"":""blur"",""trial"":0,""time"":0},{""event"":""focus"",""trial"":0,""time"":0},{""event"":""fullscreenenter"",""trial"":1,""time"":3877},{""event"":""fullscreenexit"",""trial"":40,""time"":316283},{""event"":""blur"",""trial"":49,""time"":387848},{""event"":""focus"",""trial"":49,""time"":389946}]",NA,NA,NA,NA,NA,4,#FA92F8,#1CD855,0,10,0,40,0,239,37,1,372,0,0,experiment,NA,NA,2,0.5,0.5,5,4,4,1,NA
fcp-trial,52,399306,0.0-13.0-0.0,voc_e2,11910,"[{""event"":""focus"",""trial"":0,""time"":0},{""event"":""blur"",""trial"":0,""time"":0},{""event"":""focus"",""trial"":0,""time"":0},{""event"":""blur"",""trial"":0,""time"":0},{""event"":""focus"",""trial"":0,""time"":0},{""event"":""blur"",""trial"":0,""time"":0},{""event"":""focus"",""trial"":0,""time"":0},{""event"":""blur"",""trial"":0,""time"":0},{""event"":""focus"",""trial"":0,""time"":0},{""event"":""fullscreenenter"",""trial"":1,""time"":3877},{""event"":""fullscreenexit"",""trial"":40,""time"":316283},{""event"":""blur"",""trial"":49,""time"":387848},{""event"":""focus"",""trial"":49,""time"":389946}]",NA,NA,NA,NA,NA,4,#D8271C,#741CD8,0,10,0,40,0,195,39,0,806,10,1,experiment,NA,NA,0,0.1,0.9,1,0,5,1,NA
fcp-trial,53,401561,0.0-14.0-0.0,voc_e2,11910,"[{""event"":""focus"",""trial"":0,""time"":0},{""event"":""blur"",""trial"":0,""time"":0},{""event"":""focus"",""trial"":0,""time"":0},{""event"":""blur"",""trial"":0,""time"":0},{""event"":""focus"",""trial"":0,""time"":0},{""event"":""blur"",""trial"":0,""time"":0},{""event"":""focus"",""trial"":0,""time"":0},{""event"":""blur"",""trial"":0,""time"":0},{""event"":""focus"",""trial"":0,""time"":0},{""event"":""fullscreenenter"",""trial"":1,""time"":3877},{""event"":""fullscreenexit"",""trial"":40,""time"":316283},{""event"":""blur"",""trial"":49,""time"":387848},{""event"":""focus"",""trial"":49,""time"":389946}]",NA,NA,NA,NA,NA,3,#D89F1C,#3386FF,10,10,0,40,0,197,39,0,534,10,1,experiment,NA,NA,1,0.3,0.7,3,2,6,1,NA
fcp-trial,54,403846,0.0-15.0-0.0,voc_e2,11910,"[{""event"":""focus"",""trial"":0,""time"":0},{""event"":""blur"",""trial"":0,""time"":0},{""event"":""focus"",""trial"":0,""time"":0},{""event"":""blur"",""trial"":0,""time"":0},{""event"":""focus"",""trial"":0,""time"":0},{""event"":""blur"",""trial"":0,""time"":0},{""event"":""focus"",""trial"":0,""time"":0},{""event"":""blur"",""trial"":0,""time"":0},{""event"":""focus"",""trial"":0,""time"":0},{""event"":""fullscreenenter"",""trial"":1,""time"":3877},{""event"":""fullscreenexit"",""trial"":40,""time"":316283},{""event"":""blur"",""trial"":49,""time"":387848},{""event"":""focus"",""trial"":49,""time"":389946}]",NA,NA,NA,NA,NA,2,#741CD8,#D8271C,10,10,1,40,0,254,39,0,512,10,0,experiment,NA,NA,0,0.9,0.1,0,1,7,1,NA
fcp-trial,55,406498,0.0-16.0-0.0,voc_e2,11910,"[{""event"":""focus"",""trial"":0,""time"":0},{""event"":""blur"",""trial"":0,""time"":0},{""event"":""focus"",""trial"":0,""time"":0},{""event"":""blur"",""trial"":0,""time"":0},{""event"":""focus"",""trial"":0,""time"":0},{""event"":""blur"",""trial"":0,""time"":0},{""event"":""focus"",""trial"":0,""time"":0},{""event"":""blur"",""trial"":0,""time"":0},{""event"":""focus"",""trial"":0,""time"":0},{""event"":""fullscreenenter"",""trial"":1,""time"":3877},{""event"":""fullscreenexit"",""trial"":40,""time"":316283},{""event"":""blur"",""trial"":49,""time"":387848},{""event"":""focus"",""trial"":49,""time"":389946}]",NA,NA,NA,NA,NA,6,#FA92F8,#1CD855,10,10,0,40,0,213,37,1,916,10,0,experiment,NA,NA,2,0.5,0.5,5,4,8,1,NA
fcp-trial,56,408864,0.0-17.0-0.0,voc_e2,11910,"[{""event"":""focus"",""trial"":0,""time"":0},{""event"":""blur"",""trial"":0,""time"":0},{""event"":""focus"",""trial"":0,""time"":0},{""event"":""blur"",""trial"":0,""time"":0},{""event"":""focus"",""trial"":0,""time"":0},{""event"":""blur"",""trial"":0,""time"":0},{""event"":""focus"",""trial"":0,""time"":0},{""event"":""blur"",""trial"":0,""time"":0},{""event"":""focus"",""trial"":0,""time"":0},{""event"":""fullscreenenter"",""trial"":1,""time"":3877},{""event"":""fullscreenexit"",""trial"":40,""time"":316283},{""event"":""blur"",""trial"":49,""time"":387848},{""event"":""focus"",""trial"":49,""time"":389946}]",NA,NA,NA,NA,NA,2,#3386FF,#D89F1C,10,0,1,40,0,328,37,1,512,10,1,experiment,NA,NA,1,0.7,0.3,2,3,9,1,NA
fcp-trial,57,411000,0.0-18.0-0.0,voc_e2,11910,"[{""event"":""focus"",""trial"":0,""time"":0},{""event"":""blur"",""trial"":0,""time"":0},{""event"":""focus"",""trial"":0,""time"":0},{""event"":""blur"",""trial"":0,""time"":0},{""event"":""focus"",""trial"":0,""time"":0},{""event"":""blur"",""trial"":0,""time"":0},{""event"":""focus"",""trial"":0,""time"":0},{""event"":""blur"",""trial"":0,""time"":0},{""event"":""focus"",""trial"":0,""time"":0},{""event"":""fullscreenenter"",""trial"":1,""time"":3877},{""event"":""fullscreenexit"",""trial"":40,""time"":316283},{""event"":""blur"",""trial"":49,""time"":387848},{""event"":""focus"",""trial"":49,""time"":389946}]",NA,NA,NA,NA,NA,6,#741CD8,#D8271C,10,0,1,40,0,145,37,1,470,10,1,experiment,NA,NA,0,0.9,0.1,0,1,10,1,NA
fcp-trial,58,413431,0.0-19.0-0.0,voc_e2,11910,"[{""event"":""focus"",""trial"":0,""time"":0},{""event"":""blur"",""trial"":0,""time"":0},{""event"":""focus"",""trial"":0,""time"":0},{""event"":""blur"",""trial"":0,""time"":0},{""event"":""focus"",""trial"":0,""time"":0},{""event"":""blur"",""trial"":0,""time"":0},{""event"":""focus"",""trial"":0,""time"":0},{""event"":""blur"",""trial"":0,""time"":0},{""event"":""focus"",""trial"":0,""time"":0},{""event"":""fullscreenenter"",""trial"":1,""time"":3877},{""event"":""fullscreenexit"",""trial"":40,""time"":316283},{""event"":""blur"",""trial"":49,""time"":387848},{""event"":""focus"",""trial"":49,""time"":389946}]",NA,NA,NA,NA,NA,1,#FA92F8,#1CD855,10,10,0,40,0,337,37,1,548,10,0,experiment,NA,NA,2,0.5,0.5,5,4,11,1,NA
fcp-trial,59,415815,0.0-20.0-0.0,voc_e2,11910,"[{""event"":""focus"",""trial"":0,""time"":0},{""event"":""blur"",""trial"":0,""time"":0},{""event"":""focus"",""trial"":0,""time"":0},{""event"":""blur"",""trial"":0,""time"":0},{""event"":""focus"",""trial"":0,""time"":0},{""event"":""blur"",""trial"":0,""time"":0},{""event"":""focus"",""trial"":0,""time"":0},{""event"":""blur"",""trial"":0,""time"":0},{""event"":""focus"",""trial"":0,""time"":0},{""event"":""fullscreenenter"",""trial"":1,""time"":3877},{""event"":""fullscreenexit"",""trial"":40,""time"":316283},{""event"":""blur"",""trial"":49,""time"":387848},{""event"":""focus"",""trial"":49,""time"":389946}]",NA,NA,NA,NA,NA,0,#D89F1C,#3386FF,0,10,0,40,0,314,37,1,524,0,0,experiment,NA,NA,1,0.3,0.7,3,2,12,1,NA
fcp-trial,60,418198,0.0-21.0-0.0,voc_e2,11910,"[{""event"":""focus"",""trial"":0,""time"":0},{""event"":""blur"",""trial"":0,""time"":0},{""event"":""focus"",""trial"":0,""time"":0},{""event"":""blur"",""trial"":0,""time"":0},{""event"":""focus"",""trial"":0,""time"":0},{""event"":""blur"",""trial"":0,""time"":0},{""event"":""focus"",""trial"":0,""time"":0},{""event"":""blur"",""trial"":0,""time"":0},{""event"":""focus"",""trial"":0,""time"":0},{""event"":""fullscreenenter"",""trial"":1,""time"":3877},{""event"":""fullscreenexit"",""trial"":40,""time"":316283},{""event"":""blur"",""trial"":49,""time"":387848},{""event"":""focus"",""trial"":49,""time"":389946}]",NA,NA,NA,NA,NA,0,#FA92F8,#1CD855,10,0,0,40,0,324,37,1,507,10,0,experiment,NA,NA,2,0.5,0.5,5,4,13,1,NA
fcp-trial,61,420810,0.0-22.0-0.0,voc_e2,11910,"[{""event"":""focus"",""trial"":0,""time"":0},{""event"":""blur"",""trial"":0,""time"":0},{""event"":""focus"",""trial"":0,""time"":0},{""event"":""blur"",""trial"":0,""time"":0},{""event"":""focus"",""trial"":0,""time"":0},{""event"":""blur"",""trial"":0,""time"":0},{""event"":""focus"",""trial"":0,""time"":0},{""event"":""blur"",""trial"":0,""time"":0},{""event"":""focus"",""trial"":0,""time"":0},{""event"":""fullscreenenter"",""trial"":1,""time"":3877},{""event"":""fullscreenexit"",""trial"":40,""time"":316283},{""event"":""blur"",""trial"":49,""time"":387848},{""event"":""focus"",""trial"":49,""time"":389946}]",NA,NA,NA,NA,NA,3,#741CD8,#D8271C,10,0,1,40,0,129,39,0,966,0,0,experiment,NA,NA,0,0.9,0.1,0,1,14,1,NA
fcp-trial,62,423446,0.0-23.0-0.0,voc_e2,11910,"[{""event"":""focus"",""trial"":0,""time"":0},{""event"":""blur"",""trial"":0,""time"":0},{""event"":""focus"",""trial"":0,""time"":0},{""event"":""blur"",""trial"":0,""time"":0},{""event"":""focus"",""trial"":0,""time"":0},{""event"":""blur"",""trial"":0,""time"":0},{""event"":""focus"",""trial"":0,""time"":0},{""event"":""blur"",""trial"":0,""time"":0},{""event"":""focus"",""trial"":0,""time"":0},{""event"":""fullscreenenter"",""trial"":1,""time"":3877},{""event"":""fullscreenexit"",""trial"":40,""time"":316283},{""event"":""blur"",""trial"":49,""time"":387848},{""event"":""focus"",""trial"":49,""time"":389946}]",NA,NA,NA,NA,NA,3,#1CD855,#FA92F8,10,0,1,40,0,351,37,1,766,10,1,experiment,NA,NA,2,0.5,0.5,4,5,15,1,NA
fcp-trial,63,425638,0.0-24.0-0.0,voc_e2,11910,"[{""event"":""focus"",""trial"":0,""time"":0},{""event"":""blur"",""trial"":0,""time"":0},{""event"":""focus"",""trial"":0,""time"":0},{""event"":""blur"",""trial"":0,""time"":0},{""event"":""focus"",""trial"":0,""time"":0},{""event"":""blur"",""trial"":0,""time"":0},{""event"":""focus"",""trial"":0,""time"":0},{""event"":""blur"",""trial"":0,""time"":0},{""event"":""focus"",""trial"":0,""time"":0},{""event"":""fullscreenenter"",""trial"":1,""time"":3877},{""event"":""fullscreenexit"",""trial"":40,""time"":316283},{""event"":""blur"",""trial"":49,""time"":387848},{""event"":""focus"",""trial"":49,""time"":389946}]",NA,NA,NA,NA,NA,4,#3386FF,#D89F1C,10,0,1,40,0,131,37,1,548,10,1,experiment,NA,NA,1,0.7,0.3,2,3,16,1,NA
fcp-trial,64,428003,0.0-25.0-0.0,voc_e2,11910,"[{""event"":""focus"",""trial"":0,""time"":0},{""event"":""blur"",""trial"":0,""time"":0},{""event"":""focus"",""trial"":0,""time"":0},{""event"":""blur"",""trial"":0,""time"":0},{""event"":""focus"",""trial"":0,""time"":0},{""event"":""blur"",""trial"":0,""time"":0},{""event"":""focus"",""trial"":0,""time"":0},{""event"":""blur"",""trial"":0,""time"":0},{""event"":""focus"",""trial"":0,""time"":0},{""event"":""fullscreenenter"",""trial"":1,""time"":3877},{""event"":""fullscreenexit"",""trial"":40,""time"":316283},{""event"":""blur"",""trial"":49,""time"":387848},{""event"":""focus"",""trial"":49,""time"":389946}]",NA,NA,NA,NA,NA,2,#FA92F8,#1CD855,0,10,0,40,0,298,37,1,538,0,0,experiment,NA,NA,2,0.5,0.5,5,4,17,1,NA
fcp-trial,65,430251,0.0-26.0-0.0,voc_e2,11910,"[{""event"":""focus"",""trial"":0,""time"":0},{""event"":""blur"",""trial"":0,""time"":0},{""event"":""focus"",""trial"":0,""time"":0},{""event"":""blur"",""trial"":0,""time"":0},{""event"":""focus"",""trial"":0,""time"":0},{""event"":""blur"",""trial"":0,""time"":0},{""event"":""focus"",""trial"":0,""time"":0},{""event"":""blur"",""trial"":0,""time"":0},{""event"":""focus"",""trial"":0,""time"":0},{""event"":""fullscreenenter"",""trial"":1,""time"":3877},{""event"":""fullscreenexit"",""trial"":40,""time"":316283},{""event"":""blur"",""trial"":49,""time"":387848},{""event"":""focus"",""trial"":49,""time"":389946}]",NA,NA,NA,NA,NA,5,#FA92F8,#1CD855,10,0,0,40,0,82,37,1,643,10,0,experiment,NA,NA,2,0.5,0.5,5,4,18,1,NA
fcp-trial,66,432531,0.0-27.0-0.0,voc_e2,11910,"[{""event"":""focus"",""trial"":0,""time"":0},{""event"":""blur"",""trial"":0,""time"":0},{""event"":""focus"",""trial"":0,""time"":0},{""event"":""blur"",""trial"":0,""time"":0},{""event"":""focus"",""trial"":0,""time"":0},{""event"":""blur"",""trial"":0,""time"":0},{""event"":""focus"",""trial"":0,""time"":0},{""event"":""blur"",""trial"":0,""time"":0},{""event"":""focus"",""trial"":0,""time"":0},{""event"":""fullscreenenter"",""trial"":1,""time"":3877},{""event"":""fullscreenexit"",""trial"":40,""time"":316283},{""event"":""blur"",""trial"":49,""time"":387848},{""event"":""focus"",""trial"":49,""time"":389946}]",NA,NA,NA,NA,NA,1,#D8271C,#741CD8,0,10,0,40,0,78,39,0,680,10,1,experiment,NA,NA,0,0.1,0.9,1,0,19,1,NA
fcp-trial,67,434867,0.0-28.0-0.0,voc_e2,11910,"[{""event"":""focus"",""trial"":0,""time"":0},{""event"":""blur"",""trial"":0,""time"":0},{""event"":""focus"",""trial"":0,""time"":0},{""event"":""blur"",""trial"":0,""time"":0},{""event"":""focus"",""trial"":0,""time"":0},{""event"":""blur"",""trial"":0,""time"":0},{""event"":""focus"",""trial"":0,""time"":0},{""event"":""blur"",""trial"":0,""time"":0},{""event"":""focus"",""trial"":0,""time"":0},{""event"":""fullscreenenter"",""trial"":1,""time"":3877},{""event"":""fullscreenexit"",""trial"":40,""time"":316283},{""event"":""blur"",""trial"":49,""time"":387848},{""event"":""focus"",""trial"":49,""time"":389946}]",NA,NA,NA,NA,NA,1,#D89F1C,#3386FF,0,10,0,40,0,408,39,0,418,10,1,experiment,NA,NA,1,0.3,0.7,3,2,20,1,NA
fcp-trial,68,436916,0.0-29.0-0.0,voc_e2,11910,"[{""event"":""focus"",""trial"":0,""time"":0},{""event"":""blur"",""trial"":0,""time"":0},{""event"":""focus"",""trial"":0,""time"":0},{""event"":""blur"",""trial"":0,""time"":0},{""event"":""focus"",""trial"":0,""time"":0},{""event"":""blur"",""trial"":0,""time"":0},{""event"":""focus"",""trial"":0,""time"":0},{""event"":""blur"",""trial"":0,""time"":0},{""event"":""focus"",""trial"":0,""time"":0},{""event"":""fullscreenenter"",""trial"":1,""time"":3877},{""event"":""fullscreenexit"",""trial"":40,""time"":316283},{""event"":""blur"",""trial"":49,""time"":387848},{""event"":""focus"",""trial"":49,""time"":389946}]",NA,NA,NA,NA,NA,5,#3386FF,#D89F1C,10,0,1,40,0,192,37,1,323,10,1,experiment,NA,NA,1,0.7,0.3,2,3,21,1,NA
fcp-trial,69,438989,0.0-30.0-0.0,voc_e2,11910,"[{""event"":""focus"",""trial"":0,""time"":0},{""event"":""blur"",""trial"":0,""time"":0},{""event"":""focus"",""trial"":0,""time"":0},{""event"":""blur"",""trial"":0,""time"":0},{""event"":""focus"",""trial"":0,""time"":0},{""event"":""blur"",""trial"":0,""time"":0},{""event"":""focus"",""trial"":0,""time"":0},{""event"":""blur"",""trial"":0,""time"":0},{""event"":""focus"",""trial"":0,""time"":0},{""event"":""fullscreenenter"",""trial"":1,""time"":3877},{""event"":""fullscreenexit"",""trial"":40,""time"":316283},{""event"":""blur"",""trial"":49,""time"":387848},{""event"":""focus"",""trial"":49,""time"":389946}]",NA,NA,NA,NA,NA,2,#D89F1C,#3386FF,10,10,0,40,0,158,37,1,401,10,0,experiment,NA,NA,1,0.3,0.7,3,2,22,1,NA
fcp-trial,70,440969,0.0-31.0-0.0,voc_e2,11910,"[{""event"":""focus"",""trial"":0,""time"":0},{""event"":""blur"",""trial"":0,""time"":0},{""event"":""focus"",""trial"":0,""time"":0},{""event"":""blur"",""trial"":0,""time"":0},{""event"":""focus"",""trial"":0,""time"":0},{""event"":""blur"",""trial"":0,""time"":0},{""event"":""focus"",""trial"":0,""time"":0},{""event"":""blur"",""trial"":0,""time"":0},{""event"":""focus"",""trial"":0,""time"":0},{""event"":""fullscreenenter"",""trial"":1,""time"":3877},{""event"":""fullscreenexit"",""trial"":40,""time"":316283},{""event"":""blur"",""trial"":49,""time"":387848},{""event"":""focus"",""trial"":49,""time"":389946}]",NA,NA,NA,NA,NA,5,#3386FF,#D89F1C,10,0,1,40,0,93,37,1,363,10,1,experiment,NA,NA,1,0.7,0.3,2,3,23,1,NA
fcp-trial,71,442875,0.0-32.0-0.0,voc_e2,11910,"[{""event"":""focus"",""trial"":0,""time"":0},{""event"":""blur"",""trial"":0,""time"":0},{""event"":""focus"",""trial"":0,""time"":0},{""event"":""blur"",""trial"":0,""time"":0},{""event"":""focus"",""trial"":0,""time"":0},{""event"":""blur"",""trial"":0,""time"":0},{""event"":""focus"",""trial"":0,""time"":0},{""event"":""blur"",""trial"":0,""time"":0},{""event"":""focus"",""trial"":0,""time"":0},{""event"":""fullscreenenter"",""trial"":1,""time"":3877},{""event"":""fullscreenexit"",""trial"":40,""time"":316283},{""event"":""blur"",""trial"":49,""time"":387848},{""event"":""focus"",""trial"":49,""time"":389946}]",NA,NA,NA,NA,NA,0,#D8271C,#741CD8,0,10,0,40,0,28,39,0,350,10,1,experiment,NA,NA,0,0.1,0.9,1,0,24,1,NA
fcp-trial,72,445042,0.0-33.0-0.0,voc_e2,11910,"[{""event"":""focus"",""trial"":0,""time"":0},{""event"":""blur"",""trial"":0,""time"":0},{""event"":""focus"",""trial"":0,""time"":0},{""event"":""blur"",""trial"":0,""time"":0},{""event"":""focus"",""trial"":0,""time"":0},{""event"":""blur"",""trial"":0,""time"":0},{""event"":""focus"",""trial"":0,""time"":0},{""event"":""blur"",""trial"":0,""time"":0},{""event"":""focus"",""trial"":0,""time"":0},{""event"":""fullscreenenter"",""trial"":1,""time"":3877},{""event"":""fullscreenexit"",""trial"":40,""time"":316283},{""event"":""blur"",""trial"":49,""time"":387848},{""event"":""focus"",""trial"":49,""time"":389946}]",NA,NA,NA,NA,NA,3,#FA92F8,#1CD855,0,0,0,40,0,99,37,1,531,0,0,experiment,NA,NA,2,0.5,0.5,5,4,25,1,NA
fcp-trial,73,446986,0.0-34.0-0.0,voc_e2,11910,"[{""event"":""focus"",""trial"":0,""time"":0},{""event"":""blur"",""trial"":0,""time"":0},{""event"":""focus"",""trial"":0,""time"":0},{""event"":""blur"",""trial"":0,""time"":0},{""event"":""focus"",""trial"":0,""time"":0},{""event"":""blur"",""trial"":0,""time"":0},{""event"":""focus"",""trial"":0,""time"":0},{""event"":""blur"",""trial"":0,""time"":0},{""event"":""focus"",""trial"":0,""time"":0},{""event"":""fullscreenenter"",""trial"":1,""time"":3877},{""event"":""fullscreenexit"",""trial"":40,""time"":316283},{""event"":""blur"",""trial"":49,""time"":387848},{""event"":""focus"",""trial"":49,""time"":389946}]",NA,NA,NA,NA,NA,1,#3386FF,#D89F1C,0,10,1,40,0,47,37,1,382,0,1,experiment,NA,NA,1,0.7,0.3,2,3,26,1,NA
fcp-trial,74,448932,0.0-35.0-0.0,voc_e2,11910,"[{""event"":""focus"",""trial"":0,""time"":0},{""event"":""blur"",""trial"":0,""time"":0},{""event"":""focus"",""trial"":0,""time"":0},{""event"":""blur"",""trial"":0,""time"":0},{""event"":""focus"",""trial"":0,""time"":0},{""event"":""blur"",""trial"":0,""time"":0},{""event"":""focus"",""trial"":0,""time"":0},{""event"":""blur"",""trial"":0,""time"":0},{""event"":""focus"",""trial"":0,""time"":0},{""event"":""fullscreenenter"",""trial"":1,""time"":3877},{""event"":""fullscreenexit"",""trial"":40,""time"":316283},{""event"":""blur"",""trial"":49,""time"":387848},{""event"":""focus"",""trial"":49,""time"":389946}]",NA,NA,NA,NA,NA,6,#FA92F8,#1CD855,0,10,0,40,0,118,39,0,312,10,1,experiment,NA,NA,2,0.5,0.5,5,4,27,1,NA
fcp-trial,75,450941,0.0-36.0-0.0,voc_e2,11910,"[{""event"":""focus"",""trial"":0,""time"":0},{""event"":""blur"",""trial"":0,""time"":0},{""event"":""focus"",""trial"":0,""time"":0},{""event"":""blur"",""trial"":0,""time"":0},{""event"":""focus"",""trial"":0,""time"":0},{""event"":""blur"",""trial"":0,""time"":0},{""event"":""focus"",""trial"":0,""time"":0},{""event"":""blur"",""trial"":0,""time"":0},{""event"":""focus"",""trial"":0,""time"":0},{""event"":""fullscreenenter"",""trial"":1,""time"":3877},{""event"":""fullscreenexit"",""trial"":40,""time"":316283},{""event"":""blur"",""trial"":49,""time"":387848},{""event"":""focus"",""trial"":49,""time"":389946}]",NA,NA,NA,NA,NA,0,#3386FF,#D89F1C,10,0,1,40,0,85,37,1,368,10,1,experiment,NA,NA,1,0.7,0.3,2,3,28,1,NA
fcp-trial,76,453542,0.0-37.0-0.0,voc_e2,11910,"[{""event"":""focus"",""trial"":0,""time"":0},{""event"":""blur"",""trial"":0,""time"":0},{""event"":""focus"",""trial"":0,""time"":0},{""event"":""blur"",""trial"":0,""time"":0},{""event"":""focus"",""trial"":0,""time"":0},{""event"":""blur"",""trial"":0,""time"":0},{""event"":""focus"",""trial"":0,""time"":0},{""event"":""blur"",""trial"":0,""time"":0},{""event"":""focus"",""trial"":0,""time"":0},{""event"":""fullscreenenter"",""trial"":1,""time"":3877},{""event"":""fullscreenexit"",""trial"":40,""time"":316283},{""event"":""blur"",""trial"":49,""time"":387848},{""event"":""focus"",""trial"":49,""time"":389946}]",NA,NA,NA,NA,NA,2,#D8271C,#741CD8,0,10,0,40,0,171,37,1,915,0,0,experiment,NA,NA,0,0.1,0.9,1,0,29,1,NA
fcp-trial,77,455461,0.0-38.0-0.0,voc_e2,11910,"[{""event"":""focus"",""trial"":0,""time"":0},{""event"":""blur"",""trial"":0,""time"":0},{""event"":""focus"",""trial"":0,""time"":0},{""event"":""blur"",""trial"":0,""time"":0},{""event"":""focus"",""trial"":0,""time"":0},{""event"":""blur"",""trial"":0,""time"":0},{""event"":""focus"",""trial"":0,""time"":0},{""event"":""blur"",""trial"":0,""time"":0},{""event"":""focus"",""trial"":0,""time"":0},{""event"":""fullscreenenter"",""trial"":1,""time"":3877},{""event"":""fullscreenexit"",""trial"":40,""time"":316283},{""event"":""blur"",""trial"":49,""time"":387848},{""event"":""focus"",""trial"":49,""time"":389946}]",NA,NA,NA,NA,NA,1,#741CD8,#D8271C,10,0,1,40,0,25,37,1,369,10,1,experiment,NA,NA,0,0.9,0.1,0,1,30,1,NA
fcp-trial,78,457361,0.0-39.0-0.0,voc_e2,11910,"[{""event"":""focus"",""trial"":0,""time"":0},{""event"":""blur"",""trial"":0,""time"":0},{""event"":""focus"",""trial"":0,""time"":0},{""event"":""blur"",""trial"":0,""time"":0},{""event"":""focus"",""trial"":0,""time"":0},{""event"":""blur"",""trial"":0,""time"":0},{""event"":""focus"",""trial"":0,""time"":0},{""event"":""blur"",""trial"":0,""time"":0},{""event"":""focus"",""trial"":0,""time"":0},{""event"":""fullscreenenter"",""trial"":1,""time"":3877},{""event"":""fullscreenexit"",""trial"":40,""time"":316283},{""event"":""blur"",""trial"":49,""time"":387848},{""event"":""focus"",""trial"":49,""time"":389946}]",NA,NA,NA,NA,NA,3,#D8271C,#741CD8,0,0,0,40,0,14,37,1,364,0,0,experiment,NA,NA,0,0.1,0.9,1,0,31,1,NA
fcp-trial,79,459437,0.0-40.0-0.0,voc_e2,11910,"[{""event"":""focus"",""trial"":0,""time"":0},{""event"":""blur"",""trial"":0,""time"":0},{""event"":""focus"",""trial"":0,""time"":0},{""event"":""blur"",""trial"":0,""time"":0},{""event"":""focus"",""trial"":0,""time"":0},{""event"":""blur"",""trial"":0,""time"":0},{""event"":""focus"",""trial"":0,""time"":0},{""event"":""blur"",""trial"":0,""time"":0},{""event"":""focus"",""trial"":0,""time"":0},{""event"":""fullscreenenter"",""trial"":1,""time"":3877},{""event"":""fullscreenexit"",""trial"":40,""time"":316283},{""event"":""blur"",""trial"":49,""time"":387848},{""event"":""focus"",""trial"":49,""time"":389946}]",NA,NA,NA,NA,NA,4,#FA92F8,#1CD855,10,0,0,40,0,104,37,1,461,10,0,experiment,NA,NA,2,0.5,0.5,5,4,32,1,NA
fcp-trial,80,461483,0.0-41.0-0.0,voc_e2,11910,"[{""event"":""focus"",""trial"":0,""time"":0},{""event"":""blur"",""trial"":0,""time"":0},{""event"":""focus"",""trial"":0,""time"":0},{""event"":""blur"",""trial"":0,""time"":0},{""event"":""focus"",""trial"":0,""time"":0},{""event"":""blur"",""trial"":0,""time"":0},{""event"":""focus"",""trial"":0,""time"":0},{""event"":""blur"",""trial"":0,""time"":0},{""event"":""focus"",""trial"":0,""time"":0},{""event"":""fullscreenenter"",""trial"":1,""time"":3877},{""event"":""fullscreenexit"",""trial"":40,""time"":316283},{""event"":""blur"",""trial"":49,""time"":387848},{""event"":""focus"",""trial"":49,""time"":389946}]",NA,NA,NA,NA,NA,4,#3386FF,#D89F1C,10,0,1,40,0,95,37,1,437,10,1,experiment,NA,NA,1,0.7,0.3,2,3,33,1,NA
fcp-trial,81,463538,0.0-42.0-0.0,voc_e2,11910,"[{""event"":""focus"",""trial"":0,""time"":0},{""event"":""blur"",""trial"":0,""time"":0},{""event"":""focus"",""trial"":0,""time"":0},{""event"":""blur"",""trial"":0,""time"":0},{""event"":""focus"",""trial"":0,""time"":0},{""event"":""blur"",""trial"":0,""time"":0},{""event"":""focus"",""trial"":0,""time"":0},{""event"":""blur"",""trial"":0,""time"":0},{""event"":""focus"",""trial"":0,""time"":0},{""event"":""fullscreenenter"",""trial"":1,""time"":3877},{""event"":""fullscreenexit"",""trial"":40,""time"":316283},{""event"":""blur"",""trial"":49,""time"":387848},{""event"":""focus"",""trial"":49,""time"":389946}]",NA,NA,NA,NA,NA,6,#741CD8,#D8271C,10,0,1,40,0,110,37,1,411,10,1,experiment,NA,NA,0,0.9,0.1,0,1,34,1,NA
fcp-trial,82,465506,0.0-43.0-0.0,voc_e2,11910,"[{""event"":""focus"",""trial"":0,""time"":0},{""event"":""blur"",""trial"":0,""time"":0},{""event"":""focus"",""trial"":0,""time"":0},{""event"":""blur"",""trial"":0,""time"":0},{""event"":""focus"",""trial"":0,""time"":0},{""event"":""blur"",""trial"":0,""time"":0},{""event"":""focus"",""trial"":0,""time"":0},{""event"":""blur"",""trial"":0,""time"":0},{""event"":""focus"",""trial"":0,""time"":0},{""event"":""fullscreenenter"",""trial"":1,""time"":3877},{""event"":""fullscreenexit"",""trial"":40,""time"":316283},{""event"":""blur"",""trial"":49,""time"":387848},{""event"":""focus"",""trial"":49,""time"":389946}]",NA,NA,NA,NA,NA,3,#3386FF,#D89F1C,10,10,1,40,0,54,39,0,385,10,0,experiment,NA,NA,1,0.7,0.3,2,3,35,1,NA
fcp-trial,83,467566,0.0-44.0-0.0,voc_e2,11910,"[{""event"":""focus"",""trial"":0,""time"":0},{""event"":""blur"",""trial"":0,""time"":0},{""event"":""focus"",""trial"":0,""time"":0},{""event"":""blur"",""trial"":0,""time"":0},{""event"":""focus"",""trial"":0,""time"":0},{""event"":""blur"",""trial"":0,""time"":0},{""event"":""focus"",""trial"":0,""time"":0},{""event"":""blur"",""trial"":0,""time"":0},{""event"":""focus"",""trial"":0,""time"":0},{""event"":""fullscreenenter"",""trial"":1,""time"":3877},{""event"":""fullscreenexit"",""trial"":40,""time"":316283},{""event"":""blur"",""trial"":49,""time"":387848},{""event"":""focus"",""trial"":49,""time"":389946}]",NA,NA,NA,NA,NA,0,#FA92F8,#1CD855,0,10,0,40,0,119,39,0,393,10,1,experiment,NA,NA,2,0.5,0.5,5,4,36,1,NA
fcp-trial,84,470165,0.0-45.0-0.0,voc_e2,11910,"[{""event"":""focus"",""trial"":0,""time"":0},{""event"":""blur"",""trial"":0,""time"":0},{""event"":""focus"",""trial"":0,""time"":0},{""event"":""blur"",""trial"":0,""time"":0},{""event"":""focus"",""trial"":0,""time"":0},{""event"":""blur"",""trial"":0,""time"":0},{""event"":""focus"",""trial"":0,""time"":0},{""event"":""blur"",""trial"":0,""time"":0},{""event"":""focus"",""trial"":0,""time"":0},{""event"":""fullscreenenter"",""trial"":1,""time"":3877},{""event"":""fullscreenexit"",""trial"":40,""time"":316283},{""event"":""blur"",""trial"":49,""time"":387848},{""event"":""focus"",""trial"":49,""time"":389946}]",NA,NA,NA,NA,NA,5,#D8271C,#741CD8,0,10,0,40,0,212,37,1,858,0,0,experiment,NA,NA,0,0.1,0.9,1,0,37,1,NA
fcp-trial,85,472176,0.0-46.0-0.0,voc_e2,11910,"[{""event"":""focus"",""trial"":0,""time"":0},{""event"":""blur"",""trial"":0,""time"":0},{""event"":""focus"",""trial"":0,""time"":0},{""event"":""blur"",""trial"":0,""time"":0},{""event"":""focus"",""trial"":0,""time"":0},{""event"":""blur"",""trial"":0,""time"":0},{""event"":""focus"",""trial"":0,""time"":0},{""event"":""blur"",""trial"":0,""time"":0},{""event"":""focus"",""trial"":0,""time"":0},{""event"":""fullscreenenter"",""trial"":1,""time"":3877},{""event"":""fullscreenexit"",""trial"":40,""time"":316283},{""event"":""blur"",""trial"":49,""time"":387848},{""event"":""focus"",""trial"":49,""time"":389946}]",NA,NA,NA,NA,NA,4,#D8271C,#741CD8,0,10,0,40,0,51,37,1,446,0,0,experiment,NA,NA,0,0.1,0.9,1,0,38,1,NA
fcp-trial,86,474138,0.0-47.0-0.0,voc_e2,11910,"[{""event"":""focus"",""trial"":0,""time"":0},{""event"":""blur"",""trial"":0,""time"":0},{""event"":""focus"",""trial"":0,""time"":0},{""event"":""blur"",""trial"":0,""time"":0},{""event"":""focus"",""trial"":0,""time"":0},{""event"":""blur"",""trial"":0,""time"":0},{""event"":""focus"",""trial"":0,""time"":0},{""event"":""blur"",""trial"":0,""time"":0},{""event"":""focus"",""trial"":0,""time"":0},{""event"":""fullscreenenter"",""trial"":1,""time"":3877},{""event"":""fullscreenexit"",""trial"":40,""time"":316283},{""event"":""blur"",""trial"":49,""time"":387848},{""event"":""focus"",""trial"":49,""time"":389946}]",NA,NA,NA,NA,NA,5,#FA92F8,#1CD855,0,0,0,40,0,79,39,0,371,0,1,experiment,NA,NA,2,0.5,0.5,5,4,39,1,NA
fcp-trial,87,476201,0.0-48.0-0.0,voc_e2,11910,"[{""event"":""focus"",""trial"":0,""time"":0},{""event"":""blur"",""trial"":0,""time"":0},{""event"":""focus"",""trial"":0,""time"":0},{""event"":""blur"",""trial"":0,""time"":0},{""event"":""focus"",""trial"":0,""time"":0},{""event"":""blur"",""trial"":0,""time"":0},{""event"":""focus"",""trial"":0,""time"":0},{""event"":""blur"",""trial"":0,""time"":0},{""event"":""focus"",""trial"":0,""time"":0},{""event"":""fullscreenenter"",""trial"":1,""time"":3877},{""event"":""fullscreenexit"",""trial"":40,""time"":316283},{""event"":""blur"",""trial"":49,""time"":387848},{""event"":""focus"",""trial"":49,""time"":389946}]",NA,NA,NA,NA,NA,6,#D89F1C,#3386FF,0,10,0,40,0,137,37,1,387,0,0,experiment,NA,NA,1,0.3,0.7,3,2,40,1,NA
fcp-trial,88,478221,0.0-49.0-0.0,voc_e2,11910,"[{""event"":""focus"",""trial"":0,""time"":0},{""event"":""blur"",""trial"":0,""time"":0},{""event"":""focus"",""trial"":0,""time"":0},{""event"":""blur"",""trial"":0,""time"":0},{""event"":""focus"",""trial"":0,""time"":0},{""event"":""blur"",""trial"":0,""time"":0},{""event"":""focus"",""trial"":0,""time"":0},{""event"":""blur"",""trial"":0,""time"":0},{""event"":""focus"",""trial"":0,""time"":0},{""event"":""fullscreenenter"",""trial"":1,""time"":3877},{""event"":""fullscreenexit"",""trial"":40,""time"":316283},{""event"":""blur"",""trial"":49,""time"":387848},{""event"":""focus"",""trial"":49,""time"":389946}]",NA,NA,NA,NA,NA,1,#FA92F8,#1CD855,10,10,0,40,0,101,37,1,384,10,0,experiment,NA,NA,2,0.5,0.5,5,4,41,1,NA
fcp-trial,89,480346,0.0-50.0-0.0,voc_e2,11910,"[{""event"":""focus"",""trial"":0,""time"":0},{""event"":""blur"",""trial"":0,""time"":0},{""event"":""focus"",""trial"":0,""time"":0},{""event"":""blur"",""trial"":0,""time"":0},{""event"":""focus"",""trial"":0,""time"":0},{""event"":""blur"",""trial"":0,""time"":0},{""event"":""focus"",""trial"":0,""time"":0},{""event"":""blur"",""trial"":0,""time"":0},{""event"":""focus"",""trial"":0,""time"":0},{""event"":""fullscreenenter"",""trial"":1,""time"":3877},{""event"":""fullscreenexit"",""trial"":40,""time"":316283},{""event"":""blur"",""trial"":49,""time"":387848},{""event"":""focus"",""trial"":49,""time"":389946}]",NA,NA,NA,NA,NA,2,#FA92F8,#1CD855,10,0,0,40,0,195,37,1,415,10,0,experiment,NA,NA,2,0.5,0.5,5,4,42,1,NA
fcp-trial,90,482357,0.0-51.0-0.0,voc_e2,11910,"[{""event"":""focus"",""trial"":0,""time"":0},{""event"":""blur"",""trial"":0,""time"":0},{""event"":""focus"",""trial"":0,""time"":0},{""event"":""blur"",""trial"":0,""time"":0},{""event"":""focus"",""trial"":0,""time"":0},{""event"":""blur"",""trial"":0,""time"":0},{""event"":""focus"",""trial"":0,""time"":0},{""event"":""blur"",""trial"":0,""time"":0},{""event"":""focus"",""trial"":0,""time"":0},{""event"":""fullscreenenter"",""trial"":1,""time"":3877},{""event"":""fullscreenexit"",""trial"":40,""time"":316283},{""event"":""blur"",""trial"":49,""time"":387848},{""event"":""focus"",""trial"":49,""time"":389946}]",NA,NA,NA,NA,NA,6,#741CD8,#D8271C,10,10,1,40,0,100,37,1,378,10,1,experiment,NA,NA,0,0.9,0.1,0,1,43,1,NA
fcp-trial,91,484330,0.0-52.0-0.0,voc_e2,11910,"[{""event"":""focus"",""trial"":0,""time"":0},{""event"":""blur"",""trial"":0,""time"":0},{""event"":""focus"",""trial"":0,""time"":0},{""event"":""blur"",""trial"":0,""time"":0},{""event"":""focus"",""trial"":0,""time"":0},{""event"":""blur"",""trial"":0,""time"":0},{""event"":""focus"",""trial"":0,""time"":0},{""event"":""blur"",""trial"":0,""time"":0},{""event"":""focus"",""trial"":0,""time"":0},{""event"":""fullscreenenter"",""trial"":1,""time"":3877},{""event"":""fullscreenexit"",""trial"":40,""time"":316283},{""event"":""blur"",""trial"":49,""time"":387848},{""event"":""focus"",""trial"":49,""time"":389946}]",NA,NA,NA,NA,NA,1,#3386FF,#D89F1C,0,10,1,40,0,98,39,0,345,10,0,experiment,NA,NA,1,0.7,0.3,2,3,44,1,NA
fcp-trial,92,486353,0.0-53.0-0.0,voc_e2,11910,"[{""event"":""focus"",""trial"":0,""time"":0},{""event"":""blur"",""trial"":0,""time"":0},{""event"":""focus"",""trial"":0,""time"":0},{""event"":""blur"",""trial"":0,""time"":0},{""event"":""focus"",""trial"":0,""time"":0},{""event"":""blur"",""trial"":0,""time"":0},{""event"":""focus"",""trial"":0,""time"":0},{""event"":""blur"",""trial"":0,""time"":0},{""event"":""focus"",""trial"":0,""time"":0},{""event"":""fullscreenenter"",""trial"":1,""time"":3877},{""event"":""fullscreenexit"",""trial"":40,""time"":316283},{""event"":""blur"",""trial"":49,""time"":387848},{""event"":""focus"",""trial"":49,""time"":389946}]",NA,NA,NA,NA,NA,4,#1CD855,#FA92F8,0,0,1,40,0,134,39,0,370,0,0,experiment,NA,NA,2,0.5,0.5,4,5,45,1,NA
fcp-trial,93,488261,0.0-54.0-0.0,voc_e2,11910,"[{""event"":""focus"",""trial"":0,""time"":0},{""event"":""blur"",""trial"":0,""time"":0},{""event"":""focus"",""trial"":0,""time"":0},{""event"":""blur"",""trial"":0,""time"":0},{""event"":""focus"",""trial"":0,""time"":0},{""event"":""blur"",""trial"":0,""time"":0},{""event"":""focus"",""trial"":0,""time"":0},{""event"":""blur"",""trial"":0,""time"":0},{""event"":""focus"",""trial"":0,""time"":0},{""event"":""fullscreenenter"",""trial"":1,""time"":3877},{""event"":""fullscreenexit"",""trial"":40,""time"":316283},{""event"":""blur"",""trial"":49,""time"":387848},{""event"":""focus"",""trial"":49,""time"":389946}]",NA,NA,NA,NA,NA,0,#741CD8,#D8271C,10,0,1,40,0,40,39,0,335,0,0,experiment,NA,NA,0,0.9,0.1,0,1,46,2,NA
fcp-trial,94,490373,0.0-55.0-0.0,voc_e2,11910,"[{""event"":""focus"",""trial"":0,""time"":0},{""event"":""blur"",""trial"":0,""time"":0},{""event"":""focus"",""trial"":0,""time"":0},{""event"":""blur"",""trial"":0,""time"":0},{""event"":""focus"",""trial"":0,""time"":0},{""event"":""blur"",""trial"":0,""time"":0},{""event"":""focus"",""trial"":0,""time"":0},{""event"":""blur"",""trial"":0,""time"":0},{""event"":""focus"",""trial"":0,""time"":0},{""event"":""fullscreenenter"",""trial"":1,""time"":3877},{""event"":""fullscreenexit"",""trial"":40,""time"":316283},{""event"":""blur"",""trial"":49,""time"":387848},{""event"":""focus"",""trial"":49,""time"":389946}]",NA,NA,NA,NA,NA,0,#FA92F8,#1CD855,10,10,0,40,0,203,37,1,389,10,0,experiment,NA,NA,2,0.5,0.5,5,4,47,2,NA
fcp-trial,95,492525,0.0-56.0-0.0,voc_e2,11910,"[{""event"":""focus"",""trial"":0,""time"":0},{""event"":""blur"",""trial"":0,""time"":0},{""event"":""focus"",""trial"":0,""time"":0},{""event"":""blur"",""trial"":0,""time"":0},{""event"":""focus"",""trial"":0,""time"":0},{""event"":""blur"",""trial"":0,""time"":0},{""event"":""focus"",""trial"":0,""time"":0},{""event"":""blur"",""trial"":0,""time"":0},{""event"":""focus"",""trial"":0,""time"":0},{""event"":""fullscreenenter"",""trial"":1,""time"":3877},{""event"":""fullscreenexit"",""trial"":40,""time"":316283},{""event"":""blur"",""trial"":49,""time"":387848},{""event"":""focus"",""trial"":49,""time"":389946}]",NA,NA,NA,NA,NA,3,#3386FF,#D89F1C,10,10,1,40,0,280,37,1,332,10,1,experiment,NA,NA,1,0.7,0.3,2,3,48,2,NA
fcp-trial,96,494916,0.0-57.0-0.0,voc_e2,11910,"[{""event"":""focus"",""trial"":0,""time"":0},{""event"":""blur"",""trial"":0,""time"":0},{""event"":""focus"",""trial"":0,""time"":0},{""event"":""blur"",""trial"":0,""time"":0},{""event"":""focus"",""trial"":0,""time"":0},{""event"":""blur"",""trial"":0,""time"":0},{""event"":""focus"",""trial"":0,""time"":0},{""event"":""blur"",""trial"":0,""time"":0},{""event"":""focus"",""trial"":0,""time"":0},{""event"":""fullscreenenter"",""trial"":1,""time"":3877},{""event"":""fullscreenexit"",""trial"":40,""time"":316283},{""event"":""blur"",""trial"":49,""time"":387848},{""event"":""focus"",""trial"":49,""time"":389946}]",NA,NA,NA,NA,NA,1,#741CD8,#D8271C,10,0,1,40,0,21,37,1,832,10,1,experiment,NA,NA,0,0.9,0.1,0,1,49,2,NA
fcp-trial,97,496884,0.0-58.0-0.0,voc_e2,11910,"[{""event"":""focus"",""trial"":0,""time"":0},{""event"":""blur"",""trial"":0,""time"":0},{""event"":""focus"",""trial"":0,""time"":0},{""event"":""blur"",""trial"":0,""time"":0},{""event"":""focus"",""trial"":0,""time"":0},{""event"":""blur"",""trial"":0,""time"":0},{""event"":""focus"",""trial"":0,""time"":0},{""event"":""blur"",""trial"":0,""time"":0},{""event"":""focus"",""trial"":0,""time"":0},{""event"":""fullscreenenter"",""trial"":1,""time"":3877},{""event"":""fullscreenexit"",""trial"":40,""time"":316283},{""event"":""blur"",""trial"":49,""time"":387848},{""event"":""focus"",""trial"":49,""time"":389946}]",NA,NA,NA,NA,NA,4,#D8271C,#741CD8,0,10,0,40,0,93,39,0,351,10,1,experiment,NA,NA,0,0.1,0.9,1,0,50,2,NA
fcp-trial,98,498929,0.0-59.0-0.0,voc_e2,11910,"[{""event"":""focus"",""trial"":0,""time"":0},{""event"":""blur"",""trial"":0,""time"":0},{""event"":""focus"",""trial"":0,""time"":0},{""event"":""blur"",""trial"":0,""time"":0},{""event"":""focus"",""trial"":0,""time"":0},{""event"":""blur"",""trial"":0,""time"":0},{""event"":""focus"",""trial"":0,""time"":0},{""event"":""blur"",""trial"":0,""time"":0},{""event"":""focus"",""trial"":0,""time"":0},{""event"":""fullscreenenter"",""trial"":1,""time"":3877},{""event"":""fullscreenexit"",""trial"":40,""time"":316283},{""event"":""blur"",""trial"":49,""time"":387848},{""event"":""focus"",""trial"":49,""time"":389946}]",NA,NA,NA,NA,NA,4,#D89F1C,#3386FF,0,10,0,40,0,145,37,1,377,0,0,experiment,NA,NA,1,0.3,0.7,3,2,51,2,NA
fcp-trial,99,500909,0.0-60.0-0.0,voc_e2,11910,"[{""event"":""focus"",""trial"":0,""time"":0},{""event"":""blur"",""trial"":0,""time"":0},{""event"":""focus"",""trial"":0,""time"":0},{""event"":""blur"",""trial"":0,""time"":0},{""event"":""focus"",""trial"":0,""time"":0},{""event"":""blur"",""trial"":0,""time"":0},{""event"":""focus"",""trial"":0,""time"":0},{""event"":""blur"",""trial"":0,""time"":0},{""event"":""focus"",""trial"":0,""time"":0},{""event"":""fullscreenenter"",""trial"":1,""time"":3877},{""event"":""fullscreenexit"",""trial"":40,""time"":316283},{""event"":""blur"",""trial"":49,""time"":387848},{""event"":""focus"",""trial"":49,""time"":389946}]",NA,NA,NA,NA,NA,3,#FA92F8,#1CD855,0,0,0,40,0,55,37,1,412,0,0,experiment,NA,NA,2,0.5,0.5,5,4,52,2,NA
fcp-trial,100,502909,0.0-61.0-0.0,voc_e2,11910,"[{""event"":""focus"",""trial"":0,""time"":0},{""event"":""blur"",""trial"":0,""time"":0},{""event"":""focus"",""trial"":0,""time"":0},{""event"":""blur"",""trial"":0,""time"":0},{""event"":""focus"",""trial"":0,""time"":0},{""event"":""blur"",""trial"":0,""time"":0},{""event"":""focus"",""trial"":0,""time"":0},{""event"":""blur"",""trial"":0,""time"":0},{""event"":""focus"",""trial"":0,""time"":0},{""event"":""fullscreenenter"",""trial"":1,""time"":3877},{""event"":""fullscreenexit"",""trial"":40,""time"":316283},{""event"":""blur"",""trial"":49,""time"":387848},{""event"":""focus"",""trial"":49,""time"":389946}]",NA,NA,NA,NA,NA,3,#741CD8,#D8271C,10,0,1,40,0,59,37,1,419,10,1,experiment,NA,NA,0,0.9,0.1,0,1,53,2,NA
fcp-trial,101,504828,0.0-62.0-0.0,voc_e2,11910,"[{""event"":""focus"",""trial"":0,""time"":0},{""event"":""blur"",""trial"":0,""time"":0},{""event"":""focus"",""trial"":0,""time"":0},{""event"":""blur"",""trial"":0,""time"":0},{""event"":""focus"",""trial"":0,""time"":0},{""event"":""blur"",""trial"":0,""time"":0},{""event"":""focus"",""trial"":0,""time"":0},{""event"":""blur"",""trial"":0,""time"":0},{""event"":""focus"",""trial"":0,""time"":0},{""event"":""fullscreenenter"",""trial"":1,""time"":3877},{""event"":""fullscreenexit"",""trial"":40,""time"":316283},{""event"":""blur"",""trial"":49,""time"":387848},{""event"":""focus"",""trial"":49,""time"":389946}]",NA,NA,NA,NA,NA,2,#FA92F8,#1CD855,10,10,0,40,0,20,39,0,373,10,1,experiment,NA,NA,2,0.5,0.5,5,4,54,2,NA
fcp-trial,102,506847,0.0-63.0-0.0,voc_e2,11910,"[{""event"":""focus"",""trial"":0,""time"":0},{""event"":""blur"",""trial"":0,""time"":0},{""event"":""focus"",""trial"":0,""time"":0},{""event"":""blur"",""trial"":0,""time"":0},{""event"":""focus"",""trial"":0,""time"":0},{""event"":""blur"",""trial"":0,""time"":0},{""event"":""focus"",""trial"":0,""time"":0},{""event"":""blur"",""trial"":0,""time"":0},{""event"":""focus"",""trial"":0,""time"":0},{""event"":""fullscreenenter"",""trial"":1,""time"":3877},{""event"":""fullscreenexit"",""trial"":40,""time"":316283},{""event"":""blur"",""trial"":49,""time"":387848},{""event"":""focus"",""trial"":49,""time"":389946}]",NA,NA,NA,NA,NA,6,#FA92F8,#1CD855,0,0,0,40,0,107,39,0,387,0,1,experiment,NA,NA,2,0.5,0.5,5,4,55,2,NA
fcp-trial,103,508924,0.0-64.0-0.0,voc_e2,11910,"[{""event"":""focus"",""trial"":0,""time"":0},{""event"":""blur"",""trial"":0,""time"":0},{""event"":""focus"",""trial"":0,""time"":0},{""event"":""blur"",""trial"":0,""time"":0},{""event"":""focus"",""trial"":0,""time"":0},{""event"":""blur"",""trial"":0,""time"":0},{""event"":""focus"",""trial"":0,""time"":0},{""event"":""blur"",""trial"":0,""time"":0},{""event"":""focus"",""trial"":0,""time"":0},{""event"":""fullscreenenter"",""trial"":1,""time"":3877},{""event"":""fullscreenexit"",""trial"":40,""time"":316283},{""event"":""blur"",""trial"":49,""time"":387848},{""event"":""focus"",""trial"":49,""time"":389946}]",NA,NA,NA,NA,NA,6,#D89F1C,#3386FF,10,0,0,40,0,114,39,0,447,0,1,experiment,NA,NA,1,0.3,0.7,3,2,56,2,NA
fcp-trial,104,511000,0.0-65.0-0.0,voc_e2,11910,"[{""event"":""focus"",""trial"":0,""time"":0},{""event"":""blur"",""trial"":0,""time"":0},{""event"":""focus"",""trial"":0,""time"":0},{""event"":""blur"",""trial"":0,""time"":0},{""event"":""focus"",""trial"":0,""time"":0},{""event"":""blur"",""trial"":0,""time"":0},{""event"":""focus"",""trial"":0,""time"":0},{""event"":""blur"",""trial"":0,""time"":0},{""event"":""focus"",""trial"":0,""time"":0},{""event"":""fullscreenenter"",""trial"":1,""time"":3877},{""event"":""fullscreenexit"",""trial"":40,""time"":316283},{""event"":""blur"",""trial"":49,""time"":387848},{""event"":""focus"",""trial"":49,""time"":389946}]",NA,NA,NA,NA,NA,0,#3386FF,#D89F1C,0,10,1,40,0,150,37,1,269,0,1,experiment,NA,NA,1,0.7,0.3,2,3,57,2,NA
fcp-trial,105,513033,0.0-66.0-0.0,voc_e2,11910,"[{""event"":""focus"",""trial"":0,""time"":0},{""event"":""blur"",""trial"":0,""time"":0},{""event"":""focus"",""trial"":0,""time"":0},{""event"":""blur"",""trial"":0,""time"":0},{""event"":""focus"",""trial"":0,""time"":0},{""event"":""blur"",""trial"":0,""time"":0},{""event"":""focus"",""trial"":0,""time"":0},{""event"":""blur"",""trial"":0,""time"":0},{""event"":""focus"",""trial"":0,""time"":0},{""event"":""fullscreenenter"",""trial"":1,""time"":3877},{""event"":""fullscreenexit"",""trial"":40,""time"":316283},{""event"":""blur"",""trial"":49,""time"":387848},{""event"":""focus"",""trial"":49,""time"":389946}]",NA,NA,NA,NA,NA,2,#D8271C,#741CD8,0,10,0,40,0,116,39,0,386,10,1,experiment,NA,NA,0,0.1,0.9,1,0,58,2,NA
fcp-trial,106,515148,0.0-67.0-0.0,voc_e2,11910,"[{""event"":""focus"",""trial"":0,""time"":0},{""event"":""blur"",""trial"":0,""time"":0},{""event"":""focus"",""trial"":0,""time"":0},{""event"":""blur"",""trial"":0,""time"":0},{""event"":""focus"",""trial"":0,""time"":0},{""event"":""blur"",""trial"":0,""time"":0},{""event"":""focus"",""trial"":0,""time"":0},{""event"":""blur"",""trial"":0,""time"":0},{""event"":""focus"",""trial"":0,""time"":0},{""event"":""fullscreenenter"",""trial"":1,""time"":3877},{""event"":""fullscreenexit"",""trial"":40,""time"":316283},{""event"":""blur"",""trial"":49,""time"":387848},{""event"":""focus"",""trial"":49,""time"":389946}]",NA,NA,NA,NA,NA,5,#FA92F8,#1CD855,0,10,0,40,0,192,37,1,412,0,0,experiment,NA,NA,2,0.5,0.5,5,4,59,2,NA
fcp-trial,107,517056,0.0-68.0-0.0,voc_e2,11910,"[{""event"":""focus"",""trial"":0,""time"":0},{""event"":""blur"",""trial"":0,""time"":0},{""event"":""focus"",""trial"":0,""time"":0},{""event"":""blur"",""trial"":0,""time"":0},{""event"":""focus"",""trial"":0,""time"":0},{""event"":""blur"",""trial"":0,""time"":0},{""event"":""focus"",""trial"":0,""time"":0},{""event"":""blur"",""trial"":0,""time"":0},{""event"":""focus"",""trial"":0,""time"":0},{""event"":""fullscreenenter"",""trial"":1,""time"":3877},{""event"":""fullscreenexit"",""trial"":40,""time"":316283},{""event"":""blur"",""trial"":49,""time"":387848},{""event"":""focus"",""trial"":49,""time"":389946}]",NA,NA,NA,NA,NA,5,#741CD8,#D8271C,10,0,1,40,0,0,39,0,383,0,0,experiment,NA,NA,0,0.9,0.1,0,1,60,2,NA
fcp-trial,108,519076,0.0-69.0-0.0,voc_e2,11910,"[{""event"":""focus"",""trial"":0,""time"":0},{""event"":""blur"",""trial"":0,""time"":0},{""event"":""focus"",""trial"":0,""time"":0},{""event"":""blur"",""trial"":0,""time"":0},{""event"":""focus"",""trial"":0,""time"":0},{""event"":""blur"",""trial"":0,""time"":0},{""event"":""focus"",""trial"":0,""time"":0},{""event"":""blur"",""trial"":0,""time"":0},{""event"":""focus"",""trial"":0,""time"":0},{""event"":""fullscreenenter"",""trial"":1,""time"":3877},{""event"":""fullscreenexit"",""trial"":40,""time"":316283},{""event"":""blur"",""trial"":49,""time"":387848},{""event"":""focus"",""trial"":49,""time"":389946}]",NA,NA,NA,NA,NA,5,#D89F1C,#3386FF,10,10,0,40,0,80,37,1,402,10,0,experiment,NA,NA,1,0.3,0.7,3,2,61,2,NA
fcp-trial,109,521305,0.0-70.0-0.0,voc_e2,11910,"[{""event"":""focus"",""trial"":0,""time"":0},{""event"":""blur"",""trial"":0,""time"":0},{""event"":""focus"",""trial"":0,""time"":0},{""event"":""blur"",""trial"":0,""time"":0},{""event"":""focus"",""trial"":0,""time"":0},{""event"":""blur"",""trial"":0,""time"":0},{""event"":""focus"",""trial"":0,""time"":0},{""event"":""blur"",""trial"":0,""time"":0},{""event"":""focus"",""trial"":0,""time"":0},{""event"":""fullscreenenter"",""trial"":1,""time"":3877},{""event"":""fullscreenexit"",""trial"":40,""time"":316283},{""event"":""blur"",""trial"":49,""time"":387848},{""event"":""focus"",""trial"":49,""time"":389946}]",NA,NA,NA,NA,NA,1,#FA92F8,#1CD855,10,0,0,40,0,116,37,1,590,10,0,experiment,NA,NA,2,0.5,0.5,5,4,62,2,NA
fcp-trial,110,523344,0.0-71.0-0.0,voc_e2,11910,"[{""event"":""focus"",""trial"":0,""time"":0},{""event"":""blur"",""trial"":0,""time"":0},{""event"":""focus"",""trial"":0,""time"":0},{""event"":""blur"",""trial"":0,""time"":0},{""event"":""focus"",""trial"":0,""time"":0},{""event"":""blur"",""trial"":0,""time"":0},{""event"":""focus"",""trial"":0,""time"":0},{""event"":""blur"",""trial"":0,""time"":0},{""event"":""focus"",""trial"":0,""time"":0},{""event"":""fullscreenenter"",""trial"":1,""time"":3877},{""event"":""fullscreenexit"",""trial"":40,""time"":316283},{""event"":""blur"",""trial"":49,""time"":387848},{""event"":""focus"",""trial"":49,""time"":389946}]",NA,NA,NA,NA,NA,2,#D89F1C,#3386FF,0,0,0,40,0,64,39,0,450,0,1,experiment,NA,NA,1,0.3,0.7,3,2,63,2,NA
fcp-trial,111,525412,0.0-72.0-0.0,voc_e2,11910,"[{""event"":""focus"",""trial"":0,""time"":0},{""event"":""blur"",""trial"":0,""time"":0},{""event"":""focus"",""trial"":0,""time"":0},{""event"":""blur"",""trial"":0,""time"":0},{""event"":""focus"",""trial"":0,""time"":0},{""event"":""blur"",""trial"":0,""time"":0},{""event"":""focus"",""trial"":0,""time"":0},{""event"":""blur"",""trial"":0,""time"":0},{""event"":""focus"",""trial"":0,""time"":0},{""event"":""fullscreenenter"",""trial"":1,""time"":3877},{""event"":""fullscreenexit"",""trial"":40,""time"":316283},{""event"":""blur"",""trial"":49,""time"":387848},{""event"":""focus"",""trial"":49,""time"":389946}]",NA,NA,NA,NA,NA,1,#D8271C,#741CD8,0,10,0,40,0,133,39,0,401,10,1,experiment,NA,NA,0,0.1,0.9,1,0,64,2,NA
fcp-trial,112,527282,0.0-73.0-0.0,voc_e2,11910,"[{""event"":""focus"",""trial"":0,""time"":0},{""event"":""blur"",""trial"":0,""time"":0},{""event"":""focus"",""trial"":0,""time"":0},{""event"":""blur"",""trial"":0,""time"":0},{""event"":""focus"",""trial"":0,""time"":0},{""event"":""blur"",""trial"":0,""time"":0},{""event"":""focus"",""trial"":0,""time"":0},{""event"":""blur"",""trial"":0,""time"":0},{""event"":""focus"",""trial"":0,""time"":0},{""event"":""fullscreenenter"",""trial"":1,""time"":3877},{""event"":""fullscreenexit"",""trial"":40,""time"":316283},{""event"":""blur"",""trial"":49,""time"":387848},{""event"":""focus"",""trial"":49,""time"":389946}]",NA,NA,NA,NA,NA,4,#741CD8,#D8271C,10,0,1,40,0,0,39,0,337,0,0,experiment,NA,NA,0,0.9,0.1,0,1,65,2,NA
fcp-trial,113,529382,0.0-74.0-0.0,voc_e2,11910,"[{""event"":""focus"",""trial"":0,""time"":0},{""event"":""blur"",""trial"":0,""time"":0},{""event"":""focus"",""trial"":0,""time"":0},{""event"":""blur"",""trial"":0,""time"":0},{""event"":""focus"",""trial"":0,""time"":0},{""event"":""blur"",""trial"":0,""time"":0},{""event"":""focus"",""trial"":0,""time"":0},{""event"":""blur"",""trial"":0,""time"":0},{""event"":""focus"",""trial"":0,""time"":0},{""event"":""fullscreenenter"",""trial"":1,""time"":3877},{""event"":""fullscreenexit"",""trial"":40,""time"":316283},{""event"":""blur"",""trial"":49,""time"":387848},{""event"":""focus"",""trial"":49,""time"":389946}]",NA,NA,NA,NA,NA,0,#D89F1C,#3386FF,0,10,0,40,0,165,37,1,400,0,0,experiment,NA,NA,1,0.3,0.7,3,2,66,2,NA
fcp-trial,114,531408,0.0-75.0-0.0,voc_e2,11910,"[{""event"":""focus"",""trial"":0,""time"":0},{""event"":""blur"",""trial"":0,""time"":0},{""event"":""focus"",""trial"":0,""time"":0},{""event"":""blur"",""trial"":0,""time"":0},{""event"":""focus"",""trial"":0,""time"":0},{""event"":""blur"",""trial"":0,""time"":0},{""event"":""focus"",""trial"":0,""time"":0},{""event"":""blur"",""trial"":0,""time"":0},{""event"":""focus"",""trial"":0,""time"":0},{""event"":""fullscreenenter"",""trial"":1,""time"":3877},{""event"":""fullscreenexit"",""trial"":40,""time"":316283},{""event"":""blur"",""trial"":49,""time"":387848},{""event"":""focus"",""trial"":49,""time"":389946}]",NA,NA,NA,NA,NA,4,#FA92F8,#1CD855,0,10,0,40,0,117,39,0,386,10,1,experiment,NA,NA,2,0.5,0.5,5,4,67,2,NA
fcp-trial,115,533689,0.0-76.0-0.0,voc_e2,11910,"[{""event"":""focus"",""trial"":0,""time"":0},{""event"":""blur"",""trial"":0,""time"":0},{""event"":""focus"",""trial"":0,""time"":0},{""event"":""blur"",""trial"":0,""time"":0},{""event"":""focus"",""trial"":0,""time"":0},{""event"":""blur"",""trial"":0,""time"":0},{""event"":""focus"",""trial"":0,""time"":0},{""event"":""blur"",""trial"":0,""time"":0},{""event"":""focus"",""trial"":0,""time"":0},{""event"":""fullscreenenter"",""trial"":1,""time"":3877},{""event"":""fullscreenexit"",""trial"":40,""time"":316283},{""event"":""blur"",""trial"":49,""time"":387848},{""event"":""focus"",""trial"":49,""time"":389946}]",NA,NA,NA,NA,NA,6,#1CD855,#FA92F8,10,0,1,40,0,151,37,1,603,10,1,experiment,NA,NA,2,0.5,0.5,4,5,68,2,NA
fcp-trial,116,535738,0.0-77.0-0.0,voc_e2,11910,"[{""event"":""focus"",""trial"":0,""time"":0},{""event"":""blur"",""trial"":0,""time"":0},{""event"":""focus"",""trial"":0,""time"":0},{""event"":""blur"",""trial"":0,""time"":0},{""event"":""focus"",""trial"":0,""time"":0},{""event"":""blur"",""trial"":0,""time"":0},{""event"":""focus"",""trial"":0,""time"":0},{""event"":""blur"",""trial"":0,""time"":0},{""event"":""focus"",""trial"":0,""time"":0},{""event"":""fullscreenenter"",""trial"":1,""time"":3877},{""event"":""fullscreenexit"",""trial"":40,""time"":316283},{""event"":""blur"",""trial"":49,""time"":387848},{""event"":""focus"",""trial"":49,""time"":389946}]",NA,NA,NA,NA,NA,4,#D89F1C,#3386FF,10,10,0,40,0,112,37,1,418,10,0,experiment,NA,NA,1,0.3,0.7,3,2,69,2,NA
fcp-trial,117,537825,0.0-78.0-0.0,voc_e2,11910,"[{""event"":""focus"",""trial"":0,""time"":0},{""event"":""blur"",""trial"":0,""time"":0},{""event"":""focus"",""trial"":0,""time"":0},{""event"":""blur"",""trial"":0,""time"":0},{""event"":""focus"",""trial"":0,""time"":0},{""event"":""blur"",""trial"":0,""time"":0},{""event"":""focus"",""trial"":0,""time"":0},{""event"":""blur"",""trial"":0,""time"":0},{""event"":""focus"",""trial"":0,""time"":0},{""event"":""fullscreenenter"",""trial"":1,""time"":3877},{""event"":""fullscreenexit"",""trial"":40,""time"":316283},{""event"":""blur"",""trial"":49,""time"":387848},{""event"":""focus"",""trial"":49,""time"":389946}]",NA,NA,NA,NA,NA,2,#741CD8,#D8271C,10,0,1,40,0,178,39,0,378,0,0,experiment,NA,NA,0,0.9,0.1,0,1,70,2,NA
fcp-trial,118,539842,0.0-79.0-0.0,voc_e2,11910,"[{""event"":""focus"",""trial"":0,""time"":0},{""event"":""blur"",""trial"":0,""time"":0},{""event"":""focus"",""trial"":0,""time"":0},{""event"":""blur"",""trial"":0,""time"":0},{""event"":""focus"",""trial"":0,""time"":0},{""event"":""blur"",""trial"":0,""time"":0},{""event"":""focus"",""trial"":0,""time"":0},{""event"":""blur"",""trial"":0,""time"":0},{""event"":""focus"",""trial"":0,""time"":0},{""event"":""fullscreenenter"",""trial"":1,""time"":3877},{""event"":""fullscreenexit"",""trial"":40,""time"":316283},{""event"":""blur"",""trial"":49,""time"":387848},{""event"":""focus"",""trial"":49,""time"":389946}]",NA,NA,NA,NA,NA,1,#3386FF,#D89F1C,0,0,1,40,0,52,39,0,377,0,0,experiment,NA,NA,1,0.7,0.3,2,3,71,2,NA
fcp-trial,119,541930,0.0-80.0-0.0,voc_e2,11910,"[{""event"":""focus"",""trial"":0,""time"":0},{""event"":""blur"",""trial"":0,""time"":0},{""event"":""focus"",""trial"":0,""time"":0},{""event"":""blur"",""trial"":0,""time"":0},{""event"":""focus"",""trial"":0,""time"":0},{""event"":""blur"",""trial"":0,""time"":0},{""event"":""focus"",""trial"":0,""time"":0},{""event"":""blur"",""trial"":0,""time"":0},{""event"":""focus"",""trial"":0,""time"":0},{""event"":""fullscreenenter"",""trial"":1,""time"":3877},{""event"":""fullscreenexit"",""trial"":40,""time"":316283},{""event"":""blur"",""trial"":49,""time"":387848},{""event"":""focus"",""trial"":49,""time"":389946}]",NA,NA,NA,NA,NA,1,#1CD855,#FA92F8,0,0,1,40,0,171,39,0,385,0,0,experiment,NA,NA,2,0.5,0.5,4,5,72,2,NA
fcp-trial,120,543936,0.0-81.0-0.0,voc_e2,11910,"[{""event"":""focus"",""trial"":0,""time"":0},{""event"":""blur"",""trial"":0,""time"":0},{""event"":""focus"",""trial"":0,""time"":0},{""event"":""blur"",""trial"":0,""time"":0},{""event"":""focus"",""trial"":0,""time"":0},{""event"":""blur"",""trial"":0,""time"":0},{""event"":""focus"",""trial"":0,""time"":0},{""event"":""blur"",""trial"":0,""time"":0},{""event"":""focus"",""trial"":0,""time"":0},{""event"":""fullscreenenter"",""trial"":1,""time"":3877},{""event"":""fullscreenexit"",""trial"":40,""time"":316283},{""event"":""blur"",""trial"":49,""time"":387848},{""event"":""focus"",""trial"":49,""time"":389946}]",NA,NA,NA,NA,NA,3,#3386FF,#D89F1C,10,0,1,40,0,38,37,1,441,10,1,experiment,NA,NA,1,0.7,0.3,2,3,73,2,NA
fcp-trial,121,545986,0.0-82.0-0.0,voc_e2,11910,"[{""event"":""focus"",""trial"":0,""time"":0},{""event"":""blur"",""trial"":0,""time"":0},{""event"":""focus"",""trial"":0,""time"":0},{""event"":""blur"",""trial"":0,""time"":0},{""event"":""focus"",""trial"":0,""time"":0},{""event"":""blur"",""trial"":0,""time"":0},{""event"":""focus"",""trial"":0,""time"":0},{""event"":""blur"",""trial"":0,""time"":0},{""event"":""focus"",""trial"":0,""time"":0},{""event"":""fullscreenenter"",""trial"":1,""time"":3877},{""event"":""fullscreenexit"",""trial"":40,""time"":316283},{""event"":""blur"",""trial"":49,""time"":387848},{""event"":""focus"",""trial"":49,""time"":389946}]",NA,NA,NA,NA,NA,6,#D89F1C,#3386FF,0,10,0,40,0,112,37,1,424,0,0,experiment,NA,NA,1,0.3,0.7,3,2,74,2,NA
fcp-trial,122,548057,0.0-83.0-0.0,voc_e2,11910,"[{""event"":""focus"",""trial"":0,""time"":0},{""event"":""blur"",""trial"":0,""time"":0},{""event"":""focus"",""trial"":0,""time"":0},{""event"":""blur"",""trial"":0,""time"":0},{""event"":""focus"",""trial"":0,""time"":0},{""event"":""blur"",""trial"":0,""time"":0},{""event"":""focus"",""trial"":0,""time"":0},{""event"":""blur"",""trial"":0,""time"":0},{""event"":""focus"",""trial"":0,""time"":0},{""event"":""fullscreenenter"",""trial"":1,""time"":3877},{""event"":""fullscreenexit"",""trial"":40,""time"":316283},{""event"":""blur"",""trial"":49,""time"":387848},{""event"":""focus"",""trial"":49,""time"":389946}]",NA,NA,NA,NA,NA,0,#D8271C,#741CD8,0,10,0,40,0,112,37,1,441,0,0,experiment,NA,NA,0,0.1,0.9,1,0,75,2,NA
fcp-trial,123,550164,0.0-84.0-0.0,voc_e2,11910,"[{""event"":""focus"",""trial"":0,""time"":0},{""event"":""blur"",""trial"":0,""time"":0},{""event"":""focus"",""trial"":0,""time"":0},{""event"":""blur"",""trial"":0,""time"":0},{""event"":""focus"",""trial"":0,""time"":0},{""event"":""blur"",""trial"":0,""time"":0},{""event"":""focus"",""trial"":0,""time"":0},{""event"":""blur"",""trial"":0,""time"":0},{""event"":""focus"",""trial"":0,""time"":0},{""event"":""fullscreenenter"",""trial"":1,""time"":3877},{""event"":""fullscreenexit"",""trial"":40,""time"":316283},{""event"":""blur"",""trial"":49,""time"":387848},{""event"":""focus"",""trial"":49,""time"":389946}]",NA,NA,NA,NA,NA,5,#741CD8,#D8271C,10,0,1,40,0,143,37,1,443,10,1,experiment,NA,NA,0,0.9,0.1,0,1,76,2,NA
fcp-trial,124,552341,0.0-85.0-0.0,voc_e2,11910,"[{""event"":""focus"",""trial"":0,""time"":0},{""event"":""blur"",""trial"":0,""time"":0},{""event"":""focus"",""trial"":0,""time"":0},{""event"":""blur"",""trial"":0,""time"":0},{""event"":""focus"",""trial"":0,""time"":0},{""event"":""blur"",""trial"":0,""time"":0},{""event"":""focus"",""trial"":0,""time"":0},{""event"":""blur"",""trial"":0,""time"":0},{""event"":""focus"",""trial"":0,""time"":0},{""event"":""fullscreenenter"",""trial"":1,""time"":3877},{""event"":""fullscreenexit"",""trial"":40,""time"":316283},{""event"":""blur"",""trial"":49,""time"":387848},{""event"":""focus"",""trial"":49,""time"":389946}]",NA,NA,NA,NA,NA,3,#FA92F8,#1CD855,0,0,0,40,0,213,37,1,434,0,0,experiment,NA,NA,2,0.5,0.5,5,4,77,2,NA
fcp-trial,125,554420,0.0-86.0-0.0,voc_e2,11910,"[{""event"":""focus"",""trial"":0,""time"":0},{""event"":""blur"",""trial"":0,""time"":0},{""event"":""focus"",""trial"":0,""time"":0},{""event"":""blur"",""trial"":0,""time"":0},{""event"":""focus"",""trial"":0,""time"":0},{""event"":""blur"",""trial"":0,""time"":0},{""event"":""focus"",""trial"":0,""time"":0},{""event"":""blur"",""trial"":0,""time"":0},{""event"":""focus"",""trial"":0,""time"":0},{""event"":""fullscreenenter"",""trial"":1,""time"":3877},{""event"":""fullscreenexit"",""trial"":40,""time"":316283},{""event"":""blur"",""trial"":49,""time"":387848},{""event"":""focus"",""trial"":49,""time"":389946}]",NA,NA,NA,NA,NA,5,#D89F1C,#3386FF,0,0,0,40,0,117,37,1,439,0,0,experiment,NA,NA,1,0.3,0.7,3,2,78,2,NA
fcp-trial,126,556516,0.0-87.0-0.0,voc_e2,11910,"[{""event"":""focus"",""trial"":0,""time"":0},{""event"":""blur"",""trial"":0,""time"":0},{""event"":""focus"",""trial"":0,""time"":0},{""event"":""blur"",""trial"":0,""time"":0},{""event"":""focus"",""trial"":0,""time"":0},{""event"":""blur"",""trial"":0,""time"":0},{""event"":""focus"",""trial"":0,""time"":0},{""event"":""blur"",""trial"":0,""time"":0},{""event"":""focus"",""trial"":0,""time"":0},{""event"":""fullscreenenter"",""trial"":1,""time"":3877},{""event"":""fullscreenexit"",""trial"":40,""time"":316283},{""event"":""blur"",""trial"":49,""time"":387848},{""event"":""focus"",""trial"":49,""time"":389946}]",NA,NA,NA,NA,NA,6,#D8271C,#741CD8,0,10,0,40,0,190,39,0,392,10,1,experiment,NA,NA,0,0.1,0.9,1,0,79,2,NA
fcp-trial,127,558749,0.0-88.0-0.0,voc_e2,11910,"[{""event"":""focus"",""trial"":0,""time"":0},{""event"":""blur"",""trial"":0,""time"":0},{""event"":""focus"",""trial"":0,""time"":0},{""event"":""blur"",""trial"":0,""time"":0},{""event"":""focus"",""trial"":0,""time"":0},{""event"":""blur"",""trial"":0,""time"":0},{""event"":""focus"",""trial"":0,""time"":0},{""event"":""blur"",""trial"":0,""time"":0},{""event"":""focus"",""trial"":0,""time"":0},{""event"":""fullscreenenter"",""trial"":1,""time"":3877},{""event"":""fullscreenexit"",""trial"":40,""time"":316283},{""event"":""blur"",""trial"":49,""time"":387848},{""event"":""focus"",""trial"":49,""time"":389946}]",NA,NA,NA,NA,NA,3,#741CD8,#D8271C,0,0,1,40,0,141,37,1,448,0,1,experiment,NA,NA,0,0.9,0.1,0,1,80,2,NA
fcp-trial,128,560889,0.0-89.0-0.0,voc_e2,11910,"[{""event"":""focus"",""trial"":0,""time"":0},{""event"":""blur"",""trial"":0,""time"":0},{""event"":""focus"",""trial"":0,""time"":0},{""event"":""blur"",""trial"":0,""time"":0},{""event"":""focus"",""trial"":0,""time"":0},{""event"":""blur"",""trial"":0,""time"":0},{""event"":""focus"",""trial"":0,""time"":0},{""event"":""blur"",""trial"":0,""time"":0},{""event"":""focus"",""trial"":0,""time"":0},{""event"":""fullscreenenter"",""trial"":1,""time"":3877},{""event"":""fullscreenexit"",""trial"":40,""time"":316283},{""event"":""blur"",""trial"":49,""time"":387848},{""event"":""focus"",""trial"":49,""time"":389946}]",NA,NA,NA,NA,NA,5,#FA92F8,#1CD855,10,10,0,40,0,217,37,1,375,10,0,experiment,NA,NA,2,0.5,0.5,5,4,81,2,NA
fcp-trial,129,562892,0.0-90.0-0.0,voc_e2,11910,"[{""event"":""focus"",""trial"":0,""time"":0},{""event"":""blur"",""trial"":0,""time"":0},{""event"":""focus"",""trial"":0,""time"":0},{""event"":""blur"",""trial"":0,""time"":0},{""event"":""focus"",""trial"":0,""time"":0},{""event"":""blur"",""trial"":0,""time"":0},{""event"":""focus"",""trial"":0,""time"":0},{""event"":""blur"",""trial"":0,""time"":0},{""event"":""focus"",""trial"":0,""time"":0},{""event"":""fullscreenenter"",""trial"":1,""time"":3877},{""event"":""fullscreenexit"",""trial"":40,""time"":316283},{""event"":""blur"",""trial"":49,""time"":387848},{""event"":""focus"",""trial"":49,""time"":389946}]",NA,NA,NA,NA,NA,0,#1CD855,#FA92F8,0,0,1,40,0,151,39,0,325,0,0,experiment,NA,NA,2,0.5,0.5,4,5,82,2,NA
fcp-trial,130,564903,0.0-91.0-0.0,voc_e2,11910,"[{""event"":""focus"",""trial"":0,""time"":0},{""event"":""blur"",""trial"":0,""time"":0},{""event"":""focus"",""trial"":0,""time"":0},{""event"":""blur"",""trial"":0,""time"":0},{""event"":""focus"",""trial"":0,""time"":0},{""event"":""blur"",""trial"":0,""time"":0},{""event"":""focus"",""trial"":0,""time"":0},{""event"":""blur"",""trial"":0,""time"":0},{""event"":""focus"",""trial"":0,""time"":0},{""event"":""fullscreenenter"",""trial"":1,""time"":3877},{""event"":""fullscreenexit"",""trial"":40,""time"":316283},{""event"":""blur"",""trial"":49,""time"":387848},{""event"":""focus"",""trial"":49,""time"":389946}]",NA,NA,NA,NA,NA,2,#3386FF,#D89F1C,10,0,1,40,0,8,39,0,351,0,0,experiment,NA,NA,1,0.7,0.3,2,3,83,2,NA
fcp-trial,131,566923,0.0-92.0-0.0,voc_e2,11910,"[{""event"":""focus"",""trial"":0,""time"":0},{""event"":""blur"",""trial"":0,""time"":0},{""event"":""focus"",""trial"":0,""time"":0},{""event"":""blur"",""trial"":0,""time"":0},{""event"":""focus"",""trial"":0,""time"":0},{""event"":""blur"",""trial"":0,""time"":0},{""event"":""focus"",""trial"":0,""time"":0},{""event"":""blur"",""trial"":0,""time"":0},{""event"":""focus"",""trial"":0,""time"":0},{""event"":""fullscreenenter"",""trial"":1,""time"":3877},{""event"":""fullscreenexit"",""trial"":40,""time"":316283},{""event"":""blur"",""trial"":49,""time"":387848},{""event"":""focus"",""trial"":49,""time"":389946}]",NA,NA,NA,NA,NA,2,#FA92F8,#1CD855,10,0,0,40,0,51,39,0,337,0,1,experiment,NA,NA,2,0.5,0.5,5,4,84,2,NA
fcp-trial,132,568932,0.0-93.0-0.0,voc_e2,11910,"[{""event"":""focus"",""trial"":0,""time"":0},{""event"":""blur"",""trial"":0,""time"":0},{""event"":""focus"",""trial"":0,""time"":0},{""event"":""blur"",""trial"":0,""time"":0},{""event"":""focus"",""trial"":0,""time"":0},{""event"":""blur"",""trial"":0,""time"":0},{""event"":""focus"",""trial"":0,""time"":0},{""event"":""blur"",""trial"":0,""time"":0},{""event"":""focus"",""trial"":0,""time"":0},{""event"":""fullscreenenter"",""trial"":1,""time"":3877},{""event"":""fullscreenexit"",""trial"":40,""time"":316283},{""event"":""blur"",""trial"":49,""time"":387848},{""event"":""focus"",""trial"":49,""time"":389946}]",NA,NA,NA,NA,NA,0,#741CD8,#D8271C,10,0,1,40,0,31,39,0,355,0,0,experiment,NA,NA,0,0.9,0.1,0,1,85,2,NA
fcp-trial,133,570976,0.0-94.0-0.0,voc_e2,11910,"[{""event"":""focus"",""trial"":0,""time"":0},{""event"":""blur"",""trial"":0,""time"":0},{""event"":""focus"",""trial"":0,""time"":0},{""event"":""blur"",""trial"":0,""time"":0},{""event"":""focus"",""trial"":0,""time"":0},{""event"":""blur"",""trial"":0,""time"":0},{""event"":""focus"",""trial"":0,""time"":0},{""event"":""blur"",""trial"":0,""time"":0},{""event"":""focus"",""trial"":0,""time"":0},{""event"":""fullscreenenter"",""trial"":1,""time"":3877},{""event"":""fullscreenexit"",""trial"":40,""time"":316283},{""event"":""blur"",""trial"":49,""time"":387848},{""event"":""focus"",""trial"":49,""time"":389946}]",NA,NA,NA,NA,NA,1,#FA92F8,#1CD855,0,0,0,40,0,44,37,1,416,0,0,experiment,NA,NA,2,0.5,0.5,5,4,86,2,NA
fcp-trial,134,573038,0.0-95.0-0.0,voc_e2,11910,"[{""event"":""focus"",""trial"":0,""time"":0},{""event"":""blur"",""trial"":0,""time"":0},{""event"":""focus"",""trial"":0,""time"":0},{""event"":""blur"",""trial"":0,""time"":0},{""event"":""focus"",""trial"":0,""time"":0},{""event"":""blur"",""trial"":0,""time"":0},{""event"":""focus"",""trial"":0,""time"":0},{""event"":""blur"",""trial"":0,""time"":0},{""event"":""focus"",""trial"":0,""time"":0},{""event"":""fullscreenenter"",""trial"":1,""time"":3877},{""event"":""fullscreenexit"",""trial"":40,""time"":316283},{""event"":""blur"",""trial"":49,""time"":387848},{""event"":""focus"",""trial"":49,""time"":389946}]",NA,NA,NA,NA,NA,5,#D89F1C,#3386FF,10,10,0,40,0,130,39,0,420,10,1,experiment,NA,NA,1,0.3,0.7,3,2,87,2,NA
fcp-trial,135,575047,0.0-96.0-0.0,voc_e2,11910,"[{""event"":""focus"",""trial"":0,""time"":0},{""event"":""blur"",""trial"":0,""time"":0},{""event"":""focus"",""trial"":0,""time"":0},{""event"":""blur"",""trial"":0,""time"":0},{""event"":""focus"",""trial"":0,""time"":0},{""event"":""blur"",""trial"":0,""time"":0},{""event"":""focus"",""trial"":0,""time"":0},{""event"":""blur"",""trial"":0,""time"":0},{""event"":""focus"",""trial"":0,""time"":0},{""event"":""fullscreenenter"",""trial"":1,""time"":3877},{""event"":""fullscreenexit"",""trial"":40,""time"":316283},{""event"":""blur"",""trial"":49,""time"":387848},{""event"":""focus"",""trial"":49,""time"":389946}]",NA,NA,NA,NA,NA,2,#741CD8,#D8271C,10,0,1,40,0,66,39,0,369,0,0,experiment,NA,NA,0,0.9,0.1,0,1,88,2,NA
fcp-trial,136,577065,0.0-97.0-0.0,voc_e2,11910,"[{""event"":""focus"",""trial"":0,""time"":0},{""event"":""blur"",""trial"":0,""time"":0},{""event"":""focus"",""trial"":0,""time"":0},{""event"":""blur"",""trial"":0,""time"":0},{""event"":""focus"",""trial"":0,""time"":0},{""event"":""blur"",""trial"":0,""time"":0},{""event"":""focus"",""trial"":0,""time"":0},{""event"":""blur"",""trial"":0,""time"":0},{""event"":""focus"",""trial"":0,""time"":0},{""event"":""fullscreenenter"",""trial"":1,""time"":3877},{""event"":""fullscreenexit"",""trial"":40,""time"":316283},{""event"":""blur"",""trial"":49,""time"":387848},{""event"":""focus"",""trial"":49,""time"":389946}]",NA,NA,NA,NA,NA,3,#3386FF,#D89F1C,0,0,1,40,0,74,39,0,359,0,0,experiment,NA,NA,1,0.7,0.3,2,3,89,2,NA
