trial_type,trial_index,time_elapsed,internal_node_id,task_version,subject_id,interactions,success,rt,stimulus,key_press,button_pressed,offer,arcade_color_L,arcade_color_R,arcade_outcome_L,arcade_outcome_R,correct,stage_1_key,stage_1_choice,stage_1_rt,stage_2_key,stage_2_choice,stage_2_rt,stage_3_outcome,accuracy,phase,responses,num_errors,context,reward_prob_L,reward_prob_R,arcade_id_L,arcade_id_R,trial,block,response
pavlovia,0,65,0.0-0.0,voc_e2,11721,[],NA,NA,NA,NA,NA,NA,NA,NA,NA,NA,NA,NA,NA,NA,NA,NA,NA,NA,NA,NA,NA,NA,NA,NA,NA,NA,NA,NA,NA,NA
fullscreen,1,12650,0.0-1.0,voc_e2,11721,"[{""event"":""fullscreenenter"",""trial"":1,""time"":11749}]",TRUE,NA,NA,NA,NA,NA,NA,NA,NA,NA,NA,NA,NA,NA,NA,NA,NA,NA,NA,NA,NA,NA,NA,NA,NA,NA,NA,NA,NA,NA
audio-keyboard-response,2,16120,0.0-2.0,voc_e2,11721,"[{""event"":""fullscreenenter"",""trial"":1,""time"":11749}]",NA,3381,static/audio/beep_loop.wav,32,NA,NA,NA,NA,NA,NA,NA,NA,NA,NA,NA,NA,NA,NA,NA,NA,NA,NA,NA,NA,NA,NA,NA,NA,NA,NA
audio-test,3,17700,0.0-3.0,voc_e2,11721,"[{""event"":""fullscreenenter"",""trial"":1,""time"":11749}]",NA,NA,static/audio/turtle.wav,NA,3,NA,NA,NA,NA,NA,NA,NA,NA,NA,NA,NA,NA,NA,NA,NA,NA,NA,NA,NA,NA,NA,NA,NA,NA,NA
audio-test,4,19859,0.0-4.0,voc_e2,11721,"[{""event"":""fullscreenenter"",""trial"":1,""time"":11749}]",NA,NA,static/audio/shark.wav,NA,2,NA,NA,NA,NA,NA,NA,NA,NA,NA,NA,NA,NA,NA,NA,NA,NA,NA,NA,NA,NA,NA,NA,NA,NA,NA
audio-instructions,5,28122,0.0-5.0-0.0,voc_e2,11721,"[{""event"":""fullscreenenter"",""trial"":1,""time"":11749}]",NA,2485.5,static/audio/instructions1.wav,NA,0,NA,NA,NA,NA,NA,NA,NA,NA,NA,NA,NA,NA,NA,NA,NA,NA,NA,NA,NA,NA,NA,NA,NA,NA,NA
audio-instructions,6,36557,0.0-5.0-1.0,voc_e2,11721,"[{""event"":""fullscreenenter"",""trial"":1,""time"":11749}]",NA,1694.5999999999767,static/audio/instructions2.wav,NA,0,NA,NA,NA,NA,NA,NA,NA,NA,NA,NA,NA,NA,NA,NA,NA,NA,NA,NA,NA,NA,NA,NA,NA,NA,NA
audio-instructions,7,43820,0.0-5.0-2.0,voc_e2,11721,"[{""event"":""fullscreenenter"",""trial"":1,""time"":11749}]",NA,1458.6999999999534,static/audio/instructions3.wav,NA,0,NA,NA,NA,NA,NA,NA,NA,NA,NA,NA,NA,NA,NA,NA,NA,NA,NA,NA,NA,NA,NA,NA,NA,NA,NA
audio-instructions,8,61071,0.0-5.0-3.0,voc_e2,11721,"[{""event"":""fullscreenenter"",""trial"":1,""time"":11749}]",NA,4021.5999999999767,static/audio/instructions4.wav,NA,0,NA,NA,NA,NA,NA,NA,NA,NA,NA,NA,NA,NA,NA,NA,NA,NA,NA,NA,NA,NA,NA,NA,NA,NA,NA
audio-instructions,9,71256,0.0-5.0-4.0,voc_e2,11721,"[{""event"":""fullscreenenter"",""trial"":1,""time"":11749}]",NA,798.8999999999069,static/audio/instructions5.wav,NA,0,NA,NA,NA,NA,NA,NA,NA,NA,NA,NA,NA,NA,NA,NA,NA,NA,NA,NA,NA,NA,NA,NA,NA,NA,NA
fcp-practice,10,82200,0.0-5.0-5.0-0.0,voc_e2,11721,"[{""event"":""fullscreenenter"",""trial"":1,""time"":11749}]",NA,NA,NA,NA,NA,NA,#EDC948,#46d3c8,10,0,1,null,null,null,37,1,9404.70000000007,10,1,practice,NA,NA,NA,NA,NA,NA,NA,NA,NA,NA
fcp-practice,11,84177,0.0-5.0-5.0-1.0,voc_e2,11721,"[{""event"":""fullscreenenter"",""trial"":1,""time"":11749}]",NA,NA,NA,NA,NA,NA,#EDC948,#46d3c8,10,0,1,null,null,null,37,1,466.5999999999767,10,1,practice,NA,NA,NA,NA,NA,NA,NA,NA,NA,NA
fcp-practice,12,86011,0.0-5.0-5.0-2.0,voc_e2,11721,"[{""event"":""fullscreenenter"",""trial"":1,""time"":11749}]",NA,NA,NA,NA,NA,NA,#EDC948,#46d3c8,0,10,1,null,null,null,37,1,321,0,1,practice,NA,NA,NA,NA,NA,NA,NA,NA,NA,NA
fcp-practice,13,87821,0.0-5.0-5.0-3.0,voc_e2,11721,"[{""event"":""fullscreenenter"",""trial"":1,""time"":11749}]",NA,NA,NA,NA,NA,NA,#EDC948,#46d3c8,10,0,1,null,null,null,37,1,304.5999999999767,10,1,practice,NA,NA,NA,NA,NA,NA,NA,NA,NA,NA
fcp-practice,14,89826,0.0-5.0-5.0-4.0,voc_e2,11721,"[{""event"":""fullscreenenter"",""trial"":1,""time"":11749}]",NA,NA,NA,NA,NA,NA,#EDC948,#46d3c8,10,0,1,null,null,null,37,1,491.80000000004657,10,1,practice,NA,NA,NA,NA,NA,NA,NA,NA,NA,NA
audio-instructions,15,110239,0.0-5.0-6.0,voc_e2,11721,"[{""event"":""fullscreenenter"",""trial"":1,""time"":11749}]",NA,2405.5,static/audio/instructions6.wav,NA,0,NA,NA,NA,NA,NA,NA,NA,NA,NA,NA,NA,NA,NA,NA,NA,NA,NA,NA,NA,NA,NA,NA,NA,NA,NA
audio-instructions,16,130709,0.0-5.0-7.0,voc_e2,11721,"[{""event"":""fullscreenenter"",""trial"":1,""time"":11749}]",NA,1264.5999999999767,static/audio/instructions7.wav,NA,0,NA,NA,NA,NA,NA,NA,NA,NA,NA,NA,NA,NA,NA,NA,NA,NA,NA,NA,NA,NA,NA,NA,NA,NA,NA
audio-instructions,17,143011,0.0-5.0-8.0,voc_e2,11721,"[{""event"":""fullscreenenter"",""trial"":1,""time"":11749}]",NA,2825.3000000000466,static/audio/instructions8.wav,NA,0,NA,NA,NA,NA,NA,NA,NA,NA,NA,NA,NA,NA,NA,NA,NA,NA,NA,NA,NA,NA,NA,NA,NA,NA,NA
fcp-comprehension,18,155392,0.0-5.0-9.0,voc_e2,11721,"[{""event"":""fullscreenenter"",""trial"":1,""time"":11749}]",NA,12374.899999999909,NA,NA,NA,NA,NA,NA,NA,NA,NA,NA,NA,NA,NA,NA,NA,NA,NA,NA,"true,true",0,NA,NA,NA,NA,NA,NA,NA,NA
audio-instructions,19,163507,0.0-6.0-0.0,voc_e2,11721,"[{""event"":""fullscreenenter"",""trial"":1,""time"":11749}]",NA,2564.4000000000233,static/audio/instructions9.wav,NA,0,NA,NA,NA,NA,NA,NA,NA,NA,NA,NA,NA,NA,NA,NA,NA,NA,NA,NA,NA,NA,NA,NA,NA,NA,NA
audio-instructions,20,180751,0.0-6.0-1.0,voc_e2,11721,"[{""event"":""fullscreenenter"",""trial"":1,""time"":11749}]",NA,5130.800000000047,static/audio/instructions10.wav,NA,0,NA,NA,NA,NA,NA,NA,NA,NA,NA,NA,NA,NA,NA,NA,NA,NA,NA,NA,NA,NA,NA,NA,NA,NA,NA
fcp-trial,21,189976,0.0-6.0-2.0,voc_e2,11721,"[{""event"":""fullscreenenter"",""trial"":1,""time"":11749}]",NA,NA,NA,NA,NA,0,#EDC948,#46d3c8,10,10,1,38,1,5249.100000000093,37,1,2441.5,10,1,practice,NA,NA,NA,NA,NA,NA,NA,NA,NA,NA
audio-instructions,22,202975,0.0-6.0-3.0,voc_e2,11721,"[{""event"":""fullscreenenter"",""trial"":1,""time"":11749}]",NA,1989.4000000000233,static/audio/instructions11.wav,NA,0,NA,NA,NA,NA,NA,NA,NA,NA,NA,NA,NA,NA,NA,NA,NA,NA,NA,NA,NA,NA,NA,NA,NA,NA,NA
fcp-trial,23,208228,0.0-6.0-4.0,voc_e2,11721,"[{""event"":""fullscreenenter"",""trial"":1,""time"":11749}]",NA,NA,NA,NA,NA,6,#EDC948,#46d3c8,10,10,1,40,0,1638.8000000000466,37,1,2094.1999999999534,10,1,practice,NA,NA,NA,NA,NA,NA,NA,NA,NA,NA
audio-instructions,24,227987,0.0-6.0-5.0,voc_e2,11721,"[{""event"":""fullscreenenter"",""trial"":1,""time"":11749}]",NA,1071,static/audio/instructions12.wav,NA,0,NA,NA,NA,NA,NA,NA,NA,NA,NA,NA,NA,NA,NA,NA,NA,NA,NA,NA,NA,NA,NA,NA,NA,NA,NA
audio-instructions,25,236291,0.0-6.0-6.0,voc_e2,11721,"[{""event"":""fullscreenenter"",""trial"":1,""time"":11749}]",NA,703.7000000000698,static/audio/instructions13.wav,NA,0,NA,NA,NA,NA,NA,NA,NA,NA,NA,NA,NA,NA,NA,NA,NA,NA,NA,NA,NA,NA,NA,NA,NA,NA,NA
audio-instructions,26,245269,0.0-6.0-7.0,voc_e2,11721,"[{""event"":""fullscreenenter"",""trial"":1,""time"":11749}]",NA,527.3000000000466,static/audio/instructions14.wav,NA,0,NA,NA,NA,NA,NA,NA,NA,NA,NA,NA,NA,NA,NA,NA,NA,NA,NA,NA,NA,NA,NA,NA,NA,NA,NA
audio-instructions,27,252675,0.0-7.0-0.0,voc_e2,11721,"[{""event"":""fullscreenenter"",""trial"":1,""time"":11749}]",NA,489.80000000004657,static/audio/instructions15.wav,NA,0,NA,NA,NA,NA,NA,NA,NA,NA,NA,NA,NA,NA,NA,NA,NA,NA,NA,NA,NA,NA,NA,NA,NA,NA,NA
audio-instructions,28,261582,0.0-7.0-1.0,voc_e2,11721,"[{""event"":""fullscreenenter"",""trial"":1,""time"":11749}]",NA,2079.100000000093,static/audio/instructions16.wav,NA,0,NA,NA,NA,NA,NA,NA,NA,NA,NA,NA,NA,NA,NA,NA,NA,NA,NA,NA,NA,NA,NA,NA,NA,NA,NA
audio-instructions,29,270085,0.0-7.0-2.0,voc_e2,11721,"[{""event"":""fullscreenenter"",""trial"":1,""time"":11749}]",NA,821.5999999999767,static/audio/instructions17.wav,NA,0,NA,NA,NA,NA,NA,NA,NA,NA,NA,NA,NA,NA,NA,NA,NA,NA,NA,NA,NA,NA,NA,NA,NA,NA,NA
audio-instructions,30,279147,0.0-7.0-3.0,voc_e2,11721,"[{""event"":""fullscreenenter"",""trial"":1,""time"":11749}]",NA,1297.5,static/audio/instructions18.wav,NA,0,NA,NA,NA,NA,NA,NA,NA,NA,NA,NA,NA,NA,NA,NA,NA,NA,NA,NA,NA,NA,NA,NA,NA,NA,NA
audio-instructions,31,287044,0.0-7.0-4.0,voc_e2,11721,"[{""event"":""fullscreenenter"",""trial"":1,""time"":11749}]",NA,1152,static/audio/instructions19.wav,NA,0,NA,NA,NA,NA,NA,NA,NA,NA,NA,NA,NA,NA,NA,NA,NA,NA,NA,NA,NA,NA,NA,NA,NA,NA,NA
fcp-comprehension,32,298887,0.0-7.0-5.0,voc_e2,11721,"[{""event"":""fullscreenenter"",""trial"":1,""time"":11749}]",NA,11835.5,NA,NA,NA,NA,NA,NA,NA,NA,NA,NA,NA,NA,NA,NA,NA,NA,NA,NA,"false,false,false,true",0,NA,NA,NA,NA,NA,NA,NA,NA
audio-instructions,33,310303,0.0-8.0,voc_e2,11721,"[{""event"":""fullscreenenter"",""trial"":1,""time"":11749}]",NA,2191.5,static/audio/ready.wav,NA,0,NA,NA,NA,NA,NA,NA,NA,NA,NA,NA,NA,NA,NA,NA,NA,NA,NA,NA,NA,NA,NA,NA,NA,NA,NA
fcp-trial,34,315404,0.0-9.0-0.0,voc_e2,11721,"[{""event"":""fullscreenenter"",""trial"":1,""time"":11749}]",NA,NA,NA,NA,NA,2,#D8271C,#741CD8,10,0,1,38,1,2106.6999999999534,39,0,1476.5,0,0,experiment,NA,NA,0,0.9,0.1,0,1,1,1,NA
fcp-trial,35,319057,0.0-10.0-0.0,voc_e2,11721,"[{""event"":""fullscreenenter"",""trial"":1,""time"":11749}]",NA,NA,NA,NA,NA,0,#D8271C,#741CD8,0,0,1,38,1,1495.9000000000233,37,1,649.9000000000233,0,1,experiment,NA,NA,0,0.9,0.1,0,1,2,1,NA
fcp-trial,36,323880,0.0-11.0-0.0,voc_e2,11721,"[{""event"":""fullscreenenter"",""trial"":1,""time"":11749}]",NA,NA,NA,NA,NA,4,#3386FF,#D89F1C,10,0,0,40,0,2076.4000000000233,39,0,1224.2000000000698,0,1,experiment,NA,NA,1,0.3,0.7,3,2,3,1,NA
fcp-trial,37,328000,0.0-12.0-0.0,voc_e2,11721,"[{""event"":""fullscreenenter"",""trial"":1,""time"":11749}]",NA,NA,NA,NA,NA,4,#1CD855,#FA92F8,0,10,1,40,0,1884.9000000000233,39,0,728.8000000000466,10,0,experiment,NA,NA,2,0.5,0.5,4,5,4,1,NA
fcp-trial,38,333081,0.0-13.0-0.0,voc_e2,11721,"[{""event"":""fullscreenenter"",""trial"":1,""time"":11749}]",NA,NA,NA,NA,NA,1,#FA92F8,#1CD855,0,10,0,38,1,2476.9000000000233,39,0,1096.3999999999069,10,1,experiment,NA,NA,2,0.5,0.5,5,4,5,1,NA
fcp-trial,39,337682,0.0-14.0-0.0,voc_e2,11721,"[{""event"":""fullscreenenter"",""trial"":1,""time"":11749}]",NA,NA,NA,NA,NA,3,#D89F1C,#3386FF,10,0,1,38,1,1621,39,0,1473.8999999999069,0,0,experiment,NA,NA,1,0.7,0.3,2,3,6,1,NA
fcp-trial,40,346100,0.0-15.0-0.0,voc_e2,11721,"[{""event"":""fullscreenenter"",""trial"":1,""time"":11749}]",NA,NA,NA,NA,NA,3,#D8271C,#741CD8,10,0,1,38,1,4813.099999999977,37,1,2097.899999999907,10,1,experiment,NA,NA,0,0.9,0.1,0,1,7,1,NA
fcp-trial,41,349851,0.0-16.0-0.0,voc_e2,11721,"[{""event"":""fullscreenenter"",""trial"":1,""time"":11749}]",NA,NA,NA,NA,NA,0,#D89F1C,#3386FF,10,0,1,38,1,1708.3999999999069,37,1,534.8000000000466,10,1,experiment,NA,NA,1,0.7,0.3,2,3,8,1,NA
fcp-trial,42,352742,0.0-17.0-0.0,voc_e2,11721,"[{""event"":""fullscreenenter"",""trial"":1,""time"":11749}]",NA,NA,NA,NA,NA,5,#D8271C,#741CD8,10,0,1,38,1,855.7999999999302,37,1,525.7000000000698,10,1,experiment,NA,NA,0,0.9,0.1,0,1,9,1,NA
fcp-trial,43,355935,0.0-18.0-0.0,voc_e2,11721,"[{""event"":""fullscreenenter"",""trial"":1,""time"":11749}]",NA,NA,NA,NA,NA,2,#FA92F8,#1CD855,0,10,0,38,1,743.8000000000466,39,0,921.5,10,1,experiment,NA,NA,2,0.5,0.5,5,4,10,1,NA
fcp-trial,44,360305,0.0-19.0-0.0,voc_e2,11721,"[{""event"":""fullscreenenter"",""trial"":1,""time"":11749}]",NA,NA,NA,NA,NA,5,#D89F1C,#3386FF,0,0,1,40,0,1576.2999999999302,37,1,1262.5,0,1,experiment,NA,NA,1,0.7,0.3,2,3,11,1,NA
fcp-trial,45,364314,0.0-20.0-0.0,voc_e2,11721,"[{""event"":""fullscreenenter"",""trial"":1,""time"":11749}]",NA,NA,NA,NA,NA,4,#D8271C,#741CD8,10,0,1,40,0,1875.0999999999767,37,1,617.0999999999767,10,1,experiment,NA,NA,0,0.9,0.1,0,1,12,1,NA
fcp-trial,46,369000,0.0-21.0-0.0,voc_e2,11721,"[{""event"":""fullscreenenter"",""trial"":1,""time"":11749}]",NA,NA,NA,NA,NA,6,#3386FF,#D89F1C,10,0,0,40,0,2215.0999999999767,37,1,961.6999999999534,10,0,experiment,NA,NA,1,0.3,0.7,3,2,13,1,NA
fcp-trial,47,373890,0.0-22.0-0.0,voc_e2,11721,"[{""event"":""fullscreenenter"",""trial"":1,""time"":11749}]",NA,NA,NA,NA,NA,0,#1CD855,#FA92F8,0,0,1,38,1,2401.6999999999534,37,1,975.5999999999768,0,1,experiment,NA,NA,2,0.5,0.5,4,5,14,1,NA
fcp-trial,48,377833,0.0-23.0-0.0,voc_e2,11721,"[{""event"":""fullscreenenter"",""trial"":1,""time"":11749}]",NA,NA,NA,NA,NA,5,#FA92F8,#1CD855,0,10,0,40,0,1711.1000000000931,37,1,708.3000000000466,0,0,experiment,NA,NA,2,0.5,0.5,5,4,15,1,NA
fcp-trial,49,381819,0.0-24.0-0.0,voc_e2,11721,"[{""event"":""fullscreenenter"",""trial"":1,""time"":11749}]",NA,NA,NA,NA,NA,6,#D8271C,#741CD8,10,10,1,40,0,1831.2000000000698,39,0,645.4000000000233,10,0,experiment,NA,NA,0,0.9,0.1,0,1,16,1,NA
fcp-trial,50,391748,0.0-25.0-0.0,voc_e2,11721,"[{""event"":""fullscreenenter"",""trial"":1,""time"":11749}]",NA,NA,NA,NA,NA,3,#1CD855,#FA92F8,10,0,1,38,1,3472.5999999999767,37,1,4949.199999999953,10,1,experiment,NA,NA,2,0.5,0.5,4,5,17,1,NA
fcp-trial,51,396810,0.0-26.0-0.0,voc_e2,11721,"[{""event"":""fullscreenenter"",""trial"":1,""time"":11749}]",NA,NA,NA,NA,NA,1,#3386FF,#D89F1C,0,10,0,38,1,2908.8000000000466,39,0,644.4000000000233,10,1,experiment,NA,NA,1,0.3,0.7,3,2,18,1,NA
fcp-trial,52,400515,0.0-27.0-0.0,voc_e2,11721,"[{""event"":""fullscreenenter"",""trial"":1,""time"":11749}]",NA,NA,NA,NA,NA,1,#D8271C,#741CD8,10,0,1,38,1,1303.3000000000466,37,1,895.5,10,1,experiment,NA,NA,0,0.9,0.1,0,1,19,1,NA
fcp-trial,53,403681,0.0-28.0-0.0,voc_e2,11721,"[{""event"":""fullscreenenter"",""trial"":1,""time"":11749}]",NA,NA,NA,NA,NA,2,#3386FF,#D89F1C,0,10,0,38,1,587.5999999999767,39,0,1069.2000000000698,10,1,experiment,NA,NA,1,0.3,0.7,3,2,20,1,NA
fcp-trial,54,408432,0.0-29.0-0.0,voc_e2,11721,"[{""event"":""fullscreenenter"",""trial"":1,""time"":11749}]",NA,NA,NA,NA,NA,6,#1CD855,#FA92F8,10,10,1,40,0,2619.9000000000233,39,0,620.7999999999302,10,0,experiment,NA,NA,2,0.5,0.5,4,5,21,1,NA
fcp-trial,55,412267,0.0-30.0-0.0,voc_e2,11721,"[{""event"":""fullscreenenter"",""trial"":1,""time"":11749}]",NA,NA,NA,NA,NA,2,#741CD8,#D8271C,10,10,0,38,1,1249,39,0,1073.0999999999767,10,1,experiment,NA,NA,0,0.1,0.9,1,0,22,1,NA
fcp-trial,56,415420,0.0-31.0-0.0,voc_e2,11721,"[{""event"":""fullscreenenter"",""trial"":1,""time"":11749}]",NA,NA,NA,NA,NA,3,#D8271C,#741CD8,10,10,1,38,1,1055.3000000000466,37,1,588.1000000000931,10,1,experiment,NA,NA,0,0.9,0.1,0,1,23,1,NA
fcp-trial,57,418796,0.0-32.0-0.0,voc_e2,11721,"[{""event"":""fullscreenenter"",""trial"":1,""time"":11749}]",NA,NA,NA,NA,NA,1,#3386FF,#D89F1C,0,10,0,38,1,1383.9000000000233,39,0,465.9000000000233,10,1,experiment,NA,NA,1,0.3,0.7,3,2,24,1,NA
fcp-trial,58,424631,0.0-33.0-0.0,voc_e2,11721,"[{""event"":""fullscreenenter"",""trial"":1,""time"":11749}]",NA,NA,NA,NA,NA,6,#741CD8,#D8271C,0,10,0,38,1,3293.9000000000233,39,0,1031.7000000000698,10,1,experiment,NA,NA,0,0.1,0.9,1,0,25,1,NA
fcp-trial,59,429023,0.0-34.0-0.0,voc_e2,11721,"[{""event"":""fullscreenenter"",""trial"":1,""time"":11749}]",NA,NA,NA,NA,NA,6,#1CD855,#FA92F8,10,10,1,40,0,1947.4000000000233,39,0,933.0999999999768,10,0,experiment,NA,NA,2,0.5,0.5,4,5,26,1,NA
fcp-trial,60,433818,0.0-35.0-0.0,voc_e2,11721,"[{""event"":""fullscreenenter"",""trial"":1,""time"":11749}]",NA,NA,NA,NA,NA,4,#D89F1C,#3386FF,0,0,1,40,0,2382.1999999999534,37,1,897.5,0,1,experiment,NA,NA,1,0.7,0.3,2,3,27,1,NA
fcp-trial,61,437045,0.0-36.0-0.0,voc_e2,11721,"[{""event"":""fullscreenenter"",""trial"":1,""time"":11749}]",NA,NA,NA,NA,NA,6,#3386FF,#D89F1C,0,10,0,40,0,1080.0999999999767,39,0,631.5,10,1,experiment,NA,NA,1,0.3,0.7,3,2,28,1,NA
fcp-trial,62,440970,0.0-37.0-0.0,voc_e2,11721,"[{""event"":""fullscreenenter"",""trial"":1,""time"":11749}]",NA,NA,NA,NA,NA,4,#D8271C,#741CD8,10,10,1,40,0,1858.7000000000698,37,1,556.7000000000698,10,1,experiment,NA,NA,0,0.9,0.1,0,1,29,1,NA
fcp-trial,63,444855,0.0-38.0-0.0,voc_e2,11721,"[{""event"":""fullscreenenter"",""trial"":1,""time"":11749}]",NA,NA,NA,NA,NA,5,#FA92F8,#1CD855,10,0,0,40,0,1733.9000000000233,39,0,633.2000000000698,0,1,experiment,NA,NA,2,0.5,0.5,5,4,30,1,NA
fcp-trial,64,449468,0.0-39.0-0.0,voc_e2,11721,"[{""event"":""fullscreenenter"",""trial"":1,""time"":11749}]",NA,NA,NA,NA,NA,2,#1CD855,#FA92F8,0,10,1,38,1,1594.9000000000233,39,0,1490.8000000000466,10,0,experiment,NA,NA,2,0.5,0.5,4,5,31,1,NA
fcp-trial,65,452762,0.0-40.0-0.0,voc_e2,11721,"[{""event"":""fullscreenenter"",""trial"":1,""time"":11749}]",NA,NA,NA,NA,NA,5,#D89F1C,#3386FF,0,0,1,40,0,1202.5,37,1,563.3000000000466,0,1,experiment,NA,NA,1,0.7,0.3,2,3,32,1,NA
fcp-trial,66,462882,0.0-41.0-0.0,voc_e2,11721,"[{""event"":""fullscreenenter"",""trial"":1,""time"":11749}]",NA,NA,NA,NA,NA,1,#FA92F8,#1CD855,10,0,0,38,1,6869.800000000047,37,1,1743.5,10,0,experiment,NA,NA,2,0.5,0.5,5,4,33,1,NA
fcp-trial,67,466270,0.0-42.0-0.0,voc_e2,11721,"[{""event"":""fullscreenenter"",""trial"":1,""time"":11749}]",NA,NA,NA,NA,NA,1,#D8271C,#741CD8,10,0,1,38,1,1217.6999999999534,37,1,637.7000000000698,10,1,experiment,NA,NA,0,0.9,0.1,0,1,34,1,NA
fcp-trial,68,469278,0.0-43.0-0.0,voc_e2,11721,"[{""event"":""fullscreenenter"",""trial"":1,""time"":11749}]",NA,NA,NA,NA,NA,5,#741CD8,#D8271C,0,10,0,38,1,832.8000000000466,39,0,669.1000000000931,10,1,experiment,NA,NA,0,0.1,0.9,1,0,35,1,NA
fcp-trial,69,472398,0.0-44.0-0.0,voc_e2,11721,"[{""event"":""fullscreenenter"",""trial"":1,""time"":11749}]",NA,NA,NA,NA,NA,0,#1CD855,#FA92F8,0,10,1,38,1,994.0999999999767,37,1,615.8000000000466,0,1,experiment,NA,NA,2,0.5,0.5,4,5,36,1,NA
fcp-trial,70,475814,0.0-45.0-0.0,voc_e2,11721,"[{""event"":""fullscreenenter"",""trial"":1,""time"":11749}]",NA,NA,NA,NA,NA,2,#D89F1C,#3386FF,10,10,1,38,1,1273.9000000000233,37,1,634.6999999999534,10,1,experiment,NA,NA,1,0.7,0.3,2,3,37,1,NA
fcp-trial,71,478454,0.0-46.0-0.0,voc_e2,11721,"[{""event"":""fullscreenenter"",""trial"":1,""time"":11749}]",NA,NA,NA,NA,NA,3,#D89F1C,#3386FF,10,10,1,38,1,555.2999999999302,37,1,577,10,1,experiment,NA,NA,1,0.7,0.3,2,3,38,1,NA
fcp-trial,72,481997,0.0-47.0-0.0,voc_e2,11721,"[{""event"":""fullscreenenter"",""trial"":1,""time"":11749}]",NA,NA,NA,NA,NA,3,#1CD855,#FA92F8,10,0,1,38,1,1411.8000000000466,37,1,602.3000000000466,10,1,experiment,NA,NA,2,0.5,0.5,4,5,39,1,NA
fcp-trial,73,485820,0.0-48.0-0.0,voc_e2,11721,"[{""event"":""fullscreenenter"",""trial"":1,""time"":11749}]",NA,NA,NA,NA,NA,0,#741CD8,#D8271C,0,10,0,38,1,1100.1999999999534,39,0,1202.4000000000233,10,1,experiment,NA,NA,0,0.1,0.9,1,0,40,1,NA
fcp-trial,74,488943,0.0-49.0-0.0,voc_e2,11721,"[{""event"":""fullscreenenter"",""trial"":1,""time"":11749}]",NA,NA,NA,NA,NA,4,#1CD855,#FA92F8,0,0,1,38,1,656.3000000000466,37,1,935.5999999999768,0,1,experiment,NA,NA,2,0.5,0.5,4,5,41,1,NA
fcp-trial,75,491910,0.0-50.0-0.0,voc_e2,11721,"[{""event"":""fullscreenenter"",""trial"":1,""time"":11749}]",NA,NA,NA,NA,NA,0,#3386FF,#D89F1C,0,10,0,38,1,1010.3000000000466,39,0,433.0999999999767,10,1,experiment,NA,NA,1,0.3,0.7,3,2,42,1,NA
fcp-trial,76,495047,0.0-51.0-0.0,voc_e2,11721,"[{""event"":""fullscreenenter"",""trial"":1,""time"":11749}]",NA,NA,NA,NA,NA,3,#3386FF,#D89F1C,0,0,0,38,1,1121.4000000000233,39,0,506.79999999993015,0,1,experiment,NA,NA,1,0.3,0.7,3,2,43,1,NA
fcp-trial,77,497843,0.0-52.0-0.0,voc_e2,11721,"[{""event"":""fullscreenenter"",""trial"":1,""time"":11749}]",NA,NA,NA,NA,NA,0,#3386FF,#D89F1C,0,10,0,38,1,868.2999999999302,39,0,393.89999999990687,10,1,experiment,NA,NA,1,0.3,0.7,3,2,44,1,NA
fcp-trial,78,501673,0.0-53.0-0.0,voc_e2,11721,"[{""event"":""fullscreenenter"",""trial"":1,""time"":11749}]",NA,NA,NA,NA,NA,6,#1CD855,#FA92F8,10,10,1,40,0,1711.1999999999534,39,0,607.4000000000233,10,0,experiment,NA,NA,2,0.5,0.5,4,5,45,1,NA
fcp-trial,79,505059,0.0-54.0-0.0,voc_e2,11721,"[{""event"":""fullscreenenter"",""trial"":1,""time"":11749}]",NA,NA,NA,NA,NA,5,#741CD8,#D8271C,0,10,0,40,0,1305.3999999999069,39,0,560.1999999999534,10,1,experiment,NA,NA,0,0.1,0.9,1,0,46,2,NA
fcp-trial,80,507894,0.0-55.0-0.0,voc_e2,11721,"[{""event"":""fullscreenenter"",""trial"":1,""time"":11749}]",NA,NA,NA,NA,NA,5,#D89F1C,#3386FF,10,0,1,40,0,747.2999999999302,37,1,578.2999999999302,10,1,experiment,NA,NA,1,0.7,0.3,2,3,47,2,NA
fcp-trial,81,510861,0.0-56.0-0.0,voc_e2,11721,"[{""event"":""fullscreenenter"",""trial"":1,""time"":11749}]",NA,NA,NA,NA,NA,5,#FA92F8,#1CD855,10,0,0,40,0,705.6000000000931,37,1,750.7000000000698,10,0,experiment,NA,NA,2,0.5,0.5,5,4,48,2,NA
fcp-trial,82,513465,0.0-57.0-0.0,voc_e2,11721,"[{""event"":""fullscreenenter"",""trial"":1,""time"":11749}]",NA,NA,NA,NA,NA,4,#D89F1C,#3386FF,10,0,1,40,0,525.6999999999534,37,1,568.3000000000466,10,1,experiment,NA,NA,1,0.7,0.3,2,3,49,2,NA
fcp-trial,83,516113,0.0-58.0-0.0,voc_e2,11721,"[{""event"":""fullscreenenter"",""trial"":1,""time"":11749}]",NA,NA,NA,NA,NA,6,#741CD8,#D8271C,0,10,0,40,0,569.1999999999534,37,1,551,0,0,experiment,NA,NA,0,0.1,0.9,1,0,50,2,NA
fcp-trial,84,519425,0.0-59.0-0.0,voc_e2,11721,"[{""event"":""fullscreenenter"",""trial"":1,""time"":11749}]",NA,NA,NA,NA,NA,3,#D8271C,#741CD8,10,10,1,38,1,1306.0999999999767,37,1,498.79999999993015,10,1,experiment,NA,NA,0,0.9,0.1,0,1,51,2,NA
fcp-trial,85,522543,0.0-60.0-0.0,voc_e2,11721,"[{""event"":""fullscreenenter"",""trial"":1,""time"":11749}]",NA,NA,NA,NA,NA,1,#FA92F8,#1CD855,10,0,0,38,1,876.3999999999069,39,0,731.8000000000466,0,1,experiment,NA,NA,2,0.5,0.5,5,4,52,2,NA
fcp-trial,86,525365,0.0-61.0-0.0,voc_e2,11721,"[{""event"":""fullscreenenter"",""trial"":1,""time"":11749}]",NA,NA,NA,NA,NA,1,#D89F1C,#3386FF,0,10,1,38,1,926.5,37,1,386.19999999995343,0,1,experiment,NA,NA,1,0.7,0.3,2,3,53,2,NA
fcp-trial,87,529293,0.0-62.0-0.0,voc_e2,11721,"[{""event"":""fullscreenenter"",""trial"":1,""time"":11749}]",NA,NA,NA,NA,NA,2,#FA92F8,#1CD855,0,0,0,38,1,1191.3000000000466,39,0,1210.0999999999767,0,1,experiment,NA,NA,2,0.5,0.5,5,4,54,2,NA
fcp-trial,88,532544,0.0-63.0-0.0,voc_e2,11721,"[{""event"":""fullscreenenter"",""trial"":1,""time"":11749}]",NA,NA,NA,NA,NA,4,#D8271C,#741CD8,0,0,1,40,0,1190.7999999999302,39,0,550.7000000000698,0,0,experiment,NA,NA,0,0.9,0.1,0,1,55,2,NA
fcp-trial,89,535243,0.0-64.0-0.0,voc_e2,11721,"[{""event"":""fullscreenenter"",""trial"":1,""time"":11749}]",NA,NA,NA,NA,NA,4,#FA92F8,#1CD855,10,0,0,40,0,707.3000000000466,37,1,483.89999999990687,10,0,experiment,NA,NA,2,0.5,0.5,5,4,56,2,NA
fcp-trial,90,538282,0.0-65.0-0.0,voc_e2,11721,"[{""event"":""fullscreenenter"",""trial"":1,""time"":11749}]",NA,NA,NA,NA,NA,3,#1CD855,#FA92F8,10,0,1,40,0,659,39,0,871,0,0,experiment,NA,NA,2,0.5,0.5,4,5,57,2,NA
fcp-trial,91,541196,0.0-66.0-0.0,voc_e2,11721,"[{""event"":""fullscreenenter"",""trial"":1,""time"":11749}]",NA,NA,NA,NA,NA,6,#D89F1C,#3386FF,10,10,1,40,0,465.30000000004657,39,0,918.6999999999534,10,0,experiment,NA,NA,1,0.7,0.3,2,3,58,2,NA
fcp-trial,92,544573,0.0-67.0-0.0,voc_e2,11721,"[{""event"":""fullscreenenter"",""trial"":1,""time"":11749}]",NA,NA,NA,NA,NA,1,#741CD8,#D8271C,0,10,0,38,1,755.8999999999069,39,0,1095,10,1,experiment,NA,NA,0,0.1,0.9,1,0,59,2,NA
fcp-trial,93,547256,0.0-68.0-0.0,voc_e2,11721,"[{""event"":""fullscreenenter"",""trial"":1,""time"":11749}]",NA,NA,NA,NA,NA,0,#D8271C,#741CD8,10,0,1,38,1,652.1999999999534,37,1,524.5,10,1,experiment,NA,NA,0,0.9,0.1,0,1,60,2,NA
fcp-trial,94,550302,0.0-69.0-0.0,voc_e2,11721,"[{""event"":""fullscreenenter"",""trial"":1,""time"":11749}]",NA,NA,NA,NA,NA,0,#FA92F8,#1CD855,10,10,0,38,1,752.5,39,0,784,10,1,experiment,NA,NA,2,0.5,0.5,5,4,61,2,NA
fcp-trial,95,553166,0.0-70.0-0.0,voc_e2,11721,"[{""event"":""fullscreenenter"",""trial"":1,""time"":11749}]",NA,NA,NA,NA,NA,2,#D8271C,#741CD8,10,10,1,38,1,800.5,37,1,555.4000000001397,10,1,experiment,NA,NA,0,0.9,0.1,0,1,62,2,NA
fcp-trial,96,556496,0.0-71.0-0.0,voc_e2,11721,"[{""event"":""fullscreenenter"",""trial"":1,""time"":11749}]",NA,NA,NA,NA,NA,2,#D89F1C,#3386FF,10,10,1,38,1,1304.6999999999534,37,1,495.5,10,1,experiment,NA,NA,1,0.7,0.3,2,3,63,2,NA
fcp-trial,97,559289,0.0-72.0-0.0,voc_e2,11721,"[{""event"":""fullscreenenter"",""trial"":1,""time"":11749}]",NA,NA,NA,NA,NA,2,#3386FF,#D89F1C,0,10,0,38,1,609.1000000000931,39,0,662.1999999999534,10,1,experiment,NA,NA,1,0.3,0.7,3,2,64,2,NA
fcp-trial,98,562173,0.0-73.0-0.0,voc_e2,11721,"[{""event"":""fullscreenenter"",""trial"":1,""time"":11749}]",NA,NA,NA,NA,NA,3,#FA92F8,#1CD855,0,0,0,38,1,842.5999999998603,39,0,532.0999999998603,0,1,experiment,NA,NA,2,0.5,0.5,5,4,65,2,NA
fcp-trial,99,566749,0.0-74.0-0.0,voc_e2,11721,"[{""event"":""fullscreenenter"",""trial"":1,""time"":11749}]",NA,NA,NA,NA,NA,6,#FA92F8,#1CD855,0,10,0,40,0,2264.5999999998603,39,0,800.5999999998603,10,1,experiment,NA,NA,2,0.5,0.5,5,4,66,2,NA
fcp-trial,100,572622,0.0-75.0-0.0,voc_e2,11721,"[{""event"":""fullscreenenter"",""trial"":1,""time"":11749}]",NA,NA,NA,NA,NA,1,#741CD8,#D8271C,0,10,0,38,1,3226.1999999999534,39,0,1130.1000000000931,10,1,experiment,NA,NA,0,0.1,0.9,1,0,67,2,NA
fcp-trial,101,575804,0.0-76.0-0.0,voc_e2,11721,"[{""event"":""fullscreenenter"",""trial"":1,""time"":11749}]",NA,NA,NA,NA,NA,1,#D89F1C,#3386FF,0,0,1,38,1,1041.6000000000931,37,1,632.1999999999534,0,1,experiment,NA,NA,1,0.7,0.3,2,3,68,2,NA
fcp-trial,102,579918,0.0-77.0-0.0,voc_e2,11721,"[{""event"":""fullscreenenter"",""trial"":1,""time"":11749}]",NA,NA,NA,NA,NA,1,#1CD855,#FA92F8,10,0,1,38,1,2129.399999999907,39,0,473.20000000018626,0,0,experiment,NA,NA,2,0.5,0.5,4,5,69,2,NA
fcp-trial,103,583746,0.0-78.0-0.0,voc_e2,11721,"[{""event"":""fullscreenenter"",""trial"":1,""time"":11749}]",NA,NA,NA,NA,NA,0,#D8271C,#741CD8,10,10,1,38,1,1431.0999999998603,37,1,869.4000000001397,10,1,experiment,NA,NA,0,0.9,0.1,0,1,70,2,NA
fcp-trial,104,586294,0.0-79.0-0.0,voc_e2,11721,"[{""event"":""fullscreenenter"",""trial"":1,""time"":11749}]",NA,NA,NA,NA,NA,3,#3386FF,#D89F1C,10,10,0,38,1,552.6999999999534,39,0,463.80000000004657,10,1,experiment,NA,NA,1,0.3,0.7,3,2,71,2,NA
fcp-trial,105,590280,0.0-80.0-0.0,voc_e2,11721,"[{""event"":""fullscreenenter"",""trial"":1,""time"":11749}]",NA,NA,NA,NA,NA,6,#D8271C,#741CD8,10,0,1,38,1,846.8000000000466,37,1,1617.1999999999534,10,1,experiment,NA,NA,0,0.9,0.1,0,1,72,2,NA
fcp-trial,106,593795,0.0-81.0-0.0,voc_e2,11721,"[{""event"":""fullscreenenter"",""trial"":1,""time"":11749}]",NA,NA,NA,NA,NA,2,#1CD855,#FA92F8,0,10,1,38,1,1419.3999999999069,39,0,568.6999999999534,10,0,experiment,NA,NA,2,0.5,0.5,4,5,73,2,NA
fcp-trial,107,597788,0.0-82.0-0.0,voc_e2,11721,"[{""event"":""fullscreenenter"",""trial"":1,""time"":11749}]",NA,NA,NA,NA,NA,0,#D89F1C,#3386FF,0,0,1,38,1,1984.5,37,1,492.60000000009313,0,1,experiment,NA,NA,1,0.7,0.3,2,3,74,2,NA
fcp-trial,108,600806,0.0-83.0-0.0,voc_e2,11721,"[{""event"":""fullscreenenter"",""trial"":1,""time"":11749}]",NA,NA,NA,NA,NA,0,#FA92F8,#1CD855,10,10,0,38,1,919.1000000000931,37,1,585.6000000000931,10,0,experiment,NA,NA,2,0.5,0.5,5,4,75,2,NA
fcp-trial,109,604161,0.0-84.0-0.0,voc_e2,11721,"[{""event"":""fullscreenenter"",""trial"":1,""time"":11749}]",NA,NA,NA,NA,NA,6,#3386FF,#D89F1C,0,10,0,40,0,1359,39,0,489.19999999995343,10,1,experiment,NA,NA,1,0.3,0.7,3,2,76,2,NA
fcp-trial,110,608143,0.0-85.0-0.0,voc_e2,11721,"[{""event"":""fullscreenenter"",""trial"":1,""time"":11749}]",NA,NA,NA,NA,NA,2,#741CD8,#D8271C,10,10,0,38,1,1205.5,39,0,1249.4000000001397,10,1,experiment,NA,NA,0,0.1,0.9,1,0,77,2,NA
fcp-trial,111,611503,0.0-86.0-0.0,voc_e2,11721,"[{""event"":""fullscreenenter"",""trial"":1,""time"":11749}]",NA,NA,NA,NA,NA,5,#FA92F8,#1CD855,0,0,0,40,0,1120.5,37,1,711.9000000001397,0,0,experiment,NA,NA,2,0.5,0.5,5,4,78,2,NA
fcp-trial,112,614638,0.0-87.0-0.0,voc_e2,11721,"[{""event"":""fullscreenenter"",""trial"":1,""time"":11749}]",NA,NA,NA,NA,NA,3,#741CD8,#D8271C,0,10,0,38,1,1208.7000000001863,39,0,417.5,10,1,experiment,NA,NA,0,0.1,0.9,1,0,79,2,NA
fcp-trial,113,618772,0.0-88.0-0.0,voc_e2,11721,"[{""event"":""fullscreenenter"",""trial"":1,""time"":11749}]",NA,NA,NA,NA,NA,5,#741CD8,#D8271C,0,10,0,38,1,1201.1999999999534,39,0,1416.1000000000931,10,1,experiment,NA,NA,0,0.1,0.9,1,0,80,2,NA
fcp-trial,114,622029,0.0-89.0-0.0,voc_e2,11721,"[{""event"":""fullscreenenter"",""trial"":1,""time"":11749}]",NA,NA,NA,NA,NA,5,#D89F1C,#3386FF,0,10,1,40,0,1263.3999999999069,37,1,484.30000000004657,0,1,experiment,NA,NA,1,0.7,0.3,2,3,81,2,NA
fcp-trial,115,624760,0.0-90.0-0.0,voc_e2,11721,"[{""event"":""fullscreenenter"",""trial"":1,""time"":11749}]",NA,NA,NA,NA,NA,4,#FA92F8,#1CD855,10,0,0,40,0,652.0999999998603,39,0,556.5,0,1,experiment,NA,NA,2,0.5,0.5,5,4,82,2,NA
fcp-trial,116,627304,0.0-91.0-0.0,voc_e2,11721,"[{""event"":""fullscreenenter"",""trial"":1,""time"":11749}]",NA,NA,NA,NA,NA,4,#D89F1C,#3386FF,10,0,1,40,0,537,37,1,478.30000000004657,10,1,experiment,NA,NA,1,0.7,0.3,2,3,83,2,NA
fcp-trial,117,629953,0.0-92.0-0.0,voc_e2,11721,"[{""event"":""fullscreenenter"",""trial"":1,""time"":11749}]",NA,NA,NA,NA,NA,4,#D8271C,#741CD8,10,0,1,40,0,483,37,1,657.6000000000931,10,1,experiment,NA,NA,0,0.9,0.1,0,1,84,2,NA
fcp-trial,118,633167,0.0-93.0-0.0,voc_e2,11721,"[{""event"":""fullscreenenter"",""trial"":1,""time"":11749}]",NA,NA,NA,NA,NA,2,#D8271C,#741CD8,10,0,1,38,1,1152.6999999999534,37,1,547.8000000000466,10,1,experiment,NA,NA,0,0.9,0.1,0,1,85,2,NA
fcp-trial,119,636489,0.0-94.0-0.0,voc_e2,11721,"[{""event"":""fullscreenenter"",""trial"":1,""time"":11749}]",NA,NA,NA,NA,NA,2,#3386FF,#D89F1C,0,0,0,38,1,1399.9000000001397,39,0,412.60000000009313,0,1,experiment,NA,NA,1,0.3,0.7,3,2,86,2,NA
fcp-trial,120,639987,0.0-95.0-0.0,voc_e2,11721,"[{""event"":""fullscreenenter"",""trial"":1,""time"":11749}]",NA,NA,NA,NA,NA,1,#3386FF,#D89F1C,10,10,0,38,1,1073.6999999999534,39,0,889.3000000000466,10,1,experiment,NA,NA,1,0.3,0.7,3,2,87,2,NA
fcp-trial,121,643135,0.0-96.0-0.0,voc_e2,11721,"[{""event"":""fullscreenenter"",""trial"":1,""time"":11749}]",NA,NA,NA,NA,NA,0,#1CD855,#FA92F8,10,10,1,38,1,1040.3999999999069,37,1,598.1999999999534,10,1,experiment,NA,NA,2,0.5,0.5,4,5,88,2,NA
fcp-trial,122,646456,0.0-97.0-0.0,voc_e2,11721,"[{""event"":""fullscreenenter"",""trial"":1,""time"":11749}]",NA,NA,NA,NA,NA,4,#D8271C,#741CD8,0,0,1,38,1,821,39,0,987.1000000000932,0,0,experiment,NA,NA,0,0.9,0.1,0,1,89,2,NA
fcp-trial,123,649367,0.0-98.0-0.0,voc_e2,11721,"[{""event"":""fullscreenenter"",""trial"":1,""time"":11749}]",NA,NA,NA,NA,NA,0,#D89F1C,#3386FF,10,10,1,38,1,963.8999999999069,37,1,412.69999999995343,10,1,experiment,NA,NA,1,0.7,0.3,2,3,90,2,NA
fcp-trial,124,652934,0.0-99.0-0.0,voc_e2,11721,"[{""event"":""fullscreenenter"",""trial"":1,""time"":11749}]",NA,NA,NA,NA,NA,2,#FA92F8,#1CD855,0,10,0,38,1,1277.3000000000466,37,1,778.1000000000931,0,0,experiment,NA,NA,2,0.5,0.5,5,4,91,3,NA
fcp-trial,125,657795,0.0-100.0-0.0,voc_e2,11721,"[{""event"":""fullscreenenter"",""trial"":1,""time"":11749}]",NA,NA,NA,NA,NA,3,#FA92F8,#1CD855,0,0,0,40,0,2912,39,0,440.89999999990687,0,1,experiment,NA,NA,2,0.5,0.5,5,4,92,3,NA
fcp-trial,126,661222,0.0-101.0-0.0,voc_e2,11721,"[{""event"":""fullscreenenter"",""trial"":1,""time"":11749}]",NA,NA,NA,NA,NA,5,#3386FF,#D89F1C,0,10,0,40,0,1468.3000000000466,39,0,435.20000000018626,10,1,experiment,NA,NA,1,0.3,0.7,3,2,93,3,NA
fcp-trial,127,664351,0.0-102.0-0.0,voc_e2,11721,"[{""event"":""fullscreenenter"",""trial"":1,""time"":11749}]",NA,NA,NA,NA,NA,1,#D8271C,#741CD8,10,0,1,38,1,1094.5,37,1,522.1000000000931,10,1,experiment,NA,NA,0,0.9,0.1,0,1,94,3,NA
fcp-trial,128,667784,0.0-103.0-0.0,voc_e2,11721,"[{""event"":""fullscreenenter"",""trial"":1,""time"":11749}]",NA,NA,NA,NA,NA,5,#FA92F8,#1CD855,10,10,0,40,0,1211.4000000001397,39,0,711.1999999999534,10,1,experiment,NA,NA,2,0.5,0.5,5,4,95,3,NA
fcp-trial,129,671925,0.0-104.0-0.0,voc_e2,11721,"[{""event"":""fullscreenenter"",""trial"":1,""time"":11749}]",NA,NA,NA,NA,NA,4,#3386FF,#D89F1C,0,0,0,40,0,1313.1000000000931,37,1,1317.3999999999069,0,0,experiment,NA,NA,1,0.3,0.7,3,2,96,3,NA
fcp-trial,130,676136,0.0-105.0-0.0,voc_e2,11721,"[{""event"":""fullscreenenter"",""trial"":1,""time"":11749}]",NA,NA,NA,NA,NA,5,#D8271C,#741CD8,10,0,1,40,0,1220.8000000000466,39,0,1474.8000000000466,0,0,experiment,NA,NA,0,0.9,0.1,0,1,97,3,NA
fcp-trial,131,680149,0.0-106.0-0.0,voc_e2,11721,"[{""event"":""fullscreenenter"",""trial"":1,""time"":11749}]",NA,NA,NA,NA,NA,0,#D8271C,#741CD8,10,0,1,38,1,2026.8999999999069,37,1,479.89999999990687,10,1,experiment,NA,NA,0,0.9,0.1,0,1,98,3,NA
fcp-trial,132,683418,0.0-107.0-0.0,voc_e2,11721,"[{""event"":""fullscreenenter"",""trial"":1,""time"":11749}]",NA,NA,NA,NA,NA,6,#D89F1C,#3386FF,0,0,1,40,0,954.8000000000466,37,1,808.5,0,1,experiment,NA,NA,1,0.7,0.3,2,3,99,3,NA
fcp-trial,133,686114,0.0-108.0-0.0,voc_e2,11721,"[{""event"":""fullscreenenter"",""trial"":1,""time"":11749}]",NA,NA,NA,NA,NA,6,#1CD855,#FA92F8,0,0,1,40,0,693,39,0,496.5,0,0,experiment,NA,NA,2,0.5,0.5,4,5,100,3,NA
fcp-trial,134,689447,0.0-109.0-0.0,voc_e2,11721,"[{""event"":""fullscreenenter"",""trial"":1,""time"":11749}]",NA,NA,NA,NA,NA,4,#1CD855,#FA92F8,10,10,1,40,0,1277.3000000000466,37,1,547.1000000000931,10,1,experiment,NA,NA,2,0.5,0.5,4,5,101,3,NA
fcp-trial,135,692718,0.0-110.0-0.0,voc_e2,11721,"[{""event"":""fullscreenenter"",""trial"":1,""time"":11749}]",NA,NA,NA,NA,NA,3,#741CD8,#D8271C,0,10,0,38,1,1414.5,39,0,351,10,1,experiment,NA,NA,0,0.1,0.9,1,0,102,3,NA
fcp-trial,136,696000,0.0-111.0-0.0,voc_e2,11721,"[{""event"":""fullscreenenter"",""trial"":1,""time"":11749}]",NA,NA,NA,NA,NA,6,#D8271C,#741CD8,10,0,1,40,0,1134.8000000000466,37,1,641.6999999999534,10,1,experiment,NA,NA,0,0.9,0.1,0,1,103,3,NA
fcp-trial,137,699185,0.0-112.0-0.0,voc_e2,11721,"[{""event"":""fullscreenenter"",""trial"":1,""time"":11749}]",NA,NA,NA,NA,NA,3,#D89F1C,#3386FF,10,0,1,40,0,926.3000000000466,37,1,748.6999999999534,10,1,experiment,NA,NA,1,0.7,0.3,2,3,104,3,NA
fcp-trial,138,702655,0.0-113.0-0.0,voc_e2,11721,"[{""event"":""fullscreenenter"",""trial"":1,""time"":11749}]",NA,NA,NA,NA,NA,1,#FA92F8,#1CD855,0,0,0,38,1,933.1000000000931,37,1,1030.6999999999534,0,0,experiment,NA,NA,2,0.5,0.5,5,4,105,3,NA
audio-instructions,139,1107619,0.0-114.0,voc_e2,11721,"[{""event"":""fullscreenenter"",""trial"":1,""time"":11749}]",NA,400532.6,static/audio/pause.wav,NA,0,NA,NA,NA,NA,NA,NA,NA,NA,NA,NA,NA,NA,NA,NA,NA,NA,NA,NA,NA,NA,NA,NA,NA,NA,NA
fcp-trial,140,1113081,0.0-115.0-0.0,voc_e2,11721,"[{""event"":""fullscreenenter"",""trial"":1,""time"":11749}]",NA,NA,NA,NA,NA,3,#D89F1C,#3386FF,10,0,1,38,1,3110.899999999907,37,1,833.1000000000931,10,1,experiment,NA,NA,1,0.7,0.3,2,3,106,3,NA
fcp-trial,141,1116217,0.0-116.0-0.0,voc_e2,11721,"[{""event"":""fullscreenenter"",""trial"":1,""time"":11749}]",NA,NA,NA,NA,NA,5,#741CD8,#D8271C,0,10,0,40,0,1173.3000000002794,39,0,433.60000000009313,10,1,experiment,NA,NA,0,0.1,0.9,1,0,107,3,NA
fcp-trial,142,1119330,0.0-117.0-0.0,voc_e2,11721,"[{""event"":""fullscreenenter"",""trial"":1,""time"":11749}]",NA,NA,NA,NA,NA,6,#741CD8,#D8271C,0,0,0,40,0,1120.7000000001863,39,0,467.5,0,1,experiment,NA,NA,0,0.1,0.9,1,0,108,3,NA
fcp-trial,143,1122694,0.0-118.0-0.0,voc_e2,11721,"[{""event"":""fullscreenenter"",""trial"":1,""time"":11749}]",NA,NA,NA,NA,NA,6,#3386FF,#D89F1C,0,0,0,40,0,646,37,1,1209.6000000000931,0,0,experiment,NA,NA,1,0.3,0.7,3,2,109,3,NA
fcp-trial,144,1125784,0.0-119.0-0.0,voc_e2,11721,"[{""event"":""fullscreenenter"",""trial"":1,""time"":11749}]",NA,NA,NA,NA,NA,1,#FA92F8,#1CD855,10,0,0,38,1,982.5,37,1,597.1000000000931,10,0,experiment,NA,NA,2,0.5,0.5,5,4,110,3,NA
fcp-trial,145,1128793,0.0-120.0-0.0,voc_e2,11721,"[{""event"":""fullscreenenter"",""trial"":1,""time"":11749}]",NA,NA,NA,NA,NA,3,#741CD8,#D8271C,0,10,0,38,1,1066,39,0,413.89999999990687,10,1,experiment,NA,NA,0,0.1,0.9,1,0,111,3,NA
fcp-trial,146,1131929,0.0-121.0-0.0,voc_e2,11721,"[{""event"":""fullscreenenter"",""trial"":1,""time"":11749}]",NA,NA,NA,NA,NA,2,#FA92F8,#1CD855,10,10,0,38,1,1044.7000000001863,37,1,579.7999999998137,10,0,experiment,NA,NA,2,0.5,0.5,5,4,112,3,NA
fcp-trial,147,1135503,0.0-122.0-0.0,voc_e2,11721,"[{""event"":""fullscreenenter"",""trial"":1,""time"":11749}]",NA,NA,NA,NA,NA,4,#D8271C,#741CD8,10,0,1,40,0,1253.3999999999069,39,0,790,0,0,experiment,NA,NA,0,0.9,0.1,0,1,113,3,NA
fcp-trial,148,1138290,0.0-123.0-0.0,voc_e2,11721,"[{""event"":""fullscreenenter"",""trial"":1,""time"":11749}]",NA,NA,NA,NA,NA,1,#D89F1C,#3386FF,10,0,1,38,1,714.6000000000931,37,1,557.7999999998137,10,1,experiment,NA,NA,1,0.7,0.3,2,3,114,3,NA
fcp-trial,149,1142414,0.0-124.0-0.0,voc_e2,11721,"[{""event"":""fullscreenenter"",""trial"":1,""time"":11749}]",NA,NA,NA,NA,NA,3,#1CD855,#FA92F8,0,10,1,38,1,2102.399999999907,39,0,512.7000000001863,10,0,experiment,NA,NA,2,0.5,0.5,4,5,115,3,NA
fcp-trial,150,1145424,0.0-125.0-0.0,voc_e2,11721,"[{""event"":""fullscreenenter"",""trial"":1,""time"":11749}]",NA,NA,NA,NA,NA,5,#3386FF,#D89F1C,0,10,0,40,0,897.1999999997206,37,1,587.3999999999069,0,0,experiment,NA,NA,1,0.3,0.7,3,2,116,3,NA
fcp-trial,151,1148749,0.0-126.0-0.0,voc_e2,11721,"[{""event"":""fullscreenenter"",""trial"":1,""time"":11749}]",NA,NA,NA,NA,NA,5,#1CD855,#FA92F8,10,0,1,40,0,735.1999999997206,39,0,1080.4000000003723,0,0,experiment,NA,NA,2,0.5,0.5,4,5,117,3,NA
fcp-trial,152,1152242,0.0-127.0-0.0,voc_e2,11721,"[{""event"":""fullscreenenter"",""trial"":1,""time"":11749}]",NA,NA,NA,NA,NA,2,#741CD8,#D8271C,0,10,0,38,1,1638,39,0,326.29999999981374,10,1,experiment,NA,NA,0,0.1,0.9,1,0,118,3,NA
fcp-trial,153,1155667,0.0-128.0-0.0,voc_e2,11721,"[{""event"":""fullscreenenter"",""trial"":1,""time"":11749}]",NA,NA,NA,NA,NA,0,#FA92F8,#1CD855,10,0,0,38,1,1210.1999999997206,37,1,707,10,0,experiment,NA,NA,2,0.5,0.5,5,4,119,3,NA
fcp-trial,154,1158268,0.0-129.0-0.0,voc_e2,11721,"[{""event"":""fullscreenenter"",""trial"":1,""time"":11749}]",NA,NA,NA,NA,NA,0,#741CD8,#D8271C,0,10,0,38,1,653.3999999999069,39,0,421.1999999997206,10,1,experiment,NA,NA,0,0.1,0.9,1,0,120,3,NA
fcp-trial,155,1160852,0.0-130.0-0.0,voc_e2,11721,"[{""event"":""fullscreenenter"",""trial"":1,""time"":11749}]",NA,NA,NA,NA,NA,2,#3386FF,#D89F1C,0,10,0,38,1,743.2999999998137,39,0,312.79999999981374,10,1,experiment,NA,NA,1,0.3,0.7,3,2,121,3,NA
fcp-trial,156,1163462,0.0-131.0-0.0,voc_e2,11721,"[{""event"":""fullscreenenter"",""trial"":1,""time"":11749}]",NA,NA,NA,NA,NA,4,#D89F1C,#3386FF,10,0,1,38,1,709.6000000000931,37,1,371,10,1,experiment,NA,NA,1,0.7,0.3,2,3,122,3,NA
fcp-trial,157,1166909,0.0-132.0-0.0,voc_e2,11721,"[{""event"":""fullscreenenter"",""trial"":1,""time"":11749}]",NA,NA,NA,NA,NA,0,#D89F1C,#3386FF,10,0,1,38,1,1490.2999999998137,37,1,425,10,1,experiment,NA,NA,1,0.7,0.3,2,3,123,3,NA
fcp-trial,158,1170160,0.0-133.0-0.0,voc_e2,11721,"[{""event"":""fullscreenenter"",""trial"":1,""time"":11749}]",NA,NA,NA,NA,NA,6,#1CD855,#FA92F8,10,0,1,40,0,1381.3000000002794,39,0,360.10000000009313,0,0,experiment,NA,NA,2,0.5,0.5,4,5,124,3,NA
fcp-trial,159,1172907,0.0-134.0-0.0,voc_e2,11721,"[{""event"":""fullscreenenter"",""trial"":1,""time"":11749}]",NA,NA,NA,NA,NA,1,#D8271C,#741CD8,10,0,1,38,1,825.3999999999069,37,1,389,10,1,experiment,NA,NA,0,0.9,0.1,0,1,125,3,NA
fcp-trial,160,1176230,0.0-135.0-0.0,voc_e2,11721,"[{""event"":""fullscreenenter"",""trial"":1,""time"":11749}]",NA,NA,NA,NA,NA,4,#1CD855,#FA92F8,10,10,1,40,0,1112.8000000002794,37,1,703.4000000003725,10,1,experiment,NA,NA,2,0.5,0.5,4,5,126,3,NA
fcp-trial,161,1179166,0.0-136.0-0.0,voc_e2,11721,"[{""event"":""fullscreenenter"",""trial"":1,""time"":11749}]",NA,NA,NA,NA,NA,5,#1CD855,#FA92F8,10,0,1,40,0,911.5999999996275,37,1,504.60000000009313,10,1,experiment,NA,NA,2,0.5,0.5,4,5,127,3,NA
fcp-trial,162,1181970,0.0-137.0-0.0,voc_e2,11721,"[{""event"":""fullscreenenter"",""trial"":1,""time"":11749}]",NA,NA,NA,NA,NA,2,#1CD855,#FA92F8,0,10,1,40,0,540.5,37,1,736.5,0,1,experiment,NA,NA,2,0.5,0.5,4,5,128,3,NA
fcp-trial,163,1184916,0.0-138.0-0.0,voc_e2,11721,"[{""event"":""fullscreenenter"",""trial"":1,""time"":11749}]",NA,NA,NA,NA,NA,1,#3386FF,#D89F1C,0,10,0,38,1,1064.1000000000931,39,0,375.5,10,1,experiment,NA,NA,1,0.3,0.7,3,2,129,3,NA
fcp-trial,164,1187843,0.0-139.0-0.0,voc_e2,11721,"[{""event"":""fullscreenenter"",""trial"":1,""time"":11749}]",NA,NA,NA,NA,NA,3,#FA92F8,#1CD855,10,10,0,38,1,988.7000000001863,37,1,411,10,0,experiment,NA,NA,2,0.5,0.5,5,4,130,3,NA
fcp-trial,165,1190564,0.0-140.0-0.0,voc_e2,11721,"[{""event"":""fullscreenenter"",""trial"":1,""time"":11749}]",NA,NA,NA,NA,NA,0,#741CD8,#D8271C,0,10,0,38,1,889.1999999997206,39,0,320.1999999997206,10,1,experiment,NA,NA,0,0.1,0.9,1,0,131,3,NA
fcp-trial,166,1193794,0.0-141.0-0.0,voc_e2,11721,"[{""event"":""fullscreenenter"",""trial"":1,""time"":11749}]",NA,NA,NA,NA,NA,6,#D89F1C,#3386FF,0,0,1,40,0,1130.2000000001863,39,0,580.5,0,0,experiment,NA,NA,1,0.7,0.3,2,3,132,3,NA
fcp-trial,167,1197400,0.0-142.0-0.0,voc_e2,11721,"[{""event"":""fullscreenenter"",""trial"":1,""time"":11749}]",NA,NA,NA,NA,NA,4,#741CD8,#D8271C,10,10,0,40,0,1672.5999999996275,39,0,424.20000000018626,10,1,experiment,NA,NA,0,0.1,0.9,1,0,133,3,NA
fcp-trial,168,1201124,0.0-143.0-0.0,voc_e2,11721,"[{""event"":""fullscreenenter"",""trial"":1,""time"":11749}]",NA,NA,NA,NA,NA,1,#FA92F8,#1CD855,0,10,0,38,1,1051.3999999999069,37,1,1150.6000000000931,0,0,experiment,NA,NA,2,0.5,0.5,5,4,134,3,NA
fcp-trial,169,1204589,0.0-144.0-0.0,voc_e2,11721,"[{""event"":""fullscreenenter"",""trial"":1,""time"":11749}]",NA,NA,NA,NA,NA,5,#741CD8,#D8271C,0,10,0,40,0,1148.5,37,1,805.3000000002794,0,0,experiment,NA,NA,0,0.1,0.9,1,0,135,3,NA
fcp-trial,170,1207205,0.0-145.0-0.0,voc_e2,11721,"[{""event"":""fullscreenenter"",""trial"":1,""time"":11749}]",NA,NA,NA,NA,NA,3,#3386FF,#D89F1C,10,10,0,38,1,816.2999999998137,39,0,289.79999999981374,10,1,experiment,NA,NA,1,0.3,0.7,3,2,136,4,NA
fcp-trial,171,1210600,0.0-146.0-0.0,voc_e2,11721,"[{""event"":""fullscreenenter"",""trial"":1,""time"":11749}]",NA,NA,NA,NA,NA,3,#741CD8,#D8271C,10,10,0,38,1,1573.1000000000931,39,0,313.29999999981374,10,1,experiment,NA,NA,0,0.1,0.9,1,0,137,4,NA
fcp-trial,172,1213427,0.0-147.0-0.0,voc_e2,11721,"[{""event"":""fullscreenenter"",""trial"":1,""time"":11749}]",NA,NA,NA,NA,NA,2,#741CD8,#D8271C,0,10,0,38,1,907.3999999999069,39,0,399.10000000009313,10,1,experiment,NA,NA,0,0.1,0.9,1,0,138,4,NA
fcp-trial,173,1216491,0.0-148.0-0.0,voc_e2,11721,"[{""event"":""fullscreenenter"",""trial"":1,""time"":11749}]",NA,NA,NA,NA,NA,6,#1CD855,#FA92F8,0,0,1,40,0,1062,37,1,488.39999999990687,0,1,experiment,NA,NA,2,0.5,0.5,4,5,139,4,NA
fcp-trial,174,1219546,0.0-149.0-0.0,voc_e2,11721,"[{""event"":""fullscreenenter"",""trial"":1,""time"":11749}]",NA,NA,NA,NA,NA,0,#FA92F8,#1CD855,10,0,0,38,1,1141.7999999998137,37,1,387.20000000018626,10,0,experiment,NA,NA,2,0.5,0.5,5,4,140,4,NA
fcp-trial,175,1222263,0.0-150.0-0.0,voc_e2,11721,"[{""event"":""fullscreenenter"",""trial"":1,""time"":11749}]",NA,NA,NA,NA,NA,0,#D89F1C,#3386FF,0,0,1,38,1,902.1000000000931,37,1,289,0,1,experiment,NA,NA,1,0.7,0.3,2,3,141,4,NA
fcp-trial,176,1225005,0.0-151.0-0.0,voc_e2,11721,"[{""event"":""fullscreenenter"",""trial"":1,""time"":11749}]",NA,NA,NA,NA,NA,1,#D8271C,#741CD8,10,0,1,38,1,839.2000000001863,39,0,371.5,0,0,experiment,NA,NA,0,0.9,0.1,0,1,142,4,NA
fcp-trial,177,1228720,0.0-152.0-0.0,voc_e2,11721,"[{""event"":""fullscreenenter"",""trial"":1,""time"":11749}]",NA,NA,NA,NA,NA,4,#FA92F8,#1CD855,0,0,0,40,0,1594.1000000000931,39,0,609.6000000000931,0,1,experiment,NA,NA,2,0.5,0.5,5,4,143,4,NA
fcp-trial,178,1231709,0.0-153.0-0.0,voc_e2,11721,"[{""event"":""fullscreenenter"",""trial"":1,""time"":11749}]",NA,NA,NA,NA,NA,6,#741CD8,#D8271C,10,10,0,40,0,1075.1000000000931,39,0,404.9000000003726,10,1,experiment,NA,NA,0,0.1,0.9,1,0,144,4,NA
fcp-trial,179,1234486,0.0-154.0-0.0,voc_e2,11721,"[{""event"":""fullscreenenter"",""trial"":1,""time"":11749}]",NA,NA,NA,NA,NA,2,#D89F1C,#3386FF,0,10,1,38,1,952.1999999997206,37,1,315.29999999981374,0,1,experiment,NA,NA,1,0.7,0.3,2,3,145,4,NA
fcp-trial,180,1239408,0.0-155.0-0.0,voc_e2,11721,"[{""event"":""fullscreenenter"",""trial"":1,""time"":11749}]",NA,NA,NA,NA,NA,4,#3386FF,#D89F1C,0,10,0,40,0,2528.600000000093,37,1,885.2000000001863,0,0,experiment,NA,NA,1,0.3,0.7,3,2,146,4,NA
fcp-trial,181,1242354,0.0-156.0-0.0,voc_e2,11721,"[{""event"":""fullscreenenter"",""trial"":1,""time"":11749}]",NA,NA,NA,NA,NA,5,#3386FF,#D89F1C,0,0,0,40,0,1064.2999999998137,39,0,372.79999999981374,0,1,experiment,NA,NA,1,0.3,0.7,3,2,147,4,NA
fcp-trial,182,1245243,0.0-157.0-0.0,voc_e2,11721,"[{""event"":""fullscreenenter"",""trial"":1,""time"":11749}]",NA,NA,NA,NA,NA,5,#1CD855,#FA92F8,0,0,1,40,0,947.8999999999069,39,0,430.79999999981374,0,0,experiment,NA,NA,2,0.5,0.5,4,5,148,4,NA
fcp-trial,183,1248138,0.0-158.0-0.0,voc_e2,11721,"[{""event"":""fullscreenenter"",""trial"":1,""time"":11749}]",NA,NA,NA,NA,NA,4,#FA92F8,#1CD855,0,10,0,40,0,970.6999999997206,39,0,387.60000000009313,10,1,experiment,NA,NA,2,0.5,0.5,5,4,149,4,NA
fcp-trial,184,1251179,0.0-159.0-0.0,voc_e2,11721,"[{""event"":""fullscreenenter"",""trial"":1,""time"":11749}]",NA,NA,NA,NA,NA,4,#D8271C,#741CD8,10,0,1,40,0,1025.7999999998137,39,0,504.89999999990687,0,0,experiment,NA,NA,0,0.9,0.1,0,1,150,4,NA
fcp-trial,185,1255225,0.0-160.0-0.0,voc_e2,11721,"[{""event"":""fullscreenenter"",""trial"":1,""time"":11749}]",NA,NA,NA,NA,NA,1,#FA92F8,#1CD855,10,0,0,38,1,955.3999999999069,37,1,1561.3000000002794,10,0,experiment,NA,NA,2,0.5,0.5,5,4,151,4,NA
fcp-trial,186,1259771,0.0-161.0-0.0,voc_e2,11721,"[{""event"":""fullscreenenter"",""trial"":1,""time"":11749}]",NA,NA,NA,NA,NA,4,#D89F1C,#3386FF,10,10,1,38,1,2081.600000000093,37,1,935.1000000000932,10,1,experiment,NA,NA,1,0.7,0.3,2,3,152,4,NA
fcp-trial,187,1263255,0.0-162.0-0.0,voc_e2,11721,"[{""event"":""fullscreenenter"",""trial"":1,""time"":11749}]",NA,NA,NA,NA,NA,0,#D8271C,#741CD8,0,0,1,38,1,1132.6000000000931,37,1,842.6999999997206,0,1,experiment,NA,NA,0,0.9,0.1,0,1,153,4,NA
fcp-trial,188,1266107,0.0-163.0-0.0,voc_e2,11721,"[{""event"":""fullscreenenter"",""trial"":1,""time"":11749}]",NA,NA,NA,NA,NA,2,#D8271C,#741CD8,10,0,1,38,1,796.1000000000931,37,1,546.0999999996275,10,1,experiment,NA,NA,0,0.9,0.1,0,1,154,4,NA
fcp-trial,189,1268837,0.0-164.0-0.0,voc_e2,11721,"[{""event"":""fullscreenenter"",""trial"":1,""time"":11749}]",NA,NA,NA,NA,NA,2,#1CD855,#FA92F8,0,10,1,38,1,708.2000000001863,39,0,515.3000000002794,10,0,experiment,NA,NA,2,0.5,0.5,4,5,155,4,NA
fcp-trial,190,1272036,0.0-165.0-0.0,voc_e2,11721,"[{""event"":""fullscreenenter"",""trial"":1,""time"":11749}]",NA,NA,NA,NA,NA,5,#D8271C,#741CD8,10,10,1,40,0,1058.8999999999069,39,0,627.2000000001863,10,0,experiment,NA,NA,0,0.9,0.1,0,1,156,4,NA
fcp-trial,191,1274795,0.0-166.0-0.0,voc_e2,11721,"[{""event"":""fullscreenenter"",""trial"":1,""time"":11749}]",NA,NA,NA,NA,NA,5,#3386FF,#D89F1C,0,10,0,40,0,727.8999999999069,37,1,521.4000000003725,0,0,experiment,NA,NA,1,0.3,0.7,3,2,157,4,NA
fcp-trial,192,1277490,0.0-167.0-0.0,voc_e2,11721,"[{""event"":""fullscreenenter"",""trial"":1,""time"":11749}]",NA,NA,NA,NA,NA,3,#D89F1C,#3386FF,10,0,1,38,1,824.3999999999069,37,1,347.79999999981374,10,1,experiment,NA,NA,1,0.7,0.3,2,3,158,4,NA
fcp-trial,193,1280827,0.0-168.0-0.0,voc_e2,11721,"[{""event"":""fullscreenenter"",""trial"":1,""time"":11749}]",NA,NA,NA,NA,NA,6,#741CD8,#D8271C,0,10,0,40,0,1192.6999999997206,37,1,618.1000000000931,0,0,experiment,NA,NA,0,0.1,0.9,1,0,159,4,NA
fcp-trial,194,1286170,0.0-169.0-0.0,voc_e2,11721,"[{""event"":""fullscreenenter"",""trial"":1,""time"":11749}]",NA,NA,NA,NA,NA,0,#FA92F8,#1CD855,10,10,0,38,1,1809,37,1,2011.6999999997208,10,0,experiment,NA,NA,2,0.5,0.5,5,4,160,4,NA
fcp-trial,195,1290819,0.0-170.0-0.0,voc_e2,11721,"[{""event"":""fullscreenenter"",""trial"":1,""time"":11749}]",NA,NA,NA,NA,NA,0,#3386FF,#D89F1C,10,0,0,38,1,2388,39,0,750.6000000000931,0,1,experiment,NA,NA,1,0.3,0.7,3,2,161,4,NA
fcp-trial,196,1293938,0.0-171.0-0.0,voc_e2,11721,"[{""event"":""fullscreenenter"",""trial"":1,""time"":11749}]",NA,NA,NA,NA,NA,1,#D8271C,#741CD8,10,0,1,38,1,1119.8000000002794,39,0,488.29999999981374,0,0,experiment,NA,NA,0,0.9,0.1,0,1,162,4,NA
fcp-trial,197,1299295,0.0-172.0-0.0,voc_e2,11721,"[{""event"":""fullscreenenter"",""trial"":1,""time"":11749}]",NA,NA,NA,NA,NA,6,#1CD855,#FA92F8,10,10,1,40,0,3177,39,0,672.5,10,0,experiment,NA,NA,2,0.5,0.5,4,5,163,4,NA
fcp-trial,198,1305155,0.0-173.0-0.0,voc_e2,11721,"[{""event"":""fullscreenenter"",""trial"":1,""time"":11749}]",NA,NA,NA,NA,NA,3,#D8271C,#741CD8,10,0,1,40,0,3511.399999999907,39,0,819.8000000002794,0,0,experiment,NA,NA,0,0.9,0.1,0,1,164,4,NA
fcp-trial,199,1307785,0.0-174.0-0.0,voc_e2,11721,"[{""event"":""fullscreenenter"",""trial"":1,""time"":11749}]",NA,NA,NA,NA,NA,2,#3386FF,#D89F1C,10,10,0,38,1,826.2999999998137,39,0,273.60000000009313,10,1,experiment,NA,NA,1,0.3,0.7,3,2,165,4,NA
fcp-trial,200,1310427,0.0-175.0-0.0,voc_e2,11721,"[{""event"":""fullscreenenter"",""trial"":1,""time"":11749}]",NA,NA,NA,NA,NA,1,#3386FF,#D89F1C,0,10,0,38,1,876.9000000003725,39,0,255.70000000018624,10,1,experiment,NA,NA,1,0.3,0.7,3,2,166,4,NA
fcp-trial,201,1314006,0.0-176.0-0.0,voc_e2,11721,"[{""event"":""fullscreenenter"",""trial"":1,""time"":11749}]",NA,NA,NA,NA,NA,3,#1CD855,#FA92F8,0,0,1,38,1,1741.2000000001863,39,0,313.70000000018626,0,0,experiment,NA,NA,2,0.5,0.5,4,5,167,4,NA
fcp-trial,202,1316810,0.0-177.0-0.0,voc_e2,11721,"[{""event"":""fullscreenenter"",""trial"":1,""time"":11749}]",NA,NA,NA,NA,NA,6,#3386FF,#D89F1C,0,0,0,38,1,743.0999999996275,39,0,554.3999999999069,0,1,experiment,NA,NA,1,0.3,0.7,3,2,168,4,NA
fcp-trial,203,1319707,0.0-178.0-0.0,voc_e2,11721,"[{""event"":""fullscreenenter"",""trial"":1,""time"":11749}]",NA,NA,NA,NA,NA,2,#3386FF,#D89F1C,10,10,0,38,1,1036.2999999998137,39,0,346.20000000018626,10,1,experiment,NA,NA,1,0.3,0.7,3,2,169,4,NA
fcp-trial,204,1323451,0.0-179.0-0.0,voc_e2,11721,"[{""event"":""fullscreenenter"",""trial"":1,""time"":11749}]",NA,NA,NA,NA,NA,3,#D8271C,#741CD8,10,0,1,38,1,1286.1999999997206,37,1,939.0999999996276,10,1,experiment,NA,NA,0,0.9,0.1,0,1,170,4,NA
fcp-trial,205,1326450,0.0-180.0-0.0,voc_e2,11721,"[{""event"":""fullscreenenter"",""trial"":1,""time"":11749}]",NA,NA,NA,NA,NA,3,#1CD855,#FA92F8,0,10,1,38,1,921.3000000002794,39,0,563.6999999997206,10,0,experiment,NA,NA,2,0.5,0.5,4,5,171,4,NA
fcp-trial,206,1330035,0.0-181.0-0.0,voc_e2,11721,"[{""event"":""fullscreenenter"",""trial"":1,""time"":11749}]",NA,NA,NA,NA,NA,5,#3386FF,#D89F1C,0,0,0,40,0,1509.1000000000931,37,1,566.7999999998137,0,0,experiment,NA,NA,1,0.3,0.7,3,2,172,4,NA
fcp-trial,207,1333885,0.0-182.0-0.0,voc_e2,11721,"[{""event"":""fullscreenenter"",""trial"":1,""time"":11749}]",NA,NA,NA,NA,NA,4,#D8271C,#741CD8,0,0,1,40,0,1595.6000000000931,39,0,739.8999999999069,0,0,experiment,NA,NA,0,0.9,0.1,0,1,173,4,NA
fcp-trial,208,1336493,0.0-183.0-0.0,voc_e2,11721,"[{""event"":""fullscreenenter"",""trial"":1,""time"":11749}]",NA,NA,NA,NA,NA,1,#3386FF,#D89F1C,0,10,0,38,1,775.7999999998137,39,0,315.70000000018626,10,1,experiment,NA,NA,1,0.3,0.7,3,2,174,4,NA
fcp-trial,209,1339405,0.0-184.0-0.0,voc_e2,11721,"[{""event"":""fullscreenenter"",""trial"":1,""time"":11749}]",NA,NA,NA,NA,NA,5,#FA92F8,#1CD855,0,10,0,40,0,910.5,37,1,479.10000000009313,0,0,experiment,NA,NA,2,0.5,0.5,5,4,175,4,NA
fcp-trial,210,1342171,0.0-185.0-0.0,voc_e2,11721,"[{""event"":""fullscreenenter"",""trial"":1,""time"":11749}]",NA,NA,NA,NA,NA,5,#741CD8,#D8271C,0,10,0,40,0,744.8999999999069,39,0,502.39999999990687,10,1,experiment,NA,NA,0,0.1,0.9,1,0,176,4,NA
fcp-trial,211,1344860,0.0-186.0-0.0,voc_e2,11721,"[{""event"":""fullscreenenter"",""trial"":1,""time"":11749}]",NA,NA,NA,NA,NA,4,#3386FF,#D89F1C,0,10,0,40,0,502.39999999990687,39,0,655.8999999999069,10,1,experiment,NA,NA,1,0.3,0.7,3,2,177,4,NA
fcp-trial,212,1347615,0.0-187.0-0.0,voc_e2,11721,"[{""event"":""fullscreenenter"",""trial"":1,""time"":11749}]",NA,NA,NA,NA,NA,1,#D8271C,#741CD8,10,0,1,38,1,856,37,1,371.70000000018626,10,1,experiment,NA,NA,0,0.9,0.1,0,1,178,4,NA
fcp-trial,213,1351804,0.0-188.0-0.0,voc_e2,11721,"[{""event"":""fullscreenenter"",""trial"":1,""time"":11749}]",NA,NA,NA,NA,NA,3,#3386FF,#D89F1C,10,10,0,38,1,2334.600000000093,39,0,347.20000000018626,10,1,experiment,NA,NA,1,0.3,0.7,3,2,179,4,NA
fcp-trial,214,1355887,0.0-189.0-0.0,voc_e2,11721,"[{""event"":""fullscreenenter"",""trial"":1,""time"":11749}]",NA,NA,NA,NA,NA,2,#1CD855,#FA92F8,10,10,1,38,1,2005.6000000000931,39,0,567.6000000000931,10,0,experiment,NA,NA,2,0.5,0.5,4,5,180,4,NA
fcp-trial,215,1359239,0.0-190.0-0.0,voc_e2,11721,"[{""event"":""fullscreenenter"",""trial"":1,""time"":11749}]",NA,NA,NA,NA,NA,6,#D89F1C,#3386FF,10,10,1,38,1,808.1999999997206,37,1,1019.6000000000932,10,1,experiment,NA,NA,1,0.7,0.3,2,3,181,5,NA
fcp-trial,216,1362112,0.0-191.0-0.0,voc_e2,11721,"[{""event"":""fullscreenenter"",""trial"":1,""time"":11749}]",NA,NA,NA,NA,NA,6,#741CD8,#D8271C,0,10,0,40,0,956.1000000000931,39,0,394.89999999990687,10,1,experiment,NA,NA,0,0.1,0.9,1,0,182,5,NA
fcp-trial,217,1364915,0.0-192.0-0.0,voc_e2,11721,"[{""event"":""fullscreenenter"",""trial"":1,""time"":11749}]",NA,NA,NA,NA,NA,2,#741CD8,#D8271C,0,10,0,38,1,903.8000000002794,39,0,393.5,10,1,experiment,NA,NA,0,0.1,0.9,1,0,183,5,NA
fcp-trial,218,1367798,0.0-193.0-0.0,voc_e2,11721,"[{""event"":""fullscreenenter"",""trial"":1,""time"":11749}]",NA,NA,NA,NA,NA,0,#FA92F8,#1CD855,10,0,0,38,1,962.8999999999069,37,1,408.39999999990687,10,0,experiment,NA,NA,2,0.5,0.5,5,4,184,5,NA
fcp-trial,219,1370870,0.0-194.0-0.0,voc_e2,11721,"[{""event"":""fullscreenenter"",""trial"":1,""time"":11749}]",NA,NA,NA,NA,NA,0,#741CD8,#D8271C,0,10,0,38,1,1120.1000000000931,39,0,439.1999999997206,10,1,experiment,NA,NA,0,0.1,0.9,1,0,185,5,NA
fcp-trial,220,1373799,0.0-195.0-0.0,voc_e2,11721,"[{""event"":""fullscreenenter"",""trial"":1,""time"":11749}]",NA,NA,NA,NA,NA,0,#3386FF,#D89F1C,0,10,0,38,1,1013.5,39,0,377.89999999990687,10,1,experiment,NA,NA,1,0.3,0.7,3,2,186,5,NA
fcp-trial,221,1376800,0.0-196.0-0.0,voc_e2,11721,"[{""event"":""fullscreenenter"",""trial"":1,""time"":11749}]",NA,NA,NA,NA,NA,1,#1CD855,#FA92F8,10,10,1,38,1,1106.7999999998137,39,0,384,10,0,experiment,NA,NA,2,0.5,0.5,4,5,187,5,NA
fcp-trial,222,1380334,0.0-197.0-0.0,voc_e2,11721,"[{""event"":""fullscreenenter"",""trial"":1,""time"":11749}]",NA,NA,NA,NA,NA,6,#1CD855,#FA92F8,0,0,1,40,0,1324,37,1,699.1999999997206,0,1,experiment,NA,NA,2,0.5,0.5,4,5,188,5,NA
fcp-trial,223,1385432,0.0-198.0-0.0,voc_e2,11721,"[{""event"":""fullscreenenter"",""trial"":1,""time"":11749}]",NA,NA,NA,NA,NA,4,#1CD855,#FA92F8,10,10,1,40,0,1058.8999999999069,39,0,2531.899999999907,10,0,experiment,NA,NA,2,0.5,0.5,4,5,189,5,NA
fcp-trial,224,1389885,0.0-199.0-0.0,voc_e2,11721,"[{""event"":""fullscreenenter"",""trial"":1,""time"":11749}]",NA,NA,NA,NA,NA,5,#FA92F8,#1CD855,0,10,0,40,0,2341.3000000002794,39,0,603,10,1,experiment,NA,NA,2,0.5,0.5,5,4,190,5,NA
fcp-trial,225,1393419,0.0-200.0-0.0,voc_e2,11721,"[{""event"":""fullscreenenter"",""trial"":1,""time"":11749}]",NA,NA,NA,NA,NA,2,#3386FF,#D89F1C,10,10,0,38,1,1570.1000000000931,39,0,454.39999999990687,10,1,experiment,NA,NA,1,0.3,0.7,3,2,191,5,NA
fcp-trial,226,1396513,0.0-201.0-0.0,voc_e2,11721,"[{""event"":""fullscreenenter"",""trial"":1,""time"":11749}]",NA,NA,NA,NA,NA,6,#D89F1C,#3386FF,10,10,1,40,0,1025.6000000000931,37,1,542.2000000001863,10,1,experiment,NA,NA,1,0.7,0.3,2,3,192,5,NA
fcp-trial,227,1399478,0.0-202.0-0.0,voc_e2,11721,"[{""event"":""fullscreenenter"",""trial"":1,""time"":11749}]",NA,NA,NA,NA,NA,4,#FA92F8,#1CD855,0,10,0,40,0,797.3000000002794,37,1,660.2000000001863,0,0,experiment,NA,NA,2,0.5,0.5,5,4,193,5,NA
fcp-trial,228,1402078,0.0-203.0-0.0,voc_e2,11721,"[{""event"":""fullscreenenter"",""trial"":1,""time"":11749}]",NA,NA,NA,NA,NA,6,#D8271C,#741CD8,10,0,1,40,0,617.8999999999069,37,1,474.89999999990687,10,1,experiment,NA,NA,0,0.9,0.1,0,1,194,5,NA
fcp-trial,229,1405020,0.0-204.0-0.0,voc_e2,11721,"[{""event"":""fullscreenenter"",""trial"":1,""time"":11749}]",NA,NA,NA,NA,NA,0,#3386FF,#D89F1C,0,10,0,38,1,1131,39,0,305.70000000018626,10,1,experiment,NA,NA,1,0.3,0.7,3,2,195,5,NA
fcp-trial,230,1408481,0.0-205.0-0.0,voc_e2,11721,"[{""event"":""fullscreenenter"",""trial"":1,""time"":11749}]",NA,NA,NA,NA,NA,0,#FA92F8,#1CD855,10,10,0,38,1,1119.1999999997206,37,1,819.5999999996275,10,0,experiment,NA,NA,2,0.5,0.5,5,4,196,5,NA
fcp-trial,231,1411445,0.0-206.0-0.0,voc_e2,11721,"[{""event"":""fullscreenenter"",""trial"":1,""time"":11749}]",NA,NA,NA,NA,NA,3,#741CD8,#D8271C,0,10,0,38,1,1086.3999999999069,39,0,370.79999999981374,10,1,experiment,NA,NA,0,0.1,0.9,1,0,197,5,NA
fcp-trial,232,1414149,0.0-207.0-0.0,voc_e2,11721,"[{""event"":""fullscreenenter"",""trial"":1,""time"":11749}]",NA,NA,NA,NA,NA,1,#3386FF,#D89F1C,0,10,0,38,1,770.5,39,0,426.29999999981374,10,1,experiment,NA,NA,1,0.3,0.7,3,2,198,5,NA
fcp-trial,233,1420388,0.0-208.0-0.0,voc_e2,11721,"[{""event"":""fullscreenenter"",""trial"":1,""time"":11749}]",NA,NA,NA,NA,NA,2,#741CD8,#D8271C,10,10,0,38,1,4315.800000000279,39,0,414.89999999990687,10,1,experiment,NA,NA,0,0.1,0.9,1,0,199,5,NA
fcp-trial,234,1423314,0.0-209.0-0.0,voc_e2,11721,"[{""event"":""fullscreenenter"",""trial"":1,""time"":11749}]",NA,NA,NA,NA,NA,5,#741CD8,#D8271C,10,10,0,40,0,923.6999999997206,39,0,475.5,10,1,experiment,NA,NA,0,0.1,0.9,1,0,200,5,NA
fcp-trial,235,1426436,0.0-210.0-0.0,voc_e2,11721,"[{""event"":""fullscreenenter"",""trial"":1,""time"":11749}]",NA,NA,NA,NA,NA,1,#1CD855,#FA92F8,10,10,1,38,1,1135.6999999997206,37,1,478.5,10,1,experiment,NA,NA,2,0.5,0.5,4,5,201,5,NA
fcp-trial,236,1429686,0.0-211.0-0.0,voc_e2,11721,"[{""event"":""fullscreenenter"",""trial"":1,""time"":11749}]",NA,NA,NA,NA,NA,4,#3386FF,#D89F1C,10,10,0,40,0,1289.3999999999069,39,0,430.20000000018626,10,1,experiment,NA,NA,1,0.3,0.7,3,2,202,5,NA
fcp-trial,237,1432647,0.0-212.0-0.0,voc_e2,11721,"[{""event"":""fullscreenenter"",""trial"":1,""time"":11749}]",NA,NA,NA,NA,NA,2,#FA92F8,#1CD855,10,0,0,38,1,948.0999999996275,37,1,478.6999999997206,10,0,experiment,NA,NA,2,0.5,0.5,5,4,203,5,NA
fcp-trial,238,1435613,0.0-213.0-0.0,voc_e2,11721,"[{""event"":""fullscreenenter"",""trial"":1,""time"":11749}]",NA,NA,NA,NA,NA,6,#1CD855,#FA92F8,0,10,1,40,0,758.1999999997206,37,1,698.5,0,1,experiment,NA,NA,2,0.5,0.5,4,5,204,5,NA
fcp-trial,239,1438716,0.0-214.0-0.0,voc_e2,11721,"[{""event"":""fullscreenenter"",""trial"":1,""time"":11749}]",NA,NA,NA,NA,NA,0,#D8271C,#741CD8,10,0,1,38,1,1144,37,1,452.70000000018626,10,1,experiment,NA,NA,0,0.9,0.1,0,1,205,5,NA
fcp-trial,240,1441579,0.0-215.0-0.0,voc_e2,11721,"[{""event"":""fullscreenenter"",""trial"":1,""time"":11749}]",NA,NA,NA,NA,NA,4,#741CD8,#D8271C,0,10,0,40,0,816.5,37,1,540.2000000001863,0,0,experiment,NA,NA,0,0.1,0.9,1,0,206,5,NA
fcp-trial,241,1444612,0.0-216.0-0.0,voc_e2,11721,"[{""event"":""fullscreenenter"",""trial"":1,""time"":11749}]",NA,NA,NA,NA,NA,3,#D89F1C,#3386FF,0,0,1,38,1,1014,37,1,510.0999999996274,0,1,experiment,NA,NA,1,0.7,0.3,2,3,207,5,NA
fcp-trial,242,1447755,0.0-217.0-0.0,voc_e2,11721,"[{""event"":""fullscreenenter"",""trial"":1,""time"":11749}]",NA,NA,NA,NA,NA,5,#D89F1C,#3386FF,10,0,1,40,0,1094,39,0,540.0999999996275,0,0,experiment,NA,NA,1,0.7,0.3,2,3,208,5,NA
fcp-trial,243,1453908,0.0-218.0-0.0,voc_e2,11721,"[{""event"":""fullscreenenter"",""trial"":1,""time"":11749}]",NA,NA,NA,NA,NA,3,#1CD855,#FA92F8,10,10,1,38,1,4136.100000000093,39,0,487.0999999996274,10,0,experiment,NA,NA,2,0.5,0.5,4,5,209,5,NA
fcp-trial,244,1457445,0.0-219.0-0.0,voc_e2,11721,"[{""event"":""fullscreenenter"",""trial"":1,""time"":11749}]",NA,NA,NA,NA,NA,1,#D8271C,#741CD8,10,0,1,38,1,1513.6000000000931,37,1,515.5,10,1,experiment,NA,NA,0,0.9,0.1,0,1,210,5,NA
audio-instructions,245,1882912,0.0-220.0,voc_e2,11721,"[{""event"":""fullscreenenter"",""trial"":1,""time"":11749}]",NA,421031.2000000002,static/audio/pause.wav,NA,0,NA,NA,NA,NA,NA,NA,NA,NA,NA,NA,NA,NA,NA,NA,NA,NA,NA,NA,NA,NA,NA,NA,NA,NA,NA
fcp-trial,246,1888136,0.0-221.0-0.0,voc_e2,11721,"[{""event"":""fullscreenenter"",""trial"":1,""time"":11749}]",NA,NA,NA,NA,NA,3,#741CD8,#D8271C,0,10,0,38,1,2713.600000000093,39,0,989.3999999999068,10,1,experiment,NA,NA,0,0.1,0.9,1,0,211,5,NA
fcp-trial,247,1890894,0.0-222.0-0.0,voc_e2,11721,"[{""event"":""fullscreenenter"",""trial"":1,""time"":11749}]",NA,NA,NA,NA,NA,2,#D8271C,#741CD8,10,0,1,38,1,880.8999999999069,37,1,357.60000000009313,10,1,experiment,NA,NA,0,0.9,0.1,0,1,212,5,NA
fcp-trial,248,1894446,0.0-223.0-0.0,voc_e2,11721,"[{""event"":""fullscreenenter"",""trial"":1,""time"":11749}]",NA,NA,NA,NA,NA,0,#3386FF,#D89F1C,0,10,0,38,1,1090.8999999999069,39,0,949.8999999999068,10,1,experiment,NA,NA,1,0.3,0.7,3,2,213,5,NA
fcp-trial,249,1897292,0.0-224.0-0.0,voc_e2,11721,"[{""event"":""fullscreenenter"",""trial"":1,""time"":11749}]",NA,NA,NA,NA,NA,3,#1CD855,#FA92F8,0,10,1,38,1,988.7000000001863,39,0,343.10000000009313,10,0,experiment,NA,NA,2,0.5,0.5,4,5,214,5,NA
fcp-trial,250,1900097,0.0-225.0-0.0,voc_e2,11721,"[{""event"":""fullscreenenter"",""trial"":1,""time"":11749}]",NA,NA,NA,NA,NA,6,#1CD855,#FA92F8,0,10,1,38,1,815.7000000001863,39,0,482.6999999997206,10,0,experiment,NA,NA,2,0.5,0.5,4,5,215,5,NA
fcp-trial,251,1903147,0.0-226.0-0.0,voc_e2,11721,"[{""event"":""fullscreenenter"",""trial"":1,""time"":11749}]",NA,NA,NA,NA,NA,1,#741CD8,#D8271C,0,10,0,38,1,1191.2999999998137,39,0,349,10,1,experiment,NA,NA,0,0.1,0.9,1,0,216,5,NA
fcp-trial,252,1906264,0.0-227.0-0.0,voc_e2,11721,"[{""event"":""fullscreenenter"",""trial"":1,""time"":11749}]",NA,NA,NA,NA,NA,0,#1CD855,#FA92F8,10,10,1,38,1,805.7000000001863,39,0,778.0999999996275,10,0,experiment,NA,NA,2,0.5,0.5,4,5,217,5,NA
fcp-trial,253,1909470,0.0-228.0-0.0,voc_e2,11721,"[{""event"":""fullscreenenter"",""trial"":1,""time"":11749}]",NA,NA,NA,NA,NA,5,#D89F1C,#3386FF,10,10,1,40,0,1111.6000000000931,39,0,556.5,10,0,experiment,NA,NA,1,0.7,0.3,2,3,218,5,NA
fcp-trial,254,1913410,0.0-229.0-0.0,voc_e2,11721,"[{""event"":""fullscreenenter"",""trial"":1,""time"":11749}]",NA,NA,NA,NA,NA,4,#741CD8,#D8271C,0,10,0,40,0,1751.9000000003725,37,1,671.7000000001863,0,0,experiment,NA,NA,0,0.1,0.9,1,0,219,5,NA
fcp-trial,255,1917937,0.0-230.0-0.0,voc_e2,11721,"[{""event"":""fullscreenenter"",""trial"":1,""time"":11749}]",NA,NA,NA,NA,NA,4,#1CD855,#FA92F8,0,10,1,40,0,2213.899999999907,37,1,804.2000000001863,0,1,experiment,NA,NA,2,0.5,0.5,4,5,220,5,NA
fcp-trial,256,1921185,0.0-231.0-0.0,voc_e2,11721,"[{""event"":""fullscreenenter"",""trial"":1,""time"":11749}]",NA,NA,NA,NA,NA,1,#3386FF,#D89F1C,0,10,0,38,1,1247.8000000002794,39,0,475.20000000018626,10,1,experiment,NA,NA,1,0.3,0.7,3,2,221,5,NA
fcp-trial,257,1923982,0.0-232.0-0.0,voc_e2,11721,"[{""event"":""fullscreenenter"",""trial"":1,""time"":11749}]",NA,NA,NA,NA,NA,6,#741CD8,#D8271C,0,10,0,40,0,765.7000000001863,37,1,503.1999999997206,0,0,experiment,NA,NA,0,0.1,0.9,1,0,222,5,NA
fcp-trial,258,1927063,0.0-233.0-0.0,voc_e2,11721,"[{""event"":""fullscreenenter"",""trial"":1,""time"":11749}]",NA,NA,NA,NA,NA,4,#D89F1C,#3386FF,10,0,1,40,0,1007.0999999996275,37,1,551.6999999997206,10,1,experiment,NA,NA,1,0.7,0.3,2,3,223,5,NA
fcp-trial,259,1930097,0.0-234.0-0.0,voc_e2,11721,"[{""event"":""fullscreenenter"",""trial"":1,""time"":11749}]",NA,NA,NA,NA,NA,5,#FA92F8,#1CD855,10,0,0,40,0,624.7999999998137,39,0,880.3000000002794,0,1,experiment,NA,NA,2,0.5,0.5,5,4,224,5,NA
fcp-trial,260,1932745,0.0-235.0-0.0,voc_e2,11721,"[{""event"":""fullscreenenter"",""trial"":1,""time"":11749}]",NA,NA,NA,NA,NA,2,#1CD855,#FA92F8,0,0,1,38,1,785.5,39,0,341.09999999962747,0,0,experiment,NA,NA,2,0.5,0.5,4,5,225,5,NA
fcp-trial,261,1935731,0.0-236.0-0.0,voc_e2,11721,"[{""event"":""fullscreenenter"",""trial"":1,""time"":11749}]",NA,NA,NA,NA,NA,0,#741CD8,#D8271C,0,10,0,38,1,1130.8000000002794,39,0,345.60000000009313,10,1,experiment,NA,NA,0,0.1,0.9,1,0,226,6,NA
fcp-trial,262,1938897,0.0-237.0-0.0,voc_e2,11721,"[{""event"":""fullscreenenter"",""trial"":1,""time"":11749}]",NA,NA,NA,NA,NA,1,#1CD855,#FA92F8,0,10,1,38,1,1121.8999999999069,39,0,502.89999999990687,10,0,experiment,NA,NA,2,0.5,0.5,4,5,227,6,NA
fcp-trial,263,1942025,0.0-238.0-0.0,voc_e2,11721,"[{""event"":""fullscreenenter"",""trial"":1,""time"":11749}]",NA,NA,NA,NA,NA,2,#D89F1C,#3386FF,10,0,1,38,1,1007.5,37,1,597.1999999997206,10,1,experiment,NA,NA,1,0.7,0.3,2,3,228,6,NA
fcp-trial,264,1945876,0.0-239.0-0.0,voc_e2,11721,"[{""event"":""fullscreenenter"",""trial"":1,""time"":11749}]",NA,NA,NA,NA,NA,3,#3386FF,#D89F1C,0,10,0,38,1,1947.8000000002794,39,0,388,10,1,experiment,NA,NA,1,0.3,0.7,3,2,229,6,NA
fcp-trial,265,1948881,0.0-240.0-0.0,voc_e2,11721,"[{""event"":""fullscreenenter"",""trial"":1,""time"":11749}]",NA,NA,NA,NA,NA,6,#3386FF,#D89F1C,10,10,0,40,0,911.7999999998137,39,0,583.3999999999069,10,1,experiment,NA,NA,1,0.3,0.7,3,2,230,6,NA
fcp-trial,266,1951951,0.0-241.0-0.0,voc_e2,11721,"[{""event"":""fullscreenenter"",""trial"":1,""time"":11749}]",NA,NA,NA,NA,NA,5,#741CD8,#D8271C,0,0,0,40,0,1059.6000000000931,37,1,480.79999999981374,0,0,experiment,NA,NA,0,0.1,0.9,1,0,231,6,NA
fcp-trial,267,1954862,0.0-242.0-0.0,voc_e2,11721,"[{""event"":""fullscreenenter"",""trial"":1,""time"":11749}]",NA,NA,NA,NA,NA,6,#FA92F8,#1CD855,0,10,0,40,0,927.6000000000931,39,0,450.89999999990687,10,1,experiment,NA,NA,2,0.5,0.5,5,4,232,6,NA
fcp-trial,268,1957942,0.0-243.0-0.0,voc_e2,11721,"[{""event"":""fullscreenenter"",""trial"":1,""time"":11749}]",NA,NA,NA,NA,NA,3,#1CD855,#FA92F8,0,10,1,38,1,1234.7000000001863,39,0,316.40000000037253,10,0,experiment,NA,NA,2,0.5,0.5,4,5,233,6,NA
fcp-trial,269,1960754,0.0-244.0-0.0,voc_e2,11721,"[{""event"":""fullscreenenter"",""trial"":1,""time"":11749}]",NA,NA,NA,NA,NA,5,#3386FF,#D89F1C,0,0,0,40,0,969.3999999999069,39,0,317.89999999990687,0,1,experiment,NA,NA,1,0.3,0.7,3,2,234,6,NA
fcp-trial,270,1963916,0.0-245.0-0.0,voc_e2,11721,"[{""event"":""fullscreenenter"",""trial"":1,""time"":11749}]",NA,NA,NA,NA,NA,0,#1CD855,#FA92F8,10,10,1,38,1,1005.8999999999069,39,0,624,10,0,experiment,NA,NA,2,0.5,0.5,4,5,235,6,NA
fcp-trial,271,1967715,0.0-246.0-0.0,voc_e2,11721,"[{""event"":""fullscreenenter"",""trial"":1,""time"":11749}]",NA,NA,NA,NA,NA,2,#D8271C,#741CD8,0,0,1,38,1,1240,37,1,1033.3999999999069,0,1,experiment,NA,NA,0,0.9,0.1,0,1,236,6,NA
fcp-trial,272,1970516,0.0-247.0-0.0,voc_e2,11721,"[{""event"":""fullscreenenter"",""trial"":1,""time"":11749}]",NA,NA,NA,NA,NA,2,#3386FF,#D89F1C,0,10,0,38,1,891.5,39,0,385.10000000009313,10,1,experiment,NA,NA,1,0.3,0.7,3,2,237,6,NA
fcp-trial,273,1973693,0.0-248.0-0.0,voc_e2,11721,"[{""event"":""fullscreenenter"",""trial"":1,""time"":11749}]",NA,NA,NA,NA,NA,1,#D89F1C,#3386FF,10,10,1,38,1,1206.2000000001863,37,1,447.39999999990687,10,1,experiment,NA,NA,1,0.7,0.3,2,3,238,6,NA
fcp-trial,274,1977372,0.0-249.0-0.0,voc_e2,11721,"[{""event"":""fullscreenenter"",""trial"":1,""time"":11749}]",NA,NA,NA,NA,NA,4,#1CD855,#FA92F8,10,10,1,40,0,1243.6000000000931,37,1,926.3000000002794,10,1,experiment,NA,NA,2,0.5,0.5,4,5,239,6,NA
fcp-trial,275,1980429,0.0-250.0-0.0,voc_e2,11721,"[{""event"":""fullscreenenter"",""trial"":1,""time"":11749}]",NA,NA,NA,NA,NA,0,#D8271C,#741CD8,10,0,1,38,1,1139.2000000001863,37,1,404.39999999990687,10,1,experiment,NA,NA,0,0.9,0.1,0,1,240,6,NA
fcp-trial,276,1986693,0.0-251.0-0.0,voc_e2,11721,"[{""event"":""fullscreenenter"",""trial"":1,""time"":11749}]",NA,NA,NA,NA,NA,3,#D8271C,#741CD8,10,0,1,38,1,1063.2999999998137,37,1,3668,10,1,experiment,NA,NA,0,0.9,0.1,0,1,241,6,NA
fcp-trial,277,1989938,0.0-252.0-0.0,voc_e2,11721,"[{""event"":""fullscreenenter"",""trial"":1,""time"":11749}]",NA,NA,NA,NA,NA,6,#D89F1C,#3386FF,10,0,1,40,0,1059.7000000001863,39,0,658.6999999997206,0,0,experiment,NA,NA,1,0.7,0.3,2,3,242,6,NA
fcp-trial,278,1993263,0.0-253.0-0.0,voc_e2,11721,"[{""event"":""fullscreenenter"",""trial"":1,""time"":11749}]",NA,NA,NA,NA,NA,4,#D89F1C,#3386FF,0,10,1,40,0,766,39,0,1049.3999999999069,10,0,experiment,NA,NA,1,0.7,0.3,2,3,243,6,NA
fcp-trial,279,1996454,0.0-254.0-0.0,voc_e2,11721,"[{""event"":""fullscreenenter"",""trial"":1,""time"":11749}]",NA,NA,NA,NA,NA,5,#FA92F8,#1CD855,0,0,0,40,0,1116.5,39,0,551.7999999998137,0,1,experiment,NA,NA,2,0.5,0.5,5,4,244,6,NA
fcp-trial,280,2000177,0.0-255.0-0.0,voc_e2,11721,"[{""event"":""fullscreenenter"",""trial"":1,""time"":11749}]",NA,NA,NA,NA,NA,2,#FA92F8,#1CD855,10,0,0,38,1,1194.6000000000931,37,1,1018.6000000000932,10,0,experiment,NA,NA,2,0.5,0.5,5,4,245,6,NA
fcp-trial,281,2003111,0.0-256.0-0.0,voc_e2,11721,"[{""event"":""fullscreenenter"",""trial"":1,""time"":11749}]",NA,NA,NA,NA,NA,6,#D8271C,#741CD8,10,10,1,40,0,954,39,0,447.60000000009313,10,0,experiment,NA,NA,0,0.9,0.1,0,1,246,6,NA
fcp-trial,282,2005925,0.0-257.0-0.0,voc_e2,11721,"[{""event"":""fullscreenenter"",""trial"":1,""time"":11749}]",NA,NA,NA,NA,NA,0,#3386FF,#D89F1C,0,0,0,38,1,957.5,39,0,345.89999999990687,0,1,experiment,NA,NA,1,0.3,0.7,3,2,247,6,NA
fcp-trial,283,2009057,0.0-258.0-0.0,voc_e2,11721,"[{""event"":""fullscreenenter"",""trial"":1,""time"":11749}]",NA,NA,NA,NA,NA,1,#1CD855,#FA92F8,10,10,1,38,1,1156.5999999996275,39,0,450.39999999990687,10,0,experiment,NA,NA,2,0.5,0.5,4,5,248,6,NA
fcp-trial,284,2011870,0.0-259.0-0.0,voc_e2,11721,"[{""event"":""fullscreenenter"",""trial"":1,""time"":11749}]",NA,NA,NA,NA,NA,1,#D8271C,#741CD8,10,0,1,38,1,772.8999999999069,37,1,528.2999999998137,10,1,experiment,NA,NA,0,0.9,0.1,0,1,249,6,NA
fcp-trial,285,2014675,0.0-260.0-0.0,voc_e2,11721,"[{""event"":""fullscreenenter"",""trial"":1,""time"":11749}]",NA,NA,NA,NA,NA,3,#3386FF,#D89F1C,0,0,0,38,1,907.3999999999069,39,0,385.0999999996274,0,1,experiment,NA,NA,1,0.3,0.7,3,2,250,6,NA
fcp-trial,286,2017776,0.0-261.0-0.0,voc_e2,11721,"[{""event"":""fullscreenenter"",""trial"":1,""time"":11749}]",NA,NA,NA,NA,NA,5,#741CD8,#D8271C,0,10,0,40,0,1036.4000000003725,39,0,551.1000000000931,10,1,experiment,NA,NA,0,0.1,0.9,1,0,251,6,NA
fcp-trial,287,2020642,0.0-262.0-0.0,voc_e2,11721,"[{""event"":""fullscreenenter"",""trial"":1,""time"":11749}]",NA,NA,NA,NA,NA,4,#D8271C,#741CD8,10,0,1,40,0,823.8999999999069,39,0,514.1999999997206,0,0,experiment,NA,NA,0,0.9,0.1,0,1,252,6,NA
fcp-trial,288,2023621,0.0-263.0-0.0,voc_e2,11721,"[{""event"":""fullscreenenter"",""trial"":1,""time"":11749}]",NA,NA,NA,NA,NA,6,#1CD855,#FA92F8,10,0,1,40,0,861.6000000000931,39,0,607.3000000002794,0,0,experiment,NA,NA,2,0.5,0.5,4,5,253,6,NA
fcp-trial,289,2027439,0.0-264.0-0.0,voc_e2,11721,"[{""event"":""fullscreenenter"",""trial"":1,""time"":11749}]",NA,NA,NA,NA,NA,5,#D8271C,#741CD8,10,0,1,40,0,1907.6000000000931,39,0,398.29999999981374,0,0,experiment,NA,NA,0,0.9,0.1,0,1,254,6,NA
fcp-trial,290,2030503,0.0-265.0-0.0,voc_e2,11721,"[{""event"":""fullscreenenter"",""trial"":1,""time"":11749}]",NA,NA,NA,NA,NA,3,#1CD855,#FA92F8,0,10,1,40,0,914.5,39,0,641.5,10,0,experiment,NA,NA,2,0.5,0.5,4,5,255,6,NA
fcp-trial,291,2033398,0.0-266.0-0.0,voc_e2,11721,"[{""event"":""fullscreenenter"",""trial"":1,""time"":11749}]",NA,NA,NA,NA,NA,6,#D8271C,#741CD8,10,0,1,40,0,831.5,39,0,554.5,0,0,experiment,NA,NA,0,0.9,0.1,0,1,256,6,NA
fcp-trial,292,2036093,0.0-267.0-0.0,voc_e2,11721,"[{""event"":""fullscreenenter"",""trial"":1,""time"":11749}]",NA,NA,NA,NA,NA,3,#3386FF,#D89F1C,10,10,0,38,1,855.5,39,0,320.5,10,1,experiment,NA,NA,1,0.3,0.7,3,2,257,6,NA
fcp-trial,293,2039040,0.0-268.0-0.0,voc_e2,11721,"[{""event"":""fullscreenenter"",""trial"":1,""time"":11749}]",NA,NA,NA,NA,NA,0,#FA92F8,#1CD855,10,0,0,38,1,809.0999999996275,39,0,612.1000000000931,0,1,experiment,NA,NA,2,0.5,0.5,5,4,258,6,NA
fcp-trial,294,2042608,0.0-269.0-0.0,voc_e2,11721,"[{""event"":""fullscreenenter"",""trial"":1,""time"":11749}]",NA,NA,NA,NA,NA,5,#FA92F8,#1CD855,0,10,0,40,0,1126.2000000001863,37,1,932.8999999999068,0,0,experiment,NA,NA,2,0.5,0.5,5,4,259,6,NA
fcp-trial,295,2046543,0.0-270.0-0.0,voc_e2,11721,"[{""event"":""fullscreenenter"",""trial"":1,""time"":11749}]",NA,NA,NA,NA,NA,5,#D89F1C,#3386FF,10,10,1,40,0,1967.1999999997206,37,1,461.70000000018626,10,1,experiment,NA,NA,1,0.7,0.3,2,3,260,6,NA
fcp-trial,296,2051154,0.0-271.0-0.0,voc_e2,11721,"[{""event"":""fullscreenenter"",""trial"":1,""time"":11749}]",NA,NA,NA,NA,NA,3,#D8271C,#741CD8,10,0,1,38,1,2482.899999999907,37,1,578,10,1,experiment,NA,NA,0,0.9,0.1,0,1,261,6,NA
fcp-trial,297,2054965,0.0-272.0-0.0,voc_e2,11721,"[{""event"":""fullscreenenter"",""trial"":1,""time"":11749}]",NA,NA,NA,NA,NA,2,#D8271C,#741CD8,0,0,1,38,1,1794.1000000000931,37,1,506.39999999990687,0,1,experiment,NA,NA,0,0.9,0.1,0,1,262,6,NA
fcp-trial,298,2059557,0.0-273.0-0.0,voc_e2,11721,"[{""event"":""fullscreenenter"",""trial"":1,""time"":11749}]",NA,NA,NA,NA,NA,2,#FA92F8,#1CD855,0,10,0,38,1,2467.9000000003725,37,1,600.4000000003725,0,0,experiment,NA,NA,2,0.5,0.5,5,4,263,6,NA
fcp-trial,299,2062276,0.0-274.0-0.0,voc_e2,11721,"[{""event"":""fullscreenenter"",""trial"":1,""time"":11749}]",NA,NA,NA,NA,NA,1,#3386FF,#D89F1C,0,10,0,38,1,805.2999999998137,39,0,403.60000000009313,10,1,experiment,NA,NA,1,0.3,0.7,3,2,264,6,NA
fcp-trial,300,2065374,0.0-275.0-0.0,voc_e2,11721,"[{""event"":""fullscreenenter"",""trial"":1,""time"":11749}]",NA,NA,NA,NA,NA,4,#D89F1C,#3386FF,10,0,1,38,1,1116.1000000000931,37,1,451,10,1,experiment,NA,NA,1,0.7,0.3,2,3,265,6,NA
fcp-trial,301,2068656,0.0-276.0-0.0,voc_e2,11721,"[{""event"":""fullscreenenter"",""trial"":1,""time"":11749}]",NA,NA,NA,NA,NA,1,#1CD855,#FA92F8,10,0,1,38,1,1286.5,39,0,466.79999999981374,0,0,experiment,NA,NA,2,0.5,0.5,4,5,266,6,NA
fcp-trial,302,2071554,0.0-277.0-0.0,voc_e2,11721,"[{""event"":""fullscreenenter"",""trial"":1,""time"":11749}]",NA,NA,NA,NA,NA,1,#741CD8,#D8271C,0,10,0,38,1,927.7000000001863,39,0,458.5,10,1,experiment,NA,NA,0,0.1,0.9,1,0,267,6,NA
fcp-trial,303,2074369,0.0-278.0-0.0,voc_e2,11721,"[{""event"":""fullscreenenter"",""trial"":1,""time"":11749}]",NA,NA,NA,NA,NA,2,#D89F1C,#3386FF,10,10,1,38,1,950.4000000003725,37,1,355.89999999990687,10,1,experiment,NA,NA,1,0.7,0.3,2,3,268,6,NA
fcp-trial,304,2077170,0.0-279.0-0.0,voc_e2,11721,"[{""event"":""fullscreenenter"",""trial"":1,""time"":11749}]",NA,NA,NA,NA,NA,0,#741CD8,#D8271C,0,10,0,38,1,843.3999999999069,39,0,450,10,1,experiment,NA,NA,0,0.1,0.9,1,0,269,6,NA
fcp-trial,305,2079796,0.0-280.0-0.0,voc_e2,11721,"[{""event"":""fullscreenenter"",""trial"":1,""time"":11749}]",NA,NA,NA,NA,NA,4,#FA92F8,#1CD855,0,10,0,38,1,465.29999999981374,37,1,653.5999999996275,0,0,experiment,NA,NA,2,0.5,0.5,5,4,270,6,NA
fcp-trial,306,2082939,0.0-281.0-0.0,voc_e2,11721,"[{""event"":""fullscreenenter"",""trial"":1,""time"":11749}]",NA,NA,NA,NA,NA,4,#741CD8,#D8271C,0,10,0,38,1,1078.6999999997206,39,0,542.5,10,1,experiment,NA,NA,0,0.1,0.9,1,0,271,7,NA
fcp-trial,307,2085586,0.0-282.0-0.0,voc_e2,11721,"[{""event"":""fullscreenenter"",""trial"":1,""time"":11749}]",NA,NA,NA,NA,NA,0,#D89F1C,#3386FF,0,0,1,38,1,819.3000000002794,37,1,318.39999999990687,0,1,experiment,NA,NA,1,0.7,0.3,2,3,272,7,NA
fcp-trial,308,2088318,0.0-283.0-0.0,voc_e2,11721,"[{""event"":""fullscreenenter"",""trial"":1,""time"":11749}]",NA,NA,NA,NA,NA,6,#D89F1C,#3386FF,10,0,1,40,0,861.2999999998137,37,1,362.60000000009313,10,1,experiment,NA,NA,1,0.7,0.3,2,3,273,7,NA
fcp-trial,309,2091268,0.0-284.0-0.0,voc_e2,11721,"[{""event"":""fullscreenenter"",""trial"":1,""time"":11749}]",NA,NA,NA,NA,NA,3,#D8271C,#741CD8,10,0,1,38,1,1055.8000000002794,37,1,381.5999999996274,10,1,experiment,NA,NA,0,0.9,0.1,0,1,274,7,NA
fcp-trial,310,2093945,0.0-285.0-0.0,voc_e2,11721,"[{""event"":""fullscreenenter"",""trial"":1,""time"":11749}]",NA,NA,NA,NA,NA,4,#741CD8,#D8271C,0,10,0,40,0,850.1999999997206,39,0,318.6999999997206,10,1,experiment,NA,NA,0,0.1,0.9,1,0,275,7,NA
fcp-trial,311,2096905,0.0-286.0-0.0,voc_e2,11721,"[{""event"":""fullscreenenter"",""trial"":1,""time"":11749}]",NA,NA,NA,NA,NA,2,#FA92F8,#1CD855,10,0,0,38,1,1073.8999999999069,37,1,359.10000000009313,10,0,experiment,NA,NA,2,0.5,0.5,5,4,276,7,NA
fcp-trial,312,2100255,0.0-287.0-0.0,voc_e2,11721,"[{""event"":""fullscreenenter"",""trial"":1,""time"":11749}]",NA,NA,NA,NA,NA,3,#1CD855,#FA92F8,0,0,1,40,0,1291,39,0,551.7999999998137,0,0,experiment,NA,NA,2,0.5,0.5,4,5,277,7,NA
fcp-trial,313,2106255,0.0-288.0-0.0,voc_e2,11721,"[{""event"":""fullscreenenter"",""trial"":1,""time"":11749}]",NA,NA,NA,NA,NA,6,#3386FF,#D89F1C,0,10,0,40,0,2871.600000000093,37,1,1617.5,0,0,experiment,NA,NA,1,0.3,0.7,3,2,278,7,NA
fcp-trial,314,2109302,0.0-289.0-0.0,voc_e2,11721,"[{""event"":""fullscreenenter"",""trial"":1,""time"":11749}]",NA,NA,NA,NA,NA,0,#D8271C,#741CD8,10,0,1,38,1,1071.2999999998137,37,1,465.1999999997206,10,1,experiment,NA,NA,0,0.9,0.1,0,1,279,7,NA
fcp-trial,315,2112222,0.0-290.0-0.0,voc_e2,11721,"[{""event"":""fullscreenenter"",""trial"":1,""time"":11749}]",NA,NA,NA,NA,NA,0,#3386FF,#D89F1C,0,0,0,38,1,1139.2999999998137,39,0,266.89999999990687,0,1,experiment,NA,NA,1,0.3,0.7,3,2,280,7,NA
fcp-trial,316,2116186,0.0-291.0-0.0,voc_e2,11721,"[{""event"":""fullscreenenter"",""trial"":1,""time"":11749}]",NA,NA,NA,NA,NA,0,#1CD855,#FA92F8,10,10,1,38,1,1545.1999999997206,39,0,898.6000000000931,10,0,experiment,NA,NA,2,0.5,0.5,4,5,281,7,NA
fcp-trial,317,2119353,0.0-292.0-0.0,voc_e2,11721,"[{""event"":""fullscreenenter"",""trial"":1,""time"":11749}]",NA,NA,NA,NA,NA,5,#1CD855,#FA92F8,0,0,1,40,0,1120.5,37,1,534.8999999999069,0,1,experiment,NA,NA,2,0.5,0.5,4,5,282,7,NA
fcp-trial,318,2122069,0.0-293.0-0.0,voc_e2,11721,"[{""event"":""fullscreenenter"",""trial"":1,""time"":11749}]",NA,NA,NA,NA,NA,4,#D89F1C,#3386FF,10,0,1,40,0,750.0999999996275,37,1,456.89999999990687,10,1,experiment,NA,NA,1,0.7,0.3,2,3,283,7,NA
fcp-trial,319,2124718,0.0-294.0-0.0,voc_e2,11721,"[{""event"":""fullscreenenter"",""trial"":1,""time"":11749}]",NA,NA,NA,NA,NA,1,#741CD8,#D8271C,0,10,0,38,1,810.6999999997206,39,0,326.89999999990687,10,1,experiment,NA,NA,0,0.1,0.9,1,0,284,7,NA
fcp-trial,320,2127717,0.0-295.0-0.0,voc_e2,11721,"[{""event"":""fullscreenenter"",""trial"":1,""time"":11749}]",NA,NA,NA,NA,NA,6,#1CD855,#FA92F8,0,10,1,40,0,831.1999999997206,39,0,654.6999999997206,10,0,experiment,NA,NA,2,0.5,0.5,4,5,285,7,NA
fcp-trial,321,2130323,0.0-296.0-0.0,voc_e2,11721,"[{""event"":""fullscreenenter"",""trial"":1,""time"":11749}]",NA,NA,NA,NA,NA,1,#3386FF,#D89F1C,0,10,0,38,1,727.1000000000931,39,0,369.6999999997206,10,1,experiment,NA,NA,1,0.3,0.7,3,2,286,7,NA
fcp-trial,322,2133119,0.0-297.0-0.0,voc_e2,11721,"[{""event"":""fullscreenenter"",""trial"":1,""time"":11749}]",NA,NA,NA,NA,NA,6,#D8271C,#741CD8,0,10,1,40,0,812,39,0,453.29999999981374,10,0,experiment,NA,NA,0,0.9,0.1,0,1,287,7,NA
fcp-trial,323,2136253,0.0-298.0-0.0,voc_e2,11721,"[{""event"":""fullscreenenter"",""trial"":1,""time"":11749}]",NA,NA,NA,NA,NA,3,#3386FF,#D89F1C,0,10,0,38,1,1029.8999999999069,39,0,593.8999999999069,10,1,experiment,NA,NA,1,0.3,0.7,3,2,288,7,NA
fcp-trial,324,2139332,0.0-299.0-0.0,voc_e2,11721,"[{""event"":""fullscreenenter"",""trial"":1,""time"":11749}]",NA,NA,NA,NA,NA,4,#1CD855,#FA92F8,10,10,1,38,1,1186.1000000000931,39,0,382.8000000002794,10,0,experiment,NA,NA,2,0.5,0.5,4,5,289,7,NA
fcp-trial,325,2142376,0.0-300.0-0.0,voc_e2,11721,"[{""event"":""fullscreenenter"",""trial"":1,""time"":11749}]",NA,NA,NA,NA,NA,5,#3386FF,#D89F1C,0,10,0,40,0,709.8999999999069,37,1,824.5999999996275,0,0,experiment,NA,NA,1,0.3,0.7,3,2,290,7,NA
fcp-trial,326,2145423,0.0-301.0-0.0,voc_e2,11721,"[{""event"":""fullscreenenter"",""trial"":1,""time"":11749}]",NA,NA,NA,NA,NA,1,#1CD855,#FA92F8,10,0,1,38,1,1128.1000000000931,39,0,402.29999999981374,0,0,experiment,NA,NA,2,0.5,0.5,4,5,291,7,NA
fcp-trial,327,2148232,0.0-302.0-0.0,voc_e2,11721,"[{""event"":""fullscreenenter"",""trial"":1,""time"":11749}]",NA,NA,NA,NA,NA,5,#D8271C,#741CD8,0,0,1,40,0,811,39,0,470.5,0,0,experiment,NA,NA,0,0.9,0.1,0,1,292,7,NA
fcp-trial,328,2151116,0.0-303.0-0.0,voc_e2,11721,"[{""event"":""fullscreenenter"",""trial"":1,""time"":11749}]",NA,NA,NA,NA,NA,2,#741CD8,#D8271C,0,10,0,38,1,1075.5,39,0,299.79999999981374,10,1,experiment,NA,NA,0,0.1,0.9,1,0,293,7,NA
fcp-trial,329,2154985,0.0-304.0-0.0,voc_e2,11721,"[{""event"":""fullscreenenter"",""trial"":1,""time"":11749}]",NA,NA,NA,NA,NA,2,#3386FF,#D89F1C,0,10,0,40,0,704.8999999999069,37,1,1650.5,0,0,experiment,NA,NA,1,0.3,0.7,3,2,294,7,NA
fcp-trial,330,2160482,0.0-305.0-0.0,voc_e2,11721,"[{""event"":""fullscreenenter"",""trial"":1,""time"":11749}]",NA,NA,NA,NA,NA,0,#D89F1C,#3386FF,0,0,1,38,1,3263.3000000002794,37,1,722.1999999997206,0,1,experiment,NA,NA,1,0.7,0.3,2,3,295,7,NA
fcp-trial,331,2163685,0.0-306.0-0.0,voc_e2,11721,"[{""event"":""fullscreenenter"",""trial"":1,""time"":11749}]",NA,NA,NA,NA,NA,1,#D8271C,#741CD8,10,0,1,38,1,1242,37,1,450.10000000009313,10,1,experiment,NA,NA,0,0.9,0.1,0,1,296,7,NA
fcp-trial,332,2166419,0.0-307.0-0.0,voc_e2,11721,"[{""event"":""fullscreenenter"",""trial"":1,""time"":11749}]",NA,NA,NA,NA,NA,4,#3386FF,#D89F1C,10,10,0,38,1,848.2000000001863,39,0,378.89999999990687,10,1,experiment,NA,NA,1,0.3,0.7,3,2,297,7,NA
fcp-trial,333,2169434,0.0-308.0-0.0,voc_e2,11721,"[{""event"":""fullscreenenter"",""trial"":1,""time"":11749}]",NA,NA,NA,NA,NA,5,#1CD855,#FA92F8,0,0,1,38,1,937.8999999999069,39,0,547.1000000000931,0,0,experiment,NA,NA,2,0.5,0.5,4,5,298,7,NA
fcp-trial,334,2172947,0.0-309.0-0.0,voc_e2,11721,"[{""event"":""fullscreenenter"",""trial"":1,""time"":11749}]",NA,NA,NA,NA,NA,3,#1CD855,#FA92F8,10,0,1,38,1,1260.7999999998137,39,0,735.8000000002794,0,0,experiment,NA,NA,2,0.5,0.5,4,5,299,7,NA
fcp-trial,335,2176008,0.0-310.0-0.0,voc_e2,11721,"[{""event"":""fullscreenenter"",""trial"":1,""time"":11749}]",NA,NA,NA,NA,NA,2,#D89F1C,#3386FF,10,0,1,38,1,1129.1000000000931,37,1,406.5,10,1,experiment,NA,NA,1,0.7,0.3,2,3,300,7,NA
fcp-trial,336,2179352,0.0-311.0-0.0,voc_e2,11721,"[{""event"":""fullscreenenter"",""trial"":1,""time"":11749}]",NA,NA,NA,NA,NA,3,#741CD8,#D8271C,0,10,0,38,1,1480,39,0,348.20000000018626,10,1,experiment,NA,NA,0,0.1,0.9,1,0,301,7,NA
fcp-trial,337,2182336,0.0-312.0-0.0,voc_e2,11721,"[{""event"":""fullscreenenter"",""trial"":1,""time"":11749}]",NA,NA,NA,NA,NA,1,#FA92F8,#1CD855,10,10,0,38,1,732.5,37,1,702.3999999999069,10,0,experiment,NA,NA,2,0.5,0.5,5,4,302,7,NA
fcp-trial,338,2185423,0.0-313.0-0.0,voc_e2,11721,"[{""event"":""fullscreenenter"",""trial"":1,""time"":11749}]",NA,NA,NA,NA,NA,6,#D89F1C,#3386FF,10,0,1,40,0,1104.3999999999069,39,0,472.60000000009313,0,0,experiment,NA,NA,1,0.7,0.3,2,3,303,7,NA
fcp-trial,339,2188687,0.0-314.0-0.0,voc_e2,11721,"[{""event"":""fullscreenenter"",""trial"":1,""time"":11749}]",NA,NA,NA,NA,NA,4,#D8271C,#741CD8,10,0,1,40,0,1128.8999999999069,39,0,609.6000000000931,0,0,experiment,NA,NA,0,0.9,0.1,0,1,304,7,NA
fcp-trial,340,2191652,0.0-315.0-0.0,voc_e2,11721,"[{""event"":""fullscreenenter"",""trial"":1,""time"":11749}]",NA,NA,NA,NA,NA,4,#FA92F8,#1CD855,0,10,0,40,0,935.7999999998137,37,1,501.60000000009313,0,0,experiment,NA,NA,2,0.5,0.5,5,4,305,7,NA
fcp-trial,341,2194347,0.0-316.0-0.0,voc_e2,11721,"[{""event"":""fullscreenenter"",""trial"":1,""time"":11749}]",NA,NA,NA,NA,NA,1,#3386FF,#D89F1C,10,10,0,38,1,757.1000000000931,39,0,411.0999999996274,10,1,experiment,NA,NA,1,0.3,0.7,3,2,306,7,NA
fcp-trial,342,2197115,0.0-317.0-0.0,voc_e2,11721,"[{""event"":""fullscreenenter"",""trial"":1,""time"":11749}]",NA,NA,NA,NA,NA,6,#741CD8,#D8271C,0,10,0,40,0,799.8999999999069,39,0,460.20000000018626,10,1,experiment,NA,NA,0,0.1,0.9,1,0,307,7,NA
fcp-trial,343,2200344,0.0-318.0-0.0,voc_e2,11721,"[{""event"":""fullscreenenter"",""trial"":1,""time"":11749}]",NA,NA,NA,NA,NA,2,#741CD8,#D8271C,0,10,0,38,1,1361.6000000000931,39,0,358.89999999990687,10,1,experiment,NA,NA,0,0.1,0.9,1,0,308,7,NA
fcp-trial,344,2203274,0.0-319.0-0.0,voc_e2,11721,"[{""event"":""fullscreenenter"",""trial"":1,""time"":11749}]",NA,NA,NA,NA,NA,6,#1CD855,#FA92F8,0,10,1,40,0,896.5,37,1,524.5,0,1,experiment,NA,NA,2,0.5,0.5,4,5,309,7,NA
fcp-trial,345,2206123,0.0-320.0-0.0,voc_e2,11721,"[{""event"":""fullscreenenter"",""trial"":1,""time"":11749}]",NA,NA,NA,NA,NA,2,#1CD855,#FA92F8,0,10,1,38,1,1014.6999999997206,39,0,317.10000000009313,10,0,experiment,NA,NA,2,0.5,0.5,4,5,310,7,NA
fcp-trial,346,2209043,0.0-321.0-0.0,voc_e2,11721,"[{""event"":""fullscreenenter"",""trial"":1,""time"":11749}]",NA,NA,NA,NA,NA,5,#3386FF,#D89F1C,0,10,0,40,0,976.1000000000931,39,0,419.1999999997206,10,1,experiment,NA,NA,1,0.3,0.7,3,2,311,7,NA
fcp-trial,347,2211717,0.0-322.0-0.0,voc_e2,11721,"[{""event"":""fullscreenenter"",""trial"":1,""time"":11749}]",NA,NA,NA,NA,NA,5,#D8271C,#741CD8,10,0,1,40,0,647.3000000002794,39,0,497.79999999981374,0,0,experiment,NA,NA,0,0.9,0.1,0,1,312,7,NA
fcp-trial,348,2214396,0.0-323.0-0.0,voc_e2,11721,"[{""event"":""fullscreenenter"",""trial"":1,""time"":11749}]",NA,NA,NA,NA,NA,0,#FA92F8,#1CD855,0,10,0,38,1,814.8999999999069,37,1,355.39999999990687,0,0,experiment,NA,NA,2,0.5,0.5,5,4,313,7,NA
fcp-trial,349,2217423,0.0-324.0-0.0,voc_e2,11721,"[{""event"":""fullscreenenter"",""trial"":1,""time"":11749}]",NA,NA,NA,NA,NA,3,#D89F1C,#3386FF,10,10,1,40,0,921.4000000003725,37,1,593,10,1,experiment,NA,NA,1,0.7,0.3,2,3,314,7,NA
fcp-trial,350,2220680,0.0-325.0-0.0,voc_e2,11721,"[{""event"":""fullscreenenter"",""trial"":1,""time"":11749}]",NA,NA,NA,NA,NA,0,#741CD8,#D8271C,0,10,0,38,1,1255,37,1,482.60000000009313,0,0,experiment,NA,NA,0,0.1,0.9,1,0,315,7,NA
audio-instructions,351,2228849,0.0-326.0,voc_e2,11721,"[{""event"":""fullscreenenter"",""trial"":1,""time"":11749}]",NA,2542.6999999997206,static/audio/finished.wav,NA,0,NA,NA,NA,NA,NA,NA,NA,NA,NA,NA,NA,NA,NA,NA,NA,NA,NA,NA,NA,NA,NA,NA,NA,NA,NA
audio-instructions,352,2240331,0.0-327.0-0.0,voc_e2,11721,"[{""event"":""fullscreenenter"",""trial"":1,""time"":11749}]",NA,648.0999999996275,static/audio/explicit1.wav,NA,0,NA,NA,NA,NA,NA,NA,NA,NA,NA,NA,NA,NA,NA,NA,NA,NA,NA,NA,NA,NA,NA,NA,NA,NA,NA
audio-instructions,353,2249014,0.0-327.0-1.0,voc_e2,11721,"[{""event"":""fullscreenenter"",""trial"":1,""time"":11749}]",NA,1085.6999999997206,static/audio/explicit2.wav,NA,0,NA,NA,NA,NA,NA,NA,NA,NA,NA,NA,NA,NA,NA,NA,NA,NA,NA,NA,NA,NA,NA,NA,NA,NA,NA
image-slider-response,354,2267610,0.0-328.0,voc_e2,11721,"[{""event"":""fullscreenenter"",""trial"":1,""time"":11749}]",NA,18580.100000000093,static/img/machines/machine2.png,NA,NA,NA,NA,NA,NA,NA,NA,NA,NA,NA,NA,NA,NA,NA,NA,explicit,NA,NA,NA,NA,NA,NA,NA,NA,NA,3
image-slider-response,355,2287031,0.0-329.0,voc_e2,11721,"[{""event"":""fullscreenenter"",""trial"":1,""time"":11749}]",NA,19415.599999999627,static/img/machines/machine6.png,NA,NA,NA,NA,NA,NA,NA,NA,NA,NA,NA,NA,NA,NA,NA,NA,explicit,NA,NA,NA,NA,NA,NA,NA,NA,NA,7
image-slider-response,356,2293656,0.0-330.0,voc_e2,11721,"[{""event"":""fullscreenenter"",""trial"":1,""time"":11749}]",NA,6619.9000000003725,static/img/machines/machine1.png,NA,NA,NA,NA,NA,NA,NA,NA,NA,NA,NA,NA,NA,NA,NA,NA,explicit,NA,NA,NA,NA,NA,NA,NA,NA,NA,7
image-slider-response,357,2296497,0.0-331.0,voc_e2,11721,"[{""event"":""fullscreenenter"",""trial"":1,""time"":11749}]",NA,2834.600000000093,static/img/machines/machine4.png,NA,NA,NA,NA,NA,NA,NA,NA,NA,NA,NA,NA,NA,NA,NA,NA,explicit,NA,NA,NA,NA,NA,NA,NA,NA,NA,7
image-slider-response,358,2299359,0.0-332.0,voc_e2,11721,"[{""event"":""fullscreenenter"",""trial"":1,""time"":11749}]",NA,2856.7000000001863,static/img/machines/machine3.png,NA,NA,NA,NA,NA,NA,NA,NA,NA,NA,NA,NA,NA,NA,NA,NA,explicit,NA,NA,NA,NA,NA,NA,NA,NA,NA,3
image-slider-response,359,2303972,0.0-333.0,voc_e2,11721,"[{""event"":""fullscreenenter"",""trial"":1,""time"":11749}]",NA,4606.5,static/img/machines/machine5.png,NA,NA,NA,NA,NA,NA,NA,NA,NA,NA,NA,NA,NA,NA,NA,NA,explicit,NA,NA,NA,NA,NA,NA,NA,NA,NA,3
