trial_type,trial_index,time_elapsed,internal_node_id,task_version,subject_id,interactions,success,rt,stimulus,key_press,button_pressed,offer,arcade_color_L,arcade_color_R,arcade_outcome_L,arcade_outcome_R,correct,stage_1_key,stage_1_choice,stage_1_rt,stage_2_key,stage_2_choice,stage_2_rt,stage_3_outcome,accuracy,phase,responses,num_errors,context,reward_prob_L,reward_prob_R,arcade_id_L,arcade_id_R,trial,block,response
pavlovia,0,6,0.0-0.0,voc_e2,12112,[],NA,NA,NA,NA,NA,NA,NA,NA,NA,NA,NA,NA,NA,NA,NA,NA,NA,NA,NA,NA,NA,NA,NA,NA,NA,NA,NA,NA,NA,NA
fullscreen,1,8728,0.0-1.0,voc_e2,12112,"[{""event"":""fullscreenenter"",""trial"":1,""time"":7736}]",TRUE,NA,NA,NA,NA,NA,NA,NA,NA,NA,NA,NA,NA,NA,NA,NA,NA,NA,NA,NA,NA,NA,NA,NA,NA,NA,NA,NA,NA,NA
audio-keyboard-response,2,11356,0.0-2.0,voc_e2,12112,"[{""event"":""fullscreenenter"",""trial"":1,""time"":7736}]",NA,2600,static/audio/beep_loop.wav,32,NA,NA,NA,NA,NA,NA,NA,NA,NA,NA,NA,NA,NA,NA,NA,NA,NA,NA,NA,NA,NA,NA,NA,NA,NA,NA
audio-test,3,13008,0.0-3.0,voc_e2,12112,"[{""event"":""fullscreenenter"",""trial"":1,""time"":7736}]",NA,NA,static/audio/turtle.wav,NA,3,NA,NA,NA,NA,NA,NA,NA,NA,NA,NA,NA,NA,NA,NA,NA,NA,NA,NA,NA,NA,NA,NA,NA,NA,NA
audio-test,4,14975,0.0-4.0,voc_e2,12112,"[{""event"":""fullscreenenter"",""trial"":1,""time"":7736}]",NA,NA,static/audio/shark.wav,NA,2,NA,NA,NA,NA,NA,NA,NA,NA,NA,NA,NA,NA,NA,NA,NA,NA,NA,NA,NA,NA,NA,NA,NA,NA,NA
audio-instructions,5,23417,0.0-5.0-0.0,voc_e2,12112,"[{""event"":""fullscreenenter"",""trial"":1,""time"":7736}]",NA,2653.29999999702,static/audio/instructions1.wav,NA,0,NA,NA,NA,NA,NA,NA,NA,NA,NA,NA,NA,NA,NA,NA,NA,NA,NA,NA,NA,NA,NA,NA,NA,NA,NA
audio-instructions,6,34156,0.0-5.0-1.0,voc_e2,12112,"[{""event"":""fullscreenenter"",""trial"":1,""time"":7736}]",NA,3992.20000000298,static/audio/instructions2.wav,NA,0,NA,NA,NA,NA,NA,NA,NA,NA,NA,NA,NA,NA,NA,NA,NA,NA,NA,NA,NA,NA,NA,NA,NA,NA,NA
audio-instructions,7,67873,0.0-5.0-2.0,voc_e2,12112,"[{""event"":""fullscreenenter"",""trial"":1,""time"":7736}]",NA,27908.90000000596,static/audio/instructions3.wav,NA,0,NA,NA,NA,NA,NA,NA,NA,NA,NA,NA,NA,NA,NA,NA,NA,NA,NA,NA,NA,NA,NA,NA,NA,NA,NA
audio-instructions,8,87319,0.0-5.0-3.0,voc_e2,12112,"[{""event"":""fullscreenenter"",""trial"":1,""time"":7736}]",NA,6216,static/audio/instructions4.wav,NA,0,NA,NA,NA,NA,NA,NA,NA,NA,NA,NA,NA,NA,NA,NA,NA,NA,NA,NA,NA,NA,NA,NA,NA,NA,NA
audio-instructions,9,117023,0.0-5.0-4.0,voc_e2,12112,"[{""event"":""fullscreenenter"",""trial"":1,""time"":7736}]",NA,20319.69999998808,static/audio/instructions5.wav,NA,0,NA,NA,NA,NA,NA,NA,NA,NA,NA,NA,NA,NA,NA,NA,NA,NA,NA,NA,NA,NA,NA,NA,NA,NA,NA
fcp-practice,10,119958,0.0-5.0-5.0-0.0,voc_e2,12112,"[{""event"":""fullscreenenter"",""trial"":1,""time"":7736}]",NA,NA,NA,NA,NA,NA,#EDC948,#46d3c8,10,0,1,null,null,null,37,1,1428.0999999940395,10,1,practice,NA,NA,NA,NA,NA,NA,NA,NA,NA,NA
fcp-practice,11,146240,0.0-5.0-5.0-1.0,voc_e2,12112,"[{""event"":""fullscreenenter"",""trial"":1,""time"":7736}]",NA,NA,NA,NA,NA,NA,#EDC948,#46d3c8,10,0,1,null,null,null,37,1,24779.59999999404,10,1,practice,NA,NA,NA,NA,NA,NA,NA,NA,NA,NA
fcp-practice,12,156090,0.0-5.0-5.0-2.0,voc_e2,12112,"[{""event"":""fullscreenenter"",""trial"":1,""time"":7736}]",NA,NA,NA,NA,NA,NA,#EDC948,#46d3c8,0,10,1,null,null,null,37,1,8346.10000000894,0,1,practice,NA,NA,NA,NA,NA,NA,NA,NA,NA,NA
fcp-practice,13,158029,0.0-5.0-5.0-3.0,voc_e2,12112,"[{""event"":""fullscreenenter"",""trial"":1,""time"":7736}]",NA,NA,NA,NA,NA,NA,#EDC948,#46d3c8,10,0,1,null,null,null,37,1,435.29999999701977,10,1,practice,NA,NA,NA,NA,NA,NA,NA,NA,NA,NA
fcp-practice,14,164577,0.0-5.0-5.0-4.0,voc_e2,12112,"[{""event"":""fullscreenenter"",""trial"":1,""time"":7736}]",NA,NA,NA,NA,NA,NA,#EDC948,#46d3c8,10,0,1,null,null,null,37,1,5045.5,10,1,practice,NA,NA,NA,NA,NA,NA,NA,NA,NA,NA
audio-instructions,15,204145,0.0-5.0-6.0,voc_e2,12112,"[{""event"":""fullscreenenter"",""trial"":1,""time"":7736}]",NA,21546.20000000298,static/audio/instructions6.wav,NA,0,NA,NA,NA,NA,NA,NA,NA,NA,NA,NA,NA,NA,NA,NA,NA,NA,NA,NA,NA,NA,NA,NA,NA,NA,NA
audio-instructions,16,224515,0.0-5.0-7.0,voc_e2,12112,"[{""event"":""fullscreenenter"",""trial"":1,""time"":7736}]",NA,1175.2000000029802,static/audio/instructions7.wav,NA,0,NA,NA,NA,NA,NA,NA,NA,NA,NA,NA,NA,NA,NA,NA,NA,NA,NA,NA,NA,NA,NA,NA,NA,NA,NA
audio-instructions,17,245121,0.0-5.0-8.0,voc_e2,12112,"[{""event"":""fullscreenenter"",""trial"":1,""time"":7736}]",NA,11142.20000000298,static/audio/instructions8.wav,NA,0,NA,NA,NA,NA,NA,NA,NA,NA,NA,NA,NA,NA,NA,NA,NA,NA,NA,NA,NA,NA,NA,NA,NA,NA,NA
fcp-comprehension,18,251390,0.0-5.0-9.0,voc_e2,12112,"[{""event"":""fullscreenenter"",""trial"":1,""time"":7736}]",NA,6267.600000008941,NA,NA,NA,NA,NA,NA,NA,NA,NA,NA,NA,NA,NA,NA,NA,NA,NA,NA,"true,true",0,NA,NA,NA,NA,NA,NA,NA,NA
audio-instructions,19,259786,0.0-6.0-0.0,voc_e2,12112,"[{""event"":""fullscreenenter"",""trial"":1,""time"":7736}]",NA,2846.29999999702,static/audio/instructions9.wav,NA,0,NA,NA,NA,NA,NA,NA,NA,NA,NA,NA,NA,NA,NA,NA,NA,NA,NA,NA,NA,NA,NA,NA,NA,NA,NA
audio-instructions,20,275244,0.0-6.0-1.0,voc_e2,12112,"[{""event"":""fullscreenenter"",""trial"":1,""time"":7736}]",NA,3344.3999999910593,static/audio/instructions10.wav,NA,0,NA,NA,NA,NA,NA,NA,NA,NA,NA,NA,NA,NA,NA,NA,NA,NA,NA,NA,NA,NA,NA,NA,NA,NA,NA
fcp-trial,21,290248,0.0-6.0-2.0,voc_e2,12112,"[{""event"":""fullscreenenter"",""trial"":1,""time"":7736}]",NA,NA,NA,NA,NA,0,#EDC948,#46d3c8,10,10,1,null,null,null,null,null,null,NA,0,practice,NA,NA,NA,NA,NA,NA,NA,NA,NA,NA
audio-instructions,22,302788,0.0-6.0-3.0,voc_e2,12112,"[{""event"":""fullscreenenter"",""trial"":1,""time"":7736}]",NA,1538.7999999970198,static/audio/instructions11.wav,NA,0,NA,NA,NA,NA,NA,NA,NA,NA,NA,NA,NA,NA,NA,NA,NA,NA,NA,NA,NA,NA,NA,NA,NA,NA,NA
fcp-trial,23,307933,0.0-6.0-4.0,voc_e2,12112,"[{""event"":""fullscreenenter"",""trial"":1,""time"":7736}]",NA,NA,NA,NA,NA,6,#EDC948,#46d3c8,10,10,1,40,0,2629.7000000029802,37,1,1011,10,1,practice,NA,NA,NA,NA,NA,NA,NA,NA,NA,NA
audio-instructions,24,332990,0.0-6.0-5.0,voc_e2,12112,"[{""event"":""fullscreenenter"",""trial"":1,""time"":7736}]",NA,6371.4000000059605,static/audio/instructions12.wav,NA,0,NA,NA,NA,NA,NA,NA,NA,NA,NA,NA,NA,NA,NA,NA,NA,NA,NA,NA,NA,NA,NA,NA,NA,NA,NA
audio-instructions,25,356862,0.0-6.0-6.0,voc_e2,12112,"[{""event"":""fullscreenenter"",""trial"":1,""time"":7736}]",NA,16273.40000000596,static/audio/instructions13.wav,NA,0,NA,NA,NA,NA,NA,NA,NA,NA,NA,NA,NA,NA,NA,NA,NA,NA,NA,NA,NA,NA,NA,NA,NA,NA,NA
audio-instructions,26,369176,0.0-6.0-7.0,voc_e2,12112,"[{""event"":""fullscreenenter"",""trial"":1,""time"":7736}]",NA,3867.1000000089407,static/audio/instructions14.wav,NA,0,NA,NA,NA,NA,NA,NA,NA,NA,NA,NA,NA,NA,NA,NA,NA,NA,NA,NA,NA,NA,NA,NA,NA,NA,NA
audio-instructions,27,377787,0.0-7.0-0.0,voc_e2,12112,"[{""event"":""fullscreenenter"",""trial"":1,""time"":7736}]",NA,1697.7999999970198,static/audio/instructions15.wav,NA,0,NA,NA,NA,NA,NA,NA,NA,NA,NA,NA,NA,NA,NA,NA,NA,NA,NA,NA,NA,NA,NA,NA,NA,NA,NA
audio-instructions,28,385760,0.0-7.0-1.0,voc_e2,12112,"[{""event"":""fullscreenenter"",""trial"":1,""time"":7736}]",NA,1151.0999999940395,static/audio/instructions16.wav,NA,0,NA,NA,NA,NA,NA,NA,NA,NA,NA,NA,NA,NA,NA,NA,NA,NA,NA,NA,NA,NA,NA,NA,NA,NA,NA
audio-instructions,29,395804,0.0-7.0-2.0,voc_e2,12112,"[{""event"":""fullscreenenter"",""trial"":1,""time"":7736}]",NA,2365,static/audio/instructions17.wav,NA,0,NA,NA,NA,NA,NA,NA,NA,NA,NA,NA,NA,NA,NA,NA,NA,NA,NA,NA,NA,NA,NA,NA,NA,NA,NA
audio-instructions,30,412848,0.0-7.0-3.0,voc_e2,12112,"[{""event"":""fullscreenenter"",""trial"":1,""time"":7736}]",NA,9279.5,static/audio/instructions18.wav,NA,0,NA,NA,NA,NA,NA,NA,NA,NA,NA,NA,NA,NA,NA,NA,NA,NA,NA,NA,NA,NA,NA,NA,NA,NA,NA
audio-instructions,31,420331,0.0-7.0-4.0,voc_e2,12112,"[{""event"":""fullscreenenter"",""trial"":1,""time"":7736}]",NA,733.1000000089407,static/audio/instructions19.wav,NA,0,NA,NA,NA,NA,NA,NA,NA,NA,NA,NA,NA,NA,NA,NA,NA,NA,NA,NA,NA,NA,NA,NA,NA,NA,NA
fcp-comprehension,32,437648,0.0-7.0-5.0,voc_e2,12112,"[{""event"":""fullscreenenter"",""trial"":1,""time"":7736}]",NA,17315.5,NA,NA,NA,NA,NA,NA,NA,NA,NA,NA,NA,NA,NA,NA,NA,NA,NA,NA,"false,false,false,true",0,NA,NA,NA,NA,NA,NA,NA,NA
audio-instructions,33,449472,0.0-8.0,voc_e2,12112,"[{""event"":""fullscreenenter"",""trial"":1,""time"":7736}]",NA,2603.3999999910593,static/audio/ready.wav,NA,0,NA,NA,NA,NA,NA,NA,NA,NA,NA,NA,NA,NA,NA,NA,NA,NA,NA,NA,NA,NA,NA,NA,NA,NA,NA
fcp-trial,34,454812,0.0-9.0-0.0,voc_e2,12112,"[{""event"":""fullscreenenter"",""trial"":1,""time"":7736}]",NA,NA,NA,NA,NA,0,#D89F1C,#3386FF,10,0,1,38,1,2640.0999999940395,39,0,1194.1000000089407,0,0,experiment,NA,NA,1,0.7,0.3,2,3,1,1,NA
fcp-trial,35,459042,0.0-10.0-0.0,voc_e2,12112,"[{""event"":""fullscreenenter"",""trial"":1,""time"":7736}]",NA,NA,NA,NA,NA,2,#D8271C,#741CD8,0,10,0,38,1,1915.4000000059605,37,1,808.1000000089407,0,0,experiment,NA,NA,2,0.5,0.5,5,4,2,1,NA
fcp-trial,36,464559,0.0-11.0-0.0,voc_e2,12112,"[{""event"":""fullscreenenter"",""trial"":1,""time"":7736},{""event"":""blur"",""trial"":36,""time"":459290},{""event"":""focus"",""trial"":36,""time"":461104},{""event"":""blur"",""trial"":36,""time"":464141}]",NA,NA,NA,NA,NA,3,#D89F1C,#3386FF,10,0,1,38,1,2795.4000000059605,39,0,1214.4000000059605,0,0,experiment,NA,NA,1,0.7,0.3,2,3,3,1,NA
fcp-trial,37,469147,0.0-12.0-0.0,voc_e2,12112,"[{""event"":""fullscreenenter"",""trial"":1,""time"":7736},{""event"":""blur"",""trial"":36,""time"":459290},{""event"":""focus"",""trial"":36,""time"":461104},{""event"":""blur"",""trial"":36,""time"":464141},{""event"":""focus"",""trial"":37,""time"":465909}]",NA,NA,NA,NA,NA,5,#FA92F8,#1CD855,10,0,1,40,0,2258,37,1,824,10,1,experiment,NA,NA,0,0.9,0.1,0,1,4,1,NA
fcp-trial,38,473081,0.0-13.0-0.0,voc_e2,12112,"[{""event"":""fullscreenenter"",""trial"":1,""time"":7736},{""event"":""blur"",""trial"":36,""time"":459290},{""event"":""focus"",""trial"":36,""time"":461104},{""event"":""blur"",""trial"":36,""time"":464141},{""event"":""focus"",""trial"":37,""time"":465909}]",NA,NA,NA,NA,NA,0,#1CD855,#FA92F8,0,10,0,40,0,1526.0999999940395,37,1,903.2999999970198,0,0,experiment,NA,NA,0,0.1,0.9,1,0,5,1,NA
fcp-trial,39,476311,0.0-14.0-0.0,voc_e2,12112,"[{""event"":""fullscreenenter"",""trial"":1,""time"":7736},{""event"":""blur"",""trial"":36,""time"":459290},{""event"":""focus"",""trial"":36,""time"":461104},{""event"":""blur"",""trial"":36,""time"":464141},{""event"":""focus"",""trial"":37,""time"":465909}]",NA,NA,NA,NA,NA,3,#1CD855,#FA92F8,0,0,0,40,0,1236.2999999970198,39,0,486.09999999403954,0,1,experiment,NA,NA,0,0.1,0.9,1,0,6,1,NA
fcp-trial,40,479805,0.0-15.0-0.0,voc_e2,12112,"[{""event"":""fullscreenenter"",""trial"":1,""time"":7736},{""event"":""blur"",""trial"":36,""time"":459290},{""event"":""focus"",""trial"":36,""time"":461104},{""event"":""blur"",""trial"":36,""time"":464141},{""event"":""focus"",""trial"":37,""time"":465909}]",NA,NA,NA,NA,NA,3,#D8271C,#741CD8,0,10,0,38,1,663.5999999940395,37,1,1326.3999999910593,0,0,experiment,NA,NA,2,0.5,0.5,5,4,7,1,NA
fcp-trial,41,482333,0.0-16.0-0.0,voc_e2,12112,"[{""event"":""fullscreenenter"",""trial"":1,""time"":7736},{""event"":""blur"",""trial"":36,""time"":459290},{""event"":""focus"",""trial"":36,""time"":461104},{""event"":""blur"",""trial"":36,""time"":464141},{""event"":""focus"",""trial"":37,""time"":465909}]",NA,NA,NA,NA,NA,1,#3386FF,#D89F1C,0,10,0,38,1,608.5999999940395,37,1,414.1000000089407,0,0,experiment,NA,NA,1,0.3,0.7,3,2,8,1,NA
fcp-trial,42,486046,0.0-17.0-0.0,voc_e2,12112,"[{""event"":""fullscreenenter"",""trial"":1,""time"":7736},{""event"":""blur"",""trial"":36,""time"":459290},{""event"":""focus"",""trial"":36,""time"":461104},{""event"":""blur"",""trial"":36,""time"":464141},{""event"":""focus"",""trial"":37,""time"":465909}]",NA,NA,NA,NA,NA,5,#D8271C,#741CD8,0,10,0,40,0,1459.5999999940395,39,0,750.4000000059605,10,1,experiment,NA,NA,2,0.5,0.5,5,4,9,1,NA
fcp-trial,43,488813,0.0-18.0-0.0,voc_e2,12112,"[{""event"":""fullscreenenter"",""trial"":1,""time"":7736},{""event"":""blur"",""trial"":36,""time"":459290},{""event"":""focus"",""trial"":36,""time"":461104},{""event"":""blur"",""trial"":36,""time"":464141},{""event"":""focus"",""trial"":37,""time"":465909}]",NA,NA,NA,NA,NA,2,#D89F1C,#3386FF,10,0,1,40,0,755.9000000059605,37,1,507.59999999403954,10,1,experiment,NA,NA,1,0.7,0.3,2,3,10,1,NA
fcp-trial,44,491699,0.0-19.0-0.0,voc_e2,12112,"[{""event"":""fullscreenenter"",""trial"":1,""time"":7736},{""event"":""blur"",""trial"":36,""time"":459290},{""event"":""focus"",""trial"":36,""time"":461104},{""event"":""blur"",""trial"":36,""time"":464141},{""event"":""focus"",""trial"":37,""time"":465909}]",NA,NA,NA,NA,NA,6,#1CD855,#FA92F8,10,10,0,40,0,877,37,1,504.90000000596046,10,0,experiment,NA,NA,0,0.1,0.9,1,0,11,1,NA
fcp-trial,45,494838,0.0-20.0-0.0,voc_e2,12112,"[{""event"":""fullscreenenter"",""trial"":1,""time"":7736},{""event"":""blur"",""trial"":36,""time"":459290},{""event"":""focus"",""trial"":36,""time"":461104},{""event"":""blur"",""trial"":36,""time"":464141},{""event"":""focus"",""trial"":37,""time"":465909}]",NA,NA,NA,NA,NA,4,#3386FF,#D89F1C,0,10,0,40,0,1191.2000000029802,39,0,444.5,10,1,experiment,NA,NA,1,0.3,0.7,3,2,12,1,NA
fcp-trial,46,497614,0.0-21.0-0.0,voc_e2,12112,"[{""event"":""fullscreenenter"",""trial"":1,""time"":7736},{""event"":""blur"",""trial"":36,""time"":459290},{""event"":""focus"",""trial"":36,""time"":461104},{""event"":""blur"",""trial"":36,""time"":464141},{""event"":""focus"",""trial"":37,""time"":465909}]",NA,NA,NA,NA,NA,1,#1CD855,#FA92F8,10,10,0,40,0,765.4000000059605,37,1,506,10,0,experiment,NA,NA,0,0.1,0.9,1,0,13,1,NA
fcp-trial,47,500345,0.0-22.0-0.0,voc_e2,12112,"[{""event"":""fullscreenenter"",""trial"":1,""time"":7736},{""event"":""blur"",""trial"":36,""time"":459290},{""event"":""focus"",""trial"":36,""time"":461104},{""event"":""blur"",""trial"":36,""time"":464141},{""event"":""focus"",""trial"":37,""time"":465909}]",NA,NA,NA,NA,NA,1,#741CD8,#D8271C,0,10,1,40,0,568.6000000089407,37,1,658.3999999910593,0,1,experiment,NA,NA,2,0.5,0.5,4,5,14,1,NA
fcp-trial,48,502746,0.0-23.0-0.0,voc_e2,12112,"[{""event"":""fullscreenenter"",""trial"":1,""time"":7736},{""event"":""blur"",""trial"":36,""time"":459290},{""event"":""focus"",""trial"":36,""time"":461104},{""event"":""blur"",""trial"":36,""time"":464141},{""event"":""focus"",""trial"":37,""time"":465909}]",NA,NA,NA,NA,NA,4,#D8271C,#741CD8,0,10,0,40,0,418.40000000596046,39,0,478.40000000596046,10,1,experiment,NA,NA,2,0.5,0.5,5,4,15,1,NA
fcp-trial,49,505411,0.0-24.0-0.0,voc_e2,12112,"[{""event"":""fullscreenenter"",""trial"":1,""time"":7736},{""event"":""blur"",""trial"":36,""time"":459290},{""event"":""focus"",""trial"":36,""time"":461104},{""event"":""blur"",""trial"":36,""time"":464141},{""event"":""focus"",""trial"":37,""time"":465909}]",NA,NA,NA,NA,NA,0,#741CD8,#D8271C,10,10,1,40,0,800.0999999940395,37,1,361.40000000596046,10,1,experiment,NA,NA,2,0.5,0.5,4,5,16,1,NA
fcp-trial,50,507974,0.0-25.0-0.0,voc_e2,12112,"[{""event"":""fullscreenenter"",""trial"":1,""time"":7736},{""event"":""blur"",""trial"":36,""time"":459290},{""event"":""focus"",""trial"":36,""time"":461104},{""event"":""blur"",""trial"":36,""time"":464141},{""event"":""focus"",""trial"":37,""time"":465909}]",NA,NA,NA,NA,NA,5,#D89F1C,#3386FF,10,10,1,40,0,656.7000000029802,39,0,402,10,0,experiment,NA,NA,1,0.7,0.3,2,3,17,1,NA
fcp-trial,51,510173,0.0-26.0-0.0,voc_e2,12112,"[{""event"":""fullscreenenter"",""trial"":1,""time"":7736},{""event"":""blur"",""trial"":36,""time"":459290},{""event"":""focus"",""trial"":36,""time"":461104},{""event"":""blur"",""trial"":36,""time"":464141},{""event"":""focus"",""trial"":37,""time"":465909}]",NA,NA,NA,NA,NA,4,#FA92F8,#1CD855,10,0,1,40,0,264.59999999403954,39,0,429.8999999910593,0,0,experiment,NA,NA,0,0.9,0.1,0,1,18,1,NA
fcp-trial,52,512384,0.0-27.0-0.0,voc_e2,12112,"[{""event"":""fullscreenenter"",""trial"":1,""time"":7736},{""event"":""blur"",""trial"":36,""time"":459290},{""event"":""focus"",""trial"":36,""time"":461104},{""event"":""blur"",""trial"":36,""time"":464141},{""event"":""focus"",""trial"":37,""time"":465909}]",NA,NA,NA,NA,NA,6,#3386FF,#D89F1C,10,10,0,40,0,359.6000000089407,39,0,347.29999999701977,10,1,experiment,NA,NA,1,0.3,0.7,3,2,19,1,NA
fcp-trial,53,515314,0.0-28.0-0.0,voc_e2,12112,"[{""event"":""fullscreenenter"",""trial"":1,""time"":7736},{""event"":""blur"",""trial"":36,""time"":459290},{""event"":""focus"",""trial"":36,""time"":461104},{""event"":""blur"",""trial"":36,""time"":464141},{""event"":""focus"",""trial"":37,""time"":465909}]",NA,NA,NA,NA,NA,2,#FA92F8,#1CD855,10,0,1,40,0,824.9000000059605,39,0,601.4000000059605,0,0,experiment,NA,NA,0,0.9,0.1,0,1,20,1,NA
fcp-trial,54,517555,0.0-29.0-0.0,voc_e2,12112,"[{""event"":""fullscreenenter"",""trial"":1,""time"":7736},{""event"":""blur"",""trial"":36,""time"":459290},{""event"":""focus"",""trial"":36,""time"":461104},{""event"":""blur"",""trial"":36,""time"":464141},{""event"":""focus"",""trial"":37,""time"":465909}]",NA,NA,NA,NA,NA,6,#741CD8,#D8271C,0,0,1,40,0,390.20000000298023,39,0,346.59999999403954,0,0,experiment,NA,NA,2,0.5,0.5,4,5,21,1,NA
fcp-trial,55,520226,0.0-30.0-0.0,voc_e2,12112,"[{""event"":""fullscreenenter"",""trial"":1,""time"":7736},{""event"":""blur"",""trial"":36,""time"":459290},{""event"":""focus"",""trial"":36,""time"":461104},{""event"":""blur"",""trial"":36,""time"":464141},{""event"":""focus"",""trial"":37,""time"":465909}]",NA,NA,NA,NA,NA,5,#3386FF,#D89F1C,10,10,0,38,1,454,37,1,711.3999999910593,10,0,experiment,NA,NA,1,0.3,0.7,3,2,22,1,NA
fcp-trial,56,522934,0.0-31.0-0.0,voc_e2,12112,"[{""event"":""fullscreenenter"",""trial"":1,""time"":7736},{""event"":""blur"",""trial"":36,""time"":459290},{""event"":""focus"",""trial"":36,""time"":461104},{""event"":""blur"",""trial"":36,""time"":464141},{""event"":""focus"",""trial"":37,""time"":465909}]",NA,NA,NA,NA,NA,2,#FA92F8,#1CD855,10,0,1,40,0,800.5,39,0,404.20000000298023,0,0,experiment,NA,NA,0,0.9,0.1,0,1,23,1,NA
fcp-trial,57,526516,0.0-32.0-0.0,voc_e2,12112,"[{""event"":""fullscreenenter"",""trial"":1,""time"":7736},{""event"":""blur"",""trial"":36,""time"":459290},{""event"":""focus"",""trial"":36,""time"":461104},{""event"":""blur"",""trial"":36,""time"":464141},{""event"":""focus"",""trial"":37,""time"":465909}]",NA,NA,NA,NA,NA,0,#3386FF,#D89F1C,0,10,0,38,1,1434.5,37,1,643.8999999910593,0,0,experiment,NA,NA,1,0.3,0.7,3,2,24,1,NA
fcp-trial,58,528886,0.0-33.0-0.0,voc_e2,12112,"[{""event"":""fullscreenenter"",""trial"":1,""time"":7736},{""event"":""blur"",""trial"":36,""time"":459290},{""event"":""focus"",""trial"":36,""time"":461104},{""event"":""blur"",""trial"":36,""time"":464141},{""event"":""focus"",""trial"":37,""time"":465909}]",NA,NA,NA,NA,NA,1,#1CD855,#FA92F8,0,10,0,40,0,488.20000000298023,39,0,378.40000000596046,10,1,experiment,NA,NA,0,0.1,0.9,1,0,25,1,NA
fcp-trial,59,531533,0.0-34.0-0.0,voc_e2,12112,"[{""event"":""fullscreenenter"",""trial"":1,""time"":7736},{""event"":""blur"",""trial"":36,""time"":459290},{""event"":""focus"",""trial"":36,""time"":461104},{""event"":""blur"",""trial"":36,""time"":464141},{""event"":""focus"",""trial"":37,""time"":465909}]",NA,NA,NA,NA,NA,1,#D89F1C,#3386FF,10,0,1,40,0,596.7000000029802,39,0,544.3999999910593,0,0,experiment,NA,NA,1,0.7,0.3,2,3,26,1,NA
fcp-trial,60,533876,0.0-35.0-0.0,voc_e2,12112,"[{""event"":""fullscreenenter"",""trial"":1,""time"":7736},{""event"":""blur"",""trial"":36,""time"":459290},{""event"":""focus"",""trial"":36,""time"":461104},{""event"":""blur"",""trial"":36,""time"":464141},{""event"":""focus"",""trial"":37,""time"":465909}]",NA,NA,NA,NA,NA,6,#D8271C,#741CD8,0,0,0,40,0,397.29999999701977,37,1,442.5,0,0,experiment,NA,NA,2,0.5,0.5,5,4,27,1,NA
fcp-trial,61,536234,0.0-36.0-0.0,voc_e2,12112,"[{""event"":""fullscreenenter"",""trial"":1,""time"":7736},{""event"":""blur"",""trial"":36,""time"":459290},{""event"":""focus"",""trial"":36,""time"":461104},{""event"":""blur"",""trial"":36,""time"":464141},{""event"":""focus"",""trial"":37,""time"":465909}]",NA,NA,NA,NA,NA,4,#FA92F8,#1CD855,10,0,1,40,0,398.5,37,1,456.59999999403954,10,1,experiment,NA,NA,0,0.9,0.1,0,1,28,1,NA
fcp-trial,62,538737,0.0-37.0-0.0,voc_e2,12112,"[{""event"":""fullscreenenter"",""trial"":1,""time"":7736},{""event"":""blur"",""trial"":36,""time"":459290},{""event"":""focus"",""trial"":36,""time"":461104},{""event"":""blur"",""trial"":36,""time"":464141},{""event"":""focus"",""trial"":37,""time"":465909}]",NA,NA,NA,NA,NA,6,#D89F1C,#3386FF,10,10,1,40,0,568.7999999970198,37,1,429,10,1,experiment,NA,NA,1,0.7,0.3,2,3,29,1,NA
fcp-trial,63,541505,0.0-38.0-0.0,voc_e2,12112,"[{""event"":""fullscreenenter"",""trial"":1,""time"":7736},{""event"":""blur"",""trial"":36,""time"":459290},{""event"":""focus"",""trial"":36,""time"":461104},{""event"":""blur"",""trial"":36,""time"":464141},{""event"":""focus"",""trial"":37,""time"":465909}]",NA,NA,NA,NA,NA,4,#D8271C,#741CD8,10,0,0,40,0,547.3999999910593,39,0,715.5,0,1,experiment,NA,NA,2,0.5,0.5,5,4,30,1,NA
fcp-trial,64,544268,0.0-39.0-0.0,voc_e2,12112,"[{""event"":""fullscreenenter"",""trial"":1,""time"":7736},{""event"":""blur"",""trial"":36,""time"":459290},{""event"":""focus"",""trial"":36,""time"":461104},{""event"":""blur"",""trial"":36,""time"":464141},{""event"":""focus"",""trial"":37,""time"":465909}]",NA,NA,NA,NA,NA,0,#FA92F8,#1CD855,10,0,1,40,0,732,37,1,525.5,10,1,experiment,NA,NA,0,0.9,0.1,0,1,31,1,NA
fcp-trial,65,547059,0.0-40.0-0.0,voc_e2,12112,"[{""event"":""fullscreenenter"",""trial"":1,""time"":7736},{""event"":""blur"",""trial"":36,""time"":459290},{""event"":""focus"",""trial"":36,""time"":461104},{""event"":""blur"",""trial"":36,""time"":464141},{""event"":""focus"",""trial"":37,""time"":465909}]",NA,NA,NA,NA,NA,1,#741CD8,#D8271C,10,10,1,40,0,839.7000000029802,39,0,446.1000000089407,10,0,experiment,NA,NA,2,0.5,0.5,4,5,32,1,NA
fcp-trial,66,549507,0.0-41.0-0.0,voc_e2,12112,"[{""event"":""fullscreenenter"",""trial"":1,""time"":7736},{""event"":""blur"",""trial"":36,""time"":459290},{""event"":""focus"",""trial"":36,""time"":461104},{""event"":""blur"",""trial"":36,""time"":464141},{""event"":""focus"",""trial"":37,""time"":465909}]",NA,NA,NA,NA,NA,4,#D89F1C,#3386FF,10,10,1,40,0,513.5,37,1,431.5,10,1,experiment,NA,NA,1,0.7,0.3,2,3,33,1,NA
fcp-trial,67,551892,0.0-42.0-0.0,voc_e2,12112,"[{""event"":""fullscreenenter"",""trial"":1,""time"":7736},{""event"":""blur"",""trial"":36,""time"":459290},{""event"":""focus"",""trial"":36,""time"":461104},{""event"":""blur"",""trial"":36,""time"":464141},{""event"":""focus"",""trial"":37,""time"":465909}]",NA,NA,NA,NA,NA,0,#741CD8,#D8271C,0,10,1,40,0,417.20000000298023,37,1,463.70000000298023,0,1,experiment,NA,NA,2,0.5,0.5,4,5,34,1,NA
fcp-trial,68,554184,0.0-43.0-0.0,voc_e2,12112,"[{""event"":""fullscreenenter"",""trial"":1,""time"":7736},{""event"":""blur"",""trial"":36,""time"":459290},{""event"":""focus"",""trial"":36,""time"":461104},{""event"":""blur"",""trial"":36,""time"":464141},{""event"":""focus"",""trial"":37,""time"":465909}]",NA,NA,NA,NA,NA,3,#D8271C,#741CD8,10,0,0,40,0,316.6000000089407,37,1,471.90000000596046,10,0,experiment,NA,NA,2,0.5,0.5,5,4,35,1,NA
fcp-trial,69,556693,0.0-44.0-0.0,voc_e2,12112,"[{""event"":""fullscreenenter"",""trial"":1,""time"":7736},{""event"":""blur"",""trial"":36,""time"":459290},{""event"":""focus"",""trial"":36,""time"":461104},{""event"":""blur"",""trial"":36,""time"":464141},{""event"":""focus"",""trial"":37,""time"":465909}]",NA,NA,NA,NA,NA,6,#1CD855,#FA92F8,0,10,0,40,0,543.5,37,1,460.59999999403954,0,0,experiment,NA,NA,0,0.1,0.9,1,0,36,1,NA
fcp-trial,70,558997,0.0-45.0-0.0,voc_e2,12112,"[{""event"":""fullscreenenter"",""trial"":1,""time"":7736},{""event"":""blur"",""trial"":36,""time"":459290},{""event"":""focus"",""trial"":36,""time"":461104},{""event"":""blur"",""trial"":36,""time"":464141},{""event"":""focus"",""trial"":37,""time"":465909}]",NA,NA,NA,NA,NA,5,#1CD855,#FA92F8,0,10,0,40,0,399.5,37,1,401.29999999701977,0,0,experiment,NA,NA,0,0.1,0.9,1,0,37,1,NA
fcp-trial,71,561092,0.0-46.0-0.0,voc_e2,12112,"[{""event"":""fullscreenenter"",""trial"":1,""time"":7736},{""event"":""blur"",""trial"":36,""time"":459290},{""event"":""focus"",""trial"":36,""time"":461104},{""event"":""blur"",""trial"":36,""time"":464141},{""event"":""focus"",""trial"":37,""time"":465909}]",NA,NA,NA,NA,NA,2,#3386FF,#D89F1C,10,10,0,40,0,167.3999999910593,39,0,424.5,10,1,experiment,NA,NA,1,0.3,0.7,3,2,38,1,NA
fcp-trial,72,563570,0.0-47.0-0.0,voc_e2,12112,"[{""event"":""fullscreenenter"",""trial"":1,""time"":7736},{""event"":""blur"",""trial"":36,""time"":459290},{""event"":""focus"",""trial"":36,""time"":461104},{""event"":""blur"",""trial"":36,""time"":464141},{""event"":""focus"",""trial"":37,""time"":465909}]",NA,NA,NA,NA,NA,3,#D89F1C,#3386FF,10,0,1,40,0,531.0999999940395,39,0,442.20000000298023,0,0,experiment,NA,NA,1,0.7,0.3,2,3,39,1,NA
fcp-trial,73,566176,0.0-48.0-0.0,voc_e2,12112,"[{""event"":""fullscreenenter"",""trial"":1,""time"":7736},{""event"":""blur"",""trial"":36,""time"":459290},{""event"":""focus"",""trial"":36,""time"":461104},{""event"":""blur"",""trial"":36,""time"":464141},{""event"":""focus"",""trial"":37,""time"":465909}]",NA,NA,NA,NA,NA,5,#741CD8,#D8271C,0,10,1,40,0,422.3999999910593,37,1,680.2000000029802,0,1,experiment,NA,NA,2,0.5,0.5,4,5,40,1,NA
fcp-trial,74,568513,0.0-49.0-0.0,voc_e2,12112,"[{""event"":""fullscreenenter"",""trial"":1,""time"":7736},{""event"":""blur"",""trial"":36,""time"":459290},{""event"":""focus"",""trial"":36,""time"":461104},{""event"":""blur"",""trial"":36,""time"":464141},{""event"":""focus"",""trial"":37,""time"":465909}]",NA,NA,NA,NA,NA,2,#D8271C,#741CD8,0,10,0,40,0,431.59999999403954,39,0,400.29999999701977,10,1,experiment,NA,NA,2,0.5,0.5,5,4,41,1,NA
fcp-trial,75,570798,0.0-50.0-0.0,voc_e2,12112,"[{""event"":""fullscreenenter"",""trial"":1,""time"":7736},{""event"":""blur"",""trial"":36,""time"":459290},{""event"":""focus"",""trial"":36,""time"":461104},{""event"":""blur"",""trial"":36,""time"":464141},{""event"":""focus"",""trial"":37,""time"":465909}]",NA,NA,NA,NA,NA,3,#1CD855,#FA92F8,0,10,0,40,0,378.59999999403954,39,0,402.29999999701977,10,1,experiment,NA,NA,0,0.1,0.9,1,0,42,1,NA
fcp-trial,76,573193,0.0-51.0-0.0,voc_e2,12112,"[{""event"":""fullscreenenter"",""trial"":1,""time"":7736},{""event"":""blur"",""trial"":36,""time"":459290},{""event"":""focus"",""trial"":36,""time"":461104},{""event"":""blur"",""trial"":36,""time"":464141},{""event"":""focus"",""trial"":37,""time"":465909}]",NA,NA,NA,NA,NA,5,#D89F1C,#3386FF,10,0,1,40,0,438,39,0,452,0,0,experiment,NA,NA,1,0.7,0.3,2,3,43,1,NA
fcp-trial,77,575614,0.0-52.0-0.0,voc_e2,12112,"[{""event"":""fullscreenenter"",""trial"":1,""time"":7736},{""event"":""blur"",""trial"":36,""time"":459290},{""event"":""focus"",""trial"":36,""time"":461104},{""event"":""blur"",""trial"":36,""time"":464141},{""event"":""focus"",""trial"":37,""time"":465909}]",NA,NA,NA,NA,NA,6,#741CD8,#D8271C,10,0,1,40,0,616.7999999970198,37,1,300.5,10,1,experiment,NA,NA,2,0.5,0.5,4,5,44,1,NA
fcp-trial,78,578018,0.0-53.0-0.0,voc_e2,12112,"[{""event"":""fullscreenenter"",""trial"":1,""time"":7736},{""event"":""blur"",""trial"":36,""time"":459290},{""event"":""focus"",""trial"":36,""time"":461104},{""event"":""blur"",""trial"":36,""time"":464141},{""event"":""focus"",""trial"":37,""time"":465909}]",NA,NA,NA,NA,NA,3,#D89F1C,#3386FF,10,0,1,40,0,523,39,0,376.40000000596046,0,0,experiment,NA,NA,1,0.7,0.3,2,3,45,1,NA
fcp-trial,79,580278,0.0-54.0-0.0,voc_e2,12112,"[{""event"":""fullscreenenter"",""trial"":1,""time"":7736},{""event"":""blur"",""trial"":36,""time"":459290},{""event"":""focus"",""trial"":36,""time"":461104},{""event"":""blur"",""trial"":36,""time"":464141},{""event"":""focus"",""trial"":37,""time"":465909}]",NA,NA,NA,NA,NA,1,#741CD8,#D8271C,0,10,1,40,0,370.59999999403954,37,1,385.5,0,1,experiment,NA,NA,2,0.5,0.5,4,5,46,2,NA
fcp-trial,80,583091,0.0-55.0-0.0,voc_e2,12112,"[{""event"":""fullscreenenter"",""trial"":1,""time"":7736},{""event"":""blur"",""trial"":36,""time"":459290},{""event"":""focus"",""trial"":36,""time"":461104},{""event"":""blur"",""trial"":36,""time"":464141},{""event"":""focus"",""trial"":37,""time"":465909}]",NA,NA,NA,NA,NA,1,#FA92F8,#1CD855,10,0,1,40,0,684.1000000089407,37,1,624,10,1,experiment,NA,NA,0,0.9,0.1,0,1,47,2,NA
fcp-trial,81,585436,0.0-56.0-0.0,voc_e2,12112,"[{""event"":""fullscreenenter"",""trial"":1,""time"":7736},{""event"":""blur"",""trial"":36,""time"":459290},{""event"":""focus"",""trial"":36,""time"":461104},{""event"":""blur"",""trial"":36,""time"":464141},{""event"":""focus"",""trial"":37,""time"":465909}]",NA,NA,NA,NA,NA,1,#3386FF,#D89F1C,0,10,0,40,0,398.20000000298023,37,1,441.5,0,0,experiment,NA,NA,1,0.3,0.7,3,2,48,2,NA
fcp-trial,82,588021,0.0-57.0-0.0,voc_e2,12112,"[{""event"":""fullscreenenter"",""trial"":1,""time"":7736},{""event"":""blur"",""trial"":36,""time"":459290},{""event"":""focus"",""trial"":36,""time"":461104},{""event"":""blur"",""trial"":36,""time"":464141},{""event"":""focus"",""trial"":37,""time"":465909}]",NA,NA,NA,NA,NA,2,#FA92F8,#1CD855,10,0,1,40,0,565.5,39,0,515.0999999940395,0,0,experiment,NA,NA,0,0.9,0.1,0,1,49,2,NA
fcp-trial,83,590618,0.0-58.0-0.0,voc_e2,12112,"[{""event"":""fullscreenenter"",""trial"":1,""time"":7736},{""event"":""blur"",""trial"":36,""time"":459290},{""event"":""focus"",""trial"":36,""time"":461104},{""event"":""blur"",""trial"":36,""time"":464141},{""event"":""focus"",""trial"":37,""time"":465909}]",NA,NA,NA,NA,NA,3,#D8271C,#741CD8,0,10,0,40,0,22.900000005960464,39,0,1070.7000000029802,10,1,experiment,NA,NA,2,0.5,0.5,5,4,50,2,NA
fcp-trial,84,592678,0.0-59.0-0.0,voc_e2,12112,"[{""event"":""fullscreenenter"",""trial"":1,""time"":7736},{""event"":""blur"",""trial"":36,""time"":459290},{""event"":""focus"",""trial"":36,""time"":461104},{""event"":""blur"",""trial"":36,""time"":464141},{""event"":""focus"",""trial"":37,""time"":465909}]",NA,NA,NA,NA,NA,4,#3386FF,#D89F1C,10,10,0,40,0,56.29999999701977,39,0,498.8999999910593,10,1,experiment,NA,NA,1,0.3,0.7,3,2,51,2,NA
fcp-trial,85,594847,0.0-60.0-0.0,voc_e2,12112,"[{""event"":""fullscreenenter"",""trial"":1,""time"":7736},{""event"":""blur"",""trial"":36,""time"":459290},{""event"":""focus"",""trial"":36,""time"":461104},{""event"":""blur"",""trial"":36,""time"":464141},{""event"":""focus"",""trial"":37,""time"":465909}]",NA,NA,NA,NA,NA,6,#3386FF,#D89F1C,0,10,0,40,0,412.40000000596046,37,1,252.19999998807907,0,0,experiment,NA,NA,1,0.3,0.7,3,2,52,2,NA
fcp-trial,86,597135,0.0-61.0-0.0,voc_e2,12112,"[{""event"":""fullscreenenter"",""trial"":1,""time"":7736},{""event"":""blur"",""trial"":36,""time"":459290},{""event"":""focus"",""trial"":36,""time"":461104},{""event"":""blur"",""trial"":36,""time"":464141},{""event"":""focus"",""trial"":37,""time"":465909}]",NA,NA,NA,NA,NA,2,#D8271C,#741CD8,10,10,0,40,0,502.1000000089407,39,0,283.40000000596046,10,1,experiment,NA,NA,2,0.5,0.5,5,4,53,2,NA
fcp-trial,87,599327,0.0-62.0-0.0,voc_e2,12112,"[{""event"":""fullscreenenter"",""trial"":1,""time"":7736},{""event"":""blur"",""trial"":36,""time"":459290},{""event"":""focus"",""trial"":36,""time"":461104},{""event"":""blur"",""trial"":36,""time"":464141},{""event"":""focus"",""trial"":37,""time"":465909}]",NA,NA,NA,NA,NA,3,#FA92F8,#1CD855,10,0,1,40,0,375.09999999403954,37,1,311.90000000596046,10,1,experiment,NA,NA,0,0.9,0.1,0,1,54,2,NA
fcp-trial,88,601584,0.0-63.0-0.0,voc_e2,12112,"[{""event"":""fullscreenenter"",""trial"":1,""time"":7736},{""event"":""blur"",""trial"":36,""time"":459290},{""event"":""focus"",""trial"":36,""time"":461104},{""event"":""blur"",""trial"":36,""time"":464141},{""event"":""focus"",""trial"":37,""time"":465909}]",NA,NA,NA,NA,NA,4,#FA92F8,#1CD855,10,0,1,40,0,370.79999999701977,37,1,381.59999999403954,10,1,experiment,NA,NA,0,0.9,0.1,0,1,55,2,NA
fcp-trial,89,603968,0.0-64.0-0.0,voc_e2,12112,"[{""event"":""fullscreenenter"",""trial"":1,""time"":7736},{""event"":""blur"",""trial"":36,""time"":459290},{""event"":""focus"",""trial"":36,""time"":461104},{""event"":""blur"",""trial"":36,""time"":464141},{""event"":""focus"",""trial"":37,""time"":465909}]",NA,NA,NA,NA,NA,0,#D89F1C,#3386FF,0,0,1,40,0,589.7000000029802,39,0,290.19999998807907,0,0,experiment,NA,NA,1,0.7,0.3,2,3,56,2,NA
fcp-trial,90,606749,0.0-65.0-0.0,voc_e2,12112,"[{""event"":""fullscreenenter"",""trial"":1,""time"":7736},{""event"":""blur"",""trial"":36,""time"":459290},{""event"":""focus"",""trial"":36,""time"":461104},{""event"":""blur"",""trial"":36,""time"":464141},{""event"":""focus"",""trial"":37,""time"":465909}]",NA,NA,NA,NA,NA,5,#FA92F8,#1CD855,10,0,1,40,0,551.2999999970198,37,1,726.5,10,1,experiment,NA,NA,0,0.9,0.1,0,1,57,2,NA
fcp-trial,91,609532,0.0-66.0-0.0,voc_e2,12112,"[{""event"":""fullscreenenter"",""trial"":1,""time"":7736},{""event"":""blur"",""trial"":36,""time"":459290},{""event"":""focus"",""trial"":36,""time"":461104},{""event"":""blur"",""trial"":36,""time"":464141},{""event"":""focus"",""trial"":37,""time"":465909}]",NA,NA,NA,NA,NA,0,#D8271C,#741CD8,10,10,0,40,0,906.5,39,0,371.3999999910593,10,1,experiment,NA,NA,2,0.5,0.5,5,4,58,2,NA
fcp-trial,92,612434,0.0-67.0-0.0,voc_e2,12112,"[{""event"":""fullscreenenter"",""trial"":1,""time"":7736},{""event"":""blur"",""trial"":36,""time"":459290},{""event"":""focus"",""trial"":36,""time"":461104},{""event"":""blur"",""trial"":36,""time"":464141},{""event"":""focus"",""trial"":37,""time"":465909}]",NA,NA,NA,NA,NA,2,#3386FF,#D89F1C,10,0,0,40,0,880.2999999970198,39,0,517.6000000089407,0,1,experiment,NA,NA,1,0.3,0.7,3,2,59,2,NA
fcp-trial,93,614942,0.0-68.0-0.0,voc_e2,12112,"[{""event"":""fullscreenenter"",""trial"":1,""time"":7736},{""event"":""blur"",""trial"":36,""time"":459290},{""event"":""focus"",""trial"":36,""time"":461104},{""event"":""blur"",""trial"":36,""time"":464141},{""event"":""focus"",""trial"":37,""time"":465909}]",NA,NA,NA,NA,NA,4,#741CD8,#D8271C,0,10,1,40,0,423,39,0,579.3999999910593,10,0,experiment,NA,NA,2,0.5,0.5,4,5,60,2,NA
fcp-trial,94,617280,0.0-69.0-0.0,voc_e2,12112,"[{""event"":""fullscreenenter"",""trial"":1,""time"":7736},{""event"":""blur"",""trial"":36,""time"":459290},{""event"":""focus"",""trial"":36,""time"":461104},{""event"":""blur"",""trial"":36,""time"":464141},{""event"":""focus"",""trial"":37,""time"":465909}]",NA,NA,NA,NA,NA,5,#D8271C,#741CD8,0,0,0,40,0,540.1000000089407,37,1,294.3999999910593,0,0,experiment,NA,NA,2,0.5,0.5,5,4,61,2,NA
fcp-trial,95,619839,0.0-70.0-0.0,voc_e2,12112,"[{""event"":""fullscreenenter"",""trial"":1,""time"":7736},{""event"":""blur"",""trial"":36,""time"":459290},{""event"":""focus"",""trial"":36,""time"":461104},{""event"":""blur"",""trial"":36,""time"":464141},{""event"":""focus"",""trial"":37,""time"":465909}]",NA,NA,NA,NA,NA,0,#1CD855,#FA92F8,10,10,0,40,0,516.6000000089407,37,1,538.5,10,0,experiment,NA,NA,0,0.1,0.9,1,0,62,2,NA
fcp-trial,96,622160,0.0-71.0-0.0,voc_e2,12112,"[{""event"":""fullscreenenter"",""trial"":1,""time"":7736},{""event"":""blur"",""trial"":36,""time"":459290},{""event"":""focus"",""trial"":36,""time"":461104},{""event"":""blur"",""trial"":36,""time"":464141},{""event"":""focus"",""trial"":37,""time"":465909}]",NA,NA,NA,NA,NA,6,#FA92F8,#1CD855,10,0,1,40,0,559.7999999970198,39,0,257.20000000298023,0,0,experiment,NA,NA,0,0.9,0.1,0,1,63,2,NA
fcp-trial,97,624581,0.0-72.0-0.0,voc_e2,12112,"[{""event"":""fullscreenenter"",""trial"":1,""time"":7736},{""event"":""blur"",""trial"":36,""time"":459290},{""event"":""focus"",""trial"":36,""time"":461104},{""event"":""blur"",""trial"":36,""time"":464141},{""event"":""focus"",""trial"":37,""time"":465909}]",NA,NA,NA,NA,NA,3,#1CD855,#FA92F8,10,10,0,40,0,336.5,37,1,580.2999999970198,10,0,experiment,NA,NA,0,0.1,0.9,1,0,64,2,NA
fcp-trial,98,628070,0.0-73.0-0.0,voc_e2,12112,"[{""event"":""fullscreenenter"",""trial"":1,""time"":7736},{""event"":""blur"",""trial"":36,""time"":459290},{""event"":""focus"",""trial"":36,""time"":461104},{""event"":""blur"",""trial"":36,""time"":464141},{""event"":""focus"",""trial"":37,""time"":465909}]",NA,NA,NA,NA,NA,2,#D89F1C,#3386FF,10,0,1,40,0,1488.2999999970198,37,1,495.59999999403954,10,1,experiment,NA,NA,1,0.7,0.3,2,3,65,2,NA
fcp-trial,99,630539,0.0-74.0-0.0,voc_e2,12112,"[{""event"":""fullscreenenter"",""trial"":1,""time"":7736},{""event"":""blur"",""trial"":36,""time"":459290},{""event"":""focus"",""trial"":36,""time"":461104},{""event"":""blur"",""trial"":36,""time"":464141},{""event"":""focus"",""trial"":37,""time"":465909}]",NA,NA,NA,NA,NA,3,#D89F1C,#3386FF,10,0,1,40,0,449.09999999403954,37,1,515.5,10,1,experiment,NA,NA,1,0.7,0.3,2,3,66,2,NA
fcp-trial,100,632995,0.0-75.0-0.0,voc_e2,12112,"[{""event"":""fullscreenenter"",""trial"":1,""time"":7736},{""event"":""blur"",""trial"":36,""time"":459290},{""event"":""focus"",""trial"":36,""time"":461104},{""event"":""blur"",""trial"":36,""time"":464141},{""event"":""focus"",""trial"":37,""time"":465909}]",NA,NA,NA,NA,NA,4,#FA92F8,#1CD855,10,0,1,40,0,596.7000000029802,39,0,356.20000000298023,0,0,experiment,NA,NA,0,0.9,0.1,0,1,67,2,NA
fcp-trial,101,635683,0.0-76.0-0.0,voc_e2,12112,"[{""event"":""fullscreenenter"",""trial"":1,""time"":7736},{""event"":""blur"",""trial"":36,""time"":459290},{""event"":""focus"",""trial"":36,""time"":461104},{""event"":""blur"",""trial"":36,""time"":464141},{""event"":""focus"",""trial"":37,""time"":465909}]",NA,NA,NA,NA,NA,6,#D89F1C,#3386FF,10,0,1,40,0,536.0999999940395,37,1,646,10,1,experiment,NA,NA,1,0.7,0.3,2,3,68,2,NA
fcp-trial,102,638169,0.0-77.0-0.0,voc_e2,12112,"[{""event"":""fullscreenenter"",""trial"":1,""time"":7736},{""event"":""blur"",""trial"":36,""time"":459290},{""event"":""focus"",""trial"":36,""time"":461104},{""event"":""blur"",""trial"":36,""time"":464141},{""event"":""focus"",""trial"":37,""time"":465909}]",NA,NA,NA,NA,NA,6,#1CD855,#FA92F8,0,0,0,40,0,537.8999999910593,39,0,443.40000000596046,0,1,experiment,NA,NA,0,0.1,0.9,1,0,69,2,NA
fcp-trial,103,640230,0.0-78.0-0.0,voc_e2,12112,"[{""event"":""fullscreenenter"",""trial"":1,""time"":7736},{""event"":""blur"",""trial"":36,""time"":459290},{""event"":""focus"",""trial"":36,""time"":461104},{""event"":""blur"",""trial"":36,""time"":464141},{""event"":""focus"",""trial"":37,""time"":465909}]",NA,NA,NA,NA,NA,4,#741CD8,#D8271C,10,0,1,40,0,3.5,37,1,552.7000000029802,10,1,experiment,NA,NA,2,0.5,0.5,4,5,70,2,NA
fcp-trial,104,642400,0.0-79.0-0.0,voc_e2,12112,"[{""event"":""fullscreenenter"",""trial"":1,""time"":7736},{""event"":""blur"",""trial"":36,""time"":459290},{""event"":""focus"",""trial"":36,""time"":461104},{""event"":""blur"",""trial"":36,""time"":464141},{""event"":""focus"",""trial"":37,""time"":465909}]",NA,NA,NA,NA,NA,5,#D8271C,#741CD8,0,0,0,40,0,173.40000000596046,39,0,492.29999999701977,0,1,experiment,NA,NA,2,0.5,0.5,5,4,71,2,NA
fcp-trial,105,644720,0.0-80.0-0.0,voc_e2,12112,"[{""event"":""fullscreenenter"",""trial"":1,""time"":7736},{""event"":""blur"",""trial"":36,""time"":459290},{""event"":""focus"",""trial"":36,""time"":461104},{""event"":""blur"",""trial"":36,""time"":464141},{""event"":""focus"",""trial"":37,""time"":465909}]",NA,NA,NA,NA,NA,1,#1CD855,#FA92F8,0,10,0,40,0,316.5,39,0,499.40000000596046,10,1,experiment,NA,NA,0,0.1,0.9,1,0,72,2,NA
fcp-trial,106,647010,0.0-81.0-0.0,voc_e2,12112,"[{""event"":""fullscreenenter"",""trial"":1,""time"":7736},{""event"":""blur"",""trial"":36,""time"":459290},{""event"":""focus"",""trial"":36,""time"":461104},{""event"":""blur"",""trial"":36,""time"":464141},{""event"":""focus"",""trial"":37,""time"":465909}]",NA,NA,NA,NA,NA,5,#3386FF,#D89F1C,0,10,0,40,0,302.70000000298023,37,1,483.5,0,0,experiment,NA,NA,1,0.3,0.7,3,2,73,2,NA
fcp-trial,107,649165,0.0-82.0-0.0,voc_e2,12112,"[{""event"":""fullscreenenter"",""trial"":1,""time"":7736},{""event"":""blur"",""trial"":36,""time"":459290},{""event"":""focus"",""trial"":36,""time"":461104},{""event"":""blur"",""trial"":36,""time"":464141},{""event"":""focus"",""trial"":37,""time"":465909}]",NA,NA,NA,NA,NA,6,#D8271C,#741CD8,10,10,0,40,0,297.29999999701977,39,0,352.69999998807907,10,1,experiment,NA,NA,2,0.5,0.5,5,4,74,2,NA
fcp-trial,108,651528,0.0-83.0-0.0,voc_e2,12112,"[{""event"":""fullscreenenter"",""trial"":1,""time"":7736},{""event"":""blur"",""trial"":36,""time"":459290},{""event"":""focus"",""trial"":36,""time"":461104},{""event"":""blur"",""trial"":36,""time"":464141},{""event"":""focus"",""trial"":37,""time"":465909}]",NA,NA,NA,NA,NA,0,#D89F1C,#3386FF,0,0,1,40,0,339.8999999910593,39,0,519.5999999940395,0,0,experiment,NA,NA,1,0.7,0.3,2,3,75,2,NA
fcp-trial,109,653881,0.0-84.0-0.0,voc_e2,12112,"[{""event"":""fullscreenenter"",""trial"":1,""time"":7736},{""event"":""blur"",""trial"":36,""time"":459290},{""event"":""focus"",""trial"":36,""time"":461104},{""event"":""blur"",""trial"":36,""time"":464141},{""event"":""focus"",""trial"":37,""time"":465909}]",NA,NA,NA,NA,NA,2,#1CD855,#FA92F8,0,10,0,40,0,416.70000000298023,39,0,431.30000001192093,10,1,experiment,NA,NA,0,0.1,0.9,1,0,76,2,NA
fcp-trial,110,655934,0.0-85.0-0.0,voc_e2,12112,"[{""event"":""fullscreenenter"",""trial"":1,""time"":7736},{""event"":""blur"",""trial"":36,""time"":459290},{""event"":""focus"",""trial"":36,""time"":461104},{""event"":""blur"",""trial"":36,""time"":464141},{""event"":""focus"",""trial"":37,""time"":465909}]",NA,NA,NA,NA,NA,5,#FA92F8,#1CD855,10,0,1,40,0,75.40000000596046,39,0,474.30000001192093,0,0,experiment,NA,NA,0,0.9,0.1,0,1,77,2,NA
fcp-trial,111,658049,0.0-86.0-0.0,voc_e2,12112,"[{""event"":""fullscreenenter"",""trial"":1,""time"":7736},{""event"":""blur"",""trial"":36,""time"":459290},{""event"":""focus"",""trial"":36,""time"":461104},{""event"":""blur"",""trial"":36,""time"":464141},{""event"":""focus"",""trial"":37,""time"":465909}]",NA,NA,NA,NA,NA,0,#741CD8,#D8271C,0,10,1,40,0,189.79999999701977,39,0,420.29999999701977,10,0,experiment,NA,NA,2,0.5,0.5,4,5,78,2,NA
fcp-trial,112,660396,0.0-87.0-0.0,voc_e2,12112,"[{""event"":""fullscreenenter"",""trial"":1,""time"":7736},{""event"":""blur"",""trial"":36,""time"":459290},{""event"":""focus"",""trial"":36,""time"":461104},{""event"":""blur"",""trial"":36,""time"":464141},{""event"":""focus"",""trial"":37,""time"":465909}]",NA,NA,NA,NA,NA,4,#3386FF,#D89F1C,0,10,0,40,0,290,37,1,551.3000000119209,0,0,experiment,NA,NA,1,0.3,0.7,3,2,79,2,NA
fcp-trial,113,663856,0.0-88.0-0.0,voc_e2,12112,"[{""event"":""fullscreenenter"",""trial"":1,""time"":7736},{""event"":""blur"",""trial"":36,""time"":459290},{""event"":""focus"",""trial"":36,""time"":461104},{""event"":""blur"",""trial"":36,""time"":464141},{""event"":""focus"",""trial"":37,""time"":465909}]",NA,NA,NA,NA,NA,1,#D89F1C,#3386FF,10,0,1,40,0,1616,39,0,339.8999999910593,0,0,experiment,NA,NA,1,0.7,0.3,2,3,80,2,NA
fcp-trial,114,666941,0.0-89.0-0.0,voc_e2,12112,"[{""event"":""fullscreenenter"",""trial"":1,""time"":7736},{""event"":""blur"",""trial"":36,""time"":459290},{""event"":""focus"",""trial"":36,""time"":461104},{""event"":""blur"",""trial"":36,""time"":464141},{""event"":""focus"",""trial"":37,""time"":465909}]",NA,NA,NA,NA,NA,0,#1CD855,#FA92F8,0,10,0,38,1,1209.5,37,1,370.30000001192093,0,0,experiment,NA,NA,0,0.1,0.9,1,0,81,2,NA
fcp-trial,115,670008,0.0-90.0-0.0,voc_e2,12112,"[{""event"":""fullscreenenter"",""trial"":1,""time"":7736},{""event"":""blur"",""trial"":36,""time"":459290},{""event"":""focus"",""trial"":36,""time"":461104},{""event"":""blur"",""trial"":36,""time"":464141},{""event"":""focus"",""trial"":37,""time"":465909}]",NA,NA,NA,NA,NA,1,#741CD8,#D8271C,10,10,1,40,0,941.6999999880791,39,0,620.6000000089407,10,0,experiment,NA,NA,2,0.5,0.5,4,5,82,2,NA
fcp-trial,116,672635,0.0-91.0-0.0,voc_e2,12112,"[{""event"":""fullscreenenter"",""trial"":1,""time"":7736},{""event"":""blur"",""trial"":36,""time"":459290},{""event"":""focus"",""trial"":36,""time"":461104},{""event"":""blur"",""trial"":36,""time"":464141},{""event"":""focus"",""trial"":37,""time"":465909}]",NA,NA,NA,NA,NA,2,#741CD8,#D8271C,0,10,1,40,0,866.2999999970198,39,0,258.09999999403954,10,0,experiment,NA,NA,2,0.5,0.5,4,5,83,2,NA
fcp-trial,117,674911,0.0-92.0-0.0,voc_e2,12112,"[{""event"":""fullscreenenter"",""trial"":1,""time"":7736},{""event"":""blur"",""trial"":36,""time"":459290},{""event"":""focus"",""trial"":36,""time"":461104},{""event"":""blur"",""trial"":36,""time"":464141},{""event"":""focus"",""trial"":37,""time"":465909}]",NA,NA,NA,NA,NA,3,#D8271C,#741CD8,0,10,0,40,0,366.09999999403954,39,0,404.40000000596046,10,1,experiment,NA,NA,2,0.5,0.5,5,4,84,2,NA
fcp-trial,118,677206,0.0-93.0-0.0,voc_e2,12112,"[{""event"":""fullscreenenter"",""trial"":1,""time"":7736},{""event"":""blur"",""trial"":36,""time"":459290},{""event"":""focus"",""trial"":36,""time"":461104},{""event"":""blur"",""trial"":36,""time"":464141},{""event"":""focus"",""trial"":37,""time"":465909}]",NA,NA,NA,NA,NA,2,#741CD8,#D8271C,10,10,1,40,0,355.6000000089407,37,1,435.40000000596046,10,1,experiment,NA,NA,2,0.5,0.5,4,5,85,2,NA
fcp-trial,119,679778,0.0-94.0-0.0,voc_e2,12112,"[{""event"":""fullscreenenter"",""trial"":1,""time"":7736},{""event"":""blur"",""trial"":36,""time"":459290},{""event"":""focus"",""trial"":36,""time"":461104},{""event"":""blur"",""trial"":36,""time"":464141},{""event"":""focus"",""trial"":37,""time"":465909}]",NA,NA,NA,NA,NA,5,#3386FF,#D89F1C,0,10,0,40,0,534.2000000029802,37,1,534.3000000119209,0,0,experiment,NA,NA,1,0.3,0.7,3,2,86,2,NA
fcp-trial,120,682149,0.0-95.0-0.0,voc_e2,12112,"[{""event"":""fullscreenenter"",""trial"":1,""time"":7736},{""event"":""blur"",""trial"":36,""time"":459290},{""event"":""focus"",""trial"":36,""time"":461104},{""event"":""blur"",""trial"":36,""time"":464141},{""event"":""focus"",""trial"":37,""time"":465909}]",NA,NA,NA,NA,NA,2,#FA92F8,#1CD855,10,0,1,40,0,439.40000000596046,37,1,427.40000000596046,10,1,experiment,NA,NA,0,0.9,0.1,0,1,87,2,NA
fcp-trial,121,684375,0.0-96.0-0.0,voc_e2,12112,"[{""event"":""fullscreenenter"",""trial"":1,""time"":7736},{""event"":""blur"",""trial"":36,""time"":459290},{""event"":""focus"",""trial"":36,""time"":461104},{""event"":""blur"",""trial"":36,""time"":464141},{""event"":""focus"",""trial"":37,""time"":465909}]",NA,NA,NA,NA,NA,3,#FA92F8,#1CD855,10,0,1,40,0,291,37,1,430.59999999403954,10,1,experiment,NA,NA,0,0.9,0.1,0,1,88,2,NA
fcp-trial,122,686897,0.0-97.0-0.0,voc_e2,12112,"[{""event"":""fullscreenenter"",""trial"":1,""time"":7736},{""event"":""blur"",""trial"":36,""time"":459290},{""event"":""focus"",""trial"":36,""time"":461104},{""event"":""blur"",""trial"":36,""time"":464141},{""event"":""focus"",""trial"":37,""time"":465909}]",NA,NA,NA,NA,NA,6,#3386FF,#D89F1C,0,10,0,40,0,532.5,37,1,484.70000000298023,0,0,experiment,NA,NA,1,0.3,0.7,3,2,89,2,NA
fcp-trial,123,689104,0.0-98.0-0.0,voc_e2,12112,"[{""event"":""fullscreenenter"",""trial"":1,""time"":7736},{""event"":""blur"",""trial"":36,""time"":459290},{""event"":""focus"",""trial"":36,""time"":461104},{""event"":""blur"",""trial"":36,""time"":464141},{""event"":""focus"",""trial"":37,""time"":465909}]",NA,NA,NA,NA,NA,3,#D8271C,#741CD8,10,0,0,40,0,305.70000000298023,37,1,396.5,10,0,experiment,NA,NA,2,0.5,0.5,5,4,90,2,NA
fcp-trial,124,691729,0.0-99.0-0.0,voc_e2,12112,"[{""event"":""fullscreenenter"",""trial"":1,""time"":7736},{""event"":""blur"",""trial"":36,""time"":459290},{""event"":""focus"",""trial"":36,""time"":461104},{""event"":""blur"",""trial"":36,""time"":464141},{""event"":""focus"",""trial"":37,""time"":465909}]",NA,NA,NA,NA,NA,1,#FA92F8,#1CD855,0,0,1,40,0,621.9000000059605,37,1,497.70000000298023,0,1,experiment,NA,NA,0,0.9,0.1,0,1,91,3,NA
fcp-trial,125,694335,0.0-100.0-0.0,voc_e2,12112,"[{""event"":""fullscreenenter"",""trial"":1,""time"":7736},{""event"":""blur"",""trial"":36,""time"":459290},{""event"":""focus"",""trial"":36,""time"":461104},{""event"":""blur"",""trial"":36,""time"":464141},{""event"":""focus"",""trial"":37,""time"":465909}]",NA,NA,NA,NA,NA,4,#FA92F8,#1CD855,10,10,1,40,0,518.5999999940395,37,1,583.3000000119209,10,1,experiment,NA,NA,0,0.9,0.1,0,1,92,3,NA
fcp-trial,126,696558,0.0-101.0-0.0,voc_e2,12112,"[{""event"":""fullscreenenter"",""trial"":1,""time"":7736},{""event"":""blur"",""trial"":36,""time"":459290},{""event"":""focus"",""trial"":36,""time"":461104},{""event"":""blur"",""trial"":36,""time"":464141},{""event"":""focus"",""trial"":37,""time"":465909}]",NA,NA,NA,NA,NA,6,#741CD8,#D8271C,0,0,1,40,0,231.6000000089407,39,0,487.40000000596046,0,0,experiment,NA,NA,2,0.5,0.5,4,5,93,3,NA
fcp-trial,127,698943,0.0-102.0-0.0,voc_e2,12112,"[{""event"":""fullscreenenter"",""trial"":1,""time"":7736},{""event"":""blur"",""trial"":36,""time"":459290},{""event"":""focus"",""trial"":36,""time"":461104},{""event"":""blur"",""trial"":36,""time"":464141},{""event"":""focus"",""trial"":37,""time"":465909}]",NA,NA,NA,NA,NA,2,#3386FF,#D89F1C,0,10,0,40,0,406.30000001192093,37,1,475.5,0,0,experiment,NA,NA,1,0.3,0.7,3,2,94,3,NA
fcp-trial,128,701289,0.0-103.0-0.0,voc_e2,12112,"[{""event"":""fullscreenenter"",""trial"":1,""time"":7736},{""event"":""blur"",""trial"":36,""time"":459290},{""event"":""focus"",""trial"":36,""time"":461104},{""event"":""blur"",""trial"":36,""time"":464141},{""event"":""focus"",""trial"":37,""time"":465909}]",NA,NA,NA,NA,NA,5,#FA92F8,#1CD855,10,0,1,40,0,333.90000000596046,37,1,506.59999999403954,10,1,experiment,NA,NA,0,0.9,0.1,0,1,95,3,NA
fcp-trial,129,703728,0.0-104.0-0.0,voc_e2,12112,"[{""event"":""fullscreenenter"",""trial"":1,""time"":7736},{""event"":""blur"",""trial"":36,""time"":459290},{""event"":""focus"",""trial"":36,""time"":461104},{""event"":""blur"",""trial"":36,""time"":464141},{""event"":""focus"",""trial"":37,""time"":465909}]",NA,NA,NA,NA,NA,4,#3386FF,#D89F1C,10,10,0,40,0,568.0999999940395,39,0,366.20000000298023,10,1,experiment,NA,NA,1,0.3,0.7,3,2,96,3,NA
fcp-trial,130,706197,0.0-105.0-0.0,voc_e2,12112,"[{""event"":""fullscreenenter"",""trial"":1,""time"":7736},{""event"":""blur"",""trial"":36,""time"":459290},{""event"":""focus"",""trial"":36,""time"":461104},{""event"":""blur"",""trial"":36,""time"":464141},{""event"":""focus"",""trial"":37,""time"":465909}]",NA,NA,NA,NA,NA,4,#D8271C,#741CD8,0,0,0,40,0,304.59999999403954,39,0,661.7000000029802,0,1,experiment,NA,NA,2,0.5,0.5,5,4,97,3,NA
fcp-trial,131,708641,0.0-106.0-0.0,voc_e2,12112,"[{""event"":""fullscreenenter"",""trial"":1,""time"":7736},{""event"":""blur"",""trial"":36,""time"":459290},{""event"":""focus"",""trial"":36,""time"":461104},{""event"":""blur"",""trial"":36,""time"":464141},{""event"":""focus"",""trial"":37,""time"":465909}]",NA,NA,NA,NA,NA,0,#D8271C,#741CD8,0,10,0,40,0,490.8999999910593,37,1,449.8999999910593,0,0,experiment,NA,NA,2,0.5,0.5,5,4,98,3,NA
fcp-trial,132,711242,0.0-107.0-0.0,voc_e2,12112,"[{""event"":""fullscreenenter"",""trial"":1,""time"":7736},{""event"":""blur"",""trial"":36,""time"":459290},{""event"":""focus"",""trial"":36,""time"":461104},{""event"":""blur"",""trial"":36,""time"":464141},{""event"":""focus"",""trial"":37,""time"":465909}]",NA,NA,NA,NA,NA,0,#3386FF,#D89F1C,0,0,0,40,0,815.0999999940395,37,1,280.59999999403954,0,0,experiment,NA,NA,1,0.3,0.7,3,2,99,3,NA
fcp-trial,133,713760,0.0-108.0-0.0,voc_e2,12112,"[{""event"":""fullscreenenter"",""trial"":1,""time"":7736},{""event"":""blur"",""trial"":36,""time"":459290},{""event"":""focus"",""trial"":36,""time"":461104},{""event"":""blur"",""trial"":36,""time"":464141},{""event"":""focus"",""trial"":37,""time"":465909}]",NA,NA,NA,NA,NA,6,#FA92F8,#1CD855,10,0,1,40,0,425.80000001192093,37,1,589,10,1,experiment,NA,NA,0,0.9,0.1,0,1,100,3,NA
fcp-trial,134,717023,0.0-109.0-0.0,voc_e2,12112,"[{""event"":""fullscreenenter"",""trial"":1,""time"":7736},{""event"":""blur"",""trial"":36,""time"":459290},{""event"":""focus"",""trial"":36,""time"":461104},{""event"":""blur"",""trial"":36,""time"":464141},{""event"":""focus"",""trial"":37,""time"":465909}]",NA,NA,NA,NA,NA,1,#D8271C,#741CD8,10,0,0,40,0,1179.6000000089407,37,1,580.5,10,0,experiment,NA,NA,2,0.5,0.5,5,4,101,3,NA
fcp-trial,135,719559,0.0-110.0-0.0,voc_e2,12112,"[{""event"":""fullscreenenter"",""trial"":1,""time"":7736},{""event"":""blur"",""trial"":36,""time"":459290},{""event"":""focus"",""trial"":36,""time"":461104},{""event"":""blur"",""trial"":36,""time"":464141},{""event"":""focus"",""trial"":37,""time"":465909}]",NA,NA,NA,NA,NA,0,#1CD855,#FA92F8,0,10,0,40,0,562.4000000059605,39,0,468.1000000089407,10,1,experiment,NA,NA,0,0.1,0.9,1,0,102,3,NA
fcp-trial,136,722425,0.0-111.0-0.0,voc_e2,12112,"[{""event"":""fullscreenenter"",""trial"":1,""time"":7736},{""event"":""blur"",""trial"":36,""time"":459290},{""event"":""focus"",""trial"":36,""time"":461104},{""event"":""blur"",""trial"":36,""time"":464141},{""event"":""focus"",""trial"":37,""time"":465909}]",NA,NA,NA,NA,NA,5,#741CD8,#D8271C,0,10,1,40,0,756.4000000059605,37,1,605.3999999910593,0,1,experiment,NA,NA,2,0.5,0.5,4,5,103,3,NA
fcp-trial,137,725519,0.0-112.0-0.0,voc_e2,12112,"[{""event"":""fullscreenenter"",""trial"":1,""time"":7736},{""event"":""blur"",""trial"":36,""time"":459290},{""event"":""focus"",""trial"":36,""time"":461104},{""event"":""blur"",""trial"":36,""time"":464141},{""event"":""focus"",""trial"":37,""time"":465909}]",NA,NA,NA,NA,NA,3,#D89F1C,#3386FF,10,0,1,40,0,997.2999999970198,39,0,595.2000000029802,0,0,experiment,NA,NA,1,0.7,0.3,2,3,104,3,NA
fcp-trial,138,727608,0.0-113.0-0.0,voc_e2,12112,"[{""event"":""fullscreenenter"",""trial"":1,""time"":7736},{""event"":""blur"",""trial"":36,""time"":459290},{""event"":""focus"",""trial"":36,""time"":461104},{""event"":""blur"",""trial"":36,""time"":464141},{""event"":""focus"",""trial"":37,""time"":465909}]",NA,NA,NA,NA,NA,1,#3386FF,#D89F1C,10,10,0,40,0,172.5,37,1,412.70000000298023,10,0,experiment,NA,NA,1,0.3,0.7,3,2,105,3,NA
audio-instructions,139,732329,0.0-114.0,voc_e2,12112,"[{""event"":""fullscreenenter"",""trial"":1,""time"":7736},{""event"":""blur"",""trial"":36,""time"":459290},{""event"":""focus"",""trial"":36,""time"":461104},{""event"":""blur"",""trial"":36,""time"":464141},{""event"":""focus"",""trial"":37,""time"":465909}]",NA,271,static/audio/pause.wav,NA,0,NA,NA,NA,NA,NA,NA,NA,NA,NA,NA,NA,NA,NA,NA,NA,NA,NA,NA,NA,NA,NA,NA,NA,NA,NA
fcp-trial,140,735160,0.0-115.0-0.0,voc_e2,12112,"[{""event"":""fullscreenenter"",""trial"":1,""time"":7736},{""event"":""blur"",""trial"":36,""time"":459290},{""event"":""focus"",""trial"":36,""time"":461104},{""event"":""blur"",""trial"":36,""time"":464141},{""event"":""focus"",""trial"":37,""time"":465909}]",NA,NA,NA,NA,NA,3,#1CD855,#FA92F8,0,10,0,40,0,889.3999999910593,37,1,437.6000000089407,0,0,experiment,NA,NA,0,0.1,0.9,1,0,106,3,NA
fcp-trial,141,737604,0.0-116.0-0.0,voc_e2,12112,"[{""event"":""fullscreenenter"",""trial"":1,""time"":7736},{""event"":""blur"",""trial"":36,""time"":459290},{""event"":""focus"",""trial"":36,""time"":461104},{""event"":""blur"",""trial"":36,""time"":464141},{""event"":""focus"",""trial"":37,""time"":465909}]",NA,NA,NA,NA,NA,5,#1CD855,#FA92F8,0,10,0,40,0,627.3999999910593,39,0,312.29999999701977,10,1,experiment,NA,NA,0,0.1,0.9,1,0,107,3,NA
fcp-trial,142,740626,0.0-117.0-0.0,voc_e2,12112,"[{""event"":""fullscreenenter"",""trial"":1,""time"":7736},{""event"":""blur"",""trial"":36,""time"":459290},{""event"":""focus"",""trial"":36,""time"":461104},{""event"":""blur"",""trial"":36,""time"":464141},{""event"":""focus"",""trial"":37,""time"":465909}]",NA,NA,NA,NA,NA,3,#D89F1C,#3386FF,10,0,1,40,0,943.0999999940395,39,0,571.7999999970198,0,0,experiment,NA,NA,1,0.7,0.3,2,3,108,3,NA
fcp-trial,143,742726,0.0-118.0-0.0,voc_e2,12112,"[{""event"":""fullscreenenter"",""trial"":1,""time"":7736},{""event"":""blur"",""trial"":36,""time"":459290},{""event"":""focus"",""trial"":36,""time"":461104},{""event"":""blur"",""trial"":36,""time"":464141},{""event"":""focus"",""trial"":37,""time"":465909}]",NA,NA,NA,NA,NA,5,#D89F1C,#3386FF,10,10,1,40,0,269.79999999701977,37,1,324.1000000089407,10,1,experiment,NA,NA,1,0.7,0.3,2,3,109,3,NA
fcp-trial,144,745306,0.0-119.0-0.0,voc_e2,12112,"[{""event"":""fullscreenenter"",""trial"":1,""time"":7736},{""event"":""blur"",""trial"":36,""time"":459290},{""event"":""focus"",""trial"":36,""time"":461104},{""event"":""blur"",""trial"":36,""time"":464141},{""event"":""focus"",""trial"":37,""time"":465909}]",NA,NA,NA,NA,NA,2,#D8271C,#741CD8,0,0,0,40,0,566.2999999970198,37,1,506.70000000298023,0,0,experiment,NA,NA,2,0.5,0.5,5,4,110,3,NA
fcp-trial,145,747373,0.0-120.0-0.0,voc_e2,12112,"[{""event"":""fullscreenenter"",""trial"":1,""time"":7736},{""event"":""blur"",""trial"":36,""time"":459290},{""event"":""focus"",""trial"":36,""time"":461104},{""event"":""blur"",""trial"":36,""time"":464141},{""event"":""focus"",""trial"":37,""time"":465909}]",NA,NA,NA,NA,NA,1,#FA92F8,#1CD855,10,0,1,40,0,241.79999999701977,39,0,318.70000000298023,0,0,experiment,NA,NA,0,0.9,0.1,0,1,111,3,NA
fcp-trial,146,749577,0.0-121.0-0.0,voc_e2,12112,"[{""event"":""fullscreenenter"",""trial"":1,""time"":7736},{""event"":""blur"",""trial"":36,""time"":459290},{""event"":""focus"",""trial"":36,""time"":461104},{""event"":""blur"",""trial"":36,""time"":464141},{""event"":""focus"",""trial"":37,""time"":465909}]",NA,NA,NA,NA,NA,6,#741CD8,#D8271C,10,10,1,40,0,167,39,0,530.2000000029802,10,0,experiment,NA,NA,2,0.5,0.5,4,5,112,3,NA
fcp-trial,147,751932,0.0-122.0-0.0,voc_e2,12112,"[{""event"":""fullscreenenter"",""trial"":1,""time"":7736},{""event"":""blur"",""trial"":36,""time"":459290},{""event"":""focus"",""trial"":36,""time"":461104},{""event"":""blur"",""trial"":36,""time"":464141},{""event"":""focus"",""trial"":37,""time"":465909}]",NA,NA,NA,NA,NA,0,#D89F1C,#3386FF,10,10,1,40,0,420.40000000596046,37,1,428.5,10,1,experiment,NA,NA,1,0.7,0.3,2,3,113,3,NA
fcp-trial,148,754361,0.0-123.0-0.0,voc_e2,12112,"[{""event"":""fullscreenenter"",""trial"":1,""time"":7736},{""event"":""blur"",""trial"":36,""time"":459290},{""event"":""focus"",""trial"":36,""time"":461104},{""event"":""blur"",""trial"":36,""time"":464141},{""event"":""focus"",""trial"":37,""time"":465909}]",NA,NA,NA,NA,NA,1,#741CD8,#D8271C,0,10,1,40,0,367.70000000298023,37,1,557.2000000029802,0,1,experiment,NA,NA,2,0.5,0.5,4,5,114,3,NA
fcp-trial,149,756341,0.0-124.0-0.0,voc_e2,12112,"[{""event"":""fullscreenenter"",""trial"":1,""time"":7736},{""event"":""blur"",""trial"":36,""time"":459290},{""event"":""focus"",""trial"":36,""time"":461104},{""event"":""blur"",""trial"":36,""time"":464141},{""event"":""focus"",""trial"":37,""time"":465909}]",NA,NA,NA,NA,NA,2,#1CD855,#FA92F8,0,10,0,40,0,139.90000000596046,39,0,333.8999999910593,10,1,experiment,NA,NA,0,0.1,0.9,1,0,115,3,NA
fcp-trial,150,758733,0.0-125.0-0.0,voc_e2,12112,"[{""event"":""fullscreenenter"",""trial"":1,""time"":7736},{""event"":""blur"",""trial"":36,""time"":459290},{""event"":""focus"",""trial"":36,""time"":461104},{""event"":""blur"",""trial"":36,""time"":464141},{""event"":""focus"",""trial"":37,""time"":465909}]",NA,NA,NA,NA,NA,6,#D89F1C,#3386FF,0,0,1,40,0,352.40000000596046,39,0,531.5999999940395,0,0,experiment,NA,NA,1,0.7,0.3,2,3,116,3,NA
fcp-trial,151,761154,0.0-126.0-0.0,voc_e2,12112,"[{""event"":""fullscreenenter"",""trial"":1,""time"":7736},{""event"":""blur"",""trial"":36,""time"":459290},{""event"":""focus"",""trial"":36,""time"":461104},{""event"":""blur"",""trial"":36,""time"":464141},{""event"":""focus"",""trial"":37,""time"":465909}]",NA,NA,NA,NA,NA,4,#FA92F8,#1CD855,10,0,1,40,0,334.40000000596046,37,1,581.5,10,1,experiment,NA,NA,0,0.9,0.1,0,1,117,3,NA
fcp-trial,152,763206,0.0-127.0-0.0,voc_e2,12112,"[{""event"":""fullscreenenter"",""trial"":1,""time"":7736},{""event"":""blur"",""trial"":36,""time"":459290},{""event"":""focus"",""trial"":36,""time"":461104},{""event"":""blur"",""trial"":36,""time"":464141},{""event"":""focus"",""trial"":37,""time"":465909}]",NA,NA,NA,NA,NA,0,#741CD8,#D8271C,0,10,1,40,0,9.299999997019768,37,1,539.2999999970198,0,1,experiment,NA,NA,2,0.5,0.5,4,5,118,3,NA
fcp-trial,153,765227,0.0-128.0-0.0,voc_e2,12112,"[{""event"":""fullscreenenter"",""trial"":1,""time"":7736},{""event"":""blur"",""trial"":36,""time"":459290},{""event"":""focus"",""trial"":36,""time"":461104},{""event"":""blur"",""trial"":36,""time"":464141},{""event"":""focus"",""trial"":37,""time"":465909}]",NA,NA,NA,NA,NA,1,#3386FF,#D89F1C,0,10,0,40,0,122.5,39,0,394.90000000596046,10,1,experiment,NA,NA,1,0.3,0.7,3,2,119,3,NA
fcp-trial,154,767489,0.0-129.0-0.0,voc_e2,12112,"[{""event"":""fullscreenenter"",""trial"":1,""time"":7736},{""event"":""blur"",""trial"":36,""time"":459290},{""event"":""focus"",""trial"":36,""time"":461104},{""event"":""blur"",""trial"":36,""time"":464141},{""event"":""focus"",""trial"":37,""time"":465909}]",NA,NA,NA,NA,NA,0,#FA92F8,#1CD855,10,0,1,40,0,474.59999999403954,37,1,284,10,1,experiment,NA,NA,0,0.9,0.1,0,1,120,3,NA
fcp-trial,155,769822,0.0-130.0-0.0,voc_e2,12112,"[{""event"":""fullscreenenter"",""trial"":1,""time"":7736},{""event"":""blur"",""trial"":36,""time"":459290},{""event"":""focus"",""trial"":36,""time"":461104},{""event"":""blur"",""trial"":36,""time"":464141},{""event"":""focus"",""trial"":37,""time"":465909}]",NA,NA,NA,NA,NA,3,#741CD8,#D8271C,10,0,1,40,0,127.09999999403954,37,1,703.4000000059605,10,1,experiment,NA,NA,2,0.5,0.5,4,5,121,3,NA
fcp-trial,156,772003,0.0-131.0-0.0,voc_e2,12112,"[{""event"":""fullscreenenter"",""trial"":1,""time"":7736},{""event"":""blur"",""trial"":36,""time"":459290},{""event"":""focus"",""trial"":36,""time"":461104},{""event"":""blur"",""trial"":36,""time"":464141},{""event"":""focus"",""trial"":37,""time"":465909}]",NA,NA,NA,NA,NA,5,#741CD8,#D8271C,0,0,1,40,0,285.8999999910593,39,0,390.40000000596046,0,0,experiment,NA,NA,2,0.5,0.5,4,5,122,3,NA
fcp-trial,157,774149,0.0-132.0-0.0,voc_e2,12112,"[{""event"":""fullscreenenter"",""trial"":1,""time"":7736},{""event"":""blur"",""trial"":36,""time"":459290},{""event"":""focus"",""trial"":36,""time"":461104},{""event"":""blur"",""trial"":36,""time"":464141},{""event"":""focus"",""trial"":37,""time"":465909}]",NA,NA,NA,NA,NA,2,#D89F1C,#3386FF,10,10,1,40,0,192.8999999910593,39,0,449.09999999403954,10,0,experiment,NA,NA,1,0.7,0.3,2,3,123,3,NA
fcp-trial,158,776472,0.0-133.0-0.0,voc_e2,12112,"[{""event"":""fullscreenenter"",""trial"":1,""time"":7736},{""event"":""blur"",""trial"":36,""time"":459290},{""event"":""focus"",""trial"":36,""time"":461104},{""event"":""blur"",""trial"":36,""time"":464141},{""event"":""focus"",""trial"":37,""time"":465909}]",NA,NA,NA,NA,NA,4,#741CD8,#D8271C,0,10,1,40,0,368.6000000089407,37,1,450.29999999701977,0,1,experiment,NA,NA,2,0.5,0.5,4,5,124,3,NA
fcp-trial,159,779004,0.0-134.0-0.0,voc_e2,12112,"[{""event"":""fullscreenenter"",""trial"":1,""time"":7736},{""event"":""blur"",""trial"":36,""time"":459290},{""event"":""focus"",""trial"":36,""time"":461104},{""event"":""blur"",""trial"":36,""time"":464141},{""event"":""focus"",""trial"":37,""time"":465909}]",NA,NA,NA,NA,NA,6,#FA92F8,#1CD855,10,0,1,40,0,296.3999999910593,39,0,730.4000000059605,0,0,experiment,NA,NA,0,0.9,0.1,0,1,125,3,NA
fcp-trial,160,782059,0.0-135.0-0.0,voc_e2,12112,"[{""event"":""fullscreenenter"",""trial"":1,""time"":7736},{""event"":""blur"",""trial"":36,""time"":459290},{""event"":""focus"",""trial"":36,""time"":461104},{""event"":""blur"",""trial"":36,""time"":464141},{""event"":""focus"",""trial"":37,""time"":465909}]",NA,NA,NA,NA,NA,4,#3386FF,#D89F1C,10,10,0,40,0,133.40000000596046,37,1,1418.2999999970198,10,0,experiment,NA,NA,1,0.3,0.7,3,2,126,3,NA
fcp-trial,161,784352,0.0-136.0-0.0,voc_e2,12112,"[{""event"":""fullscreenenter"",""trial"":1,""time"":7736},{""event"":""blur"",""trial"":36,""time"":459290},{""event"":""focus"",""trial"":36,""time"":461104},{""event"":""blur"",""trial"":36,""time"":464141},{""event"":""focus"",""trial"":37,""time"":465909}]",NA,NA,NA,NA,NA,1,#D89F1C,#3386FF,0,0,1,40,0,401.5,39,0,386.70000000298023,0,0,experiment,NA,NA,1,0.7,0.3,2,3,127,3,NA
fcp-trial,162,786726,0.0-137.0-0.0,voc_e2,12112,"[{""event"":""fullscreenenter"",""trial"":1,""time"":7736},{""event"":""blur"",""trial"":36,""time"":459290},{""event"":""focus"",""trial"":36,""time"":461104},{""event"":""blur"",""trial"":36,""time"":464141},{""event"":""focus"",""trial"":37,""time"":465909}]",NA,NA,NA,NA,NA,2,#741CD8,#D8271C,10,10,1,40,0,533.5999999940395,39,0,335.79999999701977,10,0,experiment,NA,NA,2,0.5,0.5,4,5,128,3,NA
fcp-trial,163,789093,0.0-138.0-0.0,voc_e2,12112,"[{""event"":""fullscreenenter"",""trial"":1,""time"":7736},{""event"":""blur"",""trial"":36,""time"":459290},{""event"":""focus"",""trial"":36,""time"":461104},{""event"":""blur"",""trial"":36,""time"":464141},{""event"":""focus"",""trial"":37,""time"":465909}]",NA,NA,NA,NA,NA,3,#741CD8,#D8271C,0,10,1,40,0,610.5999999940395,37,1,253,0,1,experiment,NA,NA,2,0.5,0.5,4,5,129,3,NA
fcp-trial,164,792240,0.0-139.0-0.0,voc_e2,12112,"[{""event"":""fullscreenenter"",""trial"":1,""time"":7736},{""event"":""blur"",""trial"":36,""time"":459290},{""event"":""focus"",""trial"":36,""time"":461104},{""event"":""blur"",""trial"":36,""time"":464141},{""event"":""focus"",""trial"":37,""time"":465909}]",NA,NA,NA,NA,NA,5,#1CD855,#FA92F8,0,10,0,40,0,409.29999999701977,39,0,1235.2999999970198,10,1,experiment,NA,NA,0,0.1,0.9,1,0,130,3,NA
fcp-trial,165,794677,0.0-140.0-0.0,voc_e2,12112,"[{""event"":""fullscreenenter"",""trial"":1,""time"":7736},{""event"":""blur"",""trial"":36,""time"":459290},{""event"":""focus"",""trial"":36,""time"":461104},{""event"":""blur"",""trial"":36,""time"":464141},{""event"":""focus"",""trial"":37,""time"":465909}]",NA,NA,NA,NA,NA,5,#D89F1C,#3386FF,10,10,1,40,0,164.5,37,1,769.2999999970198,10,1,experiment,NA,NA,1,0.7,0.3,2,3,131,3,NA
fcp-trial,166,796955,0.0-141.0-0.0,voc_e2,12112,"[{""event"":""fullscreenenter"",""trial"":1,""time"":7736},{""event"":""blur"",""trial"":36,""time"":459290},{""event"":""focus"",""trial"":36,""time"":461104},{""event"":""blur"",""trial"":36,""time"":464141},{""event"":""focus"",""trial"":37,""time"":465909}]",NA,NA,NA,NA,NA,0,#3386FF,#D89F1C,0,10,0,40,0,348.8999999910593,39,0,426.5,10,1,experiment,NA,NA,1,0.3,0.7,3,2,132,3,NA
fcp-trial,167,798767,0.0-142.0-0.0,voc_e2,12112,"[{""event"":""fullscreenenter"",""trial"":1,""time"":7736},{""event"":""blur"",""trial"":36,""time"":459290},{""event"":""focus"",""trial"":36,""time"":461104},{""event"":""blur"",""trial"":36,""time"":464141},{""event"":""focus"",""trial"":37,""time"":465909}]",NA,NA,NA,NA,NA,1,#D8271C,#741CD8,0,10,0,40,0,22.899999991059303,37,1,284.29999999701977,0,0,experiment,NA,NA,2,0.5,0.5,5,4,133,3,NA
fcp-trial,168,801752,0.0-143.0-0.0,voc_e2,12112,"[{""event"":""fullscreenenter"",""trial"":1,""time"":7736},{""event"":""blur"",""trial"":36,""time"":459290},{""event"":""focus"",""trial"":36,""time"":461104},{""event"":""blur"",""trial"":36,""time"":464141},{""event"":""focus"",""trial"":37,""time"":465909}]",NA,NA,NA,NA,NA,3,#1CD855,#FA92F8,10,10,0,40,0,756.2000000029802,37,1,726.1000000089407,10,0,experiment,NA,NA,0,0.1,0.9,1,0,134,3,NA
fcp-trial,169,804081,0.0-144.0-0.0,voc_e2,12112,"[{""event"":""fullscreenenter"",""trial"":1,""time"":7736},{""event"":""blur"",""trial"":36,""time"":459290},{""event"":""focus"",""trial"":36,""time"":461104},{""event"":""blur"",""trial"":36,""time"":464141},{""event"":""focus"",""trial"":37,""time"":465909}]",NA,NA,NA,NA,NA,4,#3386FF,#D89F1C,10,0,0,40,0,526,39,0,299.40000000596046,0,1,experiment,NA,NA,1,0.3,0.7,3,2,135,3,NA
fcp-trial,170,806523,0.0-145.0-0.0,voc_e2,12112,"[{""event"":""fullscreenenter"",""trial"":1,""time"":7736},{""event"":""blur"",""trial"":36,""time"":459290},{""event"":""focus"",""trial"":36,""time"":461104},{""event"":""blur"",""trial"":36,""time"":464141},{""event"":""focus"",""trial"":37,""time"":465909}]",NA,NA,NA,NA,NA,6,#1CD855,#FA92F8,0,10,0,40,0,12,39,0,925.3999999910593,10,1,experiment,NA,NA,0,0.1,0.9,1,0,136,4,NA
fcp-trial,171,808875,0.0-146.0-0.0,voc_e2,12112,"[{""event"":""fullscreenenter"",""trial"":1,""time"":7736},{""event"":""blur"",""trial"":36,""time"":459290},{""event"":""focus"",""trial"":36,""time"":461104},{""event"":""blur"",""trial"":36,""time"":464141},{""event"":""focus"",""trial"":37,""time"":465909}]",NA,NA,NA,NA,NA,4,#D8271C,#741CD8,0,0,0,40,0,504.1000000089407,37,1,345.59999999403954,0,0,experiment,NA,NA,2,0.5,0.5,5,4,137,4,NA
fcp-trial,172,811560,0.0-147.0-0.0,voc_e2,12112,"[{""event"":""fullscreenenter"",""trial"":1,""time"":7736},{""event"":""blur"",""trial"":36,""time"":459290},{""event"":""focus"",""trial"":36,""time"":461104},{""event"":""blur"",""trial"":36,""time"":464141},{""event"":""focus"",""trial"":37,""time"":465909}]",NA,NA,NA,NA,NA,5,#741CD8,#D8271C,10,10,1,40,0,759.6999999880791,39,0,421.70000000298023,10,0,experiment,NA,NA,2,0.5,0.5,4,5,138,4,NA
fcp-trial,173,814489,0.0-148.0-0.0,voc_e2,12112,"[{""event"":""fullscreenenter"",""trial"":1,""time"":7736},{""event"":""blur"",""trial"":36,""time"":459290},{""event"":""focus"",""trial"":36,""time"":461104},{""event"":""blur"",""trial"":36,""time"":464141},{""event"":""focus"",""trial"":37,""time"":465909}]",NA,NA,NA,NA,NA,4,#FA92F8,#1CD855,10,0,1,40,0,806.5999999940395,39,0,618.3999999910593,0,0,experiment,NA,NA,0,0.9,0.1,0,1,139,4,NA
fcp-trial,174,817423,0.0-149.0-0.0,voc_e2,12112,"[{""event"":""fullscreenenter"",""trial"":1,""time"":7736},{""event"":""blur"",""trial"":36,""time"":459290},{""event"":""focus"",""trial"":36,""time"":461104},{""event"":""blur"",""trial"":36,""time"":464141},{""event"":""focus"",""trial"":37,""time"":465909}]",NA,NA,NA,NA,NA,6,#D89F1C,#3386FF,0,0,1,40,0,264.5,37,1,1165.7000000029802,0,1,experiment,NA,NA,1,0.7,0.3,2,3,140,4,NA
fcp-trial,175,824914,0.0-150.0-0.0,voc_e2,12112,"[{""event"":""fullscreenenter"",""trial"":1,""time"":7736},{""event"":""blur"",""trial"":36,""time"":459290},{""event"":""focus"",""trial"":36,""time"":461104},{""event"":""blur"",""trial"":36,""time"":464141},{""event"":""focus"",""trial"":37,""time"":465909}]",NA,NA,NA,NA,NA,3,#3386FF,#D89F1C,0,10,0,40,0,887.5,39,0,5100.29999999702,10,1,experiment,NA,NA,1,0.3,0.7,3,2,141,4,NA
fcp-trial,176,830106,0.0-151.0-0.0,voc_e2,12112,"[{""event"":""fullscreenenter"",""trial"":1,""time"":7736},{""event"":""blur"",""trial"":36,""time"":459290},{""event"":""focus"",""trial"":36,""time"":461104},{""event"":""blur"",""trial"":36,""time"":464141},{""event"":""focus"",""trial"":37,""time"":465909}]",NA,NA,NA,NA,NA,6,#D8271C,#741CD8,10,0,0,40,0,124.90000000596046,39,0,3563,0,1,experiment,NA,NA,2,0.5,0.5,5,4,142,4,NA
fcp-trial,177,835483,0.0-152.0-0.0,voc_e2,12112,"[{""event"":""fullscreenenter"",""trial"":1,""time"":7736},{""event"":""blur"",""trial"":36,""time"":459290},{""event"":""focus"",""trial"":36,""time"":461104},{""event"":""blur"",""trial"":36,""time"":464141},{""event"":""focus"",""trial"":37,""time"":465909}]",NA,NA,NA,NA,NA,1,#1CD855,#FA92F8,0,10,0,40,0,3518.9000000059605,37,1,354.19999998807907,0,0,experiment,NA,NA,0,0.1,0.9,1,0,143,4,NA
fcp-trial,178,837493,0.0-153.0-0.0,voc_e2,12112,"[{""event"":""fullscreenenter"",""trial"":1,""time"":7736},{""event"":""blur"",""trial"":36,""time"":459290},{""event"":""focus"",""trial"":36,""time"":461104},{""event"":""blur"",""trial"":36,""time"":464141},{""event"":""focus"",""trial"":37,""time"":465909}]",NA,NA,NA,NA,NA,2,#FA92F8,#1CD855,10,0,1,40,0,126,37,1,380.5,10,1,experiment,NA,NA,0,0.9,0.1,0,1,144,4,NA
fcp-trial,179,839396,0.0-154.0-0.0,voc_e2,12112,"[{""event"":""fullscreenenter"",""trial"":1,""time"":7736},{""event"":""blur"",""trial"":36,""time"":459290},{""event"":""focus"",""trial"":36,""time"":461104},{""event"":""blur"",""trial"":36,""time"":464141},{""event"":""focus"",""trial"":37,""time"":465909}]",NA,NA,NA,NA,NA,2,#3386FF,#D89F1C,10,10,0,40,0,17.799999997019768,37,1,381.5,10,0,experiment,NA,NA,1,0.3,0.7,3,2,145,4,NA
fcp-trial,180,841390,0.0-155.0-0.0,voc_e2,12112,"[{""event"":""fullscreenenter"",""trial"":1,""time"":7736},{""event"":""blur"",""trial"":36,""time"":459290},{""event"":""focus"",""trial"":36,""time"":461104},{""event"":""blur"",""trial"":36,""time"":464141},{""event"":""focus"",""trial"":37,""time"":465909}]",NA,NA,NA,NA,NA,0,#741CD8,#D8271C,10,10,1,40,0,126,39,0,363.40000000596046,10,0,experiment,NA,NA,2,0.5,0.5,4,5,146,4,NA
fcp-trial,181,843704,0.0-156.0-0.0,voc_e2,12112,"[{""event"":""fullscreenenter"",""trial"":1,""time"":7736},{""event"":""blur"",""trial"":36,""time"":459290},{""event"":""focus"",""trial"":36,""time"":461104},{""event"":""blur"",""trial"":36,""time"":464141},{""event"":""focus"",""trial"":37,""time"":465909}]",NA,NA,NA,NA,NA,0,#1CD855,#FA92F8,0,10,0,40,0,185.90000000596046,37,1,622.9000000059605,0,0,experiment,NA,NA,0,0.1,0.9,1,0,147,4,NA
fcp-trial,182,846547,0.0-157.0-0.0,voc_e2,12112,"[{""event"":""fullscreenenter"",""trial"":1,""time"":7736},{""event"":""blur"",""trial"":36,""time"":459290},{""event"":""focus"",""trial"":36,""time"":461104},{""event"":""blur"",""trial"":36,""time"":464141},{""event"":""focus"",""trial"":37,""time"":465909}]",NA,NA,NA,NA,NA,2,#D89F1C,#3386FF,10,0,1,38,1,802.2999999970198,39,0,538.4000000059605,0,0,experiment,NA,NA,1,0.7,0.3,2,3,148,4,NA
fcp-trial,183,849065,0.0-158.0-0.0,voc_e2,12112,"[{""event"":""fullscreenenter"",""trial"":1,""time"":7736},{""event"":""blur"",""trial"":36,""time"":459290},{""event"":""focus"",""trial"":36,""time"":461104},{""event"":""blur"",""trial"":36,""time"":464141},{""event"":""focus"",""trial"":37,""time"":465909}]",NA,NA,NA,NA,NA,6,#741CD8,#D8271C,10,10,1,40,0,217.20000000298023,37,1,795.7000000029802,10,1,experiment,NA,NA,2,0.5,0.5,4,5,149,4,NA
fcp-trial,184,851395,0.0-159.0-0.0,voc_e2,12112,"[{""event"":""fullscreenenter"",""trial"":1,""time"":7736},{""event"":""blur"",""trial"":36,""time"":459290},{""event"":""focus"",""trial"":36,""time"":461104},{""event"":""blur"",""trial"":36,""time"":464141},{""event"":""focus"",""trial"":37,""time"":465909}]",NA,NA,NA,NA,NA,6,#3386FF,#D89F1C,10,10,0,40,0,159.79999999701977,39,0,667.2000000029802,10,1,experiment,NA,NA,1,0.3,0.7,3,2,150,4,NA
fcp-trial,185,855082,0.0-160.0-0.0,voc_e2,12112,"[{""event"":""fullscreenenter"",""trial"":1,""time"":7736},{""event"":""blur"",""trial"":36,""time"":459290},{""event"":""focus"",""trial"":36,""time"":461104},{""event"":""blur"",""trial"":36,""time"":464141},{""event"":""focus"",""trial"":37,""time"":465909}]",NA,NA,NA,NA,NA,3,#741CD8,#D8271C,0,10,1,40,0,273.40000000596046,39,0,1908.4000000059605,10,0,experiment,NA,NA,2,0.5,0.5,4,5,151,4,NA
fcp-trial,186,857652,0.0-161.0-0.0,voc_e2,12112,"[{""event"":""fullscreenenter"",""trial"":1,""time"":7736},{""event"":""blur"",""trial"":36,""time"":459290},{""event"":""focus"",""trial"":36,""time"":461104},{""event"":""blur"",""trial"":36,""time"":464141},{""event"":""focus"",""trial"":37,""time"":465909}]",NA,NA,NA,NA,NA,1,#1CD855,#FA92F8,0,10,0,40,0,320.90000000596046,39,0,744.5999999940395,10,1,experiment,NA,NA,0,0.1,0.9,1,0,152,4,NA
fcp-trial,187,859712,0.0-162.0-0.0,voc_e2,12112,"[{""event"":""fullscreenenter"",""trial"":1,""time"":7736},{""event"":""blur"",""trial"":36,""time"":459290},{""event"":""focus"",""trial"":36,""time"":461104},{""event"":""blur"",""trial"":36,""time"":464141},{""event"":""focus"",""trial"":37,""time"":465909}]",NA,NA,NA,NA,NA,5,#FA92F8,#1CD855,10,0,1,40,0,258.59999999403954,39,0,299.40000000596046,0,0,experiment,NA,NA,0,0.9,0.1,0,1,153,4,NA
fcp-trial,188,866178,0.0-163.0-0.0,voc_e2,12112,"[{""event"":""fullscreenenter"",""trial"":1,""time"":7736},{""event"":""blur"",""trial"":36,""time"":459290},{""event"":""focus"",""trial"":36,""time"":461104},{""event"":""blur"",""trial"":36,""time"":464141},{""event"":""focus"",""trial"":37,""time"":465909}]",NA,NA,NA,NA,NA,0,#D8271C,#741CD8,10,10,0,40,0,52.19999998807907,39,0,4908.20000000298,10,1,experiment,NA,NA,2,0.5,0.5,5,4,154,4,NA
fcp-trial,189,871364,0.0-164.0-0.0,voc_e2,12112,"[{""event"":""fullscreenenter"",""trial"":1,""time"":7736},{""event"":""blur"",""trial"":36,""time"":459290},{""event"":""focus"",""trial"":36,""time"":461104},{""event"":""blur"",""trial"":36,""time"":464141},{""event"":""focus"",""trial"":37,""time"":465909}]",NA,NA,NA,NA,NA,5,#3386FF,#D89F1C,0,0,0,40,0,433.79999999701977,39,0,3247.4000000059605,0,1,experiment,NA,NA,1,0.3,0.7,3,2,155,4,NA
fcp-trial,190,874110,0.0-165.0-0.0,voc_e2,12112,"[{""event"":""fullscreenenter"",""trial"":1,""time"":7736},{""event"":""blur"",""trial"":36,""time"":459290},{""event"":""focus"",""trial"":36,""time"":461104},{""event"":""blur"",""trial"":36,""time"":464141},{""event"":""focus"",""trial"":37,""time"":465909}]",NA,NA,NA,NA,NA,3,#3386FF,#D89F1C,10,10,0,40,0,26.80000001192093,39,0,1214.4000000059605,10,1,experiment,NA,NA,1,0.3,0.7,3,2,156,4,NA
fcp-trial,191,877682,0.0-166.0-0.0,voc_e2,12112,"[{""event"":""fullscreenenter"",""trial"":1,""time"":7736},{""event"":""blur"",""trial"":36,""time"":459290},{""event"":""focus"",""trial"":36,""time"":461104},{""event"":""blur"",""trial"":36,""time"":464141},{""event"":""focus"",""trial"":37,""time"":465909}]",NA,NA,NA,NA,NA,4,#741CD8,#D8271C,10,10,1,40,0,126.90000000596046,37,1,1941.2000000029802,10,1,experiment,NA,NA,2,0.5,0.5,4,5,157,4,NA
fcp-trial,192,880892,0.0-167.0-0.0,voc_e2,12112,"[{""event"":""fullscreenenter"",""trial"":1,""time"":7736},{""event"":""blur"",""trial"":36,""time"":459290},{""event"":""focus"",""trial"":36,""time"":461104},{""event"":""blur"",""trial"":36,""time"":464141},{""event"":""focus"",""trial"":37,""time"":465909}]",NA,NA,NA,NA,NA,2,#1CD855,#FA92F8,0,10,0,40,0,1211.6000000089407,37,1,495.5,0,0,experiment,NA,NA,0,0.1,0.9,1,0,158,4,NA
fcp-trial,193,884350,0.0-168.0-0.0,voc_e2,12112,"[{""event"":""fullscreenenter"",""trial"":1,""time"":7736},{""event"":""blur"",""trial"":36,""time"":459290},{""event"":""focus"",""trial"":36,""time"":461104},{""event"":""blur"",""trial"":36,""time"":464141},{""event"":""focus"",""trial"":37,""time"":465909}]",NA,NA,NA,NA,NA,2,#741CD8,#D8271C,10,10,1,40,0,1063.7000000029802,37,1,889.6000000089407,10,1,experiment,NA,NA,2,0.5,0.5,4,5,159,4,NA
fcp-trial,194,888344,0.0-169.0-0.0,voc_e2,12112,"[{""event"":""fullscreenenter"",""trial"":1,""time"":7736},{""event"":""blur"",""trial"":36,""time"":459290},{""event"":""focus"",""trial"":36,""time"":461104},{""event"":""blur"",""trial"":36,""time"":464141},{""event"":""focus"",""trial"":37,""time"":465909}]",NA,NA,NA,NA,NA,4,#FA92F8,#1CD855,10,0,1,40,0,329.5,39,0,2159.7999999970198,0,0,experiment,NA,NA,0,0.9,0.1,0,1,160,4,NA
fcp-trial,195,890801,0.0-170.0-0.0,voc_e2,12112,"[{""event"":""fullscreenenter"",""trial"":1,""time"":7736},{""event"":""blur"",""trial"":36,""time"":459290},{""event"":""focus"",""trial"":36,""time"":461104},{""event"":""blur"",""trial"":36,""time"":464141},{""event"":""focus"",""trial"":37,""time"":465909}]",NA,NA,NA,NA,NA,1,#3386FF,#D89F1C,10,10,0,40,0,201.30000001192093,39,0,750.5999999940395,10,1,experiment,NA,NA,1,0.3,0.7,3,2,161,4,NA
fcp-trial,196,893265,0.0-171.0-0.0,voc_e2,12112,"[{""event"":""fullscreenenter"",""trial"":1,""time"":7736},{""event"":""blur"",""trial"":36,""time"":459290},{""event"":""focus"",""trial"":36,""time"":461104},{""event"":""blur"",""trial"":36,""time"":464141},{""event"":""focus"",""trial"":37,""time"":465909}]",NA,NA,NA,NA,NA,4,#D89F1C,#3386FF,10,10,1,40,0,509.70000000298023,39,0,450.90000000596046,10,0,experiment,NA,NA,1,0.7,0.3,2,3,162,4,NA
fcp-trial,197,896283,0.0-172.0-0.0,voc_e2,12112,"[{""event"":""fullscreenenter"",""trial"":1,""time"":7736},{""event"":""blur"",""trial"":36,""time"":459290},{""event"":""focus"",""trial"":36,""time"":461104},{""event"":""blur"",""trial"":36,""time"":464141},{""event"":""focus"",""trial"":37,""time"":465909}]",NA,NA,NA,NA,NA,5,#741CD8,#D8271C,10,0,1,40,0,933.5,39,0,581.5,0,0,experiment,NA,NA,2,0.5,0.5,4,5,163,4,NA
fcp-trial,198,898645,0.0-173.0-0.0,voc_e2,12112,"[{""event"":""fullscreenenter"",""trial"":1,""time"":7736},{""event"":""blur"",""trial"":36,""time"":459290},{""event"":""focus"",""trial"":36,""time"":461104},{""event"":""blur"",""trial"":36,""time"":464141},{""event"":""focus"",""trial"":37,""time"":465909}]",NA,NA,NA,NA,NA,0,#1CD855,#FA92F8,0,10,0,40,0,528.4000000059605,37,1,329.79999999701977,0,0,experiment,NA,NA,0,0.1,0.9,1,0,164,4,NA
fcp-trial,199,900885,0.0-174.0-0.0,voc_e2,12112,"[{""event"":""fullscreenenter"",""trial"":1,""time"":7736},{""event"":""blur"",""trial"":36,""time"":459290},{""event"":""focus"",""trial"":36,""time"":461104},{""event"":""blur"",""trial"":36,""time"":464141},{""event"":""focus"",""trial"":37,""time"":465909}]",NA,NA,NA,NA,NA,0,#3386FF,#D89F1C,0,10,0,40,0,391.5,39,0,344.30000001192093,10,1,experiment,NA,NA,1,0.3,0.7,3,2,165,4,NA
fcp-trial,200,903338,0.0-175.0-0.0,voc_e2,12112,"[{""event"":""fullscreenenter"",""trial"":1,""time"":7736},{""event"":""blur"",""trial"":36,""time"":459290},{""event"":""focus"",""trial"":36,""time"":461104},{""event"":""blur"",""trial"":36,""time"":464141},{""event"":""focus"",""trial"":37,""time"":465909}]",NA,NA,NA,NA,NA,1,#D8271C,#741CD8,0,10,0,40,0,365.6000000089407,39,0,581.4000000059605,10,1,experiment,NA,NA,2,0.5,0.5,5,4,166,4,NA
fcp-trial,201,905694,0.0-176.0-0.0,voc_e2,12112,"[{""event"":""fullscreenenter"",""trial"":1,""time"":7736},{""event"":""blur"",""trial"":36,""time"":459290},{""event"":""focus"",""trial"":36,""time"":461104},{""event"":""blur"",""trial"":36,""time"":464141},{""event"":""focus"",""trial"":37,""time"":465909}]",NA,NA,NA,NA,NA,3,#FA92F8,#1CD855,10,0,1,40,0,332.90000000596046,39,0,520.3000000119209,0,0,experiment,NA,NA,0,0.9,0.1,0,1,167,4,NA
fcp-trial,202,908259,0.0-177.0-0.0,voc_e2,12112,"[{""event"":""fullscreenenter"",""trial"":1,""time"":7736},{""event"":""blur"",""trial"":36,""time"":459290},{""event"":""focus"",""trial"":36,""time"":461104},{""event"":""blur"",""trial"":36,""time"":464141},{""event"":""focus"",""trial"":37,""time"":465909}]",NA,NA,NA,NA,NA,6,#FA92F8,#1CD855,10,0,1,40,0,433.69999998807907,37,1,626.2999999970198,10,1,experiment,NA,NA,0,0.9,0.1,0,1,168,4,NA
fcp-trial,203,910619,0.0-178.0-0.0,voc_e2,12112,"[{""event"":""fullscreenenter"",""trial"":1,""time"":7736},{""event"":""blur"",""trial"":36,""time"":459290},{""event"":""focus"",""trial"":36,""time"":461104},{""event"":""blur"",""trial"":36,""time"":464141},{""event"":""focus"",""trial"":37,""time"":465909}]",NA,NA,NA,NA,NA,4,#FA92F8,#1CD855,0,0,1,40,0,332.5,37,1,522.3999999910593,0,1,experiment,NA,NA,0,0.9,0.1,0,1,169,4,NA
fcp-trial,204,912889,0.0-179.0-0.0,voc_e2,12112,"[{""event"":""fullscreenenter"",""trial"":1,""time"":7736},{""event"":""blur"",""trial"":36,""time"":459290},{""event"":""focus"",""trial"":36,""time"":461104},{""event"":""blur"",""trial"":36,""time"":464141},{""event"":""focus"",""trial"":37,""time"":465909}]",NA,NA,NA,NA,NA,6,#D89F1C,#3386FF,10,0,1,40,0,397.40000000596046,39,0,368.40000000596046,0,0,experiment,NA,NA,1,0.7,0.3,2,3,170,4,NA
fcp-trial,205,915041,0.0-180.0-0.0,voc_e2,12112,"[{""event"":""fullscreenenter"",""trial"":1,""time"":7736},{""event"":""blur"",""trial"":36,""time"":459290},{""event"":""focus"",""trial"":36,""time"":461104},{""event"":""blur"",""trial"":36,""time"":464141},{""event"":""focus"",""trial"":37,""time"":465909}]",NA,NA,NA,NA,NA,4,#741CD8,#D8271C,0,10,1,40,0,187.5,39,0,461.5,10,0,experiment,NA,NA,2,0.5,0.5,4,5,171,4,NA
fcp-trial,206,918243,0.0-181.0-0.0,voc_e2,12112,"[{""event"":""fullscreenenter"",""trial"":1,""time"":7736},{""event"":""blur"",""trial"":36,""time"":459290},{""event"":""focus"",""trial"":36,""time"":461104},{""event"":""blur"",""trial"":36,""time"":464141},{""event"":""focus"",""trial"":37,""time"":465909}]",NA,NA,NA,NA,NA,3,#3386FF,#D89F1C,0,10,0,40,0,767.9000000059605,39,0,929.7999999970198,10,1,experiment,NA,NA,1,0.3,0.7,3,2,172,4,NA
fcp-trial,207,921228,0.0-182.0-0.0,voc_e2,12112,"[{""event"":""fullscreenenter"",""trial"":1,""time"":7736},{""event"":""blur"",""trial"":36,""time"":459290},{""event"":""focus"",""trial"":36,""time"":461104},{""event"":""blur"",""trial"":36,""time"":464141},{""event"":""focus"",""trial"":37,""time"":465909}]",NA,NA,NA,NA,NA,3,#1CD855,#FA92F8,0,10,0,40,0,801.5,39,0,680.7000000029802,10,1,experiment,NA,NA,0,0.1,0.9,1,0,173,4,NA
fcp-trial,208,923332,0.0-183.0-0.0,voc_e2,12112,"[{""event"":""fullscreenenter"",""trial"":1,""time"":7736},{""event"":""blur"",""trial"":36,""time"":459290},{""event"":""focus"",""trial"":36,""time"":461104},{""event"":""blur"",""trial"":36,""time"":464141},{""event"":""focus"",""trial"":37,""time"":465909}]",NA,NA,NA,NA,NA,0,#FA92F8,#1CD855,10,0,1,40,0,107.1000000089407,37,1,492.09999999403954,10,1,experiment,NA,NA,0,0.9,0.1,0,1,174,4,NA
fcp-trial,209,925848,0.0-184.0-0.0,voc_e2,12112,"[{""event"":""fullscreenenter"",""trial"":1,""time"":7736},{""event"":""blur"",""trial"":36,""time"":459290},{""event"":""focus"",""trial"":36,""time"":461104},{""event"":""blur"",""trial"":36,""time"":464141},{""event"":""focus"",""trial"":37,""time"":465909}]",NA,NA,NA,NA,NA,0,#D8271C,#741CD8,10,10,0,40,0,331.5,37,1,681.5,10,0,experiment,NA,NA,2,0.5,0.5,5,4,175,4,NA
fcp-trial,210,928047,0.0-185.0-0.0,voc_e2,12112,"[{""event"":""fullscreenenter"",""trial"":1,""time"":7736},{""event"":""blur"",""trial"":36,""time"":459290},{""event"":""focus"",""trial"":36,""time"":461104},{""event"":""blur"",""trial"":36,""time"":464141},{""event"":""focus"",""trial"":37,""time"":465909}]",NA,NA,NA,NA,NA,2,#741CD8,#D8271C,0,0,1,40,0,336.1000000089407,39,0,358.5,0,0,experiment,NA,NA,2,0.5,0.5,4,5,176,4,NA
fcp-trial,211,930168,0.0-186.0-0.0,voc_e2,12112,"[{""event"":""fullscreenenter"",""trial"":1,""time"":7736},{""event"":""blur"",""trial"":36,""time"":459290},{""event"":""focus"",""trial"":36,""time"":461104},{""event"":""blur"",""trial"":36,""time"":464141},{""event"":""focus"",""trial"":37,""time"":465909}]",NA,NA,NA,NA,NA,0,#3386FF,#D89F1C,10,10,0,40,0,310.5,37,1,305.70000000298023,10,0,experiment,NA,NA,1,0.3,0.7,3,2,177,4,NA
fcp-trial,212,932600,0.0-187.0-0.0,voc_e2,12112,"[{""event"":""fullscreenenter"",""trial"":1,""time"":7736},{""event"":""blur"",""trial"":36,""time"":459290},{""event"":""focus"",""trial"":36,""time"":461104},{""event"":""blur"",""trial"":36,""time"":464141},{""event"":""focus"",""trial"":37,""time"":465909}]",NA,NA,NA,NA,NA,5,#1CD855,#FA92F8,0,10,0,40,0,451.3999999910593,39,0,477.3999999910593,10,1,experiment,NA,NA,0,0.1,0.9,1,0,178,4,NA
fcp-trial,213,934838,0.0-188.0-0.0,voc_e2,12112,"[{""event"":""fullscreenenter"",""trial"":1,""time"":7736},{""event"":""blur"",""trial"":36,""time"":459290},{""event"":""focus"",""trial"":36,""time"":461104},{""event"":""blur"",""trial"":36,""time"":464141},{""event"":""focus"",""trial"":37,""time"":465909}]",NA,NA,NA,NA,NA,1,#FA92F8,#1CD855,10,0,1,40,0,327.09999999403954,37,1,407.3999999910593,10,1,experiment,NA,NA,0,0.9,0.1,0,1,179,4,NA
fcp-trial,214,937412,0.0-189.0-0.0,voc_e2,12112,"[{""event"":""fullscreenenter"",""trial"":1,""time"":7736},{""event"":""blur"",""trial"":36,""time"":459290},{""event"":""focus"",""trial"":36,""time"":461104},{""event"":""blur"",""trial"":36,""time"":464141},{""event"":""focus"",""trial"":37,""time"":465909}]",NA,NA,NA,NA,NA,3,#D8271C,#741CD8,10,10,0,40,0,424.3999999910593,37,1,644.5,10,0,experiment,NA,NA,2,0.5,0.5,5,4,180,4,NA
fcp-trial,215,939669,0.0-190.0-0.0,voc_e2,12112,"[{""event"":""fullscreenenter"",""trial"":1,""time"":7736},{""event"":""blur"",""trial"":36,""time"":459290},{""event"":""focus"",""trial"":36,""time"":461104},{""event"":""blur"",""trial"":36,""time"":464141},{""event"":""focus"",""trial"":37,""time"":465909}]",NA,NA,NA,NA,NA,5,#D89F1C,#3386FF,10,0,1,40,0,340.90000000596046,39,0,411.40000000596046,0,0,experiment,NA,NA,1,0.7,0.3,2,3,181,5,NA
fcp-trial,216,941696,0.0-191.0-0.0,voc_e2,12112,"[{""event"":""fullscreenenter"",""trial"":1,""time"":7736},{""event"":""blur"",""trial"":36,""time"":459290},{""event"":""focus"",""trial"":36,""time"":461104},{""event"":""blur"",""trial"":36,""time"":464141},{""event"":""focus"",""trial"":37,""time"":465909}]",NA,NA,NA,NA,NA,1,#D89F1C,#3386FF,10,0,1,40,0,238.20000000298023,37,1,284.5,10,1,experiment,NA,NA,1,0.7,0.3,2,3,182,5,NA
fcp-trial,217,944059,0.0-192.0-0.0,voc_e2,12112,"[{""event"":""fullscreenenter"",""trial"":1,""time"":7736},{""event"":""blur"",""trial"":36,""time"":459290},{""event"":""focus"",""trial"":36,""time"":461104},{""event"":""blur"",""trial"":36,""time"":464141},{""event"":""focus"",""trial"":37,""time"":465909}]",NA,NA,NA,NA,NA,2,#FA92F8,#1CD855,10,10,1,40,0,181.79999999701977,37,1,676.5,10,1,experiment,NA,NA,0,0.9,0.1,0,1,183,5,NA
fcp-trial,218,949180,0.0-193.0-0.0,voc_e2,12112,"[{""event"":""fullscreenenter"",""trial"":1,""time"":7736},{""event"":""blur"",""trial"":36,""time"":459290},{""event"":""focus"",""trial"":36,""time"":461104},{""event"":""blur"",""trial"":36,""time"":464141},{""event"":""focus"",""trial"":37,""time"":465909}]",NA,NA,NA,NA,NA,4,#D89F1C,#3386FF,0,0,1,40,0,3092.9000000059605,37,1,523,0,1,experiment,NA,NA,1,0.7,0.3,2,3,184,5,NA
fcp-trial,219,951816,0.0-194.0-0.0,voc_e2,12112,"[{""event"":""fullscreenenter"",""trial"":1,""time"":7736},{""event"":""blur"",""trial"":36,""time"":459290},{""event"":""focus"",""trial"":36,""time"":461104},{""event"":""blur"",""trial"":36,""time"":464141},{""event"":""focus"",""trial"":37,""time"":465909}]",NA,NA,NA,NA,NA,6,#741CD8,#D8271C,0,0,1,40,0,563.7000000029802,39,0,567.7999999970198,0,0,experiment,NA,NA,2,0.5,0.5,4,5,185,5,NA
fcp-trial,220,953964,0.0-195.0-0.0,voc_e2,12112,"[{""event"":""fullscreenenter"",""trial"":1,""time"":7736},{""event"":""blur"",""trial"":36,""time"":459290},{""event"":""focus"",""trial"":36,""time"":461104},{""event"":""blur"",""trial"":36,""time"":464141},{""event"":""focus"",""trial"":37,""time"":465909}]",NA,NA,NA,NA,NA,6,#1CD855,#FA92F8,0,10,0,40,0,281.29999999701977,37,1,363.3999999910593,0,0,experiment,NA,NA,0,0.1,0.9,1,0,186,5,NA
fcp-trial,221,956423,0.0-196.0-0.0,voc_e2,12112,"[{""event"":""fullscreenenter"",""trial"":1,""time"":7736},{""event"":""blur"",""trial"":36,""time"":459290},{""event"":""focus"",""trial"":36,""time"":461104},{""event"":""blur"",""trial"":36,""time"":464141},{""event"":""focus"",""trial"":37,""time"":465909}]",NA,NA,NA,NA,NA,2,#D89F1C,#3386FF,10,0,1,40,0,451.80000001192093,37,1,503.1000000089407,10,1,experiment,NA,NA,1,0.7,0.3,2,3,187,5,NA
fcp-trial,222,958656,0.0-197.0-0.0,voc_e2,12112,"[{""event"":""fullscreenenter"",""trial"":1,""time"":7736},{""event"":""blur"",""trial"":36,""time"":459290},{""event"":""focus"",""trial"":36,""time"":461104},{""event"":""blur"",""trial"":36,""time"":464141},{""event"":""focus"",""trial"":37,""time"":465909}]",NA,NA,NA,NA,NA,1,#D8271C,#741CD8,0,10,0,40,0,437.70000000298023,39,0,289.29999999701977,10,1,experiment,NA,NA,2,0.5,0.5,5,4,188,5,NA
fcp-trial,223,961099,0.0-198.0-0.0,voc_e2,12112,"[{""event"":""fullscreenenter"",""trial"":1,""time"":7736},{""event"":""blur"",""trial"":36,""time"":459290},{""event"":""focus"",""trial"":36,""time"":461104},{""event"":""blur"",""trial"":36,""time"":464141},{""event"":""focus"",""trial"":37,""time"":465909}]",NA,NA,NA,NA,NA,5,#741CD8,#D8271C,0,0,1,40,0,524.8999999910593,39,0,413.29999999701977,0,0,experiment,NA,NA,2,0.5,0.5,4,5,189,5,NA
fcp-trial,224,964308,0.0-199.0-0.0,voc_e2,12112,"[{""event"":""fullscreenenter"",""trial"":1,""time"":7736},{""event"":""blur"",""trial"":36,""time"":459290},{""event"":""focus"",""trial"":36,""time"":461104},{""event"":""blur"",""trial"":36,""time"":464141},{""event"":""focus"",""trial"":37,""time"":465909}]",NA,NA,NA,NA,NA,0,#FA92F8,#1CD855,10,0,1,40,0,1266.7999999970198,39,0,438.40000000596046,0,0,experiment,NA,NA,0,0.9,0.1,0,1,190,5,NA
fcp-trial,225,966572,0.0-200.0-0.0,voc_e2,12112,"[{""event"":""fullscreenenter"",""trial"":1,""time"":7736},{""event"":""blur"",""trial"":36,""time"":459290},{""event"":""focus"",""trial"":36,""time"":461104},{""event"":""blur"",""trial"":36,""time"":464141},{""event"":""focus"",""trial"":37,""time"":465909}]",NA,NA,NA,NA,NA,5,#FA92F8,#1CD855,10,0,1,40,0,507.70000000298023,39,0,251.70000000298023,0,0,experiment,NA,NA,0,0.9,0.1,0,1,191,5,NA
fcp-trial,226,969087,0.0-201.0-0.0,voc_e2,12112,"[{""event"":""fullscreenenter"",""trial"":1,""time"":7736},{""event"":""blur"",""trial"":36,""time"":459290},{""event"":""focus"",""trial"":36,""time"":461104},{""event"":""blur"",""trial"":36,""time"":464141},{""event"":""focus"",""trial"":37,""time"":465909}]",NA,NA,NA,NA,NA,6,#741CD8,#D8271C,0,0,1,40,0,23.599999994039536,37,1,987.5,0,1,experiment,NA,NA,2,0.5,0.5,4,5,192,5,NA
fcp-trial,227,971338,0.0-202.0-0.0,voc_e2,12112,"[{""event"":""fullscreenenter"",""trial"":1,""time"":7736},{""event"":""blur"",""trial"":36,""time"":459290},{""event"":""focus"",""trial"":36,""time"":461104},{""event"":""blur"",""trial"":36,""time"":464141},{""event"":""focus"",""trial"":37,""time"":465909}]",NA,NA,NA,NA,NA,1,#3386FF,#D89F1C,10,10,0,38,1,63.29999999701977,37,1,684.4000000059605,10,0,experiment,NA,NA,1,0.3,0.7,3,2,193,5,NA
fcp-trial,228,973344,0.0-203.0-0.0,voc_e2,12112,"[{""event"":""fullscreenenter"",""trial"":1,""time"":7736},{""event"":""blur"",""trial"":36,""time"":459290},{""event"":""focus"",""trial"":36,""time"":461104},{""event"":""blur"",""trial"":36,""time"":464141},{""event"":""focus"",""trial"":37,""time"":465909}]",NA,NA,NA,NA,NA,5,#D89F1C,#3386FF,10,0,1,38,1,90.5,37,1,410.5,10,1,experiment,NA,NA,1,0.7,0.3,2,3,194,5,NA
fcp-trial,229,975412,0.0-204.0-0.0,voc_e2,12112,"[{""event"":""fullscreenenter"",""trial"":1,""time"":7736},{""event"":""blur"",""trial"":36,""time"":459290},{""event"":""focus"",""trial"":36,""time"":461104},{""event"":""blur"",""trial"":36,""time"":464141},{""event"":""focus"",""trial"":37,""time"":465909}]",NA,NA,NA,NA,NA,2,#1CD855,#FA92F8,0,10,0,38,1,156,37,1,408.3999999910593,0,0,experiment,NA,NA,0,0.1,0.9,1,0,195,5,NA
fcp-trial,230,977481,0.0-205.0-0.0,voc_e2,12112,"[{""event"":""fullscreenenter"",""trial"":1,""time"":7736},{""event"":""blur"",""trial"":36,""time"":459290},{""event"":""focus"",""trial"":36,""time"":461104},{""event"":""blur"",""trial"":36,""time"":464141},{""event"":""focus"",""trial"":37,""time"":465909}]",NA,NA,NA,NA,NA,4,#D8271C,#741CD8,0,0,0,38,1,146.79999999701977,37,1,418.5,0,0,experiment,NA,NA,2,0.5,0.5,5,4,196,5,NA
fcp-trial,231,979436,0.0-206.0-0.0,voc_e2,12112,"[{""event"":""fullscreenenter"",""trial"":1,""time"":7736},{""event"":""blur"",""trial"":36,""time"":459290},{""event"":""focus"",""trial"":36,""time"":461104},{""event"":""blur"",""trial"":36,""time"":464141},{""event"":""focus"",""trial"":37,""time"":465909}]",NA,NA,NA,NA,NA,3,#D89F1C,#3386FF,10,0,1,38,1,26.5,37,1,423.69999998807907,10,1,experiment,NA,NA,1,0.7,0.3,2,3,197,5,NA
fcp-trial,232,981513,0.0-207.0-0.0,voc_e2,12112,"[{""event"":""fullscreenenter"",""trial"":1,""time"":7736},{""event"":""blur"",""trial"":36,""time"":459290},{""event"":""focus"",""trial"":36,""time"":461104},{""event"":""blur"",""trial"":36,""time"":464141},{""event"":""focus"",""trial"":37,""time"":465909}]",NA,NA,NA,NA,NA,5,#741CD8,#D8271C,0,10,1,38,1,204.20000000298023,37,1,368.5,0,1,experiment,NA,NA,2,0.5,0.5,4,5,198,5,NA
fcp-trial,233,983505,0.0-208.0-0.0,voc_e2,12112,"[{""event"":""fullscreenenter"",""trial"":1,""time"":7736},{""event"":""blur"",""trial"":36,""time"":459290},{""event"":""focus"",""trial"":36,""time"":461104},{""event"":""blur"",""trial"":36,""time"":464141},{""event"":""focus"",""trial"":37,""time"":465909}]",NA,NA,NA,NA,NA,1,#1CD855,#FA92F8,0,0,0,38,1,111.70000000298023,37,1,376.70000000298023,0,0,experiment,NA,NA,0,0.1,0.9,1,0,199,5,NA
fcp-trial,234,985547,0.0-209.0-0.0,voc_e2,12112,"[{""event"":""fullscreenenter"",""trial"":1,""time"":7736},{""event"":""blur"",""trial"":36,""time"":459290},{""event"":""focus"",""trial"":36,""time"":461104},{""event"":""blur"",""trial"":36,""time"":464141},{""event"":""focus"",""trial"":37,""time"":465909}]",NA,NA,NA,NA,NA,1,#741CD8,#D8271C,0,10,1,38,1,96.59999999403954,37,1,441.29999999701977,0,1,experiment,NA,NA,2,0.5,0.5,4,5,200,5,NA
fcp-trial,235,987551,0.0-210.0-0.0,voc_e2,12112,"[{""event"":""fullscreenenter"",""trial"":1,""time"":7736},{""event"":""blur"",""trial"":36,""time"":459290},{""event"":""focus"",""trial"":36,""time"":461104},{""event"":""blur"",""trial"":36,""time"":464141},{""event"":""focus"",""trial"":37,""time"":465909}]",NA,NA,NA,NA,NA,4,#FA92F8,#1CD855,10,0,1,38,1,29.299999997019768,37,1,471.3999999910593,10,1,experiment,NA,NA,0,0.9,0.1,0,1,201,5,NA
fcp-trial,236,989861,0.0-211.0-0.0,voc_e2,12112,"[{""event"":""fullscreenenter"",""trial"":1,""time"":7736},{""event"":""blur"",""trial"":36,""time"":459290},{""event"":""focus"",""trial"":36,""time"":461104},{""event"":""blur"",""trial"":36,""time"":464141},{""event"":""focus"",""trial"":37,""time"":465909}]",NA,NA,NA,NA,NA,2,#3386FF,#D89F1C,0,10,0,38,1,151.8999999910593,37,1,653.9000000059605,0,0,experiment,NA,NA,1,0.3,0.7,3,2,202,5,NA
fcp-trial,237,992078,0.0-212.0-0.0,voc_e2,12112,"[{""event"":""fullscreenenter"",""trial"":1,""time"":7736},{""event"":""blur"",""trial"":36,""time"":459290},{""event"":""focus"",""trial"":36,""time"":461104},{""event"":""blur"",""trial"":36,""time"":464141},{""event"":""focus"",""trial"":37,""time"":465909}]",NA,NA,NA,NA,NA,4,#D89F1C,#3386FF,0,0,1,38,1,242.70000000298023,37,1,470.40000000596046,0,1,experiment,NA,NA,1,0.7,0.3,2,3,203,5,NA
fcp-trial,238,994088,0.0-213.0-0.0,voc_e2,12112,"[{""event"":""fullscreenenter"",""trial"":1,""time"":7736},{""event"":""blur"",""trial"":36,""time"":459290},{""event"":""focus"",""trial"":36,""time"":461104},{""event"":""blur"",""trial"":36,""time"":464141},{""event"":""focus"",""trial"":37,""time"":465909}]",NA,NA,NA,NA,NA,6,#FA92F8,#1CD855,10,0,1,38,1,75.1000000089407,37,1,430.20000000298023,10,1,experiment,NA,NA,0,0.9,0.1,0,1,204,5,NA
fcp-trial,239,997120,0.0-214.0-0.0,voc_e2,12112,"[{""event"":""fullscreenenter"",""trial"":1,""time"":7736},{""event"":""blur"",""trial"":36,""time"":459290},{""event"":""focus"",""trial"":36,""time"":461104},{""event"":""blur"",""trial"":36,""time"":464141},{""event"":""focus"",""trial"":37,""time"":465909}]",NA,NA,NA,NA,NA,2,#741CD8,#D8271C,0,0,1,38,1,1088.2000000029802,37,1,438.3999999910593,0,1,experiment,NA,NA,2,0.5,0.5,4,5,205,5,NA
fcp-trial,240,999218,0.0-215.0-0.0,voc_e2,12112,"[{""event"":""fullscreenenter"",""trial"":1,""time"":7736},{""event"":""blur"",""trial"":36,""time"":459290},{""event"":""focus"",""trial"":36,""time"":461104},{""event"":""blur"",""trial"":36,""time"":464141},{""event"":""focus"",""trial"":37,""time"":465909}]",NA,NA,NA,NA,NA,3,#1CD855,#FA92F8,0,0,0,38,1,177.59999999403954,37,1,416.20000000298023,0,0,experiment,NA,NA,0,0.1,0.9,1,0,206,5,NA
fcp-trial,241,1001185,0.0-216.0-0.0,voc_e2,12112,"[{""event"":""fullscreenenter"",""trial"":1,""time"":7736},{""event"":""blur"",""trial"":36,""time"":459290},{""event"":""focus"",""trial"":36,""time"":461104},{""event"":""blur"",""trial"":36,""time"":464141},{""event"":""focus"",""trial"":37,""time"":465909}]",NA,NA,NA,NA,NA,0,#D8271C,#741CD8,10,0,0,38,1,180.90000000596046,37,1,280.59999999403954,10,0,experiment,NA,NA,2,0.5,0.5,5,4,207,5,NA
fcp-trial,242,1003291,0.0-217.0-0.0,voc_e2,12112,"[{""event"":""fullscreenenter"",""trial"":1,""time"":7736},{""event"":""blur"",""trial"":36,""time"":459290},{""event"":""focus"",""trial"":36,""time"":461104},{""event"":""blur"",""trial"":36,""time"":464141},{""event"":""focus"",""trial"":37,""time"":465909}]",NA,NA,NA,NA,NA,6,#D89F1C,#3386FF,10,0,1,38,1,132.5,37,1,469.29999999701977,10,1,experiment,NA,NA,1,0.7,0.3,2,3,208,5,NA
fcp-trial,243,1005438,0.0-218.0-0.0,voc_e2,12112,"[{""event"":""fullscreenenter"",""trial"":1,""time"":7736},{""event"":""blur"",""trial"":36,""time"":459290},{""event"":""focus"",""trial"":36,""time"":461104},{""event"":""blur"",""trial"":36,""time"":464141},{""event"":""focus"",""trial"":37,""time"":465909}]",NA,NA,NA,NA,NA,3,#D8271C,#741CD8,0,0,0,38,1,207.19999998807907,37,1,436.20000000298023,0,0,experiment,NA,NA,2,0.5,0.5,5,4,209,5,NA
