trial_type,trial_index,time_elapsed,internal_node_id,task_version,subject_id,interactions,success,rt,stimulus,key_press,button_pressed,offer,arcade_color_L,arcade_color_R,arcade_outcome_L,arcade_outcome_R,correct,stage_1_key,stage_1_choice,stage_1_rt,stage_2_key,stage_2_choice,stage_2_rt,stage_3_outcome,accuracy,phase,responses,num_errors,context,reward_prob_L,reward_prob_R,arcade_id_L,arcade_id_R,trial,block,response
pavlovia,0,17,0.0-0.0,voc_e2,12276,[],NA,NA,NA,NA,NA,NA,NA,NA,NA,NA,NA,NA,NA,NA,NA,NA,NA,NA,NA,NA,NA,NA,NA,NA,NA,NA,NA,NA,NA,NA
fullscreen,1,4056,0.0-1.0,voc_e2,12276,"[{""event"":""fullscreenenter"",""trial"":1,""time"":3103}]",TRUE,NA,NA,NA,NA,NA,NA,NA,NA,NA,NA,NA,NA,NA,NA,NA,NA,NA,NA,NA,NA,NA,NA,NA,NA,NA,NA,NA,NA,NA
audio-keyboard-response,2,8916,0.0-2.0,voc_e2,12276,"[{""event"":""fullscreenenter"",""trial"":1,""time"":3103}]",NA,4360,static/audio/beep_loop.wav,32,NA,NA,NA,NA,NA,NA,NA,NA,NA,NA,NA,NA,NA,NA,NA,NA,NA,NA,NA,NA,NA,NA,NA,NA,NA,NA
audio-test,3,11266,0.0-3.0,voc_e2,12276,"[{""event"":""fullscreenenter"",""trial"":1,""time"":3103}]",NA,NA,static/audio/turtle.wav,NA,3,NA,NA,NA,NA,NA,NA,NA,NA,NA,NA,NA,NA,NA,NA,NA,NA,NA,NA,NA,NA,NA,NA,NA,NA,NA
audio-test,4,13824,0.0-4.0,voc_e2,12276,"[{""event"":""fullscreenenter"",""trial"":1,""time"":3103}]",NA,NA,static/audio/shark.wav,NA,2,NA,NA,NA,NA,NA,NA,NA,NA,NA,NA,NA,NA,NA,NA,NA,NA,NA,NA,NA,NA,NA,NA,NA,NA,NA
audio-instructions,5,53165,0.0-5.0-0.0,voc_e2,12276,"[{""event"":""fullscreenenter"",""trial"":1,""time"":3103}]",NA,33551.200000047684,static/audio/instructions1.wav,NA,0,NA,NA,NA,NA,NA,NA,NA,NA,NA,NA,NA,NA,NA,NA,NA,NA,NA,NA,NA,NA,NA,NA,NA,NA,NA
audio-instructions,6,85213,0.0-5.0-1.0,voc_e2,12276,"[{""event"":""fullscreenenter"",""trial"":1,""time"":3103}]",NA,25265.60000002384,static/audio/instructions2.wav,NA,0,NA,NA,NA,NA,NA,NA,NA,NA,NA,NA,NA,NA,NA,NA,NA,NA,NA,NA,NA,NA,NA,NA,NA,NA,NA
audio-instructions,7,119523,0.0-5.0-2.0,voc_e2,12276,"[{""event"":""fullscreenenter"",""trial"":1,""time"":3103}]",NA,28505.60000002384,static/audio/instructions3.wav,NA,0,NA,NA,NA,NA,NA,NA,NA,NA,NA,NA,NA,NA,NA,NA,NA,NA,NA,NA,NA,NA,NA,NA,NA,NA,NA
audio-instructions,8,137137,0.0-5.0-3.0,voc_e2,12276,"[{""event"":""fullscreenenter"",""trial"":1,""time"":3103}]",NA,4390.5,static/audio/instructions4.wav,NA,0,NA,NA,NA,NA,NA,NA,NA,NA,NA,NA,NA,NA,NA,NA,NA,NA,NA,NA,NA,NA,NA,NA,NA,NA,NA
audio-instructions,9,150613,0.0-5.0-4.0,voc_e2,12276,"[{""event"":""fullscreenenter"",""trial"":1,""time"":3103}]",NA,4085.6999999284744,static/audio/instructions5.wav,NA,0,NA,NA,NA,NA,NA,NA,NA,NA,NA,NA,NA,NA,NA,NA,NA,NA,NA,NA,NA,NA,NA,NA,NA,NA,NA
fcp-practice,10,154470,0.0-5.0-5.0-0.0,voc_e2,12276,"[{""event"":""fullscreenenter"",""trial"":1,""time"":3103}]",NA,NA,NA,NA,NA,NA,#EDC948,#46d3c8,10,0,1,null,null,null,37,1,2338.1999999284744,10,1,practice,NA,NA,NA,NA,NA,NA,NA,NA,NA,NA
fcp-practice,11,156638,0.0-5.0-5.0-1.0,voc_e2,12276,"[{""event"":""fullscreenenter"",""trial"":1,""time"":3103}]",NA,NA,NA,NA,NA,NA,#EDC948,#46d3c8,10,0,1,null,null,null,37,1,662.8999999761581,10,1,practice,NA,NA,NA,NA,NA,NA,NA,NA,NA,NA
fcp-practice,12,158593,0.0-5.0-5.0-2.0,voc_e2,12276,"[{""event"":""fullscreenenter"",""trial"":1,""time"":3103}]",NA,NA,NA,NA,NA,NA,#EDC948,#46d3c8,0,10,1,null,null,null,37,1,446.89999997615814,0,1,practice,NA,NA,NA,NA,NA,NA,NA,NA,NA,NA
fcp-practice,13,160545,0.0-5.0-5.0-3.0,voc_e2,12276,"[{""event"":""fullscreenenter"",""trial"":1,""time"":3103}]",NA,NA,NA,NA,NA,NA,#EDC948,#46d3c8,10,0,1,null,null,null,37,1,436.10000002384186,10,1,practice,NA,NA,NA,NA,NA,NA,NA,NA,NA,NA
fcp-practice,14,162656,0.0-5.0-5.0-4.0,voc_e2,12276,"[{""event"":""fullscreenenter"",""trial"":1,""time"":3103}]",NA,NA,NA,NA,NA,NA,#EDC948,#46d3c8,10,0,1,null,null,null,37,1,600.5,10,1,practice,NA,NA,NA,NA,NA,NA,NA,NA,NA,NA
audio-instructions,15,183959,0.0-5.0-6.0,voc_e2,12276,"[{""event"":""fullscreenenter"",""trial"":1,""time"":3103}]",NA,3292.3000000715256,static/audio/instructions6.wav,NA,0,NA,NA,NA,NA,NA,NA,NA,NA,NA,NA,NA,NA,NA,NA,NA,NA,NA,NA,NA,NA,NA,NA,NA,NA,NA
audio-instructions,16,205113,0.0-5.0-7.0,voc_e2,12276,"[{""event"":""fullscreenenter"",""trial"":1,""time"":3103}]",NA,1955.5999999046328,static/audio/instructions7.wav,NA,0,NA,NA,NA,NA,NA,NA,NA,NA,NA,NA,NA,NA,NA,NA,NA,NA,NA,NA,NA,NA,NA,NA,NA,NA,NA
audio-instructions,17,221406,0.0-5.0-8.0,voc_e2,12276,"[{""event"":""fullscreenenter"",""trial"":1,""time"":3103}]",NA,6818.799999952316,static/audio/instructions8.wav,NA,0,NA,NA,NA,NA,NA,NA,NA,NA,NA,NA,NA,NA,NA,NA,NA,NA,NA,NA,NA,NA,NA,NA,NA,NA,NA
fcp-comprehension,18,229880,0.0-5.0-9.0,voc_e2,12276,"[{""event"":""fullscreenenter"",""trial"":1,""time"":3103}]",NA,8472.200000047684,NA,NA,NA,NA,NA,NA,NA,NA,NA,NA,NA,NA,NA,NA,NA,NA,NA,NA,"true,true",0,NA,NA,NA,NA,NA,NA,NA,NA
audio-instructions,19,237727,0.0-6.0-0.0,voc_e2,12276,"[{""event"":""fullscreenenter"",""trial"":1,""time"":3103}]",NA,2300.600000023842,static/audio/instructions9.wav,NA,0,NA,NA,NA,NA,NA,NA,NA,NA,NA,NA,NA,NA,NA,NA,NA,NA,NA,NA,NA,NA,NA,NA,NA,NA,NA
audio-instructions,20,250395,0.0-6.0-1.0,voc_e2,12276,"[{""event"":""fullscreenenter"",""trial"":1,""time"":3103}]",NA,547.7999999523163,static/audio/instructions10.wav,NA,0,NA,NA,NA,NA,NA,NA,NA,NA,NA,NA,NA,NA,NA,NA,NA,NA,NA,NA,NA,NA,NA,NA,NA,NA,NA
fcp-trial,21,254031,0.0-6.0-2.0,voc_e2,12276,"[{""event"":""fullscreenenter"",""trial"":1,""time"":3103}]",NA,NA,NA,NA,NA,0,#EDC948,#46d3c8,10,10,1,38,1,1051.5999999046326,39,0,1060.7999999523165,10,0,practice,NA,NA,NA,NA,NA,NA,NA,NA,NA,NA
audio-instructions,22,266175,0.0-6.0-3.0,voc_e2,12276,"[{""event"":""fullscreenenter"",""trial"":1,""time"":3103}]",NA,1138.5,static/audio/instructions11.wav,NA,0,NA,NA,NA,NA,NA,NA,NA,NA,NA,NA,NA,NA,NA,NA,NA,NA,NA,NA,NA,NA,NA,NA,NA,NA,NA
fcp-trial,23,269404,0.0-6.0-4.0,voc_e2,12276,"[{""event"":""fullscreenenter"",""trial"":1,""time"":3103}]",NA,NA,NA,NA,NA,6,#EDC948,#46d3c8,10,10,1,40,0,744.2999999523163,39,0,964.5,10,0,practice,NA,NA,NA,NA,NA,NA,NA,NA,NA,NA
audio-instructions,24,289271,0.0-6.0-5.0,voc_e2,12276,"[{""event"":""fullscreenenter"",""trial"":1,""time"":3103}]",NA,1184,static/audio/instructions12.wav,NA,0,NA,NA,NA,NA,NA,NA,NA,NA,NA,NA,NA,NA,NA,NA,NA,NA,NA,NA,NA,NA,NA,NA,NA,NA,NA
audio-instructions,25,297724,0.0-6.0-6.0,voc_e2,12276,"[{""event"":""fullscreenenter"",""trial"":1,""time"":3103}]",NA,858.1000000238419,static/audio/instructions13.wav,NA,0,NA,NA,NA,NA,NA,NA,NA,NA,NA,NA,NA,NA,NA,NA,NA,NA,NA,NA,NA,NA,NA,NA,NA,NA,NA
audio-instructions,26,307195,0.0-6.0-7.0,voc_e2,12276,"[{""event"":""fullscreenenter"",""trial"":1,""time"":3103}]",NA,1028.600000023842,static/audio/instructions14.wav,NA,0,NA,NA,NA,NA,NA,NA,NA,NA,NA,NA,NA,NA,NA,NA,NA,NA,NA,NA,NA,NA,NA,NA,NA,NA,NA
audio-instructions,27,316350,0.0-7.0-0.0,voc_e2,12276,"[{""event"":""fullscreenenter"",""trial"":1,""time"":3103}]",NA,2232.8000000715256,static/audio/instructions15.wav,NA,0,NA,NA,NA,NA,NA,NA,NA,NA,NA,NA,NA,NA,NA,NA,NA,NA,NA,NA,NA,NA,NA,NA,NA,NA,NA
audio-instructions,28,324526,0.0-7.0-1.0,voc_e2,12276,"[{""event"":""fullscreenenter"",""trial"":1,""time"":3103}]",NA,1349.4000000953674,static/audio/instructions16.wav,NA,0,NA,NA,NA,NA,NA,NA,NA,NA,NA,NA,NA,NA,NA,NA,NA,NA,NA,NA,NA,NA,NA,NA,NA,NA,NA
audio-instructions,29,336796,0.0-7.0-2.0,voc_e2,12276,"[{""event"":""fullscreenenter"",""trial"":1,""time"":3103}]",NA,4589.5,static/audio/instructions17.wav,NA,0,NA,NA,NA,NA,NA,NA,NA,NA,NA,NA,NA,NA,NA,NA,NA,NA,NA,NA,NA,NA,NA,NA,NA,NA,NA
audio-instructions,30,345385,0.0-7.0-3.0,voc_e2,12276,"[{""event"":""fullscreenenter"",""trial"":1,""time"":3103}]",NA,818.2000000476837,static/audio/instructions18.wav,NA,0,NA,NA,NA,NA,NA,NA,NA,NA,NA,NA,NA,NA,NA,NA,NA,NA,NA,NA,NA,NA,NA,NA,NA,NA,NA
audio-instructions,31,352610,0.0-7.0-4.0,voc_e2,12276,"[{""event"":""fullscreenenter"",""trial"":1,""time"":3103}]",NA,473.10000002384186,static/audio/instructions19.wav,NA,0,NA,NA,NA,NA,NA,NA,NA,NA,NA,NA,NA,NA,NA,NA,NA,NA,NA,NA,NA,NA,NA,NA,NA,NA,NA
fcp-comprehension,32,366612,0.0-7.0-5.0,voc_e2,12276,"[{""event"":""fullscreenenter"",""trial"":1,""time"":3103}]",NA,14000.700000047684,NA,NA,NA,NA,NA,NA,NA,NA,NA,NA,NA,NA,NA,NA,NA,NA,NA,NA,"false,false,false,true",0,NA,NA,NA,NA,NA,NA,NA,NA
audio-instructions,33,382523,0.0-8.0,voc_e2,12276,"[{""event"":""fullscreenenter"",""trial"":1,""time"":3103}]",NA,6696.600000023842,static/audio/ready.wav,NA,0,NA,NA,NA,NA,NA,NA,NA,NA,NA,NA,NA,NA,NA,NA,NA,NA,NA,NA,NA,NA,NA,NA,NA,NA,NA
fcp-trial,34,386398,0.0-9.0-0.0,voc_e2,12276,"[{""event"":""fullscreenenter"",""trial"":1,""time"":3103}]",NA,NA,NA,NA,NA,6,#1CD855,#FA92F8,0,0,1,38,1,1552,37,1,812.6000000238419,0,1,experiment,NA,NA,2,0.5,0.5,4,5,1,1,NA
fcp-trial,35,390365,0.0-10.0-0.0,voc_e2,12276,"[{""event"":""fullscreenenter"",""trial"":1,""time"":3103}]",NA,NA,NA,NA,NA,5,#1CD855,#FA92F8,10,10,1,40,0,918.2000000476837,37,1,1533.399999976158,10,1,experiment,NA,NA,2,0.5,0.5,4,5,2,1,NA
fcp-trial,36,393716,0.0-11.0-0.0,voc_e2,12276,"[{""event"":""fullscreenenter"",""trial"":1,""time"":3103}]",NA,NA,NA,NA,NA,4,#741CD8,#D8271C,0,10,0,38,1,1239,39,0,605.8000000715256,10,1,experiment,NA,NA,0,0.1,0.9,1,0,3,1,NA
fcp-trial,37,397090,0.0-12.0-0.0,voc_e2,12276,"[{""event"":""fullscreenenter"",""trial"":1,""time"":3103}]",NA,NA,NA,NA,NA,1,#3386FF,#D89F1C,10,0,1,38,1,1233.5,37,1,628.2000000476837,10,1,experiment,NA,NA,1,0.7,0.3,2,3,4,1,NA
fcp-trial,38,399934,0.0-13.0-0.0,voc_e2,12276,"[{""event"":""fullscreenenter"",""trial"":1,""time"":3103}]",NA,NA,NA,NA,NA,6,#D8271C,#741CD8,10,0,1,38,1,644,39,0,686.4000000953674,0,0,experiment,NA,NA,0,0.9,0.1,0,1,5,1,NA
fcp-trial,39,403827,0.0-14.0-0.0,voc_e2,12276,"[{""event"":""fullscreenenter"",""trial"":1,""time"":3103}]",NA,NA,NA,NA,NA,3,#1CD855,#FA92F8,10,10,1,40,0,1149.1000000238419,37,1,1220.5,10,1,experiment,NA,NA,2,0.5,0.5,4,5,6,1,NA
fcp-trial,40,407460,0.0-15.0-0.0,voc_e2,12276,"[{""event"":""fullscreenenter"",""trial"":1,""time"":3103}]",NA,NA,NA,NA,NA,2,#D89F1C,#3386FF,10,10,0,38,1,1716.3999999761581,39,0,410.2999999523163,10,1,experiment,NA,NA,1,0.3,0.7,3,2,7,1,NA
fcp-trial,41,410686,0.0-16.0-0.0,voc_e2,12276,"[{""event"":""fullscreenenter"",""trial"":1,""time"":3103}]",NA,NA,NA,NA,NA,5,#D89F1C,#3386FF,0,0,0,40,0,904.3999999761581,39,0,815.3999999761581,0,1,experiment,NA,NA,1,0.3,0.7,3,2,8,1,NA
fcp-trial,42,413850,0.0-17.0-0.0,voc_e2,12276,"[{""event"":""fullscreenenter"",""trial"":1,""time"":3103}]",NA,NA,NA,NA,NA,5,#741CD8,#D8271C,0,10,0,38,1,967.7000000476837,37,1,690,0,0,experiment,NA,NA,0,0.1,0.9,1,0,9,1,NA
fcp-trial,43,417775,0.0-18.0-0.0,voc_e2,12276,"[{""event"":""fullscreenenter"",""trial"":1,""time"":3103}]",NA,NA,NA,NA,NA,0,#3386FF,#D89F1C,10,0,1,38,1,1815.2999999523163,39,0,603.2000000476837,0,0,experiment,NA,NA,1,0.7,0.3,2,3,10,1,NA
fcp-trial,44,420333,0.0-19.0-0.0,voc_e2,12276,"[{""event"":""fullscreenenter"",""trial"":1,""time"":3103}]",NA,NA,NA,NA,NA,2,#FA92F8,#1CD855,0,0,0,38,1,414.7999999523163,39,0,634.7000000476837,0,1,experiment,NA,NA,2,0.5,0.5,5,4,11,1,NA
fcp-trial,45,423245,0.0-20.0-0.0,voc_e2,12276,"[{""event"":""fullscreenenter"",""trial"":1,""time"":3103}]",NA,NA,NA,NA,NA,1,#741CD8,#D8271C,0,10,0,38,1,982.5,37,1,420.2999999523163,0,0,experiment,NA,NA,0,0.1,0.9,1,0,12,1,NA
fcp-trial,46,426172,0.0-21.0-0.0,voc_e2,12276,"[{""event"":""fullscreenenter"",""trial"":1,""time"":3103}]",NA,NA,NA,NA,NA,0,#1CD855,#FA92F8,0,10,1,38,1,1046.5,39,0,374.10000002384186,10,0,experiment,NA,NA,2,0.5,0.5,4,5,13,1,NA
fcp-trial,47,429446,0.0-22.0-0.0,voc_e2,12276,"[{""event"":""fullscreenenter"",""trial"":1,""time"":3103}]",NA,NA,NA,NA,NA,4,#3386FF,#D89F1C,10,10,1,40,0,1255.6999999284744,37,1,511.90000009536743,10,1,experiment,NA,NA,1,0.7,0.3,2,3,14,1,NA
fcp-trial,48,432773,0.0-23.0-0.0,voc_e2,12276,"[{""event"":""fullscreenenter"",""trial"":1,""time"":3103}]",NA,NA,NA,NA,NA,3,#D8271C,#741CD8,10,0,1,38,1,1358.2000000476837,39,0,464.39999997615814,0,0,experiment,NA,NA,0,0.9,0.1,0,1,15,1,NA
fcp-trial,49,435693,0.0-24.0-0.0,voc_e2,12276,"[{""event"":""fullscreenenter"",""trial"":1,""time"":3103}]",NA,NA,NA,NA,NA,1,#FA92F8,#1CD855,10,0,0,38,1,1008.7000000476837,37,1,407.39999997615814,10,0,experiment,NA,NA,2,0.5,0.5,5,4,16,1,NA
fcp-trial,50,438861,0.0-25.0-0.0,voc_e2,12276,"[{""event"":""fullscreenenter"",""trial"":1,""time"":3103}]",NA,NA,NA,NA,NA,0,#D8271C,#741CD8,10,0,1,38,1,1301,37,1,360.1999999284744,10,1,experiment,NA,NA,0,0.9,0.1,0,1,17,1,NA
fcp-trial,51,442231,0.0-26.0-0.0,voc_e2,12276,"[{""event"":""fullscreenenter"",""trial"":1,""time"":3103}]",NA,NA,NA,NA,NA,3,#3386FF,#D89F1C,0,0,1,38,1,1041,37,1,823.2000000476837,0,1,experiment,NA,NA,1,0.7,0.3,2,3,18,1,NA
fcp-trial,52,445779,0.0-27.0-0.0,voc_e2,12276,"[{""event"":""fullscreenenter"",""trial"":1,""time"":3103}]",NA,NA,NA,NA,NA,4,#1CD855,#FA92F8,0,10,1,38,1,1653.7999999523163,39,0,387.7000000476837,10,0,experiment,NA,NA,2,0.5,0.5,4,5,19,1,NA
fcp-trial,53,448742,0.0-28.0-0.0,voc_e2,12276,"[{""event"":""fullscreenenter"",""trial"":1,""time"":3103}]",NA,NA,NA,NA,NA,2,#741CD8,#D8271C,10,10,0,38,1,1072,39,0,384.7999999523163,10,1,experiment,NA,NA,0,0.1,0.9,1,0,20,1,NA
fcp-trial,54,451482,0.0-29.0-0.0,voc_e2,12276,"[{""event"":""fullscreenenter"",""trial"":1,""time"":3103}]",NA,NA,NA,NA,NA,6,#3386FF,#D89F1C,10,0,1,38,1,871.5,39,0,361.2999999523163,0,0,experiment,NA,NA,1,0.7,0.3,2,3,21,1,NA
fcp-trial,55,454094,0.0-30.0-0.0,voc_e2,12276,"[{""event"":""fullscreenenter"",""trial"":1,""time"":3103}]",NA,NA,NA,NA,NA,5,#3386FF,#D89F1C,10,10,1,38,1,748.2000000476837,39,0,357,10,0,experiment,NA,NA,1,0.7,0.3,2,3,22,1,NA
fcp-trial,56,456705,0.0-31.0-0.0,voc_e2,12276,"[{""event"":""fullscreenenter"",""trial"":1,""time"":3103}]",NA,NA,NA,NA,NA,3,#741CD8,#D8271C,0,10,0,38,1,779.7000000476837,39,0,325.7999999523163,10,1,experiment,NA,NA,0,0.1,0.9,1,0,23,1,NA
fcp-trial,57,459383,0.0-32.0-0.0,voc_e2,12276,"[{""event"":""fullscreenenter"",""trial"":1,""time"":3103}]",NA,NA,NA,NA,NA,5,#D8271C,#741CD8,10,0,1,38,1,796,37,1,375.10000002384186,10,1,experiment,NA,NA,0,0.9,0.1,0,1,24,1,NA
fcp-trial,58,461954,0.0-33.0-0.0,voc_e2,12276,"[{""event"":""fullscreenenter"",""trial"":1,""time"":3103}]",NA,NA,NA,NA,NA,1,#741CD8,#D8271C,0,10,0,38,1,652.4000000953674,39,0,410.7999999523163,10,1,experiment,NA,NA,0,0.1,0.9,1,0,25,1,NA
fcp-trial,59,464482,0.0-34.0-0.0,voc_e2,12276,"[{""event"":""fullscreenenter"",""trial"":1,""time"":3103}]",NA,NA,NA,NA,NA,1,#1CD855,#FA92F8,0,0,1,38,1,579.4000000953674,39,0,442.3000000715256,0,0,experiment,NA,NA,2,0.5,0.5,4,5,26,1,NA
fcp-trial,60,466970,0.0-35.0-0.0,voc_e2,12276,"[{""event"":""fullscreenenter"",""trial"":1,""time"":3103}]",NA,NA,NA,NA,NA,3,#D89F1C,#3386FF,0,0,0,38,1,599.2000000476837,37,1,382.7999999523163,0,0,experiment,NA,NA,1,0.3,0.7,3,2,27,1,NA
fcp-trial,61,470599,0.0-36.0-0.0,voc_e2,12276,"[{""event"":""fullscreenenter"",""trial"":1,""time"":3103}]",NA,NA,NA,NA,NA,3,#FA92F8,#1CD855,10,0,0,40,0,1480.6000000238419,37,1,640.3999999761581,10,0,experiment,NA,NA,2,0.5,0.5,5,4,28,1,NA
fcp-trial,62,473442,0.0-37.0-0.0,voc_e2,12276,"[{""event"":""fullscreenenter"",""trial"":1,""time"":3103}]",NA,NA,NA,NA,NA,2,#D8271C,#741CD8,0,10,1,38,1,839.6999999284744,37,1,494.5,0,1,experiment,NA,NA,0,0.9,0.1,0,1,29,1,NA
fcp-trial,63,476746,0.0-38.0-0.0,voc_e2,12276,"[{""event"":""fullscreenenter"",""trial"":1,""time"":3103}]",NA,NA,NA,NA,NA,1,#3386FF,#D89F1C,0,10,1,38,1,1491.7000000476837,39,0,303.10000002384186,10,0,experiment,NA,NA,1,0.7,0.3,2,3,30,1,NA
fcp-trial,64,479600,0.0-39.0-0.0,voc_e2,12276,"[{""event"":""fullscreenenter"",""trial"":1,""time"":3103}]",NA,NA,NA,NA,NA,6,#741CD8,#D8271C,0,10,0,38,1,700.2000000476837,39,0,648.8000000715256,10,1,experiment,NA,NA,0,0.1,0.9,1,0,31,1,NA
fcp-trial,65,482570,0.0-40.0-0.0,voc_e2,12276,"[{""event"":""fullscreenenter"",""trial"":1,""time"":3103}]",NA,NA,NA,NA,NA,4,#FA92F8,#1CD855,10,10,0,38,1,936,39,0,529,10,1,experiment,NA,NA,2,0.5,0.5,5,4,32,1,NA
fcp-trial,66,485131,0.0-41.0-0.0,voc_e2,12276,"[{""event"":""fullscreenenter"",""trial"":1,""time"":3103}]",NA,NA,NA,NA,NA,0,#741CD8,#D8271C,0,10,0,38,1,691.1000000238419,39,0,364,10,1,experiment,NA,NA,0,0.1,0.9,1,0,33,1,NA
fcp-trial,67,488191,0.0-42.0-0.0,voc_e2,12276,"[{""event"":""fullscreenenter"",""trial"":1,""time"":3103}]",NA,NA,NA,NA,NA,2,#1CD855,#FA92F8,10,10,1,38,1,735.3999999761581,37,1,818.3999999761581,10,1,experiment,NA,NA,2,0.5,0.5,4,5,34,1,NA
fcp-trial,68,491003,0.0-43.0-0.0,voc_e2,12276,"[{""event"":""fullscreenenter"",""trial"":1,""time"":3103}]",NA,NA,NA,NA,NA,2,#D89F1C,#3386FF,0,10,0,38,1,659.1000000238419,37,1,647.7000000476837,0,0,experiment,NA,NA,1,0.3,0.7,3,2,35,1,NA
fcp-trial,69,493620,0.0-44.0-0.0,voc_e2,12276,"[{""event"":""fullscreenenter"",""trial"":1,""time"":3103}]",NA,NA,NA,NA,NA,4,#3386FF,#D89F1C,10,10,1,38,1,671.5,39,0,439.5,10,0,experiment,NA,NA,1,0.7,0.3,2,3,36,1,NA
fcp-trial,70,496356,0.0-45.0-0.0,voc_e2,12276,"[{""event"":""fullscreenenter"",""trial"":1,""time"":3103}]",NA,NA,NA,NA,NA,6,#D89F1C,#3386FF,0,0,0,38,1,676.8999999761581,37,1,552.8000000715256,0,0,experiment,NA,NA,1,0.3,0.7,3,2,37,1,NA
fcp-trial,71,498916,0.0-46.0-0.0,voc_e2,12276,"[{""event"":""fullscreenenter"",""trial"":1,""time"":3103}]",NA,NA,NA,NA,NA,4,#741CD8,#D8271C,0,10,0,38,1,730.8999999761581,39,0,325.5,10,1,experiment,NA,NA,0,0.1,0.9,1,0,38,1,NA
fcp-trial,72,502028,0.0-47.0-0.0,voc_e2,12276,"[{""event"":""fullscreenenter"",""trial"":1,""time"":3103}]",NA,NA,NA,NA,NA,5,#FA92F8,#1CD855,0,0,0,38,1,1312.8000000715256,39,0,292.39999997615814,0,1,experiment,NA,NA,2,0.5,0.5,5,4,39,1,NA
fcp-trial,73,504954,0.0-48.0-0.0,voc_e2,12276,"[{""event"":""fullscreenenter"",""trial"":1,""time"":3103}]",NA,NA,NA,NA,NA,0,#FA92F8,#1CD855,0,0,0,38,1,639.3999999761581,39,0,780.2999999523163,0,1,experiment,NA,NA,2,0.5,0.5,5,4,40,1,NA
fcp-trial,74,507499,0.0-49.0-0.0,voc_e2,12276,"[{""event"":""fullscreenenter"",""trial"":1,""time"":3103}]",NA,NA,NA,NA,NA,6,#FA92F8,#1CD855,0,10,0,38,1,498.2999999523163,37,1,540.5,0,0,experiment,NA,NA,2,0.5,0.5,5,4,41,1,NA
fcp-trial,75,510628,0.0-50.0-0.0,voc_e2,12276,"[{""event"":""fullscreenenter"",""trial"":1,""time"":3103}]",NA,NA,NA,NA,NA,0,#D89F1C,#3386FF,0,10,0,38,1,597.8999999761581,37,1,1025.1999999284744,0,0,experiment,NA,NA,1,0.3,0.7,3,2,42,1,NA
fcp-trial,76,513118,0.0-51.0-0.0,voc_e2,12276,"[{""event"":""fullscreenenter"",""trial"":1,""time"":3103}]",NA,NA,NA,NA,NA,6,#3386FF,#D89F1C,10,0,1,38,1,590.5,39,0,394,0,0,experiment,NA,NA,1,0.7,0.3,2,3,43,1,NA
fcp-trial,77,515700,0.0-52.0-0.0,voc_e2,12276,"[{""event"":""fullscreenenter"",""trial"":1,""time"":3103}]",NA,NA,NA,NA,NA,0,#3386FF,#D89F1C,0,0,1,38,1,558.6000000238419,39,0,517.6999999284744,0,0,experiment,NA,NA,1,0.7,0.3,2,3,44,1,NA
fcp-trial,78,518774,0.0-53.0-0.0,voc_e2,12276,"[{""event"":""fullscreenenter"",""trial"":1,""time"":3103}]",NA,NA,NA,NA,NA,1,#D89F1C,#3386FF,0,0,0,38,1,606.1000000238419,39,0,960.899999976158,0,1,experiment,NA,NA,1,0.3,0.7,3,2,45,1,NA
fcp-trial,79,521366,0.0-54.0-0.0,voc_e2,12276,"[{""event"":""fullscreenenter"",""trial"":1,""time"":3103}]",NA,NA,NA,NA,NA,4,#D8271C,#741CD8,0,10,1,38,1,483.6999999284744,37,1,602.2000000476837,0,1,experiment,NA,NA,0,0.9,0.1,0,1,46,2,NA
fcp-trial,80,524088,0.0-55.0-0.0,voc_e2,12276,"[{""event"":""fullscreenenter"",""trial"":1,""time"":3103}]",NA,NA,NA,NA,NA,0,#1CD855,#FA92F8,10,0,1,38,1,749.2000000476837,37,1,462.10000002384186,10,1,experiment,NA,NA,2,0.5,0.5,4,5,47,2,NA
fcp-trial,81,526724,0.0-56.0-0.0,voc_e2,12276,"[{""event"":""fullscreenenter"",""trial"":1,""time"":3103}]",NA,NA,NA,NA,NA,6,#741CD8,#D8271C,0,10,0,38,1,607.7999999523163,39,0,518.8999999761581,10,1,experiment,NA,NA,0,0.1,0.9,1,0,48,2,NA
fcp-trial,82,531431,0.0-57.0-0.0,voc_e2,12276,"[{""event"":""fullscreenenter"",""trial"":1,""time"":3103}]",NA,NA,NA,NA,NA,1,#741CD8,#D8271C,0,10,0,40,0,1719.2000000476837,37,1,1482.5,0,0,experiment,NA,NA,0,0.1,0.9,1,0,49,2,NA
fcp-trial,83,533879,0.0-58.0-0.0,voc_e2,12276,"[{""event"":""fullscreenenter"",""trial"":1,""time"":3103}]",NA,NA,NA,NA,NA,2,#3386FF,#D89F1C,0,0,1,38,1,616.8000000715256,39,0,322.5,0,0,experiment,NA,NA,1,0.7,0.3,2,3,50,2,NA
fcp-trial,84,536241,0.0-59.0-0.0,voc_e2,12276,"[{""event"":""fullscreenenter"",""trial"":1,""time"":3103}]",NA,NA,NA,NA,NA,3,#741CD8,#D8271C,0,10,0,38,1,521.3999999761581,39,0,334.60000002384186,10,1,experiment,NA,NA,0,0.1,0.9,1,0,51,2,NA
fcp-trial,85,539056,0.0-60.0-0.0,voc_e2,12276,"[{""event"":""fullscreenenter"",""trial"":1,""time"":3103}]",NA,NA,NA,NA,NA,6,#FA92F8,#1CD855,0,10,0,38,1,683.8999999761581,39,0,619.1000000238419,10,1,experiment,NA,NA,2,0.5,0.5,5,4,52,2,NA
fcp-trial,86,541358,0.0-61.0-0.0,voc_e2,12276,"[{""event"":""fullscreenenter"",""trial"":1,""time"":3103}]",NA,NA,NA,NA,NA,5,#3386FF,#D89F1C,10,0,1,38,1,531.5,39,0,264.2000000476837,0,0,experiment,NA,NA,1,0.7,0.3,2,3,53,2,NA
fcp-trial,87,544908,0.0-62.0-0.0,voc_e2,12276,"[{""event"":""fullscreenenter"",""trial"":1,""time"":3103}]",NA,NA,NA,NA,NA,3,#D89F1C,#3386FF,10,0,0,40,0,579.7999999523163,39,0,1466.2999999523165,0,1,experiment,NA,NA,1,0.3,0.7,3,2,54,2,NA
fcp-trial,88,548253,0.0-63.0-0.0,voc_e2,12276,"[{""event"":""fullscreenenter"",""trial"":1,""time"":3103}]",NA,NA,NA,NA,NA,5,#D8271C,#741CD8,0,0,1,38,1,1479.6000000238419,37,1,357.39999997615814,0,1,experiment,NA,NA,0,0.9,0.1,0,1,55,2,NA
fcp-trial,89,550941,0.0-64.0-0.0,voc_e2,12276,"[{""event"":""fullscreenenter"",""trial"":1,""time"":3103}]",NA,NA,NA,NA,NA,1,#FA92F8,#1CD855,10,0,0,38,1,916.6000000238419,39,0,263.59999990463257,0,1,experiment,NA,NA,2,0.5,0.5,5,4,56,2,NA
fcp-trial,90,553585,0.0-65.0-0.0,voc_e2,12276,"[{""event"":""fullscreenenter"",""trial"":1,""time"":3103}]",NA,NA,NA,NA,NA,3,#FA92F8,#1CD855,10,10,0,38,1,868.2000000476837,39,0,270.8000000715256,10,1,experiment,NA,NA,2,0.5,0.5,5,4,57,2,NA
fcp-trial,91,555893,0.0-66.0-0.0,voc_e2,12276,"[{""event"":""fullscreenenter"",""trial"":1,""time"":3103}]",NA,NA,NA,NA,NA,5,#1CD855,#FA92F8,0,10,1,38,1,491.60000002384186,37,1,310.5,0,1,experiment,NA,NA,2,0.5,0.5,4,5,58,2,NA
fcp-trial,92,558797,0.0-67.0-0.0,voc_e2,12276,"[{""event"":""fullscreenenter"",""trial"":1,""time"":3103}]",NA,NA,NA,NA,NA,4,#3386FF,#D89F1C,10,10,1,38,1,693.1000000238419,39,0,705.1999999284744,10,0,experiment,NA,NA,1,0.7,0.3,2,3,59,2,NA
fcp-trial,93,561148,0.0-68.0-0.0,voc_e2,12276,"[{""event"":""fullscreenenter"",""trial"":1,""time"":3103}]",NA,NA,NA,NA,NA,2,#D8271C,#741CD8,10,0,1,38,1,568.2999999523163,37,1,276.7000000476837,10,1,experiment,NA,NA,0,0.9,0.1,0,1,60,2,NA
fcp-trial,94,563732,0.0-69.0-0.0,voc_e2,12276,"[{""event"":""fullscreenenter"",""trial"":1,""time"":3103}]",NA,NA,NA,NA,NA,4,#1CD855,#FA92F8,10,0,1,38,1,575.5,39,0,503,0,0,experiment,NA,NA,2,0.5,0.5,4,5,61,2,NA
fcp-trial,95,566034,0.0-70.0-0.0,voc_e2,12276,"[{""event"":""fullscreenenter"",""trial"":1,""time"":3103}]",NA,NA,NA,NA,NA,2,#1CD855,#FA92F8,0,10,1,38,1,311.1999999284744,37,1,483.60000002384186,0,1,experiment,NA,NA,2,0.5,0.5,4,5,62,2,NA
fcp-trial,96,568676,0.0-71.0-0.0,voc_e2,12276,"[{""event"":""fullscreenenter"",""trial"":1,""time"":3103}]",NA,NA,NA,NA,NA,0,#D8271C,#741CD8,0,10,1,38,1,847,37,1,288.10000002384186,0,1,experiment,NA,NA,0,0.9,0.1,0,1,63,2,NA
fcp-trial,97,571411,0.0-72.0-0.0,voc_e2,12276,"[{""event"":""fullscreenenter"",""trial"":1,""time"":3103}]",NA,NA,NA,NA,NA,3,#FA92F8,#1CD855,0,10,0,38,1,663.6000000238419,39,0,565.3000000715256,10,1,experiment,NA,NA,2,0.5,0.5,5,4,64,2,NA
fcp-trial,98,574103,0.0-73.0-0.0,voc_e2,12276,"[{""event"":""fullscreenenter"",""trial"":1,""time"":3103}]",NA,NA,NA,NA,NA,2,#1CD855,#FA92F8,0,0,1,38,1,662.1000000238419,37,1,524.7999999523163,0,1,experiment,NA,NA,2,0.5,0.5,4,5,65,2,NA
fcp-trial,99,576314,0.0-74.0-0.0,voc_e2,12276,"[{""event"":""fullscreenenter"",""trial"":1,""time"":3103}]",NA,NA,NA,NA,NA,0,#3386FF,#D89F1C,0,0,1,38,1,403.10000002384186,39,0,301.8000000715256,0,0,experiment,NA,NA,1,0.7,0.3,2,3,66,2,NA
fcp-trial,100,578729,0.0-75.0-0.0,voc_e2,12276,"[{""event"":""fullscreenenter"",""trial"":1,""time"":3103}]",NA,NA,NA,NA,NA,6,#D89F1C,#3386FF,0,0,0,38,1,544.6000000238419,37,1,364.60000002384186,0,0,experiment,NA,NA,1,0.3,0.7,3,2,67,2,NA
fcp-trial,101,581009,0.0-76.0-0.0,voc_e2,12276,"[{""event"":""fullscreenenter"",""trial"":1,""time"":3103}]",NA,NA,NA,NA,NA,1,#D8271C,#741CD8,10,0,1,38,1,351.2999999523163,39,0,420.5,0,0,experiment,NA,NA,0,0.9,0.1,0,1,68,2,NA
fcp-trial,102,583909,0.0-77.0-0.0,voc_e2,12276,"[{""event"":""fullscreenenter"",""trial"":1,""time"":3103}]",NA,NA,NA,NA,NA,1,#1CD855,#FA92F8,10,10,1,38,1,571.9000000953674,39,0,820.6999999284744,10,0,experiment,NA,NA,2,0.5,0.5,4,5,69,2,NA
fcp-trial,103,586562,0.0-78.0-0.0,voc_e2,12276,"[{""event"":""fullscreenenter"",""trial"":1,""time"":3103}]",NA,NA,NA,NA,NA,1,#D89F1C,#3386FF,10,0,0,38,1,570,39,0,576.3000000715256,0,1,experiment,NA,NA,1,0.3,0.7,3,2,70,2,NA
fcp-trial,104,588859,0.0-79.0-0.0,voc_e2,12276,"[{""event"":""fullscreenenter"",""trial"":1,""time"":3103}]",NA,NA,NA,NA,NA,5,#741CD8,#D8271C,0,10,0,38,1,492.1999999284744,39,0,299.2000000476837,10,1,experiment,NA,NA,0,0.1,0.9,1,0,71,2,NA
fcp-trial,105,591172,0.0-80.0-0.0,voc_e2,12276,"[{""event"":""fullscreenenter"",""trial"":1,""time"":3103}]",NA,NA,NA,NA,NA,6,#1CD855,#FA92F8,0,10,1,38,1,512.0999999046326,37,1,295.5,0,1,experiment,NA,NA,2,0.5,0.5,4,5,72,2,NA
fcp-trial,106,594792,0.0-81.0-0.0,voc_e2,12276,"[{""event"":""fullscreenenter"",""trial"":1,""time"":3103}]",NA,NA,NA,NA,NA,2,#D8271C,#741CD8,10,0,1,38,1,303.10000002384186,37,1,1808.5,10,1,experiment,NA,NA,0,0.9,0.1,0,1,73,2,NA
fcp-trial,107,597149,0.0-82.0-0.0,voc_e2,12276,"[{""event"":""fullscreenenter"",""trial"":1,""time"":3103}]",NA,NA,NA,NA,NA,3,#741CD8,#D8271C,0,10,0,38,1,502.89999997615814,39,0,348.5,10,1,experiment,NA,NA,0,0.1,0.9,1,0,74,2,NA
fcp-trial,108,600275,0.0-83.0-0.0,voc_e2,12276,"[{""event"":""fullscreenenter"",""trial"":1,""time"":3103}]",NA,NA,NA,NA,NA,4,#3386FF,#D89F1C,10,0,1,38,1,1312.1000000238419,39,0,308,0,0,experiment,NA,NA,1,0.7,0.3,2,3,75,2,NA
fcp-trial,109,602797,0.0-84.0-0.0,voc_e2,12276,"[{""event"":""fullscreenenter"",""trial"":1,""time"":3103}]",NA,NA,NA,NA,NA,6,#D8271C,#741CD8,10,0,1,38,1,386.60000002384186,37,1,627.8000000715256,10,1,experiment,NA,NA,0,0.9,0.1,0,1,76,2,NA
fcp-trial,110,605240,0.0-85.0-0.0,voc_e2,12276,"[{""event"":""fullscreenenter"",""trial"":1,""time"":3103}]",NA,NA,NA,NA,NA,0,#1CD855,#FA92F8,10,0,1,38,1,538.1000000238419,37,1,399.5,10,1,experiment,NA,NA,2,0.5,0.5,4,5,77,2,NA
fcp-trial,111,608040,0.0-86.0-0.0,voc_e2,12276,"[{""event"":""fullscreenenter"",""trial"":1,""time"":3103}]",NA,NA,NA,NA,NA,0,#741CD8,#D8271C,0,10,0,38,1,292.2999999523163,39,0,1000.600000023842,10,1,experiment,NA,NA,0,0.1,0.9,1,0,78,2,NA
fcp-trial,112,611153,0.0-87.0-0.0,voc_e2,12276,"[{""event"":""fullscreenenter"",""trial"":1,""time"":3103}]",NA,NA,NA,NA,NA,3,#3386FF,#D89F1C,0,0,1,38,1,607.7000000476837,37,1,999.8000000715256,0,1,experiment,NA,NA,1,0.7,0.3,2,3,79,2,NA
fcp-trial,113,613273,0.0-88.0-0.0,voc_e2,12276,"[{""event"":""fullscreenenter"",""trial"":1,""time"":3103}]",NA,NA,NA,NA,NA,4,#FA92F8,#1CD855,0,10,0,38,1,311.7999999523163,37,1,300.59999990463257,0,0,experiment,NA,NA,2,0.5,0.5,5,4,80,2,NA
fcp-trial,114,615831,0.0-89.0-0.0,voc_e2,12276,"[{""event"":""fullscreenenter"",""trial"":1,""time"":3103}]",NA,NA,NA,NA,NA,4,#741CD8,#D8271C,0,10,0,38,1,555.5,39,0,496.60000002384186,10,1,experiment,NA,NA,0,0.1,0.9,1,0,81,2,NA
fcp-trial,115,618315,0.0-90.0-0.0,voc_e2,12276,"[{""event"":""fullscreenenter"",""trial"":1,""time"":3103}]",NA,NA,NA,NA,NA,5,#3386FF,#D89F1C,10,10,1,38,1,600.8999999761581,39,0,376.59999990463257,10,0,experiment,NA,NA,1,0.7,0.3,2,3,82,2,NA
fcp-trial,116,620831,0.0-91.0-0.0,voc_e2,12276,"[{""event"":""fullscreenenter"",""trial"":1,""time"":3103}]",NA,NA,NA,NA,NA,5,#FA92F8,#1CD855,0,0,0,38,1,541.6999999284744,39,0,467.7999999523163,0,1,experiment,NA,NA,2,0.5,0.5,5,4,83,2,NA
fcp-trial,117,623091,0.0-92.0-0.0,voc_e2,12276,"[{""event"":""fullscreenenter"",""trial"":1,""time"":3103}]",NA,NA,NA,NA,NA,2,#D89F1C,#3386FF,10,10,0,38,1,432.1999999284744,37,1,320.10000002384186,10,0,experiment,NA,NA,1,0.3,0.7,3,2,84,2,NA
fcp-trial,118,625514,0.0-93.0-0.0,voc_e2,12276,"[{""event"":""fullscreenenter"",""trial"":1,""time"":3103}]",NA,NA,NA,NA,NA,4,#D89F1C,#3386FF,10,10,0,38,1,449.2999999523163,37,1,465.10000002384186,10,0,experiment,NA,NA,1,0.3,0.7,3,2,85,2,NA
fcp-trial,119,627900,0.0-94.0-0.0,voc_e2,12276,"[{""event"":""fullscreenenter"",""trial"":1,""time"":3103}]",NA,NA,NA,NA,NA,4,#1CD855,#FA92F8,10,0,1,38,1,507.5,39,0,372.09999990463257,0,0,experiment,NA,NA,2,0.5,0.5,4,5,86,2,NA
fcp-trial,120,630097,0.0-95.0-0.0,voc_e2,12276,"[{""event"":""fullscreenenter"",""trial"":1,""time"":3103}]",NA,NA,NA,NA,NA,5,#D89F1C,#3386FF,0,0,0,38,1,374,37,1,317.5,0,0,experiment,NA,NA,1,0.3,0.7,3,2,87,2,NA
fcp-trial,121,632449,0.0-96.0-0.0,voc_e2,12276,"[{""event"":""fullscreenenter"",""trial"":1,""time"":3103}]",NA,NA,NA,NA,NA,3,#3386FF,#D89F1C,0,0,1,38,1,415.89999997615814,39,0,430.8000000715256,0,0,experiment,NA,NA,1,0.7,0.3,2,3,88,2,NA
fcp-trial,122,635085,0.0-97.0-0.0,voc_e2,12276,"[{""event"":""fullscreenenter"",""trial"":1,""time"":3103}]",NA,NA,NA,NA,NA,6,#D8271C,#741CD8,10,0,1,38,1,479.6999999284744,37,1,649.6999999284744,10,1,experiment,NA,NA,0,0.9,0.1,0,1,89,2,NA
fcp-trial,123,637419,0.0-98.0-0.0,voc_e2,12276,"[{""event"":""fullscreenenter"",""trial"":1,""time"":3103}]",NA,NA,NA,NA,NA,3,#1CD855,#FA92F8,0,0,1,38,1,465.2999999523163,37,1,360.7000000476837,0,1,experiment,NA,NA,2,0.5,0.5,4,5,90,2,NA
fcp-trial,124,640322,0.0-99.0-0.0,voc_e2,12276,"[{""event"":""fullscreenenter"",""trial"":1,""time"":3103}]",NA,NA,NA,NA,NA,2,#741CD8,#D8271C,0,10,0,38,1,519.5,39,0,879.5999999046326,10,1,experiment,NA,NA,0,0.1,0.9,1,0,91,3,NA
fcp-trial,125,642603,0.0-100.0-0.0,voc_e2,12276,"[{""event"":""fullscreenenter"",""trial"":1,""time"":3103}]",NA,NA,NA,NA,NA,6,#D89F1C,#3386FF,0,10,0,38,1,345.2999999523163,39,0,425.5,10,1,experiment,NA,NA,1,0.3,0.7,3,2,92,3,NA
fcp-trial,126,645159,0.0-101.0-0.0,voc_e2,12276,"[{""event"":""fullscreenenter"",""trial"":1,""time"":3103}]",NA,NA,NA,NA,NA,2,#FA92F8,#1CD855,0,0,0,38,1,421,39,0,628.5,0,1,experiment,NA,NA,2,0.5,0.5,5,4,93,3,NA
fcp-trial,127,647771,0.0-102.0-0.0,voc_e2,12276,"[{""event"":""fullscreenenter"",""trial"":1,""time"":3103}]",NA,NA,NA,NA,NA,0,#1CD855,#FA92F8,10,10,1,38,1,801.2000000476837,39,0,303.8000000715256,10,0,experiment,NA,NA,2,0.5,0.5,4,5,94,3,NA
fcp-trial,128,650218,0.0-103.0-0.0,voc_e2,12276,"[{""event"":""fullscreenenter"",""trial"":1,""time"":3103}]",NA,NA,NA,NA,NA,2,#D89F1C,#3386FF,10,10,0,38,1,350.2000000476837,37,1,589.2000000476837,10,0,experiment,NA,NA,1,0.3,0.7,3,2,95,3,NA
fcp-trial,129,652502,0.0-104.0-0.0,voc_e2,12276,"[{""event"":""fullscreenenter"",""trial"":1,""time"":3103}]",NA,NA,NA,NA,NA,1,#741CD8,#D8271C,0,10,0,38,1,471.1999999284744,39,0,306.6999999284744,10,1,experiment,NA,NA,0,0.1,0.9,1,0,96,3,NA
fcp-trial,130,655317,0.0-105.0-0.0,voc_e2,12276,"[{""event"":""fullscreenenter"",""trial"":1,""time"":3103}]",NA,NA,NA,NA,NA,0,#741CD8,#D8271C,0,10,0,38,1,475.2000000476837,39,0,833.1000000238419,10,1,experiment,NA,NA,0,0.1,0.9,1,0,97,3,NA
fcp-trial,131,657970,0.0-106.0-0.0,voc_e2,12276,"[{""event"":""fullscreenenter"",""trial"":1,""time"":3103}]",NA,NA,NA,NA,NA,5,#FA92F8,#1CD855,0,10,0,38,1,347.5,37,1,797.8999999761581,0,0,experiment,NA,NA,2,0.5,0.5,5,4,98,3,NA
fcp-trial,132,660726,0.0-107.0-0.0,voc_e2,12276,"[{""event"":""fullscreenenter"",""trial"":1,""time"":3103}]",NA,NA,NA,NA,NA,0,#D89F1C,#3386FF,0,10,0,38,1,461.7000000476837,39,0,786.8999999761581,10,1,experiment,NA,NA,1,0.3,0.7,3,2,99,3,NA
fcp-trial,133,663857,0.0-108.0-0.0,voc_e2,12276,"[{""event"":""fullscreenenter"",""trial"":1,""time"":3103}]",NA,NA,NA,NA,NA,1,#FA92F8,#1CD855,0,10,0,38,1,645,39,0,982.6999999284744,10,1,experiment,NA,NA,2,0.5,0.5,5,4,100,3,NA
fcp-trial,134,667067,0.0-109.0-0.0,voc_e2,12276,"[{""event"":""fullscreenenter"",""trial"":1,""time"":3103}]",NA,NA,NA,NA,NA,4,#D8271C,#741CD8,10,0,1,38,1,1283.1000000238419,37,1,420.39999997615814,10,1,experiment,NA,NA,0,0.9,0.1,0,1,101,3,NA
fcp-trial,135,669641,0.0-110.0-0.0,voc_e2,12276,"[{""event"":""fullscreenenter"",""trial"":1,""time"":3103}]",NA,NA,NA,NA,NA,5,#741CD8,#D8271C,10,10,0,38,1,430.10000002384186,39,0,639,10,1,experiment,NA,NA,0,0.1,0.9,1,0,102,3,NA
fcp-trial,136,672321,0.0-111.0-0.0,voc_e2,12276,"[{""event"":""fullscreenenter"",""trial"":1,""time"":3103}]",NA,NA,NA,NA,NA,1,#D89F1C,#3386FF,0,10,0,38,1,614.7000000476837,37,1,554.8000000715256,0,0,experiment,NA,NA,1,0.3,0.7,3,2,103,3,NA
fcp-trial,137,674956,0.0-112.0-0.0,voc_e2,12276,"[{""event"":""fullscreenenter"",""trial"":1,""time"":3103}]",NA,NA,NA,NA,NA,6,#FA92F8,#1CD855,0,0,0,38,1,596.3999999761581,39,0,531.3999999761581,0,1,experiment,NA,NA,2,0.5,0.5,5,4,104,3,NA
fcp-trial,138,678098,0.0-113.0-0.0,voc_e2,12276,"[{""event"":""fullscreenenter"",""trial"":1,""time"":3103}]",NA,NA,NA,NA,NA,3,#741CD8,#D8271C,0,10,0,38,1,1327.7999999523163,39,0,309.2000000476837,10,1,experiment,NA,NA,0,0.1,0.9,1,0,105,3,NA
audio-instructions,139,781044,0.0-114.0,voc_e2,12276,"[{""event"":""fullscreenenter"",""trial"":1,""time"":3103}]",NA,97956.79999995232,static/audio/pause.wav,NA,0,NA,NA,NA,NA,NA,NA,NA,NA,NA,NA,NA,NA,NA,NA,NA,NA,NA,NA,NA,NA,NA,NA,NA,NA,NA
fcp-trial,140,785139,0.0-115.0-0.0,voc_e2,12276,"[{""event"":""fullscreenenter"",""trial"":1,""time"":3103}]",NA,NA,NA,NA,NA,1,#3386FF,#D89F1C,10,0,1,38,1,1822.3000000715256,39,0,766.6000000238419,0,0,experiment,NA,NA,1,0.7,0.3,2,3,106,3,NA
fcp-trial,141,787772,0.0-116.0-0.0,voc_e2,12276,"[{""event"":""fullscreenenter"",""trial"":1,""time"":3103}]",NA,NA,NA,NA,NA,3,#D89F1C,#3386FF,0,0,0,38,1,638.3999999761581,37,1,488.1999999284744,0,0,experiment,NA,NA,1,0.3,0.7,3,2,107,3,NA
fcp-trial,142,790249,0.0-117.0-0.0,voc_e2,12276,"[{""event"":""fullscreenenter"",""trial"":1,""time"":3103}]",NA,NA,NA,NA,NA,1,#D8271C,#741CD8,10,0,1,38,1,432.5,37,1,536.5,10,1,experiment,NA,NA,0,0.9,0.1,0,1,108,3,NA
fcp-trial,143,792790,0.0-118.0-0.0,voc_e2,12276,"[{""event"":""fullscreenenter"",""trial"":1,""time"":3103}]",NA,NA,NA,NA,NA,2,#D8271C,#741CD8,10,0,1,38,1,394,37,1,640.1000000238419,10,1,experiment,NA,NA,0,0.9,0.1,0,1,109,3,NA
fcp-trial,144,794976,0.0-119.0-0.0,voc_e2,12276,"[{""event"":""fullscreenenter"",""trial"":1,""time"":3103}]",NA,NA,NA,NA,NA,6,#D8271C,#741CD8,10,10,1,38,1,414.60000002384186,37,1,265.5,10,1,experiment,NA,NA,0,0.9,0.1,0,1,110,3,NA
fcp-trial,145,797499,0.0-120.0-0.0,voc_e2,12276,"[{""event"":""fullscreenenter"",""trial"":1,""time"":3103}]",NA,NA,NA,NA,NA,2,#3386FF,#D89F1C,10,0,1,38,1,502.2000000476837,39,0,513,0,0,experiment,NA,NA,1,0.7,0.3,2,3,111,3,NA
fcp-trial,146,800212,0.0-121.0-0.0,voc_e2,12276,"[{""event"":""fullscreenenter"",""trial"":1,""time"":3103}]",NA,NA,NA,NA,NA,1,#1CD855,#FA92F8,10,0,1,38,1,536.6000000238419,39,0,669.6000000238419,0,0,experiment,NA,NA,2,0.5,0.5,4,5,112,3,NA
fcp-trial,147,802488,0.0-122.0-0.0,voc_e2,12276,"[{""event"":""fullscreenenter"",""trial"":1,""time"":3103}]",NA,NA,NA,NA,NA,3,#1CD855,#FA92F8,0,0,1,38,1,415.6999999284744,39,0,352.7999999523163,0,0,experiment,NA,NA,2,0.5,0.5,4,5,113,3,NA
fcp-trial,148,804866,0.0-123.0-0.0,voc_e2,12276,"[{""event"":""fullscreenenter"",""trial"":1,""time"":3103}]",NA,NA,NA,NA,NA,4,#D8271C,#741CD8,10,0,1,38,1,420.1999999284744,37,1,453.10000002384186,10,1,experiment,NA,NA,0,0.9,0.1,0,1,114,3,NA
fcp-trial,149,807525,0.0-124.0-0.0,voc_e2,12276,"[{""event"":""fullscreenenter"",""trial"":1,""time"":3103}]",NA,NA,NA,NA,NA,4,#3386FF,#D89F1C,0,0,1,38,1,602.1999999284744,37,1,549.5999999046326,0,1,experiment,NA,NA,1,0.7,0.3,2,3,115,3,NA
fcp-trial,150,810205,0.0-125.0-0.0,voc_e2,12276,"[{""event"":""fullscreenenter"",""trial"":1,""time"":3103}]",NA,NA,NA,NA,NA,5,#741CD8,#D8271C,0,10,0,38,1,597.3000000715256,39,0,576.5,10,1,experiment,NA,NA,0,0.1,0.9,1,0,116,3,NA
fcp-trial,151,812698,0.0-126.0-0.0,voc_e2,12276,"[{""event"":""fullscreenenter"",""trial"":1,""time"":3103}]",NA,NA,NA,NA,NA,5,#1CD855,#FA92F8,10,10,1,38,1,559.1999999284744,39,0,427.60000002384186,10,0,experiment,NA,NA,2,0.5,0.5,4,5,117,3,NA
fcp-trial,152,815030,0.0-127.0-0.0,voc_e2,12276,"[{""event"":""fullscreenenter"",""trial"":1,""time"":3103}]",NA,NA,NA,NA,NA,4,#1CD855,#FA92F8,10,0,1,38,1,531,39,0,294,0,0,experiment,NA,NA,2,0.5,0.5,4,5,118,3,NA
fcp-trial,153,817341,0.0-128.0-0.0,voc_e2,12276,"[{""event"":""fullscreenenter"",""trial"":1,""time"":3103}]",NA,NA,NA,NA,NA,3,#D8271C,#741CD8,10,0,1,38,1,434.1999999284744,37,1,370.7999999523163,10,1,experiment,NA,NA,0,0.9,0.1,0,1,119,3,NA
fcp-trial,154,819684,0.0-129.0-0.0,voc_e2,12276,"[{""event"":""fullscreenenter"",""trial"":1,""time"":3103}]",NA,NA,NA,NA,NA,6,#3386FF,#D89F1C,0,0,1,38,1,461.39999997615814,37,1,375.7999999523163,0,1,experiment,NA,NA,1,0.7,0.3,2,3,120,3,NA
fcp-trial,155,822339,0.0-130.0-0.0,voc_e2,12276,"[{""event"":""fullscreenenter"",""trial"":1,""time"":3103}]",NA,NA,NA,NA,NA,5,#3386FF,#D89F1C,10,10,1,38,1,801,37,1,345.59999990463257,10,1,experiment,NA,NA,1,0.7,0.3,2,3,121,3,NA
fcp-trial,156,825551,0.0-131.0-0.0,voc_e2,12276,"[{""event"":""fullscreenenter"",""trial"":1,""time"":3103}]",NA,NA,NA,NA,NA,0,#741CD8,#D8271C,0,10,0,38,1,497.1999999284744,39,0,1209.600000023842,10,1,experiment,NA,NA,0,0.1,0.9,1,0,122,3,NA
fcp-trial,157,828040,0.0-132.0-0.0,voc_e2,12276,"[{""event"":""fullscreenenter"",""trial"":1,""time"":3103}]",NA,NA,NA,NA,NA,2,#1CD855,#FA92F8,0,0,1,38,1,523.5999999046326,39,0,460.3000000715256,0,0,experiment,NA,NA,2,0.5,0.5,4,5,123,3,NA
fcp-trial,158,830609,0.0-133.0-0.0,voc_e2,12276,"[{""event"":""fullscreenenter"",""trial"":1,""time"":3103}]",NA,NA,NA,NA,NA,0,#D89F1C,#3386FF,0,0,0,38,1,448.7999999523163,39,0,613.2000000476837,0,1,experiment,NA,NA,1,0.3,0.7,3,2,124,3,NA
fcp-trial,159,833655,0.0-134.0-0.0,voc_e2,12276,"[{""event"":""fullscreenenter"",""trial"":1,""time"":3103}]",NA,NA,NA,NA,NA,6,#FA92F8,#1CD855,0,0,0,38,1,558.1000000238419,39,0,982.2999999523164,0,1,experiment,NA,NA,2,0.5,0.5,5,4,125,3,NA
fcp-trial,160,836079,0.0-135.0-0.0,voc_e2,12276,"[{""event"":""fullscreenenter"",""trial"":1,""time"":3103}]",NA,NA,NA,NA,NA,0,#1CD855,#FA92F8,0,0,1,38,1,397.89999997615814,39,0,522.2999999523163,0,0,experiment,NA,NA,2,0.5,0.5,4,5,126,3,NA
fcp-trial,161,838656,0.0-136.0-0.0,voc_e2,12276,"[{""event"":""fullscreenenter"",""trial"":1,""time"":3103}]",NA,NA,NA,NA,NA,2,#741CD8,#D8271C,0,10,0,38,1,515.2000000476837,39,0,557,10,1,experiment,NA,NA,0,0.1,0.9,1,0,127,3,NA
fcp-trial,162,840836,0.0-137.0-0.0,voc_e2,12276,"[{""event"":""fullscreenenter"",""trial"":1,""time"":3103}]",NA,NA,NA,NA,NA,6,#FA92F8,#1CD855,0,0,0,38,1,374.6999999284744,37,1,299.7999999523163,0,0,experiment,NA,NA,2,0.5,0.5,5,4,128,3,NA
fcp-trial,163,843349,0.0-138.0-0.0,voc_e2,12276,"[{""event"":""fullscreenenter"",""trial"":1,""time"":3103}]",NA,NA,NA,NA,NA,2,#D89F1C,#3386FF,0,10,0,38,1,373,39,0,633.2999999523163,10,1,experiment,NA,NA,1,0.3,0.7,3,2,129,3,NA
fcp-trial,164,845847,0.0-139.0-0.0,voc_e2,12276,"[{""event"":""fullscreenenter"",""trial"":1,""time"":3103}]",NA,NA,NA,NA,NA,1,#D8271C,#741CD8,10,0,1,38,1,496.89999997615814,37,1,495.39999997615814,10,1,experiment,NA,NA,0,0.9,0.1,0,1,130,3,NA
fcp-trial,165,848056,0.0-140.0-0.0,voc_e2,12276,"[{""event"":""fullscreenenter"",""trial"":1,""time"":3103}]",NA,NA,NA,NA,NA,0,#D8271C,#741CD8,0,0,1,38,1,430.2000000476837,37,1,272.2999999523163,0,1,experiment,NA,NA,0,0.9,0.1,0,1,131,3,NA
fcp-trial,166,850469,0.0-141.0-0.0,voc_e2,12276,"[{""event"":""fullscreenenter"",""trial"":1,""time"":3103}]",NA,NA,NA,NA,NA,0,#3386FF,#D89F1C,0,0,1,38,1,499.89999997615814,39,0,407.60000002384186,0,0,experiment,NA,NA,1,0.7,0.3,2,3,132,3,NA
fcp-trial,167,853019,0.0-142.0-0.0,voc_e2,12276,"[{""event"":""fullscreenenter"",""trial"":1,""time"":3103}]",NA,NA,NA,NA,NA,3,#FA92F8,#1CD855,10,10,0,38,1,545.6999999284744,37,1,497.7999999523163,10,0,experiment,NA,NA,2,0.5,0.5,5,4,133,3,NA
fcp-trial,168,855437,0.0-143.0-0.0,voc_e2,12276,"[{""event"":""fullscreenenter"",""trial"":1,""time"":3103}]",NA,NA,NA,NA,NA,1,#FA92F8,#1CD855,0,0,0,38,1,597.1000000238419,37,1,313,0,0,experiment,NA,NA,2,0.5,0.5,5,4,134,3,NA
fcp-trial,169,857736,0.0-144.0-0.0,voc_e2,12276,"[{""event"":""fullscreenenter"",""trial"":1,""time"":3103}]",NA,NA,NA,NA,NA,5,#D8271C,#741CD8,10,0,1,38,1,493.6999999284744,37,1,300.60000002384186,10,1,experiment,NA,NA,0,0.9,0.1,0,1,135,3,NA
fcp-trial,170,860267,0.0-145.0-0.0,voc_e2,12276,"[{""event"":""fullscreenenter"",""trial"":1,""time"":3103}]",NA,NA,NA,NA,NA,2,#1CD855,#FA92F8,0,0,1,38,1,565,39,0,459.2999999523163,0,0,experiment,NA,NA,2,0.5,0.5,4,5,136,4,NA
fcp-trial,171,862546,0.0-146.0-0.0,voc_e2,12276,"[{""event"":""fullscreenenter"",""trial"":1,""time"":3103}]",NA,NA,NA,NA,NA,1,#3386FF,#D89F1C,10,0,1,38,1,320.7000000476837,39,0,452.1999999284744,0,0,experiment,NA,NA,1,0.7,0.3,2,3,137,4,NA
fcp-trial,172,864861,0.0-147.0-0.0,voc_e2,12276,"[{""event"":""fullscreenenter"",""trial"":1,""time"":3103}]",NA,NA,NA,NA,NA,5,#D89F1C,#3386FF,0,10,0,38,1,405.5,37,1,403.5,0,0,experiment,NA,NA,1,0.3,0.7,3,2,138,4,NA
fcp-trial,173,867351,0.0-148.0-0.0,voc_e2,12276,"[{""event"":""fullscreenenter"",""trial"":1,""time"":3103}]",NA,NA,NA,NA,NA,3,#D8271C,#741CD8,10,0,1,38,1,549.2000000476837,37,1,435.89999997615814,10,1,experiment,NA,NA,0,0.9,0.1,0,1,139,4,NA
fcp-trial,174,870133,0.0-149.0-0.0,voc_e2,12276,"[{""event"":""fullscreenenter"",""trial"":1,""time"":3103}]",NA,NA,NA,NA,NA,4,#3386FF,#D89F1C,10,10,1,38,1,705.6999999284744,39,0,569.1999999284744,10,0,experiment,NA,NA,1,0.7,0.3,2,3,140,4,NA
fcp-trial,175,873227,0.0-150.0-0.0,voc_e2,12276,"[{""event"":""fullscreenenter"",""trial"":1,""time"":3103}]",NA,NA,NA,NA,NA,5,#FA92F8,#1CD855,0,0,0,40,0,853.1000000238419,39,0,734.5,0,1,experiment,NA,NA,2,0.5,0.5,5,4,141,4,NA
fcp-trial,176,876139,0.0-151.0-0.0,voc_e2,12276,"[{""event"":""fullscreenenter"",""trial"":1,""time"":3103}]",NA,NA,NA,NA,NA,6,#741CD8,#D8271C,10,10,0,38,1,481.89999997615814,37,1,924.600000023842,10,0,experiment,NA,NA,0,0.1,0.9,1,0,142,4,NA
fcp-trial,177,879533,0.0-152.0-0.0,voc_e2,12276,"[{""event"":""fullscreenenter"",""trial"":1,""time"":3103}]",NA,NA,NA,NA,NA,3,#3386FF,#D89F1C,10,10,1,38,1,1594.6000000238419,37,1,293.10000002384186,10,1,experiment,NA,NA,1,0.7,0.3,2,3,143,4,NA
fcp-trial,178,881922,0.0-153.0-0.0,voc_e2,12276,"[{""event"":""fullscreenenter"",""trial"":1,""time"":3103}]",NA,NA,NA,NA,NA,6,#3386FF,#D89F1C,0,0,1,38,1,554.1999999284744,37,1,329,0,1,experiment,NA,NA,1,0.7,0.3,2,3,144,4,NA
fcp-trial,179,885948,0.0-154.0-0.0,voc_e2,12276,"[{""event"":""fullscreenenter"",""trial"":1,""time"":3103}]",NA,NA,NA,NA,NA,0,#1CD855,#FA92F8,0,10,1,40,0,1955.6000000238419,37,1,561.6000000238419,0,1,experiment,NA,NA,2,0.5,0.5,4,5,145,4,NA
fcp-trial,180,889123,0.0-155.0-0.0,voc_e2,12276,"[{""event"":""fullscreenenter"",""trial"":1,""time"":3103}]",NA,NA,NA,NA,NA,4,#1CD855,#FA92F8,0,0,1,40,0,1146.7000000476837,39,0,519.6999999284744,0,0,experiment,NA,NA,2,0.5,0.5,4,5,146,4,NA
fcp-trial,181,892960,0.0-156.0-0.0,voc_e2,12276,"[{""event"":""fullscreenenter"",""trial"":1,""time"":3103}]",NA,NA,NA,NA,NA,4,#741CD8,#D8271C,0,10,0,38,1,1714.5999999046326,39,0,615.5,10,1,experiment,NA,NA,0,0.1,0.9,1,0,147,4,NA
fcp-trial,182,895746,0.0-157.0-0.0,voc_e2,12276,"[{""event"":""fullscreenenter"",""trial"":1,""time"":3103}]",NA,NA,NA,NA,NA,6,#FA92F8,#1CD855,10,10,0,38,1,981.2000000476837,37,1,298.09999990463257,10,0,experiment,NA,NA,2,0.5,0.5,5,4,148,4,NA
fcp-trial,183,898634,0.0-158.0-0.0,voc_e2,12276,"[{""event"":""fullscreenenter"",""trial"":1,""time"":3103}]",NA,NA,NA,NA,NA,1,#D89F1C,#3386FF,0,10,0,38,1,1051.7999999523163,39,0,329.59999990463257,10,1,experiment,NA,NA,1,0.3,0.7,3,2,149,4,NA
fcp-trial,184,900994,0.0-159.0-0.0,voc_e2,12276,"[{""event"":""fullscreenenter"",""trial"":1,""time"":3103}]",NA,NA,NA,NA,NA,6,#741CD8,#D8271C,0,10,0,38,1,520.7000000476837,39,0,333.1999999284744,10,1,experiment,NA,NA,0,0.1,0.9,1,0,150,4,NA
fcp-trial,185,903530,0.0-160.0-0.0,voc_e2,12276,"[{""event"":""fullscreenenter"",""trial"":1,""time"":3103}]",NA,NA,NA,NA,NA,5,#D89F1C,#3386FF,0,10,0,38,1,713.6999999284744,39,0,314.7999999523163,10,1,experiment,NA,NA,1,0.3,0.7,3,2,151,4,NA
fcp-trial,186,905932,0.0-161.0-0.0,voc_e2,12276,"[{""event"":""fullscreenenter"",""trial"":1,""time"":3103}]",NA,NA,NA,NA,NA,3,#FA92F8,#1CD855,0,10,0,38,1,595,37,1,301,0,0,experiment,NA,NA,2,0.5,0.5,5,4,152,4,NA
fcp-trial,187,908461,0.0-162.0-0.0,voc_e2,12276,"[{""event"":""fullscreenenter"",""trial"":1,""time"":3103}]",NA,NA,NA,NA,NA,4,#D8271C,#741CD8,10,0,1,38,1,744.3999999761581,37,1,278.60000002384186,10,1,experiment,NA,NA,0,0.9,0.1,0,1,153,4,NA
fcp-trial,188,910805,0.0-163.0-0.0,voc_e2,12276,"[{""event"":""fullscreenenter"",""trial"":1,""time"":3103}]",NA,NA,NA,NA,NA,5,#D8271C,#741CD8,10,0,1,38,1,529.2000000476837,37,1,305.1999999284744,10,1,experiment,NA,NA,0,0.9,0.1,0,1,154,4,NA
fcp-trial,189,913085,0.0-164.0-0.0,voc_e2,12276,"[{""event"":""fullscreenenter"",""trial"":1,""time"":3103}]",NA,NA,NA,NA,NA,1,#D8271C,#741CD8,10,0,1,38,1,465.7999999523163,37,1,308.3000000715256,10,1,experiment,NA,NA,0,0.9,0.1,0,1,155,4,NA
fcp-trial,190,915580,0.0-165.0-0.0,voc_e2,12276,"[{""event"":""fullscreenenter"",""trial"":1,""time"":3103}]",NA,NA,NA,NA,NA,6,#3386FF,#D89F1C,0,10,1,38,1,585.1000000238419,39,0,402.7000000476837,10,0,experiment,NA,NA,1,0.7,0.3,2,3,156,4,NA
fcp-trial,191,917939,0.0-166.0-0.0,voc_e2,12276,"[{""event"":""fullscreenenter"",""trial"":1,""time"":3103}]",NA,NA,NA,NA,NA,4,#FA92F8,#1CD855,0,0,0,38,1,503.7000000476837,39,0,348.7999999523163,0,1,experiment,NA,NA,2,0.5,0.5,5,4,157,4,NA
fcp-trial,192,920339,0.0-167.0-0.0,voc_e2,12276,"[{""event"":""fullscreenenter"",""trial"":1,""time"":3103}]",NA,NA,NA,NA,NA,4,#D89F1C,#3386FF,10,10,0,38,1,464.7999999523163,39,0,428,10,1,experiment,NA,NA,1,0.3,0.7,3,2,158,4,NA
fcp-trial,193,923038,0.0-168.0-0.0,voc_e2,12276,"[{""event"":""fullscreenenter"",""trial"":1,""time"":3103}]",NA,NA,NA,NA,NA,2,#1CD855,#FA92F8,0,10,1,38,1,605.6000000238419,39,0,589.6000000238419,10,0,experiment,NA,NA,2,0.5,0.5,4,5,159,4,NA
fcp-trial,194,925540,0.0-169.0-0.0,voc_e2,12276,"[{""event"":""fullscreenenter"",""trial"":1,""time"":3103}]",NA,NA,NA,NA,NA,3,#741CD8,#D8271C,0,10,0,38,1,670,39,0,325.39999997615814,10,1,experiment,NA,NA,0,0.1,0.9,1,0,160,4,NA
fcp-trial,195,927985,0.0-170.0-0.0,voc_e2,12276,"[{""event"":""fullscreenenter"",""trial"":1,""time"":3103}]",NA,NA,NA,NA,NA,0,#1CD855,#FA92F8,0,0,1,38,1,535.7999999523163,37,1,401.2000000476837,0,1,experiment,NA,NA,2,0.5,0.5,4,5,161,4,NA
fcp-trial,196,930439,0.0-171.0-0.0,voc_e2,12276,"[{""event"":""fullscreenenter"",""trial"":1,""time"":3103}]",NA,NA,NA,NA,NA,0,#D89F1C,#3386FF,0,10,0,38,1,522.5999999046326,39,0,425,10,1,experiment,NA,NA,1,0.3,0.7,3,2,162,4,NA
fcp-trial,197,932782,0.0-172.0-0.0,voc_e2,12276,"[{""event"":""fullscreenenter"",""trial"":1,""time"":3103}]",NA,NA,NA,NA,NA,5,#FA92F8,#1CD855,0,0,0,38,1,524,39,0,311.59999990463257,0,1,experiment,NA,NA,2,0.5,0.5,5,4,163,4,NA
fcp-trial,198,934938,0.0-173.0-0.0,voc_e2,12276,"[{""event"":""fullscreenenter"",""trial"":1,""time"":3103}]",NA,NA,NA,NA,NA,3,#3386FF,#D89F1C,10,0,1,38,1,378,37,1,270.60000002384186,10,1,experiment,NA,NA,1,0.7,0.3,2,3,164,4,NA
fcp-trial,199,938079,0.0-174.0-0.0,voc_e2,12276,"[{""event"":""fullscreenenter"",""trial"":1,""time"":3103}]",NA,NA,NA,NA,NA,2,#D8271C,#741CD8,0,0,1,38,1,343.7999999523163,37,1,1291.7999999523165,0,1,experiment,NA,NA,0,0.9,0.1,0,1,165,4,NA
fcp-trial,200,941233,0.0-175.0-0.0,voc_e2,12276,"[{""event"":""fullscreenenter"",""trial"":1,""time"":3103}]",NA,NA,NA,NA,NA,1,#1CD855,#FA92F8,0,0,1,38,1,624.5,39,0,1023.3000000715256,0,0,experiment,NA,NA,2,0.5,0.5,4,5,166,4,NA
fcp-trial,201,944524,0.0-176.0-0.0,voc_e2,12276,"[{""event"":""fullscreenenter"",""trial"":1,""time"":3103}]",NA,NA,NA,NA,NA,0,#741CD8,#D8271C,0,10,0,38,1,1509.7999999523163,39,0,275.60000002384186,10,1,experiment,NA,NA,0,0.1,0.9,1,0,167,4,NA
fcp-trial,202,947027,0.0-177.0-0.0,voc_e2,12276,"[{""event"":""fullscreenenter"",""trial"":1,""time"":3103}]",NA,NA,NA,NA,NA,2,#3386FF,#D89F1C,10,0,1,38,1,689.7999999523163,37,1,306.60000002384186,10,1,experiment,NA,NA,1,0.7,0.3,2,3,168,4,NA
fcp-trial,203,949225,0.0-178.0-0.0,voc_e2,12276,"[{""event"":""fullscreenenter"",""trial"":1,""time"":3103}]",NA,NA,NA,NA,NA,0,#1CD855,#FA92F8,10,0,1,38,1,338.7999999523163,39,0,353.5,0,0,experiment,NA,NA,2,0.5,0.5,4,5,169,4,NA
fcp-trial,204,951402,0.0-179.0-0.0,voc_e2,12276,"[{""event"":""fullscreenenter"",""trial"":1,""time"":3103}]",NA,NA,NA,NA,NA,5,#741CD8,#D8271C,0,10,0,38,1,363.6999999284744,39,0,306.90000009536743,10,1,experiment,NA,NA,0,0.1,0.9,1,0,170,4,NA
fcp-trial,205,953735,0.0-180.0-0.0,voc_e2,12276,"[{""event"":""fullscreenenter"",""trial"":1,""time"":3103}]",NA,NA,NA,NA,NA,3,#1CD855,#FA92F8,0,0,1,38,1,538.6999999284744,37,1,289,0,1,experiment,NA,NA,2,0.5,0.5,4,5,171,4,NA
fcp-trial,206,955951,0.0-181.0-0.0,voc_e2,12276,"[{""event"":""fullscreenenter"",""trial"":1,""time"":3103}]",NA,NA,NA,NA,NA,1,#FA92F8,#1CD855,10,10,0,38,1,367.39999997615814,37,1,340.60000002384186,10,0,experiment,NA,NA,2,0.5,0.5,5,4,172,4,NA
fcp-trial,207,958294,0.0-182.0-0.0,voc_e2,12276,"[{""event"":""fullscreenenter"",""trial"":1,""time"":3103}]",NA,NA,NA,NA,NA,0,#D89F1C,#3386FF,10,10,0,38,1,420.89999997615814,37,1,416.7000000476837,10,0,experiment,NA,NA,1,0.3,0.7,3,2,173,4,NA
fcp-trial,208,960664,0.0-183.0-0.0,voc_e2,12276,"[{""event"":""fullscreenenter"",""trial"":1,""time"":3103}]",NA,NA,NA,NA,NA,1,#D8271C,#741CD8,0,0,1,38,1,506.39999997615814,37,1,353.7000000476837,0,1,experiment,NA,NA,0,0.9,0.1,0,1,174,4,NA
fcp-trial,209,963375,0.0-184.0-0.0,voc_e2,12276,"[{""event"":""fullscreenenter"",""trial"":1,""time"":3103}]",NA,NA,NA,NA,NA,2,#D8271C,#741CD8,0,0,1,38,1,928,37,1,277.6999999284744,0,1,experiment,NA,NA,0,0.9,0.1,0,1,175,4,NA
fcp-trial,210,965638,0.0-185.0-0.0,voc_e2,12276,"[{""event"":""fullscreenenter"",""trial"":1,""time"":3103}]",NA,NA,NA,NA,NA,6,#FA92F8,#1CD855,0,0,0,38,1,457.60000002384186,37,1,300,0,0,experiment,NA,NA,2,0.5,0.5,5,4,176,4,NA
fcp-trial,211,967987,0.0-186.0-0.0,voc_e2,12276,"[{""event"":""fullscreenenter"",""trial"":1,""time"":3103}]",NA,NA,NA,NA,NA,1,#D89F1C,#3386FF,0,10,0,38,1,488.39999997615814,39,0,354.89999997615814,10,1,experiment,NA,NA,1,0.3,0.7,3,2,177,4,NA
fcp-trial,212,970213,0.0-187.0-0.0,voc_e2,12276,"[{""event"":""fullscreenenter"",""trial"":1,""time"":3103}]",NA,NA,NA,NA,NA,3,#D8271C,#741CD8,10,0,1,38,1,437,37,1,285,10,1,experiment,NA,NA,0,0.9,0.1,0,1,178,4,NA
fcp-trial,213,972506,0.0-188.0-0.0,voc_e2,12276,"[{""event"":""fullscreenenter"",""trial"":1,""time"":3103}]",NA,NA,NA,NA,NA,3,#D89F1C,#3386FF,0,10,0,38,1,497,37,1,290,0,0,experiment,NA,NA,1,0.3,0.7,3,2,179,4,NA
fcp-trial,214,974747,0.0-189.0-0.0,voc_e2,12276,"[{""event"":""fullscreenenter"",""trial"":1,""time"":3103}]",NA,NA,NA,NA,NA,2,#3386FF,#D89F1C,10,10,1,38,1,392,37,1,342.5,10,1,experiment,NA,NA,1,0.7,0.3,2,3,180,4,NA
fcp-trial,215,977095,0.0-190.0-0.0,voc_e2,12276,"[{""event"":""fullscreenenter"",""trial"":1,""time"":3103}]",NA,NA,NA,NA,NA,5,#1CD855,#FA92F8,10,10,1,38,1,462.8000000715256,39,0,379.5,10,0,experiment,NA,NA,2,0.5,0.5,4,5,181,5,NA
fcp-trial,216,979563,0.0-191.0-0.0,voc_e2,12276,"[{""event"":""fullscreenenter"",""trial"":1,""time"":3103}]",NA,NA,NA,NA,NA,6,#3386FF,#D89F1C,10,10,1,38,1,576.7000000476837,37,1,385.3000000715256,10,1,experiment,NA,NA,1,0.7,0.3,2,3,182,5,NA
fcp-trial,217,982005,0.0-192.0-0.0,voc_e2,12276,"[{""event"":""fullscreenenter"",""trial"":1,""time"":3103}]",NA,NA,NA,NA,NA,4,#D8271C,#741CD8,10,0,1,38,1,411.39999997615814,37,1,524.5,10,1,experiment,NA,NA,0,0.9,0.1,0,1,183,5,NA
fcp-trial,218,984231,0.0-193.0-0.0,voc_e2,12276,"[{""event"":""fullscreenenter"",""trial"":1,""time"":3103}]",NA,NA,NA,NA,NA,2,#1CD855,#FA92F8,0,10,1,38,1,410,39,0,311.7000000476837,10,0,experiment,NA,NA,2,0.5,0.5,4,5,184,5,NA
fcp-trial,219,987224,0.0-194.0-0.0,voc_e2,12276,"[{""event"":""fullscreenenter"",""trial"":1,""time"":3103}]",NA,NA,NA,NA,NA,4,#D89F1C,#3386FF,0,10,0,38,1,864.3999999761581,39,0,623.1000000238419,10,1,experiment,NA,NA,1,0.3,0.7,3,2,185,5,NA
fcp-trial,220,989595,0.0-195.0-0.0,voc_e2,12276,"[{""event"":""fullscreenenter"",""trial"":1,""time"":3103}]",NA,NA,NA,NA,NA,5,#3386FF,#D89F1C,10,0,1,38,1,394.10000002384186,37,1,471,10,1,experiment,NA,NA,1,0.7,0.3,2,3,186,5,NA
fcp-trial,221,992651,0.0-196.0-0.0,voc_e2,12276,"[{""event"":""fullscreenenter"",""trial"":1,""time"":3103}]",NA,NA,NA,NA,NA,0,#D8271C,#741CD8,10,0,1,38,1,916.8000000715256,37,1,633.5,10,1,experiment,NA,NA,0,0.9,0.1,0,1,187,5,NA
fcp-trial,222,994990,0.0-197.0-0.0,voc_e2,12276,"[{""event"":""fullscreenenter"",""trial"":1,""time"":3103}]",NA,NA,NA,NA,NA,6,#741CD8,#D8271C,0,10,0,38,1,486.2999999523163,39,0,345.89999997615814,10,1,experiment,NA,NA,0,0.1,0.9,1,0,188,5,NA
fcp-trial,223,997320,0.0-198.0-0.0,voc_e2,12276,"[{""event"":""fullscreenenter"",""trial"":1,""time"":3103}]",NA,NA,NA,NA,NA,4,#FA92F8,#1CD855,0,10,0,38,1,506.39999997615814,39,0,316.5,10,1,experiment,NA,NA,2,0.5,0.5,5,4,189,5,NA
fcp-trial,224,999747,0.0-199.0-0.0,voc_e2,12276,"[{""event"":""fullscreenenter"",""trial"":1,""time"":3103}]",NA,NA,NA,NA,NA,4,#741CD8,#D8271C,0,0,0,38,1,417.3000000715256,37,1,504.5,0,0,experiment,NA,NA,0,0.1,0.9,1,0,190,5,NA
fcp-trial,225,1002197,0.0-200.0-0.0,voc_e2,12276,"[{""event"":""fullscreenenter"",""trial"":1,""time"":3103}]",NA,NA,NA,NA,NA,1,#D8271C,#741CD8,0,0,1,38,1,651.6999999284744,37,1,287.90000009536743,0,1,experiment,NA,NA,0,0.9,0.1,0,1,191,5,NA
fcp-trial,226,1004610,0.0-201.0-0.0,voc_e2,12276,"[{""event"":""fullscreenenter"",""trial"":1,""time"":3103}]",NA,NA,NA,NA,NA,4,#3386FF,#D89F1C,0,0,1,38,1,418.5,37,1,488.2000000476837,0,1,experiment,NA,NA,1,0.7,0.3,2,3,192,5,NA
fcp-trial,227,1006682,0.0-202.0-0.0,voc_e2,12276,"[{""event"":""fullscreenenter"",""trial"":1,""time"":3103}]",NA,NA,NA,NA,NA,3,#3386FF,#D89F1C,10,10,1,38,1,274.60000002384186,37,1,288.40000009536743,10,1,experiment,NA,NA,1,0.7,0.3,2,3,193,5,NA
fcp-trial,228,1008960,0.0-203.0-0.0,voc_e2,12276,"[{""event"":""fullscreenenter"",""trial"":1,""time"":3103}]",NA,NA,NA,NA,NA,0,#741CD8,#D8271C,0,10,0,38,1,475.60000002384186,39,0,297.90000009536743,10,1,experiment,NA,NA,0,0.1,0.9,1,0,194,5,NA
fcp-trial,229,1011239,0.0-204.0-0.0,voc_e2,12276,"[{""event"":""fullscreenenter"",""trial"":1,""time"":3103}]",NA,NA,NA,NA,NA,4,#FA92F8,#1CD855,10,10,0,38,1,435.8000000715256,37,1,338.1999999284744,10,0,experiment,NA,NA,2,0.5,0.5,5,4,195,5,NA
fcp-trial,230,1013587,0.0-205.0-0.0,voc_e2,12276,"[{""event"":""fullscreenenter"",""trial"":1,""time"":3103}]",NA,NA,NA,NA,NA,6,#D89F1C,#3386FF,0,10,0,38,1,546.3000000715256,39,0,296.90000009536743,10,1,experiment,NA,NA,1,0.3,0.7,3,2,196,5,NA
fcp-trial,231,1016266,0.0-206.0-0.0,voc_e2,12276,"[{""event"":""fullscreenenter"",""trial"":1,""time"":3103}]",NA,NA,NA,NA,NA,0,#FA92F8,#1CD855,10,10,0,38,1,886.2999999523163,39,0,286.2000000476837,10,1,experiment,NA,NA,2,0.5,0.5,5,4,197,5,NA
fcp-trial,232,1018394,0.0-207.0-0.0,voc_e2,12276,"[{""event"":""fullscreenenter"",""trial"":1,""time"":3103}]",NA,NA,NA,NA,NA,6,#FA92F8,#1CD855,10,0,0,38,1,320,37,1,300.89999997615814,10,0,experiment,NA,NA,2,0.5,0.5,5,4,198,5,NA
fcp-trial,233,1020704,0.0-208.0-0.0,voc_e2,12276,"[{""event"":""fullscreenenter"",""trial"":1,""time"":3103}]",NA,NA,NA,NA,NA,6,#D8271C,#741CD8,10,10,1,38,1,410.7999999523163,37,1,394,10,1,experiment,NA,NA,0,0.9,0.1,0,1,199,5,NA
fcp-trial,234,1022986,0.0-209.0-0.0,voc_e2,12276,"[{""event"":""fullscreenenter"",""trial"":1,""time"":3103}]",NA,NA,NA,NA,NA,2,#D89F1C,#3386FF,0,10,0,38,1,492.5,39,0,283.6999999284744,10,1,experiment,NA,NA,1,0.3,0.7,3,2,200,5,NA
fcp-trial,235,1025196,0.0-210.0-0.0,voc_e2,12276,"[{""event"":""fullscreenenter"",""trial"":1,""time"":3103}]",NA,NA,NA,NA,NA,5,#741CD8,#D8271C,0,10,0,38,1,359.60000002384186,39,0,343.1999999284744,10,1,experiment,NA,NA,0,0.1,0.9,1,0,201,5,NA
fcp-trial,236,1027523,0.0-211.0-0.0,voc_e2,12276,"[{""event"":""fullscreenenter"",""trial"":1,""time"":3103}]",NA,NA,NA,NA,NA,2,#FA92F8,#1CD855,0,10,0,38,1,501.60000002384186,39,0,318.8000000715256,10,1,experiment,NA,NA,2,0.5,0.5,5,4,202,5,NA
fcp-trial,237,1030256,0.0-212.0-0.0,voc_e2,12276,"[{""event"":""fullscreenenter"",""trial"":1,""time"":3103}]",NA,NA,NA,NA,NA,2,#741CD8,#D8271C,0,0,0,38,1,563.2999999523163,39,0,663.3999999761581,0,1,experiment,NA,NA,0,0.1,0.9,1,0,203,5,NA
fcp-trial,238,1032328,0.0-213.0-0.0,voc_e2,12276,"[{""event"":""fullscreenenter"",""trial"":1,""time"":3103}]",NA,NA,NA,NA,NA,0,#3386FF,#D89F1C,0,0,1,38,1,272.89999997615814,37,1,290.89999997615814,0,1,experiment,NA,NA,1,0.7,0.3,2,3,204,5,NA
fcp-trial,239,1035215,0.0-214.0-0.0,voc_e2,12276,"[{""event"":""fullscreenenter"",""trial"":1,""time"":3103}]",NA,NA,NA,NA,NA,1,#D89F1C,#3386FF,0,0,0,38,1,744.7999999523163,39,0,634.2999999523163,0,1,experiment,NA,NA,1,0.3,0.7,3,2,205,5,NA
fcp-trial,240,1037319,0.0-215.0-0.0,voc_e2,12276,"[{""event"":""fullscreenenter"",""trial"":1,""time"":3103}]",NA,NA,NA,NA,NA,3,#741CD8,#D8271C,0,10,0,38,1,304.2999999523163,39,0,292.8000000715256,10,1,experiment,NA,NA,0,0.1,0.9,1,0,206,5,NA
fcp-trial,241,1039498,0.0-216.0-0.0,voc_e2,12276,"[{""event"":""fullscreenenter"",""trial"":1,""time"":3103}]",NA,NA,NA,NA,NA,1,#1CD855,#FA92F8,10,10,1,38,1,348.3000000715256,37,1,323.7000000476837,10,1,experiment,NA,NA,2,0.5,0.5,4,5,207,5,NA
fcp-trial,242,1041642,0.0-217.0-0.0,voc_e2,12276,"[{""event"":""fullscreenenter"",""trial"":1,""time"":3103}]",NA,NA,NA,NA,NA,3,#FA92F8,#1CD855,0,10,0,38,1,323,39,0,314.8000000715256,10,1,experiment,NA,NA,2,0.5,0.5,5,4,208,5,NA
fcp-trial,243,1044122,0.0-218.0-0.0,voc_e2,12276,"[{""event"":""fullscreenenter"",""trial"":1,""time"":3103}]",NA,NA,NA,NA,NA,5,#D89F1C,#3386FF,0,0,0,38,1,428.5,37,1,547.2000000476837,0,0,experiment,NA,NA,1,0.3,0.7,3,2,209,5,NA
fcp-trial,244,1046249,0.0-219.0-0.0,voc_e2,12276,"[{""event"":""fullscreenenter"",""trial"":1,""time"":3103}]",NA,NA,NA,NA,NA,5,#1CD855,#FA92F8,0,10,1,38,1,354.2000000476837,39,0,267.09999990463257,10,0,experiment,NA,NA,2,0.5,0.5,4,5,210,5,NA
audio-instructions,245,1245178,0.0-220.0,voc_e2,12276,"[{""event"":""fullscreenenter"",""trial"":1,""time"":3103}]",NA,193876.39999997616,static/audio/pause.wav,NA,0,NA,NA,NA,NA,NA,NA,NA,NA,NA,NA,NA,NA,NA,NA,NA,NA,NA,NA,NA,NA,NA,NA,NA,NA,NA
fcp-trial,246,1249560,0.0-221.0-0.0,voc_e2,12276,"[{""event"":""fullscreenenter"",""trial"":1,""time"":3103}]",NA,NA,NA,NA,NA,5,#3386FF,#D89F1C,0,0,1,38,1,1769.1000000238419,39,0,1104.7000000476835,0,0,experiment,NA,NA,1,0.7,0.3,2,3,211,5,NA
fcp-trial,247,1252498,0.0-222.0-0.0,voc_e2,12276,"[{""event"":""fullscreenenter"",""trial"":1,""time"":3103}]",NA,NA,NA,NA,NA,3,#D8271C,#741CD8,0,0,1,38,1,779.2000000476837,37,1,651.5,0,1,experiment,NA,NA,0,0.9,0.1,0,1,212,5,NA
fcp-trial,248,1255027,0.0-223.0-0.0,voc_e2,12276,"[{""event"":""fullscreenenter"",""trial"":1,""time"":3103}]",NA,NA,NA,NA,NA,2,#D89F1C,#3386FF,0,10,0,38,1,342.40000009536743,37,1,679.6000000238419,0,0,experiment,NA,NA,1,0.3,0.7,3,2,213,5,NA
fcp-trial,249,1257336,0.0-224.0-0.0,voc_e2,12276,"[{""event"":""fullscreenenter"",""trial"":1,""time"":3103}]",NA,NA,NA,NA,NA,3,#FA92F8,#1CD855,0,0,0,38,1,350,37,1,451.59999990463257,0,0,experiment,NA,NA,2,0.5,0.5,5,4,214,5,NA
fcp-trial,250,1259733,0.0-225.0-0.0,voc_e2,12276,"[{""event"":""fullscreenenter"",""trial"":1,""time"":3103}]",NA,NA,NA,NA,NA,6,#741CD8,#D8271C,0,10,0,38,1,447.60000002384186,39,0,443.89999997615814,10,1,experiment,NA,NA,0,0.1,0.9,1,0,215,5,NA
fcp-trial,251,1261863,0.0-226.0-0.0,voc_e2,12276,"[{""event"":""fullscreenenter"",""trial"":1,""time"":3103}]",NA,NA,NA,NA,NA,1,#741CD8,#D8271C,0,10,0,38,1,351,39,0,271.89999997615814,10,1,experiment,NA,NA,0,0.1,0.9,1,0,216,5,NA
fcp-trial,252,1263992,0.0-227.0-0.0,voc_e2,12276,"[{""event"":""fullscreenenter"",""trial"":1,""time"":3103}]",NA,NA,NA,NA,NA,6,#D89F1C,#3386FF,0,10,0,38,1,342.09999990463257,37,1,278.39999997615814,0,0,experiment,NA,NA,1,0.3,0.7,3,2,217,5,NA
fcp-trial,253,1266220,0.0-228.0-0.0,voc_e2,12276,"[{""event"":""fullscreenenter"",""trial"":1,""time"":3103}]",NA,NA,NA,NA,NA,1,#FA92F8,#1CD855,10,10,0,38,1,412.2000000476837,37,1,308.09999990463257,10,0,experiment,NA,NA,2,0.5,0.5,5,4,218,5,NA
fcp-trial,254,1268300,0.0-229.0-0.0,voc_e2,12276,"[{""event"":""fullscreenenter"",""trial"":1,""time"":3103}]",NA,NA,NA,NA,NA,0,#FA92F8,#1CD855,10,0,0,38,1,288.10000002384186,37,1,283.40000009536743,10,0,experiment,NA,NA,2,0.5,0.5,5,4,219,5,NA
fcp-trial,255,1270631,0.0-230.0-0.0,voc_e2,12276,"[{""event"":""fullscreenenter"",""trial"":1,""time"":3103}]",NA,NA,NA,NA,NA,4,#D8271C,#741CD8,0,0,1,38,1,522.7999999523163,37,1,300.59999990463257,0,1,experiment,NA,NA,0,0.9,0.1,0,1,220,5,NA
fcp-trial,256,1273204,0.0-231.0-0.0,voc_e2,12276,"[{""event"":""fullscreenenter"",""trial"":1,""time"":3103}]",NA,NA,NA,NA,NA,0,#3386FF,#D89F1C,0,0,1,38,1,352.10000002384186,37,1,712.5,0,1,experiment,NA,NA,1,0.7,0.3,2,3,221,5,NA
fcp-trial,257,1275322,0.0-232.0-0.0,voc_e2,12276,"[{""event"":""fullscreenenter"",""trial"":1,""time"":3103}]",NA,NA,NA,NA,NA,2,#D8271C,#741CD8,10,0,1,38,1,321.3000000715256,37,1,288.5,10,1,experiment,NA,NA,0,0.9,0.1,0,1,222,5,NA
fcp-trial,258,1277649,0.0-233.0-0.0,voc_e2,12276,"[{""event"":""fullscreenenter"",""trial"":1,""time"":3103}]",NA,NA,NA,NA,NA,4,#1CD855,#FA92F8,0,0,1,38,1,430.10000002384186,39,0,390.10000002384186,0,0,experiment,NA,NA,2,0.5,0.5,4,5,223,5,NA
fcp-trial,259,1280072,0.0-234.0-0.0,voc_e2,12276,"[{""event"":""fullscreenenter"",""trial"":1,""time"":3103}]",NA,NA,NA,NA,NA,4,#3386FF,#D89F1C,10,0,1,38,1,498.60000002384186,37,1,419.39999997615814,10,1,experiment,NA,NA,1,0.7,0.3,2,3,224,5,NA
fcp-trial,260,1282377,0.0-235.0-0.0,voc_e2,12276,"[{""event"":""fullscreenenter"",""trial"":1,""time"":3103}]",NA,NA,NA,NA,NA,5,#D8271C,#741CD8,0,0,1,38,1,406.2999999523163,39,0,393.2999999523163,0,0,experiment,NA,NA,0,0.9,0.1,0,1,225,5,NA
fcp-trial,261,1284518,0.0-236.0-0.0,voc_e2,12276,"[{""event"":""fullscreenenter"",""trial"":1,""time"":3103}]",NA,NA,NA,NA,NA,3,#3386FF,#D89F1C,0,0,1,38,1,295.1999999284744,39,0,338.2000000476837,0,0,experiment,NA,NA,1,0.7,0.3,2,3,226,6,NA
fcp-trial,262,1287179,0.0-237.0-0.0,voc_e2,12276,"[{""event"":""fullscreenenter"",""trial"":1,""time"":3103}]",NA,NA,NA,NA,NA,2,#1CD855,#FA92F8,0,10,1,38,1,366.89999997615814,39,0,787.2999999523163,10,0,experiment,NA,NA,2,0.5,0.5,4,5,227,6,NA
fcp-trial,263,1289163,0.0-238.0-0.0,voc_e2,12276,"[{""event"":""fullscreenenter"",""trial"":1,""time"":3103}]",NA,NA,NA,NA,NA,5,#1CD855,#FA92F8,0,10,1,38,1,168.39999997615814,39,0,310.5,10,0,experiment,NA,NA,2,0.5,0.5,4,5,228,6,NA
fcp-trial,264,1291344,0.0-239.0-0.0,voc_e2,12276,"[{""event"":""fullscreenenter"",""trial"":1,""time"":3103}]",NA,NA,NA,NA,NA,6,#FA92F8,#1CD855,0,0,0,38,1,397.10000002384186,37,1,276.8000000715256,0,0,experiment,NA,NA,2,0.5,0.5,5,4,229,6,NA
fcp-trial,265,1293492,0.0-240.0-0.0,voc_e2,12276,"[{""event"":""fullscreenenter"",""trial"":1,""time"":3103}]",NA,NA,NA,NA,NA,0,#741CD8,#D8271C,0,0,0,38,1,374.3000000715256,39,0,270.2999999523163,0,1,experiment,NA,NA,0,0.1,0.9,1,0,230,6,NA
fcp-trial,266,1295744,0.0-241.0-0.0,voc_e2,12276,"[{""event"":""fullscreenenter"",""trial"":1,""time"":3103}]",NA,NA,NA,NA,NA,1,#3386FF,#D89F1C,10,10,1,38,1,422.90000009536743,39,0,322.39999997615814,10,0,experiment,NA,NA,1,0.7,0.3,2,3,231,6,NA
fcp-trial,267,1298472,0.0-242.0-0.0,voc_e2,12276,"[{""event"":""fullscreenenter"",""trial"":1,""time"":3103}]",NA,NA,NA,NA,NA,3,#1CD855,#FA92F8,10,0,1,38,1,686.5,39,0,533.5,0,0,experiment,NA,NA,2,0.5,0.5,4,5,232,6,NA
fcp-trial,268,1300765,0.0-243.0-0.0,voc_e2,12276,"[{""event"":""fullscreenenter"",""trial"":1,""time"":3103}]",NA,NA,NA,NA,NA,2,#1CD855,#FA92F8,10,10,1,38,1,486.10000002384186,39,0,301.2000000476837,10,0,experiment,NA,NA,2,0.5,0.5,4,5,233,6,NA
fcp-trial,269,1303016,0.0-244.0-0.0,voc_e2,12276,"[{""event"":""fullscreenenter"",""trial"":1,""time"":3103}]",NA,NA,NA,NA,NA,5,#FA92F8,#1CD855,10,10,0,38,1,452.90000009536743,37,1,291.7000000476837,10,0,experiment,NA,NA,2,0.5,0.5,5,4,234,6,NA
fcp-trial,270,1305644,0.0-245.0-0.0,voc_e2,12276,"[{""event"":""fullscreenenter"",""trial"":1,""time"":3103}]",NA,NA,NA,NA,NA,3,#741CD8,#D8271C,0,10,0,38,1,850.7000000476837,39,0,270.2999999523163,10,1,experiment,NA,NA,0,0.1,0.9,1,0,235,6,NA
fcp-trial,271,1308365,0.0-246.0-0.0,voc_e2,12276,"[{""event"":""fullscreenenter"",""trial"":1,""time"":3103}]",NA,NA,NA,NA,NA,4,#D89F1C,#3386FF,0,10,0,38,1,675,37,1,540,0,0,experiment,NA,NA,1,0.3,0.7,3,2,236,6,NA
fcp-trial,272,1310535,0.0-247.0-0.0,voc_e2,12276,"[{""event"":""fullscreenenter"",""trial"":1,""time"":3103}]",NA,NA,NA,NA,NA,4,#D8271C,#741CD8,10,0,1,38,1,379.40000009536743,37,1,283.2999999523163,10,1,experiment,NA,NA,0,0.9,0.1,0,1,237,6,NA
fcp-trial,273,1313051,0.0-248.0-0.0,voc_e2,12276,"[{""event"":""fullscreenenter"",""trial"":1,""time"":3103}]",NA,NA,NA,NA,NA,6,#D8271C,#741CD8,10,0,1,38,1,443.90000009536743,37,1,565.6999999284744,10,1,experiment,NA,NA,0,0.9,0.1,0,1,238,6,NA
fcp-trial,274,1315420,0.0-249.0-0.0,voc_e2,12276,"[{""event"":""fullscreenenter"",""trial"":1,""time"":3103}]",NA,NA,NA,NA,NA,6,#FA92F8,#1CD855,0,0,0,38,1,560.2999999523163,37,1,302,0,0,experiment,NA,NA,2,0.5,0.5,5,4,239,6,NA
fcp-trial,275,1318184,0.0-250.0-0.0,voc_e2,12276,"[{""event"":""fullscreenenter"",""trial"":1,""time"":3103}]",NA,NA,NA,NA,NA,1,#3386FF,#D89F1C,0,10,1,38,1,764.5,39,0,493.09999990463257,10,0,experiment,NA,NA,1,0.7,0.3,2,3,240,6,NA
fcp-trial,276,1321739,0.0-251.0-0.0,voc_e2,12276,"[{""event"":""fullscreenenter"",""trial"":1,""time"":3103}]",NA,NA,NA,NA,NA,5,#3386FF,#D89F1C,10,0,1,38,1,1523,39,0,526,0,0,experiment,NA,NA,1,0.7,0.3,2,3,241,6,NA
fcp-trial,277,1324488,0.0-252.0-0.0,voc_e2,12276,"[{""event"":""fullscreenenter"",""trial"":1,""time"":3103}]",NA,NA,NA,NA,NA,5,#741CD8,#D8271C,0,10,0,38,1,870.2999999523163,39,0,372.7000000476837,10,1,experiment,NA,NA,0,0.1,0.9,1,0,242,6,NA
fcp-trial,278,1327516,0.0-253.0-0.0,voc_e2,12276,"[{""event"":""fullscreenenter"",""trial"":1,""time"":3103}]",NA,NA,NA,NA,NA,1,#1CD855,#FA92F8,0,0,1,40,0,823.6000000238419,39,0,698.1000000238419,0,0,experiment,NA,NA,2,0.5,0.5,4,5,243,6,NA
fcp-trial,279,1330250,0.0-254.0-0.0,voc_e2,12276,"[{""event"":""fullscreenenter"",""trial"":1,""time"":3103}]",NA,NA,NA,NA,NA,4,#1CD855,#FA92F8,0,0,1,40,0,590.7999999523163,39,0,637.2999999523163,0,0,experiment,NA,NA,2,0.5,0.5,4,5,244,6,NA
fcp-trial,280,1332841,0.0-255.0-0.0,voc_e2,12276,"[{""event"":""fullscreenenter"",""trial"":1,""time"":3103}]",NA,NA,NA,NA,NA,2,#3386FF,#D89F1C,10,10,1,40,0,565.2000000476837,37,1,516.1999999284744,10,1,experiment,NA,NA,1,0.7,0.3,2,3,245,6,NA
fcp-trial,281,1335171,0.0-256.0-0.0,voc_e2,12276,"[{""event"":""fullscreenenter"",""trial"":1,""time"":3103}]",NA,NA,NA,NA,NA,2,#741CD8,#D8271C,0,10,0,38,1,475.2999999523163,39,0,351.60000002384186,10,1,experiment,NA,NA,0,0.1,0.9,1,0,246,6,NA
fcp-trial,282,1338224,0.0-257.0-0.0,voc_e2,12276,"[{""event"":""fullscreenenter"",""trial"":1,""time"":3103}]",NA,NA,NA,NA,NA,6,#3386FF,#D89F1C,10,10,1,38,1,1218.7000000476837,39,0,327,10,0,experiment,NA,NA,1,0.7,0.3,2,3,247,6,NA
fcp-trial,283,1340307,0.0-258.0-0.0,voc_e2,12276,"[{""event"":""fullscreenenter"",""trial"":1,""time"":3103}]",NA,NA,NA,NA,NA,1,#741CD8,#D8271C,10,10,0,38,1,286.2000000476837,39,0,289.59999990463257,10,1,experiment,NA,NA,0,0.1,0.9,1,0,248,6,NA
fcp-trial,284,1342470,0.0-259.0-0.0,voc_e2,12276,"[{""event"":""fullscreenenter"",""trial"":1,""time"":3103}]",NA,NA,NA,NA,NA,0,#FA92F8,#1CD855,10,0,0,38,1,404.5,37,1,252.5,10,0,experiment,NA,NA,2,0.5,0.5,5,4,249,6,NA
fcp-trial,285,1345109,0.0-260.0-0.0,voc_e2,12276,"[{""event"":""fullscreenenter"",""trial"":1,""time"":3103}]",NA,NA,NA,NA,NA,3,#D89F1C,#3386FF,0,10,0,38,1,477.6999999284744,37,1,654.4000000953674,0,0,experiment,NA,NA,1,0.3,0.7,3,2,250,6,NA
fcp-trial,286,1347362,0.0-261.0-0.0,voc_e2,12276,"[{""event"":""fullscreenenter"",""trial"":1,""time"":3103}]",NA,NA,NA,NA,NA,0,#D89F1C,#3386FF,0,10,0,38,1,413.2999999523163,37,1,332.7999999523163,0,0,experiment,NA,NA,1,0.3,0.7,3,2,251,6,NA
fcp-trial,287,1349240,0.0-262.0-0.0,voc_e2,12276,"[{""event"":""fullscreenenter"",""trial"":1,""time"":3103}]",NA,NA,NA,NA,NA,0,#D8271C,#741CD8,10,0,1,38,1,88.29999995231628,39,0,284.7000000476837,0,0,experiment,NA,NA,0,0.9,0.1,0,1,252,6,NA
fcp-trial,288,1351218,0.0-263.0-0.0,voc_e2,12276,"[{""event"":""fullscreenenter"",""trial"":1,""time"":3103}]",NA,NA,NA,NA,NA,1,#FA92F8,#1CD855,0,10,0,38,1,112.20000004768372,39,0,360.2999999523163,10,1,experiment,NA,NA,2,0.5,0.5,5,4,253,6,NA
fcp-trial,289,1353617,0.0-264.0-0.0,voc_e2,12276,"[{""event"":""fullscreenenter"",""trial"":1,""time"":3103}]",NA,NA,NA,NA,NA,4,#FA92F8,#1CD855,10,10,0,38,1,509,37,1,383.6999999284744,10,0,experiment,NA,NA,2,0.5,0.5,5,4,254,6,NA
fcp-trial,290,1355937,0.0-265.0-0.0,voc_e2,12276,"[{""event"":""fullscreenenter"",""trial"":1,""time"":3103}]",NA,NA,NA,NA,NA,4,#3386FF,#D89F1C,10,0,1,38,1,461.60000002384186,39,0,349.2999999523163,0,0,experiment,NA,NA,1,0.7,0.3,2,3,255,6,NA
fcp-trial,291,1357932,0.0-266.0-0.0,voc_e2,12276,"[{""event"":""fullscreenenter"",""trial"":1,""time"":3103}]",NA,NA,NA,NA,NA,3,#741CD8,#D8271C,0,10,0,38,1,130.5,39,0,356.89999997615814,10,1,experiment,NA,NA,0,0.1,0.9,1,0,256,6,NA
fcp-trial,292,1360167,0.0-267.0-0.0,voc_e2,12276,"[{""event"":""fullscreenenter"",""trial"":1,""time"":3103}]",NA,NA,NA,NA,NA,6,#1CD855,#FA92F8,0,10,1,38,1,468.09999990463257,39,0,263.2000000476837,10,0,experiment,NA,NA,2,0.5,0.5,4,5,257,6,NA
fcp-trial,293,1362308,0.0-268.0-0.0,voc_e2,12276,"[{""event"":""fullscreenenter"",""trial"":1,""time"":3103}]",NA,NA,NA,NA,NA,3,#3386FF,#D89F1C,10,0,1,38,1,304.3000000715256,37,1,330.2999999523163,10,1,experiment,NA,NA,1,0.7,0.3,2,3,258,6,NA
fcp-trial,294,1364515,0.0-269.0-0.0,voc_e2,12276,"[{""event"":""fullscreenenter"",""trial"":1,""time"":3103}]",NA,NA,NA,NA,NA,6,#D8271C,#741CD8,10,0,1,38,1,394.7000000476837,37,1,305.39999997615814,10,1,experiment,NA,NA,0,0.9,0.1,0,1,259,6,NA
fcp-trial,295,1366476,0.0-270.0-0.0,voc_e2,12276,"[{""event"":""fullscreenenter"",""trial"":1,""time"":3103}]",NA,NA,NA,NA,NA,1,#D89F1C,#3386FF,0,10,0,38,1,150.60000002384186,39,0,303.5,10,1,experiment,NA,NA,1,0.3,0.7,3,2,260,6,NA
fcp-trial,296,1369216,0.0-271.0-0.0,voc_e2,12276,"[{""event"":""fullscreenenter"",""trial"":1,""time"":3103}]",NA,NA,NA,NA,NA,5,#3386FF,#D89F1C,10,0,1,38,1,663.1999999284744,37,1,571.7999999523163,10,1,experiment,NA,NA,1,0.7,0.3,2,3,261,6,NA
fcp-trial,297,1371341,0.0-272.0-0.0,voc_e2,12276,"[{""event"":""fullscreenenter"",""trial"":1,""time"":3103}]",NA,NA,NA,NA,NA,0,#FA92F8,#1CD855,10,10,0,38,1,339.39999997615814,39,0,280.39999997615814,10,1,experiment,NA,NA,2,0.5,0.5,5,4,262,6,NA
fcp-trial,298,1373769,0.0-273.0-0.0,voc_e2,12276,"[{""event"":""fullscreenenter"",""trial"":1,""time"":3103}]",NA,NA,NA,NA,NA,2,#D8271C,#741CD8,10,0,1,38,1,336.2999999523163,37,1,585.8000000715256,10,1,experiment,NA,NA,0,0.9,0.1,0,1,263,6,NA
fcp-trial,299,1376250,0.0-274.0-0.0,voc_e2,12276,"[{""event"":""fullscreenenter"",""trial"":1,""time"":3103}]",NA,NA,NA,NA,NA,1,#D8271C,#741CD8,10,0,1,38,1,362.5,37,1,612.9000000953674,10,1,experiment,NA,NA,0,0.9,0.1,0,1,264,6,NA
fcp-trial,300,1378311,0.0-275.0-0.0,voc_e2,12276,"[{""event"":""fullscreenenter"",""trial"":1,""time"":3103}]",NA,NA,NA,NA,NA,4,#741CD8,#D8271C,0,10,0,38,1,293.1999999284744,39,0,261.10000002384186,10,1,experiment,NA,NA,0,0.1,0.9,1,0,265,6,NA
fcp-trial,301,1380418,0.0-276.0-0.0,voc_e2,12276,"[{""event"":""fullscreenenter"",""trial"":1,""time"":3103}]",NA,NA,NA,NA,NA,6,#D89F1C,#3386FF,10,10,0,38,1,268.1999999284744,39,0,332.10000002384186,10,1,experiment,NA,NA,1,0.3,0.7,3,2,266,6,NA
fcp-trial,302,1382463,0.0-277.0-0.0,voc_e2,12276,"[{""event"":""fullscreenenter"",""trial"":1,""time"":3103}]",NA,NA,NA,NA,NA,3,#FA92F8,#1CD855,0,0,0,38,1,277.39999997615814,37,1,261.3000000715256,0,0,experiment,NA,NA,2,0.5,0.5,5,4,267,6,NA
fcp-trial,303,1384485,0.0-278.0-0.0,voc_e2,12276,"[{""event"":""fullscreenenter"",""trial"":1,""time"":3103}]",NA,NA,NA,NA,NA,2,#FA92F8,#1CD855,10,10,0,38,1,260.2999999523163,37,1,254.19999992847443,10,0,experiment,NA,NA,2,0.5,0.5,5,4,268,6,NA
fcp-trial,304,1386554,0.0-279.0-0.0,voc_e2,12276,"[{""event"":""fullscreenenter"",""trial"":1,""time"":3103}]",NA,NA,NA,NA,NA,5,#D8271C,#741CD8,10,0,1,38,1,300.60000002384186,37,1,260.1999999284744,10,1,experiment,NA,NA,0,0.9,0.1,0,1,269,6,NA
fcp-trial,305,1389182,0.0-280.0-0.0,voc_e2,12276,"[{""event"":""fullscreenenter"",""trial"":1,""time"":3103}]",NA,NA,NA,NA,NA,5,#1CD855,#FA92F8,0,0,1,38,1,352.39999997615814,39,0,768.5,0,0,experiment,NA,NA,2,0.5,0.5,4,5,270,6,NA
fcp-trial,306,1391282,0.0-281.0-0.0,voc_e2,12276,"[{""event"":""fullscreenenter"",""trial"":1,""time"":3103}]",NA,NA,NA,NA,NA,2,#3386FF,#D89F1C,10,10,1,38,1,91.90000009536743,37,1,502,10,1,experiment,NA,NA,1,0.7,0.3,2,3,271,7,NA
fcp-trial,307,1394106,0.0-282.0-0.0,voc_e2,12276,"[{""event"":""fullscreenenter"",""trial"":1,""time"":3103}]",NA,NA,NA,NA,NA,0,#D89F1C,#3386FF,10,10,0,38,1,812.7999999523163,39,0,504.60000002384186,10,1,experiment,NA,NA,1,0.3,0.7,3,2,272,7,NA
fcp-trial,308,1396497,0.0-283.0-0.0,voc_e2,12276,"[{""event"":""fullscreenenter"",""trial"":1,""time"":3103}]",NA,NA,NA,NA,NA,0,#D8271C,#741CD8,10,0,1,38,1,612,37,1,272.7999999523163,10,1,experiment,NA,NA,0,0.9,0.1,0,1,273,7,NA
fcp-trial,309,1398596,0.0-284.0-0.0,voc_e2,12276,"[{""event"":""fullscreenenter"",""trial"":1,""time"":3103}]",NA,NA,NA,NA,NA,6,#741CD8,#D8271C,0,10,0,38,1,342.39999997615814,39,0,250.70000004768372,10,1,experiment,NA,NA,0,0.1,0.9,1,0,274,7,NA
fcp-trial,310,1400880,0.0-285.0-0.0,voc_e2,12276,"[{""event"":""fullscreenenter"",""trial"":1,""time"":3103}]",NA,NA,NA,NA,NA,0,#D8271C,#741CD8,10,0,1,38,1,478.2999999523163,37,1,299.2999999523163,10,1,experiment,NA,NA,0,0.9,0.1,0,1,275,7,NA
fcp-trial,311,1403215,0.0-286.0-0.0,voc_e2,12276,"[{""event"":""fullscreenenter"",""trial"":1,""time"":3103}]",NA,NA,NA,NA,NA,1,#D8271C,#741CD8,0,0,1,38,1,567.3999999761581,37,1,259.7000000476837,0,1,experiment,NA,NA,0,0.9,0.1,0,1,276,7,NA
fcp-trial,312,1405616,0.0-287.0-0.0,voc_e2,12276,"[{""event"":""fullscreenenter"",""trial"":1,""time"":3103}]",NA,NA,NA,NA,NA,1,#3386FF,#D89F1C,10,0,1,38,1,340.60000002384186,39,0,553.3999999761581,0,0,experiment,NA,NA,1,0.7,0.3,2,3,277,7,NA
fcp-trial,313,1407665,0.0-288.0-0.0,voc_e2,12276,"[{""event"":""fullscreenenter"",""trial"":1,""time"":3103}]",NA,NA,NA,NA,NA,0,#3386FF,#D89F1C,10,0,1,38,1,218.79999995231628,37,1,321.39999997615814,10,1,experiment,NA,NA,1,0.7,0.3,2,3,278,7,NA
fcp-trial,314,1409813,0.0-289.0-0.0,voc_e2,12276,"[{""event"":""fullscreenenter"",""trial"":1,""time"":3103}]",NA,NA,NA,NA,NA,4,#3386FF,#D89F1C,0,0,1,38,1,345.89999997615814,39,0,297.6999999284744,0,0,experiment,NA,NA,1,0.7,0.3,2,3,279,7,NA
fcp-trial,315,1411926,0.0-290.0-0.0,voc_e2,12276,"[{""event"":""fullscreenenter"",""trial"":1,""time"":3103}]",NA,NA,NA,NA,NA,2,#FA92F8,#1CD855,10,10,0,38,1,232.5,37,1,373.6999999284744,10,0,experiment,NA,NA,2,0.5,0.5,5,4,280,7,NA
fcp-trial,316,1414248,0.0-291.0-0.0,voc_e2,12276,"[{""event"":""fullscreenenter"",""trial"":1,""time"":3103}]",NA,NA,NA,NA,NA,5,#D8271C,#741CD8,0,10,1,38,1,541.6000000238419,37,1,273.89999997615814,0,1,experiment,NA,NA,0,0.9,0.1,0,1,281,7,NA
fcp-trial,317,1416442,0.0-292.0-0.0,voc_e2,12276,"[{""event"":""fullscreenenter"",""trial"":1,""time"":3103}]",NA,NA,NA,NA,NA,1,#1CD855,#FA92F8,10,10,1,38,1,389.2999999523163,39,0,299.3000000715256,10,0,experiment,NA,NA,2,0.5,0.5,4,5,282,7,NA
fcp-trial,318,1418722,0.0-293.0-0.0,voc_e2,12276,"[{""event"":""fullscreenenter"",""trial"":1,""time"":3103}]",NA,NA,NA,NA,NA,2,#D89F1C,#3386FF,0,10,0,38,1,446.5,39,0,324.89999997615814,10,1,experiment,NA,NA,1,0.3,0.7,3,2,283,7,NA
fcp-trial,319,1421716,0.0-294.0-0.0,voc_e2,12276,"[{""event"":""fullscreenenter"",""trial"":1,""time"":3103}]",NA,NA,NA,NA,NA,2,#741CD8,#D8271C,0,10,0,38,1,883.3999999761581,39,0,602.6000000238419,10,1,experiment,NA,NA,0,0.1,0.9,1,0,284,7,NA
fcp-trial,320,1424957,0.0-295.0-0.0,voc_e2,12276,"[{""event"":""fullscreenenter"",""trial"":1,""time"":3103}]",NA,NA,NA,NA,NA,3,#D8271C,#741CD8,10,0,1,38,1,1137,37,1,597.6000000238419,10,1,experiment,NA,NA,0,0.9,0.1,0,1,285,7,NA
fcp-trial,321,1427782,0.0-296.0-0.0,voc_e2,12276,"[{""event"":""fullscreenenter"",""trial"":1,""time"":3103}]",NA,NA,NA,NA,NA,4,#1CD855,#FA92F8,0,0,1,38,1,1012.1999999284744,39,0,305,0,0,experiment,NA,NA,2,0.5,0.5,4,5,286,7,NA
fcp-trial,322,1430162,0.0-297.0-0.0,voc_e2,12276,"[{""event"":""fullscreenenter"",""trial"":1,""time"":3103}]",NA,NA,NA,NA,NA,3,#D89F1C,#3386FF,0,10,0,38,1,419.10000002384186,37,1,455.5,0,0,experiment,NA,NA,1,0.3,0.7,3,2,287,7,NA
fcp-trial,323,1432752,0.0-298.0-0.0,voc_e2,12276,"[{""event"":""fullscreenenter"",""trial"":1,""time"":3103}]",NA,NA,NA,NA,NA,6,#3386FF,#D89F1C,10,0,1,38,1,804.6000000238419,39,0,278.8000000715256,0,0,experiment,NA,NA,1,0.7,0.3,2,3,288,7,NA
fcp-trial,324,1435315,0.0-299.0-0.0,voc_e2,12276,"[{""event"":""fullscreenenter"",""trial"":1,""time"":3103}]",NA,NA,NA,NA,NA,0,#FA92F8,#1CD855,10,10,0,38,1,753.5,37,1,302.2000000476837,10,0,experiment,NA,NA,2,0.5,0.5,5,4,289,7,NA
fcp-trial,325,1438205,0.0-300.0-0.0,voc_e2,12276,"[{""event"":""fullscreenenter"",""trial"":1,""time"":3103}]",NA,NA,NA,NA,NA,4,#741CD8,#D8271C,0,10,0,38,1,1066.5,39,0,317.39999997615814,10,1,experiment,NA,NA,0,0.1,0.9,1,0,290,7,NA
fcp-trial,326,1441046,0.0-301.0-0.0,voc_e2,12276,"[{""event"":""fullscreenenter"",""trial"":1,""time"":3103}]",NA,NA,NA,NA,NA,5,#1CD855,#FA92F8,0,10,1,38,1,1012.7000000476837,37,1,319.89999997615814,0,1,experiment,NA,NA,2,0.5,0.5,4,5,291,7,NA
fcp-trial,327,1444161,0.0-302.0-0.0,voc_e2,12276,"[{""event"":""fullscreenenter"",""trial"":1,""time"":3103}]",NA,NA,NA,NA,NA,3,#FA92F8,#1CD855,10,0,0,38,1,1298.7000000476837,37,1,307.90000009536743,10,0,experiment,NA,NA,2,0.5,0.5,5,4,292,7,NA
fcp-trial,328,1446763,0.0-303.0-0.0,voc_e2,12276,"[{""event"":""fullscreenenter"",""trial"":1,""time"":3103}]",NA,NA,NA,NA,NA,5,#3386FF,#D89F1C,10,0,1,38,1,362.7000000476837,39,0,733.8999999761581,0,0,experiment,NA,NA,1,0.7,0.3,2,3,293,7,NA
fcp-trial,329,1449010,0.0-304.0-0.0,voc_e2,12276,"[{""event"":""fullscreenenter"",""trial"":1,""time"":3103}]",NA,NA,NA,NA,NA,6,#FA92F8,#1CD855,0,10,0,38,1,383.59999990463257,37,1,359.60000002384186,0,0,experiment,NA,NA,2,0.5,0.5,5,4,294,7,NA
fcp-trial,330,1451400,0.0-305.0-0.0,voc_e2,12276,"[{""event"":""fullscreenenter"",""trial"":1,""time"":3103}]",NA,NA,NA,NA,NA,1,#D89F1C,#3386FF,0,10,0,38,1,610.2000000476837,37,1,273,0,0,experiment,NA,NA,1,0.3,0.7,3,2,295,7,NA
fcp-trial,331,1453507,0.0-306.0-0.0,voc_e2,12276,"[{""event"":""fullscreenenter"",""trial"":1,""time"":3103}]",NA,NA,NA,NA,NA,4,#FA92F8,#1CD855,0,10,0,38,1,207.20000004768372,39,0,392.90000009536743,10,1,experiment,NA,NA,2,0.5,0.5,5,4,296,7,NA
fcp-trial,332,1455612,0.0-307.0-0.0,voc_e2,12276,"[{""event"":""fullscreenenter"",""trial"":1,""time"":3103}]",NA,NA,NA,NA,NA,5,#D8271C,#741CD8,10,0,1,38,1,292.2000000476837,37,1,307,10,1,experiment,NA,NA,0,0.9,0.1,0,1,297,7,NA
fcp-trial,333,1457787,0.0-308.0-0.0,voc_e2,12276,"[{""event"":""fullscreenenter"",""trial"":1,""time"":3103}]",NA,NA,NA,NA,NA,0,#FA92F8,#1CD855,0,0,0,38,1,361.10000002384186,37,1,307.39999997615814,0,0,experiment,NA,NA,2,0.5,0.5,5,4,298,7,NA
fcp-trial,334,1460298,0.0-309.0-0.0,voc_e2,12276,"[{""event"":""fullscreenenter"",""trial"":1,""time"":3103}]",NA,NA,NA,NA,NA,3,#D89F1C,#3386FF,0,10,0,38,1,311.8000000715256,39,0,693,10,1,experiment,NA,NA,1,0.3,0.7,3,2,299,7,NA
fcp-trial,335,1463132,0.0-310.0-0.0,voc_e2,12276,"[{""event"":""fullscreenenter"",""trial"":1,""time"":3103}]",NA,NA,NA,NA,NA,6,#1CD855,#FA92F8,0,0,1,38,1,449.89999997615814,39,0,875.6000000238419,0,0,experiment,NA,NA,2,0.5,0.5,4,5,300,7,NA
fcp-trial,336,1465277,0.0-311.0-0.0,voc_e2,12276,"[{""event"":""fullscreenenter"",""trial"":1,""time"":3103}]",NA,NA,NA,NA,NA,3,#D8271C,#741CD8,10,0,1,38,1,344,37,1,293.5,10,1,experiment,NA,NA,0,0.9,0.1,0,1,301,7,NA
fcp-trial,337,1468705,0.0-312.0-0.0,voc_e2,12276,"[{""event"":""fullscreenenter"",""trial"":1,""time"":3103}]",NA,NA,NA,NA,NA,0,#D89F1C,#3386FF,0,10,0,40,0,1316.1000000238419,39,0,606.5,10,1,experiment,NA,NA,1,0.3,0.7,3,2,302,7,NA
fcp-trial,338,1471097,0.0-313.0-0.0,voc_e2,12276,"[{""event"":""fullscreenenter"",""trial"":1,""time"":3103}]",NA,NA,NA,NA,NA,5,#1CD855,#FA92F8,10,0,1,38,1,502.09999990463257,37,1,382.10000002384186,10,1,experiment,NA,NA,2,0.5,0.5,4,5,303,7,NA
fcp-trial,339,1473330,0.0-314.0-0.0,voc_e2,12276,"[{""event"":""fullscreenenter"",""trial"":1,""time"":3103}]",NA,NA,NA,NA,NA,1,#741CD8,#D8271C,0,10,0,38,1,288.6999999284744,39,0,438.1999999284744,10,1,experiment,NA,NA,0,0.1,0.9,1,0,304,7,NA
fcp-trial,340,1476534,0.0-315.0-0.0,voc_e2,12276,"[{""event"":""fullscreenenter"",""trial"":1,""time"":3103}]",NA,NA,NA,NA,NA,4,#D89F1C,#3386FF,0,10,0,40,0,1367.1999999284744,39,0,329.89999997615814,10,1,experiment,NA,NA,1,0.3,0.7,3,2,305,7,NA
fcp-trial,341,1479257,0.0-316.0-0.0,voc_e2,12276,"[{""event"":""fullscreenenter"",""trial"":1,""time"":3103}]",NA,NA,NA,NA,NA,0,#D8271C,#741CD8,10,0,1,38,1,860,37,1,357.5,10,1,experiment,NA,NA,0,0.9,0.1,0,1,306,7,NA
fcp-trial,342,1481952,0.0-317.0-0.0,voc_e2,12276,"[{""event"":""fullscreenenter"",""trial"":1,""time"":3103}]",NA,NA,NA,NA,NA,3,#1CD855,#FA92F8,0,0,1,38,1,847.1000000238419,39,0,341.89999997615814,0,0,experiment,NA,NA,2,0.5,0.5,4,5,307,7,NA
fcp-trial,343,1484239,0.0-318.0-0.0,voc_e2,12276,"[{""event"":""fullscreenenter"",""trial"":1,""time"":3103}]",NA,NA,NA,NA,NA,2,#741CD8,#D8271C,0,10,0,38,1,506.8000000715256,39,0,274.60000002384186,10,1,experiment,NA,NA,0,0.1,0.9,1,0,308,7,NA
fcp-trial,344,1486477,0.0-319.0-0.0,voc_e2,12276,"[{""event"":""fullscreenenter"",""trial"":1,""time"":3103}]",NA,NA,NA,NA,NA,2,#FA92F8,#1CD855,10,10,0,38,1,446.3000000715256,37,1,277.89999997615814,10,0,experiment,NA,NA,2,0.5,0.5,5,4,309,7,NA
fcp-trial,345,1488493,0.0-320.0-0.0,voc_e2,12276,"[{""event"":""fullscreenenter"",""trial"":1,""time"":3103}]",NA,NA,NA,NA,NA,2,#D89F1C,#3386FF,10,0,0,38,1,243.20000004768372,39,0,265.89999997615814,0,1,experiment,NA,NA,1,0.3,0.7,3,2,310,7,NA
fcp-trial,346,1490537,0.0-321.0-0.0,voc_e2,12276,"[{""event"":""fullscreenenter"",""trial"":1,""time"":3103}]",NA,NA,NA,NA,NA,4,#741CD8,#D8271C,0,10,0,38,1,172.19999992847443,37,1,366.60000002384186,0,0,experiment,NA,NA,0,0.1,0.9,1,0,311,7,NA
fcp-trial,347,1492799,0.0-322.0-0.0,voc_e2,12276,"[{""event"":""fullscreenenter"",""trial"":1,""time"":3103}]",NA,NA,NA,NA,NA,6,#3386FF,#D89F1C,0,10,1,38,1,413.8000000715256,39,0,341.2999999523163,10,0,experiment,NA,NA,1,0.7,0.3,2,3,312,7,NA
fcp-trial,348,1496106,0.0-323.0-0.0,voc_e2,12276,"[{""event"":""fullscreenenter"",""trial"":1,""time"":3103}]",NA,NA,NA,NA,NA,5,#D89F1C,#3386FF,0,10,0,40,0,932.5999999046326,37,1,866.5,0,0,experiment,NA,NA,1,0.3,0.7,3,2,313,7,NA
fcp-trial,349,1498721,0.0-324.0-0.0,voc_e2,12276,"[{""event"":""fullscreenenter"",""trial"":1,""time"":3103}]",NA,NA,NA,NA,NA,1,#1CD855,#FA92F8,10,0,1,38,1,834.5,39,0,274.89999997615814,0,0,experiment,NA,NA,2,0.5,0.5,4,5,314,7,NA
fcp-trial,350,1501147,0.0-325.0-0.0,voc_e2,12276,"[{""event"":""fullscreenenter"",""trial"":1,""time"":3103}]",NA,NA,NA,NA,NA,6,#D8271C,#741CD8,10,0,1,38,1,271.90000009536743,37,1,647.8999999761581,10,1,experiment,NA,NA,0,0.9,0.1,0,1,315,7,NA
audio-instructions,351,1508988,0.0-326.0,voc_e2,12276,"[{""event"":""fullscreenenter"",""trial"":1,""time"":3103}]",NA,1596.100000023842,static/audio/finished.wav,NA,0,NA,NA,NA,NA,NA,NA,NA,NA,NA,NA,NA,NA,NA,NA,NA,NA,NA,NA,NA,NA,NA,NA,NA,NA,NA
audio-instructions,352,1521066,0.0-327.0-0.0,voc_e2,12276,"[{""event"":""fullscreenenter"",""trial"":1,""time"":3103}]",NA,1245.100000023842,static/audio/explicit1.wav,NA,0,NA,NA,NA,NA,NA,NA,NA,NA,NA,NA,NA,NA,NA,NA,NA,NA,NA,NA,NA,NA,NA,NA,NA,NA,NA
audio-instructions,353,1530678,0.0-327.0-1.0,voc_e2,12276,"[{""event"":""fullscreenenter"",""trial"":1,""time"":3103}]",NA,2017,static/audio/explicit2.wav,NA,0,NA,NA,NA,NA,NA,NA,NA,NA,NA,NA,NA,NA,NA,NA,NA,NA,NA,NA,NA,NA,NA,NA,NA,NA,NA
image-slider-response,354,1543278,0.0-328.0,voc_e2,12276,"[{""event"":""fullscreenenter"",""trial"":1,""time"":3103}]",NA,12598.100000023842,static/img/machines/machine6.png,NA,NA,NA,NA,NA,NA,NA,NA,NA,NA,NA,NA,NA,NA,NA,NA,explicit,NA,NA,NA,NA,NA,NA,NA,NA,NA,4
image-slider-response,355,1550882,0.0-329.0,voc_e2,12276,"[{""event"":""fullscreenenter"",""trial"":1,""time"":3103}]",NA,7601.699999928474,static/img/machines/machine1.png,NA,NA,NA,NA,NA,NA,NA,NA,NA,NA,NA,NA,NA,NA,NA,NA,explicit,NA,NA,NA,NA,NA,NA,NA,NA,NA,9
image-slider-response,356,1554414,0.0-330.0,voc_e2,12276,"[{""event"":""fullscreenenter"",""trial"":1,""time"":3103}]",NA,3530.399999976158,static/img/machines/machine4.png,NA,NA,NA,NA,NA,NA,NA,NA,NA,NA,NA,NA,NA,NA,NA,NA,explicit,NA,NA,NA,NA,NA,NA,NA,NA,NA,3
image-slider-response,357,1557431,0.0-331.0,voc_e2,12276,"[{""event"":""fullscreenenter"",""trial"":1,""time"":3103}]",NA,3015.7999999523163,static/img/machines/machine5.png,NA,NA,NA,NA,NA,NA,NA,NA,NA,NA,NA,NA,NA,NA,NA,NA,explicit,NA,NA,NA,NA,NA,NA,NA,NA,NA,7
image-slider-response,358,1561004,0.0-332.0,voc_e2,12276,"[{""event"":""fullscreenenter"",""trial"":1,""time"":3103}]",NA,3570.600000023842,static/img/machines/machine3.png,NA,NA,NA,NA,NA,NA,NA,NA,NA,NA,NA,NA,NA,NA,NA,NA,explicit,NA,NA,NA,NA,NA,NA,NA,NA,NA,6
image-slider-response,359,1569539,0.0-333.0,voc_e2,12276,"[{""event"":""fullscreenenter"",""trial"":1,""time"":3103}]",NA,8534,static/img/machines/machine2.png,NA,NA,NA,NA,NA,NA,NA,NA,NA,NA,NA,NA,NA,NA,NA,NA,explicit,NA,NA,NA,NA,NA,NA,NA,NA,NA,1
