trial_type,trial_index,time_elapsed,internal_node_id,task_version,subject_id,interactions,success,rt,stimulus,key_press,button_pressed,offer,arcade_color_L,arcade_color_R,arcade_outcome_L,arcade_outcome_R,correct,stage_1_key,stage_1_choice,stage_1_rt,stage_2_key,stage_2_choice,stage_2_rt,stage_3_outcome,accuracy,phase,responses,num_errors,context,reward_prob_L,reward_prob_R,arcade_id_L,arcade_id_R,trial,block,response
pavlovia,0,8,0.0-0.0,voc_e2,12192,[],NA,NA,NA,NA,NA,NA,NA,NA,NA,NA,NA,NA,NA,NA,NA,NA,NA,NA,NA,NA,NA,NA,NA,NA,NA,NA,NA,NA,NA,NA
fullscreen,1,5706,0.0-1.0,voc_e2,12192,"[{""event"":""fullscreenenter"",""trial"":1,""time"":4796}]",TRUE,NA,NA,NA,NA,NA,NA,NA,NA,NA,NA,NA,NA,NA,NA,NA,NA,NA,NA,NA,NA,NA,NA,NA,NA,NA,NA,NA,NA,NA
audio-keyboard-response,2,12547,0.0-2.0,voc_e2,12192,"[{""event"":""fullscreenenter"",""trial"":1,""time"":4796}]",NA,6181,static/audio/beep_loop.wav,32,NA,NA,NA,NA,NA,NA,NA,NA,NA,NA,NA,NA,NA,NA,NA,NA,NA,NA,NA,NA,NA,NA,NA,NA,NA,NA
audio-test,3,16323,0.0-3.0,voc_e2,12192,"[{""event"":""fullscreenenter"",""trial"":1,""time"":4796}]",NA,NA,static/audio/turtle.wav,NA,3,NA,NA,NA,NA,NA,NA,NA,NA,NA,NA,NA,NA,NA,NA,NA,NA,NA,NA,NA,NA,NA,NA,NA,NA,NA
audio-test,4,18898,0.0-4.0,voc_e2,12192,"[{""event"":""fullscreenenter"",""trial"":1,""time"":4796}]",NA,NA,static/audio/shark.wav,NA,2,NA,NA,NA,NA,NA,NA,NA,NA,NA,NA,NA,NA,NA,NA,NA,NA,NA,NA,NA,NA,NA,NA,NA,NA,NA
audio-instructions,5,26512,0.0-5.0-0.0,voc_e2,12192,"[{""event"":""fullscreenenter"",""trial"":1,""time"":4796}]",NA,1838.4000000953672,static/audio/instructions1.wav,NA,0,NA,NA,NA,NA,NA,NA,NA,NA,NA,NA,NA,NA,NA,NA,NA,NA,NA,NA,NA,NA,NA,NA,NA,NA,NA
audio-instructions,6,35457,0.0-5.0-1.0,voc_e2,12192,"[{""event"":""fullscreenenter"",""trial"":1,""time"":4796}]",NA,2202.600000023842,static/audio/instructions2.wav,NA,0,NA,NA,NA,NA,NA,NA,NA,NA,NA,NA,NA,NA,NA,NA,NA,NA,NA,NA,NA,NA,NA,NA,NA,NA,NA
audio-instructions,7,45390,0.0-5.0-2.0,voc_e2,12192,"[{""event"":""fullscreenenter"",""trial"":1,""time"":4796}]",NA,4125.799999952316,static/audio/instructions3.wav,NA,0,NA,NA,NA,NA,NA,NA,NA,NA,NA,NA,NA,NA,NA,NA,NA,NA,NA,NA,NA,NA,NA,NA,NA,NA,NA
audio-instructions,8,65619,0.0-5.0-3.0,voc_e2,12192,"[{""event"":""fullscreenenter"",""trial"":1,""time"":4796}]",NA,6994.799999952316,static/audio/instructions4.wav,NA,0,NA,NA,NA,NA,NA,NA,NA,NA,NA,NA,NA,NA,NA,NA,NA,NA,NA,NA,NA,NA,NA,NA,NA,NA,NA
audio-instructions,9,76252,0.0-5.0-4.0,voc_e2,12192,"[{""event"":""fullscreenenter"",""trial"":1,""time"":4796}]",NA,1237.8000000715256,static/audio/instructions5.wav,NA,0,NA,NA,NA,NA,NA,NA,NA,NA,NA,NA,NA,NA,NA,NA,NA,NA,NA,NA,NA,NA,NA,NA,NA,NA,NA
fcp-practice,10,78911,0.0-5.0-5.0-0.0,voc_e2,12192,"[{""event"":""fullscreenenter"",""trial"":1,""time"":4796}]",NA,NA,NA,NA,NA,NA,#EDC948,#46d3c8,10,0,1,null,null,null,37,1,1138.9000000953674,10,1,practice,NA,NA,NA,NA,NA,NA,NA,NA,NA,NA
fcp-practice,11,80676,0.0-5.0-5.0-1.0,voc_e2,12192,"[{""event"":""fullscreenenter"",""trial"":1,""time"":4796}]",NA,NA,NA,NA,NA,NA,#EDC948,#46d3c8,10,0,1,null,null,null,37,1,244,10,1,practice,NA,NA,NA,NA,NA,NA,NA,NA,NA,NA
fcp-practice,12,82426,0.0-5.0-5.0-2.0,voc_e2,12192,"[{""event"":""fullscreenenter"",""trial"":1,""time"":4796}]",NA,NA,NA,NA,NA,NA,#EDC948,#46d3c8,0,10,1,null,null,null,37,1,233.80000007152557,0,1,practice,NA,NA,NA,NA,NA,NA,NA,NA,NA,NA
fcp-practice,13,84309,0.0-5.0-5.0-3.0,voc_e2,12192,"[{""event"":""fullscreenenter"",""trial"":1,""time"":4796}]",NA,NA,NA,NA,NA,NA,#EDC948,#46d3c8,10,0,1,null,null,null,37,1,363.5,10,1,practice,NA,NA,NA,NA,NA,NA,NA,NA,NA,NA
fcp-practice,14,86141,0.0-5.0-5.0-4.0,voc_e2,12192,"[{""event"":""fullscreenenter"",""trial"":1,""time"":4796}]",NA,NA,NA,NA,NA,NA,#EDC948,#46d3c8,10,0,1,null,null,null,37,1,312.2000000476837,10,1,practice,NA,NA,NA,NA,NA,NA,NA,NA,NA,NA
audio-instructions,15,105356,0.0-5.0-6.0,voc_e2,12192,"[{""event"":""fullscreenenter"",""trial"":1,""time"":4796}]",NA,1201.8000000715256,static/audio/instructions6.wav,NA,0,NA,NA,NA,NA,NA,NA,NA,NA,NA,NA,NA,NA,NA,NA,NA,NA,NA,NA,NA,NA,NA,NA,NA,NA,NA
audio-instructions,16,126186,0.0-5.0-7.0,voc_e2,12192,"[{""event"":""fullscreenenter"",""trial"":1,""time"":4796}]",NA,1631.600000023842,static/audio/instructions7.wav,NA,0,NA,NA,NA,NA,NA,NA,NA,NA,NA,NA,NA,NA,NA,NA,NA,NA,NA,NA,NA,NA,NA,NA,NA,NA,NA
audio-instructions,17,137349,0.0-5.0-8.0,voc_e2,12192,"[{""event"":""fullscreenenter"",""trial"":1,""time"":4796}]",NA,1685.100000023842,static/audio/instructions8.wav,NA,0,NA,NA,NA,NA,NA,NA,NA,NA,NA,NA,NA,NA,NA,NA,NA,NA,NA,NA,NA,NA,NA,NA,NA,NA,NA
fcp-comprehension,18,169963,0.0-5.0-9.0,voc_e2,12192,"[{""event"":""fullscreenenter"",""trial"":1,""time"":4796}]",NA,32610,NA,NA,NA,NA,NA,NA,NA,NA,NA,NA,NA,NA,NA,NA,NA,NA,NA,NA,"true,true",0,NA,NA,NA,NA,NA,NA,NA,NA
audio-instructions,19,179528,0.0-6.0-0.0,voc_e2,12192,"[{""event"":""fullscreenenter"",""trial"":1,""time"":4796}]",NA,3986.600000023842,static/audio/instructions9.wav,NA,0,NA,NA,NA,NA,NA,NA,NA,NA,NA,NA,NA,NA,NA,NA,NA,NA,NA,NA,NA,NA,NA,NA,NA,NA,NA
audio-instructions,20,194373,0.0-6.0-1.0,voc_e2,12192,"[{""event"":""fullscreenenter"",""trial"":1,""time"":4796}]",NA,2722.599999904633,static/audio/instructions10.wav,NA,0,NA,NA,NA,NA,NA,NA,NA,NA,NA,NA,NA,NA,NA,NA,NA,NA,NA,NA,NA,NA,NA,NA,NA,NA,NA
fcp-trial,21,200268,0.0-6.0-2.0,voc_e2,12192,"[{""event"":""fullscreenenter"",""trial"":1,""time"":4796}]",NA,NA,NA,NA,NA,0,#EDC948,#46d3c8,10,10,1,38,1,3213.100000023842,37,1,1147.399999976158,10,1,practice,NA,NA,NA,NA,NA,NA,NA,NA,NA,NA
audio-instructions,22,215213,0.0-6.0-3.0,voc_e2,12192,"[{""event"":""fullscreenenter"",""trial"":1,""time"":4796}]",NA,3932.5,static/audio/instructions11.wav,NA,0,NA,NA,NA,NA,NA,NA,NA,NA,NA,NA,NA,NA,NA,NA,NA,NA,NA,NA,NA,NA,NA,NA,NA,NA,NA
fcp-trial,23,220092,0.0-6.0-4.0,voc_e2,12192,"[{""event"":""fullscreenenter"",""trial"":1,""time"":4796}]",NA,NA,NA,NA,NA,6,#EDC948,#46d3c8,10,10,1,40,0,2065.7999999523163,39,0,1292.5,10,0,practice,NA,NA,NA,NA,NA,NA,NA,NA,NA,NA
audio-instructions,24,249769,0.0-6.0-5.0,voc_e2,12192,"[{""event"":""fullscreenenter"",""trial"":1,""time"":4796}]",NA,10988.600000023842,static/audio/instructions12.wav,NA,0,NA,NA,NA,NA,NA,NA,NA,NA,NA,NA,NA,NA,NA,NA,NA,NA,NA,NA,NA,NA,NA,NA,NA,NA,NA
audio-instructions,25,258621,0.0-6.0-6.0,voc_e2,12192,"[{""event"":""fullscreenenter"",""trial"":1,""time"":4796}]",NA,1250.8000000715256,static/audio/instructions13.wav,NA,0,NA,NA,NA,NA,NA,NA,NA,NA,NA,NA,NA,NA,NA,NA,NA,NA,NA,NA,NA,NA,NA,NA,NA,NA,NA
audio-instructions,26,269092,0.0-6.0-7.0,voc_e2,12192,"[{""event"":""fullscreenenter"",""trial"":1,""time"":4796}]",NA,2020.100000023842,static/audio/instructions14.wav,NA,0,NA,NA,NA,NA,NA,NA,NA,NA,NA,NA,NA,NA,NA,NA,NA,NA,NA,NA,NA,NA,NA,NA,NA,NA,NA
audio-instructions,27,276946,0.0-7.0-0.0,voc_e2,12192,"[{""event"":""fullscreenenter"",""trial"":1,""time"":4796}]",NA,935.399999976158,static/audio/instructions15.wav,NA,0,NA,NA,NA,NA,NA,NA,NA,NA,NA,NA,NA,NA,NA,NA,NA,NA,NA,NA,NA,NA,NA,NA,NA,NA,NA
audio-instructions,28,286968,0.0-7.0-1.0,voc_e2,12192,"[{""event"":""fullscreenenter"",""trial"":1,""time"":4796}]",NA,3188,static/audio/instructions16.wav,NA,0,NA,NA,NA,NA,NA,NA,NA,NA,NA,NA,NA,NA,NA,NA,NA,NA,NA,NA,NA,NA,NA,NA,NA,NA,NA
audio-instructions,29,299727,0.0-7.0-2.0,voc_e2,12192,"[{""event"":""fullscreenenter"",""trial"":1,""time"":4796}]",NA,5077.399999976158,static/audio/instructions17.wav,NA,0,NA,NA,NA,NA,NA,NA,NA,NA,NA,NA,NA,NA,NA,NA,NA,NA,NA,NA,NA,NA,NA,NA,NA,NA,NA
audio-instructions,30,308518,0.0-7.0-3.0,voc_e2,12192,"[{""event"":""fullscreenenter"",""trial"":1,""time"":4796}]",NA,1018.399999976158,static/audio/instructions18.wav,NA,0,NA,NA,NA,NA,NA,NA,NA,NA,NA,NA,NA,NA,NA,NA,NA,NA,NA,NA,NA,NA,NA,NA,NA,NA,NA
audio-instructions,31,316475,0.0-7.0-4.0,voc_e2,12192,"[{""event"":""fullscreenenter"",""trial"":1,""time"":4796}]",NA,1205.7000000476835,static/audio/instructions19.wav,NA,0,NA,NA,NA,NA,NA,NA,NA,NA,NA,NA,NA,NA,NA,NA,NA,NA,NA,NA,NA,NA,NA,NA,NA,NA,NA
fcp-comprehension,32,335874,0.0-7.0-5.0,voc_e2,12192,"[{""event"":""fullscreenenter"",""trial"":1,""time"":4796}]",NA,19394.39999997616,NA,NA,NA,NA,NA,NA,NA,NA,NA,NA,NA,NA,NA,NA,NA,NA,NA,NA,"false,false,false,true",0,NA,NA,NA,NA,NA,NA,NA,NA
audio-instructions,33,359154,0.0-8.0,voc_e2,12192,"[{""event"":""fullscreenenter"",""trial"":1,""time"":4796}]",NA,14064.399999976158,static/audio/ready.wav,NA,0,NA,NA,NA,NA,NA,NA,NA,NA,NA,NA,NA,NA,NA,NA,NA,NA,NA,NA,NA,NA,NA,NA,NA,NA,NA
fcp-trial,34,364217,0.0-9.0-0.0,voc_e2,12192,"[{""event"":""fullscreenenter"",""trial"":1,""time"":4796}]",NA,NA,NA,NA,NA,6,#D89F1C,#3386FF,10,10,1,38,1,2525.600000023842,37,1,1018.5,10,1,experiment,NA,NA,2,0.5,0.5,4,5,1,1,NA
fcp-trial,35,370216,0.0-10.0-0.0,voc_e2,12192,"[{""event"":""fullscreenenter"",""trial"":1,""time"":4796}]",NA,NA,NA,NA,NA,1,#D8271C,#741CD8,0,10,0,38,1,2792.7999999523163,37,1,1670.100000023842,0,0,experiment,NA,NA,0,0.1,0.9,1,0,2,1,NA
fcp-trial,36,376964,0.0-11.0-0.0,voc_e2,12192,"[{""event"":""fullscreenenter"",""trial"":1,""time"":4796}]",NA,NA,NA,NA,NA,1,#3386FF,#D89F1C,10,10,0,38,1,3339.5,39,0,1880.100000023842,10,1,experiment,NA,NA,2,0.5,0.5,5,4,3,1,NA
fcp-trial,37,382309,0.0-12.0-0.0,voc_e2,12192,"[{""event"":""fullscreenenter"",""trial"":1,""time"":4796}]",NA,NA,NA,NA,NA,2,#1CD855,#FA92F8,0,10,0,38,1,2112.6999999284744,37,1,1707.3000000715256,0,0,experiment,NA,NA,1,0.3,0.7,3,2,4,1,NA
fcp-trial,38,386875,0.0-13.0-0.0,voc_e2,12192,"[{""event"":""fullscreenenter"",""trial"":1,""time"":4796}]",NA,NA,NA,NA,NA,5,#D8271C,#741CD8,0,10,0,38,1,2082.600000023842,39,0,956.2000000476836,10,1,experiment,NA,NA,0,0.1,0.9,1,0,5,1,NA
fcp-trial,39,393961,0.0-14.0-0.0,voc_e2,12192,"[{""event"":""fullscreenenter"",""trial"":1,""time"":4796}]",NA,NA,NA,NA,NA,3,#FA92F8,#1CD855,0,0,1,38,1,3459.899999976158,39,0,2102.100000023842,0,0,experiment,NA,NA,1,0.7,0.3,2,3,6,1,NA
fcp-trial,40,400553,0.0-15.0-0.0,voc_e2,12192,"[{""event"":""fullscreenenter"",""trial"":1,""time"":4796}]",NA,NA,NA,NA,NA,3,#741CD8,#D8271C,10,0,1,38,1,2812.5,37,1,2258.2000000476837,10,1,experiment,NA,NA,0,0.9,0.1,0,1,7,1,NA
fcp-trial,41,404808,0.0-16.0-0.0,voc_e2,12192,"[{""event"":""fullscreenenter"",""trial"":1,""time"":4796}]",NA,NA,NA,NA,NA,2,#D89F1C,#3386FF,10,0,1,38,1,1755.2999999523163,37,1,981.2000000476836,10,1,experiment,NA,NA,2,0.5,0.5,4,5,8,1,NA
fcp-trial,42,408491,0.0-17.0-0.0,voc_e2,12192,"[{""event"":""fullscreenenter"",""trial"":1,""time"":4796}]",NA,NA,NA,NA,NA,5,#FA92F8,#1CD855,0,0,1,38,1,1390.5,37,1,770.2999999523163,0,1,experiment,NA,NA,1,0.7,0.3,2,3,9,1,NA
fcp-trial,43,417617,0.0-18.0-0.0,voc_e2,12192,"[{""event"":""fullscreenenter"",""trial"":1,""time"":4796}]",NA,NA,NA,NA,NA,2,#741CD8,#D8271C,10,0,1,38,1,3642.399999976158,39,0,3956.299999952316,0,0,experiment,NA,NA,0,0.9,0.1,0,1,10,1,NA
fcp-trial,44,421632,0.0-19.0-0.0,voc_e2,12192,"[{""event"":""fullscreenenter"",""trial"":1,""time"":4796}]",NA,NA,NA,NA,NA,0,#FA92F8,#1CD855,10,10,1,38,1,1023.8000000715256,37,1,1476.399999976158,10,1,experiment,NA,NA,1,0.7,0.3,2,3,11,1,NA
fcp-trial,45,428843,0.0-20.0-0.0,voc_e2,12192,"[{""event"":""fullscreenenter"",""trial"":1,""time"":4796}]",NA,NA,NA,NA,NA,0,#741CD8,#D8271C,10,0,1,38,1,2780.8000000715256,37,1,2907.399999976158,10,1,experiment,NA,NA,0,0.9,0.1,0,1,12,1,NA
fcp-trial,46,432064,0.0-21.0-0.0,voc_e2,12192,"[{""event"":""fullscreenenter"",""trial"":1,""time"":4796}]",NA,NA,NA,NA,NA,3,#3386FF,#D89F1C,10,10,0,38,1,1061.2999999523163,39,0,642.6000000238419,10,1,experiment,NA,NA,2,0.5,0.5,5,4,13,1,NA
fcp-trial,47,435641,0.0-22.0-0.0,voc_e2,12192,"[{""event"":""fullscreenenter"",""trial"":1,""time"":4796}]",NA,NA,NA,NA,NA,0,#3386FF,#D89F1C,0,10,0,38,1,1596.0999999046326,39,0,453.2999999523163,10,1,experiment,NA,NA,2,0.5,0.5,5,4,14,1,NA
fcp-trial,48,440219,0.0-23.0-0.0,voc_e2,12192,"[{""event"":""fullscreenenter"",""trial"":1,""time"":4796}]",NA,NA,NA,NA,NA,4,#FA92F8,#1CD855,10,10,1,38,1,1899.6999999284744,37,1,1155.5,10,1,experiment,NA,NA,1,0.7,0.3,2,3,15,1,NA
fcp-trial,49,443719,0.0-24.0-0.0,voc_e2,12192,"[{""event"":""fullscreenenter"",""trial"":1,""time"":4796}]",NA,NA,NA,NA,NA,6,#741CD8,#D8271C,0,10,1,38,1,848.6999999284744,37,1,1135.100000023842,0,1,experiment,NA,NA,0,0.9,0.1,0,1,16,1,NA
fcp-trial,50,447126,0.0-25.0-0.0,voc_e2,12192,"[{""event"":""fullscreenenter"",""trial"":1,""time"":4796}]",NA,NA,NA,NA,NA,5,#D89F1C,#3386FF,10,0,1,38,1,1491.2000000476837,37,1,390.2000000476837,10,1,experiment,NA,NA,2,0.5,0.5,4,5,17,1,NA
fcp-trial,51,452834,0.0-26.0-0.0,voc_e2,12192,"[{""event"":""fullscreenenter"",""trial"":1,""time"":4796}]",NA,NA,NA,NA,NA,4,#D89F1C,#3386FF,0,0,1,38,1,2832.4000000953674,37,1,1355.399999976158,0,1,experiment,NA,NA,2,0.5,0.5,4,5,18,1,NA
fcp-trial,52,457375,0.0-27.0-0.0,voc_e2,12192,"[{""event"":""fullscreenenter"",""trial"":1,""time"":4796}]",NA,NA,NA,NA,NA,6,#FA92F8,#1CD855,0,0,1,38,1,923.6999999284744,39,0,2097.899999976158,0,0,experiment,NA,NA,1,0.7,0.3,2,3,19,1,NA
fcp-trial,53,461332,0.0-28.0-0.0,voc_e2,12192,"[{""event"":""fullscreenenter"",""trial"":1,""time"":4796}]",NA,NA,NA,NA,NA,4,#D8271C,#741CD8,0,10,0,38,1,1460.5999999046326,39,0,978.600000023842,10,1,experiment,NA,NA,0,0.1,0.9,1,0,20,1,NA
fcp-trial,54,465588,0.0-29.0-0.0,voc_e2,12192,"[{""event"":""fullscreenenter"",""trial"":1,""time"":4796}]",NA,NA,NA,NA,NA,1,#FA92F8,#1CD855,10,0,1,38,1,2027.8999999761581,37,1,710.2999999523163,10,1,experiment,NA,NA,1,0.7,0.3,2,3,21,1,NA
fcp-trial,55,471422,0.0-30.0-0.0,voc_e2,12192,"[{""event"":""fullscreenenter"",""trial"":1,""time"":4796}]",NA,NA,NA,NA,NA,6,#1CD855,#FA92F8,0,10,0,38,1,2476,37,1,1824.100000023842,0,0,experiment,NA,NA,1,0.3,0.7,3,2,22,1,NA
fcp-trial,56,475221,0.0-31.0-0.0,voc_e2,12192,"[{""event"":""fullscreenenter"",""trial"":1,""time"":4796}]",NA,NA,NA,NA,NA,0,#FA92F8,#1CD855,10,0,1,38,1,1357.6000000238419,37,1,917.9000000953674,10,1,experiment,NA,NA,1,0.7,0.3,2,3,23,1,NA
fcp-trial,57,478371,0.0-32.0-0.0,voc_e2,12192,"[{""event"":""fullscreenenter"",""trial"":1,""time"":4796}]",NA,NA,NA,NA,NA,2,#741CD8,#D8271C,0,0,1,38,1,1277.3999999761581,37,1,347.3000000715256,0,1,experiment,NA,NA,0,0.9,0.1,0,1,24,1,NA
fcp-trial,58,480985,0.0-33.0-0.0,voc_e2,12192,"[{""event"":""fullscreenenter"",""trial"":1,""time"":4796}]",NA,NA,NA,NA,NA,3,#D89F1C,#3386FF,0,10,1,38,1,760.8000000715256,37,1,332.8000000715256,0,1,experiment,NA,NA,2,0.5,0.5,4,5,25,1,NA
fcp-trial,59,484934,0.0-34.0-0.0,voc_e2,12192,"[{""event"":""fullscreenenter"",""trial"":1,""time"":4796}]",NA,NA,NA,NA,NA,5,#1CD855,#FA92F8,10,0,0,38,1,2100.4000000953674,39,0,325.59999990463257,0,1,experiment,NA,NA,1,0.3,0.7,3,2,26,1,NA
fcp-trial,60,487454,0.0-35.0-0.0,voc_e2,12192,"[{""event"":""fullscreenenter"",""trial"":1,""time"":4796}]",NA,NA,NA,NA,NA,4,#3386FF,#D89F1C,0,10,0,38,1,653.2999999523163,39,0,347.60000002384186,10,1,experiment,NA,NA,2,0.5,0.5,5,4,27,1,NA
fcp-trial,61,492570,0.0-36.0-0.0,voc_e2,12192,"[{""event"":""fullscreenenter"",""trial"":1,""time"":4796}]",NA,NA,NA,NA,NA,6,#D8271C,#741CD8,0,10,0,38,1,1132.7999999523163,39,0,2464.2000000476837,10,1,experiment,NA,NA,0,0.1,0.9,1,0,28,1,NA
fcp-trial,62,495648,0.0-37.0-0.0,voc_e2,12192,"[{""event"":""fullscreenenter"",""trial"":1,""time"":4796}]",NA,NA,NA,NA,NA,1,#FA92F8,#1CD855,10,0,1,38,1,631.8999999761581,37,1,931.399999976158,10,1,experiment,NA,NA,1,0.7,0.3,2,3,29,1,NA
fcp-trial,63,498169,0.0-38.0-0.0,voc_e2,12192,"[{""event"":""fullscreenenter"",""trial"":1,""time"":4796}]",NA,NA,NA,NA,NA,2,#D89F1C,#3386FF,0,0,1,38,1,631.6999999284744,37,1,376.3000000715256,0,1,experiment,NA,NA,2,0.5,0.5,4,5,30,1,NA
fcp-trial,64,504317,0.0-39.0-0.0,voc_e2,12192,"[{""event"":""fullscreenenter"",""trial"":1,""time"":4796}]",NA,NA,NA,NA,NA,3,#741CD8,#D8271C,10,0,1,38,1,3092.899999976158,37,1,1533.7000000476835,10,1,experiment,NA,NA,0,0.9,0.1,0,1,31,1,NA
fcp-trial,65,508417,0.0-40.0-0.0,voc_e2,12192,"[{""event"":""fullscreenenter"",""trial"":1,""time"":4796}]",NA,NA,NA,NA,NA,4,#FA92F8,#1CD855,0,0,1,38,1,709.5,37,1,1859.9000000953672,0,1,experiment,NA,NA,1,0.7,0.3,2,3,32,1,NA
fcp-trial,66,512281,0.0-41.0-0.0,voc_e2,12192,"[{""event"":""fullscreenenter"",""trial"":1,""time"":4796}]",NA,NA,NA,NA,NA,0,#741CD8,#D8271C,10,0,1,38,1,1874.8999999761581,37,1,460.60000002384186,10,1,experiment,NA,NA,0,0.9,0.1,0,1,33,1,NA
fcp-trial,67,516843,0.0-42.0-0.0,voc_e2,12192,"[{""event"":""fullscreenenter"",""trial"":1,""time"":4796}]",NA,NA,NA,NA,NA,0,#D89F1C,#3386FF,0,10,1,38,1,2656.2999999523163,37,1,383.2000000476837,0,1,experiment,NA,NA,2,0.5,0.5,4,5,34,1,NA
fcp-trial,68,520381,0.0-43.0-0.0,voc_e2,12192,"[{""event"":""fullscreenenter"",""trial"":1,""time"":4796}]",NA,NA,NA,NA,NA,3,#1CD855,#FA92F8,0,0,0,38,1,742.9000000953674,39,0,1282.2999999523165,0,1,experiment,NA,NA,1,0.3,0.7,3,2,35,1,NA
fcp-trial,69,523483,0.0-44.0-0.0,voc_e2,12192,"[{""event"":""fullscreenenter"",""trial"":1,""time"":4796}]",NA,NA,NA,NA,NA,5,#D89F1C,#3386FF,10,0,1,38,1,1210,37,1,370.2000000476837,10,1,experiment,NA,NA,2,0.5,0.5,4,5,36,1,NA
fcp-trial,70,529198,0.0-45.0-0.0,voc_e2,12192,"[{""event"":""fullscreenenter"",""trial"":1,""time"":4796}]",NA,NA,NA,NA,NA,1,#741CD8,#D8271C,10,10,1,38,1,2254.2000000476837,37,1,1945.399999976158,10,1,experiment,NA,NA,0,0.9,0.1,0,1,37,1,NA
fcp-trial,71,531738,0.0-46.0-0.0,voc_e2,12192,"[{""event"":""fullscreenenter"",""trial"":1,""time"":4796}]",NA,NA,NA,NA,NA,2,#FA92F8,#1CD855,10,0,1,38,1,613.7999999523163,37,1,406.5,10,1,experiment,NA,NA,1,0.7,0.3,2,3,38,1,NA
fcp-trial,72,536135,0.0-47.0-0.0,voc_e2,12192,"[{""event"":""fullscreenenter"",""trial"":1,""time"":4796}]",NA,NA,NA,NA,NA,5,#741CD8,#D8271C,0,0,1,38,1,2052.7999999523163,37,1,833.8999999761581,0,1,experiment,NA,NA,0,0.9,0.1,0,1,39,1,NA
fcp-trial,73,538694,0.0-48.0-0.0,voc_e2,12192,"[{""event"":""fullscreenenter"",""trial"":1,""time"":4796}]",NA,NA,NA,NA,NA,6,#D89F1C,#3386FF,10,10,1,38,1,737.6999999284744,37,1,301.39999997615814,10,1,experiment,NA,NA,2,0.5,0.5,4,5,40,1,NA
fcp-trial,74,543251,0.0-49.0-0.0,voc_e2,12192,"[{""event"":""fullscreenenter"",""trial"":1,""time"":4796}]",NA,NA,NA,NA,NA,4,#741CD8,#D8271C,10,0,1,38,1,1600.7999999523163,37,1,1438.8000000715256,10,1,experiment,NA,NA,0,0.9,0.1,0,1,41,1,NA
fcp-trial,75,545627,0.0-50.0-0.0,voc_e2,12192,"[{""event"":""fullscreenenter"",""trial"":1,""time"":4796}]",NA,NA,NA,NA,NA,1,#D89F1C,#3386FF,10,10,1,38,1,545,37,1,309.5,10,1,experiment,NA,NA,2,0.5,0.5,4,5,42,1,NA
fcp-trial,76,550566,0.0-51.0-0.0,voc_e2,12192,"[{""event"":""fullscreenenter"",""trial"":1,""time"":4796}]",NA,NA,NA,NA,NA,3,#3386FF,#D89F1C,0,10,0,38,1,2095.4000000953674,39,0,1320,10,1,experiment,NA,NA,2,0.5,0.5,5,4,43,1,NA
fcp-trial,77,553211,0.0-52.0-0.0,voc_e2,12192,"[{""event"":""fullscreenenter"",""trial"":1,""time"":4796}]",NA,NA,NA,NA,NA,1,#741CD8,#D8271C,10,0,1,38,1,614.8999999761581,37,1,511.2999999523163,10,1,experiment,NA,NA,0,0.9,0.1,0,1,44,1,NA
fcp-trial,78,555657,0.0-53.0-0.0,voc_e2,12192,"[{""event"":""fullscreenenter"",""trial"":1,""time"":4796}]",NA,NA,NA,NA,NA,1,#3386FF,#D89F1C,10,10,0,38,1,591.5,39,0,331.5,10,1,experiment,NA,NA,2,0.5,0.5,5,4,45,1,NA
fcp-trial,79,559706,0.0-54.0-0.0,voc_e2,12192,"[{""event"":""fullscreenenter"",""trial"":1,""time"":4796}]",NA,NA,NA,NA,NA,3,#1CD855,#FA92F8,0,0,0,38,1,2174.2000000476837,39,0,352.7000000476837,0,1,experiment,NA,NA,1,0.3,0.7,3,2,46,2,NA
fcp-trial,80,562605,0.0-55.0-0.0,voc_e2,12192,"[{""event"":""fullscreenenter"",""trial"":1,""time"":4796}]",NA,NA,NA,NA,NA,2,#D8271C,#741CD8,0,10,0,38,1,671.6000000238419,39,0,702.8999999761581,10,1,experiment,NA,NA,0,0.1,0.9,1,0,47,2,NA
fcp-trial,81,566402,0.0-56.0-0.0,voc_e2,12192,"[{""event"":""fullscreenenter"",""trial"":1,""time"":4796}]",NA,NA,NA,NA,NA,0,#FA92F8,#1CD855,10,0,1,38,1,597.6000000238419,37,1,1676.7999999523165,10,1,experiment,NA,NA,1,0.7,0.3,2,3,48,2,NA
fcp-trial,82,569884,0.0-57.0-0.0,voc_e2,12192,"[{""event"":""fullscreenenter"",""trial"":1,""time"":4796}]",NA,NA,NA,NA,NA,4,#D8271C,#741CD8,0,10,0,38,1,995.5,39,0,970.2000000476836,10,1,experiment,NA,NA,0,0.1,0.9,1,0,49,2,NA
fcp-trial,83,572178,0.0-58.0-0.0,voc_e2,12192,"[{""event"":""fullscreenenter"",""trial"":1,""time"":4796}]",NA,NA,NA,NA,NA,0,#D89F1C,#3386FF,0,0,1,38,1,406.2999999523163,37,1,360.5,0,1,experiment,NA,NA,2,0.5,0.5,4,5,50,2,NA
fcp-trial,84,575432,0.0-59.0-0.0,voc_e2,12192,"[{""event"":""fullscreenenter"",""trial"":1,""time"":4796}]",NA,NA,NA,NA,NA,5,#3386FF,#D89F1C,0,0,0,38,1,353.09999990463257,39,0,1387.600000023842,0,1,experiment,NA,NA,2,0.5,0.5,5,4,51,2,NA
fcp-trial,85,578117,0.0-60.0-0.0,voc_e2,12192,"[{""event"":""fullscreenenter"",""trial"":1,""time"":4796}]",NA,NA,NA,NA,NA,2,#3386FF,#D89F1C,10,0,0,38,1,603.6000000238419,39,0,563.2999999523163,0,1,experiment,NA,NA,2,0.5,0.5,5,4,52,2,NA
fcp-trial,86,582121,0.0-61.0-0.0,voc_e2,12192,"[{""event"":""fullscreenenter"",""trial"":1,""time"":4796}]",NA,NA,NA,NA,NA,2,#FA92F8,#1CD855,10,0,1,38,1,2028.7000000476837,37,1,455.1999999284744,10,1,experiment,NA,NA,1,0.7,0.3,2,3,53,2,NA
fcp-trial,87,588067,0.0-62.0-0.0,voc_e2,12192,"[{""event"":""fullscreenenter"",""trial"":1,""time"":4796}]",NA,NA,NA,NA,NA,0,#741CD8,#D8271C,10,0,1,38,1,3568.600000023842,37,1,858.8999999761581,10,1,experiment,NA,NA,0,0.9,0.1,0,1,54,2,NA
fcp-trial,88,590699,0.0-63.0-0.0,voc_e2,12192,"[{""event"":""fullscreenenter"",""trial"":1,""time"":4796}]",NA,NA,NA,NA,NA,4,#D89F1C,#3386FF,0,0,1,38,1,814.6000000238419,37,1,294.6999999284744,0,1,experiment,NA,NA,2,0.5,0.5,4,5,55,2,NA
fcp-trial,89,598182,0.0-64.0-0.0,voc_e2,12192,"[{""event"":""fullscreenenter"",""trial"":1,""time"":4796}]",NA,NA,NA,NA,NA,4,#1CD855,#FA92F8,0,10,0,38,1,2924.6999999284744,39,0,3049.5,10,1,experiment,NA,NA,1,0.3,0.7,3,2,56,2,NA
fcp-trial,90,601969,0.0-65.0-0.0,voc_e2,12192,"[{""event"":""fullscreenenter"",""trial"":1,""time"":4796}]",NA,NA,NA,NA,NA,6,#1CD855,#FA92F8,0,10,0,40,0,899.1000000238419,37,1,1385.1999999284744,0,0,experiment,NA,NA,1,0.3,0.7,3,2,57,2,NA
fcp-trial,91,607346,0.0-66.0-0.0,voc_e2,12192,"[{""event"":""fullscreenenter"",""trial"":1,""time"":4796}]",NA,NA,NA,NA,NA,5,#741CD8,#D8271C,10,0,1,38,1,3351.7000000476837,37,1,512.6000000238419,10,1,experiment,NA,NA,0,0.9,0.1,0,1,58,2,NA
fcp-trial,92,610141,0.0-67.0-0.0,voc_e2,12192,"[{""event"":""fullscreenenter"",""trial"":1,""time"":4796}]",NA,NA,NA,NA,NA,6,#3386FF,#D89F1C,10,10,0,38,1,907.6000000238419,39,0,360,10,1,experiment,NA,NA,2,0.5,0.5,5,4,59,2,NA
fcp-trial,93,613254,0.0-68.0-0.0,voc_e2,12192,"[{""event"":""fullscreenenter"",""trial"":1,""time"":4796}]",NA,NA,NA,NA,NA,1,#1CD855,#FA92F8,0,10,0,38,1,974,39,0,620.7999999523163,10,1,experiment,NA,NA,1,0.3,0.7,3,2,60,2,NA
fcp-trial,94,616623,0.0-69.0-0.0,voc_e2,12192,"[{""event"":""fullscreenenter"",""trial"":1,""time"":4796}]",NA,NA,NA,NA,NA,3,#D8271C,#741CD8,0,10,0,38,1,649.9000000953674,39,0,1196.2000000476835,10,1,experiment,NA,NA,0,0.1,0.9,1,0,61,2,NA
fcp-trial,95,622801,0.0-70.0-0.0,voc_e2,12192,"[{""event"":""fullscreenenter"",""trial"":1,""time"":4796}]",NA,NA,NA,NA,NA,5,#1CD855,#FA92F8,0,10,0,38,1,1582.8999999761581,39,0,3076,10,1,experiment,NA,NA,1,0.3,0.7,3,2,62,2,NA
fcp-trial,96,625784,0.0-71.0-0.0,voc_e2,12192,"[{""event"":""fullscreenenter"",""trial"":1,""time"":4796}]",NA,NA,NA,NA,NA,6,#D8271C,#741CD8,0,0,0,38,1,641.6999999284744,39,0,825.4000000953674,0,1,experiment,NA,NA,0,0.1,0.9,1,0,63,2,NA
fcp-trial,97,629001,0.0-72.0-0.0,voc_e2,12192,"[{""event"":""fullscreenenter"",""trial"":1,""time"":4796}]",NA,NA,NA,NA,NA,2,#741CD8,#D8271C,10,0,1,38,1,600.6000000238419,37,1,1079.9000000953674,10,1,experiment,NA,NA,0,0.9,0.1,0,1,64,2,NA
fcp-trial,98,631338,0.0-73.0-0.0,voc_e2,12192,"[{""event"":""fullscreenenter"",""trial"":1,""time"":4796}]",NA,NA,NA,NA,NA,0,#1CD855,#FA92F8,0,10,0,38,1,465.60000002384186,39,0,360.7999999523163,10,1,experiment,NA,NA,1,0.3,0.7,3,2,65,2,NA
fcp-trial,99,634137,0.0-74.0-0.0,voc_e2,12192,"[{""event"":""fullscreenenter"",""trial"":1,""time"":4796}]",NA,NA,NA,NA,NA,6,#1CD855,#FA92F8,10,0,0,38,1,964.1000000238419,39,0,319.7000000476837,0,1,experiment,NA,NA,1,0.3,0.7,3,2,66,2,NA
fcp-trial,100,639001,0.0-75.0-0.0,voc_e2,12192,"[{""event"":""fullscreenenter"",""trial"":1,""time"":4796}]",NA,NA,NA,NA,NA,4,#FA92F8,#1CD855,10,10,1,38,1,303.89999997615814,37,1,3039.600000023842,10,1,experiment,NA,NA,1,0.7,0.3,2,3,67,2,NA
fcp-trial,101,641399,0.0-76.0-0.0,voc_e2,12192,"[{""event"":""fullscreenenter"",""trial"":1,""time"":4796}]",NA,NA,NA,NA,NA,4,#D89F1C,#3386FF,0,10,1,38,1,558.1000000238419,37,1,324.90000009536743,0,1,experiment,NA,NA,2,0.5,0.5,4,5,68,2,NA
fcp-trial,102,643766,0.0-77.0-0.0,voc_e2,12192,"[{""event"":""fullscreenenter"",""trial"":1,""time"":4796}]",NA,NA,NA,NA,NA,5,#D8271C,#741CD8,0,10,0,38,1,533,39,0,314.2999999523163,10,1,experiment,NA,NA,0,0.1,0.9,1,0,69,2,NA
fcp-trial,103,647046,0.0-78.0-0.0,voc_e2,12192,"[{""event"":""fullscreenenter"",""trial"":1,""time"":4796}]",NA,NA,NA,NA,NA,5,#FA92F8,#1CD855,0,0,1,38,1,1059.2999999523163,37,1,704.8000000715256,0,1,experiment,NA,NA,1,0.7,0.3,2,3,70,2,NA
fcp-trial,104,654199,0.0-79.0-0.0,voc_e2,12192,"[{""event"":""fullscreenenter"",""trial"":1,""time"":4796}]",NA,NA,NA,NA,NA,4,#741CD8,#D8271C,10,0,1,38,1,581.3000000715256,37,1,5057.299999952316,10,1,experiment,NA,NA,0,0.9,0.1,0,1,71,2,NA
fcp-trial,105,658176,0.0-80.0-0.0,voc_e2,12192,"[{""event"":""fullscreenenter"",""trial"":1,""time"":4796}]",NA,NA,NA,NA,NA,2,#FA92F8,#1CD855,10,0,1,38,1,1428.2999999523163,37,1,1039.899999976158,10,1,experiment,NA,NA,1,0.7,0.3,2,3,72,2,NA
fcp-trial,106,660593,0.0-81.0-0.0,voc_e2,12192,"[{""event"":""fullscreenenter"",""trial"":1,""time"":4796}]",NA,NA,NA,NA,NA,6,#D89F1C,#3386FF,0,0,1,38,1,560.7999999523163,37,1,337,0,1,experiment,NA,NA,2,0.5,0.5,4,5,73,2,NA
fcp-trial,107,664094,0.0-82.0-0.0,voc_e2,12192,"[{""event"":""fullscreenenter"",""trial"":1,""time"":4796}]",NA,NA,NA,NA,NA,1,#D8271C,#741CD8,0,10,0,38,1,444.8000000715256,39,0,1539.4000000953674,10,1,experiment,NA,NA,0,0.1,0.9,1,0,74,2,NA
fcp-trial,108,667279,0.0-83.0-0.0,voc_e2,12192,"[{""event"":""fullscreenenter"",""trial"":1,""time"":4796}]",NA,NA,NA,NA,NA,3,#FA92F8,#1CD855,10,0,1,38,1,671.4000000953674,37,1,985.2000000476836,10,1,experiment,NA,NA,1,0.7,0.3,2,3,75,2,NA
fcp-trial,109,669609,0.0-84.0-0.0,voc_e2,12192,"[{""event"":""fullscreenenter"",""trial"":1,""time"":4796}]",NA,NA,NA,NA,NA,6,#741CD8,#D8271C,10,10,1,38,1,409.10000002384186,37,1,391.2000000476837,10,1,experiment,NA,NA,0,0.9,0.1,0,1,76,2,NA
fcp-trial,110,673927,0.0-85.0-0.0,voc_e2,12192,"[{""event"":""fullscreenenter"",""trial"":1,""time"":4796}]",NA,NA,NA,NA,NA,1,#3386FF,#D89F1C,10,10,0,38,1,550.8999999761581,39,0,2244.400000095367,10,1,experiment,NA,NA,2,0.5,0.5,5,4,77,2,NA
fcp-trial,111,676386,0.0-86.0-0.0,voc_e2,12192,"[{""event"":""fullscreenenter"",""trial"":1,""time"":4796}]",NA,NA,NA,NA,NA,3,#D89F1C,#3386FF,10,10,1,38,1,479,37,1,461.60000002384186,10,1,experiment,NA,NA,2,0.5,0.5,4,5,78,2,NA
fcp-trial,112,679312,0.0-87.0-0.0,voc_e2,12192,"[{""event"":""fullscreenenter"",""trial"":1,""time"":4796}]",NA,NA,NA,NA,NA,0,#D89F1C,#3386FF,0,10,1,38,1,1067.9000000953674,37,1,337.2000000476837,0,1,experiment,NA,NA,2,0.5,0.5,4,5,79,2,NA
fcp-trial,113,682306,0.0-88.0-0.0,voc_e2,12192,"[{""event"":""fullscreenenter"",""trial"":1,""time"":4796}]",NA,NA,NA,NA,NA,1,#1CD855,#FA92F8,0,10,0,38,1,548.7000000476837,37,1,928.2999999523164,0,0,experiment,NA,NA,1,0.3,0.7,3,2,80,2,NA
fcp-trial,114,685840,0.0-89.0-0.0,voc_e2,12192,"[{""event"":""fullscreenenter"",""trial"":1,""time"":4796}]",NA,NA,NA,NA,NA,0,#741CD8,#D8271C,10,0,1,38,1,527.1000000238419,37,1,1489.5,10,1,experiment,NA,NA,0,0.9,0.1,0,1,81,2,NA
fcp-trial,115,688160,0.0-90.0-0.0,voc_e2,12192,"[{""event"":""fullscreenenter"",""trial"":1,""time"":4796}]",NA,NA,NA,NA,NA,5,#3386FF,#D89F1C,10,0,0,38,1,396.2999999523163,39,0,395.59999990463257,0,1,experiment,NA,NA,2,0.5,0.5,5,4,82,2,NA
fcp-trial,116,691657,0.0-91.0-0.0,voc_e2,12192,"[{""event"":""fullscreenenter"",""trial"":1,""time"":4796}]",NA,NA,NA,NA,NA,2,#D89F1C,#3386FF,10,10,1,38,1,538.7999999523163,37,1,1430,10,1,experiment,NA,NA,2,0.5,0.5,4,5,83,2,NA
fcp-trial,117,693991,0.0-92.0-0.0,voc_e2,12192,"[{""event"":""fullscreenenter"",""trial"":1,""time"":4796}]",NA,NA,NA,NA,NA,3,#741CD8,#D8271C,10,0,1,38,1,478.5,37,1,327.60000002384186,10,1,experiment,NA,NA,0,0.9,0.1,0,1,84,2,NA
fcp-trial,118,697228,0.0-93.0-0.0,voc_e2,12192,"[{""event"":""fullscreenenter"",""trial"":1,""time"":4796}]",NA,NA,NA,NA,NA,1,#3386FF,#D89F1C,0,0,0,38,1,700.8999999761581,39,0,1018.100000023842,0,1,experiment,NA,NA,2,0.5,0.5,5,4,85,2,NA
fcp-trial,119,699475,0.0-94.0-0.0,voc_e2,12192,"[{""event"":""fullscreenenter"",""trial"":1,""time"":4796}]",NA,NA,NA,NA,NA,3,#D89F1C,#3386FF,0,0,1,38,1,430.2999999523163,37,1,302.10000002384186,0,1,experiment,NA,NA,2,0.5,0.5,4,5,86,2,NA
fcp-trial,120,702153,0.0-95.0-0.0,voc_e2,12192,"[{""event"":""fullscreenenter"",""trial"":1,""time"":4796}]",NA,NA,NA,NA,NA,4,#D8271C,#741CD8,0,10,0,38,1,678.6000000238419,39,0,477,10,1,experiment,NA,NA,0,0.1,0.9,1,0,87,2,NA
fcp-trial,121,704551,0.0-96.0-0.0,voc_e2,12192,"[{""event"":""fullscreenenter"",""trial"":1,""time"":4796}]",NA,NA,NA,NA,NA,6,#1CD855,#FA92F8,0,10,0,38,1,486.2999999523163,39,0,388.60000002384186,10,1,experiment,NA,NA,1,0.3,0.7,3,2,88,2,NA
fcp-trial,122,707856,0.0-97.0-0.0,voc_e2,12192,"[{""event"":""fullscreenenter"",""trial"":1,""time"":4796}]",NA,NA,NA,NA,NA,2,#D8271C,#741CD8,0,10,0,38,1,391.3000000715256,39,0,1397.5,10,1,experiment,NA,NA,0,0.1,0.9,1,0,89,2,NA
fcp-trial,123,710371,0.0-98.0-0.0,voc_e2,12192,"[{""event"":""fullscreenenter"",""trial"":1,""time"":4796}]",NA,NA,NA,NA,NA,5,#D89F1C,#3386FF,0,0,1,38,1,497.5,37,1,494.10000002384186,0,1,experiment,NA,NA,2,0.5,0.5,4,5,90,2,NA
fcp-trial,124,712675,0.0-99.0-0.0,voc_e2,12192,"[{""event"":""fullscreenenter"",""trial"":1,""time"":4796}]",NA,NA,NA,NA,NA,0,#1CD855,#FA92F8,0,0,0,38,1,358.6999999284744,39,0,428.3000000715256,0,1,experiment,NA,NA,1,0.3,0.7,3,2,91,3,NA
fcp-trial,125,715323,0.0-100.0-0.0,voc_e2,12192,"[{""event"":""fullscreenenter"",""trial"":1,""time"":4796}]",NA,NA,NA,NA,NA,4,#1CD855,#FA92F8,0,10,0,38,1,583.3999999761581,39,0,543.6000000238419,10,1,experiment,NA,NA,1,0.3,0.7,3,2,92,3,NA
fcp-trial,126,719162,0.0-101.0-0.0,voc_e2,12192,"[{""event"":""fullscreenenter"",""trial"":1,""time"":4796}]",NA,NA,NA,NA,NA,4,#3386FF,#D89F1C,0,10,0,38,1,432.1999999284744,39,0,1884,10,1,experiment,NA,NA,2,0.5,0.5,5,4,93,3,NA
fcp-trial,127,724335,0.0-102.0-0.0,voc_e2,12192,"[{""event"":""fullscreenenter"",""trial"":1,""time"":4796}]",NA,NA,NA,NA,NA,3,#D8271C,#741CD8,0,10,0,38,1,824.3999999761581,39,0,2823.600000023842,10,1,experiment,NA,NA,0,0.1,0.9,1,0,94,3,NA
fcp-trial,128,727525,0.0-103.0-0.0,voc_e2,12192,"[{""event"":""fullscreenenter"",""trial"":1,""time"":4796}]",NA,NA,NA,NA,NA,6,#741CD8,#D8271C,10,0,1,38,1,492.2000000476837,37,1,1178.5999999046326,10,1,experiment,NA,NA,0,0.9,0.1,0,1,95,3,NA
fcp-trial,129,731175,0.0-104.0-0.0,voc_e2,12192,"[{""event"":""fullscreenenter"",""trial"":1,""time"":4796}]",NA,NA,NA,NA,NA,3,#FA92F8,#1CD855,10,10,1,38,1,462.7000000476837,37,1,1670.6999999284744,10,1,experiment,NA,NA,1,0.7,0.3,2,3,96,3,NA
fcp-trial,130,733453,0.0-105.0-0.0,voc_e2,12192,"[{""event"":""fullscreenenter"",""trial"":1,""time"":4796}]",NA,NA,NA,NA,NA,0,#3386FF,#D89F1C,10,0,0,38,1,345.60000002384186,39,0,416.5,0,1,experiment,NA,NA,2,0.5,0.5,5,4,97,3,NA
fcp-trial,131,736162,0.0-106.0-0.0,voc_e2,12192,"[{""event"":""fullscreenenter"",""trial"":1,""time"":4796}]",NA,NA,NA,NA,NA,5,#741CD8,#D8271C,10,0,1,38,1,439.7000000476837,37,1,750.3000000715256,10,1,experiment,NA,NA,0,0.9,0.1,0,1,98,3,NA
fcp-trial,132,741048,0.0-107.0-0.0,voc_e2,12192,"[{""event"":""fullscreenenter"",""trial"":1,""time"":4796}]",NA,NA,NA,NA,NA,1,#D8271C,#741CD8,0,10,0,38,1,312.39999997615814,39,0,3057,10,1,experiment,NA,NA,0,0.1,0.9,1,0,99,3,NA
fcp-trial,133,744980,0.0-108.0-0.0,voc_e2,12192,"[{""event"":""fullscreenenter"",""trial"":1,""time"":4796}]",NA,NA,NA,NA,NA,2,#D89F1C,#3386FF,0,0,1,38,1,513.4000000953674,37,1,1893.5,0,1,experiment,NA,NA,2,0.5,0.5,4,5,100,3,NA
fcp-trial,134,748779,0.0-109.0-0.0,voc_e2,12192,"[{""event"":""fullscreenenter"",""trial"":1,""time"":4796}]",NA,NA,NA,NA,NA,5,#1CD855,#FA92F8,10,10,0,38,1,298.60000002384186,39,0,1979.399999976158,10,1,experiment,NA,NA,1,0.3,0.7,3,2,101,3,NA
fcp-trial,135,753388,0.0-110.0-0.0,voc_e2,12192,"[{""event"":""fullscreenenter"",""trial"":1,""time"":4796}]",NA,NA,NA,NA,NA,2,#1CD855,#FA92F8,10,10,0,38,1,335.2000000476837,39,0,2752.8000000715256,10,1,experiment,NA,NA,1,0.3,0.7,3,2,102,3,NA
fcp-trial,136,758019,0.0-111.0-0.0,voc_e2,12192,"[{""event"":""fullscreenenter"",""trial"":1,""time"":4796}]",NA,NA,NA,NA,NA,0,#D8271C,#741CD8,0,10,0,38,1,578.7000000476837,39,0,2538.899999976158,10,1,experiment,NA,NA,0,0.1,0.9,1,0,103,3,NA
fcp-trial,137,760344,0.0-112.0-0.0,voc_e2,12192,"[{""event"":""fullscreenenter"",""trial"":1,""time"":4796}]",NA,NA,NA,NA,NA,6,#3386FF,#D89F1C,10,10,0,38,1,388.60000002384186,39,0,411.40000009536743,10,1,experiment,NA,NA,2,0.5,0.5,5,4,104,3,NA
fcp-trial,138,763276,0.0-113.0-0.0,voc_e2,12192,"[{""event"":""fullscreenenter"",""trial"":1,""time"":4796}]",NA,NA,NA,NA,NA,1,#FA92F8,#1CD855,10,10,1,38,1,1044.8999999761581,37,1,363,10,1,experiment,NA,NA,1,0.7,0.3,2,3,105,3,NA
audio-instructions,139,779801,0.0-114.0,voc_e2,12192,"[{""event"":""fullscreenenter"",""trial"":1,""time"":4796}]",NA,11617.899999976158,static/audio/pause.wav,NA,0,NA,NA,NA,NA,NA,NA,NA,NA,NA,NA,NA,NA,NA,NA,NA,NA,NA,NA,NA,NA,NA,NA,NA,NA,NA
fcp-trial,140,784413,0.0-115.0-0.0,voc_e2,12192,"[{""event"":""fullscreenenter"",""trial"":1,""time"":4796}]",NA,NA,NA,NA,NA,4,#1CD855,#FA92F8,10,10,0,38,1,1625.1999999284744,39,0,1460,10,1,experiment,NA,NA,1,0.3,0.7,3,2,106,3,NA
fcp-trial,141,788844,0.0-116.0-0.0,voc_e2,12192,"[{""event"":""fullscreenenter"",""trial"":1,""time"":4796}]",NA,NA,NA,NA,NA,2,#FA92F8,#1CD855,10,0,1,38,1,477.90000009536743,37,1,2445.2000000476837,10,1,experiment,NA,NA,1,0.7,0.3,2,3,107,3,NA
fcp-trial,142,794493,0.0-117.0-0.0,voc_e2,12192,"[{""event"":""fullscreenenter"",""trial"":1,""time"":4796}]",NA,NA,NA,NA,NA,1,#D8271C,#741CD8,0,0,0,38,1,635.8999999761581,39,0,3490.399999976158,0,1,experiment,NA,NA,0,0.1,0.9,1,0,108,3,NA
fcp-trial,143,796959,0.0-118.0-0.0,voc_e2,12192,"[{""event"":""fullscreenenter"",""trial"":1,""time"":4796}]",NA,NA,NA,NA,NA,1,#3386FF,#D89F1C,10,0,0,38,1,358.40000009536743,39,0,580.3999999761581,0,1,experiment,NA,NA,2,0.5,0.5,5,4,109,3,NA
fcp-trial,144,800017,0.0-119.0-0.0,voc_e2,12192,"[{""event"":""fullscreenenter"",""trial"":1,""time"":4796}]",NA,NA,NA,NA,NA,0,#3386FF,#D89F1C,0,0,0,38,1,330.89999997615814,39,0,1206.0999999046326,0,1,experiment,NA,NA,2,0.5,0.5,5,4,110,3,NA
fcp-trial,145,802466,0.0-120.0-0.0,voc_e2,12192,"[{""event"":""fullscreenenter"",""trial"":1,""time"":4796}]",NA,NA,NA,NA,NA,1,#FA92F8,#1CD855,10,0,1,38,1,306.89999997615814,37,1,622.3000000715256,10,1,experiment,NA,NA,1,0.7,0.3,2,3,111,3,NA
fcp-trial,146,804882,0.0-121.0-0.0,voc_e2,12192,"[{""event"":""fullscreenenter"",""trial"":1,""time"":4796}]",NA,NA,NA,NA,NA,5,#741CD8,#D8271C,10,0,1,38,1,357.6999999284744,37,1,538,10,1,experiment,NA,NA,0,0.9,0.1,0,1,112,3,NA
fcp-trial,147,807310,0.0-122.0-0.0,voc_e2,12192,"[{""event"":""fullscreenenter"",""trial"":1,""time"":4796}]",NA,NA,NA,NA,NA,0,#1CD855,#FA92F8,10,10,0,38,1,327.60000002384186,39,0,579.5,10,1,experiment,NA,NA,1,0.3,0.7,3,2,113,3,NA
fcp-trial,148,809714,0.0-123.0-0.0,voc_e2,12192,"[{""event"":""fullscreenenter"",""trial"":1,""time"":4796}]",NA,NA,NA,NA,NA,4,#3386FF,#D89F1C,0,0,0,38,1,324.1999999284744,39,0,565.5999999046326,0,1,experiment,NA,NA,2,0.5,0.5,5,4,114,3,NA
fcp-trial,149,812392,0.0-124.0-0.0,voc_e2,12192,"[{""event"":""fullscreenenter"",""trial"":1,""time"":4796}]",NA,NA,NA,NA,NA,6,#741CD8,#D8271C,0,0,1,38,1,459,37,1,704.5,0,1,experiment,NA,NA,0,0.9,0.1,0,1,115,3,NA
fcp-trial,150,814792,0.0-125.0-0.0,voc_e2,12192,"[{""event"":""fullscreenenter"",""trial"":1,""time"":4796}]",NA,NA,NA,NA,NA,5,#FA92F8,#1CD855,10,0,1,38,1,528.8999999761581,37,1,352.2999999523163,10,1,experiment,NA,NA,1,0.7,0.3,2,3,116,3,NA
fcp-trial,151,818367,0.0-126.0-0.0,voc_e2,12192,"[{""event"":""fullscreenenter"",""trial"":1,""time"":4796}]",NA,NA,NA,NA,NA,6,#3386FF,#D89F1C,10,10,0,38,1,734.8000000715256,39,0,1327.8000000715256,10,1,experiment,NA,NA,2,0.5,0.5,5,4,117,3,NA
fcp-trial,152,821066,0.0-127.0-0.0,voc_e2,12192,"[{""event"":""fullscreenenter"",""trial"":1,""time"":4796}]",NA,NA,NA,NA,NA,3,#D8271C,#741CD8,0,10,0,38,1,391.2999999523163,39,0,785.5,10,1,experiment,NA,NA,0,0.1,0.9,1,0,118,3,NA
fcp-trial,153,823640,0.0-128.0-0.0,voc_e2,12192,"[{""event"":""fullscreenenter"",""trial"":1,""time"":4796}]",NA,NA,NA,NA,NA,2,#3386FF,#D89F1C,10,10,0,38,1,463.7000000476837,39,0,596,10,1,experiment,NA,NA,2,0.5,0.5,5,4,119,3,NA
fcp-trial,154,827629,0.0-129.0-0.0,voc_e2,12192,"[{""event"":""fullscreenenter"",""trial"":1,""time"":4796}]",NA,NA,NA,NA,NA,3,#FA92F8,#1CD855,10,10,1,38,1,826.8999999761581,37,1,1647.100000023842,10,1,experiment,NA,NA,1,0.7,0.3,2,3,120,3,NA
fcp-trial,155,831372,0.0-130.0-0.0,voc_e2,12192,"[{""event"":""fullscreenenter"",""trial"":1,""time"":4796}]",NA,NA,NA,NA,NA,2,#741CD8,#D8271C,10,0,1,38,1,466,39,0,1761.399999976158,0,0,experiment,NA,NA,0,0.9,0.1,0,1,121,3,NA
fcp-trial,156,833908,0.0-131.0-0.0,voc_e2,12192,"[{""event"":""fullscreenenter"",""trial"":1,""time"":4796}]",NA,NA,NA,NA,NA,5,#D89F1C,#3386FF,10,0,1,38,1,484.39999997615814,37,1,536.8999999761581,10,1,experiment,NA,NA,2,0.5,0.5,4,5,122,3,NA
fcp-trial,157,836509,0.0-132.0-0.0,voc_e2,12192,"[{""event"":""fullscreenenter"",""trial"":1,""time"":4796}]",NA,NA,NA,NA,NA,0,#741CD8,#D8271C,10,0,1,38,1,348.60000002384186,37,1,737.2000000476837,10,1,experiment,NA,NA,0,0.9,0.1,0,1,123,3,NA
fcp-trial,158,838930,0.0-133.0-0.0,voc_e2,12192,"[{""event"":""fullscreenenter"",""trial"":1,""time"":4796}]",NA,NA,NA,NA,NA,3,#D89F1C,#3386FF,10,10,1,38,1,499.7999999523163,37,1,405.2000000476837,10,1,experiment,NA,NA,2,0.5,0.5,4,5,124,3,NA
fcp-trial,159,842147,0.0-134.0-0.0,voc_e2,12192,"[{""event"":""fullscreenenter"",""trial"":1,""time"":4796}]",NA,NA,NA,NA,NA,6,#1CD855,#FA92F8,0,10,0,38,1,709,39,0,992.399999976158,10,1,experiment,NA,NA,1,0.3,0.7,3,2,125,3,NA
fcp-trial,160,844813,0.0-135.0-0.0,voc_e2,12192,"[{""event"":""fullscreenenter"",""trial"":1,""time"":4796}]",NA,NA,NA,NA,NA,4,#741CD8,#D8271C,10,0,1,38,1,421.2000000476837,37,1,720.3000000715256,10,1,experiment,NA,NA,0,0.9,0.1,0,1,126,3,NA
fcp-trial,161,848020,0.0-136.0-0.0,voc_e2,12192,"[{""event"":""fullscreenenter"",""trial"":1,""time"":4796}]",NA,NA,NA,NA,NA,0,#D8271C,#741CD8,0,10,0,38,1,411,39,0,1272.5,10,1,experiment,NA,NA,0,0.1,0.9,1,0,127,3,NA
fcp-trial,162,852243,0.0-137.0-0.0,voc_e2,12192,"[{""event"":""fullscreenenter"",""trial"":1,""time"":4796}]",NA,NA,NA,NA,NA,2,#FA92F8,#1CD855,0,10,1,38,1,418.8000000715256,37,1,2284.100000023842,0,1,experiment,NA,NA,1,0.7,0.3,2,3,128,3,NA
fcp-trial,163,854816,0.0-138.0-0.0,voc_e2,12192,"[{""event"":""fullscreenenter"",""trial"":1,""time"":4796}]",NA,NA,NA,NA,NA,1,#3386FF,#D89F1C,10,10,0,38,1,296,39,0,759.0999999046326,10,1,experiment,NA,NA,2,0.5,0.5,5,4,129,3,NA
fcp-trial,164,859760,0.0-139.0-0.0,voc_e2,12192,"[{""event"":""fullscreenenter"",""trial"":1,""time"":4796}]",NA,NA,NA,NA,NA,5,#741CD8,#D8271C,0,0,1,38,1,480,37,1,2947.6999999284744,0,1,experiment,NA,NA,0,0.9,0.1,0,1,130,3,NA
fcp-trial,165,864525,0.0-140.0-0.0,voc_e2,12192,"[{""event"":""fullscreenenter"",""trial"":1,""time"":4796}]",NA,NA,NA,NA,NA,0,#1CD855,#FA92F8,10,10,0,38,1,484.10000002384186,39,0,2756.5,10,1,experiment,NA,NA,1,0.3,0.7,3,2,131,3,NA
fcp-trial,166,867249,0.0-141.0-0.0,voc_e2,12192,"[{""event"":""fullscreenenter"",""trial"":1,""time"":4796}]",NA,NA,NA,NA,NA,3,#1CD855,#FA92F8,0,10,0,38,1,362.39999997615814,39,0,841.6000000238419,10,1,experiment,NA,NA,1,0.3,0.7,3,2,132,3,NA
fcp-trial,167,870782,0.0-142.0-0.0,voc_e2,12192,"[{""event"":""fullscreenenter"",""trial"":1,""time"":4796}]",NA,NA,NA,NA,NA,3,#3386FF,#D89F1C,0,0,0,38,1,381.7999999523163,39,0,1634.3000000715256,0,1,experiment,NA,NA,2,0.5,0.5,5,4,133,3,NA
fcp-trial,168,875915,0.0-143.0-0.0,voc_e2,12192,"[{""event"":""fullscreenenter"",""trial"":1,""time"":4796}]",NA,NA,NA,NA,NA,4,#D8271C,#741CD8,10,10,0,38,1,358.8000000715256,39,0,3256.5,10,1,experiment,NA,NA,0,0.1,0.9,1,0,134,3,NA
fcp-trial,169,879172,0.0-144.0-0.0,voc_e2,12192,"[{""event"":""fullscreenenter"",""trial"":1,""time"":4796}]",NA,NA,NA,NA,NA,0,#D89F1C,#3386FF,10,0,1,38,1,638.8999999761581,37,1,1106.6999999284744,10,1,experiment,NA,NA,2,0.5,0.5,4,5,135,3,NA
fcp-trial,170,881629,0.0-145.0-0.0,voc_e2,12192,"[{""event"":""fullscreenenter"",""trial"":1,""time"":4796}]",NA,NA,NA,NA,NA,2,#D8271C,#741CD8,0,10,0,38,1,599.2000000476837,39,0,337.40000009536743,10,1,experiment,NA,NA,0,0.1,0.9,1,0,136,4,NA
fcp-trial,171,884180,0.0-146.0-0.0,voc_e2,12192,"[{""event"":""fullscreenenter"",""trial"":1,""time"":4796}]",NA,NA,NA,NA,NA,1,#1CD855,#FA92F8,0,10,0,38,1,357.2999999523163,39,0,676.8000000715256,10,1,experiment,NA,NA,1,0.3,0.7,3,2,137,4,NA
fcp-trial,172,887054,0.0-147.0-0.0,voc_e2,12192,"[{""event"":""fullscreenenter"",""trial"":1,""time"":4796}]",NA,NA,NA,NA,NA,5,#D89F1C,#3386FF,0,10,1,38,1,338.5,37,1,1016.899999976158,0,1,experiment,NA,NA,2,0.5,0.5,4,5,138,4,NA
fcp-trial,173,890078,0.0-148.0-0.0,voc_e2,12192,"[{""event"":""fullscreenenter"",""trial"":1,""time"":4796}]",NA,NA,NA,NA,NA,1,#741CD8,#D8271C,10,0,1,38,1,332.39999997615814,37,1,1173.4000000953674,10,1,experiment,NA,NA,0,0.9,0.1,0,1,139,4,NA
fcp-trial,174,892450,0.0-149.0-0.0,voc_e2,12192,"[{""event"":""fullscreenenter"",""trial"":1,""time"":4796}]",NA,NA,NA,NA,NA,4,#1CD855,#FA92F8,0,10,0,38,1,303.7000000476837,39,0,550.8000000715256,10,1,experiment,NA,NA,1,0.3,0.7,3,2,140,4,NA
fcp-trial,175,895356,0.0-150.0-0.0,voc_e2,12192,"[{""event"":""fullscreenenter"",""trial"":1,""time"":4796}]",NA,NA,NA,NA,NA,4,#D89F1C,#3386FF,0,0,1,38,1,308.6999999284744,37,1,1078.899999976158,0,1,experiment,NA,NA,2,0.5,0.5,4,5,141,4,NA
fcp-trial,176,899103,0.0-151.0-0.0,voc_e2,12192,"[{""event"":""fullscreenenter"",""trial"":1,""time"":4796}]",NA,NA,NA,NA,NA,6,#741CD8,#D8271C,10,0,1,38,1,312.09999990463257,37,1,1917.9000000953672,10,1,experiment,NA,NA,0,0.9,0.1,0,1,142,4,NA
fcp-trial,177,901531,0.0-152.0-0.0,voc_e2,12192,"[{""event"":""fullscreenenter"",""trial"":1,""time"":4796}]",NA,NA,NA,NA,NA,5,#FA92F8,#1CD855,0,0,1,38,1,457.2000000476837,39,0,451.90000009536743,0,0,experiment,NA,NA,1,0.7,0.3,2,3,143,4,NA
fcp-trial,178,904953,0.0-153.0-0.0,voc_e2,12192,"[{""event"":""fullscreenenter"",""trial"":1,""time"":4796}]",NA,NA,NA,NA,NA,6,#1CD855,#FA92F8,0,10,0,38,1,428.2000000476837,39,0,1473.8000000715256,10,1,experiment,NA,NA,1,0.3,0.7,3,2,144,4,NA
fcp-trial,179,908398,0.0-154.0-0.0,voc_e2,12192,"[{""event"":""fullscreenenter"",""trial"":1,""time"":4796}]",NA,NA,NA,NA,NA,2,#3386FF,#D89F1C,10,10,0,38,1,552.6999999284744,39,0,1370,10,1,experiment,NA,NA,2,0.5,0.5,5,4,145,4,NA
fcp-trial,180,911105,0.0-155.0-0.0,voc_e2,12192,"[{""event"":""fullscreenenter"",""trial"":1,""time"":4796}]",NA,NA,NA,NA,NA,6,#D89F1C,#3386FF,10,10,1,38,1,693.7000000476837,37,1,499.10000002384186,10,1,experiment,NA,NA,2,0.5,0.5,4,5,146,4,NA
fcp-trial,181,914741,0.0-156.0-0.0,voc_e2,12192,"[{""event"":""fullscreenenter"",""trial"":1,""time"":4796}]",NA,NA,NA,NA,NA,3,#D8271C,#741CD8,0,10,0,38,1,640.5,39,0,1476.399999976158,10,1,experiment,NA,NA,0,0.1,0.9,1,0,147,4,NA
fcp-trial,182,919083,0.0-157.0-0.0,voc_e2,12192,"[{""event"":""fullscreenenter"",""trial"":1,""time"":4796}]",NA,NA,NA,NA,NA,4,#3386FF,#D89F1C,0,10,0,38,1,399.5,39,0,2426,10,1,experiment,NA,NA,2,0.5,0.5,5,4,148,4,NA
fcp-trial,183,921416,0.0-158.0-0.0,voc_e2,12192,"[{""event"":""fullscreenenter"",""trial"":1,""time"":4796}]",NA,NA,NA,NA,NA,0,#FA92F8,#1CD855,10,10,1,38,1,391.8000000715256,37,1,415.39999997615814,10,1,experiment,NA,NA,1,0.7,0.3,2,3,149,4,NA
fcp-trial,184,924484,0.0-159.0-0.0,voc_e2,12192,"[{""event"":""fullscreenenter"",""trial"":1,""time"":4796}]",NA,NA,NA,NA,NA,3,#D8271C,#741CD8,0,10,0,38,1,610.3000000715256,39,0,945,10,1,experiment,NA,NA,0,0.1,0.9,1,0,150,4,NA
fcp-trial,185,927927,0.0-160.0-0.0,voc_e2,12192,"[{""event"":""fullscreenenter"",""trial"":1,""time"":4796}]",NA,NA,NA,NA,NA,6,#D89F1C,#3386FF,10,10,1,38,1,740.6000000238419,37,1,1181.100000023842,10,1,experiment,NA,NA,2,0.5,0.5,4,5,151,4,NA
fcp-trial,186,930977,0.0-161.0-0.0,voc_e2,12192,"[{""event"":""fullscreenenter"",""trial"":1,""time"":4796}]",NA,NA,NA,NA,NA,5,#1CD855,#FA92F8,10,10,0,38,1,789.2000000476837,39,0,741.8999999761581,10,1,experiment,NA,NA,1,0.3,0.7,3,2,152,4,NA
fcp-trial,187,936676,0.0-162.0-0.0,voc_e2,12192,"[{""event"":""fullscreenenter"",""trial"":1,""time"":4796}]",NA,NA,NA,NA,NA,0,#D89F1C,#3386FF,0,10,1,38,1,613.1999999284744,37,1,3558.899999976158,0,1,experiment,NA,NA,2,0.5,0.5,4,5,153,4,NA
fcp-trial,188,939303,0.0-163.0-0.0,voc_e2,12192,"[{""event"":""fullscreenenter"",""trial"":1,""time"":4796}]",NA,NA,NA,NA,NA,6,#741CD8,#D8271C,10,0,1,38,1,510.2999999523163,37,1,592.8000000715256,10,1,experiment,NA,NA,0,0.9,0.1,0,1,154,4,NA
fcp-trial,189,942204,0.0-164.0-0.0,voc_e2,12192,"[{""event"":""fullscreenenter"",""trial"":1,""time"":4796}]",NA,NA,NA,NA,NA,5,#741CD8,#D8271C,10,0,1,38,1,352.2000000476837,37,1,1023.100000023842,10,1,experiment,NA,NA,0,0.9,0.1,0,1,155,4,NA
fcp-trial,190,944657,0.0-165.0-0.0,voc_e2,12192,"[{""event"":""fullscreenenter"",""trial"":1,""time"":4796}]",NA,NA,NA,NA,NA,1,#3386FF,#D89F1C,0,0,0,38,1,328.89999997615814,39,0,599.6000000238419,0,1,experiment,NA,NA,2,0.5,0.5,5,4,156,4,NA
fcp-trial,191,949164,0.0-166.0-0.0,voc_e2,12192,"[{""event"":""fullscreenenter"",""trial"":1,""time"":4796}]",NA,NA,NA,NA,NA,6,#1CD855,#FA92F8,0,10,0,38,1,307.5,39,0,2683.600000023842,10,1,experiment,NA,NA,1,0.3,0.7,3,2,157,4,NA
fcp-trial,192,951655,0.0-167.0-0.0,voc_e2,12192,"[{""event"":""fullscreenenter"",""trial"":1,""time"":4796}]",NA,NA,NA,NA,NA,0,#D8271C,#741CD8,0,10,0,38,1,561.7999999523163,39,0,411.10000002384186,10,1,experiment,NA,NA,0,0.1,0.9,1,0,158,4,NA
fcp-trial,193,955832,0.0-168.0-0.0,voc_e2,12192,"[{""event"":""fullscreenenter"",""trial"":1,""time"":4796}]",NA,NA,NA,NA,NA,3,#3386FF,#D89F1C,10,10,0,38,1,268.10000002384186,39,0,2388.899999976158,10,1,experiment,NA,NA,2,0.5,0.5,5,4,159,4,NA
fcp-trial,194,958338,0.0-169.0-0.0,voc_e2,12192,"[{""event"":""fullscreenenter"",""trial"":1,""time"":4796}]",NA,NA,NA,NA,NA,1,#D8271C,#741CD8,0,10,0,38,1,452.59999990463257,39,0,530.2000000476837,10,1,experiment,NA,NA,0,0.1,0.9,1,0,160,4,NA
fcp-trial,195,962698,0.0-170.0-0.0,voc_e2,12192,"[{""event"":""fullscreenenter"",""trial"":1,""time"":4796}]",NA,NA,NA,NA,NA,4,#741CD8,#D8271C,10,0,1,38,1,292.90000009536743,37,1,2547.5,10,1,experiment,NA,NA,0,0.9,0.1,0,1,161,4,NA
fcp-trial,196,966072,0.0-171.0-0.0,voc_e2,12192,"[{""event"":""fullscreenenter"",""trial"":1,""time"":4796}]",NA,NA,NA,NA,NA,1,#FA92F8,#1CD855,0,0,1,38,1,577.1999999284744,37,1,1282.4000000953674,0,1,experiment,NA,NA,1,0.7,0.3,2,3,162,4,NA
fcp-trial,197,968472,0.0-172.0-0.0,voc_e2,12192,"[{""event"":""fullscreenenter"",""trial"":1,""time"":4796}]",NA,NA,NA,NA,NA,3,#FA92F8,#1CD855,10,0,1,38,1,475.3000000715256,37,1,408.2000000476837,10,1,experiment,NA,NA,1,0.7,0.3,2,3,163,4,NA
fcp-trial,198,971038,0.0-173.0-0.0,voc_e2,12192,"[{""event"":""fullscreenenter"",""trial"":1,""time"":4796}]",NA,NA,NA,NA,NA,5,#D89F1C,#3386FF,0,0,1,38,1,324.2000000476837,37,1,720.6000000238419,0,1,experiment,NA,NA,2,0.5,0.5,4,5,164,4,NA
fcp-trial,199,973554,0.0-174.0-0.0,voc_e2,12192,"[{""event"":""fullscreenenter"",""trial"":1,""time"":4796}]",NA,NA,NA,NA,NA,2,#FA92F8,#1CD855,0,10,1,38,1,343.2999999523163,37,1,651.2000000476837,0,1,experiment,NA,NA,1,0.7,0.3,2,3,165,4,NA
fcp-trial,200,976449,0.0-175.0-0.0,voc_e2,12192,"[{""event"":""fullscreenenter"",""trial"":1,""time"":4796}]",NA,NA,NA,NA,NA,2,#741CD8,#D8271C,10,0,1,38,1,390.3000000715256,37,1,986,10,1,experiment,NA,NA,0,0.9,0.1,0,1,166,4,NA
fcp-trial,201,978797,0.0-176.0-0.0,voc_e2,12192,"[{""event"":""fullscreenenter"",""trial"":1,""time"":4796}]",NA,NA,NA,NA,NA,2,#D89F1C,#3386FF,0,10,1,38,1,383.8000000715256,37,1,443.40000009536743,0,1,experiment,NA,NA,2,0.5,0.5,4,5,167,4,NA
fcp-trial,202,985493,0.0-177.0-0.0,voc_e2,12192,"[{""event"":""fullscreenenter"",""trial"":1,""time"":4796}]",NA,NA,NA,NA,NA,4,#1CD855,#FA92F8,0,0,0,38,1,384.10000002384186,39,0,4791.199999928474,0,1,experiment,NA,NA,1,0.3,0.7,3,2,168,4,NA
fcp-trial,203,991660,0.0-178.0-0.0,voc_e2,12192,"[{""event"":""fullscreenenter"",""trial"":1,""time"":4796}]",NA,NA,NA,NA,NA,6,#D8271C,#741CD8,0,10,0,38,1,771.5,39,0,3883.399999976158,10,1,experiment,NA,NA,0,0.1,0.9,1,0,169,4,NA
fcp-trial,204,997082,0.0-179.0-0.0,voc_e2,12192,"[{""event"":""fullscreenenter"",""trial"":1,""time"":4796}]",NA,NA,NA,NA,NA,0,#741CD8,#D8271C,10,0,1,38,1,1501,37,1,2399.599999904633,10,1,experiment,NA,NA,0,0.9,0.1,0,1,170,4,NA
fcp-trial,205,1002398,0.0-180.0-0.0,voc_e2,12192,"[{""event"":""fullscreenenter"",""trial"":1,""time"":4796}]",NA,NA,NA,NA,NA,0,#FA92F8,#1CD855,10,0,1,38,1,720.8999999761581,37,1,3079.400000095367,10,1,experiment,NA,NA,1,0.7,0.3,2,3,171,4,NA
fcp-trial,206,1005514,0.0-181.0-0.0,voc_e2,12192,"[{""event"":""fullscreenenter"",""trial"":1,""time"":4796}]",NA,NA,NA,NA,NA,3,#D89F1C,#3386FF,0,10,1,38,1,807.3000000715256,37,1,793.5,0,1,experiment,NA,NA,2,0.5,0.5,4,5,172,4,NA
fcp-trial,207,1013116,0.0-182.0-0.0,voc_e2,12192,"[{""event"":""fullscreenenter"",""trial"":1,""time"":4796}]",NA,NA,NA,NA,NA,3,#D8271C,#741CD8,10,10,0,38,1,844.8999999761581,39,0,5234.600000023842,10,1,experiment,NA,NA,0,0.1,0.9,1,0,173,4,NA
fcp-trial,208,1015928,0.0-183.0-0.0,voc_e2,12192,"[{""event"":""fullscreenenter"",""trial"":1,""time"":4796}]",NA,NA,NA,NA,NA,4,#3386FF,#D89F1C,10,0,0,38,1,479.5,37,1,809.2000000476837,10,0,experiment,NA,NA,2,0.5,0.5,5,4,174,4,NA
fcp-trial,209,1020806,0.0-184.0-0.0,voc_e2,12192,"[{""event"":""fullscreenenter"",""trial"":1,""time"":4796}]",NA,NA,NA,NA,NA,3,#FA92F8,#1CD855,10,0,1,38,1,813.5999999046326,37,1,2538.600000023842,10,1,experiment,NA,NA,1,0.7,0.3,2,3,175,4,NA
fcp-trial,210,1028279,0.0-185.0-0.0,voc_e2,12192,"[{""event"":""fullscreenenter"",""trial"":1,""time"":4796}]",NA,NA,NA,NA,NA,1,#FA92F8,#1CD855,10,10,1,38,1,2433.9000000953674,37,1,3508.1999999284744,10,1,experiment,NA,NA,1,0.7,0.3,2,3,176,4,NA
fcp-trial,211,1031211,0.0-186.0-0.0,voc_e2,12192,"[{""event"":""fullscreenenter"",""trial"":1,""time"":4796}]",NA,NA,NA,NA,NA,5,#3386FF,#D89F1C,0,10,0,38,1,616.6000000238419,37,1,798.8999999761581,0,0,experiment,NA,NA,2,0.5,0.5,5,4,177,4,NA
fcp-trial,212,1035019,0.0-187.0-0.0,voc_e2,12192,"[{""event"":""fullscreenenter"",""trial"":1,""time"":4796}]",NA,NA,NA,NA,NA,1,#D8271C,#741CD8,0,10,0,38,1,1146.8000000715256,39,0,1151.2000000476835,10,1,experiment,NA,NA,0,0.1,0.9,1,0,178,4,NA
fcp-trial,213,1038566,0.0-188.0-0.0,voc_e2,12192,"[{""event"":""fullscreenenter"",""trial"":1,""time"":4796}]",NA,NA,NA,NA,NA,2,#FA92F8,#1CD855,10,0,1,38,1,1287.6999999284744,37,1,740.6000000238419,10,1,experiment,NA,NA,1,0.7,0.3,2,3,179,4,NA
fcp-trial,214,1042799,0.0-189.0-0.0,voc_e2,12192,"[{""event"":""fullscreenenter"",""trial"":1,""time"":4796}]",NA,NA,NA,NA,NA,6,#3386FF,#D89F1C,10,10,0,40,0,1430.2000000476837,39,0,1286.5,10,1,experiment,NA,NA,2,0.5,0.5,5,4,180,4,NA
fcp-trial,215,1049378,0.0-190.0-0.0,voc_e2,12192,"[{""event"":""fullscreenenter"",""trial"":1,""time"":4796}]",NA,NA,NA,NA,NA,0,#D89F1C,#3386FF,0,0,1,38,1,4423.700000047684,37,1,637.3999999761581,0,1,experiment,NA,NA,2,0.5,0.5,4,5,181,5,NA
fcp-trial,216,1056734,0.0-191.0-0.0,voc_e2,12192,"[{""event"":""fullscreenenter"",""trial"":1,""time"":4796}]",NA,NA,NA,NA,NA,6,#FA92F8,#1CD855,10,0,1,38,1,3587.7999999523163,37,1,2244.600000023842,10,1,experiment,NA,NA,1,0.7,0.3,2,3,182,5,NA
fcp-trial,217,1060930,0.0-192.0-0.0,voc_e2,12192,"[{""event"":""fullscreenenter"",""trial"":1,""time"":4796}]",NA,NA,NA,NA,NA,2,#741CD8,#D8271C,10,0,1,38,1,1261.2999999523163,37,1,1418,10,1,experiment,NA,NA,0,0.9,0.1,0,1,183,5,NA
fcp-trial,218,1065850,0.0-193.0-0.0,voc_e2,12192,"[{""event"":""fullscreenenter"",""trial"":1,""time"":4796}]",NA,NA,NA,NA,NA,4,#FA92F8,#1CD855,0,0,1,38,1,403.39999997615814,37,1,2992.2000000476837,0,1,experiment,NA,NA,1,0.7,0.3,2,3,184,5,NA
fcp-trial,219,1069260,0.0-194.0-0.0,voc_e2,12192,"[{""event"":""fullscreenenter"",""trial"":1,""time"":4796}]",NA,NA,NA,NA,NA,2,#3386FF,#D89F1C,10,10,0,38,1,1369.6000000238419,39,0,515.7000000476837,10,1,experiment,NA,NA,2,0.5,0.5,5,4,185,5,NA
fcp-trial,220,1074219,0.0-195.0-0.0,voc_e2,12192,"[{""event"":""fullscreenenter"",""trial"":1,""time"":4796}]",NA,NA,NA,NA,NA,5,#1CD855,#FA92F8,0,10,0,38,1,2273.5,39,0,1169.7999999523165,10,1,experiment,NA,NA,1,0.3,0.7,3,2,186,5,NA
fcp-trial,221,1077314,0.0-196.0-0.0,voc_e2,12192,"[{""event"":""fullscreenenter"",""trial"":1,""time"":4796}]",NA,NA,NA,NA,NA,1,#3386FF,#D89F1C,0,0,0,38,1,954.6000000238419,39,0,619.7999999523163,0,1,experiment,NA,NA,2,0.5,0.5,5,4,187,5,NA
fcp-trial,222,1083928,0.0-197.0-0.0,voc_e2,12192,"[{""event"":""fullscreenenter"",""trial"":1,""time"":4796}]",NA,NA,NA,NA,NA,4,#741CD8,#D8271C,10,0,1,38,1,4185,37,1,904,10,1,experiment,NA,NA,0,0.9,0.1,0,1,188,5,NA
fcp-trial,223,1087309,0.0-198.0-0.0,voc_e2,12192,"[{""event"":""fullscreenenter"",""trial"":1,""time"":4796}]",NA,NA,NA,NA,NA,5,#D8271C,#741CD8,0,10,0,38,1,809.1000000238419,39,0,1044.100000023842,10,1,experiment,NA,NA,0,0.1,0.9,1,0,189,5,NA
fcp-trial,224,1090303,0.0-199.0-0.0,voc_e2,12192,"[{""event"":""fullscreenenter"",""trial"":1,""time"":4796}]",NA,NA,NA,NA,NA,0,#D89F1C,#3386FF,10,0,1,38,1,1091.5,37,1,376.5,10,1,experiment,NA,NA,2,0.5,0.5,4,5,190,5,NA
fcp-trial,225,1093600,0.0-200.0-0.0,voc_e2,12192,"[{""event"":""fullscreenenter"",""trial"":1,""time"":4796}]",NA,NA,NA,NA,NA,6,#741CD8,#D8271C,10,0,1,40,0,981.1999999284744,39,0,801.6000000238419,0,0,experiment,NA,NA,0,0.9,0.1,0,1,191,5,NA
fcp-trial,226,1096991,0.0-201.0-0.0,voc_e2,12192,"[{""event"":""fullscreenenter"",""trial"":1,""time"":4796}]",NA,NA,NA,NA,NA,4,#D89F1C,#3386FF,0,0,1,38,1,539.1000000238419,37,1,1332.9000000953674,0,1,experiment,NA,NA,2,0.5,0.5,4,5,192,5,NA
fcp-trial,227,1100406,0.0-202.0-0.0,voc_e2,12192,"[{""event"":""fullscreenenter"",""trial"":1,""time"":4796}]",NA,NA,NA,NA,NA,1,#FA92F8,#1CD855,10,0,1,38,1,703.3000000715256,37,1,1189,10,1,experiment,NA,NA,1,0.7,0.3,2,3,193,5,NA
fcp-trial,228,1104706,0.0-203.0-0.0,voc_e2,12192,"[{""event"":""fullscreenenter"",""trial"":1,""time"":4796}]",NA,NA,NA,NA,NA,4,#741CD8,#D8271C,10,0,1,38,1,1577.8999999761581,37,1,1197.7000000476835,10,1,experiment,NA,NA,0,0.9,0.1,0,1,194,5,NA
fcp-trial,229,1108494,0.0-204.0-0.0,voc_e2,12192,"[{""event"":""fullscreenenter"",""trial"":1,""time"":4796}]",NA,NA,NA,NA,NA,2,#1CD855,#FA92F8,0,10,0,38,1,1414.6000000238419,39,0,853.2999999523163,10,1,experiment,NA,NA,1,0.3,0.7,3,2,195,5,NA
fcp-trial,230,1111992,0.0-205.0-0.0,voc_e2,12192,"[{""event"":""fullscreenenter"",""trial"":1,""time"":4796}]",NA,NA,NA,NA,NA,3,#741CD8,#D8271C,10,0,1,38,1,524.5,37,1,1449.7999999523165,10,1,experiment,NA,NA,0,0.9,0.1,0,1,196,5,NA
fcp-trial,231,1114745,0.0-206.0-0.0,voc_e2,12192,"[{""event"":""fullscreenenter"",""trial"":1,""time"":4796}]",NA,NA,NA,NA,NA,2,#D89F1C,#3386FF,0,10,1,38,1,816.2999999523163,37,1,423.5,0,1,experiment,NA,NA,2,0.5,0.5,4,5,197,5,NA
fcp-trial,232,1120270,0.0-207.0-0.0,voc_e2,12192,"[{""event"":""fullscreenenter"",""trial"":1,""time"":4796}]",NA,NA,NA,NA,NA,5,#D8271C,#741CD8,0,10,0,40,0,3296.7999999523163,39,0,704.2000000476837,10,1,experiment,NA,NA,0,0.1,0.9,1,0,198,5,NA
fcp-trial,233,1129043,0.0-208.0-0.0,voc_e2,12192,"[{""event"":""fullscreenenter"",""trial"":1,""time"":4796}]",NA,NA,NA,NA,NA,3,#3386FF,#D89F1C,0,0,0,38,1,1237.6999999284744,39,0,6013.800000071526,0,1,experiment,NA,NA,2,0.5,0.5,5,4,199,5,NA
fcp-trial,234,1134800,0.0-209.0-0.0,voc_e2,12192,"[{""event"":""fullscreenenter"",""trial"":1,""time"":4796}]",NA,NA,NA,NA,NA,5,#FA92F8,#1CD855,0,0,1,38,1,1014.8999999761581,37,1,3221.599999904633,0,1,experiment,NA,NA,1,0.7,0.3,2,3,200,5,NA
fcp-trial,235,1137728,0.0-210.0-0.0,voc_e2,12192,"[{""event"":""fullscreenenter"",""trial"":1,""time"":4796}]",NA,NA,NA,NA,NA,4,#1CD855,#FA92F8,0,10,0,38,1,927.1000000238419,39,0,472.39999997615814,10,1,experiment,NA,NA,1,0.3,0.7,3,2,201,5,NA
fcp-trial,236,1143858,0.0-211.0-0.0,voc_e2,12192,"[{""event"":""fullscreenenter"",""trial"":1,""time"":4796}]",NA,NA,NA,NA,NA,0,#D8271C,#741CD8,0,10,0,38,1,1982.5,39,0,2631.100000023842,10,1,experiment,NA,NA,0,0.1,0.9,1,0,202,5,NA
fcp-trial,237,1146844,0.0-212.0-0.0,voc_e2,12192,"[{""event"":""fullscreenenter"",""trial"":1,""time"":4796}]",NA,NA,NA,NA,NA,1,#3386FF,#D89F1C,0,10,0,38,1,644.5999999046326,39,0,820.6000000238419,10,1,experiment,NA,NA,2,0.5,0.5,5,4,203,5,NA
fcp-trial,238,1149666,0.0-213.0-0.0,voc_e2,12192,"[{""event"":""fullscreenenter"",""trial"":1,""time"":4796}]",NA,NA,NA,NA,NA,3,#FA92F8,#1CD855,10,0,1,38,1,649.3999999761581,37,1,655.2999999523163,10,1,experiment,NA,NA,1,0.7,0.3,2,3,204,5,NA
fcp-trial,239,1152663,0.0-214.0-0.0,voc_e2,12192,"[{""event"":""fullscreenenter"",""trial"":1,""time"":4796}]",NA,NA,NA,NA,NA,1,#D8271C,#741CD8,0,10,0,38,1,577.7000000476837,39,0,891.1000000238419,10,1,experiment,NA,NA,0,0.1,0.9,1,0,205,5,NA
fcp-trial,240,1155739,0.0-215.0-0.0,voc_e2,12192,"[{""event"":""fullscreenenter"",""trial"":1,""time"":4796}]",NA,NA,NA,NA,NA,6,#FA92F8,#1CD855,10,0,1,40,0,712.5,39,0,845,0,0,experiment,NA,NA,1,0.7,0.3,2,3,206,5,NA
fcp-trial,241,1160072,0.0-216.0-0.0,voc_e2,12192,"[{""event"":""fullscreenenter"",""trial"":1,""time"":4796}]",NA,NA,NA,NA,NA,6,#3386FF,#D89F1C,0,10,0,40,0,1656.2000000476837,39,0,1161.4000000953674,10,1,experiment,NA,NA,2,0.5,0.5,5,4,207,5,NA
fcp-trial,242,1164445,0.0-217.0-0.0,voc_e2,12192,"[{""event"":""fullscreenenter"",""trial"":1,""time"":4796}]",NA,NA,NA,NA,NA,0,#FA92F8,#1CD855,0,0,1,38,1,1807.6000000238419,37,1,1044.399999976158,0,1,experiment,NA,NA,1,0.7,0.3,2,3,208,5,NA
fcp-trial,243,1170145,0.0-218.0-0.0,voc_e2,12192,"[{""event"":""fullscreenenter"",""trial"":1,""time"":4796}]",NA,NA,NA,NA,NA,5,#D89F1C,#3386FF,0,10,1,40,0,2926.399999976158,39,0,1241.100000023842,10,0,experiment,NA,NA,2,0.5,0.5,4,5,209,5,NA
fcp-trial,244,1178568,0.0-219.0-0.0,voc_e2,12192,"[{""event"":""fullscreenenter"",""trial"":1,""time"":4796}]",NA,NA,NA,NA,NA,2,#741CD8,#D8271C,0,0,1,38,1,2062.7000000476837,37,1,4836.299999952316,0,1,experiment,NA,NA,0,0.9,0.1,0,1,210,5,NA
audio-instructions,245,1202357,0.0-220.0,voc_e2,12192,"[{""event"":""fullscreenenter"",""trial"":1,""time"":4796}]",NA,18883.60000002384,static/audio/pause.wav,NA,0,NA,NA,NA,NA,NA,NA,NA,NA,NA,NA,NA,NA,NA,NA,NA,NA,NA,NA,NA,NA,NA,NA,NA,NA,NA
fcp-trial,246,1208823,0.0-221.0-0.0,voc_e2,12192,"[{""event"":""fullscreenenter"",""trial"":1,""time"":4796}]",NA,NA,NA,NA,NA,4,#3386FF,#D89F1C,0,10,0,38,1,2016.3000000715256,39,0,2928.6999999284744,10,1,experiment,NA,NA,2,0.5,0.5,5,4,211,5,NA
fcp-trial,247,1212489,0.0-222.0-0.0,voc_e2,12192,"[{""event"":""fullscreenenter"",""trial"":1,""time"":4796}]",NA,NA,NA,NA,NA,0,#1CD855,#FA92F8,0,10,0,38,1,1650.6999999284744,39,0,494.7999999523163,10,1,experiment,NA,NA,1,0.3,0.7,3,2,212,5,NA
fcp-trial,248,1218021,0.0-223.0-0.0,voc_e2,12192,"[{""event"":""fullscreenenter"",""trial"":1,""time"":4796}]",NA,NA,NA,NA,NA,2,#D89F1C,#3386FF,0,10,1,38,1,3140.3000000715256,39,0,874.3999999761581,10,0,experiment,NA,NA,2,0.5,0.5,4,5,213,5,NA
fcp-trial,249,1221642,0.0-224.0-0.0,voc_e2,12192,"[{""event"":""fullscreenenter"",""trial"":1,""time"":4796}]",NA,NA,NA,NA,NA,2,#1CD855,#FA92F8,10,10,0,38,1,395.5,39,0,1708,10,1,experiment,NA,NA,1,0.3,0.7,3,2,214,5,NA
fcp-trial,250,1224903,0.0-225.0-0.0,voc_e2,12192,"[{""event"":""fullscreenenter"",""trial"":1,""time"":4796}]",NA,NA,NA,NA,NA,1,#D8271C,#741CD8,0,10,0,38,1,1455.5,39,0,298.2000000476837,10,1,experiment,NA,NA,0,0.1,0.9,1,0,215,5,NA
fcp-trial,251,1227814,0.0-226.0-0.0,voc_e2,12192,"[{""event"":""fullscreenenter"",""trial"":1,""time"":4796}]",NA,NA,NA,NA,NA,3,#3386FF,#D89F1C,10,0,0,38,1,672.7000000476837,39,0,720.1999999284744,0,1,experiment,NA,NA,2,0.5,0.5,5,4,216,5,NA
fcp-trial,252,1235034,0.0-227.0-0.0,voc_e2,12192,"[{""event"":""fullscreenenter"",""trial"":1,""time"":4796}]",NA,NA,NA,NA,NA,6,#741CD8,#D8271C,10,0,1,38,1,456.3000000715256,37,1,5247.199999928474,10,1,experiment,NA,NA,0,0.9,0.1,0,1,217,5,NA
fcp-trial,253,1238417,0.0-228.0-0.0,voc_e2,12192,"[{""event"":""fullscreenenter"",""trial"":1,""time"":4796}]",NA,NA,NA,NA,NA,1,#D89F1C,#3386FF,0,0,1,38,1,1340.2000000476837,37,1,516.3000000715256,0,1,experiment,NA,NA,2,0.5,0.5,4,5,218,5,NA
fcp-trial,254,1243992,0.0-229.0-0.0,voc_e2,12192,"[{""event"":""fullscreenenter"",""trial"":1,""time"":4796}]",NA,NA,NA,NA,NA,4,#1CD855,#FA92F8,0,10,0,38,1,1946.7000000476837,39,0,2112.600000023842,10,1,experiment,NA,NA,1,0.3,0.7,3,2,219,5,NA
fcp-trial,255,1247482,0.0-230.0-0.0,voc_e2,12192,"[{""event"":""fullscreenenter"",""trial"":1,""time"":4796}]",NA,NA,NA,NA,NA,5,#1CD855,#FA92F8,10,10,0,38,1,1366,39,0,606.3000000715256,10,1,experiment,NA,NA,1,0.3,0.7,3,2,220,5,NA
fcp-trial,256,1250448,0.0-231.0-0.0,voc_e2,12192,"[{""event"":""fullscreenenter"",""trial"":1,""time"":4796}]",NA,NA,NA,NA,NA,2,#D8271C,#741CD8,0,10,0,38,1,1027,39,0,418.89999997615814,10,1,experiment,NA,NA,0,0.1,0.9,1,0,221,5,NA
fcp-trial,257,1253584,0.0-232.0-0.0,voc_e2,12192,"[{""event"":""fullscreenenter"",""trial"":1,""time"":4796}]",NA,NA,NA,NA,NA,0,#741CD8,#D8271C,10,0,1,38,1,1202,37,1,415.6999999284744,10,1,experiment,NA,NA,0,0.9,0.1,0,1,222,5,NA
fcp-trial,258,1256755,0.0-233.0-0.0,voc_e2,12192,"[{""event"":""fullscreenenter"",""trial"":1,""time"":4796}]",NA,NA,NA,NA,NA,5,#D89F1C,#3386FF,0,0,1,40,0,890.5,37,1,767.5999999046326,0,1,experiment,NA,NA,2,0.5,0.5,4,5,223,5,NA
fcp-trial,259,1261579,0.0-234.0-0.0,voc_e2,12192,"[{""event"":""fullscreenenter"",""trial"":1,""time"":4796}]",NA,NA,NA,NA,NA,6,#1CD855,#FA92F8,0,10,0,38,1,679.5,39,0,2630.099999904633,10,1,experiment,NA,NA,1,0.3,0.7,3,2,224,5,NA
fcp-trial,260,1266286,0.0-235.0-0.0,voc_e2,12192,"[{""event"":""fullscreenenter"",""trial"":1,""time"":4796}]",NA,NA,NA,NA,NA,4,#741CD8,#D8271C,0,0,1,38,1,2832.5,37,1,354,0,1,experiment,NA,NA,0,0.9,0.1,0,1,225,5,NA
fcp-trial,261,1269222,0.0-236.0-0.0,voc_e2,12192,"[{""event"":""fullscreenenter"",""trial"":1,""time"":4796}]",NA,NA,NA,NA,NA,6,#D89F1C,#3386FF,10,10,1,38,1,631.1999999284744,39,0,783.8999999761581,10,0,experiment,NA,NA,2,0.5,0.5,4,5,226,6,NA
fcp-trial,262,1274821,0.0-237.0-0.0,voc_e2,12192,"[{""event"":""fullscreenenter"",""trial"":1,""time"":4796}]",NA,NA,NA,NA,NA,1,#1CD855,#FA92F8,0,0,0,38,1,2082.899999976158,39,0,2000.2999999523165,0,1,experiment,NA,NA,1,0.3,0.7,3,2,227,6,NA
fcp-trial,263,1281341,0.0-238.0-0.0,voc_e2,12192,"[{""event"":""fullscreenenter"",""trial"":1,""time"":4796}]",NA,NA,NA,NA,NA,3,#741CD8,#D8271C,10,0,1,38,1,2782.2000000476837,37,1,2223.7999999523163,10,1,experiment,NA,NA,0,0.9,0.1,0,1,228,6,NA
fcp-trial,264,1286305,0.0-239.0-0.0,voc_e2,12192,"[{""event"":""fullscreenenter"",""trial"":1,""time"":4796}]",NA,NA,NA,NA,NA,3,#FA92F8,#1CD855,0,10,1,38,1,1923.6000000238419,37,1,1517.5,0,1,experiment,NA,NA,1,0.7,0.3,2,3,229,6,NA
fcp-trial,265,1291034,0.0-240.0-0.0,voc_e2,12192,"[{""event"":""fullscreenenter"",""trial"":1,""time"":4796}]",NA,NA,NA,NA,NA,5,#D8271C,#741CD8,0,10,0,40,0,1491.6000000238419,37,1,1718.0999999046326,0,0,experiment,NA,NA,0,0.1,0.9,1,0,230,6,NA
fcp-trial,266,1295900,0.0-241.0-0.0,voc_e2,12192,"[{""event"":""fullscreenenter"",""trial"":1,""time"":4796}]",NA,NA,NA,NA,NA,0,#3386FF,#D89F1C,0,0,0,38,1,2052.600000023842,37,1,1290.600000023842,0,0,experiment,NA,NA,2,0.5,0.5,5,4,231,6,NA
fcp-trial,267,1300804,0.0-242.0-0.0,voc_e2,12192,"[{""event"":""fullscreenenter"",""trial"":1,""time"":4796}]",NA,NA,NA,NA,NA,1,#741CD8,#D8271C,10,0,1,38,1,1812.6000000238419,37,1,1567.7999999523165,10,1,experiment,NA,NA,0,0.9,0.1,0,1,232,6,NA
fcp-trial,268,1304378,0.0-243.0-0.0,voc_e2,12192,"[{""event"":""fullscreenenter"",""trial"":1,""time"":4796}]",NA,NA,NA,NA,NA,4,#3386FF,#D89F1C,10,0,0,38,1,1500.5,39,0,556.6999999284744,0,1,experiment,NA,NA,2,0.5,0.5,5,4,233,6,NA
fcp-trial,269,1309180,0.0-244.0-0.0,voc_e2,12192,"[{""event"":""fullscreenenter"",""trial"":1,""time"":4796}]",NA,NA,NA,NA,NA,4,#741CD8,#D8271C,0,0,1,38,1,1778.3999999761581,37,1,1507.5,0,1,experiment,NA,NA,0,0.9,0.1,0,1,234,6,NA
fcp-trial,270,1313063,0.0-245.0-0.0,voc_e2,12192,"[{""event"":""fullscreenenter"",""trial"":1,""time"":4796}]",NA,NA,NA,NA,NA,5,#FA92F8,#1CD855,10,0,1,40,0,1499.3999999761581,39,0,861.7999999523163,0,0,experiment,NA,NA,1,0.7,0.3,2,3,235,6,NA
fcp-trial,271,1317246,0.0-246.0-0.0,voc_e2,12192,"[{""event"":""fullscreenenter"",""trial"":1,""time"":4796}]",NA,NA,NA,NA,NA,6,#D8271C,#741CD8,0,10,0,40,0,1570.9000000953674,39,0,1095.7000000476835,10,1,experiment,NA,NA,0,0.1,0.9,1,0,236,6,NA
fcp-trial,272,1321695,0.0-247.0-0.0,voc_e2,12192,"[{""event"":""fullscreenenter"",""trial"":1,""time"":4796}]",NA,NA,NA,NA,NA,5,#3386FF,#D89F1C,10,0,0,40,0,1400.5,37,1,1521.399999976158,10,0,experiment,NA,NA,2,0.5,0.5,5,4,237,6,NA
fcp-trial,273,1326858,0.0-248.0-0.0,voc_e2,12192,"[{""event"":""fullscreenenter"",""trial"":1,""time"":4796}]",NA,NA,NA,NA,NA,3,#1CD855,#FA92F8,10,0,0,38,1,3335.7000000476837,39,0,313.2000000476837,0,1,experiment,NA,NA,1,0.3,0.7,3,2,238,6,NA
fcp-trial,274,1331642,0.0-249.0-0.0,voc_e2,12192,"[{""event"":""fullscreenenter"",""trial"":1,""time"":4796}]",NA,NA,NA,NA,NA,0,#741CD8,#D8271C,10,0,1,38,1,1596.8999999761581,37,1,1662.100000023842,10,1,experiment,NA,NA,0,0.9,0.1,0,1,239,6,NA
fcp-trial,275,1340490,0.0-250.0-0.0,voc_e2,12192,"[{""event"":""fullscreenenter"",""trial"":1,""time"":4796}]",NA,NA,NA,NA,NA,2,#1CD855,#FA92F8,0,10,0,38,1,1129.5,37,1,6198.400000095367,0,0,experiment,NA,NA,1,0.3,0.7,3,2,240,6,NA
fcp-trial,276,1345060,0.0-251.0-0.0,voc_e2,12192,"[{""event"":""fullscreenenter"",""trial"":1,""time"":4796}]",NA,NA,NA,NA,NA,1,#D89F1C,#3386FF,0,10,1,38,1,2768.8000000715256,39,0,279.2999999523163,10,0,experiment,NA,NA,2,0.5,0.5,4,5,241,6,NA
fcp-trial,277,1351138,0.0-252.0-0.0,voc_e2,12192,"[{""event"":""fullscreenenter"",""trial"":1,""time"":4796}]",NA,NA,NA,NA,NA,3,#D8271C,#741CD8,0,10,0,38,1,1952.2999999523163,39,0,2604.7999999523163,10,1,experiment,NA,NA,0,0.1,0.9,1,0,242,6,NA
fcp-trial,278,1355520,0.0-253.0-0.0,voc_e2,12192,"[{""event"":""fullscreenenter"",""trial"":1,""time"":4796}]",NA,NA,NA,NA,NA,6,#FA92F8,#1CD855,10,10,1,40,0,1827.6999999284744,37,1,1030.7999999523165,10,1,experiment,NA,NA,1,0.7,0.3,2,3,243,6,NA
fcp-trial,279,1360169,0.0-254.0-0.0,voc_e2,12192,"[{""event"":""fullscreenenter"",""trial"":1,""time"":4796}]",NA,NA,NA,NA,NA,4,#FA92F8,#1CD855,10,10,1,38,1,1443.1000000238419,37,1,1685.2000000476835,10,1,experiment,NA,NA,1,0.7,0.3,2,3,244,6,NA
fcp-trial,280,1363735,0.0-255.0-0.0,voc_e2,12192,"[{""event"":""fullscreenenter"",""trial"":1,""time"":4796}]",NA,NA,NA,NA,NA,6,#D89F1C,#3386FF,10,0,1,38,1,1132.5,39,0,912.5999999046326,0,0,experiment,NA,NA,2,0.5,0.5,4,5,245,6,NA
fcp-trial,281,1367618,0.0-256.0-0.0,voc_e2,12192,"[{""event"":""fullscreenenter"",""trial"":1,""time"":4796}]",NA,NA,NA,NA,NA,0,#3386FF,#D89F1C,10,0,0,38,1,1426.8999999761581,39,0,936.7999999523164,0,1,experiment,NA,NA,2,0.5,0.5,5,4,246,6,NA
fcp-trial,282,1374363,0.0-257.0-0.0,voc_e2,12192,"[{""event"":""fullscreenenter"",""trial"":1,""time"":4796}]",NA,NA,NA,NA,NA,2,#741CD8,#D8271C,0,0,1,38,1,4531.100000023842,37,1,691.5999999046326,0,1,experiment,NA,NA,0,0.9,0.1,0,1,247,6,NA
fcp-trial,283,1379553,0.0-258.0-0.0,voc_e2,12192,"[{""event"":""fullscreenenter"",""trial"":1,""time"":4796}]",NA,NA,NA,NA,NA,2,#D89F1C,#3386FF,0,10,1,38,1,1976.6999999284744,37,1,1693.5,0,1,experiment,NA,NA,2,0.5,0.5,4,5,248,6,NA
fcp-trial,284,1384380,0.0-259.0-0.0,voc_e2,12192,"[{""event"":""fullscreenenter"",""trial"":1,""time"":4796}]",NA,NA,NA,NA,NA,0,#FA92F8,#1CD855,10,0,1,38,1,1530.8000000715256,37,1,1773.600000023842,10,1,experiment,NA,NA,1,0.7,0.3,2,3,249,6,NA
fcp-trial,285,1391399,0.0-260.0-0.0,voc_e2,12192,"[{""event"":""fullscreenenter"",""trial"":1,""time"":4796}]",NA,NA,NA,NA,NA,1,#1CD855,#FA92F8,0,0,0,38,1,3498.2999999523163,39,0,1998.600000023842,0,1,experiment,NA,NA,1,0.3,0.7,3,2,250,6,NA
fcp-trial,286,1396607,0.0-261.0-0.0,voc_e2,12192,"[{""event"":""fullscreenenter"",""trial"":1,""time"":4796}]",NA,NA,NA,NA,NA,3,#3386FF,#D89F1C,10,10,0,38,1,702.5,39,0,2990.099999904633,10,1,experiment,NA,NA,2,0.5,0.5,5,4,251,6,NA
fcp-trial,287,1402634,0.0-262.0-0.0,voc_e2,12192,"[{""event"":""fullscreenenter"",""trial"":1,""time"":4796}]",NA,NA,NA,NA,NA,5,#D8271C,#741CD8,10,10,0,40,0,3493.600000023842,39,0,1018.100000023842,10,1,experiment,NA,NA,0,0.1,0.9,1,0,252,6,NA
fcp-trial,288,1410665,0.0-263.0-0.0,voc_e2,12192,"[{""event"":""fullscreenenter"",""trial"":1,""time"":4796}]",NA,NA,NA,NA,NA,1,#FA92F8,#1CD855,10,10,1,38,1,4847.899999976158,37,1,1664.8000000715256,10,1,experiment,NA,NA,1,0.7,0.3,2,3,253,6,NA
fcp-trial,289,1417190,0.0-264.0-0.0,voc_e2,12192,"[{""event"":""fullscreenenter"",""trial"":1,""time"":4796}]",NA,NA,NA,NA,NA,6,#741CD8,#D8271C,10,0,1,38,1,1679.6999999284744,37,1,3326.7999999523163,10,1,experiment,NA,NA,0,0.9,0.1,0,1,254,6,NA
fcp-trial,290,1421716,0.0-265.0-0.0,voc_e2,12192,"[{""event"":""fullscreenenter"",""trial"":1,""time"":4796}]",NA,NA,NA,NA,NA,3,#3386FF,#D89F1C,10,10,0,38,1,2710.100000023842,37,1,298.39999997615814,10,0,experiment,NA,NA,2,0.5,0.5,5,4,255,6,NA
fcp-trial,291,1426183,0.0-266.0-0.0,voc_e2,12192,"[{""event"":""fullscreenenter"",""trial"":1,""time"":4796}]",NA,NA,NA,NA,NA,4,#D8271C,#741CD8,0,10,0,38,1,2583.7000000476837,39,0,362.39999997615814,10,1,experiment,NA,NA,0,0.1,0.9,1,0,256,6,NA
fcp-trial,292,1429971,0.0-267.0-0.0,voc_e2,12192,"[{""event"":""fullscreenenter"",""trial"":1,""time"":4796}]",NA,NA,NA,NA,NA,4,#1CD855,#FA92F8,10,10,0,38,1,1232.8000000715256,39,0,1025.899999976158,10,1,experiment,NA,NA,1,0.3,0.7,3,2,257,6,NA
fcp-trial,293,1438179,0.0-268.0-0.0,voc_e2,12192,"[{""event"":""fullscreenenter"",""trial"":1,""time"":4796}]",NA,NA,NA,NA,NA,3,#1CD855,#FA92F8,0,10,0,38,1,4539.299999952316,39,0,2150.600000023842,10,1,experiment,NA,NA,1,0.3,0.7,3,2,258,6,NA
fcp-trial,294,1442879,0.0-269.0-0.0,voc_e2,12192,"[{""event"":""fullscreenenter"",""trial"":1,""time"":4796}]",NA,NA,NA,NA,NA,2,#3386FF,#D89F1C,10,10,0,38,1,1184.0999999046326,39,0,1991.399999976158,10,1,experiment,NA,NA,2,0.5,0.5,5,4,259,6,NA
fcp-trial,295,1445803,0.0-270.0-0.0,voc_e2,12192,"[{""event"":""fullscreenenter"",""trial"":1,""time"":4796}]",NA,NA,NA,NA,NA,0,#741CD8,#D8271C,10,0,1,38,1,1118.2000000476837,37,1,290.90000009536743,10,1,experiment,NA,NA,0,0.9,0.1,0,1,260,6,NA
fcp-trial,296,1449444,0.0-271.0-0.0,voc_e2,12192,"[{""event"":""fullscreenenter"",""trial"":1,""time"":4796}]",NA,NA,NA,NA,NA,1,#3386FF,#D89F1C,0,0,0,38,1,1023.1000000238419,39,0,1098.5,0,1,experiment,NA,NA,2,0.5,0.5,5,4,261,6,NA
fcp-trial,297,1451969,0.0-272.0-0.0,voc_e2,12192,"[{""event"":""fullscreenenter"",""trial"":1,""time"":4796}]",NA,NA,NA,NA,NA,5,#D89F1C,#3386FF,0,0,1,38,1,401.10000002384186,37,1,609.1000000238419,0,1,experiment,NA,NA,2,0.5,0.5,4,5,262,6,NA
fcp-trial,298,1455955,0.0-273.0-0.0,voc_e2,12192,"[{""event"":""fullscreenenter"",""trial"":1,""time"":4796}]",NA,NA,NA,NA,NA,5,#1CD855,#FA92F8,0,10,0,40,0,1246.7999999523163,39,0,1220.6999999284744,10,1,experiment,NA,NA,1,0.3,0.7,3,2,263,6,NA
fcp-trial,299,1460184,0.0-274.0-0.0,voc_e2,12192,"[{""event"":""fullscreenenter"",""trial"":1,""time"":4796}]",NA,NA,NA,NA,NA,1,#741CD8,#D8271C,10,0,1,38,1,1191.1000000238419,37,1,1508.2999999523165,10,1,experiment,NA,NA,0,0.9,0.1,0,1,264,6,NA
fcp-trial,300,1464033,0.0-275.0-0.0,voc_e2,12192,"[{""event"":""fullscreenenter"",""trial"":1,""time"":4796}]",NA,NA,NA,NA,NA,2,#FA92F8,#1CD855,0,0,1,38,1,1264.7000000476837,37,1,1064.1999999284744,0,1,experiment,NA,NA,1,0.7,0.3,2,3,265,6,NA
fcp-trial,301,1467482,0.0-276.0-0.0,voc_e2,12192,"[{""event"":""fullscreenenter"",""trial"":1,""time"":4796}]",NA,NA,NA,NA,NA,0,#1CD855,#FA92F8,10,10,0,38,1,1650.8999999761581,39,0,276.8000000715256,10,1,experiment,NA,NA,1,0.3,0.7,3,2,266,6,NA
fcp-trial,302,1476697,0.0-277.0-0.0,voc_e2,12192,"[{""event"":""fullscreenenter"",""trial"":1,""time"":4796}]",NA,NA,NA,NA,NA,0,#3386FF,#D89F1C,0,0,0,38,1,1381.3000000715256,39,0,6308.800000071526,0,1,experiment,NA,NA,2,0.5,0.5,5,4,267,6,NA
fcp-trial,303,1480990,0.0-278.0-0.0,voc_e2,12192,"[{""event"":""fullscreenenter"",""trial"":1,""time"":4796}]",NA,NA,NA,NA,NA,3,#741CD8,#D8271C,0,0,1,38,1,1103.6000000238419,37,1,1660.5,0,1,experiment,NA,NA,0,0.9,0.1,0,1,268,6,NA
fcp-trial,304,1485383,0.0-279.0-0.0,voc_e2,12192,"[{""event"":""fullscreenenter"",""trial"":1,""time"":4796}]",NA,NA,NA,NA,NA,2,#D8271C,#741CD8,0,0,0,38,1,2252.399999976158,39,0,619.3999999761581,0,1,experiment,NA,NA,0,0.1,0.9,1,0,269,6,NA
fcp-trial,305,1489211,0.0-280.0-0.0,voc_e2,12192,"[{""event"":""fullscreenenter"",""trial"":1,""time"":4796}]",NA,NA,NA,NA,NA,6,#1CD855,#FA92F8,0,10,0,40,0,1474.6999999284744,37,1,833.1999999284744,0,0,experiment,NA,NA,1,0.3,0.7,3,2,270,6,NA
fcp-trial,306,1495397,0.0-281.0-0.0,voc_e2,12192,"[{""event"":""fullscreenenter"",""trial"":1,""time"":4796}]",NA,NA,NA,NA,NA,6,#3386FF,#D89F1C,0,10,0,40,0,1316.8999999761581,37,1,3348.5,0,0,experiment,NA,NA,2,0.5,0.5,5,4,271,7,NA
fcp-trial,307,1504824,0.0-282.0-0.0,voc_e2,12192,"[{""event"":""fullscreenenter"",""trial"":1,""time"":4796}]",NA,NA,NA,NA,NA,5,#741CD8,#D8271C,10,0,1,38,1,2104.1999999284744,37,1,5809.200000047684,10,1,experiment,NA,NA,0,0.9,0.1,0,1,272,7,NA
fcp-trial,308,1511540,0.0-283.0-0.0,voc_e2,12192,"[{""event"":""fullscreenenter"",""trial"":1,""time"":4796}]",NA,NA,NA,NA,NA,4,#3386FF,#D89F1C,0,10,0,38,1,4001.5,39,0,1189.7999999523165,10,1,experiment,NA,NA,2,0.5,0.5,5,4,273,7,NA
fcp-trial,309,1514623,0.0-284.0-0.0,voc_e2,12192,"[{""event"":""fullscreenenter"",""trial"":1,""time"":4796}]",NA,NA,NA,NA,NA,1,#3386FF,#D89F1C,10,0,0,38,1,1223,39,0,342.10000002384186,0,1,experiment,NA,NA,2,0.5,0.5,5,4,274,7,NA
fcp-trial,310,1521892,0.0-285.0-0.0,voc_e2,12192,"[{""event"":""fullscreenenter"",""trial"":1,""time"":4796}]",NA,NA,NA,NA,NA,0,#FA92F8,#1CD855,10,10,1,38,1,1705.7000000476837,37,1,4047.600000023842,10,1,experiment,NA,NA,1,0.7,0.3,2,3,275,7,NA
fcp-trial,311,1527061,0.0-286.0-0.0,voc_e2,12192,"[{""event"":""fullscreenenter"",""trial"":1,""time"":4796}]",NA,NA,NA,NA,NA,5,#D8271C,#741CD8,0,10,0,38,1,1392.5,39,0,2255.3000000715256,10,1,experiment,NA,NA,0,0.1,0.9,1,0,276,7,NA
fcp-trial,312,1530944,0.0-287.0-0.0,voc_e2,12192,"[{""event"":""fullscreenenter"",""trial"":1,""time"":4796}]",NA,NA,NA,NA,NA,3,#741CD8,#D8271C,0,0,1,38,1,1762,37,1,603.7000000476837,0,1,experiment,NA,NA,0,0.9,0.1,0,1,277,7,NA
fcp-trial,313,1535478,0.0-288.0-0.0,voc_e2,12192,"[{""event"":""fullscreenenter"",""trial"":1,""time"":4796}]",NA,NA,NA,NA,NA,5,#3386FF,#D89F1C,0,10,0,38,1,553.7999999523163,37,1,2460.5,0,0,experiment,NA,NA,2,0.5,0.5,5,4,278,7,NA
fcp-trial,314,1540109,0.0-289.0-0.0,voc_e2,12192,"[{""event"":""fullscreenenter"",""trial"":1,""time"":4796}]",NA,NA,NA,NA,NA,2,#741CD8,#D8271C,10,0,1,38,1,2401.4000000953674,37,1,707,10,1,experiment,NA,NA,0,0.9,0.1,0,1,279,7,NA
fcp-trial,315,1544424,0.0-290.0-0.0,voc_e2,12192,"[{""event"":""fullscreenenter"",""trial"":1,""time"":4796}]",NA,NA,NA,NA,NA,1,#FA92F8,#1CD855,10,0,1,38,1,1982.0999999046326,37,1,815.5,10,1,experiment,NA,NA,1,0.7,0.3,2,3,280,7,NA
fcp-trial,316,1547328,0.0-291.0-0.0,voc_e2,12192,"[{""event"":""fullscreenenter"",""trial"":1,""time"":4796}]",NA,NA,NA,NA,NA,0,#D89F1C,#3386FF,10,0,1,38,1,1039.7999999523163,39,0,339.7999999523163,0,0,experiment,NA,NA,2,0.5,0.5,4,5,281,7,NA
fcp-trial,317,1550745,0.0-292.0-0.0,voc_e2,12192,"[{""event"":""fullscreenenter"",""trial"":1,""time"":4796}]",NA,NA,NA,NA,NA,0,#D8271C,#741CD8,10,0,0,38,1,822.5,39,0,1067.7000000476835,0,1,experiment,NA,NA,0,0.1,0.9,1,0,282,7,NA
fcp-trial,318,1553427,0.0-293.0-0.0,voc_e2,12192,"[{""event"":""fullscreenenter"",""trial"":1,""time"":4796}]",NA,NA,NA,NA,NA,3,#D89F1C,#3386FF,0,0,1,38,1,594.6000000238419,37,1,563.2000000476837,0,1,experiment,NA,NA,2,0.5,0.5,4,5,283,7,NA
fcp-trial,319,1556680,0.0-294.0-0.0,voc_e2,12192,"[{""event"":""fullscreenenter"",""trial"":1,""time"":4796}]",NA,NA,NA,NA,NA,3,#FA92F8,#1CD855,10,0,1,38,1,708.8999999761581,37,1,1026.399999976158,10,1,experiment,NA,NA,1,0.7,0.3,2,3,284,7,NA
fcp-trial,320,1564175,0.0-295.0-0.0,voc_e2,12192,"[{""event"":""fullscreenenter"",""trial"":1,""time"":4796}]",NA,NA,NA,NA,NA,5,#FA92F8,#1CD855,10,10,1,40,0,1809.1000000238419,37,1,4171.699999928474,10,1,experiment,NA,NA,1,0.7,0.3,2,3,285,7,NA
fcp-trial,321,1567635,0.0-296.0-0.0,voc_e2,12192,"[{""event"":""fullscreenenter"",""trial"":1,""time"":4796}]",NA,NA,NA,NA,NA,4,#741CD8,#D8271C,10,0,1,38,1,1593,37,1,346.2000000476837,10,1,experiment,NA,NA,0,0.9,0.1,0,1,286,7,NA
fcp-trial,322,1571140,0.0-297.0-0.0,voc_e2,12192,"[{""event"":""fullscreenenter"",""trial"":1,""time"":4796}]",NA,NA,NA,NA,NA,1,#D8271C,#741CD8,0,10,0,38,1,1704.5,39,0,275.89999997615814,10,1,experiment,NA,NA,0,0.1,0.9,1,0,287,7,NA
fcp-trial,323,1574731,0.0-298.0-0.0,voc_e2,12192,"[{""event"":""fullscreenenter"",""trial"":1,""time"":4796}]",NA,NA,NA,NA,NA,6,#D89F1C,#3386FF,10,10,1,38,1,1596,37,1,472.6999999284744,10,1,experiment,NA,NA,2,0.5,0.5,4,5,288,7,NA
fcp-trial,324,1577974,0.0-299.0-0.0,voc_e2,12192,"[{""event"":""fullscreenenter"",""trial"":1,""time"":4796}]",NA,NA,NA,NA,NA,6,#1CD855,#FA92F8,0,10,0,40,0,778.5,39,0,942.7999999523164,10,1,experiment,NA,NA,1,0.3,0.7,3,2,289,7,NA
fcp-trial,325,1583212,0.0-300.0-0.0,voc_e2,12192,"[{""event"":""fullscreenenter"",""trial"":1,""time"":4796}]",NA,NA,NA,NA,NA,2,#3386FF,#D89F1C,0,0,0,38,1,1159.6000000238419,39,0,2557.100000023842,0,1,experiment,NA,NA,2,0.5,0.5,5,4,290,7,NA
fcp-trial,326,1588537,0.0-301.0-0.0,voc_e2,12192,"[{""event"":""fullscreenenter"",""trial"":1,""time"":4796}]",NA,NA,NA,NA,NA,6,#D8271C,#741CD8,0,10,0,40,0,2805.0999999046326,37,1,996.7000000476836,0,0,experiment,NA,NA,0,0.1,0.9,1,0,291,7,NA
fcp-trial,327,1594452,0.0-302.0-0.0,voc_e2,12192,"[{""event"":""fullscreenenter"",""trial"":1,""time"":4796}]",NA,NA,NA,NA,NA,4,#1CD855,#FA92F8,0,10,0,38,1,1103.8000000715256,39,0,3290.3000000715256,10,1,experiment,NA,NA,1,0.3,0.7,3,2,292,7,NA
fcp-trial,328,1598185,0.0-303.0-0.0,voc_e2,12192,"[{""event"":""fullscreenenter"",""trial"":1,""time"":4796}]",NA,NA,NA,NA,NA,4,#D89F1C,#3386FF,0,10,1,38,1,1760.2999999523163,37,1,447.1999999284744,0,1,experiment,NA,NA,2,0.5,0.5,4,5,293,7,NA
fcp-trial,329,1607466,0.0-304.0-0.0,voc_e2,12192,"[{""event"":""fullscreenenter"",""trial"":1,""time"":4796}]",NA,NA,NA,NA,NA,2,#FA92F8,#1CD855,0,0,1,38,1,3520.7000000476837,37,1,4242.5,0,1,experiment,NA,NA,1,0.7,0.3,2,3,294,7,NA
fcp-trial,330,1611228,0.0-305.0-0.0,voc_e2,12192,"[{""event"":""fullscreenenter"",""trial"":1,""time"":4796}]",NA,NA,NA,NA,NA,5,#741CD8,#D8271C,10,0,1,40,0,1301.7000000476837,39,0,938.1999999284744,0,0,experiment,NA,NA,0,0.9,0.1,0,1,295,7,NA
fcp-trial,331,1615609,0.0-306.0-0.0,voc_e2,12192,"[{""event"":""fullscreenenter"",""trial"":1,""time"":4796}]",NA,NA,NA,NA,NA,3,#3386FF,#D89F1C,0,10,0,38,1,2033.3000000715256,37,1,827.8999999761581,0,0,experiment,NA,NA,2,0.5,0.5,5,4,296,7,NA
fcp-trial,332,1623369,0.0-307.0-0.0,voc_e2,12192,"[{""event"":""fullscreenenter"",""trial"":1,""time"":4796}]",NA,NA,NA,NA,NA,1,#1CD855,#FA92F8,0,0,0,38,1,1157.6000000238419,39,0,5081.5,0,1,experiment,NA,NA,1,0.3,0.7,3,2,297,7,NA
fcp-trial,333,1627531,0.0-308.0-0.0,voc_e2,12192,"[{""event"":""fullscreenenter"",""trial"":1,""time"":4796}]",NA,NA,NA,NA,NA,2,#FA92F8,#1CD855,10,10,1,38,1,1152.2999999523163,37,1,1489.7999999523165,10,1,experiment,NA,NA,1,0.7,0.3,2,3,298,7,NA
fcp-trial,334,1631347,0.0-309.0-0.0,voc_e2,12192,"[{""event"":""fullscreenenter"",""trial"":1,""time"":4796}]",NA,NA,NA,NA,NA,2,#D89F1C,#3386FF,10,10,1,38,1,1705.4000000953674,37,1,590.1999999284744,10,1,experiment,NA,NA,2,0.5,0.5,4,5,299,7,NA
fcp-trial,335,1634463,0.0-310.0-0.0,voc_e2,12192,"[{""event"":""fullscreenenter"",""trial"":1,""time"":4796}]",NA,NA,NA,NA,NA,2,#741CD8,#D8271C,10,0,1,38,1,980.3000000715256,37,1,618.3999999761581,10,1,experiment,NA,NA,0,0.9,0.1,0,1,300,7,NA
fcp-trial,336,1637270,0.0-311.0-0.0,voc_e2,12192,"[{""event"":""fullscreenenter"",""trial"":1,""time"":4796}]",NA,NA,NA,NA,NA,1,#3386FF,#D89F1C,10,0,0,38,1,856.3999999761581,37,1,434.60000002384186,10,0,experiment,NA,NA,2,0.5,0.5,5,4,301,7,NA
fcp-trial,337,1641906,0.0-312.0-0.0,voc_e2,12192,"[{""event"":""fullscreenenter"",""trial"":1,""time"":4796}]",NA,NA,NA,NA,NA,0,#741CD8,#D8271C,10,0,1,38,1,1104.8999999761581,37,1,2006.2999999523165,10,1,experiment,NA,NA,0,0.9,0.1,0,1,302,7,NA
fcp-trial,338,1646094,0.0-313.0-0.0,voc_e2,12192,"[{""event"":""fullscreenenter"",""trial"":1,""time"":4796}]",NA,NA,NA,NA,NA,5,#FA92F8,#1CD855,10,0,1,40,0,1657.1000000238419,39,0,1009.1999999284744,0,0,experiment,NA,NA,1,0.7,0.3,2,3,303,7,NA
fcp-trial,339,1650960,0.0-314.0-0.0,voc_e2,12192,"[{""event"":""fullscreenenter"",""trial"":1,""time"":4796}]",NA,NA,NA,NA,NA,5,#D89F1C,#3386FF,0,0,1,40,0,2094.5,37,1,1244.899999976158,0,1,experiment,NA,NA,2,0.5,0.5,4,5,304,7,NA
fcp-trial,340,1656542,0.0-315.0-0.0,voc_e2,12192,"[{""event"":""fullscreenenter"",""trial"":1,""time"":4796}]",NA,NA,NA,NA,NA,6,#1CD855,#FA92F8,0,10,0,40,0,3265,37,1,794.5,0,0,experiment,NA,NA,1,0.3,0.7,3,2,305,7,NA
fcp-trial,341,1663944,0.0-316.0-0.0,voc_e2,12192,"[{""event"":""fullscreenenter"",""trial"":1,""time"":4796}]",NA,NA,NA,NA,NA,3,#FA92F8,#1CD855,10,0,1,38,1,5479.300000071526,37,1,397.6999999284744,10,1,experiment,NA,NA,1,0.7,0.3,2,3,306,7,NA
fcp-trial,342,1668231,0.0-317.0-0.0,voc_e2,12192,"[{""event"":""fullscreenenter"",""trial"":1,""time"":4796}]",NA,NA,NA,NA,NA,6,#D8271C,#741CD8,0,10,0,40,0,2193.899999976158,39,0,577.1000000238419,10,1,experiment,NA,NA,0,0.1,0.9,1,0,307,7,NA
fcp-trial,343,1672142,0.0-318.0-0.0,voc_e2,12192,"[{""event"":""fullscreenenter"",""trial"":1,""time"":4796}]",NA,NA,NA,NA,NA,6,#3386FF,#D89F1C,0,10,0,40,0,1550.3999999761581,39,0,844.3999999761581,10,1,experiment,NA,NA,2,0.5,0.5,5,4,308,7,NA
fcp-trial,344,1680670,0.0-319.0-0.0,voc_e2,12192,"[{""event"":""fullscreenenter"",""trial"":1,""time"":4796}]",NA,NA,NA,NA,NA,4,#741CD8,#D8271C,10,0,1,38,1,2678.399999976158,37,1,4333.400000095367,10,1,experiment,NA,NA,0,0.9,0.1,0,1,309,7,NA
fcp-trial,345,1684112,0.0-320.0-0.0,voc_e2,12192,"[{""event"":""fullscreenenter"",""trial"":1,""time"":4796}]",NA,NA,NA,NA,NA,1,#D8271C,#741CD8,0,10,0,38,1,1658.8000000715256,39,0,263,10,1,experiment,NA,NA,0,0.1,0.9,1,0,310,7,NA
fcp-trial,346,1687224,0.0-321.0-0.0,voc_e2,12192,"[{""event"":""fullscreenenter"",""trial"":1,""time"":4796}]",NA,NA,NA,NA,NA,0,#FA92F8,#1CD855,10,0,1,38,1,1312.5,37,1,284.7999999523163,10,1,experiment,NA,NA,1,0.7,0.3,2,3,311,7,NA
fcp-trial,347,1691579,0.0-322.0-0.0,voc_e2,12192,"[{""event"":""fullscreenenter"",""trial"":1,""time"":4796}]",NA,NA,NA,NA,NA,3,#D8271C,#741CD8,0,10,0,38,1,1193.1999999284744,39,0,1641.7000000476835,10,1,experiment,NA,NA,0,0.1,0.9,1,0,312,7,NA
fcp-trial,348,1696102,0.0-323.0-0.0,voc_e2,12192,"[{""event"":""fullscreenenter"",""trial"":1,""time"":4796}]",NA,NA,NA,NA,NA,0,#D89F1C,#3386FF,0,10,1,38,1,1142.3999999761581,37,1,1863,0,1,experiment,NA,NA,2,0.5,0.5,4,5,313,7,NA
fcp-trial,349,1701700,0.0-324.0-0.0,voc_e2,12192,"[{""event"":""fullscreenenter"",""trial"":1,""time"":4796}]",NA,NA,NA,NA,NA,4,#1CD855,#FA92F8,0,0,0,38,1,1412.8000000715256,39,0,2660.7000000476837,0,1,experiment,NA,NA,1,0.3,0.7,3,2,314,7,NA
fcp-trial,350,1709166,0.0-325.0-0.0,voc_e2,12192,"[{""event"":""fullscreenenter"",""trial"":1,""time"":4796}]",NA,NA,NA,NA,NA,4,#D89F1C,#3386FF,10,10,1,38,1,1379.3999999761581,37,1,4561.899999976158,10,1,experiment,NA,NA,2,0.5,0.5,4,5,315,7,NA
audio-instructions,351,1716549,0.0-326.0,voc_e2,12192,"[{""event"":""fullscreenenter"",""trial"":1,""time"":4796}]",NA,1243.899999976158,static/audio/finished.wav,NA,0,NA,NA,NA,NA,NA,NA,NA,NA,NA,NA,NA,NA,NA,NA,NA,NA,NA,NA,NA,NA,NA,NA,NA,NA,NA
audio-instructions,352,1729298,0.0-327.0-0.0,voc_e2,12192,"[{""event"":""fullscreenenter"",""trial"":1,""time"":4796}]",NA,1911.7000000476835,static/audio/explicit1.wav,NA,0,NA,NA,NA,NA,NA,NA,NA,NA,NA,NA,NA,NA,NA,NA,NA,NA,NA,NA,NA,NA,NA,NA,NA,NA,NA
audio-instructions,353,1739971,0.0-327.0-1.0,voc_e2,12192,"[{""event"":""fullscreenenter"",""trial"":1,""time"":4796}]",NA,3075.099999904633,static/audio/explicit2.wav,NA,0,NA,NA,NA,NA,NA,NA,NA,NA,NA,NA,NA,NA,NA,NA,NA,NA,NA,NA,NA,NA,NA,NA,NA,NA,NA
image-slider-response,354,1754616,0.0-328.0,voc_e2,12192,"[{""event"":""fullscreenenter"",""trial"":1,""time"":4796}]",NA,14639.799999952316,static/img/machines/machine5.png,NA,NA,NA,NA,NA,NA,NA,NA,NA,NA,NA,NA,NA,NA,NA,NA,explicit,NA,NA,NA,NA,NA,NA,NA,NA,NA,7
image-slider-response,355,1761950,0.0-329.0,voc_e2,12192,"[{""event"":""fullscreenenter"",""trial"":1,""time"":4796}]",NA,7331.5,static/img/machines/machine6.png,NA,NA,NA,NA,NA,NA,NA,NA,NA,NA,NA,NA,NA,NA,NA,NA,explicit,NA,NA,NA,NA,NA,NA,NA,NA,NA,2
image-slider-response,356,1772205,0.0-330.0,voc_e2,12192,"[{""event"":""fullscreenenter"",""trial"":1,""time"":4796}]",NA,10253.600000023842,static/img/machines/machine4.png,NA,NA,NA,NA,NA,NA,NA,NA,NA,NA,NA,NA,NA,NA,NA,NA,explicit,NA,NA,NA,NA,NA,NA,NA,NA,NA,5
image-slider-response,357,1778666,0.0-331.0,voc_e2,12192,"[{""event"":""fullscreenenter"",""trial"":1,""time"":4796}]",NA,6459.199999928474,static/img/machines/machine2.png,NA,NA,NA,NA,NA,NA,NA,NA,NA,NA,NA,NA,NA,NA,NA,NA,explicit,NA,NA,NA,NA,NA,NA,NA,NA,NA,7
image-slider-response,358,1796734,0.0-332.0,voc_e2,12192,"[{""event"":""fullscreenenter"",""trial"":1,""time"":4796}]",NA,18066.10000002384,static/img/machines/machine1.png,NA,NA,NA,NA,NA,NA,NA,NA,NA,NA,NA,NA,NA,NA,NA,NA,explicit,NA,NA,NA,NA,NA,NA,NA,NA,NA,2
image-slider-response,359,1818511,0.0-333.0,voc_e2,12192,"[{""event"":""fullscreenenter"",""trial"":1,""time"":4796}]",NA,21781.5,static/img/machines/machine3.png,NA,NA,NA,NA,NA,NA,NA,NA,NA,NA,NA,NA,NA,NA,NA,NA,explicit,NA,NA,NA,NA,NA,NA,NA,NA,NA,5
