trial_type,trial_index,time_elapsed,internal_node_id,task_version,subject_id,interactions,success,rt,stimulus,key_press,button_pressed,offer,arcade_color_L,arcade_color_R,arcade_outcome_L,arcade_outcome_R,correct,stage_1_key,stage_1_choice,stage_1_rt,stage_2_key,stage_2_choice,stage_2_rt,stage_3_outcome,accuracy,phase,responses,num_errors,context,reward_prob_L,reward_prob_R,arcade_id_L,arcade_id_R,trial,block,response
pavlovia,0,6,0.0-0.0,voc_e2,12098,[],NA,NA,NA,NA,NA,NA,NA,NA,NA,NA,NA,NA,NA,NA,NA,NA,NA,NA,NA,NA,NA,NA,NA,NA,NA,NA,NA,NA,NA,NA
fullscreen,1,6537,0.0-1.0,voc_e2,12098,"[{""event"":""fullscreenenter"",""trial"":1,""time"":5564}]",TRUE,NA,NA,NA,NA,NA,NA,NA,NA,NA,NA,NA,NA,NA,NA,NA,NA,NA,NA,NA,NA,NA,NA,NA,NA,NA,NA,NA,NA,NA
audio-keyboard-response,2,10110,0.0-2.0,voc_e2,12098,"[{""event"":""fullscreenenter"",""trial"":1,""time"":5564}]",NA,3181,static/audio/beep_loop.wav,32,NA,NA,NA,NA,NA,NA,NA,NA,NA,NA,NA,NA,NA,NA,NA,NA,NA,NA,NA,NA,NA,NA,NA,NA,NA,NA
audio-test,3,49350,0.0-3.0,voc_e2,12098,"[{""event"":""fullscreenenter"",""trial"":1,""time"":5564},{""event"":""blur"",""trial"":3,""time"":33098},{""event"":""focus"",""trial"":3,""time"":39728}]",NA,NA,static/audio/turtle.wav,NA,3,NA,NA,NA,NA,NA,NA,NA,NA,NA,NA,NA,NA,NA,NA,NA,NA,NA,NA,NA,NA,NA,NA,NA,NA,NA
audio-test,4,53903,0.0-4.0,voc_e2,12098,"[{""event"":""fullscreenenter"",""trial"":1,""time"":5564},{""event"":""blur"",""trial"":3,""time"":33098},{""event"":""focus"",""trial"":3,""time"":39728}]",NA,NA,static/audio/shark.wav,NA,2,NA,NA,NA,NA,NA,NA,NA,NA,NA,NA,NA,NA,NA,NA,NA,NA,NA,NA,NA,NA,NA,NA,NA,NA,NA
audio-instructions,5,63398,0.0-5.0-0.0,voc_e2,12098,"[{""event"":""fullscreenenter"",""trial"":1,""time"":5564},{""event"":""blur"",""trial"":3,""time"":33098},{""event"":""focus"",""trial"":3,""time"":39728}]",NA,3704.800000011921,static/audio/instructions1.wav,NA,0,NA,NA,NA,NA,NA,NA,NA,NA,NA,NA,NA,NA,NA,NA,NA,NA,NA,NA,NA,NA,NA,NA,NA,NA,NA
audio-instructions,6,74911,0.0-5.0-1.0,voc_e2,12098,"[{""event"":""fullscreenenter"",""trial"":1,""time"":5564},{""event"":""blur"",""trial"":3,""time"":33098},{""event"":""focus"",""trial"":3,""time"":39728}]",NA,4766.5999999940395,static/audio/instructions2.wav,NA,0,NA,NA,NA,NA,NA,NA,NA,NA,NA,NA,NA,NA,NA,NA,NA,NA,NA,NA,NA,NA,NA,NA,NA,NA,NA
audio-instructions,7,90366,0.0-5.0-2.0,voc_e2,12098,"[{""event"":""fullscreenenter"",""trial"":1,""time"":5564},{""event"":""blur"",""trial"":3,""time"":33098},{""event"":""focus"",""trial"":3,""time"":39728}]",NA,9652.90000000596,static/audio/instructions3.wav,NA,0,NA,NA,NA,NA,NA,NA,NA,NA,NA,NA,NA,NA,NA,NA,NA,NA,NA,NA,NA,NA,NA,NA,NA,NA,NA
audio-instructions,8,111710,0.0-5.0-3.0,voc_e2,12098,"[{""event"":""fullscreenenter"",""trial"":1,""time"":5564},{""event"":""blur"",""trial"":3,""time"":33098},{""event"":""focus"",""trial"":3,""time"":39728}]",NA,8116.800000011921,static/audio/instructions4.wav,NA,0,NA,NA,NA,NA,NA,NA,NA,NA,NA,NA,NA,NA,NA,NA,NA,NA,NA,NA,NA,NA,NA,NA,NA,NA,NA
audio-instructions,9,122190,0.0-5.0-4.0,voc_e2,12098,"[{""event"":""fullscreenenter"",""trial"":1,""time"":5564},{""event"":""blur"",""trial"":3,""time"":33098},{""event"":""focus"",""trial"":3,""time"":39728}]",NA,1096.4000000059605,static/audio/instructions5.wav,NA,0,NA,NA,NA,NA,NA,NA,NA,NA,NA,NA,NA,NA,NA,NA,NA,NA,NA,NA,NA,NA,NA,NA,NA,NA,NA
fcp-practice,10,127076,0.0-5.0-5.0-0.0,voc_e2,12098,"[{""event"":""fullscreenenter"",""trial"":1,""time"":5564},{""event"":""blur"",""trial"":3,""time"":33098},{""event"":""focus"",""trial"":3,""time"":39728}]",NA,NA,NA,NA,NA,NA,#EDC948,#46d3c8,10,0,1,null,null,null,37,1,3373.7999999821186,10,1,practice,NA,NA,NA,NA,NA,NA,NA,NA,NA,NA
fcp-practice,11,129258,0.0-5.0-5.0-1.0,voc_e2,12098,"[{""event"":""fullscreenenter"",""trial"":1,""time"":5564},{""event"":""blur"",""trial"":3,""time"":33098},{""event"":""focus"",""trial"":3,""time"":39728}]",NA,NA,NA,NA,NA,NA,#EDC948,#46d3c8,10,0,1,null,null,null,37,1,668.8999999761581,10,1,practice,NA,NA,NA,NA,NA,NA,NA,NA,NA,NA
fcp-practice,12,131295,0.0-5.0-5.0-2.0,voc_e2,12098,"[{""event"":""fullscreenenter"",""trial"":1,""time"":5564},{""event"":""blur"",""trial"":3,""time"":33098},{""event"":""focus"",""trial"":3,""time"":39728}]",NA,NA,NA,NA,NA,NA,#EDC948,#46d3c8,0,10,1,null,null,null,37,1,526.3000000119209,0,1,practice,NA,NA,NA,NA,NA,NA,NA,NA,NA,NA
fcp-practice,13,133259,0.0-5.0-5.0-3.0,voc_e2,12098,"[{""event"":""fullscreenenter"",""trial"":1,""time"":5564},{""event"":""blur"",""trial"":3,""time"":33098},{""event"":""focus"",""trial"":3,""time"":39728}]",NA,NA,NA,NA,NA,NA,#EDC948,#46d3c8,10,0,1,null,null,null,37,1,450.60000002384186,10,1,practice,NA,NA,NA,NA,NA,NA,NA,NA,NA,NA
fcp-practice,14,135359,0.0-5.0-5.0-4.0,voc_e2,12098,"[{""event"":""fullscreenenter"",""trial"":1,""time"":5564},{""event"":""blur"",""trial"":3,""time"":33098},{""event"":""focus"",""trial"":3,""time"":39728}]",NA,NA,NA,NA,NA,NA,#EDC948,#46d3c8,10,0,1,null,null,null,37,1,590.5999999940395,10,1,practice,NA,NA,NA,NA,NA,NA,NA,NA,NA,NA
audio-instructions,15,156286,0.0-5.0-6.0,voc_e2,12098,"[{""event"":""fullscreenenter"",""trial"":1,""time"":5564},{""event"":""blur"",""trial"":3,""time"":33098},{""event"":""focus"",""trial"":3,""time"":39728}]",NA,2923,static/audio/instructions6.wav,NA,0,NA,NA,NA,NA,NA,NA,NA,NA,NA,NA,NA,NA,NA,NA,NA,NA,NA,NA,NA,NA,NA,NA,NA,NA,NA
audio-instructions,16,177406,0.0-5.0-7.0,voc_e2,12098,"[{""event"":""fullscreenenter"",""trial"":1,""time"":5564},{""event"":""blur"",""trial"":3,""time"":33098},{""event"":""focus"",""trial"":3,""time"":39728}]",NA,1923.0999999940395,static/audio/instructions7.wav,NA,0,NA,NA,NA,NA,NA,NA,NA,NA,NA,NA,NA,NA,NA,NA,NA,NA,NA,NA,NA,NA,NA,NA,NA,NA,NA
audio-instructions,17,187646,0.0-5.0-8.0,voc_e2,12098,"[{""event"":""fullscreenenter"",""trial"":1,""time"":5564},{""event"":""blur"",""trial"":3,""time"":33098},{""event"":""focus"",""trial"":3,""time"":39728}]",NA,762.3000000119209,static/audio/instructions8.wav,NA,0,NA,NA,NA,NA,NA,NA,NA,NA,NA,NA,NA,NA,NA,NA,NA,NA,NA,NA,NA,NA,NA,NA,NA,NA,NA
fcp-comprehension,18,199870,0.0-5.0-9.0,voc_e2,12098,"[{""event"":""fullscreenenter"",""trial"":1,""time"":5564},{""event"":""blur"",""trial"":3,""time"":33098},{""event"":""focus"",""trial"":3,""time"":39728}]",NA,12222.600000023842,NA,NA,NA,NA,NA,NA,NA,NA,NA,NA,NA,NA,NA,NA,NA,NA,NA,NA,"true,true",0,NA,NA,NA,NA,NA,NA,NA,NA
audio-instructions,19,207264,0.0-6.0-0.0,voc_e2,12098,"[{""event"":""fullscreenenter"",""trial"":1,""time"":5564},{""event"":""blur"",""trial"":3,""time"":33098},{""event"":""focus"",""trial"":3,""time"":39728}]",NA,1841.7999999821184,static/audio/instructions9.wav,NA,0,NA,NA,NA,NA,NA,NA,NA,NA,NA,NA,NA,NA,NA,NA,NA,NA,NA,NA,NA,NA,NA,NA,NA,NA,NA
audio-instructions,20,224718,0.0-6.0-1.0,voc_e2,12098,"[{""event"":""fullscreenenter"",""trial"":1,""time"":5564},{""event"":""blur"",""trial"":3,""time"":33098},{""event"":""focus"",""trial"":3,""time"":39728}]",NA,5335.199999988079,static/audio/instructions10.wav,NA,0,NA,NA,NA,NA,NA,NA,NA,NA,NA,NA,NA,NA,NA,NA,NA,NA,NA,NA,NA,NA,NA,NA,NA,NA,NA
fcp-trial,21,230588,0.0-6.0-2.0,voc_e2,12098,"[{""event"":""fullscreenenter"",""trial"":1,""time"":5564},{""event"":""blur"",""trial"":3,""time"":33098},{""event"":""focus"",""trial"":3,""time"":39728}]",NA,NA,NA,NA,NA,0,#EDC948,#46d3c8,10,10,1,38,1,3021.4000000059605,39,0,1319.600000023842,10,0,practice,NA,NA,NA,NA,NA,NA,NA,NA,NA,NA
audio-instructions,22,243094,0.0-6.0-3.0,voc_e2,12098,"[{""event"":""fullscreenenter"",""trial"":1,""time"":5564},{""event"":""blur"",""trial"":3,""time"":33098},{""event"":""focus"",""trial"":3,""time"":39728}]",NA,1500.2999999821186,static/audio/instructions11.wav,NA,0,NA,NA,NA,NA,NA,NA,NA,NA,NA,NA,NA,NA,NA,NA,NA,NA,NA,NA,NA,NA,NA,NA,NA,NA,NA
fcp-trial,23,248290,0.0-6.0-4.0,voc_e2,12098,"[{""event"":""fullscreenenter"",""trial"":1,""time"":5564},{""event"":""blur"",""trial"":3,""time"":33098},{""event"":""focus"",""trial"":3,""time"":39728}]",NA,NA,NA,NA,NA,6,#EDC948,#46d3c8,10,10,1,40,0,2402.7999999821186,39,0,1275.100000023842,10,0,practice,NA,NA,NA,NA,NA,NA,NA,NA,NA,NA
audio-instructions,24,268605,0.0-6.0-5.0,voc_e2,12098,"[{""event"":""fullscreenenter"",""trial"":1,""time"":5564},{""event"":""blur"",""trial"":3,""time"":33098},{""event"":""focus"",""trial"":3,""time"":39728}]",NA,1621.5999999940395,static/audio/instructions12.wav,NA,0,NA,NA,NA,NA,NA,NA,NA,NA,NA,NA,NA,NA,NA,NA,NA,NA,NA,NA,NA,NA,NA,NA,NA,NA,NA
audio-instructions,25,278916,0.0-6.0-6.0,voc_e2,12098,"[{""event"":""fullscreenenter"",""trial"":1,""time"":5564},{""event"":""blur"",""trial"":3,""time"":33098},{""event"":""focus"",""trial"":3,""time"":39728}]",NA,2714,static/audio/instructions13.wav,NA,0,NA,NA,NA,NA,NA,NA,NA,NA,NA,NA,NA,NA,NA,NA,NA,NA,NA,NA,NA,NA,NA,NA,NA,NA,NA
audio-instructions,26,289245,0.0-6.0-7.0,voc_e2,12098,"[{""event"":""fullscreenenter"",""trial"":1,""time"":5564},{""event"":""blur"",""trial"":3,""time"":33098},{""event"":""focus"",""trial"":3,""time"":39728}]",NA,1884,static/audio/instructions14.wav,NA,0,NA,NA,NA,NA,NA,NA,NA,NA,NA,NA,NA,NA,NA,NA,NA,NA,NA,NA,NA,NA,NA,NA,NA,NA,NA
audio-instructions,27,297245,0.0-7.0-0.0,voc_e2,12098,"[{""event"":""fullscreenenter"",""trial"":1,""time"":5564},{""event"":""blur"",""trial"":3,""time"":33098},{""event"":""focus"",""trial"":3,""time"":39728}]",NA,1082.7000000178814,static/audio/instructions15.wav,NA,0,NA,NA,NA,NA,NA,NA,NA,NA,NA,NA,NA,NA,NA,NA,NA,NA,NA,NA,NA,NA,NA,NA,NA,NA,NA
audio-instructions,28,306861,0.0-7.0-1.0,voc_e2,12098,"[{""event"":""fullscreenenter"",""trial"":1,""time"":5564},{""event"":""blur"",""trial"":3,""time"":33098},{""event"":""focus"",""trial"":3,""time"":39728}]",NA,2788.2000000178814,static/audio/instructions16.wav,NA,0,NA,NA,NA,NA,NA,NA,NA,NA,NA,NA,NA,NA,NA,NA,NA,NA,NA,NA,NA,NA,NA,NA,NA,NA,NA
audio-instructions,29,318607,0.0-7.0-2.0,voc_e2,12098,"[{""event"":""fullscreenenter"",""trial"":1,""time"":5564},{""event"":""blur"",""trial"":3,""time"":33098},{""event"":""focus"",""trial"":3,""time"":39728}]",NA,4065.300000011921,static/audio/instructions17.wav,NA,0,NA,NA,NA,NA,NA,NA,NA,NA,NA,NA,NA,NA,NA,NA,NA,NA,NA,NA,NA,NA,NA,NA,NA,NA,NA
audio-instructions,30,327397,0.0-7.0-3.0,voc_e2,12098,"[{""event"":""fullscreenenter"",""trial"":1,""time"":5564},{""event"":""blur"",""trial"":3,""time"":33098},{""event"":""focus"",""trial"":3,""time"":39728}]",NA,1023.9000000059604,static/audio/instructions18.wav,NA,0,NA,NA,NA,NA,NA,NA,NA,NA,NA,NA,NA,NA,NA,NA,NA,NA,NA,NA,NA,NA,NA,NA,NA,NA,NA
audio-instructions,31,335285,0.0-7.0-4.0,voc_e2,12098,"[{""event"":""fullscreenenter"",""trial"":1,""time"":5564},{""event"":""blur"",""trial"":3,""time"":33098},{""event"":""focus"",""trial"":3,""time"":39728}]",NA,1143.2000000178814,static/audio/instructions19.wav,NA,0,NA,NA,NA,NA,NA,NA,NA,NA,NA,NA,NA,NA,NA,NA,NA,NA,NA,NA,NA,NA,NA,NA,NA,NA,NA
fcp-comprehension,32,348790,0.0-7.0-5.0,voc_e2,12098,"[{""event"":""fullscreenenter"",""trial"":1,""time"":5564},{""event"":""blur"",""trial"":3,""time"":33098},{""event"":""focus"",""trial"":3,""time"":39728}]",NA,13503,NA,NA,NA,NA,NA,NA,NA,NA,NA,NA,NA,NA,NA,NA,NA,NA,NA,NA,"false,false,false,true",0,NA,NA,NA,NA,NA,NA,NA,NA
audio-instructions,33,362029,0.0-8.0,voc_e2,12098,"[{""event"":""fullscreenenter"",""trial"":1,""time"":5564},{""event"":""blur"",""trial"":3,""time"":33098},{""event"":""focus"",""trial"":3,""time"":39728}]",NA,4016.900000005961,static/audio/ready.wav,NA,0,NA,NA,NA,NA,NA,NA,NA,NA,NA,NA,NA,NA,NA,NA,NA,NA,NA,NA,NA,NA,NA,NA,NA,NA,NA
fcp-trial,34,366892,0.0-9.0-0.0,voc_e2,12098,"[{""event"":""fullscreenenter"",""trial"":1,""time"":5564},{""event"":""blur"",""trial"":3,""time"":33098},{""event"":""focus"",""trial"":3,""time"":39728}]",NA,NA,NA,NA,NA,4,#D89F1C,#3386FF,10,0,1,40,0,2251.4000000059605,37,1,1103,10,1,experiment,NA,NA,0,0.9,0.1,0,1,1,1,NA
fcp-trial,35,370590,0.0-10.0-0.0,voc_e2,12098,"[{""event"":""fullscreenenter"",""trial"":1,""time"":5564},{""event"":""blur"",""trial"":3,""time"":33098},{""event"":""focus"",""trial"":3,""time"":39728}]",NA,NA,NA,NA,NA,2,#3386FF,#D89F1C,0,10,0,38,1,1518.699999988079,39,0,662.5999999940395,10,1,experiment,NA,NA,0,0.1,0.9,1,0,2,1,NA
fcp-trial,36,374291,0.0-11.0-0.0,voc_e2,12098,"[{""event"":""fullscreenenter"",""trial"":1,""time"":5564},{""event"":""blur"",""trial"":3,""time"":33098},{""event"":""focus"",""trial"":3,""time"":39728}]",NA,NA,NA,NA,NA,6,#D8271C,#741CD8,10,10,1,40,0,1352.0999999940395,39,0,831.5999999940395,10,0,experiment,NA,NA,2,0.5,0.5,4,5,3,1,NA
fcp-trial,37,377825,0.0-12.0-0.0,voc_e2,12098,"[{""event"":""fullscreenenter"",""trial"":1,""time"":5564},{""event"":""blur"",""trial"":3,""time"":33098},{""event"":""focus"",""trial"":3,""time"":39728}]",NA,NA,NA,NA,NA,5,#1CD855,#FA92F8,0,0,1,40,0,1418.800000011921,37,1,591.4000000059605,0,1,experiment,NA,NA,1,0.7,0.3,2,3,4,1,NA
fcp-trial,38,380975,0.0-13.0-0.0,voc_e2,12098,"[{""event"":""fullscreenenter"",""trial"":1,""time"":5564},{""event"":""blur"",""trial"":3,""time"":33098},{""event"":""focus"",""trial"":3,""time"":39728}]",NA,NA,NA,NA,NA,2,#1CD855,#FA92F8,10,0,1,38,1,1046.7999999821186,39,0,592,0,0,experiment,NA,NA,1,0.7,0.3,2,3,5,1,NA
fcp-trial,39,384779,0.0-14.0-0.0,voc_e2,12098,"[{""event"":""fullscreenenter"",""trial"":1,""time"":5564},{""event"":""blur"",""trial"":3,""time"":33098},{""event"":""focus"",""trial"":3,""time"":39728}]",NA,NA,NA,NA,NA,6,#D89F1C,#3386FF,10,0,1,40,0,1602,39,0,695.2000000178814,0,0,experiment,NA,NA,0,0.9,0.1,0,1,6,1,NA
fcp-trial,40,390258,0.0-15.0-0.0,voc_e2,12098,"[{""event"":""fullscreenenter"",""trial"":1,""time"":5564},{""event"":""blur"",""trial"":3,""time"":33098},{""event"":""focus"",""trial"":3,""time"":39728}]",NA,NA,NA,NA,NA,1,#3386FF,#D89F1C,0,0,0,38,1,3013.4000000059605,39,0,959.2999999821186,0,1,experiment,NA,NA,0,0.1,0.9,1,0,7,1,NA
fcp-trial,41,394914,0.0-16.0-0.0,voc_e2,12098,"[{""event"":""fullscreenenter"",""trial"":1,""time"":5564},{""event"":""blur"",""trial"":3,""time"":33098},{""event"":""focus"",""trial"":3,""time"":39728}]",NA,NA,NA,NA,NA,2,#D8271C,#741CD8,10,0,1,40,0,2316.7999999821186,37,1,832.1000000238419,10,1,experiment,NA,NA,2,0.5,0.5,4,5,8,1,NA
fcp-trial,42,399505,0.0-17.0-0.0,voc_e2,12098,"[{""event"":""fullscreenenter"",""trial"":1,""time"":5564},{""event"":""blur"",""trial"":3,""time"":33098},{""event"":""focus"",""trial"":3,""time"":39728}]",NA,NA,NA,NA,NA,4,#1CD855,#FA92F8,10,0,1,38,1,2397.5,39,0,686.4000000059605,0,0,experiment,NA,NA,1,0.7,0.3,2,3,9,1,NA
fcp-trial,43,402674,0.0-18.0-0.0,voc_e2,12098,"[{""event"":""fullscreenenter"",""trial"":1,""time"":5564},{""event"":""blur"",""trial"":3,""time"":33098},{""event"":""focus"",""trial"":3,""time"":39728}]",NA,NA,NA,NA,NA,5,#D89F1C,#3386FF,10,0,1,38,1,1111.7000000178814,39,0,551.4000000059605,0,0,experiment,NA,NA,0,0.9,0.1,0,1,10,1,NA
fcp-trial,44,407258,0.0-19.0-0.0,voc_e2,12098,"[{""event"":""fullscreenenter"",""trial"":1,""time"":5564},{""event"":""blur"",""trial"":3,""time"":33098},{""event"":""focus"",""trial"":3,""time"":39728}]",NA,NA,NA,NA,NA,0,#1CD855,#FA92F8,10,0,1,38,1,2238.100000023842,37,1,838.3000000119209,10,1,experiment,NA,NA,1,0.7,0.3,2,3,11,1,NA
fcp-trial,45,411267,0.0-20.0-0.0,voc_e2,12098,"[{""event"":""fullscreenenter"",""trial"":1,""time"":5564},{""event"":""blur"",""trial"":3,""time"":33098},{""event"":""focus"",""trial"":3,""time"":39728}]",NA,NA,NA,NA,NA,0,#D8271C,#741CD8,0,0,1,38,1,1805.1000000238419,39,0,695.8000000119209,0,0,experiment,NA,NA,2,0.5,0.5,4,5,12,1,NA
fcp-trial,46,414269,0.0-21.0-0.0,voc_e2,12098,"[{""event"":""fullscreenenter"",""trial"":1,""time"":5564},{""event"":""blur"",""trial"":3,""time"":33098},{""event"":""focus"",""trial"":3,""time"":39728}]",NA,NA,NA,NA,NA,1,#D8271C,#741CD8,0,10,1,38,1,923.7999999821186,39,0,569.4000000059605,10,0,experiment,NA,NA,2,0.5,0.5,4,5,13,1,NA
fcp-trial,47,417354,0.0-22.0-0.0,voc_e2,12098,"[{""event"":""fullscreenenter"",""trial"":1,""time"":5564},{""event"":""blur"",""trial"":3,""time"":33098},{""event"":""focus"",""trial"":3,""time"":39728}]",NA,NA,NA,NA,NA,3,#FA92F8,#1CD855,0,0,0,38,1,1029.0999999940395,39,0,549.4000000059605,0,1,experiment,NA,NA,1,0.3,0.7,3,2,14,1,NA
fcp-trial,48,420770,0.0-23.0-0.0,voc_e2,12098,"[{""event"":""fullscreenenter"",""trial"":1,""time"":5564},{""event"":""blur"",""trial"":3,""time"":33098},{""event"":""focus"",""trial"":3,""time"":39728}]",NA,NA,NA,NA,NA,3,#3386FF,#D89F1C,0,10,0,38,1,861.8999999761581,39,0,1048,10,1,experiment,NA,NA,0,0.1,0.9,1,0,15,1,NA
fcp-trial,49,423882,0.0-24.0-0.0,voc_e2,12098,"[{""event"":""fullscreenenter"",""trial"":1,""time"":5564},{""event"":""blur"",""trial"":3,""time"":33098},{""event"":""focus"",""trial"":3,""time"":39728}]",NA,NA,NA,NA,NA,5,#741CD8,#D8271C,10,10,0,38,1,956.7999999821186,37,1,646.5,10,0,experiment,NA,NA,2,0.5,0.5,5,4,16,1,NA
fcp-trial,50,428291,0.0-25.0-0.0,voc_e2,12098,"[{""event"":""fullscreenenter"",""trial"":1,""time"":5564},{""event"":""blur"",""trial"":3,""time"":33098},{""event"":""focus"",""trial"":3,""time"":39728}]",NA,NA,NA,NA,NA,1,#1CD855,#FA92F8,10,10,1,40,0,2215.9000000059605,37,1,686.3000000119209,10,1,experiment,NA,NA,1,0.7,0.3,2,3,17,1,NA
fcp-trial,51,431840,0.0-26.0-0.0,voc_e2,12098,"[{""event"":""fullscreenenter"",""trial"":1,""time"":5564},{""event"":""blur"",""trial"":3,""time"":33098},{""event"":""focus"",""trial"":3,""time"":39728}]",NA,NA,NA,NA,NA,3,#D8271C,#741CD8,0,10,1,38,1,1308.9000000059605,39,0,732.1999999880791,10,0,experiment,NA,NA,2,0.5,0.5,4,5,18,1,NA
fcp-trial,52,434953,0.0-27.0-0.0,voc_e2,12098,"[{""event"":""fullscreenenter"",""trial"":1,""time"":5564},{""event"":""blur"",""trial"":3,""time"":33098},{""event"":""focus"",""trial"":3,""time"":39728}]",NA,NA,NA,NA,NA,6,#1CD855,#FA92F8,10,0,1,40,0,903.2000000178814,39,0,703.4000000059605,0,0,experiment,NA,NA,1,0.7,0.3,2,3,19,1,NA
fcp-trial,53,438633,0.0-28.0-0.0,voc_e2,12098,"[{""event"":""fullscreenenter"",""trial"":1,""time"":5564},{""event"":""blur"",""trial"":3,""time"":33098},{""event"":""focus"",""trial"":3,""time"":39728}]",NA,NA,NA,NA,NA,0,#D89F1C,#3386FF,10,0,1,38,1,1618.699999988079,39,0,556.4000000059605,0,0,experiment,NA,NA,0,0.9,0.1,0,1,20,1,NA
fcp-trial,54,442146,0.0-29.0-0.0,voc_e2,12098,"[{""event"":""fullscreenenter"",""trial"":1,""time"":5564},{""event"":""blur"",""trial"":3,""time"":33098},{""event"":""focus"",""trial"":3,""time"":39728}]",NA,NA,NA,NA,NA,4,#D8271C,#741CD8,10,10,1,40,0,1399.7999999821186,39,0,606.9000000059605,10,0,experiment,NA,NA,2,0.5,0.5,4,5,21,1,NA
fcp-trial,55,445677,0.0-30.0-0.0,voc_e2,12098,"[{""event"":""fullscreenenter"",""trial"":1,""time"":5564},{""event"":""blur"",""trial"":3,""time"":33098},{""event"":""focus"",""trial"":3,""time"":39728}]",NA,NA,NA,NA,NA,6,#1CD855,#FA92F8,0,10,1,40,0,1382.0999999940395,39,0,637.5999999940395,10,0,experiment,NA,NA,1,0.7,0.3,2,3,22,1,NA
fcp-trial,56,449281,0.0-31.0-0.0,voc_e2,12098,"[{""event"":""fullscreenenter"",""trial"":1,""time"":5564},{""event"":""blur"",""trial"":3,""time"":33098},{""event"":""focus"",""trial"":3,""time"":39728}]",NA,NA,NA,NA,NA,6,#741CD8,#D8271C,10,0,0,40,0,1458.699999988079,37,1,636,10,0,experiment,NA,NA,2,0.5,0.5,5,4,23,1,NA
fcp-trial,57,453785,0.0-32.0-0.0,voc_e2,12098,"[{""event"":""fullscreenenter"",""trial"":1,""time"":5564},{""event"":""blur"",""trial"":3,""time"":33098},{""event"":""focus"",""trial"":3,""time"":39728}]",NA,NA,NA,NA,NA,3,#741CD8,#D8271C,10,10,0,38,1,1847.699999988079,37,1,1150.0999999940395,10,0,experiment,NA,NA,2,0.5,0.5,5,4,24,1,NA
fcp-trial,58,457934,0.0-33.0-0.0,voc_e2,12098,"[{""event"":""fullscreenenter"",""trial"":1,""time"":5564},{""event"":""blur"",""trial"":3,""time"":33098},{""event"":""focus"",""trial"":3,""time"":39728}]",NA,NA,NA,NA,NA,5,#3386FF,#D89F1C,0,10,0,40,0,2094.5999999940395,39,0,544.1000000238419,10,1,experiment,NA,NA,0,0.1,0.9,1,0,25,1,NA
fcp-trial,59,461753,0.0-34.0-0.0,voc_e2,12098,"[{""event"":""fullscreenenter"",""trial"":1,""time"":5564},{""event"":""blur"",""trial"":3,""time"":33098},{""event"":""focus"",""trial"":3,""time"":39728}]",NA,NA,NA,NA,NA,3,#FA92F8,#1CD855,0,0,0,40,0,1760.5,37,1,551.3000000119209,0,0,experiment,NA,NA,1,0.3,0.7,3,2,26,1,NA
fcp-trial,60,466252,0.0-35.0-0.0,voc_e2,12098,"[{""event"":""fullscreenenter"",""trial"":1,""time"":5564},{""event"":""blur"",""trial"":3,""time"":33098},{""event"":""focus"",""trial"":3,""time"":39728}]",NA,NA,NA,NA,NA,1,#3386FF,#D89F1C,0,10,0,38,1,1830.5,39,0,1161,10,1,experiment,NA,NA,0,0.1,0.9,1,0,27,1,NA
fcp-trial,61,470506,0.0-36.0-0.0,voc_e2,12098,"[{""event"":""fullscreenenter"",""trial"":1,""time"":5564},{""event"":""blur"",""trial"":3,""time"":33098},{""event"":""focus"",""trial"":3,""time"":39728}]",NA,NA,NA,NA,NA,2,#D8271C,#741CD8,10,10,1,38,1,1932.7000000178814,39,0,812.2999999821186,10,0,experiment,NA,NA,2,0.5,0.5,4,5,28,1,NA
fcp-trial,62,474916,0.0-37.0-0.0,voc_e2,12098,"[{""event"":""fullscreenenter"",""trial"":1,""time"":5564},{""event"":""blur"",""trial"":3,""time"":33098},{""event"":""focus"",""trial"":3,""time"":39728}]",NA,NA,NA,NA,NA,2,#FA92F8,#1CD855,10,0,0,38,1,1919.2999999821186,39,0,974.0999999940396,0,1,experiment,NA,NA,1,0.3,0.7,3,2,29,1,NA
fcp-trial,63,478298,0.0-38.0-0.0,voc_e2,12098,"[{""event"":""fullscreenenter"",""trial"":1,""time"":5564},{""event"":""blur"",""trial"":3,""time"":33098},{""event"":""focus"",""trial"":3,""time"":39728}]",NA,NA,NA,NA,NA,0,#1CD855,#FA92F8,0,0,1,38,1,1065.5,37,1,805.9000000059605,0,1,experiment,NA,NA,1,0.7,0.3,2,3,30,1,NA
fcp-trial,64,482125,0.0-39.0-0.0,voc_e2,12098,"[{""event"":""fullscreenenter"",""trial"":1,""time"":5564},{""event"":""blur"",""trial"":3,""time"":33098},{""event"":""focus"",""trial"":3,""time"":39728}]",NA,NA,NA,NA,NA,4,#FA92F8,#1CD855,0,10,0,40,0,1732.800000011921,37,1,585.2000000178814,0,0,experiment,NA,NA,1,0.3,0.7,3,2,31,1,NA
fcp-trial,65,486308,0.0-40.0-0.0,voc_e2,12098,"[{""event"":""fullscreenenter"",""trial"":1,""time"":5564},{""event"":""blur"",""trial"":3,""time"":33098},{""event"":""focus"",""trial"":3,""time"":39728}]",NA,NA,NA,NA,NA,2,#D89F1C,#3386FF,10,0,1,38,1,1668.5999999940395,37,1,1009.5999999940396,10,1,experiment,NA,NA,0,0.9,0.1,0,1,32,1,NA
fcp-trial,66,490041,0.0-41.0-0.0,voc_e2,12098,"[{""event"":""fullscreenenter"",""trial"":1,""time"":5564},{""event"":""blur"",""trial"":3,""time"":33098},{""event"":""focus"",""trial"":3,""time"":39728}]",NA,NA,NA,NA,NA,5,#741CD8,#D8271C,0,10,0,40,0,1443.699999988079,39,0,782.5,10,1,experiment,NA,NA,2,0.5,0.5,5,4,33,1,NA
fcp-trial,67,493480,0.0-42.0-0.0,voc_e2,12098,"[{""event"":""fullscreenenter"",""trial"":1,""time"":5564},{""event"":""blur"",""trial"":3,""time"":33098},{""event"":""focus"",""trial"":3,""time"":39728}]",NA,NA,NA,NA,NA,1,#741CD8,#D8271C,10,0,0,38,1,1151.6000000238419,37,1,782.5999999940395,10,0,experiment,NA,NA,2,0.5,0.5,5,4,34,1,NA
fcp-trial,68,497266,0.0-43.0-0.0,voc_e2,12098,"[{""event"":""fullscreenenter"",""trial"":1,""time"":5564},{""event"":""blur"",""trial"":3,""time"":33098},{""event"":""focus"",""trial"":3,""time"":39728}]",NA,NA,NA,NA,NA,5,#1CD855,#FA92F8,0,10,1,40,0,1391.9000000059605,37,1,887.4000000059605,0,1,experiment,NA,NA,1,0.7,0.3,2,3,35,1,NA
fcp-trial,69,500811,0.0-44.0-0.0,voc_e2,12098,"[{""event"":""fullscreenenter"",""trial"":1,""time"":5564},{""event"":""blur"",""trial"":3,""time"":33098},{""event"":""focus"",""trial"":3,""time"":39728}]",NA,NA,NA,NA,NA,6,#3386FF,#D89F1C,0,10,0,40,0,1365.0999999940395,37,1,671.4000000059605,0,0,experiment,NA,NA,0,0.1,0.9,1,0,36,1,NA
fcp-trial,70,506850,0.0-45.0-0.0,voc_e2,12098,"[{""event"":""fullscreenenter"",""trial"":1,""time"":5564},{""event"":""blur"",""trial"":3,""time"":33098},{""event"":""focus"",""trial"":3,""time"":39728}]",NA,NA,NA,NA,NA,0,#741CD8,#D8271C,10,10,0,38,1,1605.9000000059605,37,1,2926.199999988079,10,0,experiment,NA,NA,2,0.5,0.5,5,4,37,1,NA
fcp-trial,71,510283,0.0-46.0-0.0,voc_e2,12098,"[{""event"":""fullscreenenter"",""trial"":1,""time"":5564},{""event"":""blur"",""trial"":3,""time"":33098},{""event"":""focus"",""trial"":3,""time"":39728}]",NA,NA,NA,NA,NA,0,#3386FF,#D89F1C,0,10,0,38,1,1182.0999999940395,39,0,742.5,10,1,experiment,NA,NA,0,0.1,0.9,1,0,38,1,NA
fcp-trial,72,513377,0.0-47.0-0.0,voc_e2,12098,"[{""event"":""fullscreenenter"",""trial"":1,""time"":5564},{""event"":""blur"",""trial"":3,""time"":33098},{""event"":""focus"",""trial"":3,""time"":39728}]",NA,NA,NA,NA,NA,4,#3386FF,#D89F1C,0,10,0,38,1,902.0999999940395,39,0,678.6999999880791,10,1,experiment,NA,NA,0,0.1,0.9,1,0,39,1,NA
fcp-trial,73,516945,0.0-48.0-0.0,voc_e2,12098,"[{""event"":""fullscreenenter"",""trial"":1,""time"":5564},{""event"":""blur"",""trial"":3,""time"":33098},{""event"":""focus"",""trial"":3,""time"":39728}]",NA,NA,NA,NA,NA,1,#1CD855,#FA92F8,10,0,1,38,1,1252.4000000059605,39,0,806.7999999821186,0,0,experiment,NA,NA,1,0.7,0.3,2,3,40,1,NA
fcp-trial,74,520321,0.0-49.0-0.0,voc_e2,12098,"[{""event"":""fullscreenenter"",""trial"":1,""time"":5564},{""event"":""blur"",""trial"":3,""time"":33098},{""event"":""focus"",""trial"":3,""time"":39728}]",NA,NA,NA,NA,NA,4,#741CD8,#D8271C,10,0,0,40,0,1230.0999999940395,37,1,638.7999999821186,10,0,experiment,NA,NA,2,0.5,0.5,5,4,41,1,NA
fcp-trial,75,523794,0.0-50.0-0.0,voc_e2,12098,"[{""event"":""fullscreenenter"",""trial"":1,""time"":5564},{""event"":""blur"",""trial"":3,""time"":33098},{""event"":""focus"",""trial"":3,""time"":39728}]",NA,NA,NA,NA,NA,3,#3386FF,#D89F1C,0,10,0,40,0,1207.699999988079,37,1,758.7000000178814,0,0,experiment,NA,NA,0,0.1,0.9,1,0,42,1,NA
fcp-trial,76,527793,0.0-51.0-0.0,voc_e2,12098,"[{""event"":""fullscreenenter"",""trial"":1,""time"":5564},{""event"":""blur"",""trial"":3,""time"":33098},{""event"":""focus"",""trial"":3,""time"":39728}]",NA,NA,NA,NA,NA,4,#D8271C,#741CD8,10,10,1,38,1,1650,39,0,838.8000000119209,10,0,experiment,NA,NA,2,0.5,0.5,4,5,43,1,NA
fcp-trial,77,531419,0.0-52.0-0.0,voc_e2,12098,"[{""event"":""fullscreenenter"",""trial"":1,""time"":5564},{""event"":""blur"",""trial"":3,""time"":33098},{""event"":""focus"",""trial"":3,""time"":39728}]",NA,NA,NA,NA,NA,5,#3386FF,#D89F1C,0,10,0,40,0,1391.5999999940395,39,0,726.9000000059605,10,1,experiment,NA,NA,0,0.1,0.9,1,0,44,1,NA
fcp-trial,78,534936,0.0-53.0-0.0,voc_e2,12098,"[{""event"":""fullscreenenter"",""trial"":1,""time"":5564},{""event"":""blur"",""trial"":3,""time"":33098},{""event"":""focus"",""trial"":3,""time"":39728}]",NA,NA,NA,NA,NA,2,#FA92F8,#1CD855,0,10,0,38,1,1280.300000011921,37,1,730.7999999821186,0,0,experiment,NA,NA,1,0.3,0.7,3,2,45,1,NA
fcp-trial,79,538753,0.0-54.0-0.0,voc_e2,12098,"[{""event"":""fullscreenenter"",""trial"":1,""time"":5564},{""event"":""blur"",""trial"":3,""time"":33098},{""event"":""focus"",""trial"":3,""time"":39728}]",NA,NA,NA,NA,NA,2,#741CD8,#D8271C,0,0,0,38,1,1063.5,37,1,1246.7000000178814,0,0,experiment,NA,NA,2,0.5,0.5,5,4,46,2,NA
fcp-trial,80,542009,0.0-55.0-0.0,voc_e2,12098,"[{""event"":""fullscreenenter"",""trial"":1,""time"":5564},{""event"":""blur"",""trial"":3,""time"":33098},{""event"":""focus"",""trial"":3,""time"":39728}]",NA,NA,NA,NA,NA,3,#1CD855,#FA92F8,0,10,1,38,1,1207,39,0,543.3000000119209,10,0,experiment,NA,NA,1,0.7,0.3,2,3,47,2,NA
fcp-trial,81,545572,0.0-56.0-0.0,voc_e2,12098,"[{""event"":""fullscreenenter"",""trial"":1,""time"":5564},{""event"":""blur"",""trial"":3,""time"":33098},{""event"":""focus"",""trial"":3,""time"":39728}]",NA,NA,NA,NA,NA,2,#D89F1C,#3386FF,10,0,1,38,1,1167.5,37,1,884.5999999940395,10,1,experiment,NA,NA,0,0.9,0.1,0,1,48,2,NA
fcp-trial,82,549017,0.0-57.0-0.0,voc_e2,12098,"[{""event"":""fullscreenenter"",""trial"":1,""time"":5564},{""event"":""blur"",""trial"":3,""time"":33098},{""event"":""focus"",""trial"":3,""time"":39728}]",NA,NA,NA,NA,NA,6,#FA92F8,#1CD855,0,0,0,40,0,1380.5999999940395,37,1,558.5,0,0,experiment,NA,NA,1,0.3,0.7,3,2,49,2,NA
fcp-trial,83,552665,0.0-58.0-0.0,voc_e2,12098,"[{""event"":""fullscreenenter"",""trial"":1,""time"":5564},{""event"":""blur"",""trial"":3,""time"":33098},{""event"":""focus"",""trial"":3,""time"":39728}]",NA,NA,NA,NA,NA,6,#3386FF,#D89F1C,0,10,0,40,0,1336.0999999940395,37,1,805.3999999761581,0,0,experiment,NA,NA,0,0.1,0.9,1,0,50,2,NA
fcp-trial,84,556242,0.0-59.0-0.0,voc_e2,12098,"[{""event"":""fullscreenenter"",""trial"":1,""time"":5564},{""event"":""blur"",""trial"":3,""time"":33098},{""event"":""focus"",""trial"":3,""time"":39728}]",NA,NA,NA,NA,NA,1,#741CD8,#D8271C,0,10,0,38,1,1591.2999999821186,37,1,481.09999999403954,0,0,experiment,NA,NA,2,0.5,0.5,5,4,51,2,NA
fcp-trial,85,560040,0.0-60.0-0.0,voc_e2,12098,"[{""event"":""fullscreenenter"",""trial"":1,""time"":5564},{""event"":""blur"",""trial"":3,""time"":33098},{""event"":""focus"",""trial"":3,""time"":39728}]",NA,NA,NA,NA,NA,4,#FA92F8,#1CD855,0,10,0,40,0,1550.5,37,1,727.5,0,0,experiment,NA,NA,1,0.3,0.7,3,2,52,2,NA
fcp-trial,86,563440,0.0-61.0-0.0,voc_e2,12098,"[{""event"":""fullscreenenter"",""trial"":1,""time"":5564},{""event"":""blur"",""trial"":3,""time"":33098},{""event"":""focus"",""trial"":3,""time"":39728}]",NA,NA,NA,NA,NA,5,#1CD855,#FA92F8,10,0,1,40,0,1174.800000011921,39,0,717.8000000119209,0,0,experiment,NA,NA,1,0.7,0.3,2,3,53,2,NA
fcp-trial,87,568661,0.0-62.0-0.0,voc_e2,12098,"[{""event"":""fullscreenenter"",""trial"":1,""time"":5564},{""event"":""blur"",""trial"":3,""time"":33098},{""event"":""focus"",""trial"":3,""time"":39728}]",NA,NA,NA,NA,NA,3,#741CD8,#D8271C,10,0,0,38,1,2684,37,1,1022.5,10,0,experiment,NA,NA,2,0.5,0.5,5,4,54,2,NA
fcp-trial,88,572926,0.0-63.0-0.0,voc_e2,12098,"[{""event"":""fullscreenenter"",""trial"":1,""time"":5564},{""event"":""blur"",""trial"":3,""time"":33098},{""event"":""focus"",""trial"":3,""time"":39728}]",NA,NA,NA,NA,NA,0,#D89F1C,#3386FF,10,0,1,38,1,2047,37,1,708.6999999880791,10,1,experiment,NA,NA,0,0.9,0.1,0,1,55,2,NA
fcp-trial,89,576499,0.0-64.0-0.0,voc_e2,12098,"[{""event"":""fullscreenenter"",""trial"":1,""time"":5564},{""event"":""blur"",""trial"":3,""time"":33098},{""event"":""focus"",""trial"":3,""time"":39728}]",NA,NA,NA,NA,NA,5,#741CD8,#D8271C,0,10,0,40,0,1267.4000000059605,39,0,791.4000000059605,10,1,experiment,NA,NA,2,0.5,0.5,5,4,56,2,NA
fcp-trial,90,580455,0.0-65.0-0.0,voc_e2,12098,"[{""event"":""fullscreenenter"",""trial"":1,""time"":5564},{""event"":""blur"",""trial"":3,""time"":33098},{""event"":""focus"",""trial"":3,""time"":39728}]",NA,NA,NA,NA,NA,4,#3386FF,#D89F1C,0,10,0,38,1,1827.0999999940395,39,0,623.8000000119209,10,1,experiment,NA,NA,0,0.1,0.9,1,0,57,2,NA
fcp-trial,91,584249,0.0-66.0-0.0,voc_e2,12098,"[{""event"":""fullscreenenter"",""trial"":1,""time"":5564},{""event"":""blur"",""trial"":3,""time"":33098},{""event"":""focus"",""trial"":3,""time"":39728}]",NA,NA,NA,NA,NA,1,#FA92F8,#1CD855,10,0,0,38,1,1618.699999988079,37,1,670.2000000178814,10,0,experiment,NA,NA,1,0.3,0.7,3,2,58,2,NA
fcp-trial,92,587435,0.0-67.0-0.0,voc_e2,12098,"[{""event"":""fullscreenenter"",""trial"":1,""time"":5564},{""event"":""blur"",""trial"":3,""time"":33098},{""event"":""focus"",""trial"":3,""time"":39728}]",NA,NA,NA,NA,NA,1,#3386FF,#D89F1C,0,0,0,38,1,1133.699999988079,39,0,545.5,0,1,experiment,NA,NA,0,0.1,0.9,1,0,59,2,NA
fcp-trial,93,590400,0.0-68.0-0.0,voc_e2,12098,"[{""event"":""fullscreenenter"",""trial"":1,""time"":5564},{""event"":""blur"",""trial"":3,""time"":33098},{""event"":""focus"",""trial"":3,""time"":39728}]",NA,NA,NA,NA,NA,3,#3386FF,#D89F1C,0,10,0,38,1,932.4000000059605,39,0,527.3999999761581,10,1,experiment,NA,NA,0,0.1,0.9,1,0,60,2,NA
fcp-trial,94,593631,0.0-69.0-0.0,voc_e2,12098,"[{""event"":""fullscreenenter"",""trial"":1,""time"":5564},{""event"":""blur"",""trial"":3,""time"":33098},{""event"":""focus"",""trial"":3,""time"":39728}]",NA,NA,NA,NA,NA,6,#D8271C,#741CD8,10,10,1,40,0,1215.4000000059605,39,0,511.800000011921,10,0,experiment,NA,NA,2,0.5,0.5,4,5,61,2,NA
fcp-trial,95,596720,0.0-70.0-0.0,voc_e2,12098,"[{""event"":""fullscreenenter"",""trial"":1,""time"":5564},{""event"":""blur"",""trial"":3,""time"":33098},{""event"":""focus"",""trial"":3,""time"":39728}]",NA,NA,NA,NA,NA,0,#1CD855,#FA92F8,10,10,1,38,1,1077,39,0,503.09999999403954,10,0,experiment,NA,NA,1,0.7,0.3,2,3,62,2,NA
fcp-trial,96,600067,0.0-71.0-0.0,voc_e2,12098,"[{""event"":""fullscreenenter"",""trial"":1,""time"":5564},{""event"":""blur"",""trial"":3,""time"":33098},{""event"":""focus"",""trial"":3,""time"":39728}]",NA,NA,NA,NA,NA,0,#D8271C,#741CD8,10,10,1,38,1,1317.9000000059605,39,0,519.0999999940395,10,0,experiment,NA,NA,2,0.5,0.5,4,5,63,2,NA
fcp-trial,97,603479,0.0-72.0-0.0,voc_e2,12098,"[{""event"":""fullscreenenter"",""trial"":1,""time"":5564},{""event"":""blur"",""trial"":3,""time"":33098},{""event"":""focus"",""trial"":3,""time"":39728}]",NA,NA,NA,NA,NA,1,#3386FF,#D89F1C,0,0,0,38,1,1217.800000011921,39,0,684.4000000059605,0,1,experiment,NA,NA,0,0.1,0.9,1,0,64,2,NA
fcp-trial,98,607154,0.0-73.0-0.0,voc_e2,12098,"[{""event"":""fullscreenenter"",""trial"":1,""time"":5564},{""event"":""blur"",""trial"":3,""time"":33098},{""event"":""focus"",""trial"":3,""time"":39728}]",NA,NA,NA,NA,NA,3,#3386FF,#D89F1C,0,10,0,38,1,1624.4000000059605,39,0,544.5,10,1,experiment,NA,NA,0,0.1,0.9,1,0,65,2,NA
fcp-trial,99,610929,0.0-74.0-0.0,voc_e2,12098,"[{""event"":""fullscreenenter"",""trial"":1,""time"":5564},{""event"":""blur"",""trial"":3,""time"":33098},{""event"":""focus"",""trial"":3,""time"":39728}]",NA,NA,NA,NA,NA,5,#FA92F8,#1CD855,0,0,0,40,0,1701,37,1,565.5999999940395,0,0,experiment,NA,NA,1,0.3,0.7,3,2,66,2,NA
fcp-trial,100,614473,0.0-75.0-0.0,voc_e2,12098,"[{""event"":""fullscreenenter"",""trial"":1,""time"":5564},{""event"":""blur"",""trial"":3,""time"":33098},{""event"":""focus"",""trial"":3,""time"":39728}]",NA,NA,NA,NA,NA,2,#D8271C,#741CD8,10,10,1,38,1,1180.699999988079,39,0,852,10,0,experiment,NA,NA,2,0.5,0.5,4,5,67,2,NA
fcp-trial,101,617792,0.0-76.0-0.0,voc_e2,12098,"[{""event"":""fullscreenenter"",""trial"":1,""time"":5564},{""event"":""blur"",""trial"":3,""time"":33098},{""event"":""focus"",""trial"":3,""time"":39728}]",NA,NA,NA,NA,NA,5,#3386FF,#D89F1C,0,10,0,40,0,1230.199999988079,39,0,582.7000000178814,10,1,experiment,NA,NA,0,0.1,0.9,1,0,68,2,NA
fcp-trial,102,621673,0.0-77.0-0.0,voc_e2,12098,"[{""event"":""fullscreenenter"",""trial"":1,""time"":5564},{""event"":""blur"",""trial"":3,""time"":33098},{""event"":""focus"",""trial"":3,""time"":39728}]",NA,NA,NA,NA,NA,4,#FA92F8,#1CD855,10,10,0,40,0,1846.300000011921,37,1,528.7000000178814,10,0,experiment,NA,NA,1,0.3,0.7,3,2,69,2,NA
fcp-trial,103,624873,0.0-78.0-0.0,voc_e2,12098,"[{""event"":""fullscreenenter"",""trial"":1,""time"":5564},{""event"":""blur"",""trial"":3,""time"":33098},{""event"":""focus"",""trial"":3,""time"":39728}]",NA,NA,NA,NA,NA,5,#D8271C,#741CD8,10,0,1,40,0,1203.5999999940395,39,0,486.59999999403954,0,0,experiment,NA,NA,2,0.5,0.5,4,5,70,2,NA
fcp-trial,104,628072,0.0-79.0-0.0,voc_e2,12098,"[{""event"":""fullscreenenter"",""trial"":1,""time"":5564},{""event"":""blur"",""trial"":3,""time"":33098},{""event"":""focus"",""trial"":3,""time"":39728}]",NA,NA,NA,NA,NA,1,#D8271C,#741CD8,0,0,1,38,1,1166.699999988079,37,1,511.59999999403954,0,1,experiment,NA,NA,2,0.5,0.5,4,5,71,2,NA
fcp-trial,105,631520,0.0-80.0-0.0,voc_e2,12098,"[{""event"":""fullscreenenter"",""trial"":1,""time"":5564},{""event"":""blur"",""trial"":3,""time"":33098},{""event"":""focus"",""trial"":3,""time"":39728}]",NA,NA,NA,NA,NA,2,#3386FF,#D89F1C,0,10,0,38,1,1542,39,0,398.7999999821186,10,1,experiment,NA,NA,0,0.1,0.9,1,0,72,2,NA
fcp-trial,106,635055,0.0-81.0-0.0,voc_e2,12098,"[{""event"":""fullscreenenter"",""trial"":1,""time"":5564},{""event"":""blur"",""trial"":3,""time"":33098},{""event"":""focus"",""trial"":3,""time"":39728}]",NA,NA,NA,NA,NA,4,#741CD8,#D8271C,10,0,0,40,0,1533.5999999940395,37,1,493.300000011921,10,0,experiment,NA,NA,2,0.5,0.5,5,4,73,2,NA
fcp-trial,107,638415,0.0-82.0-0.0,voc_e2,12098,"[{""event"":""fullscreenenter"",""trial"":1,""time"":5564},{""event"":""blur"",""trial"":3,""time"":33098},{""event"":""focus"",""trial"":3,""time"":39728}]",NA,NA,NA,NA,NA,6,#FA92F8,#1CD855,0,10,0,40,0,1355.5,39,0,500,10,1,experiment,NA,NA,1,0.3,0.7,3,2,74,2,NA
fcp-trial,108,641649,0.0-83.0-0.0,voc_e2,12098,"[{""event"":""fullscreenenter"",""trial"":1,""time"":5564},{""event"":""blur"",""trial"":3,""time"":33098},{""event"":""focus"",""trial"":3,""time"":39728}]",NA,NA,NA,NA,NA,6,#3386FF,#D89F1C,0,10,0,40,0,1200.699999988079,39,0,528,10,1,experiment,NA,NA,0,0.1,0.9,1,0,75,2,NA
fcp-trial,109,645200,0.0-84.0-0.0,voc_e2,12098,"[{""event"":""fullscreenenter"",""trial"":1,""time"":5564},{""event"":""blur"",""trial"":3,""time"":33098},{""event"":""focus"",""trial"":3,""time"":39728}]",NA,NA,NA,NA,NA,6,#D8271C,#741CD8,10,0,1,40,0,1327.699999988079,37,1,718.5999999940395,10,1,experiment,NA,NA,2,0.5,0.5,4,5,76,2,NA
fcp-trial,110,648760,0.0-85.0-0.0,voc_e2,12098,"[{""event"":""fullscreenenter"",""trial"":1,""time"":5564},{""event"":""blur"",""trial"":3,""time"":33098},{""event"":""focus"",""trial"":3,""time"":39728}]",NA,NA,NA,NA,NA,3,#1CD855,#FA92F8,10,0,1,38,1,1191.300000011921,39,0,863.8000000119209,0,0,experiment,NA,NA,1,0.7,0.3,2,3,77,2,NA
fcp-trial,111,652079,0.0-86.0-0.0,voc_e2,12098,"[{""event"":""fullscreenenter"",""trial"":1,""time"":5564},{""event"":""blur"",""trial"":3,""time"":33098},{""event"":""focus"",""trial"":3,""time"":39728}]",NA,NA,NA,NA,NA,0,#741CD8,#D8271C,0,10,0,38,1,1252.7999999821186,37,1,558.6000000238419,0,0,experiment,NA,NA,2,0.5,0.5,5,4,78,2,NA
fcp-trial,112,655136,0.0-87.0-0.0,voc_e2,12098,"[{""event"":""fullscreenenter"",""trial"":1,""time"":5564},{""event"":""blur"",""trial"":3,""time"":33098},{""event"":""focus"",""trial"":3,""time"":39728}]",NA,NA,NA,NA,NA,0,#3386FF,#D89F1C,0,10,0,38,1,819.3999999761581,39,0,726.0999999940395,10,1,experiment,NA,NA,0,0.1,0.9,1,0,79,2,NA
fcp-trial,113,658319,0.0-88.0-0.0,voc_e2,12098,"[{""event"":""fullscreenenter"",""trial"":1,""time"":5564},{""event"":""blur"",""trial"":3,""time"":33098},{""event"":""focus"",""trial"":3,""time"":39728}]",NA,NA,NA,NA,NA,3,#741CD8,#D8271C,0,10,0,38,1,994.5,37,1,682.2999999821186,0,0,experiment,NA,NA,2,0.5,0.5,5,4,80,2,NA
fcp-trial,114,661336,0.0-89.0-0.0,voc_e2,12098,"[{""event"":""fullscreenenter"",""trial"":1,""time"":5564},{""event"":""blur"",""trial"":3,""time"":33098},{""event"":""focus"",""trial"":3,""time"":39728}]",NA,NA,NA,NA,NA,0,#1CD855,#FA92F8,10,0,1,38,1,910,39,0,599,0,0,experiment,NA,NA,1,0.7,0.3,2,3,81,2,NA
fcp-trial,115,664192,0.0-90.0-0.0,voc_e2,12098,"[{""event"":""fullscreenenter"",""trial"":1,""time"":5564},{""event"":""blur"",""trial"":3,""time"":33098},{""event"":""focus"",""trial"":3,""time"":39728}]",NA,NA,NA,NA,NA,1,#1CD855,#FA92F8,10,0,1,38,1,796.9000000059605,39,0,551.7999999821186,0,0,experiment,NA,NA,1,0.7,0.3,2,3,82,2,NA
fcp-trial,116,667337,0.0-91.0-0.0,voc_e2,12098,"[{""event"":""fullscreenenter"",""trial"":1,""time"":5564},{""event"":""blur"",""trial"":3,""time"":33098},{""event"":""focus"",""trial"":3,""time"":39728}]",NA,NA,NA,NA,NA,2,#FA92F8,#1CD855,0,0,0,38,1,951.3999999761581,37,1,687.3999999761581,0,0,experiment,NA,NA,1,0.3,0.7,3,2,83,2,NA
fcp-trial,117,670656,0.0-92.0-0.0,voc_e2,12098,"[{""event"":""fullscreenenter"",""trial"":1,""time"":5564},{""event"":""blur"",""trial"":3,""time"":33098},{""event"":""focus"",""trial"":3,""time"":39728}]",NA,NA,NA,NA,NA,4,#D89F1C,#3386FF,10,0,1,40,0,1294,39,0,518.0999999940395,0,0,experiment,NA,NA,0,0.9,0.1,0,1,84,2,NA
fcp-trial,118,673976,0.0-93.0-0.0,voc_e2,12098,"[{""event"":""fullscreenenter"",""trial"":1,""time"":5564},{""event"":""blur"",""trial"":3,""time"":33098},{""event"":""focus"",""trial"":3,""time"":39728}]",NA,NA,NA,NA,NA,4,#741CD8,#D8271C,10,0,0,38,1,1063.800000011921,39,0,750.4000000059605,0,1,experiment,NA,NA,2,0.5,0.5,5,4,85,2,NA
fcp-trial,119,676792,0.0-94.0-0.0,voc_e2,12098,"[{""event"":""fullscreenenter"",""trial"":1,""time"":5564},{""event"":""blur"",""trial"":3,""time"":33098},{""event"":""focus"",""trial"":3,""time"":39728}]",NA,NA,NA,NA,NA,6,#741CD8,#D8271C,0,10,0,38,1,752.6000000238419,39,0,549.1999999880791,10,1,experiment,NA,NA,2,0.5,0.5,5,4,86,2,NA
fcp-trial,120,680096,0.0-95.0-0.0,voc_e2,12098,"[{""event"":""fullscreenenter"",""trial"":1,""time"":5564},{""event"":""blur"",""trial"":3,""time"":33098},{""event"":""focus"",""trial"":3,""time"":39728}]",NA,NA,NA,NA,NA,5,#D89F1C,#3386FF,10,0,1,40,0,1255,37,1,543.3999999761581,10,1,experiment,NA,NA,0,0.9,0.1,0,1,87,2,NA
fcp-trial,121,684672,0.0-96.0-0.0,voc_e2,12098,"[{""event"":""fullscreenenter"",""trial"":1,""time"":5564},{""event"":""blur"",""trial"":3,""time"":33098},{""event"":""focus"",""trial"":3,""time"":39728}]",NA,NA,NA,NA,NA,3,#FA92F8,#1CD855,10,0,0,38,1,1662.6000000238419,39,0,1407.7999999821186,0,1,experiment,NA,NA,1,0.3,0.7,3,2,88,2,NA
fcp-trial,122,688009,0.0-97.0-0.0,voc_e2,12098,"[{""event"":""fullscreenenter"",""trial"":1,""time"":5564},{""event"":""blur"",""trial"":3,""time"":33098},{""event"":""focus"",""trial"":3,""time"":39728}]",NA,NA,NA,NA,NA,5,#1CD855,#FA92F8,10,0,1,40,0,1327.800000011921,37,1,501.90000000596046,10,1,experiment,NA,NA,1,0.7,0.3,2,3,89,2,NA
fcp-trial,123,691609,0.0-98.0-0.0,voc_e2,12098,"[{""event"":""fullscreenenter"",""trial"":1,""time"":5564},{""event"":""blur"",""trial"":3,""time"":33098},{""event"":""focus"",""trial"":3,""time"":39728}]",NA,NA,NA,NA,NA,0,#D8271C,#741CD8,0,0,1,38,1,1535.800000011921,39,0,558.9000000059605,0,0,experiment,NA,NA,2,0.5,0.5,4,5,90,2,NA
fcp-trial,124,695748,0.0-99.0-0.0,voc_e2,12098,"[{""event"":""fullscreenenter"",""trial"":1,""time"":5564},{""event"":""blur"",""trial"":3,""time"":33098},{""event"":""focus"",""trial"":3,""time"":39728}]",NA,NA,NA,NA,NA,4,#D89F1C,#3386FF,0,0,1,38,1,2237.5,37,1,393.59999999403954,0,1,experiment,NA,NA,0,0.9,0.1,0,1,91,3,NA
fcp-trial,125,698400,0.0-100.0-0.0,voc_e2,12098,"[{""event"":""fullscreenenter"",""trial"":1,""time"":5564},{""event"":""blur"",""trial"":3,""time"":33098},{""event"":""focus"",""trial"":3,""time"":39728}]",NA,NA,NA,NA,NA,0,#D89F1C,#3386FF,10,0,1,38,1,843.5,37,1,301.80000001192093,10,1,experiment,NA,NA,0,0.9,0.1,0,1,92,3,NA
fcp-trial,126,702513,0.0-101.0-0.0,voc_e2,12098,"[{""event"":""fullscreenenter"",""trial"":1,""time"":5564},{""event"":""blur"",""trial"":3,""time"":33098},{""event"":""focus"",""trial"":3,""time"":39728}]",NA,NA,NA,NA,NA,4,#FA92F8,#1CD855,0,10,0,38,1,1823.699999988079,39,0,781.2999999821186,10,1,experiment,NA,NA,1,0.3,0.7,3,2,93,3,NA
fcp-trial,127,705914,0.0-102.0-0.0,voc_e2,12098,"[{""event"":""fullscreenenter"",""trial"":1,""time"":5564},{""event"":""blur"",""trial"":3,""time"":33098},{""event"":""focus"",""trial"":3,""time"":39728}]",NA,NA,NA,NA,NA,5,#D8271C,#741CD8,10,0,1,40,0,1318,39,0,575.5,0,0,experiment,NA,NA,2,0.5,0.5,4,5,94,3,NA
fcp-trial,128,709239,0.0-103.0-0.0,voc_e2,12098,"[{""event"":""fullscreenenter"",""trial"":1,""time"":5564},{""event"":""blur"",""trial"":3,""time"":33098},{""event"":""focus"",""trial"":3,""time"":39728}]",NA,NA,NA,NA,NA,2,#1CD855,#FA92F8,10,0,1,38,1,1332.2000000178814,37,1,486.7000000178814,10,1,experiment,NA,NA,1,0.7,0.3,2,3,95,3,NA
fcp-trial,129,712976,0.0-104.0-0.0,voc_e2,12098,"[{""event"":""fullscreenenter"",""trial"":1,""time"":5564},{""event"":""blur"",""trial"":3,""time"":33098},{""event"":""focus"",""trial"":3,""time"":39728}]",NA,NA,NA,NA,NA,1,#D8271C,#741CD8,10,0,1,38,1,903.7999999821186,37,1,1324.300000011921,10,1,experiment,NA,NA,2,0.5,0.5,4,5,96,3,NA
fcp-trial,130,715960,0.0-105.0-0.0,voc_e2,12098,"[{""event"":""fullscreenenter"",""trial"":1,""time"":5564},{""event"":""blur"",""trial"":3,""time"":33098},{""event"":""focus"",""trial"":3,""time"":39728}]",NA,NA,NA,NA,NA,1,#D89F1C,#3386FF,10,0,1,38,1,862.3999999761581,37,1,611,10,1,experiment,NA,NA,0,0.9,0.1,0,1,97,3,NA
fcp-trial,131,719769,0.0-106.0-0.0,voc_e2,12098,"[{""event"":""fullscreenenter"",""trial"":1,""time"":5564},{""event"":""blur"",""trial"":3,""time"":33098},{""event"":""focus"",""trial"":3,""time"":39728}]",NA,NA,NA,NA,NA,1,#FA92F8,#1CD855,10,10,0,38,1,1124,39,0,1179.4000000059605,10,1,experiment,NA,NA,1,0.3,0.7,3,2,98,3,NA
fcp-trial,132,722823,0.0-107.0-0.0,voc_e2,12098,"[{""event"":""fullscreenenter"",""trial"":1,""time"":5564},{""event"":""blur"",""trial"":3,""time"":33098},{""event"":""focus"",""trial"":3,""time"":39728}]",NA,NA,NA,NA,NA,3,#D89F1C,#3386FF,10,0,1,38,1,1012.0999999940395,37,1,534.9000000059605,10,1,experiment,NA,NA,0,0.9,0.1,0,1,99,3,NA
fcp-trial,133,726516,0.0-108.0-0.0,voc_e2,12098,"[{""event"":""fullscreenenter"",""trial"":1,""time"":5564},{""event"":""blur"",""trial"":3,""time"":33098},{""event"":""focus"",""trial"":3,""time"":39728}]",NA,NA,NA,NA,NA,6,#D89F1C,#3386FF,10,10,1,40,0,1446.9000000059605,37,1,727.7000000178814,10,1,experiment,NA,NA,0,0.9,0.1,0,1,100,3,NA
fcp-trial,134,730145,0.0-109.0-0.0,voc_e2,12098,"[{""event"":""fullscreenenter"",""trial"":1,""time"":5564},{""event"":""blur"",""trial"":3,""time"":33098},{""event"":""focus"",""trial"":3,""time"":39728}]",NA,NA,NA,NA,NA,2,#D8271C,#741CD8,0,10,1,38,1,1023.9000000059605,37,1,1093.699999988079,0,1,experiment,NA,NA,2,0.5,0.5,4,5,101,3,NA
fcp-trial,135,733320,0.0-110.0-0.0,voc_e2,12098,"[{""event"":""fullscreenenter"",""trial"":1,""time"":5564},{""event"":""blur"",""trial"":3,""time"":33098},{""event"":""focus"",""trial"":3,""time"":39728}]",NA,NA,NA,NA,NA,0,#1CD855,#FA92F8,10,0,1,38,1,1029.699999988079,37,1,637.9000000059605,10,1,experiment,NA,NA,1,0.7,0.3,2,3,102,3,NA
fcp-trial,136,736712,0.0-111.0-0.0,voc_e2,12098,"[{""event"":""fullscreenenter"",""trial"":1,""time"":5564},{""event"":""blur"",""trial"":3,""time"":33098},{""event"":""focus"",""trial"":3,""time"":39728}]",NA,NA,NA,NA,NA,2,#3386FF,#D89F1C,0,10,0,38,1,1363.3999999761581,39,0,519.9000000059605,10,1,experiment,NA,NA,0,0.1,0.9,1,0,103,3,NA
fcp-trial,137,739940,0.0-112.0-0.0,voc_e2,12098,"[{""event"":""fullscreenenter"",""trial"":1,""time"":5564},{""event"":""blur"",""trial"":3,""time"":33098},{""event"":""focus"",""trial"":3,""time"":39728}]",NA,NA,NA,NA,NA,6,#FA92F8,#1CD855,10,10,0,40,0,1014.1999999880791,39,0,703.6999999880791,10,1,experiment,NA,NA,1,0.3,0.7,3,2,104,3,NA
fcp-trial,138,744944,0.0-113.0-0.0,voc_e2,12098,"[{""event"":""fullscreenenter"",""trial"":1,""time"":5564},{""event"":""blur"",""trial"":3,""time"":33098},{""event"":""focus"",""trial"":3,""time"":39728}]",NA,NA,NA,NA,NA,3,#741CD8,#D8271C,10,0,0,40,0,2691.0999999940395,37,1,803,10,0,experiment,NA,NA,2,0.5,0.5,5,4,105,3,NA
audio-instructions,139,1109218,0.0-114.0,voc_e2,12098,"[{""event"":""fullscreenenter"",""trial"":1,""time"":5564},{""event"":""blur"",""trial"":3,""time"":33098},{""event"":""focus"",""trial"":3,""time"":39728}]",NA,359462.90000000596,static/audio/pause.wav,NA,0,NA,NA,NA,NA,NA,NA,NA,NA,NA,NA,NA,NA,NA,NA,NA,NA,NA,NA,NA,NA,NA,NA,NA,NA,NA
fcp-trial,140,1112695,0.0-115.0-0.0,voc_e2,12098,"[{""event"":""fullscreenenter"",""trial"":1,""time"":5564},{""event"":""blur"",""trial"":3,""time"":33098},{""event"":""focus"",""trial"":3,""time"":39728}]",NA,NA,NA,NA,NA,0,#FA92F8,#1CD855,0,10,0,38,1,1562.4000000059605,39,0,405.90000000596046,10,1,experiment,NA,NA,1,0.3,0.7,3,2,106,3,NA
fcp-trial,141,1115678,0.0-116.0-0.0,voc_e2,12098,"[{""event"":""fullscreenenter"",""trial"":1,""time"":5564},{""event"":""blur"",""trial"":3,""time"":33098},{""event"":""focus"",""trial"":3,""time"":39728}]",NA,NA,NA,NA,NA,0,#D89F1C,#3386FF,10,0,1,38,1,982.1000000238419,37,1,494.7000000178814,10,1,experiment,NA,NA,0,0.9,0.1,0,1,107,3,NA
fcp-trial,142,1119102,0.0-117.0-0.0,voc_e2,12098,"[{""event"":""fullscreenenter"",""trial"":1,""time"":5564},{""event"":""blur"",""trial"":3,""time"":33098},{""event"":""focus"",""trial"":3,""time"":39728}]",NA,NA,NA,NA,NA,2,#D8271C,#741CD8,0,0,1,38,1,1209.2999999821186,37,1,707.0999999940395,0,1,experiment,NA,NA,2,0.5,0.5,4,5,108,3,NA
fcp-trial,143,1122711,0.0-118.0-0.0,voc_e2,12098,"[{""event"":""fullscreenenter"",""trial"":1,""time"":5564},{""event"":""blur"",""trial"":3,""time"":33098},{""event"":""focus"",""trial"":3,""time"":39728}]",NA,NA,NA,NA,NA,5,#D89F1C,#3386FF,10,0,1,40,0,1527.5999999940395,39,0,575.5,0,0,experiment,NA,NA,0,0.9,0.1,0,1,109,3,NA
fcp-trial,144,1125593,0.0-119.0-0.0,voc_e2,12098,"[{""event"":""fullscreenenter"",""trial"":1,""time"":5564},{""event"":""blur"",""trial"":3,""time"":33098},{""event"":""focus"",""trial"":3,""time"":39728}]",NA,NA,NA,NA,NA,1,#1CD855,#FA92F8,10,0,1,38,1,908.4000000059605,37,1,457,10,1,experiment,NA,NA,1,0.7,0.3,2,3,110,3,NA
fcp-trial,145,1128582,0.0-120.0-0.0,voc_e2,12098,"[{""event"":""fullscreenenter"",""trial"":1,""time"":5564},{""event"":""blur"",""trial"":3,""time"":33098},{""event"":""focus"",""trial"":3,""time"":39728}]",NA,NA,NA,NA,NA,2,#3386FF,#D89F1C,0,10,0,38,1,935.3000000119209,39,0,542,10,1,experiment,NA,NA,0,0.1,0.9,1,0,111,3,NA
fcp-trial,146,1131926,0.0-121.0-0.0,voc_e2,12098,"[{""event"":""fullscreenenter"",""trial"":1,""time"":5564},{""event"":""blur"",""trial"":3,""time"":33098},{""event"":""focus"",""trial"":3,""time"":39728}]",NA,NA,NA,NA,NA,4,#D8271C,#741CD8,0,10,1,40,0,1313.1000000238419,37,1,524.7000000178814,0,1,experiment,NA,NA,2,0.5,0.5,4,5,112,3,NA
fcp-trial,147,1135865,0.0-122.0-0.0,voc_e2,12098,"[{""event"":""fullscreenenter"",""trial"":1,""time"":5564},{""event"":""blur"",""trial"":3,""time"":33098},{""event"":""focus"",""trial"":3,""time"":39728}]",NA,NA,NA,NA,NA,4,#D89F1C,#3386FF,10,0,1,40,0,1916.199999988079,37,1,512.4000000059605,10,1,experiment,NA,NA,0,0.9,0.1,0,1,113,3,NA
fcp-trial,148,1139692,0.0-123.0-0.0,voc_e2,12098,"[{""event"":""fullscreenenter"",""trial"":1,""time"":5564},{""event"":""blur"",""trial"":3,""time"":33098},{""event"":""focus"",""trial"":3,""time"":39728}]",NA,NA,NA,NA,NA,5,#1CD855,#FA92F8,0,10,1,40,0,1347.4000000059605,39,0,967.9000000059604,10,0,experiment,NA,NA,1,0.7,0.3,2,3,114,3,NA
fcp-trial,149,1143102,0.0-124.0-0.0,voc_e2,12098,"[{""event"":""fullscreenenter"",""trial"":1,""time"":5564},{""event"":""blur"",""trial"":3,""time"":33098},{""event"":""focus"",""trial"":3,""time"":39728}]",NA,NA,NA,NA,NA,6,#1CD855,#FA92F8,0,0,1,40,0,1173.699999988079,39,0,726,0,0,experiment,NA,NA,1,0.7,0.3,2,3,115,3,NA
fcp-trial,150,1146615,0.0-125.0-0.0,voc_e2,12098,"[{""event"":""fullscreenenter"",""trial"":1,""time"":5564},{""event"":""blur"",""trial"":3,""time"":33098},{""event"":""focus"",""trial"":3,""time"":39728}]",NA,NA,NA,NA,NA,1,#D8271C,#741CD8,10,0,1,38,1,1137,39,0,870.5,0,0,experiment,NA,NA,2,0.5,0.5,4,5,116,3,NA
fcp-trial,151,1150127,0.0-126.0-0.0,voc_e2,12098,"[{""event"":""fullscreenenter"",""trial"":1,""time"":5564},{""event"":""blur"",""trial"":3,""time"":33098},{""event"":""focus"",""trial"":3,""time"":39728}]",NA,NA,NA,NA,NA,3,#741CD8,#D8271C,0,10,0,38,1,1364.199999988079,37,1,639.5,0,0,experiment,NA,NA,2,0.5,0.5,5,4,117,3,NA
fcp-trial,152,1154200,0.0-127.0-0.0,voc_e2,12098,"[{""event"":""fullscreenenter"",""trial"":1,""time"":5564},{""event"":""blur"",""trial"":3,""time"":33098},{""event"":""focus"",""trial"":3,""time"":39728}]",NA,NA,NA,NA,NA,1,#3386FF,#D89F1C,0,10,0,38,1,1959.2999999821186,39,0,595.8000000119209,10,1,experiment,NA,NA,0,0.1,0.9,1,0,118,3,NA
fcp-trial,153,1157647,0.0-128.0-0.0,voc_e2,12098,"[{""event"":""fullscreenenter"",""trial"":1,""time"":5564},{""event"":""blur"",""trial"":3,""time"":33098},{""event"":""focus"",""trial"":3,""time"":39728}]",NA,NA,NA,NA,NA,4,#1CD855,#FA92F8,0,0,1,40,0,1365.2999999821186,39,0,572.3999999761581,0,0,experiment,NA,NA,1,0.7,0.3,2,3,119,3,NA
fcp-trial,154,1161071,0.0-129.0-0.0,voc_e2,12098,"[{""event"":""fullscreenenter"",""trial"":1,""time"":5564},{""event"":""blur"",""trial"":3,""time"":33098},{""event"":""focus"",""trial"":3,""time"":39728}]",NA,NA,NA,NA,NA,6,#D89F1C,#3386FF,10,0,1,40,0,1091.699999988079,39,0,824,0,0,experiment,NA,NA,0,0.9,0.1,0,1,120,3,NA
fcp-trial,155,1164389,0.0-130.0-0.0,voc_e2,12098,"[{""event"":""fullscreenenter"",""trial"":1,""time"":5564},{""event"":""blur"",""trial"":3,""time"":33098},{""event"":""focus"",""trial"":3,""time"":39728}]",NA,NA,NA,NA,NA,5,#D8271C,#741CD8,10,10,1,38,1,1313.9000000059605,39,0,500.59999999403954,10,0,experiment,NA,NA,2,0.5,0.5,4,5,121,3,NA
fcp-trial,156,1167608,0.0-131.0-0.0,voc_e2,12098,"[{""event"":""fullscreenenter"",""trial"":1,""time"":5564},{""event"":""blur"",""trial"":3,""time"":33098},{""event"":""focus"",""trial"":3,""time"":39728}]",NA,NA,NA,NA,NA,0,#741CD8,#D8271C,10,0,0,38,1,944.5999999940395,37,1,769.0999999940395,10,0,experiment,NA,NA,2,0.5,0.5,5,4,122,3,NA
fcp-trial,157,1170526,0.0-132.0-0.0,voc_e2,12098,"[{""event"":""fullscreenenter"",""trial"":1,""time"":5564},{""event"":""blur"",""trial"":3,""time"":33098},{""event"":""focus"",""trial"":3,""time"":39728}]",NA,NA,NA,NA,NA,3,#FA92F8,#1CD855,0,10,0,38,1,1076.800000011921,39,0,333.89999997615814,10,1,experiment,NA,NA,1,0.3,0.7,3,2,123,3,NA
fcp-trial,158,1173892,0.0-133.0-0.0,voc_e2,12098,"[{""event"":""fullscreenenter"",""trial"":1,""time"":5564},{""event"":""blur"",""trial"":3,""time"":33098},{""event"":""focus"",""trial"":3,""time"":39728}]",NA,NA,NA,NA,NA,3,#D89F1C,#3386FF,10,0,1,38,1,1278,37,1,570.0999999940395,10,1,experiment,NA,NA,0,0.9,0.1,0,1,124,3,NA
fcp-trial,159,1177454,0.0-134.0-0.0,voc_e2,12098,"[{""event"":""fullscreenenter"",""trial"":1,""time"":5564},{""event"":""blur"",""trial"":3,""time"":33098},{""event"":""focus"",""trial"":3,""time"":39728}]",NA,NA,NA,NA,NA,6,#D8271C,#741CD8,0,0,1,40,0,1528.300000011921,39,0,527.0999999940395,0,0,experiment,NA,NA,2,0.5,0.5,4,5,125,3,NA
fcp-trial,160,1180469,0.0-135.0-0.0,voc_e2,12098,"[{""event"":""fullscreenenter"",""trial"":1,""time"":5564},{""event"":""blur"",""trial"":3,""time"":33098},{""event"":""focus"",""trial"":3,""time"":39728}]",NA,NA,NA,NA,NA,2,#1CD855,#FA92F8,10,10,1,38,1,899.3000000119209,37,1,606.8000000119209,10,1,experiment,NA,NA,1,0.7,0.3,2,3,126,3,NA
fcp-trial,161,1183461,0.0-136.0-0.0,voc_e2,12098,"[{""event"":""fullscreenenter"",""trial"":1,""time"":5564},{""event"":""blur"",""trial"":3,""time"":33098},{""event"":""focus"",""trial"":3,""time"":39728}]",NA,NA,NA,NA,NA,2,#1CD855,#FA92F8,10,0,1,38,1,1070,37,1,415.40000000596046,10,1,experiment,NA,NA,1,0.7,0.3,2,3,127,3,NA
fcp-trial,162,1188423,0.0-137.0-0.0,voc_e2,12098,"[{""event"":""fullscreenenter"",""trial"":1,""time"":5564},{""event"":""blur"",""trial"":3,""time"":33098},{""event"":""focus"",""trial"":3,""time"":39728}]",NA,NA,NA,NA,NA,6,#FA92F8,#1CD855,10,0,0,40,0,1039.4000000059605,37,1,2415.7999999821186,10,0,experiment,NA,NA,1,0.3,0.7,3,2,128,3,NA
fcp-trial,163,1192351,0.0-138.0-0.0,voc_e2,12098,"[{""event"":""fullscreenenter"",""trial"":1,""time"":5564},{""event"":""blur"",""trial"":3,""time"":33098},{""event"":""focus"",""trial"":3,""time"":39728}]",NA,NA,NA,NA,NA,6,#741CD8,#D8271C,0,0,0,40,0,1858.9000000059605,37,1,559.9000000059605,0,0,experiment,NA,NA,2,0.5,0.5,5,4,129,3,NA
fcp-trial,164,1195663,0.0-139.0-0.0,voc_e2,12098,"[{""event"":""fullscreenenter"",""trial"":1,""time"":5564},{""event"":""blur"",""trial"":3,""time"":33098},{""event"":""focus"",""trial"":3,""time"":39728}]",NA,NA,NA,NA,NA,1,#741CD8,#D8271C,10,0,0,38,1,1158,39,0,647.4000000059605,0,1,experiment,NA,NA,2,0.5,0.5,5,4,130,3,NA
fcp-trial,165,1198733,0.0-140.0-0.0,voc_e2,12098,"[{""event"":""fullscreenenter"",""trial"":1,""time"":5564},{""event"":""blur"",""trial"":3,""time"":33098},{""event"":""focus"",""trial"":3,""time"":39728}]",NA,NA,NA,NA,NA,4,#3386FF,#D89F1C,10,0,0,38,1,1156.9000000059605,39,0,407,0,1,experiment,NA,NA,0,0.1,0.9,1,0,131,3,NA
fcp-trial,166,1202438,0.0-141.0-0.0,voc_e2,12098,"[{""event"":""fullscreenenter"",""trial"":1,""time"":5564},{""event"":""blur"",""trial"":3,""time"":33098},{""event"":""focus"",""trial"":3,""time"":39728}]",NA,NA,NA,NA,NA,5,#D89F1C,#3386FF,10,0,1,38,1,1639.9000000059605,37,1,558.9000000059605,10,1,experiment,NA,NA,0,0.9,0.1,0,1,132,3,NA
fcp-trial,167,1206183,0.0-142.0-0.0,voc_e2,12098,"[{""event"":""fullscreenenter"",""trial"":1,""time"":5564},{""event"":""blur"",""trial"":3,""time"":33098},{""event"":""focus"",""trial"":3,""time"":39728}]",NA,NA,NA,NA,NA,4,#1CD855,#FA92F8,10,0,1,38,1,1661.5,37,1,576.9000000059605,10,1,experiment,NA,NA,1,0.7,0.3,2,3,133,3,NA
fcp-trial,168,1210677,0.0-143.0-0.0,voc_e2,12098,"[{""event"":""fullscreenenter"",""trial"":1,""time"":5564},{""event"":""blur"",""trial"":3,""time"":33098},{""event"":""focus"",""trial"":3,""time"":39728}]",NA,NA,NA,NA,NA,3,#741CD8,#D8271C,10,0,0,38,1,1630.1000000238419,37,1,1342.399999976158,10,0,experiment,NA,NA,2,0.5,0.5,5,4,134,3,NA
fcp-trial,169,1213926,0.0-144.0-0.0,voc_e2,12098,"[{""event"":""fullscreenenter"",""trial"":1,""time"":5564},{""event"":""blur"",""trial"":3,""time"":33098},{""event"":""focus"",""trial"":3,""time"":39728}]",NA,NA,NA,NA,NA,2,#D8271C,#741CD8,0,0,1,38,1,1151.9000000059605,37,1,590.5,0,1,experiment,NA,NA,2,0.5,0.5,4,5,135,3,NA
fcp-trial,170,1216974,0.0-145.0-0.0,voc_e2,12098,"[{""event"":""fullscreenenter"",""trial"":1,""time"":5564},{""event"":""blur"",""trial"":3,""time"":33098},{""event"":""focus"",""trial"":3,""time"":39728}]",NA,NA,NA,NA,NA,3,#FA92F8,#1CD855,0,10,0,38,1,1125.9000000059605,39,0,415.5,10,1,experiment,NA,NA,1,0.3,0.7,3,2,136,4,NA
fcp-trial,171,1219893,0.0-146.0-0.0,voc_e2,12098,"[{""event"":""fullscreenenter"",""trial"":1,""time"":5564},{""event"":""blur"",""trial"":3,""time"":33098},{""event"":""focus"",""trial"":3,""time"":39728}]",NA,NA,NA,NA,NA,6,#3386FF,#D89F1C,0,10,0,40,0,974.5999999940395,39,0,431.89999997615814,10,1,experiment,NA,NA,0,0.1,0.9,1,0,137,4,NA
fcp-trial,172,1223695,0.0-147.0-0.0,voc_e2,12098,"[{""event"":""fullscreenenter"",""trial"":1,""time"":5564},{""event"":""blur"",""trial"":3,""time"":33098},{""event"":""focus"",""trial"":3,""time"":39728}]",NA,NA,NA,NA,NA,3,#3386FF,#D89F1C,0,10,0,38,1,1066,39,0,1229.5,10,1,experiment,NA,NA,0,0.1,0.9,1,0,138,4,NA
fcp-trial,173,1226911,0.0-148.0-0.0,voc_e2,12098,"[{""event"":""fullscreenenter"",""trial"":1,""time"":5564},{""event"":""blur"",""trial"":3,""time"":33098},{""event"":""focus"",""trial"":3,""time"":39728}]",NA,NA,NA,NA,NA,5,#741CD8,#D8271C,10,0,0,40,0,1172.4000000059605,37,1,535.4000000059605,10,0,experiment,NA,NA,2,0.5,0.5,5,4,139,4,NA
fcp-trial,174,1230046,0.0-149.0-0.0,voc_e2,12098,"[{""event"":""fullscreenenter"",""trial"":1,""time"":5564},{""event"":""blur"",""trial"":3,""time"":33098},{""event"":""focus"",""trial"":3,""time"":39728}]",NA,NA,NA,NA,NA,4,#741CD8,#D8271C,0,0,0,38,1,837.4000000059605,37,1,791.9000000059605,0,0,experiment,NA,NA,2,0.5,0.5,5,4,140,4,NA
fcp-trial,175,1233574,0.0-150.0-0.0,voc_e2,12098,"[{""event"":""fullscreenenter"",""trial"":1,""time"":5564},{""event"":""blur"",""trial"":3,""time"":33098},{""event"":""focus"",""trial"":3,""time"":39728}]",NA,NA,NA,NA,NA,5,#1CD855,#FA92F8,10,0,1,40,0,1174,39,0,846.8000000119209,0,0,experiment,NA,NA,1,0.7,0.3,2,3,141,4,NA
fcp-trial,176,1236734,0.0-151.0-0.0,voc_e2,12098,"[{""event"":""fullscreenenter"",""trial"":1,""time"":5564},{""event"":""blur"",""trial"":3,""time"":33098},{""event"":""focus"",""trial"":3,""time"":39728}]",NA,NA,NA,NA,NA,0,#3386FF,#D89F1C,0,10,0,38,1,1159.0999999940395,39,0,494.699999988079,10,1,experiment,NA,NA,0,0.1,0.9,1,0,142,4,NA
fcp-trial,177,1240101,0.0-152.0-0.0,voc_e2,12098,"[{""event"":""fullscreenenter"",""trial"":1,""time"":5564},{""event"":""blur"",""trial"":3,""time"":33098},{""event"":""focus"",""trial"":3,""time"":39728}]",NA,NA,NA,NA,NA,1,#1CD855,#FA92F8,10,10,1,38,1,1439.7999999821186,37,1,421.59999999403954,10,1,experiment,NA,NA,1,0.7,0.3,2,3,143,4,NA
fcp-trial,178,1243290,0.0-153.0-0.0,voc_e2,12098,"[{""event"":""fullscreenenter"",""trial"":1,""time"":5564},{""event"":""blur"",""trial"":3,""time"":33098},{""event"":""focus"",""trial"":3,""time"":39728}]",NA,NA,NA,NA,NA,0,#D8271C,#741CD8,10,10,1,38,1,1178.0999999940395,37,1,502.09999999403954,10,1,experiment,NA,NA,2,0.5,0.5,4,5,144,4,NA
fcp-trial,179,1246165,0.0-154.0-0.0,voc_e2,12098,"[{""event"":""fullscreenenter"",""trial"":1,""time"":5564},{""event"":""blur"",""trial"":3,""time"":33098},{""event"":""focus"",""trial"":3,""time"":39728}]",NA,NA,NA,NA,NA,1,#D89F1C,#3386FF,10,0,1,38,1,907.5999999940395,37,1,461.699999988079,10,1,experiment,NA,NA,0,0.9,0.1,0,1,145,4,NA
fcp-trial,180,1249190,0.0-155.0-0.0,voc_e2,12098,"[{""event"":""fullscreenenter"",""trial"":1,""time"":5564},{""event"":""blur"",""trial"":3,""time"":33098},{""event"":""focus"",""trial"":3,""time"":39728}]",NA,NA,NA,NA,NA,0,#1CD855,#FA92F8,10,0,1,38,1,1040.5,37,1,477.699999988079,10,1,experiment,NA,NA,1,0.7,0.3,2,3,146,4,NA
fcp-trial,181,1251894,0.0-156.0-0.0,voc_e2,12098,"[{""event"":""fullscreenenter"",""trial"":1,""time"":5564},{""event"":""blur"",""trial"":3,""time"":33098},{""event"":""focus"",""trial"":3,""time"":39728}]",NA,NA,NA,NA,NA,2,#3386FF,#D89F1C,0,10,0,38,1,833.8999999761581,39,0,360,10,1,experiment,NA,NA,0,0.1,0.9,1,0,147,4,NA
fcp-trial,182,1255173,0.0-157.0-0.0,voc_e2,12098,"[{""event"":""fullscreenenter"",""trial"":1,""time"":5564},{""event"":""blur"",""trial"":3,""time"":33098},{""event"":""focus"",""trial"":3,""time"":39728}]",NA,NA,NA,NA,NA,4,#D8271C,#741CD8,10,0,1,40,0,1342.5,37,1,430.89999997615814,10,1,experiment,NA,NA,2,0.5,0.5,4,5,148,4,NA
fcp-trial,183,1259032,0.0-158.0-0.0,voc_e2,12098,"[{""event"":""fullscreenenter"",""trial"":1,""time"":5564},{""event"":""blur"",""trial"":3,""time"":33098},{""event"":""focus"",""trial"":3,""time"":39728}]",NA,NA,NA,NA,NA,5,#D89F1C,#3386FF,10,0,1,38,1,1861.300000011921,37,1,489.39999997615814,10,1,experiment,NA,NA,0,0.9,0.1,0,1,149,4,NA
fcp-trial,184,1262065,0.0-159.0-0.0,voc_e2,12098,"[{""event"":""fullscreenenter"",""trial"":1,""time"":5564},{""event"":""blur"",""trial"":3,""time"":33098},{""event"":""focus"",""trial"":3,""time"":39728}]",NA,NA,NA,NA,NA,6,#D8271C,#741CD8,10,10,1,40,0,912.5999999940395,37,1,612.7999999821186,10,1,experiment,NA,NA,2,0.5,0.5,4,5,150,4,NA
fcp-trial,185,1265221,0.0-160.0-0.0,voc_e2,12098,"[{""event"":""fullscreenenter"",""trial"":1,""time"":5564},{""event"":""blur"",""trial"":3,""time"":33098},{""event"":""focus"",""trial"":3,""time"":39728}]",NA,NA,NA,NA,NA,4,#3386FF,#D89F1C,0,0,0,38,1,1141.5999999940395,39,0,508.60000002384186,0,1,experiment,NA,NA,0,0.1,0.9,1,0,151,4,NA
fcp-trial,186,1269205,0.0-161.0-0.0,voc_e2,12098,"[{""event"":""fullscreenenter"",""trial"":1,""time"":5564},{""event"":""blur"",""trial"":3,""time"":33098},{""event"":""focus"",""trial"":3,""time"":39728}]",NA,NA,NA,NA,NA,2,#FA92F8,#1CD855,10,10,0,38,1,1847,39,0,631.3000000119209,10,1,experiment,NA,NA,1,0.3,0.7,3,2,152,4,NA
fcp-trial,187,1272461,0.0-162.0-0.0,voc_e2,12098,"[{""event"":""fullscreenenter"",""trial"":1,""time"":5564},{""event"":""blur"",""trial"":3,""time"":33098},{""event"":""focus"",""trial"":3,""time"":39728}]",NA,NA,NA,NA,NA,3,#D8271C,#741CD8,0,0,1,38,1,1295.0999999940395,37,1,455.300000011921,0,1,experiment,NA,NA,2,0.5,0.5,4,5,153,4,NA
fcp-trial,188,1275558,0.0-163.0-0.0,voc_e2,12098,"[{""event"":""fullscreenenter"",""trial"":1,""time"":5564},{""event"":""blur"",""trial"":3,""time"":33098},{""event"":""focus"",""trial"":3,""time"":39728}]",NA,NA,NA,NA,NA,2,#D89F1C,#3386FF,10,10,1,38,1,1167.699999988079,37,1,420,10,1,experiment,NA,NA,0,0.9,0.1,0,1,154,4,NA
fcp-trial,189,1278997,0.0-164.0-0.0,voc_e2,12098,"[{""event"":""fullscreenenter"",""trial"":1,""time"":5564},{""event"":""blur"",""trial"":3,""time"":33098},{""event"":""focus"",""trial"":3,""time"":39728}]",NA,NA,NA,NA,NA,5,#FA92F8,#1CD855,10,10,0,40,0,1349.0999999940395,39,0,580.9000000059605,10,1,experiment,NA,NA,1,0.3,0.7,3,2,155,4,NA
fcp-trial,190,1282326,0.0-165.0-0.0,voc_e2,12098,"[{""event"":""fullscreenenter"",""trial"":1,""time"":5564},{""event"":""blur"",""trial"":3,""time"":33098},{""event"":""focus"",""trial"":3,""time"":39728}]",NA,NA,NA,NA,NA,6,#D89F1C,#3386FF,10,0,1,40,0,1318,37,1,503.2000000178814,10,1,experiment,NA,NA,0,0.9,0.1,0,1,156,4,NA
fcp-trial,191,1285518,0.0-166.0-0.0,voc_e2,12098,"[{""event"":""fullscreenenter"",""trial"":1,""time"":5564},{""event"":""blur"",""trial"":3,""time"":33098},{""event"":""focus"",""trial"":3,""time"":39728}]",NA,NA,NA,NA,NA,1,#741CD8,#D8271C,0,10,0,38,1,1148.699999988079,39,0,534.9000000059605,10,1,experiment,NA,NA,2,0.5,0.5,5,4,157,4,NA
fcp-trial,192,1288471,0.0-167.0-0.0,voc_e2,12098,"[{""event"":""fullscreenenter"",""trial"":1,""time"":5564},{""event"":""blur"",""trial"":3,""time"":33098},{""event"":""focus"",""trial"":3,""time"":39728}]",NA,NA,NA,NA,NA,0,#D89F1C,#3386FF,0,0,1,38,1,981.3000000119209,37,1,463.300000011921,0,1,experiment,NA,NA,0,0.9,0.1,0,1,158,4,NA
fcp-trial,193,1292509,0.0-168.0-0.0,voc_e2,12098,"[{""event"":""fullscreenenter"",""trial"":1,""time"":5564},{""event"":""blur"",""trial"":3,""time"":33098},{""event"":""focus"",""trial"":3,""time"":39728}]",NA,NA,NA,NA,NA,5,#D8271C,#741CD8,0,0,1,40,0,1597.5,39,0,933.600000023842,0,0,experiment,NA,NA,2,0.5,0.5,4,5,159,4,NA
fcp-trial,194,1295812,0.0-169.0-0.0,voc_e2,12098,"[{""event"":""fullscreenenter"",""trial"":1,""time"":5564},{""event"":""blur"",""trial"":3,""time"":33098},{""event"":""focus"",""trial"":3,""time"":39728}]",NA,NA,NA,NA,NA,6,#1CD855,#FA92F8,10,0,1,40,0,926.9000000059605,39,0,869.6999999880791,0,0,experiment,NA,NA,1,0.7,0.3,2,3,160,4,NA
fcp-trial,195,1298829,0.0-170.0-0.0,voc_e2,12098,"[{""event"":""fullscreenenter"",""trial"":1,""time"":5564},{""event"":""blur"",""trial"":3,""time"":33098},{""event"":""focus"",""trial"":3,""time"":39728}]",NA,NA,NA,NA,NA,1,#FA92F8,#1CD855,0,0,0,38,1,1056.9000000059605,39,0,454,0,1,experiment,NA,NA,1,0.3,0.7,3,2,161,4,NA
fcp-trial,196,1302549,0.0-171.0-0.0,voc_e2,12098,"[{""event"":""fullscreenenter"",""trial"":1,""time"":5564},{""event"":""blur"",""trial"":3,""time"":33098},{""event"":""focus"",""trial"":3,""time"":39728}]",NA,NA,NA,NA,NA,3,#D89F1C,#3386FF,10,0,1,38,1,1663.5999999940395,37,1,551.5,10,1,experiment,NA,NA,0,0.9,0.1,0,1,162,4,NA
fcp-trial,197,1305517,0.0-172.0-0.0,voc_e2,12098,"[{""event"":""fullscreenenter"",""trial"":1,""time"":5564},{""event"":""blur"",""trial"":3,""time"":33098},{""event"":""focus"",""trial"":3,""time"":39728}]",NA,NA,NA,NA,NA,2,#D8271C,#741CD8,0,10,1,38,1,1089.9000000059605,37,1,373.5,0,1,experiment,NA,NA,2,0.5,0.5,4,5,163,4,NA
fcp-trial,198,1309161,0.0-173.0-0.0,voc_e2,12098,"[{""event"":""fullscreenenter"",""trial"":1,""time"":5564},{""event"":""blur"",""trial"":3,""time"":33098},{""event"":""focus"",""trial"":3,""time"":39728}]",NA,NA,NA,NA,NA,3,#FA92F8,#1CD855,0,0,0,38,1,1167.9000000059605,39,0,966.5,0,1,experiment,NA,NA,1,0.3,0.7,3,2,164,4,NA
fcp-trial,199,1311989,0.0-174.0-0.0,voc_e2,12098,"[{""event"":""fullscreenenter"",""trial"":1,""time"":5564},{""event"":""blur"",""trial"":3,""time"":33098},{""event"":""focus"",""trial"":3,""time"":39728}]",NA,NA,NA,NA,NA,0,#FA92F8,#1CD855,0,0,0,38,1,850.4000000059605,39,0,472.5,0,1,experiment,NA,NA,1,0.3,0.7,3,2,165,4,NA
fcp-trial,200,1314711,0.0-175.0-0.0,voc_e2,12098,"[{""event"":""fullscreenenter"",""trial"":1,""time"":5564},{""event"":""blur"",""trial"":3,""time"":33098},{""event"":""focus"",""trial"":3,""time"":39728}]",NA,NA,NA,NA,NA,4,#FA92F8,#1CD855,0,0,0,38,1,823.4000000059605,39,0,391.09999999403954,0,1,experiment,NA,NA,1,0.3,0.7,3,2,166,4,NA
fcp-trial,201,1317910,0.0-176.0-0.0,voc_e2,12098,"[{""event"":""fullscreenenter"",""trial"":1,""time"":5564},{""event"":""blur"",""trial"":3,""time"":33098},{""event"":""focus"",""trial"":3,""time"":39728}]",NA,NA,NA,NA,NA,1,#3386FF,#D89F1C,0,10,0,38,1,1123.5,39,0,568.0999999940395,10,1,experiment,NA,NA,0,0.1,0.9,1,0,167,4,NA
fcp-trial,202,1321469,0.0-177.0-0.0,voc_e2,12098,"[{""event"":""fullscreenenter"",""trial"":1,""time"":5564},{""event"":""blur"",""trial"":3,""time"":33098},{""event"":""focus"",""trial"":3,""time"":39728}]",NA,NA,NA,NA,NA,0,#741CD8,#D8271C,0,10,0,38,1,1172.2000000178814,37,1,880.5,0,0,experiment,NA,NA,2,0.5,0.5,5,4,168,4,NA
fcp-trial,203,1324837,0.0-178.0-0.0,voc_e2,12098,"[{""event"":""fullscreenenter"",""trial"":1,""time"":5564},{""event"":""blur"",""trial"":3,""time"":33098},{""event"":""focus"",""trial"":3,""time"":39728}]",NA,NA,NA,NA,NA,4,#1CD855,#FA92F8,0,0,1,38,1,1446.7999999821186,37,1,415.40000000596046,0,1,experiment,NA,NA,1,0.7,0.3,2,3,169,4,NA
fcp-trial,204,1327582,0.0-179.0-0.0,voc_e2,12098,"[{""event"":""fullscreenenter"",""trial"":1,""time"":5564},{""event"":""blur"",""trial"":3,""time"":33098},{""event"":""focus"",""trial"":3,""time"":39728}]",NA,NA,NA,NA,NA,1,#1CD855,#FA92F8,10,0,1,38,1,757.8000000119209,37,1,480.59999999403954,10,1,experiment,NA,NA,1,0.7,0.3,2,3,170,4,NA
fcp-trial,205,1330565,0.0-180.0-0.0,voc_e2,12098,"[{""event"":""fullscreenenter"",""trial"":1,""time"":5564},{""event"":""blur"",""trial"":3,""time"":33098},{""event"":""focus"",""trial"":3,""time"":39728}]",NA,NA,NA,NA,NA,0,#3386FF,#D89F1C,0,10,0,38,1,952.6000000238419,39,0,524.0999999940395,10,1,experiment,NA,NA,0,0.1,0.9,1,0,171,4,NA
fcp-trial,206,1334001,0.0-181.0-0.0,voc_e2,12098,"[{""event"":""fullscreenenter"",""trial"":1,""time"":5564},{""event"":""blur"",""trial"":3,""time"":33098},{""event"":""focus"",""trial"":3,""time"":39728}]",NA,NA,NA,NA,NA,3,#D89F1C,#3386FF,10,0,1,38,1,1184.2999999821186,37,1,746.7999999821186,10,1,experiment,NA,NA,0,0.9,0.1,0,1,172,4,NA
fcp-trial,207,1337205,0.0-182.0-0.0,voc_e2,12098,"[{""event"":""fullscreenenter"",""trial"":1,""time"":5564},{""event"":""blur"",""trial"":3,""time"":33098},{""event"":""focus"",""trial"":3,""time"":39728}]",NA,NA,NA,NA,NA,5,#D89F1C,#3386FF,10,0,1,40,0,1218.7000000178814,37,1,478.7999999821186,10,1,experiment,NA,NA,0,0.9,0.1,0,1,173,4,NA
fcp-trial,208,1340292,0.0-183.0-0.0,voc_e2,12098,"[{""event"":""fullscreenenter"",""trial"":1,""time"":5564},{""event"":""blur"",""trial"":3,""time"":33098},{""event"":""focus"",""trial"":3,""time"":39728}]",NA,NA,NA,NA,NA,6,#1CD855,#FA92F8,10,10,1,40,0,1064.3999999761581,37,1,518.0999999940395,10,1,experiment,NA,NA,1,0.7,0.3,2,3,174,4,NA
fcp-trial,209,1343797,0.0-184.0-0.0,voc_e2,12098,"[{""event"":""fullscreenenter"",""trial"":1,""time"":5564},{""event"":""blur"",""trial"":3,""time"":33098},{""event"":""focus"",""trial"":3,""time"":39728}]",NA,NA,NA,NA,NA,0,#D8271C,#741CD8,0,0,1,38,1,1047.6000000238419,37,1,950.5999999940396,0,1,experiment,NA,NA,2,0.5,0.5,4,5,175,4,NA
fcp-trial,210,1346725,0.0-185.0-0.0,voc_e2,12098,"[{""event"":""fullscreenenter"",""trial"":1,""time"":5564},{""event"":""blur"",""trial"":3,""time"":33098},{""event"":""focus"",""trial"":3,""time"":39728}]",NA,NA,NA,NA,NA,1,#3386FF,#D89F1C,0,10,0,38,1,1000.0999999940395,39,0,420.300000011921,10,1,experiment,NA,NA,0,0.1,0.9,1,0,176,4,NA
fcp-trial,211,1351317,0.0-186.0-0.0,voc_e2,12098,"[{""event"":""fullscreenenter"",""trial"":1,""time"":5564},{""event"":""blur"",""trial"":3,""time"":33098},{""event"":""focus"",""trial"":3,""time"":39728}]",NA,NA,NA,NA,NA,3,#741CD8,#D8271C,0,0,0,38,1,2093.5,39,0,990.2999999821186,0,1,experiment,NA,NA,2,0.5,0.5,5,4,177,4,NA
fcp-trial,212,1354470,0.0-187.0-0.0,voc_e2,12098,"[{""event"":""fullscreenenter"",""trial"":1,""time"":5564},{""event"":""blur"",""trial"":3,""time"":33098},{""event"":""focus"",""trial"":3,""time"":39728}]",NA,NA,NA,NA,NA,2,#FA92F8,#1CD855,10,10,0,38,1,1258.199999988079,39,0,374.40000000596046,10,1,experiment,NA,NA,1,0.3,0.7,3,2,178,4,NA
fcp-trial,213,1357549,0.0-188.0-0.0,voc_e2,12098,"[{""event"":""fullscreenenter"",""trial"":1,""time"":5564},{""event"":""blur"",""trial"":3,""time"":33098},{""event"":""focus"",""trial"":3,""time"":39728}]",NA,NA,NA,NA,NA,2,#3386FF,#D89F1C,0,10,0,38,1,819.5,39,0,751.3000000119209,10,1,experiment,NA,NA,0,0.1,0.9,1,0,179,4,NA
fcp-trial,214,1361725,0.0-189.0-0.0,voc_e2,12098,"[{""event"":""fullscreenenter"",""trial"":1,""time"":5564},{""event"":""blur"",""trial"":3,""time"":33098},{""event"":""focus"",""trial"":3,""time"":39728}]",NA,NA,NA,NA,NA,4,#D8271C,#741CD8,10,10,1,38,1,1334.199999988079,37,1,1335.4000000059605,10,1,experiment,NA,NA,2,0.5,0.5,4,5,180,4,NA
fcp-trial,215,1365620,0.0-190.0-0.0,voc_e2,12098,"[{""event"":""fullscreenenter"",""trial"":1,""time"":5564},{""event"":""blur"",""trial"":3,""time"":33098},{""event"":""focus"",""trial"":3,""time"":39728}]",NA,NA,NA,NA,NA,5,#D8271C,#741CD8,10,0,1,40,0,1477.9000000059605,39,0,909.5999999940396,0,0,experiment,NA,NA,2,0.5,0.5,4,5,181,5,NA
fcp-trial,216,1368869,0.0-191.0-0.0,voc_e2,12098,"[{""event"":""fullscreenenter"",""trial"":1,""time"":5564},{""event"":""blur"",""trial"":3,""time"":33098},{""event"":""focus"",""trial"":3,""time"":39728}]",NA,NA,NA,NA,NA,3,#1CD855,#FA92F8,0,0,1,38,1,997.4000000059605,37,1,743.7000000178814,0,1,experiment,NA,NA,1,0.7,0.3,2,3,182,5,NA
fcp-trial,217,1372095,0.0-192.0-0.0,voc_e2,12098,"[{""event"":""fullscreenenter"",""trial"":1,""time"":5564},{""event"":""blur"",""trial"":3,""time"":33098},{""event"":""focus"",""trial"":3,""time"":39728}]",NA,NA,NA,NA,NA,4,#D89F1C,#3386FF,10,10,1,40,0,1280.5,37,1,440.2000000178814,10,1,experiment,NA,NA,0,0.9,0.1,0,1,183,5,NA
fcp-trial,218,1375453,0.0-193.0-0.0,voc_e2,12098,"[{""event"":""fullscreenenter"",""trial"":1,""time"":5564},{""event"":""blur"",""trial"":3,""time"":33098},{""event"":""focus"",""trial"":3,""time"":39728}]",NA,NA,NA,NA,NA,6,#741CD8,#D8271C,10,10,0,40,0,1261.0999999940395,37,1,589.1999999880791,10,0,experiment,NA,NA,2,0.5,0.5,5,4,184,5,NA
fcp-trial,219,1378556,0.0-194.0-0.0,voc_e2,12098,"[{""event"":""fullscreenenter"",""trial"":1,""time"":5564},{""event"":""blur"",""trial"":3,""time"":33098},{""event"":""focus"",""trial"":3,""time"":39728}]",NA,NA,NA,NA,NA,6,#D89F1C,#3386FF,10,0,1,40,0,1118.0999999940395,37,1,477.7000000178814,10,1,experiment,NA,NA,0,0.9,0.1,0,1,185,5,NA
fcp-trial,220,1381471,0.0-195.0-0.0,voc_e2,12098,"[{""event"":""fullscreenenter"",""trial"":1,""time"":5564},{""event"":""blur"",""trial"":3,""time"":33098},{""event"":""focus"",""trial"":3,""time"":39728}]",NA,NA,NA,NA,NA,5,#1CD855,#FA92F8,10,0,1,40,0,863.2000000178814,37,1,544.3999999761581,10,1,experiment,NA,NA,1,0.7,0.3,2,3,186,5,NA
fcp-trial,221,1385166,0.0-196.0-0.0,voc_e2,12098,"[{""event"":""fullscreenenter"",""trial"":1,""time"":5564},{""event"":""blur"",""trial"":3,""time"":33098},{""event"":""focus"",""trial"":3,""time"":39728}]",NA,NA,NA,NA,NA,2,#741CD8,#D8271C,10,0,0,38,1,1339,39,0,847.6999999880791,0,1,experiment,NA,NA,2,0.5,0.5,5,4,187,5,NA
fcp-trial,222,1388798,0.0-197.0-0.0,voc_e2,12098,"[{""event"":""fullscreenenter"",""trial"":1,""time"":5564},{""event"":""blur"",""trial"":3,""time"":33098},{""event"":""focus"",""trial"":3,""time"":39728}]",NA,NA,NA,NA,NA,0,#FA92F8,#1CD855,0,0,0,38,1,1676.7999999821186,39,0,448.09999999403954,0,1,experiment,NA,NA,1,0.3,0.7,3,2,188,5,NA
fcp-trial,223,1391734,0.0-198.0-0.0,voc_e2,12098,"[{""event"":""fullscreenenter"",""trial"":1,""time"":5564},{""event"":""blur"",""trial"":3,""time"":33098},{""event"":""focus"",""trial"":3,""time"":39728}]",NA,NA,NA,NA,NA,1,#741CD8,#D8271C,10,0,0,38,1,1019,37,1,408.5,10,0,experiment,NA,NA,2,0.5,0.5,5,4,189,5,NA
fcp-trial,224,1394620,0.0-199.0-0.0,voc_e2,12098,"[{""event"":""fullscreenenter"",""trial"":1,""time"":5564},{""event"":""blur"",""trial"":3,""time"":33098},{""event"":""focus"",""trial"":3,""time"":39728}]",NA,NA,NA,NA,NA,0,#741CD8,#D8271C,0,10,0,38,1,933.5,37,1,445.10000002384186,0,0,experiment,NA,NA,2,0.5,0.5,5,4,190,5,NA
fcp-trial,225,1397613,0.0-200.0-0.0,voc_e2,12098,"[{""event"":""fullscreenenter"",""trial"":1,""time"":5564},{""event"":""blur"",""trial"":3,""time"":33098},{""event"":""focus"",""trial"":3,""time"":39728}]",NA,NA,NA,NA,NA,2,#FA92F8,#1CD855,0,10,0,38,1,975.3000000119209,39,0,510,10,1,experiment,NA,NA,1,0.3,0.7,3,2,191,5,NA
fcp-trial,226,1400660,0.0-201.0-0.0,voc_e2,12098,"[{""event"":""fullscreenenter"",""trial"":1,""time"":5564},{""event"":""blur"",""trial"":3,""time"":33098},{""event"":""focus"",""trial"":3,""time"":39728}]",NA,NA,NA,NA,NA,3,#FA92F8,#1CD855,10,10,0,38,1,867,39,0,670.2999999821186,10,1,experiment,NA,NA,1,0.3,0.7,3,2,192,5,NA
fcp-trial,227,1403245,0.0-202.0-0.0,voc_e2,12098,"[{""event"":""fullscreenenter"",""trial"":1,""time"":5564},{""event"":""blur"",""trial"":3,""time"":33098},{""event"":""focus"",""trial"":3,""time"":39728}]",NA,NA,NA,NA,NA,3,#D89F1C,#3386FF,10,10,1,38,1,606.4000000059605,37,1,470.800000011921,10,1,experiment,NA,NA,0,0.9,0.1,0,1,193,5,NA
fcp-trial,228,1406131,0.0-203.0-0.0,voc_e2,12098,"[{""event"":""fullscreenenter"",""trial"":1,""time"":5564},{""event"":""blur"",""trial"":3,""time"":33098},{""event"":""focus"",""trial"":3,""time"":39728}]",NA,NA,NA,NA,NA,6,#741CD8,#D8271C,10,10,0,40,0,765.9000000059605,39,0,613.2999999821186,10,1,experiment,NA,NA,2,0.5,0.5,5,4,194,5,NA
fcp-trial,229,1409556,0.0-204.0-0.0,voc_e2,12098,"[{""event"":""fullscreenenter"",""trial"":1,""time"":5564},{""event"":""blur"",""trial"":3,""time"":33098},{""event"":""focus"",""trial"":3,""time"":39728}]",NA,NA,NA,NA,NA,4,#3386FF,#D89F1C,0,10,0,40,0,1505,39,0,414.39999997615814,10,1,experiment,NA,NA,0,0.1,0.9,1,0,195,5,NA
fcp-trial,230,1412276,0.0-205.0-0.0,voc_e2,12098,"[{""event"":""fullscreenenter"",""trial"":1,""time"":5564},{""event"":""blur"",""trial"":3,""time"":33098},{""event"":""focus"",""trial"":3,""time"":39728}]",NA,NA,NA,NA,NA,2,#3386FF,#D89F1C,0,10,0,38,1,895.7000000178814,39,0,319.2000000178814,10,1,experiment,NA,NA,0,0.1,0.9,1,0,196,5,NA
fcp-trial,231,1416628,0.0-206.0-0.0,voc_e2,12098,"[{""event"":""fullscreenenter"",""trial"":1,""time"":5564},{""event"":""blur"",""trial"":3,""time"":33098},{""event"":""focus"",""trial"":3,""time"":39728}]",NA,NA,NA,NA,NA,6,#FA92F8,#1CD855,10,0,0,40,0,2207.5,37,1,636.3000000119209,10,0,experiment,NA,NA,1,0.3,0.7,3,2,197,5,NA
fcp-trial,232,1420411,0.0-207.0-0.0,voc_e2,12098,"[{""event"":""fullscreenenter"",""trial"":1,""time"":5564},{""event"":""blur"",""trial"":3,""time"":33098},{""event"":""focus"",""trial"":3,""time"":39728}]",NA,NA,NA,NA,NA,4,#741CD8,#D8271C,10,0,0,38,1,1555,37,1,722.2999999821186,10,0,experiment,NA,NA,2,0.5,0.5,5,4,198,5,NA
fcp-trial,233,1424180,0.0-208.0-0.0,voc_e2,12098,"[{""event"":""fullscreenenter"",""trial"":1,""time"":5564},{""event"":""blur"",""trial"":3,""time"":33098},{""event"":""focus"",""trial"":3,""time"":39728}]",NA,NA,NA,NA,NA,5,#1CD855,#FA92F8,0,0,1,40,0,1408.5,39,0,855.5,0,0,experiment,NA,NA,1,0.7,0.3,2,3,199,5,NA
fcp-trial,234,1428039,0.0-209.0-0.0,voc_e2,12098,"[{""event"":""fullscreenenter"",""trial"":1,""time"":5564},{""event"":""blur"",""trial"":3,""time"":33098},{""event"":""focus"",""trial"":3,""time"":39728}]",NA,NA,NA,NA,NA,3,#741CD8,#D8271C,0,0,0,38,1,1214.5,37,1,1135.2999999821186,0,0,experiment,NA,NA,2,0.5,0.5,5,4,200,5,NA
fcp-trial,235,1431942,0.0-210.0-0.0,voc_e2,12098,"[{""event"":""fullscreenenter"",""trial"":1,""time"":5564},{""event"":""blur"",""trial"":3,""time"":33098},{""event"":""focus"",""trial"":3,""time"":39728}]",NA,NA,NA,NA,NA,5,#D89F1C,#3386FF,10,0,1,40,0,1841.5999999940395,39,0,549.9000000059605,0,0,experiment,NA,NA,0,0.9,0.1,0,1,201,5,NA
fcp-trial,236,1435294,0.0-211.0-0.0,voc_e2,12098,"[{""event"":""fullscreenenter"",""trial"":1,""time"":5564},{""event"":""blur"",""trial"":3,""time"":33098},{""event"":""focus"",""trial"":3,""time"":39728}]",NA,NA,NA,NA,NA,6,#3386FF,#D89F1C,0,10,0,40,0,1262.300000011921,37,1,582.7000000178814,0,0,experiment,NA,NA,0,0.1,0.9,1,0,202,5,NA
fcp-trial,237,1438709,0.0-212.0-0.0,voc_e2,12098,"[{""event"":""fullscreenenter"",""trial"":1,""time"":5564},{""event"":""blur"",""trial"":3,""time"":33098},{""event"":""focus"",""trial"":3,""time"":39728}]",NA,NA,NA,NA,NA,1,#1CD855,#FA92F8,0,0,1,38,1,1173,37,1,734.5,0,1,experiment,NA,NA,1,0.7,0.3,2,3,203,5,NA
fcp-trial,238,1441941,0.0-213.0-0.0,voc_e2,12098,"[{""event"":""fullscreenenter"",""trial"":1,""time"":5564},{""event"":""blur"",""trial"":3,""time"":33098},{""event"":""focus"",""trial"":3,""time"":39728}]",NA,NA,NA,NA,NA,0,#FA92F8,#1CD855,0,0,0,38,1,1098.9000000059605,39,0,624.5999999940395,0,1,experiment,NA,NA,1,0.3,0.7,3,2,204,5,NA
fcp-trial,239,1445733,0.0-214.0-0.0,voc_e2,12098,"[{""event"":""fullscreenenter"",""trial"":1,""time"":5564},{""event"":""blur"",""trial"":3,""time"":33098},{""event"":""focus"",""trial"":3,""time"":39728}]",NA,NA,NA,NA,NA,2,#741CD8,#D8271C,0,10,0,38,1,1013.7999999821186,37,1,1270.2999999821186,0,0,experiment,NA,NA,2,0.5,0.5,5,4,205,5,NA
fcp-trial,240,1448861,0.0-215.0-0.0,voc_e2,12098,"[{""event"":""fullscreenenter"",""trial"":1,""time"":5564},{""event"":""blur"",""trial"":3,""time"":33098},{""event"":""focus"",""trial"":3,""time"":39728}]",NA,NA,NA,NA,NA,1,#D8271C,#741CD8,10,10,1,38,1,782.7999999821186,39,0,830.1999999880791,10,0,experiment,NA,NA,2,0.5,0.5,4,5,206,5,NA
fcp-trial,241,1451729,0.0-216.0-0.0,voc_e2,12098,"[{""event"":""fullscreenenter"",""trial"":1,""time"":5564},{""event"":""blur"",""trial"":3,""time"":33098},{""event"":""focus"",""trial"":3,""time"":39728}]",NA,NA,NA,NA,NA,0,#D89F1C,#3386FF,0,0,1,38,1,876.6999999880791,37,1,472.40000000596046,0,1,experiment,NA,NA,0,0.9,0.1,0,1,207,5,NA
fcp-trial,242,1455197,0.0-217.0-0.0,voc_e2,12098,"[{""event"":""fullscreenenter"",""trial"":1,""time"":5564},{""event"":""blur"",""trial"":3,""time"":33098},{""event"":""focus"",""trial"":3,""time"":39728}]",NA,NA,NA,NA,NA,5,#741CD8,#D8271C,0,0,0,40,0,1104.9000000059605,39,0,854.8000000119209,0,1,experiment,NA,NA,2,0.5,0.5,5,4,208,5,NA
fcp-trial,243,1458503,0.0-218.0-0.0,voc_e2,12098,"[{""event"":""fullscreenenter"",""trial"":1,""time"":5564},{""event"":""blur"",""trial"":3,""time"":33098},{""event"":""focus"",""trial"":3,""time"":39728}]",NA,NA,NA,NA,NA,4,#1CD855,#FA92F8,10,0,1,38,1,1340.699999988079,37,1,453.90000000596046,10,1,experiment,NA,NA,1,0.7,0.3,2,3,209,5,NA
fcp-trial,244,1461597,0.0-219.0-0.0,voc_e2,12098,"[{""event"":""fullscreenenter"",""trial"":1,""time"":5564},{""event"":""blur"",""trial"":3,""time"":33098},{""event"":""focus"",""trial"":3,""time"":39728}]",NA,NA,NA,NA,NA,1,#3386FF,#D89F1C,0,10,0,38,1,932.6999999880791,39,0,650.8000000119209,10,1,experiment,NA,NA,0,0.1,0.9,1,0,210,5,NA
audio-instructions,245,1468688,0.0-220.0,voc_e2,12098,"[{""event"":""fullscreenenter"",""trial"":1,""time"":5564},{""event"":""blur"",""trial"":3,""time"":33098},{""event"":""focus"",""trial"":3,""time"":39728}]",NA,2299.399999976158,static/audio/pause.wav,NA,0,NA,NA,NA,NA,NA,NA,NA,NA,NA,NA,NA,NA,NA,NA,NA,NA,NA,NA,NA,NA,NA,NA,NA,NA,NA
fcp-trial,246,1472538,0.0-221.0-0.0,voc_e2,12098,"[{""event"":""fullscreenenter"",""trial"":1,""time"":5564},{""event"":""blur"",""trial"":3,""time"":33098},{""event"":""focus"",""trial"":3,""time"":39728}]",NA,NA,NA,NA,NA,1,#1CD855,#FA92F8,10,0,1,38,1,2067.5,37,1,256.80000001192093,10,1,experiment,NA,NA,1,0.7,0.3,2,3,211,5,NA
fcp-trial,247,1475589,0.0-222.0-0.0,voc_e2,12098,"[{""event"":""fullscreenenter"",""trial"":1,""time"":5564},{""event"":""blur"",""trial"":3,""time"":33098},{""event"":""focus"",""trial"":3,""time"":39728}]",NA,NA,NA,NA,NA,3,#741CD8,#D8271C,0,0,0,38,1,961.3999999761581,39,0,582.0999999940395,0,1,experiment,NA,NA,2,0.5,0.5,5,4,212,5,NA
fcp-trial,248,1478454,0.0-223.0-0.0,voc_e2,12098,"[{""event"":""fullscreenenter"",""trial"":1,""time"":5564},{""event"":""blur"",""trial"":3,""time"":33098},{""event"":""focus"",""trial"":3,""time"":39728}]",NA,NA,NA,NA,NA,0,#3386FF,#D89F1C,0,10,0,38,1,1029.2000000178814,39,0,318.90000000596046,10,1,experiment,NA,NA,0,0.1,0.9,1,0,213,5,NA
fcp-trial,249,1482055,0.0-224.0-0.0,voc_e2,12098,"[{""event"":""fullscreenenter"",""trial"":1,""time"":5564},{""event"":""blur"",""trial"":3,""time"":33098},{""event"":""focus"",""trial"":3,""time"":39728}]",NA,NA,NA,NA,NA,5,#3386FF,#D89F1C,0,10,0,40,0,1398.7999999821186,37,1,687.1999999880791,0,0,experiment,NA,NA,0,0.1,0.9,1,0,214,5,NA
fcp-trial,250,1485090,0.0-225.0-0.0,voc_e2,12098,"[{""event"":""fullscreenenter"",""trial"":1,""time"":5564},{""event"":""blur"",""trial"":3,""time"":33098},{""event"":""focus"",""trial"":3,""time"":39728}]",NA,NA,NA,NA,NA,6,#FA92F8,#1CD855,0,10,0,40,0,913.4000000059605,37,1,593.8999999761581,0,0,experiment,NA,NA,1,0.3,0.7,3,2,215,5,NA
fcp-trial,251,1488396,0.0-226.0-0.0,voc_e2,12098,"[{""event"":""fullscreenenter"",""trial"":1,""time"":5564},{""event"":""blur"",""trial"":3,""time"":33098},{""event"":""focus"",""trial"":3,""time"":39728}]",NA,NA,NA,NA,NA,4,#D89F1C,#3386FF,10,0,1,38,1,1544,37,1,253.5,10,1,experiment,NA,NA,0,0.9,0.1,0,1,216,5,NA
fcp-trial,252,1491858,0.0-227.0-0.0,voc_e2,12098,"[{""event"":""fullscreenenter"",""trial"":1,""time"":5564},{""event"":""blur"",""trial"":3,""time"":33098},{""event"":""focus"",""trial"":3,""time"":39728}]",NA,NA,NA,NA,NA,1,#D8271C,#741CD8,10,0,1,38,1,1319,39,0,620,0,0,experiment,NA,NA,2,0.5,0.5,4,5,217,5,NA
fcp-trial,253,1495178,0.0-228.0-0.0,voc_e2,12098,"[{""event"":""fullscreenenter"",""trial"":1,""time"":5564},{""event"":""blur"",""trial"":3,""time"":33098},{""event"":""focus"",""trial"":3,""time"":39728}]",NA,NA,NA,NA,NA,1,#D89F1C,#3386FF,10,0,1,38,1,1146.7000000178814,37,1,653.4000000059605,10,1,experiment,NA,NA,0,0.9,0.1,0,1,218,5,NA
fcp-trial,254,1498582,0.0-229.0-0.0,voc_e2,12098,"[{""event"":""fullscreenenter"",""trial"":1,""time"":5564},{""event"":""blur"",""trial"":3,""time"":33098},{""event"":""focus"",""trial"":3,""time"":39728}]",NA,NA,NA,NA,NA,5,#D8271C,#741CD8,10,0,1,40,0,1208.699999988079,39,0,686.2999999821186,0,0,experiment,NA,NA,2,0.5,0.5,4,5,219,5,NA
fcp-trial,255,1503836,0.0-230.0-0.0,voc_e2,12098,"[{""event"":""fullscreenenter"",""trial"":1,""time"":5564},{""event"":""blur"",""trial"":3,""time"":33098},{""event"":""focus"",""trial"":3,""time"":39728}]",NA,NA,NA,NA,NA,5,#FA92F8,#1CD855,0,0,0,40,0,3092.7999999821186,37,1,654.3000000119209,0,0,experiment,NA,NA,1,0.3,0.7,3,2,220,5,NA
fcp-trial,256,1507052,0.0-231.0-0.0,voc_e2,12098,"[{""event"":""fullscreenenter"",""trial"":1,""time"":5564},{""event"":""blur"",""trial"":3,""time"":33098},{""event"":""focus"",""trial"":3,""time"":39728}]",NA,NA,NA,NA,NA,6,#741CD8,#D8271C,0,0,0,40,0,991.0999999940395,37,1,715,0,0,experiment,NA,NA,2,0.5,0.5,5,4,221,5,NA
fcp-trial,257,1510309,0.0-232.0-0.0,voc_e2,12098,"[{""event"":""fullscreenenter"",""trial"":1,""time"":5564},{""event"":""blur"",""trial"":3,""time"":33098},{""event"":""focus"",""trial"":3,""time"":39728}]",NA,NA,NA,NA,NA,6,#D89F1C,#3386FF,10,0,1,40,0,1230.7000000178814,37,1,519.5,10,1,experiment,NA,NA,0,0.9,0.1,0,1,222,5,NA
fcp-trial,258,1513518,0.0-233.0-0.0,voc_e2,12098,"[{""event"":""fullscreenenter"",""trial"":1,""time"":5564},{""event"":""blur"",""trial"":3,""time"":33098},{""event"":""focus"",""trial"":3,""time"":39728}]",NA,NA,NA,NA,NA,2,#1CD855,#FA92F8,10,0,1,38,1,1391.2000000178814,37,1,312,10,1,experiment,NA,NA,1,0.7,0.3,2,3,223,5,NA
fcp-trial,259,1517381,0.0-234.0-0.0,voc_e2,12098,"[{""event"":""fullscreenenter"",""trial"":1,""time"":5564},{""event"":""blur"",""trial"":3,""time"":33098},{""event"":""focus"",""trial"":3,""time"":39728}]",NA,NA,NA,NA,NA,4,#741CD8,#D8271C,0,10,0,40,0,1861.0999999940395,39,0,496.199999988079,10,1,experiment,NA,NA,2,0.5,0.5,5,4,224,5,NA
fcp-trial,260,1520285,0.0-235.0-0.0,voc_e2,12098,"[{""event"":""fullscreenenter"",""trial"":1,""time"":5564},{""event"":""blur"",""trial"":3,""time"":33098},{""event"":""focus"",""trial"":3,""time"":39728}]",NA,NA,NA,NA,NA,0,#1CD855,#FA92F8,10,0,1,38,1,787.9000000059605,37,1,607.8999999761581,10,1,experiment,NA,NA,1,0.7,0.3,2,3,225,5,NA
fcp-trial,261,1523293,0.0-236.0-0.0,voc_e2,12098,"[{""event"":""fullscreenenter"",""trial"":1,""time"":5564},{""event"":""blur"",""trial"":3,""time"":33098},{""event"":""focus"",""trial"":3,""time"":39728}]",NA,NA,NA,NA,NA,3,#3386FF,#D89F1C,10,0,0,38,1,910,39,0,590.4000000059605,0,1,experiment,NA,NA,0,0.1,0.9,1,0,226,6,NA
fcp-trial,262,1527107,0.0-237.0-0.0,voc_e2,12098,"[{""event"":""fullscreenenter"",""trial"":1,""time"":5564},{""event"":""blur"",""trial"":3,""time"":33098},{""event"":""focus"",""trial"":3,""time"":39728}]",NA,NA,NA,NA,NA,2,#D8271C,#741CD8,0,10,1,38,1,1203.1000000238419,39,0,1105.7000000178814,10,0,experiment,NA,NA,2,0.5,0.5,4,5,227,6,NA
fcp-trial,263,1530123,0.0-238.0-0.0,voc_e2,12098,"[{""event"":""fullscreenenter"",""trial"":1,""time"":5564},{""event"":""blur"",""trial"":3,""time"":33098},{""event"":""focus"",""trial"":3,""time"":39728}]",NA,NA,NA,NA,NA,3,#FA92F8,#1CD855,10,0,0,38,1,976.8000000119209,39,0,534.2000000178814,0,1,experiment,NA,NA,1,0.3,0.7,3,2,228,6,NA
fcp-trial,264,1533076,0.0-239.0-0.0,voc_e2,12098,"[{""event"":""fullscreenenter"",""trial"":1,""time"":5564},{""event"":""blur"",""trial"":3,""time"":33098},{""event"":""focus"",""trial"":3,""time"":39728}]",NA,NA,NA,NA,NA,2,#D89F1C,#3386FF,10,0,1,38,1,1024.9000000059605,37,1,424.800000011921,10,1,experiment,NA,NA,0,0.9,0.1,0,1,229,6,NA
fcp-trial,265,1536221,0.0-240.0-0.0,voc_e2,12098,"[{""event"":""fullscreenenter"",""trial"":1,""time"":5564},{""event"":""blur"",""trial"":3,""time"":33098},{""event"":""focus"",""trial"":3,""time"":39728}]",NA,NA,NA,NA,NA,0,#D8271C,#741CD8,10,10,1,38,1,814.4000000059605,39,0,824,10,0,experiment,NA,NA,2,0.5,0.5,4,5,230,6,NA
fcp-trial,266,1539165,0.0-241.0-0.0,voc_e2,12098,"[{""event"":""fullscreenenter"",""trial"":1,""time"":5564},{""event"":""blur"",""trial"":3,""time"":33098},{""event"":""focus"",""trial"":3,""time"":39728}]",NA,NA,NA,NA,NA,4,#1CD855,#FA92F8,10,0,1,38,1,988.6999999880791,37,1,447.300000011921,10,1,experiment,NA,NA,1,0.7,0.3,2,3,231,6,NA
fcp-trial,267,1541964,0.0-242.0-0.0,voc_e2,12098,"[{""event"":""fullscreenenter"",""trial"":1,""time"":5564},{""event"":""blur"",""trial"":3,""time"":33098},{""event"":""focus"",""trial"":3,""time"":39728}]",NA,NA,NA,NA,NA,0,#D89F1C,#3386FF,10,0,1,38,1,861.8000000119209,37,1,432.2000000178814,10,1,experiment,NA,NA,0,0.9,0.1,0,1,232,6,NA
fcp-trial,268,1545117,0.0-243.0-0.0,voc_e2,12098,"[{""event"":""fullscreenenter"",""trial"":1,""time"":5564},{""event"":""blur"",""trial"":3,""time"":33098},{""event"":""focus"",""trial"":3,""time"":39728}]",NA,NA,NA,NA,NA,1,#741CD8,#D8271C,0,10,0,38,1,1118.4000000059605,37,1,529,0,0,experiment,NA,NA,2,0.5,0.5,5,4,233,6,NA
fcp-trial,269,1548340,0.0-244.0-0.0,voc_e2,12098,"[{""event"":""fullscreenenter"",""trial"":1,""time"":5564},{""event"":""blur"",""trial"":3,""time"":33098},{""event"":""focus"",""trial"":3,""time"":39728}]",NA,NA,NA,NA,NA,3,#FA92F8,#1CD855,10,10,0,38,1,959.5,39,0,759.7000000178814,10,1,experiment,NA,NA,1,0.3,0.7,3,2,234,6,NA
fcp-trial,270,1551701,0.0-245.0-0.0,voc_e2,12098,"[{""event"":""fullscreenenter"",""trial"":1,""time"":5564},{""event"":""blur"",""trial"":3,""time"":33098},{""event"":""focus"",""trial"":3,""time"":39728}]",NA,NA,NA,NA,NA,6,#3386FF,#D89F1C,0,10,0,40,0,1238.2999999821186,37,1,616.1999999880791,0,0,experiment,NA,NA,0,0.1,0.9,1,0,235,6,NA
fcp-trial,271,1554820,0.0-246.0-0.0,voc_e2,12098,"[{""event"":""fullscreenenter"",""trial"":1,""time"":5564},{""event"":""blur"",""trial"":3,""time"":33098},{""event"":""focus"",""trial"":3,""time"":39728}]",NA,NA,NA,NA,NA,2,#D8271C,#741CD8,0,10,1,38,1,950.3000000119209,39,0,661.7000000178814,10,0,experiment,NA,NA,2,0.5,0.5,4,5,236,6,NA
fcp-trial,272,1557940,0.0-247.0-0.0,voc_e2,12098,"[{""event"":""fullscreenenter"",""trial"":1,""time"":5564},{""event"":""blur"",""trial"":3,""time"":33098},{""event"":""focus"",""trial"":3,""time"":39728}]",NA,NA,NA,NA,NA,1,#1CD855,#FA92F8,10,0,1,38,1,1134,37,1,479.59999999403954,10,1,experiment,NA,NA,1,0.7,0.3,2,3,237,6,NA
fcp-trial,273,1561203,0.0-248.0-0.0,voc_e2,12098,"[{""event"":""fullscreenenter"",""trial"":1,""time"":5564},{""event"":""blur"",""trial"":3,""time"":33098},{""event"":""focus"",""trial"":3,""time"":39728}]",NA,NA,NA,NA,NA,1,#D89F1C,#3386FF,10,0,1,38,1,1221.199999988079,37,1,534.5999999940395,10,1,experiment,NA,NA,0,0.9,0.1,0,1,238,6,NA
fcp-trial,274,1564324,0.0-249.0-0.0,voc_e2,12098,"[{""event"":""fullscreenenter"",""trial"":1,""time"":5564},{""event"":""blur"",""trial"":3,""time"":33098},{""event"":""focus"",""trial"":3,""time"":39728}]",NA,NA,NA,NA,NA,4,#D8271C,#741CD8,0,10,1,40,0,1152.2999999821186,37,1,463.09999999403954,0,1,experiment,NA,NA,2,0.5,0.5,4,5,239,6,NA
fcp-trial,275,1567172,0.0-250.0-0.0,voc_e2,12098,"[{""event"":""fullscreenenter"",""trial"":1,""time"":5564},{""event"":""blur"",""trial"":3,""time"":33098},{""event"":""focus"",""trial"":3,""time"":39728}]",NA,NA,NA,NA,NA,2,#FA92F8,#1CD855,10,10,0,38,1,821.5,39,0,519.3000000119209,10,1,experiment,NA,NA,1,0.3,0.7,3,2,240,6,NA
fcp-trial,276,1570477,0.0-251.0-0.0,voc_e2,12098,"[{""event"":""fullscreenenter"",""trial"":1,""time"":5564},{""event"":""blur"",""trial"":3,""time"":33098},{""event"":""focus"",""trial"":3,""time"":39728}]",NA,NA,NA,NA,NA,4,#D89F1C,#3386FF,0,0,1,38,1,1341.4000000059605,37,1,455.2999999821186,0,1,experiment,NA,NA,0,0.9,0.1,0,1,241,6,NA
fcp-trial,277,1574340,0.0-252.0-0.0,voc_e2,12098,"[{""event"":""fullscreenenter"",""trial"":1,""time"":5564},{""event"":""blur"",""trial"":3,""time"":33098},{""event"":""focus"",""trial"":3,""time"":39728}]",NA,NA,NA,NA,NA,4,#FA92F8,#1CD855,0,10,0,40,0,1796.8999999761581,37,1,557.9000000059605,0,0,experiment,NA,NA,1,0.3,0.7,3,2,242,6,NA
fcp-trial,278,1577316,0.0-253.0-0.0,voc_e2,12098,"[{""event"":""fullscreenenter"",""trial"":1,""time"":5564},{""event"":""blur"",""trial"":3,""time"":33098},{""event"":""focus"",""trial"":3,""time"":39728}]",NA,NA,NA,NA,NA,6,#741CD8,#D8271C,0,10,0,40,0,968.7999999821186,39,0,501.800000011921,10,1,experiment,NA,NA,2,0.5,0.5,5,4,243,6,NA
fcp-trial,279,1580189,0.0-254.0-0.0,voc_e2,12098,"[{""event"":""fullscreenenter"",""trial"":1,""time"":5564},{""event"":""blur"",""trial"":3,""time"":33098},{""event"":""focus"",""trial"":3,""time"":39728}]",NA,NA,NA,NA,NA,5,#741CD8,#D8271C,10,10,0,40,0,918.6999999880791,37,1,447.09999999403954,10,0,experiment,NA,NA,2,0.5,0.5,5,4,244,6,NA
fcp-trial,280,1583123,0.0-255.0-0.0,voc_e2,12098,"[{""event"":""fullscreenenter"",""trial"":1,""time"":5564},{""event"":""blur"",""trial"":3,""time"":33098},{""event"":""focus"",""trial"":3,""time"":39728}]",NA,NA,NA,NA,NA,3,#D89F1C,#3386FF,10,0,1,38,1,1045.199999988079,37,1,382.09999999403954,10,1,experiment,NA,NA,0,0.9,0.1,0,1,245,6,NA
fcp-trial,281,1586331,0.0-256.0-0.0,voc_e2,12098,"[{""event"":""fullscreenenter"",""trial"":1,""time"":5564},{""event"":""blur"",""trial"":3,""time"":33098},{""event"":""focus"",""trial"":3,""time"":39728}]",NA,NA,NA,NA,NA,6,#1CD855,#FA92F8,10,0,1,40,0,881.3000000119209,39,0,823.4000000059605,0,0,experiment,NA,NA,1,0.7,0.3,2,3,246,6,NA
fcp-trial,282,1589187,0.0-257.0-0.0,voc_e2,12098,"[{""event"":""fullscreenenter"",""trial"":1,""time"":5564},{""event"":""blur"",""trial"":3,""time"":33098},{""event"":""focus"",""trial"":3,""time"":39728}]",NA,NA,NA,NA,NA,0,#1CD855,#FA92F8,0,0,1,38,1,748.0999999940395,37,1,599.3000000119209,0,1,experiment,NA,NA,1,0.7,0.3,2,3,247,6,NA
fcp-trial,283,1593339,0.0-258.0-0.0,voc_e2,12098,"[{""event"":""fullscreenenter"",""trial"":1,""time"":5564},{""event"":""blur"",""trial"":3,""time"":33098},{""event"":""focus"",""trial"":3,""time"":39728}]",NA,NA,NA,NA,NA,2,#3386FF,#D89F1C,0,10,0,38,1,2007.5999999940395,39,0,637.8000000119209,10,1,experiment,NA,NA,0,0.1,0.9,1,0,248,6,NA
fcp-trial,284,1596287,0.0-259.0-0.0,voc_e2,12098,"[{""event"":""fullscreenenter"",""trial"":1,""time"":5564},{""event"":""blur"",""trial"":3,""time"":33098},{""event"":""focus"",""trial"":3,""time"":39728}]",NA,NA,NA,NA,NA,0,#D8271C,#741CD8,10,10,1,38,1,975.3000000119209,39,0,454.89999997615814,10,0,experiment,NA,NA,2,0.5,0.5,4,5,249,6,NA
fcp-trial,285,1599427,0.0-260.0-0.0,voc_e2,12098,"[{""event"":""fullscreenenter"",""trial"":1,""time"":5564},{""event"":""blur"",""trial"":3,""time"":33098},{""event"":""focus"",""trial"":3,""time"":39728}]",NA,NA,NA,NA,NA,5,#D89F1C,#3386FF,10,0,1,40,0,1202.1000000238419,37,1,430.199999988079,10,1,experiment,NA,NA,0,0.9,0.1,0,1,250,6,NA
fcp-trial,286,1602627,0.0-261.0-0.0,voc_e2,12098,"[{""event"":""fullscreenenter"",""trial"":1,""time"":5564},{""event"":""blur"",""trial"":3,""time"":33098},{""event"":""focus"",""trial"":3,""time"":39728}]",NA,NA,NA,NA,NA,5,#FA92F8,#1CD855,10,10,0,40,0,1199.5,39,0,494.2999999821186,10,1,experiment,NA,NA,1,0.3,0.7,3,2,251,6,NA
fcp-trial,287,1605987,0.0-262.0-0.0,voc_e2,12098,"[{""event"":""fullscreenenter"",""trial"":1,""time"":5564},{""event"":""blur"",""trial"":3,""time"":33098},{""event"":""focus"",""trial"":3,""time"":39728}]",NA,NA,NA,NA,NA,3,#D8271C,#741CD8,0,10,1,38,1,1325.199999988079,39,0,528.5,10,0,experiment,NA,NA,2,0.5,0.5,4,5,252,6,NA
fcp-trial,288,1608995,0.0-263.0-0.0,voc_e2,12098,"[{""event"":""fullscreenenter"",""trial"":1,""time"":5564},{""event"":""blur"",""trial"":3,""time"":33098},{""event"":""focus"",""trial"":3,""time"":39728}]",NA,NA,NA,NA,NA,1,#1CD855,#FA92F8,10,10,1,38,1,1148,37,1,350.80000001192093,10,1,experiment,NA,NA,1,0.7,0.3,2,3,253,6,NA
fcp-trial,289,1612227,0.0-264.0-0.0,voc_e2,12098,"[{""event"":""fullscreenenter"",""trial"":1,""time"":5564},{""event"":""blur"",""trial"":3,""time"":33098},{""event"":""focus"",""trial"":3,""time"":39728}]",NA,NA,NA,NA,NA,2,#D89F1C,#3386FF,10,0,1,38,1,1286.7999999821186,37,1,439,10,1,experiment,NA,NA,0,0.9,0.1,0,1,254,6,NA
fcp-trial,290,1615716,0.0-265.0-0.0,voc_e2,12098,"[{""event"":""fullscreenenter"",""trial"":1,""time"":5564},{""event"":""blur"",""trial"":3,""time"":33098},{""event"":""focus"",""trial"":3,""time"":39728}]",NA,NA,NA,NA,NA,6,#D8271C,#741CD8,0,10,1,40,0,1495,39,0,487.59999999403954,10,0,experiment,NA,NA,2,0.5,0.5,4,5,255,6,NA
fcp-trial,291,1618676,0.0-266.0-0.0,voc_e2,12098,"[{""event"":""fullscreenenter"",""trial"":1,""time"":5564},{""event"":""blur"",""trial"":3,""time"":33098},{""event"":""focus"",""trial"":3,""time"":39728}]",NA,NA,NA,NA,NA,0,#741CD8,#D8271C,10,0,0,38,1,1141.199999988079,37,1,305,10,0,experiment,NA,NA,2,0.5,0.5,5,4,256,6,NA
fcp-trial,292,1622122,0.0-267.0-0.0,voc_e2,12098,"[{""event"":""fullscreenenter"",""trial"":1,""time"":5564},{""event"":""blur"",""trial"":3,""time"":33098},{""event"":""focus"",""trial"":3,""time"":39728}]",NA,NA,NA,NA,NA,6,#3386FF,#D89F1C,0,10,0,40,0,1285.5999999940395,37,1,646.7000000178814,0,0,experiment,NA,NA,0,0.1,0.9,1,0,257,6,NA
fcp-trial,293,1625355,0.0-268.0-0.0,voc_e2,12098,"[{""event"":""fullscreenenter"",""trial"":1,""time"":5564},{""event"":""blur"",""trial"":3,""time"":33098},{""event"":""focus"",""trial"":3,""time"":39728}]",NA,NA,NA,NA,NA,3,#1CD855,#FA92F8,10,10,1,38,1,1062,37,1,664.6999999880791,10,1,experiment,NA,NA,1,0.7,0.3,2,3,258,6,NA
fcp-trial,294,1628810,0.0-269.0-0.0,voc_e2,12098,"[{""event"":""fullscreenenter"",""trial"":1,""time"":5564},{""event"":""blur"",""trial"":3,""time"":33098},{""event"":""focus"",""trial"":3,""time"":39728}]",NA,NA,NA,NA,NA,1,#3386FF,#D89F1C,0,10,0,38,1,1327.7000000178814,39,0,615.5,10,1,experiment,NA,NA,0,0.1,0.9,1,0,259,6,NA
fcp-trial,295,1632020,0.0-270.0-0.0,voc_e2,12098,"[{""event"":""fullscreenenter"",""trial"":1,""time"":5564},{""event"":""blur"",""trial"":3,""time"":33098},{""event"":""focus"",""trial"":3,""time"":39728}]",NA,NA,NA,NA,NA,4,#D89F1C,#3386FF,10,0,1,40,0,1181.5999999940395,37,1,519.7000000178814,10,1,experiment,NA,NA,0,0.9,0.1,0,1,260,6,NA
fcp-trial,296,1634922,0.0-271.0-0.0,voc_e2,12098,"[{""event"":""fullscreenenter"",""trial"":1,""time"":5564},{""event"":""blur"",""trial"":3,""time"":33098},{""event"":""focus"",""trial"":3,""time"":39728}]",NA,NA,NA,NA,NA,5,#D8271C,#741CD8,10,0,1,40,0,876.3000000119209,37,1,510,10,1,experiment,NA,NA,2,0.5,0.5,4,5,261,6,NA
fcp-trial,297,1638099,0.0-272.0-0.0,voc_e2,12098,"[{""event"":""fullscreenenter"",""trial"":1,""time"":5564},{""event"":""blur"",""trial"":3,""time"":33098},{""event"":""focus"",""trial"":3,""time"":39728}]",NA,NA,NA,NA,NA,3,#D89F1C,#3386FF,10,0,1,38,1,1247.5,37,1,423.59999999403954,10,1,experiment,NA,NA,0,0.9,0.1,0,1,262,6,NA
fcp-trial,298,1641011,0.0-273.0-0.0,voc_e2,12098,"[{""event"":""fullscreenenter"",""trial"":1,""time"":5564},{""event"":""blur"",""trial"":3,""time"":33098},{""event"":""focus"",""trial"":3,""time"":39728}]",NA,NA,NA,NA,NA,2,#1CD855,#FA92F8,10,0,1,38,1,1033.2000000178814,37,1,372.800000011921,10,1,experiment,NA,NA,1,0.7,0.3,2,3,263,6,NA
fcp-trial,299,1644364,0.0-274.0-0.0,voc_e2,12098,"[{""event"":""fullscreenenter"",""trial"":1,""time"":5564},{""event"":""blur"",""trial"":3,""time"":33098},{""event"":""focus"",""trial"":3,""time"":39728}]",NA,NA,NA,NA,NA,1,#D8271C,#741CD8,0,10,1,38,1,1216,39,0,629.0999999940395,10,0,experiment,NA,NA,2,0.5,0.5,4,5,264,6,NA
