trial_type,trial_index,time_elapsed,internal_node_id,task_version,subject_id,interactions,success,rt,stimulus,key_press,button_pressed,offer,arcade_color_L,arcade_color_R,arcade_outcome_L,arcade_outcome_R,correct,stage_1_key,stage_1_choice,stage_1_rt,stage_2_key,stage_2_choice,stage_2_rt,stage_3_outcome,accuracy,phase,responses,num_errors,context,reward_prob_L,reward_prob_R,arcade_id_L,arcade_id_R,trial,block,response
pavlovia,0,5,0.0-0.0,voc_e2,11754,[],NA,NA,NA,NA,NA,NA,NA,NA,NA,NA,NA,NA,NA,NA,NA,NA,NA,NA,NA,NA,NA,NA,NA,NA,NA,NA,NA,NA,NA,NA
fullscreen,1,11366,0.0-1.0,voc_e2,11754,"[{""event"":""fullscreenenter"",""trial"":1,""time"":10376}]",TRUE,NA,NA,NA,NA,NA,NA,NA,NA,NA,NA,NA,NA,NA,NA,NA,NA,NA,NA,NA,NA,NA,NA,NA,NA,NA,NA,NA,NA,NA
audio-keyboard-response,2,18587,0.0-2.0,voc_e2,11754,"[{""event"":""fullscreenenter"",""trial"":1,""time"":10376}]",NA,7069,static/audio/beep_loop.wav,32,NA,NA,NA,NA,NA,NA,NA,NA,NA,NA,NA,NA,NA,NA,NA,NA,NA,NA,NA,NA,NA,NA,NA,NA,NA,NA
audio-test,3,20487,0.0-3.0,voc_e2,11754,"[{""event"":""fullscreenenter"",""trial"":1,""time"":10376}]",NA,NA,static/audio/turtle.wav,NA,3,NA,NA,NA,NA,NA,NA,NA,NA,NA,NA,NA,NA,NA,NA,NA,NA,NA,NA,NA,NA,NA,NA,NA,NA,NA
audio-test,4,23167,0.0-4.0,voc_e2,11754,"[{""event"":""fullscreenenter"",""trial"":1,""time"":10376}]",NA,NA,static/audio/shark.wav,NA,2,NA,NA,NA,NA,NA,NA,NA,NA,NA,NA,NA,NA,NA,NA,NA,NA,NA,NA,NA,NA,NA,NA,NA,NA,NA
audio-instructions,5,31542,0.0-5.0-0.0,voc_e2,11754,"[{""event"":""fullscreenenter"",""trial"":1,""time"":10376}]",NA,2588.7000000476837,static/audio/instructions1.wav,NA,0,NA,NA,NA,NA,NA,NA,NA,NA,NA,NA,NA,NA,NA,NA,NA,NA,NA,NA,NA,NA,NA,NA,NA,NA,NA
audio-instructions,6,39640,0.0-5.0-1.0,voc_e2,11754,"[{""event"":""fullscreenenter"",""trial"":1,""time"":10376}]",NA,1358.0999999046326,static/audio/instructions2.wav,NA,0,NA,NA,NA,NA,NA,NA,NA,NA,NA,NA,NA,NA,NA,NA,NA,NA,NA,NA,NA,NA,NA,NA,NA,NA,NA
audio-instructions,7,46650,0.0-5.0-2.0,voc_e2,11754,"[{""event"":""fullscreenenter"",""trial"":1,""time"":10376}]",NA,1198.100000023842,static/audio/instructions3.wav,NA,0,NA,NA,NA,NA,NA,NA,NA,NA,NA,NA,NA,NA,NA,NA,NA,NA,NA,NA,NA,NA,NA,NA,NA,NA,NA
audio-instructions,8,61199,0.0-5.0-3.0,voc_e2,11754,"[{""event"":""fullscreenenter"",""trial"":1,""time"":10376}]",NA,1316.3000000715256,static/audio/instructions4.wav,NA,0,NA,NA,NA,NA,NA,NA,NA,NA,NA,NA,NA,NA,NA,NA,NA,NA,NA,NA,NA,NA,NA,NA,NA,NA,NA
audio-instructions,9,71542,0.0-5.0-4.0,voc_e2,11754,"[{""event"":""fullscreenenter"",""trial"":1,""time"":10376}]",NA,949.7999999523164,static/audio/instructions5.wav,NA,0,NA,NA,NA,NA,NA,NA,NA,NA,NA,NA,NA,NA,NA,NA,NA,NA,NA,NA,NA,NA,NA,NA,NA,NA,NA
fcp-practice,10,73491,0.0-5.0-5.0-0.0,voc_e2,11754,"[{""event"":""fullscreenenter"",""trial"":1,""time"":10376}]",NA,NA,NA,NA,NA,NA,#EDC948,#46d3c8,10,0,1,null,null,null,37,1,430,10,1,practice,NA,NA,NA,NA,NA,NA,NA,NA,NA,NA
fcp-practice,11,75140,0.0-5.0-5.0-1.0,voc_e2,11754,"[{""event"":""fullscreenenter"",""trial"":1,""time"":10376}]",NA,NA,NA,NA,NA,NA,#EDC948,#46d3c8,10,0,1,null,null,null,37,1,128.39999997615814,10,1,practice,NA,NA,NA,NA,NA,NA,NA,NA,NA,NA
fcp-practice,12,76858,0.0-5.0-5.0-2.0,voc_e2,11754,"[{""event"":""fullscreenenter"",""trial"":1,""time"":10376}]",NA,NA,NA,NA,NA,NA,#EDC948,#46d3c8,0,10,1,null,null,null,37,1,209.39999997615814,0,1,practice,NA,NA,NA,NA,NA,NA,NA,NA,NA,NA
fcp-practice,13,78588,0.0-5.0-5.0-3.0,voc_e2,11754,"[{""event"":""fullscreenenter"",""trial"":1,""time"":10376}]",NA,NA,NA,NA,NA,NA,#EDC948,#46d3c8,10,0,1,null,null,null,37,1,219.39999997615814,10,1,practice,NA,NA,NA,NA,NA,NA,NA,NA,NA,NA
fcp-practice,14,80165,0.0-5.0-5.0-4.0,voc_e2,11754,"[{""event"":""fullscreenenter"",""trial"":1,""time"":10376}]",NA,NA,NA,NA,NA,NA,#EDC948,#46d3c8,10,0,1,null,null,null,37,1,67.89999997615814,10,1,practice,NA,NA,NA,NA,NA,NA,NA,NA,NA,NA
audio-instructions,15,99738,0.0-5.0-6.0,voc_e2,11754,"[{""event"":""fullscreenenter"",""trial"":1,""time"":10376}]",NA,1566,static/audio/instructions6.wav,NA,0,NA,NA,NA,NA,NA,NA,NA,NA,NA,NA,NA,NA,NA,NA,NA,NA,NA,NA,NA,NA,NA,NA,NA,NA,NA
audio-instructions,16,119956,0.0-5.0-7.0,voc_e2,11754,"[{""event"":""fullscreenenter"",""trial"":1,""time"":10376}]",NA,1023.5,static/audio/instructions7.wav,NA,0,NA,NA,NA,NA,NA,NA,NA,NA,NA,NA,NA,NA,NA,NA,NA,NA,NA,NA,NA,NA,NA,NA,NA,NA,NA
audio-instructions,17,132899,0.0-5.0-8.0,voc_e2,11754,"[{""event"":""fullscreenenter"",""trial"":1,""time"":10376}]",NA,3466.899999976158,static/audio/instructions8.wav,NA,0,NA,NA,NA,NA,NA,NA,NA,NA,NA,NA,NA,NA,NA,NA,NA,NA,NA,NA,NA,NA,NA,NA,NA,NA,NA
fcp-comprehension,18,152197,0.0-5.0-9.0,voc_e2,11754,"[{""event"":""fullscreenenter"",""trial"":1,""time"":10376}]",NA,19294,NA,NA,NA,NA,NA,NA,NA,NA,NA,NA,NA,NA,NA,NA,NA,NA,NA,NA,"false,true",1,NA,NA,NA,NA,NA,NA,NA,NA
audio-instructions,19,158778,0.0-5.1-0.1,voc_e2,11754,"[{""event"":""fullscreenenter"",""trial"":1,""time"":10376}]",NA,1795.100000023842,static/audio/instructions1.wav,NA,0,NA,NA,NA,NA,NA,NA,NA,NA,NA,NA,NA,NA,NA,NA,NA,NA,NA,NA,NA,NA,NA,NA,NA,NA,NA
audio-instructions,20,166748,0.0-5.1-1.1,voc_e2,11754,"[{""event"":""fullscreenenter"",""trial"":1,""time"":10376}]",NA,1226.3000000715256,static/audio/instructions2.wav,NA,0,NA,NA,NA,NA,NA,NA,NA,NA,NA,NA,NA,NA,NA,NA,NA,NA,NA,NA,NA,NA,NA,NA,NA,NA,NA
audio-instructions,21,175771,0.0-5.1-2.1,voc_e2,11754,"[{""event"":""fullscreenenter"",""trial"":1,""time"":10376}]",NA,3218.400000095367,static/audio/instructions3.wav,NA,0,NA,NA,NA,NA,NA,NA,NA,NA,NA,NA,NA,NA,NA,NA,NA,NA,NA,NA,NA,NA,NA,NA,NA,NA,NA
audio-instructions,22,191050,0.0-5.1-3.1,voc_e2,11754,"[{""event"":""fullscreenenter"",""trial"":1,""time"":10376}]",NA,2047.2999999523165,static/audio/instructions4.wav,NA,0,NA,NA,NA,NA,NA,NA,NA,NA,NA,NA,NA,NA,NA,NA,NA,NA,NA,NA,NA,NA,NA,NA,NA,NA,NA
audio-instructions,23,215022,0.0-5.1-4.1,voc_e2,11754,"[{""event"":""fullscreenenter"",""trial"":1,""time"":10376}]",NA,14579.100000023842,static/audio/instructions5.wav,NA,0,NA,NA,NA,NA,NA,NA,NA,NA,NA,NA,NA,NA,NA,NA,NA,NA,NA,NA,NA,NA,NA,NA,NA,NA,NA
fcp-practice,24,217379,0.0-5.1-5.1-0.1,voc_e2,11754,"[{""event"":""fullscreenenter"",""trial"":1,""time"":10376}]",NA,NA,NA,NA,NA,NA,#EDC948,#46d3c8,10,0,1,null,null,null,37,1,843.3999999761581,10,1,practice,NA,NA,NA,NA,NA,NA,NA,NA,NA,NA
fcp-practice,25,219490,0.0-5.1-5.1-1.1,voc_e2,11754,"[{""event"":""fullscreenenter"",""trial"":1,""time"":10376}]",NA,NA,NA,NA,NA,NA,#EDC948,#46d3c8,10,0,1,null,null,null,37,1,602.3000000715256,10,1,practice,NA,NA,NA,NA,NA,NA,NA,NA,NA,NA
fcp-practice,26,221745,0.0-5.1-5.1-2.1,voc_e2,11754,"[{""event"":""fullscreenenter"",""trial"":1,""time"":10376}]",NA,NA,NA,NA,NA,NA,#EDC948,#46d3c8,0,10,1,null,null,null,37,1,742.1000000238419,0,1,practice,NA,NA,NA,NA,NA,NA,NA,NA,NA,NA
fcp-practice,27,223664,0.0-5.1-5.1-3.1,voc_e2,11754,"[{""event"":""fullscreenenter"",""trial"":1,""time"":10376}]",NA,NA,NA,NA,NA,NA,#EDC948,#46d3c8,10,0,1,null,null,null,37,1,403.5,10,1,practice,NA,NA,NA,NA,NA,NA,NA,NA,NA,NA
fcp-practice,28,225562,0.0-5.1-5.1-4.1,voc_e2,11754,"[{""event"":""fullscreenenter"",""trial"":1,""time"":10376}]",NA,NA,NA,NA,NA,NA,#EDC948,#46d3c8,10,0,1,null,null,null,37,1,379.7000000476837,10,1,practice,NA,NA,NA,NA,NA,NA,NA,NA,NA,NA
audio-instructions,29,245627,0.0-5.1-6.1,voc_e2,11754,"[{""event"":""fullscreenenter"",""trial"":1,""time"":10376}]",NA,2054.600000023842,static/audio/instructions6.wav,NA,0,NA,NA,NA,NA,NA,NA,NA,NA,NA,NA,NA,NA,NA,NA,NA,NA,NA,NA,NA,NA,NA,NA,NA,NA,NA
audio-instructions,30,265731,0.0-5.1-7.1,voc_e2,11754,"[{""event"":""fullscreenenter"",""trial"":1,""time"":10376}]",NA,908.899999976158,static/audio/instructions7.wav,NA,0,NA,NA,NA,NA,NA,NA,NA,NA,NA,NA,NA,NA,NA,NA,NA,NA,NA,NA,NA,NA,NA,NA,NA,NA,NA
audio-instructions,31,278276,0.0-5.1-8.1,voc_e2,11754,"[{""event"":""fullscreenenter"",""trial"":1,""time"":10376}]",NA,3063.399999976158,static/audio/instructions8.wav,NA,0,NA,NA,NA,NA,NA,NA,NA,NA,NA,NA,NA,NA,NA,NA,NA,NA,NA,NA,NA,NA,NA,NA,NA,NA,NA
fcp-comprehension,32,305602,0.0-5.1-9.1,voc_e2,11754,"[{""event"":""fullscreenenter"",""trial"":1,""time"":10376}]",NA,27323.700000047684,NA,NA,NA,NA,NA,NA,NA,NA,NA,NA,NA,NA,NA,NA,NA,NA,NA,NA,"true,true",0,NA,NA,NA,NA,NA,NA,NA,NA
audio-instructions,33,313967,0.0-6.0-0.0,voc_e2,11754,"[{""event"":""fullscreenenter"",""trial"":1,""time"":10376}]",NA,2821.3000000715256,static/audio/instructions9.wav,NA,0,NA,NA,NA,NA,NA,NA,NA,NA,NA,NA,NA,NA,NA,NA,NA,NA,NA,NA,NA,NA,NA,NA,NA,NA,NA
audio-instructions,34,326964,0.0-6.0-1.0,voc_e2,11754,"[{""event"":""fullscreenenter"",""trial"":1,""time"":10376}]",NA,877.3999999761581,static/audio/instructions10.wav,NA,0,NA,NA,NA,NA,NA,NA,NA,NA,NA,NA,NA,NA,NA,NA,NA,NA,NA,NA,NA,NA,NA,NA,NA,NA,NA
fcp-trial,35,333860,0.0-6.0-2.0,voc_e2,11754,"[{""event"":""fullscreenenter"",""trial"":1,""time"":10376}]",NA,NA,NA,NA,NA,0,#EDC948,#46d3c8,10,10,1,38,1,2771.100000023842,39,0,2599.7000000476837,10,0,practice,NA,NA,NA,NA,NA,NA,NA,NA,NA,NA
audio-instructions,36,346717,0.0-6.0-3.0,voc_e2,11754,"[{""event"":""fullscreenenter"",""trial"":1,""time"":10376}]",NA,1850.3000000715256,static/audio/instructions11.wav,NA,0,NA,NA,NA,NA,NA,NA,NA,NA,NA,NA,NA,NA,NA,NA,NA,NA,NA,NA,NA,NA,NA,NA,NA,NA,NA
fcp-trial,37,350806,0.0-6.0-4.0,voc_e2,11754,"[{""event"":""fullscreenenter"",""trial"":1,""time"":10376}]",NA,NA,NA,NA,NA,6,#EDC948,#46d3c8,10,10,1,40,0,1215.5,37,1,1346.7000000476837,10,1,practice,NA,NA,NA,NA,NA,NA,NA,NA,NA,NA
audio-instructions,38,371686,0.0-6.0-5.0,voc_e2,11754,"[{""event"":""fullscreenenter"",""trial"":1,""time"":10376}]",NA,2189.5,static/audio/instructions12.wav,NA,0,NA,NA,NA,NA,NA,NA,NA,NA,NA,NA,NA,NA,NA,NA,NA,NA,NA,NA,NA,NA,NA,NA,NA,NA,NA
audio-instructions,39,380042,0.0-6.0-6.0,voc_e2,11754,"[{""event"":""fullscreenenter"",""trial"":1,""time"":10376}]",NA,755.8000000715256,static/audio/instructions13.wav,NA,0,NA,NA,NA,NA,NA,NA,NA,NA,NA,NA,NA,NA,NA,NA,NA,NA,NA,NA,NA,NA,NA,NA,NA,NA,NA
audio-instructions,40,394004,0.0-6.0-7.0,voc_e2,11754,"[{""event"":""fullscreenenter"",""trial"":1,""time"":10376}]",NA,5517.799999952316,static/audio/instructions14.wav,NA,0,NA,NA,NA,NA,NA,NA,NA,NA,NA,NA,NA,NA,NA,NA,NA,NA,NA,NA,NA,NA,NA,NA,NA,NA,NA
audio-instructions,41,402482,0.0-7.0-0.0,voc_e2,11754,"[{""event"":""fullscreenenter"",""trial"":1,""time"":10376}]",NA,1565.6999999284744,static/audio/instructions15.wav,NA,0,NA,NA,NA,NA,NA,NA,NA,NA,NA,NA,NA,NA,NA,NA,NA,NA,NA,NA,NA,NA,NA,NA,NA,NA,NA
audio-instructions,42,410191,0.0-7.0-1.0,voc_e2,11754,"[{""event"":""fullscreenenter"",""trial"":1,""time"":10376}]",NA,884.2999999523163,static/audio/instructions16.wav,NA,0,NA,NA,NA,NA,NA,NA,NA,NA,NA,NA,NA,NA,NA,NA,NA,NA,NA,NA,NA,NA,NA,NA,NA,NA,NA
audio-instructions,43,419005,0.0-7.0-2.0,voc_e2,11754,"[{""event"":""fullscreenenter"",""trial"":1,""time"":10376}]",NA,1139.1999999284744,static/audio/instructions17.wav,NA,0,NA,NA,NA,NA,NA,NA,NA,NA,NA,NA,NA,NA,NA,NA,NA,NA,NA,NA,NA,NA,NA,NA,NA,NA,NA
audio-instructions,44,428123,0.0-7.0-3.0,voc_e2,11754,"[{""event"":""fullscreenenter"",""trial"":1,""time"":10376}]",NA,1347,static/audio/instructions18.wav,NA,0,NA,NA,NA,NA,NA,NA,NA,NA,NA,NA,NA,NA,NA,NA,NA,NA,NA,NA,NA,NA,NA,NA,NA,NA,NA
audio-instructions,45,435678,0.0-7.0-4.0,voc_e2,11754,"[{""event"":""fullscreenenter"",""trial"":1,""time"":10376}]",NA,811.6999999284744,static/audio/instructions19.wav,NA,0,NA,NA,NA,NA,NA,NA,NA,NA,NA,NA,NA,NA,NA,NA,NA,NA,NA,NA,NA,NA,NA,NA,NA,NA,NA
fcp-comprehension,46,485969,0.0-7.0-5.0,voc_e2,11754,"[{""event"":""fullscreenenter"",""trial"":1,""time"":10376}]",NA,50289.10000002384,NA,NA,NA,NA,NA,NA,NA,NA,NA,NA,NA,NA,NA,NA,NA,NA,NA,NA,"false,false,false,true",0,NA,NA,NA,NA,NA,NA,NA,NA
audio-instructions,47,501239,0.0-8.0,voc_e2,11754,"[{""event"":""fullscreenenter"",""trial"":1,""time"":10376}]",NA,5480.899999976158,static/audio/ready.wav,NA,0,NA,NA,NA,NA,NA,NA,NA,NA,NA,NA,NA,NA,NA,NA,NA,NA,NA,NA,NA,NA,NA,NA,NA,NA,NA
fcp-trial,48,506085,0.0-9.0-0.0,voc_e2,11754,"[{""event"":""fullscreenenter"",""trial"":1,""time"":10376}]",NA,NA,NA,NA,NA,4,#D8271C,#741CD8,10,10,1,38,1,1478.7999999523163,37,1,1857,10,1,experiment,NA,NA,2,0.5,0.5,4,5,1,1,NA
fcp-trial,49,510763,0.0-10.0-0.0,voc_e2,11754,"[{""event"":""fullscreenenter"",""trial"":1,""time"":10376}]",NA,NA,NA,NA,NA,2,#D8271C,#741CD8,10,10,1,38,1,2335.7000000476837,39,0,828.6000000238419,10,0,experiment,NA,NA,2,0.5,0.5,4,5,2,1,NA
fcp-trial,50,517231,0.0-11.0-0.0,voc_e2,11754,"[{""event"":""fullscreenenter"",""trial"":1,""time"":10376}]",NA,NA,NA,NA,NA,0,#1CD855,#FA92F8,10,0,1,40,0,3424.2000000476837,39,0,1532.1000000238419,0,0,experiment,NA,NA,1,0.7,0.3,2,3,3,1,NA
fcp-trial,51,523452,0.0-12.0-0.0,voc_e2,11754,"[{""event"":""fullscreenenter"",""trial"":1,""time"":10376}]",NA,NA,NA,NA,NA,2,#3386FF,#D89F1C,10,0,1,40,0,4240.299999952316,37,1,471.09999990463257,10,1,experiment,NA,NA,0,0.9,0.1,0,1,4,1,NA
fcp-trial,52,528315,0.0-13.0-0.0,voc_e2,11754,"[{""event"":""fullscreenenter"",""trial"":1,""time"":10376}]",NA,NA,NA,NA,NA,6,#1CD855,#FA92F8,0,10,1,40,0,1494.7000000476837,37,1,1861.8999999761581,0,1,experiment,NA,NA,1,0.7,0.3,2,3,5,1,NA
fcp-trial,53,533510,0.0-14.0-0.0,voc_e2,11754,"[{""event"":""fullscreenenter"",""trial"":1,""time"":10376}]",NA,NA,NA,NA,NA,6,#3386FF,#D89F1C,10,0,1,38,1,2246.600000023842,39,0,1440.8999999761581,0,0,experiment,NA,NA,0,0.9,0.1,0,1,6,1,NA
fcp-trial,54,537702,0.0-15.0-0.0,voc_e2,11754,"[{""event"":""fullscreenenter"",""trial"":1,""time"":10376}]",NA,NA,NA,NA,NA,3,#741CD8,#D8271C,10,10,0,40,0,1732.1000000238419,39,0,951.1000000238419,10,1,experiment,NA,NA,2,0.5,0.5,5,4,7,1,NA
fcp-trial,55,541338,0.0-16.0-0.0,voc_e2,11754,"[{""event"":""fullscreenenter"",""trial"":1,""time"":10376}]",NA,NA,NA,NA,NA,4,#1CD855,#FA92F8,10,0,1,38,1,1668.5,37,1,462.89999997615814,10,1,experiment,NA,NA,1,0.7,0.3,2,3,8,1,NA
fcp-trial,56,544489,0.0-17.0-0.0,voc_e2,11754,"[{""event"":""fullscreenenter"",""trial"":1,""time"":10376}]",NA,NA,NA,NA,NA,3,#1CD855,#FA92F8,10,0,1,40,0,1014.6000000238419,39,0,628.6000000238419,0,0,experiment,NA,NA,1,0.7,0.3,2,3,9,1,NA
fcp-trial,57,548135,0.0-18.0-0.0,voc_e2,11754,"[{""event"":""fullscreenenter"",""trial"":1,""time"":10376}]",NA,NA,NA,NA,NA,0,#3386FF,#D89F1C,10,0,1,38,1,1610.2999999523163,37,1,529.1000000238419,10,1,experiment,NA,NA,0,0.9,0.1,0,1,10,1,NA
fcp-trial,58,551202,0.0-19.0-0.0,voc_e2,11754,"[{""event"":""fullscreenenter"",""trial"":1,""time"":10376}]",NA,NA,NA,NA,NA,5,#3386FF,#D89F1C,0,10,1,40,0,967.2000000476837,39,0,592.5,10,0,experiment,NA,NA,0,0.9,0.1,0,1,11,1,NA
fcp-trial,59,557090,0.0-20.0-0.0,voc_e2,11754,"[{""event"":""fullscreenenter"",""trial"":1,""time"":10376}]",NA,NA,NA,NA,NA,1,#D8271C,#741CD8,0,0,1,40,0,3755.600000023842,39,0,625.5,0,0,experiment,NA,NA,2,0.5,0.5,4,5,12,1,NA
fcp-trial,60,563611,0.0-21.0-0.0,voc_e2,11754,"[{""event"":""fullscreenenter"",""trial"":1,""time"":10376}]",NA,NA,NA,NA,NA,1,#1CD855,#FA92F8,10,0,1,40,0,4245.899999976158,39,0,757.5999999046326,0,0,experiment,NA,NA,1,0.7,0.3,2,3,13,1,NA
fcp-trial,61,566504,0.0-22.0-0.0,voc_e2,11754,"[{""event"":""fullscreenenter"",""trial"":1,""time"":10376}]",NA,NA,NA,NA,NA,3,#3386FF,#D89F1C,0,0,1,38,1,1033.8999999761581,37,1,353.5,0,1,experiment,NA,NA,0,0.9,0.1,0,1,14,1,NA
fcp-trial,62,570724,0.0-23.0-0.0,voc_e2,11754,"[{""event"":""fullscreenenter"",""trial"":1,""time"":10376}]",NA,NA,NA,NA,NA,5,#D8271C,#741CD8,0,10,1,40,0,1436.2999999523163,37,1,1274.8000000715256,0,1,experiment,NA,NA,2,0.5,0.5,4,5,15,1,NA
fcp-trial,63,574847,0.0-24.0-0.0,voc_e2,11754,"[{""event"":""fullscreenenter"",""trial"":1,""time"":10376}]",NA,NA,NA,NA,NA,2,#FA92F8,#1CD855,10,10,0,40,0,2198,39,0,414.2000000476837,10,1,experiment,NA,NA,1,0.3,0.7,3,2,16,1,NA
fcp-trial,64,578326,0.0-25.0-0.0,voc_e2,11754,"[{""event"":""fullscreenenter"",""trial"":1,""time"":10376}]",NA,NA,NA,NA,NA,5,#FA92F8,#1CD855,0,10,0,38,1,1419.1000000238419,37,1,553.3999999761581,0,0,experiment,NA,NA,1,0.3,0.7,3,2,17,1,NA
fcp-trial,65,582683,0.0-26.0-0.0,voc_e2,11754,"[{""event"":""fullscreenenter"",""trial"":1,""time"":10376}]",NA,NA,NA,NA,NA,1,#D89F1C,#3386FF,0,10,0,40,0,2503.1999999284744,39,0,345,10,1,experiment,NA,NA,0,0.1,0.9,1,0,18,1,NA
fcp-trial,66,589581,0.0-27.0-0.0,voc_e2,11754,"[{""event"":""fullscreenenter"",""trial"":1,""time"":10376}]",NA,NA,NA,NA,NA,4,#3386FF,#D89F1C,10,0,1,40,0,4528,39,0,862.5999999046326,0,0,experiment,NA,NA,0,0.9,0.1,0,1,19,1,NA
fcp-trial,67,594951,0.0-28.0-0.0,voc_e2,11754,"[{""event"":""fullscreenenter"",""trial"":1,""time"":10376}]",NA,NA,NA,NA,NA,6,#741CD8,#D8271C,0,10,0,38,1,2666.899999976158,39,0,1195.8999999761581,10,1,experiment,NA,NA,2,0.5,0.5,5,4,20,1,NA
fcp-trial,68,603631,0.0-29.0-0.0,voc_e2,11754,"[{""event"":""fullscreenenter"",""trial"":1,""time"":10376}]",NA,NA,NA,NA,NA,0,#D8271C,#741CD8,0,10,1,40,0,6348.899999976158,39,0,825.6999999284744,10,0,experiment,NA,NA,2,0.5,0.5,4,5,21,1,NA
fcp-trial,69,609857,0.0-30.0-0.0,voc_e2,11754,"[{""event"":""fullscreenenter"",""trial"":1,""time"":10376}]",NA,NA,NA,NA,NA,6,#D89F1C,#3386FF,0,10,0,40,0,4233.199999928474,39,0,485.2999999523163,10,1,experiment,NA,NA,0,0.1,0.9,1,0,22,1,NA
fcp-trial,70,617998,0.0-31.0-0.0,voc_e2,11754,"[{""event"":""fullscreenenter"",""trial"":1,""time"":10376}]",NA,NA,NA,NA,NA,4,#FA92F8,#1CD855,0,10,0,40,0,3925.899999976158,37,1,2703.8000000715256,0,0,experiment,NA,NA,1,0.3,0.7,3,2,23,1,NA
fcp-trial,71,633003,0.0-32.0-0.0,voc_e2,11754,"[{""event"":""fullscreenenter"",""trial"":1,""time"":10376}]",NA,NA,NA,NA,NA,2,#D89F1C,#3386FF,0,10,0,null,null,null,null,null,null,NA,0,experiment,NA,NA,0,0.1,0.9,1,0,24,1,NA
fcp-trial,72,637549,0.0-33.0-0.0,voc_e2,11754,"[{""event"":""fullscreenenter"",""trial"":1,""time"":10376}]",NA,NA,NA,NA,NA,4,#D8271C,#741CD8,0,10,1,38,1,2072.8000000715256,39,0,963,10,0,experiment,NA,NA,2,0.5,0.5,4,5,25,1,NA
fcp-trial,73,641806,0.0-34.0-0.0,voc_e2,11754,"[{""event"":""fullscreenenter"",""trial"":1,""time"":10376}]",NA,NA,NA,NA,NA,3,#FA92F8,#1CD855,10,0,0,40,0,1969,37,1,781.7999999523163,10,0,experiment,NA,NA,1,0.3,0.7,3,2,26,1,NA
fcp-trial,74,645073,0.0-35.0-0.0,voc_e2,11754,"[{""event"":""fullscreenenter"",""trial"":1,""time"":10376}]",NA,NA,NA,NA,NA,5,#1CD855,#FA92F8,10,10,1,38,1,1422.1000000238419,39,0,339.7000000476837,10,0,experiment,NA,NA,1,0.7,0.3,2,3,27,1,NA
fcp-trial,75,649398,0.0-36.0-0.0,voc_e2,11754,"[{""event"":""fullscreenenter"",""trial"":1,""time"":10376}]",NA,NA,NA,NA,NA,4,#D89F1C,#3386FF,0,10,0,40,0,2120.600000023842,39,0,700.1000000238419,10,1,experiment,NA,NA,0,0.1,0.9,1,0,28,1,NA
fcp-trial,76,653657,0.0-37.0-0.0,voc_e2,11754,"[{""event"":""fullscreenenter"",""trial"":1,""time"":10376}]",NA,NA,NA,NA,NA,1,#1CD855,#FA92F8,0,10,1,38,1,2283.6999999284744,37,1,466,0,1,experiment,NA,NA,1,0.7,0.3,2,3,29,1,NA
fcp-trial,77,657224,0.0-38.0-0.0,voc_e2,11754,"[{""event"":""fullscreenenter"",""trial"":1,""time"":10376}]",NA,NA,NA,NA,NA,2,#D8271C,#741CD8,10,0,1,40,0,1229.4000000953674,37,1,834.1000000238419,10,1,experiment,NA,NA,2,0.5,0.5,4,5,30,1,NA
fcp-trial,78,661118,0.0-39.0-0.0,voc_e2,11754,"[{""event"":""fullscreenenter"",""trial"":1,""time"":10376}]",NA,NA,NA,NA,NA,1,#741CD8,#D8271C,0,0,0,38,1,1990.9000000953674,39,0,397.7000000476837,0,1,experiment,NA,NA,2,0.5,0.5,5,4,31,1,NA
fcp-trial,79,664319,0.0-40.0-0.0,voc_e2,11754,"[{""event"":""fullscreenenter"",""trial"":1,""time"":10376}]",NA,NA,NA,NA,NA,0,#D89F1C,#3386FF,0,10,0,40,0,1277.7999999523163,37,1,411,0,0,experiment,NA,NA,0,0.1,0.9,1,0,32,1,NA
fcp-trial,80,673631,0.0-41.0-0.0,voc_e2,11754,"[{""event"":""fullscreenenter"",""trial"":1,""time"":10376}]",NA,NA,NA,NA,NA,3,#3386FF,#D89F1C,10,0,1,40,0,7495.300000071526,37,1,307.39999997615814,10,1,experiment,NA,NA,0,0.9,0.1,0,1,33,1,NA
fcp-trial,81,688643,0.0-42.0-0.0,voc_e2,11754,"[{""event"":""fullscreenenter"",""trial"":1,""time"":10376}]",NA,NA,NA,NA,NA,6,#FA92F8,#1CD855,0,0,0,null,null,null,null,null,null,NA,0,experiment,NA,NA,1,0.3,0.7,3,2,34,1,NA
fcp-trial,82,693409,0.0-43.0-0.0,voc_e2,11754,"[{""event"":""fullscreenenter"",""trial"":1,""time"":10376}]",NA,NA,NA,NA,NA,6,#D8271C,#741CD8,0,10,1,38,1,1588.6000000238419,39,0,1667,10,0,experiment,NA,NA,2,0.5,0.5,4,5,35,1,NA
fcp-trial,83,698527,0.0-44.0-0.0,voc_e2,11754,"[{""event"":""fullscreenenter"",""trial"":1,""time"":10376}]",NA,NA,NA,NA,NA,3,#D8271C,#741CD8,10,0,1,40,0,2652.100000023842,37,1,959.0999999046326,10,1,experiment,NA,NA,2,0.5,0.5,4,5,36,1,NA
fcp-trial,84,701147,0.0-45.0-0.0,voc_e2,11754,"[{""event"":""fullscreenenter"",""trial"":1,""time"":10376}]",NA,NA,NA,NA,NA,0,#1CD855,#FA92F8,10,0,1,40,0,610.3999999761581,39,0,494.60000002384186,0,0,experiment,NA,NA,1,0.7,0.3,2,3,37,1,NA
fcp-trial,85,703405,0.0-46.0-0.0,voc_e2,11754,"[{""event"":""fullscreenenter"",""trial"":1,""time"":10376}]",NA,NA,NA,NA,NA,5,#3386FF,#D89F1C,10,0,1,38,1,195.59999990463257,37,1,558,10,1,experiment,NA,NA,0,0.9,0.1,0,1,38,1,NA
fcp-trial,86,705720,0.0-47.0-0.0,voc_e2,11754,"[{""event"":""fullscreenenter"",""trial"":1,""time"":10376}]",NA,NA,NA,NA,NA,2,#1CD855,#FA92F8,10,0,1,40,0,436.10000002384186,39,0,372.09999990463257,0,0,experiment,NA,NA,1,0.7,0.3,2,3,39,1,NA
fcp-trial,87,708893,0.0-48.0-0.0,voc_e2,11754,"[{""event"":""fullscreenenter"",""trial"":1,""time"":10376}]",NA,NA,NA,NA,NA,0,#741CD8,#D8271C,0,10,0,38,1,1275.2999999523163,37,1,389,0,0,experiment,NA,NA,2,0.5,0.5,5,4,40,1,NA
fcp-trial,88,711590,0.0-49.0-0.0,voc_e2,11754,"[{""event"":""fullscreenenter"",""trial"":1,""time"":10376}]",NA,NA,NA,NA,NA,5,#D8271C,#741CD8,0,0,1,38,1,502.39999997615814,39,0,685.2000000476837,0,0,experiment,NA,NA,2,0.5,0.5,4,5,41,1,NA
fcp-trial,89,715500,0.0-50.0-0.0,voc_e2,11754,"[{""event"":""fullscreenenter"",""trial"":1,""time"":10376}]",NA,NA,NA,NA,NA,1,#D89F1C,#3386FF,0,10,0,40,0,498.60000002384186,37,1,1905.5,0,0,experiment,NA,NA,0,0.1,0.9,1,0,42,1,NA
fcp-trial,90,720138,0.0-51.0-0.0,voc_e2,11754,"[{""event"":""fullscreenenter"",""trial"":1,""time"":10376}]",NA,NA,NA,NA,NA,6,#3386FF,#D89F1C,10,0,1,40,0,2588.7000000476837,39,0,539.3000000715256,0,0,experiment,NA,NA,0,0.9,0.1,0,1,43,1,NA
fcp-trial,91,724482,0.0-52.0-0.0,voc_e2,11754,"[{""event"":""fullscreenenter"",""trial"":1,""time"":10376}]",NA,NA,NA,NA,NA,3,#1CD855,#FA92F8,10,0,1,40,0,291.89999997615814,37,1,2544.5,10,1,experiment,NA,NA,1,0.7,0.3,2,3,44,1,NA
fcp-trial,92,728659,0.0-53.0-0.0,voc_e2,11754,"[{""event"":""fullscreenenter"",""trial"":1,""time"":10376}]",NA,NA,NA,NA,NA,4,#1CD855,#FA92F8,10,10,1,40,0,1677.1000000238419,39,0,992.1999999284744,10,0,experiment,NA,NA,1,0.7,0.3,2,3,45,1,NA
fcp-trial,93,739022,0.0-54.0-0.0,voc_e2,11754,"[{""event"":""fullscreenenter"",""trial"":1,""time"":10376}]",NA,NA,NA,NA,NA,4,#D8271C,#741CD8,10,0,1,40,0,4423.299999952316,37,1,4433,10,1,experiment,NA,NA,2,0.5,0.5,4,5,46,2,NA
fcp-trial,94,746001,0.0-55.0-0.0,voc_e2,11754,"[{""event"":""fullscreenenter"",""trial"":1,""time"":10376}]",NA,NA,NA,NA,NA,4,#D89F1C,#3386FF,0,10,0,40,0,4075.899999976158,37,1,1395.7999999523163,0,0,experiment,NA,NA,0,0.1,0.9,1,0,47,2,NA
fcp-trial,95,753095,0.0-56.0-0.0,voc_e2,11754,"[{""event"":""fullscreenenter"",""trial"":1,""time"":10376}]",NA,NA,NA,NA,NA,3,#D8271C,#741CD8,0,0,1,40,0,4491,37,1,1096.3999999761581,0,1,experiment,NA,NA,2,0.5,0.5,4,5,48,2,NA
fcp-trial,96,758410,0.0-57.0-0.0,voc_e2,11754,"[{""event"":""fullscreenenter"",""trial"":1,""time"":10376}]",NA,NA,NA,NA,NA,5,#D89F1C,#3386FF,0,10,0,40,0,3035.8000000715256,37,1,775,0,0,experiment,NA,NA,0,0.1,0.9,1,0,49,2,NA
fcp-trial,97,760250,0.0-58.0-0.0,voc_e2,11754,"[{""event"":""fullscreenenter"",""trial"":1,""time"":10376}]",NA,NA,NA,NA,NA,5,#1CD855,#FA92F8,10,0,1,38,1,27.799999952316284,39,0,302.5,0,0,experiment,NA,NA,1,0.7,0.3,2,3,50,2,NA
fcp-trial,98,763403,0.0-59.0-0.0,voc_e2,11754,"[{""event"":""fullscreenenter"",""trial"":1,""time"":10376}]",NA,NA,NA,NA,NA,0,#741CD8,#D8271C,10,0,0,40,0,914.5,37,1,733.2999999523163,10,0,experiment,NA,NA,2,0.5,0.5,5,4,51,2,NA
fcp-trial,99,765668,0.0-60.0-0.0,voc_e2,11754,"[{""event"":""fullscreenenter"",""trial"":1,""time"":10376}]",NA,NA,NA,NA,NA,3,#3386FF,#D89F1C,10,10,1,40,0,1.899999976158142,37,1,759.1999999284744,10,1,experiment,NA,NA,0,0.9,0.1,0,1,52,2,NA
fcp-trial,100,767778,0.0-61.0-0.0,voc_e2,11754,"[{""event"":""fullscreenenter"",""trial"":1,""time"":10376}]",NA,NA,NA,NA,NA,6,#D8271C,#741CD8,10,10,1,40,0,100.39999997615814,37,1,504.39999997615814,10,1,experiment,NA,NA,2,0.5,0.5,4,5,53,2,NA
fcp-trial,101,770319,0.0-62.0-0.0,voc_e2,11754,"[{""event"":""fullscreenenter"",""trial"":1,""time"":10376}]",NA,NA,NA,NA,NA,0,#FA92F8,#1CD855,0,10,0,40,0,582,37,1,450.7000000476837,0,0,experiment,NA,NA,1,0.3,0.7,3,2,54,2,NA
fcp-trial,102,773528,0.0-63.0-0.0,voc_e2,11754,"[{""event"":""fullscreenenter"",""trial"":1,""time"":10376}]",NA,NA,NA,NA,NA,2,#3386FF,#D89F1C,10,0,1,40,0,558.8999999761581,39,0,1144,0,0,experiment,NA,NA,0,0.9,0.1,0,1,55,2,NA
fcp-trial,103,775747,0.0-64.0-0.0,voc_e2,11754,"[{""event"":""fullscreenenter"",""trial"":1,""time"":10376}]",NA,NA,NA,NA,NA,2,#D8271C,#741CD8,0,0,1,40,0,66,39,0,635.7999999523163,0,0,experiment,NA,NA,2,0.5,0.5,4,5,56,2,NA
fcp-trial,104,785275,0.0-65.0-0.0,voc_e2,11754,"[{""event"":""fullscreenenter"",""trial"":1,""time"":10376}]",NA,NA,NA,NA,NA,1,#1CD855,#FA92F8,10,0,1,40,0,237.70000004768372,37,1,7779.600000023842,10,1,experiment,NA,NA,1,0.7,0.3,2,3,57,2,NA
fcp-trial,105,787902,0.0-66.0-0.0,voc_e2,11754,"[{""event"":""fullscreenenter"",""trial"":1,""time"":10376}]",NA,NA,NA,NA,NA,0,#D89F1C,#3386FF,0,10,0,38,1,134.39999997615814,39,0,986.2000000476837,10,1,experiment,NA,NA,0,0.1,0.9,1,0,58,2,NA
fcp-trial,106,790778,0.0-67.0-0.0,voc_e2,11754,"[{""event"":""fullscreenenter"",""trial"":1,""time"":10376}]",NA,NA,NA,NA,NA,2,#1CD855,#FA92F8,10,10,1,40,0,517.3999999761581,37,1,854.6000000238419,10,1,experiment,NA,NA,1,0.7,0.3,2,3,59,2,NA
fcp-trial,107,793105,0.0-68.0-0.0,voc_e2,11754,"[{""event"":""fullscreenenter"",""trial"":1,""time"":10376}]",NA,NA,NA,NA,NA,1,#D8271C,#741CD8,0,0,1,38,1,184.39999997615814,37,1,626.2000000476837,0,1,experiment,NA,NA,2,0.5,0.5,4,5,60,2,NA
fcp-trial,108,795104,0.0-69.0-0.0,voc_e2,11754,"[{""event"":""fullscreenenter"",""trial"":1,""time"":10376}]",NA,NA,NA,NA,NA,5,#741CD8,#D8271C,10,10,0,38,1,176.29999995231628,39,0,316.7999999523163,10,1,experiment,NA,NA,2,0.5,0.5,5,4,61,2,NA
fcp-trial,109,797720,0.0-70.0-0.0,voc_e2,11754,"[{""event"":""fullscreenenter"",""trial"":1,""time"":10376}]",NA,NA,NA,NA,NA,1,#D89F1C,#3386FF,0,10,0,40,0,585.1000000238419,39,0,524.7000000476837,10,1,experiment,NA,NA,0,0.1,0.9,1,0,62,2,NA
fcp-trial,110,804397,0.0-71.0-0.0,voc_e2,11754,"[{""event"":""fullscreenenter"",""trial"":1,""time"":10376}]",NA,NA,NA,NA,NA,6,#1CD855,#FA92F8,10,0,1,40,0,752.7000000476837,37,1,4414.100000023842,10,1,experiment,NA,NA,1,0.7,0.3,2,3,63,2,NA
fcp-trial,111,809431,0.0-72.0-0.0,voc_e2,11754,"[{""event"":""fullscreenenter"",""trial"":1,""time"":10376}]",NA,NA,NA,NA,NA,1,#D8271C,#741CD8,10,0,1,38,1,497.60000002384186,37,1,3032.8000000715256,10,1,experiment,NA,NA,2,0.5,0.5,4,5,64,2,NA
fcp-trial,112,812297,0.0-73.0-0.0,voc_e2,11754,"[{""event"":""fullscreenenter"",""trial"":1,""time"":10376}]",NA,NA,NA,NA,NA,5,#D8271C,#741CD8,10,0,1,40,0,120.60000002384186,37,1,1241.5999999046326,10,1,experiment,NA,NA,2,0.5,0.5,4,5,65,2,NA
fcp-trial,113,814721,0.0-74.0-0.0,voc_e2,11754,"[{""event"":""fullscreenenter"",""trial"":1,""time"":10376}]",NA,NA,NA,NA,NA,2,#D89F1C,#3386FF,0,10,0,40,0,177.10000002384186,37,1,740.2999999523163,0,0,experiment,NA,NA,0,0.1,0.9,1,0,66,2,NA
fcp-trial,114,818327,0.0-75.0-0.0,voc_e2,11754,"[{""event"":""fullscreenenter"",""trial"":1,""time"":10376}]",NA,NA,NA,NA,NA,0,#3386FF,#D89F1C,10,0,1,40,0,823.4000000953674,37,1,1274.9000000953674,10,1,experiment,NA,NA,0,0.9,0.1,0,1,67,2,NA
fcp-trial,115,820327,0.0-76.0-0.0,voc_e2,11754,"[{""event"":""fullscreenenter"",""trial"":1,""time"":10376}]",NA,NA,NA,NA,NA,1,#1CD855,#FA92F8,10,0,1,38,1,184.19999992847443,37,1,304.39999997615814,10,1,experiment,NA,NA,1,0.7,0.3,2,3,68,2,NA
fcp-trial,116,824160,0.0-77.0-0.0,voc_e2,11754,"[{""event"":""fullscreenenter"",""trial"":1,""time"":10376}]",NA,NA,NA,NA,NA,6,#741CD8,#D8271C,10,10,0,38,1,1202.0999999046326,37,1,1119.3999999761581,10,0,experiment,NA,NA,2,0.5,0.5,5,4,69,2,NA
fcp-trial,117,827730,0.0-78.0-0.0,voc_e2,11754,"[{""event"":""fullscreenenter"",""trial"":1,""time"":10376}]",NA,NA,NA,NA,NA,5,#3386FF,#D89F1C,10,0,1,40,0,1495.3000000715256,39,0,566,0,0,experiment,NA,NA,0,0.9,0.1,0,1,70,2,NA
fcp-trial,118,830132,0.0-79.0-0.0,voc_e2,11754,"[{""event"":""fullscreenenter"",""trial"":1,""time"":10376}]",NA,NA,NA,NA,NA,4,#D89F1C,#3386FF,0,10,0,40,0,601,37,1,297.1999999284744,0,0,experiment,NA,NA,0,0.1,0.9,1,0,71,2,NA
fcp-trial,119,834204,0.0-80.0-0.0,voc_e2,11754,"[{""event"":""fullscreenenter"",""trial"":1,""time"":10376}]",NA,NA,NA,NA,NA,6,#FA92F8,#1CD855,0,10,0,40,0,384.2999999523163,39,0,2182,10,1,experiment,NA,NA,1,0.3,0.7,3,2,72,2,NA
fcp-trial,120,842270,0.0-81.0-0.0,voc_e2,11754,"[{""event"":""fullscreenenter"",""trial"":1,""time"":10376}]",NA,NA,NA,NA,NA,4,#741CD8,#D8271C,10,10,0,40,0,2332.5,39,0,4228.899999976158,10,1,experiment,NA,NA,2,0.5,0.5,5,4,73,2,NA
fcp-trial,121,845033,0.0-82.0-0.0,voc_e2,11754,"[{""event"":""fullscreenenter"",""trial"":1,""time"":10376}]",NA,NA,NA,NA,NA,5,#FA92F8,#1CD855,10,10,0,40,0,403.2999999523163,37,1,853.1000000238419,10,0,experiment,NA,NA,1,0.3,0.7,3,2,74,2,NA
fcp-trial,122,851556,0.0-83.0-0.0,voc_e2,11754,"[{""event"":""fullscreenenter"",""trial"":1,""time"":10376}]",NA,NA,NA,NA,NA,1,#3386FF,#D89F1C,10,0,1,38,1,1069.3999999761581,37,1,3949.600000023842,10,1,experiment,NA,NA,0,0.9,0.1,0,1,75,2,NA
fcp-trial,123,858744,0.0-84.0-0.0,voc_e2,11754,"[{""event"":""fullscreenenter"",""trial"":1,""time"":10376}]",NA,NA,NA,NA,NA,4,#FA92F8,#1CD855,0,10,0,38,1,4656.100000023842,39,0,1024.1999999284744,10,1,experiment,NA,NA,1,0.3,0.7,3,2,76,2,NA
fcp-trial,124,862591,0.0-85.0-0.0,voc_e2,11754,"[{""event"":""fullscreenenter"",""trial"":1,""time"":10376}]",NA,NA,NA,NA,NA,6,#D89F1C,#3386FF,0,10,0,38,1,1655.5,37,1,682.6999999284744,0,0,experiment,NA,NA,0,0.1,0.9,1,0,77,2,NA
fcp-trial,125,865245,0.0-86.0-0.0,voc_e2,11754,"[{""event"":""fullscreenenter"",""trial"":1,""time"":10376}]",NA,NA,NA,NA,NA,0,#D8271C,#741CD8,0,0,1,38,1,246.09999990463257,39,0,899.1999999284744,0,0,experiment,NA,NA,2,0.5,0.5,4,5,78,2,NA
fcp-trial,126,872253,0.0-87.0-0.0,voc_e2,11754,"[{""event"":""fullscreenenter"",""trial"":1,""time"":10376}]",NA,NA,NA,NA,NA,3,#D8271C,#741CD8,0,0,1,40,0,3085,39,0,2417.100000023842,0,0,experiment,NA,NA,2,0.5,0.5,4,5,79,2,NA
fcp-trial,127,876177,0.0-88.0-0.0,voc_e2,11754,"[{""event"":""fullscreenenter"",""trial"":1,""time"":10376}]",NA,NA,NA,NA,NA,0,#1CD855,#FA92F8,10,10,1,38,1,1923.8000000715256,37,1,491.59999990463257,10,1,experiment,NA,NA,1,0.7,0.3,2,3,80,2,NA
fcp-trial,128,878073,0.0-89.0-0.0,voc_e2,11754,"[{""event"":""fullscreenenter"",""trial"":1,""time"":10376}]",NA,NA,NA,NA,NA,2,#741CD8,#D8271C,10,0,0,38,1,102.29999995231628,37,1,287.2000000476837,10,0,experiment,NA,NA,2,0.5,0.5,5,4,81,2,NA
fcp-trial,129,880460,0.0-90.0-0.0,voc_e2,11754,"[{""event"":""fullscreenenter"",""trial"":1,""time"":10376}]",NA,NA,NA,NA,NA,3,#D89F1C,#3386FF,0,10,0,38,1,568.7000000476837,37,1,311.5,0,0,experiment,NA,NA,0,0.1,0.9,1,0,82,2,NA
fcp-trial,130,883050,0.0-91.0-0.0,voc_e2,11754,"[{""event"":""fullscreenenter"",""trial"":1,""time"":10376}]",NA,NA,NA,NA,NA,2,#FA92F8,#1CD855,0,0,0,38,1,739.3999999761581,37,1,344.8000000715256,0,0,experiment,NA,NA,1,0.3,0.7,3,2,83,2,NA
fcp-trial,131,884959,0.0-92.0-0.0,voc_e2,11754,"[{""event"":""fullscreenenter"",""trial"":1,""time"":10376}]",NA,NA,NA,NA,NA,3,#1CD855,#FA92F8,10,10,1,38,1,14.099999904632568,39,0,388.60000002384186,10,0,experiment,NA,NA,1,0.7,0.3,2,3,84,2,NA
fcp-trial,132,886958,0.0-93.0-0.0,voc_e2,11754,"[{""event"":""fullscreenenter"",""trial"":1,""time"":10376}]",NA,NA,NA,NA,NA,0,#FA92F8,#1CD855,10,10,0,40,0,14.699999928474426,37,1,478.7999999523163,10,0,experiment,NA,NA,1,0.3,0.7,3,2,85,2,NA
fcp-trial,133,888803,0.0-94.0-0.0,voc_e2,11754,"[{""event"":""fullscreenenter"",""trial"":1,""time"":10376}]",NA,NA,NA,NA,NA,0,#3386FF,#D89F1C,10,0,1,38,1,69.79999995231628,39,0,270.10000002384186,0,0,experiment,NA,NA,0,0.9,0.1,0,1,86,2,NA
fcp-trial,134,890660,0.0-95.0-0.0,voc_e2,11754,"[{""event"":""fullscreenenter"",""trial"":1,""time"":10376}]",NA,NA,NA,NA,NA,0,#741CD8,#D8271C,10,0,0,38,1,33.299999952316284,39,0,315.7000000476837,0,1,experiment,NA,NA,2,0.5,0.5,5,4,87,2,NA
fcp-trial,135,897342,0.0-96.0-0.0,voc_e2,11754,"[{""event"":""fullscreenenter"",""trial"":1,""time"":10376}]",NA,NA,NA,NA,NA,3,#FA92F8,#1CD855,0,10,0,40,0,2757.5999999046326,39,0,2419.899999976158,10,1,experiment,NA,NA,1,0.3,0.7,3,2,88,2,NA
fcp-trial,136,901010,0.0-97.0-0.0,voc_e2,11754,"[{""event"":""fullscreenenter"",""trial"":1,""time"":10376}]",NA,NA,NA,NA,NA,6,#FA92F8,#1CD855,10,10,0,38,1,1716.1000000238419,39,0,446.10000002384186,10,1,experiment,NA,NA,1,0.3,0.7,3,2,89,2,NA
fcp-trial,137,903545,0.0-98.0-0.0,voc_e2,11754,"[{""event"":""fullscreenenter"",""trial"":1,""time"":10376}]",NA,NA,NA,NA,NA,2,#D89F1C,#3386FF,0,10,0,38,1,235.10000002384186,39,0,793.9000000953674,10,1,experiment,NA,NA,0,0.1,0.9,1,0,90,2,NA
fcp-trial,138,906519,0.0-99.0-0.0,voc_e2,11754,"[{""event"":""fullscreenenter"",""trial"":1,""time"":10376}]",NA,NA,NA,NA,NA,5,#741CD8,#D8271C,0,0,0,38,1,77.89999997615814,39,0,1389.5,0,1,experiment,NA,NA,2,0.5,0.5,5,4,91,3,NA
fcp-trial,139,921525,0.0-100.0-0.0,voc_e2,11754,"[{""event"":""fullscreenenter"",""trial"":1,""time"":10376}]",NA,NA,NA,NA,NA,2,#FA92F8,#1CD855,0,10,0,null,null,null,null,null,null,NA,0,experiment,NA,NA,1,0.3,0.7,3,2,92,3,NA
fcp-trial,140,923695,0.0-101.0-0.0,voc_e2,11754,"[{""event"":""fullscreenenter"",""trial"":1,""time"":10376}]",NA,NA,NA,NA,NA,6,#D8271C,#741CD8,10,0,1,38,1,29.199999928474426,37,1,630.5,10,1,experiment,NA,NA,2,0.5,0.5,4,5,93,3,NA
fcp-trial,141,925640,0.0-102.0-0.0,voc_e2,11754,"[{""event"":""fullscreenenter"",""trial"":1,""time"":10376}]",NA,NA,NA,NA,NA,2,#D8271C,#741CD8,0,10,1,38,1,94,37,1,345.8000000715256,0,1,experiment,NA,NA,2,0.5,0.5,4,5,94,3,NA
fcp-trial,142,927559,0.0-103.0-0.0,voc_e2,11754,"[{""event"":""fullscreenenter"",""trial"":1,""time"":10376}]",NA,NA,NA,NA,NA,1,#D89F1C,#3386FF,0,10,0,38,1,28,37,1,385.39999997615814,0,0,experiment,NA,NA,0,0.1,0.9,1,0,95,3,NA
fcp-trial,143,930909,0.0-104.0-0.0,voc_e2,11754,"[{""event"":""fullscreenenter"",""trial"":1,""time"":10376}]",NA,NA,NA,NA,NA,3,#D8271C,#741CD8,10,0,1,38,1,1356.2999999523163,39,0,488.60000002384186,0,0,experiment,NA,NA,2,0.5,0.5,4,5,96,3,NA
fcp-trial,144,936842,0.0-105.0-0.0,voc_e2,11754,"[{""event"":""fullscreenenter"",""trial"":1,""time"":10376}]",NA,NA,NA,NA,NA,5,#1CD855,#FA92F8,10,0,1,40,0,4063.1999999284744,37,1,363.60000002384186,10,1,experiment,NA,NA,1,0.7,0.3,2,3,97,3,NA
fcp-trial,145,939917,0.0-106.0-0.0,voc_e2,11754,"[{""event"":""fullscreenenter"",""trial"":1,""time"":10376}]",NA,NA,NA,NA,NA,4,#3386FF,#D89F1C,10,0,1,40,0,1027.8999999761581,39,0,542.8999999761581,0,0,experiment,NA,NA,0,0.9,0.1,0,1,98,3,NA
fcp-trial,146,942025,0.0-107.0-0.0,voc_e2,11754,"[{""event"":""fullscreenenter"",""trial"":1,""time"":10376}]",NA,NA,NA,NA,NA,1,#D8271C,#741CD8,10,10,1,38,1,176.90000009536743,37,1,424.2999999523163,10,1,experiment,NA,NA,2,0.5,0.5,4,5,99,3,NA
fcp-trial,147,943952,0.0-108.0-0.0,voc_e2,11754,"[{""event"":""fullscreenenter"",""trial"":1,""time"":10376}]",NA,NA,NA,NA,NA,6,#3386FF,#D89F1C,10,0,1,38,1,161.09999990463257,39,0,260.6999999284744,0,0,experiment,NA,NA,0,0.9,0.1,0,1,100,3,NA
fcp-trial,148,946643,0.0-109.0-0.0,voc_e2,11754,"[{""event"":""fullscreenenter"",""trial"":1,""time"":10376}]",NA,NA,NA,NA,NA,1,#1CD855,#FA92F8,10,0,1,38,1,224.89999997615814,37,1,955.2000000476837,10,1,experiment,NA,NA,1,0.7,0.3,2,3,101,3,NA
fcp-trial,149,949706,0.0-110.0-0.0,voc_e2,11754,"[{""event"":""fullscreenenter"",""trial"":1,""time"":10376}]",NA,NA,NA,NA,NA,5,#3386FF,#D89F1C,10,0,1,40,0,102.10000002384186,39,0,1454.3999999761581,0,0,experiment,NA,NA,0,0.9,0.1,0,1,102,3,NA
fcp-trial,150,951841,0.0-111.0-0.0,voc_e2,11754,"[{""event"":""fullscreenenter"",""trial"":1,""time"":10376}]",NA,NA,NA,NA,NA,4,#D8271C,#741CD8,10,0,1,40,0,228.5,37,1,401.10000002384186,10,1,experiment,NA,NA,2,0.5,0.5,4,5,103,3,NA
fcp-trial,151,956211,0.0-112.0-0.0,voc_e2,11754,"[{""event"":""fullscreenenter"",""trial"":1,""time"":10376}]",NA,NA,NA,NA,NA,4,#FA92F8,#1CD855,0,10,0,40,0,338.40000009536743,37,1,2526.1999999284744,0,0,experiment,NA,NA,1,0.3,0.7,3,2,104,3,NA
fcp-trial,152,958634,0.0-113.0-0.0,voc_e2,11754,"[{""event"":""fullscreenenter"",""trial"":1,""time"":10376}]",NA,NA,NA,NA,NA,3,#D89F1C,#3386FF,0,10,0,40,0,244.40000009536743,39,0,670.6000000238419,10,1,experiment,NA,NA,0,0.1,0.9,1,0,105,3,NA
audio-instructions,153,999524,0.0-114.0,voc_e2,11754,"[{""event"":""fullscreenenter"",""trial"":1,""time"":10376}]",NA,35857.10000002384,static/audio/pause.wav,NA,0,NA,NA,NA,NA,NA,NA,NA,NA,NA,NA,NA,NA,NA,NA,NA,NA,NA,NA,NA,NA,NA,NA,NA,NA,NA
fcp-trial,154,1002257,0.0-115.0-0.0,voc_e2,11754,"[{""event"":""fullscreenenter"",""trial"":1,""time"":10376}]",NA,NA,NA,NA,NA,6,#3386FF,#D89F1C,10,10,1,40,0,812.0999999046326,39,0,414.7999999523163,10,0,experiment,NA,NA,0,0.9,0.1,0,1,106,3,NA
fcp-trial,155,1004339,0.0-116.0-0.0,voc_e2,11754,"[{""event"":""fullscreenenter"",""trial"":1,""time"":10376}]",NA,NA,NA,NA,NA,2,#FA92F8,#1CD855,0,10,0,40,0,316.6999999284744,39,0,259.60000002384186,10,1,experiment,NA,NA,1,0.3,0.7,3,2,107,3,NA
fcp-trial,156,1007016,0.0-117.0-0.0,voc_e2,11754,"[{""event"":""fullscreenenter"",""trial"":1,""time"":10376}]",NA,NA,NA,NA,NA,6,#FA92F8,#1CD855,0,10,0,40,0,24.399999976158142,37,1,1144.8000000715256,0,0,experiment,NA,NA,1,0.3,0.7,3,2,108,3,NA
fcp-trial,157,1009234,0.0-118.0-0.0,voc_e2,11754,"[{""event"":""fullscreenenter"",""trial"":1,""time"":10376}]",NA,NA,NA,NA,NA,3,#3386FF,#D89F1C,0,0,1,38,1,335.59999990463257,39,0,373.5,0,0,experiment,NA,NA,0,0.9,0.1,0,1,109,3,NA
fcp-trial,158,1011198,0.0-119.0-0.0,voc_e2,11754,"[{""event"":""fullscreenenter"",""trial"":1,""time"":10376}]",NA,NA,NA,NA,NA,4,#3386FF,#D89F1C,10,0,1,38,1,111.30000007152557,39,0,345.2000000476837,0,0,experiment,NA,NA,0,0.9,0.1,0,1,110,3,NA
fcp-trial,159,1014789,0.0-120.0-0.0,voc_e2,11754,"[{""event"":""fullscreenenter"",""trial"":1,""time"":10376}]",NA,NA,NA,NA,NA,1,#741CD8,#D8271C,10,10,0,38,1,1619.7999999523163,39,0,463.5,10,1,experiment,NA,NA,2,0.5,0.5,5,4,111,3,NA
fcp-trial,160,1017387,0.0-121.0-0.0,voc_e2,11754,"[{""event"":""fullscreenenter"",""trial"":1,""time"":10376}]",NA,NA,NA,NA,NA,3,#D8271C,#741CD8,10,10,1,40,0,97.29999995231628,39,0,992.7999999523163,10,0,experiment,NA,NA,2,0.5,0.5,4,5,112,3,NA
fcp-trial,161,1019977,0.0-122.0-0.0,voc_e2,11754,"[{""event"":""fullscreenenter"",""trial"":1,""time"":10376}]",NA,NA,NA,NA,NA,1,#FA92F8,#1CD855,0,10,0,40,0,312.7999999523163,39,0,772.3999999761581,10,1,experiment,NA,NA,1,0.3,0.7,3,2,113,3,NA
fcp-trial,162,1022135,0.0-123.0-0.0,voc_e2,11754,"[{""event"":""fullscreenenter"",""trial"":1,""time"":10376}]",NA,NA,NA,NA,NA,0,#FA92F8,#1CD855,0,0,0,38,1,316.1999999284744,39,0,338.6999999284744,0,1,experiment,NA,NA,1,0.3,0.7,3,2,114,3,NA
fcp-trial,163,1027093,0.0-124.0-0.0,voc_e2,11754,"[{""event"":""fullscreenenter"",""trial"":1,""time"":10376}]",NA,NA,NA,NA,NA,0,#3386FF,#D89F1C,10,0,1,38,1,2139.600000023842,39,0,1314,0,0,experiment,NA,NA,0,0.9,0.1,0,1,115,3,NA
fcp-trial,164,1031411,0.0-125.0-0.0,voc_e2,11754,"[{""event"":""fullscreenenter"",""trial"":1,""time"":10376}]",NA,NA,NA,NA,NA,0,#D8271C,#741CD8,10,0,1,40,0,2282.5,37,1,528.1000000238419,10,1,experiment,NA,NA,2,0.5,0.5,4,5,116,3,NA
fcp-trial,165,1034290,0.0-126.0-0.0,voc_e2,11754,"[{""event"":""fullscreenenter"",""trial"":1,""time"":10376}]",NA,NA,NA,NA,NA,1,#3386FF,#D89F1C,10,0,1,38,1,627.5,39,0,743,0,0,experiment,NA,NA,0,0.9,0.1,0,1,117,3,NA
fcp-trial,166,1037157,0.0-127.0-0.0,voc_e2,11754,"[{""event"":""fullscreenenter"",""trial"":1,""time"":10376}]",NA,NA,NA,NA,NA,5,#741CD8,#D8271C,0,0,0,40,0,783.6000000238419,39,0,576.8999999761581,0,1,experiment,NA,NA,2,0.5,0.5,5,4,118,3,NA
fcp-trial,167,1039017,0.0-128.0-0.0,voc_e2,11754,"[{""event"":""fullscreenenter"",""trial"":1,""time"":10376}]",NA,NA,NA,NA,NA,3,#FA92F8,#1CD855,0,10,0,40,0,79,37,1,276.5,0,0,experiment,NA,NA,1,0.3,0.7,3,2,119,3,NA
fcp-trial,168,1041255,0.0-129.0-0.0,voc_e2,11754,"[{""event"":""fullscreenenter"",""trial"":1,""time"":10376}]",NA,NA,NA,NA,NA,2,#741CD8,#D8271C,10,10,0,40,0,359.6999999284744,37,1,372.1999999284744,10,0,experiment,NA,NA,2,0.5,0.5,5,4,120,3,NA
fcp-trial,169,1043357,0.0-130.0-0.0,voc_e2,11754,"[{""event"":""fullscreenenter"",""trial"":1,""time"":10376}]",NA,NA,NA,NA,NA,5,#3386FF,#D89F1C,10,0,1,40,0,74.09999990463257,37,1,522,10,1,experiment,NA,NA,0,0.9,0.1,0,1,121,3,NA
fcp-trial,170,1046032,0.0-131.0-0.0,voc_e2,11754,"[{""event"":""fullscreenenter"",""trial"":1,""time"":10376}]",NA,NA,NA,NA,NA,4,#1CD855,#FA92F8,10,10,1,40,0,202.69999992847443,37,1,965.1000000238419,10,1,experiment,NA,NA,1,0.7,0.3,2,3,122,3,NA
fcp-trial,171,1048405,0.0-132.0-0.0,voc_e2,11754,"[{""event"":""fullscreenenter"",""trial"":1,""time"":10376}]",NA,NA,NA,NA,NA,2,#3386FF,#D89F1C,10,0,1,38,1,339.1999999284744,39,0,526.8999999761581,0,0,experiment,NA,NA,0,0.9,0.1,0,1,123,3,NA
fcp-trial,172,1050678,0.0-133.0-0.0,voc_e2,11754,"[{""event"":""fullscreenenter"",""trial"":1,""time"":10376}]",NA,NA,NA,NA,NA,5,#FA92F8,#1CD855,10,10,0,40,0,203.89999997615814,37,1,564.1000000238419,10,0,experiment,NA,NA,1,0.3,0.7,3,2,124,3,NA
fcp-trial,173,1053400,0.0-134.0-0.0,voc_e2,11754,"[{""event"":""fullscreenenter"",""trial"":1,""time"":10376}]",NA,NA,NA,NA,NA,4,#741CD8,#D8271C,0,10,0,38,1,765.6999999284744,39,0,434.2999999523163,10,1,experiment,NA,NA,2,0.5,0.5,5,4,125,3,NA
fcp-trial,174,1056213,0.0-135.0-0.0,voc_e2,11754,"[{""event"":""fullscreenenter"",""trial"":1,""time"":10376}]",NA,NA,NA,NA,NA,6,#741CD8,#D8271C,10,10,0,40,0,451.10000002384186,39,0,855,10,1,experiment,NA,NA,2,0.5,0.5,5,4,126,3,NA
fcp-trial,175,1058301,0.0-136.0-0.0,voc_e2,11754,"[{""event"":""fullscreenenter"",""trial"":1,""time"":10376}]",NA,NA,NA,NA,NA,3,#3386FF,#D89F1C,10,10,1,38,1,78.39999997615814,37,1,500.89999997615814,10,1,experiment,NA,NA,0,0.9,0.1,0,1,127,3,NA
fcp-trial,176,1060640,0.0-137.0-0.0,voc_e2,11754,"[{""event"":""fullscreenenter"",""trial"":1,""time"":10376}]",NA,NA,NA,NA,NA,2,#3386FF,#D89F1C,10,0,1,40,0,135.70000004768372,39,0,697.5,0,0,experiment,NA,NA,0,0.9,0.1,0,1,128,3,NA
fcp-trial,177,1064903,0.0-138.0-0.0,voc_e2,11754,"[{""event"":""fullscreenenter"",""trial"":1,""time"":10376}]",NA,NA,NA,NA,NA,6,#1CD855,#FA92F8,10,10,1,40,0,2377.399999976158,37,1,378.2000000476837,10,1,experiment,NA,NA,1,0.7,0.3,2,3,129,3,NA
fcp-trial,178,1067417,0.0-139.0-0.0,voc_e2,11754,"[{""event"":""fullscreenenter"",""trial"":1,""time"":10376}]",NA,NA,NA,NA,NA,2,#1CD855,#FA92F8,10,0,1,38,1,405.3000000715256,37,1,601.3000000715256,10,1,experiment,NA,NA,1,0.7,0.3,2,3,130,3,NA
fcp-trial,179,1070403,0.0-140.0-0.0,voc_e2,11754,"[{""event"":""fullscreenenter"",""trial"":1,""time"":10376}]",NA,NA,NA,NA,NA,1,#FA92F8,#1CD855,10,10,0,38,1,303.5,37,1,1176.7999999523163,10,0,experiment,NA,NA,1,0.3,0.7,3,2,131,3,NA
fcp-trial,180,1072230,0.0-141.0-0.0,voc_e2,11754,"[{""event"":""fullscreenenter"",""trial"":1,""time"":10376}]",NA,NA,NA,NA,NA,2,#741CD8,#D8271C,10,0,0,38,1,26.200000047683716,37,1,296.39999997615814,10,0,experiment,NA,NA,2,0.5,0.5,5,4,132,3,NA
fcp-trial,181,1074084,0.0-142.0-0.0,voc_e2,11754,"[{""event"":""fullscreenenter"",""trial"":1,""time"":10376}]",NA,NA,NA,NA,NA,4,#D89F1C,#3386FF,0,10,0,38,1,85.80000007152557,39,0,262.89999997615814,10,1,experiment,NA,NA,0,0.1,0.9,1,0,133,3,NA
fcp-trial,182,1076574,0.0-143.0-0.0,voc_e2,11754,"[{""event"":""fullscreenenter"",""trial"":1,""time"":10376}]",NA,NA,NA,NA,NA,6,#D8271C,#741CD8,0,10,1,40,0,448.90000009536743,37,1,535.6000000238419,0,1,experiment,NA,NA,2,0.5,0.5,4,5,134,3,NA
fcp-trial,183,1079694,0.0-144.0-0.0,voc_e2,11754,"[{""event"":""fullscreenenter"",""trial"":1,""time"":10376}]",NA,NA,NA,NA,NA,5,#741CD8,#D8271C,10,0,0,40,0,607.5,37,1,1004.1000000238419,10,0,experiment,NA,NA,2,0.5,0.5,5,4,135,3,NA
fcp-trial,184,1083155,0.0-145.0-0.0,voc_e2,11754,"[{""event"":""fullscreenenter"",""trial"":1,""time"":10376}]",NA,NA,NA,NA,NA,3,#1CD855,#FA92F8,10,10,1,38,1,761.2999999523163,39,0,1190.1000000238419,10,0,experiment,NA,NA,1,0.7,0.3,2,3,136,4,NA
fcp-trial,185,1086051,0.0-146.0-0.0,voc_e2,11754,"[{""event"":""fullscreenenter"",""trial"":1,""time"":10376}]",NA,NA,NA,NA,NA,1,#3386FF,#D89F1C,10,0,1,40,0,287.2999999523163,39,0,1102.3999999761581,0,0,experiment,NA,NA,0,0.9,0.1,0,1,137,4,NA
fcp-trial,186,1091689,0.0-147.0-0.0,voc_e2,11754,"[{""event"":""fullscreenenter"",""trial"":1,""time"":10376}]",NA,NA,NA,NA,NA,5,#FA92F8,#1CD855,0,10,0,38,1,1008,39,0,3125.100000023842,10,1,experiment,NA,NA,1,0.3,0.7,3,2,138,4,NA
fcp-trial,187,1094578,0.0-148.0-0.0,voc_e2,11754,"[{""event"":""fullscreenenter"",""trial"":1,""time"":10376}]",NA,NA,NA,NA,NA,0,#D89F1C,#3386FF,10,10,0,40,0,69.20000004768372,39,0,1312.5999999046326,10,1,experiment,NA,NA,0,0.1,0.9,1,0,139,4,NA
fcp-trial,188,1097496,0.0-149.0-0.0,voc_e2,11754,"[{""event"":""fullscreenenter"",""trial"":1,""time"":10376}]",NA,NA,NA,NA,NA,1,#741CD8,#D8271C,0,0,0,38,1,142.19999992847443,37,1,1270.3999999761581,0,0,experiment,NA,NA,2,0.5,0.5,5,4,140,4,NA
fcp-trial,189,1099415,0.0-150.0-0.0,voc_e2,11754,"[{""event"":""fullscreenenter"",""trial"":1,""time"":10376}]",NA,NA,NA,NA,NA,5,#D89F1C,#3386FF,0,10,0,38,1,35.699999928474426,39,0,375.60000002384186,10,1,experiment,NA,NA,0,0.1,0.9,1,0,141,4,NA
fcp-trial,190,1101684,0.0-151.0-0.0,voc_e2,11754,"[{""event"":""fullscreenenter"",""trial"":1,""time"":10376}]",NA,NA,NA,NA,NA,0,#741CD8,#D8271C,10,10,0,38,1,96,39,0,667.8999999761581,10,1,experiment,NA,NA,2,0.5,0.5,5,4,142,4,NA
fcp-trial,191,1104539,0.0-152.0-0.0,voc_e2,11754,"[{""event"":""fullscreenenter"",""trial"":1,""time"":10376}]",NA,NA,NA,NA,NA,0,#FA92F8,#1CD855,0,0,0,38,1,802.0999999046326,39,0,546.6999999284744,0,1,experiment,NA,NA,1,0.3,0.7,3,2,143,4,NA
fcp-trial,192,1121673,0.0-153.0-0.0,voc_e2,11754,"[{""event"":""fullscreenenter"",""trial"":1,""time"":10376},{""event"":""blur"",""trial"":192,""time"":1121669}]",NA,NA,NA,NA,NA,4,#741CD8,#D8271C,0,0,0,38,1,46.299999952316284,37,1,449.8000000715256,0,0,experiment,NA,NA,2,0.5,0.5,5,4,144,4,NA
fcp-trial,193,1125462,0.0-154.0-0.0,voc_e2,11754,"[{""event"":""fullscreenenter"",""trial"":1,""time"":10376},{""event"":""blur"",""trial"":192,""time"":1121669},{""event"":""fullscreenexit"",""trial"":193,""time"":1121675},{""event"":""focus"",""trial"":193,""time"":1121677}]",NA,NA,NA,NA,NA,3,#D8271C,#741CD8,0,10,1,38,1,1912.6000000238419,37,1,368.2999999523163,0,1,experiment,NA,NA,2,0.5,0.5,4,5,145,4,NA
fcp-trial,194,1127700,0.0-155.0-0.0,voc_e2,11754,"[{""event"":""fullscreenenter"",""trial"":1,""time"":10376},{""event"":""blur"",""trial"":192,""time"":1121669},{""event"":""fullscreenexit"",""trial"":193,""time"":1121675},{""event"":""focus"",""trial"":193,""time"":1121677}]",NA,NA,NA,NA,NA,6,#D89F1C,#3386FF,0,10,0,38,1,107.29999995231628,37,1,621.7000000476837,0,0,experiment,NA,NA,0,0.1,0.9,1,0,146,4,NA
fcp-trial,195,1135007,0.0-156.0-0.0,voc_e2,11754,"[{""event"":""fullscreenenter"",""trial"":1,""time"":10376},{""event"":""blur"",""trial"":192,""time"":1121669},{""event"":""fullscreenexit"",""trial"":193,""time"":1121675},{""event"":""focus"",""trial"":193,""time"":1121677}]",NA,NA,NA,NA,NA,4,#1CD855,#FA92F8,10,10,1,38,1,772.8000000715256,39,0,5026.699999928474,10,0,experiment,NA,NA,1,0.7,0.3,2,3,147,4,NA
fcp-trial,196,1137396,0.0-157.0-0.0,voc_e2,11754,"[{""event"":""fullscreenenter"",""trial"":1,""time"":10376},{""event"":""blur"",""trial"":192,""time"":1121669},{""event"":""fullscreenexit"",""trial"":193,""time"":1121675},{""event"":""focus"",""trial"":193,""time"":1121677}]",NA,NA,NA,NA,NA,4,#D8271C,#741CD8,0,10,1,38,1,423.2999999523163,37,1,457.2999999523163,0,1,experiment,NA,NA,2,0.5,0.5,4,5,148,4,NA
fcp-trial,197,1139679,0.0-158.0-0.0,voc_e2,11754,"[{""event"":""fullscreenenter"",""trial"":1,""time"":10376},{""event"":""blur"",""trial"":192,""time"":1121669},{""event"":""fullscreenexit"",""trial"":193,""time"":1121675},{""event"":""focus"",""trial"":193,""time"":1121677}]",NA,NA,NA,NA,NA,1,#FA92F8,#1CD855,0,0,0,40,0,397.7999999523163,37,1,379.10000002384186,0,0,experiment,NA,NA,1,0.3,0.7,3,2,149,4,NA
fcp-trial,198,1142463,0.0-159.0-0.0,voc_e2,11754,"[{""event"":""fullscreenenter"",""trial"":1,""time"":10376},{""event"":""blur"",""trial"":192,""time"":1121669},{""event"":""fullscreenexit"",""trial"":193,""time"":1121675},{""event"":""focus"",""trial"":193,""time"":1121677}]",NA,NA,NA,NA,NA,3,#741CD8,#D8271C,0,10,0,40,0,62.200000047683716,39,0,1214.2000000476837,10,1,experiment,NA,NA,2,0.5,0.5,5,4,150,4,NA
fcp-trial,199,1148737,0.0-160.0-0.0,voc_e2,11754,"[{""event"":""fullscreenenter"",""trial"":1,""time"":10376},{""event"":""blur"",""trial"":192,""time"":1121669},{""event"":""fullscreenexit"",""trial"":193,""time"":1121675},{""event"":""focus"",""trial"":193,""time"":1121677}]",NA,NA,NA,NA,NA,3,#D89F1C,#3386FF,0,10,0,38,1,1628.8999999761581,37,1,3137.7999999523163,0,0,experiment,NA,NA,0,0.1,0.9,1,0,151,4,NA
fcp-trial,200,1151926,0.0-161.0-0.0,voc_e2,11754,"[{""event"":""fullscreenenter"",""trial"":1,""time"":10376},{""event"":""blur"",""trial"":192,""time"":1121669},{""event"":""fullscreenexit"",""trial"":193,""time"":1121675},{""event"":""focus"",""trial"":193,""time"":1121677}]",NA,NA,NA,NA,NA,3,#FA92F8,#1CD855,0,10,0,40,0,661.2000000476837,37,1,1020.8000000715256,0,0,experiment,NA,NA,1,0.3,0.7,3,2,152,4,NA
fcp-trial,201,1163954,0.0-162.0-0.0,voc_e2,11754,"[{""event"":""fullscreenenter"",""trial"":1,""time"":10376},{""event"":""blur"",""trial"":192,""time"":1121669},{""event"":""fullscreenexit"",""trial"":193,""time"":1121675},{""event"":""focus"",""trial"":193,""time"":1121677}]",NA,NA,NA,NA,NA,6,#3386FF,#D89F1C,10,0,1,38,1,1640.7000000476837,39,0,8883.399999976158,0,0,experiment,NA,NA,0,0.9,0.1,0,1,153,4,NA
fcp-trial,202,1166300,0.0-163.0-0.0,voc_e2,11754,"[{""event"":""fullscreenenter"",""trial"":1,""time"":10376},{""event"":""blur"",""trial"":192,""time"":1121669},{""event"":""fullscreenexit"",""trial"":193,""time"":1121675},{""event"":""focus"",""trial"":193,""time"":1121677}]",NA,NA,NA,NA,NA,2,#741CD8,#D8271C,0,10,0,38,1,288.2000000476837,39,0,548.9000000953674,10,1,experiment,NA,NA,2,0.5,0.5,5,4,154,4,NA
fcp-trial,203,1168107,0.0-164.0-0.0,voc_e2,11754,"[{""event"":""fullscreenenter"",""trial"":1,""time"":10376},{""event"":""blur"",""trial"":192,""time"":1121669},{""event"":""fullscreenexit"",""trial"":193,""time"":1121675},{""event"":""focus"",""trial"":193,""time"":1121677}]",NA,NA,NA,NA,NA,4,#3386FF,#D89F1C,10,0,1,38,1,34.89999997615814,37,1,267,10,1,experiment,NA,NA,0,0.9,0.1,0,1,155,4,NA
fcp-trial,204,1170360,0.0-165.0-0.0,voc_e2,11754,"[{""event"":""fullscreenenter"",""trial"":1,""time"":10376},{""event"":""blur"",""trial"":192,""time"":1121669},{""event"":""fullscreenexit"",""trial"":193,""time"":1121675},{""event"":""focus"",""trial"":193,""time"":1121677}]",NA,NA,NA,NA,NA,0,#1CD855,#FA92F8,0,10,1,40,0,260,39,0,488.39999997615814,10,0,experiment,NA,NA,1,0.7,0.3,2,3,156,4,NA
fcp-trial,205,1173000,0.0-166.0-0.0,voc_e2,11754,"[{""event"":""fullscreenenter"",""trial"":1,""time"":10376},{""event"":""blur"",""trial"":192,""time"":1121669},{""event"":""fullscreenexit"",""trial"":193,""time"":1121675},{""event"":""focus"",""trial"":193,""time"":1121677}]",NA,NA,NA,NA,NA,1,#D8271C,#741CD8,10,10,1,38,1,472.39999997615814,39,0,661.8999999761581,10,0,experiment,NA,NA,2,0.5,0.5,4,5,157,4,NA
fcp-trial,206,1174918,0.0-167.0-0.0,voc_e2,11754,"[{""event"":""fullscreenenter"",""trial"":1,""time"":10376},{""event"":""blur"",""trial"":192,""time"":1121669},{""event"":""fullscreenexit"",""trial"":193,""time"":1121675},{""event"":""focus"",""trial"":193,""time"":1121677}]",NA,NA,NA,NA,NA,4,#1CD855,#FA92F8,10,0,1,40,0,116.60000002384186,39,0,294.7000000476837,0,0,experiment,NA,NA,1,0.7,0.3,2,3,158,4,NA
fcp-trial,207,1178400,0.0-168.0-0.0,voc_e2,11754,"[{""event"":""fullscreenenter"",""trial"":1,""time"":10376},{""event"":""blur"",""trial"":192,""time"":1121669},{""event"":""fullscreenexit"",""trial"":193,""time"":1121675},{""event"":""focus"",""trial"":193,""time"":1121677}]",NA,NA,NA,NA,NA,0,#3386FF,#D89F1C,10,0,1,40,0,1248.5,37,1,728.8999999761581,10,1,experiment,NA,NA,0,0.9,0.1,0,1,159,4,NA
fcp-trial,208,1180897,0.0-169.0-0.0,voc_e2,11754,"[{""event"":""fullscreenenter"",""trial"":1,""time"":10376},{""event"":""blur"",""trial"":192,""time"":1121669},{""event"":""fullscreenexit"",""trial"":193,""time"":1121675},{""event"":""focus"",""trial"":193,""time"":1121677}]",NA,NA,NA,NA,NA,2,#D89F1C,#3386FF,0,10,0,38,1,369.2999999523163,37,1,620.6000000238419,0,0,experiment,NA,NA,0,0.1,0.9,1,0,160,4,NA
fcp-trial,209,1183390,0.0-170.0-0.0,voc_e2,11754,"[{""event"":""fullscreenenter"",""trial"":1,""time"":10376},{""event"":""blur"",""trial"":192,""time"":1121669},{""event"":""fullscreenexit"",""trial"":193,""time"":1121675},{""event"":""focus"",""trial"":193,""time"":1121677}]",NA,NA,NA,NA,NA,1,#3386FF,#D89F1C,10,0,1,38,1,690.1000000238419,39,0,297.7999999523163,0,0,experiment,NA,NA,0,0.9,0.1,0,1,161,4,NA
fcp-trial,210,1188954,0.0-171.0-0.0,voc_e2,11754,"[{""event"":""fullscreenenter"",""trial"":1,""time"":10376},{""event"":""blur"",""trial"":192,""time"":1121669},{""event"":""fullscreenexit"",""trial"":193,""time"":1121675},{""event"":""focus"",""trial"":193,""time"":1121677}]",NA,NA,NA,NA,NA,0,#D8271C,#741CD8,10,0,1,40,0,2102.600000023842,37,1,1953.9000000953674,10,1,experiment,NA,NA,2,0.5,0.5,4,5,162,4,NA
fcp-trial,211,1192039,0.0-172.0-0.0,voc_e2,11754,"[{""event"":""fullscreenenter"",""trial"":1,""time"":10376},{""event"":""blur"",""trial"":192,""time"":1121669},{""event"":""fullscreenexit"",""trial"":193,""time"":1121675},{""event"":""focus"",""trial"":193,""time"":1121677}]",NA,NA,NA,NA,NA,6,#FA92F8,#1CD855,0,10,0,40,0,84.39999997615814,39,0,1489.3999999761581,10,1,experiment,NA,NA,1,0.3,0.7,3,2,163,4,NA
fcp-trial,212,1194979,0.0-173.0-0.0,voc_e2,11754,"[{""event"":""fullscreenenter"",""trial"":1,""time"":10376},{""event"":""blur"",""trial"":192,""time"":1121669},{""event"":""fullscreenexit"",""trial"":193,""time"":1121675},{""event"":""focus"",""trial"":193,""time"":1121677}]",NA,NA,NA,NA,NA,5,#FA92F8,#1CD855,0,10,0,38,1,165.5,39,0,1267.9000000953674,10,1,experiment,NA,NA,1,0.3,0.7,3,2,164,4,NA
fcp-trial,213,1197791,0.0-174.0-0.0,voc_e2,11754,"[{""event"":""fullscreenenter"",""trial"":1,""time"":10376},{""event"":""blur"",""trial"":192,""time"":1121669},{""event"":""fullscreenexit"",""trial"":193,""time"":1121675},{""event"":""focus"",""trial"":193,""time"":1121677}]",NA,NA,NA,NA,NA,2,#1CD855,#FA92F8,10,0,1,40,0,407.89999997615814,39,0,896.8999999761581,0,0,experiment,NA,NA,1,0.7,0.3,2,3,165,4,NA
fcp-trial,214,1201826,0.0-175.0-0.0,voc_e2,11754,"[{""event"":""fullscreenenter"",""trial"":1,""time"":10376},{""event"":""blur"",""trial"":192,""time"":1121669},{""event"":""fullscreenexit"",""trial"":193,""time"":1121675},{""event"":""focus"",""trial"":193,""time"":1121677}]",NA,NA,NA,NA,NA,5,#D89F1C,#3386FF,0,10,0,40,0,2199.7000000476837,39,0,326.2999999523163,10,1,experiment,NA,NA,0,0.1,0.9,1,0,166,4,NA
fcp-trial,215,1204117,0.0-176.0-0.0,voc_e2,11754,"[{""event"":""fullscreenenter"",""trial"":1,""time"":10376},{""event"":""blur"",""trial"":192,""time"":1121669},{""event"":""fullscreenexit"",""trial"":193,""time"":1121675},{""event"":""focus"",""trial"":193,""time"":1121677}]",NA,NA,NA,NA,NA,6,#D8271C,#741CD8,10,0,1,38,1,328.89999997615814,39,0,455.89999997615814,0,0,experiment,NA,NA,2,0.5,0.5,4,5,167,4,NA
fcp-trial,216,1206010,0.0-177.0-0.0,voc_e2,11754,"[{""event"":""fullscreenenter"",""trial"":1,""time"":10376},{""event"":""blur"",""trial"":192,""time"":1121669},{""event"":""fullscreenexit"",""trial"":193,""time"":1121675},{""event"":""focus"",""trial"":193,""time"":1121677}]",NA,NA,NA,NA,NA,5,#741CD8,#D8271C,10,0,0,38,1,47.10000002384186,37,1,340.5,10,0,experiment,NA,NA,2,0.5,0.5,5,4,168,4,NA
fcp-trial,217,1213289,0.0-178.0-0.0,voc_e2,11754,"[{""event"":""fullscreenenter"",""trial"":1,""time"":10376},{""event"":""blur"",""trial"":192,""time"":1121669},{""event"":""fullscreenexit"",""trial"":193,""time"":1121675},{""event"":""focus"",""trial"":193,""time"":1121677}]",NA,NA,NA,NA,NA,1,#FA92F8,#1CD855,0,10,0,40,0,4198,37,1,1573.8000000715256,0,0,experiment,NA,NA,1,0.3,0.7,3,2,169,4,NA
fcp-trial,218,1219881,0.0-179.0-0.0,voc_e2,11754,"[{""event"":""fullscreenenter"",""trial"":1,""time"":10376},{""event"":""blur"",""trial"":192,""time"":1121669},{""event"":""fullscreenexit"",""trial"":193,""time"":1121675},{""event"":""focus"",""trial"":193,""time"":1121677}]",NA,NA,NA,NA,NA,0,#1CD855,#FA92F8,10,0,1,38,1,3854.0999999046326,37,1,1231.4000000953674,10,1,experiment,NA,NA,1,0.7,0.3,2,3,170,4,NA
fcp-trial,219,1222445,0.0-180.0-0.0,voc_e2,11754,"[{""event"":""fullscreenenter"",""trial"":1,""time"":10376},{""event"":""blur"",""trial"":192,""time"":1121669},{""event"":""fullscreenexit"",""trial"":193,""time"":1121675},{""event"":""focus"",""trial"":193,""time"":1121677}]",NA,NA,NA,NA,NA,3,#1CD855,#FA92F8,10,10,1,40,0,305,39,0,751,10,0,experiment,NA,NA,1,0.7,0.3,2,3,171,4,NA
fcp-trial,220,1225226,0.0-181.0-0.0,voc_e2,11754,"[{""event"":""fullscreenenter"",""trial"":1,""time"":10376},{""event"":""blur"",""trial"":192,""time"":1121669},{""event"":""fullscreenexit"",""trial"":193,""time"":1121675},{""event"":""focus"",""trial"":193,""time"":1121677}]",NA,NA,NA,NA,NA,3,#3386FF,#D89F1C,0,0,1,38,1,717,37,1,557.2000000476837,0,1,experiment,NA,NA,0,0.9,0.1,0,1,172,4,NA
fcp-trial,221,1228147,0.0-182.0-0.0,voc_e2,11754,"[{""event"":""fullscreenenter"",""trial"":1,""time"":10376},{""event"":""blur"",""trial"":192,""time"":1121669},{""event"":""fullscreenexit"",""trial"":193,""time"":1121675},{""event"":""focus"",""trial"":193,""time"":1121677}]",NA,NA,NA,NA,NA,6,#3386FF,#D89F1C,10,0,1,38,1,827.6000000238419,37,1,586,10,1,experiment,NA,NA,0,0.9,0.1,0,1,173,4,NA
fcp-trial,222,1235094,0.0-183.0-0.0,voc_e2,11754,"[{""event"":""fullscreenenter"",""trial"":1,""time"":10376},{""event"":""blur"",""trial"":192,""time"":1121669},{""event"":""fullscreenexit"",""trial"":193,""time"":1121675},{""event"":""focus"",""trial"":193,""time"":1121677}]",NA,NA,NA,NA,NA,4,#741CD8,#D8271C,0,10,0,38,1,1316.3999999761581,37,1,4122.600000023842,0,0,experiment,NA,NA,2,0.5,0.5,5,4,174,4,NA
fcp-trial,223,1237749,0.0-184.0-0.0,voc_e2,11754,"[{""event"":""fullscreenenter"",""trial"":1,""time"":10376},{""event"":""blur"",""trial"":192,""time"":1121669},{""event"":""fullscreenexit"",""trial"":193,""time"":1121675},{""event"":""focus"",""trial"":193,""time"":1121677}]",NA,NA,NA,NA,NA,2,#FA92F8,#1CD855,10,10,0,40,0,249.89999997615814,37,1,897.8000000715256,10,0,experiment,NA,NA,1,0.3,0.7,3,2,175,4,NA
fcp-trial,224,1240396,0.0-185.0-0.0,voc_e2,11754,"[{""event"":""fullscreenenter"",""trial"":1,""time"":10376},{""event"":""blur"",""trial"":192,""time"":1121669},{""event"":""fullscreenexit"",""trial"":193,""time"":1121675},{""event"":""focus"",""trial"":193,""time"":1121677}]",NA,NA,NA,NA,NA,2,#741CD8,#D8271C,10,10,0,38,1,115.80000007152557,37,1,1020,10,0,experiment,NA,NA,2,0.5,0.5,5,4,176,4,NA
fcp-trial,225,1243608,0.0-186.0-0.0,voc_e2,11754,"[{""event"":""fullscreenenter"",""trial"":1,""time"":10376},{""event"":""blur"",""trial"":192,""time"":1121669},{""event"":""fullscreenexit"",""trial"":193,""time"":1121675},{""event"":""focus"",""trial"":193,""time"":1121677}]",NA,NA,NA,NA,NA,5,#3386FF,#D89F1C,0,0,1,38,1,190,39,0,1514.1000000238419,0,0,experiment,NA,NA,0,0.9,0.1,0,1,177,4,NA
fcp-trial,226,1250537,0.0-187.0-0.0,voc_e2,11754,"[{""event"":""fullscreenenter"",""trial"":1,""time"":10376},{""event"":""blur"",""trial"":192,""time"":1121669},{""event"":""fullscreenexit"",""trial"":193,""time"":1121675},{""event"":""focus"",""trial"":193,""time"":1121677}]",NA,NA,NA,NA,NA,4,#FA92F8,#1CD855,10,10,0,38,1,2787.100000023842,39,0,2635.8000000715256,10,1,experiment,NA,NA,1,0.3,0.7,3,2,178,4,NA
fcp-trial,227,1255019,0.0-188.0-0.0,voc_e2,11754,"[{""event"":""fullscreenenter"",""trial"":1,""time"":10376},{""event"":""blur"",""trial"":192,""time"":1121669},{""event"":""fullscreenexit"",""trial"":193,""time"":1121675},{""event"":""focus"",""trial"":193,""time"":1121677}]",NA,NA,NA,NA,NA,4,#3386FF,#D89F1C,10,0,1,40,0,106.80000007152557,39,0,2867.600000023842,0,0,experiment,NA,NA,0,0.9,0.1,0,1,179,4,NA
fcp-trial,228,1258675,0.0-189.0-0.0,voc_e2,11754,"[{""event"":""fullscreenenter"",""trial"":1,""time"":10376},{""event"":""blur"",""trial"":192,""time"":1121669},{""event"":""fullscreenexit"",""trial"":193,""time"":1121675},{""event"":""focus"",""trial"":193,""time"":1121677}]",NA,NA,NA,NA,NA,5,#FA92F8,#1CD855,10,0,0,40,0,463.89999997615814,37,1,1684,10,0,experiment,NA,NA,1,0.3,0.7,3,2,180,4,NA
fcp-trial,229,1262426,0.0-190.0-0.0,voc_e2,11754,"[{""event"":""fullscreenenter"",""trial"":1,""time"":10376},{""event"":""blur"",""trial"":192,""time"":1121669},{""event"":""fullscreenexit"",""trial"":193,""time"":1121675},{""event"":""focus"",""trial"":193,""time"":1121677}]",NA,NA,NA,NA,NA,1,#741CD8,#D8271C,10,10,0,40,0,1697.7000000476837,37,1,545.7000000476837,10,0,experiment,NA,NA,2,0.5,0.5,5,4,181,5,NA
fcp-trial,230,1269813,0.0-191.0-0.0,voc_e2,11754,"[{""event"":""fullscreenenter"",""trial"":1,""time"":10376},{""event"":""blur"",""trial"":192,""time"":1121669},{""event"":""fullscreenexit"",""trial"":193,""time"":1121675},{""event"":""focus"",""trial"":193,""time"":1121677}]",NA,NA,NA,NA,NA,6,#741CD8,#D8271C,0,10,0,38,1,5576.100000023842,39,0,303.1999999284744,10,1,experiment,NA,NA,2,0.5,0.5,5,4,182,5,NA
fcp-trial,231,1273788,0.0-192.0-0.0,voc_e2,11754,"[{""event"":""fullscreenenter"",""trial"":1,""time"":10376},{""event"":""blur"",""trial"":192,""time"":1121669},{""event"":""fullscreenexit"",""trial"":193,""time"":1121675},{""event"":""focus"",""trial"":193,""time"":1121677}]",NA,NA,NA,NA,NA,0,#D89F1C,#3386FF,0,10,0,38,1,2207.1999999284744,39,0,261.1999999284744,10,1,experiment,NA,NA,0,0.1,0.9,1,0,183,5,NA
fcp-trial,232,1275838,0.0-193.0-0.0,voc_e2,11754,"[{""event"":""fullscreenenter"",""trial"":1,""time"":10376},{""event"":""blur"",""trial"":192,""time"":1121669},{""event"":""fullscreenexit"",""trial"":193,""time"":1121675},{""event"":""focus"",""trial"":193,""time"":1121677}]",NA,NA,NA,NA,NA,1,#3386FF,#D89F1C,10,0,1,40,0,150.70000004768372,39,0,391.7999999523163,0,0,experiment,NA,NA,0,0.9,0.1,0,1,184,5,NA
fcp-trial,233,1277953,0.0-194.0-0.0,voc_e2,11754,"[{""event"":""fullscreenenter"",""trial"":1,""time"":10376},{""event"":""blur"",""trial"":192,""time"":1121669},{""event"":""fullscreenexit"",""trial"":193,""time"":1121675},{""event"":""focus"",""trial"":193,""time"":1121677}]",NA,NA,NA,NA,NA,6,#1CD855,#FA92F8,10,0,1,38,1,131.60000002384186,37,1,475.59999990463257,10,1,experiment,NA,NA,1,0.7,0.3,2,3,185,5,NA
fcp-trial,234,1280407,0.0-195.0-0.0,voc_e2,11754,"[{""event"":""fullscreenenter"",""trial"":1,""time"":10376},{""event"":""blur"",""trial"":192,""time"":1121669},{""event"":""fullscreenexit"",""trial"":193,""time"":1121675},{""event"":""focus"",""trial"":193,""time"":1121677}]",NA,NA,NA,NA,NA,5,#741CD8,#D8271C,10,0,0,38,1,636.3999999761581,39,0,311.6999999284744,0,1,experiment,NA,NA,2,0.5,0.5,5,4,186,5,NA
fcp-trial,235,1286792,0.0-196.0-0.0,voc_e2,11754,"[{""event"":""fullscreenenter"",""trial"":1,""time"":10376},{""event"":""blur"",""trial"":192,""time"":1121669},{""event"":""fullscreenexit"",""trial"":193,""time"":1121675},{""event"":""focus"",""trial"":193,""time"":1121677}]",NA,NA,NA,NA,NA,2,#D89F1C,#3386FF,10,10,0,40,0,1684.1999999284744,39,0,3194.2999999523163,10,1,experiment,NA,NA,0,0.1,0.9,1,0,187,5,NA
fcp-trial,236,1290013,0.0-197.0-0.0,voc_e2,11754,"[{""event"":""fullscreenenter"",""trial"":1,""time"":10376},{""event"":""blur"",""trial"":192,""time"":1121669},{""event"":""fullscreenexit"",""trial"":193,""time"":1121675},{""event"":""focus"",""trial"":193,""time"":1121677}]",NA,NA,NA,NA,NA,3,#D8271C,#741CD8,10,10,1,38,1,511.5,39,0,1202.3999999761581,10,0,experiment,NA,NA,2,0.5,0.5,4,5,188,5,NA
fcp-trial,237,1292348,0.0-198.0-0.0,voc_e2,11754,"[{""event"":""fullscreenenter"",""trial"":1,""time"":10376},{""event"":""blur"",""trial"":192,""time"":1121669},{""event"":""fullscreenexit"",""trial"":193,""time"":1121675},{""event"":""focus"",""trial"":193,""time"":1121677}]",NA,NA,NA,NA,NA,0,#D8271C,#741CD8,0,10,1,40,0,271.89999997615814,37,1,551.7000000476837,0,1,experiment,NA,NA,2,0.5,0.5,4,5,189,5,NA
fcp-trial,238,1295454,0.0-199.0-0.0,voc_e2,11754,"[{""event"":""fullscreenenter"",""trial"":1,""time"":10376},{""event"":""blur"",""trial"":192,""time"":1121669},{""event"":""fullscreenexit"",""trial"":193,""time"":1121675},{""event"":""focus"",""trial"":193,""time"":1121677}]",NA,NA,NA,NA,NA,0,#D8271C,#741CD8,10,10,1,40,0,610.0999999046326,39,0,986,10,0,experiment,NA,NA,2,0.5,0.5,4,5,190,5,NA
fcp-trial,239,1299367,0.0-200.0-0.0,voc_e2,11754,"[{""event"":""fullscreenenter"",""trial"":1,""time"":10376},{""event"":""blur"",""trial"":192,""time"":1121669},{""event"":""fullscreenexit"",""trial"":193,""time"":1121675},{""event"":""focus"",""trial"":193,""time"":1121677}]",NA,NA,NA,NA,NA,6,#D8271C,#741CD8,10,10,1,40,0,287,39,0,2115.9000000953674,10,0,experiment,NA,NA,2,0.5,0.5,4,5,191,5,NA
fcp-trial,240,1301337,0.0-201.0-0.0,voc_e2,11754,"[{""event"":""fullscreenenter"",""trial"":1,""time"":10376},{""event"":""blur"",""trial"":192,""time"":1121669},{""event"":""fullscreenexit"",""trial"":193,""time"":1121675},{""event"":""focus"",""trial"":193,""time"":1121677}]",NA,NA,NA,NA,NA,3,#741CD8,#D8271C,10,0,0,38,1,187.70000004768372,37,1,276.2999999523163,10,0,experiment,NA,NA,2,0.5,0.5,5,4,192,5,NA
fcp-trial,241,1304334,0.0-202.0-0.0,voc_e2,11754,"[{""event"":""fullscreenenter"",""trial"":1,""time"":10376},{""event"":""blur"",""trial"":192,""time"":1121669},{""event"":""fullscreenexit"",""trial"":193,""time"":1121675},{""event"":""focus"",""trial"":193,""time"":1121677}]",NA,NA,NA,NA,NA,2,#D89F1C,#3386FF,0,10,0,38,1,162.29999995231628,37,1,1327.3999999761581,0,0,experiment,NA,NA,0,0.1,0.9,1,0,193,5,NA
fcp-trial,242,1306684,0.0-203.0-0.0,voc_e2,11754,"[{""event"":""fullscreenenter"",""trial"":1,""time"":10376},{""event"":""blur"",""trial"":192,""time"":1121669},{""event"":""fullscreenexit"",""trial"":193,""time"":1121675},{""event"":""focus"",""trial"":193,""time"":1121677}]",NA,NA,NA,NA,NA,1,#1CD855,#FA92F8,0,10,1,38,1,552.4000000953674,39,0,293.10000002384186,10,0,experiment,NA,NA,1,0.7,0.3,2,3,194,5,NA
fcp-trial,243,1314561,0.0-204.0-0.0,voc_e2,11754,"[{""event"":""fullscreenenter"",""trial"":1,""time"":10376},{""event"":""blur"",""trial"":192,""time"":1121669},{""event"":""fullscreenexit"",""trial"":193,""time"":1121675},{""event"":""focus"",""trial"":193,""time"":1121677}]",NA,NA,NA,NA,NA,5,#3386FF,#D89F1C,10,0,1,40,0,2622.0999999046326,39,0,3747,0,0,experiment,NA,NA,0,0.9,0.1,0,1,195,5,NA
fcp-trial,244,1317856,0.0-205.0-0.0,voc_e2,11754,"[{""event"":""fullscreenenter"",""trial"":1,""time"":10376},{""event"":""blur"",""trial"":192,""time"":1121669},{""event"":""fullscreenexit"",""trial"":193,""time"":1121675},{""event"":""focus"",""trial"":193,""time"":1121677}]",NA,NA,NA,NA,NA,5,#741CD8,#D8271C,0,10,0,40,0,1116.3000000715256,37,1,669,0,0,experiment,NA,NA,2,0.5,0.5,5,4,196,5,NA
fcp-trial,245,1320810,0.0-206.0-0.0,voc_e2,11754,"[{""event"":""fullscreenenter"",""trial"":1,""time"":10376},{""event"":""blur"",""trial"":192,""time"":1121669},{""event"":""fullscreenexit"",""trial"":193,""time"":1121675},{""event"":""focus"",""trial"":193,""time"":1121677}]",NA,NA,NA,NA,NA,5,#1CD855,#FA92F8,10,10,1,40,0,1096.0999999046326,37,1,351,10,1,experiment,NA,NA,1,0.7,0.3,2,3,197,5,NA
fcp-trial,246,1328618,0.0-207.0-0.0,voc_e2,11754,"[{""event"":""fullscreenenter"",""trial"":1,""time"":10376},{""event"":""blur"",""trial"":192,""time"":1121669},{""event"":""fullscreenexit"",""trial"":193,""time"":1121675},{""event"":""focus"",""trial"":193,""time"":1121677}]",NA,NA,NA,NA,NA,3,#1CD855,#FA92F8,10,0,1,40,0,2108.2000000476837,37,1,4190.100000023842,10,1,experiment,NA,NA,1,0.7,0.3,2,3,198,5,NA
fcp-trial,247,1331822,0.0-208.0-0.0,voc_e2,11754,"[{""event"":""fullscreenenter"",""trial"":1,""time"":10376},{""event"":""blur"",""trial"":192,""time"":1121669},{""event"":""fullscreenexit"",""trial"":193,""time"":1121675},{""event"":""focus"",""trial"":193,""time"":1121677}]",NA,NA,NA,NA,NA,6,#D89F1C,#3386FF,0,10,0,40,0,1335.3999999761581,39,0,361.8000000715256,10,1,experiment,NA,NA,0,0.1,0.9,1,0,199,5,NA
fcp-trial,248,1337069,0.0-209.0-0.0,voc_e2,11754,"[{""event"":""fullscreenenter"",""trial"":1,""time"":10376},{""event"":""blur"",""trial"":192,""time"":1121669},{""event"":""fullscreenexit"",""trial"":193,""time"":1121675},{""event"":""focus"",""trial"":193,""time"":1121677}]",NA,NA,NA,NA,NA,1,#3386FF,#D89F1C,10,0,1,40,0,503.89999997615814,37,1,3235.100000023842,10,1,experiment,NA,NA,0,0.9,0.1,0,1,200,5,NA
fcp-trial,249,1342757,0.0-210.0-0.0,voc_e2,11754,"[{""event"":""fullscreenenter"",""trial"":1,""time"":10376},{""event"":""blur"",""trial"":192,""time"":1121669},{""event"":""fullscreenexit"",""trial"":193,""time"":1121675},{""event"":""focus"",""trial"":193,""time"":1121677}]",NA,NA,NA,NA,NA,2,#741CD8,#D8271C,0,0,0,40,0,132.20000004768372,37,1,4048.2000000476837,0,0,experiment,NA,NA,2,0.5,0.5,5,4,201,5,NA
fcp-trial,250,1347571,0.0-211.0-0.0,voc_e2,11754,"[{""event"":""fullscreenenter"",""trial"":1,""time"":10376},{""event"":""blur"",""trial"":192,""time"":1121669},{""event"":""fullscreenexit"",""trial"":193,""time"":1121675},{""event"":""focus"",""trial"":193,""time"":1121677}]",NA,NA,NA,NA,NA,2,#FA92F8,#1CD855,0,0,0,38,1,2385.2000000476837,39,0,921.7000000476837,0,1,experiment,NA,NA,1,0.3,0.7,3,2,202,5,NA
fcp-trial,251,1351669,0.0-212.0-0.0,voc_e2,11754,"[{""event"":""fullscreenenter"",""trial"":1,""time"":10376},{""event"":""blur"",""trial"":192,""time"":1121669},{""event"":""fullscreenexit"",""trial"":193,""time"":1121675},{""event"":""focus"",""trial"":193,""time"":1121677}]",NA,NA,NA,NA,NA,4,#D89F1C,#3386FF,0,0,0,38,1,1683.1999999284744,39,0,907.3000000715256,0,1,experiment,NA,NA,0,0.1,0.9,1,0,203,5,NA
fcp-trial,252,1353641,0.0-213.0-0.0,voc_e2,11754,"[{""event"":""fullscreenenter"",""trial"":1,""time"":10376},{""event"":""blur"",""trial"":192,""time"":1121669},{""event"":""fullscreenexit"",""trial"":193,""time"":1121675},{""event"":""focus"",""trial"":193,""time"":1121677}]",NA,NA,NA,NA,NA,6,#1CD855,#FA92F8,10,0,1,40,0,29,37,1,437.10000002384186,10,1,experiment,NA,NA,1,0.7,0.3,2,3,204,5,NA
fcp-trial,253,1355777,0.0-214.0-0.0,voc_e2,11754,"[{""event"":""fullscreenenter"",""trial"":1,""time"":10376},{""event"":""blur"",""trial"":192,""time"":1121669},{""event"":""fullscreenexit"",""trial"":193,""time"":1121675},{""event"":""focus"",""trial"":193,""time"":1121677}]",NA,NA,NA,NA,NA,4,#D8271C,#741CD8,10,0,1,40,0,102.29999995231628,39,0,525.1000000238419,0,0,experiment,NA,NA,2,0.5,0.5,4,5,205,5,NA
fcp-trial,254,1360047,0.0-215.0-0.0,voc_e2,11754,"[{""event"":""fullscreenenter"",""trial"":1,""time"":10376},{""event"":""blur"",""trial"":192,""time"":1121669},{""event"":""fullscreenexit"",""trial"":193,""time"":1121675},{""event"":""focus"",""trial"":193,""time"":1121677}]",NA,NA,NA,NA,NA,0,#3386FF,#D89F1C,10,0,1,40,0,761.7999999523163,39,0,1997.8000000715256,0,0,experiment,NA,NA,0,0.9,0.1,0,1,206,5,NA
fcp-trial,255,1362812,0.0-216.0-0.0,voc_e2,11754,"[{""event"":""fullscreenenter"",""trial"":1,""time"":10376},{""event"":""blur"",""trial"":192,""time"":1121669},{""event"":""fullscreenexit"",""trial"":193,""time"":1121675},{""event"":""focus"",""trial"":193,""time"":1121677}]",NA,NA,NA,NA,NA,0,#FA92F8,#1CD855,10,10,0,40,0,110.69999992847443,39,0,1147.3000000715256,10,1,experiment,NA,NA,1,0.3,0.7,3,2,207,5,NA
fcp-trial,256,1371827,0.0-217.0-0.0,voc_e2,11754,"[{""event"":""fullscreenenter"",""trial"":1,""time"":10376},{""event"":""blur"",""trial"":192,""time"":1121669},{""event"":""fullscreenexit"",""trial"":193,""time"":1121675},{""event"":""focus"",""trial"":193,""time"":1121677}]",NA,NA,NA,NA,NA,1,#741CD8,#D8271C,10,10,0,38,1,7056.700000047684,37,1,452.09999990463257,10,0,experiment,NA,NA,2,0.5,0.5,5,4,208,5,NA
fcp-trial,257,1374406,0.0-218.0-0.0,voc_e2,11754,"[{""event"":""fullscreenenter"",""trial"":1,""time"":10376},{""event"":""blur"",""trial"":192,""time"":1121669},{""event"":""fullscreenexit"",""trial"":193,""time"":1121675},{""event"":""focus"",""trial"":193,""time"":1121677}]",NA,NA,NA,NA,NA,4,#FA92F8,#1CD855,10,10,0,40,0,743.2999999523163,39,0,326.5,10,1,experiment,NA,NA,1,0.3,0.7,3,2,209,5,NA
fcp-trial,258,1378963,0.0-219.0-0.0,voc_e2,11754,"[{""event"":""fullscreenenter"",""trial"":1,""time"":10376},{""event"":""blur"",""trial"":192,""time"":1121669},{""event"":""fullscreenexit"",""trial"":193,""time"":1121675},{""event"":""focus"",""trial"":193,""time"":1121677}]",NA,NA,NA,NA,NA,3,#D89F1C,#3386FF,0,10,0,38,1,27.90000009536743,39,0,3021.899999976158,10,1,experiment,NA,NA,0,0.1,0.9,1,0,210,5,NA
audio-instructions,259,1436261,0.0-220.0,voc_e2,11754,"[{""event"":""fullscreenenter"",""trial"":1,""time"":10376},{""event"":""blur"",""trial"":192,""time"":1121669},{""event"":""fullscreenexit"",""trial"":193,""time"":1121675},{""event"":""focus"",""trial"":193,""time"":1121677}]",NA,52850.800000071526,static/audio/pause.wav,NA,0,NA,NA,NA,NA,NA,NA,NA,NA,NA,NA,NA,NA,NA,NA,NA,NA,NA,NA,NA,NA,NA,NA,NA,NA,NA
fcp-trial,260,1439350,0.0-221.0-0.0,voc_e2,11754,"[{""event"":""fullscreenenter"",""trial"":1,""time"":10376},{""event"":""blur"",""trial"":192,""time"":1121669},{""event"":""fullscreenexit"",""trial"":193,""time"":1121675},{""event"":""focus"",""trial"":193,""time"":1121677}]",NA,NA,NA,NA,NA,0,#1CD855,#FA92F8,10,0,1,38,1,1214.6999999284744,39,0,368.2000000476837,0,0,experiment,NA,NA,1,0.7,0.3,2,3,211,5,NA
fcp-trial,261,1441860,0.0-222.0-0.0,voc_e2,11754,"[{""event"":""fullscreenenter"",""trial"":1,""time"":10376},{""event"":""blur"",""trial"":192,""time"":1121669},{""event"":""fullscreenexit"",""trial"":193,""time"":1121675},{""event"":""focus"",""trial"":193,""time"":1121677}]",NA,NA,NA,NA,NA,3,#3386FF,#D89F1C,10,0,1,40,0,319,39,0,686.6999999284744,0,0,experiment,NA,NA,0,0.9,0.1,0,1,212,5,NA
fcp-trial,262,1445198,0.0-223.0-0.0,voc_e2,11754,"[{""event"":""fullscreenenter"",""trial"":1,""time"":10376},{""event"":""blur"",""trial"":192,""time"":1121669},{""event"":""fullscreenexit"",""trial"":193,""time"":1121675},{""event"":""focus"",""trial"":193,""time"":1121677}]",NA,NA,NA,NA,NA,1,#1CD855,#FA92F8,10,0,1,40,0,59.800000071525574,39,0,1774.5,0,0,experiment,NA,NA,1,0.7,0.3,2,3,213,5,NA
fcp-trial,263,1450560,0.0-224.0-0.0,voc_e2,11754,"[{""event"":""fullscreenenter"",""trial"":1,""time"":10376},{""event"":""blur"",""trial"":192,""time"":1121669},{""event"":""fullscreenexit"",""trial"":193,""time"":1121675},{""event"":""focus"",""trial"":193,""time"":1121677}]",NA,NA,NA,NA,NA,1,#D8271C,#741CD8,0,0,1,38,1,2775.5,37,1,1082.6000000238419,0,1,experiment,NA,NA,2,0.5,0.5,4,5,214,5,NA
fcp-trial,264,1453138,0.0-225.0-0.0,voc_e2,11754,"[{""event"":""fullscreenenter"",""trial"":1,""time"":10376},{""event"":""blur"",""trial"":192,""time"":1121669},{""event"":""fullscreenexit"",""trial"":193,""time"":1121675},{""event"":""focus"",""trial"":193,""time"":1121677}]",NA,NA,NA,NA,NA,6,#741CD8,#D8271C,0,0,0,38,1,149.79999995231628,37,1,917.3000000715256,0,0,experiment,NA,NA,2,0.5,0.5,5,4,215,5,NA
fcp-trial,265,1455755,0.0-226.0-0.0,voc_e2,11754,"[{""event"":""fullscreenenter"",""trial"":1,""time"":10376},{""event"":""blur"",""trial"":192,""time"":1121669},{""event"":""fullscreenexit"",""trial"":193,""time"":1121675},{""event"":""focus"",""trial"":193,""time"":1121677}]",NA,NA,NA,NA,NA,2,#D8271C,#741CD8,0,0,1,40,0,165.20000004768372,37,1,937.3999999761581,0,1,experiment,NA,NA,2,0.5,0.5,4,5,216,5,NA
fcp-trial,266,1458225,0.0-227.0-0.0,voc_e2,11754,"[{""event"":""fullscreenenter"",""trial"":1,""time"":10376},{""event"":""blur"",""trial"":192,""time"":1121669},{""event"":""fullscreenexit"",""trial"":193,""time"":1121675},{""event"":""focus"",""trial"":193,""time"":1121677}]",NA,NA,NA,NA,NA,4,#3386FF,#D89F1C,10,0,1,40,0,59.699999928474426,39,0,897,0,0,experiment,NA,NA,0,0.9,0.1,0,1,217,5,NA
fcp-trial,267,1460249,0.0-228.0-0.0,voc_e2,11754,"[{""event"":""fullscreenenter"",""trial"":1,""time"":10376},{""event"":""blur"",""trial"":192,""time"":1121669},{""event"":""fullscreenexit"",""trial"":193,""time"":1121675},{""event"":""focus"",""trial"":193,""time"":1121677}]",NA,NA,NA,NA,NA,6,#1CD855,#FA92F8,10,0,1,38,1,0.5,39,0,517.3000000715256,0,0,experiment,NA,NA,1,0.7,0.3,2,3,218,5,NA
fcp-trial,268,1462487,0.0-229.0-0.0,voc_e2,11754,"[{""event"":""fullscreenenter"",""trial"":1,""time"":10376},{""event"":""blur"",""trial"":192,""time"":1121669},{""event"":""fullscreenexit"",""trial"":193,""time"":1121675},{""event"":""focus"",""trial"":193,""time"":1121677}]",NA,NA,NA,NA,NA,1,#3386FF,#D89F1C,10,0,1,40,0,435.1999999284744,37,1,295.39999997615814,10,1,experiment,NA,NA,0,0.9,0.1,0,1,219,5,NA
fcp-trial,269,1465633,0.0-230.0-0.0,voc_e2,11754,"[{""event"":""fullscreenenter"",""trial"":1,""time"":10376},{""event"":""blur"",""trial"":192,""time"":1121669},{""event"":""fullscreenexit"",""trial"":193,""time"":1121675},{""event"":""focus"",""trial"":193,""time"":1121677}]",NA,NA,NA,NA,NA,0,#D89F1C,#3386FF,0,10,0,38,1,1231.9000000953674,37,1,404.10000002384186,0,0,experiment,NA,NA,0,0.1,0.9,1,0,220,5,NA
fcp-trial,270,1468002,0.0-231.0-0.0,voc_e2,11754,"[{""event"":""fullscreenenter"",""trial"":1,""time"":10376},{""event"":""blur"",""trial"":192,""time"":1121669},{""event"":""fullscreenexit"",""trial"":193,""time"":1121675},{""event"":""focus"",""trial"":193,""time"":1121677}]",NA,NA,NA,NA,NA,5,#741CD8,#D8271C,0,0,0,38,1,556,39,0,306.7999999523163,0,1,experiment,NA,NA,2,0.5,0.5,5,4,221,5,NA
fcp-trial,271,1473323,0.0-232.0-0.0,voc_e2,11754,"[{""event"":""fullscreenenter"",""trial"":1,""time"":10376},{""event"":""blur"",""trial"":192,""time"":1121669},{""event"":""fullscreenexit"",""trial"":193,""time"":1121675},{""event"":""focus"",""trial"":193,""time"":1121677}]",NA,NA,NA,NA,NA,0,#741CD8,#D8271C,0,10,0,38,1,3556.5999999046326,37,1,254.89999997615814,0,0,experiment,NA,NA,2,0.5,0.5,5,4,222,5,NA
fcp-trial,272,1488328,0.0-233.0-0.0,voc_e2,11754,"[{""event"":""fullscreenenter"",""trial"":1,""time"":10376},{""event"":""blur"",""trial"":192,""time"":1121669},{""event"":""fullscreenexit"",""trial"":193,""time"":1121675},{""event"":""focus"",""trial"":193,""time"":1121677}]",NA,NA,NA,NA,NA,2,#1CD855,#FA92F8,0,0,1,null,null,null,null,null,null,NA,0,experiment,NA,NA,1,0.7,0.3,2,3,223,5,NA
fcp-trial,273,1491522,0.0-234.0-0.0,voc_e2,11754,"[{""event"":""fullscreenenter"",""trial"":1,""time"":10376},{""event"":""blur"",""trial"":192,""time"":1121669},{""event"":""fullscreenexit"",""trial"":193,""time"":1121675},{""event"":""focus"",""trial"":193,""time"":1121677}]",NA,NA,NA,NA,NA,6,#3386FF,#D89F1C,10,0,1,38,1,1282.9000000953674,39,0,404.89999997615814,0,0,experiment,NA,NA,0,0.9,0.1,0,1,224,5,NA
fcp-trial,274,1493538,0.0-235.0-0.0,voc_e2,11754,"[{""event"":""fullscreenenter"",""trial"":1,""time"":10376},{""event"":""blur"",""trial"":192,""time"":1121669},{""event"":""fullscreenexit"",""trial"":193,""time"":1121675},{""event"":""focus"",""trial"":193,""time"":1121677}]",NA,NA,NA,NA,NA,5,#D89F1C,#3386FF,0,10,0,38,1,176.10000002384186,39,0,333.89999997615814,10,1,experiment,NA,NA,0,0.1,0.9,1,0,225,5,NA
fcp-trial,275,1495870,0.0-236.0-0.0,voc_e2,11754,"[{""event"":""fullscreenenter"",""trial"":1,""time"":10376},{""event"":""blur"",""trial"":192,""time"":1121669},{""event"":""fullscreenexit"",""trial"":193,""time"":1121675},{""event"":""focus"",""trial"":193,""time"":1121677}]",NA,NA,NA,NA,NA,4,#FA92F8,#1CD855,0,10,0,38,1,201,39,0,625.1999999284744,10,1,experiment,NA,NA,1,0.3,0.7,3,2,226,6,NA
fcp-trial,276,1498748,0.0-237.0-0.0,voc_e2,11754,"[{""event"":""fullscreenenter"",""trial"":1,""time"":10376},{""event"":""blur"",""trial"":192,""time"":1121669},{""event"":""fullscreenexit"",""trial"":193,""time"":1121675},{""event"":""focus"",""trial"":193,""time"":1121677}]",NA,NA,NA,NA,NA,3,#D8271C,#741CD8,0,0,1,38,1,371.7999999523163,37,1,996.2000000476837,0,1,experiment,NA,NA,2,0.5,0.5,4,5,227,6,NA
fcp-trial,277,1502272,0.0-238.0-0.0,voc_e2,11754,"[{""event"":""fullscreenenter"",""trial"":1,""time"":10376},{""event"":""blur"",""trial"":192,""time"":1121669},{""event"":""fullscreenexit"",""trial"":193,""time"":1121675},{""event"":""focus"",""trial"":193,""time"":1121677}]",NA,NA,NA,NA,NA,2,#D89F1C,#3386FF,0,10,0,40,0,1.899999976158142,37,1,2016.9000000953674,0,0,experiment,NA,NA,0,0.1,0.9,1,0,228,6,NA
fcp-trial,278,1504720,0.0-239.0-0.0,voc_e2,11754,"[{""event"":""fullscreenenter"",""trial"":1,""time"":10376},{""event"":""blur"",""trial"":192,""time"":1121669},{""event"":""fullscreenexit"",""trial"":193,""time"":1121675},{""event"":""focus"",""trial"":193,""time"":1121677}]",NA,NA,NA,NA,NA,3,#1CD855,#FA92F8,10,0,1,40,0,366.39999997615814,37,1,578.7000000476837,10,1,experiment,NA,NA,1,0.7,0.3,2,3,229,6,NA
fcp-trial,279,1507975,0.0-240.0-0.0,voc_e2,11754,"[{""event"":""fullscreenenter"",""trial"":1,""time"":10376},{""event"":""blur"",""trial"":192,""time"":1121669},{""event"":""fullscreenexit"",""trial"":193,""time"":1121675},{""event"":""focus"",""trial"":193,""time"":1121677}]",NA,NA,NA,NA,NA,4,#741CD8,#D8271C,10,10,0,40,0,729.3999999761581,37,1,1020.5,10,0,experiment,NA,NA,2,0.5,0.5,5,4,230,6,NA
fcp-trial,280,1511004,0.0-241.0-0.0,voc_e2,11754,"[{""event"":""fullscreenenter"",""trial"":1,""time"":10376},{""event"":""blur"",""trial"":192,""time"":1121669},{""event"":""fullscreenexit"",""trial"":193,""time"":1121675},{""event"":""focus"",""trial"":193,""time"":1121677}]",NA,NA,NA,NA,NA,5,#FA92F8,#1CD855,0,10,0,38,1,512.1000000238419,39,0,1012.7999999523163,10,1,experiment,NA,NA,1,0.3,0.7,3,2,231,6,NA
fcp-trial,281,1515911,0.0-242.0-0.0,voc_e2,11754,"[{""event"":""fullscreenenter"",""trial"":1,""time"":10376},{""event"":""blur"",""trial"":192,""time"":1121669},{""event"":""fullscreenexit"",""trial"":193,""time"":1121675},{""event"":""focus"",""trial"":193,""time"":1121677}]",NA,NA,NA,NA,NA,4,#1CD855,#FA92F8,10,0,1,40,0,626.3000000715256,39,0,2776,0,0,experiment,NA,NA,1,0.7,0.3,2,3,232,6,NA
fcp-trial,282,1518554,0.0-243.0-0.0,voc_e2,11754,"[{""event"":""fullscreenenter"",""trial"":1,""time"":10376},{""event"":""blur"",""trial"":192,""time"":1121669},{""event"":""fullscreenexit"",""trial"":193,""time"":1121675},{""event"":""focus"",""trial"":193,""time"":1121677}]",NA,NA,NA,NA,NA,3,#3386FF,#D89F1C,0,0,1,40,0,663.2999999523163,39,0,476.5,0,0,experiment,NA,NA,0,0.9,0.1,0,1,233,6,NA
fcp-trial,283,1523068,0.0-244.0-0.0,voc_e2,11754,"[{""event"":""fullscreenenter"",""trial"":1,""time"":10376},{""event"":""blur"",""trial"":192,""time"":1121669},{""event"":""fullscreenexit"",""trial"":193,""time"":1121675},{""event"":""focus"",""trial"":193,""time"":1121677}]",NA,NA,NA,NA,NA,1,#1CD855,#FA92F8,10,0,1,40,0,1585.2999999523163,39,0,1423.3000000715256,0,0,experiment,NA,NA,1,0.7,0.3,2,3,234,6,NA
fcp-trial,284,1530414,0.0-245.0-0.0,voc_e2,11754,"[{""event"":""fullscreenenter"",""trial"":1,""time"":10376},{""event"":""blur"",""trial"":192,""time"":1121669},{""event"":""fullscreenexit"",""trial"":193,""time"":1121675},{""event"":""focus"",""trial"":193,""time"":1121677}]",NA,NA,NA,NA,NA,1,#3386FF,#D89F1C,10,0,1,40,0,1244.3999999761581,37,1,4598.100000023842,10,1,experiment,NA,NA,0,0.9,0.1,0,1,235,6,NA
fcp-trial,285,1534466,0.0-246.0-0.0,voc_e2,11754,"[{""event"":""fullscreenenter"",""trial"":1,""time"":10376},{""event"":""blur"",""trial"":192,""time"":1121669},{""event"":""fullscreenexit"",""trial"":193,""time"":1121675},{""event"":""focus"",""trial"":193,""time"":1121677}]",NA,NA,NA,NA,NA,0,#D8271C,#741CD8,0,0,1,38,1,248.09999990463257,39,0,2299.100000023842,0,0,experiment,NA,NA,2,0.5,0.5,4,5,236,6,NA
fcp-trial,286,1541499,0.0-247.0-0.0,voc_e2,11754,"[{""event"":""fullscreenenter"",""trial"":1,""time"":10376},{""event"":""blur"",""trial"":192,""time"":1121669},{""event"":""fullscreenexit"",""trial"":193,""time"":1121675},{""event"":""focus"",""trial"":193,""time"":1121677}]",NA,NA,NA,NA,NA,6,#FA92F8,#1CD855,0,10,0,40,0,3548.1999999284744,39,0,1979.7999999523163,10,1,experiment,NA,NA,1,0.3,0.7,3,2,237,6,NA
fcp-trial,287,1545261,0.0-248.0-0.0,voc_e2,11754,"[{""event"":""fullscreenenter"",""trial"":1,""time"":10376},{""event"":""blur"",""trial"":192,""time"":1121669},{""event"":""fullscreenexit"",""trial"":193,""time"":1121675},{""event"":""focus"",""trial"":193,""time"":1121677}]",NA,NA,NA,NA,NA,4,#741CD8,#D8271C,0,0,0,40,0,1708.1000000238419,37,1,549.1999999284744,0,0,experiment,NA,NA,2,0.5,0.5,5,4,238,6,NA
fcp-trial,288,1548030,0.0-249.0-0.0,voc_e2,11754,"[{""event"":""fullscreenenter"",""trial"":1,""time"":10376},{""event"":""blur"",""trial"":192,""time"":1121669},{""event"":""fullscreenexit"",""trial"":193,""time"":1121675},{""event"":""focus"",""trial"":193,""time"":1121677}]",NA,NA,NA,NA,NA,4,#D89F1C,#3386FF,0,10,0,38,1,614.8999999761581,37,1,650.5,0,0,experiment,NA,NA,0,0.1,0.9,1,0,239,6,NA
fcp-trial,289,1564656,0.0-250.0-0.0,voc_e2,11754,"[{""event"":""fullscreenenter"",""trial"":1,""time"":10376},{""event"":""blur"",""trial"":192,""time"":1121669},{""event"":""fullscreenexit"",""trial"":193,""time"":1121675},{""event"":""focus"",""trial"":193,""time"":1121677}]",NA,NA,NA,NA,NA,6,#D89F1C,#3386FF,10,0,0,40,0,1364.1999999284744,null,null,null,NA,0,experiment,NA,NA,0,0.1,0.9,1,0,240,6,NA
fcp-trial,290,1566973,0.0-251.0-0.0,voc_e2,11754,"[{""event"":""fullscreenenter"",""trial"":1,""time"":10376},{""event"":""blur"",""trial"":192,""time"":1121669},{""event"":""fullscreenexit"",""trial"":193,""time"":1121675},{""event"":""focus"",""trial"":193,""time"":1121677}]",NA,NA,NA,NA,NA,5,#FA92F8,#1CD855,0,0,0,38,1,390.7999999523163,39,0,418.1999999284744,0,1,experiment,NA,NA,1,0.3,0.7,3,2,241,6,NA
fcp-trial,291,1568746,0.0-252.0-0.0,voc_e2,11754,"[{""event"":""fullscreenenter"",""trial"":1,""time"":10376},{""event"":""blur"",""trial"":192,""time"":1121669},{""event"":""fullscreenexit"",""trial"":193,""time"":1121675},{""event"":""focus"",""trial"":193,""time"":1121677}]",NA,NA,NA,NA,NA,6,#741CD8,#D8271C,0,10,0,40,0,15.799999952316284,39,0,252.5,10,1,experiment,NA,NA,2,0.5,0.5,5,4,242,6,NA
fcp-trial,292,1571532,0.0-253.0-0.0,voc_e2,11754,"[{""event"":""fullscreenenter"",""trial"":1,""time"":10376},{""event"":""blur"",""trial"":192,""time"":1121669},{""event"":""fullscreenexit"",""trial"":193,""time"":1121675},{""event"":""focus"",""trial"":193,""time"":1121677}]",NA,NA,NA,NA,NA,2,#3386FF,#D89F1C,10,0,1,38,1,529.1999999284744,39,0,745.3000000715256,0,0,experiment,NA,NA,0,0.9,0.1,0,1,243,6,NA
fcp-trial,293,1575356,0.0-254.0-0.0,voc_e2,11754,"[{""event"":""fullscreenenter"",""trial"":1,""time"":10376},{""event"":""blur"",""trial"":192,""time"":1121669},{""event"":""fullscreenexit"",""trial"":193,""time"":1121675},{""event"":""focus"",""trial"":193,""time"":1121677}]",NA,NA,NA,NA,NA,1,#741CD8,#D8271C,0,0,0,40,0,58.60000002384186,39,0,2258.8000000715256,0,1,experiment,NA,NA,2,0.5,0.5,5,4,244,6,NA
fcp-trial,294,1577251,0.0-255.0-0.0,voc_e2,11754,"[{""event"":""fullscreenenter"",""trial"":1,""time"":10376},{""event"":""blur"",""trial"":192,""time"":1121669},{""event"":""fullscreenexit"",""trial"":193,""time"":1121675},{""event"":""focus"",""trial"":193,""time"":1121677}]",NA,NA,NA,NA,NA,3,#1CD855,#FA92F8,10,0,1,38,1,115.40000009536743,39,0,274.60000002384186,0,0,experiment,NA,NA,1,0.7,0.3,2,3,245,6,NA
fcp-trial,295,1580147,0.0-256.0-0.0,voc_e2,11754,"[{""event"":""fullscreenenter"",""trial"":1,""time"":10376},{""event"":""blur"",""trial"":192,""time"":1121669},{""event"":""fullscreenexit"",""trial"":193,""time"":1121675},{""event"":""focus"",""trial"":193,""time"":1121677}]",NA,NA,NA,NA,NA,2,#741CD8,#D8271C,0,10,0,38,1,420.89999997615814,37,1,969.5,0,0,experiment,NA,NA,2,0.5,0.5,5,4,246,6,NA
fcp-trial,296,1589452,0.0-257.0-0.0,voc_e2,11754,"[{""event"":""fullscreenenter"",""trial"":1,""time"":10376},{""event"":""blur"",""trial"":192,""time"":1121669},{""event"":""fullscreenexit"",""trial"":193,""time"":1121675},{""event"":""focus"",""trial"":193,""time"":1121677}]",NA,NA,NA,NA,NA,0,#1CD855,#FA92F8,10,0,1,40,0,6135.799999952316,37,1,1660.1999999284744,10,1,experiment,NA,NA,1,0.7,0.3,2,3,247,6,NA
fcp-trial,297,1591595,0.0-258.0-0.0,voc_e2,11754,"[{""event"":""fullscreenenter"",""trial"":1,""time"":10376},{""event"":""blur"",""trial"":192,""time"":1121669},{""event"":""fullscreenexit"",""trial"":193,""time"":1121675},{""event"":""focus"",""trial"":193,""time"":1121677}]",NA,NA,NA,NA,NA,0,#3386FF,#D89F1C,10,0,1,40,0,147.10000002384186,37,1,488.10000002384186,10,1,experiment,NA,NA,0,0.9,0.1,0,1,248,6,NA
fcp-trial,298,1593696,0.0-259.0-0.0,voc_e2,11754,"[{""event"":""fullscreenenter"",""trial"":1,""time"":10376},{""event"":""blur"",""trial"":192,""time"":1121669},{""event"":""fullscreenexit"",""trial"":193,""time"":1121675},{""event"":""focus"",""trial"":193,""time"":1121677}]",NA,NA,NA,NA,NA,5,#D8271C,#741CD8,10,0,1,40,0,70.60000002384186,37,1,521.3000000715256,10,1,experiment,NA,NA,2,0.5,0.5,4,5,249,6,NA
fcp-trial,299,1598353,0.0-260.0-0.0,voc_e2,11754,"[{""event"":""fullscreenenter"",""trial"":1,""time"":10376},{""event"":""blur"",""trial"":192,""time"":1121669},{""event"":""fullscreenexit"",""trial"":193,""time"":1121675},{""event"":""focus"",""trial"":193,""time"":1121677}]",NA,NA,NA,NA,NA,3,#D8271C,#741CD8,10,0,1,40,0,20.799999952316284,39,0,3125.100000023842,0,0,experiment,NA,NA,2,0.5,0.5,4,5,250,6,NA
fcp-trial,300,1600479,0.0-261.0-0.0,voc_e2,11754,"[{""event"":""fullscreenenter"",""trial"":1,""time"":10376},{""event"":""blur"",""trial"":192,""time"":1121669},{""event"":""fullscreenexit"",""trial"":193,""time"":1121675},{""event"":""focus"",""trial"":193,""time"":1121677}]",NA,NA,NA,NA,NA,5,#D89F1C,#3386FF,10,10,0,40,0,148.60000002384186,37,1,471.40000009536743,10,0,experiment,NA,NA,0,0.1,0.9,1,0,251,6,NA
fcp-trial,301,1607417,0.0-262.0-0.0,voc_e2,11754,"[{""event"":""fullscreenenter"",""trial"":1,""time"":10376},{""event"":""blur"",""trial"":192,""time"":1121669},{""event"":""fullscreenexit"",""trial"":193,""time"":1121675},{""event"":""focus"",""trial"":193,""time"":1121677}]",NA,NA,NA,NA,NA,2,#FA92F8,#1CD855,0,10,0,40,0,2202.5,39,0,3225.2999999523163,10,1,experiment,NA,NA,1,0.3,0.7,3,2,252,6,NA
fcp-trial,302,1609773,0.0-263.0-0.0,voc_e2,11754,"[{""event"":""fullscreenenter"",""trial"":1,""time"":10376},{""event"":""blur"",""trial"":192,""time"":1121669},{""event"":""fullscreenexit"",""trial"":193,""time"":1121675},{""event"":""focus"",""trial"":193,""time"":1121677}]",NA,NA,NA,NA,NA,4,#FA92F8,#1CD855,10,10,0,40,0,242.5,39,0,606,10,1,experiment,NA,NA,1,0.3,0.7,3,2,253,6,NA
fcp-trial,303,1612076,0.0-264.0-0.0,voc_e2,11754,"[{""event"":""fullscreenenter"",""trial"":1,""time"":10376},{""event"":""blur"",""trial"":192,""time"":1121669},{""event"":""fullscreenexit"",""trial"":193,""time"":1121675},{""event"":""focus"",""trial"":193,""time"":1121677}]",NA,NA,NA,NA,NA,4,#741CD8,#D8271C,0,0,0,38,1,461.6999999284744,37,1,335.7999999523163,0,0,experiment,NA,NA,2,0.5,0.5,5,4,254,6,NA
fcp-trial,304,1615240,0.0-265.0-0.0,voc_e2,11754,"[{""event"":""fullscreenenter"",""trial"":1,""time"":10376},{""event"":""blur"",""trial"":192,""time"":1121669},{""event"":""fullscreenexit"",""trial"":193,""time"":1121675},{""event"":""focus"",""trial"":193,""time"":1121677}]",NA,NA,NA,NA,NA,0,#D8271C,#741CD8,10,10,1,40,0,66,39,0,1591.4000000953674,10,0,experiment,NA,NA,2,0.5,0.5,4,5,255,6,NA
fcp-trial,305,1618390,0.0-266.0-0.0,voc_e2,11754,"[{""event"":""fullscreenenter"",""trial"":1,""time"":10376},{""event"":""blur"",""trial"":192,""time"":1121669},{""event"":""fullscreenexit"",""trial"":193,""time"":1121675},{""event"":""focus"",""trial"":193,""time"":1121677}]",NA,NA,NA,NA,NA,3,#1CD855,#FA92F8,10,0,1,40,0,1101.4000000953674,37,1,542.3999999761581,10,1,experiment,NA,NA,1,0.7,0.3,2,3,256,6,NA
fcp-trial,306,1625205,0.0-267.0-0.0,voc_e2,11754,"[{""event"":""fullscreenenter"",""trial"":1,""time"":10376},{""event"":""blur"",""trial"":192,""time"":1121669},{""event"":""fullscreenexit"",""trial"":193,""time"":1121675},{""event"":""focus"",""trial"":193,""time"":1121677}]",NA,NA,NA,NA,NA,5,#3386FF,#D89F1C,10,0,1,40,0,3774.2999999523163,39,0,1533.3999999761581,0,0,experiment,NA,NA,0,0.9,0.1,0,1,257,6,NA
fcp-trial,307,1630008,0.0-268.0-0.0,voc_e2,11754,"[{""event"":""fullscreenenter"",""trial"":1,""time"":10376},{""event"":""blur"",""trial"":192,""time"":1121669},{""event"":""fullscreenexit"",""trial"":193,""time"":1121675},{""event"":""focus"",""trial"":193,""time"":1121677}]",NA,NA,NA,NA,NA,0,#3386FF,#D89F1C,10,0,1,38,1,2970.1999999284744,37,1,325.39999997615814,10,1,experiment,NA,NA,0,0.9,0.1,0,1,258,6,NA
fcp-trial,308,1633549,0.0-269.0-0.0,voc_e2,11754,"[{""event"":""fullscreenenter"",""trial"":1,""time"":10376},{""event"":""blur"",""trial"":192,""time"":1121669},{""event"":""fullscreenexit"",""trial"":193,""time"":1121675},{""event"":""focus"",""trial"":193,""time"":1121677}]",NA,NA,NA,NA,NA,2,#D8271C,#741CD8,10,10,1,40,0,351.60000002384186,39,0,1682.5,10,0,experiment,NA,NA,2,0.5,0.5,4,5,259,6,NA
fcp-trial,309,1635782,0.0-270.0-0.0,voc_e2,11754,"[{""event"":""fullscreenenter"",""trial"":1,""time"":10376},{""event"":""blur"",""trial"":192,""time"":1121669},{""event"":""fullscreenexit"",""trial"":193,""time"":1121675},{""event"":""focus"",""trial"":193,""time"":1121677}]",NA,NA,NA,NA,NA,1,#FA92F8,#1CD855,10,0,0,40,0,274.5,37,1,450.10000002384186,10,0,experiment,NA,NA,1,0.3,0.7,3,2,260,6,NA
fcp-trial,310,1638364,0.0-271.0-0.0,voc_e2,11754,"[{""event"":""fullscreenenter"",""trial"":1,""time"":10376},{""event"":""blur"",""trial"":192,""time"":1121669},{""event"":""fullscreenexit"",""trial"":193,""time"":1121675},{""event"":""focus"",""trial"":193,""time"":1121677}]",NA,NA,NA,NA,NA,5,#D8271C,#741CD8,10,10,1,38,1,327,37,1,748.8999999761581,10,1,experiment,NA,NA,2,0.5,0.5,4,5,261,6,NA
fcp-trial,311,1643962,0.0-272.0-0.0,voc_e2,11754,"[{""event"":""fullscreenenter"",""trial"":1,""time"":10376},{""event"":""blur"",""trial"":192,""time"":1121669},{""event"":""fullscreenexit"",""trial"":193,""time"":1121675},{""event"":""focus"",""trial"":193,""time"":1121677}]",NA,NA,NA,NA,NA,2,#3386FF,#D89F1C,10,0,1,38,1,2930.5,39,0,1162.5,0,0,experiment,NA,NA,0,0.9,0.1,0,1,262,6,NA
fcp-trial,312,1650997,0.0-273.0-0.0,voc_e2,11754,"[{""event"":""fullscreenenter"",""trial"":1,""time"":10376},{""event"":""blur"",""trial"":192,""time"":1121669},{""event"":""fullscreenexit"",""trial"":193,""time"":1121675},{""event"":""focus"",""trial"":193,""time"":1121677}]",NA,NA,NA,NA,NA,6,#FA92F8,#1CD855,10,0,0,38,1,5153.300000071526,39,0,374.89999997615814,0,1,experiment,NA,NA,1,0.3,0.7,3,2,263,6,NA
fcp-trial,313,1653234,0.0-274.0-0.0,voc_e2,11754,"[{""event"":""fullscreenenter"",""trial"":1,""time"":10376},{""event"":""blur"",""trial"":192,""time"":1121669},{""event"":""fullscreenexit"",""trial"":193,""time"":1121675},{""event"":""focus"",""trial"":193,""time"":1121677}]",NA,NA,NA,NA,NA,1,#741CD8,#D8271C,0,10,0,38,1,320.1999999284744,39,0,409.3000000715256,10,1,experiment,NA,NA,2,0.5,0.5,5,4,264,6,NA
fcp-trial,314,1656195,0.0-275.0-0.0,voc_e2,11754,"[{""event"":""fullscreenenter"",""trial"":1,""time"":10376},{""event"":""blur"",""trial"":192,""time"":1121669},{""event"":""fullscreenexit"",""trial"":193,""time"":1121675},{""event"":""focus"",""trial"":193,""time"":1121677}]",NA,NA,NA,NA,NA,6,#D89F1C,#3386FF,0,10,0,40,0,386.7000000476837,39,0,1066.8999999761581,10,1,experiment,NA,NA,0,0.1,0.9,1,0,265,6,NA
fcp-trial,315,1658347,0.0-276.0-0.0,voc_e2,11754,"[{""event"":""fullscreenenter"",""trial"":1,""time"":10376},{""event"":""blur"",""trial"":192,""time"":1121669},{""event"":""fullscreenexit"",""trial"":193,""time"":1121675},{""event"":""focus"",""trial"":193,""time"":1121677}]",NA,NA,NA,NA,NA,5,#FA92F8,#1CD855,0,10,0,38,1,18,39,0,627.3999999761581,10,1,experiment,NA,NA,1,0.3,0.7,3,2,266,6,NA
fcp-trial,316,1661903,0.0-277.0-0.0,voc_e2,11754,"[{""event"":""fullscreenenter"",""trial"":1,""time"":10376},{""event"":""blur"",""trial"":192,""time"":1121669},{""event"":""fullscreenexit"",""trial"":193,""time"":1121675},{""event"":""focus"",""trial"":193,""time"":1121677}]",NA,NA,NA,NA,NA,4,#3386FF,#D89F1C,0,0,1,40,0,424.8000000715256,39,0,1625.8999999761581,0,0,experiment,NA,NA,0,0.9,0.1,0,1,267,6,NA
fcp-trial,317,1666951,0.0-278.0-0.0,voc_e2,11754,"[{""event"":""fullscreenenter"",""trial"":1,""time"":10376},{""event"":""blur"",""trial"":192,""time"":1121669},{""event"":""fullscreenexit"",""trial"":193,""time"":1121675},{""event"":""focus"",""trial"":193,""time"":1121677}]",NA,NA,NA,NA,NA,6,#741CD8,#D8271C,10,0,0,40,0,2279.3000000715256,39,0,1259.5,0,1,experiment,NA,NA,2,0.5,0.5,5,4,268,6,NA
fcp-trial,318,1670715,0.0-279.0-0.0,voc_e2,11754,"[{""event"":""fullscreenenter"",""trial"":1,""time"":10376},{""event"":""blur"",""trial"":192,""time"":1121669},{""event"":""fullscreenexit"",""trial"":193,""time"":1121675},{""event"":""focus"",""trial"":193,""time"":1121677}]",NA,NA,NA,NA,NA,1,#D89F1C,#3386FF,0,0,0,38,1,1111.7999999523163,39,0,1146.1999999284744,0,1,experiment,NA,NA,0,0.1,0.9,1,0,269,6,NA
fcp-trial,319,1676312,0.0-280.0-0.0,voc_e2,11754,"[{""event"":""fullscreenenter"",""trial"":1,""time"":10376},{""event"":""blur"",""trial"":192,""time"":1121669},{""event"":""fullscreenexit"",""trial"":193,""time"":1121675},{""event"":""focus"",""trial"":193,""time"":1121677}]",NA,NA,NA,NA,NA,0,#FA92F8,#1CD855,0,10,0,40,0,712.3000000715256,37,1,3379.2999999523163,0,0,experiment,NA,NA,1,0.3,0.7,3,2,270,6,NA
fcp-trial,320,1680229,0.0-281.0-0.0,voc_e2,11754,"[{""event"":""fullscreenenter"",""trial"":1,""time"":10376},{""event"":""blur"",""trial"":192,""time"":1121669},{""event"":""fullscreenexit"",""trial"":193,""time"":1121675},{""event"":""focus"",""trial"":193,""time"":1121677}]",NA,NA,NA,NA,NA,3,#3386FF,#D89F1C,10,0,1,40,0,456.39999997615814,37,1,1952.7999999523163,10,1,experiment,NA,NA,0,0.9,0.1,0,1,271,7,NA
fcp-trial,321,1683293,0.0-282.0-0.0,voc_e2,11754,"[{""event"":""fullscreenenter"",""trial"":1,""time"":10376},{""event"":""blur"",""trial"":192,""time"":1121669},{""event"":""fullscreenexit"",""trial"":193,""time"":1121675},{""event"":""focus"",""trial"":193,""time"":1121677}]",NA,NA,NA,NA,NA,2,#1CD855,#FA92F8,10,0,1,38,1,148.30000007152557,37,1,1408.1999999284744,10,1,experiment,NA,NA,1,0.7,0.3,2,3,272,7,NA
fcp-trial,322,1686113,0.0-283.0-0.0,voc_e2,11754,"[{""event"":""fullscreenenter"",""trial"":1,""time"":10376},{""event"":""blur"",""trial"":192,""time"":1121669},{""event"":""fullscreenexit"",""trial"":193,""time"":1121675},{""event"":""focus"",""trial"":193,""time"":1121677}]",NA,NA,NA,NA,NA,3,#741CD8,#D8271C,10,10,0,38,1,268,39,0,1046.8000000715256,10,1,experiment,NA,NA,2,0.5,0.5,5,4,273,7,NA
fcp-trial,323,1690851,0.0-284.0-0.0,voc_e2,11754,"[{""event"":""fullscreenenter"",""trial"":1,""time"":10376},{""event"":""blur"",""trial"":192,""time"":1121669},{""event"":""fullscreenexit"",""trial"":193,""time"":1121675},{""event"":""focus"",""trial"":193,""time"":1121677}]",NA,NA,NA,NA,NA,0,#FA92F8,#1CD855,10,10,0,40,0,604.2999999523163,39,0,2626.6999999284744,10,1,experiment,NA,NA,1,0.3,0.7,3,2,274,7,NA
fcp-trial,324,1695307,0.0-285.0-0.0,voc_e2,11754,"[{""event"":""fullscreenenter"",""trial"":1,""time"":10376},{""event"":""blur"",""trial"":192,""time"":1121669},{""event"":""fullscreenexit"",""trial"":193,""time"":1121675},{""event"":""focus"",""trial"":193,""time"":1121677}]",NA,NA,NA,NA,NA,4,#D8271C,#741CD8,0,0,1,38,1,1336.2000000476837,39,0,1612.6999999284744,0,0,experiment,NA,NA,2,0.5,0.5,4,5,275,7,NA
