trial_type,trial_index,time_elapsed,internal_node_id,task_version,subject_id,interactions,success,rt,stimulus,key_press,button_pressed,offer,arcade_color_L,arcade_color_R,arcade_outcome_L,arcade_outcome_R,correct,stage_1_key,stage_1_choice,stage_1_rt,stage_2_key,stage_2_choice,stage_2_rt,stage_3_outcome,accuracy,phase,responses,num_errors,context,reward_prob_L,reward_prob_R,arcade_id_L,arcade_id_R,trial,block,response
pavlovia,0,23,0.0-0.0,voc_e2,12281,[],NA,NA,NA,NA,NA,NA,NA,NA,NA,NA,NA,NA,NA,NA,NA,NA,NA,NA,NA,NA,NA,NA,NA,NA,NA,NA,NA,NA,NA,NA
fullscreen,1,2073,0.0-1.0,voc_e2,12281,"[{""event"":""fullscreenenter"",""trial"":1,""time"":1080}]",TRUE,NA,NA,NA,NA,NA,NA,NA,NA,NA,NA,NA,NA,NA,NA,NA,NA,NA,NA,NA,NA,NA,NA,NA,NA,NA,NA,NA,NA,NA
audio-keyboard-response,2,7602,0.0-2.0,voc_e2,12281,"[{""event"":""fullscreenenter"",""trial"":1,""time"":1080}]",NA,4795,static/audio/beep_loop.wav,32,NA,NA,NA,NA,NA,NA,NA,NA,NA,NA,NA,NA,NA,NA,NA,NA,NA,NA,NA,NA,NA,NA,NA,NA,NA,NA
audio-test,3,9775,0.0-3.0,voc_e2,12281,"[{""event"":""fullscreenenter"",""trial"":1,""time"":1080}]",NA,NA,static/audio/turtle.wav,NA,3,NA,NA,NA,NA,NA,NA,NA,NA,NA,NA,NA,NA,NA,NA,NA,NA,NA,NA,NA,NA,NA,NA,NA,NA,NA
audio-test,4,12566,0.0-4.0,voc_e2,12281,"[{""event"":""fullscreenenter"",""trial"":1,""time"":1080}]",NA,NA,static/audio/shark.wav,NA,2,NA,NA,NA,NA,NA,NA,NA,NA,NA,NA,NA,NA,NA,NA,NA,NA,NA,NA,NA,NA,NA,NA,NA,NA,NA
audio-instructions,5,19661,0.0-5.0-0.0,voc_e2,12281,"[{""event"":""fullscreenenter"",""trial"":1,""time"":1080}]",NA,1312.199999988079,static/audio/instructions1.wav,NA,0,NA,NA,NA,NA,NA,NA,NA,NA,NA,NA,NA,NA,NA,NA,NA,NA,NA,NA,NA,NA,NA,NA,NA,NA,NA
audio-instructions,6,42184,0.0-5.0-1.0,voc_e2,12281,"[{""event"":""fullscreenenter"",""trial"":1,""time"":1080}]",NA,15776.600000023842,static/audio/instructions2.wav,NA,0,NA,NA,NA,NA,NA,NA,NA,NA,NA,NA,NA,NA,NA,NA,NA,NA,NA,NA,NA,NA,NA,NA,NA,NA,NA
audio-instructions,7,49783,0.0-5.0-2.0,voc_e2,12281,"[{""event"":""fullscreenenter"",""trial"":1,""time"":1080}]",NA,1792.899999976158,static/audio/instructions3.wav,NA,0,NA,NA,NA,NA,NA,NA,NA,NA,NA,NA,NA,NA,NA,NA,NA,NA,NA,NA,NA,NA,NA,NA,NA,NA,NA
audio-instructions,8,63724,0.0-5.0-3.0,voc_e2,12281,"[{""event"":""fullscreenenter"",""trial"":1,""time"":1080}]",NA,710,static/audio/instructions4.wav,NA,0,NA,NA,NA,NA,NA,NA,NA,NA,NA,NA,NA,NA,NA,NA,NA,NA,NA,NA,NA,NA,NA,NA,NA,NA,NA
audio-instructions,9,73635,0.0-5.0-4.0,voc_e2,12281,"[{""event"":""fullscreenenter"",""trial"":1,""time"":1080}]",NA,526.1999999880791,static/audio/instructions5.wav,NA,0,NA,NA,NA,NA,NA,NA,NA,NA,NA,NA,NA,NA,NA,NA,NA,NA,NA,NA,NA,NA,NA,NA,NA,NA,NA
fcp-practice,10,78209,0.0-5.0-5.0-0.0,voc_e2,12281,"[{""event"":""fullscreenenter"",""trial"":1,""time"":1080}]",NA,NA,NA,NA,NA,NA,#EDC948,#46d3c8,10,0,1,null,null,null,37,1,3020.600000023842,10,1,practice,NA,NA,NA,NA,NA,NA,NA,NA,NA,NA
fcp-practice,11,80820,0.0-5.0-5.0-1.0,voc_e2,12281,"[{""event"":""fullscreenenter"",""trial"":1,""time"":1080}]",NA,NA,NA,NA,NA,NA,#EDC948,#46d3c8,10,0,1,null,null,null,37,1,1105.600000023842,10,1,practice,NA,NA,NA,NA,NA,NA,NA,NA,NA,NA
fcp-practice,12,82991,0.0-5.0-5.0-2.0,voc_e2,12281,"[{""event"":""fullscreenenter"",""trial"":1,""time"":1080}]",NA,NA,NA,NA,NA,NA,#EDC948,#46d3c8,0,10,1,null,null,null,37,1,664.8999999761581,0,1,practice,NA,NA,NA,NA,NA,NA,NA,NA,NA,NA
fcp-practice,13,85132,0.0-5.0-5.0-3.0,voc_e2,12281,"[{""event"":""fullscreenenter"",""trial"":1,""time"":1080}]",NA,NA,NA,NA,NA,NA,#EDC948,#46d3c8,10,0,1,null,null,null,37,1,636,10,1,practice,NA,NA,NA,NA,NA,NA,NA,NA,NA,NA
fcp-practice,14,87176,0.0-5.0-5.0-4.0,voc_e2,12281,"[{""event"":""fullscreenenter"",""trial"":1,""time"":1080}]",NA,NA,NA,NA,NA,NA,#EDC948,#46d3c8,10,0,1,null,null,null,37,1,539.4000000357628,10,1,practice,NA,NA,NA,NA,NA,NA,NA,NA,NA,NA
audio-instructions,15,107474,0.0-5.0-6.0,voc_e2,12281,"[{""event"":""fullscreenenter"",""trial"":1,""time"":1080}]",NA,2291.400000035763,static/audio/instructions6.wav,NA,0,NA,NA,NA,NA,NA,NA,NA,NA,NA,NA,NA,NA,NA,NA,NA,NA,NA,NA,NA,NA,NA,NA,NA,NA,NA
audio-instructions,16,127830,0.0-5.0-7.0,voc_e2,12281,"[{""event"":""fullscreenenter"",""trial"":1,""time"":1080}]",NA,1150.899999976158,static/audio/instructions7.wav,NA,0,NA,NA,NA,NA,NA,NA,NA,NA,NA,NA,NA,NA,NA,NA,NA,NA,NA,NA,NA,NA,NA,NA,NA,NA,NA
audio-instructions,17,137858,0.0-5.0-8.0,voc_e2,12281,"[{""event"":""fullscreenenter"",""trial"":1,""time"":1080}]",NA,555,static/audio/instructions8.wav,NA,0,NA,NA,NA,NA,NA,NA,NA,NA,NA,NA,NA,NA,NA,NA,NA,NA,NA,NA,NA,NA,NA,NA,NA,NA,NA
fcp-comprehension,18,146251,0.0-5.0-9.0,voc_e2,12281,"[{""event"":""fullscreenenter"",""trial"":1,""time"":1080}]",NA,8391.5,NA,NA,NA,NA,NA,NA,NA,NA,NA,NA,NA,NA,NA,NA,NA,NA,NA,NA,"true,true",0,NA,NA,NA,NA,NA,NA,NA,NA
audio-instructions,19,153593,0.0-6.0-0.0,voc_e2,12281,"[{""event"":""fullscreenenter"",""trial"":1,""time"":1080}]",NA,1771.899999976158,static/audio/instructions9.wav,NA,0,NA,NA,NA,NA,NA,NA,NA,NA,NA,NA,NA,NA,NA,NA,NA,NA,NA,NA,NA,NA,NA,NA,NA,NA,NA
audio-instructions,20,166408,0.0-6.0-1.0,voc_e2,12281,"[{""event"":""fullscreenenter"",""trial"":1,""time"":1080}]",NA,694.2000000476837,static/audio/instructions10.wav,NA,0,NA,NA,NA,NA,NA,NA,NA,NA,NA,NA,NA,NA,NA,NA,NA,NA,NA,NA,NA,NA,NA,NA,NA,NA,NA
fcp-trial,21,174138,0.0-6.0-2.0,voc_e2,12281,"[{""event"":""fullscreenenter"",""trial"":1,""time"":1080}]",NA,NA,NA,NA,NA,0,#EDC948,#46d3c8,10,10,1,38,1,3844.800000011921,37,1,2373.099999964237,10,1,practice,NA,NA,NA,NA,NA,NA,NA,NA,NA,NA
audio-instructions,22,185601,0.0-6.0-3.0,voc_e2,12281,"[{""event"":""fullscreenenter"",""trial"":1,""time"":1080}]",NA,452.199999988079,static/audio/instructions11.wav,NA,0,NA,NA,NA,NA,NA,NA,NA,NA,NA,NA,NA,NA,NA,NA,NA,NA,NA,NA,NA,NA,NA,NA,NA,NA,NA
fcp-trial,23,191365,0.0-6.0-4.0,voc_e2,12281,"[{""event"":""fullscreenenter"",""trial"":1,""time"":1080}]",NA,NA,NA,NA,NA,6,#EDC948,#46d3c8,10,10,1,40,0,3179.400000035763,39,0,1079.800000011921,10,0,practice,NA,NA,NA,NA,NA,NA,NA,NA,NA,NA
audio-instructions,24,210523,0.0-6.0-5.0,voc_e2,12281,"[{""event"":""fullscreenenter"",""trial"":1,""time"":1080}]",NA,464.7999999523163,static/audio/instructions12.wav,NA,0,NA,NA,NA,NA,NA,NA,NA,NA,NA,NA,NA,NA,NA,NA,NA,NA,NA,NA,NA,NA,NA,NA,NA,NA,NA
audio-instructions,25,218736,0.0-6.0-6.0,voc_e2,12281,"[{""event"":""fullscreenenter"",""trial"":1,""time"":1080}]",NA,614,static/audio/instructions13.wav,NA,0,NA,NA,NA,NA,NA,NA,NA,NA,NA,NA,NA,NA,NA,NA,NA,NA,NA,NA,NA,NA,NA,NA,NA,NA,NA
audio-instructions,26,227793,0.0-6.0-7.0,voc_e2,12281,"[{""event"":""fullscreenenter"",""trial"":1,""time"":1080}]",NA,603.6999999880791,static/audio/instructions14.wav,NA,0,NA,NA,NA,NA,NA,NA,NA,NA,NA,NA,NA,NA,NA,NA,NA,NA,NA,NA,NA,NA,NA,NA,NA,NA,NA
audio-instructions,27,235874,0.0-7.0-0.0,voc_e2,12281,"[{""event"":""fullscreenenter"",""trial"":1,""time"":1080}]",NA,1165.5,static/audio/instructions15.wav,NA,0,NA,NA,NA,NA,NA,NA,NA,NA,NA,NA,NA,NA,NA,NA,NA,NA,NA,NA,NA,NA,NA,NA,NA,NA,NA
audio-instructions,28,243111,0.0-7.0-1.0,voc_e2,12281,"[{""event"":""fullscreenenter"",""trial"":1,""time"":1080}]",NA,409.60000002384186,static/audio/instructions16.wav,NA,0,NA,NA,NA,NA,NA,NA,NA,NA,NA,NA,NA,NA,NA,NA,NA,NA,NA,NA,NA,NA,NA,NA,NA,NA,NA
audio-instructions,29,251436,0.0-7.0-2.0,voc_e2,12281,"[{""event"":""fullscreenenter"",""trial"":1,""time"":1080}]",NA,648.6999999880791,static/audio/instructions17.wav,NA,0,NA,NA,NA,NA,NA,NA,NA,NA,NA,NA,NA,NA,NA,NA,NA,NA,NA,NA,NA,NA,NA,NA,NA,NA,NA
audio-instructions,30,259630,0.0-7.0-3.0,voc_e2,12281,"[{""event"":""fullscreenenter"",""trial"":1,""time"":1080}]",NA,424.9000000357628,static/audio/instructions18.wav,NA,0,NA,NA,NA,NA,NA,NA,NA,NA,NA,NA,NA,NA,NA,NA,NA,NA,NA,NA,NA,NA,NA,NA,NA,NA,NA
audio-instructions,31,266837,0.0-7.0-4.0,voc_e2,12281,"[{""event"":""fullscreenenter"",""trial"":1,""time"":1080}]",NA,462.5999999642372,static/audio/instructions19.wav,NA,0,NA,NA,NA,NA,NA,NA,NA,NA,NA,NA,NA,NA,NA,NA,NA,NA,NA,NA,NA,NA,NA,NA,NA,NA,NA
fcp-comprehension,32,283006,0.0-7.0-5.0,voc_e2,12281,"[{""event"":""fullscreenenter"",""trial"":1,""time"":1080}]",NA,16167.5,NA,NA,NA,NA,NA,NA,NA,NA,NA,NA,NA,NA,NA,NA,NA,NA,NA,NA,"false,false,false,true",0,NA,NA,NA,NA,NA,NA,NA,NA
audio-instructions,33,294971,0.0-8.0,voc_e2,12281,"[{""event"":""fullscreenenter"",""trial"":1,""time"":1080}]",NA,2680.399999976158,static/audio/ready.wav,NA,0,NA,NA,NA,NA,NA,NA,NA,NA,NA,NA,NA,NA,NA,NA,NA,NA,NA,NA,NA,NA,NA,NA,NA,NA,NA
fcp-trial,34,299793,0.0-9.0-0.0,voc_e2,12281,"[{""event"":""fullscreenenter"",""trial"":1,""time"":1080}]",NA,NA,NA,NA,NA,4,#D89F1C,#3386FF,0,0,0,38,1,2248.400000035763,37,1,1067.899999976158,0,0,experiment,NA,NA,1,0.3,0.7,3,2,1,1,NA
fcp-trial,35,305002,0.0-10.0-0.0,voc_e2,12281,"[{""event"":""fullscreenenter"",""trial"":1,""time"":1080}]",NA,NA,NA,NA,NA,2,#D89F1C,#3386FF,0,10,0,40,0,2501.100000023842,37,1,1202.5999999642372,0,0,experiment,NA,NA,1,0.3,0.7,3,2,2,1,NA
fcp-trial,36,310170,0.0-11.0-0.0,voc_e2,12281,"[{""event"":""fullscreenenter"",""trial"":1,""time"":1080}]",NA,NA,NA,NA,NA,0,#1CD855,#FA92F8,10,10,1,38,1,2480.100000023842,39,0,1182.9000000357628,10,0,experiment,NA,NA,0,0.9,0.1,0,1,3,1,NA
fcp-trial,37,315062,0.0-12.0-0.0,voc_e2,12281,"[{""event"":""fullscreenenter"",""trial"":1,""time"":1080}]",NA,NA,NA,NA,NA,6,#D8271C,#741CD8,0,0,1,40,0,2656.100000023842,39,0,729.5999999642372,0,0,experiment,NA,NA,2,0.5,0.5,4,5,4,1,NA
fcp-trial,38,319157,0.0-13.0-0.0,voc_e2,12281,"[{""event"":""fullscreenenter"",""trial"":1,""time"":1080}]",NA,NA,NA,NA,NA,2,#1CD855,#FA92F8,10,0,1,40,0,1837,39,0,754,0,0,experiment,NA,NA,0,0.9,0.1,0,1,5,1,NA
fcp-trial,39,323131,0.0-14.0-0.0,voc_e2,12281,"[{""event"":""fullscreenenter"",""trial"":1,""time"":1080}]",NA,NA,NA,NA,NA,1,#3386FF,#D89F1C,10,10,1,40,0,1847.1000000238419,37,1,618.0999999642372,10,1,experiment,NA,NA,1,0.7,0.3,2,3,6,1,NA
fcp-trial,40,326729,0.0-15.0-0.0,voc_e2,12281,"[{""event"":""fullscreenenter"",""trial"":1,""time"":1080}]",NA,NA,NA,NA,NA,6,#1CD855,#FA92F8,10,0,1,40,0,1276.800000011921,37,1,815.1000000238419,10,1,experiment,NA,NA,0,0.9,0.1,0,1,7,1,NA
fcp-trial,41,330938,0.0-16.0-0.0,voc_e2,12281,"[{""event"":""fullscreenenter"",""trial"":1,""time"":1080}]",NA,NA,NA,NA,NA,5,#741CD8,#D8271C,10,10,0,40,0,1904.5,37,1,796.8999999761581,10,0,experiment,NA,NA,2,0.5,0.5,5,4,8,1,NA
fcp-trial,42,334302,0.0-17.0-0.0,voc_e2,12281,"[{""event"":""fullscreenenter"",""trial"":1,""time"":1080}]",NA,NA,NA,NA,NA,5,#1CD855,#FA92F8,0,0,1,40,0,1238,37,1,617.6000000238419,0,1,experiment,NA,NA,0,0.9,0.1,0,1,9,1,NA
fcp-trial,43,338230,0.0-18.0-0.0,voc_e2,12281,"[{""event"":""fullscreenenter"",""trial"":1,""time"":1080}]",NA,NA,NA,NA,NA,3,#3386FF,#D89F1C,0,0,1,40,0,1601.5,37,1,821.1999999880791,0,1,experiment,NA,NA,1,0.7,0.3,2,3,10,1,NA
fcp-trial,44,341199,0.0-19.0-0.0,voc_e2,12281,"[{""event"":""fullscreenenter"",""trial"":1,""time"":1080}]",NA,NA,NA,NA,NA,1,#741CD8,#D8271C,10,0,0,40,0,821.1000000238419,37,1,641.5,10,0,experiment,NA,NA,2,0.5,0.5,5,4,11,1,NA
fcp-trial,45,345464,0.0-20.0-0.0,voc_e2,12281,"[{""event"":""fullscreenenter"",""trial"":1,""time"":1080}]",NA,NA,NA,NA,NA,0,#741CD8,#D8271C,0,0,0,38,1,1272.699999988079,37,1,1484.300000011921,0,0,experiment,NA,NA,2,0.5,0.5,5,4,12,1,NA
fcp-trial,46,348748,0.0-21.0-0.0,voc_e2,12281,"[{""event"":""fullscreenenter"",""trial"":1,""time"":1080}]",NA,NA,NA,NA,NA,0,#D89F1C,#3386FF,0,0,0,38,1,1116.5,39,0,662,0,1,experiment,NA,NA,1,0.3,0.7,3,2,13,1,NA
fcp-trial,47,352149,0.0-22.0-0.0,voc_e2,12281,"[{""event"":""fullscreenenter"",""trial"":1,""time"":1080}]",NA,NA,NA,NA,NA,3,#1CD855,#FA92F8,10,0,1,40,0,1286.7000000476837,39,0,609.3000000119209,0,0,experiment,NA,NA,0,0.9,0.1,0,1,14,1,NA
fcp-trial,48,355534,0.0-23.0-0.0,voc_e2,12281,"[{""event"":""fullscreenenter"",""trial"":1,""time"":1080}]",NA,NA,NA,NA,NA,2,#741CD8,#D8271C,10,10,0,40,0,1082.3999999761581,37,1,796.1000000238419,10,0,experiment,NA,NA,2,0.5,0.5,5,4,15,1,NA
fcp-trial,49,360237,0.0-24.0-0.0,voc_e2,12281,"[{""event"":""fullscreenenter"",""trial"":1,""time"":1080}]",NA,NA,NA,NA,NA,6,#D89F1C,#3386FF,10,10,0,40,0,2409.300000011921,39,0,785.3000000119209,10,1,experiment,NA,NA,1,0.3,0.7,3,2,16,1,NA
fcp-trial,50,363454,0.0-25.0-0.0,voc_e2,12281,"[{""event"":""fullscreenenter"",""trial"":1,""time"":1080}]",NA,NA,NA,NA,NA,5,#3386FF,#D89F1C,0,0,1,40,0,1091.8999999761581,37,1,617,0,1,experiment,NA,NA,1,0.7,0.3,2,3,17,1,NA
fcp-trial,51,366350,0.0-26.0-0.0,voc_e2,12281,"[{""event"":""fullscreenenter"",""trial"":1,""time"":1080}]",NA,NA,NA,NA,NA,1,#FA92F8,#1CD855,0,0,0,40,0,844.1999999880791,39,0,542.6999999880791,0,1,experiment,NA,NA,0,0.1,0.9,1,0,18,1,NA
fcp-trial,52,369642,0.0-27.0-0.0,voc_e2,12281,"[{""event"":""fullscreenenter"",""trial"":1,""time"":1080}]",NA,NA,NA,NA,NA,4,#741CD8,#D8271C,10,0,0,40,0,1090.4000000357628,37,1,694.6999999880791,10,0,experiment,NA,NA,2,0.5,0.5,5,4,19,1,NA
fcp-trial,53,372815,0.0-28.0-0.0,voc_e2,12281,"[{""event"":""fullscreenenter"",""trial"":1,""time"":1080}]",NA,NA,NA,NA,NA,4,#1CD855,#FA92F8,10,0,1,40,0,915.1000000238419,39,0,753.5999999642372,0,0,experiment,NA,NA,0,0.9,0.1,0,1,20,1,NA
fcp-trial,54,375776,0.0-29.0-0.0,voc_e2,12281,"[{""event"":""fullscreenenter"",""trial"":1,""time"":1080}]",NA,NA,NA,NA,NA,3,#741CD8,#D8271C,10,0,0,40,0,847.7000000476837,39,0,608.3999999761581,0,1,experiment,NA,NA,2,0.5,0.5,5,4,21,1,NA
fcp-trial,55,378654,0.0-30.0-0.0,voc_e2,12281,"[{""event"":""fullscreenenter"",""trial"":1,""time"":1080}]",NA,NA,NA,NA,NA,1,#741CD8,#D8271C,10,0,0,40,0,789.1999999880791,39,0,584.3999999761581,0,1,experiment,NA,NA,2,0.5,0.5,5,4,22,1,NA
fcp-trial,56,381501,0.0-31.0-0.0,voc_e2,12281,"[{""event"":""fullscreenenter"",""trial"":1,""time"":1080}]",NA,NA,NA,NA,NA,5,#D8271C,#741CD8,0,10,1,40,0,789.5,39,0,549.9000000357628,10,0,experiment,NA,NA,2,0.5,0.5,4,5,23,1,NA
fcp-trial,57,384348,0.0-32.0-0.0,voc_e2,12281,"[{""event"":""fullscreenenter"",""trial"":1,""time"":1080}]",NA,NA,NA,NA,NA,4,#FA92F8,#1CD855,0,10,0,40,0,791.8999999761581,39,0,550.1999999880791,10,1,experiment,NA,NA,0,0.1,0.9,1,0,24,1,NA
fcp-trial,58,386980,0.0-33.0-0.0,voc_e2,12281,"[{""event"":""fullscreenenter"",""trial"":1,""time"":1080}]",NA,NA,NA,NA,NA,4,#D89F1C,#3386FF,0,10,0,40,0,632.8999999761581,39,0,490.2999999523163,10,1,experiment,NA,NA,1,0.3,0.7,3,2,25,1,NA
fcp-trial,59,390198,0.0-34.0-0.0,voc_e2,12281,"[{""event"":""fullscreenenter"",""trial"":1,""time"":1080}]",NA,NA,NA,NA,NA,4,#741CD8,#D8271C,0,0,0,40,0,991.2000000476837,37,1,719.1999999880791,0,0,experiment,NA,NA,2,0.5,0.5,5,4,26,1,NA
fcp-trial,60,393160,0.0-35.0-0.0,voc_e2,12281,"[{""event"":""fullscreenenter"",""trial"":1,""time"":1080}]",NA,NA,NA,NA,NA,1,#D89F1C,#3386FF,0,10,0,40,0,847.3999999761581,39,0,610,10,1,experiment,NA,NA,1,0.3,0.7,3,2,27,1,NA
fcp-trial,61,396038,0.0-36.0-0.0,voc_e2,12281,"[{""event"":""fullscreenenter"",""trial"":1,""time"":1080}]",NA,NA,NA,NA,NA,2,#1CD855,#FA92F8,10,0,1,40,0,733.5,39,0,637.6999999880791,0,0,experiment,NA,NA,0,0.9,0.1,0,1,28,1,NA
fcp-trial,62,398863,0.0-37.0-0.0,voc_e2,12281,"[{""event"":""fullscreenenter"",""trial"":1,""time"":1080}]",NA,NA,NA,NA,NA,3,#D8271C,#741CD8,10,10,1,40,0,725.6000000238419,37,1,593.3000000119209,10,1,experiment,NA,NA,2,0.5,0.5,4,5,29,1,NA
fcp-trial,63,401765,0.0-38.0-0.0,voc_e2,12281,"[{""event"":""fullscreenenter"",""trial"":1,""time"":1080}]",NA,NA,NA,NA,NA,3,#D89F1C,#3386FF,0,10,0,40,0,607,37,1,786.8000000119209,0,0,experiment,NA,NA,1,0.3,0.7,3,2,30,1,NA
fcp-trial,64,404457,0.0-39.0-0.0,voc_e2,12281,"[{""event"":""fullscreenenter"",""trial"":1,""time"":1080}]",NA,NA,NA,NA,NA,1,#FA92F8,#1CD855,0,0,0,40,0,688.3999999761581,39,0,495.4000000357628,0,1,experiment,NA,NA,0,0.1,0.9,1,0,31,1,NA
fcp-trial,65,407348,0.0-40.0-0.0,voc_e2,12281,"[{""event"":""fullscreenenter"",""trial"":1,""time"":1080}]",NA,NA,NA,NA,NA,5,#3386FF,#D89F1C,10,0,1,40,0,821.0999999642372,37,1,563.1000000238419,10,1,experiment,NA,NA,1,0.7,0.3,2,3,32,1,NA
fcp-trial,66,411160,0.0-41.0-0.0,voc_e2,12281,"[{""event"":""fullscreenenter"",""trial"":1,""time"":1080}]",NA,NA,NA,NA,NA,0,#D8271C,#741CD8,0,10,1,38,1,1014.7999999523163,37,1,1291.2999999523165,0,1,experiment,NA,NA,2,0.5,0.5,4,5,33,1,NA
fcp-trial,67,414097,0.0-42.0-0.0,voc_e2,12281,"[{""event"":""fullscreenenter"",""trial"":1,""time"":1080}]",NA,NA,NA,NA,NA,6,#3386FF,#D89F1C,0,0,1,40,0,767.7999999523163,37,1,659.8000000119209,0,1,experiment,NA,NA,1,0.7,0.3,2,3,34,1,NA
fcp-trial,68,417246,0.0-43.0-0.0,voc_e2,12281,"[{""event"":""fullscreenenter"",""trial"":1,""time"":1080}]",NA,NA,NA,NA,NA,3,#FA92F8,#1CD855,10,10,0,40,0,811.1000000238419,37,1,830.1000000238419,10,0,experiment,NA,NA,0,0.1,0.9,1,0,35,1,NA
fcp-trial,69,419980,0.0-44.0-0.0,voc_e2,12281,"[{""event"":""fullscreenenter"",""trial"":1,""time"":1080}]",NA,NA,NA,NA,NA,5,#1CD855,#FA92F8,10,0,1,40,0,678.3000000119209,37,1,549.3000000119209,10,1,experiment,NA,NA,0,0.9,0.1,0,1,36,1,NA
fcp-trial,70,422737,0.0-45.0-0.0,voc_e2,12281,"[{""event"":""fullscreenenter"",""trial"":1,""time"":1080}]",NA,NA,NA,NA,NA,2,#3386FF,#D89F1C,10,0,1,40,0,735.3000000119209,39,0,516.6000000238419,0,0,experiment,NA,NA,1,0.7,0.3,2,3,37,1,NA
fcp-trial,71,426068,0.0-46.0-0.0,voc_e2,12281,"[{""event"":""fullscreenenter"",""trial"":1,""time"":1080}]",NA,NA,NA,NA,NA,6,#741CD8,#D8271C,10,0,0,40,0,945.8000000119209,37,1,876.5999999642372,10,0,experiment,NA,NA,2,0.5,0.5,5,4,38,1,NA
fcp-trial,72,429872,0.0-47.0-0.0,voc_e2,12281,"[{""event"":""fullscreenenter"",""trial"":1,""time"":1080}]",NA,NA,NA,NA,NA,0,#FA92F8,#1CD855,0,10,0,38,1,1050,37,1,1249.800000011921,0,0,experiment,NA,NA,0,0.1,0.9,1,0,39,1,NA
fcp-trial,73,433561,0.0-48.0-0.0,voc_e2,12281,"[{""event"":""fullscreenenter"",""trial"":1,""time"":1080}]",NA,NA,NA,NA,NA,0,#3386FF,#D89F1C,0,10,1,38,1,1071.5999999642372,37,1,1111.5,0,1,experiment,NA,NA,1,0.7,0.3,2,3,40,1,NA
fcp-trial,74,436498,0.0-49.0-0.0,voc_e2,12281,"[{""event"":""fullscreenenter"",""trial"":1,""time"":1080}]",NA,NA,NA,NA,NA,6,#FA92F8,#1CD855,0,10,0,40,0,835.6999999880791,39,0,595.3999999761581,10,1,experiment,NA,NA,0,0.1,0.9,1,0,41,1,NA
fcp-trial,75,439422,0.0-50.0-0.0,voc_e2,12281,"[{""event"":""fullscreenenter"",""trial"":1,""time"":1080}]",NA,NA,NA,NA,NA,2,#741CD8,#D8271C,0,0,0,40,0,861.4000000357628,39,0,558.3000000119209,0,1,experiment,NA,NA,2,0.5,0.5,5,4,42,1,NA
fcp-trial,76,442353,0.0-51.0-0.0,voc_e2,12281,"[{""event"":""fullscreenenter"",""trial"":1,""time"":1080}]",NA,NA,NA,NA,NA,6,#741CD8,#D8271C,10,0,0,40,0,881.8000000119209,37,1,542.5,10,0,experiment,NA,NA,2,0.5,0.5,5,4,43,1,NA
fcp-trial,77,445645,0.0-52.0-0.0,voc_e2,12281,"[{""event"":""fullscreenenter"",""trial"":1,""time"":1080}]",NA,NA,NA,NA,NA,2,#D89F1C,#3386FF,0,10,0,40,0,932.8000000119209,37,1,853.6000000238419,0,0,experiment,NA,NA,1,0.3,0.7,3,2,44,1,NA
fcp-trial,78,448537,0.0-53.0-0.0,voc_e2,12281,"[{""event"":""fullscreenenter"",""trial"":1,""time"":1080}]",NA,NA,NA,NA,NA,3,#741CD8,#D8271C,0,10,0,40,0,667.1999999880791,39,0,718.9000000357628,10,1,experiment,NA,NA,2,0.5,0.5,5,4,45,1,NA
fcp-trial,79,451416,0.0-54.0-0.0,voc_e2,12281,"[{""event"":""fullscreenenter"",""trial"":1,""time"":1080}]",NA,NA,NA,NA,NA,6,#FA92F8,#1CD855,0,10,0,40,0,822.5,39,0,549.6999999880791,10,1,experiment,NA,NA,0,0.1,0.9,1,0,46,2,NA
fcp-trial,80,454097,0.0-55.0-0.0,voc_e2,12281,"[{""event"":""fullscreenenter"",""trial"":1,""time"":1080}]",NA,NA,NA,NA,NA,1,#1CD855,#FA92F8,10,0,1,40,0,645.1999999880791,39,0,532.0999999642372,0,0,experiment,NA,NA,0,0.9,0.1,0,1,47,2,NA
fcp-trial,81,456919,0.0-56.0-0.0,voc_e2,12281,"[{""event"":""fullscreenenter"",""trial"":1,""time"":1080}]",NA,NA,NA,NA,NA,6,#3386FF,#D89F1C,0,0,1,40,0,711.9000000357628,37,1,603.6999999880791,0,1,experiment,NA,NA,1,0.7,0.3,2,3,48,2,NA
fcp-trial,82,459676,0.0-57.0-0.0,voc_e2,12281,"[{""event"":""fullscreenenter"",""trial"":1,""time"":1080}]",NA,NA,NA,NA,NA,5,#741CD8,#D8271C,10,0,0,40,0,657,39,0,594.8000000119209,0,1,experiment,NA,NA,2,0.5,0.5,5,4,49,2,NA
fcp-trial,83,463277,0.0-58.0-0.0,voc_e2,12281,"[{""event"":""fullscreenenter"",""trial"":1,""time"":1080}]",NA,NA,NA,NA,NA,3,#1CD855,#FA92F8,10,0,1,40,0,1343.1000000238419,39,0,752.1999999880791,0,0,experiment,NA,NA,0,0.9,0.1,0,1,50,2,NA
fcp-trial,84,465886,0.0-59.0-0.0,voc_e2,12281,"[{""event"":""fullscreenenter"",""trial"":1,""time"":1080}]",NA,NA,NA,NA,NA,4,#1CD855,#FA92F8,10,0,1,40,0,646,39,0,459,0,0,experiment,NA,NA,0,0.9,0.1,0,1,51,2,NA
fcp-trial,85,469544,0.0-60.0-0.0,voc_e2,12281,"[{""event"":""fullscreenenter"",""trial"":1,""time"":1080}]",NA,NA,NA,NA,NA,0,#741CD8,#D8271C,10,0,0,38,1,970.6999999880791,37,1,1179.699999988079,10,0,experiment,NA,NA,2,0.5,0.5,5,4,52,2,NA
fcp-trial,86,472639,0.0-61.0-0.0,voc_e2,12281,"[{""event"":""fullscreenenter"",""trial"":1,""time"":1080}]",NA,NA,NA,NA,NA,3,#D89F1C,#3386FF,0,10,0,40,0,888.5,39,0,698.3000000119209,10,1,experiment,NA,NA,1,0.3,0.7,3,2,53,2,NA
fcp-trial,87,475495,0.0-62.0-0.0,voc_e2,12281,"[{""event"":""fullscreenenter"",""trial"":1,""time"":1080}]",NA,NA,NA,NA,NA,1,#3386FF,#D89F1C,0,0,1,40,0,767.3000000119209,39,0,582.6999999880791,0,0,experiment,NA,NA,1,0.7,0.3,2,3,54,2,NA
fcp-trial,88,478286,0.0-63.0-0.0,voc_e2,12281,"[{""event"":""fullscreenenter"",""trial"":1,""time"":1080}]",NA,NA,NA,NA,NA,1,#D8271C,#741CD8,10,0,1,40,0,768.8000000119209,39,0,517.1999999880791,0,0,experiment,NA,NA,2,0.5,0.5,4,5,55,2,NA
fcp-trial,89,481946,0.0-64.0-0.0,voc_e2,12281,"[{""event"":""fullscreenenter"",""trial"":1,""time"":1080}]",NA,NA,NA,NA,NA,0,#FA92F8,#1CD855,0,10,0,38,1,938.0999999642372,37,1,1213.899999976158,0,0,experiment,NA,NA,0,0.1,0.9,1,0,56,2,NA
fcp-trial,90,484936,0.0-65.0-0.0,voc_e2,12281,"[{""event"":""fullscreenenter"",""trial"":1,""time"":1080}]",NA,NA,NA,NA,NA,2,#D8271C,#741CD8,10,10,1,40,0,766.3999999761581,37,1,719,10,1,experiment,NA,NA,2,0.5,0.5,4,5,57,2,NA
fcp-trial,91,487759,0.0-66.0-0.0,voc_e2,12281,"[{""event"":""fullscreenenter"",""trial"":1,""time"":1080}]",NA,NA,NA,NA,NA,2,#1CD855,#FA92F8,10,0,1,40,0,713,39,0,604.8000000119209,0,0,experiment,NA,NA,0,0.9,0.1,0,1,58,2,NA
fcp-trial,92,490821,0.0-67.0-0.0,voc_e2,12281,"[{""event"":""fullscreenenter"",""trial"":1,""time"":1080}]",NA,NA,NA,NA,NA,5,#D89F1C,#3386FF,10,0,0,40,0,837,39,0,720.5999999642372,0,1,experiment,NA,NA,1,0.3,0.7,3,2,59,2,NA
fcp-trial,93,494061,0.0-68.0-0.0,voc_e2,12281,"[{""event"":""fullscreenenter"",""trial"":1,""time"":1080}]",NA,NA,NA,NA,NA,5,#1CD855,#FA92F8,10,0,1,40,0,890.6999999880791,37,1,843,10,1,experiment,NA,NA,0,0.9,0.1,0,1,60,2,NA
fcp-trial,94,497032,0.0-69.0-0.0,voc_e2,12281,"[{""event"":""fullscreenenter"",""trial"":1,""time"":1080}]",NA,NA,NA,NA,NA,4,#D89F1C,#3386FF,0,10,0,40,0,767.3000000119209,37,1,699.3000000119209,0,0,experiment,NA,NA,1,0.3,0.7,3,2,61,2,NA
fcp-trial,95,499686,0.0-70.0-0.0,voc_e2,12281,"[{""event"":""fullscreenenter"",""trial"":1,""time"":1080}]",NA,NA,NA,NA,NA,4,#D8271C,#741CD8,10,10,1,40,0,598.4000000357628,39,0,550.9000000357628,10,0,experiment,NA,NA,2,0.5,0.5,4,5,62,2,NA
fcp-trial,96,502543,0.0-71.0-0.0,voc_e2,12281,"[{""event"":""fullscreenenter"",""trial"":1,""time"":1080}]",NA,NA,NA,NA,NA,0,#3386FF,#D89F1C,0,0,1,40,0,397,39,0,953.8000000119208,0,0,experiment,NA,NA,1,0.7,0.3,2,3,63,2,NA
fcp-trial,97,505976,0.0-72.0-0.0,voc_e2,12281,"[{""event"":""fullscreenenter"",""trial"":1,""time"":1080}]",NA,NA,NA,NA,NA,5,#741CD8,#D8271C,10,10,0,40,0,1276.5999999642372,39,0,650.3999999761581,10,1,experiment,NA,NA,2,0.5,0.5,5,4,64,2,NA
fcp-trial,98,509487,0.0-73.0-0.0,voc_e2,12281,"[{""event"":""fullscreenenter"",""trial"":1,""time"":1080}]",NA,NA,NA,NA,NA,0,#741CD8,#D8271C,0,0,0,38,1,1331.0999999642372,37,1,672.5,0,0,experiment,NA,NA,2,0.5,0.5,5,4,65,2,NA
fcp-trial,99,512557,0.0-74.0-0.0,voc_e2,12281,"[{""event"":""fullscreenenter"",""trial"":1,""time"":1080}]",NA,NA,NA,NA,NA,4,#FA92F8,#1CD855,0,10,0,40,0,910.5999999642372,37,1,650.4000000357628,0,0,experiment,NA,NA,0,0.1,0.9,1,0,66,2,NA
fcp-trial,100,515774,0.0-75.0-0.0,voc_e2,12281,"[{""event"":""fullscreenenter"",""trial"":1,""time"":1080}]",NA,NA,NA,NA,NA,2,#1CD855,#FA92F8,10,0,1,40,0,1093.699999988079,37,1,616.8000000119209,10,1,experiment,NA,NA,0,0.9,0.1,0,1,67,2,NA
fcp-trial,101,518805,0.0-76.0-0.0,voc_e2,12281,"[{""event"":""fullscreenenter"",""trial"":1,""time"":1080}]",NA,NA,NA,NA,NA,6,#3386FF,#D89F1C,10,10,1,40,0,770.8000000119209,37,1,754.3000000119209,10,1,experiment,NA,NA,1,0.7,0.3,2,3,68,2,NA
fcp-trial,102,521910,0.0-77.0-0.0,voc_e2,12281,"[{""event"":""fullscreenenter"",""trial"":1,""time"":1080}]",NA,NA,NA,NA,NA,0,#D89F1C,#3386FF,0,10,0,38,1,1024.199999988079,39,0,574.8000000119209,10,1,experiment,NA,NA,1,0.3,0.7,3,2,69,2,NA
fcp-trial,103,525552,0.0-78.0-0.0,voc_e2,12281,"[{""event"":""fullscreenenter"",""trial"":1,""time"":1080}]",NA,NA,NA,NA,NA,6,#741CD8,#D8271C,10,10,0,40,0,947.3000000119209,39,0,1188.300000011921,10,1,experiment,NA,NA,2,0.5,0.5,5,4,70,2,NA
fcp-trial,104,528602,0.0-79.0-0.0,voc_e2,12281,"[{""event"":""fullscreenenter"",""trial"":1,""time"":1080}]",NA,NA,NA,NA,NA,5,#1CD855,#FA92F8,10,0,1,40,0,980.7000000476837,37,1,561.3999999761581,10,1,experiment,NA,NA,0,0.9,0.1,0,1,71,2,NA
fcp-trial,105,531606,0.0-80.0-0.0,voc_e2,12281,"[{""event"":""fullscreenenter"",""trial"":1,""time"":1080}]",NA,NA,NA,NA,NA,1,#D8271C,#741CD8,10,0,1,40,0,881.3999999761581,37,1,617.3000000119209,10,1,experiment,NA,NA,2,0.5,0.5,4,5,72,2,NA
fcp-trial,106,534318,0.0-81.0-0.0,voc_e2,12281,"[{""event"":""fullscreenenter"",""trial"":1,""time"":1080}]",NA,NA,NA,NA,NA,6,#FA92F8,#1CD855,0,10,0,40,0,623.4000000357628,39,0,583.9000000357628,10,1,experiment,NA,NA,0,0.1,0.9,1,0,73,2,NA
fcp-trial,107,537291,0.0-82.0-0.0,voc_e2,12281,"[{""event"":""fullscreenenter"",""trial"":1,""time"":1080}]",NA,NA,NA,NA,NA,5,#D89F1C,#3386FF,0,10,0,40,0,890.1000000238419,39,0,574.8000000119209,10,1,experiment,NA,NA,1,0.3,0.7,3,2,74,2,NA
fcp-trial,108,540134,0.0-83.0-0.0,voc_e2,12281,"[{""event"":""fullscreenenter"",""trial"":1,""time"":1080}]",NA,NA,NA,NA,NA,2,#D89F1C,#3386FF,0,10,0,40,0,834.6999999880791,37,1,503.2999999523163,0,0,experiment,NA,NA,1,0.3,0.7,3,2,75,2,NA
fcp-trial,109,543083,0.0-84.0-0.0,voc_e2,12281,"[{""event"":""fullscreenenter"",""trial"":1,""time"":1080}]",NA,NA,NA,NA,NA,2,#D8271C,#741CD8,0,0,1,40,0,735.6000000238419,37,1,707.0999999642372,0,1,experiment,NA,NA,2,0.5,0.5,4,5,76,2,NA
fcp-trial,110,545997,0.0-85.0-0.0,voc_e2,12281,"[{""event"":""fullscreenenter"",""trial"":1,""time"":1080}]",NA,NA,NA,NA,NA,3,#D89F1C,#3386FF,0,10,0,40,0,767.9000000357628,39,0,640.6999999880791,10,1,experiment,NA,NA,1,0.3,0.7,3,2,77,2,NA
fcp-trial,111,548923,0.0-86.0-0.0,voc_e2,12281,"[{""event"":""fullscreenenter"",""trial"":1,""time"":1080}]",NA,NA,NA,NA,NA,0,#FA92F8,#1CD855,0,10,0,40,0,484.89999997615814,39,0,932.2999999523164,10,1,experiment,NA,NA,0,0.1,0.9,1,0,78,2,NA
fcp-trial,112,552028,0.0-87.0-0.0,voc_e2,12281,"[{""event"":""fullscreenenter"",""trial"":1,""time"":1080}]",NA,NA,NA,NA,NA,4,#D8271C,#741CD8,10,10,1,40,0,936,37,1,663,10,1,experiment,NA,NA,2,0.5,0.5,4,5,79,2,NA
fcp-trial,113,554830,0.0-88.0-0.0,voc_e2,12281,"[{""event"":""fullscreenenter"",""trial"":1,""time"":1080}]",NA,NA,NA,NA,NA,4,#D89F1C,#3386FF,0,0,0,40,0,599,37,1,698.0999999642372,0,0,experiment,NA,NA,1,0.3,0.7,3,2,80,2,NA
fcp-trial,114,557934,0.0-89.0-0.0,voc_e2,12281,"[{""event"":""fullscreenenter"",""trial"":1,""time"":1080}]",NA,NA,NA,NA,NA,3,#741CD8,#D8271C,10,0,0,40,0,1003.4000000357628,39,0,594.6000000238419,0,1,experiment,NA,NA,2,0.5,0.5,5,4,81,2,NA
fcp-trial,115,560939,0.0-90.0-0.0,voc_e2,12281,"[{""event"":""fullscreenenter"",""trial"":1,""time"":1080}]",NA,NA,NA,NA,NA,1,#1CD855,#FA92F8,10,0,1,40,0,826.1000000238419,37,1,672.8000000119209,10,1,experiment,NA,NA,0,0.9,0.1,0,1,82,2,NA
fcp-trial,116,564246,0.0-91.0-0.0,voc_e2,12281,"[{""event"":""fullscreenenter"",""trial"":1,""time"":1080}]",NA,NA,NA,NA,NA,1,#D89F1C,#3386FF,0,0,0,40,0,1029.0999999642372,37,1,772.5,0,0,experiment,NA,NA,1,0.3,0.7,3,2,83,2,NA
fcp-trial,117,566827,0.0-92.0-0.0,voc_e2,12281,"[{""event"":""fullscreenenter"",""trial"":1,""time"":1080}]",NA,NA,NA,NA,NA,3,#FA92F8,#1CD855,0,10,0,40,0,601.1999999880791,39,0,474.60000002384186,10,1,experiment,NA,NA,0,0.1,0.9,1,0,84,2,NA
fcp-trial,118,570415,0.0-93.0-0.0,voc_e2,12281,"[{""event"":""fullscreenenter"",""trial"":1,""time"":1080}]",NA,NA,NA,NA,NA,3,#1CD855,#FA92F8,10,0,1,40,0,1169.4000000357628,39,0,913,0,0,experiment,NA,NA,0,0.9,0.1,0,1,85,2,NA
fcp-trial,119,574049,0.0-94.0-0.0,voc_e2,12281,"[{""event"":""fullscreenenter"",""trial"":1,""time"":1080}]",NA,NA,NA,NA,NA,0,#D89F1C,#3386FF,0,10,0,38,1,1283.3999999761581,37,1,845.5999999642372,0,0,experiment,NA,NA,1,0.3,0.7,3,2,86,2,NA
fcp-trial,120,577491,0.0-95.0-0.0,voc_e2,12281,"[{""event"":""fullscreenenter"",""trial"":1,""time"":1080}]",NA,NA,NA,NA,NA,0,#741CD8,#D8271C,10,0,0,38,1,1218.300000011921,39,0,717.8000000119209,0,1,experiment,NA,NA,2,0.5,0.5,5,4,87,2,NA
fcp-trial,121,580527,0.0-96.0-0.0,voc_e2,12281,"[{""event"":""fullscreenenter"",""trial"":1,""time"":1080}]",NA,NA,NA,NA,NA,5,#741CD8,#D8271C,0,0,0,40,0,779.8000000119209,39,0,750.8000000119209,0,1,experiment,NA,NA,2,0.5,0.5,5,4,88,2,NA
fcp-trial,122,583859,0.0-97.0-0.0,voc_e2,12281,"[{""event"":""fullscreenenter"",""trial"":1,""time"":1080}]",NA,NA,NA,NA,NA,4,#D89F1C,#3386FF,0,0,0,40,0,780.8000000119209,39,0,1044.0999999642372,0,1,experiment,NA,NA,1,0.3,0.7,3,2,89,2,NA
fcp-trial,123,586951,0.0-98.0-0.0,voc_e2,12281,"[{""event"":""fullscreenenter"",""trial"":1,""time"":1080}]",NA,NA,NA,NA,NA,4,#1CD855,#FA92F8,10,0,1,40,0,800.6999999880791,37,1,784.4000000357628,10,1,experiment,NA,NA,0,0.9,0.1,0,1,90,2,NA
fcp-trial,124,590057,0.0-99.0-0.0,voc_e2,12281,"[{""event"":""fullscreenenter"",""trial"":1,""time"":1080}]",NA,NA,NA,NA,NA,6,#1CD855,#FA92F8,0,0,1,40,0,667.4000000357628,37,1,932.100000023842,0,1,experiment,NA,NA,0,0.9,0.1,0,1,91,3,NA
fcp-trial,125,593188,0.0-100.0-0.0,voc_e2,12281,"[{""event"":""fullscreenenter"",""trial"":1,""time"":1080}]",NA,NA,NA,NA,NA,1,#741CD8,#D8271C,0,0,0,40,0,1050,37,1,574,0,0,experiment,NA,NA,2,0.5,0.5,5,4,92,3,NA
fcp-trial,126,596200,0.0-101.0-0.0,voc_e2,12281,"[{""event"":""fullscreenenter"",""trial"":1,""time"":1080}]",NA,NA,NA,NA,NA,6,#D8271C,#741CD8,10,10,1,40,0,921.8000000119209,39,0,583.8999999761581,10,0,experiment,NA,NA,2,0.5,0.5,4,5,93,3,NA
fcp-trial,127,598732,0.0-102.0-0.0,voc_e2,12281,"[{""event"":""fullscreenenter"",""trial"":1,""time"":1080}]",NA,NA,NA,NA,NA,6,#D89F1C,#3386FF,0,0,0,40,0,488.5,37,1,537.5,0,0,experiment,NA,NA,1,0.3,0.7,3,2,94,3,NA
fcp-trial,128,601400,0.0-103.0-0.0,voc_e2,12281,"[{""event"":""fullscreenenter"",""trial"":1,""time"":1080}]",NA,NA,NA,NA,NA,1,#FA92F8,#1CD855,0,10,0,40,0,599,37,1,563,0,0,experiment,NA,NA,0,0.1,0.9,1,0,95,3,NA
fcp-trial,129,604211,0.0-104.0-0.0,voc_e2,12281,"[{""event"":""fullscreenenter"",""trial"":1,""time"":1080}]",NA,NA,NA,NA,NA,4,#741CD8,#D8271C,10,0,0,40,0,713.3999999761581,37,1,593.3000000119209,10,0,experiment,NA,NA,2,0.5,0.5,5,4,96,3,NA
fcp-trial,130,606979,0.0-105.0-0.0,voc_e2,12281,"[{""event"":""fullscreenenter"",""trial"":1,""time"":1080}]",NA,NA,NA,NA,NA,5,#FA92F8,#1CD855,10,10,0,40,0,552.0999999642372,39,0,706.1000000238419,10,1,experiment,NA,NA,0,0.1,0.9,1,0,97,3,NA
fcp-trial,131,610075,0.0-106.0-0.0,voc_e2,12281,"[{""event"":""fullscreenenter"",""trial"":1,""time"":1080}]",NA,NA,NA,NA,NA,3,#3386FF,#D89F1C,10,10,1,40,0,949.8999999761581,37,1,641.1000000238419,10,1,experiment,NA,NA,1,0.7,0.3,2,3,98,3,NA
fcp-trial,132,614417,0.0-107.0-0.0,voc_e2,12281,"[{""event"":""fullscreenenter"",""trial"":1,""time"":1080}]",NA,NA,NA,NA,NA,2,#1CD855,#FA92F8,10,0,1,40,0,1182.300000011921,39,0,1652.5,0,0,experiment,NA,NA,0,0.9,0.1,0,1,99,3,NA
fcp-trial,133,618084,0.0-108.0-0.0,voc_e2,12281,"[{""event"":""fullscreenenter"",""trial"":1,""time"":1080}]",NA,NA,NA,NA,NA,2,#3386FF,#D89F1C,0,0,1,40,0,869.3000000119209,37,1,1293.899999976158,0,1,experiment,NA,NA,1,0.7,0.3,2,3,100,3,NA
fcp-trial,134,621123,0.0-109.0-0.0,voc_e2,12281,"[{""event"":""fullscreenenter"",""trial"":1,""time"":1080}]",NA,NA,NA,NA,NA,3,#D8271C,#741CD8,0,10,1,40,0,802.3000000119209,37,1,729.8000000119209,0,1,experiment,NA,NA,2,0.5,0.5,4,5,101,3,NA
fcp-trial,135,624115,0.0-110.0-0.0,voc_e2,12281,"[{""event"":""fullscreenenter"",""trial"":1,""time"":1080}]",NA,NA,NA,NA,NA,2,#D8271C,#741CD8,10,0,1,40,0,700.5,39,0,786.4000000357628,0,0,experiment,NA,NA,2,0.5,0.5,4,5,102,3,NA
fcp-trial,136,627254,0.0-111.0-0.0,voc_e2,12281,"[{""event"":""fullscreenenter"",""trial"":1,""time"":1080}]",NA,NA,NA,NA,NA,1,#3386FF,#D89F1C,10,0,1,40,0,947.3999999761581,39,0,685.5,0,0,experiment,NA,NA,1,0.7,0.3,2,3,103,3,NA
fcp-trial,137,630539,0.0-112.0-0.0,voc_e2,12281,"[{""event"":""fullscreenenter"",""trial"":1,""time"":1080}]",NA,NA,NA,NA,NA,0,#FA92F8,#1CD855,0,10,0,38,1,653.8000000119209,39,0,1125.300000011921,10,1,experiment,NA,NA,0,0.1,0.9,1,0,104,3,NA
fcp-trial,138,633434,0.0-113.0-0.0,voc_e2,12281,"[{""event"":""fullscreenenter"",""trial"":1,""time"":1080}]",NA,NA,NA,NA,NA,5,#3386FF,#D89F1C,10,0,1,40,0,802.5,37,1,585,10,1,experiment,NA,NA,1,0.7,0.3,2,3,105,3,NA
audio-instructions,139,640477,0.0-114.0,voc_e2,12281,"[{""event"":""fullscreenenter"",""trial"":1,""time"":1080}]",NA,1883.2000000476835,static/audio/pause.wav,NA,0,NA,NA,NA,NA,NA,NA,NA,NA,NA,NA,NA,NA,NA,NA,NA,NA,NA,NA,NA,NA,NA,NA,NA,NA,NA
fcp-trial,140,645415,0.0-115.0-0.0,voc_e2,12281,"[{""event"":""fullscreenenter"",""trial"":1,""time"":1080}]",NA,NA,NA,NA,NA,1,#741CD8,#D8271C,10,0,0,40,0,1879.2000000476837,37,1,1552.100000023842,10,0,experiment,NA,NA,2,0.5,0.5,5,4,106,3,NA
fcp-trial,141,648193,0.0-116.0-0.0,voc_e2,12281,"[{""event"":""fullscreenenter"",""trial"":1,""time"":1080}]",NA,NA,NA,NA,NA,5,#1CD855,#FA92F8,10,0,1,40,0,721.6999999880791,37,1,550.7000000476837,10,1,experiment,NA,NA,0,0.9,0.1,0,1,107,3,NA
fcp-trial,142,650848,0.0-117.0-0.0,voc_e2,12281,"[{""event"":""fullscreenenter"",""trial"":1,""time"":1080}]",NA,NA,NA,NA,NA,1,#D89F1C,#3386FF,10,10,0,40,0,687.9000000357628,39,0,461.39999997615814,10,1,experiment,NA,NA,1,0.3,0.7,3,2,108,3,NA
fcp-trial,143,653515,0.0-118.0-0.0,voc_e2,12281,"[{""event"":""fullscreenenter"",""trial"":1,""time"":1080}]",NA,NA,NA,NA,NA,6,#741CD8,#D8271C,0,0,0,40,0,497.10000002384186,39,0,662.1000000238419,0,1,experiment,NA,NA,2,0.5,0.5,5,4,109,3,NA
fcp-trial,144,656340,0.0-119.0-0.0,voc_e2,12281,"[{""event"":""fullscreenenter"",""trial"":1,""time"":1080}]",NA,NA,NA,NA,NA,0,#D89F1C,#3386FF,10,0,0,38,1,710.0999999642372,39,0,607.6000000238419,0,1,experiment,NA,NA,1,0.3,0.7,3,2,110,3,NA
fcp-trial,145,659277,0.0-120.0-0.0,voc_e2,12281,"[{""event"":""fullscreenenter"",""trial"":1,""time"":1080}]",NA,NA,NA,NA,NA,4,#1CD855,#FA92F8,10,0,1,40,0,754.8999999761581,39,0,675.6000000238419,0,0,experiment,NA,NA,0,0.9,0.1,0,1,111,3,NA
fcp-trial,146,661966,0.0-121.0-0.0,voc_e2,12281,"[{""event"":""fullscreenenter"",""trial"":1,""time"":1080}]",NA,NA,NA,NA,NA,5,#D89F1C,#3386FF,10,10,0,40,0,666.6000000238419,39,0,517.1999999880791,10,1,experiment,NA,NA,1,0.3,0.7,3,2,112,3,NA
fcp-trial,147,664622,0.0-122.0-0.0,voc_e2,12281,"[{""event"":""fullscreenenter"",""trial"":1,""time"":1080}]",NA,NA,NA,NA,NA,5,#741CD8,#D8271C,0,10,0,40,0,644.5,39,0,505.300000011921,10,1,experiment,NA,NA,2,0.5,0.5,5,4,113,3,NA
fcp-trial,148,668559,0.0-123.0-0.0,voc_e2,12281,"[{""event"":""fullscreenenter"",""trial"":1,""time"":1080}]",NA,NA,NA,NA,NA,0,#741CD8,#D8271C,0,10,0,38,1,1129.2999999523163,37,1,1302.699999988079,0,0,experiment,NA,NA,2,0.5,0.5,5,4,114,3,NA
fcp-trial,149,671246,0.0-124.0-0.0,voc_e2,12281,"[{""event"":""fullscreenenter"",""trial"":1,""time"":1080}]",NA,NA,NA,NA,NA,3,#D89F1C,#3386FF,0,10,0,40,0,665.1999999880791,39,0,516.0999999642372,10,1,experiment,NA,NA,1,0.3,0.7,3,2,115,3,NA
fcp-trial,150,673949,0.0-125.0-0.0,voc_e2,12281,"[{""event"":""fullscreenenter"",""trial"":1,""time"":1080}]",NA,NA,NA,NA,NA,3,#1CD855,#FA92F8,10,0,1,40,0,566.4000000357628,39,0,630.1999999880791,0,0,experiment,NA,NA,0,0.9,0.1,0,1,116,3,NA
fcp-trial,151,677255,0.0-126.0-0.0,voc_e2,12281,"[{""event"":""fullscreenenter"",""trial"":1,""time"":1080}]",NA,NA,NA,NA,NA,0,#1CD855,#FA92F8,10,0,1,38,1,800.8000000119209,39,0,999.899999976158,0,0,experiment,NA,NA,0,0.9,0.1,0,1,117,3,NA
fcp-trial,152,680078,0.0-127.0-0.0,voc_e2,12281,"[{""event"":""fullscreenenter"",""trial"":1,""time"":1080}]",NA,NA,NA,NA,NA,3,#741CD8,#D8271C,10,10,0,40,0,746.6999999880791,37,1,572,10,0,experiment,NA,NA,2,0.5,0.5,5,4,118,3,NA
fcp-trial,153,683006,0.0-128.0-0.0,voc_e2,12281,"[{""event"":""fullscreenenter"",""trial"":1,""time"":1080}]",NA,NA,NA,NA,NA,4,#3386FF,#D89F1C,0,0,1,40,0,788.3000000119209,37,1,630.6999999880791,0,1,experiment,NA,NA,1,0.7,0.3,2,3,119,3,NA
fcp-trial,154,685807,0.0-129.0-0.0,voc_e2,12281,"[{""event"":""fullscreenenter"",""trial"":1,""time"":1080}]",NA,NA,NA,NA,NA,4,#D8271C,#741CD8,0,0,1,40,0,620.8999999761581,37,1,674.6999999880791,0,1,experiment,NA,NA,2,0.5,0.5,4,5,120,3,NA
fcp-trial,155,688540,0.0-130.0-0.0,voc_e2,12281,"[{""event"":""fullscreenenter"",""trial"":1,""time"":1080}]",NA,NA,NA,NA,NA,2,#1CD855,#FA92F8,10,0,1,40,0,769.4000000357628,39,0,458.800000011921,0,0,experiment,NA,NA,0,0.9,0.1,0,1,121,3,NA
fcp-trial,156,691252,0.0-131.0-0.0,voc_e2,12281,"[{""event"":""fullscreenenter"",""trial"":1,""time"":1080}]",NA,NA,NA,NA,NA,6,#D89F1C,#3386FF,10,10,0,40,0,575.8999999761581,39,0,627.7999999523163,10,1,experiment,NA,NA,1,0.3,0.7,3,2,122,3,NA
fcp-trial,157,694238,0.0-132.0-0.0,voc_e2,12281,"[{""event"":""fullscreenenter"",""trial"":1,""time"":1080}]",NA,NA,NA,NA,NA,6,#1CD855,#FA92F8,10,10,1,40,0,780.6000000238419,37,1,699.1000000238419,10,1,experiment,NA,NA,0,0.9,0.1,0,1,123,3,NA
fcp-trial,158,697079,0.0-133.0-0.0,voc_e2,12281,"[{""event"":""fullscreenenter"",""trial"":1,""time"":1080}]",NA,NA,NA,NA,NA,2,#741CD8,#D8271C,0,10,0,40,0,811,39,0,525,10,1,experiment,NA,NA,2,0.5,0.5,5,4,124,3,NA
fcp-trial,159,699895,0.0-134.0-0.0,voc_e2,12281,"[{""event"":""fullscreenenter"",""trial"":1,""time"":1080}]",NA,NA,NA,NA,NA,2,#D89F1C,#3386FF,0,10,0,40,0,736.3999999761581,37,1,573.5,0,0,experiment,NA,NA,1,0.3,0.7,3,2,125,3,NA
fcp-trial,160,703282,0.0-135.0-0.0,voc_e2,12281,"[{""event"":""fullscreenenter"",""trial"":1,""time"":1080}]",NA,NA,NA,NA,NA,1,#1CD855,#FA92F8,10,0,1,40,0,1129.7000000476837,37,1,752.0999999642372,10,1,experiment,NA,NA,0,0.9,0.1,0,1,126,3,NA
fcp-trial,161,706149,0.0-136.0-0.0,voc_e2,12281,"[{""event"":""fullscreenenter"",""trial"":1,""time"":1080}]",NA,NA,NA,NA,NA,2,#D89F1C,#3386FF,0,10,0,40,0,755.4000000357628,39,0,606.6000000238419,10,1,experiment,NA,NA,1,0.3,0.7,3,2,127,3,NA
fcp-trial,162,708817,0.0-137.0-0.0,voc_e2,12281,"[{""event"":""fullscreenenter"",""trial"":1,""time"":1080}]",NA,NA,NA,NA,NA,3,#FA92F8,#1CD855,0,10,0,40,0,633.6999999880791,37,1,528.3999999761581,0,0,experiment,NA,NA,0,0.1,0.9,1,0,128,3,NA
fcp-trial,163,711720,0.0-138.0-0.0,voc_e2,12281,"[{""event"":""fullscreenenter"",""trial"":1,""time"":1080}]",NA,NA,NA,NA,NA,4,#1CD855,#FA92F8,10,0,1,40,0,699.1999999880791,37,1,696.6999999880791,10,1,experiment,NA,NA,0,0.9,0.1,0,1,129,3,NA
fcp-trial,164,714620,0.0-139.0-0.0,voc_e2,12281,"[{""event"":""fullscreenenter"",""trial"":1,""time"":1080}]",NA,NA,NA,NA,NA,2,#FA92F8,#1CD855,0,10,0,40,0,732.2000000476837,37,1,662.1000000238419,0,0,experiment,NA,NA,0,0.1,0.9,1,0,130,3,NA
fcp-trial,165,717321,0.0-140.0-0.0,voc_e2,12281,"[{""event"":""fullscreenenter"",""trial"":1,""time"":1080}]",NA,NA,NA,NA,NA,6,#3386FF,#D89F1C,10,0,1,40,0,687.1999999880791,39,0,504.800000011921,0,0,experiment,NA,NA,1,0.7,0.3,2,3,131,3,NA
fcp-trial,166,720921,0.0-141.0-0.0,voc_e2,12281,"[{""event"":""fullscreenenter"",""trial"":1,""time"":1080}]",NA,NA,NA,NA,NA,0,#D8271C,#741CD8,0,0,1,38,1,1037.5,37,1,1053.7999999523165,0,1,experiment,NA,NA,2,0.5,0.5,4,5,132,3,NA
fcp-trial,167,723937,0.0-142.0-0.0,voc_e2,12281,"[{""event"":""fullscreenenter"",""trial"":1,""time"":1080}]",NA,NA,NA,NA,NA,5,#D89F1C,#3386FF,0,0,0,40,0,904.8000000119209,37,1,605.6000000238419,0,0,experiment,NA,NA,1,0.3,0.7,3,2,133,3,NA
fcp-trial,168,726626,0.0-143.0-0.0,voc_e2,12281,"[{""event"":""fullscreenenter"",""trial"":1,""time"":1080}]",NA,NA,NA,NA,NA,3,#741CD8,#D8271C,0,0,0,40,0,682.5,39,0,502.39999997615814,0,1,experiment,NA,NA,2,0.5,0.5,5,4,134,3,NA
fcp-trial,169,729348,0.0-144.0-0.0,voc_e2,12281,"[{""event"":""fullscreenenter"",""trial"":1,""time"":1080}]",NA,NA,NA,NA,NA,5,#FA92F8,#1CD855,0,10,0,40,0,599.6999999880791,37,1,617.3999999761581,0,0,experiment,NA,NA,0,0.1,0.9,1,0,135,3,NA
fcp-trial,170,731965,0.0-145.0-0.0,voc_e2,12281,"[{""event"":""fullscreenenter"",""trial"":1,""time"":1080}]",NA,NA,NA,NA,NA,1,#FA92F8,#1CD855,0,0,0,40,0,668.6999999880791,39,0,441.7999999523163,0,1,experiment,NA,NA,0,0.1,0.9,1,0,136,4,NA
fcp-trial,171,734696,0.0-146.0-0.0,voc_e2,12281,"[{""event"":""fullscreenenter"",""trial"":1,""time"":1080}]",NA,NA,NA,NA,NA,3,#D89F1C,#3386FF,0,0,0,40,0,640.3999999761581,39,0,584.6000000238419,0,1,experiment,NA,NA,1,0.3,0.7,3,2,137,4,NA
fcp-trial,172,737271,0.0-147.0-0.0,voc_e2,12281,"[{""event"":""fullscreenenter"",""trial"":1,""time"":1080}]",NA,NA,NA,NA,NA,5,#741CD8,#D8271C,0,10,0,40,0,552.6000000238419,37,1,517.6000000238419,0,0,experiment,NA,NA,2,0.5,0.5,5,4,138,4,NA
fcp-trial,173,739837,0.0-148.0-0.0,voc_e2,12281,"[{""event"":""fullscreenenter"",""trial"":1,""time"":1080}]",NA,NA,NA,NA,NA,6,#1CD855,#FA92F8,10,0,1,40,0,598.1999999880791,39,0,461.39999997615814,0,0,experiment,NA,NA,0,0.9,0.1,0,1,139,4,NA
fcp-trial,174,742479,0.0-149.0-0.0,voc_e2,12281,"[{""event"":""fullscreenenter"",""trial"":1,""time"":1080}]",NA,NA,NA,NA,NA,1,#741CD8,#D8271C,0,0,0,40,0,564.6000000238419,37,1,571.3000000119209,0,0,experiment,NA,NA,2,0.5,0.5,5,4,140,4,NA
fcp-trial,175,745348,0.0-150.0-0.0,voc_e2,12281,"[{""event"":""fullscreenenter"",""trial"":1,""time"":1080}]",NA,NA,NA,NA,NA,4,#3386FF,#D89F1C,10,0,1,40,0,794.1000000238419,37,1,568.5,10,1,experiment,NA,NA,1,0.7,0.3,2,3,141,4,NA
fcp-trial,176,747993,0.0-151.0-0.0,voc_e2,12281,"[{""event"":""fullscreenenter"",""trial"":1,""time"":1080}]",NA,NA,NA,NA,NA,6,#D8271C,#741CD8,10,10,1,40,0,555.9000000357628,37,1,583.3999999761581,10,1,experiment,NA,NA,2,0.5,0.5,4,5,142,4,NA
fcp-trial,177,751907,0.0-152.0-0.0,voc_e2,12281,"[{""event"":""fullscreenenter"",""trial"":1,""time"":1080}]",NA,NA,NA,NA,NA,0,#1CD855,#FA92F8,10,0,1,38,1,1363.7999999523163,37,1,1043.7999999523165,10,1,experiment,NA,NA,0,0.9,0.1,0,1,143,4,NA
fcp-trial,178,754892,0.0-153.0-0.0,voc_e2,12281,"[{""event"":""fullscreenenter"",""trial"":1,""time"":1080}]",NA,NA,NA,NA,NA,1,#D89F1C,#3386FF,0,0,0,40,0,871.6999999880791,37,1,607.8999999761581,0,0,experiment,NA,NA,1,0.3,0.7,3,2,144,4,NA
fcp-trial,179,757478,0.0-154.0-0.0,voc_e2,12281,"[{""event"":""fullscreenenter"",""trial"":1,""time"":1080}]",NA,NA,NA,NA,NA,2,#741CD8,#D8271C,10,10,0,40,0,564.1000000238419,39,0,516.6000000238419,10,1,experiment,NA,NA,2,0.5,0.5,5,4,145,4,NA
fcp-trial,180,760777,0.0-155.0-0.0,voc_e2,12281,"[{""event"":""fullscreenenter"",""trial"":1,""time"":1080}]",NA,NA,NA,NA,NA,4,#741CD8,#D8271C,0,0,0,40,0,611.3000000119209,37,1,1182.4000000357628,0,0,experiment,NA,NA,2,0.5,0.5,5,4,146,4,NA
fcp-trial,181,764318,0.0-156.0-0.0,voc_e2,12281,"[{""event"":""fullscreenenter"",""trial"":1,""time"":1080}]",NA,NA,NA,NA,NA,0,#D89F1C,#3386FF,0,10,0,38,1,1318.8999999761581,37,1,718.1000000238419,0,0,experiment,NA,NA,1,0.3,0.7,3,2,147,4,NA
fcp-trial,182,769392,0.0-157.0-0.0,voc_e2,12281,"[{""event"":""fullscreenenter"",""trial"":1,""time"":1080}]",NA,NA,NA,NA,NA,6,#FA92F8,#1CD855,0,10,0,40,0,1387.800000011921,39,0,2179.800000011921,10,1,experiment,NA,NA,0,0.1,0.9,1,0,148,4,NA
fcp-trial,183,772712,0.0-158.0-0.0,voc_e2,12281,"[{""event"":""fullscreenenter"",""trial"":1,""time"":1080}]",NA,NA,NA,NA,NA,0,#D8271C,#741CD8,0,10,1,38,1,1108.1000000238419,39,0,706.3000000119209,10,0,experiment,NA,NA,2,0.5,0.5,4,5,149,4,NA
fcp-trial,184,775629,0.0-159.0-0.0,voc_e2,12281,"[{""event"":""fullscreenenter"",""trial"":1,""time"":1080}]",NA,NA,NA,NA,NA,1,#D89F1C,#3386FF,10,10,0,40,0,812.6999999880791,39,0,598,10,1,experiment,NA,NA,1,0.3,0.7,3,2,150,4,NA
fcp-trial,185,778439,0.0-160.0-0.0,voc_e2,12281,"[{""event"":""fullscreenenter"",""trial"":1,""time"":1080}]",NA,NA,NA,NA,NA,2,#D89F1C,#3386FF,10,10,0,40,0,574.9000000357628,37,1,729,10,0,experiment,NA,NA,1,0.3,0.7,3,2,151,4,NA
fcp-trial,186,781623,0.0-161.0-0.0,voc_e2,12281,"[{""event"":""fullscreenenter"",""trial"":1,""time"":1080}]",NA,NA,NA,NA,NA,5,#3386FF,#D89F1C,0,10,1,40,0,970.6999999880791,37,1,705.5,0,1,experiment,NA,NA,1,0.7,0.3,2,3,152,4,NA
fcp-trial,187,784447,0.0-162.0-0.0,voc_e2,12281,"[{""event"":""fullscreenenter"",""trial"":1,""time"":1080}]",NA,NA,NA,NA,NA,5,#1CD855,#FA92F8,0,10,1,40,0,691.6999999880791,39,0,627,10,0,experiment,NA,NA,0,0.9,0.1,0,1,153,4,NA
fcp-trial,188,787485,0.0-163.0-0.0,voc_e2,12281,"[{""event"":""fullscreenenter"",""trial"":1,""time"":1080}]",NA,NA,NA,NA,NA,2,#D8271C,#741CD8,10,10,1,40,0,816.1999999880791,37,1,715.3000000119209,10,1,experiment,NA,NA,2,0.5,0.5,4,5,154,4,NA
fcp-trial,189,791265,0.0-164.0-0.0,voc_e2,12281,"[{""event"":""fullscreenenter"",""trial"":1,""time"":1080}]",NA,NA,NA,NA,NA,4,#D89F1C,#3386FF,0,10,0,40,0,1709.5,37,1,561.3999999761581,0,0,experiment,NA,NA,1,0.3,0.7,3,2,155,4,NA
fcp-trial,190,794080,0.0-165.0-0.0,voc_e2,12281,"[{""event"":""fullscreenenter"",""trial"":1,""time"":1080}]",NA,NA,NA,NA,NA,0,#1CD855,#FA92F8,10,0,1,40,0,479.0999999642372,39,0,829.6000000238419,0,0,experiment,NA,NA,0,0.9,0.1,0,1,156,4,NA
fcp-trial,191,797026,0.0-166.0-0.0,voc_e2,12281,"[{""event"":""fullscreenenter"",""trial"":1,""time"":1080}]",NA,NA,NA,NA,NA,3,#1CD855,#FA92F8,10,0,1,40,0,856.5999999642372,39,0,584.2999999523163,0,0,experiment,NA,NA,0,0.9,0.1,0,1,157,4,NA
fcp-trial,192,800019,0.0-167.0-0.0,voc_e2,12281,"[{""event"":""fullscreenenter"",""trial"":1,""time"":1080}]",NA,NA,NA,NA,NA,1,#741CD8,#D8271C,10,0,0,40,0,793.5,39,0,693.6999999880791,0,1,experiment,NA,NA,2,0.5,0.5,5,4,158,4,NA
fcp-trial,193,803529,0.0-168.0-0.0,voc_e2,12281,"[{""event"":""fullscreenenter"",""trial"":1,""time"":1080}]",NA,NA,NA,NA,NA,0,#3386FF,#D89F1C,10,0,1,38,1,1118.699999988079,37,1,884.0999999642372,10,1,experiment,NA,NA,1,0.7,0.3,2,3,159,4,NA
fcp-trial,194,806783,0.0-169.0-0.0,voc_e2,12281,"[{""event"":""fullscreenenter"",""trial"":1,""time"":1080}]",NA,NA,NA,NA,NA,1,#1CD855,#FA92F8,10,0,1,40,0,1198.6000000238419,37,1,550.0999999642372,10,1,experiment,NA,NA,0,0.9,0.1,0,1,160,4,NA
fcp-trial,195,809686,0.0-170.0-0.0,voc_e2,12281,"[{""event"":""fullscreenenter"",""trial"":1,""time"":1080}]",NA,NA,NA,NA,NA,4,#FA92F8,#1CD855,10,10,0,40,0,833.6000000238419,39,0,563.4000000357628,10,1,experiment,NA,NA,0,0.1,0.9,1,0,161,4,NA
fcp-trial,196,812352,0.0-171.0-0.0,voc_e2,12281,"[{""event"":""fullscreenenter"",""trial"":1,""time"":1080}]",NA,NA,NA,NA,NA,5,#741CD8,#D8271C,10,0,0,40,0,610.5999999642372,37,1,550.5,10,0,experiment,NA,NA,2,0.5,0.5,5,4,162,4,NA
fcp-trial,197,814895,0.0-172.0-0.0,voc_e2,12281,"[{""event"":""fullscreenenter"",""trial"":1,""time"":1080}]",NA,NA,NA,NA,NA,6,#D89F1C,#3386FF,10,10,0,40,0,601.5,39,0,435.5999999642372,10,1,experiment,NA,NA,1,0.3,0.7,3,2,163,4,NA
fcp-trial,198,817718,0.0-173.0-0.0,voc_e2,12281,"[{""event"":""fullscreenenter"",""trial"":1,""time"":1080}]",NA,NA,NA,NA,NA,2,#1CD855,#FA92F8,10,0,1,40,0,732.7999999523163,37,1,583.5,10,1,experiment,NA,NA,0,0.9,0.1,0,1,164,4,NA
fcp-trial,199,820406,0.0-174.0-0.0,voc_e2,12281,"[{""event"":""fullscreenenter"",""trial"":1,""time"":1080}]",NA,NA,NA,NA,NA,3,#D89F1C,#3386FF,10,0,0,40,0,653.1999999880791,39,0,527,0,1,experiment,NA,NA,1,0.3,0.7,3,2,165,4,NA
fcp-trial,200,823310,0.0-175.0-0.0,voc_e2,12281,"[{""event"":""fullscreenenter"",""trial"":1,""time"":1080}]",NA,NA,NA,NA,NA,3,#D8271C,#741CD8,10,0,1,40,0,777.6000000238419,37,1,616.9000000357628,10,1,experiment,NA,NA,2,0.5,0.5,4,5,166,4,NA
fcp-trial,201,827112,0.0-176.0-0.0,voc_e2,12281,"[{""event"":""fullscreenenter"",""trial"":1,""time"":1080}]",NA,NA,NA,NA,NA,6,#741CD8,#D8271C,0,0,0,40,0,923.3999999761581,37,1,1372.7000000476835,0,0,experiment,NA,NA,2,0.5,0.5,5,4,167,4,NA
fcp-trial,202,829992,0.0-177.0-0.0,voc_e2,12281,"[{""event"":""fullscreenenter"",""trial"":1,""time"":1080}]",NA,NA,NA,NA,NA,4,#D8271C,#741CD8,10,0,1,40,0,775.6999999880791,39,0,596.2999999523163,0,0,experiment,NA,NA,2,0.5,0.5,4,5,168,4,NA
fcp-trial,203,833019,0.0-178.0-0.0,voc_e2,12281,"[{""event"":""fullscreenenter"",""trial"":1,""time"":1080}]",NA,NA,NA,NA,NA,3,#1CD855,#FA92F8,0,0,1,40,0,826.6000000238419,37,1,695.5,0,1,experiment,NA,NA,0,0.9,0.1,0,1,169,4,NA
fcp-trial,204,835787,0.0-179.0-0.0,voc_e2,12281,"[{""event"":""fullscreenenter"",""trial"":1,""time"":1080}]",NA,NA,NA,NA,NA,2,#3386FF,#D89F1C,0,10,1,40,0,776.5,39,0,482,10,0,experiment,NA,NA,1,0.7,0.3,2,3,170,4,NA
fcp-trial,205,838636,0.0-180.0-0.0,voc_e2,12281,"[{""event"":""fullscreenenter"",""trial"":1,""time"":1080}]",NA,NA,NA,NA,NA,4,#D8271C,#741CD8,0,10,1,40,0,791.7000000476837,37,1,549.6000000238419,0,1,experiment,NA,NA,2,0.5,0.5,4,5,171,4,NA
fcp-trial,206,841626,0.0-181.0-0.0,voc_e2,12281,"[{""event"":""fullscreenenter"",""trial"":1,""time"":1080}]",NA,NA,NA,NA,NA,0,#741CD8,#D8271C,10,10,0,40,0,586.5,39,0,898.1999999880791,10,1,experiment,NA,NA,2,0.5,0.5,5,4,172,4,NA
fcp-trial,207,844452,0.0-182.0-0.0,voc_e2,12281,"[{""event"":""fullscreenenter"",""trial"":1,""time"":1080}]",NA,NA,NA,NA,NA,6,#D89F1C,#3386FF,10,10,0,40,0,736.8999999761581,39,0,583.5999999642372,10,1,experiment,NA,NA,1,0.3,0.7,3,2,173,4,NA
fcp-trial,208,847413,0.0-183.0-0.0,voc_e2,12281,"[{""event"":""fullscreenenter"",""trial"":1,""time"":1080}]",NA,NA,NA,NA,NA,1,#1CD855,#FA92F8,10,0,1,40,0,676.3000000119209,39,0,777,0,0,experiment,NA,NA,0,0.9,0.1,0,1,174,4,NA
fcp-trial,209,850166,0.0-184.0-0.0,voc_e2,12281,"[{""event"":""fullscreenenter"",""trial"":1,""time"":1080}]",NA,NA,NA,NA,NA,6,#741CD8,#D8271C,10,0,0,40,0,677.5999999642372,37,1,570.1999999880791,10,0,experiment,NA,NA,2,0.5,0.5,5,4,175,4,NA
fcp-trial,210,854152,0.0-185.0-0.0,voc_e2,12281,"[{""event"":""fullscreenenter"",""trial"":1,""time"":1080}]",NA,NA,NA,NA,NA,0,#FA92F8,#1CD855,0,10,0,38,1,1533.9000000357628,39,0,946.3000000119208,10,1,experiment,NA,NA,0,0.1,0.9,1,0,176,4,NA
fcp-trial,211,857056,0.0-186.0-0.0,voc_e2,12281,"[{""event"":""fullscreenenter"",""trial"":1,""time"":1080}]",NA,NA,NA,NA,NA,4,#D89F1C,#3386FF,0,10,0,40,0,946.8000000119209,39,0,451.699999988079,10,1,experiment,NA,NA,1,0.3,0.7,3,2,177,4,NA
fcp-trial,212,859775,0.0-187.0-0.0,voc_e2,12281,"[{""event"":""fullscreenenter"",""trial"":1,""time"":1080}]",NA,NA,NA,NA,NA,1,#D8271C,#741CD8,10,10,1,40,0,719.8000000119209,37,1,495.10000002384186,10,1,experiment,NA,NA,2,0.5,0.5,4,5,178,4,NA
fcp-trial,213,862674,0.0-188.0-0.0,voc_e2,12281,"[{""event"":""fullscreenenter"",""trial"":1,""time"":1080}]",NA,NA,NA,NA,NA,5,#FA92F8,#1CD855,10,10,0,40,0,754.8999999761581,37,1,640.6000000238419,10,0,experiment,NA,NA,0,0.1,0.9,1,0,179,4,NA
fcp-trial,214,865529,0.0-189.0-0.0,voc_e2,12281,"[{""event"":""fullscreenenter"",""trial"":1,""time"":1080}]",NA,NA,NA,NA,NA,3,#D89F1C,#3386FF,10,0,0,40,0,598,39,0,753.1000000238419,0,1,experiment,NA,NA,1,0.3,0.7,3,2,180,4,NA
fcp-trial,215,868318,0.0-190.0-0.0,voc_e2,12281,"[{""event"":""fullscreenenter"",""trial"":1,""time"":1080}]",NA,NA,NA,NA,NA,5,#D89F1C,#3386FF,10,10,0,40,0,589.8000000119209,39,0,695.3000000119209,10,1,experiment,NA,NA,1,0.3,0.7,3,2,181,5,NA
fcp-trial,216,871045,0.0-191.0-0.0,voc_e2,12281,"[{""event"":""fullscreenenter"",""trial"":1,""time"":1080}]",NA,NA,NA,NA,NA,5,#D8271C,#741CD8,10,10,1,40,0,642.2999999523163,37,1,578.1999999880791,10,1,experiment,NA,NA,2,0.5,0.5,4,5,182,5,NA
fcp-trial,217,873739,0.0-192.0-0.0,voc_e2,12281,"[{""event"":""fullscreenenter"",""trial"":1,""time"":1080}]",NA,NA,NA,NA,NA,4,#FA92F8,#1CD855,0,10,0,40,0,358.80000001192093,37,1,831.1999999880791,0,0,experiment,NA,NA,0,0.1,0.9,1,0,183,5,NA
fcp-trial,218,877147,0.0-193.0-0.0,voc_e2,12281,"[{""event"":""fullscreenenter"",""trial"":1,""time"":1080}]",NA,NA,NA,NA,NA,0,#3386FF,#D89F1C,10,0,1,38,1,776.8999999761581,39,0,1124.0999999642372,0,0,experiment,NA,NA,1,0.7,0.3,2,3,184,5,NA
fcp-trial,219,879992,0.0-194.0-0.0,voc_e2,12281,"[{""event"":""fullscreenenter"",""trial"":1,""time"":1080}]",NA,NA,NA,NA,NA,6,#1CD855,#FA92F8,10,0,1,40,0,748,39,0,591.6000000238419,0,0,experiment,NA,NA,0,0.9,0.1,0,1,185,5,NA
fcp-trial,220,882872,0.0-195.0-0.0,voc_e2,12281,"[{""event"":""fullscreenenter"",""trial"":1,""time"":1080}]",NA,NA,NA,NA,NA,3,#D8271C,#741CD8,0,10,1,40,0,779.8999999761581,39,0,594.5,10,0,experiment,NA,NA,2,0.5,0.5,4,5,186,5,NA
fcp-trial,221,885841,0.0-196.0-0.0,voc_e2,12281,"[{""event"":""fullscreenenter"",""trial"":1,""time"":1080}]",NA,NA,NA,NA,NA,2,#741CD8,#D8271C,10,10,0,40,0,836.1999999880791,39,0,628.1999999880791,10,1,experiment,NA,NA,2,0.5,0.5,5,4,187,5,NA
fcp-trial,222,888418,0.0-197.0-0.0,voc_e2,12281,"[{""event"":""fullscreenenter"",""trial"":1,""time"":1080}]",NA,NA,NA,NA,NA,2,#FA92F8,#1CD855,10,0,0,40,0,545.6999999880791,37,1,526.6999999880791,10,0,experiment,NA,NA,0,0.1,0.9,1,0,188,5,NA
fcp-trial,223,891040,0.0-198.0-0.0,voc_e2,12281,"[{""event"":""fullscreenenter"",""trial"":1,""time"":1080}]",NA,NA,NA,NA,NA,1,#D89F1C,#3386FF,0,10,0,40,0,666.5,39,0,448.7999999523163,10,1,experiment,NA,NA,1,0.3,0.7,3,2,189,5,NA
fcp-trial,224,893952,0.0-199.0-0.0,voc_e2,12281,"[{""event"":""fullscreenenter"",""trial"":1,""time"":1080}]",NA,NA,NA,NA,NA,4,#1CD855,#FA92F8,10,0,1,40,0,880.6000000238419,37,1,527,10,1,experiment,NA,NA,0,0.9,0.1,0,1,190,5,NA
fcp-trial,225,896428,0.0-200.0-0.0,voc_e2,12281,"[{""event"":""fullscreenenter"",""trial"":1,""time"":1080}]",NA,NA,NA,NA,NA,1,#D8271C,#741CD8,0,10,1,40,0,443.30000001192093,39,0,528.1999999880791,10,0,experiment,NA,NA,2,0.5,0.5,4,5,191,5,NA
fcp-trial,226,899153,0.0-201.0-0.0,voc_e2,12281,"[{""event"":""fullscreenenter"",""trial"":1,""time"":1080}]",NA,NA,NA,NA,NA,2,#1CD855,#FA92F8,10,10,1,40,0,439.30000001192093,37,1,777,10,1,experiment,NA,NA,0,0.9,0.1,0,1,192,5,NA
fcp-trial,227,901997,0.0-202.0-0.0,voc_e2,12281,"[{""event"":""fullscreenenter"",""trial"":1,""time"":1080}]",NA,NA,NA,NA,NA,0,#741CD8,#D8271C,0,10,0,38,1,755.1999999880791,39,0,582.6999999880791,10,1,experiment,NA,NA,2,0.5,0.5,5,4,193,5,NA
fcp-trial,228,904641,0.0-203.0-0.0,voc_e2,12281,"[{""event"":""fullscreenenter"",""trial"":1,""time"":1080}]",NA,NA,NA,NA,NA,4,#D89F1C,#3386FF,0,0,0,40,0,635.0999999642372,39,0,505.199999988079,0,1,experiment,NA,NA,1,0.3,0.7,3,2,194,5,NA
fcp-trial,229,907950,0.0-204.0-0.0,voc_e2,12281,"[{""event"":""fullscreenenter"",""trial"":1,""time"":1080}]",NA,NA,NA,NA,NA,0,#FA92F8,#1CD855,10,10,0,38,1,1084.300000011921,37,1,717.1000000238419,10,0,experiment,NA,NA,0,0.1,0.9,1,0,195,5,NA
fcp-trial,230,910719,0.0-205.0-0.0,voc_e2,12281,"[{""event"":""fullscreenenter"",""trial"":1,""time"":1080}]",NA,NA,NA,NA,NA,4,#D8271C,#741CD8,0,0,1,40,0,690.6000000238419,39,0,571.4000000357628,0,0,experiment,NA,NA,2,0.5,0.5,4,5,196,5,NA
fcp-trial,231,913429,0.0-206.0-0.0,voc_e2,12281,"[{""event"":""fullscreenenter"",""trial"":1,""time"":1080}]",NA,NA,NA,NA,NA,6,#D89F1C,#3386FF,10,10,0,40,0,520.6000000238419,37,1,683.3000000119209,10,0,experiment,NA,NA,1,0.3,0.7,3,2,197,5,NA
fcp-trial,232,916162,0.0-207.0-0.0,voc_e2,12281,"[{""event"":""fullscreenenter"",""trial"":1,""time"":1080}]",NA,NA,NA,NA,NA,3,#1CD855,#FA92F8,0,10,1,40,0,608.2000000476837,37,1,616.4000000357628,0,1,experiment,NA,NA,0,0.9,0.1,0,1,198,5,NA
fcp-trial,233,918863,0.0-208.0-0.0,voc_e2,12281,"[{""event"":""fullscreenenter"",""trial"":1,""time"":1080}]",NA,NA,NA,NA,NA,6,#741CD8,#D8271C,10,10,0,40,0,644.6000000238419,37,1,550,10,0,experiment,NA,NA,2,0.5,0.5,5,4,199,5,NA
fcp-trial,234,921530,0.0-209.0-0.0,voc_e2,12281,"[{""event"":""fullscreenenter"",""trial"":1,""time"":1080}]",NA,NA,NA,NA,NA,6,#FA92F8,#1CD855,0,10,0,40,0,645.6999999880791,39,0,515.6999999880791,10,1,experiment,NA,NA,0,0.1,0.9,1,0,200,5,NA
fcp-trial,235,924140,0.0-210.0-0.0,voc_e2,12281,"[{""event"":""fullscreenenter"",""trial"":1,""time"":1080}]",NA,NA,NA,NA,NA,3,#D89F1C,#3386FF,10,10,0,40,0,531.5,37,1,572.1000000238419,10,0,experiment,NA,NA,1,0.3,0.7,3,2,201,5,NA
fcp-trial,236,926806,0.0-211.0-0.0,voc_e2,12281,"[{""event"":""fullscreenenter"",""trial"":1,""time"":1080}]",NA,NA,NA,NA,NA,2,#741CD8,#D8271C,0,10,0,40,0,652.5,39,0,502.5,10,1,experiment,NA,NA,2,0.5,0.5,5,4,202,5,NA
fcp-trial,237,929868,0.0-212.0-0.0,voc_e2,12281,"[{""event"":""fullscreenenter"",""trial"":1,""time"":1080}]",NA,NA,NA,NA,NA,1,#D89F1C,#3386FF,0,10,0,40,0,532.1000000238419,39,0,1024.100000023842,10,1,experiment,NA,NA,1,0.3,0.7,3,2,203,5,NA
fcp-trial,238,932927,0.0-213.0-0.0,voc_e2,12281,"[{""event"":""fullscreenenter"",""trial"":1,""time"":1080}]",NA,NA,NA,NA,NA,1,#1CD855,#FA92F8,10,0,1,40,0,935.1000000238419,39,0,618.2000000476837,0,0,experiment,NA,NA,0,0.9,0.1,0,1,204,5,NA
fcp-trial,239,935886,0.0-214.0-0.0,voc_e2,12281,"[{""event"":""fullscreenenter"",""trial"":1,""time"":1080}]",NA,NA,NA,NA,NA,5,#D89F1C,#3386FF,10,10,0,40,0,657,39,0,797.6999999880791,10,1,experiment,NA,NA,1,0.3,0.7,3,2,205,5,NA
fcp-trial,240,938799,0.0-215.0-0.0,voc_e2,12281,"[{""event"":""fullscreenenter"",""trial"":1,""time"":1080}]",NA,NA,NA,NA,NA,5,#741CD8,#D8271C,10,10,0,40,0,744.2999999523163,39,0,662.5,10,1,experiment,NA,NA,2,0.5,0.5,5,4,206,5,NA
fcp-trial,241,942039,0.0-216.0-0.0,voc_e2,12281,"[{""event"":""fullscreenenter"",""trial"":1,""time"":1080}]",NA,NA,NA,NA,NA,5,#FA92F8,#1CD855,0,10,0,40,0,949.5,37,1,786.4000000357628,0,0,experiment,NA,NA,0,0.1,0.9,1,0,207,5,NA
fcp-trial,242,944550,0.0-217.0-0.0,voc_e2,12281,"[{""event"":""fullscreenenter"",""trial"":1,""time"":1080}]",NA,NA,NA,NA,NA,2,#3386FF,#D89F1C,10,0,1,40,0,592.3000000119209,39,0,412.89999997615814,0,0,experiment,NA,NA,1,0.7,0.3,2,3,208,5,NA
fcp-trial,243,947768,0.0-218.0-0.0,voc_e2,12281,"[{""event"":""fullscreenenter"",""trial"":1,""time"":1080}]",NA,NA,NA,NA,NA,3,#741CD8,#D8271C,0,10,0,40,0,677.2000000476837,37,1,1033.5999999642372,0,0,experiment,NA,NA,2,0.5,0.5,5,4,209,5,NA
fcp-trial,244,951359,0.0-219.0-0.0,voc_e2,12281,"[{""event"":""fullscreenenter"",""trial"":1,""time"":1080}]",NA,NA,NA,NA,NA,0,#3386FF,#D89F1C,10,0,1,38,1,1227.3999999761581,39,0,857.3999999761581,0,0,experiment,NA,NA,1,0.7,0.3,2,3,210,5,NA
audio-instructions,245,973871,0.0-220.0,voc_e2,12281,"[{""event"":""fullscreenenter"",""trial"":1,""time"":1080}]",NA,17344.19999998808,static/audio/pause.wav,NA,0,NA,NA,NA,NA,NA,NA,NA,NA,NA,NA,NA,NA,NA,NA,NA,NA,NA,NA,NA,NA,NA,NA,NA,NA,NA
fcp-trial,246,978212,0.0-221.0-0.0,voc_e2,12281,"[{""event"":""fullscreenenter"",""trial"":1,""time"":1080}]",NA,NA,NA,NA,NA,4,#D8271C,#741CD8,0,10,1,40,0,1577.0999999642372,39,0,1257,10,0,experiment,NA,NA,2,0.5,0.5,4,5,211,5,NA
fcp-trial,247,981297,0.0-222.0-0.0,voc_e2,12281,"[{""event"":""fullscreenenter"",""trial"":1,""time"":1080}]",NA,NA,NA,NA,NA,2,#741CD8,#D8271C,0,0,0,40,0,905.1999999880791,39,0,674.6000000238419,0,1,experiment,NA,NA,2,0.5,0.5,5,4,212,5,NA
fcp-trial,248,984098,0.0-223.0-0.0,voc_e2,12281,"[{""event"":""fullscreenenter"",""trial"":1,""time"":1080}]",NA,NA,NA,NA,NA,4,#FA92F8,#1CD855,0,10,0,40,0,745.8000000119209,37,1,549.8999999761581,0,0,experiment,NA,NA,0,0.1,0.9,1,0,213,5,NA
fcp-trial,249,987224,0.0-224.0-0.0,voc_e2,12281,"[{""event"":""fullscreenenter"",""trial"":1,""time"":1080}]",NA,NA,NA,NA,NA,1,#D89F1C,#3386FF,0,10,0,40,0,1096.800000011921,39,0,525.6999999880791,10,1,experiment,NA,NA,1,0.3,0.7,3,2,214,5,NA
fcp-trial,250,989690,0.0-225.0-0.0,voc_e2,12281,"[{""event"":""fullscreenenter"",""trial"":1,""time"":1080}]",NA,NA,NA,NA,NA,6,#3386FF,#D89F1C,10,0,1,40,0,476.0999999642372,37,1,484.39999997615814,10,1,experiment,NA,NA,1,0.7,0.3,2,3,215,5,NA
fcp-trial,251,992244,0.0-226.0-0.0,voc_e2,12281,"[{""event"":""fullscreenenter"",""trial"":1,""time"":1080}]",NA,NA,NA,NA,NA,1,#D8271C,#741CD8,0,0,1,40,0,588.3000000119209,39,0,461,0,0,experiment,NA,NA,2,0.5,0.5,4,5,216,5,NA
fcp-trial,252,994864,0.0-227.0-0.0,voc_e2,12281,"[{""event"":""fullscreenenter"",""trial"":1,""time"":1080}]",NA,NA,NA,NA,NA,2,#3386FF,#D89F1C,10,0,1,40,0,610.5,39,0,504.89999997615814,0,0,experiment,NA,NA,1,0.7,0.3,2,3,217,5,NA
fcp-trial,253,997498,0.0-228.0-0.0,voc_e2,12281,"[{""event"":""fullscreenenter"",""trial"":1,""time"":1080}]",NA,NA,NA,NA,NA,2,#1CD855,#FA92F8,10,0,1,40,0,624.3000000119209,39,0,504.199999988079,0,0,experiment,NA,NA,0,0.9,0.1,0,1,218,5,NA
fcp-trial,254,1000185,0.0-229.0-0.0,voc_e2,12281,"[{""event"":""fullscreenenter"",""trial"":1,""time"":1080}]",NA,NA,NA,NA,NA,0,#1CD855,#FA92F8,10,0,1,40,0,409.0999999642372,37,1,772.3000000119209,10,1,experiment,NA,NA,0,0.9,0.1,0,1,219,5,NA
fcp-trial,255,1003022,0.0-230.0-0.0,voc_e2,12281,"[{""event"":""fullscreenenter"",""trial"":1,""time"":1080}]",NA,NA,NA,NA,NA,4,#D89F1C,#3386FF,0,10,0,40,0,591,37,1,740.7000000476837,0,0,experiment,NA,NA,1,0.3,0.7,3,2,220,5,NA
fcp-trial,256,1005958,0.0-231.0-0.0,voc_e2,12281,"[{""event"":""fullscreenenter"",""trial"":1,""time"":1080}]",NA,NA,NA,NA,NA,0,#D8271C,#741CD8,0,10,1,38,1,667.5,39,0,764.1999999880791,10,0,experiment,NA,NA,2,0.5,0.5,4,5,221,5,NA
fcp-trial,257,1008730,0.0-232.0-0.0,voc_e2,12281,"[{""event"":""fullscreenenter"",""trial"":1,""time"":1080}]",NA,NA,NA,NA,NA,5,#D89F1C,#3386FF,10,0,0,40,0,848.7999999523163,39,0,417.2000000476837,0,1,experiment,NA,NA,1,0.3,0.7,3,2,222,5,NA
fcp-trial,258,1011404,0.0-233.0-0.0,voc_e2,12281,"[{""event"":""fullscreenenter"",""trial"":1,""time"":1080}]",NA,NA,NA,NA,NA,1,#1CD855,#FA92F8,10,0,1,40,0,686.0999999642372,39,0,482.89999997615814,0,0,experiment,NA,NA,0,0.9,0.1,0,1,223,5,NA
fcp-trial,259,1014553,0.0-234.0-0.0,voc_e2,12281,"[{""event"":""fullscreenenter"",""trial"":1,""time"":1080}]",NA,NA,NA,NA,NA,3,#D8271C,#741CD8,10,10,1,40,0,520.2999999523163,37,1,1123.399999976158,10,1,experiment,NA,NA,2,0.5,0.5,4,5,224,5,NA
fcp-trial,260,1017998,0.0-235.0-0.0,voc_e2,12281,"[{""event"":""fullscreenenter"",""trial"":1,""time"":1080}]",NA,NA,NA,NA,NA,6,#FA92F8,#1CD855,0,10,0,40,0,1017,37,1,922,0,0,experiment,NA,NA,0,0.1,0.9,1,0,225,5,NA
fcp-trial,261,1022013,0.0-236.0-0.0,voc_e2,12281,"[{""event"":""fullscreenenter"",""trial"":1,""time"":1080}]",NA,NA,NA,NA,NA,3,#3386FF,#D89F1C,0,10,1,40,0,1644.199999988079,39,0,863.4000000357628,10,0,experiment,NA,NA,1,0.7,0.3,2,3,226,6,NA
fcp-trial,262,1024771,0.0-237.0-0.0,voc_e2,12281,"[{""event"":""fullscreenenter"",""trial"":1,""time"":1080}]",NA,NA,NA,NA,NA,0,#D89F1C,#3386FF,0,10,0,40,0,623.6999999880791,39,0,627,10,1,experiment,NA,NA,1,0.3,0.7,3,2,227,6,NA
fcp-trial,263,1027639,0.0-238.0-0.0,voc_e2,12281,"[{""event"":""fullscreenenter"",""trial"":1,""time"":1080}]",NA,NA,NA,NA,NA,5,#741CD8,#D8271C,0,10,0,40,0,643.8999999761581,39,0,718.5999999642372,10,1,experiment,NA,NA,2,0.5,0.5,5,4,228,6,NA
fcp-trial,264,1030339,0.0-239.0-0.0,voc_e2,12281,"[{""event"":""fullscreenenter"",""trial"":1,""time"":1080}]",NA,NA,NA,NA,NA,6,#741CD8,#D8271C,10,0,0,40,0,721,37,1,470.10000002384186,10,0,experiment,NA,NA,2,0.5,0.5,5,4,229,6,NA
fcp-trial,265,1033096,0.0-240.0-0.0,voc_e2,12281,"[{""event"":""fullscreenenter"",""trial"":1,""time"":1080}]",NA,NA,NA,NA,NA,5,#1CD855,#FA92F8,10,0,1,40,0,577.8999999761581,37,1,674.4000000357628,10,1,experiment,NA,NA,0,0.9,0.1,0,1,230,6,NA
fcp-trial,266,1035574,0.0-241.0-0.0,voc_e2,12281,"[{""event"":""fullscreenenter"",""trial"":1,""time"":1080}]",NA,NA,NA,NA,NA,3,#FA92F8,#1CD855,0,10,0,40,0,440.69999998807907,39,0,530.8000000119209,10,1,experiment,NA,NA,0,0.1,0.9,1,0,231,6,NA
fcp-trial,267,1038794,0.0-242.0-0.0,voc_e2,12281,"[{""event"":""fullscreenenter"",""trial"":1,""time"":1080}]",NA,NA,NA,NA,NA,4,#3386FF,#D89F1C,10,0,1,40,0,745.3999999761581,39,0,968.5999999642372,0,0,experiment,NA,NA,1,0.7,0.3,2,3,232,6,NA
fcp-trial,268,1041414,0.0-243.0-0.0,voc_e2,12281,"[{""event"":""fullscreenenter"",""trial"":1,""time"":1080}]",NA,NA,NA,NA,NA,5,#FA92F8,#1CD855,0,10,0,40,0,651.5,39,0,460.89999997615814,10,1,experiment,NA,NA,0,0.1,0.9,1,0,233,6,NA
fcp-trial,269,1044183,0.0-244.0-0.0,voc_e2,12281,"[{""event"":""fullscreenenter"",""trial"":1,""time"":1080}]",NA,NA,NA,NA,NA,6,#1CD855,#FA92F8,10,0,1,40,0,791,39,0,473.5,0,0,experiment,NA,NA,0,0.9,0.1,0,1,234,6,NA
fcp-trial,270,1047588,0.0-245.0-0.0,voc_e2,12281,"[{""event"":""fullscreenenter"",""trial"":1,""time"":1080}]",NA,NA,NA,NA,NA,0,#3386FF,#D89F1C,10,10,1,38,1,1058.5,37,1,841.3000000119209,10,1,experiment,NA,NA,1,0.7,0.3,2,3,235,6,NA
fcp-trial,271,1050244,0.0-246.0-0.0,voc_e2,12281,"[{""event"":""fullscreenenter"",""trial"":1,""time"":1080}]",NA,NA,NA,NA,NA,4,#D8271C,#741CD8,10,10,1,40,0,690.7000000476837,39,0,460.39999997615814,10,0,experiment,NA,NA,2,0.5,0.5,4,5,236,6,NA
fcp-trial,272,1052697,0.0-247.0-0.0,voc_e2,12281,"[{""event"":""fullscreenenter"",""trial"":1,""time"":1080}]",NA,NA,NA,NA,NA,1,#741CD8,#D8271C,0,10,0,40,0,521.5999999642372,37,1,425.5,0,0,experiment,NA,NA,2,0.5,0.5,5,4,237,6,NA
fcp-trial,273,1055813,0.0-248.0-0.0,voc_e2,12281,"[{""event"":""fullscreenenter"",""trial"":1,""time"":1080}]",NA,NA,NA,NA,NA,3,#741CD8,#D8271C,0,0,0,40,0,1048.7000000476837,37,1,562.3000000119209,0,0,experiment,NA,NA,2,0.5,0.5,5,4,238,6,NA
fcp-trial,274,1058422,0.0-249.0-0.0,voc_e2,12281,"[{""event"":""fullscreenenter"",""trial"":1,""time"":1080}]",NA,NA,NA,NA,NA,4,#FA92F8,#1CD855,0,10,0,40,0,565.7000000476837,39,0,538.1999999880791,10,1,experiment,NA,NA,0,0.1,0.9,1,0,239,6,NA
fcp-trial,275,1060932,0.0-250.0-0.0,voc_e2,12281,"[{""event"":""fullscreenenter"",""trial"":1,""time"":1080}]",NA,NA,NA,NA,NA,1,#D89F1C,#3386FF,0,10,0,40,0,408.60000002384186,39,0,595.8999999761581,10,1,experiment,NA,NA,1,0.3,0.7,3,2,240,6,NA
fcp-trial,276,1063790,0.0-251.0-0.0,voc_e2,12281,"[{""event"":""fullscreenenter"",""trial"":1,""time"":1080}]",NA,NA,NA,NA,NA,0,#D8271C,#741CD8,0,0,1,40,0,601,39,0,749.8999999761581,0,0,experiment,NA,NA,2,0.5,0.5,4,5,241,6,NA
fcp-trial,277,1066572,0.0-252.0-0.0,voc_e2,12281,"[{""event"":""fullscreenenter"",""trial"":1,""time"":1080}]",NA,NA,NA,NA,NA,6,#3386FF,#D89F1C,10,0,1,40,0,725.1999999880791,39,0,551.8999999761581,0,0,experiment,NA,NA,1,0.7,0.3,2,3,242,6,NA
fcp-trial,278,1069381,0.0-253.0-0.0,voc_e2,12281,"[{""event"":""fullscreenenter"",""trial"":1,""time"":1080}]",NA,NA,NA,NA,NA,3,#D89F1C,#3386FF,0,0,0,40,0,811.6000000238419,37,1,491.5999999642372,0,0,experiment,NA,NA,1,0.3,0.7,3,2,243,6,NA
fcp-trial,279,1072700,0.0-254.0-0.0,voc_e2,12281,"[{""event"":""fullscreenenter"",""trial"":1,""time"":1080}]",NA,NA,NA,NA,NA,0,#1CD855,#FA92F8,10,0,1,38,1,893.5,39,0,920.9000000357628,0,0,experiment,NA,NA,0,0.9,0.1,0,1,244,6,NA
fcp-trial,280,1075652,0.0-255.0-0.0,voc_e2,12281,"[{""event"":""fullscreenenter"",""trial"":1,""time"":1080}]",NA,NA,NA,NA,NA,2,#741CD8,#D8271C,0,10,0,40,0,793.1999999880791,37,1,651.6000000238419,0,0,experiment,NA,NA,2,0.5,0.5,5,4,245,6,NA
fcp-trial,281,1078664,0.0-256.0-0.0,voc_e2,12281,"[{""event"":""fullscreenenter"",""trial"":1,""time"":1080}]",NA,NA,NA,NA,NA,6,#741CD8,#D8271C,10,0,0,40,0,847.3999999761581,37,1,658.8000000119209,10,0,experiment,NA,NA,2,0.5,0.5,5,4,246,6,NA
fcp-trial,282,1081422,0.0-257.0-0.0,voc_e2,12281,"[{""event"":""fullscreenenter"",""trial"":1,""time"":1080}]",NA,NA,NA,NA,NA,1,#1CD855,#FA92F8,10,0,1,40,0,701.3999999761581,39,0,548.6999999880791,0,0,experiment,NA,NA,0,0.9,0.1,0,1,247,6,NA
fcp-trial,283,1085531,0.0-258.0-0.0,voc_e2,12281,"[{""event"":""fullscreenenter"",""trial"":1,""time"":1080}]",NA,NA,NA,NA,NA,5,#3386FF,#D89F1C,10,0,1,40,0,1917.300000011921,39,0,685.6000000238419,0,0,experiment,NA,NA,1,0.7,0.3,2,3,248,6,NA
fcp-trial,284,1088936,0.0-259.0-0.0,voc_e2,12281,"[{""event"":""fullscreenenter"",""trial"":1,""time"":1080}]",NA,NA,NA,NA,NA,5,#D8271C,#741CD8,10,0,1,38,1,1237.5,37,1,663.1999999880791,10,1,experiment,NA,NA,2,0.5,0.5,4,5,249,6,NA
fcp-trial,285,1092585,0.0-260.0-0.0,voc_e2,12281,"[{""event"":""fullscreenenter"",""trial"":1,""time"":1080}]",NA,NA,NA,NA,NA,3,#FA92F8,#1CD855,0,10,0,40,0,827.5,37,1,1315.5,0,0,experiment,NA,NA,0,0.1,0.9,1,0,250,6,NA
fcp-trial,286,1095395,0.0-261.0-0.0,voc_e2,12281,"[{""event"":""fullscreenenter"",""trial"":1,""time"":1080}]",NA,NA,NA,NA,NA,2,#1CD855,#FA92F8,10,0,1,40,0,698.8000000119209,39,0,606,0,0,experiment,NA,NA,0,0.9,0.1,0,1,251,6,NA
fcp-trial,287,1098431,0.0-262.0-0.0,voc_e2,12281,"[{""event"":""fullscreenenter"",""trial"":1,""time"":1080}]",NA,NA,NA,NA,NA,2,#3386FF,#D89F1C,10,0,1,40,0,779.5,37,1,752.5999999642372,10,1,experiment,NA,NA,1,0.7,0.3,2,3,252,6,NA
fcp-trial,288,1101583,0.0-263.0-0.0,voc_e2,12281,"[{""event"":""fullscreenenter"",""trial"":1,""time"":1080}]",NA,NA,NA,NA,NA,0,#3386FF,#D89F1C,10,0,1,38,1,1167.0999999642372,37,1,479.5,10,1,experiment,NA,NA,1,0.7,0.3,2,3,253,6,NA
fcp-trial,289,1104789,0.0-264.0-0.0,voc_e2,12281,"[{""event"":""fullscreenenter"",""trial"":1,""time"":1080}]",NA,NA,NA,NA,NA,0,#1CD855,#FA92F8,10,0,1,40,0,870.6000000238419,37,1,830.7999999523163,10,1,experiment,NA,NA,0,0.9,0.1,0,1,254,6,NA
fcp-trial,290,1107539,0.0-265.0-0.0,voc_e2,12281,"[{""event"":""fullscreenenter"",""trial"":1,""time"":1080}]",NA,NA,NA,NA,NA,5,#741CD8,#D8271C,0,10,0,40,0,600.7000000476837,39,0,643.4000000357628,10,1,experiment,NA,NA,2,0.5,0.5,5,4,255,6,NA
fcp-trial,291,1110438,0.0-266.0-0.0,voc_e2,12281,"[{""event"":""fullscreenenter"",""trial"":1,""time"":1080}]",NA,NA,NA,NA,NA,3,#FA92F8,#1CD855,0,10,0,40,0,798,39,0,596.1999999880791,10,1,experiment,NA,NA,0,0.1,0.9,1,0,256,6,NA
fcp-trial,292,1113276,0.0-267.0-0.0,voc_e2,12281,"[{""event"":""fullscreenenter"",""trial"":1,""time"":1080}]",NA,NA,NA,NA,NA,4,#D89F1C,#3386FF,0,10,0,40,0,780.9000000357628,37,1,551.8000000119209,0,0,experiment,NA,NA,1,0.3,0.7,3,2,257,6,NA
fcp-trial,293,1116085,0.0-268.0-0.0,voc_e2,12281,"[{""event"":""fullscreenenter"",""trial"":1,""time"":1080}]",NA,NA,NA,NA,NA,2,#741CD8,#D8271C,0,0,0,40,0,744.1999999880791,37,1,559.3000000119209,0,0,experiment,NA,NA,2,0.5,0.5,5,4,258,6,NA
fcp-trial,294,1118632,0.0-269.0-0.0,voc_e2,12281,"[{""event"":""fullscreenenter"",""trial"":1,""time"":1080}]",NA,NA,NA,NA,NA,5,#FA92F8,#1CD855,0,10,0,40,0,544.8000000119209,37,1,498,0,0,experiment,NA,NA,0,0.1,0.9,1,0,259,6,NA
fcp-trial,295,1121509,0.0-270.0-0.0,voc_e2,12281,"[{""event"":""fullscreenenter"",""trial"":1,""time"":1080}]",NA,NA,NA,NA,NA,1,#741CD8,#D8271C,10,10,0,40,0,686.6999999880791,39,0,684.1000000238419,10,1,experiment,NA,NA,2,0.5,0.5,5,4,260,6,NA
fcp-trial,296,1124222,0.0-271.0-0.0,voc_e2,12281,"[{""event"":""fullscreenenter"",""trial"":1,""time"":1080}]",NA,NA,NA,NA,NA,1,#FA92F8,#1CD855,0,10,0,40,0,532.1000000238419,39,0,674.0999999642372,10,1,experiment,NA,NA,0,0.1,0.9,1,0,261,6,NA
fcp-trial,297,1126911,0.0-272.0-0.0,voc_e2,12281,"[{""event"":""fullscreenenter"",""trial"":1,""time"":1080}]",NA,NA,NA,NA,NA,2,#D89F1C,#3386FF,0,10,0,40,0,722.5,37,1,460.199999988079,0,0,experiment,NA,NA,1,0.3,0.7,3,2,262,6,NA
fcp-trial,298,1129476,0.0-273.0-0.0,voc_e2,12281,"[{""event"":""fullscreenenter"",""trial"":1,""time"":1080}]",NA,NA,NA,NA,NA,6,#3386FF,#D89F1C,10,10,1,40,0,530.8000000119209,37,1,529.6999999880791,10,1,experiment,NA,NA,1,0.7,0.3,2,3,263,6,NA
fcp-trial,299,1132143,0.0-274.0-0.0,voc_e2,12281,"[{""event"":""fullscreenenter"",""trial"":1,""time"":1080}]",NA,NA,NA,NA,NA,0,#741CD8,#D8271C,0,10,0,40,0,441.7000000476837,37,1,718.5,0,0,experiment,NA,NA,2,0.5,0.5,5,4,264,6,NA
fcp-trial,300,1134809,0.0-275.0-0.0,voc_e2,12281,"[{""event"":""fullscreenenter"",""trial"":1,""time"":1080}]",NA,NA,NA,NA,NA,6,#D8271C,#741CD8,10,0,1,40,0,668.5,39,0,491.89999997615814,0,0,experiment,NA,NA,2,0.5,0.5,4,5,265,6,NA
fcp-trial,301,1137353,0.0-276.0-0.0,voc_e2,12281,"[{""event"":""fullscreenenter"",""trial"":1,""time"":1080}]",NA,NA,NA,NA,NA,6,#FA92F8,#1CD855,0,0,0,40,0,438.89999997615814,37,1,596.0999999642372,0,0,experiment,NA,NA,0,0.1,0.9,1,0,266,6,NA
fcp-trial,302,1139827,0.0-277.0-0.0,voc_e2,12281,"[{""event"":""fullscreenenter"",""trial"":1,""time"":1080}]",NA,NA,NA,NA,NA,5,#D89F1C,#3386FF,0,10,0,40,0,474.19999998807907,39,0,492.9000000357628,10,1,experiment,NA,NA,1,0.3,0.7,3,2,267,6,NA
fcp-trial,303,1142742,0.0-278.0-0.0,voc_e2,12281,"[{""event"":""fullscreenenter"",""trial"":1,""time"":1080}]",NA,NA,NA,NA,NA,2,#FA92F8,#1CD855,0,0,0,40,0,859.5,39,0,551.3999999761581,0,1,experiment,NA,NA,0,0.1,0.9,1,0,268,6,NA
fcp-trial,304,1145654,0.0-279.0-0.0,voc_e2,12281,"[{""event"":""fullscreenenter"",""trial"":1,""time"":1080}]",NA,NA,NA,NA,NA,3,#3386FF,#D89F1C,10,10,1,40,0,451,37,1,955.5,10,1,experiment,NA,NA,1,0.7,0.3,2,3,269,6,NA
fcp-trial,305,1148558,0.0-280.0-0.0,voc_e2,12281,"[{""event"":""fullscreenenter"",""trial"":1,""time"":1080}]",NA,NA,NA,NA,NA,3,#741CD8,#D8271C,10,10,0,38,1,735,37,1,660.8000000119209,10,0,experiment,NA,NA,2,0.5,0.5,5,4,270,6,NA
fcp-trial,306,1151809,0.0-281.0-0.0,voc_e2,12281,"[{""event"":""fullscreenenter"",""trial"":1,""time"":1080}]",NA,NA,NA,NA,NA,4,#D8271C,#741CD8,0,0,1,40,0,1070,37,1,672.5,0,1,experiment,NA,NA,2,0.5,0.5,4,5,271,7,NA
fcp-trial,307,1154329,0.0-282.0-0.0,voc_e2,12281,"[{""event"":""fullscreenenter"",""trial"":1,""time"":1080}]",NA,NA,NA,NA,NA,1,#D89F1C,#3386FF,0,0,0,40,0,522.0999999642372,39,0,492.60000002384186,0,1,experiment,NA,NA,1,0.3,0.7,3,2,272,7,NA
fcp-trial,308,1157367,0.0-283.0-0.0,voc_e2,12281,"[{""event"":""fullscreenenter"",""trial"":1,""time"":1080}]",NA,NA,NA,NA,NA,4,#FA92F8,#1CD855,10,10,0,40,0,960.6000000238419,39,0,572.6999999880791,10,1,experiment,NA,NA,0,0.1,0.9,1,0,273,7,NA
fcp-trial,309,1160214,0.0-284.0-0.0,voc_e2,12281,"[{""event"":""fullscreenenter"",""trial"":1,""time"":1080}]",NA,NA,NA,NA,NA,6,#D89F1C,#3386FF,0,10,0,40,0,677.8999999761581,39,0,663.4000000357628,10,1,experiment,NA,NA,1,0.3,0.7,3,2,274,7,NA
fcp-trial,310,1163274,0.0-285.0-0.0,voc_e2,12281,"[{""event"":""fullscreenenter"",""trial"":1,""time"":1080}]",NA,NA,NA,NA,NA,3,#D8271C,#741CD8,10,0,1,38,1,1072.5,37,1,481.89999997615814,10,1,experiment,NA,NA,2,0.5,0.5,4,5,275,7,NA
fcp-trial,311,1166041,0.0-286.0-0.0,voc_e2,12281,"[{""event"":""fullscreenenter"",""trial"":1,""time"":1080}]",NA,NA,NA,NA,NA,3,#1CD855,#FA92F8,10,10,1,40,0,689.1999999880791,39,0,570.5999999642372,10,0,experiment,NA,NA,0,0.9,0.1,0,1,276,7,NA
fcp-trial,312,1168620,0.0-287.0-0.0,voc_e2,12281,"[{""event"":""fullscreenenter"",""trial"":1,""time"":1080}]",NA,NA,NA,NA,NA,4,#3386FF,#D89F1C,0,0,1,40,0,532.8000000119209,39,0,541,0,0,experiment,NA,NA,1,0.7,0.3,2,3,277,7,NA
fcp-trial,313,1172185,0.0-288.0-0.0,voc_e2,12281,"[{""event"":""fullscreenenter"",""trial"":1,""time"":1080}]",NA,NA,NA,NA,NA,2,#FA92F8,#1CD855,0,10,0,40,0,1060.6000000238419,39,0,999.100000023842,10,1,experiment,NA,NA,0,0.1,0.9,1,0,278,7,NA
fcp-trial,314,1175268,0.0-289.0-0.0,voc_e2,12281,"[{""event"":""fullscreenenter"",""trial"":1,""time"":1080}]",NA,NA,NA,NA,NA,5,#D8271C,#741CD8,0,10,1,40,0,901.6999999880791,39,0,671.2000000476837,10,0,experiment,NA,NA,2,0.5,0.5,4,5,279,7,NA
fcp-trial,315,1178069,0.0-290.0-0.0,voc_e2,12281,"[{""event"":""fullscreenenter"",""trial"":1,""time"":1080}]",NA,NA,NA,NA,NA,0,#3386FF,#D89F1C,10,0,1,40,0,692.5,37,1,603.6999999880791,10,1,experiment,NA,NA,1,0.7,0.3,2,3,280,7,NA
fcp-trial,316,1180817,0.0-291.0-0.0,voc_e2,12281,"[{""event"":""fullscreenenter"",""trial"":1,""time"":1080}]",NA,NA,NA,NA,NA,1,#FA92F8,#1CD855,0,10,0,40,0,746.1999999880791,37,1,494.60000002384186,0,0,experiment,NA,NA,0,0.1,0.9,1,0,281,7,NA
fcp-trial,317,1184135,0.0-292.0-0.0,voc_e2,12281,"[{""event"":""fullscreenenter"",""trial"":1,""time"":1080}]",NA,NA,NA,NA,NA,0,#1CD855,#FA92F8,10,0,1,38,1,1092.9000000357628,39,0,720.0999999642372,0,0,experiment,NA,NA,0,0.9,0.1,0,1,282,7,NA
fcp-trial,318,1186767,0.0-293.0-0.0,voc_e2,12281,"[{""event"":""fullscreenenter"",""trial"":1,""time"":1080}]",NA,NA,NA,NA,NA,4,#FA92F8,#1CD855,0,10,0,40,0,653.5,39,0,472.699999988079,10,1,experiment,NA,NA,0,0.1,0.9,1,0,283,7,NA
fcp-trial,319,1189399,0.0-294.0-0.0,voc_e2,12281,"[{""event"":""fullscreenenter"",""trial"":1,""time"":1080}]",NA,NA,NA,NA,NA,4,#741CD8,#D8271C,10,0,0,40,0,553.6999999880791,39,0,569.9000000357628,0,1,experiment,NA,NA,2,0.5,0.5,5,4,284,7,NA
fcp-trial,320,1191773,0.0-295.0-0.0,voc_e2,12281,"[{""event"":""fullscreenenter"",""trial"":1,""time"":1080}]",NA,NA,NA,NA,NA,2,#3386FF,#D89F1C,10,0,1,40,0,387,39,0,482.10000002384186,0,0,experiment,NA,NA,1,0.7,0.3,2,3,285,7,NA
fcp-trial,321,1194304,0.0-296.0-0.0,voc_e2,12281,"[{""event"":""fullscreenenter"",""trial"":1,""time"":1080}]",NA,NA,NA,NA,NA,1,#741CD8,#D8271C,10,10,0,40,0,530.7999999523163,37,1,493.199999988079,10,0,experiment,NA,NA,2,0.5,0.5,5,4,286,7,NA
fcp-trial,322,1197185,0.0-297.0-0.0,voc_e2,12281,"[{""event"":""fullscreenenter"",""trial"":1,""time"":1080}]",NA,NA,NA,NA,NA,5,#1CD855,#FA92F8,10,10,1,40,0,701.5,37,1,673.9000000357628,10,1,experiment,NA,NA,0,0.9,0.1,0,1,287,7,NA
fcp-trial,323,1199998,0.0-298.0-0.0,voc_e2,12281,"[{""event"":""fullscreenenter"",""trial"":1,""time"":1080}]",NA,NA,NA,NA,NA,1,#D89F1C,#3386FF,10,10,0,40,0,836.1999999880791,39,0,470.5,10,1,experiment,NA,NA,1,0.3,0.7,3,2,288,7,NA
fcp-trial,324,1202756,0.0-299.0-0.0,voc_e2,12281,"[{""event"":""fullscreenenter"",""trial"":1,""time"":1080}]",NA,NA,NA,NA,NA,6,#D8271C,#741CD8,0,0,1,38,1,844.8999999761581,37,1,404.9000000357628,0,1,experiment,NA,NA,2,0.5,0.5,4,5,289,7,NA
fcp-trial,325,1205347,0.0-300.0-0.0,voc_e2,12281,"[{""event"":""fullscreenenter"",""trial"":1,""time"":1080}]",NA,NA,NA,NA,NA,3,#3386FF,#D89F1C,10,0,1,40,0,666,37,1,418.800000011921,10,1,experiment,NA,NA,1,0.7,0.3,2,3,290,7,NA
fcp-trial,326,1207952,0.0-301.0-0.0,voc_e2,12281,"[{""event"":""fullscreenenter"",""trial"":1,""time"":1080}]",NA,NA,NA,NA,NA,6,#1CD855,#FA92F8,10,0,1,40,0,607.2000000476837,39,0,492.699999988079,0,0,experiment,NA,NA,0,0.9,0.1,0,1,291,7,NA
fcp-trial,327,1210708,0.0-302.0-0.0,voc_e2,12281,"[{""event"":""fullscreenenter"",""trial"":1,""time"":1080}]",NA,NA,NA,NA,NA,5,#3386FF,#D89F1C,10,10,1,40,0,613.1999999880791,37,1,637.1999999880791,10,1,experiment,NA,NA,1,0.7,0.3,2,3,292,7,NA
fcp-trial,328,1213275,0.0-303.0-0.0,voc_e2,12281,"[{""event"":""fullscreenenter"",""trial"":1,""time"":1080}]",NA,NA,NA,NA,NA,2,#741CD8,#D8271C,0,0,0,40,0,658.6000000238419,39,0,404,0,1,experiment,NA,NA,2,0.5,0.5,5,4,293,7,NA
fcp-trial,329,1215909,0.0-304.0-0.0,voc_e2,12281,"[{""event"":""fullscreenenter"",""trial"":1,""time"":1080}]",NA,NA,NA,NA,NA,0,#D8271C,#741CD8,0,0,1,40,0,510,39,0,617,0,0,experiment,NA,NA,2,0.5,0.5,4,5,294,7,NA
fcp-trial,330,1218440,0.0-305.0-0.0,voc_e2,12281,"[{""event"":""fullscreenenter"",""trial"":1,""time"":1080}]",NA,NA,NA,NA,NA,5,#D89F1C,#3386FF,0,10,0,40,0,532,37,1,494,0,0,experiment,NA,NA,1,0.3,0.7,3,2,295,7,NA
fcp-trial,331,1221568,0.0-306.0-0.0,voc_e2,12281,"[{""event"":""fullscreenenter"",""trial"":1,""time"":1080}]",NA,NA,NA,NA,NA,5,#D8271C,#741CD8,0,0,1,40,0,608.1999999880791,39,0,1011.100000023842,0,0,experiment,NA,NA,2,0.5,0.5,4,5,296,7,NA
fcp-trial,332,1224144,0.0-307.0-0.0,voc_e2,12281,"[{""event"":""fullscreenenter"",""trial"":1,""time"":1080}]",NA,NA,NA,NA,NA,2,#1CD855,#FA92F8,10,0,1,40,0,611,37,1,459.199999988079,10,1,experiment,NA,NA,0,0.9,0.1,0,1,297,7,NA
fcp-trial,333,1226656,0.0-308.0-0.0,voc_e2,12281,"[{""event"":""fullscreenenter"",""trial"":1,""time"":1080}]",NA,NA,NA,NA,NA,3,#741CD8,#D8271C,0,0,0,40,0,605.7000000476837,39,0,399.199999988079,0,1,experiment,NA,NA,2,0.5,0.5,5,4,298,7,NA
fcp-trial,334,1229028,0.0-309.0-0.0,voc_e2,12281,"[{""event"":""fullscreenenter"",""trial"":1,""time"":1080}]",NA,NA,NA,NA,NA,3,#1CD855,#FA92F8,10,0,1,40,0,439.9000000357628,37,1,426.9000000357628,10,1,experiment,NA,NA,0,0.9,0.1,0,1,299,7,NA
fcp-trial,335,1232142,0.0-310.0-0.0,voc_e2,12281,"[{""event"":""fullscreenenter"",""trial"":1,""time"":1080}]",NA,NA,NA,NA,NA,0,#3386FF,#D89F1C,10,0,1,38,1,678.3000000119209,37,1,932.1999999880792,10,1,experiment,NA,NA,1,0.7,0.3,2,3,300,7,NA
fcp-trial,336,1234899,0.0-311.0-0.0,voc_e2,12281,"[{""event"":""fullscreenenter"",""trial"":1,""time"":1080}]",NA,NA,NA,NA,NA,1,#FA92F8,#1CD855,0,10,0,40,0,870.4000000357628,37,1,381.300000011921,0,0,experiment,NA,NA,0,0.1,0.9,1,0,301,7,NA
fcp-trial,337,1237580,0.0-312.0-0.0,voc_e2,12281,"[{""event"":""fullscreenenter"",""trial"":1,""time"":1080}]",NA,NA,NA,NA,NA,6,#3386FF,#D89F1C,10,0,1,40,0,770,37,1,405.800000011921,10,1,experiment,NA,NA,1,0.7,0.3,2,3,302,7,NA
fcp-trial,338,1240537,0.0-313.0-0.0,voc_e2,12281,"[{""event"":""fullscreenenter"",""trial"":1,""time"":1080}]",NA,NA,NA,NA,NA,1,#D8271C,#741CD8,0,0,1,40,0,869,39,0,582.8999999761581,0,0,experiment,NA,NA,2,0.5,0.5,4,5,303,7,NA
fcp-trial,339,1243654,0.0-314.0-0.0,voc_e2,12281,"[{""event"":""fullscreenenter"",""trial"":1,""time"":1080}]",NA,NA,NA,NA,NA,5,#FA92F8,#1CD855,10,10,0,40,0,801.3000000119209,39,0,809.8999999761581,10,1,experiment,NA,NA,0,0.1,0.9,1,0,304,7,NA
fcp-trial,340,1246062,0.0-315.0-0.0,voc_e2,12281,"[{""event"":""fullscreenenter"",""trial"":1,""time"":1080}]",NA,NA,NA,NA,NA,3,#D89F1C,#3386FF,0,0,0,40,0,474.9000000357628,37,1,428.9000000357628,0,0,experiment,NA,NA,1,0.3,0.7,3,2,305,7,NA
fcp-trial,341,1248738,0.0-316.0-0.0,voc_e2,12281,"[{""event"":""fullscreenenter"",""trial"":1,""time"":1080}]",NA,NA,NA,NA,NA,2,#3386FF,#D89F1C,10,10,1,40,0,610.0999999642372,37,1,560.1999999880791,10,1,experiment,NA,NA,1,0.7,0.3,2,3,306,7,NA
fcp-trial,342,1251294,0.0-317.0-0.0,voc_e2,12281,"[{""event"":""fullscreenenter"",""trial"":1,""time"":1080}]",NA,NA,NA,NA,NA,1,#D89F1C,#3386FF,0,10,0,40,0,531.3999999761581,39,0,518,10,1,experiment,NA,NA,1,0.3,0.7,3,2,307,7,NA
fcp-trial,343,1253937,0.0-318.0-0.0,voc_e2,12281,"[{""event"":""fullscreenenter"",""trial"":1,""time"":1080}]",NA,NA,NA,NA,NA,6,#D8271C,#741CD8,10,0,1,40,0,632.1999999880791,37,1,503.199999988079,10,1,experiment,NA,NA,2,0.5,0.5,4,5,308,7,NA
fcp-trial,344,1256682,0.0-319.0-0.0,voc_e2,12281,"[{""event"":""fullscreenenter"",""trial"":1,""time"":1080}]",NA,NA,NA,NA,NA,0,#1CD855,#FA92F8,10,0,1,40,0,554.8999999761581,37,1,685.3000000119209,10,1,experiment,NA,NA,0,0.9,0.1,0,1,309,7,NA
fcp-trial,345,1259136,0.0-320.0-0.0,voc_e2,12281,"[{""event"":""fullscreenenter"",""trial"":1,""time"":1080}]",NA,NA,NA,NA,NA,4,#D8271C,#741CD8,0,0,1,40,0,497.7000000476837,37,1,449.699999988079,0,1,experiment,NA,NA,2,0.5,0.5,4,5,310,7,NA
fcp-trial,346,1261681,0.0-321.0-0.0,voc_e2,12281,"[{""event"":""fullscreenenter"",""trial"":1,""time"":1080}]",NA,NA,NA,NA,NA,4,#3386FF,#D89F1C,10,0,1,40,0,676.1000000238419,37,1,360.7000000476837,10,1,experiment,NA,NA,1,0.7,0.3,2,3,311,7,NA
fcp-trial,347,1264075,0.0-322.0-0.0,voc_e2,12281,"[{""event"":""fullscreenenter"",""trial"":1,""time"":1080}]",NA,NA,NA,NA,NA,0,#D8271C,#741CD8,10,10,1,40,0,339.30000001192093,37,1,549.6999999880791,10,1,experiment,NA,NA,2,0.5,0.5,4,5,312,7,NA
fcp-trial,348,1266652,0.0-323.0-0.0,voc_e2,12281,"[{""event"":""fullscreenenter"",""trial"":1,""time"":1080}]",NA,NA,NA,NA,NA,6,#1CD855,#FA92F8,10,0,1,40,0,621.3999999761581,37,1,449.9000000357628,10,1,experiment,NA,NA,0,0.9,0.1,0,1,313,7,NA
fcp-trial,349,1269271,0.0-324.0-0.0,voc_e2,12281,"[{""event"":""fullscreenenter"",""trial"":1,""time"":1080}]",NA,NA,NA,NA,NA,4,#FA92F8,#1CD855,0,10,0,40,0,418.39999997615814,39,0,695.6000000238419,10,1,experiment,NA,NA,0,0.1,0.9,1,0,314,7,NA
fcp-trial,350,1271511,0.0-325.0-0.0,voc_e2,12281,"[{""event"":""fullscreenenter"",""trial"":1,""time"":1080}]",NA,NA,NA,NA,NA,2,#D8271C,#741CD8,0,10,1,40,0,353.5,37,1,381,0,1,experiment,NA,NA,2,0.5,0.5,4,5,315,7,NA
audio-instructions,351,1278432,0.0-326.0,voc_e2,12281,"[{""event"":""fullscreenenter"",""trial"":1,""time"":1080}]",NA,562.2999999523163,static/audio/finished.wav,NA,0,NA,NA,NA,NA,NA,NA,NA,NA,NA,NA,NA,NA,NA,NA,NA,NA,NA,NA,NA,NA,NA,NA,NA,NA,NA
audio-instructions,352,1289726,0.0-327.0-0.0,voc_e2,12281,"[{""event"":""fullscreenenter"",""trial"":1,""time"":1080}]",NA,455.800000011921,static/audio/explicit1.wav,NA,0,NA,NA,NA,NA,NA,NA,NA,NA,NA,NA,NA,NA,NA,NA,NA,NA,NA,NA,NA,NA,NA,NA,NA,NA,NA
audio-instructions,353,1298336,0.0-327.0-1.0,voc_e2,12281,"[{""event"":""fullscreenenter"",""trial"":1,""time"":1080}]",NA,1013.9000000357628,static/audio/explicit2.wav,NA,0,NA,NA,NA,NA,NA,NA,NA,NA,NA,NA,NA,NA,NA,NA,NA,NA,NA,NA,NA,NA,NA,NA,NA,NA,NA
image-slider-response,354,1302759,0.0-328.0,voc_e2,12281,"[{""event"":""fullscreenenter"",""trial"":1,""time"":1080}]",NA,4421,static/img/machines/machine5.png,NA,NA,NA,NA,NA,NA,NA,NA,NA,NA,NA,NA,NA,NA,NA,NA,explicit,NA,NA,NA,NA,NA,NA,NA,NA,NA,5
image-slider-response,355,1306779,0.0-329.0,voc_e2,12281,"[{""event"":""fullscreenenter"",""trial"":1,""time"":1080}]",NA,4017.800000011921,static/img/machines/machine2.png,NA,NA,NA,NA,NA,NA,NA,NA,NA,NA,NA,NA,NA,NA,NA,NA,explicit,NA,NA,NA,NA,NA,NA,NA,NA,NA,3
image-slider-response,356,1310183,0.0-330.0,voc_e2,12281,"[{""event"":""fullscreenenter"",""trial"":1,""time"":1080}]",NA,3402.5,static/img/machines/machine6.png,NA,NA,NA,NA,NA,NA,NA,NA,NA,NA,NA,NA,NA,NA,NA,NA,explicit,NA,NA,NA,NA,NA,NA,NA,NA,NA,6
image-slider-response,357,1314488,0.0-331.0,voc_e2,12281,"[{""event"":""fullscreenenter"",""trial"":1,""time"":1080}]",NA,4303.600000023842,static/img/machines/machine4.png,NA,NA,NA,NA,NA,NA,NA,NA,NA,NA,NA,NA,NA,NA,NA,NA,explicit,NA,NA,NA,NA,NA,NA,NA,NA,NA,4
image-slider-response,358,1317992,0.0-332.0,voc_e2,12281,"[{""event"":""fullscreenenter"",""trial"":1,""time"":1080}]",NA,3502.400000035763,static/img/machines/machine1.png,NA,NA,NA,NA,NA,NA,NA,NA,NA,NA,NA,NA,NA,NA,NA,NA,explicit,NA,NA,NA,NA,NA,NA,NA,NA,NA,8
image-slider-response,359,1321679,0.0-333.0,voc_e2,12281,"[{""event"":""fullscreenenter"",""trial"":1,""time"":1080}]",NA,3684.199999988079,static/img/machines/machine3.png,NA,NA,NA,NA,NA,NA,NA,NA,NA,NA,NA,NA,NA,NA,NA,NA,explicit,NA,NA,NA,NA,NA,NA,NA,NA,NA,7
