trial_type,trial_index,time_elapsed,internal_node_id,task_version,subject_id,interactions,success,rt,stimulus,key_press,button_pressed,offer,arcade_color_L,arcade_color_R,arcade_outcome_L,arcade_outcome_R,correct,stage_1_key,stage_1_choice,stage_1_rt,stage_2_key,stage_2_choice,stage_2_rt,stage_3_outcome,accuracy,phase,responses,num_errors,context,reward_prob_L,reward_prob_R,arcade_id_L,arcade_id_R,trial,block,response
pavlovia,0,63,0.0-0.0,voc_e2,11724,[],NA,NA,NA,NA,NA,NA,NA,NA,NA,NA,NA,NA,NA,NA,NA,NA,NA,NA,NA,NA,NA,NA,NA,NA,NA,NA,NA,NA,NA,NA
fullscreen,1,2435,0.0-1.0,voc_e2,11724,"[{""event"":""fullscreenenter"",""trial"":1,""time"":1450}]",TRUE,NA,NA,NA,NA,NA,NA,NA,NA,NA,NA,NA,NA,NA,NA,NA,NA,NA,NA,NA,NA,NA,NA,NA,NA,NA,NA,NA,NA,NA
audio-keyboard-response,2,5507,0.0-2.0,voc_e2,11724,"[{""event"":""fullscreenenter"",""trial"":1,""time"":1450}]",NA,2850,static/audio/beep_loop.wav,32,NA,NA,NA,NA,NA,NA,NA,NA,NA,NA,NA,NA,NA,NA,NA,NA,NA,NA,NA,NA,NA,NA,NA,NA,NA,NA
audio-test,3,7025,0.0-3.0,voc_e2,11724,"[{""event"":""fullscreenenter"",""trial"":1,""time"":1450}]",NA,NA,static/audio/turtle.wav,NA,3,NA,NA,NA,NA,NA,NA,NA,NA,NA,NA,NA,NA,NA,NA,NA,NA,NA,NA,NA,NA,NA,NA,NA,NA,NA
audio-test,4,9192,0.0-4.0,voc_e2,11724,"[{""event"":""fullscreenenter"",""trial"":1,""time"":1450}]",NA,NA,static/audio/shark.wav,NA,2,NA,NA,NA,NA,NA,NA,NA,NA,NA,NA,NA,NA,NA,NA,NA,NA,NA,NA,NA,NA,NA,NA,NA,NA,NA
audio-instructions,5,15883,0.0-5.0-0.0,voc_e2,11724,"[{""event"":""fullscreenenter"",""trial"":1,""time"":1450}]",NA,905.3000000119208,static/audio/instructions1.wav,NA,0,NA,NA,NA,NA,NA,NA,NA,NA,NA,NA,NA,NA,NA,NA,NA,NA,NA,NA,NA,NA,NA,NA,NA,NA,NA
audio-instructions,6,25760,0.0-5.0-1.0,voc_e2,11724,"[{""event"":""fullscreenenter"",""trial"":1,""time"":1450}]",NA,3131.300000011921,static/audio/instructions2.wav,NA,0,NA,NA,NA,NA,NA,NA,NA,NA,NA,NA,NA,NA,NA,NA,NA,NA,NA,NA,NA,NA,NA,NA,NA,NA,NA
audio-instructions,7,32636,0.0-5.0-2.0,voc_e2,11724,"[{""event"":""fullscreenenter"",""trial"":1,""time"":1450}]",NA,1073.7000000178814,static/audio/instructions3.wav,NA,0,NA,NA,NA,NA,NA,NA,NA,NA,NA,NA,NA,NA,NA,NA,NA,NA,NA,NA,NA,NA,NA,NA,NA,NA,NA
audio-instructions,8,46660,0.0-5.0-3.0,voc_e2,11724,"[{""event"":""fullscreenenter"",""trial"":1,""time"":1450}]",NA,793.5,static/audio/instructions4.wav,NA,0,NA,NA,NA,NA,NA,NA,NA,NA,NA,NA,NA,NA,NA,NA,NA,NA,NA,NA,NA,NA,NA,NA,NA,NA,NA
audio-instructions,9,57473,0.0-5.0-4.0,voc_e2,11724,"[{""event"":""fullscreenenter"",""trial"":1,""time"":1450}]",NA,1430,static/audio/instructions5.wav,NA,0,NA,NA,NA,NA,NA,NA,NA,NA,NA,NA,NA,NA,NA,NA,NA,NA,NA,NA,NA,NA,NA,NA,NA,NA,NA
fcp-practice,10,60191,0.0-5.0-5.0-0.0,voc_e2,11724,"[{""event"":""fullscreenenter"",""trial"":1,""time"":1450}]",NA,NA,NA,NA,NA,NA,#EDC948,#46d3c8,10,0,1,null,null,null,37,1,1201.4000000059605,10,1,practice,NA,NA,NA,NA,NA,NA,NA,NA,NA,NA
fcp-practice,11,62463,0.0-5.0-5.0-1.0,voc_e2,11724,"[{""event"":""fullscreenenter"",""trial"":1,""time"":1450}]",NA,NA,NA,NA,NA,NA,#EDC948,#46d3c8,10,0,1,null,null,null,37,1,763.6999999880791,10,1,practice,NA,NA,NA,NA,NA,NA,NA,NA,NA,NA
fcp-practice,12,64342,0.0-5.0-5.0-2.0,voc_e2,11724,"[{""event"":""fullscreenenter"",""trial"":1,""time"":1450}]",NA,NA,NA,NA,NA,NA,#EDC948,#46d3c8,0,10,1,null,null,null,37,1,370.300000011921,0,1,practice,NA,NA,NA,NA,NA,NA,NA,NA,NA,NA
fcp-practice,13,66197,0.0-5.0-5.0-3.0,voc_e2,11724,"[{""event"":""fullscreenenter"",""trial"":1,""time"":1450}]",NA,NA,NA,NA,NA,NA,#EDC948,#46d3c8,10,0,1,null,null,null,37,1,348.10000002384186,10,1,practice,NA,NA,NA,NA,NA,NA,NA,NA,NA,NA
fcp-practice,14,67960,0.0-5.0-5.0-4.0,voc_e2,11724,"[{""event"":""fullscreenenter"",""trial"":1,""time"":1450}]",NA,NA,NA,NA,NA,NA,#EDC948,#46d3c8,10,0,1,null,null,null,37,1,247.89999997615817,10,1,practice,NA,NA,NA,NA,NA,NA,NA,NA,NA,NA
audio-instructions,15,87275,0.0-5.0-6.0,voc_e2,11724,"[{""event"":""fullscreenenter"",""trial"":1,""time"":1450}]",NA,1306.300000011921,static/audio/instructions6.wav,NA,0,NA,NA,NA,NA,NA,NA,NA,NA,NA,NA,NA,NA,NA,NA,NA,NA,NA,NA,NA,NA,NA,NA,NA,NA,NA
audio-instructions,16,108041,0.0-5.0-7.0,voc_e2,11724,"[{""event"":""fullscreenenter"",""trial"":1,""time"":1450}]",NA,1563.199999988079,static/audio/instructions7.wav,NA,0,NA,NA,NA,NA,NA,NA,NA,NA,NA,NA,NA,NA,NA,NA,NA,NA,NA,NA,NA,NA,NA,NA,NA,NA,NA
audio-instructions,17,118684,0.0-5.0-8.0,voc_e2,11724,"[{""event"":""fullscreenenter"",""trial"":1,""time"":1450}]",NA,1170.9000000059605,static/audio/instructions8.wav,NA,0,NA,NA,NA,NA,NA,NA,NA,NA,NA,NA,NA,NA,NA,NA,NA,NA,NA,NA,NA,NA,NA,NA,NA,NA,NA
fcp-comprehension,18,128339,0.0-5.0-9.0,voc_e2,11724,"[{""event"":""fullscreenenter"",""trial"":1,""time"":1450}]",NA,9653.19999998808,NA,NA,NA,NA,NA,NA,NA,NA,NA,NA,NA,NA,NA,NA,NA,NA,NA,NA,"false,true",1,NA,NA,NA,NA,NA,NA,NA,NA
audio-instructions,19,133992,0.0-5.1-0.1,voc_e2,11724,"[{""event"":""fullscreenenter"",""trial"":1,""time"":1450}]",NA,868.5999999940395,static/audio/instructions1.wav,NA,0,NA,NA,NA,NA,NA,NA,NA,NA,NA,NA,NA,NA,NA,NA,NA,NA,NA,NA,NA,NA,NA,NA,NA,NA,NA
audio-instructions,20,141711,0.0-5.1-1.1,voc_e2,11724,"[{""event"":""fullscreenenter"",""trial"":1,""time"":1450}]",NA,977.2000000178814,static/audio/instructions2.wav,NA,0,NA,NA,NA,NA,NA,NA,NA,NA,NA,NA,NA,NA,NA,NA,NA,NA,NA,NA,NA,NA,NA,NA,NA,NA,NA
audio-instructions,21,148040,0.0-5.1-2.1,voc_e2,11724,"[{""event"":""fullscreenenter"",""trial"":1,""time"":1450}]",NA,525.7999999821186,static/audio/instructions3.wav,NA,0,NA,NA,NA,NA,NA,NA,NA,NA,NA,NA,NA,NA,NA,NA,NA,NA,NA,NA,NA,NA,NA,NA,NA,NA,NA
audio-instructions,22,162583,0.0-5.1-3.1,voc_e2,11724,"[{""event"":""fullscreenenter"",""trial"":1,""time"":1450}]",NA,1316.7999999821186,static/audio/instructions4.wav,NA,0,NA,NA,NA,NA,NA,NA,NA,NA,NA,NA,NA,NA,NA,NA,NA,NA,NA,NA,NA,NA,NA,NA,NA,NA,NA
audio-instructions,23,172424,0.0-5.1-4.1,voc_e2,11724,"[{""event"":""fullscreenenter"",""trial"":1,""time"":1450}]",NA,452.199999988079,static/audio/instructions5.wav,NA,0,NA,NA,NA,NA,NA,NA,NA,NA,NA,NA,NA,NA,NA,NA,NA,NA,NA,NA,NA,NA,NA,NA,NA,NA,NA
fcp-practice,24,174289,0.0-5.1-5.1-0.1,voc_e2,11724,"[{""event"":""fullscreenenter"",""trial"":1,""time"":1450}]",NA,NA,NA,NA,NA,NA,#EDC948,#46d3c8,10,0,1,null,null,null,37,1,358.80000001192093,10,1,practice,NA,NA,NA,NA,NA,NA,NA,NA,NA,NA
fcp-practice,25,175913,0.0-5.1-5.1-1.1,voc_e2,11724,"[{""event"":""fullscreenenter"",""trial"":1,""time"":1450}]",NA,NA,NA,NA,NA,NA,#EDC948,#46d3c8,10,0,1,null,null,null,37,1,113.2000000178814,10,1,practice,NA,NA,NA,NA,NA,NA,NA,NA,NA,NA
fcp-practice,26,177939,0.0-5.1-5.1-2.1,voc_e2,11724,"[{""event"":""fullscreenenter"",""trial"":1,""time"":1450}]",NA,NA,NA,NA,NA,NA,#EDC948,#46d3c8,0,10,1,null,null,null,37,1,515.0999999940395,0,1,practice,NA,NA,NA,NA,NA,NA,NA,NA,NA,NA
fcp-practice,27,179489,0.0-5.1-5.1-3.1,voc_e2,11724,"[{""event"":""fullscreenenter"",""trial"":1,""time"":1450}]",NA,NA,NA,NA,NA,NA,#EDC948,#46d3c8,10,0,1,null,null,null,37,1,41.900000005960464,10,1,practice,NA,NA,NA,NA,NA,NA,NA,NA,NA,NA
fcp-practice,28,181015,0.0-5.1-5.1-4.1,voc_e2,11724,"[{""event"":""fullscreenenter"",""trial"":1,""time"":1450}]",NA,NA,NA,NA,NA,NA,#EDC948,#46d3c8,10,0,1,null,null,null,37,1,22,10,1,practice,NA,NA,NA,NA,NA,NA,NA,NA,NA,NA
audio-instructions,29,200086,0.0-5.1-6.1,voc_e2,11724,"[{""event"":""fullscreenenter"",""trial"":1,""time"":1450}]",NA,1063.0999999940395,static/audio/instructions6.wav,NA,0,NA,NA,NA,NA,NA,NA,NA,NA,NA,NA,NA,NA,NA,NA,NA,NA,NA,NA,NA,NA,NA,NA,NA,NA,NA
audio-instructions,30,221292,0.0-5.1-7.1,voc_e2,11724,"[{""event"":""fullscreenenter"",""trial"":1,""time"":1450}]",NA,2002.899999976158,static/audio/instructions7.wav,NA,0,NA,NA,NA,NA,NA,NA,NA,NA,NA,NA,NA,NA,NA,NA,NA,NA,NA,NA,NA,NA,NA,NA,NA,NA,NA
audio-instructions,31,231391,0.0-5.1-8.1,voc_e2,11724,"[{""event"":""fullscreenenter"",""trial"":1,""time"":1450}]",NA,625.6000000238419,static/audio/instructions8.wav,NA,0,NA,NA,NA,NA,NA,NA,NA,NA,NA,NA,NA,NA,NA,NA,NA,NA,NA,NA,NA,NA,NA,NA,NA,NA,NA
fcp-comprehension,32,240408,0.0-5.1-9.1,voc_e2,11724,"[{""event"":""fullscreenenter"",""trial"":1,""time"":1450}]",NA,9015.399999976158,NA,NA,NA,NA,NA,NA,NA,NA,NA,NA,NA,NA,NA,NA,NA,NA,NA,NA,"true,true",0,NA,NA,NA,NA,NA,NA,NA,NA
audio-instructions,33,247256,0.0-6.0-0.0,voc_e2,11724,"[{""event"":""fullscreenenter"",""trial"":1,""time"":1450}]",NA,1298.199999988079,static/audio/instructions9.wav,NA,0,NA,NA,NA,NA,NA,NA,NA,NA,NA,NA,NA,NA,NA,NA,NA,NA,NA,NA,NA,NA,NA,NA,NA,NA,NA
audio-instructions,34,263436,0.0-6.0-1.0,voc_e2,11724,"[{""event"":""fullscreenenter"",""trial"":1,""time"":1450}]",NA,4062.400000005961,static/audio/instructions10.wav,NA,0,NA,NA,NA,NA,NA,NA,NA,NA,NA,NA,NA,NA,NA,NA,NA,NA,NA,NA,NA,NA,NA,NA,NA,NA,NA
fcp-trial,35,272662,0.0-6.0-2.0,voc_e2,11724,"[{""event"":""fullscreenenter"",""trial"":1,""time"":1450}]",NA,NA,NA,NA,NA,0,#EDC948,#46d3c8,10,10,1,38,1,6047,37,1,1662.7999999821186,10,1,practice,NA,NA,NA,NA,NA,NA,NA,NA,NA,NA
audio-instructions,36,285834,0.0-6.0-3.0,voc_e2,11724,"[{""event"":""fullscreenenter"",""trial"":1,""time"":1450}]",NA,2159.9000000059605,static/audio/instructions11.wav,NA,0,NA,NA,NA,NA,NA,NA,NA,NA,NA,NA,NA,NA,NA,NA,NA,NA,NA,NA,NA,NA,NA,NA,NA,NA,NA
fcp-trial,37,289148,0.0-6.0-4.0,voc_e2,11724,"[{""event"":""fullscreenenter"",""trial"":1,""time"":1450}]",NA,NA,NA,NA,NA,6,#EDC948,#46d3c8,10,10,1,40,0,889.3000000119209,37,1,909.9000000059604,10,1,practice,NA,NA,NA,NA,NA,NA,NA,NA,NA,NA
audio-instructions,38,309915,0.0-6.0-5.0,voc_e2,11724,"[{""event"":""fullscreenenter"",""trial"":1,""time"":1450}]",NA,2074.800000011921,static/audio/instructions12.wav,NA,0,NA,NA,NA,NA,NA,NA,NA,NA,NA,NA,NA,NA,NA,NA,NA,NA,NA,NA,NA,NA,NA,NA,NA,NA,NA
audio-instructions,39,318329,0.0-6.0-6.0,voc_e2,11724,"[{""event"":""fullscreenenter"",""trial"":1,""time"":1450}]",NA,817.3999999761581,static/audio/instructions13.wav,NA,0,NA,NA,NA,NA,NA,NA,NA,NA,NA,NA,NA,NA,NA,NA,NA,NA,NA,NA,NA,NA,NA,NA,NA,NA,NA
audio-instructions,40,328462,0.0-6.0-7.0,voc_e2,11724,"[{""event"":""fullscreenenter"",""trial"":1,""time"":1450}]",NA,1679.0999999940395,static/audio/instructions14.wav,NA,0,NA,NA,NA,NA,NA,NA,NA,NA,NA,NA,NA,NA,NA,NA,NA,NA,NA,NA,NA,NA,NA,NA,NA,NA,NA
audio-instructions,41,336264,0.0-7.0-0.0,voc_e2,11724,"[{""event"":""fullscreenenter"",""trial"":1,""time"":1450}]",NA,889.5,static/audio/instructions15.wav,NA,0,NA,NA,NA,NA,NA,NA,NA,NA,NA,NA,NA,NA,NA,NA,NA,NA,NA,NA,NA,NA,NA,NA,NA,NA,NA
audio-instructions,42,343900,0.0-7.0-1.0,voc_e2,11724,"[{""event"":""fullscreenenter"",""trial"":1,""time"":1450}]",NA,810.6999999880791,static/audio/instructions16.wav,NA,0,NA,NA,NA,NA,NA,NA,NA,NA,NA,NA,NA,NA,NA,NA,NA,NA,NA,NA,NA,NA,NA,NA,NA,NA,NA
audio-instructions,43,352379,0.0-7.0-2.0,voc_e2,11724,"[{""event"":""fullscreenenter"",""trial"":1,""time"":1450}]",NA,803,static/audio/instructions17.wav,NA,0,NA,NA,NA,NA,NA,NA,NA,NA,NA,NA,NA,NA,NA,NA,NA,NA,NA,NA,NA,NA,NA,NA,NA,NA,NA
audio-instructions,44,362120,0.0-7.0-3.0,voc_e2,11724,"[{""event"":""fullscreenenter"",""trial"":1,""time"":1450}]",NA,1975.7000000178816,static/audio/instructions18.wav,NA,0,NA,NA,NA,NA,NA,NA,NA,NA,NA,NA,NA,NA,NA,NA,NA,NA,NA,NA,NA,NA,NA,NA,NA,NA,NA
audio-instructions,45,369352,0.0-7.0-4.0,voc_e2,11724,"[{""event"":""fullscreenenter"",""trial"":1,""time"":1450}]",NA,487.59999999403954,static/audio/instructions19.wav,NA,0,NA,NA,NA,NA,NA,NA,NA,NA,NA,NA,NA,NA,NA,NA,NA,NA,NA,NA,NA,NA,NA,NA,NA,NA,NA
fcp-comprehension,46,387218,0.0-7.0-5.0,voc_e2,11724,"[{""event"":""fullscreenenter"",""trial"":1,""time"":1450}]",NA,17864.399999976158,NA,NA,NA,NA,NA,NA,NA,NA,NA,NA,NA,NA,NA,NA,NA,NA,NA,NA,"true,false,false,true",1,NA,NA,NA,NA,NA,NA,NA,NA
audio-instructions,47,396113,0.0-7.1-0.1,voc_e2,11724,"[{""event"":""fullscreenenter"",""trial"":1,""time"":1450}]",NA,1979.399999976158,static/audio/instructions15.wav,NA,0,NA,NA,NA,NA,NA,NA,NA,NA,NA,NA,NA,NA,NA,NA,NA,NA,NA,NA,NA,NA,NA,NA,NA,NA,NA
audio-instructions,48,404510,0.0-7.1-1.1,voc_e2,11724,"[{""event"":""fullscreenenter"",""trial"":1,""time"":1450}]",NA,1570.300000011921,static/audio/instructions16.wav,NA,0,NA,NA,NA,NA,NA,NA,NA,NA,NA,NA,NA,NA,NA,NA,NA,NA,NA,NA,NA,NA,NA,NA,NA,NA,NA
audio-instructions,49,413192,0.0-7.1-2.1,voc_e2,11724,"[{""event"":""fullscreenenter"",""trial"":1,""time"":1450}]",NA,1004,static/audio/instructions17.wav,NA,0,NA,NA,NA,NA,NA,NA,NA,NA,NA,NA,NA,NA,NA,NA,NA,NA,NA,NA,NA,NA,NA,NA,NA,NA,NA
audio-instructions,50,421541,0.0-7.1-3.1,voc_e2,11724,"[{""event"":""fullscreenenter"",""trial"":1,""time"":1450}]",NA,581.8000000119209,static/audio/instructions18.wav,NA,0,NA,NA,NA,NA,NA,NA,NA,NA,NA,NA,NA,NA,NA,NA,NA,NA,NA,NA,NA,NA,NA,NA,NA,NA,NA
audio-instructions,51,428876,0.0-7.1-4.1,voc_e2,11724,"[{""event"":""fullscreenenter"",""trial"":1,""time"":1450}]",NA,590.8000000119209,static/audio/instructions19.wav,NA,0,NA,NA,NA,NA,NA,NA,NA,NA,NA,NA,NA,NA,NA,NA,NA,NA,NA,NA,NA,NA,NA,NA,NA,NA,NA
fcp-comprehension,52,442692,0.0-7.1-5.1,voc_e2,11724,"[{""event"":""fullscreenenter"",""trial"":1,""time"":1450}]",NA,13813.90000000596,NA,NA,NA,NA,NA,NA,NA,NA,NA,NA,NA,NA,NA,NA,NA,NA,NA,NA,"false,false,false,true",0,NA,NA,NA,NA,NA,NA,NA,NA
audio-instructions,53,459812,0.0-8.0,voc_e2,11724,"[{""event"":""fullscreenenter"",""trial"":1,""time"":1450}]",NA,7899.40000000596,static/audio/ready.wav,NA,0,NA,NA,NA,NA,NA,NA,NA,NA,NA,NA,NA,NA,NA,NA,NA,NA,NA,NA,NA,NA,NA,NA,NA,NA,NA
fcp-trial,54,464488,0.0-9.0-0.0,voc_e2,11724,"[{""event"":""fullscreenenter"",""trial"":1,""time"":1450}]",NA,NA,NA,NA,NA,1,#D8271C,#741CD8,0,10,0,38,1,2358.100000023842,37,1,804.8000000119209,0,0,experiment,NA,NA,1,0.3,0.7,3,2,1,1,NA
fcp-trial,55,469264,0.0-10.0-0.0,voc_e2,11724,"[{""event"":""fullscreenenter"",""trial"":1,""time"":1450}]",NA,NA,NA,NA,NA,0,#D8271C,#741CD8,0,10,0,38,1,2665.7999999821186,39,0,595.2000000178814,10,1,experiment,NA,NA,1,0.3,0.7,3,2,2,1,NA
fcp-trial,56,474240,0.0-11.0-0.0,voc_e2,11724,"[{""event"":""fullscreenenter"",""trial"":1,""time"":1450}]",NA,NA,NA,NA,NA,0,#FA92F8,#1CD855,0,10,1,38,1,2716.4000000059605,37,1,748.9000000059605,0,1,experiment,NA,NA,2,0.5,0.5,4,5,3,1,NA
fcp-trial,57,478999,0.0-12.0-0.0,voc_e2,11724,"[{""event"":""fullscreenenter"",""trial"":1,""time"":1450}]",NA,NA,NA,NA,NA,1,#3386FF,#D89F1C,0,10,0,40,0,2309.2999999821186,37,1,943.3000000119208,0,0,experiment,NA,NA,0,0.1,0.9,1,0,4,1,NA
fcp-trial,58,483984,0.0-13.0-0.0,voc_e2,11724,"[{""event"":""fullscreenenter"",""trial"":1,""time"":1450}]",NA,NA,NA,NA,NA,4,#3386FF,#D89F1C,0,10,0,40,0,2678.800000011921,39,0,799.9000000059605,10,1,experiment,NA,NA,0,0.1,0.9,1,0,5,1,NA
fcp-trial,59,488642,0.0-14.0-0.0,voc_e2,11724,"[{""event"":""fullscreenenter"",""trial"":1,""time"":1450}]",NA,NA,NA,NA,NA,5,#1CD855,#FA92F8,0,0,0,40,0,2441.5,39,0,699.6999999880791,0,1,experiment,NA,NA,2,0.5,0.5,5,4,6,1,NA
fcp-trial,60,493681,0.0-15.0-0.0,voc_e2,11724,"[{""event"":""fullscreenenter"",""trial"":1,""time"":1450}]",NA,NA,NA,NA,NA,2,#D8271C,#741CD8,10,10,0,40,0,2869.199999988079,37,1,660.9000000059605,10,0,experiment,NA,NA,1,0.3,0.7,3,2,7,1,NA
fcp-trial,61,497147,0.0-16.0-0.0,voc_e2,11724,"[{""event"":""fullscreenenter"",""trial"":1,""time"":1450}]",NA,NA,NA,NA,NA,6,#FA92F8,#1CD855,0,0,1,40,0,1262.2999999821186,37,1,695.5999999940395,0,1,experiment,NA,NA,2,0.5,0.5,4,5,8,1,NA
fcp-trial,62,502568,0.0-17.0-0.0,voc_e2,11724,"[{""event"":""fullscreenenter"",""trial"":1,""time"":1450}]",NA,NA,NA,NA,NA,0,#3386FF,#D89F1C,0,10,0,38,1,2676.800000011921,39,0,1235.300000011921,10,1,experiment,NA,NA,0,0.1,0.9,1,0,9,1,NA
fcp-trial,63,508575,0.0-18.0-0.0,voc_e2,11724,"[{""event"":""fullscreenenter"",""trial"":1,""time"":1450}]",NA,NA,NA,NA,NA,3,#D89F1C,#3386FF,10,10,1,40,0,2735.699999988079,37,1,1763.5,10,1,experiment,NA,NA,0,0.9,0.1,0,1,10,1,NA
fcp-trial,64,515191,0.0-19.0-0.0,voc_e2,11724,"[{""event"":""fullscreenenter"",""trial"":1,""time"":1450}]",NA,NA,NA,NA,NA,4,#1CD855,#FA92F8,0,0,0,40,0,3478.4000000059605,37,1,1626.4000000059605,0,0,experiment,NA,NA,2,0.5,0.5,5,4,11,1,NA
fcp-trial,65,519618,0.0-20.0-0.0,voc_e2,11724,"[{""event"":""fullscreenenter"",""trial"":1,""time"":1450}]",NA,NA,NA,NA,NA,4,#D8271C,#741CD8,0,0,0,38,1,2319.9000000059605,39,0,591.4000000059605,0,1,experiment,NA,NA,1,0.3,0.7,3,2,12,1,NA
fcp-trial,66,524080,0.0-21.0-0.0,voc_e2,11724,"[{""event"":""fullscreenenter"",""trial"":1,""time"":1450}]",NA,NA,NA,NA,NA,6,#3386FF,#D89F1C,0,10,0,38,1,2245.4000000059605,39,0,706.7000000178814,10,1,experiment,NA,NA,0,0.1,0.9,1,0,13,1,NA
fcp-trial,67,527671,0.0-22.0-0.0,voc_e2,11724,"[{""event"":""fullscreenenter"",""trial"":1,""time"":1450}]",NA,NA,NA,NA,NA,3,#741CD8,#D8271C,10,10,1,38,1,1530,37,1,549.5999999940395,10,1,experiment,NA,NA,1,0.7,0.3,2,3,14,1,NA
fcp-trial,68,531266,0.0-23.0-0.0,voc_e2,11724,"[{""event"":""fullscreenenter"",""trial"":1,""time"":1450}]",NA,NA,NA,NA,NA,2,#1CD855,#FA92F8,0,10,0,38,1,1089.300000011921,39,0,998.4000000059604,10,1,experiment,NA,NA,2,0.5,0.5,5,4,15,1,NA
fcp-trial,69,533969,0.0-24.0-0.0,voc_e2,11724,"[{""event"":""fullscreenenter"",""trial"":1,""time"":1450}]",NA,NA,NA,NA,NA,5,#3386FF,#D89F1C,0,10,0,38,1,847.7000000178814,39,0,347.7000000178814,10,1,experiment,NA,NA,0,0.1,0.9,1,0,16,1,NA
fcp-trial,70,536465,0.0-25.0-0.0,voc_e2,11724,"[{""event"":""fullscreenenter"",""trial"":1,""time"":1450}]",NA,NA,NA,NA,NA,2,#3386FF,#D89F1C,0,10,0,38,1,686.3000000119209,39,0,302.80000001192093,10,1,experiment,NA,NA,0,0.1,0.9,1,0,17,1,NA
fcp-trial,71,540586,0.0-26.0-0.0,voc_e2,11724,"[{""event"":""fullscreenenter"",""trial"":1,""time"":1450}]",NA,NA,NA,NA,NA,5,#741CD8,#D8271C,10,10,1,40,0,2061.7000000178814,37,1,549.1000000238419,10,1,experiment,NA,NA,1,0.7,0.3,2,3,18,1,NA
fcp-trial,72,545596,0.0-27.0-0.0,voc_e2,11724,"[{""event"":""fullscreenenter"",""trial"":1,""time"":1450}]",NA,NA,NA,NA,NA,6,#D8271C,#741CD8,0,10,0,40,0,1876.199999988079,37,1,1614.300000011921,0,0,experiment,NA,NA,1,0.3,0.7,3,2,19,1,NA
fcp-trial,73,549730,0.0-28.0-0.0,voc_e2,11724,"[{""event"":""fullscreenenter"",""trial"":1,""time"":1450}]",NA,NA,NA,NA,NA,1,#1CD855,#FA92F8,0,0,0,38,1,2322.800000011921,39,0,303.2999999821186,0,1,experiment,NA,NA,2,0.5,0.5,5,4,20,1,NA
fcp-trial,74,558089,0.0-29.0-0.0,voc_e2,11724,"[{""event"":""fullscreenenter"",""trial"":1,""time"":1450}]",NA,NA,NA,NA,NA,3,#FA92F8,#1CD855,0,10,1,40,0,6008.9000000059605,37,1,843.3000000119209,0,1,experiment,NA,NA,2,0.5,0.5,4,5,21,1,NA
fcp-trial,75,562068,0.0-30.0-0.0,voc_e2,11724,"[{""event"":""fullscreenenter"",""trial"":1,""time"":1450}]",NA,NA,NA,NA,NA,1,#1CD855,#FA92F8,0,10,0,38,1,2115.5,37,1,342.30000001192093,0,0,experiment,NA,NA,2,0.5,0.5,5,4,22,1,NA
fcp-trial,76,572962,0.0-31.0-0.0,voc_e2,11724,"[{""event"":""fullscreenenter"",""trial"":1,""time"":1450}]",NA,NA,NA,NA,NA,2,#D8271C,#741CD8,0,10,0,38,1,7259.5999999940395,39,0,2122.9000000059605,10,1,experiment,NA,NA,1,0.3,0.7,3,2,23,1,NA
fcp-trial,77,577035,0.0-32.0-0.0,voc_e2,11724,"[{""event"":""fullscreenenter"",""trial"":1,""time"":1450}]",NA,NA,NA,NA,NA,1,#D8271C,#741CD8,0,10,0,38,1,2306.4000000059605,39,0,252.5,10,1,experiment,NA,NA,1,0.3,0.7,3,2,24,1,NA
fcp-trial,78,581690,0.0-33.0-0.0,voc_e2,11724,"[{""event"":""fullscreenenter"",""trial"":1,""time"":1450}]",NA,NA,NA,NA,NA,4,#FA92F8,#1CD855,0,10,1,40,0,2542.9000000059605,37,1,606.1999999880791,0,1,experiment,NA,NA,2,0.5,0.5,4,5,25,1,NA
fcp-trial,79,585619,0.0-34.0-0.0,voc_e2,11724,"[{""event"":""fullscreenenter"",""trial"":1,""time"":1450}]",NA,NA,NA,NA,NA,1,#3386FF,#D89F1C,0,10,0,38,1,2039.9000000059605,39,0,377.199999988079,10,1,experiment,NA,NA,0,0.1,0.9,1,0,26,1,NA
fcp-trial,80,592154,0.0-35.0-0.0,voc_e2,11724,"[{""event"":""fullscreenenter"",""trial"":1,""time"":1450}]",NA,NA,NA,NA,NA,6,#D8271C,#741CD8,10,10,0,38,1,4612.5,39,0,414.60000002384186,10,1,experiment,NA,NA,1,0.3,0.7,3,2,27,1,NA
fcp-trial,81,595748,0.0-36.0-0.0,voc_e2,11724,"[{""event"":""fullscreenenter"",""trial"":1,""time"":1450}]",NA,NA,NA,NA,NA,0,#FA92F8,#1CD855,0,0,1,38,1,1463.2000000178814,39,0,614.2000000178814,0,0,experiment,NA,NA,2,0.5,0.5,4,5,28,1,NA
fcp-trial,82,602155,0.0-37.0-0.0,voc_e2,11724,"[{""event"":""fullscreenenter"",""trial"":1,""time"":1450}]",NA,NA,NA,NA,NA,5,#741CD8,#D8271C,10,10,1,38,1,4179.9000000059605,37,1,715.3000000119209,10,1,experiment,NA,NA,1,0.7,0.3,2,3,29,1,NA
fcp-trial,83,605022,0.0-38.0-0.0,voc_e2,11724,"[{""event"":""fullscreenenter"",""trial"":1,""time"":1450}]",NA,NA,NA,NA,NA,5,#1CD855,#FA92F8,10,0,0,40,0,666,37,1,686.2999999821186,10,0,experiment,NA,NA,2,0.5,0.5,5,4,30,1,NA
fcp-trial,84,609291,0.0-39.0-0.0,voc_e2,11724,"[{""event"":""fullscreenenter"",""trial"":1,""time"":1450}]",NA,NA,NA,NA,NA,4,#3386FF,#D89F1C,0,10,0,38,1,2467.199999988079,39,0,290.2000000178814,10,1,experiment,NA,NA,0,0.1,0.9,1,0,31,1,NA
fcp-trial,85,613371,0.0-40.0-0.0,voc_e2,11724,"[{""event"":""fullscreenenter"",""trial"":1,""time"":1450}]",NA,NA,NA,NA,NA,4,#D8271C,#741CD8,0,10,0,38,1,1978.9000000059605,39,0,593.8000000119209,10,1,experiment,NA,NA,1,0.3,0.7,3,2,32,1,NA
fcp-trial,86,616291,0.0-41.0-0.0,voc_e2,11724,"[{""event"":""fullscreenenter"",""trial"":1,""time"":1450}]",NA,NA,NA,NA,NA,2,#3386FF,#D89F1C,0,10,0,38,1,1026.5,39,0,376.90000000596046,10,1,experiment,NA,NA,0,0.1,0.9,1,0,33,1,NA
fcp-trial,87,623396,0.0-42.0-0.0,voc_e2,11724,"[{""event"":""fullscreenenter"",""trial"":1,""time"":1450}]",NA,NA,NA,NA,NA,3,#FA92F8,#1CD855,10,10,1,38,1,2268.300000011921,39,0,3323.9000000059605,10,0,experiment,NA,NA,2,0.5,0.5,4,5,34,1,NA
fcp-trial,88,629988,0.0-43.0-0.0,voc_e2,11724,"[{""event"":""fullscreenenter"",""trial"":1,""time"":1450}]",NA,NA,NA,NA,NA,5,#3386FF,#D89F1C,0,10,0,38,1,4805.300000011921,39,0,275.89999997615814,10,1,experiment,NA,NA,0,0.1,0.9,1,0,35,1,NA
fcp-trial,89,634042,0.0-44.0-0.0,voc_e2,11724,"[{""event"":""fullscreenenter"",""trial"":1,""time"":1450}]",NA,NA,NA,NA,NA,3,#741CD8,#D8271C,10,0,1,38,1,2150.4000000059605,37,1,389.800000011921,10,1,experiment,NA,NA,1,0.7,0.3,2,3,36,1,NA
fcp-trial,90,637282,0.0-45.0-0.0,voc_e2,11724,"[{""event"":""fullscreenenter"",""trial"":1,""time"":1450}]",NA,NA,NA,NA,NA,6,#FA92F8,#1CD855,0,0,1,40,0,1121.5999999940395,39,0,607.3999999761581,0,0,experiment,NA,NA,2,0.5,0.5,4,5,37,1,NA
fcp-trial,91,640748,0.0-46.0-0.0,voc_e2,11724,"[{""event"":""fullscreenenter"",""trial"":1,""time"":1450}]",NA,NA,NA,NA,NA,3,#3386FF,#D89F1C,0,10,0,38,1,1537.5,39,0,418.59999999403954,10,1,experiment,NA,NA,0,0.1,0.9,1,0,38,1,NA
fcp-trial,92,644286,0.0-47.0-0.0,voc_e2,11724,"[{""event"":""fullscreenenter"",""trial"":1,""time"":1450}]",NA,NA,NA,NA,NA,2,#FA92F8,#1CD855,10,0,1,38,1,559.9000000059605,39,0,1473.4000000059605,0,0,experiment,NA,NA,2,0.5,0.5,4,5,39,1,NA
fcp-trial,93,647605,0.0-48.0-0.0,voc_e2,11724,"[{""event"":""fullscreenenter"",""trial"":1,""time"":1450}]",NA,NA,NA,NA,NA,6,#3386FF,#D89F1C,10,10,0,38,1,1453.9000000059605,39,0,358.5,10,1,experiment,NA,NA,0,0.1,0.9,1,0,40,1,NA
fcp-trial,94,650860,0.0-49.0-0.0,voc_e2,11724,"[{""event"":""fullscreenenter"",""trial"":1,""time"":1450}]",NA,NA,NA,NA,NA,0,#741CD8,#D8271C,0,0,1,38,1,1452.699999988079,37,1,288.7000000178814,0,1,experiment,NA,NA,1,0.7,0.3,2,3,41,1,NA
fcp-trial,95,655620,0.0-50.0-0.0,voc_e2,11724,"[{""event"":""fullscreenenter"",""trial"":1,""time"":1450}]",NA,NA,NA,NA,NA,0,#3386FF,#D89F1C,0,10,0,38,1,2710.300000011921,39,0,538.8000000119209,10,1,experiment,NA,NA,0,0.1,0.9,1,0,42,1,NA
fcp-trial,96,658645,0.0-51.0-0.0,voc_e2,11724,"[{""event"":""fullscreenenter"",""trial"":1,""time"":1450}]",NA,NA,NA,NA,NA,2,#FA92F8,#1CD855,0,0,1,40,0,930.9000000059605,37,1,578.5,0,1,experiment,NA,NA,2,0.5,0.5,4,5,43,1,NA
fcp-trial,97,661288,0.0-52.0-0.0,voc_e2,11724,"[{""event"":""fullscreenenter"",""trial"":1,""time"":1450}]",NA,NA,NA,NA,NA,5,#3386FF,#D89F1C,10,10,0,38,1,843.4000000059605,39,0,284.5,10,1,experiment,NA,NA,0,0.1,0.9,1,0,44,1,NA
fcp-trial,98,664981,0.0-53.0-0.0,voc_e2,11724,"[{""event"":""fullscreenenter"",""trial"":1,""time"":1450}]",NA,NA,NA,NA,NA,3,#D8271C,#741CD8,0,0,0,38,1,1821.199999988079,39,0,357.80000001192093,0,1,experiment,NA,NA,1,0.3,0.7,3,2,45,1,NA
fcp-trial,99,668133,0.0-54.0-0.0,voc_e2,11724,"[{""event"":""fullscreenenter"",""trial"":1,""time"":1450}]",NA,NA,NA,NA,NA,1,#741CD8,#D8271C,10,10,1,38,1,1210.0999999940395,37,1,424.09999999403954,10,1,experiment,NA,NA,1,0.7,0.3,2,3,46,2,NA
fcp-trial,100,671513,0.0-55.0-0.0,voc_e2,11724,"[{""event"":""fullscreenenter"",""trial"":1,""time"":1450}]",NA,NA,NA,NA,NA,5,#FA92F8,#1CD855,10,10,1,40,0,1266.5999999940395,39,0,601.2999999821186,10,0,experiment,NA,NA,2,0.5,0.5,4,5,47,2,NA
fcp-trial,101,676460,0.0-56.0-0.0,voc_e2,11724,"[{""event"":""fullscreenenter"",""trial"":1,""time"":1450}]",NA,NA,NA,NA,NA,4,#FA92F8,#1CD855,0,10,1,40,0,2993.2000000178814,39,0,445.90000000596046,10,0,experiment,NA,NA,2,0.5,0.5,4,5,48,2,NA
fcp-trial,102,679152,0.0-57.0-0.0,voc_e2,11724,"[{""event"":""fullscreenenter"",""trial"":1,""time"":1450}]",NA,NA,NA,NA,NA,2,#3386FF,#D89F1C,0,10,0,38,1,848.2999999821186,39,0,337.40000000596046,10,1,experiment,NA,NA,0,0.1,0.9,1,0,49,2,NA
fcp-trial,103,682672,0.0-58.0-0.0,voc_e2,11724,"[{""event"":""fullscreenenter"",""trial"":1,""time"":1450}]",NA,NA,NA,NA,NA,0,#3386FF,#D89F1C,0,10,0,38,1,889.5,39,0,1120.4000000059605,10,1,experiment,NA,NA,0,0.1,0.9,1,0,50,2,NA
fcp-trial,104,685630,0.0-59.0-0.0,voc_e2,11724,"[{""event"":""fullscreenenter"",""trial"":1,""time"":1450}]",NA,NA,NA,NA,NA,4,#D8271C,#741CD8,0,0,0,38,1,968.5,37,1,481.59999999403954,0,0,experiment,NA,NA,1,0.3,0.7,3,2,51,2,NA
fcp-trial,105,689739,0.0-60.0-0.0,voc_e2,11724,"[{""event"":""fullscreenenter"",""trial"":1,""time"":1450}]",NA,NA,NA,NA,NA,5,#D8271C,#741CD8,10,0,0,40,0,1374.5999999940395,37,1,1224.4000000059605,10,0,experiment,NA,NA,1,0.3,0.7,3,2,52,2,NA
fcp-trial,106,697076,0.0-61.0-0.0,voc_e2,11724,"[{""event"":""fullscreenenter"",""trial"":1,""time"":1450}]",NA,NA,NA,NA,NA,3,#1CD855,#FA92F8,0,0,0,38,1,1371.9000000059605,39,0,4454.699999988079,0,1,experiment,NA,NA,2,0.5,0.5,5,4,53,2,NA
fcp-trial,107,701118,0.0-62.0-0.0,voc_e2,11724,"[{""event"":""fullscreenenter"",""trial"":1,""time"":1450}]",NA,NA,NA,NA,NA,0,#741CD8,#D8271C,10,0,1,38,1,1887.699999988079,37,1,638.0999999940395,10,1,experiment,NA,NA,1,0.7,0.3,2,3,54,2,NA
fcp-trial,108,703690,0.0-63.0-0.0,voc_e2,11724,"[{""event"":""fullscreenenter"",""trial"":1,""time"":1450}]",NA,NA,NA,NA,NA,1,#D89F1C,#3386FF,10,0,1,38,1,782,37,1,278.40000000596046,10,1,experiment,NA,NA,0,0.9,0.1,0,1,55,2,NA
fcp-trial,109,706880,0.0-64.0-0.0,voc_e2,11724,"[{""event"":""fullscreenenter"",""trial"":1,""time"":1450}]",NA,NA,NA,NA,NA,2,#D8271C,#741CD8,10,0,0,38,1,1360.199999988079,39,0,310,0,1,experiment,NA,NA,1,0.3,0.7,3,2,56,2,NA
fcp-trial,110,710126,0.0-65.0-0.0,voc_e2,11724,"[{""event"":""fullscreenenter"",""trial"":1,""time"":1450}]",NA,NA,NA,NA,NA,6,#D89F1C,#3386FF,10,0,1,38,1,1365.9000000059605,37,1,374.90000000596046,10,1,experiment,NA,NA,0,0.9,0.1,0,1,57,2,NA
fcp-trial,111,713789,0.0-66.0-0.0,voc_e2,11724,"[{""event"":""fullscreenenter"",""trial"":1,""time"":1450}]",NA,NA,NA,NA,NA,6,#1CD855,#FA92F8,10,0,0,40,0,1652.300000011921,39,0,501.40000000596046,0,1,experiment,NA,NA,2,0.5,0.5,5,4,58,2,NA
fcp-trial,112,717238,0.0-67.0-0.0,voc_e2,11724,"[{""event"":""fullscreenenter"",""trial"":1,""time"":1450}]",NA,NA,NA,NA,NA,0,#FA92F8,#1CD855,0,0,1,38,1,1388.0999999940395,39,0,544.9000000059605,0,0,experiment,NA,NA,2,0.5,0.5,4,5,59,2,NA
fcp-trial,113,722031,0.0-68.0-0.0,voc_e2,11724,"[{""event"":""fullscreenenter"",""trial"":1,""time"":1450}]",NA,NA,NA,NA,NA,6,#D8271C,#741CD8,0,10,0,38,1,2933,39,0,344.19999998807907,10,1,experiment,NA,NA,1,0.3,0.7,3,2,60,2,NA
fcp-trial,114,726376,0.0-69.0-0.0,voc_e2,11724,"[{""event"":""fullscreenenter"",""trial"":1,""time"":1450}]",NA,NA,NA,NA,NA,1,#1CD855,#FA92F8,0,10,0,40,0,1504.5,37,1,1326.5999999940395,0,0,experiment,NA,NA,2,0.5,0.5,5,4,61,2,NA
fcp-trial,115,730294,0.0-70.0-0.0,voc_e2,11724,"[{""event"":""fullscreenenter"",""trial"":1,""time"":1450}]",NA,NA,NA,NA,NA,4,#3386FF,#D89F1C,0,10,0,38,1,1792.7000000178814,39,0,611.2000000178814,10,1,experiment,NA,NA,0,0.1,0.9,1,0,62,2,NA
fcp-trial,116,732951,0.0-71.0-0.0,voc_e2,11724,"[{""event"":""fullscreenenter"",""trial"":1,""time"":1450}]",NA,NA,NA,NA,NA,3,#3386FF,#D89F1C,0,10,0,38,1,689.4000000059605,39,0,459.5,10,1,experiment,NA,NA,0,0.1,0.9,1,0,63,2,NA
fcp-trial,117,736503,0.0-72.0-0.0,voc_e2,11724,"[{""event"":""fullscreenenter"",""trial"":1,""time"":1450}]",NA,NA,NA,NA,NA,4,#741CD8,#D8271C,10,0,1,38,1,1530.4000000059605,39,0,516.9000000059605,0,0,experiment,NA,NA,1,0.7,0.3,2,3,64,2,NA
fcp-trial,118,739811,0.0-73.0-0.0,voc_e2,11724,"[{""event"":""fullscreenenter"",""trial"":1,""time"":1450}]",NA,NA,NA,NA,NA,2,#FA92F8,#1CD855,10,10,1,40,0,1341.9000000059605,39,0,457.800000011921,10,0,experiment,NA,NA,2,0.5,0.5,4,5,65,2,NA
fcp-trial,119,743046,0.0-74.0-0.0,voc_e2,11724,"[{""event"":""fullscreenenter"",""trial"":1,""time"":1450}]",NA,NA,NA,NA,NA,2,#3386FF,#D89F1C,0,10,0,38,1,1308,39,0,415.2999999821186,10,1,experiment,NA,NA,0,0.1,0.9,1,0,66,2,NA
fcp-trial,120,747711,0.0-75.0-0.0,voc_e2,11724,"[{""event"":""fullscreenenter"",""trial"":1,""time"":1450}]",NA,NA,NA,NA,NA,6,#FA92F8,#1CD855,10,10,1,38,1,1482.7999999821186,37,1,1669.199999988079,10,1,experiment,NA,NA,2,0.5,0.5,4,5,67,2,NA
fcp-trial,121,750095,0.0-76.0-0.0,voc_e2,11724,"[{""event"":""fullscreenenter"",""trial"":1,""time"":1450}]",NA,NA,NA,NA,NA,3,#3386FF,#D89F1C,0,10,0,38,1,617.5999999940395,39,0,257.80000001192093,10,1,experiment,NA,NA,0,0.1,0.9,1,0,68,2,NA
fcp-trial,122,753320,0.0-77.0-0.0,voc_e2,11724,"[{""event"":""fullscreenenter"",""trial"":1,""time"":1450}]",NA,NA,NA,NA,NA,3,#741CD8,#D8271C,10,0,1,38,1,1385.2999999821186,37,1,324,10,1,experiment,NA,NA,1,0.7,0.3,2,3,69,2,NA
fcp-trial,123,756199,0.0-78.0-0.0,voc_e2,11724,"[{""event"":""fullscreenenter"",""trial"":1,""time"":1450}]",NA,NA,NA,NA,NA,0,#741CD8,#D8271C,0,10,1,38,1,894.5999999940395,37,1,470.300000011921,0,1,experiment,NA,NA,1,0.7,0.3,2,3,70,2,NA
fcp-trial,124,759567,0.0-79.0-0.0,voc_e2,11724,"[{""event"":""fullscreenenter"",""trial"":1,""time"":1450}]",NA,NA,NA,NA,NA,3,#1CD855,#FA92F8,10,0,0,38,1,1591.800000011921,39,0,264.7000000178814,0,1,experiment,NA,NA,2,0.5,0.5,5,4,71,2,NA
fcp-trial,125,763416,0.0-80.0-0.0,voc_e2,11724,"[{""event"":""fullscreenenter"",""trial"":1,""time"":1450}]",NA,NA,NA,NA,NA,2,#741CD8,#D8271C,10,10,1,38,1,1308.5,37,1,1032.7000000178814,10,1,experiment,NA,NA,1,0.7,0.3,2,3,72,2,NA
fcp-trial,126,766806,0.0-81.0-0.0,voc_e2,11724,"[{""event"":""fullscreenenter"",""trial"":1,""time"":1450}]",NA,NA,NA,NA,NA,0,#3386FF,#D89F1C,0,10,0,38,1,1260.4000000059605,39,0,613.4000000059605,10,1,experiment,NA,NA,0,0.1,0.9,1,0,73,2,NA
fcp-trial,127,771049,0.0-82.0-0.0,voc_e2,11724,"[{""event"":""fullscreenenter"",""trial"":1,""time"":1450}]",NA,NA,NA,NA,NA,1,#FA92F8,#1CD855,10,10,1,38,1,1773.7000000178814,37,1,952,10,1,experiment,NA,NA,2,0.5,0.5,4,5,74,2,NA
fcp-trial,128,774103,0.0-83.0-0.0,voc_e2,11724,"[{""event"":""fullscreenenter"",""trial"":1,""time"":1450}]",NA,NA,NA,NA,NA,6,#D89F1C,#3386FF,0,0,1,38,1,1254.2000000178814,37,1,277.90000000596046,0,1,experiment,NA,NA,0,0.9,0.1,0,1,75,2,NA
fcp-trial,129,777016,0.0-84.0-0.0,voc_e2,11724,"[{""event"":""fullscreenenter"",""trial"":1,""time"":1450}]",NA,NA,NA,NA,NA,1,#D8271C,#741CD8,0,0,0,38,1,902.5,39,0,504.2000000178814,0,1,experiment,NA,NA,1,0.3,0.7,3,2,76,2,NA
fcp-trial,130,780696,0.0-85.0-0.0,voc_e2,11724,"[{""event"":""fullscreenenter"",""trial"":1,""time"":1450}]",NA,NA,NA,NA,NA,5,#1CD855,#FA92F8,10,0,0,40,0,1711.3999999761581,39,0,458.2000000178814,0,1,experiment,NA,NA,2,0.5,0.5,5,4,77,2,NA
fcp-trial,131,783392,0.0-86.0-0.0,voc_e2,11724,"[{""event"":""fullscreenenter"",""trial"":1,""time"":1450}]",NA,NA,NA,NA,NA,5,#3386FF,#D89F1C,0,10,0,38,1,890.6999999880791,39,0,292.10000002384186,10,1,experiment,NA,NA,0,0.1,0.9,1,0,78,2,NA
fcp-trial,132,786863,0.0-87.0-0.0,voc_e2,11724,"[{""event"":""fullscreenenter"",""trial"":1,""time"":1450}]",NA,NA,NA,NA,NA,0,#1CD855,#FA92F8,10,0,0,38,1,1614.300000011921,39,0,344.69999998807907,0,1,experiment,NA,NA,2,0.5,0.5,5,4,79,2,NA
fcp-trial,133,789327,0.0-88.0-0.0,voc_e2,11724,"[{""event"":""fullscreenenter"",""trial"":1,""time"":1450}]",NA,NA,NA,NA,NA,6,#741CD8,#D8271C,0,10,1,38,1,662.8000000119209,37,1,288.59999999403954,0,1,experiment,NA,NA,1,0.7,0.3,2,3,80,2,NA
fcp-trial,134,792375,0.0-89.0-0.0,voc_e2,11724,"[{""event"":""fullscreenenter"",""trial"":1,""time"":1450}]",NA,NA,NA,NA,NA,5,#741CD8,#D8271C,10,10,1,40,0,1190,37,1,345.90000000596046,10,1,experiment,NA,NA,1,0.7,0.3,2,3,81,2,NA
fcp-trial,135,795135,0.0-90.0-0.0,voc_e2,11724,"[{""event"":""fullscreenenter"",""trial"":1,""time"":1450}]",NA,NA,NA,NA,NA,4,#D89F1C,#3386FF,10,0,1,38,1,709.6999999880791,37,1,538.4000000059605,10,1,experiment,NA,NA,0,0.9,0.1,0,1,82,2,NA
fcp-trial,136,798375,0.0-91.0-0.0,voc_e2,11724,"[{""event"":""fullscreenenter"",""trial"":1,""time"":1450}]",NA,NA,NA,NA,NA,4,#1CD855,#FA92F8,0,10,0,38,1,1391.6000000238419,39,0,337.10000002384186,10,1,experiment,NA,NA,2,0.5,0.5,5,4,83,2,NA
fcp-trial,137,800799,0.0-92.0-0.0,voc_e2,11724,"[{""event"":""fullscreenenter"",""trial"":1,""time"":1450}]",NA,NA,NA,NA,NA,1,#D89F1C,#3386FF,10,0,1,38,1,626.5,37,1,286.5,10,1,experiment,NA,NA,0,0.9,0.1,0,1,84,2,NA
fcp-trial,138,803520,0.0-93.0-0.0,voc_e2,11724,"[{""event"":""fullscreenenter"",""trial"":1,""time"":1450}]",NA,NA,NA,NA,NA,5,#3386FF,#D89F1C,0,0,0,38,1,924.5999999940395,39,0,285.80000001192093,0,1,experiment,NA,NA,0,0.1,0.9,1,0,85,2,NA
fcp-trial,139,805960,0.0-94.0-0.0,voc_e2,11724,"[{""event"":""fullscreenenter"",""trial"":1,""time"":1450}]",NA,NA,NA,NA,NA,1,#D89F1C,#3386FF,10,0,1,38,1,678.7000000178814,37,1,250,10,1,experiment,NA,NA,0,0.9,0.1,0,1,86,2,NA
fcp-trial,140,808406,0.0-95.0-0.0,voc_e2,11724,"[{""event"":""fullscreenenter"",""trial"":1,""time"":1450}]",NA,NA,NA,NA,NA,0,#741CD8,#D8271C,10,0,1,38,1,635.4000000059605,37,1,298.2000000178814,10,1,experiment,NA,NA,1,0.7,0.3,2,3,87,2,NA
fcp-trial,141,810611,0.0-96.0-0.0,voc_e2,11724,"[{""event"":""fullscreenenter"",""trial"":1,""time"":1450}]",NA,NA,NA,NA,NA,2,#D8271C,#741CD8,0,10,0,38,1,403,39,0,283.90000000596046,10,1,experiment,NA,NA,1,0.3,0.7,3,2,88,2,NA
fcp-trial,142,812650,0.0-97.0-0.0,voc_e2,11724,"[{""event"":""fullscreenenter"",""trial"":1,""time"":1450}]",NA,NA,NA,NA,NA,2,#FA92F8,#1CD855,0,0,1,38,1,268.40000000596046,37,1,254.9000000059605,0,1,experiment,NA,NA,2,0.5,0.5,4,5,89,2,NA
fcp-trial,143,815337,0.0-98.0-0.0,voc_e2,11724,"[{""event"":""fullscreenenter"",""trial"":1,""time"":1450}]",NA,NA,NA,NA,NA,1,#741CD8,#D8271C,0,10,1,38,1,897.3000000119209,37,1,280.10000002384186,0,1,experiment,NA,NA,1,0.7,0.3,2,3,90,2,NA
fcp-trial,144,817840,0.0-99.0-0.0,voc_e2,11724,"[{""event"":""fullscreenenter"",""trial"":1,""time"":1450}]",NA,NA,NA,NA,NA,2,#3386FF,#D89F1C,0,10,0,38,1,685.8000000119209,39,0,304.19999998807907,10,1,experiment,NA,NA,0,0.1,0.9,1,0,91,3,NA
fcp-trial,145,821104,0.0-100.0-0.0,voc_e2,11724,"[{""event"":""fullscreenenter"",""trial"":1,""time"":1450}]",NA,NA,NA,NA,NA,4,#FA92F8,#1CD855,0,0,1,40,0,1141.6000000238419,39,0,618.4000000059605,0,0,experiment,NA,NA,2,0.5,0.5,4,5,92,3,NA
fcp-trial,146,823872,0.0-101.0-0.0,voc_e2,11724,"[{""event"":""fullscreenenter"",""trial"":1,""time"":1450}]",NA,NA,NA,NA,NA,0,#3386FF,#D89F1C,0,10,0,38,1,970.3000000119209,39,0,276.30000001192093,10,1,experiment,NA,NA,0,0.1,0.9,1,0,93,3,NA
fcp-trial,147,828353,0.0-102.0-0.0,voc_e2,11724,"[{""event"":""fullscreenenter"",""trial"":1,""time"":1450}]",NA,NA,NA,NA,NA,1,#1CD855,#FA92F8,0,10,0,38,1,1567.7999999821186,39,0,1402.7000000178814,10,1,experiment,NA,NA,2,0.5,0.5,5,4,94,3,NA
fcp-trial,148,830976,0.0-103.0-0.0,voc_e2,11724,"[{""event"":""fullscreenenter"",""trial"":1,""time"":1450}]",NA,NA,NA,NA,NA,3,#D8271C,#741CD8,10,0,0,38,1,761.7000000178814,39,0,347.80000001192093,0,1,experiment,NA,NA,1,0.3,0.7,3,2,95,3,NA
fcp-trial,149,834067,0.0-104.0-0.0,voc_e2,11724,"[{""event"":""fullscreenenter"",""trial"":1,""time"":1450}]",NA,NA,NA,NA,NA,6,#3386FF,#D89F1C,0,10,0,38,1,964,39,0,617.8000000119209,10,1,experiment,NA,NA,0,0.1,0.9,1,0,96,3,NA
fcp-trial,150,838477,0.0-105.0-0.0,voc_e2,11724,"[{""event"":""fullscreenenter"",""trial"":1,""time"":1450}]",NA,NA,NA,NA,NA,6,#FA92F8,#1CD855,0,0,1,40,0,1506.7000000178814,37,1,1391.7999999821186,0,1,experiment,NA,NA,2,0.5,0.5,4,5,97,3,NA
fcp-trial,151,841737,0.0-106.0-0.0,voc_e2,11724,"[{""event"":""fullscreenenter"",""trial"":1,""time"":1450}]",NA,NA,NA,NA,NA,3,#D89F1C,#3386FF,10,0,1,38,1,1259.699999988079,37,1,493.59999999403954,10,1,experiment,NA,NA,0,0.9,0.1,0,1,98,3,NA
fcp-trial,152,844763,0.0-107.0-0.0,voc_e2,11724,"[{""event"":""fullscreenenter"",""trial"":1,""time"":1450}]",NA,NA,NA,NA,NA,5,#FA92F8,#1CD855,0,10,1,40,0,1027.4000000059605,39,0,491.2000000178814,10,0,experiment,NA,NA,2,0.5,0.5,4,5,99,3,NA
fcp-trial,153,849656,0.0-108.0-0.0,voc_e2,11724,"[{""event"":""fullscreenenter"",""trial"":1,""time"":1450}]",NA,NA,NA,NA,NA,6,#D8271C,#741CD8,0,10,0,40,0,2028.5999999940395,37,1,1357.800000011921,0,0,experiment,NA,NA,1,0.3,0.7,3,2,100,3,NA
fcp-trial,154,853715,0.0-109.0-0.0,voc_e2,11724,"[{""event"":""fullscreenenter"",""trial"":1,""time"":1450}]",NA,NA,NA,NA,NA,0,#1CD855,#FA92F8,0,10,0,38,1,1230.7000000178814,39,0,1315,10,1,experiment,NA,NA,2,0.5,0.5,5,4,101,3,NA
fcp-trial,155,858090,0.0-110.0-0.0,voc_e2,11724,"[{""event"":""fullscreenenter"",""trial"":1,""time"":1450}]",NA,NA,NA,NA,NA,5,#741CD8,#D8271C,10,0,1,40,0,2414.300000011921,37,1,447.199999988079,10,1,experiment,NA,NA,1,0.7,0.3,2,3,102,3,NA
fcp-trial,156,860489,0.0-111.0-0.0,voc_e2,11724,"[{""event"":""fullscreenenter"",""trial"":1,""time"":1450}]",NA,NA,NA,NA,NA,4,#3386FF,#D89F1C,10,10,0,38,1,637.9000000059605,39,0,250,10,1,experiment,NA,NA,0,0.1,0.9,1,0,103,3,NA
fcp-trial,157,863738,0.0-112.0-0.0,voc_e2,11724,"[{""event"":""fullscreenenter"",""trial"":1,""time"":1450}]",NA,NA,NA,NA,NA,4,#D8271C,#741CD8,0,10,0,38,1,1277.2999999821186,39,0,459.59999999403954,10,1,experiment,NA,NA,1,0.3,0.7,3,2,104,3,NA
fcp-trial,158,868065,0.0-113.0-0.0,voc_e2,11724,"[{""event"":""fullscreenenter"",""trial"":1,""time"":1450}]",NA,NA,NA,NA,NA,3,#FA92F8,#1CD855,0,10,1,40,0,2269.5,37,1,550.7000000178814,0,1,experiment,NA,NA,2,0.5,0.5,4,5,105,3,NA
audio-instructions,159,881244,0.0-114.0,voc_e2,11724,"[{""event"":""fullscreenenter"",""trial"":1,""time"":1450}]",NA,8616,static/audio/pause.wav,NA,0,NA,NA,NA,NA,NA,NA,NA,NA,NA,NA,NA,NA,NA,NA,NA,NA,NA,NA,NA,NA,NA,NA,NA,NA,NA
fcp-trial,160,886035,0.0-115.0-0.0,voc_e2,11724,"[{""event"":""fullscreenenter"",""trial"":1,""time"":1450}]",NA,NA,NA,NA,NA,6,#3386FF,#D89F1C,0,10,0,40,0,2159.7000000178814,37,1,1108.5999999940395,0,0,experiment,NA,NA,0,0.1,0.9,1,0,106,3,NA
fcp-trial,161,889362,0.0-116.0-0.0,voc_e2,11724,"[{""event"":""fullscreenenter"",""trial"":1,""time"":1450}]",NA,NA,NA,NA,NA,0,#3386FF,#D89F1C,0,10,0,38,1,1427.2999999821186,39,0,386.59999999403954,10,1,experiment,NA,NA,0,0.1,0.9,1,0,107,3,NA
fcp-trial,162,892145,0.0-117.0-0.0,voc_e2,11724,"[{""event"":""fullscreenenter"",""trial"":1,""time"":1450}]",NA,NA,NA,NA,NA,5,#3386FF,#D89F1C,0,10,0,38,1,911.3000000119209,39,0,364.800000011921,10,1,experiment,NA,NA,0,0.1,0.9,1,0,108,3,NA
fcp-trial,163,896858,0.0-118.0-0.0,voc_e2,11724,"[{""event"":""fullscreenenter"",""trial"":1,""time"":1450}]",NA,NA,NA,NA,NA,4,#D8271C,#741CD8,0,10,0,38,1,1514.800000011921,39,0,1680,10,1,experiment,NA,NA,1,0.3,0.7,3,2,109,3,NA
fcp-trial,164,899849,0.0-119.0-0.0,voc_e2,11724,"[{""event"":""fullscreenenter"",""trial"":1,""time"":1450}]",NA,NA,NA,NA,NA,2,#D8271C,#741CD8,10,10,0,38,1,1211.800000011921,39,0,264,10,1,experiment,NA,NA,1,0.3,0.7,3,2,110,3,NA
fcp-trial,165,902812,0.0-120.0-0.0,voc_e2,11724,"[{""event"":""fullscreenenter"",""trial"":1,""time"":1450}]",NA,NA,NA,NA,NA,0,#D8271C,#741CD8,0,0,0,38,1,1168.7999999821186,39,0,278.40000000596046,0,1,experiment,NA,NA,1,0.3,0.7,3,2,111,3,NA
fcp-trial,166,906240,0.0-121.0-0.0,voc_e2,11724,"[{""event"":""fullscreenenter"",""trial"":1,""time"":1450}]",NA,NA,NA,NA,NA,4,#3386FF,#D89F1C,0,10,0,38,1,1208.7999999821186,39,0,700.2999999821186,10,1,experiment,NA,NA,0,0.1,0.9,1,0,112,3,NA
fcp-trial,167,911703,0.0-122.0-0.0,voc_e2,11724,"[{""event"":""fullscreenenter"",""trial"":1,""time"":1450}]",NA,NA,NA,NA,NA,3,#D8271C,#741CD8,0,0,0,38,1,3337.5999999940395,39,0,617.5999999940395,0,1,experiment,NA,NA,1,0.3,0.7,3,2,113,3,NA
fcp-trial,168,915619,0.0-123.0-0.0,voc_e2,11724,"[{""event"":""fullscreenenter"",""trial"":1,""time"":1450}]",NA,NA,NA,NA,NA,1,#D8271C,#741CD8,0,0,0,38,1,2095.0999999940395,39,0,309,0,1,experiment,NA,NA,1,0.3,0.7,3,2,114,3,NA
fcp-trial,169,918747,0.0-124.0-0.0,voc_e2,11724,"[{""event"":""fullscreenenter"",""trial"":1,""time"":1450}]",NA,NA,NA,NA,NA,4,#1CD855,#FA92F8,0,0,0,40,0,1148.9000000059605,39,0,462.2999999821186,0,1,experiment,NA,NA,2,0.5,0.5,5,4,115,3,NA
fcp-trial,170,921258,0.0-125.0-0.0,voc_e2,11724,"[{""event"":""fullscreenenter"",""trial"":1,""time"":1450}]",NA,NA,NA,NA,NA,6,#FA92F8,#1CD855,0,10,1,38,1,743.7000000178814,37,1,256.80000001192093,0,1,experiment,NA,NA,2,0.5,0.5,4,5,116,3,NA
fcp-trial,171,924306,0.0-126.0-0.0,voc_e2,11724,"[{""event"":""fullscreenenter"",""trial"":1,""time"":1450}]",NA,NA,NA,NA,NA,1,#D89F1C,#3386FF,10,0,1,38,1,1067.0999999940395,37,1,464.90000000596046,10,1,experiment,NA,NA,0,0.9,0.1,0,1,117,3,NA
fcp-trial,172,928842,0.0-127.0-0.0,voc_e2,11724,"[{""event"":""fullscreenenter"",""trial"":1,""time"":1450}]",NA,NA,NA,NA,NA,5,#D8271C,#741CD8,0,10,0,40,0,1754.5999999940395,37,1,1264.5,0,0,experiment,NA,NA,1,0.3,0.7,3,2,118,3,NA
fcp-trial,173,932811,0.0-128.0-0.0,voc_e2,11724,"[{""event"":""fullscreenenter"",""trial"":1,""time"":1450}]",NA,NA,NA,NA,NA,3,#FA92F8,#1CD855,0,10,1,38,1,1908.7000000178814,37,1,545.3000000119209,0,1,experiment,NA,NA,2,0.5,0.5,4,5,119,3,NA
fcp-trial,174,936076,0.0-129.0-0.0,voc_e2,11724,"[{""event"":""fullscreenenter"",""trial"":1,""time"":1450}]",NA,NA,NA,NA,NA,2,#1CD855,#FA92F8,10,0,0,40,0,1214.9000000059605,39,0,535.5,0,1,experiment,NA,NA,2,0.5,0.5,5,4,120,3,NA
fcp-trial,175,939642,0.0-130.0-0.0,voc_e2,11724,"[{""event"":""fullscreenenter"",""trial"":1,""time"":1450}]",NA,NA,NA,NA,NA,5,#FA92F8,#1CD855,10,10,1,40,0,1279,39,0,773.9000000059605,10,0,experiment,NA,NA,2,0.5,0.5,4,5,121,3,NA
fcp-trial,176,943244,0.0-131.0-0.0,voc_e2,11724,"[{""event"":""fullscreenenter"",""trial"":1,""time"":1450}]",NA,NA,NA,NA,NA,3,#D89F1C,#3386FF,10,0,1,38,1,1189.7999999821186,37,1,896.4000000059605,10,1,experiment,NA,NA,0,0.9,0.1,0,1,122,3,NA
fcp-trial,177,947087,0.0-132.0-0.0,voc_e2,11724,"[{""event"":""fullscreenenter"",""trial"":1,""time"":1450}]",NA,NA,NA,NA,NA,6,#741CD8,#D8271C,0,10,1,40,0,1794.5,39,0,534.0999999940395,10,0,experiment,NA,NA,1,0.7,0.3,2,3,123,3,NA
fcp-trial,178,950092,0.0-133.0-0.0,voc_e2,11724,"[{""event"":""fullscreenenter"",""trial"":1,""time"":1450}]",NA,NA,NA,NA,NA,1,#FA92F8,#1CD855,10,10,1,38,1,1113.7999999821186,39,0,380.2000000178814,10,0,experiment,NA,NA,2,0.5,0.5,4,5,124,3,NA
fcp-trial,179,952812,0.0-134.0-0.0,voc_e2,11724,"[{""event"":""fullscreenenter"",""trial"":1,""time"":1450}]",NA,NA,NA,NA,NA,0,#FA92F8,#1CD855,0,0,1,38,1,852.5999999940395,39,0,351.80000001192093,0,0,experiment,NA,NA,2,0.5,0.5,4,5,125,3,NA
fcp-trial,180,955907,0.0-135.0-0.0,voc_e2,11724,"[{""event"":""fullscreenenter"",""trial"":1,""time"":1450}]",NA,NA,NA,NA,NA,2,#3386FF,#D89F1C,0,10,0,38,1,1261.5,39,0,321.5,10,1,experiment,NA,NA,0,0.1,0.9,1,0,126,3,NA
fcp-trial,181,958595,0.0-136.0-0.0,voc_e2,11724,"[{""event"":""fullscreenenter"",""trial"":1,""time"":1450}]",NA,NA,NA,NA,NA,2,#D89F1C,#3386FF,10,0,1,38,1,866.4000000059605,37,1,313.19999998807907,10,1,experiment,NA,NA,0,0.9,0.1,0,1,127,3,NA
fcp-trial,182,962555,0.0-137.0-0.0,voc_e2,11724,"[{""event"":""fullscreenenter"",""trial"":1,""time"":1450}]",NA,NA,NA,NA,NA,1,#FA92F8,#1CD855,10,10,1,38,1,2126.0999999940395,39,0,322.2000000178814,10,0,experiment,NA,NA,2,0.5,0.5,4,5,128,3,NA
fcp-trial,183,965155,0.0-138.0-0.0,voc_e2,11724,"[{""event"":""fullscreenenter"",""trial"":1,""time"":1450}]",NA,NA,NA,NA,NA,4,#741CD8,#D8271C,10,0,1,38,1,741.5,39,0,344,0,0,experiment,NA,NA,1,0.7,0.3,2,3,129,3,NA
fcp-trial,184,968004,0.0-139.0-0.0,voc_e2,11724,"[{""event"":""fullscreenenter"",""trial"":1,""time"":1450}]",NA,NA,NA,NA,NA,1,#D8271C,#741CD8,10,10,0,38,1,1034.5,37,1,297.59999999403954,10,0,experiment,NA,NA,1,0.3,0.7,3,2,130,3,NA
fcp-trial,185,970669,0.0-140.0-0.0,voc_e2,11724,"[{""event"":""fullscreenenter"",""trial"":1,""time"":1450}]",NA,NA,NA,NA,NA,0,#FA92F8,#1CD855,10,0,1,38,1,794.6999999880791,39,0,358.40000000596046,0,0,experiment,NA,NA,2,0.5,0.5,4,5,131,3,NA
fcp-trial,186,973571,0.0-141.0-0.0,voc_e2,11724,"[{""event"":""fullscreenenter"",""trial"":1,""time"":1450}]",NA,NA,NA,NA,NA,3,#D89F1C,#3386FF,10,0,1,38,1,819.8999999761581,37,1,571,10,1,experiment,NA,NA,0,0.9,0.1,0,1,132,3,NA
fcp-trial,187,975955,0.0-142.0-0.0,voc_e2,11724,"[{""event"":""fullscreenenter"",""trial"":1,""time"":1450}]",NA,NA,NA,NA,NA,2,#741CD8,#D8271C,10,10,1,38,1,538.5999999940395,39,0,333.59999999403954,10,0,experiment,NA,NA,1,0.7,0.3,2,3,133,3,NA
fcp-trial,188,978788,0.0-143.0-0.0,voc_e2,11724,"[{""event"":""fullscreenenter"",""trial"":1,""time"":1450}]",NA,NA,NA,NA,NA,0,#3386FF,#D89F1C,0,10,0,38,1,808.3000000119209,39,0,515.9000000059605,10,1,experiment,NA,NA,0,0.1,0.9,1,0,134,3,NA
fcp-trial,189,981318,0.0-144.0-0.0,voc_e2,11724,"[{""event"":""fullscreenenter"",""trial"":1,""time"":1450}]",NA,NA,NA,NA,NA,6,#FA92F8,#1CD855,0,0,1,38,1,531.5999999940395,39,0,487,0,0,experiment,NA,NA,2,0.5,0.5,4,5,135,3,NA
fcp-trial,190,984380,0.0-145.0-0.0,voc_e2,11724,"[{""event"":""fullscreenenter"",""trial"":1,""time"":1450}]",NA,NA,NA,NA,NA,1,#3386FF,#D89F1C,0,10,0,38,1,846.1000000238419,39,0,706.9000000059605,10,1,experiment,NA,NA,0,0.1,0.9,1,0,136,4,NA
fcp-trial,191,988133,0.0-146.0-0.0,voc_e2,11724,"[{""event"":""fullscreenenter"",""trial"":1,""time"":1450}]",NA,NA,NA,NA,NA,5,#1CD855,#FA92F8,10,0,0,40,0,1239.0999999940395,37,1,996.2000000178814,10,0,experiment,NA,NA,2,0.5,0.5,5,4,137,4,NA
fcp-trial,192,991133,0.0-147.0-0.0,voc_e2,11724,"[{""event"":""fullscreenenter"",""trial"":1,""time"":1450}]",NA,NA,NA,NA,NA,5,#D8271C,#741CD8,0,0,0,40,0,1051.4000000059605,37,1,434.7999999821186,0,0,experiment,NA,NA,1,0.3,0.7,3,2,138,4,NA
fcp-trial,193,994646,0.0-148.0-0.0,voc_e2,11724,"[{""event"":""fullscreenenter"",""trial"":1,""time"":1450}]",NA,NA,NA,NA,NA,5,#3386FF,#D89F1C,0,10,0,38,1,1618.5,39,0,375.699999988079,10,1,experiment,NA,NA,0,0.1,0.9,1,0,139,4,NA
fcp-trial,194,999445,0.0-149.0-0.0,voc_e2,11724,"[{""event"":""fullscreenenter"",""trial"":1,""time"":1450}]",NA,NA,NA,NA,NA,6,#D8271C,#741CD8,10,10,0,40,0,1886.1000000238419,37,1,1404.9000000059605,10,0,experiment,NA,NA,1,0.3,0.7,3,2,140,4,NA
fcp-trial,195,1003253,0.0-150.0-0.0,voc_e2,11724,"[{""event"":""fullscreenenter"",""trial"":1,""time"":1450}]",NA,NA,NA,NA,NA,2,#1CD855,#FA92F8,10,0,0,38,1,1970.300000011921,37,1,317.30000001192093,10,0,experiment,NA,NA,2,0.5,0.5,5,4,141,4,NA
fcp-trial,196,1006894,0.0-151.0-0.0,voc_e2,11724,"[{""event"":""fullscreenenter"",""trial"":1,""time"":1450}]",NA,NA,NA,NA,NA,3,#D8271C,#741CD8,0,10,0,38,1,1726.5,37,1,402.2000000178814,0,0,experiment,NA,NA,1,0.3,0.7,3,2,142,4,NA
fcp-trial,197,1009820,0.0-152.0-0.0,voc_e2,11724,"[{""event"":""fullscreenenter"",""trial"":1,""time"":1450}]",NA,NA,NA,NA,NA,0,#741CD8,#D8271C,0,0,1,38,1,1101.3999999761581,39,0,311.40000000596046,0,0,experiment,NA,NA,1,0.7,0.3,2,3,143,4,NA
fcp-trial,198,1012742,0.0-153.0-0.0,voc_e2,11724,"[{""event"":""fullscreenenter"",""trial"":1,""time"":1450}]",NA,NA,NA,NA,NA,4,#D89F1C,#3386FF,10,10,1,38,1,919.5,37,1,493.40000000596046,10,1,experiment,NA,NA,0,0.9,0.1,0,1,144,4,NA
fcp-trial,199,1017772,0.0-154.0-0.0,voc_e2,11724,"[{""event"":""fullscreenenter"",""trial"":1,""time"":1450}]",NA,NA,NA,NA,NA,4,#FA92F8,#1CD855,10,10,1,40,0,2723.199999988079,39,0,799.7999999821186,10,0,experiment,NA,NA,2,0.5,0.5,4,5,145,4,NA
fcp-trial,200,1021014,0.0-155.0-0.0,voc_e2,11724,"[{""event"":""fullscreenenter"",""trial"":1,""time"":1450}]",NA,NA,NA,NA,NA,6,#D89F1C,#3386FF,10,0,1,38,1,1079.4000000059605,37,1,650.6999999880791,10,1,experiment,NA,NA,0,0.9,0.1,0,1,146,4,NA
fcp-trial,201,1026191,0.0-156.0-0.0,voc_e2,11724,"[{""event"":""fullscreenenter"",""trial"":1,""time"":1450}]",NA,NA,NA,NA,NA,3,#1CD855,#FA92F8,0,0,0,38,1,3327.2000000178814,37,1,333.90000000596046,0,0,experiment,NA,NA,2,0.5,0.5,5,4,147,4,NA
fcp-trial,202,1029678,0.0-157.0-0.0,voc_e2,11724,"[{""event"":""fullscreenenter"",""trial"":1,""time"":1450}]",NA,NA,NA,NA,NA,1,#1CD855,#FA92F8,10,10,0,38,1,1536.0999999940395,37,1,439.09999999403954,10,0,experiment,NA,NA,2,0.5,0.5,5,4,148,4,NA
fcp-trial,203,1034039,0.0-158.0-0.0,voc_e2,11724,"[{""event"":""fullscreenenter"",""trial"":1,""time"":1450}]",NA,NA,NA,NA,NA,2,#741CD8,#D8271C,10,10,1,38,1,2583.800000011921,39,0,265.09999999403954,10,0,experiment,NA,NA,1,0.7,0.3,2,3,149,4,NA
fcp-trial,204,1038621,0.0-159.0-0.0,voc_e2,11724,"[{""event"":""fullscreenenter"",""trial"":1,""time"":1450}]",NA,NA,NA,NA,NA,4,#3386FF,#D89F1C,0,10,0,38,1,2700.0999999940395,39,0,365.90000000596046,10,1,experiment,NA,NA,0,0.1,0.9,1,0,150,4,NA
fcp-trial,205,1042525,0.0-160.0-0.0,voc_e2,11724,"[{""event"":""fullscreenenter"",""trial"":1,""time"":1450}]",NA,NA,NA,NA,NA,6,#FA92F8,#1CD855,10,10,1,40,0,1830.8999999761581,39,0,558.2000000178814,10,0,experiment,NA,NA,2,0.5,0.5,4,5,151,4,NA
fcp-trial,206,1046998,0.0-161.0-0.0,voc_e2,11724,"[{""event"":""fullscreenenter"",""trial"":1,""time"":1450}]",NA,NA,NA,NA,NA,3,#741CD8,#D8271C,10,0,1,40,0,1763.800000011921,37,1,1196.7000000178814,10,1,experiment,NA,NA,1,0.7,0.3,2,3,152,4,NA
fcp-trial,207,1049974,0.0-162.0-0.0,voc_e2,11724,"[{""event"":""fullscreenenter"",""trial"":1,""time"":1450}]",NA,NA,NA,NA,NA,0,#3386FF,#D89F1C,10,10,0,38,1,1115.4000000059605,39,0,344.59999999403954,10,1,experiment,NA,NA,0,0.1,0.9,1,0,153,4,NA
fcp-trial,208,1055711,0.0-163.0-0.0,voc_e2,11724,"[{""event"":""fullscreenenter"",""trial"":1,""time"":1450}]",NA,NA,NA,NA,NA,0,#D8271C,#741CD8,0,10,0,38,1,3585.4000000059605,37,1,640,0,0,experiment,NA,NA,1,0.3,0.7,3,2,154,4,NA
fcp-trial,209,1060206,0.0-164.0-0.0,voc_e2,11724,"[{""event"":""fullscreenenter"",""trial"":1,""time"":1450}]",NA,NA,NA,NA,NA,2,#FA92F8,#1CD855,10,10,1,38,1,2414.199999988079,39,0,572.8000000119209,10,0,experiment,NA,NA,2,0.5,0.5,4,5,155,4,NA
fcp-trial,210,1063798,0.0-165.0-0.0,voc_e2,11724,"[{""event"":""fullscreenenter"",""trial"":1,""time"":1450}]",NA,NA,NA,NA,NA,5,#1CD855,#FA92F8,0,10,0,40,0,1519.5999999940395,39,0,560.4000000059605,10,1,experiment,NA,NA,2,0.5,0.5,5,4,156,4,NA
fcp-trial,211,1066735,0.0-166.0-0.0,voc_e2,11724,"[{""event"":""fullscreenenter"",""trial"":1,""time"":1450}]",NA,NA,NA,NA,NA,3,#D89F1C,#3386FF,10,0,1,38,1,1100.3999999761581,37,1,320.69999998807907,10,1,experiment,NA,NA,0,0.9,0.1,0,1,157,4,NA
fcp-trial,212,1073788,0.0-167.0-0.0,voc_e2,11724,"[{""event"":""fullscreenenter"",""trial"":1,""time"":1450}]",NA,NA,NA,NA,NA,1,#741CD8,#D8271C,10,0,1,38,1,5172.5,39,0,364.7000000178814,0,0,experiment,NA,NA,1,0.7,0.3,2,3,158,4,NA
fcp-trial,213,1077665,0.0-168.0-0.0,voc_e2,11724,"[{""event"":""fullscreenenter"",""trial"":1,""time"":1450}]",NA,NA,NA,NA,NA,6,#3386FF,#D89F1C,0,10,0,40,0,1707.1000000238419,39,0,654.2999999821186,10,1,experiment,NA,NA,0,0.1,0.9,1,0,159,4,NA
fcp-trial,214,1081278,0.0-169.0-0.0,voc_e2,11724,"[{""event"":""fullscreenenter"",""trial"":1,""time"":1450}]",NA,NA,NA,NA,NA,3,#1CD855,#FA92F8,10,10,0,38,1,1453,37,1,649.5,10,0,experiment,NA,NA,2,0.5,0.5,5,4,160,4,NA
fcp-trial,215,1084511,0.0-170.0-0.0,voc_e2,11724,"[{""event"":""fullscreenenter"",""trial"":1,""time"":1450}]",NA,NA,NA,NA,NA,2,#3386FF,#D89F1C,0,10,0,38,1,1263,39,0,455.5,10,1,experiment,NA,NA,0,0.1,0.9,1,0,161,4,NA
fcp-trial,216,1089750,0.0-171.0-0.0,voc_e2,11724,"[{""event"":""fullscreenenter"",""trial"":1,""time"":1450}]",NA,NA,NA,NA,NA,4,#D8271C,#741CD8,10,10,0,40,0,1527.0999999940395,37,1,2201.4000000059605,10,0,experiment,NA,NA,1,0.3,0.7,3,2,162,4,NA
fcp-trial,217,1093518,0.0-172.0-0.0,voc_e2,11724,"[{""event"":""fullscreenenter"",""trial"":1,""time"":1450}]",NA,NA,NA,NA,NA,5,#D8271C,#741CD8,0,10,0,40,0,1610,37,1,650.7999999821186,0,0,experiment,NA,NA,1,0.3,0.7,3,2,163,4,NA
fcp-trial,218,1096794,0.0-173.0-0.0,voc_e2,11724,"[{""event"":""fullscreenenter"",""trial"":1,""time"":1450}]",NA,NA,NA,NA,NA,5,#3386FF,#D89F1C,0,10,0,38,1,1373,39,0,390.199999988079,10,1,experiment,NA,NA,0,0.1,0.9,1,0,164,4,NA
fcp-trial,219,1101600,0.0-174.0-0.0,voc_e2,11724,"[{""event"":""fullscreenenter"",""trial"":1,""time"":1450}]",NA,NA,NA,NA,NA,0,#1CD855,#FA92F8,0,0,0,38,1,2821.5999999940395,37,1,464,0,0,experiment,NA,NA,2,0.5,0.5,5,4,165,4,NA
fcp-trial,220,1107481,0.0-175.0-0.0,voc_e2,11724,"[{""event"":""fullscreenenter"",""trial"":1,""time"":1450}]",NA,NA,NA,NA,NA,1,#D89F1C,#3386FF,10,10,1,38,1,3743.5999999940395,37,1,629.0999999940395,10,1,experiment,NA,NA,0,0.9,0.1,0,1,166,4,NA
fcp-trial,221,1111679,0.0-176.0-0.0,voc_e2,11724,"[{""event"":""fullscreenenter"",""trial"":1,""time"":1450}]",NA,NA,NA,NA,NA,6,#D8271C,#741CD8,0,0,0,38,1,1710.699999988079,37,1,976.4000000059604,0,0,experiment,NA,NA,1,0.3,0.7,3,2,167,4,NA
fcp-trial,222,1115588,0.0-177.0-0.0,voc_e2,11724,"[{""event"":""fullscreenenter"",""trial"":1,""time"":1450}]",NA,NA,NA,NA,NA,4,#1CD855,#FA92F8,10,10,0,40,0,1808.5,39,0,594.2000000178814,10,1,experiment,NA,NA,2,0.5,0.5,5,4,168,4,NA
fcp-trial,223,1118743,0.0-178.0-0.0,voc_e2,11724,"[{""event"":""fullscreenenter"",""trial"":1,""time"":1450}]",NA,NA,NA,NA,NA,2,#D89F1C,#3386FF,10,0,1,38,1,1364.4000000059605,37,1,279.2000000178814,10,1,experiment,NA,NA,0,0.9,0.1,0,1,169,4,NA
fcp-trial,224,1123033,0.0-179.0-0.0,voc_e2,11724,"[{""event"":""fullscreenenter"",""trial"":1,""time"":1450}]",NA,NA,NA,NA,NA,2,#1CD855,#FA92F8,0,0,0,38,1,2451.5,37,1,325.80000001192093,0,0,experiment,NA,NA,2,0.5,0.5,5,4,170,4,NA
fcp-trial,225,1127328,0.0-180.0-0.0,voc_e2,11724,"[{""event"":""fullscreenenter"",""trial"":1,""time"":1450}]",NA,NA,NA,NA,NA,2,#D8271C,#741CD8,10,10,0,38,1,2257.4000000059605,37,1,527.4000000059605,10,0,experiment,NA,NA,1,0.3,0.7,3,2,171,4,NA
fcp-trial,226,1130463,0.0-181.0-0.0,voc_e2,11724,"[{""event"":""fullscreenenter"",""trial"":1,""time"":1450}]",NA,NA,NA,NA,NA,1,#741CD8,#D8271C,10,10,1,38,1,1246.5,39,0,379.800000011921,10,0,experiment,NA,NA,1,0.7,0.3,2,3,172,4,NA
fcp-trial,227,1133559,0.0-182.0-0.0,voc_e2,11724,"[{""event"":""fullscreenenter"",""trial"":1,""time"":1450}]",NA,NA,NA,NA,NA,6,#3386FF,#D89F1C,10,10,0,38,1,1048.5999999940395,39,0,537.5999999940395,10,1,experiment,NA,NA,0,0.1,0.9,1,0,173,4,NA
fcp-trial,228,1137936,0.0-183.0-0.0,voc_e2,11724,"[{""event"":""fullscreenenter"",""trial"":1,""time"":1450}]",NA,NA,NA,NA,NA,0,#741CD8,#D8271C,10,0,1,38,1,2452.5,37,1,410.5,10,1,experiment,NA,NA,1,0.7,0.3,2,3,174,4,NA
fcp-trial,229,1141264,0.0-184.0-0.0,voc_e2,11724,"[{""event"":""fullscreenenter"",""trial"":1,""time"":1450}]",NA,NA,NA,NA,NA,0,#1CD855,#FA92F8,0,0,0,38,1,1495.0999999940395,37,1,323.80000001192093,0,0,experiment,NA,NA,2,0.5,0.5,5,4,175,4,NA
fcp-trial,230,1144773,0.0-185.0-0.0,voc_e2,11724,"[{""event"":""fullscreenenter"",""trial"":1,""time"":1450}]",NA,NA,NA,NA,NA,6,#1CD855,#FA92F8,0,10,0,40,0,1271.199999988079,37,1,730.7000000178814,0,0,experiment,NA,NA,2,0.5,0.5,5,4,176,4,NA
fcp-trial,231,1148377,0.0-186.0-0.0,voc_e2,11724,"[{""event"":""fullscreenenter"",""trial"":1,""time"":1450}]",NA,NA,NA,NA,NA,4,#FA92F8,#1CD855,0,0,1,40,0,1239.0999999940395,37,1,849.7000000178814,0,1,experiment,NA,NA,2,0.5,0.5,4,5,177,4,NA
fcp-trial,232,1151569,0.0-187.0-0.0,voc_e2,11724,"[{""event"":""fullscreenenter"",""trial"":1,""time"":1450}]",NA,NA,NA,NA,NA,4,#D89F1C,#3386FF,10,0,1,38,1,1337,37,1,347.80000001192093,10,1,experiment,NA,NA,0,0.9,0.1,0,1,178,4,NA
fcp-trial,233,1155778,0.0-188.0-0.0,voc_e2,11724,"[{""event"":""fullscreenenter"",""trial"":1,""time"":1450}]",NA,NA,NA,NA,NA,5,#D8271C,#741CD8,0,0,0,40,0,1666.300000011921,37,1,1028.300000011921,0,0,experiment,NA,NA,1,0.3,0.7,3,2,179,4,NA
fcp-trial,234,1158674,0.0-189.0-0.0,voc_e2,11724,"[{""event"":""fullscreenenter"",""trial"":1,""time"":1450}]",NA,NA,NA,NA,NA,1,#3386FF,#D89F1C,0,10,0,38,1,866.6999999880791,39,0,511.7000000178814,10,1,experiment,NA,NA,0,0.1,0.9,1,0,180,4,NA
fcp-trial,235,1161224,0.0-190.0-0.0,voc_e2,11724,"[{""event"":""fullscreenenter"",""trial"":1,""time"":1450}]",NA,NA,NA,NA,NA,4,#D8271C,#741CD8,0,10,0,38,1,590.5,37,1,448.800000011921,0,0,experiment,NA,NA,1,0.3,0.7,3,2,181,5,NA
fcp-trial,236,1164787,0.0-191.0-0.0,voc_e2,11724,"[{""event"":""fullscreenenter"",""trial"":1,""time"":1450}]",NA,NA,NA,NA,NA,1,#1CD855,#FA92F8,10,10,0,38,1,1709.0999999940395,37,1,334.40000000596046,10,0,experiment,NA,NA,2,0.5,0.5,5,4,182,5,NA
fcp-trial,237,1167841,0.0-192.0-0.0,voc_e2,11724,"[{""event"":""fullscreenenter"",""trial"":1,""time"":1450}]",NA,NA,NA,NA,NA,3,#D89F1C,#3386FF,0,0,1,38,1,1172.4000000059605,37,1,367.60000002384186,0,1,experiment,NA,NA,0,0.9,0.1,0,1,183,5,NA
fcp-trial,238,1170519,0.0-193.0-0.0,voc_e2,11724,"[{""event"":""fullscreenenter"",""trial"":1,""time"":1450}]",NA,NA,NA,NA,NA,5,#3386FF,#D89F1C,0,10,0,38,1,705.6999999880791,39,0,453.699999988079,10,1,experiment,NA,NA,0,0.1,0.9,1,0,184,5,NA
fcp-trial,239,1174796,0.0-194.0-0.0,voc_e2,11724,"[{""event"":""fullscreenenter"",""trial"":1,""time"":1450}]",NA,NA,NA,NA,NA,6,#D8271C,#741CD8,0,10,0,40,0,2077,37,1,680,0,0,experiment,NA,NA,1,0.3,0.7,3,2,185,5,NA
fcp-trial,240,1177714,0.0-195.0-0.0,voc_e2,11724,"[{""event"":""fullscreenenter"",""trial"":1,""time"":1450}]",NA,NA,NA,NA,NA,0,#3386FF,#D89F1C,0,10,0,38,1,1108.2999999821186,39,0,299.2999999821186,10,1,experiment,NA,NA,0,0.1,0.9,1,0,186,5,NA
fcp-trial,241,1180709,0.0-196.0-0.0,voc_e2,11724,"[{""event"":""fullscreenenter"",""trial"":1,""time"":1450}]",NA,NA,NA,NA,NA,5,#1CD855,#FA92F8,0,10,0,38,1,1161.2000000178814,37,1,316.59999999403954,0,0,experiment,NA,NA,2,0.5,0.5,5,4,187,5,NA
fcp-trial,242,1183498,0.0-197.0-0.0,voc_e2,11724,"[{""event"":""fullscreenenter"",""trial"":1,""time"":1450}]",NA,NA,NA,NA,NA,3,#1CD855,#FA92F8,0,10,0,38,1,865.2000000178814,39,0,408.10000002384186,10,1,experiment,NA,NA,2,0.5,0.5,5,4,188,5,NA
fcp-trial,243,1187359,0.0-198.0-0.0,voc_e2,11724,"[{""event"":""fullscreenenter"",""trial"":1,""time"":1450}]",NA,NA,NA,NA,NA,3,#741CD8,#D8271C,10,0,1,38,1,1078.800000011921,37,1,1268.5999999940395,10,1,experiment,NA,NA,1,0.7,0.3,2,3,189,5,NA
fcp-trial,244,1189890,0.0-199.0-0.0,voc_e2,11724,"[{""event"":""fullscreenenter"",""trial"":1,""time"":1450}]",NA,NA,NA,NA,NA,2,#D89F1C,#3386FF,10,0,1,38,1,740.0999999940395,37,1,275,10,1,experiment,NA,NA,0,0.9,0.1,0,1,190,5,NA
fcp-trial,245,1192922,0.0-200.0-0.0,voc_e2,11724,"[{""event"":""fullscreenenter"",""trial"":1,""time"":1450}]",NA,NA,NA,NA,NA,5,#741CD8,#D8271C,0,0,1,38,1,853.7999999821186,37,1,672,0,1,experiment,NA,NA,1,0.7,0.3,2,3,191,5,NA
fcp-trial,246,1195433,0.0-201.0-0.0,voc_e2,11724,"[{""event"":""fullscreenenter"",""trial"":1,""time"":1450}]",NA,NA,NA,NA,NA,2,#FA92F8,#1CD855,10,10,1,38,1,509.09999999403954,37,1,490.7000000178814,10,1,experiment,NA,NA,2,0.5,0.5,4,5,192,5,NA
fcp-trial,247,1198865,0.0-202.0-0.0,voc_e2,11724,"[{""event"":""fullscreenenter"",""trial"":1,""time"":1450}]",NA,NA,NA,NA,NA,4,#741CD8,#D8271C,10,10,1,40,0,1284.199999988079,39,0,634.5,10,0,experiment,NA,NA,1,0.7,0.3,2,3,193,5,NA
fcp-trial,248,1201625,0.0-203.0-0.0,voc_e2,11724,"[{""event"":""fullscreenenter"",""trial"":1,""time"":1450}]",NA,NA,NA,NA,NA,4,#D89F1C,#3386FF,10,0,1,38,1,979.4000000059605,37,1,262.5,10,1,experiment,NA,NA,0,0.9,0.1,0,1,194,5,NA
fcp-trial,249,1205516,0.0-204.0-0.0,voc_e2,11724,"[{""event"":""fullscreenenter"",""trial"":1,""time"":1450}]",NA,NA,NA,NA,NA,0,#3386FF,#D89F1C,10,10,0,38,1,1887.7000000178814,39,0,491,10,1,experiment,NA,NA,0,0.1,0.9,1,0,195,5,NA
fcp-trial,250,1213503,0.0-205.0-0.0,voc_e2,11724,"[{""event"":""fullscreenenter"",""trial"":1,""time"":1450}]",NA,NA,NA,NA,NA,3,#741CD8,#D8271C,10,0,1,38,1,4397.799999982119,37,1,2078.5999999940395,10,1,experiment,NA,NA,1,0.7,0.3,2,3,196,5,NA
fcp-trial,251,1220238,0.0-206.0-0.0,voc_e2,11724,"[{""event"":""fullscreenenter"",""trial"":1,""time"":1450}]",NA,NA,NA,NA,NA,0,#1CD855,#FA92F8,10,0,0,38,1,1585.5999999940395,39,0,3643.400000005961,0,1,experiment,NA,NA,2,0.5,0.5,5,4,197,5,NA
fcp-trial,252,1223266,0.0-207.0-0.0,voc_e2,11724,"[{""event"":""fullscreenenter"",""trial"":1,""time"":1450}]",NA,NA,NA,NA,NA,2,#D8271C,#741CD8,10,10,0,38,1,1015.6999999880791,39,0,499.40000000596046,10,1,experiment,NA,NA,1,0.3,0.7,3,2,198,5,NA
fcp-trial,253,1225762,0.0-208.0-0.0,voc_e2,11724,"[{""event"":""fullscreenenter"",""trial"":1,""time"":1450}]",NA,NA,NA,NA,NA,5,#D89F1C,#3386FF,10,0,1,38,1,620,37,1,358.69999998807907,10,1,experiment,NA,NA,0,0.9,0.1,0,1,199,5,NA
fcp-trial,254,1229883,0.0-209.0-0.0,voc_e2,11724,"[{""event"":""fullscreenenter"",""trial"":1,""time"":1450}]",NA,NA,NA,NA,NA,6,#1CD855,#FA92F8,10,0,0,40,0,1443.4000000059605,37,1,1161.5999999940395,10,0,experiment,NA,NA,2,0.5,0.5,5,4,200,5,NA
fcp-trial,255,1235834,0.0-210.0-0.0,voc_e2,11724,"[{""event"":""fullscreenenter"",""trial"":1,""time"":1450}]",NA,NA,NA,NA,NA,6,#741CD8,#D8271C,10,0,1,38,1,2082,37,1,2353.800000011921,10,1,experiment,NA,NA,1,0.7,0.3,2,3,201,5,NA
fcp-trial,256,1238890,0.0-211.0-0.0,voc_e2,11724,"[{""event"":""fullscreenenter"",""trial"":1,""time"":1450}]",NA,NA,NA,NA,NA,1,#FA92F8,#1CD855,0,0,1,38,1,1091.7000000178814,39,0,454.800000011921,0,0,experiment,NA,NA,2,0.5,0.5,4,5,202,5,NA
fcp-trial,257,1241972,0.0-212.0-0.0,voc_e2,11724,"[{""event"":""fullscreenenter"",""trial"":1,""time"":1450}]",NA,NA,NA,NA,NA,3,#1CD855,#FA92F8,10,0,0,38,1,1118.800000011921,39,0,445.800000011921,0,1,experiment,NA,NA,2,0.5,0.5,5,4,203,5,NA
fcp-trial,258,1244746,0.0-213.0-0.0,voc_e2,11724,"[{""event"":""fullscreenenter"",""trial"":1,""time"":1450}]",NA,NA,NA,NA,NA,3,#D89F1C,#3386FF,10,0,1,38,1,802.1999999880791,37,1,456.09999999403954,10,1,experiment,NA,NA,0,0.9,0.1,0,1,204,5,NA
fcp-trial,259,1248132,0.0-214.0-0.0,voc_e2,11724,"[{""event"":""fullscreenenter"",""trial"":1,""time"":1450}]",NA,NA,NA,NA,NA,4,#FA92F8,#1CD855,10,10,1,38,1,1593.800000011921,37,1,277.80000001192093,10,1,experiment,NA,NA,2,0.5,0.5,4,5,205,5,NA
fcp-trial,260,1252348,0.0-215.0-0.0,voc_e2,11724,"[{""event"":""fullscreenenter"",""trial"":1,""time"":1450}]",NA,NA,NA,NA,NA,0,#741CD8,#D8271C,10,0,1,38,1,1798.4000000059605,37,1,908.1999999880792,10,1,experiment,NA,NA,1,0.7,0.3,2,3,206,5,NA
fcp-trial,261,1254902,0.0-216.0-0.0,voc_e2,11724,"[{""event"":""fullscreenenter"",""trial"":1,""time"":1450}]",NA,NA,NA,NA,NA,6,#3386FF,#D89F1C,0,10,0,38,1,675.2999999821186,39,0,367.90000000596046,10,1,experiment,NA,NA,0,0.1,0.9,1,0,207,5,NA
fcp-trial,262,1257875,0.0-217.0-0.0,voc_e2,11724,"[{""event"":""fullscreenenter"",""trial"":1,""time"":1450}]",NA,NA,NA,NA,NA,1,#741CD8,#D8271C,10,0,1,38,1,1171.2999999821186,37,1,288.40000000596046,10,1,experiment,NA,NA,1,0.7,0.3,2,3,208,5,NA
fcp-trial,263,1261331,0.0-218.0-0.0,voc_e2,11724,"[{""event"":""fullscreenenter"",""trial"":1,""time"":1450}]",NA,NA,NA,NA,NA,5,#1CD855,#FA92F8,0,0,0,38,1,966.0999999940395,39,0,976.6999999880792,0,1,experiment,NA,NA,2,0.5,0.5,5,4,209,5,NA
fcp-trial,264,1264971,0.0-219.0-0.0,voc_e2,11724,"[{""event"":""fullscreenenter"",""trial"":1,""time"":1450}]",NA,NA,NA,NA,NA,1,#3386FF,#D89F1C,10,10,0,38,1,1606.6000000238419,39,0,523.6999999880791,10,1,experiment,NA,NA,0,0.1,0.9,1,0,210,5,NA
audio-instructions,265,1462727,0.0-220.0,voc_e2,11724,"[{""event"":""fullscreenenter"",""trial"":1,""time"":1450}]",NA,193189.90000000596,static/audio/pause.wav,NA,0,NA,NA,NA,NA,NA,NA,NA,NA,NA,NA,NA,NA,NA,NA,NA,NA,NA,NA,NA,NA,NA,NA,NA,NA,NA
fcp-trial,266,1469488,0.0-221.0-0.0,voc_e2,11724,"[{""event"":""fullscreenenter"",""trial"":1,""time"":1450}]",NA,NA,NA,NA,NA,3,#1CD855,#FA92F8,10,0,0,40,0,4758.199999988079,37,1,492.90000000596046,10,0,experiment,NA,NA,2,0.5,0.5,5,4,211,5,NA
fcp-trial,267,1472416,0.0-222.0-0.0,voc_e2,11724,"[{""event"":""fullscreenenter"",""trial"":1,""time"":1450}]",NA,NA,NA,NA,NA,3,#D89F1C,#3386FF,10,0,1,38,1,1060.5,37,1,357.30000001192093,10,1,experiment,NA,NA,0,0.9,0.1,0,1,212,5,NA
fcp-trial,268,1477127,0.0-223.0-0.0,voc_e2,11724,"[{""event"":""fullscreenenter"",""trial"":1,""time"":1450}]",NA,NA,NA,NA,NA,0,#FA92F8,#1CD855,10,0,1,38,1,1708.300000011921,39,0,1493.2999999821186,0,0,experiment,NA,NA,2,0.5,0.5,4,5,213,5,NA
fcp-trial,269,1480016,0.0-224.0-0.0,voc_e2,11724,"[{""event"":""fullscreenenter"",""trial"":1,""time"":1450}]",NA,NA,NA,NA,NA,3,#741CD8,#D8271C,0,0,1,38,1,1047,37,1,327.90000000596046,0,1,experiment,NA,NA,1,0.7,0.3,2,3,214,5,NA
fcp-trial,270,1483160,0.0-225.0-0.0,voc_e2,11724,"[{""event"":""fullscreenenter"",""trial"":1,""time"":1450}]",NA,NA,NA,NA,NA,6,#FA92F8,#1CD855,10,0,1,38,1,1027.5999999940395,39,0,606.1999999880791,0,0,experiment,NA,NA,2,0.5,0.5,4,5,215,5,NA
fcp-trial,271,1485702,0.0-226.0-0.0,voc_e2,11724,"[{""event"":""fullscreenenter"",""trial"":1,""time"":1450}]",NA,NA,NA,NA,NA,2,#D89F1C,#3386FF,10,0,1,38,1,673.5,37,1,359.2999999821186,10,1,experiment,NA,NA,0,0.9,0.1,0,1,216,5,NA
fcp-trial,272,1488242,0.0-227.0-0.0,voc_e2,11724,"[{""event"":""fullscreenenter"",""trial"":1,""time"":1450}]",NA,NA,NA,NA,NA,1,#D89F1C,#3386FF,10,0,1,38,1,627.1999999880791,37,1,401.59999999403954,10,1,experiment,NA,NA,0,0.9,0.1,0,1,217,5,NA
fcp-trial,273,1490810,0.0-228.0-0.0,voc_e2,11724,"[{""event"":""fullscreenenter"",""trial"":1,""time"":1450}]",NA,NA,NA,NA,NA,2,#FA92F8,#1CD855,0,0,1,38,1,776.5999999940395,39,0,276,0,0,experiment,NA,NA,2,0.5,0.5,4,5,218,5,NA
fcp-trial,274,1493633,0.0-229.0-0.0,voc_e2,11724,"[{""event"":""fullscreenenter"",""trial"":1,""time"":1450}]",NA,NA,NA,NA,NA,0,#741CD8,#D8271C,10,0,1,38,1,956.0999999940395,37,1,358.80000001192093,10,1,experiment,NA,NA,1,0.7,0.3,2,3,219,5,NA
fcp-trial,275,1496056,0.0-230.0-0.0,voc_e2,11724,"[{""event"":""fullscreenenter"",""trial"":1,""time"":1450}]",NA,NA,NA,NA,NA,6,#741CD8,#D8271C,0,0,1,38,1,606.5999999940395,37,1,302.39999997615814,0,1,experiment,NA,NA,1,0.7,0.3,2,3,220,5,NA
fcp-trial,276,1498801,0.0-231.0-0.0,voc_e2,11724,"[{""event"":""fullscreenenter"",""trial"":1,""time"":1450}]",NA,NA,NA,NA,NA,0,#3386FF,#D89F1C,0,10,0,38,1,894.5999999940395,39,0,332.80000001192093,10,1,experiment,NA,NA,0,0.1,0.9,1,0,221,5,NA
fcp-trial,277,1505568,0.0-232.0-0.0,voc_e2,11724,"[{""event"":""fullscreenenter"",""trial"":1,""time"":1450}]",NA,NA,NA,NA,NA,4,#FA92F8,#1CD855,0,10,1,38,1,4662.800000011921,39,0,595.6999999880791,10,0,experiment,NA,NA,2,0.5,0.5,4,5,222,5,NA
fcp-trial,278,1509311,0.0-233.0-0.0,voc_e2,11724,"[{""event"":""fullscreenenter"",""trial"":1,""time"":1450}]",NA,NA,NA,NA,NA,5,#3386FF,#D89F1C,0,10,0,38,1,1586.0999999940395,39,0,651.4000000059605,10,1,experiment,NA,NA,0,0.1,0.9,1,0,223,5,NA
fcp-trial,279,1515066,0.0-234.0-0.0,voc_e2,11724,"[{""event"":""fullscreenenter"",""trial"":1,""time"":1450}]",NA,NA,NA,NA,NA,5,#741CD8,#D8271C,10,0,1,38,1,1690.4000000059605,37,1,2552.5999999940395,10,1,experiment,NA,NA,1,0.7,0.3,2,3,224,5,NA
fcp-trial,280,1519393,0.0-235.0-0.0,voc_e2,11724,"[{""event"":""fullscreenenter"",""trial"":1,""time"":1450}]",NA,NA,NA,NA,NA,5,#FA92F8,#1CD855,0,10,1,38,1,1560.7000000178814,39,0,1259.699999988079,10,0,experiment,NA,NA,2,0.5,0.5,4,5,225,5,NA
fcp-trial,281,1522297,0.0-236.0-0.0,voc_e2,11724,"[{""event"":""fullscreenenter"",""trial"":1,""time"":1450}]",NA,NA,NA,NA,NA,6,#D89F1C,#3386FF,10,0,1,40,0,879.3000000119209,37,1,515.2000000178814,10,1,experiment,NA,NA,0,0.9,0.1,0,1,226,6,NA
fcp-trial,282,1525754,0.0-237.0-0.0,voc_e2,11724,"[{""event"":""fullscreenenter"",""trial"":1,""time"":1450}]",NA,NA,NA,NA,NA,1,#D8271C,#741CD8,10,10,0,38,1,1541.7999999821186,39,0,408.5,10,1,experiment,NA,NA,1,0.3,0.7,3,2,227,6,NA
fcp-trial,283,1528771,0.0-238.0-0.0,voc_e2,11724,"[{""event"":""fullscreenenter"",""trial"":1,""time"":1450}]",NA,NA,NA,NA,NA,4,#D8271C,#741CD8,0,10,0,40,0,1045.5999999940395,39,0,457.59999999403954,10,1,experiment,NA,NA,1,0.3,0.7,3,2,228,6,NA
fcp-trial,284,1533289,0.0-239.0-0.0,voc_e2,11724,"[{""event"":""fullscreenenter"",""trial"":1,""time"":1450}]",NA,NA,NA,NA,NA,1,#FA92F8,#1CD855,0,10,1,38,1,2661.399999976158,39,0,347.5,10,0,experiment,NA,NA,2,0.5,0.5,4,5,229,6,NA
fcp-trial,285,1537057,0.0-240.0-0.0,voc_e2,11724,"[{""event"":""fullscreenenter"",""trial"":1,""time"":1450}]",NA,NA,NA,NA,NA,2,#D8271C,#741CD8,0,0,0,38,1,1946.699999988079,39,0,311.09999999403954,0,1,experiment,NA,NA,1,0.3,0.7,3,2,230,6,NA
fcp-trial,286,1540465,0.0-241.0-0.0,voc_e2,11724,"[{""event"":""fullscreenenter"",""trial"":1,""time"":1450}]",NA,NA,NA,NA,NA,4,#D89F1C,#3386FF,10,10,1,38,1,1169.199999988079,37,1,729.1999999880791,10,1,experiment,NA,NA,0,0.9,0.1,0,1,231,6,NA
fcp-trial,287,1544307,0.0-242.0-0.0,voc_e2,11724,"[{""event"":""fullscreenenter"",""trial"":1,""time"":1450}]",NA,NA,NA,NA,NA,5,#741CD8,#D8271C,10,0,1,40,0,1766.4000000059605,39,0,560.0999999940395,0,0,experiment,NA,NA,1,0.7,0.3,2,3,232,6,NA
fcp-trial,288,1547025,0.0-243.0-0.0,voc_e2,11724,"[{""event"":""fullscreenenter"",""trial"":1,""time"":1450}]",NA,NA,NA,NA,NA,3,#3386FF,#D89F1C,10,10,0,38,1,939.4000000059605,39,0,266.09999999403954,10,1,experiment,NA,NA,0,0.1,0.9,1,0,233,6,NA
fcp-trial,289,1550006,0.0-244.0-0.0,voc_e2,11724,"[{""event"":""fullscreenenter"",""trial"":1,""time"":1450}]",NA,NA,NA,NA,NA,0,#3386FF,#D89F1C,0,10,0,38,1,1124.9000000059605,39,0,348.09999999403954,10,1,experiment,NA,NA,0,0.1,0.9,1,0,234,6,NA
fcp-trial,290,1553260,0.0-245.0-0.0,voc_e2,11724,"[{""event"":""fullscreenenter"",""trial"":1,""time"":1450}]",NA,NA,NA,NA,NA,4,#741CD8,#D8271C,10,10,1,38,1,1337.9000000059605,37,1,402.300000011921,10,1,experiment,NA,NA,1,0.7,0.3,2,3,235,6,NA
fcp-trial,291,1557138,0.0-246.0-0.0,voc_e2,11724,"[{""event"":""fullscreenenter"",""trial"":1,""time"":1450}]",NA,NA,NA,NA,NA,6,#FA92F8,#1CD855,0,10,1,40,0,1855.0999999940395,39,0,516.5999999940395,10,0,experiment,NA,NA,2,0.5,0.5,4,5,236,6,NA
fcp-trial,292,1560412,0.0-247.0-0.0,voc_e2,11724,"[{""event"":""fullscreenenter"",""trial"":1,""time"":1450}]",NA,NA,NA,NA,NA,4,#D89F1C,#3386FF,10,0,1,38,1,1439.800000011921,37,1,324.80000001192093,10,1,experiment,NA,NA,0,0.9,0.1,0,1,237,6,NA
fcp-trial,293,1563634,0.0-248.0-0.0,voc_e2,11724,"[{""event"":""fullscreenenter"",""trial"":1,""time"":1450}]",NA,NA,NA,NA,NA,0,#741CD8,#D8271C,0,0,1,38,1,1429.9000000059605,37,1,277.69999998807907,0,1,experiment,NA,NA,1,0.7,0.3,2,3,238,6,NA
fcp-trial,294,1572675,0.0-249.0-0.0,voc_e2,11724,"[{""event"":""fullscreenenter"",""trial"":1,""time"":1450}]",NA,NA,NA,NA,NA,1,#FA92F8,#1CD855,10,0,1,38,1,7051.0999999940395,39,0,483,0,0,experiment,NA,NA,2,0.5,0.5,4,5,239,6,NA
fcp-trial,295,1577139,0.0-250.0-0.0,voc_e2,11724,"[{""event"":""fullscreenenter"",""trial"":1,""time"":1450}]",NA,NA,NA,NA,NA,2,#FA92F8,#1CD855,0,10,1,38,1,2417.899999976158,39,0,538.3000000119209,10,0,experiment,NA,NA,2,0.5,0.5,4,5,240,6,NA
fcp-trial,296,1580178,0.0-251.0-0.0,voc_e2,11724,"[{""event"":""fullscreenenter"",""trial"":1,""time"":1450}]",NA,NA,NA,NA,NA,6,#D89F1C,#3386FF,10,0,1,38,1,857.9000000059605,37,1,670.4000000059605,10,1,experiment,NA,NA,0,0.9,0.1,0,1,241,6,NA
fcp-trial,297,1583990,0.0-252.0-0.0,voc_e2,11724,"[{""event"":""fullscreenenter"",""trial"":1,""time"":1450}]",NA,NA,NA,NA,NA,6,#741CD8,#D8271C,10,0,1,40,0,1722.300000011921,39,0,576.6999999880791,0,0,experiment,NA,NA,1,0.7,0.3,2,3,242,6,NA
fcp-trial,298,1586850,0.0-253.0-0.0,voc_e2,11724,"[{""event"":""fullscreenenter"",""trial"":1,""time"":1450}]",NA,NA,NA,NA,NA,2,#741CD8,#D8271C,0,10,1,38,1,666.3000000119209,37,1,685.5999999940395,0,1,experiment,NA,NA,1,0.7,0.3,2,3,243,6,NA
fcp-trial,299,1589970,0.0-254.0-0.0,voc_e2,11724,"[{""event"":""fullscreenenter"",""trial"":1,""time"":1450}]",NA,NA,NA,NA,NA,1,#D89F1C,#3386FF,10,0,1,38,1,1204.699999988079,37,1,398.5,10,1,experiment,NA,NA,0,0.9,0.1,0,1,244,6,NA
fcp-trial,300,1597517,0.0-255.0-0.0,voc_e2,11724,"[{""event"":""fullscreenenter"",""trial"":1,""time"":1450}]",NA,NA,NA,NA,NA,4,#FA92F8,#1CD855,10,0,1,38,1,5408.699999988079,39,0,626.0999999940395,0,0,experiment,NA,NA,2,0.5,0.5,4,5,245,6,NA
fcp-trial,301,1600611,0.0-256.0-0.0,voc_e2,11724,"[{""event"":""fullscreenenter"",""trial"":1,""time"":1450}]",NA,NA,NA,NA,NA,3,#741CD8,#D8271C,10,10,1,38,1,1246.699999988079,37,1,332.5,10,1,experiment,NA,NA,1,0.7,0.3,2,3,246,6,NA
fcp-trial,302,1603883,0.0-257.0-0.0,voc_e2,11724,"[{""event"":""fullscreenenter"",""trial"":1,""time"":1450}]",NA,NA,NA,NA,NA,3,#FA92F8,#1CD855,10,10,1,38,1,1370.0999999940395,39,0,385.2000000178814,10,0,experiment,NA,NA,2,0.5,0.5,4,5,247,6,NA
fcp-trial,303,1607124,0.0-258.0-0.0,voc_e2,11724,"[{""event"":""fullscreenenter"",""trial"":1,""time"":1450}]",NA,NA,NA,NA,NA,1,#D8271C,#741CD8,0,0,0,38,1,1260.1000000238419,39,0,466.60000002384186,0,1,experiment,NA,NA,1,0.3,0.7,3,2,248,6,NA
fcp-trial,304,1611319,0.0-259.0-0.0,voc_e2,11724,"[{""event"":""fullscreenenter"",""trial"":1,""time"":1450}]",NA,NA,NA,NA,NA,5,#3386FF,#D89F1C,0,10,0,40,0,1337,37,1,1344.2999999821186,0,0,experiment,NA,NA,0,0.1,0.9,1,0,249,6,NA
fcp-trial,305,1615060,0.0-260.0-0.0,voc_e2,11724,"[{""event"":""fullscreenenter"",""trial"":1,""time"":1450}]",NA,NA,NA,NA,NA,5,#1CD855,#FA92F8,10,10,0,38,1,1856.7000000178814,37,1,370.59999999403954,10,0,experiment,NA,NA,2,0.5,0.5,5,4,250,6,NA
fcp-trial,306,1618123,0.0-261.0-0.0,voc_e2,11724,"[{""event"":""fullscreenenter"",""trial"":1,""time"":1450}]",NA,NA,NA,NA,NA,0,#1CD855,#FA92F8,10,10,0,38,1,1208.2000000178814,37,1,341.7999999821186,10,0,experiment,NA,NA,2,0.5,0.5,5,4,251,6,NA
fcp-trial,307,1621035,0.0-262.0-0.0,voc_e2,11724,"[{""event"":""fullscreenenter"",""trial"":1,""time"":1450}]",NA,NA,NA,NA,NA,2,#D89F1C,#3386FF,0,0,1,38,1,1139.699999988079,37,1,258.59999999403954,0,1,experiment,NA,NA,0,0.9,0.1,0,1,252,6,NA
fcp-trial,308,1624717,0.0-263.0-0.0,voc_e2,11724,"[{""event"":""fullscreenenter"",""trial"":1,""time"":1450}]",NA,NA,NA,NA,NA,5,#741CD8,#D8271C,10,0,1,40,0,1637.0999999940395,39,0,537.1999999880791,0,0,experiment,NA,NA,1,0.7,0.3,2,3,253,6,NA
fcp-trial,309,1627164,0.0-264.0-0.0,voc_e2,11724,"[{""event"":""fullscreenenter"",""trial"":1,""time"":1450}]",NA,NA,NA,NA,NA,1,#741CD8,#D8271C,10,10,1,38,1,620.3000000119209,37,1,314.2000000178814,10,1,experiment,NA,NA,1,0.7,0.3,2,3,254,6,NA
fcp-trial,310,1629940,0.0-265.0-0.0,voc_e2,11724,"[{""event"":""fullscreenenter"",""trial"":1,""time"":1450}]",NA,NA,NA,NA,NA,3,#3386FF,#D89F1C,0,10,0,38,1,986,39,0,276.40000000596046,10,1,experiment,NA,NA,0,0.1,0.9,1,0,255,6,NA
fcp-trial,311,1632919,0.0-266.0-0.0,voc_e2,11724,"[{""event"":""fullscreenenter"",""trial"":1,""time"":1450}]",NA,NA,NA,NA,NA,4,#3386FF,#D89F1C,0,10,0,40,0,1012.1999999880791,39,0,454.2000000178814,10,1,experiment,NA,NA,0,0.1,0.9,1,0,256,6,NA
fcp-trial,312,1635956,0.0-267.0-0.0,voc_e2,11724,"[{""event"":""fullscreenenter"",""trial"":1,""time"":1450}]",NA,NA,NA,NA,NA,4,#FA92F8,#1CD855,0,0,1,38,1,1169.699999988079,39,0,358.30000001192093,0,0,experiment,NA,NA,2,0.5,0.5,4,5,257,6,NA
fcp-trial,313,1639487,0.0-268.0-0.0,voc_e2,11724,"[{""event"":""fullscreenenter"",""trial"":1,""time"":1450}]",NA,NA,NA,NA,NA,5,#1CD855,#FA92F8,0,0,0,40,0,1206.800000011921,37,1,817.5,0,0,experiment,NA,NA,2,0.5,0.5,5,4,258,6,NA
fcp-trial,314,1642757,0.0-269.0-0.0,voc_e2,11724,"[{""event"":""fullscreenenter"",""trial"":1,""time"":1450}]",NA,NA,NA,NA,NA,2,#741CD8,#D8271C,10,0,1,38,1,1376.4000000059605,37,1,375.7999999821186,10,1,experiment,NA,NA,1,0.7,0.3,2,3,259,6,NA
fcp-trial,315,1645861,0.0-270.0-0.0,voc_e2,11724,"[{""event"":""fullscreenenter"",""trial"":1,""time"":1450}]",NA,NA,NA,NA,NA,2,#D89F1C,#3386FF,10,0,1,38,1,1222.8999999761581,37,1,370.800000011921,10,1,experiment,NA,NA,0,0.9,0.1,0,1,260,6,NA
fcp-trial,316,1648916,0.0-271.0-0.0,voc_e2,11724,"[{""event"":""fullscreenenter"",""trial"":1,""time"":1450}]",NA,NA,NA,NA,NA,6,#D89F1C,#3386FF,10,0,1,38,1,942.1999999880791,37,1,606.0999999940395,10,1,experiment,NA,NA,0,0.9,0.1,0,1,261,6,NA
fcp-trial,317,1651981,0.0-272.0-0.0,voc_e2,11724,"[{""event"":""fullscreenenter"",""trial"":1,""time"":1450}]",NA,NA,NA,NA,NA,0,#D8271C,#741CD8,0,10,0,38,1,1183,39,0,367.90000000596046,10,1,experiment,NA,NA,1,0.3,0.7,3,2,262,6,NA
fcp-trial,318,1655091,0.0-273.0-0.0,voc_e2,11724,"[{""event"":""fullscreenenter"",""trial"":1,""time"":1450}]",NA,NA,NA,NA,NA,3,#FA92F8,#1CD855,0,0,1,38,1,1144.2999999821186,39,0,460,0,0,experiment,NA,NA,2,0.5,0.5,4,5,263,6,NA
fcp-trial,319,1658533,0.0-274.0-0.0,voc_e2,11724,"[{""event"":""fullscreenenter"",""trial"":1,""time"":1450}]",NA,NA,NA,NA,NA,6,#FA92F8,#1CD855,0,0,1,40,0,1207.199999988079,37,1,726.5999999940395,0,1,experiment,NA,NA,2,0.5,0.5,4,5,264,6,NA
fcp-trial,320,1661949,0.0-275.0-0.0,voc_e2,11724,"[{""event"":""fullscreenenter"",""trial"":1,""time"":1450}]",NA,NA,NA,NA,NA,4,#D8271C,#741CD8,0,10,0,38,1,1567.5,39,0,336.5,10,1,experiment,NA,NA,1,0.3,0.7,3,2,265,6,NA
fcp-trial,321,1665062,0.0-276.0-0.0,voc_e2,11724,"[{""event"":""fullscreenenter"",""trial"":1,""time"":1450}]",NA,NA,NA,NA,NA,0,#3386FF,#D89F1C,0,0,0,38,1,1245.7999999821186,39,0,356.19999998807907,0,1,experiment,NA,NA,0,0.1,0.9,1,0,266,6,NA
fcp-trial,322,1668988,0.0-277.0-0.0,voc_e2,11724,"[{""event"":""fullscreenenter"",""trial"":1,""time"":1450}]",NA,NA,NA,NA,NA,2,#1CD855,#FA92F8,0,10,0,40,0,1989.4000000059605,39,0,425.800000011921,10,1,experiment,NA,NA,2,0.5,0.5,5,4,267,6,NA
fcp-trial,323,1673250,0.0-278.0-0.0,voc_e2,11724,"[{""event"":""fullscreenenter"",""trial"":1,""time"":1450}]",NA,NA,NA,NA,NA,6,#741CD8,#D8271C,0,0,1,40,0,2226.4000000059605,37,1,521.1000000238419,0,1,experiment,NA,NA,1,0.7,0.3,2,3,268,6,NA
fcp-trial,324,1676149,0.0-279.0-0.0,voc_e2,11724,"[{""event"":""fullscreenenter"",""trial"":1,""time"":1450}]",NA,NA,NA,NA,NA,5,#D89F1C,#3386FF,10,0,1,38,1,1059.199999988079,37,1,327.90000000596046,10,1,experiment,NA,NA,0,0.9,0.1,0,1,269,6,NA
fcp-trial,325,1680150,0.0-280.0-0.0,voc_e2,11724,"[{""event"":""fullscreenenter"",""trial"":1,""time"":1450}]",NA,NA,NA,NA,NA,0,#1CD855,#FA92F8,0,0,0,38,1,2098.300000011921,39,0,385.5,0,1,experiment,NA,NA,2,0.5,0.5,5,4,270,6,NA
fcp-trial,326,1682998,0.0-281.0-0.0,voc_e2,11724,"[{""event"":""fullscreenenter"",""trial"":1,""time"":1450}]",NA,NA,NA,NA,NA,1,#1CD855,#FA92F8,0,10,0,38,1,1066.0999999940395,37,1,269.09999999403954,0,0,experiment,NA,NA,2,0.5,0.5,5,4,271,7,NA
fcp-trial,327,1686910,0.0-282.0-0.0,voc_e2,11724,"[{""event"":""fullscreenenter"",""trial"":1,""time"":1450}]",NA,NA,NA,NA,NA,1,#3386FF,#D89F1C,0,10,0,38,1,1819.7000000178814,39,0,579.1999999880791,10,1,experiment,NA,NA,0,0.1,0.9,1,0,272,7,NA
fcp-trial,328,1690474,0.0-283.0-0.0,voc_e2,11724,"[{""event"":""fullscreenenter"",""trial"":1,""time"":1450}]",NA,NA,NA,NA,NA,3,#741CD8,#D8271C,10,10,1,40,0,1485.2999999821186,37,1,571.4000000059605,10,1,experiment,NA,NA,1,0.7,0.3,2,3,273,7,NA
fcp-trial,329,1693696,0.0-284.0-0.0,voc_e2,11724,"[{""event"":""fullscreenenter"",""trial"":1,""time"":1450}]",NA,NA,NA,NA,NA,6,#741CD8,#D8271C,10,0,1,40,0,1193.699999988079,39,0,513.9000000059605,0,0,experiment,NA,NA,1,0.7,0.3,2,3,274,7,NA
fcp-trial,330,1696717,0.0-285.0-0.0,voc_e2,11724,"[{""event"":""fullscreenenter"",""trial"":1,""time"":1450}]",NA,NA,NA,NA,NA,0,#D89F1C,#3386FF,10,0,1,38,1,1225.199999988079,37,1,278.30000001192093,10,1,experiment,NA,NA,0,0.9,0.1,0,1,275,7,NA
fcp-trial,331,1700158,0.0-286.0-0.0,voc_e2,11724,"[{""event"":""fullscreenenter"",""trial"":1,""time"":1450}]",NA,NA,NA,NA,NA,2,#D89F1C,#3386FF,10,10,1,38,1,1556.199999988079,37,1,373.60000002384186,10,1,experiment,NA,NA,0,0.9,0.1,0,1,276,7,NA
fcp-trial,332,1703662,0.0-287.0-0.0,voc_e2,11724,"[{""event"":""fullscreenenter"",""trial"":1,""time"":1450}]",NA,NA,NA,NA,NA,3,#D8271C,#741CD8,10,10,0,38,1,1558,39,0,438.09999999403954,10,1,experiment,NA,NA,1,0.3,0.7,3,2,277,7,NA
fcp-trial,333,1706494,0.0-288.0-0.0,voc_e2,11724,"[{""event"":""fullscreenenter"",""trial"":1,""time"":1450}]",NA,NA,NA,NA,NA,1,#D8271C,#741CD8,0,10,0,38,1,877.8000000119209,39,0,443.90000000596046,10,1,experiment,NA,NA,1,0.3,0.7,3,2,278,7,NA
fcp-trial,334,1710551,0.0-289.0-0.0,voc_e2,11724,"[{""event"":""fullscreenenter"",""trial"":1,""time"":1450}]",NA,NA,NA,NA,NA,5,#3386FF,#D89F1C,0,10,0,40,0,1632.5999999940395,37,1,909.6999999880792,0,0,experiment,NA,NA,0,0.1,0.9,1,0,279,7,NA
fcp-trial,335,1714012,0.0-290.0-0.0,voc_e2,11724,"[{""event"":""fullscreenenter"",""trial"":1,""time"":1450}]",NA,NA,NA,NA,NA,5,#741CD8,#D8271C,10,0,1,38,1,1581.9000000059605,37,1,366.5,10,1,experiment,NA,NA,1,0.7,0.3,2,3,280,7,NA
fcp-trial,336,1717388,0.0-291.0-0.0,voc_e2,11724,"[{""event"":""fullscreenenter"",""trial"":1,""time"":1450}]",NA,NA,NA,NA,NA,6,#D89F1C,#3386FF,10,0,1,40,0,1044.800000011921,39,0,817.0999999940395,0,0,experiment,NA,NA,0,0.9,0.1,0,1,281,7,NA
fcp-trial,337,1720975,0.0-292.0-0.0,voc_e2,11724,"[{""event"":""fullscreenenter"",""trial"":1,""time"":1450}]",NA,NA,NA,NA,NA,0,#FA92F8,#1CD855,10,0,1,38,1,1809.5,39,0,267.80000001192093,0,0,experiment,NA,NA,2,0.5,0.5,4,5,282,7,NA
fcp-trial,338,1723726,0.0-293.0-0.0,voc_e2,11724,"[{""event"":""fullscreenenter"",""trial"":1,""time"":1450}]",NA,NA,NA,NA,NA,2,#1CD855,#FA92F8,0,10,0,38,1,923.0999999940395,37,1,318.5,0,0,experiment,NA,NA,2,0.5,0.5,5,4,283,7,NA
fcp-trial,339,1726560,0.0-294.0-0.0,voc_e2,11724,"[{""event"":""fullscreenenter"",""trial"":1,""time"":1450}]",NA,NA,NA,NA,NA,4,#D8271C,#741CD8,0,10,0,38,1,905.0999999940395,39,0,415.5,10,1,experiment,NA,NA,1,0.3,0.7,3,2,284,7,NA
fcp-trial,340,1729198,0.0-295.0-0.0,voc_e2,11724,"[{""event"":""fullscreenenter"",""trial"":1,""time"":1450}]",NA,NA,NA,NA,NA,4,#3386FF,#D89F1C,0,10,0,38,1,793.5999999940395,39,0,333.5,10,1,experiment,NA,NA,0,0.1,0.9,1,0,285,7,NA
fcp-trial,341,1732708,0.0-296.0-0.0,voc_e2,11724,"[{""event"":""fullscreenenter"",""trial"":1,""time"":1450}]",NA,NA,NA,NA,NA,3,#FA92F8,#1CD855,10,10,1,38,1,1271.0999999940395,39,0,731.9000000059605,10,0,experiment,NA,NA,2,0.5,0.5,4,5,286,7,NA
fcp-trial,342,1737832,0.0-297.0-0.0,voc_e2,11724,"[{""event"":""fullscreenenter"",""trial"":1,""time"":1450}]",NA,NA,NA,NA,NA,0,#741CD8,#D8271C,10,10,1,38,1,3196.0999999940395,37,1,409.5,10,1,experiment,NA,NA,1,0.7,0.3,2,3,287,7,NA
fcp-trial,343,1741461,0.0-298.0-0.0,voc_e2,11724,"[{""event"":""fullscreenenter"",""trial"":1,""time"":1450}]",NA,NA,NA,NA,NA,6,#1CD855,#FA92F8,10,0,0,40,0,1674.4000000059605,39,0,446.5,0,1,experiment,NA,NA,2,0.5,0.5,5,4,288,7,NA
fcp-trial,344,1745287,0.0-299.0-0.0,voc_e2,11724,"[{""event"":""fullscreenenter"",""trial"":1,""time"":1450}]",NA,NA,NA,NA,NA,4,#FA92F8,#1CD855,0,10,1,40,0,1304.5999999940395,37,1,1012.899999976158,0,1,experiment,NA,NA,2,0.5,0.5,4,5,289,7,NA
fcp-trial,345,1748056,0.0-300.0-0.0,voc_e2,11724,"[{""event"":""fullscreenenter"",""trial"":1,""time"":1450}]",NA,NA,NA,NA,NA,1,#D89F1C,#3386FF,10,10,1,38,1,988.8999999761581,37,1,266.5,10,1,experiment,NA,NA,0,0.9,0.1,0,1,290,7,NA
fcp-trial,346,1752352,0.0-301.0-0.0,voc_e2,11724,"[{""event"":""fullscreenenter"",""trial"":1,""time"":1450}]",NA,NA,NA,NA,NA,2,#D8271C,#741CD8,0,10,0,38,1,1855.199999988079,39,0,932.4000000059604,10,1,experiment,NA,NA,1,0.3,0.7,3,2,291,7,NA
fcp-trial,347,1756534,0.0-302.0-0.0,voc_e2,11724,"[{""event"":""fullscreenenter"",""trial"":1,""time"":1450}]",NA,NA,NA,NA,NA,1,#1CD855,#FA92F8,10,10,0,38,1,2192.5,37,1,475.59999999403954,10,0,experiment,NA,NA,2,0.5,0.5,5,4,292,7,NA
fcp-trial,348,1760137,0.0-303.0-0.0,voc_e2,11724,"[{""event"":""fullscreenenter"",""trial"":1,""time"":1450}]",NA,NA,NA,NA,NA,3,#3386FF,#D89F1C,0,10,0,38,1,1769.2999999821186,39,0,319.59999999403954,10,1,experiment,NA,NA,0,0.1,0.9,1,0,293,7,NA
fcp-trial,349,1764232,0.0-304.0-0.0,voc_e2,11724,"[{""event"":""fullscreenenter"",""trial"":1,""time"":1450}]",NA,NA,NA,NA,NA,5,#FA92F8,#1CD855,0,0,1,40,0,1733.699999988079,37,1,852,0,1,experiment,NA,NA,2,0.5,0.5,4,5,294,7,NA
fcp-trial,350,1767321,0.0-305.0-0.0,voc_e2,11724,"[{""event"":""fullscreenenter"",""trial"":1,""time"":1450}]",NA,NA,NA,NA,NA,3,#D8271C,#741CD8,0,10,0,38,1,1259.4000000059605,39,0,308.19999998807907,10,1,experiment,NA,NA,1,0.3,0.7,3,2,295,7,NA
fcp-trial,351,1770792,0.0-306.0-0.0,voc_e2,11724,"[{""event"":""fullscreenenter"",""trial"":1,""time"":1450}]",NA,NA,NA,NA,NA,0,#1CD855,#FA92F8,0,0,0,38,1,1479.5,37,1,480.699999988079,0,0,experiment,NA,NA,2,0.5,0.5,5,4,296,7,NA
fcp-trial,352,1773632,0.0-307.0-0.0,voc_e2,11724,"[{""event"":""fullscreenenter"",""trial"":1,""time"":1450}]",NA,NA,NA,NA,NA,3,#3386FF,#D89F1C,0,10,0,38,1,1034.199999988079,39,0,290.2999999821186,10,1,experiment,NA,NA,0,0.1,0.9,1,0,297,7,NA
fcp-trial,353,1777079,0.0-308.0-0.0,voc_e2,11724,"[{""event"":""fullscreenenter"",""trial"":1,""time"":1450}]",NA,NA,NA,NA,NA,6,#D8271C,#741CD8,10,10,0,40,0,1491.7999999821186,39,0,447.09999999403954,10,1,experiment,NA,NA,1,0.3,0.7,3,2,298,7,NA
fcp-trial,354,1780647,0.0-309.0-0.0,voc_e2,11724,"[{""event"":""fullscreenenter"",""trial"":1,""time"":1450}]",NA,NA,NA,NA,NA,2,#FA92F8,#1CD855,0,0,1,38,1,1529.199999988079,39,0,524.5999999940395,0,0,experiment,NA,NA,2,0.5,0.5,4,5,299,7,NA
fcp-trial,355,1784232,0.0-310.0-0.0,voc_e2,11724,"[{""event"":""fullscreenenter"",""trial"":1,""time"":1450}]",NA,NA,NA,NA,NA,6,#3386FF,#D89F1C,0,10,0,40,0,1282.0999999940395,37,1,797.2999999821186,0,0,experiment,NA,NA,0,0.1,0.9,1,0,300,7,NA
fcp-trial,356,1787856,0.0-311.0-0.0,voc_e2,11724,"[{""event"":""fullscreenenter"",""trial"":1,""time"":1450}]",NA,NA,NA,NA,NA,5,#FA92F8,#1CD855,10,0,1,40,0,1206.800000011921,37,1,909.5999999940396,10,1,experiment,NA,NA,2,0.5,0.5,4,5,301,7,NA
fcp-trial,357,1790904,0.0-312.0-0.0,voc_e2,11724,"[{""event"":""fullscreenenter"",""trial"":1,""time"":1450}]",NA,NA,NA,NA,NA,1,#3386FF,#D89F1C,0,10,0,38,1,1103.0999999940395,39,0,438.59999999403954,10,1,experiment,NA,NA,0,0.1,0.9,1,0,302,7,NA
fcp-trial,358,1794271,0.0-313.0-0.0,voc_e2,11724,"[{""event"":""fullscreenenter"",""trial"":1,""time"":1450}]",NA,NA,NA,NA,NA,5,#741CD8,#D8271C,10,0,1,38,1,1444.5999999940395,37,1,414.5,10,1,experiment,NA,NA,1,0.7,0.3,2,3,303,7,NA
fcp-trial,359,1797320,0.0-314.0-0.0,voc_e2,11724,"[{""event"":""fullscreenenter"",""trial"":1,""time"":1450}]",NA,NA,NA,NA,NA,4,#D8271C,#741CD8,10,0,0,38,1,1134.0999999940395,39,0,402.90000000596046,0,1,experiment,NA,NA,1,0.3,0.7,3,2,304,7,NA
fcp-trial,360,1800554,0.0-315.0-0.0,voc_e2,11724,"[{""event"":""fullscreenenter"",""trial"":1,""time"":1450}]",NA,NA,NA,NA,NA,3,#1CD855,#FA92F8,10,0,0,38,1,1338.0999999940395,37,1,378.800000011921,10,0,experiment,NA,NA,2,0.5,0.5,5,4,305,7,NA
fcp-trial,361,1803488,0.0-316.0-0.0,voc_e2,11724,"[{""event"":""fullscreenenter"",""trial"":1,""time"":1450}]",NA,NA,NA,NA,NA,1,#741CD8,#D8271C,0,0,1,38,1,983.4000000059605,37,1,437.2999999821186,0,1,experiment,NA,NA,1,0.7,0.3,2,3,306,7,NA
fcp-trial,362,1806600,0.0-317.0-0.0,voc_e2,11724,"[{""event"":""fullscreenenter"",""trial"":1,""time"":1450}]",NA,NA,NA,NA,NA,2,#3386FF,#D89F1C,0,10,0,38,1,1211.0999999940395,39,0,384.90000000596046,10,1,experiment,NA,NA,0,0.1,0.9,1,0,307,7,NA
fcp-trial,363,1809569,0.0-318.0-0.0,voc_e2,11724,"[{""event"":""fullscreenenter"",""trial"":1,""time"":1450}]",NA,NA,NA,NA,NA,2,#D8271C,#741CD8,0,0,0,38,1,1203.0999999940395,39,0,251.30000001192093,0,1,experiment,NA,NA,1,0.3,0.7,3,2,308,7,NA
fcp-trial,364,1813250,0.0-319.0-0.0,voc_e2,11724,"[{""event"":""fullscreenenter"",""trial"":1,""time"":1450}]",NA,NA,NA,NA,NA,1,#1CD855,#FA92F8,0,10,0,38,1,1509.7999999821186,37,1,662,0,0,experiment,NA,NA,2,0.5,0.5,5,4,309,7,NA
fcp-trial,365,1816458,0.0-320.0-0.0,voc_e2,11724,"[{""event"":""fullscreenenter"",""trial"":1,""time"":1450}]",NA,NA,NA,NA,NA,5,#D89F1C,#3386FF,10,0,1,40,0,1180.0999999940395,39,0,515.5,0,0,experiment,NA,NA,0,0.9,0.1,0,1,310,7,NA
fcp-trial,366,1819346,0.0-321.0-0.0,voc_e2,11724,"[{""event"":""fullscreenenter"",""trial"":1,""time"":1450}]",NA,NA,NA,NA,NA,0,#D8271C,#741CD8,0,10,0,38,1,1099.699999988079,39,0,270.5,10,1,experiment,NA,NA,1,0.3,0.7,3,2,311,7,NA
fcp-trial,367,1821776,0.0-322.0-0.0,voc_e2,11724,"[{""event"":""fullscreenenter"",""trial"":1,""time"":1450}]",NA,NA,NA,NA,NA,4,#3386FF,#D89F1C,0,10,0,38,1,629.3999999761581,39,0,291.7000000178814,10,1,experiment,NA,NA,0,0.1,0.9,1,0,312,7,NA
fcp-trial,368,1824233,0.0-323.0-0.0,voc_e2,11724,"[{""event"":""fullscreenenter"",""trial"":1,""time"":1450}]",NA,NA,NA,NA,NA,0,#3386FF,#D89F1C,0,10,0,38,1,688.2000000178814,39,0,258.90000000596046,10,1,experiment,NA,NA,0,0.1,0.9,1,0,313,7,NA
fcp-trial,369,1827250,0.0-324.0-0.0,voc_e2,11724,"[{""event"":""fullscreenenter"",""trial"":1,""time"":1450}]",NA,NA,NA,NA,NA,4,#1CD855,#FA92F8,0,0,0,38,1,1121.699999988079,37,1,378.09999999403954,0,0,experiment,NA,NA,2,0.5,0.5,5,4,314,7,NA
fcp-trial,370,1829697,0.0-325.0-0.0,voc_e2,11724,"[{""event"":""fullscreenenter"",""trial"":1,""time"":1450}]",NA,NA,NA,NA,NA,6,#FA92F8,#1CD855,0,10,1,38,1,544.8999999761581,39,0,392.89999997615814,10,0,experiment,NA,NA,2,0.5,0.5,4,5,315,7,NA
audio-instructions,371,1836285,0.0-326.0,voc_e2,11724,"[{""event"":""fullscreenenter"",""trial"":1,""time"":1450}]",NA,584,static/audio/finished.wav,NA,0,NA,NA,NA,NA,NA,NA,NA,NA,NA,NA,NA,NA,NA,NA,NA,NA,NA,NA,NA,NA,NA,NA,NA,NA,NA
audio-instructions,372,1847822,0.0-327.0-0.0,voc_e2,11724,"[{""event"":""fullscreenenter"",""trial"":1,""time"":1450}]",NA,702.1999999880791,static/audio/explicit1.wav,NA,0,NA,NA,NA,NA,NA,NA,NA,NA,NA,NA,NA,NA,NA,NA,NA,NA,NA,NA,NA,NA,NA,NA,NA,NA,NA
audio-instructions,373,1855945,0.0-327.0-1.0,voc_e2,11724,"[{""event"":""fullscreenenter"",""trial"":1,""time"":1450}]",NA,524.5,static/audio/explicit2.wav,NA,0,NA,NA,NA,NA,NA,NA,NA,NA,NA,NA,NA,NA,NA,NA,NA,NA,NA,NA,NA,NA,NA,NA,NA,NA,NA
image-slider-response,374,1863315,0.0-328.0,voc_e2,11724,"[{""event"":""fullscreenenter"",""trial"":1,""time"":1450}]",NA,7367.700000017881,static/img/machines/machine3.png,NA,NA,NA,NA,NA,NA,NA,NA,NA,NA,NA,NA,NA,NA,NA,NA,explicit,NA,NA,NA,NA,NA,NA,NA,NA,NA,5
image-slider-response,375,1868883,0.0-329.0,voc_e2,11724,"[{""event"":""fullscreenenter"",""trial"":1,""time"":1450}]",NA,5566.299999982119,static/img/machines/machine1.png,NA,NA,NA,NA,NA,NA,NA,NA,NA,NA,NA,NA,NA,NA,NA,NA,explicit,NA,NA,NA,NA,NA,NA,NA,NA,NA,5
image-slider-response,376,1872655,0.0-330.0,voc_e2,11724,"[{""event"":""fullscreenenter"",""trial"":1,""time"":1450}]",NA,3770.800000011921,static/img/machines/machine5.png,NA,NA,NA,NA,NA,NA,NA,NA,NA,NA,NA,NA,NA,NA,NA,NA,explicit,NA,NA,NA,NA,NA,NA,NA,NA,NA,3
image-slider-response,377,1874234,0.0-331.0,voc_e2,11724,"[{""event"":""fullscreenenter"",""trial"":1,""time"":1450}]",NA,1577.0999999940395,static/img/machines/machine6.png,NA,NA,NA,NA,NA,NA,NA,NA,NA,NA,NA,NA,NA,NA,NA,NA,explicit,NA,NA,NA,NA,NA,NA,NA,NA,NA,5
image-slider-response,378,1883498,0.0-332.0,voc_e2,11724,"[{""event"":""fullscreenenter"",""trial"":1,""time"":1450}]",NA,9262.899999976158,static/img/machines/machine2.png,NA,NA,NA,NA,NA,NA,NA,NA,NA,NA,NA,NA,NA,NA,NA,NA,explicit,NA,NA,NA,NA,NA,NA,NA,NA,NA,7
image-slider-response,379,1885881,0.0-333.0,voc_e2,11724,"[{""event"":""fullscreenenter"",""trial"":1,""time"":1450}]",NA,2381.7000000178814,static/img/machines/machine4.png,NA,NA,NA,NA,NA,NA,NA,NA,NA,NA,NA,NA,NA,NA,NA,NA,explicit,NA,NA,NA,NA,NA,NA,NA,NA,NA,9
