trial_type,trial_index,time_elapsed,internal_node_id,task_version,subject_id,interactions,success,rt,stimulus,key_press,button_pressed,offer,arcade_color_L,arcade_color_R,arcade_outcome_L,arcade_outcome_R,correct,stage_1_key,stage_1_choice,stage_1_rt,stage_2_key,stage_2_choice,stage_2_rt,stage_3_outcome,accuracy,phase,responses,num_errors,context,reward_prob_L,reward_prob_R,arcade_id_L,arcade_id_R,trial,block,response
pavlovia,0,7,0.0-0.0,voc_e2,12142,[],NA,NA,NA,NA,NA,NA,NA,NA,NA,NA,NA,NA,NA,NA,NA,NA,NA,NA,NA,NA,NA,NA,NA,NA,NA,NA,NA,NA,NA,NA
fullscreen,1,3156,0.0-1.0,voc_e2,12142,"[{""event"":""fullscreenenter"",""trial"":1,""time"":2174}]",TRUE,NA,NA,NA,NA,NA,NA,NA,NA,NA,NA,NA,NA,NA,NA,NA,NA,NA,NA,NA,NA,NA,NA,NA,NA,NA,NA,NA,NA,NA
audio-keyboard-response,2,5404,0.0-2.0,voc_e2,12142,"[{""event"":""fullscreenenter"",""trial"":1,""time"":2174}]",NA,1661,static/audio/beep_loop.wav,32,NA,NA,NA,NA,NA,NA,NA,NA,NA,NA,NA,NA,NA,NA,NA,NA,NA,NA,NA,NA,NA,NA,NA,NA,NA,NA
audio-test,3,6730,0.0-3.0,voc_e2,12142,"[{""event"":""fullscreenenter"",""trial"":1,""time"":2174}]",NA,NA,static/audio/turtle.wav,NA,3,NA,NA,NA,NA,NA,NA,NA,NA,NA,NA,NA,NA,NA,NA,NA,NA,NA,NA,NA,NA,NA,NA,NA,NA,NA
audio-test,4,8790,0.0-4.0,voc_e2,12142,"[{""event"":""fullscreenenter"",""trial"":1,""time"":2174}]",NA,NA,static/audio/shark.wav,NA,2,NA,NA,NA,NA,NA,NA,NA,NA,NA,NA,NA,NA,NA,NA,NA,NA,NA,NA,NA,NA,NA,NA,NA,NA,NA
audio-instructions,5,15575,0.0-5.0-0.0,voc_e2,12142,"[{""event"":""fullscreenenter"",""trial"":1,""time"":2174}]",NA,1002,static/audio/instructions1.wav,NA,0,NA,NA,NA,NA,NA,NA,NA,NA,NA,NA,NA,NA,NA,NA,NA,NA,NA,NA,NA,NA,NA,NA,NA,NA,NA
audio-instructions,6,23622,0.0-5.0-1.0,voc_e2,12142,"[{""event"":""fullscreenenter"",""trial"":1,""time"":2174}]",NA,1309.2000000178814,static/audio/instructions2.wav,NA,0,NA,NA,NA,NA,NA,NA,NA,NA,NA,NA,NA,NA,NA,NA,NA,NA,NA,NA,NA,NA,NA,NA,NA,NA,NA
audio-instructions,7,30086,0.0-5.0-2.0,voc_e2,12142,"[{""event"":""fullscreenenter"",""trial"":1,""time"":2174}]",NA,652.3000000119209,static/audio/instructions3.wav,NA,0,NA,NA,NA,NA,NA,NA,NA,NA,NA,NA,NA,NA,NA,NA,NA,NA,NA,NA,NA,NA,NA,NA,NA,NA,NA
audio-instructions,8,44015,0.0-5.0-3.0,voc_e2,12142,"[{""event"":""fullscreenenter"",""trial"":1,""time"":2174}]",NA,701.9000000059605,static/audio/instructions4.wav,NA,0,NA,NA,NA,NA,NA,NA,NA,NA,NA,NA,NA,NA,NA,NA,NA,NA,NA,NA,NA,NA,NA,NA,NA,NA,NA
audio-instructions,9,54745,0.0-5.0-4.0,voc_e2,12142,"[{""event"":""fullscreenenter"",""trial"":1,""time"":2174}]",NA,1342.199999988079,static/audio/instructions5.wav,NA,0,NA,NA,NA,NA,NA,NA,NA,NA,NA,NA,NA,NA,NA,NA,NA,NA,NA,NA,NA,NA,NA,NA,NA,NA,NA
fcp-practice,10,56997,0.0-5.0-5.0-0.0,voc_e2,12142,"[{""event"":""fullscreenenter"",""trial"":1,""time"":2174}]",NA,NA,NA,NA,NA,NA,#EDC948,#46d3c8,10,0,1,null,null,null,37,1,729.5999999940395,10,1,practice,NA,NA,NA,NA,NA,NA,NA,NA,NA,NA
fcp-practice,11,58980,0.0-5.0-5.0-1.0,voc_e2,12142,"[{""event"":""fullscreenenter"",""trial"":1,""time"":2174}]",NA,NA,NA,NA,NA,NA,#EDC948,#46d3c8,10,0,1,null,null,null,37,1,468.699999988079,10,1,practice,NA,NA,NA,NA,NA,NA,NA,NA,NA,NA
fcp-practice,12,61030,0.0-5.0-5.0-2.0,voc_e2,12142,"[{""event"":""fullscreenenter"",""trial"":1,""time"":2174}]",NA,NA,NA,NA,NA,NA,#EDC948,#46d3c8,0,10,1,null,null,null,37,1,538.8999999761581,0,1,practice,NA,NA,NA,NA,NA,NA,NA,NA,NA,NA
fcp-practice,13,62947,0.0-5.0-5.0-3.0,voc_e2,12142,"[{""event"":""fullscreenenter"",""trial"":1,""time"":2174}]",NA,NA,NA,NA,NA,NA,#EDC948,#46d3c8,10,0,1,null,null,null,37,1,405.699999988079,10,1,practice,NA,NA,NA,NA,NA,NA,NA,NA,NA,NA
fcp-practice,14,64847,0.0-5.0-5.0-4.0,voc_e2,12142,"[{""event"":""fullscreenenter"",""trial"":1,""time"":2174}]",NA,NA,NA,NA,NA,NA,#EDC948,#46d3c8,10,0,1,null,null,null,37,1,383.40000000596046,10,1,practice,NA,NA,NA,NA,NA,NA,NA,NA,NA,NA
audio-instructions,15,84235,0.0-5.0-6.0,voc_e2,12142,"[{""event"":""fullscreenenter"",""trial"":1,""time"":2174}]",NA,1380.5999999940395,static/audio/instructions6.wav,NA,0,NA,NA,NA,NA,NA,NA,NA,NA,NA,NA,NA,NA,NA,NA,NA,NA,NA,NA,NA,NA,NA,NA,NA,NA,NA
audio-instructions,16,103807,0.0-5.0-7.0,voc_e2,12142,"[{""event"":""fullscreenenter"",""trial"":1,""time"":2174}]",NA,373.59999999403954,static/audio/instructions7.wav,NA,0,NA,NA,NA,NA,NA,NA,NA,NA,NA,NA,NA,NA,NA,NA,NA,NA,NA,NA,NA,NA,NA,NA,NA,NA,NA
audio-instructions,17,114008,0.0-5.0-8.0,voc_e2,12142,"[{""event"":""fullscreenenter"",""trial"":1,""time"":2174}]",NA,735.3000000119209,static/audio/instructions8.wav,NA,0,NA,NA,NA,NA,NA,NA,NA,NA,NA,NA,NA,NA,NA,NA,NA,NA,NA,NA,NA,NA,NA,NA,NA,NA,NA
fcp-comprehension,18,122887,0.0-5.0-9.0,voc_e2,12142,"[{""event"":""fullscreenenter"",""trial"":1,""time"":2174}]",NA,8875.5,NA,NA,NA,NA,NA,NA,NA,NA,NA,NA,NA,NA,NA,NA,NA,NA,NA,NA,"true,true",0,NA,NA,NA,NA,NA,NA,NA,NA
audio-instructions,19,130404,0.0-6.0-0.0,voc_e2,12142,"[{""event"":""fullscreenenter"",""trial"":1,""time"":2174}]",NA,1970.9000000059605,static/audio/instructions9.wav,NA,0,NA,NA,NA,NA,NA,NA,NA,NA,NA,NA,NA,NA,NA,NA,NA,NA,NA,NA,NA,NA,NA,NA,NA,NA,NA
audio-instructions,20,143088,0.0-6.0-1.0,voc_e2,12142,"[{""event"":""fullscreenenter"",""trial"":1,""time"":2174}]",NA,565,static/audio/instructions10.wav,NA,0,NA,NA,NA,NA,NA,NA,NA,NA,NA,NA,NA,NA,NA,NA,NA,NA,NA,NA,NA,NA,NA,NA,NA,NA,NA
fcp-trial,21,148769,0.0-6.0-2.0,voc_e2,12142,"[{""event"":""fullscreenenter"",""trial"":1,""time"":2174}]",NA,NA,NA,NA,NA,0,#EDC948,#46d3c8,10,10,1,38,1,3114.0999999940395,37,1,1031.7000000178814,10,1,practice,NA,NA,NA,NA,NA,NA,NA,NA,NA,NA
audio-instructions,22,160836,0.0-6.0-3.0,voc_e2,12142,"[{""event"":""fullscreenenter"",""trial"":1,""time"":2174}]",NA,1062.4000000059605,static/audio/instructions11.wav,NA,0,NA,NA,NA,NA,NA,NA,NA,NA,NA,NA,NA,NA,NA,NA,NA,NA,NA,NA,NA,NA,NA,NA,NA,NA,NA
fcp-trial,23,164531,0.0-6.0-4.0,voc_e2,12142,"[{""event"":""fullscreenenter"",""trial"":1,""time"":2174}]",NA,NA,NA,NA,NA,6,#EDC948,#46d3c8,10,10,1,40,0,1285.300000011921,39,0,889,10,0,practice,NA,NA,NA,NA,NA,NA,NA,NA,NA,NA
audio-instructions,24,183666,0.0-6.0-5.0,voc_e2,12142,"[{""event"":""fullscreenenter"",""trial"":1,""time"":2174}]",NA,443.2999999821186,static/audio/instructions12.wav,NA,0,NA,NA,NA,NA,NA,NA,NA,NA,NA,NA,NA,NA,NA,NA,NA,NA,NA,NA,NA,NA,NA,NA,NA,NA,NA
audio-instructions,25,191836,0.0-6.0-6.0,voc_e2,12142,"[{""event"":""fullscreenenter"",""trial"":1,""time"":2174}]",NA,572.2000000178814,static/audio/instructions13.wav,NA,0,NA,NA,NA,NA,NA,NA,NA,NA,NA,NA,NA,NA,NA,NA,NA,NA,NA,NA,NA,NA,NA,NA,NA,NA,NA
audio-instructions,26,200894,0.0-6.0-7.0,voc_e2,12142,"[{""event"":""fullscreenenter"",""trial"":1,""time"":2174}]",NA,610.8000000119209,static/audio/instructions14.wav,NA,0,NA,NA,NA,NA,NA,NA,NA,NA,NA,NA,NA,NA,NA,NA,NA,NA,NA,NA,NA,NA,NA,NA,NA,NA,NA
audio-instructions,27,208435,0.0-7.0-0.0,voc_e2,12142,"[{""event"":""fullscreenenter"",""trial"":1,""time"":2174}]",NA,621.4000000059605,static/audio/instructions15.wav,NA,0,NA,NA,NA,NA,NA,NA,NA,NA,NA,NA,NA,NA,NA,NA,NA,NA,NA,NA,NA,NA,NA,NA,NA,NA,NA
audio-instructions,28,215585,0.0-7.0-1.0,voc_e2,12142,"[{""event"":""fullscreenenter"",""trial"":1,""time"":2174}]",NA,322,static/audio/instructions16.wav,NA,0,NA,NA,NA,NA,NA,NA,NA,NA,NA,NA,NA,NA,NA,NA,NA,NA,NA,NA,NA,NA,NA,NA,NA,NA,NA
audio-instructions,29,224375,0.0-7.0-2.0,voc_e2,12142,"[{""event"":""fullscreenenter"",""trial"":1,""time"":2174}]",NA,1111,static/audio/instructions17.wav,NA,0,NA,NA,NA,NA,NA,NA,NA,NA,NA,NA,NA,NA,NA,NA,NA,NA,NA,NA,NA,NA,NA,NA,NA,NA,NA
audio-instructions,30,233573,0.0-7.0-3.0,voc_e2,12142,"[{""event"":""fullscreenenter"",""trial"":1,""time"":2174}]",NA,1430,static/audio/instructions18.wav,NA,0,NA,NA,NA,NA,NA,NA,NA,NA,NA,NA,NA,NA,NA,NA,NA,NA,NA,NA,NA,NA,NA,NA,NA,NA,NA
audio-instructions,31,240995,0.0-7.0-4.0,voc_e2,12142,"[{""event"":""fullscreenenter"",""trial"":1,""time"":2174}]",NA,681.5999999940395,static/audio/instructions19.wav,NA,0,NA,NA,NA,NA,NA,NA,NA,NA,NA,NA,NA,NA,NA,NA,NA,NA,NA,NA,NA,NA,NA,NA,NA,NA,NA
fcp-comprehension,32,249669,0.0-7.0-5.0,voc_e2,12142,"[{""event"":""fullscreenenter"",""trial"":1,""time"":2174}]",NA,8671.399999976158,NA,NA,NA,NA,NA,NA,NA,NA,NA,NA,NA,NA,NA,NA,NA,NA,NA,NA,"false,false,false,true",0,NA,NA,NA,NA,NA,NA,NA,NA
audio-instructions,33,261083,0.0-8.0,voc_e2,12142,"[{""event"":""fullscreenenter"",""trial"":1,""time"":2174}]",NA,2199.9000000059605,static/audio/ready.wav,NA,0,NA,NA,NA,NA,NA,NA,NA,NA,NA,NA,NA,NA,NA,NA,NA,NA,NA,NA,NA,NA,NA,NA,NA,NA,NA
fcp-trial,34,265346,0.0-9.0-0.0,voc_e2,12142,"[{""event"":""fullscreenenter"",""trial"":1,""time"":2174}]",NA,NA,NA,NA,NA,3,#741CD8,#D8271C,0,0,0,40,0,1767.4000000059605,39,0,952.5,0,1,experiment,NA,NA,1,0.3,0.7,3,2,1,1,NA
fcp-trial,35,269261,0.0-10.0-0.0,voc_e2,12142,"[{""event"":""fullscreenenter"",""trial"":1,""time"":2174}]",NA,NA,NA,NA,NA,5,#D89F1C,#3386FF,10,0,1,40,0,1641.4000000059605,37,1,758.6999999880791,10,1,experiment,NA,NA,0,0.9,0.1,0,1,2,1,NA
fcp-trial,36,272730,0.0-11.0-0.0,voc_e2,12142,"[{""event"":""fullscreenenter"",""trial"":1,""time"":2174}]",NA,NA,NA,NA,NA,2,#D8271C,#741CD8,10,0,1,40,0,1266.7000000178814,37,1,674.5,10,1,experiment,NA,NA,1,0.7,0.3,2,3,3,1,NA
fcp-trial,37,277179,0.0-12.0-0.0,voc_e2,12142,"[{""event"":""fullscreenenter"",""trial"":1,""time"":2174}]",NA,NA,NA,NA,NA,2,#3386FF,#D89F1C,0,10,0,40,0,2249.600000023842,37,1,674.8000000119209,0,0,experiment,NA,NA,0,0.1,0.9,1,0,4,1,NA
fcp-trial,38,281428,0.0-13.0-0.0,voc_e2,12142,"[{""event"":""fullscreenenter"",""trial"":1,""time"":2174}]",NA,NA,NA,NA,NA,5,#FA92F8,#1CD855,0,0,1,40,0,2101.7000000178814,37,1,620,0,1,experiment,NA,NA,2,0.5,0.5,4,5,5,1,NA
fcp-trial,39,284611,0.0-14.0-0.0,voc_e2,12142,"[{""event"":""fullscreenenter"",""trial"":1,""time"":2174}]",NA,NA,NA,NA,NA,4,#FA92F8,#1CD855,0,0,1,40,0,1102.7000000178814,39,0,566,0,0,experiment,NA,NA,2,0.5,0.5,4,5,6,1,NA
fcp-trial,40,287894,0.0-15.0-0.0,voc_e2,12142,"[{""event"":""fullscreenenter"",""trial"":1,""time"":2174}]",NA,NA,NA,NA,NA,0,#FA92F8,#1CD855,0,0,1,40,0,1183.4000000059605,37,1,571.4000000059605,0,1,experiment,NA,NA,2,0.5,0.5,4,5,7,1,NA
fcp-trial,41,292384,0.0-16.0-0.0,voc_e2,12142,"[{""event"":""fullscreenenter"",""trial"":1,""time"":2174}]",NA,NA,NA,NA,NA,1,#741CD8,#D8271C,0,0,0,40,0,2335.5,37,1,635.8000000119209,0,0,experiment,NA,NA,1,0.3,0.7,3,2,8,1,NA
fcp-trial,42,296036,0.0-17.0-0.0,voc_e2,12142,"[{""event"":""fullscreenenter"",""trial"":1,""time"":2174}]",NA,NA,NA,NA,NA,1,#D89F1C,#3386FF,10,0,1,38,1,1661.8999999761581,37,1,470,10,1,experiment,NA,NA,0,0.9,0.1,0,1,9,1,NA
fcp-trial,43,299801,0.0-18.0-0.0,voc_e2,12142,"[{""event"":""fullscreenenter"",""trial"":1,""time"":2174}]",NA,NA,NA,NA,NA,3,#3386FF,#D89F1C,0,10,0,38,1,1778.5,39,0,470.40000000596046,10,1,experiment,NA,NA,0,0.1,0.9,1,0,10,1,NA
fcp-trial,44,302837,0.0-19.0-0.0,voc_e2,12142,"[{""event"":""fullscreenenter"",""trial"":1,""time"":2174}]",NA,NA,NA,NA,NA,4,#D8271C,#741CD8,0,0,1,38,1,1062.199999988079,37,1,459.800000011921,0,1,experiment,NA,NA,1,0.7,0.3,2,3,11,1,NA
fcp-trial,45,306341,0.0-20.0-0.0,voc_e2,12142,"[{""event"":""fullscreenenter"",""trial"":1,""time"":2174}]",NA,NA,NA,NA,NA,6,#FA92F8,#1CD855,10,0,1,40,0,1524.5999999940395,39,0,461.90000000596046,0,0,experiment,NA,NA,2,0.5,0.5,4,5,12,1,NA
fcp-trial,46,309469,0.0-21.0-0.0,voc_e2,12142,"[{""event"":""fullscreenenter"",""trial"":1,""time"":2174}]",NA,NA,NA,NA,NA,3,#FA92F8,#1CD855,10,10,1,40,0,1100.699999988079,37,1,503.59999999403954,10,1,experiment,NA,NA,2,0.5,0.5,4,5,13,1,NA
fcp-trial,47,312207,0.0-22.0-0.0,voc_e2,12142,"[{""event"":""fullscreenenter"",""trial"":1,""time"":2174}]",NA,NA,NA,NA,NA,0,#D8271C,#741CD8,0,0,1,38,1,778,37,1,446.39999997615814,0,1,experiment,NA,NA,1,0.7,0.3,2,3,14,1,NA
fcp-trial,48,315056,0.0-23.0-0.0,voc_e2,12142,"[{""event"":""fullscreenenter"",""trial"":1,""time"":2174}]",NA,NA,NA,NA,NA,0,#D89F1C,#3386FF,10,0,1,38,1,873.3000000119209,37,1,456.09999999403954,10,1,experiment,NA,NA,0,0.9,0.1,0,1,15,1,NA
fcp-trial,49,317889,0.0-24.0-0.0,voc_e2,12142,"[{""event"":""fullscreenenter"",""trial"":1,""time"":2174}]",NA,NA,NA,NA,NA,2,#1CD855,#FA92F8,10,0,0,38,1,899.9000000059605,39,0,415.90000000596046,0,1,experiment,NA,NA,2,0.5,0.5,5,4,16,1,NA
fcp-trial,50,321405,0.0-25.0-0.0,voc_e2,12142,"[{""event"":""fullscreenenter"",""trial"":1,""time"":2174}]",NA,NA,NA,NA,NA,5,#741CD8,#D8271C,10,0,0,40,0,1566.699999988079,39,0,431.199999988079,0,1,experiment,NA,NA,1,0.3,0.7,3,2,17,1,NA
fcp-trial,51,324333,0.0-26.0-0.0,voc_e2,12142,"[{""event"":""fullscreenenter"",""trial"":1,""time"":2174}]",NA,NA,NA,NA,NA,4,#D89F1C,#3386FF,10,0,1,38,1,928.9000000059605,37,1,477.300000011921,10,1,experiment,NA,NA,0,0.9,0.1,0,1,18,1,NA
fcp-trial,52,327623,0.0-27.0-0.0,voc_e2,12142,"[{""event"":""fullscreenenter"",""trial"":1,""time"":2174}]",NA,NA,NA,NA,NA,1,#FA92F8,#1CD855,0,10,1,38,1,1349.699999988079,37,1,426.300000011921,0,1,experiment,NA,NA,2,0.5,0.5,4,5,19,1,NA
fcp-trial,53,330714,0.0-28.0-0.0,voc_e2,12142,"[{""event"":""fullscreenenter"",""trial"":1,""time"":2174}]",NA,NA,NA,NA,NA,6,#741CD8,#D8271C,0,10,0,40,0,1128.4000000059605,39,0,444.59999999403954,10,1,experiment,NA,NA,1,0.3,0.7,3,2,20,1,NA
fcp-trial,54,333420,0.0-29.0-0.0,voc_e2,12142,"[{""event"":""fullscreenenter"",""trial"":1,""time"":2174}]",NA,NA,NA,NA,NA,6,#D89F1C,#3386FF,0,0,1,38,1,729.1999999880791,37,1,462.5,0,1,experiment,NA,NA,0,0.9,0.1,0,1,21,1,NA
fcp-trial,55,336036,0.0-30.0-0.0,voc_e2,12142,"[{""event"":""fullscreenenter"",""trial"":1,""time"":2174}]",NA,NA,NA,NA,NA,4,#D89F1C,#3386FF,0,0,1,38,1,546.5999999940395,37,1,549.8000000119209,0,1,experiment,NA,NA,0,0.9,0.1,0,1,22,1,NA
fcp-trial,56,340812,0.0-31.0-0.0,voc_e2,12142,"[{""event"":""fullscreenenter"",""trial"":1,""time"":2174}]",NA,NA,NA,NA,NA,0,#741CD8,#D8271C,0,10,0,38,1,2093.5999999940395,39,0,1165.699999988079,10,1,experiment,NA,NA,1,0.3,0.7,3,2,23,1,NA
fcp-trial,57,343551,0.0-32.0-0.0,voc_e2,12142,"[{""event"":""fullscreenenter"",""trial"":1,""time"":2174}]",NA,NA,NA,NA,NA,5,#D89F1C,#3386FF,10,0,1,38,1,809.6999999880791,37,1,415.300000011921,10,1,experiment,NA,NA,0,0.9,0.1,0,1,24,1,NA
fcp-trial,58,346260,0.0-33.0-0.0,voc_e2,12142,"[{""event"":""fullscreenenter"",""trial"":1,""time"":2174}]",NA,NA,NA,NA,NA,2,#D89F1C,#3386FF,10,0,1,38,1,676.2000000178814,37,1,515.0999999940395,10,1,experiment,NA,NA,0,0.9,0.1,0,1,25,1,NA
fcp-trial,59,349550,0.0-34.0-0.0,voc_e2,12142,"[{""event"":""fullscreenenter"",""trial"":1,""time"":2174}]",NA,NA,NA,NA,NA,0,#FA92F8,#1CD855,0,10,1,38,1,1332.2999999821186,37,1,436.09999999403954,0,1,experiment,NA,NA,2,0.5,0.5,4,5,26,1,NA
fcp-trial,60,352833,0.0-35.0-0.0,voc_e2,12142,"[{""event"":""fullscreenenter"",""trial"":1,""time"":2174}]",NA,NA,NA,NA,NA,1,#741CD8,#D8271C,10,10,0,38,1,1320.300000011921,39,0,442.7000000178814,10,1,experiment,NA,NA,1,0.3,0.7,3,2,27,1,NA
fcp-trial,61,356212,0.0-36.0-0.0,voc_e2,12142,"[{""event"":""fullscreenenter"",""trial"":1,""time"":2174}]",NA,NA,NA,NA,NA,4,#1CD855,#FA92F8,0,10,0,40,0,1377.699999988079,37,1,479.59999999403954,0,0,experiment,NA,NA,2,0.5,0.5,5,4,28,1,NA
fcp-trial,62,359083,0.0-37.0-0.0,voc_e2,12142,"[{""event"":""fullscreenenter"",""trial"":1,""time"":2174}]",NA,NA,NA,NA,NA,3,#FA92F8,#1CD855,0,10,1,40,0,896.1999999880791,39,0,462,10,0,experiment,NA,NA,2,0.5,0.5,4,5,29,1,NA
fcp-trial,63,361808,0.0-38.0-0.0,voc_e2,12142,"[{""event"":""fullscreenenter"",""trial"":1,""time"":2174}]",NA,NA,NA,NA,NA,0,#D89F1C,#3386FF,10,0,1,38,1,744.0999999940395,37,1,469.40000000596046,10,1,experiment,NA,NA,0,0.9,0.1,0,1,30,1,NA
fcp-trial,64,364967,0.0-39.0-0.0,voc_e2,12142,"[{""event"":""fullscreenenter"",""trial"":1,""time"":2174}]",NA,NA,NA,NA,NA,5,#D8271C,#741CD8,0,0,1,40,0,1219.2999999821186,39,0,427.300000011921,0,0,experiment,NA,NA,1,0.7,0.3,2,3,31,1,NA
fcp-trial,65,368417,0.0-40.0-0.0,voc_e2,12142,"[{""event"":""fullscreenenter"",""trial"":1,""time"":2174}]",NA,NA,NA,NA,NA,6,#D8271C,#741CD8,10,0,1,38,1,1498.2000000178814,37,1,441.09999999403954,10,1,experiment,NA,NA,1,0.7,0.3,2,3,32,1,NA
fcp-trial,66,371320,0.0-41.0-0.0,voc_e2,12142,"[{""event"":""fullscreenenter"",""trial"":1,""time"":2174}]",NA,NA,NA,NA,NA,1,#3386FF,#D89F1C,0,10,0,38,1,951.9000000059605,39,0,431.40000000596046,10,1,experiment,NA,NA,0,0.1,0.9,1,0,33,1,NA
fcp-trial,67,374733,0.0-42.0-0.0,voc_e2,12142,"[{""event"":""fullscreenenter"",""trial"":1,""time"":2174}]",NA,NA,NA,NA,NA,5,#1CD855,#FA92F8,0,0,0,40,0,1433.4000000059605,37,1,460.7999999821186,0,0,experiment,NA,NA,2,0.5,0.5,5,4,34,1,NA
fcp-trial,68,380582,0.0-43.0-0.0,voc_e2,12142,"[{""event"":""fullscreenenter"",""trial"":1,""time"":2174}]",NA,NA,NA,NA,NA,2,#741CD8,#D8271C,0,10,0,38,1,3951.5999999940395,39,0,377,10,1,experiment,NA,NA,1,0.3,0.7,3,2,35,1,NA
fcp-trial,69,384372,0.0-44.0-0.0,voc_e2,12142,"[{""event"":""fullscreenenter"",""trial"":1,""time"":2174}]",NA,NA,NA,NA,NA,6,#FA92F8,#1CD855,0,10,1,40,0,1803.5999999940395,37,1,473,0,1,experiment,NA,NA,2,0.5,0.5,4,5,36,1,NA
fcp-trial,70,387055,0.0-45.0-0.0,voc_e2,12142,"[{""event"":""fullscreenenter"",""trial"":1,""time"":2174}]",NA,NA,NA,NA,NA,3,#3386FF,#D89F1C,0,10,0,38,1,782.4000000059605,39,0,382.300000011921,10,1,experiment,NA,NA,0,0.1,0.9,1,0,37,1,NA
fcp-trial,71,389800,0.0-46.0-0.0,voc_e2,12142,"[{""event"":""fullscreenenter"",""trial"":1,""time"":2174}]",NA,NA,NA,NA,NA,6,#D89F1C,#3386FF,10,0,1,38,1,757.5,37,1,465.800000011921,10,1,experiment,NA,NA,0,0.9,0.1,0,1,38,1,NA
fcp-trial,72,393962,0.0-47.0-0.0,voc_e2,12142,"[{""event"":""fullscreenenter"",""trial"":1,""time"":2174}]",NA,NA,NA,NA,NA,3,#D8271C,#741CD8,10,10,1,38,1,1587.0999999940395,39,0,1054.4000000059605,10,0,experiment,NA,NA,1,0.7,0.3,2,3,39,1,NA
fcp-trial,73,397013,0.0-48.0-0.0,voc_e2,12142,"[{""event"":""fullscreenenter"",""trial"":1,""time"":2174}]",NA,NA,NA,NA,NA,2,#1CD855,#FA92F8,0,10,0,40,0,1076.2000000178814,39,0,456,10,1,experiment,NA,NA,2,0.5,0.5,5,4,40,1,NA
fcp-trial,74,401253,0.0-49.0-0.0,voc_e2,12142,"[{""event"":""fullscreenenter"",""trial"":1,""time"":2174}]",NA,NA,NA,NA,NA,1,#FA92F8,#1CD855,0,10,1,38,1,1417.4000000059605,37,1,1303.399999976158,0,1,experiment,NA,NA,2,0.5,0.5,4,5,41,1,NA
fcp-trial,75,405319,0.0-50.0-0.0,voc_e2,12142,"[{""event"":""fullscreenenter"",""trial"":1,""time"":2174}]",NA,NA,NA,NA,NA,4,#D8271C,#741CD8,0,0,1,38,1,1811.5999999940395,39,0,727.5,0,0,experiment,NA,NA,1,0.7,0.3,2,3,42,1,NA
fcp-trial,76,409435,0.0-51.0-0.0,voc_e2,12142,"[{""event"":""fullscreenenter"",""trial"":1,""time"":2174}]",NA,NA,NA,NA,NA,3,#1CD855,#FA92F8,10,10,0,38,1,2130.0999999940395,39,0,461.699999988079,10,1,experiment,NA,NA,2,0.5,0.5,5,4,43,1,NA
fcp-trial,77,412748,0.0-52.0-0.0,voc_e2,12142,"[{""event"":""fullscreenenter"",""trial"":1,""time"":2174}]",NA,NA,NA,NA,NA,4,#FA92F8,#1CD855,10,0,1,38,1,1259.8999999761581,37,1,531.5999999940395,10,1,experiment,NA,NA,2,0.5,0.5,4,5,44,1,NA
fcp-trial,78,416586,0.0-53.0-0.0,voc_e2,12142,"[{""event"":""fullscreenenter"",""trial"":1,""time"":2174}]",NA,NA,NA,NA,NA,4,#D8271C,#741CD8,10,10,1,38,1,1514.3999999761581,37,1,805.2999999821186,10,1,experiment,NA,NA,1,0.7,0.3,2,3,45,1,NA
fcp-trial,79,419584,0.0-54.0-0.0,voc_e2,12142,"[{""event"":""fullscreenenter"",""trial"":1,""time"":2174}]",NA,NA,NA,NA,NA,0,#741CD8,#D8271C,0,10,0,38,1,1085.0999999940395,39,0,398.90000000596046,10,1,experiment,NA,NA,1,0.3,0.7,3,2,46,2,NA
fcp-trial,80,422291,0.0-55.0-0.0,voc_e2,12142,"[{""event"":""fullscreenenter"",""trial"":1,""time"":2174}]",NA,NA,NA,NA,NA,4,#3386FF,#D89F1C,0,10,0,38,1,773.7000000178814,39,0,419.699999988079,10,1,experiment,NA,NA,0,0.1,0.9,1,0,47,2,NA
fcp-trial,81,424811,0.0-56.0-0.0,voc_e2,12142,"[{""event"":""fullscreenenter"",""trial"":1,""time"":2174}]",NA,NA,NA,NA,NA,0,#D89F1C,#3386FF,0,0,1,38,1,497.19999998807907,37,1,503.7999999821186,0,1,experiment,NA,NA,0,0.9,0.1,0,1,48,2,NA
fcp-trial,82,428722,0.0-57.0-0.0,voc_e2,12142,"[{""event"":""fullscreenenter"",""trial"":1,""time"":2174}]",NA,NA,NA,NA,NA,0,#1CD855,#FA92F8,10,10,0,38,1,1271.9000000059605,37,1,1122.5,10,0,experiment,NA,NA,2,0.5,0.5,5,4,49,2,NA
fcp-trial,83,432260,0.0-58.0-0.0,voc_e2,12142,"[{""event"":""fullscreenenter"",""trial"":1,""time"":2174}]",NA,NA,NA,NA,NA,1,#D8271C,#741CD8,0,10,1,38,1,1101.199999988079,39,0,921.399999976158,10,0,experiment,NA,NA,1,0.7,0.3,2,3,50,2,NA
fcp-trial,84,435735,0.0-59.0-0.0,voc_e2,12142,"[{""event"":""fullscreenenter"",""trial"":1,""time"":2174}]",NA,NA,NA,NA,NA,5,#D89F1C,#3386FF,10,0,1,38,1,1531.9000000059605,37,1,425,10,1,experiment,NA,NA,0,0.9,0.1,0,1,51,2,NA
fcp-trial,85,439056,0.0-60.0-0.0,voc_e2,12142,"[{""event"":""fullscreenenter"",""trial"":1,""time"":2174}]",NA,NA,NA,NA,NA,6,#D8271C,#741CD8,10,0,1,40,0,1259.5,37,1,540.5,10,1,experiment,NA,NA,1,0.7,0.3,2,3,52,2,NA
fcp-trial,86,442441,0.0-61.0-0.0,voc_e2,12142,"[{""event"":""fullscreenenter"",""trial"":1,""time"":2174}]",NA,NA,NA,NA,NA,3,#741CD8,#D8271C,0,10,0,38,1,1083.800000011921,37,1,786.9000000059605,0,0,experiment,NA,NA,1,0.3,0.7,3,2,53,2,NA
fcp-trial,87,445561,0.0-62.0-0.0,voc_e2,12142,"[{""event"":""fullscreenenter"",""trial"":1,""time"":2174}]",NA,NA,NA,NA,NA,5,#FA92F8,#1CD855,10,0,1,40,0,1180.800000011921,39,0,421.2999999821186,0,0,experiment,NA,NA,2,0.5,0.5,4,5,54,2,NA
fcp-trial,88,448675,0.0-63.0-0.0,voc_e2,12142,"[{""event"":""fullscreenenter"",""trial"":1,""time"":2174}]",NA,NA,NA,NA,NA,2,#D8271C,#741CD8,10,0,1,38,1,1059.800000011921,39,0,537.5,0,0,experiment,NA,NA,1,0.7,0.3,2,3,55,2,NA
fcp-trial,89,451385,0.0-64.0-0.0,voc_e2,12142,"[{""event"":""fullscreenenter"",""trial"":1,""time"":2174}]",NA,NA,NA,NA,NA,1,#D89F1C,#3386FF,10,0,1,38,1,719.5999999940395,37,1,471.5,10,1,experiment,NA,NA,0,0.9,0.1,0,1,56,2,NA
fcp-trial,90,454924,0.0-65.0-0.0,voc_e2,12142,"[{""event"":""fullscreenenter"",""trial"":1,""time"":2174}]",NA,NA,NA,NA,NA,2,#1CD855,#FA92F8,10,10,0,40,0,1614.300000011921,39,0,413.09999999403954,10,1,experiment,NA,NA,2,0.5,0.5,5,4,57,2,NA
fcp-trial,91,458806,0.0-66.0-0.0,voc_e2,12142,"[{""event"":""fullscreenenter"",""trial"":1,""time"":2174}]",NA,NA,NA,NA,NA,1,#FA92F8,#1CD855,10,0,1,38,1,1654,39,0,705.0999999940395,0,0,experiment,NA,NA,2,0.5,0.5,4,5,58,2,NA
fcp-trial,92,461474,0.0-67.0-0.0,voc_e2,12142,"[{""event"":""fullscreenenter"",""trial"":1,""time"":2174}]",NA,NA,NA,NA,NA,3,#D89F1C,#3386FF,10,10,1,38,1,716.9000000059605,37,1,433.89999997615814,10,1,experiment,NA,NA,0,0.9,0.1,0,1,59,2,NA
fcp-trial,93,464838,0.0-68.0-0.0,voc_e2,12142,"[{""event"":""fullscreenenter"",""trial"":1,""time"":2174}]",NA,NA,NA,NA,NA,5,#D8271C,#741CD8,10,0,1,40,0,1408.7000000178814,39,0,437.40000000596046,0,0,experiment,NA,NA,1,0.7,0.3,2,3,60,2,NA
fcp-trial,94,467824,0.0-69.0-0.0,voc_e2,12142,"[{""event"":""fullscreenenter"",""trial"":1,""time"":2174}]",NA,NA,NA,NA,NA,6,#1CD855,#FA92F8,0,10,0,40,0,956.8000000119209,39,0,508.5,10,1,experiment,NA,NA,2,0.5,0.5,5,4,61,2,NA
fcp-trial,95,470596,0.0-70.0-0.0,voc_e2,12142,"[{""event"":""fullscreenenter"",""trial"":1,""time"":2174}]",NA,NA,NA,NA,NA,2,#3386FF,#D89F1C,0,10,0,38,1,716.2999999821186,39,0,531.5,10,1,experiment,NA,NA,0,0.1,0.9,1,0,62,2,NA
fcp-trial,96,473256,0.0-71.0-0.0,voc_e2,12142,"[{""event"":""fullscreenenter"",""trial"":1,""time"":2174}]",NA,NA,NA,NA,NA,6,#3386FF,#D89F1C,0,0,0,38,1,606.6999999880791,39,0,533.3000000119209,0,1,experiment,NA,NA,0,0.1,0.9,1,0,63,2,NA
fcp-trial,97,476473,0.0-72.0-0.0,voc_e2,12142,"[{""event"":""fullscreenenter"",""trial"":1,""time"":2174}]",NA,NA,NA,NA,NA,6,#3386FF,#D89F1C,0,10,0,38,1,1001.3999999761581,39,0,695.7000000178814,10,1,experiment,NA,NA,0,0.1,0.9,1,0,64,2,NA
fcp-trial,98,480104,0.0-73.0-0.0,voc_e2,12142,"[{""event"":""fullscreenenter"",""trial"":1,""time"":2174}]",NA,NA,NA,NA,NA,2,#D8271C,#741CD8,10,0,1,38,1,1167.1000000238419,39,0,952.8000000119208,0,0,experiment,NA,NA,1,0.7,0.3,2,3,65,2,NA
fcp-trial,99,482877,0.0-74.0-0.0,voc_e2,12142,"[{""event"":""fullscreenenter"",""trial"":1,""time"":2174}]",NA,NA,NA,NA,NA,1,#D89F1C,#3386FF,10,0,1,38,1,781.4000000059605,37,1,477.2999999821186,10,1,experiment,NA,NA,0,0.9,0.1,0,1,66,2,NA
fcp-trial,100,486361,0.0-75.0-0.0,voc_e2,12142,"[{""event"":""fullscreenenter"",""trial"":1,""time"":2174}]",NA,NA,NA,NA,NA,0,#FA92F8,#1CD855,10,10,1,38,1,1153.300000011921,39,0,814.8000000119209,10,0,experiment,NA,NA,2,0.5,0.5,4,5,67,2,NA
fcp-trial,101,489857,0.0-76.0-0.0,voc_e2,12142,"[{""event"":""fullscreenenter"",""trial"":1,""time"":2174}]",NA,NA,NA,NA,NA,4,#FA92F8,#1CD855,0,0,1,38,1,1052.199999988079,37,1,923.3000000119208,0,1,experiment,NA,NA,2,0.5,0.5,4,5,68,2,NA
fcp-trial,102,492453,0.0-77.0-0.0,voc_e2,12142,"[{""event"":""fullscreenenter"",""trial"":1,""time"":2174}]",NA,NA,NA,NA,NA,5,#3386FF,#D89F1C,0,10,0,38,1,601.1999999880791,39,0,480.7999999821186,10,1,experiment,NA,NA,0,0.1,0.9,1,0,69,2,NA
fcp-trial,103,495805,0.0-78.0-0.0,voc_e2,12142,"[{""event"":""fullscreenenter"",""trial"":1,""time"":2174}]",NA,NA,NA,NA,NA,0,#741CD8,#D8271C,10,0,0,38,1,980.1999999880791,37,1,858.5999999940395,10,0,experiment,NA,NA,1,0.3,0.7,3,2,70,2,NA
fcp-trial,104,498658,0.0-79.0-0.0,voc_e2,12142,"[{""event"":""fullscreenenter"",""trial"":1,""time"":2174}]",NA,NA,NA,NA,NA,3,#1CD855,#FA92F8,10,0,0,38,1,905.0999999940395,39,0,430.7999999821186,0,1,experiment,NA,NA,2,0.5,0.5,5,4,71,2,NA
fcp-trial,105,504125,0.0-80.0-0.0,voc_e2,12142,"[{""event"":""fullscreenenter"",""trial"":1,""time"":2174}]",NA,NA,NA,NA,NA,4,#D8271C,#741CD8,10,0,1,38,1,3234.5,39,0,715,0,0,experiment,NA,NA,1,0.7,0.3,2,3,72,2,NA
fcp-trial,106,506934,0.0-81.0-0.0,voc_e2,12142,"[{""event"":""fullscreenenter"",""trial"":1,""time"":2174}]",NA,NA,NA,NA,NA,5,#1CD855,#FA92F8,0,0,0,40,0,812.5999999940395,37,1,469.89999997615814,0,0,experiment,NA,NA,2,0.5,0.5,5,4,73,2,NA
fcp-trial,107,509674,0.0-82.0-0.0,voc_e2,12142,"[{""event"":""fullscreenenter"",""trial"":1,""time"":2174}]",NA,NA,NA,NA,NA,0,#3386FF,#D89F1C,0,0,0,38,1,736,39,0,487.7000000178814,0,1,experiment,NA,NA,0,0.1,0.9,1,0,74,2,NA
fcp-trial,108,512873,0.0-83.0-0.0,voc_e2,12142,"[{""event"":""fullscreenenter"",""trial"":1,""time"":2174}]",NA,NA,NA,NA,NA,6,#D8271C,#741CD8,10,0,1,40,0,1247.800000011921,37,1,427.90000000596046,10,1,experiment,NA,NA,1,0.7,0.3,2,3,75,2,NA
fcp-trial,109,515519,0.0-84.0-0.0,voc_e2,12142,"[{""event"":""fullscreenenter"",""trial"":1,""time"":2174}]",NA,NA,NA,NA,NA,4,#3386FF,#D89F1C,10,10,0,38,1,654.5,39,0,471.5,10,1,experiment,NA,NA,0,0.1,0.9,1,0,76,2,NA
fcp-trial,110,518456,0.0-85.0-0.0,voc_e2,12142,"[{""event"":""fullscreenenter"",""trial"":1,""time"":2174}]",NA,NA,NA,NA,NA,2,#1CD855,#FA92F8,0,10,0,40,0,1006.7999999821186,39,0,412.2999999821186,10,1,experiment,NA,NA,2,0.5,0.5,5,4,77,2,NA
fcp-trial,111,521505,0.0-86.0-0.0,voc_e2,12142,"[{""event"":""fullscreenenter"",""trial"":1,""time"":2174}]",NA,NA,NA,NA,NA,3,#3386FF,#D89F1C,0,10,0,38,1,1082.9000000059605,39,0,446.5,10,1,experiment,NA,NA,0,0.1,0.9,1,0,78,2,NA
fcp-trial,112,524590,0.0-87.0-0.0,voc_e2,12142,"[{""event"":""fullscreenenter"",""trial"":1,""time"":2174}]",NA,NA,NA,NA,NA,6,#1CD855,#FA92F8,0,0,0,40,0,1089.4000000059605,37,1,470.90000000596046,0,0,experiment,NA,NA,2,0.5,0.5,5,4,79,2,NA
fcp-trial,113,527781,0.0-88.0-0.0,voc_e2,12142,"[{""event"":""fullscreenenter"",""trial"":1,""time"":2174}]",NA,NA,NA,NA,NA,5,#D8271C,#741CD8,10,0,1,40,0,1259.5,39,0,415.59999999403954,0,0,experiment,NA,NA,1,0.7,0.3,2,3,80,2,NA
fcp-trial,114,530723,0.0-89.0-0.0,voc_e2,12142,"[{""event"":""fullscreenenter"",""trial"":1,""time"":2174}]",NA,NA,NA,NA,NA,1,#FA92F8,#1CD855,0,10,1,40,0,1056.800000011921,37,1,375.10000002384186,0,1,experiment,NA,NA,2,0.5,0.5,4,5,81,2,NA
fcp-trial,115,534070,0.0-90.0-0.0,voc_e2,12142,"[{""event"":""fullscreenenter"",""trial"":1,""time"":2174}]",NA,NA,NA,NA,NA,1,#D8271C,#741CD8,10,10,1,38,1,1304.5999999940395,37,1,531.4000000059605,10,1,experiment,NA,NA,1,0.7,0.3,2,3,82,2,NA
fcp-trial,116,536853,0.0-91.0-0.0,voc_e2,12142,"[{""event"":""fullscreenenter"",""trial"":1,""time"":2174}]",NA,NA,NA,NA,NA,2,#D89F1C,#3386FF,10,10,1,38,1,750.9000000059605,37,1,510.59999999403954,10,1,experiment,NA,NA,0,0.9,0.1,0,1,83,2,NA
fcp-trial,117,539830,0.0-92.0-0.0,voc_e2,12142,"[{""event"":""fullscreenenter"",""trial"":1,""time"":2174}]",NA,NA,NA,NA,NA,3,#741CD8,#D8271C,0,10,0,38,1,906.7000000178814,39,0,550.1999999880791,10,1,experiment,NA,NA,1,0.3,0.7,3,2,84,2,NA
fcp-trial,118,542404,0.0-93.0-0.0,voc_e2,12142,"[{""event"":""fullscreenenter"",""trial"":1,""time"":2174}]",NA,NA,NA,NA,NA,1,#D89F1C,#3386FF,10,0,1,38,1,566,37,1,495.5,10,1,experiment,NA,NA,0,0.9,0.1,0,1,85,2,NA
fcp-trial,119,545165,0.0-94.0-0.0,voc_e2,12142,"[{""event"":""fullscreenenter"",""trial"":1,""time"":2174}]",NA,NA,NA,NA,NA,5,#1CD855,#FA92F8,10,0,0,40,0,849.3000000119209,39,0,391.10000002384186,0,1,experiment,NA,NA,2,0.5,0.5,5,4,86,2,NA
fcp-trial,120,547767,0.0-95.0-0.0,voc_e2,12142,"[{""event"":""fullscreenenter"",""trial"":1,""time"":2174}]",NA,NA,NA,NA,NA,2,#1CD855,#FA92F8,0,0,0,40,0,662.0999999940395,39,0,415.09999999403954,0,1,experiment,NA,NA,2,0.5,0.5,5,4,87,2,NA
fcp-trial,121,550782,0.0-96.0-0.0,voc_e2,12142,"[{""event"":""fullscreenenter"",""trial"":1,""time"":2174}]",NA,NA,NA,NA,NA,3,#D8271C,#741CD8,10,0,1,38,1,1042.8999999761581,37,1,451.699999988079,10,1,experiment,NA,NA,1,0.7,0.3,2,3,88,2,NA
fcp-trial,122,554050,0.0-97.0-0.0,voc_e2,12142,"[{""event"":""fullscreenenter"",""trial"":1,""time"":2174}]",NA,NA,NA,NA,NA,6,#D8271C,#741CD8,10,0,1,40,0,1286.199999988079,37,1,455.39999997615814,10,1,experiment,NA,NA,1,0.7,0.3,2,3,89,2,NA
fcp-trial,123,556624,0.0-98.0-0.0,voc_e2,12142,"[{""event"":""fullscreenenter"",""trial"":1,""time"":2174}]",NA,NA,NA,NA,NA,0,#D89F1C,#3386FF,10,10,1,38,1,621.5,37,1,437.90000000596046,10,1,experiment,NA,NA,0,0.9,0.1,0,1,90,2,NA
fcp-trial,124,559558,0.0-99.0-0.0,voc_e2,12142,"[{""event"":""fullscreenenter"",""trial"":1,""time"":2174}]",NA,NA,NA,NA,NA,4,#1CD855,#FA92F8,10,10,0,40,0,1004.3000000119209,39,0,418.10000002384186,10,1,experiment,NA,NA,2,0.5,0.5,5,4,91,3,NA
fcp-trial,125,562141,0.0-100.0-0.0,voc_e2,12142,"[{""event"":""fullscreenenter"",""trial"":1,""time"":2174}]",NA,NA,NA,NA,NA,5,#3386FF,#D89F1C,0,10,0,38,1,653.8000000119209,39,0,416.300000011921,10,1,experiment,NA,NA,0,0.1,0.9,1,0,92,3,NA
fcp-trial,126,565182,0.0-101.0-0.0,voc_e2,12142,"[{""event"":""fullscreenenter"",""trial"":1,""time"":2174}]",NA,NA,NA,NA,NA,0,#741CD8,#D8271C,0,10,0,38,1,1154,39,0,364.40000000596046,10,1,experiment,NA,NA,1,0.3,0.7,3,2,93,3,NA
fcp-trial,127,567857,0.0-102.0-0.0,voc_e2,12142,"[{""event"":""fullscreenenter"",""trial"":1,""time"":2174}]",NA,NA,NA,NA,NA,6,#D89F1C,#3386FF,10,0,1,38,1,758.0999999940395,37,1,396,10,1,experiment,NA,NA,0,0.9,0.1,0,1,94,3,NA
fcp-trial,128,570747,0.0-103.0-0.0,voc_e2,12142,"[{""event"":""fullscreenenter"",""trial"":1,""time"":2174}]",NA,NA,NA,NA,NA,2,#D89F1C,#3386FF,10,0,1,38,1,995.0999999940395,37,1,377.60000002384186,10,1,experiment,NA,NA,0,0.9,0.1,0,1,95,3,NA
fcp-trial,129,573706,0.0-104.0-0.0,voc_e2,12142,"[{""event"":""fullscreenenter"",""trial"":1,""time"":2174}]",NA,NA,NA,NA,NA,0,#1CD855,#FA92F8,10,10,0,40,0,925.5999999940395,37,1,506.5,10,0,experiment,NA,NA,2,0.5,0.5,5,4,96,3,NA
fcp-trial,130,576580,0.0-105.0-0.0,voc_e2,12142,"[{""event"":""fullscreenenter"",""trial"":1,""time"":2174}]",NA,NA,NA,NA,NA,2,#D8271C,#741CD8,10,0,1,40,0,910,39,0,441,0,0,experiment,NA,NA,1,0.7,0.3,2,3,97,3,NA
fcp-trial,131,579246,0.0-106.0-0.0,voc_e2,12142,"[{""event"":""fullscreenenter"",""trial"":1,""time"":2174}]",NA,NA,NA,NA,NA,3,#D89F1C,#3386FF,10,0,1,38,1,727.8000000119209,37,1,415.40000000596046,10,1,experiment,NA,NA,0,0.9,0.1,0,1,98,3,NA
fcp-trial,132,581975,0.0-107.0-0.0,voc_e2,12142,"[{""event"":""fullscreenenter"",""trial"":1,""time"":2174}]",NA,NA,NA,NA,NA,3,#1CD855,#FA92F8,10,10,0,40,0,780.2000000178814,37,1,423.5,10,0,experiment,NA,NA,2,0.5,0.5,5,4,99,3,NA
fcp-trial,133,585035,0.0-108.0-0.0,voc_e2,12142,"[{""event"":""fullscreenenter"",""trial"":1,""time"":2174}]",NA,NA,NA,NA,NA,1,#D8271C,#741CD8,10,0,1,38,1,1134.4000000059605,37,1,410.800000011921,10,1,experiment,NA,NA,1,0.7,0.3,2,3,100,3,NA
fcp-trial,134,588054,0.0-109.0-0.0,voc_e2,12142,"[{""event"":""fullscreenenter"",""trial"":1,""time"":2174}]",NA,NA,NA,NA,NA,5,#741CD8,#D8271C,0,10,0,40,0,1068.6000000238419,37,1,436.89999997615814,0,0,experiment,NA,NA,1,0.3,0.7,3,2,101,3,NA
fcp-trial,135,590748,0.0-110.0-0.0,voc_e2,12142,"[{""event"":""fullscreenenter"",""trial"":1,""time"":2174}]",NA,NA,NA,NA,NA,1,#1CD855,#FA92F8,10,0,0,40,0,818.6999999880791,39,0,358.90000000596046,0,1,experiment,NA,NA,2,0.5,0.5,5,4,102,3,NA
fcp-trial,136,593360,0.0-111.0-0.0,voc_e2,12142,"[{""event"":""fullscreenenter"",""trial"":1,""time"":2174}]",NA,NA,NA,NA,NA,4,#3386FF,#D89F1C,0,10,0,38,1,677.7999999821186,39,0,415.7000000178814,10,1,experiment,NA,NA,0,0.1,0.9,1,0,103,3,NA
fcp-trial,137,595960,0.0-112.0-0.0,voc_e2,12142,"[{""event"":""fullscreenenter"",""trial"":1,""time"":2174}]",NA,NA,NA,NA,NA,6,#1CD855,#FA92F8,0,0,0,40,0,627.8000000119209,39,0,454.300000011921,0,1,experiment,NA,NA,2,0.5,0.5,5,4,104,3,NA
fcp-trial,138,598754,0.0-113.0-0.0,voc_e2,12142,"[{""event"":""fullscreenenter"",""trial"":1,""time"":2174}]",NA,NA,NA,NA,NA,4,#741CD8,#D8271C,0,10,0,38,1,901.2000000178814,39,0,375.5,10,1,experiment,NA,NA,1,0.3,0.7,3,2,105,3,NA
audio-instructions,139,604873,0.0-114.0,voc_e2,12142,"[{""event"":""fullscreenenter"",""trial"":1,""time"":2174}]",NA,975.5,static/audio/pause.wav,NA,0,NA,NA,NA,NA,NA,NA,NA,NA,NA,NA,NA,NA,NA,NA,NA,NA,NA,NA,NA,NA,NA,NA,NA,NA,NA
fcp-trial,140,607625,0.0-115.0-0.0,voc_e2,12142,"[{""event"":""fullscreenenter"",""trial"":1,""time"":2174}]",NA,NA,NA,NA,NA,3,#3386FF,#D89F1C,0,10,0,38,1,896.0999999940395,39,0,333.69999998807907,10,1,experiment,NA,NA,0,0.1,0.9,1,0,106,3,NA
fcp-trial,141,610106,0.0-116.0-0.0,voc_e2,12142,"[{""event"":""fullscreenenter"",""trial"":1,""time"":2174}]",NA,NA,NA,NA,NA,4,#D89F1C,#3386FF,10,0,1,38,1,574.7999999821186,37,1,384.40000000596046,10,1,experiment,NA,NA,0,0.9,0.1,0,1,107,3,NA
fcp-trial,142,613191,0.0-117.0-0.0,voc_e2,12142,"[{""event"":""fullscreenenter"",""trial"":1,""time"":2174}]",NA,NA,NA,NA,NA,4,#741CD8,#D8271C,0,10,0,38,1,1198.7999999821186,39,0,367.09999999403954,10,1,experiment,NA,NA,1,0.3,0.7,3,2,108,3,NA
fcp-trial,143,615791,0.0-118.0-0.0,voc_e2,12142,"[{""event"":""fullscreenenter"",""trial"":1,""time"":2174}]",NA,NA,NA,NA,NA,0,#3386FF,#D89F1C,0,10,0,38,1,718.3999999761581,39,0,365.90000000596046,10,1,experiment,NA,NA,0,0.1,0.9,1,0,109,3,NA
fcp-trial,144,618356,0.0-119.0-0.0,voc_e2,12142,"[{""event"":""fullscreenenter"",""trial"":1,""time"":2174}]",NA,NA,NA,NA,NA,3,#D8271C,#741CD8,0,0,1,38,1,617.7000000178814,37,1,430,0,1,experiment,NA,NA,1,0.7,0.3,2,3,110,3,NA
fcp-trial,145,621436,0.0-120.0-0.0,voc_e2,12142,"[{""event"":""fullscreenenter"",""trial"":1,""time"":2174}]",NA,NA,NA,NA,NA,0,#FA92F8,#1CD855,0,0,1,38,1,1126.4000000059605,37,1,432.5,0,1,experiment,NA,NA,2,0.5,0.5,4,5,111,3,NA
fcp-trial,146,624521,0.0-121.0-0.0,voc_e2,12142,"[{""event"":""fullscreenenter"",""trial"":1,""time"":2174}]",NA,NA,NA,NA,NA,5,#1CD855,#FA92F8,0,0,0,40,0,1095.7999999821186,37,1,469.90000000596046,0,0,experiment,NA,NA,2,0.5,0.5,5,4,112,3,NA
fcp-trial,147,627373,0.0-122.0-0.0,voc_e2,12142,"[{""event"":""fullscreenenter"",""trial"":1,""time"":2174}]",NA,NA,NA,NA,NA,1,#D8271C,#741CD8,10,0,1,38,1,949,37,1,376.199999988079,10,1,experiment,NA,NA,1,0.7,0.3,2,3,113,3,NA
fcp-trial,148,629955,0.0-123.0-0.0,voc_e2,12142,"[{""event"":""fullscreenenter"",""trial"":1,""time"":2174}]",NA,NA,NA,NA,NA,2,#3386FF,#D89F1C,10,10,0,38,1,708.0999999940395,39,0,337.5,10,1,experiment,NA,NA,0,0.1,0.9,1,0,114,3,NA
fcp-trial,149,632788,0.0-124.0-0.0,voc_e2,12142,"[{""event"":""fullscreenenter"",""trial"":1,""time"":2174}]",NA,NA,NA,NA,NA,6,#FA92F8,#1CD855,0,0,1,40,0,931.5999999940395,37,1,374.2999999821186,0,1,experiment,NA,NA,2,0.5,0.5,4,5,115,3,NA
fcp-trial,150,635371,0.0-125.0-0.0,voc_e2,12142,"[{""event"":""fullscreenenter"",""trial"":1,""time"":2174}]",NA,NA,NA,NA,NA,1,#D89F1C,#3386FF,10,10,1,38,1,667.1999999880791,37,1,397.7000000178814,10,1,experiment,NA,NA,0,0.9,0.1,0,1,116,3,NA
fcp-trial,151,639600,0.0-126.0-0.0,voc_e2,12142,"[{""event"":""fullscreenenter"",""trial"":1,""time"":2174}]",NA,NA,NA,NA,NA,2,#D8271C,#741CD8,0,0,1,38,1,2280.5999999940395,37,1,424.699999988079,0,1,experiment,NA,NA,1,0.7,0.3,2,3,117,3,NA
fcp-trial,152,641987,0.0-127.0-0.0,voc_e2,12142,"[{""event"":""fullscreenenter"",""trial"":1,""time"":2174}]",NA,NA,NA,NA,NA,6,#3386FF,#D89F1C,0,0,0,38,1,499.5,39,0,376.40000000596046,0,1,experiment,NA,NA,0,0.1,0.9,1,0,118,3,NA
fcp-trial,153,645204,0.0-128.0-0.0,voc_e2,12142,"[{""event"":""fullscreenenter"",""trial"":1,""time"":2174}]",NA,NA,NA,NA,NA,1,#1CD855,#FA92F8,0,0,0,40,0,1291.0999999940395,39,0,408.199999988079,0,1,experiment,NA,NA,2,0.5,0.5,5,4,119,3,NA
fcp-trial,154,648369,0.0-129.0-0.0,voc_e2,12142,"[{""event"":""fullscreenenter"",""trial"":1,""time"":2174}]",NA,NA,NA,NA,NA,0,#741CD8,#D8271C,0,0,0,38,1,1264.8999999761581,39,0,378.699999988079,0,1,experiment,NA,NA,1,0.3,0.7,3,2,120,3,NA
fcp-trial,155,651302,0.0-130.0-0.0,voc_e2,12142,"[{""event"":""fullscreenenter"",""trial"":1,""time"":2174}]",NA,NA,NA,NA,NA,3,#FA92F8,#1CD855,0,10,1,40,0,875.0999999940395,39,0,539.1000000238419,10,0,experiment,NA,NA,2,0.5,0.5,4,5,121,3,NA
fcp-trial,156,653743,0.0-131.0-0.0,voc_e2,12142,"[{""event"":""fullscreenenter"",""trial"":1,""time"":2174}]",NA,NA,NA,NA,NA,5,#D89F1C,#3386FF,10,0,1,38,1,519.6000000238419,37,1,403.90000000596046,10,1,experiment,NA,NA,0,0.9,0.1,0,1,122,3,NA
fcp-trial,157,656764,0.0-132.0-0.0,voc_e2,12142,"[{""event"":""fullscreenenter"",""trial"":1,""time"":2174}]",NA,NA,NA,NA,NA,2,#FA92F8,#1CD855,10,0,1,40,0,1021,39,0,476.300000011921,0,0,experiment,NA,NA,2,0.5,0.5,4,5,123,3,NA
fcp-trial,158,659461,0.0-133.0-0.0,voc_e2,12142,"[{""event"":""fullscreenenter"",""trial"":1,""time"":2174}]",NA,NA,NA,NA,NA,4,#1CD855,#FA92F8,0,0,0,40,0,669.7000000178814,39,0,506.7999999821186,0,1,experiment,NA,NA,2,0.5,0.5,5,4,124,3,NA
fcp-trial,159,662824,0.0-134.0-0.0,voc_e2,12142,"[{""event"":""fullscreenenter"",""trial"":1,""time"":2174}]",NA,NA,NA,NA,NA,6,#D8271C,#741CD8,10,0,1,40,0,1412.300000011921,37,1,435.39999997615814,10,1,experiment,NA,NA,1,0.7,0.3,2,3,125,3,NA
fcp-trial,160,665609,0.0-135.0-0.0,voc_e2,12142,"[{""event"":""fullscreenenter"",""trial"":1,""time"":2174}]",NA,NA,NA,NA,NA,5,#D8271C,#741CD8,0,0,1,40,0,734.3000000119209,39,0,537.3000000119209,0,0,experiment,NA,NA,1,0.7,0.3,2,3,126,3,NA
fcp-trial,161,668974,0.0-136.0-0.0,voc_e2,12142,"[{""event"":""fullscreenenter"",""trial"":1,""time"":2174}]",NA,NA,NA,NA,NA,4,#741CD8,#D8271C,0,0,0,38,1,1061,39,0,787.9000000059605,0,1,experiment,NA,NA,1,0.3,0.7,3,2,127,3,NA
fcp-trial,162,672130,0.0-137.0-0.0,voc_e2,12142,"[{""event"":""fullscreenenter"",""trial"":1,""time"":2174}]",NA,NA,NA,NA,NA,0,#1CD855,#FA92F8,0,0,0,38,1,1184.7000000178814,39,0,453.2999999821186,0,1,experiment,NA,NA,2,0.5,0.5,5,4,128,3,NA
fcp-trial,163,674979,0.0-138.0-0.0,voc_e2,12142,"[{""event"":""fullscreenenter"",""trial"":1,""time"":2174}]",NA,NA,NA,NA,NA,4,#1CD855,#FA92F8,10,0,0,40,0,850.3000000119209,39,0,482.300000011921,0,1,experiment,NA,NA,2,0.5,0.5,5,4,129,3,NA
fcp-trial,164,678290,0.0-139.0-0.0,voc_e2,12142,"[{""event"":""fullscreenenter"",""trial"":1,""time"":2174}]",NA,NA,NA,NA,NA,0,#D8271C,#741CD8,10,0,1,40,0,1302.5,37,1,490,10,1,experiment,NA,NA,1,0.7,0.3,2,3,130,3,NA
fcp-trial,165,681051,0.0-140.0-0.0,voc_e2,12142,"[{""event"":""fullscreenenter"",""trial"":1,""time"":2174}]",NA,NA,NA,NA,NA,2,#D89F1C,#3386FF,10,10,1,38,1,836.7999999821186,37,1,412.5,10,1,experiment,NA,NA,0,0.9,0.1,0,1,131,3,NA
fcp-trial,166,684038,0.0-141.0-0.0,voc_e2,12142,"[{""event"":""fullscreenenter"",""trial"":1,""time"":2174}]",NA,NA,NA,NA,NA,2,#D8271C,#741CD8,0,0,1,38,1,1060.1000000238419,37,1,413,0,1,experiment,NA,NA,1,0.7,0.3,2,3,132,3,NA
fcp-trial,167,686924,0.0-142.0-0.0,voc_e2,12142,"[{""event"":""fullscreenenter"",""trial"":1,""time"":2174}]",NA,NA,NA,NA,NA,1,#D8271C,#741CD8,0,0,1,38,1,920,37,1,444.2999999821186,0,1,experiment,NA,NA,1,0.7,0.3,2,3,133,3,NA
fcp-trial,168,689744,0.0-143.0-0.0,voc_e2,12142,"[{""event"":""fullscreenenter"",""trial"":1,""time"":2174}]",NA,NA,NA,NA,NA,2,#1CD855,#FA92F8,10,0,0,40,0,836.8000000119209,37,1,471.39999997615814,10,0,experiment,NA,NA,2,0.5,0.5,5,4,134,3,NA
fcp-trial,169,692288,0.0-144.0-0.0,voc_e2,12142,"[{""event"":""fullscreenenter"",""trial"":1,""time"":2174}]",NA,NA,NA,NA,NA,4,#3386FF,#D89F1C,0,10,0,38,1,639,39,0,385.39999997615814,10,1,experiment,NA,NA,0,0.1,0.9,1,0,135,3,NA
fcp-trial,170,695035,0.0-145.0-0.0,voc_e2,12142,"[{""event"":""fullscreenenter"",""trial"":1,""time"":2174}]",NA,NA,NA,NA,NA,3,#FA92F8,#1CD855,10,10,1,40,0,773.5999999940395,37,1,455.40000000596046,10,1,experiment,NA,NA,2,0.5,0.5,4,5,136,4,NA
fcp-trial,171,698193,0.0-146.0-0.0,voc_e2,12142,"[{""event"":""fullscreenenter"",""trial"":1,""time"":2174}]",NA,NA,NA,NA,NA,6,#D8271C,#741CD8,10,0,1,40,0,1226,37,1,408.5,10,1,experiment,NA,NA,1,0.7,0.3,2,3,137,4,NA
fcp-trial,172,700976,0.0-147.0-0.0,voc_e2,12142,"[{""event"":""fullscreenenter"",""trial"":1,""time"":2174}]",NA,NA,NA,NA,NA,5,#D8271C,#741CD8,0,0,1,40,0,830,37,1,430,0,1,experiment,NA,NA,1,0.7,0.3,2,3,138,4,NA
fcp-trial,173,703505,0.0-148.0-0.0,voc_e2,12142,"[{""event"":""fullscreenenter"",""trial"":1,""time"":2174}]",NA,NA,NA,NA,NA,3,#3386FF,#D89F1C,0,10,0,38,1,588.3000000119209,39,0,424.90000000596046,10,1,experiment,NA,NA,0,0.1,0.9,1,0,139,4,NA
fcp-trial,174,706133,0.0-149.0-0.0,voc_e2,12142,"[{""event"":""fullscreenenter"",""trial"":1,""time"":2174}]",NA,NA,NA,NA,NA,1,#D89F1C,#3386FF,10,0,1,38,1,643.5,37,1,466.699999988079,10,1,experiment,NA,NA,0,0.9,0.1,0,1,140,4,NA
fcp-trial,175,709191,0.0-150.0-0.0,voc_e2,12142,"[{""event"":""fullscreenenter"",""trial"":1,""time"":2174}]",NA,NA,NA,NA,NA,1,#FA92F8,#1CD855,0,10,1,40,0,1118.300000011921,39,0,426.5,10,0,experiment,NA,NA,2,0.5,0.5,4,5,141,4,NA
fcp-trial,176,711919,0.0-151.0-0.0,voc_e2,12142,"[{""event"":""fullscreenenter"",""trial"":1,""time"":2174}]",NA,NA,NA,NA,NA,5,#FA92F8,#1CD855,0,10,1,40,0,738.5,39,0,461.39999997615814,10,0,experiment,NA,NA,2,0.5,0.5,4,5,142,4,NA
fcp-trial,177,715515,0.0-152.0-0.0,voc_e2,12142,"[{""event"":""fullscreenenter"",""trial"":1,""time"":2174}]",NA,NA,NA,NA,NA,3,#741CD8,#D8271C,10,10,0,38,1,1499.300000011921,39,0,584.1999999880791,10,1,experiment,NA,NA,1,0.3,0.7,3,2,143,4,NA
fcp-trial,178,718493,0.0-153.0-0.0,voc_e2,12142,"[{""event"":""fullscreenenter"",""trial"":1,""time"":2174}]",NA,NA,NA,NA,NA,0,#D89F1C,#3386FF,10,0,1,38,1,973.3000000119209,37,1,490.40000000596046,10,1,experiment,NA,NA,0,0.9,0.1,0,1,144,4,NA
fcp-trial,179,721306,0.0-154.0-0.0,voc_e2,12142,"[{""event"":""fullscreenenter"",""trial"":1,""time"":2174}]",NA,NA,NA,NA,NA,6,#3386FF,#D89F1C,0,0,0,38,1,865.8000000119209,39,0,437.5,0,1,experiment,NA,NA,0,0.1,0.9,1,0,145,4,NA
fcp-trial,180,724170,0.0-155.0-0.0,voc_e2,12142,"[{""event"":""fullscreenenter"",""trial"":1,""time"":2174}]",NA,NA,NA,NA,NA,5,#D89F1C,#3386FF,10,0,1,38,1,843.8000000119209,37,1,492.39999997615814,10,1,experiment,NA,NA,0,0.9,0.1,0,1,146,4,NA
fcp-trial,181,726762,0.0-156.0-0.0,voc_e2,12142,"[{""event"":""fullscreenenter"",""trial"":1,""time"":2174}]",NA,NA,NA,NA,NA,6,#FA92F8,#1CD855,10,10,1,40,0,603.5,39,0,472.90000000596046,10,0,experiment,NA,NA,2,0.5,0.5,4,5,147,4,NA
fcp-trial,182,730223,0.0-157.0-0.0,voc_e2,12142,"[{""event"":""fullscreenenter"",""trial"":1,""time"":2174}]",NA,NA,NA,NA,NA,3,#741CD8,#D8271C,0,10,0,38,1,1603.5999999940395,39,0,342.69999998807907,10,1,experiment,NA,NA,1,0.3,0.7,3,2,148,4,NA
fcp-trial,183,733230,0.0-158.0-0.0,voc_e2,12142,"[{""event"":""fullscreenenter"",""trial"":1,""time"":2174}]",NA,NA,NA,NA,NA,4,#741CD8,#D8271C,0,10,0,38,1,1056.0999999940395,39,0,432.5,10,1,experiment,NA,NA,1,0.3,0.7,3,2,149,4,NA
fcp-trial,184,736213,0.0-159.0-0.0,voc_e2,12142,"[{""event"":""fullscreenenter"",""trial"":1,""time"":2174}]",NA,NA,NA,NA,NA,4,#3386FF,#D89F1C,0,0,0,38,1,973.5999999940395,39,0,496.09999999403954,0,1,experiment,NA,NA,0,0.1,0.9,1,0,150,4,NA
fcp-trial,185,739205,0.0-160.0-0.0,voc_e2,12142,"[{""event"":""fullscreenenter"",""trial"":1,""time"":2174}]",NA,NA,NA,NA,NA,5,#741CD8,#D8271C,0,10,0,40,0,1087,37,1,389.5,0,0,experiment,NA,NA,1,0.3,0.7,3,2,151,4,NA
fcp-trial,186,742021,0.0-161.0-0.0,voc_e2,12142,"[{""event"":""fullscreenenter"",""trial"":1,""time"":2174}]",NA,NA,NA,NA,NA,1,#741CD8,#D8271C,0,0,0,38,1,879.9000000059605,39,0,409.199999988079,0,1,experiment,NA,NA,1,0.3,0.7,3,2,152,4,NA
fcp-trial,187,744812,0.0-162.0-0.0,voc_e2,12142,"[{""event"":""fullscreenenter"",""trial"":1,""time"":2174}]",NA,NA,NA,NA,NA,6,#3386FF,#D89F1C,0,10,0,38,1,874.5,39,0,397.90000000596046,10,1,experiment,NA,NA,0,0.1,0.9,1,0,153,4,NA
fcp-trial,188,747847,0.0-163.0-0.0,voc_e2,12142,"[{""event"":""fullscreenenter"",""trial"":1,""time"":2174}]",NA,NA,NA,NA,NA,5,#D89F1C,#3386FF,0,0,1,38,1,1071.699999988079,37,1,446.300000011921,0,1,experiment,NA,NA,0,0.9,0.1,0,1,154,4,NA
fcp-trial,189,750632,0.0-164.0-0.0,voc_e2,12142,"[{""event"":""fullscreenenter"",""trial"":1,""time"":2174}]",NA,NA,NA,NA,NA,1,#1CD855,#FA92F8,0,10,0,40,0,847.6000000238419,39,0,423.5,10,1,experiment,NA,NA,2,0.5,0.5,5,4,155,4,NA
fcp-trial,190,754061,0.0-165.0-0.0,voc_e2,12142,"[{""event"":""fullscreenenter"",""trial"":1,""time"":2174}]",NA,NA,NA,NA,NA,0,#741CD8,#D8271C,10,10,0,38,1,1491.0999999940395,39,0,421.7999999821186,10,1,experiment,NA,NA,1,0.3,0.7,3,2,156,4,NA
fcp-trial,191,756919,0.0-166.0-0.0,voc_e2,12142,"[{""event"":""fullscreenenter"",""trial"":1,""time"":2174}]",NA,NA,NA,NA,NA,3,#1CD855,#FA92F8,0,10,0,40,0,930.5,39,0,414.09999999403954,10,1,experiment,NA,NA,2,0.5,0.5,5,4,157,4,NA
fcp-trial,192,759710,0.0-167.0-0.0,voc_e2,12142,"[{""event"":""fullscreenenter"",""trial"":1,""time"":2174}]",NA,NA,NA,NA,NA,2,#D89F1C,#3386FF,0,0,1,38,1,810.1000000238419,37,1,461,0,1,experiment,NA,NA,0,0.9,0.1,0,1,158,4,NA
fcp-trial,193,762451,0.0-168.0-0.0,voc_e2,12142,"[{""event"":""fullscreenenter"",""trial"":1,""time"":2174}]",NA,NA,NA,NA,NA,6,#FA92F8,#1CD855,0,10,1,40,0,870.6999999880791,39,0,350.59999999403954,10,0,experiment,NA,NA,2,0.5,0.5,4,5,159,4,NA
fcp-trial,194,765110,0.0-169.0-0.0,voc_e2,12142,"[{""event"":""fullscreenenter"",""trial"":1,""time"":2174}]",NA,NA,NA,NA,NA,2,#1CD855,#FA92F8,10,10,0,40,0,752.8000000119209,39,0,389.5,10,1,experiment,NA,NA,2,0.5,0.5,5,4,160,4,NA
fcp-trial,195,768259,0.0-170.0-0.0,voc_e2,12142,"[{""event"":""fullscreenenter"",""trial"":1,""time"":2174}]",NA,NA,NA,NA,NA,6,#741CD8,#D8271C,0,0,0,40,0,1194.9000000059605,37,1,436.90000000596046,0,0,experiment,NA,NA,1,0.3,0.7,3,2,161,4,NA
fcp-trial,196,770914,0.0-171.0-0.0,voc_e2,12142,"[{""event"":""fullscreenenter"",""trial"":1,""time"":2174}]",NA,NA,NA,NA,NA,0,#FA92F8,#1CD855,0,10,1,40,0,636,37,1,503.90000000596046,0,1,experiment,NA,NA,2,0.5,0.5,4,5,162,4,NA
fcp-trial,197,773483,0.0-172.0-0.0,voc_e2,12142,"[{""event"":""fullscreenenter"",""trial"":1,""time"":2174}]",NA,NA,NA,NA,NA,1,#3386FF,#D89F1C,0,10,0,38,1,634.3000000119209,39,0,405.40000000596046,10,1,experiment,NA,NA,0,0.1,0.9,1,0,163,4,NA
fcp-trial,198,776117,0.0-173.0-0.0,voc_e2,12142,"[{""event"":""fullscreenenter"",""trial"":1,""time"":2174}]",NA,NA,NA,NA,NA,5,#FA92F8,#1CD855,0,10,1,40,0,696.0999999940395,37,1,418.40000000596046,0,1,experiment,NA,NA,2,0.5,0.5,4,5,164,4,NA
fcp-trial,199,778691,0.0-174.0-0.0,voc_e2,12142,"[{""event"":""fullscreenenter"",""trial"":1,""time"":2174}]",NA,NA,NA,NA,NA,4,#1CD855,#FA92F8,0,10,0,40,0,683,39,0,370.699999988079,10,1,experiment,NA,NA,2,0.5,0.5,5,4,165,4,NA
fcp-trial,200,781765,0.0-175.0-0.0,voc_e2,12142,"[{""event"":""fullscreenenter"",""trial"":1,""time"":2174}]",NA,NA,NA,NA,NA,2,#D8271C,#741CD8,10,0,1,38,1,1193.699999988079,37,1,362.59999999403954,10,1,experiment,NA,NA,1,0.7,0.3,2,3,166,4,NA
fcp-trial,201,784776,0.0-176.0-0.0,voc_e2,12142,"[{""event"":""fullscreenenter"",""trial"":1,""time"":2174}]",NA,NA,NA,NA,NA,0,#D89F1C,#3386FF,10,0,1,38,1,1025.5,37,1,471.09999999403954,10,1,experiment,NA,NA,0,0.9,0.1,0,1,167,4,NA
fcp-trial,202,787663,0.0-177.0-0.0,voc_e2,12142,"[{""event"":""fullscreenenter"",""trial"":1,""time"":2174}]",NA,NA,NA,NA,NA,3,#3386FF,#D89F1C,0,10,0,38,1,1002.5,39,0,364,10,1,experiment,NA,NA,0,0.1,0.9,1,0,168,4,NA
fcp-trial,203,790585,0.0-178.0-0.0,voc_e2,12142,"[{""event"":""fullscreenenter"",""trial"":1,""time"":2174}]",NA,NA,NA,NA,NA,3,#D8271C,#741CD8,10,0,1,38,1,929.1000000238419,37,1,477.09999999403954,10,1,experiment,NA,NA,1,0.7,0.3,2,3,169,4,NA
fcp-trial,204,793277,0.0-179.0-0.0,voc_e2,12142,"[{""event"":""fullscreenenter"",""trial"":1,""time"":2174}]",NA,NA,NA,NA,NA,4,#D8271C,#741CD8,0,0,1,38,1,774.4000000059605,37,1,405.5,0,1,experiment,NA,NA,1,0.7,0.3,2,3,170,4,NA
fcp-trial,205,796043,0.0-180.0-0.0,voc_e2,12142,"[{""event"":""fullscreenenter"",""trial"":1,""time"":2174}]",NA,NA,NA,NA,NA,2,#3386FF,#D89F1C,0,10,0,38,1,859.1999999880791,39,0,389.7999999821186,10,1,experiment,NA,NA,0,0.1,0.9,1,0,171,4,NA
fcp-trial,206,798719,0.0-181.0-0.0,voc_e2,12142,"[{""event"":""fullscreenenter"",""trial"":1,""time"":2174}]",NA,NA,NA,NA,NA,3,#1CD855,#FA92F8,0,10,0,40,0,798.1999999880791,39,0,355.40000000596046,10,1,experiment,NA,NA,2,0.5,0.5,5,4,172,4,NA
fcp-trial,207,802811,0.0-182.0-0.0,voc_e2,12142,"[{""event"":""fullscreenenter"",""trial"":1,""time"":2174}]",NA,NA,NA,NA,NA,1,#D89F1C,#3386FF,10,10,1,40,0,1918.699999988079,37,1,655.0999999940395,10,1,experiment,NA,NA,0,0.9,0.1,0,1,173,4,NA
fcp-trial,208,805808,0.0-183.0-0.0,voc_e2,12142,"[{""event"":""fullscreenenter"",""trial"":1,""time"":2174}]",NA,NA,NA,NA,NA,0,#D8271C,#741CD8,10,0,1,38,1,965.5,37,1,513.3000000119209,10,1,experiment,NA,NA,1,0.7,0.3,2,3,174,4,NA
fcp-trial,209,808772,0.0-184.0-0.0,voc_e2,12142,"[{""event"":""fullscreenenter"",""trial"":1,""time"":2174}]",NA,NA,NA,NA,NA,6,#3386FF,#D89F1C,0,10,0,38,1,1079.199999988079,39,0,362.40000000596046,10,1,experiment,NA,NA,0,0.1,0.9,1,0,175,4,NA
fcp-trial,210,811576,0.0-185.0-0.0,voc_e2,12142,"[{""event"":""fullscreenenter"",""trial"":1,""time"":2174}]",NA,NA,NA,NA,NA,2,#741CD8,#D8271C,0,10,0,38,1,966.0999999940395,39,0,316.39999997615814,10,1,experiment,NA,NA,1,0.3,0.7,3,2,176,4,NA
fcp-trial,211,814440,0.0-186.0-0.0,voc_e2,12142,"[{""event"":""fullscreenenter"",""trial"":1,""time"":2174}]",NA,NA,NA,NA,NA,2,#FA92F8,#1CD855,0,0,1,40,0,817.0999999940395,39,0,527.4000000059605,0,0,experiment,NA,NA,2,0.5,0.5,4,5,177,4,NA
fcp-trial,212,817486,0.0-187.0-0.0,voc_e2,12142,"[{""event"":""fullscreenenter"",""trial"":1,""time"":2174}]",NA,NA,NA,NA,NA,6,#D8271C,#741CD8,10,0,1,40,0,1093.4000000059605,37,1,430,10,1,experiment,NA,NA,1,0.7,0.3,2,3,178,4,NA
fcp-trial,213,820375,0.0-188.0-0.0,voc_e2,12142,"[{""event"":""fullscreenenter"",""trial"":1,""time"":2174}]",NA,NA,NA,NA,NA,1,#FA92F8,#1CD855,0,0,1,38,1,720.8000000119209,37,1,649.3000000119209,0,1,experiment,NA,NA,2,0.5,0.5,4,5,179,4,NA
fcp-trial,214,823688,0.0-189.0-0.0,voc_e2,12142,"[{""event"":""fullscreenenter"",""trial"":1,""time"":2174}]",NA,NA,NA,NA,NA,0,#3386FF,#D89F1C,0,10,0,38,1,1349,39,0,445.5,10,1,experiment,NA,NA,0,0.1,0.9,1,0,180,4,NA
fcp-trial,215,826405,0.0-190.0-0.0,voc_e2,12142,"[{""event"":""fullscreenenter"",""trial"":1,""time"":2174}]",NA,NA,NA,NA,NA,5,#3386FF,#D89F1C,0,10,0,38,1,757.7000000178814,39,0,444.90000000596046,10,1,experiment,NA,NA,0,0.1,0.9,1,0,181,5,NA
fcp-trial,216,829138,0.0-191.0-0.0,voc_e2,12142,"[{""event"":""fullscreenenter"",""trial"":1,""time"":2174}]",NA,NA,NA,NA,NA,1,#741CD8,#D8271C,0,10,0,38,1,799.7000000178814,39,0,413.40000000596046,10,1,experiment,NA,NA,1,0.3,0.7,3,2,182,5,NA
fcp-trial,217,831687,0.0-192.0-0.0,voc_e2,12142,"[{""event"":""fullscreenenter"",""trial"":1,""time"":2174}]",NA,NA,NA,NA,NA,5,#1CD855,#FA92F8,10,0,0,40,0,648.8999999761581,39,0,376.2999999821186,0,1,experiment,NA,NA,2,0.5,0.5,5,4,183,5,NA
fcp-trial,218,834222,0.0-193.0-0.0,voc_e2,12142,"[{""event"":""fullscreenenter"",""trial"":1,""time"":2174}]",NA,NA,NA,NA,NA,6,#FA92F8,#1CD855,0,0,1,40,0,599,37,1,411.5,0,1,experiment,NA,NA,2,0.5,0.5,4,5,184,5,NA
fcp-trial,219,837209,0.0-194.0-0.0,voc_e2,12142,"[{""event"":""fullscreenenter"",""trial"":1,""time"":2174}]",NA,NA,NA,NA,NA,0,#1CD855,#FA92F8,10,10,0,40,0,873.3999999761581,37,1,594.5999999940395,10,0,experiment,NA,NA,2,0.5,0.5,5,4,185,5,NA
fcp-trial,220,839836,0.0-195.0-0.0,voc_e2,12142,"[{""event"":""fullscreenenter"",""trial"":1,""time"":2174}]",NA,NA,NA,NA,NA,4,#3386FF,#D89F1C,0,10,0,38,1,656.8000000119209,39,0,455.40000000596046,10,1,experiment,NA,NA,0,0.1,0.9,1,0,186,5,NA
fcp-trial,221,842487,0.0-196.0-0.0,voc_e2,12142,"[{""event"":""fullscreenenter"",""trial"":1,""time"":2174}]",NA,NA,NA,NA,NA,5,#D8271C,#741CD8,10,0,1,38,1,616.4000000059605,37,1,505.699999988079,10,1,experiment,NA,NA,1,0.7,0.3,2,3,187,5,NA
fcp-trial,222,845153,0.0-197.0-0.0,voc_e2,12142,"[{""event"":""fullscreenenter"",""trial"":1,""time"":2174}]",NA,NA,NA,NA,NA,4,#FA92F8,#1CD855,10,0,1,40,0,731.9000000059605,37,1,415.59999999403954,10,1,experiment,NA,NA,2,0.5,0.5,4,5,188,5,NA
fcp-trial,223,847771,0.0-198.0-0.0,voc_e2,12142,"[{""event"":""fullscreenenter"",""trial"":1,""time"":2174}]",NA,NA,NA,NA,NA,3,#D89F1C,#3386FF,10,0,1,38,1,691.8000000119209,37,1,405.59999999403954,10,1,experiment,NA,NA,0,0.9,0.1,0,1,189,5,NA
fcp-trial,224,850478,0.0-199.0-0.0,voc_e2,12142,"[{""event"":""fullscreenenter"",""trial"":1,""time"":2174}]",NA,NA,NA,NA,NA,0,#FA92F8,#1CD855,10,10,1,40,0,838.7999999821186,39,0,349.5,10,0,experiment,NA,NA,2,0.5,0.5,4,5,190,5,NA
fcp-trial,225,853363,0.0-200.0-0.0,voc_e2,12142,"[{""event"":""fullscreenenter"",""trial"":1,""time"":2174}]",NA,NA,NA,NA,NA,3,#741CD8,#D8271C,0,10,0,38,1,974.9000000059605,37,1,387.90000000596046,0,0,experiment,NA,NA,1,0.3,0.7,3,2,191,5,NA
fcp-trial,226,856127,0.0-201.0-0.0,voc_e2,12142,"[{""event"":""fullscreenenter"",""trial"":1,""time"":2174}]",NA,NA,NA,NA,NA,2,#1CD855,#FA92F8,10,10,0,40,0,857.2999999821186,37,1,386.7999999821186,10,0,experiment,NA,NA,2,0.5,0.5,5,4,192,5,NA
fcp-trial,227,858875,0.0-202.0-0.0,voc_e2,12142,"[{""event"":""fullscreenenter"",""trial"":1,""time"":2174}]",NA,NA,NA,NA,NA,4,#D8271C,#741CD8,0,0,1,38,1,879.6999999880791,37,1,353.80000001192093,0,1,experiment,NA,NA,1,0.7,0.3,2,3,193,5,NA
fcp-trial,228,861345,0.0-203.0-0.0,voc_e2,12142,"[{""event"":""fullscreenenter"",""trial"":1,""time"":2174}]",NA,NA,NA,NA,NA,5,#3386FF,#D89F1C,0,10,0,38,1,620.2999999821186,39,0,336,10,1,experiment,NA,NA,0,0.1,0.9,1,0,194,5,NA
fcp-trial,229,863968,0.0-204.0-0.0,voc_e2,12142,"[{""event"":""fullscreenenter"",""trial"":1,""time"":2174}]",NA,NA,NA,NA,NA,4,#1CD855,#FA92F8,10,0,0,40,0,724.8000000119209,37,1,386.90000000596046,10,0,experiment,NA,NA,2,0.5,0.5,5,4,195,5,NA
fcp-trial,230,866434,0.0-205.0-0.0,voc_e2,12142,"[{""event"":""fullscreenenter"",""trial"":1,""time"":2174}]",NA,NA,NA,NA,NA,6,#3386FF,#D89F1C,0,10,0,38,1,593.7000000178814,39,0,350.7000000178814,10,1,experiment,NA,NA,0,0.1,0.9,1,0,196,5,NA
fcp-trial,231,869570,0.0-206.0-0.0,voc_e2,12142,"[{""event"":""fullscreenenter"",""trial"":1,""time"":2174}]",NA,NA,NA,NA,NA,1,#D8271C,#741CD8,10,0,1,38,1,1258.3999999761581,37,1,362,10,1,experiment,NA,NA,1,0.7,0.3,2,3,197,5,NA
fcp-trial,232,872116,0.0-207.0-0.0,voc_e2,12142,"[{""event"":""fullscreenenter"",""trial"":1,""time"":2174}]",NA,NA,NA,NA,NA,1,#D89F1C,#3386FF,10,10,1,38,1,665.8000000119209,37,1,364.699999988079,10,1,experiment,NA,NA,0,0.9,0.1,0,1,198,5,NA
fcp-trial,233,874633,0.0-208.0-0.0,voc_e2,12142,"[{""event"":""fullscreenenter"",""trial"":1,""time"":2174}]",NA,NA,NA,NA,NA,4,#D89F1C,#3386FF,10,0,1,38,1,656.8000000119209,37,1,345.09999999403954,10,1,experiment,NA,NA,0,0.9,0.1,0,1,199,5,NA
fcp-trial,234,877221,0.0-209.0-0.0,voc_e2,12142,"[{""event"":""fullscreenenter"",""trial"":1,""time"":2174}]",NA,NA,NA,NA,NA,6,#FA92F8,#1CD855,0,0,1,40,0,719.7999999821186,37,1,348.5,0,1,experiment,NA,NA,2,0.5,0.5,4,5,200,5,NA
fcp-trial,235,880465,0.0-210.0-0.0,voc_e2,12142,"[{""event"":""fullscreenenter"",""trial"":1,""time"":2174}]",NA,NA,NA,NA,NA,6,#D8271C,#741CD8,10,10,1,40,0,1398.2000000178814,37,1,330.7999999821186,10,1,experiment,NA,NA,1,0.7,0.3,2,3,201,5,NA
fcp-trial,236,883032,0.0-211.0-0.0,voc_e2,12142,"[{""event"":""fullscreenenter"",""trial"":1,""time"":2174}]",NA,NA,NA,NA,NA,2,#D8271C,#741CD8,0,0,1,40,0,707.9000000059605,37,1,337.59999999403954,0,1,experiment,NA,NA,1,0.7,0.3,2,3,202,5,NA
fcp-trial,237,886040,0.0-212.0-0.0,voc_e2,12142,"[{""event"":""fullscreenenter"",""trial"":1,""time"":2174}]",NA,NA,NA,NA,NA,3,#3386FF,#D89F1C,0,10,0,38,1,1141.9000000059605,39,0,336.39999997615814,10,1,experiment,NA,NA,0,0.1,0.9,1,0,203,5,NA
fcp-trial,238,889014,0.0-213.0-0.0,voc_e2,12142,"[{""event"":""fullscreenenter"",""trial"":1,""time"":2174}]",NA,NA,NA,NA,NA,5,#741CD8,#D8271C,0,10,0,40,0,1057.5999999940395,37,1,403.2000000178814,0,0,experiment,NA,NA,1,0.3,0.7,3,2,204,5,NA
fcp-trial,239,891764,0.0-214.0-0.0,voc_e2,12142,"[{""event"":""fullscreenenter"",""trial"":1,""time"":2174}]",NA,NA,NA,NA,NA,1,#1CD855,#FA92F8,10,10,0,40,0,803.0999999940395,39,0,430.59999999403954,10,1,experiment,NA,NA,2,0.5,0.5,5,4,205,5,NA
fcp-trial,240,894389,0.0-215.0-0.0,voc_e2,12142,"[{""event"":""fullscreenenter"",""trial"":1,""time"":2174}]",NA,NA,NA,NA,NA,5,#1CD855,#FA92F8,10,10,0,40,0,705.8000000119209,39,0,401.300000011921,10,1,experiment,NA,NA,2,0.5,0.5,5,4,206,5,NA
fcp-trial,241,896915,0.0-216.0-0.0,voc_e2,12142,"[{""event"":""fullscreenenter"",""trial"":1,""time"":2174}]",NA,NA,NA,NA,NA,2,#D89F1C,#3386FF,10,0,1,38,1,649.7000000178814,37,1,362,10,1,experiment,NA,NA,0,0.9,0.1,0,1,207,5,NA
fcp-trial,242,900071,0.0-217.0-0.0,voc_e2,12142,"[{""event"":""fullscreenenter"",""trial"":1,""time"":2174}]",NA,NA,NA,NA,NA,0,#D8271C,#741CD8,10,10,1,38,1,1286.5,37,1,356.30000001192093,10,1,experiment,NA,NA,1,0.7,0.3,2,3,208,5,NA
fcp-trial,243,903054,0.0-218.0-0.0,voc_e2,12142,"[{""event"":""fullscreenenter"",""trial"":1,""time"":2174}]",NA,NA,NA,NA,NA,0,#3386FF,#D89F1C,0,10,0,38,1,1111.699999988079,39,0,354.7999999821186,10,1,experiment,NA,NA,0,0.1,0.9,1,0,209,5,NA
fcp-trial,244,905693,0.0-219.0-0.0,voc_e2,12142,"[{""event"":""fullscreenenter"",""trial"":1,""time"":2174}]",NA,NA,NA,NA,NA,3,#1CD855,#FA92F8,10,0,0,40,0,772.6999999880791,37,1,342.5,10,0,experiment,NA,NA,2,0.5,0.5,5,4,210,5,NA
audio-instructions,245,912754,0.0-220.0,voc_e2,12142,"[{""event"":""fullscreenenter"",""trial"":1,""time"":2174}]",NA,1959.199999988079,static/audio/pause.wav,NA,0,NA,NA,NA,NA,NA,NA,NA,NA,NA,NA,NA,NA,NA,NA,NA,NA,NA,NA,NA,NA,NA,NA,NA,NA,NA
fcp-trial,246,915405,0.0-221.0-0.0,voc_e2,12142,"[{""event"":""fullscreenenter"",""trial"":1,""time"":2174}]",NA,NA,NA,NA,NA,3,#D89F1C,#3386FF,10,0,1,38,1,799.4000000059605,37,1,327,10,1,experiment,NA,NA,0,0.9,0.1,0,1,211,5,NA
fcp-trial,247,918305,0.0-222.0-0.0,voc_e2,12142,"[{""event"":""fullscreenenter"",""trial"":1,""time"":2174}]",NA,NA,NA,NA,NA,4,#D8271C,#741CD8,10,0,1,38,1,1024,37,1,364.5,10,1,experiment,NA,NA,1,0.7,0.3,2,3,212,5,NA
fcp-trial,248,920906,0.0-223.0-0.0,voc_e2,12142,"[{""event"":""fullscreenenter"",""trial"":1,""time"":2174}]",NA,NA,NA,NA,NA,1,#D8271C,#741CD8,0,10,1,38,1,748.5999999940395,37,1,332.59999999403954,0,1,experiment,NA,NA,1,0.7,0.3,2,3,213,5,NA
fcp-trial,249,923473,0.0-224.0-0.0,voc_e2,12142,"[{""event"":""fullscreenenter"",""trial"":1,""time"":2174}]",NA,NA,NA,NA,NA,0,#D89F1C,#3386FF,10,0,1,38,1,697.8000000119209,37,1,342.7000000178814,10,1,experiment,NA,NA,0,0.9,0.1,0,1,214,5,NA
fcp-trial,250,926606,0.0-225.0-0.0,voc_e2,12142,"[{""event"":""fullscreenenter"",""trial"":1,""time"":2174}]",NA,NA,NA,NA,NA,5,#741CD8,#D8271C,0,0,0,40,0,1063.8999999761581,39,0,536.5,0,1,experiment,NA,NA,1,0.3,0.7,3,2,215,5,NA
fcp-trial,251,929239,0.0-226.0-0.0,voc_e2,12142,"[{""event"":""fullscreenenter"",""trial"":1,""time"":2174}]",NA,NA,NA,NA,NA,6,#FA92F8,#1CD855,0,0,1,40,0,690.3000000119209,39,0,421,0,0,experiment,NA,NA,2,0.5,0.5,4,5,216,5,NA
fcp-trial,252,931841,0.0-227.0-0.0,voc_e2,12142,"[{""event"":""fullscreenenter"",""trial"":1,""time"":2174}]",NA,NA,NA,NA,NA,4,#1CD855,#FA92F8,0,0,0,40,0,704,39,0,383,0,1,experiment,NA,NA,2,0.5,0.5,5,4,217,5,NA
fcp-trial,253,934388,0.0-228.0-0.0,voc_e2,12142,"[{""event"":""fullscreenenter"",""trial"":1,""time"":2174}]",NA,NA,NA,NA,NA,4,#D89F1C,#3386FF,10,0,1,38,1,685,37,1,349.10000002384186,10,1,experiment,NA,NA,0,0.9,0.1,0,1,218,5,NA
fcp-trial,254,937054,0.0-229.0-0.0,voc_e2,12142,"[{""event"":""fullscreenenter"",""trial"":1,""time"":2174}]",NA,NA,NA,NA,NA,5,#3386FF,#D89F1C,0,10,0,38,1,793.9000000059605,39,0,337.7999999821186,10,1,experiment,NA,NA,0,0.1,0.9,1,0,219,5,NA
fcp-trial,255,939771,0.0-230.0-0.0,voc_e2,12142,"[{""event"":""fullscreenenter"",""trial"":1,""time"":2174}]",NA,NA,NA,NA,NA,3,#D8271C,#741CD8,10,0,1,38,1,879.5,37,1,310.5,10,1,experiment,NA,NA,1,0.7,0.3,2,3,220,5,NA
fcp-trial,256,942470,0.0-231.0-0.0,voc_e2,12142,"[{""event"":""fullscreenenter"",""trial"":1,""time"":2174}]",NA,NA,NA,NA,NA,1,#FA92F8,#1CD855,10,0,1,40,0,830.5999999940395,37,1,355.10000002384186,10,1,experiment,NA,NA,2,0.5,0.5,4,5,221,5,NA
fcp-trial,257,945486,0.0-232.0-0.0,voc_e2,12142,"[{""event"":""fullscreenenter"",""trial"":1,""time"":2174}]",NA,NA,NA,NA,NA,0,#1CD855,#FA92F8,10,10,0,38,1,1082.199999988079,39,0,417.09999999403954,10,1,experiment,NA,NA,2,0.5,0.5,5,4,222,5,NA
fcp-trial,258,947980,0.0-233.0-0.0,voc_e2,12142,"[{""event"":""fullscreenenter"",""trial"":1,""time"":2174}]",NA,NA,NA,NA,NA,6,#D89F1C,#3386FF,10,0,1,38,1,618.6999999880791,37,1,354.09999999403954,10,1,experiment,NA,NA,0,0.9,0.1,0,1,223,5,NA
fcp-trial,259,950619,0.0-234.0-0.0,voc_e2,12142,"[{""event"":""fullscreenenter"",""trial"":1,""time"":2174}]",NA,NA,NA,NA,NA,5,#FA92F8,#1CD855,10,0,1,40,0,738.4000000059605,39,0,378.2999999821186,0,0,experiment,NA,NA,2,0.5,0.5,4,5,224,5,NA
fcp-trial,260,953185,0.0-235.0-0.0,voc_e2,12142,"[{""event"":""fullscreenenter"",""trial"":1,""time"":2174}]",NA,NA,NA,NA,NA,0,#741CD8,#D8271C,0,0,0,38,1,699.5,39,0,344.80000001192093,0,1,experiment,NA,NA,1,0.3,0.7,3,2,225,5,NA
fcp-trial,261,955961,0.0-236.0-0.0,voc_e2,12142,"[{""event"":""fullscreenenter"",""trial"":1,""time"":2174}]",NA,NA,NA,NA,NA,3,#1CD855,#FA92F8,0,10,0,40,0,853.6999999880791,39,0,401.40000000596046,10,1,experiment,NA,NA,2,0.5,0.5,5,4,226,6,NA
fcp-trial,262,958576,0.0-237.0-0.0,voc_e2,12142,"[{""event"":""fullscreenenter"",""trial"":1,""time"":2174}]",NA,NA,NA,NA,NA,2,#FA92F8,#1CD855,10,0,1,40,0,715.8000000119209,37,1,386.90000000596046,10,1,experiment,NA,NA,2,0.5,0.5,4,5,227,6,NA
fcp-trial,263,961316,0.0-238.0-0.0,voc_e2,12142,"[{""event"":""fullscreenenter"",""trial"":1,""time"":2174}]",NA,NA,NA,NA,NA,1,#3386FF,#D89F1C,0,10,0,38,1,861.8999999761581,39,0,361.40000000596046,10,1,experiment,NA,NA,0,0.1,0.9,1,0,228,6,NA
fcp-trial,264,964612,0.0-239.0-0.0,voc_e2,12142,"[{""event"":""fullscreenenter"",""trial"":1,""time"":2174}]",NA,NA,NA,NA,NA,6,#741CD8,#D8271C,0,0,0,40,0,1307.5,39,0,467.7999999821186,0,1,experiment,NA,NA,1,0.3,0.7,3,2,229,6,NA
fcp-trial,265,967367,0.0-240.0-0.0,voc_e2,12142,"[{""event"":""fullscreenenter"",""trial"":1,""time"":2174}]",NA,NA,NA,NA,NA,2,#741CD8,#D8271C,10,10,0,38,1,910.7000000178814,39,0,323.90000000596046,10,1,experiment,NA,NA,1,0.3,0.7,3,2,230,6,NA
fcp-trial,266,969975,0.0-241.0-0.0,voc_e2,12142,"[{""event"":""fullscreenenter"",""trial"":1,""time"":2174}]",NA,NA,NA,NA,NA,2,#3386FF,#D89F1C,0,10,0,38,1,641,39,0,450.59999999403954,10,1,experiment,NA,NA,0,0.1,0.9,1,0,231,6,NA
fcp-trial,267,972755,0.0-242.0-0.0,voc_e2,12142,"[{""event"":""fullscreenenter"",""trial"":1,""time"":2174}]",NA,NA,NA,NA,NA,2,#FA92F8,#1CD855,0,0,1,40,0,803.9000000059605,39,0,462.2000000178814,0,0,experiment,NA,NA,2,0.5,0.5,4,5,232,6,NA
fcp-trial,268,975319,0.0-243.0-0.0,voc_e2,12142,"[{""event"":""fullscreenenter"",""trial"":1,""time"":2174}]",NA,NA,NA,NA,NA,5,#D89F1C,#3386FF,10,0,1,38,1,658.2000000178814,37,1,384.300000011921,10,1,experiment,NA,NA,0,0.9,0.1,0,1,233,6,NA
fcp-trial,269,977824,0.0-244.0-0.0,voc_e2,12142,"[{""event"":""fullscreenenter"",""trial"":1,""time"":2174}]",NA,NA,NA,NA,NA,4,#3386FF,#D89F1C,0,10,0,38,1,658.7000000178814,39,0,328.60000002384186,10,1,experiment,NA,NA,0,0.1,0.9,1,0,234,6,NA
fcp-trial,270,981057,0.0-245.0-0.0,voc_e2,12142,"[{""event"":""fullscreenenter"",""trial"":1,""time"":2174}]",NA,NA,NA,NA,NA,4,#D8271C,#741CD8,10,0,1,38,1,1308.8999999761581,39,0,404.5,0,0,experiment,NA,NA,1,0.7,0.3,2,3,235,6,NA
fcp-trial,271,983689,0.0-246.0-0.0,voc_e2,12142,"[{""event"":""fullscreenenter"",""trial"":1,""time"":2174}]",NA,NA,NA,NA,NA,0,#D89F1C,#3386FF,10,0,1,38,1,730.4000000059605,37,1,389.199999988079,10,1,experiment,NA,NA,0,0.9,0.1,0,1,236,6,NA
fcp-trial,272,986448,0.0-247.0-0.0,voc_e2,12142,"[{""event"":""fullscreenenter"",""trial"":1,""time"":2174}]",NA,NA,NA,NA,NA,6,#1CD855,#FA92F8,0,0,0,40,0,853.5999999940395,39,0,381.699999988079,0,1,experiment,NA,NA,2,0.5,0.5,5,4,237,6,NA
fcp-trial,273,989214,0.0-248.0-0.0,voc_e2,12142,"[{""event"":""fullscreenenter"",""trial"":1,""time"":2174}]",NA,NA,NA,NA,NA,6,#3386FF,#D89F1C,0,10,0,38,1,878.1999999880791,39,0,368.90000000596046,10,1,experiment,NA,NA,0,0.1,0.9,1,0,238,6,NA
fcp-trial,274,991738,0.0-249.0-0.0,voc_e2,12142,"[{""event"":""fullscreenenter"",""trial"":1,""time"":2174}]",NA,NA,NA,NA,NA,6,#D8271C,#741CD8,10,0,1,38,1,628.9000000059605,37,1,366.89999997615814,10,1,experiment,NA,NA,1,0.7,0.3,2,3,239,6,NA
fcp-trial,275,994783,0.0-250.0-0.0,voc_e2,12142,"[{""event"":""fullscreenenter"",""trial"":1,""time"":2174}]",NA,NA,NA,NA,NA,3,#1CD855,#FA92F8,10,10,0,38,1,1168.9000000059605,39,0,362.59999999403954,10,1,experiment,NA,NA,2,0.5,0.5,5,4,240,6,NA
fcp-trial,276,997510,0.0-251.0-0.0,voc_e2,12142,"[{""event"":""fullscreenenter"",""trial"":1,""time"":2174}]",NA,NA,NA,NA,NA,0,#1CD855,#FA92F8,0,10,0,38,1,843.2000000178814,39,0,367.7000000178814,10,1,experiment,NA,NA,2,0.5,0.5,5,4,241,6,NA
fcp-trial,277,1000004,0.0-252.0-0.0,voc_e2,12142,"[{""event"":""fullscreenenter"",""trial"":1,""time"":2174}]",NA,NA,NA,NA,NA,1,#D89F1C,#3386FF,10,10,1,38,1,593.8000000119209,37,1,383.40000000596046,10,1,experiment,NA,NA,0,0.9,0.1,0,1,242,6,NA
fcp-trial,278,1002761,0.0-253.0-0.0,voc_e2,12142,"[{""event"":""fullscreenenter"",""trial"":1,""time"":2174}]",NA,NA,NA,NA,NA,2,#D8271C,#741CD8,10,10,1,38,1,911,37,1,331,10,1,experiment,NA,NA,1,0.7,0.3,2,3,243,6,NA
fcp-trial,279,1005672,0.0-254.0-0.0,voc_e2,12142,"[{""event"":""fullscreenenter"",""trial"":1,""time"":2174}]",NA,NA,NA,NA,NA,4,#1CD855,#FA92F8,10,10,0,38,1,1037.7999999821186,39,0,353.09999999403954,10,1,experiment,NA,NA,2,0.5,0.5,5,4,244,6,NA
fcp-trial,280,1008739,0.0-255.0-0.0,voc_e2,12142,"[{""event"":""fullscreenenter"",""trial"":1,""time"":2174}]",NA,NA,NA,NA,NA,1,#741CD8,#D8271C,0,0,0,38,1,1232.8999999761581,39,0,319.09999999403954,0,1,experiment,NA,NA,1,0.3,0.7,3,2,245,6,NA
fcp-trial,281,1011613,0.0-256.0-0.0,voc_e2,12142,"[{""event"":""fullscreenenter"",""trial"":1,""time"":2174}]",NA,NA,NA,NA,NA,5,#741CD8,#D8271C,10,0,0,38,1,983.3000000119209,39,0,374.7999999821186,0,1,experiment,NA,NA,1,0.3,0.7,3,2,246,6,NA
fcp-trial,282,1014138,0.0-257.0-0.0,voc_e2,12142,"[{""event"":""fullscreenenter"",""trial"":1,""time"":2174}]",NA,NA,NA,NA,NA,3,#D89F1C,#3386FF,10,0,1,38,1,638,37,1,372.40000000596046,10,1,experiment,NA,NA,0,0.9,0.1,0,1,247,6,NA
fcp-trial,283,1016993,0.0-258.0-0.0,voc_e2,12142,"[{""event"":""fullscreenenter"",""trial"":1,""time"":2174}]",NA,NA,NA,NA,NA,5,#FA92F8,#1CD855,0,0,1,40,0,957.5,37,1,379.09999999403954,0,1,experiment,NA,NA,2,0.5,0.5,4,5,248,6,NA
fcp-trial,284,1019742,0.0-259.0-0.0,voc_e2,12142,"[{""event"":""fullscreenenter"",""trial"":1,""time"":2174}]",NA,NA,NA,NA,NA,3,#741CD8,#D8271C,0,10,0,38,1,906.5999999940395,39,0,324,10,1,experiment,NA,NA,1,0.3,0.7,3,2,249,6,NA
fcp-trial,285,1022567,0.0-260.0-0.0,voc_e2,12142,"[{""event"":""fullscreenenter"",""trial"":1,""time"":2174}]",NA,NA,NA,NA,NA,0,#D8271C,#741CD8,0,0,1,38,1,950,37,1,355.60000002384186,0,1,experiment,NA,NA,1,0.7,0.3,2,3,250,6,NA
fcp-trial,286,1024997,0.0-261.0-0.0,voc_e2,12142,"[{""event"":""fullscreenenter"",""trial"":1,""time"":2174}]",NA,NA,NA,NA,NA,1,#FA92F8,#1CD855,10,10,1,40,0,556.5,39,0,362.5,10,0,experiment,NA,NA,2,0.5,0.5,4,5,251,6,NA
fcp-trial,287,1027757,0.0-262.0-0.0,voc_e2,12142,"[{""event"":""fullscreenenter"",""trial"":1,""time"":2174}]",NA,NA,NA,NA,NA,2,#D89F1C,#3386FF,10,0,1,38,1,862.0999999940395,37,1,374.5,10,1,experiment,NA,NA,0,0.9,0.1,0,1,252,6,NA
fcp-trial,288,1030354,0.0-263.0-0.0,voc_e2,12142,"[{""event"":""fullscreenenter"",""trial"":1,""time"":2174}]",NA,NA,NA,NA,NA,0,#D89F1C,#3386FF,10,0,1,38,1,721.2000000178814,37,1,352.5,10,1,experiment,NA,NA,0,0.9,0.1,0,1,253,6,NA
fcp-trial,289,1033172,0.0-264.0-0.0,voc_e2,12142,"[{""event"":""fullscreenenter"",""trial"":1,""time"":2174}]",NA,NA,NA,NA,NA,4,#741CD8,#D8271C,0,10,0,38,1,983.5,39,0,312.5,10,1,experiment,NA,NA,1,0.3,0.7,3,2,254,6,NA
fcp-trial,290,1035705,0.0-265.0-0.0,voc_e2,12142,"[{""event"":""fullscreenenter"",""trial"":1,""time"":2174}]",NA,NA,NA,NA,NA,1,#FA92F8,#1CD855,10,10,1,40,0,683.3000000119209,37,1,323.40000000596046,10,1,experiment,NA,NA,2,0.5,0.5,4,5,255,6,NA
fcp-trial,291,1038955,0.0-266.0-0.0,voc_e2,12142,"[{""event"":""fullscreenenter"",""trial"":1,""time"":2174}]",NA,NA,NA,NA,NA,0,#FA92F8,#1CD855,0,10,1,38,1,1280.0999999940395,37,1,439.699999988079,0,1,experiment,NA,NA,2,0.5,0.5,4,5,256,6,NA
fcp-trial,292,1041671,0.0-267.0-0.0,voc_e2,12142,"[{""event"":""fullscreenenter"",""trial"":1,""time"":2174}]",NA,NA,NA,NA,NA,1,#741CD8,#D8271C,0,10,0,38,1,832.8000000119209,39,0,360.699999988079,10,1,experiment,NA,NA,1,0.3,0.7,3,2,257,6,NA
fcp-trial,293,1044487,0.0-268.0-0.0,voc_e2,12142,"[{""event"":""fullscreenenter"",""trial"":1,""time"":2174}]",NA,NA,NA,NA,NA,3,#D89F1C,#3386FF,10,0,1,38,1,965.8999999761581,37,1,330.40000000596046,10,1,experiment,NA,NA,0,0.9,0.1,0,1,258,6,NA
fcp-trial,294,1047161,0.0-269.0-0.0,voc_e2,12142,"[{""event"":""fullscreenenter"",""trial"":1,""time"":2174}]",NA,NA,NA,NA,NA,2,#FA92F8,#1CD855,0,0,1,40,0,807.6999999880791,39,0,350.2000000178814,0,0,experiment,NA,NA,2,0.5,0.5,4,5,259,6,NA
fcp-trial,295,1049820,0.0-270.0-0.0,voc_e2,12142,"[{""event"":""fullscreenenter"",""trial"":1,""time"":2174}]",NA,NA,NA,NA,NA,3,#1CD855,#FA92F8,10,0,0,40,0,639.2000000178814,39,0,506,0,1,experiment,NA,NA,2,0.5,0.5,5,4,260,6,NA
fcp-trial,296,1052411,0.0-271.0-0.0,voc_e2,12142,"[{""event"":""fullscreenenter"",""trial"":1,""time"":2174}]",NA,NA,NA,NA,NA,4,#1CD855,#FA92F8,0,0,0,40,0,646.5,39,0,427.59999999403954,0,1,experiment,NA,NA,2,0.5,0.5,5,4,261,6,NA
fcp-trial,297,1055027,0.0-272.0-0.0,voc_e2,12142,"[{""event"":""fullscreenenter"",""trial"":1,""time"":2174}]",NA,NA,NA,NA,NA,0,#741CD8,#D8271C,0,10,0,38,1,783.3000000119209,39,0,317.59999999403954,10,1,experiment,NA,NA,1,0.3,0.7,3,2,262,6,NA
fcp-trial,298,1057413,0.0-273.0-0.0,voc_e2,12142,"[{""event"":""fullscreenenter"",""trial"":1,""time"":2174}]",NA,NA,NA,NA,NA,6,#D89F1C,#3386FF,0,0,1,38,1,526.5999999940395,37,1,339.7000000178814,0,1,experiment,NA,NA,0,0.9,0.1,0,1,263,6,NA
fcp-trial,299,1060218,0.0-274.0-0.0,voc_e2,12142,"[{""event"":""fullscreenenter"",""trial"":1,""time"":2174}]",NA,NA,NA,NA,NA,6,#1CD855,#FA92F8,0,10,0,40,0,969.2000000178814,39,0,323,10,1,experiment,NA,NA,2,0.5,0.5,5,4,264,6,NA
fcp-trial,300,1062865,0.0-275.0-0.0,voc_e2,12142,"[{""event"":""fullscreenenter"",""trial"":1,""time"":2174}]",NA,NA,NA,NA,NA,5,#3386FF,#D89F1C,0,10,0,38,1,804.6999999880791,39,0,326.5,10,1,experiment,NA,NA,0,0.1,0.9,1,0,265,6,NA
fcp-trial,301,1066229,0.0-276.0-0.0,voc_e2,12142,"[{""event"":""fullscreenenter"",""trial"":1,""time"":2174}]",NA,NA,NA,NA,NA,2,#741CD8,#D8271C,10,0,0,38,1,1467.699999988079,39,0,371.300000011921,0,1,experiment,NA,NA,1,0.3,0.7,3,2,266,6,NA
fcp-trial,302,1068834,0.0-277.0-0.0,voc_e2,12142,"[{""event"":""fullscreenenter"",""trial"":1,""time"":2174}]",NA,NA,NA,NA,NA,4,#D89F1C,#3386FF,10,0,1,38,1,689.3000000119209,37,1,401.2999999821186,10,1,experiment,NA,NA,0,0.9,0.1,0,1,267,6,NA
fcp-trial,303,1071560,0.0-278.0-0.0,voc_e2,12142,"[{""event"":""fullscreenenter"",""trial"":1,""time"":2174}]",NA,NA,NA,NA,NA,6,#D8271C,#741CD8,0,0,1,40,0,823.7000000178814,37,1,382.40000000596046,0,1,experiment,NA,NA,1,0.7,0.3,2,3,268,6,NA
fcp-trial,304,1074112,0.0-279.0-0.0,voc_e2,12142,"[{""event"":""fullscreenenter"",""trial"":1,""time"":2174}]",NA,NA,NA,NA,NA,5,#FA92F8,#1CD855,10,0,1,40,0,652.5,39,0,381.5,0,0,experiment,NA,NA,2,0.5,0.5,4,5,269,6,NA
fcp-trial,305,1076499,0.0-280.0-0.0,voc_e2,12142,"[{""event"":""fullscreenenter"",""trial"":1,""time"":2174}]",NA,NA,NA,NA,NA,2,#3386FF,#D89F1C,0,10,0,38,1,540.0999999940395,39,0,330.90000000596046,10,1,experiment,NA,NA,0,0.1,0.9,1,0,270,6,NA
fcp-trial,306,1079001,0.0-281.0-0.0,voc_e2,12142,"[{""event"":""fullscreenenter"",""trial"":1,""time"":2174}]",NA,NA,NA,NA,NA,1,#3386FF,#D89F1C,0,10,0,38,1,611.7000000178814,39,0,367.800000011921,10,1,experiment,NA,NA,0,0.1,0.9,1,0,271,7,NA
fcp-trial,307,1081714,0.0-282.0-0.0,voc_e2,12142,"[{""event"":""fullscreenenter"",""trial"":1,""time"":2174}]",NA,NA,NA,NA,NA,3,#741CD8,#D8271C,0,10,0,38,1,853.9000000059605,39,0,338.30000001192093,10,1,experiment,NA,NA,1,0.3,0.7,3,2,272,7,NA
fcp-trial,308,1084347,0.0-283.0-0.0,voc_e2,12142,"[{""event"":""fullscreenenter"",""trial"":1,""time"":2174}]",NA,NA,NA,NA,NA,5,#741CD8,#D8271C,0,10,0,38,1,627.5999999940395,39,0,489.2000000178814,10,1,experiment,NA,NA,1,0.3,0.7,3,2,273,7,NA
fcp-trial,309,1086947,0.0-284.0-0.0,voc_e2,12142,"[{""event"":""fullscreenenter"",""trial"":1,""time"":2174}]",NA,NA,NA,NA,NA,0,#D8271C,#741CD8,10,0,1,38,1,658.9000000059605,37,1,417.90000000596046,10,1,experiment,NA,NA,1,0.7,0.3,2,3,274,7,NA
fcp-trial,310,1090254,0.0-285.0-0.0,voc_e2,12142,"[{""event"":""fullscreenenter"",""trial"":1,""time"":2174}]",NA,NA,NA,NA,NA,1,#D8271C,#741CD8,0,10,1,38,1,1375.5999999940395,37,1,414.09999999403954,0,1,experiment,NA,NA,1,0.7,0.3,2,3,275,7,NA
fcp-trial,311,1092963,0.0-286.0-0.0,voc_e2,12142,"[{""event"":""fullscreenenter"",""trial"":1,""time"":2174}]",NA,NA,NA,NA,NA,5,#3386FF,#D89F1C,0,10,0,38,1,869.7000000178814,39,0,324.2999999821186,10,1,experiment,NA,NA,0,0.1,0.9,1,0,276,7,NA
fcp-trial,312,1095812,0.0-287.0-0.0,voc_e2,12142,"[{""event"":""fullscreenenter"",""trial"":1,""time"":2174}]",NA,NA,NA,NA,NA,5,#1CD855,#FA92F8,0,10,0,40,0,952.5,39,0,380.40000000596046,10,1,experiment,NA,NA,2,0.5,0.5,5,4,277,7,NA
fcp-trial,313,1098487,0.0-288.0-0.0,voc_e2,12142,"[{""event"":""fullscreenenter"",""trial"":1,""time"":2174}]",NA,NA,NA,NA,NA,2,#741CD8,#D8271C,0,10,0,38,1,787.8000000119209,39,0,370.90000000596046,10,1,experiment,NA,NA,1,0.3,0.7,3,2,278,7,NA
fcp-trial,314,1101004,0.0-289.0-0.0,voc_e2,12142,"[{""event"":""fullscreenenter"",""trial"":1,""time"":2174}]",NA,NA,NA,NA,NA,1,#D89F1C,#3386FF,10,0,1,38,1,594.8000000119209,37,1,404.2000000178814,10,1,experiment,NA,NA,0,0.9,0.1,0,1,279,7,NA
fcp-trial,315,1103619,0.0-290.0-0.0,voc_e2,12142,"[{""event"":""fullscreenenter"",""trial"":1,""time"":2174}]",NA,NA,NA,NA,NA,6,#1CD855,#FA92F8,10,0,0,40,0,753.9000000059605,39,0,343.69999998807907,0,1,experiment,NA,NA,2,0.5,0.5,5,4,280,7,NA
fcp-trial,316,1106207,0.0-291.0-0.0,voc_e2,12142,"[{""event"":""fullscreenenter"",""trial"":1,""time"":2174}]",NA,NA,NA,NA,NA,3,#741CD8,#D8271C,10,10,0,38,1,753.7000000178814,39,0,320.10000002384186,10,1,experiment,NA,NA,1,0.3,0.7,3,2,281,7,NA
fcp-trial,317,1108944,0.0-292.0-0.0,voc_e2,12142,"[{""event"":""fullscreenenter"",""trial"":1,""time"":2174}]",NA,NA,NA,NA,NA,4,#1CD855,#FA92F8,10,0,0,40,0,858,37,1,358.80000001192093,10,0,experiment,NA,NA,2,0.5,0.5,5,4,282,7,NA
fcp-trial,318,1111438,0.0-293.0-0.0,voc_e2,12142,"[{""event"":""fullscreenenter"",""trial"":1,""time"":2174}]",NA,NA,NA,NA,NA,0,#3386FF,#D89F1C,0,10,0,38,1,640.9000000059605,39,0,336.69999998807907,10,1,experiment,NA,NA,0,0.1,0.9,1,0,283,7,NA
fcp-trial,319,1114078,0.0-294.0-0.0,voc_e2,12142,"[{""event"":""fullscreenenter"",""trial"":1,""time"":2174}]",NA,NA,NA,NA,NA,4,#741CD8,#D8271C,10,10,0,38,1,710.8999999761581,37,1,409,10,0,experiment,NA,NA,1,0.3,0.7,3,2,284,7,NA
fcp-trial,320,1116758,0.0-295.0-0.0,voc_e2,12142,"[{""event"":""fullscreenenter"",""trial"":1,""time"":2174}]",NA,NA,NA,NA,NA,1,#1CD855,#FA92F8,10,0,0,40,0,804.6999999880791,39,0,362.5,0,1,experiment,NA,NA,2,0.5,0.5,5,4,285,7,NA
fcp-trial,321,1119674,0.0-296.0-0.0,voc_e2,12142,"[{""event"":""fullscreenenter"",""trial"":1,""time"":2174}]",NA,NA,NA,NA,NA,0,#1CD855,#FA92F8,10,10,0,38,1,1054.5,39,0,338.60000002384186,10,1,experiment,NA,NA,2,0.5,0.5,5,4,286,7,NA
fcp-trial,322,1122308,0.0-297.0-0.0,voc_e2,12142,"[{""event"":""fullscreenenter"",""trial"":1,""time"":2174}]",NA,NA,NA,NA,NA,2,#FA92F8,#1CD855,10,10,1,40,0,724.2000000178814,39,0,393.09999999403954,10,0,experiment,NA,NA,2,0.5,0.5,4,5,287,7,NA
fcp-trial,323,1124924,0.0-298.0-0.0,voc_e2,12142,"[{""event"":""fullscreenenter"",""trial"":1,""time"":2174}]",NA,NA,NA,NA,NA,2,#D89F1C,#3386FF,10,0,1,38,1,705.3999999761581,37,1,392.09999999403954,10,1,experiment,NA,NA,0,0.9,0.1,0,1,288,7,NA
fcp-trial,324,1127940,0.0-299.0-0.0,voc_e2,12142,"[{""event"":""fullscreenenter"",""trial"":1,""time"":2174}]",NA,NA,NA,NA,NA,6,#D8271C,#741CD8,10,0,1,40,0,1082.5,39,0,409.39999997615814,0,0,experiment,NA,NA,1,0.7,0.3,2,3,289,7,NA
fcp-trial,325,1130668,0.0-300.0-0.0,voc_e2,12142,"[{""event"":""fullscreenenter"",""trial"":1,""time"":2174}]",NA,NA,NA,NA,NA,3,#FA92F8,#1CD855,10,0,1,40,0,889.4000000059605,39,0,322.90000000596046,0,0,experiment,NA,NA,2,0.5,0.5,4,5,290,7,NA
fcp-trial,326,1133092,0.0-301.0-0.0,voc_e2,12142,"[{""event"":""fullscreenenter"",""trial"":1,""time"":2174}]",NA,NA,NA,NA,NA,3,#3386FF,#D89F1C,0,10,0,38,1,576.6999999880791,39,0,333.19999998807907,10,1,experiment,NA,NA,0,0.1,0.9,1,0,291,7,NA
fcp-trial,327,1135615,0.0-302.0-0.0,voc_e2,12142,"[{""event"":""fullscreenenter"",""trial"":1,""time"":2174}]",NA,NA,NA,NA,NA,6,#D89F1C,#3386FF,10,0,1,38,1,653,37,1,354,10,1,experiment,NA,NA,0,0.9,0.1,0,1,292,7,NA
fcp-trial,328,1138139,0.0-303.0-0.0,voc_e2,12142,"[{""event"":""fullscreenenter"",""trial"":1,""time"":2174}]",NA,NA,NA,NA,NA,5,#741CD8,#D8271C,0,10,0,40,0,651.7000000178814,37,1,356.09999999403954,0,0,experiment,NA,NA,1,0.3,0.7,3,2,293,7,NA
fcp-trial,329,1141480,0.0-304.0-0.0,voc_e2,12142,"[{""event"":""fullscreenenter"",""trial"":1,""time"":2174}]",NA,NA,NA,NA,NA,4,#3386FF,#D89F1C,0,10,0,38,1,1395.5,39,0,428.5,10,1,experiment,NA,NA,0,0.1,0.9,1,0,294,7,NA
fcp-trial,330,1143946,0.0-305.0-0.0,voc_e2,12142,"[{""event"":""fullscreenenter"",""trial"":1,""time"":2174}]",NA,NA,NA,NA,NA,1,#D89F1C,#3386FF,10,0,1,38,1,570.3000000119209,37,1,379.2000000178814,10,1,experiment,NA,NA,0,0.9,0.1,0,1,295,7,NA
fcp-trial,331,1146770,0.0-306.0-0.0,voc_e2,12142,"[{""event"":""fullscreenenter"",""trial"":1,""time"":2174}]",NA,NA,NA,NA,NA,2,#741CD8,#D8271C,0,10,0,38,1,946.7999999821186,39,0,363.09999999403954,10,1,experiment,NA,NA,1,0.3,0.7,3,2,296,7,NA
fcp-trial,332,1149319,0.0-307.0-0.0,voc_e2,12142,"[{""event"":""fullscreenenter"",""trial"":1,""time"":2174}]",NA,NA,NA,NA,NA,1,#FA92F8,#1CD855,0,10,1,40,0,680.1999999880791,37,1,346.7000000178814,0,1,experiment,NA,NA,2,0.5,0.5,4,5,297,7,NA
fcp-trial,333,1152093,0.0-308.0-0.0,voc_e2,12142,"[{""event"":""fullscreenenter"",""trial"":1,""time"":2174}]",NA,NA,NA,NA,NA,4,#741CD8,#D8271C,0,0,0,38,1,919.5,39,0,338,0,1,experiment,NA,NA,1,0.3,0.7,3,2,298,7,NA
fcp-trial,334,1155152,0.0-309.0-0.0,voc_e2,12142,"[{""event"":""fullscreenenter"",""trial"":1,""time"":2174}]",NA,NA,NA,NA,NA,0,#1CD855,#FA92F8,0,0,0,38,1,810.1999999880791,37,1,734.4000000059605,0,0,experiment,NA,NA,2,0.5,0.5,5,4,299,7,NA
fcp-trial,335,1157573,0.0-310.0-0.0,voc_e2,12142,"[{""event"":""fullscreenenter"",""trial"":1,""time"":2174}]",NA,NA,NA,NA,NA,6,#3386FF,#D89F1C,0,10,0,38,1,541.0999999940395,39,0,361.5,10,1,experiment,NA,NA,0,0.1,0.9,1,0,300,7,NA
fcp-trial,336,1160678,0.0-311.0-0.0,voc_e2,12142,"[{""event"":""fullscreenenter"",""trial"":1,""time"":2174}]",NA,NA,NA,NA,NA,6,#741CD8,#D8271C,0,10,0,40,0,1227.8999999761581,39,0,361.5,10,1,experiment,NA,NA,1,0.3,0.7,3,2,301,7,NA
fcp-trial,337,1163325,0.0-312.0-0.0,voc_e2,12142,"[{""event"":""fullscreenenter"",""trial"":1,""time"":2174}]",NA,NA,NA,NA,NA,3,#3386FF,#D89F1C,0,10,0,38,1,779.5,39,0,353.69999998807907,10,1,experiment,NA,NA,0,0.1,0.9,1,0,302,7,NA
fcp-trial,338,1166045,0.0-313.0-0.0,voc_e2,12142,"[{""event"":""fullscreenenter"",""trial"":1,""time"":2174}]",NA,NA,NA,NA,NA,6,#FA92F8,#1CD855,0,0,1,40,0,852.0999999940395,39,0,348.40000000596046,0,0,experiment,NA,NA,2,0.5,0.5,4,5,303,7,NA
fcp-trial,339,1168583,0.0-314.0-0.0,voc_e2,12142,"[{""event"":""fullscreenenter"",""trial"":1,""time"":2174}]",NA,NA,NA,NA,NA,4,#D89F1C,#3386FF,10,0,1,38,1,655.1000000238419,37,1,361.59999999403954,10,1,experiment,NA,NA,0,0.9,0.1,0,1,304,7,NA
fcp-trial,340,1171316,0.0-315.0-0.0,voc_e2,12142,"[{""event"":""fullscreenenter"",""trial"":1,""time"":2174}]",NA,NA,NA,NA,NA,0,#D8271C,#741CD8,10,0,1,38,1,843.5999999940395,37,1,373.7999999821186,10,1,experiment,NA,NA,1,0.7,0.3,2,3,305,7,NA
fcp-trial,341,1173837,0.0-316.0-0.0,voc_e2,12142,"[{""event"":""fullscreenenter"",""trial"":1,""time"":2174}]",NA,NA,NA,NA,NA,2,#1CD855,#FA92F8,0,0,0,40,0,648.7999999821186,39,0,354,0,1,experiment,NA,NA,2,0.5,0.5,5,4,306,7,NA
fcp-trial,342,1176282,0.0-317.0-0.0,voc_e2,12142,"[{""event"":""fullscreenenter"",""trial"":1,""time"":2174}]",NA,NA,NA,NA,NA,5,#D89F1C,#3386FF,10,0,1,38,1,571.5,37,1,360.699999988079,10,1,experiment,NA,NA,0,0.9,0.1,0,1,307,7,NA
fcp-trial,343,1179073,0.0-318.0-0.0,voc_e2,12142,"[{""event"":""fullscreenenter"",""trial"":1,""time"":2174}]",NA,NA,NA,NA,NA,3,#1CD855,#FA92F8,10,10,0,40,0,973.0999999940395,39,0,293.80000001192093,10,1,experiment,NA,NA,2,0.5,0.5,5,4,308,7,NA
fcp-trial,344,1181763,0.0-319.0-0.0,voc_e2,12142,"[{""event"":""fullscreenenter"",""trial"":1,""time"":2174}]",NA,NA,NA,NA,NA,2,#3386FF,#D89F1C,0,10,0,38,1,895.5,39,0,277.59999999403954,10,1,experiment,NA,NA,0,0.1,0.9,1,0,309,7,NA
fcp-trial,345,1184539,0.0-320.0-0.0,voc_e2,12142,"[{""event"":""fullscreenenter"",""trial"":1,""time"":2174}]",NA,NA,NA,NA,NA,5,#D8271C,#741CD8,0,0,1,40,0,954.4000000059605,39,0,303.90000000596046,0,0,experiment,NA,NA,1,0.7,0.3,2,3,310,7,NA
fcp-trial,346,1187188,0.0-321.0-0.0,voc_e2,12142,"[{""event"":""fullscreenenter"",""trial"":1,""time"":2174}]",NA,NA,NA,NA,NA,1,#D8271C,#741CD8,10,10,1,38,1,769.5999999940395,37,1,366.7000000178814,10,1,experiment,NA,NA,1,0.7,0.3,2,3,311,7,NA
fcp-trial,347,1189580,0.0-322.0-0.0,voc_e2,12142,"[{""event"":""fullscreenenter"",""trial"":1,""time"":2174}]",NA,NA,NA,NA,NA,0,#3386FF,#D89F1C,0,10,0,38,1,530.5,39,0,349,10,1,experiment,NA,NA,0,0.1,0.9,1,0,312,7,NA
fcp-trial,348,1192710,0.0-323.0-0.0,voc_e2,12142,"[{""event"":""fullscreenenter"",""trial"":1,""time"":2174}]",NA,NA,NA,NA,NA,4,#FA92F8,#1CD855,0,0,1,40,0,1214.8999999761581,37,1,390.5,0,1,experiment,NA,NA,2,0.5,0.5,4,5,313,7,NA
fcp-trial,349,1195197,0.0-324.0-0.0,voc_e2,12142,"[{""event"":""fullscreenenter"",""trial"":1,""time"":2174}]",NA,NA,NA,NA,NA,5,#1CD855,#FA92F8,10,10,0,40,0,576,39,0,391.699999988079,10,1,experiment,NA,NA,2,0.5,0.5,5,4,314,7,NA
fcp-trial,350,1197856,0.0-325.0-0.0,voc_e2,12142,"[{""event"":""fullscreenenter"",""trial"":1,""time"":2174}]",NA,NA,NA,NA,NA,3,#741CD8,#D8271C,10,10,0,38,1,844.8000000119209,39,0,293.59999999403954,10,1,experiment,NA,NA,1,0.3,0.7,3,2,315,7,NA
audio-instructions,351,1205241,0.0-326.0,voc_e2,12142,"[{""event"":""fullscreenenter"",""trial"":1,""time"":2174}]",NA,1015.5999999940396,static/audio/finished.wav,NA,0,NA,NA,NA,NA,NA,NA,NA,NA,NA,NA,NA,NA,NA,NA,NA,NA,NA,NA,NA,NA,NA,NA,NA,NA,NA
audio-instructions,352,1216663,0.0-327.0-0.0,voc_e2,12142,"[{""event"":""fullscreenenter"",""trial"":1,""time"":2174}]",NA,587.9000000059605,static/audio/explicit1.wav,NA,0,NA,NA,NA,NA,NA,NA,NA,NA,NA,NA,NA,NA,NA,NA,NA,NA,NA,NA,NA,NA,NA,NA,NA,NA,NA
audio-instructions,353,1224875,0.0-327.0-1.0,voc_e2,12142,"[{""event"":""fullscreenenter"",""trial"":1,""time"":2174}]",NA,609.8000000119209,static/audio/explicit2.wav,NA,0,NA,NA,NA,NA,NA,NA,NA,NA,NA,NA,NA,NA,NA,NA,NA,NA,NA,NA,NA,NA,NA,NA,NA,NA,NA
image-slider-response,354,1230067,0.0-328.0,voc_e2,12142,"[{""event"":""fullscreenenter"",""trial"":1,""time"":2174}]",NA,5190.200000017881,static/img/machines/machine6.png,NA,NA,NA,NA,NA,NA,NA,NA,NA,NA,NA,NA,NA,NA,NA,NA,explicit,NA,NA,NA,NA,NA,NA,NA,NA,NA,3
image-slider-response,355,1233745,0.0-329.0,voc_e2,12142,"[{""event"":""fullscreenenter"",""trial"":1,""time"":2174}]",NA,3675.599999994039,static/img/machines/machine1.png,NA,NA,NA,NA,NA,NA,NA,NA,NA,NA,NA,NA,NA,NA,NA,NA,explicit,NA,NA,NA,NA,NA,NA,NA,NA,NA,7
image-slider-response,356,1236521,0.0-330.0,voc_e2,12142,"[{""event"":""fullscreenenter"",""trial"":1,""time"":2174}]",NA,2773.5,static/img/machines/machine3.png,NA,NA,NA,NA,NA,NA,NA,NA,NA,NA,NA,NA,NA,NA,NA,NA,explicit,NA,NA,NA,NA,NA,NA,NA,NA,NA,5
image-slider-response,357,1239727,0.0-331.0,voc_e2,12142,"[{""event"":""fullscreenenter"",""trial"":1,""time"":2174}]",NA,3203.7000000178814,static/img/machines/machine2.png,NA,NA,NA,NA,NA,NA,NA,NA,NA,NA,NA,NA,NA,NA,NA,NA,explicit,NA,NA,NA,NA,NA,NA,NA,NA,NA,5
image-slider-response,358,1243140,0.0-332.0,voc_e2,12142,"[{""event"":""fullscreenenter"",""trial"":1,""time"":2174}]",NA,3410.5,static/img/machines/machine5.png,NA,NA,NA,NA,NA,NA,NA,NA,NA,NA,NA,NA,NA,NA,NA,NA,explicit,NA,NA,NA,NA,NA,NA,NA,NA,NA,3
image-slider-response,359,1245063,0.0-333.0,voc_e2,12142,"[{""event"":""fullscreenenter"",""trial"":1,""time"":2174}]",NA,1921.9000000059605,static/img/machines/machine4.png,NA,NA,NA,NA,NA,NA,NA,NA,NA,NA,NA,NA,NA,NA,NA,NA,explicit,NA,NA,NA,NA,NA,NA,NA,NA,NA,9
