trial_type,trial_index,time_elapsed,internal_node_id,task_version,subject_id,interactions,success,rt,stimulus,key_press,button_pressed,offer,arcade_color_L,arcade_color_R,arcade_outcome_L,arcade_outcome_R,correct,stage_1_key,stage_1_choice,stage_1_rt,stage_2_key,stage_2_choice,stage_2_rt,stage_3_outcome,accuracy,phase,responses,num_errors,context,reward_prob_L,reward_prob_R,arcade_id_L,arcade_id_R,trial,block,response
pavlovia,0,7,0.0-0.0,voc_e2,11709,[],NA,NA,NA,NA,NA,NA,NA,NA,NA,NA,NA,NA,NA,NA,NA,NA,NA,NA,NA,NA,NA,NA,NA,NA,NA,NA,NA,NA,NA,NA
fullscreen,1,3013,0.0-1.0,voc_e2,11709,"[{""event"":""fullscreenenter"",""trial"":1,""time"":2047}]",TRUE,NA,NA,NA,NA,NA,NA,NA,NA,NA,NA,NA,NA,NA,NA,NA,NA,NA,NA,NA,NA,NA,NA,NA,NA,NA,NA,NA,NA,NA
audio-keyboard-response,2,8721,0.0-2.0,voc_e2,11709,"[{""event"":""fullscreenenter"",""trial"":1,""time"":2047}]",NA,5333,static/audio/beep_loop.wav,32,NA,NA,NA,NA,NA,NA,NA,NA,NA,NA,NA,NA,NA,NA,NA,NA,NA,NA,NA,NA,NA,NA,NA,NA,NA,NA
audio-test,3,10283,0.0-3.0,voc_e2,11709,"[{""event"":""fullscreenenter"",""trial"":1,""time"":2047}]",NA,NA,static/audio/turtle.wav,NA,3,NA,NA,NA,NA,NA,NA,NA,NA,NA,NA,NA,NA,NA,NA,NA,NA,NA,NA,NA,NA,NA,NA,NA,NA,NA
audio-test,4,12141,0.0-4.0,voc_e2,11709,"[{""event"":""fullscreenenter"",""trial"":1,""time"":2047}]",NA,NA,static/audio/shark.wav,NA,2,NA,NA,NA,NA,NA,NA,NA,NA,NA,NA,NA,NA,NA,NA,NA,NA,NA,NA,NA,NA,NA,NA,NA,NA,NA
audio-instructions,5,19054,0.0-5.0-0.0,voc_e2,11709,"[{""event"":""fullscreenenter"",""trial"":1,""time"":2047}]",NA,1132.4000000059605,static/audio/instructions1.wav,NA,0,NA,NA,NA,NA,NA,NA,NA,NA,NA,NA,NA,NA,NA,NA,NA,NA,NA,NA,NA,NA,NA,NA,NA,NA,NA
audio-instructions,6,27187,0.0-5.0-1.0,voc_e2,11709,"[{""event"":""fullscreenenter"",""trial"":1,""time"":2047}]",NA,1393.5999999940395,static/audio/instructions2.wav,NA,0,NA,NA,NA,NA,NA,NA,NA,NA,NA,NA,NA,NA,NA,NA,NA,NA,NA,NA,NA,NA,NA,NA,NA,NA,NA
audio-instructions,7,34211,0.0-5.0-2.0,voc_e2,11709,"[{""event"":""fullscreenenter"",""trial"":1,""time"":2047}]",NA,1221.0999999940395,static/audio/instructions3.wav,NA,0,NA,NA,NA,NA,NA,NA,NA,NA,NA,NA,NA,NA,NA,NA,NA,NA,NA,NA,NA,NA,NA,NA,NA,NA,NA
audio-instructions,8,48371,0.0-5.0-3.0,voc_e2,11709,"[{""event"":""fullscreenenter"",""trial"":1,""time"":2047}]",NA,935.2000000178814,static/audio/instructions4.wav,NA,0,NA,NA,NA,NA,NA,NA,NA,NA,NA,NA,NA,NA,NA,NA,NA,NA,NA,NA,NA,NA,NA,NA,NA,NA,NA
audio-instructions,9,58788,0.0-5.0-4.0,voc_e2,11709,"[{""event"":""fullscreenenter"",""trial"":1,""time"":2047}]",NA,1027.0999999940395,static/audio/instructions5.wav,NA,0,NA,NA,NA,NA,NA,NA,NA,NA,NA,NA,NA,NA,NA,NA,NA,NA,NA,NA,NA,NA,NA,NA,NA,NA,NA
fcp-practice,10,61670,0.0-5.0-5.0-0.0,voc_e2,11709,"[{""event"":""fullscreenenter"",""trial"":1,""time"":2047}]",NA,NA,NA,NA,NA,NA,#EDC948,#46d3c8,10,0,1,null,null,null,37,1,1351,10,1,practice,NA,NA,NA,NA,NA,NA,NA,NA,NA,NA
fcp-practice,11,63764,0.0-5.0-5.0-1.0,voc_e2,11709,"[{""event"":""fullscreenenter"",""trial"":1,""time"":2047}]",NA,NA,NA,NA,NA,NA,#EDC948,#46d3c8,10,0,1,null,null,null,37,1,588.3000000119209,10,1,practice,NA,NA,NA,NA,NA,NA,NA,NA,NA,NA
fcp-practice,12,65558,0.0-5.0-5.0-2.0,voc_e2,11709,"[{""event"":""fullscreenenter"",""trial"":1,""time"":2047}]",NA,NA,NA,NA,NA,NA,#EDC948,#46d3c8,0,10,1,null,null,null,37,1,288,0,1,practice,NA,NA,NA,NA,NA,NA,NA,NA,NA,NA
fcp-practice,13,67388,0.0-5.0-5.0-3.0,voc_e2,11709,"[{""event"":""fullscreenenter"",""trial"":1,""time"":2047}]",NA,NA,NA,NA,NA,NA,#EDC948,#46d3c8,10,0,1,null,null,null,37,1,317.19999998807907,10,1,practice,NA,NA,NA,NA,NA,NA,NA,NA,NA,NA
fcp-practice,14,69356,0.0-5.0-5.0-4.0,voc_e2,11709,"[{""event"":""fullscreenenter"",""trial"":1,""time"":2047}]",NA,NA,NA,NA,NA,NA,#EDC948,#46d3c8,10,0,1,null,null,null,37,1,460.59999999403954,10,1,practice,NA,NA,NA,NA,NA,NA,NA,NA,NA,NA
audio-instructions,15,89816,0.0-5.0-6.0,voc_e2,11709,"[{""event"":""fullscreenenter"",""trial"":1,""time"":2047}]",NA,2450.4000000059605,static/audio/instructions6.wav,NA,0,NA,NA,NA,NA,NA,NA,NA,NA,NA,NA,NA,NA,NA,NA,NA,NA,NA,NA,NA,NA,NA,NA,NA,NA,NA
audio-instructions,16,110196,0.0-5.0-7.0,voc_e2,11709,"[{""event"":""fullscreenenter"",""trial"":1,""time"":2047}]",NA,1176.0999999940395,static/audio/instructions7.wav,NA,0,NA,NA,NA,NA,NA,NA,NA,NA,NA,NA,NA,NA,NA,NA,NA,NA,NA,NA,NA,NA,NA,NA,NA,NA,NA
audio-instructions,17,120583,0.0-5.0-8.0,voc_e2,11709,"[{""event"":""fullscreenenter"",""trial"":1,""time"":2047}]",NA,912.0999999940396,static/audio/instructions8.wav,NA,0,NA,NA,NA,NA,NA,NA,NA,NA,NA,NA,NA,NA,NA,NA,NA,NA,NA,NA,NA,NA,NA,NA,NA,NA,NA
fcp-comprehension,18,132000,0.0-5.0-9.0,voc_e2,11709,"[{""event"":""fullscreenenter"",""trial"":1,""time"":2047}]",NA,11409.79999998212,NA,NA,NA,NA,NA,NA,NA,NA,NA,NA,NA,NA,NA,NA,NA,NA,NA,NA,"false,true",1,NA,NA,NA,NA,NA,NA,NA,NA
audio-instructions,19,137232,0.0-5.1-0.1,voc_e2,11709,"[{""event"":""fullscreenenter"",""trial"":1,""time"":2047}]",NA,446.2999999821186,static/audio/instructions1.wav,NA,0,NA,NA,NA,NA,NA,NA,NA,NA,NA,NA,NA,NA,NA,NA,NA,NA,NA,NA,NA,NA,NA,NA,NA,NA,NA
audio-instructions,20,145019,0.0-5.1-1.1,voc_e2,11709,"[{""event"":""fullscreenenter"",""trial"":1,""time"":2047}]",NA,1043.699999988079,static/audio/instructions2.wav,NA,0,NA,NA,NA,NA,NA,NA,NA,NA,NA,NA,NA,NA,NA,NA,NA,NA,NA,NA,NA,NA,NA,NA,NA,NA,NA
audio-instructions,21,151312,0.0-5.1-2.1,voc_e2,11709,"[{""event"":""fullscreenenter"",""trial"":1,""time"":2047}]",NA,490.90000000596046,static/audio/instructions3.wav,NA,0,NA,NA,NA,NA,NA,NA,NA,NA,NA,NA,NA,NA,NA,NA,NA,NA,NA,NA,NA,NA,NA,NA,NA,NA,NA
audio-instructions,22,165001,0.0-5.1-3.1,voc_e2,11709,"[{""event"":""fullscreenenter"",""trial"":1,""time"":2047}]",NA,461.5,static/audio/instructions4.wav,NA,0,NA,NA,NA,NA,NA,NA,NA,NA,NA,NA,NA,NA,NA,NA,NA,NA,NA,NA,NA,NA,NA,NA,NA,NA,NA
audio-instructions,23,175574,0.0-5.1-4.1,voc_e2,11709,"[{""event"":""fullscreenenter"",""trial"":1,""time"":2047}]",NA,1184.300000011921,static/audio/instructions5.wav,NA,0,NA,NA,NA,NA,NA,NA,NA,NA,NA,NA,NA,NA,NA,NA,NA,NA,NA,NA,NA,NA,NA,NA,NA,NA,NA
fcp-practice,24,177730,0.0-5.1-5.1-0.1,voc_e2,11709,"[{""event"":""fullscreenenter"",""trial"":1,""time"":2047}]",NA,NA,NA,NA,NA,NA,#EDC948,#46d3c8,10,0,1,null,null,null,37,1,649.5,10,1,practice,NA,NA,NA,NA,NA,NA,NA,NA,NA,NA
fcp-practice,25,179509,0.0-5.1-5.1-1.1,voc_e2,11709,"[{""event"":""fullscreenenter"",""trial"":1,""time"":2047}]",NA,NA,NA,NA,NA,NA,#EDC948,#46d3c8,10,0,1,null,null,null,37,1,267.10000002384186,10,1,practice,NA,NA,NA,NA,NA,NA,NA,NA,NA,NA
fcp-practice,26,181048,0.0-5.1-5.1-2.1,voc_e2,11709,"[{""event"":""fullscreenenter"",""trial"":1,""time"":2047}]",NA,NA,NA,NA,NA,NA,#EDC948,#46d3c8,0,10,1,null,null,null,37,1,28.900000005960464,0,1,practice,NA,NA,NA,NA,NA,NA,NA,NA,NA,NA
fcp-practice,27,182892,0.0-5.1-5.1-3.1,voc_e2,11709,"[{""event"":""fullscreenenter"",""trial"":1,""time"":2047}]",NA,NA,NA,NA,NA,NA,#EDC948,#46d3c8,10,0,1,null,null,null,37,1,335.90000000596046,10,1,practice,NA,NA,NA,NA,NA,NA,NA,NA,NA,NA
fcp-practice,28,184693,0.0-5.1-5.1-4.1,voc_e2,11709,"[{""event"":""fullscreenenter"",""trial"":1,""time"":2047}]",NA,NA,NA,NA,NA,NA,#EDC948,#46d3c8,10,0,1,null,null,null,37,1,292.5,10,1,practice,NA,NA,NA,NA,NA,NA,NA,NA,NA,NA
audio-instructions,29,203410,0.0-5.1-6.1,voc_e2,11709,"[{""event"":""fullscreenenter"",""trial"":1,""time"":2047}]",NA,711.1000000238419,static/audio/instructions6.wav,NA,0,NA,NA,NA,NA,NA,NA,NA,NA,NA,NA,NA,NA,NA,NA,NA,NA,NA,NA,NA,NA,NA,NA,NA,NA,NA
audio-instructions,30,223388,0.0-5.1-7.1,voc_e2,11709,"[{""event"":""fullscreenenter"",""trial"":1,""time"":2047}]",NA,780,static/audio/instructions7.wav,NA,0,NA,NA,NA,NA,NA,NA,NA,NA,NA,NA,NA,NA,NA,NA,NA,NA,NA,NA,NA,NA,NA,NA,NA,NA,NA
audio-instructions,31,233335,0.0-5.1-8.1,voc_e2,11709,"[{""event"":""fullscreenenter"",""trial"":1,""time"":2047}]",NA,476.40000000596046,static/audio/instructions8.wav,NA,0,NA,NA,NA,NA,NA,NA,NA,NA,NA,NA,NA,NA,NA,NA,NA,NA,NA,NA,NA,NA,NA,NA,NA,NA,NA
fcp-comprehension,32,243234,0.0-5.1-9.1,voc_e2,11709,"[{""event"":""fullscreenenter"",""trial"":1,""time"":2047}]",NA,9896.600000023842,NA,NA,NA,NA,NA,NA,NA,NA,NA,NA,NA,NA,NA,NA,NA,NA,NA,NA,"true,true",0,NA,NA,NA,NA,NA,NA,NA,NA
audio-instructions,33,249682,0.0-6.0-0.0,voc_e2,11709,"[{""event"":""fullscreenenter"",""trial"":1,""time"":2047}]",NA,895.9000000059605,static/audio/instructions9.wav,NA,0,NA,NA,NA,NA,NA,NA,NA,NA,NA,NA,NA,NA,NA,NA,NA,NA,NA,NA,NA,NA,NA,NA,NA,NA,NA
audio-instructions,34,262309,0.0-6.0-1.0,voc_e2,11709,"[{""event"":""fullscreenenter"",""trial"":1,""time"":2047}]",NA,509.5,static/audio/instructions10.wav,NA,0,NA,NA,NA,NA,NA,NA,NA,NA,NA,NA,NA,NA,NA,NA,NA,NA,NA,NA,NA,NA,NA,NA,NA,NA,NA
fcp-trial,35,270421,0.0-6.0-2.0,voc_e2,11709,"[{""event"":""fullscreenenter"",""trial"":1,""time"":2047}]",NA,NA,NA,NA,NA,0,#EDC948,#46d3c8,10,10,1,38,1,5303.700000017881,37,1,1289.5,10,1,practice,NA,NA,NA,NA,NA,NA,NA,NA,NA,NA
audio-instructions,36,282549,0.0-6.0-3.0,voc_e2,11709,"[{""event"":""fullscreenenter"",""trial"":1,""time"":2047}]",NA,1118,static/audio/instructions11.wav,NA,0,NA,NA,NA,NA,NA,NA,NA,NA,NA,NA,NA,NA,NA,NA,NA,NA,NA,NA,NA,NA,NA,NA,NA,NA,NA
fcp-trial,37,286999,0.0-6.0-4.0,voc_e2,11709,"[{""event"":""fullscreenenter"",""trial"":1,""time"":2047}]",NA,NA,NA,NA,NA,6,#EDC948,#46d3c8,10,10,1,40,0,1793.2000000178814,39,0,1146.300000011921,10,0,practice,NA,NA,NA,NA,NA,NA,NA,NA,NA,NA
audio-instructions,38,308077,0.0-6.0-5.0,voc_e2,11709,"[{""event"":""fullscreenenter"",""trial"":1,""time"":2047}]",NA,2389.800000011921,static/audio/instructions12.wav,NA,0,NA,NA,NA,NA,NA,NA,NA,NA,NA,NA,NA,NA,NA,NA,NA,NA,NA,NA,NA,NA,NA,NA,NA,NA,NA
audio-instructions,39,316563,0.0-6.0-6.0,voc_e2,11709,"[{""event"":""fullscreenenter"",""trial"":1,""time"":2047}]",NA,892.5,static/audio/instructions13.wav,NA,0,NA,NA,NA,NA,NA,NA,NA,NA,NA,NA,NA,NA,NA,NA,NA,NA,NA,NA,NA,NA,NA,NA,NA,NA,NA
audio-instructions,40,325561,0.0-6.0-7.0,voc_e2,11709,"[{""event"":""fullscreenenter"",""trial"":1,""time"":2047}]",NA,551.8000000119209,static/audio/instructions14.wav,NA,0,NA,NA,NA,NA,NA,NA,NA,NA,NA,NA,NA,NA,NA,NA,NA,NA,NA,NA,NA,NA,NA,NA,NA,NA,NA
audio-instructions,41,333485,0.0-7.0-0.0,voc_e2,11709,"[{""event"":""fullscreenenter"",""trial"":1,""time"":2047}]",NA,1013.5,static/audio/instructions15.wav,NA,0,NA,NA,NA,NA,NA,NA,NA,NA,NA,NA,NA,NA,NA,NA,NA,NA,NA,NA,NA,NA,NA,NA,NA,NA,NA
audio-instructions,42,342751,0.0-7.0-1.0,voc_e2,11709,"[{""event"":""fullscreenenter"",""trial"":1,""time"":2047}]",NA,2440.4000000059605,static/audio/instructions16.wav,NA,0,NA,NA,NA,NA,NA,NA,NA,NA,NA,NA,NA,NA,NA,NA,NA,NA,NA,NA,NA,NA,NA,NA,NA,NA,NA
audio-instructions,43,350938,0.0-7.0-2.0,voc_e2,11709,"[{""event"":""fullscreenenter"",""trial"":1,""time"":2047}]",NA,505.199999988079,static/audio/instructions17.wav,NA,0,NA,NA,NA,NA,NA,NA,NA,NA,NA,NA,NA,NA,NA,NA,NA,NA,NA,NA,NA,NA,NA,NA,NA,NA,NA
audio-instructions,44,359279,0.0-7.0-3.0,voc_e2,11709,"[{""event"":""fullscreenenter"",""trial"":1,""time"":2047}]",NA,574.2000000178814,static/audio/instructions18.wav,NA,0,NA,NA,NA,NA,NA,NA,NA,NA,NA,NA,NA,NA,NA,NA,NA,NA,NA,NA,NA,NA,NA,NA,NA,NA,NA
audio-instructions,45,366665,0.0-7.0-4.0,voc_e2,11709,"[{""event"":""fullscreenenter"",""trial"":1,""time"":2047}]",NA,642,static/audio/instructions19.wav,NA,0,NA,NA,NA,NA,NA,NA,NA,NA,NA,NA,NA,NA,NA,NA,NA,NA,NA,NA,NA,NA,NA,NA,NA,NA,NA
fcp-comprehension,46,374622,0.0-7.0-5.0,voc_e2,11709,"[{""event"":""fullscreenenter"",""trial"":1,""time"":2047}]",NA,7953.40000000596,NA,NA,NA,NA,NA,NA,NA,NA,NA,NA,NA,NA,NA,NA,NA,NA,NA,NA,"false,false,false,true",0,NA,NA,NA,NA,NA,NA,NA,NA
audio-instructions,47,384606,0.0-8.0,voc_e2,11709,"[{""event"":""fullscreenenter"",""trial"":1,""time"":2047}]",NA,765.7000000178814,static/audio/ready.wav,NA,0,NA,NA,NA,NA,NA,NA,NA,NA,NA,NA,NA,NA,NA,NA,NA,NA,NA,NA,NA,NA,NA,NA,NA,NA,NA
fcp-trial,48,389575,0.0-9.0-0.0,voc_e2,11709,"[{""event"":""fullscreenenter"",""trial"":1,""time"":2047}]",NA,NA,NA,NA,NA,2,#D8271C,#741CD8,10,0,1,40,0,2564.9000000059605,39,0,891.6999999880791,0,0,experiment,NA,NA,1,0.7,0.3,2,3,1,1,NA
fcp-trial,49,398525,0.0-10.0-0.0,voc_e2,11709,"[{""event"":""fullscreenenter"",""trial"":1,""time"":2047}]",NA,NA,NA,NA,NA,5,#FA92F8,#1CD855,0,10,0,40,0,6714.5,39,0,725.5999999940395,10,1,experiment,NA,NA,0,0.1,0.9,1,0,2,1,NA
fcp-trial,50,404208,0.0-11.0-0.0,voc_e2,11709,"[{""event"":""fullscreenenter"",""trial"":1,""time"":2047}]",NA,NA,NA,NA,NA,0,#1CD855,#FA92F8,10,0,1,38,1,2818,37,1,1353.699999988079,10,1,experiment,NA,NA,0,0.9,0.1,0,1,3,1,NA
fcp-trial,51,408524,0.0-12.0-0.0,voc_e2,11709,"[{""event"":""fullscreenenter"",""trial"":1,""time"":2047}]",NA,NA,NA,NA,NA,6,#D89F1C,#3386FF,10,10,0,40,0,1987.9000000059605,39,0,818.9000000059605,10,1,experiment,NA,NA,2,0.5,0.5,5,4,4,1,NA
fcp-trial,52,413332,0.0-13.0-0.0,voc_e2,11709,"[{""event"":""fullscreenenter"",""trial"":1,""time"":2047}]",NA,NA,NA,NA,NA,6,#741CD8,#D8271C,0,10,0,40,0,2360.199999988079,37,1,938.8000000119208,0,0,experiment,NA,NA,1,0.3,0.7,3,2,5,1,NA
fcp-trial,53,419271,0.0-14.0-0.0,voc_e2,11709,"[{""event"":""fullscreenenter"",""trial"":1,""time"":2047}]",NA,NA,NA,NA,NA,3,#741CD8,#D8271C,10,10,0,38,1,3411.0999999940395,39,0,1018.8000000119208,10,1,experiment,NA,NA,1,0.3,0.7,3,2,6,1,NA
fcp-trial,54,424132,0.0-15.0-0.0,voc_e2,11709,"[{""event"":""fullscreenenter"",""trial"":1,""time"":2047}]",NA,NA,NA,NA,NA,3,#1CD855,#FA92F8,10,0,1,38,1,2591.0999999940395,37,1,757.5,10,1,experiment,NA,NA,0,0.9,0.1,0,1,7,1,NA
fcp-trial,55,430985,0.0-16.0-0.0,voc_e2,11709,"[{""event"":""fullscreenenter"",""trial"":1,""time"":2047}]",NA,NA,NA,NA,NA,4,#3386FF,#D89F1C,10,0,1,40,0,4778.300000011921,39,0,565.1999999880791,0,0,experiment,NA,NA,2,0.5,0.5,4,5,8,1,NA
fcp-trial,56,436562,0.0-17.0-0.0,voc_e2,11709,"[{""event"":""fullscreenenter"",""trial"":1,""time"":2047}]",NA,NA,NA,NA,NA,1,#741CD8,#D8271C,0,0,0,38,1,3479.5999999940395,39,0,587.5,0,1,experiment,NA,NA,1,0.3,0.7,3,2,9,1,NA
fcp-trial,57,441191,0.0-18.0-0.0,voc_e2,11709,"[{""event"":""fullscreenenter"",""trial"":1,""time"":2047}]",NA,NA,NA,NA,NA,2,#D89F1C,#3386FF,10,0,0,38,1,2583.2000000178814,39,0,532.3999999761581,0,1,experiment,NA,NA,2,0.5,0.5,5,4,10,1,NA
fcp-trial,58,446424,0.0-19.0-0.0,voc_e2,11709,"[{""event"":""fullscreenenter"",""trial"":1,""time"":2047}]",NA,NA,NA,NA,NA,4,#FA92F8,#1CD855,0,10,0,38,1,3187.600000023842,39,0,534.5999999940395,10,1,experiment,NA,NA,0,0.1,0.9,1,0,11,1,NA
fcp-trial,59,450786,0.0-20.0-0.0,voc_e2,11709,"[{""event"":""fullscreenenter"",""trial"":1,""time"":2047}]",NA,NA,NA,NA,NA,0,#3386FF,#D89F1C,0,0,1,38,1,1891.199999988079,37,1,964.600000023842,0,1,experiment,NA,NA,2,0.5,0.5,4,5,12,1,NA
fcp-trial,60,456052,0.0-21.0-0.0,voc_e2,11709,"[{""event"":""fullscreenenter"",""trial"":1,""time"":2047}]",NA,NA,NA,NA,NA,4,#D8271C,#741CD8,10,0,1,40,0,2845.600000023842,37,1,908.600000023842,10,1,experiment,NA,NA,1,0.7,0.3,2,3,13,1,NA
fcp-trial,61,460862,0.0-22.0-0.0,voc_e2,11709,"[{""event"":""fullscreenenter"",""trial"":1,""time"":2047}]",NA,NA,NA,NA,NA,5,#741CD8,#D8271C,0,10,0,40,0,2577.2999999821186,37,1,722,0,0,experiment,NA,NA,1,0.3,0.7,3,2,14,1,NA
fcp-trial,62,465006,0.0-23.0-0.0,voc_e2,11709,"[{""event"":""fullscreenenter"",""trial"":1,""time"":2047}]",NA,NA,NA,NA,NA,1,#3386FF,#D89F1C,10,10,1,38,1,2084.9000000059605,37,1,548.5999999940395,10,1,experiment,NA,NA,2,0.5,0.5,4,5,15,1,NA
fcp-trial,63,468510,0.0-24.0-0.0,voc_e2,11709,"[{""event"":""fullscreenenter"",""trial"":1,""time"":2047}]",NA,NA,NA,NA,NA,2,#1CD855,#FA92F8,10,10,1,38,1,1435.8999999761581,37,1,558.9000000059605,10,1,experiment,NA,NA,0,0.9,0.1,0,1,16,1,NA
fcp-trial,64,472539,0.0-25.0-0.0,voc_e2,11709,"[{""event"":""fullscreenenter"",""trial"":1,""time"":2047}]",NA,NA,NA,NA,NA,0,#D8271C,#741CD8,10,10,1,38,1,1999.8999999761581,39,0,518.6999999880791,10,0,experiment,NA,NA,1,0.7,0.3,2,3,17,1,NA
fcp-trial,65,478569,0.0-26.0-0.0,voc_e2,11709,"[{""event"":""fullscreenenter"",""trial"":1,""time"":2047}]",NA,NA,NA,NA,NA,6,#FA92F8,#1CD855,0,10,0,40,0,3940.5999999940395,39,0,578.5,10,1,experiment,NA,NA,0,0.1,0.9,1,0,18,1,NA
fcp-trial,66,483667,0.0-27.0-0.0,voc_e2,11709,"[{""event"":""fullscreenenter"",""trial"":1,""time"":2047}]",NA,NA,NA,NA,NA,1,#FA92F8,#1CD855,0,0,0,38,1,2995.9000000059605,39,0,589.7999999821186,0,1,experiment,NA,NA,0,0.1,0.9,1,0,19,1,NA
fcp-trial,67,488295,0.0-28.0-0.0,voc_e2,11709,"[{""event"":""fullscreenenter"",""trial"":1,""time"":2047}]",NA,NA,NA,NA,NA,3,#3386FF,#D89F1C,0,10,1,38,1,2358,37,1,762,0,1,experiment,NA,NA,2,0.5,0.5,4,5,20,1,NA
fcp-trial,68,492187,0.0-29.0-0.0,voc_e2,11709,"[{""event"":""fullscreenenter"",""trial"":1,""time"":2047}]",NA,NA,NA,NA,NA,5,#D89F1C,#3386FF,10,10,0,40,0,1628.8999999761581,37,1,751.3000000119209,10,0,experiment,NA,NA,2,0.5,0.5,5,4,21,1,NA
fcp-trial,69,496139,0.0-30.0-0.0,voc_e2,11709,"[{""event"":""fullscreenenter"",""trial"":1,""time"":2047}]",NA,NA,NA,NA,NA,4,#3386FF,#D89F1C,10,0,1,40,0,1598.8999999761581,37,1,841.9000000059605,10,1,experiment,NA,NA,2,0.5,0.5,4,5,22,1,NA
fcp-trial,70,502916,0.0-31.0-0.0,voc_e2,11709,"[{""event"":""fullscreenenter"",""trial"":1,""time"":2047}]",NA,NA,NA,NA,NA,1,#D89F1C,#3386FF,0,10,0,38,1,4808.5999999940395,39,0,457,10,1,experiment,NA,NA,2,0.5,0.5,5,4,23,1,NA
fcp-trial,71,506707,0.0-32.0-0.0,voc_e2,11709,"[{""event"":""fullscreenenter"",""trial"":1,""time"":2047}]",NA,NA,NA,NA,NA,5,#D8271C,#741CD8,10,10,1,40,0,1658.300000011921,37,1,623,10,1,experiment,NA,NA,1,0.7,0.3,2,3,24,1,NA
fcp-trial,72,510443,0.0-33.0-0.0,voc_e2,11709,"[{""event"":""fullscreenenter"",""trial"":1,""time"":2047}]",NA,NA,NA,NA,NA,0,#1CD855,#FA92F8,0,0,1,38,1,1671.5999999940395,37,1,557.2999999821186,0,1,experiment,NA,NA,0,0.9,0.1,0,1,25,1,NA
fcp-trial,73,513922,0.0-34.0-0.0,voc_e2,11709,"[{""event"":""fullscreenenter"",""trial"":1,""time"":2047}]",NA,NA,NA,NA,NA,5,#3386FF,#D89F1C,10,0,1,40,0,1450.300000011921,39,0,520.7999999821186,0,0,experiment,NA,NA,2,0.5,0.5,4,5,26,1,NA
fcp-trial,74,517375,0.0-35.0-0.0,voc_e2,11709,"[{""event"":""fullscreenenter"",""trial"":1,""time"":2047}]",NA,NA,NA,NA,NA,3,#1CD855,#FA92F8,10,0,1,38,1,1425.4000000059605,37,1,516.5,10,1,experiment,NA,NA,0,0.9,0.1,0,1,27,1,NA
fcp-trial,75,520983,0.0-36.0-0.0,voc_e2,11709,"[{""event"":""fullscreenenter"",""trial"":1,""time"":2047}]",NA,NA,NA,NA,NA,1,#1CD855,#FA92F8,10,0,1,38,1,1561.4000000059605,37,1,534.5999999940395,10,1,experiment,NA,NA,0,0.9,0.1,0,1,28,1,NA
fcp-trial,76,524708,0.0-37.0-0.0,voc_e2,11709,"[{""event"":""fullscreenenter"",""trial"":1,""time"":2047}]",NA,NA,NA,NA,NA,4,#741CD8,#D8271C,0,10,0,40,0,1514.300000011921,37,1,700.7000000178814,0,0,experiment,NA,NA,1,0.3,0.7,3,2,29,1,NA
fcp-trial,77,528955,0.0-38.0-0.0,voc_e2,11709,"[{""event"":""fullscreenenter"",""trial"":1,""time"":2047}]",NA,NA,NA,NA,NA,6,#3386FF,#D89F1C,10,10,1,40,0,2180,37,1,559.6000000238419,10,1,experiment,NA,NA,2,0.5,0.5,4,5,30,1,NA
fcp-trial,78,532432,0.0-39.0-0.0,voc_e2,11709,"[{""event"":""fullscreenenter"",""trial"":1,""time"":2047}]",NA,NA,NA,NA,NA,0,#D89F1C,#3386FF,10,0,0,38,1,1373.5,39,0,594.4000000059605,0,1,experiment,NA,NA,2,0.5,0.5,5,4,31,1,NA
fcp-trial,79,535940,0.0-40.0-0.0,voc_e2,11709,"[{""event"":""fullscreenenter"",""trial"":1,""time"":2047}]",NA,NA,NA,NA,NA,6,#741CD8,#D8271C,10,0,0,40,0,1417.4000000059605,39,0,581,0,1,experiment,NA,NA,1,0.3,0.7,3,2,32,1,NA
fcp-trial,80,539655,0.0-41.0-0.0,voc_e2,11709,"[{""event"":""fullscreenenter"",""trial"":1,""time"":2047}]",NA,NA,NA,NA,NA,2,#FA92F8,#1CD855,0,0,0,38,1,1635.5,39,0,569.9000000059605,0,1,experiment,NA,NA,0,0.1,0.9,1,0,33,1,NA
fcp-trial,81,542995,0.0-42.0-0.0,voc_e2,11709,"[{""event"":""fullscreenenter"",""trial"":1,""time"":2047}]",NA,NA,NA,NA,NA,2,#D89F1C,#3386FF,0,0,0,38,1,1178.5,39,0,650.5999999940395,0,1,experiment,NA,NA,2,0.5,0.5,5,4,34,1,NA
fcp-trial,82,546572,0.0-43.0-0.0,voc_e2,11709,"[{""event"":""fullscreenenter"",""trial"":1,""time"":2047}]",NA,NA,NA,NA,NA,3,#D8271C,#741CD8,0,10,1,40,0,1426.5999999940395,39,0,638.6999999880791,10,0,experiment,NA,NA,1,0.7,0.3,2,3,35,1,NA
fcp-trial,83,551159,0.0-44.0-0.0,voc_e2,11709,"[{""event"":""fullscreenenter"",""trial"":1,""time"":2047}]",NA,NA,NA,NA,NA,1,#741CD8,#D8271C,10,10,0,38,1,1994.7000000178814,37,1,1083.2000000178814,10,0,experiment,NA,NA,1,0.3,0.7,3,2,36,1,NA
fcp-trial,84,559326,0.0-45.0-0.0,voc_e2,11709,"[{""event"":""fullscreenenter"",""trial"":1,""time"":2047}]",NA,NA,NA,NA,NA,0,#741CD8,#D8271C,10,10,0,38,1,2398.800000011921,37,1,4256.699999988079,10,0,experiment,NA,NA,1,0.3,0.7,3,2,37,1,NA
fcp-trial,85,565789,0.0-46.0-0.0,voc_e2,11709,"[{""event"":""fullscreenenter"",""trial"":1,""time"":2047}]",NA,NA,NA,NA,NA,4,#1CD855,#FA92F8,10,0,1,38,1,4336.199999988079,37,1,618.7000000178814,10,1,experiment,NA,NA,0,0.9,0.1,0,1,38,1,NA
fcp-trial,86,570753,0.0-47.0-0.0,voc_e2,11709,"[{""event"":""fullscreenenter"",""trial"":1,""time"":2047}]",NA,NA,NA,NA,NA,3,#D89F1C,#3386FF,10,10,0,40,0,2752.0999999940395,39,0,702.4000000059605,10,1,experiment,NA,NA,2,0.5,0.5,5,4,39,1,NA
fcp-trial,87,573892,0.0-48.0-0.0,voc_e2,11709,"[{""event"":""fullscreenenter"",""trial"":1,""time"":2047}]",NA,NA,NA,NA,NA,2,#D8271C,#741CD8,10,0,1,38,1,1121.0999999940395,39,0,504.90000000596046,0,0,experiment,NA,NA,1,0.7,0.3,2,3,40,1,NA
fcp-trial,88,577250,0.0-49.0-0.0,voc_e2,11709,"[{""event"":""fullscreenenter"",""trial"":1,""time"":2047}]",NA,NA,NA,NA,NA,5,#1CD855,#FA92F8,10,0,1,40,0,1239.7999999821186,39,0,608.4000000059605,0,0,experiment,NA,NA,0,0.9,0.1,0,1,41,1,NA
fcp-trial,89,580530,0.0-50.0-0.0,voc_e2,11709,"[{""event"":""fullscreenenter"",""trial"":1,""time"":2047}]",NA,NA,NA,NA,NA,6,#1CD855,#FA92F8,10,0,1,40,0,1057.4000000059605,37,1,711.5999999940395,10,1,experiment,NA,NA,0,0.9,0.1,0,1,42,1,NA
fcp-trial,90,583558,0.0-51.0-0.0,voc_e2,11709,"[{""event"":""fullscreenenter"",""trial"":1,""time"":2047}]",NA,NA,NA,NA,NA,6,#FA92F8,#1CD855,0,0,0,40,0,868.6999999880791,37,1,643.5,0,0,experiment,NA,NA,0,0.1,0.9,1,0,43,1,NA
fcp-trial,91,587884,0.0-52.0-0.0,voc_e2,11709,"[{""event"":""fullscreenenter"",""trial"":1,""time"":2047}]",NA,NA,NA,NA,NA,1,#D8271C,#741CD8,10,10,1,38,1,2051.800000011921,39,0,763.5,10,0,experiment,NA,NA,1,0.7,0.3,2,3,44,1,NA
fcp-trial,92,591289,0.0-53.0-0.0,voc_e2,11709,"[{""event"":""fullscreenenter"",""trial"":1,""time"":2047}]",NA,NA,NA,NA,NA,0,#1CD855,#FA92F8,10,0,1,38,1,1314.0999999940395,37,1,578.5999999940395,10,1,experiment,NA,NA,0,0.9,0.1,0,1,45,1,NA
fcp-trial,93,596225,0.0-54.0-0.0,voc_e2,11709,"[{""event"":""fullscreenenter"",""trial"":1,""time"":2047}]",NA,NA,NA,NA,NA,4,#741CD8,#D8271C,0,0,0,40,0,2736.5999999940395,37,1,688.2999999821186,0,0,experiment,NA,NA,1,0.3,0.7,3,2,46,2,NA
fcp-trial,94,600182,0.0-55.0-0.0,voc_e2,11709,"[{""event"":""fullscreenenter"",""trial"":1,""time"":2047}]",NA,NA,NA,NA,NA,2,#741CD8,#D8271C,10,0,0,38,1,1357.5,37,1,1090.4000000059605,10,0,experiment,NA,NA,1,0.3,0.7,3,2,47,2,NA
fcp-trial,95,604701,0.0-56.0-0.0,voc_e2,11709,"[{""event"":""fullscreenenter"",""trial"":1,""time"":2047}]",NA,NA,NA,NA,NA,4,#FA92F8,#1CD855,0,10,0,40,0,2416.800000011921,39,0,593.1999999880791,10,1,experiment,NA,NA,0,0.1,0.9,1,0,48,2,NA
fcp-trial,96,609383,0.0-57.0-0.0,voc_e2,11709,"[{""event"":""fullscreenenter"",""trial"":1,""time"":2047}]",NA,NA,NA,NA,NA,3,#FA92F8,#1CD855,0,10,0,38,1,2560.699999988079,39,0,586.9000000059605,10,1,experiment,NA,NA,0,0.1,0.9,1,0,49,2,NA
fcp-trial,97,613407,0.0-58.0-0.0,voc_e2,11709,"[{""event"":""fullscreenenter"",""trial"":1,""time"":2047}]",NA,NA,NA,NA,NA,0,#741CD8,#D8271C,0,10,0,38,1,1740.300000011921,37,1,774.5,0,0,experiment,NA,NA,1,0.3,0.7,3,2,50,2,NA
fcp-trial,98,616519,0.0-59.0-0.0,voc_e2,11709,"[{""event"":""fullscreenenter"",""trial"":1,""time"":2047}]",NA,NA,NA,NA,NA,5,#D89F1C,#3386FF,0,10,0,40,0,1099.800000011921,39,0,501.5,10,1,experiment,NA,NA,2,0.5,0.5,5,4,51,2,NA
fcp-trial,99,620488,0.0-60.0-0.0,voc_e2,11709,"[{""event"":""fullscreenenter"",""trial"":1,""time"":2047}]",NA,NA,NA,NA,NA,4,#D89F1C,#3386FF,0,0,0,40,0,1742.5,39,0,716.3000000119209,0,1,experiment,NA,NA,2,0.5,0.5,5,4,52,2,NA
fcp-trial,100,623812,0.0-61.0-0.0,voc_e2,11709,"[{""event"":""fullscreenenter"",""trial"":1,""time"":2047}]",NA,NA,NA,NA,NA,5,#FA92F8,#1CD855,0,10,0,40,0,1106.300000011921,37,1,705.5,0,0,experiment,NA,NA,0,0.1,0.9,1,0,53,2,NA
fcp-trial,101,627762,0.0-62.0-0.0,voc_e2,11709,"[{""event"":""fullscreenenter"",""trial"":1,""time"":2047}]",NA,NA,NA,NA,NA,3,#3386FF,#D89F1C,0,10,1,38,1,1886.800000011921,37,1,551.9000000059605,0,1,experiment,NA,NA,2,0.5,0.5,4,5,54,2,NA
fcp-trial,102,631102,0.0-63.0-0.0,voc_e2,11709,"[{""event"":""fullscreenenter"",""trial"":1,""time"":2047}]",NA,NA,NA,NA,NA,5,#741CD8,#D8271C,0,10,0,40,0,1181.2999999821186,39,0,651.2000000178814,10,1,experiment,NA,NA,1,0.3,0.7,3,2,55,2,NA
fcp-trial,103,634540,0.0-64.0-0.0,voc_e2,11709,"[{""event"":""fullscreenenter"",""trial"":1,""time"":2047}]",NA,NA,NA,NA,NA,0,#3386FF,#D89F1C,0,10,1,38,1,1305.199999988079,37,1,620.7000000178814,0,1,experiment,NA,NA,2,0.5,0.5,4,5,56,2,NA
fcp-trial,104,638181,0.0-65.0-0.0,voc_e2,11709,"[{""event"":""fullscreenenter"",""trial"":1,""time"":2047}]",NA,NA,NA,NA,NA,2,#FA92F8,#1CD855,0,10,0,38,1,1456.800000011921,39,0,677.0999999940395,10,1,experiment,NA,NA,0,0.1,0.9,1,0,57,2,NA
fcp-trial,105,641500,0.0-66.0-0.0,voc_e2,11709,"[{""event"":""fullscreenenter"",""trial"":1,""time"":2047}]",NA,NA,NA,NA,NA,6,#741CD8,#D8271C,0,0,0,40,0,1077.9000000059605,37,1,731.8000000119209,0,0,experiment,NA,NA,1,0.3,0.7,3,2,58,2,NA
fcp-trial,106,645134,0.0-67.0-0.0,voc_e2,11709,"[{""event"":""fullscreenenter"",""trial"":1,""time"":2047}]",NA,NA,NA,NA,NA,3,#741CD8,#D8271C,0,10,0,38,1,1353.2000000178814,37,1,769.6999999880791,0,0,experiment,NA,NA,1,0.3,0.7,3,2,59,2,NA
fcp-trial,107,648438,0.0-68.0-0.0,voc_e2,11709,"[{""event"":""fullscreenenter"",""trial"":1,""time"":2047}]",NA,NA,NA,NA,NA,6,#D89F1C,#3386FF,10,0,0,40,0,1152.7000000178814,37,1,640.2999999821186,10,0,experiment,NA,NA,2,0.5,0.5,5,4,60,2,NA
fcp-trial,108,652176,0.0-69.0-0.0,voc_e2,11709,"[{""event"":""fullscreenenter"",""trial"":1,""time"":2047}]",NA,NA,NA,NA,NA,2,#3386FF,#D89F1C,0,10,1,40,0,1642.6000000238419,37,1,587.0999999940395,0,1,experiment,NA,NA,2,0.5,0.5,4,5,61,2,NA
fcp-trial,109,655503,0.0-70.0-0.0,voc_e2,11709,"[{""event"":""fullscreenenter"",""trial"":1,""time"":2047}]",NA,NA,NA,NA,NA,1,#FA92F8,#1CD855,10,10,0,38,1,1186.6000000238419,39,0,629.2000000178814,10,1,experiment,NA,NA,0,0.1,0.9,1,0,62,2,NA
fcp-trial,110,658822,0.0-71.0-0.0,voc_e2,11709,"[{""event"":""fullscreenenter"",""trial"":1,""time"":2047}]",NA,NA,NA,NA,NA,1,#D89F1C,#3386FF,10,10,0,38,1,1176,39,0,629.7999999821186,10,1,experiment,NA,NA,2,0.5,0.5,5,4,63,2,NA
fcp-trial,111,662288,0.0-72.0-0.0,voc_e2,11709,"[{""event"":""fullscreenenter"",""trial"":1,""time"":2047}]",NA,NA,NA,NA,NA,1,#D8271C,#741CD8,10,0,1,38,1,1393.7000000178814,39,0,562.3000000119209,0,0,experiment,NA,NA,1,0.7,0.3,2,3,64,2,NA
fcp-trial,112,665398,0.0-73.0-0.0,voc_e2,11709,"[{""event"":""fullscreenenter"",""trial"":1,""time"":2047}]",NA,NA,NA,NA,NA,6,#FA92F8,#1CD855,0,10,0,40,0,1000.5,39,0,600.2999999821186,10,1,experiment,NA,NA,0,0.1,0.9,1,0,65,2,NA
fcp-trial,113,668467,0.0-74.0-0.0,voc_e2,11709,"[{""event"":""fullscreenenter"",""trial"":1,""time"":2047}]",NA,NA,NA,NA,NA,6,#741CD8,#D8271C,0,10,0,40,0,909.4000000059605,39,0,651.0999999940395,10,1,experiment,NA,NA,1,0.3,0.7,3,2,66,2,NA
fcp-trial,114,671871,0.0-75.0-0.0,voc_e2,11709,"[{""event"":""fullscreenenter"",""trial"":1,""time"":2047}]",NA,NA,NA,NA,NA,2,#1CD855,#FA92F8,10,0,1,38,1,1283.300000011921,37,1,608.6999999880791,10,1,experiment,NA,NA,0,0.9,0.1,0,1,67,2,NA
fcp-trial,115,676924,0.0-76.0-0.0,voc_e2,11709,"[{""event"":""fullscreenenter"",""trial"":1,""time"":2047}]",NA,NA,NA,NA,NA,5,#D8271C,#741CD8,10,0,1,40,0,1107.0999999940395,39,0,677.1999999880791,0,0,experiment,NA,NA,1,0.7,0.3,2,3,68,2,NA
fcp-trial,116,680985,0.0-77.0-0.0,voc_e2,11709,"[{""event"":""fullscreenenter"",""trial"":1,""time"":2047}]",NA,NA,NA,NA,NA,0,#1CD855,#FA92F8,10,0,1,38,1,1956.199999988079,37,1,587.6999999880791,10,1,experiment,NA,NA,0,0.9,0.1,0,1,69,2,NA
fcp-trial,117,684654,0.0-78.0-0.0,voc_e2,11709,"[{""event"":""fullscreenenter"",""trial"":1,""time"":2047}]",NA,NA,NA,NA,NA,5,#1CD855,#FA92F8,10,0,1,40,0,1498.699999988079,37,1,659.8000000119209,10,1,experiment,NA,NA,0,0.9,0.1,0,1,70,2,NA
fcp-trial,118,687949,0.0-79.0-0.0,voc_e2,11709,"[{""event"":""fullscreenenter"",""trial"":1,""time"":2047}]",NA,NA,NA,NA,NA,1,#3386FF,#D89F1C,0,10,1,38,1,1133.0999999940395,37,1,650.2000000178814,0,1,experiment,NA,NA,2,0.5,0.5,4,5,71,2,NA
fcp-trial,119,691055,0.0-80.0-0.0,voc_e2,11709,"[{""event"":""fullscreenenter"",""trial"":1,""time"":2047}]",NA,NA,NA,NA,NA,0,#741CD8,#D8271C,0,10,0,38,1,1050.4000000059605,37,1,547.0999999940395,0,0,experiment,NA,NA,1,0.3,0.7,3,2,72,2,NA
fcp-trial,120,694574,0.0-81.0-0.0,voc_e2,11709,"[{""event"":""fullscreenenter"",""trial"":1,""time"":2047}]",NA,NA,NA,NA,NA,3,#FA92F8,#1CD855,0,0,0,38,1,1376,37,1,631.5,0,0,experiment,NA,NA,0,0.1,0.9,1,0,73,2,NA
fcp-trial,121,697890,0.0-82.0-0.0,voc_e2,11709,"[{""event"":""fullscreenenter"",""trial"":1,""time"":2047}]",NA,NA,NA,NA,NA,2,#3386FF,#D89F1C,10,10,1,38,1,1206.9000000059605,37,1,598.5999999940395,10,1,experiment,NA,NA,2,0.5,0.5,4,5,74,2,NA
fcp-trial,122,701068,0.0-83.0-0.0,voc_e2,11709,"[{""event"":""fullscreenenter"",""trial"":1,""time"":2047}]",NA,NA,NA,NA,NA,3,#3386FF,#D89F1C,10,0,1,38,1,1033.5999999940395,37,1,634.0999999940395,10,1,experiment,NA,NA,2,0.5,0.5,4,5,75,2,NA
fcp-trial,123,704030,0.0-84.0-0.0,voc_e2,11709,"[{""event"":""fullscreenenter"",""trial"":1,""time"":2047}]",NA,NA,NA,NA,NA,3,#D8271C,#741CD8,10,0,1,38,1,894.1999999880791,39,0,557.6000000238419,0,0,experiment,NA,NA,1,0.7,0.3,2,3,76,2,NA
fcp-trial,124,706983,0.0-85.0-0.0,voc_e2,11709,"[{""event"":""fullscreenenter"",""trial"":1,""time"":2047}]",NA,NA,NA,NA,NA,4,#3386FF,#D89F1C,10,10,1,38,1,884.4000000059605,37,1,560.3000000119209,10,1,experiment,NA,NA,2,0.5,0.5,4,5,77,2,NA
fcp-trial,125,710856,0.0-86.0-0.0,voc_e2,11709,"[{""event"":""fullscreenenter"",""trial"":1,""time"":2047}]",NA,NA,NA,NA,NA,4,#FA92F8,#1CD855,0,10,0,38,1,1041.4000000059605,39,0,1325.100000023842,10,1,experiment,NA,NA,0,0.1,0.9,1,0,78,2,NA
fcp-trial,126,713859,0.0-87.0-0.0,voc_e2,11709,"[{""event"":""fullscreenenter"",""trial"":1,""time"":2047}]",NA,NA,NA,NA,NA,4,#D8271C,#741CD8,10,10,1,38,1,960.3000000119209,39,0,533,10,0,experiment,NA,NA,1,0.7,0.3,2,3,79,2,NA
fcp-trial,127,717006,0.0-88.0-0.0,voc_e2,11709,"[{""event"":""fullscreenenter"",""trial"":1,""time"":2047}]",NA,NA,NA,NA,NA,5,#3386FF,#D89F1C,10,0,1,38,1,1001.4000000059605,37,1,632.2999999821186,10,1,experiment,NA,NA,2,0.5,0.5,4,5,80,2,NA
fcp-trial,128,720283,0.0-89.0-0.0,voc_e2,11709,"[{""event"":""fullscreenenter"",""trial"":1,""time"":2047}]",NA,NA,NA,NA,NA,0,#D89F1C,#3386FF,10,10,0,38,1,1240.2000000178814,39,0,529.8000000119209,10,1,experiment,NA,NA,2,0.5,0.5,5,4,81,2,NA
fcp-trial,129,723904,0.0-90.0-0.0,voc_e2,11709,"[{""event"":""fullscreenenter"",""trial"":1,""time"":2047}]",NA,NA,NA,NA,NA,6,#D89F1C,#3386FF,0,0,0,40,0,1563.0999999940395,39,0,547.3000000119209,0,1,experiment,NA,NA,2,0.5,0.5,5,4,82,2,NA
fcp-trial,130,727324,0.0-91.0-0.0,voc_e2,11709,"[{""event"":""fullscreenenter"",""trial"":1,""time"":2047}]",NA,NA,NA,NA,NA,1,#1CD855,#FA92F8,10,0,1,38,1,1242.8999999761581,37,1,667.4000000059605,10,1,experiment,NA,NA,0,0.9,0.1,0,1,83,2,NA
fcp-trial,131,730896,0.0-92.0-0.0,voc_e2,11709,"[{""event"":""fullscreenenter"",""trial"":1,""time"":2047}]",NA,NA,NA,NA,NA,2,#D8271C,#741CD8,10,0,1,38,1,1392.5,39,0,671.5,0,0,experiment,NA,NA,1,0.7,0.3,2,3,84,2,NA
fcp-trial,132,733893,0.0-93.0-0.0,voc_e2,11709,"[{""event"":""fullscreenenter"",""trial"":1,""time"":2047}]",NA,NA,NA,NA,NA,1,#1CD855,#FA92F8,10,0,1,38,1,932.3999999761581,37,1,553.2999999821186,10,1,experiment,NA,NA,0,0.9,0.1,0,1,85,2,NA
fcp-trial,133,736859,0.0-94.0-0.0,voc_e2,11709,"[{""event"":""fullscreenenter"",""trial"":1,""time"":2047}]",NA,NA,NA,NA,NA,0,#1CD855,#FA92F8,10,0,1,38,1,987,37,1,469.90000000596046,10,1,experiment,NA,NA,0,0.9,0.1,0,1,86,2,NA
fcp-trial,134,741842,0.0-95.0-0.0,voc_e2,11709,"[{""event"":""fullscreenenter"",""trial"":1,""time"":2047}]",NA,NA,NA,NA,NA,3,#741CD8,#D8271C,0,0,0,40,0,2856.0999999940395,39,0,565.3000000119209,0,1,experiment,NA,NA,1,0.3,0.7,3,2,87,2,NA
fcp-trial,135,745960,0.0-96.0-0.0,voc_e2,11709,"[{""event"":""fullscreenenter"",""trial"":1,""time"":2047}]",NA,NA,NA,NA,NA,4,#D89F1C,#3386FF,0,10,0,38,1,2135.4000000059605,39,0,474.60000002384186,10,1,experiment,NA,NA,2,0.5,0.5,5,4,88,2,NA
fcp-trial,136,749338,0.0-97.0-0.0,voc_e2,11709,"[{""event"":""fullscreenenter"",""trial"":1,""time"":2047}]",NA,NA,NA,NA,NA,2,#FA92F8,#1CD855,0,10,0,38,1,1031.5,39,0,838.9000000059605,10,1,experiment,NA,NA,0,0.1,0.9,1,0,89,2,NA
fcp-trial,137,752853,0.0-98.0-0.0,voc_e2,11709,"[{""event"":""fullscreenenter"",""trial"":1,""time"":2047}]",NA,NA,NA,NA,NA,6,#741CD8,#D8271C,10,10,0,40,0,1413.5,39,0,595.6999999880791,10,1,experiment,NA,NA,1,0.3,0.7,3,2,90,2,NA
fcp-trial,138,756156,0.0-99.0-0.0,voc_e2,11709,"[{""event"":""fullscreenenter"",""trial"":1,""time"":2047}]",NA,NA,NA,NA,NA,3,#3386FF,#D89F1C,10,0,1,38,1,1229.5,37,1,564.1000000238419,10,1,experiment,NA,NA,2,0.5,0.5,4,5,91,3,NA
fcp-trial,139,760606,0.0-100.0-0.0,voc_e2,11709,"[{""event"":""fullscreenenter"",""trial"":1,""time"":2047}]",NA,NA,NA,NA,NA,4,#1CD855,#FA92F8,10,0,1,40,0,2337.5,37,1,599.7999999821186,10,1,experiment,NA,NA,0,0.9,0.1,0,1,92,3,NA
fcp-trial,140,763831,0.0-101.0-0.0,voc_e2,11709,"[{""event"":""fullscreenenter"",""trial"":1,""time"":2047}]",NA,NA,NA,NA,NA,1,#D89F1C,#3386FF,10,0,0,38,1,1175.2999999821186,39,0,541.6999999880791,0,1,experiment,NA,NA,2,0.5,0.5,5,4,93,3,NA
fcp-trial,141,767123,0.0-102.0-0.0,voc_e2,11709,"[{""event"":""fullscreenenter"",""trial"":1,""time"":2047}]",NA,NA,NA,NA,NA,6,#1CD855,#FA92F8,10,0,1,40,0,1152.199999988079,39,0,629.5,0,0,experiment,NA,NA,0,0.9,0.1,0,1,94,3,NA
fcp-trial,142,771641,0.0-103.0-0.0,voc_e2,11709,"[{""event"":""fullscreenenter"",""trial"":1,""time"":2047}]",NA,NA,NA,NA,NA,5,#D8271C,#741CD8,10,0,1,40,0,2388.7999999821186,37,1,617.3000000119209,10,1,experiment,NA,NA,1,0.7,0.3,2,3,95,3,NA
fcp-trial,143,775906,0.0-104.0-0.0,voc_e2,11709,"[{""event"":""fullscreenenter"",""trial"":1,""time"":2047}]",NA,NA,NA,NA,NA,6,#D89F1C,#3386FF,0,10,0,40,0,1992.0999999940395,37,1,744.0999999940395,0,0,experiment,NA,NA,2,0.5,0.5,5,4,96,3,NA
fcp-trial,144,779462,0.0-105.0-0.0,voc_e2,11709,"[{""event"":""fullscreenenter"",""trial"":1,""time"":2047}]",NA,NA,NA,NA,NA,5,#D89F1C,#3386FF,0,0,0,38,1,1520.5,39,0,517.5,0,1,experiment,NA,NA,2,0.5,0.5,5,4,97,3,NA
fcp-trial,145,782770,0.0-106.0-0.0,voc_e2,11709,"[{""event"":""fullscreenenter"",""trial"":1,""time"":2047}]",NA,NA,NA,NA,NA,3,#1CD855,#FA92F8,0,0,1,38,1,1161.7000000178814,37,1,633.8000000119209,0,1,experiment,NA,NA,0,0.9,0.1,0,1,98,3,NA
fcp-trial,146,785936,0.0-107.0-0.0,voc_e2,11709,"[{""event"":""fullscreenenter"",""trial"":1,""time"":2047}]",NA,NA,NA,NA,NA,1,#D8271C,#741CD8,0,0,1,38,1,1119.699999988079,39,0,538,0,0,experiment,NA,NA,1,0.7,0.3,2,3,99,3,NA
fcp-trial,147,789421,0.0-108.0-0.0,voc_e2,11709,"[{""event"":""fullscreenenter"",""trial"":1,""time"":2047}]",NA,NA,NA,NA,NA,0,#D89F1C,#3386FF,10,10,0,38,1,1165.0999999940395,39,0,810.5999999940395,10,1,experiment,NA,NA,2,0.5,0.5,5,4,100,3,NA
fcp-trial,148,792772,0.0-109.0-0.0,voc_e2,11709,"[{""event"":""fullscreenenter"",""trial"":1,""time"":2047}]",NA,NA,NA,NA,NA,2,#D89F1C,#3386FF,10,0,0,38,1,1233.9000000059605,39,0,606.5999999940395,0,1,experiment,NA,NA,2,0.5,0.5,5,4,101,3,NA
fcp-trial,149,796204,0.0-110.0-0.0,voc_e2,11709,"[{""event"":""fullscreenenter"",""trial"":1,""time"":2047}]",NA,NA,NA,NA,NA,5,#FA92F8,#1CD855,10,10,0,40,0,1306.199999988079,37,1,615.5,10,0,experiment,NA,NA,0,0.1,0.9,1,0,102,3,NA
fcp-trial,150,799354,0.0-111.0-0.0,voc_e2,11709,"[{""event"":""fullscreenenter"",""trial"":1,""time"":2047}]",NA,NA,NA,NA,NA,4,#D8271C,#741CD8,10,0,1,38,1,1083.5999999940395,39,0,557,0,0,experiment,NA,NA,1,0.7,0.3,2,3,103,3,NA
fcp-trial,151,802308,0.0-112.0-0.0,voc_e2,11709,"[{""event"":""fullscreenenter"",""trial"":1,""time"":2047}]",NA,NA,NA,NA,NA,0,#741CD8,#D8271C,0,0,0,38,1,826.6000000238419,37,1,618,0,0,experiment,NA,NA,1,0.3,0.7,3,2,104,3,NA
fcp-trial,152,805345,0.0-113.0-0.0,voc_e2,11709,"[{""event"":""fullscreenenter"",""trial"":1,""time"":2047}]",NA,NA,NA,NA,NA,2,#D8271C,#741CD8,10,0,1,38,1,1022.8000000119209,39,0,501.800000011921,0,0,experiment,NA,NA,1,0.7,0.3,2,3,105,3,NA
audio-instructions,153,811424,0.0-114.0,voc_e2,11709,"[{""event"":""fullscreenenter"",""trial"":1,""time"":2047}]",NA,1592.199999988079,static/audio/pause.wav,NA,0,NA,NA,NA,NA,NA,NA,NA,NA,NA,NA,NA,NA,NA,NA,NA,NA,NA,NA,NA,NA,NA,NA,NA,NA,NA
fcp-trial,154,814807,0.0-115.0-0.0,voc_e2,11709,"[{""event"":""fullscreenenter"",""trial"":1,""time"":2047}]",NA,NA,NA,NA,NA,0,#D89F1C,#3386FF,10,0,0,38,1,1289,39,0,580.8000000119209,0,1,experiment,NA,NA,2,0.5,0.5,5,4,106,3,NA
fcp-trial,155,818050,0.0-116.0-0.0,voc_e2,11709,"[{""event"":""fullscreenenter"",""trial"":1,""time"":2047}]",NA,NA,NA,NA,NA,3,#1CD855,#FA92F8,10,10,1,40,0,1197.0999999940395,37,1,538.5999999940395,10,1,experiment,NA,NA,0,0.9,0.1,0,1,107,3,NA
fcp-trial,156,821127,0.0-117.0-0.0,voc_e2,11709,"[{""event"":""fullscreenenter"",""trial"":1,""time"":2047}]",NA,NA,NA,NA,NA,4,#D89F1C,#3386FF,10,0,0,38,1,1036.4000000059605,39,0,532.0999999940395,0,1,experiment,NA,NA,2,0.5,0.5,5,4,108,3,NA
fcp-trial,157,824066,0.0-118.0-0.0,voc_e2,11709,"[{""event"":""fullscreenenter"",""trial"":1,""time"":2047}]",NA,NA,NA,NA,NA,1,#1CD855,#FA92F8,10,0,1,38,1,856,37,1,572.0999999940395,10,1,experiment,NA,NA,0,0.9,0.1,0,1,109,3,NA
fcp-trial,158,827346,0.0-119.0-0.0,voc_e2,11709,"[{""event"":""fullscreenenter"",""trial"":1,""time"":2047}]",NA,NA,NA,NA,NA,4,#741CD8,#D8271C,0,10,0,38,1,1133.9000000059605,37,1,632,0,0,experiment,NA,NA,1,0.3,0.7,3,2,110,3,NA
fcp-trial,159,830606,0.0-120.0-0.0,voc_e2,11709,"[{""event"":""fullscreenenter"",""trial"":1,""time"":2047}]",NA,NA,NA,NA,NA,6,#741CD8,#D8271C,0,10,0,40,0,1138.300000011921,39,0,608,10,1,experiment,NA,NA,1,0.3,0.7,3,2,111,3,NA
fcp-trial,160,834839,0.0-121.0-0.0,voc_e2,11709,"[{""event"":""fullscreenenter"",""trial"":1,""time"":2047}]",NA,NA,NA,NA,NA,3,#D89F1C,#3386FF,0,0,0,40,0,2208.4000000059605,39,0,516.6999999880791,0,1,experiment,NA,NA,2,0.5,0.5,5,4,112,3,NA
fcp-trial,161,837728,0.0-122.0-0.0,voc_e2,11709,"[{""event"":""fullscreenenter"",""trial"":1,""time"":2047}]",NA,NA,NA,NA,NA,6,#3386FF,#D89F1C,0,0,1,40,0,815.1000000238419,37,1,564.8999999761581,0,1,experiment,NA,NA,2,0.5,0.5,4,5,113,3,NA
fcp-trial,162,840833,0.0-123.0-0.0,voc_e2,11709,"[{""event"":""fullscreenenter"",""trial"":1,""time"":2047}]",NA,NA,NA,NA,NA,0,#FA92F8,#1CD855,0,10,0,38,1,1005.3000000119209,39,0,581.2000000178814,10,1,experiment,NA,NA,0,0.1,0.9,1,0,114,3,NA
fcp-trial,163,843864,0.0-124.0-0.0,voc_e2,11709,"[{""event"":""fullscreenenter"",""trial"":1,""time"":2047}]",NA,NA,NA,NA,NA,0,#741CD8,#D8271C,0,10,0,38,1,883,37,1,634.2999999821186,0,0,experiment,NA,NA,1,0.3,0.7,3,2,115,3,NA
fcp-trial,164,847428,0.0-125.0-0.0,voc_e2,11709,"[{""event"":""fullscreenenter"",""trial"":1,""time"":2047}]",NA,NA,NA,NA,NA,2,#3386FF,#D89F1C,10,10,1,38,1,1484.8999999761581,37,1,563.7000000178814,10,1,experiment,NA,NA,2,0.5,0.5,4,5,116,3,NA
fcp-trial,165,850581,0.0-126.0-0.0,voc_e2,11709,"[{""event"":""fullscreenenter"",""trial"":1,""time"":2047}]",NA,NA,NA,NA,NA,1,#3386FF,#D89F1C,0,10,1,38,1,1000.8999999761581,37,1,641.7999999821186,0,1,experiment,NA,NA,2,0.5,0.5,4,5,117,3,NA
fcp-trial,166,853659,0.0-127.0-0.0,voc_e2,11709,"[{""event"":""fullscreenenter"",""trial"":1,""time"":2047}]",NA,NA,NA,NA,NA,6,#FA92F8,#1CD855,0,10,0,40,0,989.5,39,0,576.7999999821186,10,1,experiment,NA,NA,0,0.1,0.9,1,0,118,3,NA
fcp-trial,167,856606,0.0-128.0-0.0,voc_e2,11709,"[{""event"":""fullscreenenter"",""trial"":1,""time"":2047}]",NA,NA,NA,NA,NA,1,#741CD8,#D8271C,10,10,0,38,1,857.3000000119209,37,1,580.2999999821186,10,0,experiment,NA,NA,1,0.3,0.7,3,2,119,3,NA
fcp-trial,168,859824,0.0-129.0-0.0,voc_e2,11709,"[{""event"":""fullscreenenter"",""trial"":1,""time"":2047}]",NA,NA,NA,NA,NA,5,#1CD855,#FA92F8,10,0,1,40,0,1133.800000011921,37,1,571.5999999940395,10,1,experiment,NA,NA,0,0.9,0.1,0,1,120,3,NA
fcp-trial,169,862977,0.0-130.0-0.0,voc_e2,11709,"[{""event"":""fullscreenenter"",""trial"":1,""time"":2047}]",NA,NA,NA,NA,NA,3,#D8271C,#741CD8,0,0,1,40,0,941.7000000178814,37,1,701,0,1,experiment,NA,NA,1,0.7,0.3,2,3,121,3,NA
fcp-trial,170,865941,0.0-131.0-0.0,voc_e2,11709,"[{""event"":""fullscreenenter"",""trial"":1,""time"":2047}]",NA,NA,NA,NA,NA,5,#D89F1C,#3386FF,0,10,0,40,0,887.7999999821186,39,0,565.8000000119209,10,1,experiment,NA,NA,2,0.5,0.5,5,4,122,3,NA
fcp-trial,171,869803,0.0-132.0-0.0,voc_e2,11709,"[{""event"":""fullscreenenter"",""trial"":1,""time"":2047}]",NA,NA,NA,NA,NA,2,#741CD8,#D8271C,0,10,0,38,1,1784.7999999821186,37,1,567.3000000119209,0,0,experiment,NA,NA,1,0.3,0.7,3,2,123,3,NA
fcp-trial,172,873689,0.0-133.0-0.0,voc_e2,11709,"[{""event"":""fullscreenenter"",""trial"":1,""time"":2047}]",NA,NA,NA,NA,NA,2,#FA92F8,#1CD855,0,10,0,38,1,1894.6000000238419,39,0,482.300000011921,10,1,experiment,NA,NA,0,0.1,0.9,1,0,124,3,NA
fcp-trial,173,876773,0.0-134.0-0.0,voc_e2,11709,"[{""event"":""fullscreenenter"",""trial"":1,""time"":2047}]",NA,NA,NA,NA,NA,4,#1CD855,#FA92F8,10,0,1,38,1,949.9000000059605,37,1,617,10,1,experiment,NA,NA,0,0.9,0.1,0,1,125,3,NA
fcp-trial,174,880053,0.0-135.0-0.0,voc_e2,11709,"[{""event"":""fullscreenenter"",""trial"":1,""time"":2047}]",NA,NA,NA,NA,NA,5,#D8271C,#741CD8,0,10,1,40,0,1091.5999999940395,37,1,677.1000000238419,0,1,experiment,NA,NA,1,0.7,0.3,2,3,126,3,NA
fcp-trial,175,883028,0.0-136.0-0.0,voc_e2,11709,"[{""event"":""fullscreenenter"",""trial"":1,""time"":2047}]",NA,NA,NA,NA,NA,1,#FA92F8,#1CD855,10,10,0,38,1,957.8000000119209,39,0,506.2999999821186,10,1,experiment,NA,NA,0,0.1,0.9,1,0,127,3,NA
fcp-trial,176,886832,0.0-137.0-0.0,voc_e2,11709,"[{""event"":""fullscreenenter"",""trial"":1,""time"":2047}]",NA,NA,NA,NA,NA,3,#D8271C,#741CD8,0,10,1,40,0,1662.3999999761581,37,1,628.7999999821186,0,1,experiment,NA,NA,1,0.7,0.3,2,3,128,3,NA
fcp-trial,177,889658,0.0-138.0-0.0,voc_e2,11709,"[{""event"":""fullscreenenter"",""trial"":1,""time"":2047}]",NA,NA,NA,NA,NA,2,#D8271C,#741CD8,0,10,1,38,1,813.5,39,0,500,10,0,experiment,NA,NA,1,0.7,0.3,2,3,129,3,NA
fcp-trial,178,893911,0.0-139.0-0.0,voc_e2,11709,"[{""event"":""fullscreenenter"",""trial"":1,""time"":2047}]",NA,NA,NA,NA,NA,5,#1CD855,#FA92F8,10,0,1,40,0,2232,37,1,505.90000000596046,10,1,experiment,NA,NA,0,0.9,0.1,0,1,130,3,NA
fcp-trial,179,898557,0.0-140.0-0.0,voc_e2,11709,"[{""event"":""fullscreenenter"",""trial"":1,""time"":2047}]",NA,NA,NA,NA,NA,4,#D8271C,#741CD8,10,0,1,40,0,2542.4000000059605,39,0,593.5999999940395,0,0,experiment,NA,NA,1,0.7,0.3,2,3,131,3,NA
fcp-trial,180,902715,0.0-141.0-0.0,voc_e2,11709,"[{""event"":""fullscreenenter"",""trial"":1,""time"":2047}]",NA,NA,NA,NA,NA,4,#D89F1C,#3386FF,0,0,0,38,1,2132.5,39,0,514.9000000059605,0,1,experiment,NA,NA,2,0.5,0.5,5,4,132,3,NA
fcp-trial,181,905983,0.0-142.0-0.0,voc_e2,11709,"[{""event"":""fullscreenenter"",""trial"":1,""time"":2047}]",NA,NA,NA,NA,NA,6,#741CD8,#D8271C,10,10,0,40,0,1100.7999999821186,39,0,654.0999999940395,10,1,experiment,NA,NA,1,0.3,0.7,3,2,133,3,NA
fcp-trial,182,909136,0.0-143.0-0.0,voc_e2,11709,"[{""event"":""fullscreenenter"",""trial"":1,""time"":2047}]",NA,NA,NA,NA,NA,1,#D89F1C,#3386FF,10,0,0,38,1,1185.5,39,0,455.5,0,1,experiment,NA,NA,2,0.5,0.5,5,4,134,3,NA
fcp-trial,183,911973,0.0-144.0-0.0,voc_e2,11709,"[{""event"":""fullscreenenter"",""trial"":1,""time"":2047}]",NA,NA,NA,NA,NA,0,#FA92F8,#1CD855,10,10,0,38,1,854.6000000238419,39,0,473.09999999403954,10,1,experiment,NA,NA,0,0.1,0.9,1,0,135,3,NA
fcp-trial,184,914864,0.0-145.0-0.0,voc_e2,11709,"[{""event"":""fullscreenenter"",""trial"":1,""time"":2047}]",NA,NA,NA,NA,NA,1,#D8271C,#741CD8,10,10,1,38,1,863.2000000178814,37,1,518.5,10,1,experiment,NA,NA,1,0.7,0.3,2,3,136,4,NA
fcp-trial,185,917670,0.0-146.0-0.0,voc_e2,11709,"[{""event"":""fullscreenenter"",""trial"":1,""time"":2047}]",NA,NA,NA,NA,NA,0,#3386FF,#D89F1C,0,10,1,38,1,845.7000000178814,37,1,451,0,1,experiment,NA,NA,2,0.5,0.5,4,5,137,4,NA
fcp-trial,186,920836,0.0-147.0-0.0,voc_e2,11709,"[{""event"":""fullscreenenter"",""trial"":1,""time"":2047}]",NA,NA,NA,NA,NA,2,#3386FF,#D89F1C,0,0,1,38,1,1179.3999999761581,39,0,478.300000011921,0,0,experiment,NA,NA,2,0.5,0.5,4,5,138,4,NA
fcp-trial,187,923769,0.0-148.0-0.0,voc_e2,11709,"[{""event"":""fullscreenenter"",""trial"":1,""time"":2047}]",NA,NA,NA,NA,NA,2,#1CD855,#FA92F8,10,0,1,38,1,860.5,37,1,565.1999999880791,10,1,experiment,NA,NA,0,0.9,0.1,0,1,139,4,NA
fcp-trial,188,926557,0.0-149.0-0.0,voc_e2,11709,"[{""event"":""fullscreenenter"",""trial"":1,""time"":2047}]",NA,NA,NA,NA,NA,3,#1CD855,#FA92F8,10,0,1,38,1,749,37,1,531.2999999821186,10,1,experiment,NA,NA,0,0.9,0.1,0,1,140,4,NA
fcp-trial,189,929832,0.0-150.0-0.0,voc_e2,11709,"[{""event"":""fullscreenenter"",""trial"":1,""time"":2047}]",NA,NA,NA,NA,NA,5,#741CD8,#D8271C,10,10,0,40,0,1169.9000000059605,39,0,594.9000000059605,10,1,experiment,NA,NA,1,0.3,0.7,3,2,141,4,NA
fcp-trial,190,933371,0.0-151.0-0.0,voc_e2,11709,"[{""event"":""fullscreenenter"",""trial"":1,""time"":2047}]",NA,NA,NA,NA,NA,6,#D89F1C,#3386FF,0,0,0,40,0,1328.5,37,1,699.4000000059605,0,0,experiment,NA,NA,2,0.5,0.5,5,4,142,4,NA
fcp-trial,191,936880,0.0-152.0-0.0,voc_e2,11709,"[{""event"":""fullscreenenter"",""trial"":1,""time"":2047}]",NA,NA,NA,NA,NA,0,#D8271C,#741CD8,0,10,1,38,1,1059.0999999940395,37,1,940.3000000119208,0,1,experiment,NA,NA,1,0.7,0.3,2,3,143,4,NA
fcp-trial,192,940633,0.0-153.0-0.0,voc_e2,11709,"[{""event"":""fullscreenenter"",""trial"":1,""time"":2047}]",NA,NA,NA,NA,NA,5,#D89F1C,#3386FF,0,0,0,40,0,1701.1000000238419,39,0,539.8000000119209,0,1,experiment,NA,NA,2,0.5,0.5,5,4,144,4,NA
fcp-trial,193,943507,0.0-154.0-0.0,voc_e2,11709,"[{""event"":""fullscreenenter"",""trial"":1,""time"":2047}]",NA,NA,NA,NA,NA,4,#1CD855,#FA92F8,10,0,1,38,1,843.2000000178814,37,1,525.0999999940395,10,1,experiment,NA,NA,0,0.9,0.1,0,1,145,4,NA
fcp-trial,194,947221,0.0-155.0-0.0,voc_e2,11709,"[{""event"":""fullscreenenter"",""trial"":1,""time"":2047}]",NA,NA,NA,NA,NA,3,#3386FF,#D89F1C,10,0,1,38,1,1509.4000000059605,37,1,695.4000000059605,10,1,experiment,NA,NA,2,0.5,0.5,4,5,146,4,NA
fcp-trial,195,949957,0.0-156.0-0.0,voc_e2,11709,"[{""event"":""fullscreenenter"",""trial"":1,""time"":2047}]",NA,NA,NA,NA,NA,6,#FA92F8,#1CD855,0,10,0,38,1,677.1000000238419,39,0,549.9000000059605,10,1,experiment,NA,NA,0,0.1,0.9,1,0,147,4,NA
fcp-trial,196,955163,0.0-157.0-0.0,voc_e2,11709,"[{""event"":""fullscreenenter"",""trial"":1,""time"":2047}]",NA,NA,NA,NA,NA,1,#D8271C,#741CD8,10,0,1,38,1,1709.5999999940395,39,0,1986.5999999940395,0,0,experiment,NA,NA,1,0.7,0.3,2,3,148,4,NA
fcp-trial,197,958482,0.0-158.0-0.0,voc_e2,11709,"[{""event"":""fullscreenenter"",""trial"":1,""time"":2047}]",NA,NA,NA,NA,NA,0,#741CD8,#D8271C,10,10,0,38,1,1264.7999999821186,39,0,542.5999999940395,10,1,experiment,NA,NA,1,0.3,0.7,3,2,149,4,NA
fcp-trial,198,961556,0.0-159.0-0.0,voc_e2,11709,"[{""event"":""fullscreenenter"",""trial"":1,""time"":2047}]",NA,NA,NA,NA,NA,2,#1CD855,#FA92F8,10,0,1,38,1,980.5,37,1,582.3999999761581,10,1,experiment,NA,NA,0,0.9,0.1,0,1,150,4,NA
fcp-trial,199,964881,0.0-160.0-0.0,voc_e2,11709,"[{""event"":""fullscreenenter"",""trial"":1,""time"":2047}]",NA,NA,NA,NA,NA,5,#3386FF,#D89F1C,0,0,1,40,0,1277.0999999940395,39,0,538.8000000119209,0,0,experiment,NA,NA,2,0.5,0.5,4,5,151,4,NA
fcp-trial,200,967806,0.0-161.0-0.0,voc_e2,11709,"[{""event"":""fullscreenenter"",""trial"":1,""time"":2047}]",NA,NA,NA,NA,NA,1,#1CD855,#FA92F8,10,0,1,38,1,865.1999999880791,37,1,549.5999999940395,10,1,experiment,NA,NA,0,0.9,0.1,0,1,152,4,NA
fcp-trial,201,971502,0.0-162.0-0.0,voc_e2,11709,"[{""event"":""fullscreenenter"",""trial"":1,""time"":2047}]",NA,NA,NA,NA,NA,3,#D8271C,#741CD8,10,0,1,40,0,1574.9000000059605,37,1,610.5999999940395,10,1,experiment,NA,NA,1,0.7,0.3,2,3,153,4,NA
fcp-trial,202,974359,0.0-163.0-0.0,voc_e2,11709,"[{""event"":""fullscreenenter"",""trial"":1,""time"":2047}]",NA,NA,NA,NA,NA,3,#FA92F8,#1CD855,0,10,0,38,1,823.2999999821186,39,0,523.1999999880791,10,1,experiment,NA,NA,0,0.1,0.9,1,0,154,4,NA
fcp-trial,203,977459,0.0-164.0-0.0,voc_e2,11709,"[{""event"":""fullscreenenter"",""trial"":1,""time"":2047}]",NA,NA,NA,NA,NA,6,#D89F1C,#3386FF,10,10,0,40,0,999.5999999940395,39,0,588.8000000119209,10,1,experiment,NA,NA,2,0.5,0.5,5,4,155,4,NA
fcp-trial,204,980513,0.0-165.0-0.0,voc_e2,11709,"[{""event"":""fullscreenenter"",""trial"":1,""time"":2047}]",NA,NA,NA,NA,NA,5,#D8271C,#741CD8,10,0,1,40,0,896,37,1,644.7999999821186,10,1,experiment,NA,NA,1,0.7,0.3,2,3,156,4,NA
fcp-trial,205,983472,0.0-166.0-0.0,voc_e2,11709,"[{""event"":""fullscreenenter"",""trial"":1,""time"":2047}]",NA,NA,NA,NA,NA,6,#D8271C,#741CD8,0,0,1,40,0,807.1999999880791,37,1,642.1999999880791,0,1,experiment,NA,NA,1,0.7,0.3,2,3,157,4,NA
fcp-trial,206,986931,0.0-167.0-0.0,voc_e2,11709,"[{""event"":""fullscreenenter"",""trial"":1,""time"":2047}]",NA,NA,NA,NA,NA,4,#1CD855,#FA92F8,10,0,1,38,1,1410.7000000178814,37,1,539.8000000119209,10,1,experiment,NA,NA,0,0.9,0.1,0,1,158,4,NA
fcp-trial,207,990340,0.0-168.0-0.0,voc_e2,11709,"[{""event"":""fullscreenenter"",""trial"":1,""time"":2047}]",NA,NA,NA,NA,NA,1,#3386FF,#D89F1C,10,0,1,38,1,1045.8999999761581,37,1,853.2000000178814,10,1,experiment,NA,NA,2,0.5,0.5,4,5,159,4,NA
fcp-trial,208,993685,0.0-169.0-0.0,voc_e2,11709,"[{""event"":""fullscreenenter"",""trial"":1,""time"":2047}]",NA,NA,NA,NA,NA,0,#3386FF,#D89F1C,10,0,1,38,1,1095.199999988079,37,1,741.2000000178814,10,1,experiment,NA,NA,2,0.5,0.5,4,5,160,4,NA
fcp-trial,209,997273,0.0-170.0-0.0,voc_e2,11709,"[{""event"":""fullscreenenter"",""trial"":1,""time"":2047}]",NA,NA,NA,NA,NA,5,#FA92F8,#1CD855,0,10,0,38,1,1603.2000000178814,39,0,475,10,1,experiment,NA,NA,0,0.1,0.9,1,0,161,4,NA
fcp-trial,210,1000440,0.0-171.0-0.0,voc_e2,11709,"[{""event"":""fullscreenenter"",""trial"":1,""time"":2047}]",NA,NA,NA,NA,NA,2,#741CD8,#D8271C,10,10,0,38,1,910.3000000119209,37,1,749.5999999940395,10,0,experiment,NA,NA,1,0.3,0.7,3,2,162,4,NA
fcp-trial,211,1003289,0.0-172.0-0.0,voc_e2,11709,"[{""event"":""fullscreenenter"",""trial"":1,""time"":2047}]",NA,NA,NA,NA,NA,0,#1CD855,#FA92F8,10,0,1,38,1,775.7000000178814,37,1,566.5,10,1,experiment,NA,NA,0,0.9,0.1,0,1,163,4,NA
fcp-trial,212,1006237,0.0-173.0-0.0,voc_e2,11709,"[{""event"":""fullscreenenter"",""trial"":1,""time"":2047}]",NA,NA,NA,NA,NA,2,#3386FF,#D89F1C,0,10,1,38,1,845.5,37,1,594.1000000238419,0,1,experiment,NA,NA,2,0.5,0.5,4,5,164,4,NA
fcp-trial,213,1009578,0.0-174.0-0.0,voc_e2,11709,"[{""event"":""fullscreenenter"",""trial"":1,""time"":2047}]",NA,NA,NA,NA,NA,4,#D89F1C,#3386FF,0,0,0,40,0,1167.4000000059605,37,1,663.6999999880791,0,0,experiment,NA,NA,2,0.5,0.5,5,4,165,4,NA
fcp-trial,214,1012865,0.0-175.0-0.0,voc_e2,11709,"[{""event"":""fullscreenenter"",""trial"":1,""time"":2047}]",NA,NA,NA,NA,NA,4,#D8271C,#741CD8,10,0,1,38,1,925.1999999880791,39,0,852.5999999940395,0,0,experiment,NA,NA,1,0.7,0.3,2,3,166,4,NA
fcp-trial,215,1016003,0.0-176.0-0.0,voc_e2,11709,"[{""event"":""fullscreenenter"",""trial"":1,""time"":2047}]",NA,NA,NA,NA,NA,6,#FA92F8,#1CD855,0,10,0,38,1,1017.7000000178814,39,0,600.5,10,1,experiment,NA,NA,0,0.1,0.9,1,0,167,4,NA
fcp-trial,216,1020310,0.0-177.0-0.0,voc_e2,11709,"[{""event"":""fullscreenenter"",""trial"":1,""time"":2047}]",NA,NA,NA,NA,NA,3,#3386FF,#D89F1C,10,10,1,40,0,2165.4000000059605,39,0,632.0999999940395,10,0,experiment,NA,NA,2,0.5,0.5,4,5,168,4,NA
fcp-trial,217,1023402,0.0-178.0-0.0,voc_e2,11709,"[{""event"":""fullscreenenter"",""trial"":1,""time"":2047}]",NA,NA,NA,NA,NA,6,#D8271C,#741CD8,0,0,1,40,0,1012.0999999940395,39,0,569.5,0,0,experiment,NA,NA,1,0.7,0.3,2,3,169,4,NA
fcp-trial,218,1026572,0.0-179.0-0.0,voc_e2,11709,"[{""event"":""fullscreenenter"",""trial"":1,""time"":2047}]",NA,NA,NA,NA,NA,1,#1CD855,#FA92F8,10,0,1,38,1,1177.6000000238419,37,1,480.90000000596046,10,1,experiment,NA,NA,0,0.9,0.1,0,1,170,4,NA
fcp-trial,219,1029435,0.0-180.0-0.0,voc_e2,11709,"[{""event"":""fullscreenenter"",""trial"":1,""time"":2047}]",NA,NA,NA,NA,NA,2,#1CD855,#FA92F8,10,0,1,38,1,814,37,1,537.0999999940395,10,1,experiment,NA,NA,0,0.9,0.1,0,1,171,4,NA
fcp-trial,220,1032667,0.0-181.0-0.0,voc_e2,11709,"[{""event"":""fullscreenenter"",""trial"":1,""time"":2047}]",NA,NA,NA,NA,NA,0,#D89F1C,#3386FF,10,0,0,38,1,1163.6000000238419,39,0,559.8000000119209,0,1,experiment,NA,NA,2,0.5,0.5,5,4,172,4,NA
fcp-trial,221,1036819,0.0-182.0-0.0,voc_e2,11709,"[{""event"":""fullscreenenter"",""trial"":1,""time"":2047}]",NA,NA,NA,NA,NA,1,#D8271C,#741CD8,0,0,1,38,1,880.0999999940395,39,0,738.5,0,0,experiment,NA,NA,1,0.7,0.3,2,3,173,4,NA
fcp-trial,222,1040131,0.0-183.0-0.0,voc_e2,11709,"[{""event"":""fullscreenenter"",""trial"":1,""time"":2047}]",NA,NA,NA,NA,NA,5,#D89F1C,#3386FF,0,0,0,40,0,1226.0999999940395,39,0,515.0999999940395,0,1,experiment,NA,NA,2,0.5,0.5,5,4,174,4,NA
fcp-trial,223,1042927,0.0-184.0-0.0,voc_e2,11709,"[{""event"":""fullscreenenter"",""trial"":1,""time"":2047}]",NA,NA,NA,NA,NA,6,#1CD855,#FA92F8,10,0,1,38,1,732.5,37,1,546.9000000059605,10,1,experiment,NA,NA,0,0.9,0.1,0,1,175,4,NA
fcp-trial,224,1045678,0.0-185.0-0.0,voc_e2,11709,"[{""event"":""fullscreenenter"",""trial"":1,""time"":2047}]",NA,NA,NA,NA,NA,4,#1CD855,#FA92F8,10,0,1,38,1,705.5,37,1,534.4000000059605,10,1,experiment,NA,NA,0,0.9,0.1,0,1,176,4,NA
fcp-trial,225,1048566,0.0-186.0-0.0,voc_e2,11709,"[{""event"":""fullscreenenter"",""trial"":1,""time"":2047}]",NA,NA,NA,NA,NA,1,#3386FF,#D89F1C,0,0,1,38,1,876.7000000178814,37,1,503.800000011921,0,1,experiment,NA,NA,2,0.5,0.5,4,5,177,4,NA
fcp-trial,226,1051635,0.0-187.0-0.0,voc_e2,11709,"[{""event"":""fullscreenenter"",""trial"":1,""time"":2047}]",NA,NA,NA,NA,NA,3,#D8271C,#741CD8,10,0,1,38,1,963.5,39,0,593.5,0,0,experiment,NA,NA,1,0.7,0.3,2,3,178,4,NA
fcp-trial,227,1054602,0.0-188.0-0.0,voc_e2,11709,"[{""event"":""fullscreenenter"",""trial"":1,""time"":2047}]",NA,NA,NA,NA,NA,0,#741CD8,#D8271C,0,10,0,38,1,751.3000000119209,39,0,706.3999999761581,10,1,experiment,NA,NA,1,0.3,0.7,3,2,179,4,NA
fcp-trial,228,1057521,0.0-189.0-0.0,voc_e2,11709,"[{""event"":""fullscreenenter"",""trial"":1,""time"":2047}]",NA,NA,NA,NA,NA,3,#1CD855,#FA92F8,10,0,1,38,1,796.0999999940395,37,1,613.5,10,1,experiment,NA,NA,0,0.9,0.1,0,1,180,4,NA
fcp-trial,229,1060492,0.0-190.0-0.0,voc_e2,11709,"[{""event"":""fullscreenenter"",""trial"":1,""time"":2047}]",NA,NA,NA,NA,NA,4,#D89F1C,#3386FF,0,0,0,38,1,960.4000000059605,39,0,501.300000011921,0,1,experiment,NA,NA,2,0.5,0.5,5,4,181,5,NA
fcp-trial,230,1063621,0.0-191.0-0.0,voc_e2,11709,"[{""event"":""fullscreenenter"",""trial"":1,""time"":2047}]",NA,NA,NA,NA,NA,4,#741CD8,#D8271C,10,10,0,38,1,1125,39,0,492,10,1,experiment,NA,NA,1,0.3,0.7,3,2,182,5,NA
fcp-trial,231,1066590,0.0-192.0-0.0,voc_e2,11709,"[{""event"":""fullscreenenter"",""trial"":1,""time"":2047}]",NA,NA,NA,NA,NA,3,#D89F1C,#3386FF,0,10,0,38,1,970.5,39,0,489.90000000596046,10,1,experiment,NA,NA,2,0.5,0.5,5,4,183,5,NA
fcp-trial,232,1069396,0.0-193.0-0.0,voc_e2,11709,"[{""event"":""fullscreenenter"",""trial"":1,""time"":2047}]",NA,NA,NA,NA,NA,5,#1CD855,#FA92F8,10,10,1,38,1,758.1999999880791,37,1,537.5,10,1,experiment,NA,NA,0,0.9,0.1,0,1,184,5,NA
fcp-trial,233,1072247,0.0-194.0-0.0,voc_e2,11709,"[{""event"":""fullscreenenter"",""trial"":1,""time"":2047}]",NA,NA,NA,NA,NA,2,#3386FF,#D89F1C,10,10,1,38,1,774.2999999821186,37,1,565.9000000059605,10,1,experiment,NA,NA,2,0.5,0.5,4,5,185,5,NA
fcp-trial,234,1075222,0.0-195.0-0.0,voc_e2,11709,"[{""event"":""fullscreenenter"",""trial"":1,""time"":2047}]",NA,NA,NA,NA,NA,2,#741CD8,#D8271C,0,10,0,38,1,998.6999999880791,39,0,465,10,1,experiment,NA,NA,1,0.3,0.7,3,2,186,5,NA
fcp-trial,235,1077991,0.0-196.0-0.0,voc_e2,11709,"[{""event"":""fullscreenenter"",""trial"":1,""time"":2047}]",NA,NA,NA,NA,NA,5,#741CD8,#D8271C,0,0,0,38,1,778.5,39,0,481.5,0,1,experiment,NA,NA,1,0.3,0.7,3,2,187,5,NA
fcp-trial,236,1081875,0.0-197.0-0.0,voc_e2,11709,"[{""event"":""fullscreenenter"",""trial"":1,""time"":2047}]",NA,NA,NA,NA,NA,6,#3386FF,#D89F1C,0,0,1,40,0,1819.3999999761581,39,0,553.5,0,0,experiment,NA,NA,2,0.5,0.5,4,5,188,5,NA
fcp-trial,237,1084593,0.0-198.0-0.0,voc_e2,11709,"[{""event"":""fullscreenenter"",""trial"":1,""time"":2047}]",NA,NA,NA,NA,NA,0,#FA92F8,#1CD855,0,10,0,38,1,745.4000000059605,39,0,461,10,1,experiment,NA,NA,0,0.1,0.9,1,0,189,5,NA
fcp-trial,238,1087771,0.0-199.0-0.0,voc_e2,11709,"[{""event"":""fullscreenenter"",""trial"":1,""time"":2047}]",NA,NA,NA,NA,NA,0,#D89F1C,#3386FF,10,0,0,38,1,1073.4000000059605,39,0,594.7999999821186,0,1,experiment,NA,NA,2,0.5,0.5,5,4,190,5,NA
fcp-trial,239,1090594,0.0-200.0-0.0,voc_e2,11709,"[{""event"":""fullscreenenter"",""trial"":1,""time"":2047}]",NA,NA,NA,NA,NA,5,#3386FF,#D89F1C,10,10,1,38,1,748.7000000178814,39,0,566.2999999821186,10,0,experiment,NA,NA,2,0.5,0.5,4,5,191,5,NA
fcp-trial,240,1093628,0.0-201.0-0.0,voc_e2,11709,"[{""event"":""fullscreenenter"",""trial"":1,""time"":2047}]",NA,NA,NA,NA,NA,3,#1CD855,#FA92F8,0,0,1,38,1,1004,37,1,519.1999999880791,0,1,experiment,NA,NA,0,0.9,0.1,0,1,192,5,NA
fcp-trial,241,1096975,0.0-202.0-0.0,voc_e2,11709,"[{""event"":""fullscreenenter"",""trial"":1,""time"":2047}]",NA,NA,NA,NA,NA,6,#D8271C,#741CD8,10,0,1,40,0,1238.1000000238419,39,0,598.6999999880791,0,0,experiment,NA,NA,1,0.7,0.3,2,3,193,5,NA
fcp-trial,242,1100268,0.0-203.0-0.0,voc_e2,11709,"[{""event"":""fullscreenenter"",""trial"":1,""time"":2047}]",NA,NA,NA,NA,NA,6,#D89F1C,#3386FF,0,10,0,40,0,1190,39,0,593.9000000059605,10,1,experiment,NA,NA,2,0.5,0.5,5,4,194,5,NA
fcp-trial,243,1104256,0.0-204.0-0.0,voc_e2,11709,"[{""event"":""fullscreenenter"",""trial"":1,""time"":2047}]",NA,NA,NA,NA,NA,3,#D8271C,#741CD8,0,10,1,38,1,1994.2999999821186,37,1,484.7999999821186,0,1,experiment,NA,NA,1,0.7,0.3,2,3,195,5,NA
fcp-trial,244,1107046,0.0-205.0-0.0,voc_e2,11709,"[{""event"":""fullscreenenter"",""trial"":1,""time"":2047}]",NA,NA,NA,NA,NA,5,#FA92F8,#1CD855,10,10,0,38,1,822.3000000119209,39,0,457.800000011921,10,1,experiment,NA,NA,0,0.1,0.9,1,0,196,5,NA
fcp-trial,245,1109705,0.0-206.0-0.0,voc_e2,11709,"[{""event"":""fullscreenenter"",""trial"":1,""time"":2047}]",NA,NA,NA,NA,NA,6,#1CD855,#FA92F8,10,10,1,38,1,630,37,1,517.2000000178814,10,1,experiment,NA,NA,0,0.9,0.1,0,1,197,5,NA
fcp-trial,246,1112820,0.0-207.0-0.0,voc_e2,11709,"[{""event"":""fullscreenenter"",""trial"":1,""time"":2047}]",NA,NA,NA,NA,NA,1,#741CD8,#D8271C,10,10,0,38,1,1092.199999988079,39,0,510.89999997615814,10,1,experiment,NA,NA,1,0.3,0.7,3,2,198,5,NA
fcp-trial,247,1115894,0.0-208.0-0.0,voc_e2,11709,"[{""event"":""fullscreenenter"",""trial"":1,""time"":2047}]",NA,NA,NA,NA,NA,3,#3386FF,#D89F1C,0,0,1,38,1,959.3000000119209,37,1,606.5999999940395,0,1,experiment,NA,NA,2,0.5,0.5,4,5,199,5,NA
fcp-trial,248,1118613,0.0-209.0-0.0,voc_e2,11709,"[{""event"":""fullscreenenter"",""trial"":1,""time"":2047}]",NA,NA,NA,NA,NA,1,#3386FF,#D89F1C,10,10,1,38,1,689.3999999761581,37,1,518,10,1,experiment,NA,NA,2,0.5,0.5,4,5,200,5,NA
fcp-trial,249,1121390,0.0-210.0-0.0,voc_e2,11709,"[{""event"":""fullscreenenter"",""trial"":1,""time"":2047}]",NA,NA,NA,NA,NA,1,#1CD855,#FA92F8,10,0,1,38,1,807.9000000059605,37,1,457.5,10,1,experiment,NA,NA,0,0.9,0.1,0,1,201,5,NA
fcp-trial,250,1125358,0.0-211.0-0.0,voc_e2,11709,"[{""event"":""fullscreenenter"",""trial"":1,""time"":2047}]",NA,NA,NA,NA,NA,4,#741CD8,#D8271C,0,10,0,38,1,1074.2999999821186,39,0,1383.300000011921,10,1,experiment,NA,NA,1,0.3,0.7,3,2,202,5,NA
fcp-trial,251,1128007,0.0-212.0-0.0,voc_e2,11709,"[{""event"":""fullscreenenter"",""trial"":1,""time"":2047}]",NA,NA,NA,NA,NA,4,#FA92F8,#1CD855,0,10,0,38,1,642.3000000119209,39,0,495.2999999821186,10,1,experiment,NA,NA,0,0.1,0.9,1,0,203,5,NA
fcp-trial,252,1130924,0.0-213.0-0.0,voc_e2,11709,"[{""event"":""fullscreenenter"",""trial"":1,""time"":2047}]",NA,NA,NA,NA,NA,4,#3386FF,#D89F1C,0,10,1,38,1,848.0999999940395,37,1,559.2999999821186,0,1,experiment,NA,NA,2,0.5,0.5,4,5,204,5,NA
fcp-trial,253,1134880,0.0-214.0-0.0,voc_e2,11709,"[{""event"":""fullscreenenter"",""trial"":1,""time"":2047}]",NA,NA,NA,NA,NA,5,#D8271C,#741CD8,0,0,1,40,0,1864.699999988079,39,0,581.8000000119209,0,0,experiment,NA,NA,1,0.7,0.3,2,3,205,5,NA
fcp-trial,254,1137571,0.0-215.0-0.0,voc_e2,11709,"[{""event"":""fullscreenenter"",""trial"":1,""time"":2047}]",NA,NA,NA,NA,NA,2,#D8271C,#741CD8,10,0,1,38,1,708,37,1,466.40000000596046,10,1,experiment,NA,NA,1,0.7,0.3,2,3,206,5,NA
fcp-trial,255,1140306,0.0-216.0-0.0,voc_e2,11709,"[{""event"":""fullscreenenter"",""trial"":1,""time"":2047}]",NA,NA,NA,NA,NA,2,#FA92F8,#1CD855,0,10,0,38,1,712.5999999940395,39,0,511.40000000596046,10,1,experiment,NA,NA,0,0.1,0.9,1,0,207,5,NA
fcp-trial,256,1143455,0.0-217.0-0.0,voc_e2,11709,"[{""event"":""fullscreenenter"",""trial"":1,""time"":2047}]",NA,NA,NA,NA,NA,2,#D89F1C,#3386FF,10,0,0,38,1,1198.199999988079,39,0,438,0,1,experiment,NA,NA,2,0.5,0.5,5,4,208,5,NA
fcp-trial,257,1146036,0.0-218.0-0.0,voc_e2,11709,"[{""event"":""fullscreenenter"",""trial"":1,""time"":2047}]",NA,NA,NA,NA,NA,0,#1CD855,#FA92F8,10,0,1,38,1,567.0999999940395,37,1,506.59999999403954,10,1,experiment,NA,NA,0,0.9,0.1,0,1,209,5,NA
fcp-trial,258,1149203,0.0-219.0-0.0,voc_e2,11709,"[{""event"":""fullscreenenter"",""trial"":1,""time"":2047}]",NA,NA,NA,NA,NA,0,#D8271C,#741CD8,0,0,1,38,1,944.9000000059605,37,1,710.6999999880791,0,1,experiment,NA,NA,1,0.7,0.3,2,3,210,5,NA
audio-instructions,259,1154266,0.0-220.0,voc_e2,11709,"[{""event"":""fullscreenenter"",""trial"":1,""time"":2047}]",NA,557.9000000059605,static/audio/pause.wav,NA,0,NA,NA,NA,NA,NA,NA,NA,NA,NA,NA,NA,NA,NA,NA,NA,NA,NA,NA,NA,NA,NA,NA,NA,NA,NA
fcp-trial,260,1157657,0.0-221.0-0.0,voc_e2,11709,"[{""event"":""fullscreenenter"",""trial"":1,""time"":2047}]",NA,NA,NA,NA,NA,5,#3386FF,#D89F1C,10,10,1,40,0,1350.5999999940395,37,1,530.1999999880791,10,1,experiment,NA,NA,2,0.5,0.5,4,5,211,5,NA
fcp-trial,261,1161104,0.0-222.0-0.0,voc_e2,11709,"[{""event"":""fullscreenenter"",""trial"":1,""time"":2047}]",NA,NA,NA,NA,NA,0,#D89F1C,#3386FF,0,0,0,38,1,1397,39,0,539.2000000178814,0,1,experiment,NA,NA,2,0.5,0.5,5,4,212,5,NA
fcp-trial,262,1163907,0.0-223.0-0.0,voc_e2,11709,"[{""event"":""fullscreenenter"",""trial"":1,""time"":2047}]",NA,NA,NA,NA,NA,3,#3386FF,#D89F1C,0,0,1,38,1,791.2000000178814,37,1,503,0,1,experiment,NA,NA,2,0.5,0.5,4,5,213,5,NA
fcp-trial,263,1166804,0.0-224.0-0.0,voc_e2,11709,"[{""event"":""fullscreenenter"",""trial"":1,""time"":2047}]",NA,NA,NA,NA,NA,1,#D8271C,#741CD8,10,10,1,38,1,838.7999999821186,37,1,550,10,1,experiment,NA,NA,1,0.7,0.3,2,3,214,5,NA
fcp-trial,264,1169491,0.0-225.0-0.0,voc_e2,11709,"[{""event"":""fullscreenenter"",""trial"":1,""time"":2047}]",NA,NA,NA,NA,NA,5,#FA92F8,#1CD855,0,10,0,38,1,699.3999999761581,39,0,479.7999999821186,10,1,experiment,NA,NA,0,0.1,0.9,1,0,215,5,NA
fcp-trial,265,1172833,0.0-226.0-0.0,voc_e2,11709,"[{""event"":""fullscreenenter"",""trial"":1,""time"":2047}]",NA,NA,NA,NA,NA,2,#D89F1C,#3386FF,10,10,0,38,1,1383.1000000238419,39,0,449.40000000596046,10,1,experiment,NA,NA,2,0.5,0.5,5,4,216,5,NA
fcp-trial,266,1175500,0.0-227.0-0.0,voc_e2,11709,"[{""event"":""fullscreenenter"",""trial"":1,""time"":2047}]",NA,NA,NA,NA,NA,2,#FA92F8,#1CD855,10,10,0,38,1,671.7999999821186,39,0,482.699999988079,10,1,experiment,NA,NA,0,0.1,0.9,1,0,217,5,NA
fcp-trial,267,1179716,0.0-228.0-0.0,voc_e2,11709,"[{""event"":""fullscreenenter"",""trial"":1,""time"":2047}]",NA,NA,NA,NA,NA,3,#D8271C,#741CD8,10,0,1,38,1,1483.3999999761581,39,0,1216.199999988079,0,0,experiment,NA,NA,1,0.7,0.3,2,3,218,5,NA
fcp-trial,268,1182441,0.0-229.0-0.0,voc_e2,11709,"[{""event"":""fullscreenenter"",""trial"":1,""time"":2047}]",NA,NA,NA,NA,NA,4,#741CD8,#D8271C,0,10,0,38,1,659.7999999821186,39,0,553.2999999821186,10,1,experiment,NA,NA,1,0.3,0.7,3,2,219,5,NA
fcp-trial,269,1185280,0.0-230.0-0.0,voc_e2,11709,"[{""event"":""fullscreenenter"",""trial"":1,""time"":2047}]",NA,NA,NA,NA,NA,6,#3386FF,#D89F1C,10,10,1,38,1,798.5,37,1,532.5,10,1,experiment,NA,NA,2,0.5,0.5,4,5,220,5,NA
fcp-trial,270,1187930,0.0-231.0-0.0,voc_e2,11709,"[{""event"":""fullscreenenter"",""trial"":1,""time"":2047}]",NA,NA,NA,NA,NA,3,#1CD855,#FA92F8,10,10,1,38,1,590,37,1,549.3000000119209,10,1,experiment,NA,NA,0,0.9,0.1,0,1,221,5,NA
fcp-trial,271,1191233,0.0-232.0-0.0,voc_e2,11709,"[{""event"":""fullscreenenter"",""trial"":1,""time"":2047}]",NA,NA,NA,NA,NA,5,#D8271C,#741CD8,10,10,1,38,1,1239.9000000059605,37,1,553.5999999940395,10,1,experiment,NA,NA,1,0.7,0.3,2,3,222,5,NA
fcp-trial,272,1194257,0.0-233.0-0.0,voc_e2,11709,"[{""event"":""fullscreenenter"",""trial"":1,""time"":2047}]",NA,NA,NA,NA,NA,1,#3386FF,#D89F1C,10,10,1,38,1,969.7999999821186,37,1,538.7000000178814,10,1,experiment,NA,NA,2,0.5,0.5,4,5,223,5,NA
fcp-trial,273,1197001,0.0-234.0-0.0,voc_e2,11709,"[{""event"":""fullscreenenter"",""trial"":1,""time"":2047}]",NA,NA,NA,NA,NA,6,#FA92F8,#1CD855,0,10,0,38,1,739.4000000059605,39,0,495.199999988079,10,1,experiment,NA,NA,0,0.1,0.9,1,0,224,5,NA
fcp-trial,274,1201133,0.0-235.0-0.0,voc_e2,11709,"[{""event"":""fullscreenenter"",""trial"":1,""time"":2047}]",NA,NA,NA,NA,NA,6,#741CD8,#D8271C,0,10,0,40,0,2099.199999988079,39,0,520.0999999940395,10,1,experiment,NA,NA,1,0.3,0.7,3,2,225,5,NA
fcp-trial,275,1204908,0.0-236.0-0.0,voc_e2,11709,"[{""event"":""fullscreenenter"",""trial"":1,""time"":2047}]",NA,NA,NA,NA,NA,0,#741CD8,#D8271C,0,0,0,38,1,1553,39,0,700.4000000059605,0,1,experiment,NA,NA,1,0.3,0.7,3,2,226,6,NA
fcp-trial,276,1207774,0.0-237.0-0.0,voc_e2,11709,"[{""event"":""fullscreenenter"",""trial"":1,""time"":2047}]",NA,NA,NA,NA,NA,1,#1CD855,#FA92F8,10,0,1,38,1,762.9000000059605,37,1,563.2999999821186,10,1,experiment,NA,NA,0,0.9,0.1,0,1,227,6,NA
fcp-trial,277,1210615,0.0-238.0-0.0,voc_e2,11709,"[{""event"":""fullscreenenter"",""trial"":1,""time"":2047}]",NA,NA,NA,NA,NA,4,#3386FF,#D89F1C,0,10,1,38,1,761.1999999880791,37,1,567.8999999761581,0,1,experiment,NA,NA,2,0.5,0.5,4,5,228,6,NA
fcp-trial,278,1213598,0.0-239.0-0.0,voc_e2,11709,"[{""event"":""fullscreenenter"",""trial"":1,""time"":2047}]",NA,NA,NA,NA,NA,2,#D8271C,#741CD8,10,0,1,38,1,855.5,37,1,615.3000000119209,10,1,experiment,NA,NA,1,0.7,0.3,2,3,229,6,NA
fcp-trial,279,1216391,0.0-240.0-0.0,voc_e2,11709,"[{""event"":""fullscreenenter"",""trial"":1,""time"":2047}]",NA,NA,NA,NA,NA,0,#FA92F8,#1CD855,0,10,0,38,1,670.0999999940395,39,0,613.6999999880791,10,1,experiment,NA,NA,0,0.1,0.9,1,0,230,6,NA
fcp-trial,280,1219134,0.0-241.0-0.0,voc_e2,11709,"[{""event"":""fullscreenenter"",""trial"":1,""time"":2047}]",NA,NA,NA,NA,NA,4,#FA92F8,#1CD855,0,10,0,38,1,746.5999999940395,39,0,486.5,10,1,experiment,NA,NA,0,0.1,0.9,1,0,231,6,NA
fcp-trial,281,1221735,0.0-242.0-0.0,voc_e2,11709,"[{""event"":""fullscreenenter"",""trial"":1,""time"":2047}]",NA,NA,NA,NA,NA,4,#FA92F8,#1CD855,0,10,0,38,1,555.3000000119209,39,0,533.9000000059605,10,1,experiment,NA,NA,0,0.1,0.9,1,0,232,6,NA
fcp-trial,282,1225068,0.0-243.0-0.0,voc_e2,11709,"[{""event"":""fullscreenenter"",""trial"":1,""time"":2047}]",NA,NA,NA,NA,NA,5,#3386FF,#D89F1C,10,10,1,40,0,1181.199999988079,37,1,640.3000000119209,10,1,experiment,NA,NA,2,0.5,0.5,4,5,233,6,NA
fcp-trial,283,1228127,0.0-244.0-0.0,voc_e2,11709,"[{""event"":""fullscreenenter"",""trial"":1,""time"":2047}]",NA,NA,NA,NA,NA,1,#D8271C,#741CD8,10,0,1,38,1,931,37,1,617.2999999821186,10,1,experiment,NA,NA,1,0.7,0.3,2,3,234,6,NA
fcp-trial,284,1231471,0.0-245.0-0.0,voc_e2,11709,"[{""event"":""fullscreenenter"",""trial"":1,""time"":2047}]",NA,NA,NA,NA,NA,4,#D8271C,#741CD8,10,0,1,40,0,1249.4000000059605,39,0,585.3000000119209,0,0,experiment,NA,NA,1,0.7,0.3,2,3,235,6,NA
fcp-trial,285,1234682,0.0-246.0-0.0,voc_e2,11709,"[{""event"":""fullscreenenter"",""trial"":1,""time"":2047}]",NA,NA,NA,NA,NA,4,#D89F1C,#3386FF,0,0,0,38,1,1254.800000011921,39,0,447.2000000178814,0,1,experiment,NA,NA,2,0.5,0.5,5,4,236,6,NA
fcp-trial,286,1237440,0.0-247.0-0.0,voc_e2,11709,"[{""event"":""fullscreenenter"",""trial"":1,""time"":2047}]",NA,NA,NA,NA,NA,2,#FA92F8,#1CD855,0,10,0,38,1,719.5,39,0,517.7000000178814,10,1,experiment,NA,NA,0,0.1,0.9,1,0,237,6,NA
fcp-trial,287,1240253,0.0-248.0-0.0,voc_e2,11709,"[{""event"":""fullscreenenter"",""trial"":1,""time"":2047}]",NA,NA,NA,NA,NA,1,#D89F1C,#3386FF,10,0,0,38,1,796.8000000119209,39,0,508.09999999403954,0,1,experiment,NA,NA,2,0.5,0.5,5,4,238,6,NA
fcp-trial,288,1242935,0.0-249.0-0.0,voc_e2,11709,"[{""event"":""fullscreenenter"",""trial"":1,""time"":2047}]",NA,NA,NA,NA,NA,3,#3386FF,#D89F1C,10,0,1,38,1,602.4000000059605,37,1,567.7000000178814,10,1,experiment,NA,NA,2,0.5,0.5,4,5,239,6,NA
fcp-trial,289,1246365,0.0-250.0-0.0,voc_e2,11709,"[{""event"":""fullscreenenter"",""trial"":1,""time"":2047}]",NA,NA,NA,NA,NA,5,#741CD8,#D8271C,10,10,0,38,1,1403.2999999821186,39,0,517.4000000059605,10,1,experiment,NA,NA,1,0.3,0.7,3,2,240,6,NA
fcp-trial,290,1248951,0.0-251.0-0.0,voc_e2,11709,"[{""event"":""fullscreenenter"",""trial"":1,""time"":2047}]",NA,NA,NA,NA,NA,5,#1CD855,#FA92F8,10,0,1,38,1,544.2000000178814,37,1,530.3000000119209,10,1,experiment,NA,NA,0,0.9,0.1,0,1,241,6,NA
fcp-trial,291,1251660,0.0-252.0-0.0,voc_e2,11709,"[{""event"":""fullscreenenter"",""trial"":1,""time"":2047}]",NA,NA,NA,NA,NA,0,#1CD855,#FA92F8,10,0,1,38,1,686.1000000238419,37,1,513.0999999940395,10,1,experiment,NA,NA,0,0.9,0.1,0,1,242,6,NA
fcp-trial,292,1254590,0.0-253.0-0.0,voc_e2,11709,"[{""event"":""fullscreenenter"",""trial"":1,""time"":2047}]",NA,NA,NA,NA,NA,3,#D8271C,#741CD8,0,0,1,38,1,847.5,37,1,570,0,1,experiment,NA,NA,1,0.7,0.3,2,3,243,6,NA
fcp-trial,293,1257487,0.0-254.0-0.0,voc_e2,11709,"[{""event"":""fullscreenenter"",""trial"":1,""time"":2047}]",NA,NA,NA,NA,NA,0,#D89F1C,#3386FF,10,10,0,38,1,853,39,0,534.0999999940395,10,1,experiment,NA,NA,2,0.5,0.5,5,4,244,6,NA
fcp-trial,294,1260684,0.0-255.0-0.0,voc_e2,11709,"[{""event"":""fullscreenenter"",""trial"":1,""time"":2047}]",NA,NA,NA,NA,NA,6,#741CD8,#D8271C,0,10,0,40,0,1083.6000000238419,39,0,602.0999999940395,10,1,experiment,NA,NA,1,0.3,0.7,3,2,245,6,NA
fcp-trial,295,1263480,0.0-256.0-0.0,voc_e2,11709,"[{""event"":""fullscreenenter"",""trial"":1,""time"":2047}]",NA,NA,NA,NA,NA,6,#1CD855,#FA92F8,10,0,1,38,1,748.1000000238419,37,1,539.9000000059605,10,1,experiment,NA,NA,0,0.9,0.1,0,1,246,6,NA
fcp-trial,296,1267685,0.0-257.0-0.0,voc_e2,11709,"[{""event"":""fullscreenenter"",""trial"":1,""time"":2047}]",NA,NA,NA,NA,NA,6,#3386FF,#D89F1C,10,0,1,40,0,1749.5999999940395,39,0,722.4000000059605,0,0,experiment,NA,NA,2,0.5,0.5,4,5,247,6,NA
fcp-trial,297,1270592,0.0-258.0-0.0,voc_e2,11709,"[{""event"":""fullscreenenter"",""trial"":1,""time"":2047}]",NA,NA,NA,NA,NA,3,#1CD855,#FA92F8,0,10,1,38,1,770,37,1,607.0999999940395,0,1,experiment,NA,NA,0,0.9,0.1,0,1,248,6,NA
fcp-trial,298,1273827,0.0-259.0-0.0,voc_e2,11709,"[{""event"":""fullscreenenter"",""trial"":1,""time"":2047}]",NA,NA,NA,NA,NA,2,#741CD8,#D8271C,10,0,0,38,1,1088.5999999940395,39,0,586.1999999880791,0,1,experiment,NA,NA,1,0.3,0.7,3,2,249,6,NA
fcp-trial,299,1276830,0.0-260.0-0.0,voc_e2,11709,"[{""event"":""fullscreenenter"",""trial"":1,""time"":2047}]",NA,NA,NA,NA,NA,2,#D89F1C,#3386FF,10,10,0,38,1,800.5,39,0,681.5,10,1,experiment,NA,NA,2,0.5,0.5,5,4,250,6,NA
fcp-trial,300,1279687,0.0-261.0-0.0,voc_e2,11709,"[{""event"":""fullscreenenter"",""trial"":1,""time"":2047}]",NA,NA,NA,NA,NA,0,#D8271C,#741CD8,10,0,1,38,1,777.1999999880791,37,1,571.6000000238419,10,1,experiment,NA,NA,1,0.7,0.3,2,3,251,6,NA
fcp-trial,301,1282333,0.0-262.0-0.0,voc_e2,11709,"[{""event"":""fullscreenenter"",""trial"":1,""time"":2047}]",NA,NA,NA,NA,NA,1,#1CD855,#FA92F8,10,0,1,38,1,631,37,1,500.800000011921,10,1,experiment,NA,NA,0,0.9,0.1,0,1,252,6,NA
fcp-trial,302,1284983,0.0-263.0-0.0,voc_e2,11709,"[{""event"":""fullscreenenter"",""trial"":1,""time"":2047}]",NA,NA,NA,NA,NA,2,#FA92F8,#1CD855,0,10,0,38,1,626.5,39,0,498.7999999821186,10,1,experiment,NA,NA,0,0.1,0.9,1,0,253,6,NA
fcp-trial,303,1288173,0.0-264.0-0.0,voc_e2,11709,"[{""event"":""fullscreenenter"",""trial"":1,""time"":2047}]",NA,NA,NA,NA,NA,0,#741CD8,#D8271C,10,10,0,38,1,845.6999999880791,39,0,573.2999999821186,10,1,experiment,NA,NA,1,0.3,0.7,3,2,254,6,NA
fcp-trial,304,1290939,0.0-265.0-0.0,voc_e2,11709,"[{""event"":""fullscreenenter"",""trial"":1,""time"":2047}]",NA,NA,NA,NA,NA,1,#D89F1C,#3386FF,0,0,0,38,1,589.2000000178814,39,0,667.1999999880791,0,1,experiment,NA,NA,2,0.5,0.5,5,4,255,6,NA
fcp-trial,305,1293581,0.0-266.0-0.0,voc_e2,11709,"[{""event"":""fullscreenenter"",""trial"":1,""time"":2047}]",NA,NA,NA,NA,NA,5,#3386FF,#D89F1C,10,10,1,38,1,585.5,37,1,547.3999999761581,10,1,experiment,NA,NA,2,0.5,0.5,4,5,256,6,NA
fcp-trial,306,1296582,0.0-267.0-0.0,voc_e2,11709,"[{""event"":""fullscreenenter"",""trial"":1,""time"":2047}]",NA,NA,NA,NA,NA,1,#741CD8,#D8271C,0,0,0,38,1,1010.9000000059605,39,0,481.300000011921,0,1,experiment,NA,NA,1,0.3,0.7,3,2,257,6,NA
fcp-trial,307,1299449,0.0-268.0-0.0,voc_e2,11709,"[{""event"":""fullscreenenter"",""trial"":1,""time"":2047}]",NA,NA,NA,NA,NA,4,#1CD855,#FA92F8,10,0,1,38,1,856.4000000059605,37,1,502.699999988079,10,1,experiment,NA,NA,0,0.9,0.1,0,1,258,6,NA
fcp-trial,308,1302565,0.0-269.0-0.0,voc_e2,11709,"[{""event"":""fullscreenenter"",""trial"":1,""time"":2047}]",NA,NA,NA,NA,NA,2,#741CD8,#D8271C,0,10,0,38,1,1105.0999999940395,37,1,501.2000000178814,0,0,experiment,NA,NA,1,0.3,0.7,3,2,259,6,NA
fcp-trial,309,1305544,0.0-270.0-0.0,voc_e2,11709,"[{""event"":""fullscreenenter"",""trial"":1,""time"":2047}]",NA,NA,NA,NA,NA,2,#3386FF,#D89F1C,0,10,1,38,1,873.4000000059605,37,1,596.9000000059605,0,1,experiment,NA,NA,2,0.5,0.5,4,5,260,6,NA
fcp-trial,310,1308333,0.0-271.0-0.0,voc_e2,11709,"[{""event"":""fullscreenenter"",""trial"":1,""time"":2047}]",NA,NA,NA,NA,NA,6,#741CD8,#D8271C,0,10,0,38,1,728.8000000119209,37,1,553,0,0,experiment,NA,NA,1,0.3,0.7,3,2,261,6,NA
fcp-trial,311,1311352,0.0-272.0-0.0,voc_e2,11709,"[{""event"":""fullscreenenter"",""trial"":1,""time"":2047}]",NA,NA,NA,NA,NA,5,#D8271C,#741CD8,10,10,1,40,0,1004.9000000059605,39,0,504.09999999403954,10,0,experiment,NA,NA,1,0.7,0.3,2,3,262,6,NA
fcp-trial,312,1314675,0.0-273.0-0.0,voc_e2,11709,"[{""event"":""fullscreenenter"",""trial"":1,""time"":2047}]",NA,NA,NA,NA,NA,0,#1CD855,#FA92F8,10,0,1,38,1,1235.7000000178814,37,1,581.1999999880791,10,1,experiment,NA,NA,0,0.9,0.1,0,1,263,6,NA
fcp-trial,313,1317662,0.0-274.0-0.0,voc_e2,11709,"[{""event"":""fullscreenenter"",""trial"":1,""time"":2047}]",NA,NA,NA,NA,NA,6,#3386FF,#D89F1C,10,0,1,40,0,915.0999999940395,39,0,563.5999999940395,0,0,experiment,NA,NA,2,0.5,0.5,4,5,264,6,NA
fcp-trial,314,1321269,0.0-275.0-0.0,voc_e2,11709,"[{""event"":""fullscreenenter"",""trial"":1,""time"":2047}]",NA,NA,NA,NA,NA,6,#1CD855,#FA92F8,10,0,1,38,1,1402.5,37,1,688.8000000119209,10,1,experiment,NA,NA,0,0.9,0.1,0,1,265,6,NA
fcp-trial,315,1325134,0.0-276.0-0.0,voc_e2,11709,"[{""event"":""fullscreenenter"",""trial"":1,""time"":2047}]",NA,NA,NA,NA,NA,1,#1CD855,#FA92F8,10,0,1,38,1,1805.199999988079,37,1,549.8999999761581,10,1,experiment,NA,NA,0,0.9,0.1,0,1,266,6,NA
fcp-trial,316,1329207,0.0-277.0-0.0,voc_e2,11709,"[{""event"":""fullscreenenter"",""trial"":1,""time"":2047}]",NA,NA,NA,NA,NA,3,#741CD8,#D8271C,0,10,0,40,0,1792.5999999940395,39,0,766.2999999821186,10,1,experiment,NA,NA,1,0.3,0.7,3,2,267,6,NA
fcp-trial,317,1332117,0.0-278.0-0.0,voc_e2,11709,"[{""event"":""fullscreenenter"",""trial"":1,""time"":2047}]",NA,NA,NA,NA,NA,3,#1CD855,#FA92F8,10,0,1,38,1,876.5999999940395,37,1,521.3000000119209,10,1,experiment,NA,NA,0,0.9,0.1,0,1,268,6,NA
fcp-trial,318,1335212,0.0-279.0-0.0,voc_e2,11709,"[{""event"":""fullscreenenter"",""trial"":1,""time"":2047}]",NA,NA,NA,NA,NA,0,#D89F1C,#3386FF,0,0,0,38,1,1073.5,39,0,511.09999999403954,0,1,experiment,NA,NA,2,0.5,0.5,5,4,269,6,NA
fcp-trial,319,1338101,0.0-280.0-0.0,voc_e2,11709,"[{""event"":""fullscreenenter"",""trial"":1,""time"":2047}]",NA,NA,NA,NA,NA,5,#1CD855,#FA92F8,10,0,1,38,1,827.7000000178814,37,1,552.5999999940395,10,1,experiment,NA,NA,0,0.9,0.1,0,1,270,6,NA
fcp-trial,320,1341049,0.0-281.0-0.0,voc_e2,11709,"[{""event"":""fullscreenenter"",""trial"":1,""time"":2047}]",NA,NA,NA,NA,NA,3,#D89F1C,#3386FF,10,0,0,38,1,825.7000000178814,37,1,611.1000000238419,10,0,experiment,NA,NA,2,0.5,0.5,5,4,271,7,NA
fcp-trial,321,1345165,0.0-282.0-0.0,voc_e2,11709,"[{""event"":""fullscreenenter"",""trial"":1,""time"":2047}]",NA,NA,NA,NA,NA,4,#741CD8,#D8271C,0,0,0,38,1,2098.0999999940395,37,1,507.300000011921,0,0,experiment,NA,NA,1,0.3,0.7,3,2,272,7,NA
fcp-trial,322,1348297,0.0-283.0-0.0,voc_e2,11709,"[{""event"":""fullscreenenter"",""trial"":1,""time"":2047}]",NA,NA,NA,NA,NA,4,#D89F1C,#3386FF,0,0,0,38,1,1086.800000011921,37,1,536.8000000119209,0,0,experiment,NA,NA,2,0.5,0.5,5,4,273,7,NA
fcp-trial,323,1351416,0.0-284.0-0.0,voc_e2,11709,"[{""event"":""fullscreenenter"",""trial"":1,""time"":2047}]",NA,NA,NA,NA,NA,5,#741CD8,#D8271C,0,10,0,40,0,1018.8000000119209,39,0,590.3999999761581,10,1,experiment,NA,NA,1,0.3,0.7,3,2,274,7,NA
fcp-trial,324,1354335,0.0-285.0-0.0,voc_e2,11709,"[{""event"":""fullscreenenter"",""trial"":1,""time"":2047}]",NA,NA,NA,NA,NA,0,#1CD855,#FA92F8,10,0,1,38,1,839.1999999880791,37,1,572.2999999821186,10,1,experiment,NA,NA,0,0.9,0.1,0,1,275,7,NA
fcp-trial,325,1358280,0.0-286.0-0.0,voc_e2,11709,"[{""event"":""fullscreenenter"",""trial"":1,""time"":2047}]",NA,NA,NA,NA,NA,2,#D8271C,#741CD8,10,10,1,38,1,1187,37,1,1252.199999988079,10,1,experiment,NA,NA,1,0.7,0.3,2,3,276,7,NA
fcp-trial,326,1361045,0.0-287.0-0.0,voc_e2,11709,"[{""event"":""fullscreenenter"",""trial"":1,""time"":2047}]",NA,NA,NA,NA,NA,1,#FA92F8,#1CD855,0,10,0,38,1,669.5,39,0,589.1999999880791,10,1,experiment,NA,NA,0,0.1,0.9,1,0,277,7,NA
fcp-trial,327,1363701,0.0-288.0-0.0,voc_e2,11709,"[{""event"":""fullscreenenter"",""trial"":1,""time"":2047}]",NA,NA,NA,NA,NA,3,#3386FF,#D89F1C,0,10,1,38,1,566.3000000119209,37,1,582.2000000178814,0,1,experiment,NA,NA,2,0.5,0.5,4,5,278,7,NA
fcp-trial,328,1366539,0.0-289.0-0.0,voc_e2,11709,"[{""event"":""fullscreenenter"",""trial"":1,""time"":2047}]",NA,NA,NA,NA,NA,2,#D89F1C,#3386FF,0,0,0,38,1,796.6999999880791,37,1,533.7000000178814,0,0,experiment,NA,NA,2,0.5,0.5,5,4,279,7,NA
fcp-trial,329,1369670,0.0-290.0-0.0,voc_e2,11709,"[{""event"":""fullscreenenter"",""trial"":1,""time"":2047}]",NA,NA,NA,NA,NA,4,#3386FF,#D89F1C,0,0,1,40,0,1101.5,39,0,519.9000000059605,0,0,experiment,NA,NA,2,0.5,0.5,4,5,280,7,NA
fcp-trial,330,1372846,0.0-291.0-0.0,voc_e2,11709,"[{""event"":""fullscreenenter"",""trial"":1,""time"":2047}]",NA,NA,NA,NA,NA,3,#741CD8,#D8271C,0,10,0,38,1,1006.4000000059605,37,1,662.9000000059605,0,0,experiment,NA,NA,1,0.3,0.7,3,2,281,7,NA
fcp-trial,331,1375757,0.0-292.0-0.0,voc_e2,11709,"[{""event"":""fullscreenenter"",""trial"":1,""time"":2047}]",NA,NA,NA,NA,NA,3,#1CD855,#FA92F8,10,0,1,38,1,727.3000000119209,37,1,675.9000000059605,10,1,experiment,NA,NA,0,0.9,0.1,0,1,282,7,NA
fcp-trial,332,1379034,0.0-293.0-0.0,voc_e2,11709,"[{""event"":""fullscreenenter"",""trial"":1,""time"":2047}]",NA,NA,NA,NA,NA,1,#D8271C,#741CD8,10,10,1,38,1,905.1999999880791,37,1,865.6999999880791,10,1,experiment,NA,NA,1,0.7,0.3,2,3,283,7,NA
fcp-trial,333,1382879,0.0-294.0-0.0,voc_e2,11709,"[{""event"":""fullscreenenter"",""trial"":1,""time"":2047}]",NA,NA,NA,NA,NA,6,#D89F1C,#3386FF,0,10,0,40,0,1692,39,0,643.8999999761581,10,1,experiment,NA,NA,2,0.5,0.5,5,4,284,7,NA
fcp-trial,334,1386000,0.0-295.0-0.0,voc_e2,11709,"[{""event"":""fullscreenenter"",""trial"":1,""time"":2047}]",NA,NA,NA,NA,NA,1,#D89F1C,#3386FF,10,0,0,38,1,1064.4000000059605,39,0,549.7999999821186,0,1,experiment,NA,NA,2,0.5,0.5,5,4,285,7,NA
fcp-trial,335,1388923,0.0-296.0-0.0,voc_e2,11709,"[{""event"":""fullscreenenter"",""trial"":1,""time"":2047}]",NA,NA,NA,NA,NA,4,#D8271C,#741CD8,10,0,1,38,1,859.1999999880791,37,1,552.5999999940395,10,1,experiment,NA,NA,1,0.7,0.3,2,3,286,7,NA
fcp-trial,336,1391630,0.0-297.0-0.0,voc_e2,11709,"[{""event"":""fullscreenenter"",""trial"":1,""time"":2047}]",NA,NA,NA,NA,NA,6,#FA92F8,#1CD855,0,10,0,38,1,651.7000000178814,39,0,544.5,10,1,experiment,NA,NA,0,0.1,0.9,1,0,287,7,NA
fcp-trial,337,1394683,0.0-298.0-0.0,voc_e2,11709,"[{""event"":""fullscreenenter"",""trial"":1,""time"":2047}]",NA,NA,NA,NA,NA,5,#FA92F8,#1CD855,0,10,0,38,1,1017,39,0,524.2999999821186,10,1,experiment,NA,NA,0,0.1,0.9,1,0,288,7,NA
fcp-trial,338,1397995,0.0-299.0-0.0,voc_e2,11709,"[{""event"":""fullscreenenter"",""trial"":1,""time"":2047}]",NA,NA,NA,NA,NA,2,#FA92F8,#1CD855,0,10,0,38,1,1172.5999999940395,39,0,337,10,1,experiment,NA,NA,0,0.1,0.9,1,0,289,7,NA
fcp-trial,339,1401110,0.0-300.0-0.0,voc_e2,11709,"[{""event"":""fullscreenenter"",""trial"":1,""time"":2047}]",NA,NA,NA,NA,NA,5,#D89F1C,#3386FF,10,0,0,40,0,1060.9000000059605,39,0,544.1999999880791,0,1,experiment,NA,NA,2,0.5,0.5,5,4,290,7,NA
fcp-trial,340,1404668,0.0-301.0-0.0,voc_e2,11709,"[{""event"":""fullscreenenter"",""trial"":1,""time"":2047}]",NA,NA,NA,NA,NA,0,#D8271C,#741CD8,10,0,1,38,1,1154.6000000238419,37,1,892.0999999940395,10,1,experiment,NA,NA,1,0.7,0.3,2,3,291,7,NA
fcp-trial,341,1407732,0.0-302.0-0.0,voc_e2,11709,"[{""event"":""fullscreenenter"",""trial"":1,""time"":2047}]",NA,NA,NA,NA,NA,0,#3386FF,#D89F1C,0,10,1,38,1,940.6000000238419,37,1,614.0999999940395,0,1,experiment,NA,NA,2,0.5,0.5,4,5,292,7,NA
fcp-trial,342,1410720,0.0-303.0-0.0,voc_e2,11709,"[{""event"":""fullscreenenter"",""trial"":1,""time"":2047}]",NA,NA,NA,NA,NA,6,#D8271C,#741CD8,0,0,1,38,1,880.4000000059605,37,1,598.8000000119209,0,1,experiment,NA,NA,1,0.7,0.3,2,3,293,7,NA
fcp-trial,343,1413544,0.0-304.0-0.0,voc_e2,11709,"[{""event"":""fullscreenenter"",""trial"":1,""time"":2047}]",NA,NA,NA,NA,NA,4,#FA92F8,#1CD855,0,10,0,38,1,773.8000000119209,39,0,535.2000000178814,10,1,experiment,NA,NA,0,0.1,0.9,1,0,294,7,NA
fcp-trial,344,1416453,0.0-305.0-0.0,voc_e2,11709,"[{""event"":""fullscreenenter"",""trial"":1,""time"":2047}]",NA,NA,NA,NA,NA,1,#741CD8,#D8271C,10,10,0,38,1,753.4000000059605,37,1,644.5999999940395,10,0,experiment,NA,NA,1,0.3,0.7,3,2,295,7,NA
fcp-trial,345,1419350,0.0-306.0-0.0,voc_e2,11709,"[{""event"":""fullscreenenter"",""trial"":1,""time"":2047}]",NA,NA,NA,NA,NA,2,#741CD8,#D8271C,0,0,0,38,1,783.1000000238419,37,1,603.5999999940395,0,0,experiment,NA,NA,1,0.3,0.7,3,2,296,7,NA
fcp-trial,346,1422098,0.0-307.0-0.0,voc_e2,11709,"[{""event"":""fullscreenenter"",""trial"":1,""time"":2047}]",NA,NA,NA,NA,NA,5,#1CD855,#FA92F8,10,0,1,38,1,685.3000000119209,37,1,549.5999999940395,10,1,experiment,NA,NA,0,0.9,0.1,0,1,297,7,NA
fcp-trial,347,1425018,0.0-308.0-0.0,voc_e2,11709,"[{""event"":""fullscreenenter"",""trial"":1,""time"":2047}]",NA,NA,NA,NA,NA,4,#D89F1C,#3386FF,0,0,0,38,1,882.0999999940395,39,0,530.0999999940395,0,1,experiment,NA,NA,2,0.5,0.5,5,4,298,7,NA
fcp-trial,348,1428189,0.0-309.0-0.0,voc_e2,11709,"[{""event"":""fullscreenenter"",""trial"":1,""time"":2047}]",NA,NA,NA,NA,NA,0,#741CD8,#D8271C,10,10,0,38,1,820.8000000119209,37,1,839.3999999761581,10,0,experiment,NA,NA,1,0.3,0.7,3,2,299,7,NA
fcp-trial,349,1430807,0.0-310.0-0.0,voc_e2,11709,"[{""event"":""fullscreenenter"",""trial"":1,""time"":2047}]",NA,NA,NA,NA,NA,2,#1CD855,#FA92F8,10,0,1,38,1,530.8000000119209,37,1,576.1999999880791,10,1,experiment,NA,NA,0,0.9,0.1,0,1,300,7,NA
fcp-trial,350,1433986,0.0-311.0-0.0,voc_e2,11709,"[{""event"":""fullscreenenter"",""trial"":1,""time"":2047}]",NA,NA,NA,NA,NA,6,#741CD8,#D8271C,0,10,0,40,0,1133,39,0,531.3000000119209,10,1,experiment,NA,NA,1,0.3,0.7,3,2,301,7,NA
fcp-trial,351,1437002,0.0-312.0-0.0,voc_e2,11709,"[{""event"":""fullscreenenter"",""trial"":1,""time"":2047}]",NA,NA,NA,NA,NA,0,#3386FF,#D89F1C,0,0,1,38,1,917.9000000059605,37,1,587,0,1,experiment,NA,NA,2,0.5,0.5,4,5,302,7,NA
fcp-trial,352,1439928,0.0-313.0-0.0,voc_e2,11709,"[{""event"":""fullscreenenter"",""trial"":1,""time"":2047}]",NA,NA,NA,NA,NA,0,#FA92F8,#1CD855,0,10,0,38,1,853.7999999821186,39,0,559.7999999821186,10,1,experiment,NA,NA,0,0.1,0.9,1,0,303,7,NA
fcp-trial,353,1442728,0.0-314.0-0.0,voc_e2,11709,"[{""event"":""fullscreenenter"",""trial"":1,""time"":2047}]",NA,NA,NA,NA,NA,4,#FA92F8,#1CD855,0,10,0,38,1,770.5999999940395,39,0,514,10,1,experiment,NA,NA,0,0.1,0.9,1,0,304,7,NA
fcp-trial,354,1446703,0.0-315.0-0.0,voc_e2,11709,"[{""event"":""fullscreenenter"",""trial"":1,""time"":2047}]",NA,NA,NA,NA,NA,3,#741CD8,#D8271C,0,0,0,40,0,1910.800000011921,39,0,554.9000000059605,0,1,experiment,NA,NA,1,0.3,0.7,3,2,305,7,NA
fcp-trial,355,1449678,0.0-316.0-0.0,voc_e2,11709,"[{""event"":""fullscreenenter"",""trial"":1,""time"":2047}]",NA,NA,NA,NA,NA,1,#FA92F8,#1CD855,0,10,0,38,1,873,39,0,587.8000000119209,10,1,experiment,NA,NA,0,0.1,0.9,1,0,306,7,NA
fcp-trial,356,1452647,0.0-317.0-0.0,voc_e2,11709,"[{""event"":""fullscreenenter"",""trial"":1,""time"":2047}]",NA,NA,NA,NA,NA,3,#3386FF,#D89F1C,10,10,1,38,1,863.2999999821186,37,1,597.7000000178814,10,1,experiment,NA,NA,2,0.5,0.5,4,5,307,7,NA
fcp-trial,357,1456816,0.0-318.0-0.0,voc_e2,11709,"[{""event"":""fullscreenenter"",""trial"":1,""time"":2047}]",NA,NA,NA,NA,NA,4,#D8271C,#741CD8,10,0,1,38,1,1007.6999999880791,37,1,1650.2000000178814,10,1,experiment,NA,NA,1,0.7,0.3,2,3,308,7,NA
fcp-trial,358,1459734,0.0-319.0-0.0,voc_e2,11709,"[{""event"":""fullscreenenter"",""trial"":1,""time"":2047}]",NA,NA,NA,NA,NA,2,#3386FF,#D89F1C,10,10,1,38,1,750.0999999940395,37,1,652,10,1,experiment,NA,NA,2,0.5,0.5,4,5,309,7,NA
fcp-trial,359,1462569,0.0-320.0-0.0,voc_e2,11709,"[{""event"":""fullscreenenter"",""trial"":1,""time"":2047}]",NA,NA,NA,NA,NA,3,#1CD855,#FA92F8,10,0,1,38,1,810.7999999821186,37,1,516.3000000119209,10,1,experiment,NA,NA,0,0.9,0.1,0,1,310,7,NA
fcp-trial,360,1466001,0.0-321.0-0.0,voc_e2,11709,"[{""event"":""fullscreenenter"",""trial"":1,""time"":2047}]",NA,NA,NA,NA,NA,5,#741CD8,#D8271C,10,0,0,40,0,1255.300000011921,37,1,665.5,10,0,experiment,NA,NA,1,0.3,0.7,3,2,311,7,NA
fcp-trial,361,1468935,0.0-322.0-0.0,voc_e2,11709,"[{""event"":""fullscreenenter"",""trial"":1,""time"":2047}]",NA,NA,NA,NA,NA,1,#D89F1C,#3386FF,10,0,0,38,1,793.9000000059605,39,0,630.0999999940395,0,1,experiment,NA,NA,2,0.5,0.5,5,4,312,7,NA
fcp-trial,362,1472003,0.0-323.0-0.0,voc_e2,11709,"[{""event"":""fullscreenenter"",""trial"":1,""time"":2047}]",NA,NA,NA,NA,NA,5,#3386FF,#D89F1C,0,10,1,40,0,973.7999999821186,39,0,581.5,10,0,experiment,NA,NA,2,0.5,0.5,4,5,313,7,NA
fcp-trial,363,1474935,0.0-324.0-0.0,voc_e2,11709,"[{""event"":""fullscreenenter"",""trial"":1,""time"":2047}]",NA,NA,NA,NA,NA,6,#3386FF,#D89F1C,0,0,1,40,0,789.9000000059605,39,0,629,0,0,experiment,NA,NA,2,0.5,0.5,4,5,314,7,NA
fcp-trial,364,1477870,0.0-325.0-0.0,voc_e2,11709,"[{""event"":""fullscreenenter"",""trial"":1,""time"":2047}]",NA,NA,NA,NA,NA,6,#1CD855,#FA92F8,10,0,1,38,1,824.5999999940395,37,1,600.5,10,1,experiment,NA,NA,0,0.9,0.1,0,1,315,7,NA
audio-instructions,365,1484643,0.0-326.0,voc_e2,11709,"[{""event"":""fullscreenenter"",""trial"":1,""time"":2047}]",NA,1063.0999999940395,static/audio/finished.wav,NA,0,NA,NA,NA,NA,NA,NA,NA,NA,NA,NA,NA,NA,NA,NA,NA,NA,NA,NA,NA,NA,NA,NA,NA,NA,NA
audio-instructions,366,1496596,0.0-327.0-0.0,voc_e2,11709,"[{""event"":""fullscreenenter"",""trial"":1,""time"":2047}]",NA,1112.300000011921,static/audio/explicit1.wav,NA,0,NA,NA,NA,NA,NA,NA,NA,NA,NA,NA,NA,NA,NA,NA,NA,NA,NA,NA,NA,NA,NA,NA,NA,NA,NA
audio-instructions,367,1504774,0.0-327.0-1.0,voc_e2,11709,"[{""event"":""fullscreenenter"",""trial"":1,""time"":2047}]",NA,581.4000000059605,static/audio/explicit2.wav,NA,0,NA,NA,NA,NA,NA,NA,NA,NA,NA,NA,NA,NA,NA,NA,NA,NA,NA,NA,NA,NA,NA,NA,NA,NA,NA
image-slider-response,368,1511022,0.0-328.0,voc_e2,11709,"[{""event"":""fullscreenenter"",""trial"":1,""time"":2047}]",NA,6238.299999982119,static/img/machines/machine3.png,NA,NA,NA,NA,NA,NA,NA,NA,NA,NA,NA,NA,NA,NA,NA,NA,explicit,NA,NA,NA,NA,NA,NA,NA,NA,NA,6
image-slider-response,369,1517434,0.0-329.0,voc_e2,11709,"[{""event"":""fullscreenenter"",""trial"":1,""time"":2047}]",NA,6409.299999982119,static/img/machines/machine5.png,NA,NA,NA,NA,NA,NA,NA,NA,NA,NA,NA,NA,NA,NA,NA,NA,explicit,NA,NA,NA,NA,NA,NA,NA,NA,NA,3
image-slider-response,370,1518988,0.0-330.0,voc_e2,11709,"[{""event"":""fullscreenenter"",""trial"":1,""time"":2047}]",NA,1550.7000000178814,static/img/machines/machine4.png,NA,NA,NA,NA,NA,NA,NA,NA,NA,NA,NA,NA,NA,NA,NA,NA,explicit,NA,NA,NA,NA,NA,NA,NA,NA,NA,5
image-slider-response,371,1522506,0.0-331.0,voc_e2,11709,"[{""event"":""fullscreenenter"",""trial"":1,""time"":2047}]",NA,3514.899999976158,static/img/machines/machine6.png,NA,NA,NA,NA,NA,NA,NA,NA,NA,NA,NA,NA,NA,NA,NA,NA,explicit,NA,NA,NA,NA,NA,NA,NA,NA,NA,9
image-slider-response,372,1527763,0.0-332.0,voc_e2,11709,"[{""event"":""fullscreenenter"",""trial"":1,""time"":2047}]",NA,5253.9000000059605,static/img/machines/machine2.png,NA,NA,NA,NA,NA,NA,NA,NA,NA,NA,NA,NA,NA,NA,NA,NA,explicit,NA,NA,NA,NA,NA,NA,NA,NA,NA,5
image-slider-response,373,1530340,0.0-333.0,voc_e2,11709,"[{""event"":""fullscreenenter"",""trial"":1,""time"":2047}]",NA,2573.9000000059605,static/img/machines/machine1.png,NA,NA,NA,NA,NA,NA,NA,NA,NA,NA,NA,NA,NA,NA,NA,NA,explicit,NA,NA,NA,NA,NA,NA,NA,NA,NA,6
