trial_type,trial_index,time_elapsed,internal_node_id,task_version,subject_id,interactions,success,rt,stimulus,key_press,button_pressed,offer,arcade_color_L,arcade_color_R,arcade_outcome_L,arcade_outcome_R,correct,stage_1_key,stage_1_choice,stage_1_rt,stage_2_key,stage_2_choice,stage_2_rt,stage_3_outcome,accuracy,phase,responses,num_errors,context,reward_prob_L,reward_prob_R,arcade_id_L,arcade_id_R,trial,block,response
pavlovia,0,5,0.0-0.0,voc_e2,12588,[],NA,NA,NA,NA,NA,NA,NA,NA,NA,NA,NA,NA,NA,NA,NA,NA,NA,NA,NA,NA,NA,NA,NA,NA,NA,NA,NA,NA,NA,NA
fullscreen,1,2750,0.0-1.0,voc_e2,12588,"[{""event"":""fullscreenenter"",""trial"":1,""time"":1758}]",TRUE,NA,NA,NA,NA,NA,NA,NA,NA,NA,NA,NA,NA,NA,NA,NA,NA,NA,NA,NA,NA,NA,NA,NA,NA,NA,NA,NA,NA,NA
audio-keyboard-response,2,5999,0.0-2.0,voc_e2,12588,"[{""event"":""fullscreenenter"",""trial"":1,""time"":1758}]",NA,3251,static/audio/beep_loop.wav,174,NA,NA,NA,NA,NA,NA,NA,NA,NA,NA,NA,NA,NA,NA,NA,NA,NA,NA,NA,NA,NA,NA,NA,NA,NA,NA
audio-test,3,8139,0.0-3.0,voc_e2,12588,"[{""event"":""fullscreenenter"",""trial"":1,""time"":1758}]",NA,NA,static/audio/turtle.wav,NA,3,NA,NA,NA,NA,NA,NA,NA,NA,NA,NA,NA,NA,NA,NA,NA,NA,NA,NA,NA,NA,NA,NA,NA,NA,NA
audio-test,4,10448,0.0-4.0,voc_e2,12588,"[{""event"":""fullscreenenter"",""trial"":1,""time"":1758}]",NA,NA,static/audio/shark.wav,NA,2,NA,NA,NA,NA,NA,NA,NA,NA,NA,NA,NA,NA,NA,NA,NA,NA,NA,NA,NA,NA,NA,NA,NA,NA,NA
audio-instructions,5,19760,0.0-5.0-0.0,voc_e2,12588,"[{""event"":""fullscreenenter"",""trial"":1,""time"":1758}]",NA,3533.5,static/audio/instructions1.wav,NA,0,NA,NA,NA,NA,NA,NA,NA,NA,NA,NA,NA,NA,NA,NA,NA,NA,NA,NA,NA,NA,NA,NA,NA,NA,NA
audio-instructions,6,29414,0.0-5.0-1.0,voc_e2,12588,"[{""event"":""fullscreenenter"",""trial"":1,""time"":1758}]",NA,2907.100000023842,static/audio/instructions2.wav,NA,0,NA,NA,NA,NA,NA,NA,NA,NA,NA,NA,NA,NA,NA,NA,NA,NA,NA,NA,NA,NA,NA,NA,NA,NA,NA
audio-instructions,7,36284,0.0-5.0-2.0,voc_e2,12588,"[{""event"":""fullscreenenter"",""trial"":1,""time"":1758}]",NA,1068.0999999046326,static/audio/instructions3.wav,NA,0,NA,NA,NA,NA,NA,NA,NA,NA,NA,NA,NA,NA,NA,NA,NA,NA,NA,NA,NA,NA,NA,NA,NA,NA,NA
audio-instructions,8,50632,0.0-5.0-3.0,voc_e2,12588,"[{""event"":""fullscreenenter"",""trial"":1,""time"":1758}]",NA,1125.7000000476835,static/audio/instructions4.wav,NA,0,NA,NA,NA,NA,NA,NA,NA,NA,NA,NA,NA,NA,NA,NA,NA,NA,NA,NA,NA,NA,NA,NA,NA,NA,NA
audio-instructions,9,61208,0.0-5.0-4.0,voc_e2,12588,"[{""event"":""fullscreenenter"",""trial"":1,""time"":1758}]",NA,1192.2999999523165,static/audio/instructions5.wav,NA,0,NA,NA,NA,NA,NA,NA,NA,NA,NA,NA,NA,NA,NA,NA,NA,NA,NA,NA,NA,NA,NA,NA,NA,NA,NA
fcp-practice,10,64272,0.0-5.0-5.0-0.0,voc_e2,12588,"[{""event"":""fullscreenenter"",""trial"":1,""time"":1758}]",NA,NA,NA,NA,NA,NA,#EDC948,#46d3c8,10,0,1,null,null,null,37,1,1539.3999999761581,10,1,practice,NA,NA,NA,NA,NA,NA,NA,NA,NA,NA
fcp-practice,11,66569,0.0-5.0-5.0-1.0,voc_e2,12588,"[{""event"":""fullscreenenter"",""trial"":1,""time"":1758}]",NA,NA,NA,NA,NA,NA,#EDC948,#46d3c8,10,0,1,null,null,null,37,1,783.2000000476837,10,1,practice,NA,NA,NA,NA,NA,NA,NA,NA,NA,NA
fcp-practice,12,68788,0.0-5.0-5.0-2.0,voc_e2,12588,"[{""event"":""fullscreenenter"",""trial"":1,""time"":1758}]",NA,NA,NA,NA,NA,NA,#EDC948,#46d3c8,0,10,1,null,null,null,37,1,705.1000000238419,0,1,practice,NA,NA,NA,NA,NA,NA,NA,NA,NA,NA
fcp-practice,13,70788,0.0-5.0-5.0-3.0,voc_e2,12588,"[{""event"":""fullscreenenter"",""trial"":1,""time"":1758}]",NA,NA,NA,NA,NA,NA,#EDC948,#46d3c8,10,0,1,null,null,null,37,1,480.6999999284744,10,1,practice,NA,NA,NA,NA,NA,NA,NA,NA,NA,NA
fcp-practice,14,72918,0.0-5.0-5.0-4.0,voc_e2,12588,"[{""event"":""fullscreenenter"",""trial"":1,""time"":1758}]",NA,NA,NA,NA,NA,NA,#EDC948,#46d3c8,10,0,1,null,null,null,37,1,617.7000000476837,10,1,practice,NA,NA,NA,NA,NA,NA,NA,NA,NA,NA
audio-instructions,15,92450,0.0-5.0-6.0,voc_e2,12588,"[{""event"":""fullscreenenter"",""trial"":1,""time"":1758}]",NA,1523.399999976158,static/audio/instructions6.wav,NA,0,NA,NA,NA,NA,NA,NA,NA,NA,NA,NA,NA,NA,NA,NA,NA,NA,NA,NA,NA,NA,NA,NA,NA,NA,NA
audio-instructions,16,112766,0.0-5.0-7.0,voc_e2,12588,"[{""event"":""fullscreenenter"",""trial"":1,""time"":1758}]",NA,1119.3000000715256,static/audio/instructions7.wav,NA,0,NA,NA,NA,NA,NA,NA,NA,NA,NA,NA,NA,NA,NA,NA,NA,NA,NA,NA,NA,NA,NA,NA,NA,NA,NA
audio-instructions,17,122724,0.0-5.0-8.0,voc_e2,12588,"[{""event"":""fullscreenenter"",""trial"":1,""time"":1758}]",NA,487.6999999284744,static/audio/instructions8.wav,NA,0,NA,NA,NA,NA,NA,NA,NA,NA,NA,NA,NA,NA,NA,NA,NA,NA,NA,NA,NA,NA,NA,NA,NA,NA,NA
fcp-comprehension,18,136468,0.0-5.0-9.0,voc_e2,12588,"[{""event"":""fullscreenenter"",""trial"":1,""time"":1758}]",NA,13742.100000023842,NA,NA,NA,NA,NA,NA,NA,NA,NA,NA,NA,NA,NA,NA,NA,NA,NA,NA,"false,true",1,NA,NA,NA,NA,NA,NA,NA,NA
audio-instructions,19,141932,0.0-5.1-0.1,voc_e2,12588,"[{""event"":""fullscreenenter"",""trial"":1,""time"":1758}]",NA,686.1999999284744,static/audio/instructions1.wav,NA,0,NA,NA,NA,NA,NA,NA,NA,NA,NA,NA,NA,NA,NA,NA,NA,NA,NA,NA,NA,NA,NA,NA,NA,NA,NA
audio-instructions,20,149606,0.0-5.1-1.1,voc_e2,12588,"[{""event"":""fullscreenenter"",""trial"":1,""time"":1758}]",NA,939,static/audio/instructions2.wav,NA,0,NA,NA,NA,NA,NA,NA,NA,NA,NA,NA,NA,NA,NA,NA,NA,NA,NA,NA,NA,NA,NA,NA,NA,NA,NA
audio-instructions,21,155760,0.0-5.1-2.1,voc_e2,12588,"[{""event"":""fullscreenenter"",""trial"":1,""time"":1758}]",NA,344,static/audio/instructions3.wav,NA,0,NA,NA,NA,NA,NA,NA,NA,NA,NA,NA,NA,NA,NA,NA,NA,NA,NA,NA,NA,NA,NA,NA,NA,NA,NA
audio-instructions,22,169623,0.0-5.1-3.1,voc_e2,12588,"[{""event"":""fullscreenenter"",""trial"":1,""time"":1758}]",NA,637,static/audio/instructions4.wav,NA,0,NA,NA,NA,NA,NA,NA,NA,NA,NA,NA,NA,NA,NA,NA,NA,NA,NA,NA,NA,NA,NA,NA,NA,NA,NA
audio-instructions,23,181349,0.0-5.1-4.1,voc_e2,12588,"[{""event"":""fullscreenenter"",""trial"":1,""time"":1758}]",NA,2343,static/audio/instructions5.wav,NA,0,NA,NA,NA,NA,NA,NA,NA,NA,NA,NA,NA,NA,NA,NA,NA,NA,NA,NA,NA,NA,NA,NA,NA,NA,NA
fcp-practice,24,184013,0.0-5.1-5.1-0.1,voc_e2,12588,"[{""event"":""fullscreenenter"",""trial"":1,""time"":1758}]",NA,NA,NA,NA,NA,NA,#EDC948,#46d3c8,10,0,1,null,null,null,37,1,1154.5,10,1,practice,NA,NA,NA,NA,NA,NA,NA,NA,NA,NA
fcp-practice,25,185807,0.0-5.1-5.1-1.1,voc_e2,12588,"[{""event"":""fullscreenenter"",""trial"":1,""time"":1758}]",NA,NA,NA,NA,NA,NA,#EDC948,#46d3c8,10,0,1,null,null,null,37,1,284.59999990463257,10,1,practice,NA,NA,NA,NA,NA,NA,NA,NA,NA,NA
fcp-practice,26,187787,0.0-5.1-5.1-2.1,voc_e2,12588,"[{""event"":""fullscreenenter"",""trial"":1,""time"":1758}]",NA,NA,NA,NA,NA,NA,#EDC948,#46d3c8,0,10,1,null,null,null,37,1,469.2000000476837,0,1,practice,NA,NA,NA,NA,NA,NA,NA,NA,NA,NA
fcp-practice,27,189580,0.0-5.1-5.1-3.1,voc_e2,12588,"[{""event"":""fullscreenenter"",""trial"":1,""time"":1758}]",NA,NA,NA,NA,NA,NA,#EDC948,#46d3c8,10,0,1,null,null,null,37,1,281.10000002384186,10,1,practice,NA,NA,NA,NA,NA,NA,NA,NA,NA,NA
fcp-practice,28,191372,0.0-5.1-5.1-4.1,voc_e2,12588,"[{""event"":""fullscreenenter"",""trial"":1,""time"":1758}]",NA,NA,NA,NA,NA,NA,#EDC948,#46d3c8,10,0,1,null,null,null,37,1,282.10000002384186,10,1,practice,NA,NA,NA,NA,NA,NA,NA,NA,NA,NA
audio-instructions,29,210195,0.0-5.1-6.1,voc_e2,12588,"[{""event"":""fullscreenenter"",""trial"":1,""time"":1758}]",NA,819.1000000238419,static/audio/instructions6.wav,NA,0,NA,NA,NA,NA,NA,NA,NA,NA,NA,NA,NA,NA,NA,NA,NA,NA,NA,NA,NA,NA,NA,NA,NA,NA,NA
audio-instructions,30,243663,0.0-5.1-7.1,voc_e2,12588,"[{""event"":""fullscreenenter"",""trial"":1,""time"":1758}]",NA,14267.899999976158,static/audio/instructions7.wav,NA,0,NA,NA,NA,NA,NA,NA,NA,NA,NA,NA,NA,NA,NA,NA,NA,NA,NA,NA,NA,NA,NA,NA,NA,NA,NA
audio-instructions,31,257151,0.0-5.1-8.1,voc_e2,12588,"[{""event"":""fullscreenenter"",""trial"":1,""time"":1758}]",NA,4016.299999952316,static/audio/instructions8.wav,NA,0,NA,NA,NA,NA,NA,NA,NA,NA,NA,NA,NA,NA,NA,NA,NA,NA,NA,NA,NA,NA,NA,NA,NA,NA,NA
fcp-comprehension,32,262830,0.0-5.1-9.1,voc_e2,12588,"[{""event"":""fullscreenenter"",""trial"":1,""time"":1758}]",NA,5677.300000071526,NA,NA,NA,NA,NA,NA,NA,NA,NA,NA,NA,NA,NA,NA,NA,NA,NA,NA,"true,true",0,NA,NA,NA,NA,NA,NA,NA,NA
audio-instructions,33,268894,0.0-6.0-0.0,voc_e2,12588,"[{""event"":""fullscreenenter"",""trial"":1,""time"":1758}]",NA,519.2000000476837,static/audio/instructions9.wav,NA,0,NA,NA,NA,NA,NA,NA,NA,NA,NA,NA,NA,NA,NA,NA,NA,NA,NA,NA,NA,NA,NA,NA,NA,NA,NA
audio-instructions,34,282443,0.0-6.0-1.0,voc_e2,12588,"[{""event"":""fullscreenenter"",""trial"":1,""time"":1758}]",NA,1427.9000000953674,static/audio/instructions10.wav,NA,0,NA,NA,NA,NA,NA,NA,NA,NA,NA,NA,NA,NA,NA,NA,NA,NA,NA,NA,NA,NA,NA,NA,NA,NA,NA
fcp-trial,35,297465,0.0-6.0-2.0,voc_e2,12588,"[{""event"":""fullscreenenter"",""trial"":1,""time"":1758}]",NA,NA,NA,NA,NA,0,#EDC948,#46d3c8,10,10,1,null,null,null,null,null,null,NA,0,practice,NA,NA,NA,NA,NA,NA,NA,NA,NA,NA
audio-instructions,36,310597,0.0-6.0-3.0,voc_e2,12588,"[{""event"":""fullscreenenter"",""trial"":1,""time"":1758}]",NA,2122.1999999284744,static/audio/instructions11.wav,NA,0,NA,NA,NA,NA,NA,NA,NA,NA,NA,NA,NA,NA,NA,NA,NA,NA,NA,NA,NA,NA,NA,NA,NA,NA,NA
fcp-trial,37,318239,0.0-6.0-4.0,voc_e2,12588,"[{""event"":""fullscreenenter"",""trial"":1,""time"":1758}]",NA,NA,NA,NA,NA,6,#EDC948,#46d3c8,10,10,1,40,0,4091.7999999523163,39,0,2031.6999999284744,10,0,practice,NA,NA,NA,NA,NA,NA,NA,NA,NA,NA
audio-instructions,38,338541,0.0-6.0-5.0,voc_e2,12588,"[{""event"":""fullscreenenter"",""trial"":1,""time"":1758}]",NA,1615.600000023842,static/audio/instructions12.wav,NA,0,NA,NA,NA,NA,NA,NA,NA,NA,NA,NA,NA,NA,NA,NA,NA,NA,NA,NA,NA,NA,NA,NA,NA,NA,NA
audio-instructions,39,346983,0.0-6.0-6.0,voc_e2,12588,"[{""event"":""fullscreenenter"",""trial"":1,""time"":1758}]",NA,848,static/audio/instructions13.wav,NA,0,NA,NA,NA,NA,NA,NA,NA,NA,NA,NA,NA,NA,NA,NA,NA,NA,NA,NA,NA,NA,NA,NA,NA,NA,NA
audio-instructions,40,355795,0.0-6.0-7.0,voc_e2,12588,"[{""event"":""fullscreenenter"",""trial"":1,""time"":1758}]",NA,370.10000002384186,static/audio/instructions14.wav,NA,0,NA,NA,NA,NA,NA,NA,NA,NA,NA,NA,NA,NA,NA,NA,NA,NA,NA,NA,NA,NA,NA,NA,NA,NA,NA
audio-instructions,41,363115,0.0-7.0-0.0,voc_e2,12588,"[{""event"":""fullscreenenter"",""trial"":1,""time"":1758}]",NA,400,static/audio/instructions15.wav,NA,0,NA,NA,NA,NA,NA,NA,NA,NA,NA,NA,NA,NA,NA,NA,NA,NA,NA,NA,NA,NA,NA,NA,NA,NA,NA
audio-instructions,42,370315,0.0-7.0-1.0,voc_e2,12588,"[{""event"":""fullscreenenter"",""trial"":1,""time"":1758}]",NA,369.39999997615814,static/audio/instructions16.wav,NA,0,NA,NA,NA,NA,NA,NA,NA,NA,NA,NA,NA,NA,NA,NA,NA,NA,NA,NA,NA,NA,NA,NA,NA,NA,NA
audio-instructions,43,378170,0.0-7.0-2.0,voc_e2,12588,"[{""event"":""fullscreenenter"",""trial"":1,""time"":1758}]",NA,175.60000002384186,static/audio/instructions17.wav,NA,0,NA,NA,NA,NA,NA,NA,NA,NA,NA,NA,NA,NA,NA,NA,NA,NA,NA,NA,NA,NA,NA,NA,NA,NA,NA
audio-instructions,44,386555,0.0-7.0-3.0,voc_e2,12588,"[{""event"":""fullscreenenter"",""trial"":1,""time"":1758}]",NA,620.1000000238419,static/audio/instructions18.wav,NA,0,NA,NA,NA,NA,NA,NA,NA,NA,NA,NA,NA,NA,NA,NA,NA,NA,NA,NA,NA,NA,NA,NA,NA,NA,NA
audio-instructions,45,393628,0.0-7.0-4.0,voc_e2,12588,"[{""event"":""fullscreenenter"",""trial"":1,""time"":1758}]",NA,323.3000000715256,static/audio/instructions19.wav,NA,0,NA,NA,NA,NA,NA,NA,NA,NA,NA,NA,NA,NA,NA,NA,NA,NA,NA,NA,NA,NA,NA,NA,NA,NA,NA
fcp-comprehension,46,403047,0.0-7.0-5.0,voc_e2,12588,"[{""event"":""fullscreenenter"",""trial"":1,""time"":1758}]",NA,9417.5,NA,NA,NA,NA,NA,NA,NA,NA,NA,NA,NA,NA,NA,NA,NA,NA,NA,NA,"false,false,false,true",0,NA,NA,NA,NA,NA,NA,NA,NA
audio-instructions,47,412946,0.0-8.0,voc_e2,12588,"[{""event"":""fullscreenenter"",""trial"":1,""time"":1758}]",NA,682,static/audio/ready.wav,NA,0,NA,NA,NA,NA,NA,NA,NA,NA,NA,NA,NA,NA,NA,NA,NA,NA,NA,NA,NA,NA,NA,NA,NA,NA,NA
fcp-trial,48,418681,0.0-9.0-0.0,voc_e2,12588,"[{""event"":""fullscreenenter"",""trial"":1,""time"":1758}]",NA,NA,NA,NA,NA,5,#1CD855,#FA92F8,10,0,1,38,1,1614.7000000476837,37,1,2594.600000023842,10,1,experiment,NA,NA,0,0.9,0.1,0,1,1,1,NA
fcp-trial,49,423724,0.0-10.0-0.0,voc_e2,12588,"[{""event"":""fullscreenenter"",""trial"":1,""time"":1758}]",NA,NA,NA,NA,NA,2,#D8271C,#741CD8,0,0,0,38,1,2439.899999976158,37,1,1081.5,0,0,experiment,NA,NA,1,0.3,0.7,3,2,2,1,NA
fcp-trial,50,427164,0.0-11.0-0.0,voc_e2,12588,"[{""event"":""fullscreenenter"",""trial"":1,""time"":1758}]",NA,NA,NA,NA,NA,4,#1CD855,#FA92F8,10,0,1,38,1,1379.3999999761581,37,1,548.1000000238419,10,1,experiment,NA,NA,0,0.9,0.1,0,1,3,1,NA
fcp-trial,51,431929,0.0-12.0-0.0,voc_e2,12588,"[{""event"":""fullscreenenter"",""trial"":1,""time"":1758}]",NA,NA,NA,NA,NA,6,#3386FF,#D89F1C,10,0,1,38,1,1611.1000000238419,37,1,1625.7999999523163,10,1,experiment,NA,NA,2,0.5,0.5,4,5,4,1,NA
fcp-trial,52,440280,0.0-13.0-0.0,voc_e2,12588,"[{""event"":""fullscreenenter"",""trial"":1,""time"":1758}]",NA,NA,NA,NA,NA,4,#741CD8,#D8271C,0,0,1,38,1,2757.5,37,1,4078.7000000476837,0,1,experiment,NA,NA,1,0.7,0.3,2,3,5,1,NA
fcp-trial,53,445499,0.0-14.0-0.0,voc_e2,12588,"[{""event"":""fullscreenenter"",""trial"":1,""time"":1758}]",NA,NA,NA,NA,NA,0,#FA92F8,#1CD855,10,10,0,38,1,1132,37,1,2567.7999999523163,10,0,experiment,NA,NA,0,0.1,0.9,1,0,6,1,NA
fcp-trial,54,448232,0.0-15.0-0.0,voc_e2,12588,"[{""event"":""fullscreenenter"",""trial"":1,""time"":1758}]",NA,NA,NA,NA,NA,3,#3386FF,#D89F1C,10,10,1,38,1,842.8000000715256,37,1,383.2999999523163,10,1,experiment,NA,NA,2,0.5,0.5,4,5,7,1,NA
fcp-trial,55,452280,0.0-16.0-0.0,voc_e2,12588,"[{""event"":""fullscreenenter"",""trial"":1,""time"":1758}]",NA,NA,NA,NA,NA,2,#1CD855,#FA92F8,10,0,1,38,1,2076,39,0,464.39999997615814,0,0,experiment,NA,NA,0,0.9,0.1,0,1,8,1,NA
fcp-trial,56,455241,0.0-17.0-0.0,voc_e2,12588,"[{""event"":""fullscreenenter"",""trial"":1,""time"":1758}]",NA,NA,NA,NA,NA,1,#3386FF,#D89F1C,0,0,1,38,1,1038.8999999761581,37,1,410.90000009536743,0,1,experiment,NA,NA,2,0.5,0.5,4,5,9,1,NA
fcp-trial,57,458882,0.0-18.0-0.0,voc_e2,12588,"[{""event"":""fullscreenenter"",""trial"":1,""time"":1758}]",NA,NA,NA,NA,NA,0,#741CD8,#D8271C,0,0,1,38,1,1668.6000000238419,37,1,460.6999999284744,0,1,experiment,NA,NA,1,0.7,0.3,2,3,10,1,NA
fcp-trial,58,462998,0.0-19.0-0.0,voc_e2,12588,"[{""event"":""fullscreenenter"",""trial"":1,""time"":1758}]",NA,NA,NA,NA,NA,5,#D8271C,#741CD8,0,10,0,40,0,1523.3999999761581,37,1,1083.0999999046326,0,0,experiment,NA,NA,1,0.3,0.7,3,2,11,1,NA
fcp-trial,59,469573,0.0-20.0-0.0,voc_e2,12588,"[{""event"":""fullscreenenter"",""trial"":1,""time"":1758}]",NA,NA,NA,NA,NA,5,#3386FF,#D89F1C,0,10,1,38,1,4101.599999904633,37,1,967.6999999284744,0,1,experiment,NA,NA,2,0.5,0.5,4,5,12,1,NA
fcp-trial,60,472879,0.0-21.0-0.0,voc_e2,12588,"[{""event"":""fullscreenenter"",""trial"":1,""time"":1758}]",NA,NA,NA,NA,NA,3,#1CD855,#FA92F8,10,10,1,38,1,1079.7000000476837,39,0,716.7999999523163,10,0,experiment,NA,NA,0,0.9,0.1,0,1,13,1,NA
fcp-trial,61,475672,0.0-22.0-0.0,voc_e2,12588,"[{""event"":""fullscreenenter"",""trial"":1,""time"":1758}]",NA,NA,NA,NA,NA,2,#D89F1C,#3386FF,10,10,0,38,1,920.1999999284744,39,0,365.8000000715256,10,1,experiment,NA,NA,2,0.5,0.5,5,4,14,1,NA
fcp-trial,62,479168,0.0-23.0-0.0,voc_e2,12588,"[{""event"":""fullscreenenter"",""trial"":1,""time"":1758}]",NA,NA,NA,NA,NA,1,#D8271C,#741CD8,0,10,0,38,1,1659.8999999761581,39,0,330,10,1,experiment,NA,NA,1,0.3,0.7,3,2,15,1,NA
fcp-trial,63,482992,0.0-24.0-0.0,voc_e2,12588,"[{""event"":""fullscreenenter"",""trial"":1,""time"":1758}]",NA,NA,NA,NA,NA,6,#1CD855,#FA92F8,10,10,1,38,1,2059.7999999523163,39,0,257.39999997615814,10,0,experiment,NA,NA,0,0.9,0.1,0,1,16,1,NA
fcp-trial,64,485695,0.0-25.0-0.0,voc_e2,12588,"[{""event"":""fullscreenenter"",""trial"":1,""time"":1758}]",NA,NA,NA,NA,NA,1,#1CD855,#FA92F8,10,10,1,38,1,540.8999999761581,39,0,653.1000000238419,10,0,experiment,NA,NA,0,0.9,0.1,0,1,17,1,NA
fcp-trial,65,488289,0.0-26.0-0.0,voc_e2,12588,"[{""event"":""fullscreenenter"",""trial"":1,""time"":1758}]",NA,NA,NA,NA,NA,3,#D8271C,#741CD8,0,0,0,38,1,716.2999999523163,39,0,370.7000000476837,0,1,experiment,NA,NA,1,0.3,0.7,3,2,18,1,NA
fcp-trial,66,490798,0.0-27.0-0.0,voc_e2,12588,"[{""event"":""fullscreenenter"",""trial"":1,""time"":1758}]",NA,NA,NA,NA,NA,0,#3386FF,#D89F1C,10,0,1,38,1,649.7000000476837,37,1,349.7000000476837,10,1,experiment,NA,NA,2,0.5,0.5,4,5,19,1,NA
fcp-trial,67,493346,0.0-28.0-0.0,voc_e2,12588,"[{""event"":""fullscreenenter"",""trial"":1,""time"":1758}]",NA,NA,NA,NA,NA,4,#D89F1C,#3386FF,10,0,0,38,1,596,39,0,444.1999999284744,0,1,experiment,NA,NA,2,0.5,0.5,5,4,20,1,NA
fcp-trial,68,498279,0.0-29.0-0.0,voc_e2,12588,"[{""event"":""fullscreenenter"",""trial"":1,""time"":1758}]",NA,NA,NA,NA,NA,6,#741CD8,#D8271C,0,0,1,38,1,2171.5,37,1,1253.3999999761581,0,1,experiment,NA,NA,1,0.7,0.3,2,3,21,1,NA
fcp-trial,69,502041,0.0-30.0-0.0,voc_e2,12588,"[{""event"":""fullscreenenter"",""trial"":1,""time"":1758}]",NA,NA,NA,NA,NA,0,#FA92F8,#1CD855,0,10,0,38,1,630.7000000476837,37,1,1623.3000000715256,0,0,experiment,NA,NA,0,0.1,0.9,1,0,22,1,NA
fcp-trial,70,505951,0.0-31.0-0.0,voc_e2,12588,"[{""event"":""fullscreenenter"",""trial"":1,""time"":1758}]",NA,NA,NA,NA,NA,4,#741CD8,#D8271C,10,10,1,38,1,1913.7000000476837,37,1,488.7999999523163,10,1,experiment,NA,NA,1,0.7,0.3,2,3,23,1,NA
fcp-trial,71,510127,0.0-32.0-0.0,voc_e2,12588,"[{""event"":""fullscreenenter"",""trial"":1,""time"":1758}]",NA,NA,NA,NA,NA,5,#1CD855,#FA92F8,10,0,1,38,1,1184,39,0,1473.5,0,0,experiment,NA,NA,0,0.9,0.1,0,1,24,1,NA
fcp-trial,72,513544,0.0-33.0-0.0,voc_e2,12588,"[{""event"":""fullscreenenter"",""trial"":1,""time"":1758}]",NA,NA,NA,NA,NA,2,#D89F1C,#3386FF,0,0,0,38,1,1304.6000000238419,37,1,603.7000000476837,0,0,experiment,NA,NA,2,0.5,0.5,5,4,25,1,NA
fcp-trial,73,517897,0.0-34.0-0.0,voc_e2,12588,"[{""event"":""fullscreenenter"",""trial"":1,""time"":1758}]",NA,NA,NA,NA,NA,3,#741CD8,#D8271C,10,0,1,38,1,686.8000000715256,37,1,2155.2999999523163,10,1,experiment,NA,NA,1,0.7,0.3,2,3,26,1,NA
fcp-trial,74,523081,0.0-35.0-0.0,voc_e2,12588,"[{""event"":""fullscreenenter"",""trial"":1,""time"":1758}]",NA,NA,NA,NA,NA,3,#FA92F8,#1CD855,0,10,0,38,1,536.8000000715256,37,1,3142.8000000715256,0,0,experiment,NA,NA,0,0.1,0.9,1,0,27,1,NA
fcp-trial,75,525894,0.0-36.0-0.0,voc_e2,12588,"[{""event"":""fullscreenenter"",""trial"":1,""time"":1758}]",NA,NA,NA,NA,NA,4,#D89F1C,#3386FF,10,0,0,38,1,657.3000000715256,37,1,648.8999999761581,10,0,experiment,NA,NA,2,0.5,0.5,5,4,28,1,NA
fcp-trial,76,528258,0.0-37.0-0.0,voc_e2,12588,"[{""event"":""fullscreenenter"",""trial"":1,""time"":1758}]",NA,NA,NA,NA,NA,1,#D89F1C,#3386FF,0,0,0,38,1,604.1000000238419,37,1,254.29999995231628,0,0,experiment,NA,NA,2,0.5,0.5,5,4,29,1,NA
fcp-trial,77,530643,0.0-38.0-0.0,voc_e2,12588,"[{""event"":""fullscreenenter"",""trial"":1,""time"":1758}]",NA,NA,NA,NA,NA,3,#D89F1C,#3386FF,10,10,0,38,1,495.60000002384186,37,1,382.5,10,0,experiment,NA,NA,2,0.5,0.5,5,4,30,1,NA
fcp-trial,78,533624,0.0-39.0-0.0,voc_e2,12588,"[{""event"":""fullscreenenter"",""trial"":1,""time"":1758}]",NA,NA,NA,NA,NA,1,#D8271C,#741CD8,10,0,0,38,1,1085.6000000238419,39,0,388.89999997615814,0,1,experiment,NA,NA,1,0.3,0.7,3,2,31,1,NA
fcp-trial,79,539542,0.0-40.0-0.0,voc_e2,12588,"[{""event"":""fullscreenenter"",""trial"":1,""time"":1758}]",NA,NA,NA,NA,NA,4,#FA92F8,#1CD855,0,10,0,38,1,440.89999997615814,37,1,3969.899999976158,0,0,experiment,NA,NA,0,0.1,0.9,1,0,32,1,NA
fcp-trial,80,544817,0.0-41.0-0.0,voc_e2,12588,"[{""event"":""fullscreenenter"",""trial"":1,""time"":1758}]",NA,NA,NA,NA,NA,6,#D8271C,#741CD8,10,0,0,38,1,1685.5,39,0,2084,0,1,experiment,NA,NA,1,0.3,0.7,3,2,33,1,NA
fcp-trial,81,547359,0.0-42.0-0.0,voc_e2,12588,"[{""event"":""fullscreenenter"",""trial"":1,""time"":1758}]",NA,NA,NA,NA,NA,6,#3386FF,#D89F1C,10,0,1,38,1,543.8000000715256,37,1,489.5,10,1,experiment,NA,NA,2,0.5,0.5,4,5,34,1,NA
fcp-trial,82,549958,0.0-43.0-0.0,voc_e2,12588,"[{""event"":""fullscreenenter"",""trial"":1,""time"":1758}]",NA,NA,NA,NA,NA,5,#D89F1C,#3386FF,0,10,0,38,1,725.2999999523163,39,0,366.5,10,1,experiment,NA,NA,2,0.5,0.5,5,4,35,1,NA
fcp-trial,83,553085,0.0-44.0-0.0,voc_e2,12588,"[{""event"":""fullscreenenter"",""trial"":1,""time"":1758}]",NA,NA,NA,NA,NA,6,#FA92F8,#1CD855,0,10,0,38,1,998.6000000238419,37,1,622.4000000953674,0,0,experiment,NA,NA,0,0.1,0.9,1,0,36,1,NA
fcp-trial,84,556926,0.0-45.0-0.0,voc_e2,12588,"[{""event"":""fullscreenenter"",""trial"":1,""time"":1758}]",NA,NA,NA,NA,NA,2,#D8271C,#741CD8,0,0,0,38,1,1556.1000000238419,39,0,777,0,1,experiment,NA,NA,1,0.3,0.7,3,2,37,1,NA
fcp-trial,85,559924,0.0-46.0-0.0,voc_e2,12588,"[{""event"":""fullscreenenter"",""trial"":1,""time"":1758}]",NA,NA,NA,NA,NA,0,#3386FF,#D89F1C,0,10,1,38,1,792.7999999523163,37,1,696.2000000476837,0,1,experiment,NA,NA,2,0.5,0.5,4,5,38,1,NA
fcp-trial,86,562725,0.0-47.0-0.0,voc_e2,12588,"[{""event"":""fullscreenenter"",""trial"":1,""time"":1758}]",NA,NA,NA,NA,NA,0,#D8271C,#741CD8,10,0,0,38,1,788.5,37,1,504.39999997615814,10,0,experiment,NA,NA,1,0.3,0.7,3,2,39,1,NA
fcp-trial,87,566237,0.0-48.0-0.0,voc_e2,12588,"[{""event"":""fullscreenenter"",""trial"":1,""time"":1758}]",NA,NA,NA,NA,NA,1,#1CD855,#FA92F8,10,0,1,38,1,1015.5,39,0,991.8999999761581,0,0,experiment,NA,NA,0,0.9,0.1,0,1,40,1,NA
fcp-trial,88,568989,0.0-49.0-0.0,voc_e2,12588,"[{""event"":""fullscreenenter"",""trial"":1,""time"":1758}]",NA,NA,NA,NA,NA,2,#FA92F8,#1CD855,0,10,0,38,1,854.6999999284744,39,0,390.7999999523163,10,1,experiment,NA,NA,0,0.1,0.9,1,0,41,1,NA
fcp-trial,89,572150,0.0-50.0-0.0,voc_e2,12588,"[{""event"":""fullscreenenter"",""trial"":1,""time"":1758}]",NA,NA,NA,NA,NA,5,#741CD8,#D8271C,10,10,1,38,1,989.1000000238419,39,0,660.3999999761581,10,0,experiment,NA,NA,1,0.7,0.3,2,3,42,1,NA
fcp-trial,90,577402,0.0-51.0-0.0,voc_e2,12588,"[{""event"":""fullscreenenter"",""trial"":1,""time"":1758}]",NA,NA,NA,NA,NA,0,#1CD855,#FA92F8,10,0,1,38,1,1450.3000000715256,37,1,2294.600000023842,10,1,experiment,NA,NA,0,0.9,0.1,0,1,43,1,NA
fcp-trial,91,580544,0.0-52.0-0.0,voc_e2,12588,"[{""event"":""fullscreenenter"",""trial"":1,""time"":1758}]",NA,NA,NA,NA,NA,0,#D8271C,#741CD8,10,10,0,38,1,579.3999999761581,37,1,1055.3999999761581,10,0,experiment,NA,NA,1,0.3,0.7,3,2,44,1,NA
fcp-trial,92,583330,0.0-53.0-0.0,voc_e2,12588,"[{""event"":""fullscreenenter"",""trial"":1,""time"":1758}]",NA,NA,NA,NA,NA,5,#FA92F8,#1CD855,0,10,0,38,1,656.6000000238419,37,1,622.2000000476837,0,0,experiment,NA,NA,0,0.1,0.9,1,0,45,1,NA
fcp-trial,93,585829,0.0-54.0-0.0,voc_e2,12588,"[{""event"":""fullscreenenter"",""trial"":1,""time"":1758}]",NA,NA,NA,NA,NA,2,#D8271C,#741CD8,0,10,0,38,1,602.7000000476837,37,1,388.2000000476837,0,0,experiment,NA,NA,1,0.3,0.7,3,2,46,2,NA
fcp-trial,94,588584,0.0-55.0-0.0,voc_e2,12588,"[{""event"":""fullscreenenter"",""trial"":1,""time"":1758}]",NA,NA,NA,NA,NA,4,#741CD8,#D8271C,0,0,1,38,1,567.6000000238419,39,0,681.2000000476837,0,0,experiment,NA,NA,1,0.7,0.3,2,3,47,2,NA
fcp-trial,95,592478,0.0-56.0-0.0,voc_e2,12588,"[{""event"":""fullscreenenter"",""trial"":1,""time"":1758}]",NA,NA,NA,NA,NA,2,#3386FF,#D89F1C,10,10,1,38,1,682,37,1,1698.3999999761581,10,1,experiment,NA,NA,2,0.5,0.5,4,5,48,2,NA
fcp-trial,96,597352,0.0-57.0-0.0,voc_e2,12588,"[{""event"":""fullscreenenter"",""trial"":1,""time"":1758}]",NA,NA,NA,NA,NA,4,#1CD855,#FA92F8,10,0,1,38,1,937.4000000953674,39,0,2427,0,0,experiment,NA,NA,0,0.9,0.1,0,1,49,2,NA
fcp-trial,97,599789,0.0-58.0-0.0,voc_e2,12588,"[{""event"":""fullscreenenter"",""trial"":1,""time"":1758}]",NA,NA,NA,NA,NA,3,#3386FF,#D89F1C,0,0,1,38,1,492.2999999523163,37,1,432.10000002384186,0,1,experiment,NA,NA,2,0.5,0.5,4,5,50,2,NA
fcp-trial,98,602495,0.0-59.0-0.0,voc_e2,12588,"[{""event"":""fullscreenenter"",""trial"":1,""time"":1758}]",NA,NA,NA,NA,NA,6,#D89F1C,#3386FF,10,0,0,38,1,765.5,39,0,433.59999990463257,0,1,experiment,NA,NA,2,0.5,0.5,5,4,51,2,NA
fcp-trial,99,606726,0.0-60.0-0.0,voc_e2,12588,"[{""event"":""fullscreenenter"",""trial"":1,""time"":1758}]",NA,NA,NA,NA,NA,3,#D8271C,#741CD8,10,0,0,38,1,894.7999999523163,37,1,1828.8999999761581,10,0,experiment,NA,NA,1,0.3,0.7,3,2,52,2,NA
fcp-trial,100,611862,0.0-61.0-0.0,voc_e2,12588,"[{""event"":""fullscreenenter"",""trial"":1,""time"":1758}]",NA,NA,NA,NA,NA,1,#FA92F8,#1CD855,0,10,0,38,1,1416.6999999284744,37,1,2212.600000023842,0,0,experiment,NA,NA,0,0.1,0.9,1,0,53,2,NA
fcp-trial,101,616533,0.0-62.0-0.0,voc_e2,12588,"[{""event"":""fullscreenenter"",""trial"":1,""time"":1758}]",NA,NA,NA,NA,NA,6,#FA92F8,#1CD855,0,10,0,40,0,1662.8999999761581,37,1,1500.1000000238419,0,0,experiment,NA,NA,0,0.1,0.9,1,0,54,2,NA
fcp-trial,102,620739,0.0-63.0-0.0,voc_e2,12588,"[{""event"":""fullscreenenter"",""trial"":1,""time"":1758}]",NA,NA,NA,NA,NA,5,#3386FF,#D89F1C,0,10,1,40,0,1500.2999999523163,39,0,1192.7999999523163,10,0,experiment,NA,NA,2,0.5,0.5,4,5,55,2,NA
fcp-trial,103,625641,0.0-64.0-0.0,voc_e2,12588,"[{""event"":""fullscreenenter"",""trial"":1,""time"":1758}]",NA,NA,NA,NA,NA,4,#D89F1C,#3386FF,10,0,0,40,0,2416.7000000476837,39,0,978.5,0,1,experiment,NA,NA,2,0.5,0.5,5,4,56,2,NA
fcp-trial,104,629393,0.0-65.0-0.0,voc_e2,12588,"[{""event"":""fullscreenenter"",""trial"":1,""time"":1758}]",NA,NA,NA,NA,NA,6,#741CD8,#D8271C,0,10,1,40,0,1391.6999999284744,39,0,851.3999999761581,10,0,experiment,NA,NA,1,0.7,0.3,2,3,57,2,NA
fcp-trial,105,632442,0.0-66.0-0.0,voc_e2,12588,"[{""event"":""fullscreenenter"",""trial"":1,""time"":1758}]",NA,NA,NA,NA,NA,5,#D8271C,#741CD8,0,0,0,40,0,963.6999999284744,39,0,578.2999999523163,0,1,experiment,NA,NA,1,0.3,0.7,3,2,58,2,NA
fcp-trial,106,638182,0.0-67.0-0.0,voc_e2,12588,"[{""event"":""fullscreenenter"",""trial"":1,""time"":1758}]",NA,NA,NA,NA,NA,2,#FA92F8,#1CD855,0,10,0,38,1,597.1000000238419,37,1,3635.5,0,0,experiment,NA,NA,0,0.1,0.9,1,0,59,2,NA
fcp-trial,107,641911,0.0-68.0-0.0,voc_e2,12588,"[{""event"":""fullscreenenter"",""trial"":1,""time"":1758}]",NA,NA,NA,NA,NA,1,#D89F1C,#3386FF,0,10,0,38,1,1656.7999999523163,39,0,564.8999999761581,10,1,experiment,NA,NA,2,0.5,0.5,5,4,60,2,NA
fcp-trial,108,645459,0.0-69.0-0.0,voc_e2,12588,"[{""event"":""fullscreenenter"",""trial"":1,""time"":1758}]",NA,NA,NA,NA,NA,1,#D8271C,#741CD8,10,10,0,40,0,1404.0999999046326,39,0,637,10,1,experiment,NA,NA,1,0.3,0.7,3,2,61,2,NA
fcp-trial,109,651947,0.0-70.0-0.0,voc_e2,12588,"[{""event"":""fullscreenenter"",""trial"":1,""time"":1758}]",NA,NA,NA,NA,NA,0,#D89F1C,#3386FF,0,0,0,38,1,3054.1999999284744,39,0,1924.6000000238419,0,1,experiment,NA,NA,2,0.5,0.5,5,4,62,2,NA
fcp-trial,110,656796,0.0-71.0-0.0,voc_e2,12588,"[{""event"":""fullscreenenter"",""trial"":1,""time"":1758}]",NA,NA,NA,NA,NA,3,#FA92F8,#1CD855,0,10,0,38,1,2846.5,37,1,488.5,0,0,experiment,NA,NA,0,0.1,0.9,1,0,63,2,NA
fcp-trial,111,659470,0.0-72.0-0.0,voc_e2,12588,"[{""event"":""fullscreenenter"",""trial"":1,""time"":1758}]",NA,NA,NA,NA,NA,0,#1CD855,#FA92F8,10,0,1,38,1,681.7999999523163,37,1,483,10,1,experiment,NA,NA,0,0.9,0.1,0,1,64,2,NA
fcp-trial,112,662545,0.0-73.0-0.0,voc_e2,12588,"[{""event"":""fullscreenenter"",""trial"":1,""time"":1758}]",NA,NA,NA,NA,NA,6,#D8271C,#741CD8,0,10,0,38,1,932.6999999284744,37,1,633.7999999523163,0,0,experiment,NA,NA,1,0.3,0.7,3,2,65,2,NA
fcp-trial,113,665496,0.0-74.0-0.0,voc_e2,12588,"[{""event"":""fullscreenenter"",""trial"":1,""time"":1758}]",NA,NA,NA,NA,NA,5,#FA92F8,#1CD855,0,10,0,38,1,1052,39,0,395.39999997615814,10,1,experiment,NA,NA,0,0.1,0.9,1,0,66,2,NA
fcp-trial,114,669557,0.0-75.0-0.0,voc_e2,12588,"[{""event"":""fullscreenenter"",""trial"":1,""time"":1758}]",NA,NA,NA,NA,NA,4,#1CD855,#FA92F8,10,10,1,40,0,1983.6000000238419,39,0,566.6000000238419,10,0,experiment,NA,NA,0,0.9,0.1,0,1,67,2,NA
fcp-trial,115,672839,0.0-76.0-0.0,voc_e2,12588,"[{""event"":""fullscreenenter"",""trial"":1,""time"":1758}]",NA,NA,NA,NA,NA,4,#D89F1C,#3386FF,10,0,0,38,1,1020.1999999284744,39,0,754.2000000476837,0,1,experiment,NA,NA,2,0.5,0.5,5,4,68,2,NA
fcp-trial,116,676754,0.0-77.0-0.0,voc_e2,12588,"[{""event"":""fullscreenenter"",""trial"":1,""time"":1758}]",NA,NA,NA,NA,NA,2,#D8271C,#741CD8,10,10,0,38,1,1949.5,37,1,457.8000000715256,10,0,experiment,NA,NA,1,0.3,0.7,3,2,69,2,NA
fcp-trial,117,680142,0.0-78.0-0.0,voc_e2,12588,"[{""event"":""fullscreenenter"",""trial"":1,""time"":1758}]",NA,NA,NA,NA,NA,2,#FA92F8,#1CD855,0,10,0,38,1,716.7000000476837,37,1,1165.7999999523163,0,0,experiment,NA,NA,0,0.1,0.9,1,0,70,2,NA
fcp-trial,118,684294,0.0-79.0-0.0,voc_e2,12588,"[{""event"":""fullscreenenter"",""trial"":1,""time"":1758}]",NA,NA,NA,NA,NA,0,#741CD8,#D8271C,10,0,1,38,1,1869.8999999761581,39,0,774.8999999761581,0,0,experiment,NA,NA,1,0.7,0.3,2,3,71,2,NA
fcp-trial,119,687306,0.0-80.0-0.0,voc_e2,12588,"[{""event"":""fullscreenenter"",""trial"":1,""time"":1758}]",NA,NA,NA,NA,NA,2,#3386FF,#D89F1C,0,0,1,38,1,965.4000000953674,37,1,539.2999999523163,0,1,experiment,NA,NA,2,0.5,0.5,4,5,72,2,NA
fcp-trial,120,689818,0.0-81.0-0.0,voc_e2,12588,"[{""event"":""fullscreenenter"",""trial"":1,""time"":1758}]",NA,NA,NA,NA,NA,3,#D89F1C,#3386FF,0,10,0,38,1,559.2000000476837,37,1,445.5,0,0,experiment,NA,NA,2,0.5,0.5,5,4,73,2,NA
fcp-trial,121,695320,0.0-82.0-0.0,voc_e2,12588,"[{""event"":""fullscreenenter"",""trial"":1,""time"":1758}]",NA,NA,NA,NA,NA,1,#1CD855,#FA92F8,10,0,1,38,1,769.5,37,1,3224.399999976158,10,1,experiment,NA,NA,0,0.9,0.1,0,1,74,2,NA
fcp-trial,122,698694,0.0-83.0-0.0,voc_e2,12588,"[{""event"":""fullscreenenter"",""trial"":1,""time"":1758}]",NA,NA,NA,NA,NA,5,#D89F1C,#3386FF,0,0,0,40,0,1262.5,37,1,603.8999999761581,0,0,experiment,NA,NA,2,0.5,0.5,5,4,75,2,NA
fcp-trial,123,703250,0.0-84.0-0.0,voc_e2,12588,"[{""event"":""fullscreenenter"",""trial"":1,""time"":1758}]",NA,NA,NA,NA,NA,4,#D8271C,#741CD8,10,10,0,40,0,2520,37,1,523.2999999523163,10,0,experiment,NA,NA,1,0.3,0.7,3,2,76,2,NA
fcp-trial,124,707022,0.0-85.0-0.0,voc_e2,12588,"[{""event"":""fullscreenenter"",""trial"":1,""time"":1758}]",NA,NA,NA,NA,NA,6,#D89F1C,#3386FF,10,10,0,40,0,1652,39,0,614.6000000238419,10,1,experiment,NA,NA,2,0.5,0.5,5,4,77,2,NA
fcp-trial,125,710020,0.0-86.0-0.0,voc_e2,12588,"[{""event"":""fullscreenenter"",""trial"":1,""time"":1758}]",NA,NA,NA,NA,NA,6,#FA92F8,#1CD855,0,10,0,40,0,847.6000000238419,39,0,640.5999999046326,10,1,experiment,NA,NA,0,0.1,0.9,1,0,78,2,NA
fcp-trial,126,712605,0.0-87.0-0.0,voc_e2,12588,"[{""event"":""fullscreenenter"",""trial"":1,""time"":1758}]",NA,NA,NA,NA,NA,1,#D8271C,#741CD8,10,10,0,40,0,596,37,1,481.3000000715256,10,0,experiment,NA,NA,1,0.3,0.7,3,2,79,2,NA
fcp-trial,127,715513,0.0-88.0-0.0,voc_e2,12588,"[{""event"":""fullscreenenter"",""trial"":1,""time"":1758}]",NA,NA,NA,NA,NA,0,#3386FF,#D89F1C,10,10,1,40,0,911.2999999523163,39,0,491.60000002384186,10,0,experiment,NA,NA,2,0.5,0.5,4,5,80,2,NA
fcp-trial,128,718229,0.0-89.0-0.0,voc_e2,12588,"[{""event"":""fullscreenenter"",""trial"":1,""time"":1758}]",NA,NA,NA,NA,NA,5,#741CD8,#D8271C,0,0,1,40,0,675.7000000476837,37,1,533.7999999523163,0,1,experiment,NA,NA,1,0.7,0.3,2,3,81,2,NA
fcp-trial,129,722097,0.0-90.0-0.0,voc_e2,12588,"[{""event"":""fullscreenenter"",""trial"":1,""time"":1758}]",NA,NA,NA,NA,NA,3,#1CD855,#FA92F8,10,0,1,40,0,1751.4000000953674,37,1,611.8999999761581,10,1,experiment,NA,NA,0,0.9,0.1,0,1,82,2,NA
fcp-trial,130,726325,0.0-91.0-0.0,voc_e2,12588,"[{""event"":""fullscreenenter"",""trial"":1,""time"":1758}]",NA,NA,NA,NA,NA,1,#D89F1C,#3386FF,10,10,0,38,1,1982.1000000238419,37,1,737.8999999761581,10,0,experiment,NA,NA,2,0.5,0.5,5,4,83,2,NA
fcp-trial,131,729702,0.0-92.0-0.0,voc_e2,12588,"[{""event"":""fullscreenenter"",""trial"":1,""time"":1758}]",NA,NA,NA,NA,NA,3,#D8271C,#741CD8,0,0,0,40,0,1444.8999999761581,37,1,419.89999997615814,0,0,experiment,NA,NA,1,0.3,0.7,3,2,84,2,NA
fcp-trial,132,732455,0.0-93.0-0.0,voc_e2,12588,"[{""event"":""fullscreenenter"",""trial"":1,""time"":1758}]",NA,NA,NA,NA,NA,1,#741CD8,#D8271C,0,10,1,40,0,787.1000000238419,37,1,459.2000000476837,0,1,experiment,NA,NA,1,0.7,0.3,2,3,85,2,NA
fcp-trial,133,734929,0.0-94.0-0.0,voc_e2,12588,"[{""event"":""fullscreenenter"",""trial"":1,""time"":1758}]",NA,NA,NA,NA,NA,4,#D8271C,#741CD8,0,10,0,40,0,463.39999997615814,39,0,504.7999999523163,10,1,experiment,NA,NA,1,0.3,0.7,3,2,86,2,NA
fcp-trial,134,737650,0.0-95.0-0.0,voc_e2,12588,"[{""event"":""fullscreenenter"",""trial"":1,""time"":1758}]",NA,NA,NA,NA,NA,1,#D89F1C,#3386FF,0,0,0,38,1,734.5,39,0,476.89999997615814,0,1,experiment,NA,NA,2,0.5,0.5,5,4,87,2,NA
fcp-trial,135,740268,0.0-96.0-0.0,voc_e2,12588,"[{""event"":""fullscreenenter"",""trial"":1,""time"":1758}]",NA,NA,NA,NA,NA,4,#1CD855,#FA92F8,10,0,1,40,0,790.2000000476837,37,1,320.7000000476837,10,1,experiment,NA,NA,0,0.9,0.1,0,1,88,2,NA
fcp-trial,136,743023,0.0-97.0-0.0,voc_e2,12588,"[{""event"":""fullscreenenter"",""trial"":1,""time"":1758}]",NA,NA,NA,NA,NA,2,#3386FF,#D89F1C,0,0,1,40,0,912.1000000238419,37,1,337,0,1,experiment,NA,NA,2,0.5,0.5,4,5,89,2,NA
fcp-trial,137,745898,0.0-98.0-0.0,voc_e2,12588,"[{""event"":""fullscreenenter"",""trial"":1,""time"":1758}]",NA,NA,NA,NA,NA,2,#FA92F8,#1CD855,0,10,0,38,1,1057.2000000476837,39,0,309.10000002384186,10,1,experiment,NA,NA,0,0.1,0.9,1,0,90,2,NA
fcp-trial,138,749317,0.0-99.0-0.0,voc_e2,12588,"[{""event"":""fullscreenenter"",""trial"":1,""time"":1758}]",NA,NA,NA,NA,NA,2,#741CD8,#D8271C,10,10,1,40,0,1411.3999999761581,37,1,503.89999997615814,10,1,experiment,NA,NA,1,0.7,0.3,2,3,91,3,NA
fcp-trial,139,752634,0.0-100.0-0.0,voc_e2,12588,"[{""event"":""fullscreenenter"",""trial"":1,""time"":1758}]",NA,NA,NA,NA,NA,0,#D8271C,#741CD8,0,10,0,38,1,1554.1000000238419,39,0,254.70000004768372,10,1,experiment,NA,NA,1,0.3,0.7,3,2,92,3,NA
fcp-trial,140,755262,0.0-101.0-0.0,voc_e2,12588,"[{""event"":""fullscreenenter"",""trial"":1,""time"":1758}]",NA,NA,NA,NA,NA,1,#1CD855,#FA92F8,10,0,1,38,1,794,37,1,326.7999999523163,10,1,experiment,NA,NA,0,0.9,0.1,0,1,93,3,NA
fcp-trial,141,759266,0.0-102.0-0.0,voc_e2,12588,"[{""event"":""fullscreenenter"",""trial"":1,""time"":1758}]",NA,NA,NA,NA,NA,4,#3386FF,#D89F1C,10,0,1,38,1,1037.1000000238419,37,1,1460.7000000476837,10,1,experiment,NA,NA,2,0.5,0.5,4,5,94,3,NA
fcp-trial,142,761776,0.0-103.0-0.0,voc_e2,12588,"[{""event"":""fullscreenenter"",""trial"":1,""time"":1758}]",NA,NA,NA,NA,NA,3,#D89F1C,#3386FF,10,0,0,40,0,538.0999999046326,39,0,461.89999997615814,0,1,experiment,NA,NA,2,0.5,0.5,5,4,95,3,NA
fcp-trial,143,765061,0.0-104.0-0.0,voc_e2,12588,"[{""event"":""fullscreenenter"",""trial"":1,""time"":1758}]",NA,NA,NA,NA,NA,6,#3386FF,#D89F1C,0,0,1,40,0,1427.7000000476837,37,1,347.2999999523163,0,1,experiment,NA,NA,2,0.5,0.5,4,5,96,3,NA
fcp-trial,144,768007,0.0-105.0-0.0,voc_e2,12588,"[{""event"":""fullscreenenter"",""trial"":1,""time"":1758}]",NA,NA,NA,NA,NA,5,#741CD8,#D8271C,0,10,1,40,0,986.0999999046326,39,0,450.39999997615814,10,0,experiment,NA,NA,1,0.7,0.3,2,3,97,3,NA
fcp-trial,145,771410,0.0-106.0-0.0,voc_e2,12588,"[{""event"":""fullscreenenter"",""trial"":1,""time"":1758}]",NA,NA,NA,NA,NA,0,#1CD855,#FA92F8,10,0,1,38,1,1600.6000000238419,37,1,283,10,1,experiment,NA,NA,0,0.9,0.1,0,1,98,3,NA
fcp-trial,146,774200,0.0-107.0-0.0,voc_e2,12588,"[{""event"":""fullscreenenter"",""trial"":1,""time"":1758}]",NA,NA,NA,NA,NA,6,#1CD855,#FA92F8,10,0,1,38,1,780.4000000953674,37,1,501.39999997615814,10,1,experiment,NA,NA,0,0.9,0.1,0,1,99,3,NA
fcp-trial,147,777008,0.0-108.0-0.0,voc_e2,12588,"[{""event"":""fullscreenenter"",""trial"":1,""time"":1758}]",NA,NA,NA,NA,NA,3,#D8271C,#741CD8,0,10,0,38,1,874.8000000715256,39,0,423.7000000476837,10,1,experiment,NA,NA,1,0.3,0.7,3,2,100,3,NA
fcp-trial,148,779535,0.0-109.0-0.0,voc_e2,12588,"[{""event"":""fullscreenenter"",""trial"":1,""time"":1758}]",NA,NA,NA,NA,NA,5,#D89F1C,#3386FF,10,10,0,38,1,733.8000000715256,39,0,285,10,1,experiment,NA,NA,2,0.5,0.5,5,4,101,3,NA
fcp-trial,149,784229,0.0-110.0-0.0,voc_e2,12588,"[{""event"":""fullscreenenter"",""trial"":1,""time"":1758}]",NA,NA,NA,NA,NA,0,#D89F1C,#3386FF,10,0,0,38,1,2154.2000000476837,39,0,1030.5,0,1,experiment,NA,NA,2,0.5,0.5,5,4,102,3,NA
fcp-trial,150,788478,0.0-111.0-0.0,voc_e2,12588,"[{""event"":""fullscreenenter"",""trial"":1,""time"":1758}]",NA,NA,NA,NA,NA,5,#FA92F8,#1CD855,0,0,0,38,1,1382.1000000238419,39,0,1358.5,0,1,experiment,NA,NA,0,0.1,0.9,1,0,103,3,NA
fcp-trial,151,790830,0.0-112.0-0.0,voc_e2,12588,"[{""event"":""fullscreenenter"",""trial"":1,""time"":1758}]",NA,NA,NA,NA,NA,3,#FA92F8,#1CD855,0,10,0,38,1,582.2999999523163,39,0,262.10000002384186,10,1,experiment,NA,NA,0,0.1,0.9,1,0,104,3,NA
fcp-trial,152,795251,0.0-113.0-0.0,voc_e2,12588,"[{""event"":""fullscreenenter"",""trial"":1,""time"":1758}]",NA,NA,NA,NA,NA,6,#741CD8,#D8271C,10,0,1,38,1,2339.100000023842,37,1,573.5,10,1,experiment,NA,NA,1,0.7,0.3,2,3,105,3,NA
audio-instructions,153,800862,0.0-114.0,voc_e2,12588,"[{""event"":""fullscreenenter"",""trial"":1,""time"":1758}]",NA,430.89999997615814,static/audio/pause.wav,NA,0,NA,NA,NA,NA,NA,NA,NA,NA,NA,NA,NA,NA,NA,NA,NA,NA,NA,NA,NA,NA,NA,NA,NA,NA,NA
fcp-trial,154,804083,0.0-115.0-0.0,voc_e2,12588,"[{""event"":""fullscreenenter"",""trial"":1,""time"":1758}]",NA,NA,NA,NA,NA,5,#741CD8,#D8271C,10,0,1,38,1,1335.3999999761581,37,1,376.60000002384186,10,1,experiment,NA,NA,1,0.7,0.3,2,3,106,3,NA
fcp-trial,155,807055,0.0-116.0-0.0,voc_e2,12588,"[{""event"":""fullscreenenter"",""trial"":1,""time"":1758}]",NA,NA,NA,NA,NA,1,#D89F1C,#3386FF,0,10,0,38,1,821.5999999046326,39,0,640.8999999761581,10,1,experiment,NA,NA,2,0.5,0.5,5,4,107,3,NA
fcp-trial,156,810172,0.0-117.0-0.0,voc_e2,12588,"[{""event"":""fullscreenenter"",""trial"":1,""time"":1758}]",NA,NA,NA,NA,NA,6,#1CD855,#FA92F8,10,0,1,40,0,1023.8999999761581,39,0,581,0,0,experiment,NA,NA,0,0.9,0.1,0,1,108,3,NA
fcp-trial,157,813338,0.0-118.0-0.0,voc_e2,12588,"[{""event"":""fullscreenenter"",""trial"":1,""time"":1758}]",NA,NA,NA,NA,NA,2,#3386FF,#D89F1C,0,10,1,38,1,1239.8999999761581,37,1,399.89999997615814,0,1,experiment,NA,NA,2,0.5,0.5,4,5,109,3,NA
fcp-trial,158,816956,0.0-119.0-0.0,voc_e2,12588,"[{""event"":""fullscreenenter"",""trial"":1,""time"":1758}]",NA,NA,NA,NA,NA,4,#D8271C,#741CD8,0,10,0,40,0,1655.5,37,1,448.7000000476837,0,0,experiment,NA,NA,1,0.3,0.7,3,2,110,3,NA
fcp-trial,159,820638,0.0-120.0-0.0,voc_e2,12588,"[{""event"":""fullscreenenter"",""trial"":1,""time"":1758}]",NA,NA,NA,NA,NA,0,#1CD855,#FA92F8,0,0,1,38,1,1333.0999999046326,37,1,828.6999999284744,0,1,experiment,NA,NA,0,0.9,0.1,0,1,111,3,NA
fcp-trial,160,822907,0.0-121.0-0.0,voc_e2,12588,"[{""event"":""fullscreenenter"",""trial"":1,""time"":1758}]",NA,NA,NA,NA,NA,2,#1CD855,#FA92F8,10,0,1,38,1,469.7000000476837,37,1,286.10000002384186,10,1,experiment,NA,NA,0,0.9,0.1,0,1,112,3,NA
fcp-trial,161,825752,0.0-122.0-0.0,voc_e2,12588,"[{""event"":""fullscreenenter"",""trial"":1,""time"":1758}]",NA,NA,NA,NA,NA,4,#3386FF,#D89F1C,0,0,1,38,1,799.7000000476837,37,1,524.5,0,1,experiment,NA,NA,2,0.5,0.5,4,5,113,3,NA
fcp-trial,162,828952,0.0-123.0-0.0,voc_e2,12588,"[{""event"":""fullscreenenter"",""trial"":1,""time"":1758}]",NA,NA,NA,NA,NA,2,#741CD8,#D8271C,10,10,1,38,1,1326.4000000953674,39,0,356.7999999523163,10,0,experiment,NA,NA,1,0.7,0.3,2,3,114,3,NA
fcp-trial,163,832244,0.0-124.0-0.0,voc_e2,12588,"[{""event"":""fullscreenenter"",""trial"":1,""time"":1758}]",NA,NA,NA,NA,NA,1,#FA92F8,#1CD855,0,10,0,38,1,1027.7999999523163,39,0,757.3999999761581,10,1,experiment,NA,NA,0,0.1,0.9,1,0,115,3,NA
fcp-trial,164,834787,0.0-125.0-0.0,voc_e2,12588,"[{""event"":""fullscreenenter"",""trial"":1,""time"":1758}]",NA,NA,NA,NA,NA,0,#D89F1C,#3386FF,10,10,0,38,1,568.5,39,0,467.60000002384186,10,1,experiment,NA,NA,2,0.5,0.5,5,4,116,3,NA
fcp-trial,165,837350,0.0-126.0-0.0,voc_e2,12588,"[{""event"":""fullscreenenter"",""trial"":1,""time"":1758}]",NA,NA,NA,NA,NA,1,#741CD8,#D8271C,0,10,1,38,1,662.5,37,1,394,0,1,experiment,NA,NA,1,0.7,0.3,2,3,117,3,NA
fcp-trial,166,840080,0.0-127.0-0.0,voc_e2,12588,"[{""event"":""fullscreenenter"",""trial"":1,""time"":1758}]",NA,NA,NA,NA,NA,6,#D89F1C,#3386FF,10,0,0,38,1,710.2999999523163,39,0,512.6000000238419,0,1,experiment,NA,NA,2,0.5,0.5,5,4,118,3,NA
fcp-trial,167,842380,0.0-128.0-0.0,voc_e2,12588,"[{""event"":""fullscreenenter"",""trial"":1,""time"":1758}]",NA,NA,NA,NA,NA,3,#3386FF,#D89F1C,10,0,1,38,1,491.7999999523163,37,1,302.7000000476837,10,1,experiment,NA,NA,2,0.5,0.5,4,5,119,3,NA
fcp-trial,168,845226,0.0-129.0-0.0,voc_e2,12588,"[{""event"":""fullscreenenter"",""trial"":1,""time"":1758}]",NA,NA,NA,NA,NA,5,#1CD855,#FA92F8,10,0,1,40,0,858.5,39,0,484.3000000715256,0,0,experiment,NA,NA,0,0.9,0.1,0,1,120,3,NA
fcp-trial,169,848465,0.0-130.0-0.0,voc_e2,12588,"[{""event"":""fullscreenenter"",""trial"":1,""time"":1758}]",NA,NA,NA,NA,NA,3,#D8271C,#741CD8,0,10,0,38,1,1296.5,39,0,437.5,10,1,experiment,NA,NA,1,0.3,0.7,3,2,121,3,NA
fcp-trial,170,850915,0.0-131.0-0.0,voc_e2,12588,"[{""event"":""fullscreenenter"",""trial"":1,""time"":1758}]",NA,NA,NA,NA,NA,5,#D89F1C,#3386FF,0,10,0,38,1,519.3000000715256,39,0,427.10000002384186,10,1,experiment,NA,NA,2,0.5,0.5,5,4,122,3,NA
fcp-trial,171,853409,0.0-132.0-0.0,voc_e2,12588,"[{""event"":""fullscreenenter"",""trial"":1,""time"":1758}]",NA,NA,NA,NA,NA,6,#D8271C,#741CD8,0,0,0,38,1,360.39999997615814,39,0,623.6999999284744,0,1,experiment,NA,NA,1,0.3,0.7,3,2,123,3,NA
fcp-trial,172,856035,0.0-133.0-0.0,voc_e2,12588,"[{""event"":""fullscreenenter"",""trial"":1,""time"":1758}]",NA,NA,NA,NA,NA,3,#1CD855,#FA92F8,10,0,1,38,1,656.7999999523163,37,1,462.3000000715256,10,1,experiment,NA,NA,0,0.9,0.1,0,1,124,3,NA
fcp-trial,173,859205,0.0-134.0-0.0,voc_e2,12588,"[{""event"":""fullscreenenter"",""trial"":1,""time"":1758}]",NA,NA,NA,NA,NA,4,#1CD855,#FA92F8,0,0,1,40,0,1192.6000000238419,39,0,470.2999999523163,0,0,experiment,NA,NA,0,0.9,0.1,0,1,125,3,NA
fcp-trial,174,862298,0.0-135.0-0.0,voc_e2,12588,"[{""event"":""fullscreenenter"",""trial"":1,""time"":1758}]",NA,NA,NA,NA,NA,0,#D8271C,#741CD8,0,0,0,38,1,710.2000000476837,39,0,874.7999999523163,0,1,experiment,NA,NA,1,0.3,0.7,3,2,126,3,NA
fcp-trial,175,864543,0.0-136.0-0.0,voc_e2,12588,"[{""event"":""fullscreenenter"",""trial"":1,""time"":1758}]",NA,NA,NA,NA,NA,2,#D8271C,#741CD8,10,0,0,38,1,432.3000000715256,37,1,304.60000002384186,10,0,experiment,NA,NA,1,0.3,0.7,3,2,127,3,NA
fcp-trial,176,866726,0.0-137.0-0.0,voc_e2,12588,"[{""event"":""fullscreenenter"",""trial"":1,""time"":1758}]",NA,NA,NA,NA,NA,3,#1CD855,#FA92F8,10,0,1,38,1,418.2000000476837,37,1,258.60000002384186,10,1,experiment,NA,NA,0,0.9,0.1,0,1,128,3,NA
fcp-trial,177,869520,0.0-138.0-0.0,voc_e2,12588,"[{""event"":""fullscreenenter"",""trial"":1,""time"":1758}]",NA,NA,NA,NA,NA,3,#D89F1C,#3386FF,10,0,0,38,1,931.4000000953674,39,0,357.6999999284744,0,1,experiment,NA,NA,2,0.5,0.5,5,4,129,3,NA
fcp-trial,178,873639,0.0-139.0-0.0,voc_e2,12588,"[{""event"":""fullscreenenter"",""trial"":1,""time"":1758}]",NA,NA,NA,NA,NA,4,#741CD8,#D8271C,10,10,1,38,1,1800.6999999284744,39,0,812.8000000715256,10,0,experiment,NA,NA,1,0.7,0.3,2,3,130,3,NA
fcp-trial,179,876265,0.0-140.0-0.0,voc_e2,12588,"[{""event"":""fullscreenenter"",""trial"":1,""time"":1758}]",NA,NA,NA,NA,NA,6,#D89F1C,#3386FF,10,0,0,40,0,694.8000000715256,37,1,425.7999999523163,10,0,experiment,NA,NA,2,0.5,0.5,5,4,131,3,NA
fcp-trial,180,879108,0.0-141.0-0.0,voc_e2,12588,"[{""event"":""fullscreenenter"",""trial"":1,""time"":1758}]",NA,NA,NA,NA,NA,6,#1CD855,#FA92F8,10,0,1,40,0,971.5,37,1,365.6999999284744,10,1,experiment,NA,NA,0,0.9,0.1,0,1,132,3,NA
fcp-trial,181,881852,0.0-142.0-0.0,voc_e2,12588,"[{""event"":""fullscreenenter"",""trial"":1,""time"":1758}]",NA,NA,NA,NA,NA,6,#741CD8,#D8271C,10,10,1,40,0,776.7000000476837,39,0,461.39999997615814,10,0,experiment,NA,NA,1,0.7,0.3,2,3,133,3,NA
fcp-trial,182,884876,0.0-143.0-0.0,voc_e2,12588,"[{""event"":""fullscreenenter"",""trial"":1,""time"":1758}]",NA,NA,NA,NA,NA,4,#FA92F8,#1CD855,0,10,0,40,0,1029.6000000238419,37,1,488.09999990463257,0,0,experiment,NA,NA,0,0.1,0.9,1,0,134,3,NA
fcp-trial,183,888087,0.0-144.0-0.0,voc_e2,12588,"[{""event"":""fullscreenenter"",""trial"":1,""time"":1758}]",NA,NA,NA,NA,NA,1,#D89F1C,#3386FF,10,0,0,38,1,1152.7000000476837,39,0,551.1999999284744,0,1,experiment,NA,NA,2,0.5,0.5,5,4,135,3,NA
fcp-trial,184,890431,0.0-145.0-0.0,voc_e2,12588,"[{""event"":""fullscreenenter"",""trial"":1,""time"":1758}]",NA,NA,NA,NA,NA,0,#3386FF,#D89F1C,10,0,1,38,1,475.40000009536743,37,1,365.09999990463257,10,1,experiment,NA,NA,2,0.5,0.5,4,5,136,4,NA
fcp-trial,185,896135,0.0-146.0-0.0,voc_e2,12588,"[{""event"":""fullscreenenter"",""trial"":1,""time"":1758}]",NA,NA,NA,NA,NA,3,#D8271C,#741CD8,0,0,0,38,1,1984.5,37,1,2209.399999976158,0,0,experiment,NA,NA,1,0.3,0.7,3,2,137,4,NA
fcp-trial,186,898492,0.0-147.0-0.0,voc_e2,12588,"[{""event"":""fullscreenenter"",""trial"":1,""time"":1758}]",NA,NA,NA,NA,NA,0,#1CD855,#FA92F8,10,0,1,38,1,495.8000000715256,37,1,353.60000002384186,10,1,experiment,NA,NA,0,0.9,0.1,0,1,138,4,NA
fcp-trial,187,901624,0.0-148.0-0.0,voc_e2,12588,"[{""event"":""fullscreenenter"",""trial"":1,""time"":1758}]",NA,NA,NA,NA,NA,0,#741CD8,#D8271C,10,0,1,38,1,1054.2999999523163,37,1,571.2000000476837,10,1,experiment,NA,NA,1,0.7,0.3,2,3,139,4,NA
fcp-trial,188,904569,0.0-149.0-0.0,voc_e2,12588,"[{""event"":""fullscreenenter"",""trial"":1,""time"":1758}]",NA,NA,NA,NA,NA,2,#1CD855,#FA92F8,10,0,1,38,1,964.6999999284744,37,1,473.89999997615814,10,1,experiment,NA,NA,0,0.9,0.1,0,1,140,4,NA
fcp-trial,189,908536,0.0-150.0-0.0,voc_e2,12588,"[{""event"":""fullscreenenter"",""trial"":1,""time"":1758}]",NA,NA,NA,NA,NA,5,#D89F1C,#3386FF,10,10,0,40,0,1959.3000000715256,37,1,500.5,10,0,experiment,NA,NA,2,0.5,0.5,5,4,141,4,NA
fcp-trial,190,911973,0.0-151.0-0.0,voc_e2,12588,"[{""event"":""fullscreenenter"",""trial"":1,""time"":1758}]",NA,NA,NA,NA,NA,1,#D8271C,#741CD8,0,0,0,38,1,1295.3999999761581,37,1,634.6000000238419,0,0,experiment,NA,NA,1,0.3,0.7,3,2,142,4,NA
fcp-trial,191,915460,0.0-152.0-0.0,voc_e2,12588,"[{""event"":""fullscreenenter"",""trial"":1,""time"":1758}]",NA,NA,NA,NA,NA,4,#3386FF,#D89F1C,10,0,1,40,0,1581.5,37,1,399.89999997615814,10,1,experiment,NA,NA,2,0.5,0.5,4,5,143,4,NA
fcp-trial,192,918385,0.0-153.0-0.0,voc_e2,12588,"[{""event"":""fullscreenenter"",""trial"":1,""time"":1758}]",NA,NA,NA,NA,NA,5,#741CD8,#D8271C,10,0,1,40,0,1033.8000000715256,37,1,382.1999999284744,10,1,experiment,NA,NA,1,0.7,0.3,2,3,144,4,NA
fcp-trial,193,921494,0.0-154.0-0.0,voc_e2,12588,"[{""event"":""fullscreenenter"",""trial"":1,""time"":1758}]",NA,NA,NA,NA,NA,1,#1CD855,#FA92F8,10,0,1,38,1,1305.3999999761581,37,1,298.39999997615814,10,1,experiment,NA,NA,0,0.9,0.1,0,1,145,4,NA
fcp-trial,194,924014,0.0-155.0-0.0,voc_e2,12588,"[{""event"":""fullscreenenter"",""trial"":1,""time"":1758}]",NA,NA,NA,NA,NA,5,#FA92F8,#1CD855,0,10,0,38,1,554.1999999284744,39,0,456.6999999284744,10,1,experiment,NA,NA,0,0.1,0.9,1,0,146,4,NA
fcp-trial,195,927774,0.0-156.0-0.0,voc_e2,12588,"[{""event"":""fullscreenenter"",""trial"":1,""time"":1758}]",NA,NA,NA,NA,NA,2,#D89F1C,#3386FF,0,0,0,38,1,1750.3999999761581,39,0,502.5,0,1,experiment,NA,NA,2,0.5,0.5,5,4,147,4,NA
fcp-trial,196,930440,0.0-157.0-0.0,voc_e2,12588,"[{""event"":""fullscreenenter"",""trial"":1,""time"":1758}]",NA,NA,NA,NA,NA,1,#3386FF,#D89F1C,0,10,1,38,1,695.7000000476837,37,1,462,0,1,experiment,NA,NA,2,0.5,0.5,4,5,148,4,NA
fcp-trial,197,934315,0.0-158.0-0.0,voc_e2,12588,"[{""event"":""fullscreenenter"",""trial"":1,""time"":1758}]",NA,NA,NA,NA,NA,0,#FA92F8,#1CD855,0,10,0,38,1,750.3999999761581,39,0,1620.7999999523163,10,1,experiment,NA,NA,0,0.1,0.9,1,0,149,4,NA
fcp-trial,198,936793,0.0-159.0-0.0,voc_e2,12588,"[{""event"":""fullscreenenter"",""trial"":1,""time"":1758}]",NA,NA,NA,NA,NA,3,#D8271C,#741CD8,0,10,0,38,1,641.2000000476837,37,1,332.39999997615814,0,0,experiment,NA,NA,1,0.3,0.7,3,2,150,4,NA
fcp-trial,199,939629,0.0-160.0-0.0,voc_e2,12588,"[{""event"":""fullscreenenter"",""trial"":1,""time"":1758}]",NA,NA,NA,NA,NA,2,#1CD855,#FA92F8,10,0,1,38,1,691.8999999761581,37,1,639.2000000476837,10,1,experiment,NA,NA,0,0.9,0.1,0,1,151,4,NA
fcp-trial,200,942203,0.0-161.0-0.0,voc_e2,12588,"[{""event"":""fullscreenenter"",""trial"":1,""time"":1758}]",NA,NA,NA,NA,NA,5,#FA92F8,#1CD855,10,10,0,40,0,700.7999999523163,39,0,360,10,1,experiment,NA,NA,0,0.1,0.9,1,0,152,4,NA
fcp-trial,201,945970,0.0-162.0-0.0,voc_e2,12588,"[{""event"":""fullscreenenter"",""trial"":1,""time"":1758}]",NA,NA,NA,NA,NA,2,#3386FF,#D89F1C,10,10,1,38,1,1957.3000000715256,39,0,304.60000002384186,10,0,experiment,NA,NA,2,0.5,0.5,4,5,153,4,NA
fcp-trial,202,949373,0.0-163.0-0.0,voc_e2,12588,"[{""event"":""fullscreenenter"",""trial"":1,""time"":1758}]",NA,NA,NA,NA,NA,4,#1CD855,#FA92F8,10,10,1,40,0,1590,37,1,307.2000000476837,10,1,experiment,NA,NA,0,0.9,0.1,0,1,154,4,NA
fcp-trial,203,952148,0.0-164.0-0.0,voc_e2,12588,"[{""event"":""fullscreenenter"",""trial"":1,""time"":1758}]",NA,NA,NA,NA,NA,2,#D8271C,#741CD8,0,10,0,38,1,968.7999999523163,37,1,297.89999997615814,0,0,experiment,NA,NA,1,0.3,0.7,3,2,155,4,NA
fcp-trial,204,954665,0.0-165.0-0.0,voc_e2,12588,"[{""event"":""fullscreenenter"",""trial"":1,""time"":1758}]",NA,NA,NA,NA,NA,4,#741CD8,#D8271C,10,10,1,38,1,717.3999999761581,39,0,291.7999999523163,10,0,experiment,NA,NA,1,0.7,0.3,2,3,156,4,NA
fcp-trial,205,956994,0.0-166.0-0.0,voc_e2,12588,"[{""event"":""fullscreenenter"",""trial"":1,""time"":1758}]",NA,NA,NA,NA,NA,5,#D8271C,#741CD8,0,10,0,38,1,510.7000000476837,37,1,311.1999999284744,0,0,experiment,NA,NA,1,0.3,0.7,3,2,157,4,NA
fcp-trial,206,961764,0.0-167.0-0.0,voc_e2,12588,"[{""event"":""fullscreenenter"",""trial"":1,""time"":1758}]",NA,NA,NA,NA,NA,0,#3386FF,#D89F1C,0,0,1,38,1,2968,39,0,293.39999997615814,0,0,experiment,NA,NA,2,0.5,0.5,4,5,158,4,NA
fcp-trial,207,964963,0.0-168.0-0.0,voc_e2,12588,"[{""event"":""fullscreenenter"",""trial"":1,""time"":1758}]",NA,NA,NA,NA,NA,6,#1CD855,#FA92F8,10,0,1,38,1,1221,37,1,471.90000009536743,10,1,experiment,NA,NA,0,0.9,0.1,0,1,159,4,NA
fcp-trial,208,969633,0.0-169.0-0.0,voc_e2,12588,"[{""event"":""fullscreenenter"",""trial"":1,""time"":1758}]",NA,NA,NA,NA,NA,1,#741CD8,#D8271C,10,0,1,38,1,1378.7999999523163,39,0,1782.7999999523163,0,0,experiment,NA,NA,1,0.7,0.3,2,3,160,4,NA
fcp-trial,209,974975,0.0-170.0-0.0,voc_e2,12588,"[{""event"":""fullscreenenter"",""trial"":1,""time"":1758}]",NA,NA,NA,NA,NA,3,#3386FF,#D89F1C,0,10,1,38,1,762.6000000238419,39,0,3072.9000000953674,10,0,experiment,NA,NA,2,0.5,0.5,4,5,161,4,NA
fcp-trial,210,981110,0.0-171.0-0.0,voc_e2,12588,"[{""event"":""fullscreenenter"",""trial"":1,""time"":1758}]",NA,NA,NA,NA,NA,1,#FA92F8,#1CD855,0,10,0,38,1,805.3999999761581,39,0,3819.600000023842,10,1,experiment,NA,NA,0,0.1,0.9,1,0,162,4,NA
fcp-trial,211,984698,0.0-172.0-0.0,voc_e2,12588,"[{""event"":""fullscreenenter"",""trial"":1,""time"":1758}]",NA,NA,NA,NA,NA,4,#D89F1C,#3386FF,10,0,0,40,0,1666.2999999523163,37,1,412.7999999523163,10,0,experiment,NA,NA,2,0.5,0.5,5,4,163,4,NA
fcp-trial,212,989455,0.0-173.0-0.0,voc_e2,12588,"[{""event"":""fullscreenenter"",""trial"":1,""time"":1758}]",NA,NA,NA,NA,NA,0,#741CD8,#D8271C,10,10,1,38,1,2454.2999999523163,37,1,795.3999999761581,10,1,experiment,NA,NA,1,0.7,0.3,2,3,164,4,NA
fcp-trial,213,992607,0.0-174.0-0.0,voc_e2,12588,"[{""event"":""fullscreenenter"",""trial"":1,""time"":1758}]",NA,NA,NA,NA,NA,3,#1CD855,#FA92F8,0,0,1,38,1,1293.1000000238419,37,1,353.10000002384186,0,1,experiment,NA,NA,0,0.9,0.1,0,1,165,4,NA
fcp-trial,214,995879,0.0-175.0-0.0,voc_e2,12588,"[{""event"":""fullscreenenter"",""trial"":1,""time"":1758}]",NA,NA,NA,NA,NA,5,#D89F1C,#3386FF,0,0,0,40,0,1430.8000000715256,37,1,336.39999997615814,0,0,experiment,NA,NA,2,0.5,0.5,5,4,166,4,NA
fcp-trial,215,1000476,0.0-176.0-0.0,voc_e2,12588,"[{""event"":""fullscreenenter"",""trial"":1,""time"":1758}]",NA,NA,NA,NA,NA,6,#3386FF,#D89F1C,10,10,1,40,0,2680.2000000476837,39,0,408.60000002384186,10,0,experiment,NA,NA,2,0.5,0.5,4,5,167,4,NA
fcp-trial,216,1003509,0.0-177.0-0.0,voc_e2,12588,"[{""event"":""fullscreenenter"",""trial"":1,""time"":1758}]",NA,NA,NA,NA,NA,6,#741CD8,#D8271C,0,0,1,38,1,1055.8000000715256,37,1,471,0,1,experiment,NA,NA,1,0.7,0.3,2,3,168,4,NA
fcp-trial,217,1006982,0.0-178.0-0.0,voc_e2,12588,"[{""event"":""fullscreenenter"",""trial"":1,""time"":1758}]",NA,NA,NA,NA,NA,5,#D89F1C,#3386FF,0,0,0,40,0,1669.3999999761581,37,1,295.10000002384186,0,0,experiment,NA,NA,2,0.5,0.5,5,4,169,4,NA
fcp-trial,218,1012079,0.0-179.0-0.0,voc_e2,12588,"[{""event"":""fullscreenenter"",""trial"":1,""time"":1758}]",NA,NA,NA,NA,NA,1,#1CD855,#FA92F8,10,0,1,38,1,2057.7000000476837,37,1,1534.8999999761581,10,1,experiment,NA,NA,0,0.9,0.1,0,1,170,4,NA
fcp-trial,219,1015366,0.0-180.0-0.0,voc_e2,12588,"[{""event"":""fullscreenenter"",""trial"":1,""time"":1758}]",NA,NA,NA,NA,NA,4,#1CD855,#FA92F8,10,0,1,38,1,1483.2000000476837,37,1,300,10,1,experiment,NA,NA,0,0.9,0.1,0,1,171,4,NA
fcp-trial,220,1019212,0.0-181.0-0.0,voc_e2,12588,"[{""event"":""fullscreenenter"",""trial"":1,""time"":1758}]",NA,NA,NA,NA,NA,3,#741CD8,#D8271C,0,10,1,40,0,1901.6000000238419,37,1,438.10000002384186,0,1,experiment,NA,NA,1,0.7,0.3,2,3,172,4,NA
fcp-trial,221,1022441,0.0-182.0-0.0,voc_e2,12588,"[{""event"":""fullscreenenter"",""trial"":1,""time"":1758}]",NA,NA,NA,NA,NA,4,#741CD8,#D8271C,10,0,1,40,0,1286.1000000238419,37,1,437.7000000476837,10,1,experiment,NA,NA,1,0.7,0.3,2,3,173,4,NA
fcp-trial,222,1026063,0.0-183.0-0.0,voc_e2,12588,"[{""event"":""fullscreenenter"",""trial"":1,""time"":1758}]",NA,NA,NA,NA,NA,3,#D89F1C,#3386FF,0,0,0,40,0,1598,39,0,513.7000000476837,0,1,experiment,NA,NA,2,0.5,0.5,5,4,174,4,NA
fcp-trial,223,1028663,0.0-184.0-0.0,voc_e2,12588,"[{""event"":""fullscreenenter"",""trial"":1,""time"":1758}]",NA,NA,NA,NA,NA,6,#FA92F8,#1CD855,0,0,0,40,0,672.7000000476837,39,0,423,0,1,experiment,NA,NA,0,0.1,0.9,1,0,175,4,NA
fcp-trial,224,1031173,0.0-185.0-0.0,voc_e2,12588,"[{""event"":""fullscreenenter"",""trial"":1,""time"":1758}]",NA,NA,NA,NA,NA,6,#3386FF,#D89F1C,0,0,1,40,0,583,37,1,420.09999990463257,0,1,experiment,NA,NA,2,0.5,0.5,4,5,176,4,NA
fcp-trial,225,1034526,0.0-186.0-0.0,voc_e2,12588,"[{""event"":""fullscreenenter"",""trial"":1,""time"":1758}]",NA,NA,NA,NA,NA,0,#FA92F8,#1CD855,0,10,0,38,1,1589.3000000715256,39,0,254,10,1,experiment,NA,NA,0,0.1,0.9,1,0,177,4,NA
fcp-trial,226,1037479,0.0-187.0-0.0,voc_e2,12588,"[{""event"":""fullscreenenter"",""trial"":1,""time"":1758}]",NA,NA,NA,NA,NA,1,#741CD8,#D8271C,10,0,1,38,1,1147.3999999761581,37,1,298.39999997615814,10,1,experiment,NA,NA,1,0.7,0.3,2,3,178,4,NA
fcp-trial,227,1040901,0.0-188.0-0.0,voc_e2,12588,"[{""event"":""fullscreenenter"",""trial"":1,""time"":1758}]",NA,NA,NA,NA,NA,0,#3386FF,#D89F1C,10,0,1,38,1,1478.8999999761581,39,0,438.5,0,0,experiment,NA,NA,2,0.5,0.5,4,5,179,4,NA
fcp-trial,228,1043517,0.0-189.0-0.0,voc_e2,12588,"[{""event"":""fullscreenenter"",""trial"":1,""time"":1758}]",NA,NA,NA,NA,NA,5,#FA92F8,#1CD855,10,10,0,38,1,620.6000000238419,39,0,487.89999997615814,10,1,experiment,NA,NA,0,0.1,0.9,1,0,180,4,NA
fcp-trial,229,1046033,0.0-190.0-0.0,voc_e2,12588,"[{""event"":""fullscreenenter"",""trial"":1,""time"":1758}]",NA,NA,NA,NA,NA,2,#FA92F8,#1CD855,0,10,0,38,1,457.59999990463257,39,0,549,10,1,experiment,NA,NA,0,0.1,0.9,1,0,181,5,NA
fcp-trial,230,1049027,0.0-191.0-0.0,voc_e2,12588,"[{""event"":""fullscreenenter"",""trial"":1,""time"":1758}]",NA,NA,NA,NA,NA,0,#741CD8,#D8271C,10,0,1,38,1,1110.7000000476837,37,1,376.39999997615814,10,1,experiment,NA,NA,1,0.7,0.3,2,3,182,5,NA
fcp-trial,231,1051916,0.0-192.0-0.0,voc_e2,12588,"[{""event"":""fullscreenenter"",""trial"":1,""time"":1758}]",NA,NA,NA,NA,NA,2,#741CD8,#D8271C,10,0,1,38,1,1085.2000000476837,37,1,297.7999999523163,10,1,experiment,NA,NA,1,0.7,0.3,2,3,183,5,NA
fcp-trial,232,1054448,0.0-193.0-0.0,voc_e2,12588,"[{""event"":""fullscreenenter"",""trial"":1,""time"":1758}]",NA,NA,NA,NA,NA,4,#3386FF,#D89F1C,0,0,1,38,1,664.6999999284744,39,0,361,0,0,experiment,NA,NA,2,0.5,0.5,4,5,184,5,NA
fcp-trial,233,1057502,0.0-194.0-0.0,voc_e2,12588,"[{""event"":""fullscreenenter"",""trial"":1,""time"":1758}]",NA,NA,NA,NA,NA,3,#1CD855,#FA92F8,10,0,1,38,1,1266.3000000715256,37,1,282.7999999523163,10,1,experiment,NA,NA,0,0.9,0.1,0,1,185,5,NA
fcp-trial,234,1061974,0.0-195.0-0.0,voc_e2,12588,"[{""event"":""fullscreenenter"",""trial"":1,""time"":1758}]",NA,NA,NA,NA,NA,2,#3386FF,#D89F1C,0,10,1,38,1,1165.7000000476837,39,0,1797.7999999523163,10,0,experiment,NA,NA,2,0.5,0.5,4,5,186,5,NA
fcp-trial,235,1064479,0.0-196.0-0.0,voc_e2,12588,"[{""event"":""fullscreenenter"",""trial"":1,""time"":1758}]",NA,NA,NA,NA,NA,6,#D8271C,#741CD8,0,0,0,40,0,673.9000000953674,39,0,324.39999997615814,0,1,experiment,NA,NA,1,0.3,0.7,3,2,187,5,NA
fcp-trial,236,1067311,0.0-197.0-0.0,voc_e2,12588,"[{""event"":""fullscreenenter"",""trial"":1,""time"":1758}]",NA,NA,NA,NA,NA,5,#D8271C,#741CD8,0,0,0,40,0,1006.7999999523163,39,0,319.60000002384186,0,1,experiment,NA,NA,1,0.3,0.7,3,2,188,5,NA
fcp-trial,237,1071046,0.0-198.0-0.0,voc_e2,12588,"[{""event"":""fullscreenenter"",""trial"":1,""time"":1758}]",NA,NA,NA,NA,NA,1,#D89F1C,#3386FF,10,0,0,38,1,1919.1999999284744,37,1,312,10,0,experiment,NA,NA,2,0.5,0.5,5,4,189,5,NA
fcp-trial,238,1073805,0.0-199.0-0.0,voc_e2,12588,"[{""event"":""fullscreenenter"",""trial"":1,""time"":1758}]",NA,NA,NA,NA,NA,3,#D8271C,#741CD8,10,10,0,38,1,975.6999999284744,37,1,275.3000000715256,10,0,experiment,NA,NA,1,0.3,0.7,3,2,190,5,NA
fcp-trial,239,1076346,0.0-200.0-0.0,voc_e2,12588,"[{""event"":""fullscreenenter"",""trial"":1,""time"":1758}]",NA,NA,NA,NA,NA,6,#D8271C,#741CD8,0,10,0,38,1,634.7999999523163,37,1,401.2000000476837,0,0,experiment,NA,NA,1,0.3,0.7,3,2,191,5,NA
fcp-trial,240,1078982,0.0-201.0-0.0,voc_e2,12588,"[{""event"":""fullscreenenter"",""trial"":1,""time"":1758}]",NA,NA,NA,NA,NA,5,#D8271C,#741CD8,0,10,0,40,0,702.2000000476837,39,0,429.39999997615814,10,1,experiment,NA,NA,1,0.3,0.7,3,2,192,5,NA
fcp-trial,241,1082132,0.0-202.0-0.0,voc_e2,12588,"[{""event"":""fullscreenenter"",""trial"":1,""time"":1758}]",NA,NA,NA,NA,NA,1,#741CD8,#D8271C,0,0,1,38,1,1327.2999999523163,37,1,315.90000009536743,0,1,experiment,NA,NA,1,0.7,0.3,2,3,193,5,NA
fcp-trial,242,1085383,0.0-203.0-0.0,voc_e2,12588,"[{""event"":""fullscreenenter"",""trial"":1,""time"":1758}]",NA,NA,NA,NA,NA,4,#FA92F8,#1CD855,0,10,0,38,1,788.1000000238419,39,0,958.8999999761581,10,1,experiment,NA,NA,0,0.1,0.9,1,0,194,5,NA
fcp-trial,243,1088437,0.0-204.0-0.0,voc_e2,12588,"[{""event"":""fullscreenenter"",""trial"":1,""time"":1758}]",NA,NA,NA,NA,NA,4,#3386FF,#D89F1C,10,10,1,40,0,1117.5,39,0,428.8000000715256,10,0,experiment,NA,NA,2,0.5,0.5,4,5,195,5,NA
fcp-trial,244,1092265,0.0-205.0-0.0,voc_e2,12588,"[{""event"":""fullscreenenter"",""trial"":1,""time"":1758}]",NA,NA,NA,NA,NA,2,#D89F1C,#3386FF,10,0,0,38,1,1874.6000000238419,37,1,442.39999997615814,10,0,experiment,NA,NA,2,0.5,0.5,5,4,196,5,NA
fcp-trial,245,1095468,0.0-206.0-0.0,voc_e2,12588,"[{""event"":""fullscreenenter"",""trial"":1,""time"":1758}]",NA,NA,NA,NA,NA,5,#FA92F8,#1CD855,0,10,0,40,0,1259.2999999523163,37,1,436.2999999523163,0,0,experiment,NA,NA,0,0.1,0.9,1,0,197,5,NA
fcp-trial,246,1100295,0.0-207.0-0.0,voc_e2,12588,"[{""event"":""fullscreenenter"",""trial"":1,""time"":1758}]",NA,NA,NA,NA,NA,4,#741CD8,#D8271C,10,0,1,40,0,2867.399999976158,39,0,449.59999990463257,0,0,experiment,NA,NA,1,0.7,0.3,2,3,198,5,NA
fcp-trial,247,1103505,0.0-208.0-0.0,voc_e2,12588,"[{""event"":""fullscreenenter"",""trial"":1,""time"":1758}]",NA,NA,NA,NA,NA,0,#3386FF,#D89F1C,10,0,1,38,1,1293.4000000953674,39,0,409,0,0,experiment,NA,NA,2,0.5,0.5,4,5,199,5,NA
fcp-trial,248,1105842,0.0-209.0-0.0,voc_e2,12588,"[{""event"":""fullscreenenter"",""trial"":1,""time"":1758}]",NA,NA,NA,NA,NA,0,#1CD855,#FA92F8,10,0,1,38,1,468.60000002384186,37,1,361.7000000476837,10,1,experiment,NA,NA,0,0.9,0.1,0,1,200,5,NA
fcp-trial,249,1108711,0.0-210.0-0.0,voc_e2,12588,"[{""event"":""fullscreenenter"",""trial"":1,""time"":1758}]",NA,NA,NA,NA,NA,1,#FA92F8,#1CD855,0,10,0,38,1,933,39,0,431.10000002384186,10,1,experiment,NA,NA,0,0.1,0.9,1,0,201,5,NA
fcp-trial,250,1112080,0.0-211.0-0.0,voc_e2,12588,"[{""event"":""fullscreenenter"",""trial"":1,""time"":1758}]",NA,NA,NA,NA,NA,3,#3386FF,#D89F1C,10,10,1,38,1,1186.4000000953674,39,0,676.4000000953674,10,0,experiment,NA,NA,2,0.5,0.5,4,5,202,5,NA
fcp-trial,251,1115493,0.0-212.0-0.0,voc_e2,12588,"[{""event"":""fullscreenenter"",""trial"":1,""time"":1758}]",NA,NA,NA,NA,NA,2,#741CD8,#D8271C,10,0,1,38,1,1092.3000000715256,39,0,814.8999999761581,0,0,experiment,NA,NA,1,0.7,0.3,2,3,203,5,NA
fcp-trial,252,1118555,0.0-213.0-0.0,voc_e2,12588,"[{""event"":""fullscreenenter"",""trial"":1,""time"":1758}]",NA,NA,NA,NA,NA,6,#1CD855,#FA92F8,10,0,1,40,0,1164.8000000715256,37,1,392.5,10,1,experiment,NA,NA,0,0.9,0.1,0,1,204,5,NA
fcp-trial,253,1122290,0.0-214.0-0.0,voc_e2,12588,"[{""event"":""fullscreenenter"",""trial"":1,""time"":1758}]",NA,NA,NA,NA,NA,6,#D89F1C,#3386FF,0,0,0,38,1,1882.8999999761581,37,1,348.2999999523163,0,0,experiment,NA,NA,2,0.5,0.5,5,4,205,5,NA
fcp-trial,254,1125193,0.0-215.0-0.0,voc_e2,12588,"[{""event"":""fullscreenenter"",""trial"":1,""time"":1758}]",NA,NA,NA,NA,NA,5,#D89F1C,#3386FF,0,0,0,40,0,964.0999999046326,37,1,435.1999999284744,0,0,experiment,NA,NA,2,0.5,0.5,5,4,206,5,NA
fcp-trial,255,1128796,0.0-216.0-0.0,voc_e2,12588,"[{""event"":""fullscreenenter"",""trial"":1,""time"":1758}]",NA,NA,NA,NA,NA,3,#FA92F8,#1CD855,0,10,0,38,1,1465.7000000476837,39,0,628.8000000715256,10,1,experiment,NA,NA,0,0.1,0.9,1,0,207,5,NA
fcp-trial,256,1133375,0.0-217.0-0.0,voc_e2,12588,"[{""event"":""fullscreenenter"",""trial"":1,""time"":1758}]",NA,NA,NA,NA,NA,0,#D8271C,#741CD8,10,10,0,38,1,966.1000000238419,39,0,2104.8000000715256,10,1,experiment,NA,NA,1,0.3,0.7,3,2,208,5,NA
fcp-trial,257,1136379,0.0-218.0-0.0,voc_e2,12588,"[{""event"":""fullscreenenter"",""trial"":1,""time"":1758}]",NA,NA,NA,NA,NA,2,#1CD855,#FA92F8,0,0,1,38,1,1218.1999999284744,37,1,279,0,1,experiment,NA,NA,0,0.9,0.1,0,1,209,5,NA
fcp-trial,258,1138990,0.0-219.0-0.0,voc_e2,12588,"[{""event"":""fullscreenenter"",""trial"":1,""time"":1758}]",NA,NA,NA,NA,NA,1,#3386FF,#D89F1C,0,10,1,38,1,694.7000000476837,39,0,409.1999999284744,10,0,experiment,NA,NA,2,0.5,0.5,4,5,210,5,NA
audio-instructions,259,1144870,0.0-220.0,voc_e2,12588,"[{""event"":""fullscreenenter"",""trial"":1,""time"":1758}]",NA,509.60000002384186,static/audio/pause.wav,NA,0,NA,NA,NA,NA,NA,NA,NA,NA,NA,NA,NA,NA,NA,NA,NA,NA,NA,NA,NA,NA,NA,NA,NA,NA,NA
fcp-trial,260,1148097,0.0-221.0-0.0,voc_e2,12588,"[{""event"":""fullscreenenter"",""trial"":1,""time"":1758}]",NA,NA,NA,NA,NA,4,#FA92F8,#1CD855,0,10,0,40,0,1217.7000000476837,37,1,490.8000000715256,0,0,experiment,NA,NA,0,0.1,0.9,1,0,211,5,NA
fcp-trial,261,1151101,0.0-222.0-0.0,voc_e2,12588,"[{""event"":""fullscreenenter"",""trial"":1,""time"":1758}]",NA,NA,NA,NA,NA,0,#3386FF,#D89F1C,10,10,1,38,1,825.6000000238419,39,0,664.8000000715256,10,0,experiment,NA,NA,2,0.5,0.5,4,5,212,5,NA
fcp-trial,262,1154625,0.0-223.0-0.0,voc_e2,12588,"[{""event"":""fullscreenenter"",""trial"":1,""time"":1758}]",NA,NA,NA,NA,NA,1,#741CD8,#D8271C,10,0,1,38,1,1468.9000000953674,37,1,544.2999999523163,10,1,experiment,NA,NA,1,0.7,0.3,2,3,213,5,NA
fcp-trial,263,1157334,0.0-224.0-0.0,voc_e2,12588,"[{""event"":""fullscreenenter"",""trial"":1,""time"":1758}]",NA,NA,NA,NA,NA,6,#741CD8,#D8271C,0,0,1,38,1,470.3000000715256,37,1,730.5999999046326,0,1,experiment,NA,NA,1,0.7,0.3,2,3,214,5,NA
fcp-trial,264,1160152,0.0-225.0-0.0,voc_e2,12588,"[{""event"":""fullscreenenter"",""trial"":1,""time"":1758}]",NA,NA,NA,NA,NA,1,#FA92F8,#1CD855,0,10,0,38,1,853.6000000238419,39,0,452.1999999284744,10,1,experiment,NA,NA,0,0.1,0.9,1,0,215,5,NA
fcp-trial,265,1163240,0.0-226.0-0.0,voc_e2,12588,"[{""event"":""fullscreenenter"",""trial"":1,""time"":1758}]",NA,NA,NA,NA,NA,5,#D8271C,#741CD8,0,0,0,40,0,1191.8999999761581,37,1,387.7999999523163,0,0,experiment,NA,NA,1,0.3,0.7,3,2,216,5,NA
fcp-trial,266,1166301,0.0-227.0-0.0,voc_e2,12588,"[{""event"":""fullscreenenter"",""trial"":1,""time"":1758}]",NA,NA,NA,NA,NA,6,#D89F1C,#3386FF,10,10,0,40,0,1132.1000000238419,39,0,420.6999999284744,10,1,experiment,NA,NA,2,0.5,0.5,5,4,217,5,NA
fcp-trial,267,1170282,0.0-228.0-0.0,voc_e2,12588,"[{""event"":""fullscreenenter"",""trial"":1,""time"":1758}]",NA,NA,NA,NA,NA,3,#3386FF,#D89F1C,10,10,1,38,1,995.3999999761581,39,0,1476.5,10,0,experiment,NA,NA,2,0.5,0.5,4,5,218,5,NA
fcp-trial,268,1174676,0.0-229.0-0.0,voc_e2,12588,"[{""event"":""fullscreenenter"",""trial"":1,""time"":1758}]",NA,NA,NA,NA,NA,4,#741CD8,#D8271C,0,0,1,38,1,1454.3999999761581,37,1,1427.0999999046326,0,1,experiment,NA,NA,1,0.7,0.3,2,3,219,5,NA
fcp-trial,269,1177545,0.0-230.0-0.0,voc_e2,12588,"[{""event"":""fullscreenenter"",""trial"":1,""time"":1758}]",NA,NA,NA,NA,NA,5,#1CD855,#FA92F8,10,0,1,40,0,904.5,37,1,459.10000002384186,10,1,experiment,NA,NA,0,0.9,0.1,0,1,220,5,NA
fcp-trial,270,1181392,0.0-231.0-0.0,voc_e2,12588,"[{""event"":""fullscreenenter"",""trial"":1,""time"":1758}]",NA,NA,NA,NA,NA,1,#D89F1C,#3386FF,0,10,0,38,1,1024.6000000238419,37,1,1315.7999999523163,0,0,experiment,NA,NA,2,0.5,0.5,5,4,221,5,NA
fcp-trial,271,1184860,0.0-232.0-0.0,voc_e2,12588,"[{""event"":""fullscreenenter"",""trial"":1,""time"":1758}]",NA,NA,NA,NA,NA,0,#D8271C,#741CD8,0,10,0,38,1,906.7999999523163,37,1,1053.2999999523163,0,0,experiment,NA,NA,1,0.3,0.7,3,2,222,5,NA
fcp-trial,272,1187872,0.0-233.0-0.0,voc_e2,12588,"[{""event"":""fullscreenenter"",""trial"":1,""time"":1758}]",NA,NA,NA,NA,NA,2,#D89F1C,#3386FF,10,0,0,38,1,1000,39,0,504.2000000476837,0,1,experiment,NA,NA,2,0.5,0.5,5,4,223,5,NA
fcp-trial,273,1191088,0.0-234.0-0.0,voc_e2,12588,"[{""event"":""fullscreenenter"",""trial"":1,""time"":1758}]",NA,NA,NA,NA,NA,3,#741CD8,#D8271C,10,10,1,38,1,1240.8999999761581,37,1,467.60000002384186,10,1,experiment,NA,NA,1,0.7,0.3,2,3,224,5,NA
fcp-trial,274,1194652,0.0-235.0-0.0,voc_e2,12588,"[{""event"":""fullscreenenter"",""trial"":1,""time"":1758}]",NA,NA,NA,NA,NA,3,#FA92F8,#1CD855,0,10,0,38,1,1159.5999999046326,37,1,887,0,0,experiment,NA,NA,0,0.1,0.9,1,0,225,5,NA
fcp-trial,275,1198009,0.0-236.0-0.0,voc_e2,12588,"[{""event"":""fullscreenenter"",""trial"":1,""time"":1758}]",NA,NA,NA,NA,NA,4,#D89F1C,#3386FF,0,0,0,38,1,1376.2999999523163,37,1,474,0,0,experiment,NA,NA,2,0.5,0.5,5,4,226,6,NA
fcp-trial,276,1200601,0.0-237.0-0.0,voc_e2,12588,"[{""event"":""fullscreenenter"",""trial"":1,""time"":1758}]",NA,NA,NA,NA,NA,2,#FA92F8,#1CD855,0,10,0,38,1,717.8000000715256,39,0,365.3000000715256,10,1,experiment,NA,NA,0,0.1,0.9,1,0,227,6,NA
fcp-trial,277,1204221,0.0-238.0-0.0,voc_e2,12588,"[{""event"":""fullscreenenter"",""trial"":1,""time"":1758}]",NA,NA,NA,NA,NA,2,#741CD8,#D8271C,0,0,1,38,1,1120.3000000715256,39,0,994.7999999523163,0,0,experiment,NA,NA,1,0.7,0.3,2,3,228,6,NA
fcp-trial,278,1207589,0.0-239.0-0.0,voc_e2,12588,"[{""event"":""fullscreenenter"",""trial"":1,""time"":1758}]",NA,NA,NA,NA,NA,6,#1CD855,#FA92F8,0,0,1,40,0,1457,37,1,405.60000002384186,0,1,experiment,NA,NA,0,0.9,0.1,0,1,229,6,NA
fcp-trial,279,1210984,0.0-240.0-0.0,voc_e2,12588,"[{""event"":""fullscreenenter"",""trial"":1,""time"":1758}]",NA,NA,NA,NA,NA,0,#1CD855,#FA92F8,10,0,1,38,1,1216.7000000476837,37,1,671.6000000238419,10,1,experiment,NA,NA,0,0.9,0.1,0,1,230,6,NA
fcp-trial,280,1213977,0.0-241.0-0.0,voc_e2,12588,"[{""event"":""fullscreenenter"",""trial"":1,""time"":1758}]",NA,NA,NA,NA,NA,5,#3386FF,#D89F1C,0,10,1,40,0,1070.3999999761581,37,1,415,0,1,experiment,NA,NA,2,0.5,0.5,4,5,231,6,NA
fcp-trial,281,1220678,0.0-242.0-0.0,voc_e2,12588,"[{""event"":""fullscreenenter"",""trial"":1,""time"":1758}]",NA,NA,NA,NA,NA,0,#1CD855,#FA92F8,10,0,1,38,1,4734.200000047684,37,1,458.5,10,1,experiment,NA,NA,0,0.9,0.1,0,1,232,6,NA
fcp-trial,282,1223716,0.0-243.0-0.0,voc_e2,12588,"[{""event"":""fullscreenenter"",""trial"":1,""time"":1758}]",NA,NA,NA,NA,NA,6,#741CD8,#D8271C,0,0,1,40,0,1086.7999999523163,37,1,435.3000000715256,0,1,experiment,NA,NA,1,0.7,0.3,2,3,233,6,NA
fcp-trial,283,1227434,0.0-244.0-0.0,voc_e2,12588,"[{""event"":""fullscreenenter"",""trial"":1,""time"":1758}]",NA,NA,NA,NA,NA,6,#D89F1C,#3386FF,0,10,0,38,1,1707.1000000238419,37,1,502.8000000715256,0,0,experiment,NA,NA,2,0.5,0.5,5,4,234,6,NA
fcp-trial,284,1230335,0.0-245.0-0.0,voc_e2,12588,"[{""event"":""fullscreenenter"",""trial"":1,""time"":1758}]",NA,NA,NA,NA,NA,1,#FA92F8,#1CD855,0,10,0,38,1,1088.2000000476837,39,0,308.89999997615814,10,1,experiment,NA,NA,0,0.1,0.9,1,0,235,6,NA
fcp-trial,285,1232642,0.0-246.0-0.0,voc_e2,12588,"[{""event"":""fullscreenenter"",""trial"":1,""time"":1758}]",NA,NA,NA,NA,NA,6,#1CD855,#FA92F8,10,10,1,38,1,535.8999999761581,37,1,264.2000000476837,10,1,experiment,NA,NA,0,0.9,0.1,0,1,236,6,NA
fcp-trial,286,1235785,0.0-247.0-0.0,voc_e2,12588,"[{""event"":""fullscreenenter"",""trial"":1,""time"":1758}]",NA,NA,NA,NA,NA,5,#741CD8,#D8271C,10,10,1,40,0,1117.6000000238419,37,1,516.2000000476837,10,1,experiment,NA,NA,1,0.7,0.3,2,3,237,6,NA
fcp-trial,287,1238632,0.0-248.0-0.0,voc_e2,12588,"[{""event"":""fullscreenenter"",""trial"":1,""time"":1758}]",NA,NA,NA,NA,NA,4,#D8271C,#741CD8,0,0,0,40,0,954.5,37,1,388.2999999523163,0,0,experiment,NA,NA,1,0.3,0.7,3,2,238,6,NA
fcp-trial,288,1242203,0.0-249.0-0.0,voc_e2,12588,"[{""event"":""fullscreenenter"",""trial"":1,""time"":1758}]",NA,NA,NA,NA,NA,2,#3386FF,#D89F1C,10,0,1,38,1,1643.1000000238419,39,0,422.5,0,0,experiment,NA,NA,2,0.5,0.5,4,5,239,6,NA
fcp-trial,289,1244567,0.0-250.0-0.0,voc_e2,12588,"[{""event"":""fullscreenenter"",""trial"":1,""time"":1758}]",NA,NA,NA,NA,NA,4,#FA92F8,#1CD855,0,10,0,38,1,508.7999999523163,39,0,349.89999997615814,10,1,experiment,NA,NA,0,0.1,0.9,1,0,240,6,NA
fcp-trial,290,1248147,0.0-251.0-0.0,voc_e2,12588,"[{""event"":""fullscreenenter"",""trial"":1,""time"":1758}]",NA,NA,NA,NA,NA,2,#D8271C,#741CD8,10,0,0,38,1,1722,39,0,350.5,0,1,experiment,NA,NA,1,0.3,0.7,3,2,241,6,NA
fcp-trial,291,1252164,0.0-252.0-0.0,voc_e2,12588,"[{""event"":""fullscreenenter"",""trial"":1,""time"":1758}]",NA,NA,NA,NA,NA,4,#3386FF,#D89F1C,0,0,1,40,0,1812.3000000715256,39,0,699,0,0,experiment,NA,NA,2,0.5,0.5,4,5,242,6,NA
fcp-trial,292,1255479,0.0-253.0-0.0,voc_e2,12588,"[{""event"":""fullscreenenter"",""trial"":1,""time"":1758}]",NA,NA,NA,NA,NA,3,#3386FF,#D89F1C,10,10,1,38,1,1446.2000000476837,39,0,361.2999999523163,10,0,experiment,NA,NA,2,0.5,0.5,4,5,243,6,NA
fcp-trial,293,1258329,0.0-254.0-0.0,voc_e2,12588,"[{""event"":""fullscreenenter"",""trial"":1,""time"":1758}]",NA,NA,NA,NA,NA,0,#3386FF,#D89F1C,10,0,1,38,1,816.1000000238419,39,0,523.8999999761581,0,0,experiment,NA,NA,2,0.5,0.5,4,5,244,6,NA
fcp-trial,294,1261178,0.0-255.0-0.0,voc_e2,12588,"[{""event"":""fullscreenenter"",""trial"":1,""time"":1758}]",NA,NA,NA,NA,NA,5,#1CD855,#FA92F8,10,0,1,40,0,1000.6000000238419,37,1,342.2000000476837,10,1,experiment,NA,NA,0,0.9,0.1,0,1,245,6,NA
fcp-trial,295,1265196,0.0-256.0-0.0,voc_e2,12588,"[{""event"":""fullscreenenter"",""trial"":1,""time"":1758}]",NA,NA,NA,NA,NA,1,#D8271C,#741CD8,0,0,0,40,0,1742.4000000953674,39,0,769.7000000476837,0,1,experiment,NA,NA,1,0.3,0.7,3,2,246,6,NA
fcp-trial,296,1268166,0.0-257.0-0.0,voc_e2,12588,"[{""event"":""fullscreenenter"",""trial"":1,""time"":1758}]",NA,NA,NA,NA,NA,5,#D89F1C,#3386FF,10,10,0,40,0,962.6000000238419,37,1,500.8000000715256,10,0,experiment,NA,NA,2,0.5,0.5,5,4,247,6,NA
fcp-trial,297,1272473,0.0-258.0-0.0,voc_e2,12588,"[{""event"":""fullscreenenter"",""trial"":1,""time"":1758}]",NA,NA,NA,NA,NA,3,#FA92F8,#1CD855,0,0,0,38,1,1352.7999999523163,39,0,1450.1000000238419,0,1,experiment,NA,NA,0,0.1,0.9,1,0,248,6,NA
fcp-trial,298,1274825,0.0-259.0-0.0,voc_e2,12588,"[{""event"":""fullscreenenter"",""trial"":1,""time"":1758}]",NA,NA,NA,NA,NA,2,#1CD855,#FA92F8,10,0,1,38,1,542.6000000238419,37,1,302.2000000476837,10,1,experiment,NA,NA,0,0.9,0.1,0,1,249,6,NA
fcp-trial,299,1277942,0.0-260.0-0.0,voc_e2,12588,"[{""event"":""fullscreenenter"",""trial"":1,""time"":1758}]",NA,NA,NA,NA,NA,1,#3386FF,#D89F1C,10,0,1,38,1,1348.8999999761581,39,0,258.89999997615814,0,0,experiment,NA,NA,2,0.5,0.5,4,5,250,6,NA
fcp-trial,300,1281361,0.0-261.0-0.0,voc_e2,12588,"[{""event"":""fullscreenenter"",""trial"":1,""time"":1758}]",NA,NA,NA,NA,NA,0,#D8271C,#741CD8,0,10,0,38,1,1518.3999999761581,39,0,391.39999997615814,10,1,experiment,NA,NA,1,0.3,0.7,3,2,251,6,NA
fcp-trial,301,1284251,0.0-262.0-0.0,voc_e2,12588,"[{""event"":""fullscreenenter"",""trial"":1,""time"":1758}]",NA,NA,NA,NA,NA,3,#D8271C,#741CD8,0,0,0,38,1,1093.8999999761581,37,1,286,0,0,experiment,NA,NA,1,0.3,0.7,3,2,252,6,NA
fcp-trial,302,1287627,0.0-263.0-0.0,voc_e2,12588,"[{""event"":""fullscreenenter"",""trial"":1,""time"":1758}]",NA,NA,NA,NA,NA,6,#3386FF,#D89F1C,10,10,1,40,0,1477.1000000238419,39,0,389.5,10,0,experiment,NA,NA,2,0.5,0.5,4,5,253,6,NA
fcp-trial,303,1290855,0.0-264.0-0.0,voc_e2,12588,"[{""event"":""fullscreenenter"",""trial"":1,""time"":1758}]",NA,NA,NA,NA,NA,6,#741CD8,#D8271C,0,10,1,40,0,1054.8000000715256,39,0,666.7000000476837,10,0,experiment,NA,NA,1,0.7,0.3,2,3,254,6,NA
fcp-trial,304,1293855,0.0-265.0-0.0,voc_e2,12588,"[{""event"":""fullscreenenter"",""trial"":1,""time"":1758}]",NA,NA,NA,NA,NA,3,#1CD855,#FA92F8,10,0,1,38,1,1210.5,37,1,283.89999997615814,10,1,experiment,NA,NA,0,0.9,0.1,0,1,255,6,NA
fcp-trial,305,1296826,0.0-266.0-0.0,voc_e2,12588,"[{""event"":""fullscreenenter"",""trial"":1,""time"":1758}]",NA,NA,NA,NA,NA,0,#D8271C,#741CD8,0,10,0,38,1,1136.5,39,0,323.89999997615814,10,1,experiment,NA,NA,1,0.3,0.7,3,2,256,6,NA
fcp-trial,306,1300037,0.0-267.0-0.0,voc_e2,12588,"[{""event"":""fullscreenenter"",""trial"":1,""time"":1758}]",NA,NA,NA,NA,NA,5,#D89F1C,#3386FF,10,10,0,40,0,1351.2000000476837,37,1,351,10,0,experiment,NA,NA,2,0.5,0.5,5,4,257,6,NA
fcp-trial,307,1303206,0.0-268.0-0.0,voc_e2,12588,"[{""event"":""fullscreenenter"",""trial"":1,""time"":1758}]",NA,NA,NA,NA,NA,2,#741CD8,#D8271C,10,10,1,38,1,1365.8000000715256,37,1,289.40000009536743,10,1,experiment,NA,NA,1,0.7,0.3,2,3,258,6,NA
fcp-trial,308,1306295,0.0-269.0-0.0,voc_e2,12588,"[{""event"":""fullscreenenter"",""trial"":1,""time"":1758}]",NA,NA,NA,NA,NA,3,#741CD8,#D8271C,10,0,1,38,1,1325.8999999761581,37,1,257.59999990463257,10,1,experiment,NA,NA,1,0.7,0.3,2,3,259,6,NA
fcp-trial,309,1309435,0.0-270.0-0.0,voc_e2,12588,"[{""event"":""fullscreenenter"",""trial"":1,""time"":1758}]",NA,NA,NA,NA,NA,6,#1CD855,#FA92F8,10,10,1,40,0,1291.8000000715256,37,1,342.2999999523163,10,1,experiment,NA,NA,0,0.9,0.1,0,1,260,6,NA
fcp-trial,310,1312888,0.0-271.0-0.0,voc_e2,12588,"[{""event"":""fullscreenenter"",""trial"":1,""time"":1758}]",NA,NA,NA,NA,NA,0,#3386FF,#D89F1C,0,10,1,38,1,1364.7999999523163,39,0,579.6000000238419,10,0,experiment,NA,NA,2,0.5,0.5,4,5,261,6,NA
fcp-trial,311,1315659,0.0-272.0-0.0,voc_e2,12588,"[{""event"":""fullscreenenter"",""trial"":1,""time"":1758}]",NA,NA,NA,NA,NA,4,#741CD8,#D8271C,0,10,1,38,1,995.3999999761581,37,1,260.2999999523163,0,1,experiment,NA,NA,1,0.7,0.3,2,3,262,6,NA
fcp-trial,312,1319933,0.0-273.0-0.0,voc_e2,12588,"[{""event"":""fullscreenenter"",""trial"":1,""time"":1758}]",NA,NA,NA,NA,NA,1,#D89F1C,#3386FF,10,10,0,38,1,2230.5,37,1,537.3999999761581,10,0,experiment,NA,NA,2,0.5,0.5,5,4,263,6,NA
fcp-trial,313,1322609,0.0-274.0-0.0,voc_e2,12588,"[{""event"":""fullscreenenter"",""trial"":1,""time"":1758}]",NA,NA,NA,NA,NA,1,#741CD8,#D8271C,10,0,1,38,1,732.8999999761581,37,1,437.89999997615814,10,1,experiment,NA,NA,1,0.7,0.3,2,3,264,6,NA
fcp-trial,314,1325931,0.0-275.0-0.0,voc_e2,12588,"[{""event"":""fullscreenenter"",""trial"":1,""time"":1758}]",NA,NA,NA,NA,NA,5,#FA92F8,#1CD855,0,10,0,40,0,1416.3999999761581,37,1,399.6999999284744,0,0,experiment,NA,NA,0,0.1,0.9,1,0,265,6,NA
fcp-trial,315,1329562,0.0-276.0-0.0,voc_e2,12588,"[{""event"":""fullscreenenter"",""trial"":1,""time"":1758}]",NA,NA,NA,NA,NA,0,#1CD855,#FA92F8,10,0,1,38,1,1031.2999999523163,37,1,1094.3999999761581,10,1,experiment,NA,NA,0,0.9,0.1,0,1,266,6,NA
fcp-trial,316,1332899,0.0-277.0-0.0,voc_e2,12588,"[{""event"":""fullscreenenter"",""trial"":1,""time"":1758}]",NA,NA,NA,NA,NA,4,#3386FF,#D89F1C,10,10,1,40,0,1301.3999999761581,37,1,530.6000000238419,10,1,experiment,NA,NA,2,0.5,0.5,4,5,267,6,NA
fcp-trial,317,1335595,0.0-278.0-0.0,voc_e2,12588,"[{""event"":""fullscreenenter"",""trial"":1,""time"":1758}]",NA,NA,NA,NA,NA,2,#D89F1C,#3386FF,0,10,0,38,1,853.7999999523163,37,1,334.60000002384186,0,0,experiment,NA,NA,2,0.5,0.5,5,4,268,6,NA
fcp-trial,318,1339727,0.0-279.0-0.0,voc_e2,12588,"[{""event"":""fullscreenenter"",""trial"":1,""time"":1758}]",NA,NA,NA,NA,NA,5,#D8271C,#741CD8,0,10,0,40,0,2141.0999999046326,39,0,486.7999999523163,10,1,experiment,NA,NA,1,0.3,0.7,3,2,269,6,NA
fcp-trial,319,1342727,0.0-280.0-0.0,voc_e2,12588,"[{""event"":""fullscreenenter"",""trial"":1,""time"":1758}]",NA,NA,NA,NA,NA,4,#1CD855,#FA92F8,0,0,1,38,1,562.2000000476837,37,1,933,0,1,experiment,NA,NA,0,0.9,0.1,0,1,270,6,NA
fcp-trial,320,1345019,0.0-281.0-0.0,voc_e2,12588,"[{""event"":""fullscreenenter"",""trial"":1,""time"":1758}]",NA,NA,NA,NA,NA,2,#1CD855,#FA92F8,10,0,1,38,1,409.6999999284744,37,1,375.7000000476837,10,1,experiment,NA,NA,0,0.9,0.1,0,1,271,7,NA
fcp-trial,321,1347506,0.0-282.0-0.0,voc_e2,12588,"[{""event"":""fullscreenenter"",""trial"":1,""time"":1758}]",NA,NA,NA,NA,NA,1,#FA92F8,#1CD855,0,10,0,38,1,606.1999999284744,39,0,374.2999999523163,10,1,experiment,NA,NA,0,0.1,0.9,1,0,272,7,NA
fcp-trial,322,1352915,0.0-283.0-0.0,voc_e2,12588,"[{""event"":""fullscreenenter"",""trial"":1,""time"":1758}]",NA,NA,NA,NA,NA,3,#D89F1C,#3386FF,10,10,0,38,1,1270,37,1,2632.899999976158,10,0,experiment,NA,NA,2,0.5,0.5,5,4,273,7,NA
fcp-trial,323,1355809,0.0-284.0-0.0,voc_e2,12588,"[{""event"":""fullscreenenter"",""trial"":1,""time"":1758}]",NA,NA,NA,NA,NA,0,#D8271C,#741CD8,10,0,0,38,1,1031.0999999046326,39,0,355.89999997615814,0,1,experiment,NA,NA,1,0.3,0.7,3,2,274,7,NA
fcp-trial,324,1361325,0.0-285.0-0.0,voc_e2,12588,"[{""event"":""fullscreenenter"",""trial"":1,""time"":1758}]",NA,NA,NA,NA,NA,1,#3386FF,#D89F1C,0,10,1,38,1,942.8999999761581,39,0,3066.6999999284744,10,0,experiment,NA,NA,2,0.5,0.5,4,5,275,7,NA
fcp-trial,325,1364515,0.0-286.0-0.0,voc_e2,12588,"[{""event"":""fullscreenenter"",""trial"":1,""time"":1758}]",NA,NA,NA,NA,NA,1,#1CD855,#FA92F8,10,0,1,38,1,1283.2999999523163,37,1,398.60000002384186,10,1,experiment,NA,NA,0,0.9,0.1,0,1,276,7,NA
fcp-trial,326,1368555,0.0-287.0-0.0,voc_e2,12588,"[{""event"":""fullscreenenter"",""trial"":1,""time"":1758}]",NA,NA,NA,NA,NA,4,#D8271C,#741CD8,0,10,0,40,0,2032.5,37,1,499.89999997615814,0,0,experiment,NA,NA,1,0.3,0.7,3,2,277,7,NA
fcp-trial,327,1371927,0.0-288.0-0.0,voc_e2,12588,"[{""event"":""fullscreenenter"",""trial"":1,""time"":1758}]",NA,NA,NA,NA,NA,4,#3386FF,#D89F1C,0,0,1,40,0,1405.2999999523163,39,0,462.10000002384186,0,0,experiment,NA,NA,2,0.5,0.5,4,5,278,7,NA
fcp-trial,328,1374773,0.0-289.0-0.0,voc_e2,12588,"[{""event"":""fullscreenenter"",""trial"":1,""time"":1758}]",NA,NA,NA,NA,NA,5,#FA92F8,#1CD855,0,10,0,40,0,879.6000000238419,39,0,457.7000000476837,10,1,experiment,NA,NA,0,0.1,0.9,1,0,279,7,NA
fcp-trial,329,1377658,0.0-290.0-0.0,voc_e2,12588,"[{""event"":""fullscreenenter"",""trial"":1,""time"":1758}]",NA,NA,NA,NA,NA,2,#D8271C,#741CD8,10,10,0,38,1,1026.5,39,0,349.89999997615814,10,1,experiment,NA,NA,1,0.3,0.7,3,2,280,7,NA
fcp-trial,330,1380727,0.0-291.0-0.0,voc_e2,12588,"[{""event"":""fullscreenenter"",""trial"":1,""time"":1758}]",NA,NA,NA,NA,NA,5,#3386FF,#D89F1C,10,10,1,40,0,1179.8999999761581,37,1,380.7999999523163,10,1,experiment,NA,NA,2,0.5,0.5,4,5,281,7,NA
fcp-trial,331,1384073,0.0-292.0-0.0,voc_e2,12588,"[{""event"":""fullscreenenter"",""trial"":1,""time"":1758}]",NA,NA,NA,NA,NA,5,#D8271C,#741CD8,0,10,0,40,0,1460.1000000238419,39,0,378.5,10,1,experiment,NA,NA,1,0.3,0.7,3,2,282,7,NA
fcp-trial,332,1386866,0.0-293.0-0.0,voc_e2,12588,"[{""event"":""fullscreenenter"",""trial"":1,""time"":1758}]",NA,NA,NA,NA,NA,6,#D8271C,#741CD8,0,0,0,40,0,930.6000000238419,39,0,357.7000000476837,0,1,experiment,NA,NA,1,0.3,0.7,3,2,283,7,NA
fcp-trial,333,1389851,0.0-294.0-0.0,voc_e2,12588,"[{""event"":""fullscreenenter"",""trial"":1,""time"":1758}]",NA,NA,NA,NA,NA,6,#FA92F8,#1CD855,0,10,0,40,0,1058.1999999284744,39,0,413.7000000476837,10,1,experiment,NA,NA,0,0.1,0.9,1,0,284,7,NA
fcp-trial,334,1393855,0.0-295.0-0.0,voc_e2,12588,"[{""event"":""fullscreenenter"",""trial"":1,""time"":1758}]",NA,NA,NA,NA,NA,2,#D89F1C,#3386FF,0,10,0,38,1,1577.5,37,1,914.5999999046326,0,0,experiment,NA,NA,2,0.5,0.5,5,4,285,7,NA
fcp-trial,335,1396904,0.0-296.0-0.0,voc_e2,12588,"[{""event"":""fullscreenenter"",""trial"":1,""time"":1758}]",NA,NA,NA,NA,NA,6,#D89F1C,#3386FF,0,0,0,40,0,1173,37,1,368.39999997615814,0,0,experiment,NA,NA,2,0.5,0.5,5,4,286,7,NA
fcp-trial,336,1402825,0.0-297.0-0.0,voc_e2,12588,"[{""event"":""fullscreenenter"",""trial"":1,""time"":1758}]",NA,NA,NA,NA,NA,3,#FA92F8,#1CD855,0,10,0,38,1,1842.0999999046326,37,1,2569.5,0,0,experiment,NA,NA,0,0.1,0.9,1,0,287,7,NA
fcp-trial,337,1408244,0.0-298.0-0.0,voc_e2,12588,"[{""event"":""fullscreenenter"",""trial"":1,""time"":1758}]",NA,NA,NA,NA,NA,3,#D8271C,#741CD8,10,0,0,38,1,3410.1999999284744,39,0,503.3000000715256,0,1,experiment,NA,NA,1,0.3,0.7,3,2,288,7,NA
fcp-trial,338,1411264,0.0-299.0-0.0,voc_e2,12588,"[{""event"":""fullscreenenter"",""trial"":1,""time"":1758}]",NA,NA,NA,NA,NA,0,#D89F1C,#3386FF,10,10,0,38,1,1169.2000000476837,37,1,343.2999999523163,10,0,experiment,NA,NA,2,0.5,0.5,5,4,289,7,NA
fcp-trial,339,1414176,0.0-300.0-0.0,voc_e2,12588,"[{""event"":""fullscreenenter"",""trial"":1,""time"":1758}]",NA,NA,NA,NA,NA,4,#1CD855,#FA92F8,10,0,1,38,1,1008.1000000238419,37,1,394.60000002384186,10,1,experiment,NA,NA,0,0.9,0.1,0,1,290,7,NA
fcp-trial,340,1416801,0.0-301.0-0.0,voc_e2,12588,"[{""event"":""fullscreenenter"",""trial"":1,""time"":1758}]",NA,NA,NA,NA,NA,0,#FA92F8,#1CD855,0,10,0,38,1,841.3999999761581,39,0,277,10,1,experiment,NA,NA,0,0.1,0.9,1,0,291,7,NA
fcp-trial,341,1419167,0.0-302.0-0.0,voc_e2,12588,"[{""event"":""fullscreenenter"",""trial"":1,""time"":1758}]",NA,NA,NA,NA,NA,2,#FA92F8,#1CD855,0,10,0,38,1,555.7999999523163,39,0,302.6999999284744,10,1,experiment,NA,NA,0,0.1,0.9,1,0,292,7,NA
fcp-trial,342,1421995,0.0-303.0-0.0,voc_e2,12588,"[{""event"":""fullscreenenter"",""trial"":1,""time"":1758}]",NA,NA,NA,NA,NA,1,#D8271C,#741CD8,10,10,0,38,1,828.3000000715256,39,0,491.89999997615814,10,1,experiment,NA,NA,1,0.3,0.7,3,2,293,7,NA
fcp-trial,343,1425275,0.0-304.0-0.0,voc_e2,12588,"[{""event"":""fullscreenenter"",""trial"":1,""time"":1758}]",NA,NA,NA,NA,NA,3,#3386FF,#D89F1C,10,0,1,38,1,1364.7999999523163,39,0,404.39999997615814,0,0,experiment,NA,NA,2,0.5,0.5,4,5,294,7,NA
fcp-trial,344,1427843,0.0-305.0-0.0,voc_e2,12588,"[{""event"":""fullscreenenter"",""trial"":1,""time"":1758}]",NA,NA,NA,NA,NA,1,#741CD8,#D8271C,10,0,1,38,1,713.8999999761581,37,1,347.39999997615814,10,1,experiment,NA,NA,1,0.7,0.3,2,3,295,7,NA
fcp-trial,345,1433098,0.0-306.0-0.0,voc_e2,12588,"[{""event"":""fullscreenenter"",""trial"":1,""time"":1758}]",NA,NA,NA,NA,NA,2,#FA92F8,#1CD855,0,10,0,38,1,892.3000000715256,39,0,2854.3000000715256,10,1,experiment,NA,NA,0,0.1,0.9,1,0,296,7,NA
fcp-trial,346,1435993,0.0-307.0-0.0,voc_e2,12588,"[{""event"":""fullscreenenter"",""trial"":1,""time"":1758}]",NA,NA,NA,NA,NA,3,#741CD8,#D8271C,10,0,1,38,1,1108.1000000238419,37,1,274.2000000476837,10,1,experiment,NA,NA,1,0.7,0.3,2,3,297,7,NA
fcp-trial,347,1438624,0.0-308.0-0.0,voc_e2,12588,"[{""event"":""fullscreenenter"",""trial"":1,""time"":1758}]",NA,NA,NA,NA,NA,1,#FA92F8,#1CD855,0,10,0,38,1,802.3999999761581,39,0,322.40000009536743,10,1,experiment,NA,NA,0,0.1,0.9,1,0,298,7,NA
fcp-trial,348,1441250,0.0-309.0-0.0,voc_e2,12588,"[{""event"":""fullscreenenter"",""trial"":1,""time"":1758}]",NA,NA,NA,NA,NA,6,#741CD8,#D8271C,10,10,1,40,0,771,37,1,348.2999999523163,10,1,experiment,NA,NA,1,0.7,0.3,2,3,299,7,NA
fcp-trial,349,1444251,0.0-310.0-0.0,voc_e2,12588,"[{""event"":""fullscreenenter"",""trial"":1,""time"":1758}]",NA,NA,NA,NA,NA,6,#1CD855,#FA92F8,10,0,1,40,0,1200.8000000715256,37,1,293.7999999523163,10,1,experiment,NA,NA,0,0.9,0.1,0,1,300,7,NA
fcp-trial,350,1446816,0.0-311.0-0.0,voc_e2,12588,"[{""event"":""fullscreenenter"",""trial"":1,""time"":1758}]",NA,NA,NA,NA,NA,5,#D89F1C,#3386FF,10,10,0,40,0,696.1000000238419,39,0,361.89999997615814,10,1,experiment,NA,NA,2,0.5,0.5,5,4,301,7,NA
fcp-trial,351,1449840,0.0-312.0-0.0,voc_e2,12588,"[{""event"":""fullscreenenter"",""trial"":1,""time"":1758}]",NA,NA,NA,NA,NA,0,#3386FF,#D89F1C,10,0,1,38,1,1242,39,0,273,0,0,experiment,NA,NA,2,0.5,0.5,4,5,302,7,NA
fcp-trial,352,1452154,0.0-313.0-0.0,voc_e2,12588,"[{""event"":""fullscreenenter"",""trial"":1,""time"":1758}]",NA,NA,NA,NA,NA,1,#D89F1C,#3386FF,10,0,0,38,1,486.5,37,1,321.5,10,0,experiment,NA,NA,2,0.5,0.5,5,4,303,7,NA
fcp-trial,353,1454760,0.0-314.0-0.0,voc_e2,12588,"[{""event"":""fullscreenenter"",""trial"":1,""time"":1758}]",NA,NA,NA,NA,NA,4,#D8271C,#741CD8,0,10,0,40,0,772.6000000238419,37,1,325.10000002384186,0,0,experiment,NA,NA,1,0.3,0.7,3,2,304,7,NA
fcp-trial,354,1457081,0.0-315.0-0.0,voc_e2,12588,"[{""event"":""fullscreenenter"",""trial"":1,""time"":1758}]",NA,NA,NA,NA,NA,4,#1CD855,#FA92F8,10,0,1,38,1,535.8000000715256,37,1,276,10,1,experiment,NA,NA,0,0.9,0.1,0,1,305,7,NA
fcp-trial,355,1460740,0.0-316.0-0.0,voc_e2,12588,"[{""event"":""fullscreenenter"",""trial"":1,""time"":1758}]",NA,NA,NA,NA,NA,2,#3386FF,#D89F1C,10,0,1,38,1,952.7999999523163,39,0,1200,0,0,experiment,NA,NA,2,0.5,0.5,4,5,306,7,NA
fcp-trial,356,1463520,0.0-317.0-0.0,voc_e2,12588,"[{""event"":""fullscreenenter"",""trial"":1,""time"":1758}]",NA,NA,NA,NA,NA,0,#741CD8,#D8271C,0,10,1,38,1,984.7999999523163,37,1,286.10000002384186,0,1,experiment,NA,NA,1,0.7,0.3,2,3,307,7,NA
fcp-trial,357,1467054,0.0-318.0-0.0,voc_e2,12588,"[{""event"":""fullscreenenter"",""trial"":1,""time"":1758}]",NA,NA,NA,NA,NA,4,#D89F1C,#3386FF,10,0,0,38,1,1087.2999999523163,37,1,942.3999999761581,10,0,experiment,NA,NA,2,0.5,0.5,5,4,308,7,NA
fcp-trial,358,1469909,0.0-319.0-0.0,voc_e2,12588,"[{""event"":""fullscreenenter"",""trial"":1,""time"":1758}]",NA,NA,NA,NA,NA,3,#1CD855,#FA92F8,10,10,1,38,1,787.4000000953674,37,1,558.7000000476837,10,1,experiment,NA,NA,0,0.9,0.1,0,1,309,7,NA
fcp-trial,359,1472598,0.0-320.0-0.0,voc_e2,12588,"[{""event"":""fullscreenenter"",""trial"":1,""time"":1758}]",NA,NA,NA,NA,NA,2,#D8271C,#741CD8,0,10,0,38,1,855.2999999523163,39,0,322.2000000476837,10,1,experiment,NA,NA,1,0.3,0.7,3,2,310,7,NA
fcp-trial,360,1475250,0.0-321.0-0.0,voc_e2,12588,"[{""event"":""fullscreenenter"",""trial"":1,""time"":1758}]",NA,NA,NA,NA,NA,0,#1CD855,#FA92F8,10,0,1,38,1,760.5,37,1,384.2000000476837,10,1,experiment,NA,NA,0,0.9,0.1,0,1,311,7,NA
fcp-trial,361,1478220,0.0-322.0-0.0,voc_e2,12588,"[{""event"":""fullscreenenter"",""trial"":1,""time"":1758}]",NA,NA,NA,NA,NA,3,#D89F1C,#3386FF,10,10,0,38,1,758.0999999046326,37,1,702.5,10,0,experiment,NA,NA,2,0.5,0.5,5,4,312,7,NA
fcp-trial,362,1480806,0.0-323.0-0.0,voc_e2,12588,"[{""event"":""fullscreenenter"",""trial"":1,""time"":1758}]",NA,NA,NA,NA,NA,6,#3386FF,#D89F1C,10,10,1,40,0,674.1999999284744,39,0,407.1999999284744,10,0,experiment,NA,NA,2,0.5,0.5,4,5,313,7,NA
fcp-trial,363,1483620,0.0-324.0-0.0,voc_e2,12588,"[{""event"":""fullscreenenter"",""trial"":1,""time"":1758}]",NA,NA,NA,NA,NA,5,#FA92F8,#1CD855,0,10,0,40,0,951.5,39,0,355.7000000476837,10,1,experiment,NA,NA,0,0.1,0.9,1,0,314,7,NA
fcp-trial,364,1486327,0.0-325.0-0.0,voc_e2,12588,"[{""event"":""fullscreenenter"",""trial"":1,""time"":1758}]",NA,NA,NA,NA,NA,5,#D8271C,#741CD8,0,10,0,40,0,853.3000000715256,37,1,349.5,0,0,experiment,NA,NA,1,0.3,0.7,3,2,315,7,NA
audio-instructions,365,1493152,0.0-326.0,voc_e2,12588,"[{""event"":""fullscreenenter"",""trial"":1,""time"":1758}]",NA,384.8000000715256,static/audio/finished.wav,NA,0,NA,NA,NA,NA,NA,NA,NA,NA,NA,NA,NA,NA,NA,NA,NA,NA,NA,NA,NA,NA,NA,NA,NA,NA,NA
audio-instructions,366,1504716,0.0-327.0-0.0,voc_e2,12588,"[{""event"":""fullscreenenter"",""trial"":1,""time"":1758}]",NA,729.7999999523163,static/audio/explicit1.wav,NA,0,NA,NA,NA,NA,NA,NA,NA,NA,NA,NA,NA,NA,NA,NA,NA,NA,NA,NA,NA,NA,NA,NA,NA,NA,NA
audio-instructions,367,1512643,0.0-327.0-1.0,voc_e2,12588,"[{""event"":""fullscreenenter"",""trial"":1,""time"":1758}]",NA,326.60000002384186,static/audio/explicit2.wav,NA,0,NA,NA,NA,NA,NA,NA,NA,NA,NA,NA,NA,NA,NA,NA,NA,NA,NA,NA,NA,NA,NA,NA,NA,NA,NA
image-slider-response,368,1517554,0.0-328.0,voc_e2,12588,"[{""event"":""fullscreenenter"",""trial"":1,""time"":1758}]",NA,4909.200000047684,static/img/machines/machine6.png,NA,NA,NA,NA,NA,NA,NA,NA,NA,NA,NA,NA,NA,NA,NA,NA,explicit,NA,NA,NA,NA,NA,NA,NA,NA,NA,8
image-slider-response,369,1525864,0.0-329.0,voc_e2,12588,"[{""event"":""fullscreenenter"",""trial"":1,""time"":1758}]",NA,8309.100000023842,static/img/machines/machine3.png,NA,NA,NA,NA,NA,NA,NA,NA,NA,NA,NA,NA,NA,NA,NA,NA,explicit,NA,NA,NA,NA,NA,NA,NA,NA,NA,4
image-slider-response,370,1531051,0.0-330.0,voc_e2,12588,"[{""event"":""fullscreenenter"",""trial"":1,""time"":1758}]",NA,5185.5,static/img/machines/machine5.png,NA,NA,NA,NA,NA,NA,NA,NA,NA,NA,NA,NA,NA,NA,NA,NA,explicit,NA,NA,NA,NA,NA,NA,NA,NA,NA,7
image-slider-response,371,1533917,0.0-331.0,voc_e2,12588,"[{""event"":""fullscreenenter"",""trial"":1,""time"":1758}]",NA,2864,static/img/machines/machine2.png,NA,NA,NA,NA,NA,NA,NA,NA,NA,NA,NA,NA,NA,NA,NA,NA,explicit,NA,NA,NA,NA,NA,NA,NA,NA,NA,6
image-slider-response,372,1540633,0.0-332.0,voc_e2,12588,"[{""event"":""fullscreenenter"",""trial"":1,""time"":1758}]",NA,6714.800000071526,static/img/machines/machine4.png,NA,NA,NA,NA,NA,NA,NA,NA,NA,NA,NA,NA,NA,NA,NA,NA,explicit,NA,NA,NA,NA,NA,NA,NA,NA,NA,7
image-slider-response,373,1546845,0.0-333.0,voc_e2,12588,"[{""event"":""fullscreenenter"",""trial"":1,""time"":1758}]",NA,6210.399999976158,static/img/machines/machine1.png,NA,NA,NA,NA,NA,NA,NA,NA,NA,NA,NA,NA,NA,NA,NA,NA,explicit,NA,NA,NA,NA,NA,NA,NA,NA,NA,4
