trial_type,trial_index,time_elapsed,internal_node_id,task_version,subject_id,interactions,success,rt,stimulus,key_press,button_pressed,offer,arcade_color_L,arcade_color_R,arcade_outcome_L,arcade_outcome_R,correct,stage_1_key,stage_1_choice,stage_1_rt,stage_2_key,stage_2_choice,stage_2_rt,stage_3_outcome,accuracy,phase,responses,num_errors,context,reward_prob_L,reward_prob_R,arcade_id_L,arcade_id_R,trial,block,response
pavlovia,0,9,0.0-0.0,voc_e2,12123,[],NA,NA,NA,NA,NA,NA,NA,NA,NA,NA,NA,NA,NA,NA,NA,NA,NA,NA,NA,NA,NA,NA,NA,NA,NA,NA,NA,NA,NA,NA
fullscreen,1,2288,0.0-1.0,voc_e2,12123,"[{""event"":""fullscreenenter"",""trial"":1,""time"":1325}]",TRUE,NA,NA,NA,NA,NA,NA,NA,NA,NA,NA,NA,NA,NA,NA,NA,NA,NA,NA,NA,NA,NA,NA,NA,NA,NA,NA,NA,NA,NA
audio-keyboard-response,2,4064,0.0-2.0,voc_e2,12123,"[{""event"":""fullscreenenter"",""trial"":1,""time"":1325}]",NA,0,static/audio/beep_loop.wav,32,NA,NA,NA,NA,NA,NA,NA,NA,NA,NA,NA,NA,NA,NA,NA,NA,NA,NA,NA,NA,NA,NA,NA,NA,NA,NA
audio-test,3,5835,0.0-3.0,voc_e2,12123,"[{""event"":""fullscreenenter"",""trial"":1,""time"":1325}]",NA,NA,static/audio/turtle.wav,NA,3,NA,NA,NA,NA,NA,NA,NA,NA,NA,NA,NA,NA,NA,NA,NA,NA,NA,NA,NA,NA,NA,NA,NA,NA,NA
audio-test,4,7868,0.0-4.0,voc_e2,12123,"[{""event"":""fullscreenenter"",""trial"":1,""time"":1325}]",NA,NA,static/audio/shark.wav,NA,2,NA,NA,NA,NA,NA,NA,NA,NA,NA,NA,NA,NA,NA,NA,NA,NA,NA,NA,NA,NA,NA,NA,NA,NA,NA
audio-instructions,5,14652,0.0-5.0-0.0,voc_e2,12123,"[{""event"":""fullscreenenter"",""trial"":1,""time"":1325}]",NA,1000,static/audio/instructions1.wav,NA,0,NA,NA,NA,NA,NA,NA,NA,NA,NA,NA,NA,NA,NA,NA,NA,NA,NA,NA,NA,NA,NA,NA,NA,NA,NA
audio-instructions,6,22450,0.0-5.0-1.0,voc_e2,12123,"[{""event"":""fullscreenenter"",""trial"":1,""time"":1325}]",NA,1054,static/audio/instructions2.wav,NA,0,NA,NA,NA,NA,NA,NA,NA,NA,NA,NA,NA,NA,NA,NA,NA,NA,NA,NA,NA,NA,NA,NA,NA,NA,NA
audio-instructions,7,28834,0.0-5.0-2.0,voc_e2,12123,"[{""event"":""fullscreenenter"",""trial"":1,""time"":1325}]",NA,581,static/audio/instructions3.wav,NA,0,NA,NA,NA,NA,NA,NA,NA,NA,NA,NA,NA,NA,NA,NA,NA,NA,NA,NA,NA,NA,NA,NA,NA,NA,NA
audio-instructions,8,42618,0.0-5.0-3.0,voc_e2,12123,"[{""event"":""fullscreenenter"",""trial"":1,""time"":1325}]",NA,557,static/audio/instructions4.wav,NA,0,NA,NA,NA,NA,NA,NA,NA,NA,NA,NA,NA,NA,NA,NA,NA,NA,NA,NA,NA,NA,NA,NA,NA,NA,NA
audio-instructions,9,54252,0.0-5.0-4.0,voc_e2,12123,"[{""event"":""fullscreenenter"",""trial"":1,""time"":1325}]",NA,2245,static/audio/instructions5.wav,NA,0,NA,NA,NA,NA,NA,NA,NA,NA,NA,NA,NA,NA,NA,NA,NA,NA,NA,NA,NA,NA,NA,NA,NA,NA,NA
fcp-practice,10,56910,0.0-5.0-5.0-0.0,voc_e2,12123,"[{""event"":""fullscreenenter"",""trial"":1,""time"":1325}]",NA,NA,NA,NA,NA,NA,#EDC948,#46d3c8,10,0,1,null,null,null,37,1,1139,10,1,practice,NA,NA,NA,NA,NA,NA,NA,NA,NA,NA
fcp-practice,11,59040,0.0-5.0-5.0-1.0,voc_e2,12123,"[{""event"":""fullscreenenter"",""trial"":1,""time"":1325}]",NA,NA,NA,NA,NA,NA,#EDC948,#46d3c8,10,0,1,null,null,null,37,1,626,10,1,practice,NA,NA,NA,NA,NA,NA,NA,NA,NA,NA
fcp-practice,12,61017,0.0-5.0-5.0-2.0,voc_e2,12123,"[{""event"":""fullscreenenter"",""trial"":1,""time"":1325}]",NA,NA,NA,NA,NA,NA,#EDC948,#46d3c8,0,10,1,null,null,null,37,1,474.00000000001455,0,1,practice,NA,NA,NA,NA,NA,NA,NA,NA,NA,NA
fcp-practice,13,62829,0.0-5.0-5.0-3.0,voc_e2,12123,"[{""event"":""fullscreenenter"",""trial"":1,""time"":1325}]",NA,NA,NA,NA,NA,NA,#EDC948,#46d3c8,10,0,1,null,null,null,37,1,307,10,1,practice,NA,NA,NA,NA,NA,NA,NA,NA,NA,NA
fcp-practice,14,64736,0.0-5.0-5.0-4.0,voc_e2,12123,"[{""event"":""fullscreenenter"",""trial"":1,""time"":1325}]",NA,NA,NA,NA,NA,NA,#EDC948,#46d3c8,10,0,1,null,null,null,37,1,393,10,1,practice,NA,NA,NA,NA,NA,NA,NA,NA,NA,NA
audio-instructions,15,83319,0.0-5.0-6.0,voc_e2,12123,"[{""event"":""fullscreenenter"",""trial"":1,""time"":1325}]",NA,575,static/audio/instructions6.wav,NA,0,NA,NA,NA,NA,NA,NA,NA,NA,NA,NA,NA,NA,NA,NA,NA,NA,NA,NA,NA,NA,NA,NA,NA,NA,NA
audio-instructions,16,105935,0.0-5.0-7.0,voc_e2,12123,"[{""event"":""fullscreenenter"",""trial"":1,""time"":1325}]",NA,3414,static/audio/instructions7.wav,NA,0,NA,NA,NA,NA,NA,NA,NA,NA,NA,NA,NA,NA,NA,NA,NA,NA,NA,NA,NA,NA,NA,NA,NA,NA,NA
audio-instructions,17,115850,0.0-5.0-8.0,voc_e2,12123,"[{""event"":""fullscreenenter"",""trial"":1,""time"":1325}]",NA,442,static/audio/instructions8.wav,NA,0,NA,NA,NA,NA,NA,NA,NA,NA,NA,NA,NA,NA,NA,NA,NA,NA,NA,NA,NA,NA,NA,NA,NA,NA,NA
fcp-comprehension,18,127021,0.0-5.0-9.0,voc_e2,12123,"[{""event"":""fullscreenenter"",""trial"":1,""time"":1325}]",NA,11168,NA,NA,NA,NA,NA,NA,NA,NA,NA,NA,NA,NA,NA,NA,NA,NA,NA,NA,"true,true",0,NA,NA,NA,NA,NA,NA,NA,NA
audio-instructions,19,133635,0.0-6.0-0.0,voc_e2,12123,"[{""event"":""fullscreenenter"",""trial"":1,""time"":1325}]",NA,1065.999999999971,static/audio/instructions9.wav,NA,0,NA,NA,NA,NA,NA,NA,NA,NA,NA,NA,NA,NA,NA,NA,NA,NA,NA,NA,NA,NA,NA,NA,NA,NA,NA
audio-instructions,20,146252,0.0-6.0-1.0,voc_e2,12123,"[{""event"":""fullscreenenter"",""trial"":1,""time"":1325}]",NA,495,static/audio/instructions10.wav,NA,0,NA,NA,NA,NA,NA,NA,NA,NA,NA,NA,NA,NA,NA,NA,NA,NA,NA,NA,NA,NA,NA,NA,NA,NA,NA
fcp-trial,21,155603,0.0-6.0-2.0,voc_e2,12123,"[{""event"":""fullscreenenter"",""trial"":1,""time"":1325}]",NA,NA,NA,NA,NA,0,#EDC948,#46d3c8,10,10,1,38,1,5522,37,1,2314,10,1,practice,NA,NA,NA,NA,NA,NA,NA,NA,NA,NA
audio-instructions,22,167418,0.0-6.0-3.0,voc_e2,12123,"[{""event"":""fullscreenenter"",""trial"":1,""time"":1325}]",NA,803,static/audio/instructions11.wav,NA,0,NA,NA,NA,NA,NA,NA,NA,NA,NA,NA,NA,NA,NA,NA,NA,NA,NA,NA,NA,NA,NA,NA,NA,NA,NA
fcp-trial,23,171338,0.0-6.0-4.0,voc_e2,12123,"[{""event"":""fullscreenenter"",""trial"":1,""time"":1325}]",NA,NA,NA,NA,NA,6,#EDC948,#46d3c8,10,10,1,40,0,1168,39,0,1237,10,0,practice,NA,NA,NA,NA,NA,NA,NA,NA,NA,NA
audio-instructions,24,191202,0.0-6.0-5.0,voc_e2,12123,"[{""event"":""fullscreenenter"",""trial"":1,""time"":1325}]",NA,1175,static/audio/instructions12.wav,NA,0,NA,NA,NA,NA,NA,NA,NA,NA,NA,NA,NA,NA,NA,NA,NA,NA,NA,NA,NA,NA,NA,NA,NA,NA,NA
audio-instructions,25,199200,0.0-6.0-6.0,voc_e2,12123,"[{""event"":""fullscreenenter"",""trial"":1,""time"":1325}]",NA,403,static/audio/instructions13.wav,NA,0,NA,NA,NA,NA,NA,NA,NA,NA,NA,NA,NA,NA,NA,NA,NA,NA,NA,NA,NA,NA,NA,NA,NA,NA,NA
audio-instructions,26,209253,0.0-6.0-7.0,voc_e2,12123,"[{""event"":""fullscreenenter"",""trial"":1,""time"":1325}]",NA,1602,static/audio/instructions14.wav,NA,0,NA,NA,NA,NA,NA,NA,NA,NA,NA,NA,NA,NA,NA,NA,NA,NA,NA,NA,NA,NA,NA,NA,NA,NA,NA
audio-instructions,27,216685,0.0-7.0-0.0,voc_e2,12123,"[{""event"":""fullscreenenter"",""trial"":1,""time"":1325}]",NA,519,static/audio/instructions15.wav,NA,0,NA,NA,NA,NA,NA,NA,NA,NA,NA,NA,NA,NA,NA,NA,NA,NA,NA,NA,NA,NA,NA,NA,NA,NA,NA
audio-instructions,28,223985,0.0-7.0-1.0,voc_e2,12123,"[{""event"":""fullscreenenter"",""trial"":1,""time"":1325}]",NA,472.9999999999709,static/audio/instructions16.wav,NA,0,NA,NA,NA,NA,NA,NA,NA,NA,NA,NA,NA,NA,NA,NA,NA,NA,NA,NA,NA,NA,NA,NA,NA,NA,NA
audio-instructions,29,232086,0.0-7.0-2.0,voc_e2,12123,"[{""event"":""fullscreenenter"",""trial"":1,""time"":1325}]",NA,418.9999999999709,static/audio/instructions17.wav,NA,0,NA,NA,NA,NA,NA,NA,NA,NA,NA,NA,NA,NA,NA,NA,NA,NA,NA,NA,NA,NA,NA,NA,NA,NA,NA
audio-instructions,30,240202,0.0-7.0-3.0,voc_e2,12123,"[{""event"":""fullscreenenter"",""trial"":1,""time"":1325}]",NA,349,static/audio/instructions18.wav,NA,0,NA,NA,NA,NA,NA,NA,NA,NA,NA,NA,NA,NA,NA,NA,NA,NA,NA,NA,NA,NA,NA,NA,NA,NA,NA
audio-instructions,31,247352,0.0-7.0-4.0,voc_e2,12123,"[{""event"":""fullscreenenter"",""trial"":1,""time"":1325}]",NA,406,static/audio/instructions19.wav,NA,0,NA,NA,NA,NA,NA,NA,NA,NA,NA,NA,NA,NA,NA,NA,NA,NA,NA,NA,NA,NA,NA,NA,NA,NA,NA
fcp-comprehension,32,255824,0.0-7.0-5.0,voc_e2,12123,"[{""event"":""fullscreenenter"",""trial"":1,""time"":1325}]",NA,8470,NA,NA,NA,NA,NA,NA,NA,NA,NA,NA,NA,NA,NA,NA,NA,NA,NA,NA,"false,false,false,true",0,NA,NA,NA,NA,NA,NA,NA,NA
audio-instructions,33,267168,0.0-8.0,voc_e2,12123,"[{""event"":""fullscreenenter"",""trial"":1,""time"":1325}]",NA,2125,static/audio/ready.wav,NA,0,NA,NA,NA,NA,NA,NA,NA,NA,NA,NA,NA,NA,NA,NA,NA,NA,NA,NA,NA,NA,NA,NA,NA,NA,NA
fcp-trial,34,275742,0.0-9.0-0.0,voc_e2,12123,"[{""event"":""fullscreenenter"",""trial"":1,""time"":1325}]",NA,NA,NA,NA,NA,6,#D89F1C,#3386FF,0,10,0,40,0,3956.000000000058,39,0,3101,10,1,experiment,NA,NA,1,0.3,0.7,3,2,1,1,NA
fcp-trial,35,279513,0.0-10.0-0.0,voc_e2,12123,"[{""event"":""fullscreenenter"",""trial"":1,""time"":1325}]",NA,NA,NA,NA,NA,2,#D89F1C,#3386FF,0,10,0,38,1,1544,39,0,720,10,1,experiment,NA,NA,1,0.3,0.7,3,2,2,1,NA
fcp-trial,36,284205,0.0-11.0-0.0,voc_e2,12123,"[{""event"":""fullscreenenter"",""trial"":1,""time"":1325}]",NA,NA,NA,NA,NA,4,#D8271C,#741CD8,0,0,0,38,1,2297,39,0,880,0,1,experiment,NA,NA,2,0.5,0.5,5,4,3,1,NA
fcp-trial,37,288151,0.0-12.0-0.0,voc_e2,12123,"[{""event"":""fullscreenenter"",""trial"":1,""time"":1325}]",NA,NA,NA,NA,NA,3,#FA92F8,#1CD855,10,10,0,38,1,1413,37,1,1028,10,0,experiment,NA,NA,0,0.1,0.9,1,0,4,1,NA
fcp-trial,38,292767,0.0-13.0-0.0,voc_e2,12123,"[{""event"":""fullscreenenter"",""trial"":1,""time"":1325}]",NA,NA,NA,NA,NA,5,#3386FF,#D89F1C,10,0,1,40,0,1883,39,0,1228,0,0,experiment,NA,NA,1,0.7,0.3,2,3,5,1,NA
fcp-trial,39,296376,0.0-14.0-0.0,voc_e2,12123,"[{""event"":""fullscreenenter"",""trial"":1,""time"":1325}]",NA,NA,NA,NA,NA,3,#3386FF,#D89F1C,10,0,1,38,1,1480,37,1,623.0000000000582,10,1,experiment,NA,NA,1,0.7,0.3,2,3,6,1,NA
fcp-trial,40,299674,0.0-15.0-0.0,voc_e2,12123,"[{""event"":""fullscreenenter"",""trial"":1,""time"":1325}]",NA,NA,NA,NA,NA,1,#741CD8,#D8271C,0,0,1,38,1,1272,37,1,518,0,1,experiment,NA,NA,2,0.5,0.5,4,5,7,1,NA
fcp-trial,41,304240,0.0-16.0-0.0,voc_e2,12123,"[{""event"":""fullscreenenter"",""trial"":1,""time"":1325}]",NA,NA,NA,NA,NA,4,#3386FF,#D89F1C,0,0,1,40,0,1871,39,0,1188.0000000000582,0,0,experiment,NA,NA,1,0.7,0.3,2,3,8,1,NA
fcp-trial,42,308271,0.0-17.0-0.0,voc_e2,12123,"[{""event"":""fullscreenenter"",""trial"":1,""time"":1325}]",NA,NA,NA,NA,NA,6,#1CD855,#FA92F8,0,0,1,40,0,1466,37,1,1055.9999999999418,0,1,experiment,NA,NA,0,0.9,0.1,0,1,9,1,NA
fcp-trial,43,312734,0.0-18.0-0.0,voc_e2,12123,"[{""event"":""fullscreenenter"",""trial"":1,""time"":1325}]",NA,NA,NA,NA,NA,6,#741CD8,#D8271C,10,0,1,38,1,2092,37,1,865,10,1,experiment,NA,NA,2,0.5,0.5,4,5,10,1,NA
fcp-trial,44,317652,0.0-19.0-0.0,voc_e2,12123,"[{""event"":""fullscreenenter"",""trial"":1,""time"":1325}]",NA,NA,NA,NA,NA,4,#FA92F8,#1CD855,0,10,0,40,0,2620,39,0,792,10,1,experiment,NA,NA,0,0.1,0.9,1,0,11,1,NA
fcp-trial,45,324666,0.0-20.0-0.0,voc_e2,12123,"[{""event"":""fullscreenenter"",""trial"":1,""time"":1325}]",NA,NA,NA,NA,NA,5,#D8271C,#741CD8,0,0,0,38,1,4478,39,0,1031,0,1,experiment,NA,NA,2,0.5,0.5,5,4,12,1,NA
fcp-trial,46,328890,0.0-21.0-0.0,voc_e2,12123,"[{""event"":""fullscreenenter"",""trial"":1,""time"":1325}]",NA,NA,NA,NA,NA,0,#D89F1C,#3386FF,10,10,0,38,1,1584,39,0,1132,10,1,experiment,NA,NA,1,0.3,0.7,3,2,13,1,NA
fcp-trial,47,332005,0.0-22.0-0.0,voc_e2,12123,"[{""event"":""fullscreenenter"",""trial"":1,""time"":1325}]",NA,NA,NA,NA,NA,0,#1CD855,#FA92F8,10,0,1,38,1,927,39,0,679,0,0,experiment,NA,NA,0,0.9,0.1,0,1,14,1,NA
fcp-trial,48,336351,0.0-23.0-0.0,voc_e2,12123,"[{""event"":""fullscreenenter"",""trial"":1,""time"":1325}]",NA,NA,NA,NA,NA,5,#FA92F8,#1CD855,0,10,0,40,0,1928,37,1,912,0,0,experiment,NA,NA,0,0.1,0.9,1,0,15,1,NA
fcp-trial,49,341203,0.0-24.0-0.0,voc_e2,12123,"[{""event"":""fullscreenenter"",""trial"":1,""time"":1325}]",NA,NA,NA,NA,NA,0,#741CD8,#D8271C,10,10,1,38,1,2496,37,1,851,10,1,experiment,NA,NA,2,0.5,0.5,4,5,16,1,NA
fcp-trial,50,344359,0.0-25.0-0.0,voc_e2,12123,"[{""event"":""fullscreenenter"",""trial"":1,""time"":1325}]",NA,NA,NA,NA,NA,2,#741CD8,#D8271C,10,0,1,38,1,1192.9999999999418,37,1,456,10,1,experiment,NA,NA,2,0.5,0.5,4,5,17,1,NA
fcp-trial,51,348785,0.0-26.0-0.0,voc_e2,12123,"[{""event"":""fullscreenenter"",""trial"":1,""time"":1325}]",NA,NA,NA,NA,NA,1,#D89F1C,#3386FF,0,0,0,38,1,1406,39,0,1512.9999999999418,0,1,experiment,NA,NA,1,0.3,0.7,3,2,18,1,NA
fcp-trial,52,352430,0.0-27.0-0.0,voc_e2,12123,"[{""event"":""fullscreenenter"",""trial"":1,""time"":1325}]",NA,NA,NA,NA,NA,1,#FA92F8,#1CD855,0,10,0,38,1,1063,39,0,1075,10,1,experiment,NA,NA,0,0.1,0.9,1,0,19,1,NA
fcp-trial,53,355793,0.0-28.0-0.0,voc_e2,12123,"[{""event"":""fullscreenenter"",""trial"":1,""time"":1325}]",NA,NA,NA,NA,NA,3,#D8271C,#741CD8,0,0,0,38,1,1390,39,0,458,0,1,experiment,NA,NA,2,0.5,0.5,5,4,20,1,NA
fcp-trial,54,358934,0.0-29.0-0.0,voc_e2,12123,"[{""event"":""fullscreenenter"",""trial"":1,""time"":1325}]",NA,NA,NA,NA,NA,2,#1CD855,#FA92F8,10,0,1,38,1,1101,37,1,534,10,1,experiment,NA,NA,0,0.9,0.1,0,1,21,1,NA
fcp-trial,55,362446,0.0-30.0-0.0,voc_e2,12123,"[{""event"":""fullscreenenter"",""trial"":1,""time"":1325}]",NA,NA,NA,NA,NA,0,#741CD8,#D8271C,10,10,1,38,1,1528,39,0,478.0000000000582,10,0,experiment,NA,NA,2,0.5,0.5,4,5,22,1,NA
fcp-trial,56,367151,0.0-31.0-0.0,voc_e2,12123,"[{""event"":""fullscreenenter"",""trial"":1,""time"":1325}]",NA,NA,NA,NA,NA,5,#1CD855,#FA92F8,10,0,1,38,1,2773,37,1,418,10,1,experiment,NA,NA,0,0.9,0.1,0,1,23,1,NA
fcp-trial,57,370220,0.0-32.0-0.0,voc_e2,12123,"[{""event"":""fullscreenenter"",""trial"":1,""time"":1325}]",NA,NA,NA,NA,NA,1,#741CD8,#D8271C,0,0,1,38,1,1129,39,0,435,0,0,experiment,NA,NA,2,0.5,0.5,4,5,24,1,NA
fcp-trial,58,373905,0.0-33.0-0.0,voc_e2,12123,"[{""event"":""fullscreenenter"",""trial"":1,""time"":1325}]",NA,NA,NA,NA,NA,2,#3386FF,#D89F1C,10,0,1,38,1,936,39,0,1243,0,0,experiment,NA,NA,1,0.7,0.3,2,3,25,1,NA
fcp-trial,59,376889,0.0-34.0-0.0,voc_e2,12123,"[{""event"":""fullscreenenter"",""trial"":1,""time"":1325}]",NA,NA,NA,NA,NA,6,#D8271C,#741CD8,10,10,0,38,1,1064,37,1,413,10,0,experiment,NA,NA,2,0.5,0.5,5,4,26,1,NA
fcp-trial,60,380812,0.0-35.0-0.0,voc_e2,12123,"[{""event"":""fullscreenenter"",""trial"":1,""time"":1325}]",NA,NA,NA,NA,NA,0,#D89F1C,#3386FF,0,10,0,38,1,1366.0000000000582,39,0,1051,10,1,experiment,NA,NA,1,0.3,0.7,3,2,27,1,NA
fcp-trial,61,383761,0.0-36.0-0.0,voc_e2,12123,"[{""event"":""fullscreenenter"",""trial"":1,""time"":1325}]",NA,NA,NA,NA,NA,6,#1CD855,#FA92F8,10,0,1,38,1,958,37,1,475,10,1,experiment,NA,NA,0,0.9,0.1,0,1,28,1,NA
fcp-trial,62,386920,0.0-37.0-0.0,voc_e2,12123,"[{""event"":""fullscreenenter"",""trial"":1,""time"":1325}]",NA,NA,NA,NA,NA,1,#1CD855,#FA92F8,10,0,1,38,1,1202.0000000000582,37,1,451.0000000000582,10,1,experiment,NA,NA,0,0.9,0.1,0,1,29,1,NA
fcp-trial,63,389536,0.0-38.0-0.0,voc_e2,12123,"[{""event"":""fullscreenenter"",""trial"":1,""time"":1325}]",NA,NA,NA,NA,NA,0,#1CD855,#FA92F8,10,0,1,38,1,640,37,1,469,10,1,experiment,NA,NA,0,0.9,0.1,0,1,30,1,NA
fcp-trial,64,392802,0.0-39.0-0.0,voc_e2,12123,"[{""event"":""fullscreenenter"",""trial"":1,""time"":1325}]",NA,NA,NA,NA,NA,4,#741CD8,#D8271C,0,10,1,38,1,1081,39,0,678,10,0,experiment,NA,NA,2,0.5,0.5,4,5,31,1,NA
fcp-trial,65,395438,0.0-40.0-0.0,voc_e2,12123,"[{""event"":""fullscreenenter"",""trial"":1,""time"":1325}]",NA,NA,NA,NA,NA,5,#3386FF,#D89F1C,10,0,1,38,1,759.9999999999418,37,1,370,10,1,experiment,NA,NA,1,0.7,0.3,2,3,32,1,NA
fcp-trial,66,398295,0.0-41.0-0.0,voc_e2,12123,"[{""event"":""fullscreenenter"",""trial"":1,""time"":1325}]",NA,NA,NA,NA,NA,1,#D89F1C,#3386FF,0,0,0,38,1,798.9999999999418,39,0,549,0,1,experiment,NA,NA,1,0.3,0.7,3,2,33,1,NA
fcp-trial,67,400802,0.0-42.0-0.0,voc_e2,12123,"[{""event"":""fullscreenenter"",""trial"":1,""time"":1325}]",NA,NA,NA,NA,NA,4,#D89F1C,#3386FF,0,0,0,38,1,600,39,0,391,0,1,experiment,NA,NA,1,0.3,0.7,3,2,34,1,NA
fcp-trial,68,403514,0.0-43.0-0.0,voc_e2,12123,"[{""event"":""fullscreenenter"",""trial"":1,""time"":1325}]",NA,NA,NA,NA,NA,3,#1CD855,#FA92F8,10,0,1,38,1,613,37,1,592,10,1,experiment,NA,NA,0,0.9,0.1,0,1,35,1,NA
fcp-trial,69,406512,0.0-44.0-0.0,voc_e2,12123,"[{""event"":""fullscreenenter"",""trial"":1,""time"":1325}]",NA,NA,NA,NA,NA,2,#D8271C,#741CD8,10,0,0,38,1,1078,37,1,404,10,0,experiment,NA,NA,2,0.5,0.5,5,4,36,1,NA
fcp-trial,70,409373,0.0-45.0-0.0,voc_e2,12123,"[{""event"":""fullscreenenter"",""trial"":1,""time"":1325}]",NA,NA,NA,NA,NA,4,#FA92F8,#1CD855,0,10,0,38,1,909,39,0,436,10,1,experiment,NA,NA,0,0.1,0.9,1,0,37,1,NA
fcp-trial,71,412681,0.0-46.0-0.0,voc_e2,12123,"[{""event"":""fullscreenenter"",""trial"":1,""time"":1325}]",NA,NA,NA,NA,NA,5,#741CD8,#D8271C,0,0,1,38,1,890.9999999999418,39,0,910,0,0,experiment,NA,NA,2,0.5,0.5,4,5,38,1,NA
fcp-trial,72,415989,0.0-47.0-0.0,voc_e2,12123,"[{""event"":""fullscreenenter"",""trial"":1,""time"":1325}]",NA,NA,NA,NA,NA,3,#D89F1C,#3386FF,10,0,0,38,1,1372,39,0,419,0,1,experiment,NA,NA,1,0.3,0.7,3,2,39,1,NA
fcp-trial,73,418972,0.0-48.0-0.0,voc_e2,12123,"[{""event"":""fullscreenenter"",""trial"":1,""time"":1325}]",NA,NA,NA,NA,NA,2,#1CD855,#FA92F8,10,0,1,38,1,1172,37,1,305.0000000000582,10,1,experiment,NA,NA,0,0.9,0.1,0,1,40,1,NA
fcp-trial,74,422124,0.0-49.0-0.0,voc_e2,12123,"[{""event"":""fullscreenenter"",""trial"":1,""time"":1325}]",NA,NA,NA,NA,NA,3,#D8271C,#741CD8,0,0,0,38,1,1279,37,1,368,0,0,experiment,NA,NA,2,0.5,0.5,5,4,41,1,NA
fcp-trial,75,426319,0.0-50.0-0.0,voc_e2,12123,"[{""event"":""fullscreenenter"",""trial"":1,""time"":1325}]",NA,NA,NA,NA,NA,6,#3386FF,#D89F1C,0,10,1,40,0,2090,37,1,598,0,1,experiment,NA,NA,1,0.7,0.3,2,3,42,1,NA
fcp-trial,76,429844,0.0-51.0-0.0,voc_e2,12123,"[{""event"":""fullscreenenter"",""trial"":1,""time"":1325}]",NA,NA,NA,NA,NA,4,#FA92F8,#1CD855,0,10,0,38,1,1731.0000000000582,39,0,286,10,1,experiment,NA,NA,0,0.1,0.9,1,0,43,1,NA
fcp-trial,77,433718,0.0-52.0-0.0,voc_e2,12123,"[{""event"":""fullscreenenter"",""trial"":1,""time"":1325}]",NA,NA,NA,NA,NA,6,#741CD8,#D8271C,10,0,1,40,0,1585.9999999999418,37,1,774,10,1,experiment,NA,NA,2,0.5,0.5,4,5,44,1,NA
fcp-trial,78,438783,0.0-53.0-0.0,voc_e2,12123,"[{""event"":""fullscreenenter"",""trial"":1,""time"":1325}]",NA,NA,NA,NA,NA,5,#FA92F8,#1CD855,0,10,0,38,1,3238,39,0,320,10,1,experiment,NA,NA,0,0.1,0.9,1,0,45,1,NA
fcp-trial,79,442905,0.0-54.0-0.0,voc_e2,12123,"[{""event"":""fullscreenenter"",""trial"":1,""time"":1325}]",NA,NA,NA,NA,NA,1,#D89F1C,#3386FF,0,0,0,38,1,1381,39,0,1236,0,1,experiment,NA,NA,1,0.3,0.7,3,2,46,2,NA
fcp-trial,80,445761,0.0-55.0-0.0,voc_e2,12123,"[{""event"":""fullscreenenter"",""trial"":1,""time"":1325}]",NA,NA,NA,NA,NA,3,#741CD8,#D8271C,0,10,1,38,1,753.0000000000582,37,1,595,0,1,experiment,NA,NA,2,0.5,0.5,4,5,47,2,NA
fcp-trial,81,449166,0.0-56.0-0.0,voc_e2,12123,"[{""event"":""fullscreenenter"",""trial"":1,""time"":1325}]",NA,NA,NA,NA,NA,6,#FA92F8,#1CD855,0,10,0,40,0,1443.9999999999418,39,0,445.9999999999418,10,1,experiment,NA,NA,0,0.1,0.9,1,0,48,2,NA
fcp-trial,82,453035,0.0-57.0-0.0,voc_e2,12123,"[{""event"":""fullscreenenter"",""trial"":1,""time"":1325}]",NA,NA,NA,NA,NA,6,#D89F1C,#3386FF,0,10,0,40,0,1812.0000000000582,39,0,552,10,1,experiment,NA,NA,1,0.3,0.7,3,2,49,2,NA
fcp-trial,83,456217,0.0-58.0-0.0,voc_e2,12123,"[{""event"":""fullscreenenter"",""trial"":1,""time"":1325}]",NA,NA,NA,NA,NA,3,#3386FF,#D89F1C,10,0,1,38,1,1310,37,1,366,10,1,experiment,NA,NA,1,0.7,0.3,2,3,50,2,NA
fcp-trial,84,459802,0.0-59.0-0.0,voc_e2,12123,"[{""event"":""fullscreenenter"",""trial"":1,""time"":1325}]",NA,NA,NA,NA,NA,5,#D8271C,#741CD8,10,10,0,38,1,1578,37,1,501,10,0,experiment,NA,NA,2,0.5,0.5,5,4,51,2,NA
fcp-trial,85,462663,0.0-60.0-0.0,voc_e2,12123,"[{""event"":""fullscreenenter"",""trial"":1,""time"":1325}]",NA,NA,NA,NA,NA,1,#1CD855,#FA92F8,10,10,1,38,1,1019,37,1,335.0000000000582,10,1,experiment,NA,NA,0,0.9,0.1,0,1,52,2,NA
fcp-trial,86,466327,0.0-61.0-0.0,voc_e2,12123,"[{""event"":""fullscreenenter"",""trial"":1,""time"":1325}]",NA,NA,NA,NA,NA,1,#741CD8,#D8271C,10,0,1,38,1,1214,39,0,932.9999999999418,0,0,experiment,NA,NA,2,0.5,0.5,4,5,53,2,NA
fcp-trial,87,469394,0.0-62.0-0.0,voc_e2,12123,"[{""event"":""fullscreenenter"",""trial"":1,""time"":1325}]",NA,NA,NA,NA,NA,4,#3386FF,#D89F1C,10,0,1,38,1,1206,37,1,347,10,1,experiment,NA,NA,1,0.7,0.3,2,3,54,2,NA
fcp-trial,88,472939,0.0-63.0-0.0,voc_e2,12123,"[{""event"":""fullscreenenter"",""trial"":1,""time"":1325}]",NA,NA,NA,NA,NA,2,#D8271C,#741CD8,0,0,0,38,1,1091.9999999999418,37,1,946,0,0,experiment,NA,NA,2,0.5,0.5,5,4,55,2,NA
fcp-trial,89,476042,0.0-64.0-0.0,voc_e2,12123,"[{""event"":""fullscreenenter"",""trial"":1,""time"":1325}]",NA,NA,NA,NA,NA,0,#FA92F8,#1CD855,0,10,0,38,1,1258,39,0,339,10,1,experiment,NA,NA,0,0.1,0.9,1,0,56,2,NA
fcp-trial,90,478901,0.0-65.0-0.0,voc_e2,12123,"[{""event"":""fullscreenenter"",""trial"":1,""time"":1325}]",NA,NA,NA,NA,NA,3,#FA92F8,#1CD855,10,10,0,38,1,1004,39,0,349,10,1,experiment,NA,NA,0,0.1,0.9,1,0,57,2,NA
fcp-trial,91,483285,0.0-66.0-0.0,voc_e2,12123,"[{""event"":""fullscreenenter"",""trial"":1,""time"":1325}]",NA,NA,NA,NA,NA,4,#D8271C,#741CD8,0,10,0,38,1,1827,37,1,1051,0,0,experiment,NA,NA,2,0.5,0.5,5,4,58,2,NA
fcp-trial,92,486964,0.0-67.0-0.0,voc_e2,12123,"[{""event"":""fullscreenenter"",""trial"":1,""time"":1325}]",NA,NA,NA,NA,NA,2,#D89F1C,#3386FF,0,10,0,38,1,966,39,0,1206,10,1,experiment,NA,NA,1,0.3,0.7,3,2,59,2,NA
fcp-trial,93,490296,0.0-68.0-0.0,voc_e2,12123,"[{""event"":""fullscreenenter"",""trial"":1,""time"":1325}]",NA,NA,NA,NA,NA,0,#D8271C,#741CD8,10,0,0,38,1,930,39,0,886,0,1,experiment,NA,NA,2,0.5,0.5,5,4,60,2,NA
fcp-trial,94,493031,0.0-69.0-0.0,voc_e2,12123,"[{""event"":""fullscreenenter"",""trial"":1,""time"":1325}]",NA,NA,NA,NA,NA,2,#FA92F8,#1CD855,0,10,0,38,1,915,39,0,305,10,1,experiment,NA,NA,0,0.1,0.9,1,0,61,2,NA
fcp-trial,95,497061,0.0-70.0-0.0,voc_e2,12123,"[{""event"":""fullscreenenter"",""trial"":1,""time"":1325}]",NA,NA,NA,NA,NA,5,#D89F1C,#3386FF,0,10,0,40,0,1992,39,0,523,10,1,experiment,NA,NA,1,0.3,0.7,3,2,62,2,NA
fcp-trial,96,500901,0.0-71.0-0.0,voc_e2,12123,"[{""event"":""fullscreenenter"",""trial"":1,""time"":1325}]",NA,NA,NA,NA,NA,0,#3386FF,#D89F1C,10,0,1,38,1,1210,37,1,1116,10,1,experiment,NA,NA,1,0.7,0.3,2,3,63,2,NA
fcp-trial,97,503710,0.0-72.0-0.0,voc_e2,12123,"[{""event"":""fullscreenenter"",""trial"":1,""time"":1325}]",NA,NA,NA,NA,NA,5,#3386FF,#D89F1C,10,0,1,38,1,930,37,1,372,10,1,experiment,NA,NA,1,0.7,0.3,2,3,64,2,NA
fcp-trial,98,506867,0.0-73.0-0.0,voc_e2,12123,"[{""event"":""fullscreenenter"",""trial"":1,""time"":1325}]",NA,NA,NA,NA,NA,1,#D89F1C,#3386FF,0,10,0,38,1,1322,39,0,328,10,1,experiment,NA,NA,1,0.3,0.7,3,2,65,2,NA
fcp-trial,99,511736,0.0-74.0-0.0,voc_e2,12123,"[{""event"":""fullscreenenter"",""trial"":1,""time"":1325}]",NA,NA,NA,NA,NA,0,#741CD8,#D8271C,0,10,1,38,1,2111.999999999942,39,0,1252.0000000000582,10,0,experiment,NA,NA,2,0.5,0.5,4,5,66,2,NA
fcp-trial,100,514818,0.0-75.0-0.0,voc_e2,12123,"[{""event"":""fullscreenenter"",""trial"":1,""time"":1325}]",NA,NA,NA,NA,NA,5,#FA92F8,#1CD855,0,10,0,38,1,1059.0000000000582,39,0,516.9999999999418,10,1,experiment,NA,NA,0,0.1,0.9,1,0,67,2,NA
fcp-trial,101,518085,0.0-76.0-0.0,voc_e2,12123,"[{""event"":""fullscreenenter"",""trial"":1,""time"":1325}]",NA,NA,NA,NA,NA,3,#741CD8,#D8271C,10,10,1,38,1,1267,39,0,494,10,0,experiment,NA,NA,2,0.5,0.5,4,5,68,2,NA
fcp-trial,102,520884,0.0-77.0-0.0,voc_e2,12123,"[{""event"":""fullscreenenter"",""trial"":1,""time"":1325}]",NA,NA,NA,NA,NA,3,#3386FF,#D89F1C,10,0,1,38,1,916,37,1,380,10,1,experiment,NA,NA,1,0.7,0.3,2,3,69,2,NA
fcp-trial,103,523518,0.0-78.0-0.0,voc_e2,12123,"[{""event"":""fullscreenenter"",""trial"":1,""time"":1325}]",NA,NA,NA,NA,NA,1,#FA92F8,#1CD855,0,10,0,38,1,797,39,0,331,10,1,experiment,NA,NA,0,0.1,0.9,1,0,70,2,NA
fcp-trial,104,526301,0.0-79.0-0.0,voc_e2,12123,"[{""event"":""fullscreenenter"",""trial"":1,""time"":1325}]",NA,NA,NA,NA,NA,4,#3386FF,#D89F1C,0,0,1,38,1,902,37,1,374,0,1,experiment,NA,NA,1,0.7,0.3,2,3,71,2,NA
fcp-trial,105,529118,0.0-80.0-0.0,voc_e2,12123,"[{""event"":""fullscreenenter"",""trial"":1,""time"":1325}]",NA,NA,NA,NA,NA,0,#FA92F8,#1CD855,0,10,0,38,1,996,39,0,315.0000000001164,10,1,experiment,NA,NA,0,0.1,0.9,1,0,72,2,NA
fcp-trial,106,531769,0.0-81.0-0.0,voc_e2,12123,"[{""event"":""fullscreenenter"",""trial"":1,""time"":1325}]",NA,NA,NA,NA,NA,2,#741CD8,#D8271C,0,0,1,38,1,844,39,0,300.9999999998836,0,0,experiment,NA,NA,2,0.5,0.5,4,5,73,2,NA
fcp-trial,107,534540,0.0-82.0-0.0,voc_e2,12123,"[{""event"":""fullscreenenter"",""trial"":1,""time"":1325}]",NA,NA,NA,NA,NA,6,#D8271C,#741CD8,10,0,0,40,0,855,37,1,410,10,0,experiment,NA,NA,2,0.5,0.5,5,4,74,2,NA
fcp-trial,108,537584,0.0-83.0-0.0,voc_e2,12123,"[{""event"":""fullscreenenter"",""trial"":1,""time"":1325}]",NA,NA,NA,NA,NA,0,#3386FF,#D89F1C,10,0,1,38,1,1128,37,1,411,10,1,experiment,NA,NA,1,0.7,0.3,2,3,75,2,NA
fcp-trial,109,540294,0.0-84.0-0.0,voc_e2,12123,"[{""event"":""fullscreenenter"",""trial"":1,""time"":1325}]",NA,NA,NA,NA,NA,4,#1CD855,#FA92F8,10,0,1,38,1,948,37,1,254,10,1,experiment,NA,NA,0,0.9,0.1,0,1,76,2,NA
fcp-trial,110,543218,0.0-85.0-0.0,voc_e2,12123,"[{""event"":""fullscreenenter"",""trial"":1,""time"":1325}]",NA,NA,NA,NA,NA,1,#D8271C,#741CD8,0,10,0,38,1,860,37,1,557.0000000001164,0,0,experiment,NA,NA,2,0.5,0.5,5,4,77,2,NA
fcp-trial,111,546518,0.0-86.0-0.0,voc_e2,12123,"[{""event"":""fullscreenenter"",""trial"":1,""time"":1325}]",NA,NA,NA,NA,NA,6,#D89F1C,#3386FF,0,10,0,40,0,1367.9999999998836,39,0,426,10,1,experiment,NA,NA,1,0.3,0.7,3,2,78,2,NA
fcp-trial,112,549633,0.0-87.0-0.0,voc_e2,12123,"[{""event"":""fullscreenenter"",""trial"":1,""time"":1325}]",NA,NA,NA,NA,NA,6,#FA92F8,#1CD855,0,0,0,40,0,1128,39,0,481,0,1,experiment,NA,NA,0,0.1,0.9,1,0,79,2,NA
fcp-trial,113,553495,0.0-88.0-0.0,voc_e2,12123,"[{""event"":""fullscreenenter"",""trial"":1,""time"":1325}]",NA,NA,NA,NA,NA,2,#D89F1C,#3386FF,0,0,0,38,1,2047,39,0,310,0,1,experiment,NA,NA,1,0.3,0.7,3,2,80,2,NA
fcp-trial,114,556318,0.0-89.0-0.0,voc_e2,12123,"[{""event"":""fullscreenenter"",""trial"":1,""time"":1325}]",NA,NA,NA,NA,NA,3,#FA92F8,#1CD855,0,10,0,38,1,1000,39,0,306,10,1,experiment,NA,NA,0,0.1,0.9,1,0,81,2,NA
fcp-trial,115,559761,0.0-90.0-0.0,voc_e2,12123,"[{""event"":""fullscreenenter"",""trial"":1,""time"":1325}]",NA,NA,NA,NA,NA,4,#741CD8,#D8271C,0,0,1,38,1,1339,39,0,596,0,0,experiment,NA,NA,2,0.5,0.5,4,5,82,2,NA
fcp-trial,116,563189,0.0-91.0-0.0,voc_e2,12123,"[{""event"":""fullscreenenter"",""trial"":1,""time"":1325}]",NA,NA,NA,NA,NA,5,#D8271C,#741CD8,0,10,0,40,0,1285.9999999998836,37,1,638,0,0,experiment,NA,NA,2,0.5,0.5,5,4,83,2,NA
fcp-trial,117,566084,0.0-92.0-0.0,voc_e2,12123,"[{""event"":""fullscreenenter"",""trial"":1,""time"":1325}]",NA,NA,NA,NA,NA,2,#FA92F8,#1CD855,0,10,0,38,1,1010,39,0,379,10,1,experiment,NA,NA,0,0.1,0.9,1,0,84,2,NA
fcp-trial,118,568927,0.0-93.0-0.0,voc_e2,12123,"[{""event"":""fullscreenenter"",""trial"":1,""time"":1325}]",NA,NA,NA,NA,NA,0,#741CD8,#D8271C,10,10,1,38,1,882,37,1,454,10,1,experiment,NA,NA,2,0.5,0.5,4,5,85,2,NA
fcp-trial,119,573421,0.0-94.0-0.0,voc_e2,12123,"[{""event"":""fullscreenenter"",""trial"":1,""time"":1325}]",NA,NA,NA,NA,NA,0,#1CD855,#FA92F8,10,0,1,38,1,2323,37,1,663,10,1,experiment,NA,NA,0,0.9,0.1,0,1,86,2,NA
fcp-trial,120,576284,0.0-95.0-0.0,voc_e2,12123,"[{""event"":""fullscreenenter"",""trial"":1,""time"":1325}]",NA,NA,NA,NA,NA,2,#FA92F8,#1CD855,0,10,0,38,1,781,39,0,577,10,1,experiment,NA,NA,0,0.1,0.9,1,0,87,2,NA
fcp-trial,121,579457,0.0-96.0-0.0,voc_e2,12123,"[{""event"":""fullscreenenter"",""trial"":1,""time"":1325}]",NA,NA,NA,NA,NA,4,#741CD8,#D8271C,10,0,1,38,1,1412.9999999998836,37,1,254,10,1,experiment,NA,NA,2,0.5,0.5,4,5,88,2,NA
fcp-trial,122,582484,0.0-97.0-0.0,voc_e2,12123,"[{""event"":""fullscreenenter"",""trial"":1,""time"":1325}]",NA,NA,NA,NA,NA,1,#D89F1C,#3386FF,0,10,0,38,1,1239,39,0,282,10,1,experiment,NA,NA,1,0.3,0.7,3,2,89,2,NA
fcp-trial,123,586319,0.0-98.0-0.0,voc_e2,12123,"[{""event"":""fullscreenenter"",""trial"":1,""time"":1325}]",NA,NA,NA,NA,NA,5,#FA92F8,#1CD855,0,10,0,40,0,1853,39,0,473.0000000001164,10,1,experiment,NA,NA,0,0.1,0.9,1,0,90,2,NA
fcp-trial,124,591683,0.0-99.0-0.0,voc_e2,12123,"[{""event"":""fullscreenenter"",""trial"":1,""time"":1325}]",NA,NA,NA,NA,NA,4,#3386FF,#D89F1C,10,10,1,40,0,3048,37,1,810,10,1,experiment,NA,NA,1,0.7,0.3,2,3,91,3,NA
fcp-trial,125,594836,0.0-100.0-0.0,voc_e2,12123,"[{""event"":""fullscreenenter"",""trial"":1,""time"":1325}]",NA,NA,NA,NA,NA,5,#741CD8,#D8271C,0,10,1,40,0,1199.9999999998836,39,0,448.0000000001164,10,0,experiment,NA,NA,2,0.5,0.5,4,5,92,3,NA
fcp-trial,126,598583,0.0-101.0-0.0,voc_e2,12123,"[{""event"":""fullscreenenter"",""trial"":1,""time"":1325}]",NA,NA,NA,NA,NA,4,#FA92F8,#1CD855,0,10,0,40,0,1478.9999999998836,37,1,762,0,0,experiment,NA,NA,0,0.1,0.9,1,0,93,3,NA
fcp-trial,127,601605,0.0-102.0-0.0,voc_e2,12123,"[{""event"":""fullscreenenter"",""trial"":1,""time"":1325}]",NA,NA,NA,NA,NA,2,#D89F1C,#3386FF,0,10,0,38,1,1235,39,0,280,10,1,experiment,NA,NA,1,0.3,0.7,3,2,94,3,NA
fcp-trial,128,604978,0.0-103.0-0.0,voc_e2,12123,"[{""event"":""fullscreenenter"",""trial"":1,""time"":1325}]",NA,NA,NA,NA,NA,0,#3386FF,#D89F1C,10,10,1,38,1,1191.9999999998836,37,1,674,10,1,experiment,NA,NA,1,0.7,0.3,2,3,95,3,NA
fcp-trial,129,608552,0.0-104.0-0.0,voc_e2,12123,"[{""event"":""fullscreenenter"",""trial"":1,""time"":1325}]",NA,NA,NA,NA,NA,1,#741CD8,#D8271C,0,10,1,38,1,1804,37,1,257,0,1,experiment,NA,NA,2,0.5,0.5,4,5,96,3,NA
fcp-trial,130,611435,0.0-105.0-0.0,voc_e2,12123,"[{""event"":""fullscreenenter"",""trial"":1,""time"":1325}]",NA,NA,NA,NA,NA,3,#1CD855,#FA92F8,10,0,1,38,1,1062,37,1,314.9999999998836,10,1,experiment,NA,NA,0,0.9,0.1,0,1,97,3,NA
fcp-trial,131,614175,0.0-106.0-0.0,voc_e2,12123,"[{""event"":""fullscreenenter"",""trial"":1,""time"":1325}]",NA,NA,NA,NA,NA,3,#3386FF,#D89F1C,10,10,1,38,1,955,37,1,279,10,1,experiment,NA,NA,1,0.7,0.3,2,3,98,3,NA
fcp-trial,132,617533,0.0-107.0-0.0,voc_e2,12123,"[{""event"":""fullscreenenter"",""trial"":1,""time"":1325}]",NA,NA,NA,NA,NA,6,#D89F1C,#3386FF,10,0,0,40,0,1360,37,1,490,10,0,experiment,NA,NA,1,0.3,0.7,3,2,99,3,NA
fcp-trial,133,620593,0.0-108.0-0.0,voc_e2,12123,"[{""event"":""fullscreenenter"",""trial"":1,""time"":1325}]",NA,NA,NA,NA,NA,1,#FA92F8,#1CD855,10,10,0,38,1,1146,39,0,408,10,1,experiment,NA,NA,0,0.1,0.9,1,0,100,3,NA
fcp-trial,134,624269,0.0-109.0-0.0,voc_e2,12123,"[{""event"":""fullscreenenter"",""trial"":1,""time"":1325}]",NA,NA,NA,NA,NA,3,#D8271C,#741CD8,10,10,0,38,1,1485,39,0,683.9999999998836,10,1,experiment,NA,NA,2,0.5,0.5,5,4,101,3,NA
fcp-trial,135,627372,0.0-110.0-0.0,voc_e2,12123,"[{""event"":""fullscreenenter"",""trial"":1,""time"":1325}]",NA,NA,NA,NA,NA,6,#741CD8,#D8271C,0,0,1,40,0,1163,37,1,434,0,1,experiment,NA,NA,2,0.5,0.5,4,5,102,3,NA
fcp-trial,136,631333,0.0-111.0-0.0,voc_e2,12123,"[{""event"":""fullscreenenter"",""trial"":1,""time"":1325}]",NA,NA,NA,NA,NA,5,#3386FF,#D89F1C,10,10,1,40,0,1893,39,0,561,10,0,experiment,NA,NA,1,0.7,0.3,2,3,103,3,NA
fcp-trial,137,634251,0.0-112.0-0.0,voc_e2,12123,"[{""event"":""fullscreenenter"",""trial"":1,""time"":1325}]",NA,NA,NA,NA,NA,2,#741CD8,#D8271C,10,0,1,38,1,1150.0000000001164,37,1,262,10,1,experiment,NA,NA,2,0.5,0.5,4,5,104,3,NA
fcp-trial,138,637636,0.0-113.0-0.0,voc_e2,12123,"[{""event"":""fullscreenenter"",""trial"":1,""time"":1325}]",NA,NA,NA,NA,NA,6,#FA92F8,#1CD855,10,10,0,40,0,1380,39,0,498.9999999998836,10,1,experiment,NA,NA,0,0.1,0.9,1,0,105,3,NA
audio-instructions,139,643103,0.0-114.0,voc_e2,12123,"[{""event"":""fullscreenenter"",""trial"":1,""time"":1325}]",NA,1026,static/audio/pause.wav,NA,0,NA,NA,NA,NA,NA,NA,NA,NA,NA,NA,NA,NA,NA,NA,NA,NA,NA,NA,NA,NA,NA,NA,NA,NA,NA
fcp-trial,140,647239,0.0-115.0-0.0,voc_e2,12123,"[{""event"":""fullscreenenter"",""trial"":1,""time"":1325}]",NA,NA,NA,NA,NA,2,#3386FF,#D89F1C,10,0,1,38,1,1955,37,1,668,10,1,experiment,NA,NA,1,0.7,0.3,2,3,106,3,NA
fcp-trial,141,650312,0.0-116.0-0.0,voc_e2,12123,"[{""event"":""fullscreenenter"",""trial"":1,""time"":1325}]",NA,NA,NA,NA,NA,3,#D89F1C,#3386FF,0,10,0,38,1,1243,39,0,322,10,1,experiment,NA,NA,1,0.3,0.7,3,2,107,3,NA
fcp-trial,142,653904,0.0-117.0-0.0,voc_e2,12123,"[{""event"":""fullscreenenter"",""trial"":1,""time"":1325}]",NA,NA,NA,NA,NA,3,#1CD855,#FA92F8,10,0,1,38,1,1426,37,1,652,10,1,experiment,NA,NA,0,0.9,0.1,0,1,108,3,NA
fcp-trial,143,657014,0.0-118.0-0.0,voc_e2,12123,"[{""event"":""fullscreenenter"",""trial"":1,""time"":1325}]",NA,NA,NA,NA,NA,5,#3386FF,#D89F1C,10,0,1,40,0,909,39,0,695,0,0,experiment,NA,NA,1,0.7,0.3,2,3,109,3,NA
fcp-trial,144,659717,0.0-119.0-0.0,voc_e2,12123,"[{""event"":""fullscreenenter"",""trial"":1,""time"":1325}]",NA,NA,NA,NA,NA,0,#1CD855,#FA92F8,10,0,1,38,1,896,37,1,292,10,1,experiment,NA,NA,0,0.9,0.1,0,1,110,3,NA
fcp-trial,145,662502,0.0-120.0-0.0,voc_e2,12123,"[{""event"":""fullscreenenter"",""trial"":1,""time"":1325}]",NA,NA,NA,NA,NA,6,#741CD8,#D8271C,10,10,1,40,0,833,39,0,447,10,0,experiment,NA,NA,2,0.5,0.5,4,5,111,3,NA
fcp-trial,146,665697,0.0-121.0-0.0,voc_e2,12123,"[{""event"":""fullscreenenter"",""trial"":1,""time"":1325}]",NA,NA,NA,NA,NA,5,#D8271C,#741CD8,10,10,0,40,0,1205.9999999998836,37,1,480.9999999998836,10,0,experiment,NA,NA,2,0.5,0.5,5,4,112,3,NA
fcp-trial,147,669239,0.0-122.0-0.0,voc_e2,12123,"[{""event"":""fullscreenenter"",""trial"":1,""time"":1325}]",NA,NA,NA,NA,NA,3,#741CD8,#D8271C,10,0,1,38,1,1125,37,1,904,10,1,experiment,NA,NA,2,0.5,0.5,4,5,113,3,NA
fcp-trial,148,672435,0.0-123.0-0.0,voc_e2,12123,"[{""event"":""fullscreenenter"",""trial"":1,""time"":1325}]",NA,NA,NA,NA,NA,1,#D89F1C,#3386FF,10,10,0,38,1,1040,39,0,651,10,1,experiment,NA,NA,1,0.3,0.7,3,2,114,3,NA
fcp-trial,149,675242,0.0-124.0-0.0,voc_e2,12123,"[{""event"":""fullscreenenter"",""trial"":1,""time"":1325}]",NA,NA,NA,NA,NA,5,#FA92F8,#1CD855,0,10,0,40,0,966,39,0,335.0000000001164,10,1,experiment,NA,NA,0,0.1,0.9,1,0,115,3,NA
fcp-trial,150,678587,0.0-125.0-0.0,voc_e2,12123,"[{""event"":""fullscreenenter"",""trial"":1,""time"":1325}]",NA,NA,NA,NA,NA,0,#D8271C,#741CD8,0,0,0,38,1,1571,39,0,268,0,1,experiment,NA,NA,2,0.5,0.5,5,4,116,3,NA
fcp-trial,151,681451,0.0-126.0-0.0,voc_e2,12123,"[{""event"":""fullscreenenter"",""trial"":1,""time"":1325}]",NA,NA,NA,NA,NA,4,#3386FF,#D89F1C,0,10,1,38,1,1010,37,1,349,0,1,experiment,NA,NA,1,0.7,0.3,2,3,117,3,NA
fcp-trial,152,684792,0.0-127.0-0.0,voc_e2,12123,"[{""event"":""fullscreenenter"",""trial"":1,""time"":1325}]",NA,NA,NA,NA,NA,6,#FA92F8,#1CD855,0,10,0,40,0,1290,39,0,544,10,1,experiment,NA,NA,0,0.1,0.9,1,0,118,3,NA
fcp-trial,153,688367,0.0-128.0-0.0,voc_e2,12123,"[{""event"":""fullscreenenter"",""trial"":1,""time"":1325}]",NA,NA,NA,NA,NA,4,#D8271C,#741CD8,0,0,0,40,0,1620,39,0,448.0000000001164,0,1,experiment,NA,NA,2,0.5,0.5,5,4,119,3,NA
fcp-trial,154,691067,0.0-129.0-0.0,voc_e2,12123,"[{""event"":""fullscreenenter"",""trial"":1,""time"":1325}]",NA,NA,NA,NA,NA,2,#1CD855,#FA92F8,0,0,1,38,1,856,37,1,339,0,1,experiment,NA,NA,0,0.9,0.1,0,1,120,3,NA
fcp-trial,155,694419,0.0-130.0-0.0,voc_e2,12123,"[{""event"":""fullscreenenter"",""trial"":1,""time"":1325}]",NA,NA,NA,NA,NA,6,#D89F1C,#3386FF,0,10,0,40,0,1479,39,0,367,10,1,experiment,NA,NA,1,0.3,0.7,3,2,121,3,NA
fcp-trial,156,697367,0.0-131.0-0.0,voc_e2,12123,"[{""event"":""fullscreenenter"",""trial"":1,""time"":1325}]",NA,NA,NA,NA,NA,4,#FA92F8,#1CD855,0,10,0,40,0,1084,39,0,359,10,1,experiment,NA,NA,0,0.1,0.9,1,0,122,3,NA
fcp-trial,157,700108,0.0-132.0-0.0,voc_e2,12123,"[{""event"":""fullscreenenter"",""trial"":1,""time"":1325}]",NA,NA,NA,NA,NA,0,#3386FF,#D89F1C,10,0,1,38,1,878,37,1,355,10,1,experiment,NA,NA,1,0.7,0.3,2,3,123,3,NA
fcp-trial,158,703070,0.0-133.0-0.0,voc_e2,12123,"[{""event"":""fullscreenenter"",""trial"":1,""time"":1325}]",NA,NA,NA,NA,NA,1,#D8271C,#741CD8,0,10,0,38,1,1137,39,0,318,10,1,experiment,NA,NA,2,0.5,0.5,5,4,124,3,NA
fcp-trial,159,706419,0.0-134.0-0.0,voc_e2,12123,"[{""event"":""fullscreenenter"",""trial"":1,""time"":1325}]",NA,NA,NA,NA,NA,1,#FA92F8,#1CD855,0,10,0,38,1,1493,39,0,349,10,1,experiment,NA,NA,0,0.1,0.9,1,0,125,3,NA
fcp-trial,160,709161,0.0-135.0-0.0,voc_e2,12123,"[{""event"":""fullscreenenter"",""trial"":1,""time"":1325}]",NA,NA,NA,NA,NA,2,#741CD8,#D8271C,10,0,1,38,1,919,37,1,315,10,1,experiment,NA,NA,2,0.5,0.5,4,5,126,3,NA
fcp-trial,161,712368,0.0-136.0-0.0,voc_e2,12123,"[{""event"":""fullscreenenter"",""trial"":1,""time"":1325}]",NA,NA,NA,NA,NA,3,#FA92F8,#1CD855,0,10,0,38,1,1113,39,0,576,10,1,experiment,NA,NA,0,0.1,0.9,1,0,127,3,NA
fcp-trial,162,714853,0.0-137.0-0.0,voc_e2,12123,"[{""event"":""fullscreenenter"",""trial"":1,""time"":1325}]",NA,NA,NA,NA,NA,1,#3386FF,#D89F1C,10,0,1,38,1,722,37,1,257,10,1,experiment,NA,NA,1,0.7,0.3,2,3,128,3,NA
fcp-trial,163,717735,0.0-138.0-0.0,voc_e2,12123,"[{""event"":""fullscreenenter"",""trial"":1,""time"":1325}]",NA,NA,NA,NA,NA,6,#D89F1C,#3386FF,10,10,0,40,0,1046,39,0,325.9999999998836,10,1,experiment,NA,NA,1,0.3,0.7,3,2,129,3,NA
fcp-trial,164,721401,0.0-139.0-0.0,voc_e2,12123,"[{""event"":""fullscreenenter"",""trial"":1,""time"":1325}]",NA,NA,NA,NA,NA,5,#3386FF,#D89F1C,10,0,1,40,0,1762,39,0,399,0,0,experiment,NA,NA,1,0.7,0.3,2,3,130,3,NA
fcp-trial,165,724275,0.0-140.0-0.0,voc_e2,12123,"[{""event"":""fullscreenenter"",""trial"":1,""time"":1325}]",NA,NA,NA,NA,NA,5,#741CD8,#D8271C,10,10,1,38,1,1064,37,1,302,10,1,experiment,NA,NA,2,0.5,0.5,4,5,131,3,NA
fcp-trial,166,726924,0.0-141.0-0.0,voc_e2,12123,"[{""event"":""fullscreenenter"",""trial"":1,""time"":1325}]",NA,NA,NA,NA,NA,1,#FA92F8,#1CD855,0,10,0,38,1,838,39,0,306,10,1,experiment,NA,NA,0,0.1,0.9,1,0,132,3,NA
fcp-trial,167,729524,0.0-142.0-0.0,voc_e2,12123,"[{""event"":""fullscreenenter"",""trial"":1,""time"":1325}]",NA,NA,NA,NA,NA,2,#1CD855,#FA92F8,10,0,1,38,1,800,37,1,292.9999999998836,10,1,experiment,NA,NA,0,0.9,0.1,0,1,133,3,NA
fcp-trial,168,732122,0.0-143.0-0.0,voc_e2,12123,"[{""event"":""fullscreenenter"",""trial"":1,""time"":1325}]",NA,NA,NA,NA,NA,0,#3386FF,#D89F1C,10,0,1,38,1,814,37,1,274,10,1,experiment,NA,NA,1,0.7,0.3,2,3,134,3,NA
fcp-trial,169,735012,0.0-144.0-0.0,voc_e2,12123,"[{""event"":""fullscreenenter"",""trial"":1,""time"":1325}]",NA,NA,NA,NA,NA,2,#D89F1C,#3386FF,0,10,0,38,1,1080,39,0,303,10,1,experiment,NA,NA,1,0.3,0.7,3,2,135,3,NA
fcp-trial,170,737736,0.0-145.0-0.0,voc_e2,12123,"[{""event"":""fullscreenenter"",""trial"":1,""time"":1325}]",NA,NA,NA,NA,NA,4,#741CD8,#D8271C,10,10,1,38,1,878,37,1,332,10,1,experiment,NA,NA,2,0.5,0.5,4,5,136,4,NA
fcp-trial,171,740187,0.0-146.0-0.0,voc_e2,12123,"[{""event"":""fullscreenenter"",""trial"":1,""time"":1325}]",NA,NA,NA,NA,NA,1,#741CD8,#D8271C,0,0,1,38,1,648.0000000001164,37,1,297.0000000001164,0,1,experiment,NA,NA,2,0.5,0.5,4,5,137,4,NA
fcp-trial,172,743573,0.0-147.0-0.0,voc_e2,12123,"[{""event"":""fullscreenenter"",""trial"":1,""time"":1325}]",NA,NA,NA,NA,NA,5,#1CD855,#FA92F8,10,0,1,40,0,1427,37,1,452,10,1,experiment,NA,NA,0,0.9,0.1,0,1,138,4,NA
fcp-trial,173,746668,0.0-148.0-0.0,voc_e2,12123,"[{""event"":""fullscreenenter"",""trial"":1,""time"":1325}]",NA,NA,NA,NA,NA,4,#D89F1C,#3386FF,10,0,0,38,1,1224,39,0,366,0,1,experiment,NA,NA,1,0.3,0.7,3,2,139,4,NA
fcp-trial,174,750204,0.0-149.0-0.0,voc_e2,12123,"[{""event"":""fullscreenenter"",""trial"":1,""time"":1325}]",NA,NA,NA,NA,NA,4,#1CD855,#FA92F8,10,10,1,40,0,1562,37,1,466,10,1,experiment,NA,NA,0,0.9,0.1,0,1,140,4,NA
fcp-trial,175,753534,0.0-150.0-0.0,voc_e2,12123,"[{""event"":""fullscreenenter"",""trial"":1,""time"":1325}]",NA,NA,NA,NA,NA,6,#D8271C,#741CD8,0,10,0,40,0,1424.0000000001164,39,0,399,10,1,experiment,NA,NA,2,0.5,0.5,5,4,141,4,NA
fcp-trial,176,756496,0.0-151.0-0.0,voc_e2,12123,"[{""event"":""fullscreenenter"",""trial"":1,""time"":1325}]",NA,NA,NA,NA,NA,6,#1CD855,#FA92F8,10,0,1,40,0,1079,37,1,375,10,1,experiment,NA,NA,0,0.9,0.1,0,1,142,4,NA
fcp-trial,177,759583,0.0-152.0-0.0,voc_e2,12123,"[{""event"":""fullscreenenter"",""trial"":1,""time"":1325}]",NA,NA,NA,NA,NA,0,#D8271C,#741CD8,0,10,0,38,1,1010,39,0,565,10,1,experiment,NA,NA,2,0.5,0.5,5,4,143,4,NA
fcp-trial,178,762178,0.0-153.0-0.0,voc_e2,12123,"[{""event"":""fullscreenenter"",""trial"":1,""time"":1325}]",NA,NA,NA,NA,NA,3,#3386FF,#D89F1C,10,10,1,38,1,776.9999999998836,37,1,312,10,1,experiment,NA,NA,1,0.7,0.3,2,3,144,4,NA
fcp-trial,179,765299,0.0-154.0-0.0,voc_e2,12123,"[{""event"":""fullscreenenter"",""trial"":1,""time"":1325}]",NA,NA,NA,NA,NA,2,#D8271C,#741CD8,10,10,0,38,1,877,39,0,730,10,1,experiment,NA,NA,2,0.5,0.5,5,4,145,4,NA
fcp-trial,180,768035,0.0-155.0-0.0,voc_e2,12123,"[{""event"":""fullscreenenter"",""trial"":1,""time"":1325}]",NA,NA,NA,NA,NA,3,#D8271C,#741CD8,0,10,0,38,1,887,39,0,343,10,1,experiment,NA,NA,2,0.5,0.5,5,4,146,4,NA
fcp-trial,181,770717,0.0-156.0-0.0,voc_e2,12123,"[{""event"":""fullscreenenter"",""trial"":1,""time"":1325}]",NA,NA,NA,NA,NA,0,#FA92F8,#1CD855,0,10,0,38,1,844,39,0,331,10,1,experiment,NA,NA,0,0.1,0.9,1,0,147,4,NA
fcp-trial,182,773984,0.0-157.0-0.0,voc_e2,12123,"[{""event"":""fullscreenenter"",""trial"":1,""time"":1325}]",NA,NA,NA,NA,NA,4,#D8271C,#741CD8,10,10,0,38,1,1029,39,0,733,10,1,experiment,NA,NA,2,0.5,0.5,5,4,148,4,NA
fcp-trial,183,776800,0.0-158.0-0.0,voc_e2,12123,"[{""event"":""fullscreenenter"",""trial"":1,""time"":1325}]",NA,NA,NA,NA,NA,3,#D89F1C,#3386FF,0,10,0,38,1,1031,39,0,279.0000000001164,10,1,experiment,NA,NA,1,0.3,0.7,3,2,149,4,NA
fcp-trial,184,779612,0.0-159.0-0.0,voc_e2,12123,"[{""event"":""fullscreenenter"",""trial"":1,""time"":1325}]",NA,NA,NA,NA,NA,1,#D8271C,#741CD8,10,0,0,38,1,645.9999999998836,39,0,659,0,1,experiment,NA,NA,2,0.5,0.5,5,4,150,4,NA
fcp-trial,185,782318,0.0-160.0-0.0,voc_e2,12123,"[{""event"":""fullscreenenter"",""trial"":1,""time"":1325}]",NA,NA,NA,NA,NA,0,#1CD855,#FA92F8,0,0,1,38,1,627,37,1,565,0,1,experiment,NA,NA,0,0.9,0.1,0,1,151,4,NA
fcp-trial,186,785601,0.0-161.0-0.0,voc_e2,12123,"[{""event"":""fullscreenenter"",""trial"":1,""time"":1325}]",NA,NA,NA,NA,NA,5,#FA92F8,#1CD855,0,10,0,40,0,1179.0000000001164,37,1,598,0,0,experiment,NA,NA,0,0.1,0.9,1,0,152,4,NA
fcp-trial,187,788227,0.0-162.0-0.0,voc_e2,12123,"[{""event"":""fullscreenenter"",""trial"":1,""time"":1325}]",NA,NA,NA,NA,NA,4,#3386FF,#D89F1C,0,0,1,38,1,751.0000000001164,37,1,368,0,1,experiment,NA,NA,1,0.7,0.3,2,3,153,4,NA
fcp-trial,188,790971,0.0-163.0-0.0,voc_e2,12123,"[{""event"":""fullscreenenter"",""trial"":1,""time"":1325}]",NA,NA,NA,NA,NA,1,#3386FF,#D89F1C,10,10,1,38,1,905.9999999998836,37,1,331,10,1,experiment,NA,NA,1,0.7,0.3,2,3,154,4,NA
fcp-trial,189,794568,0.0-164.0-0.0,voc_e2,12123,"[{""event"":""fullscreenenter"",""trial"":1,""time"":1325}]",NA,NA,NA,NA,NA,5,#D8271C,#741CD8,0,10,0,40,0,1615,37,1,476,0,0,experiment,NA,NA,2,0.5,0.5,5,4,155,4,NA
fcp-trial,190,797304,0.0-165.0-0.0,voc_e2,12123,"[{""event"":""fullscreenenter"",""trial"":1,""time"":1325}]",NA,NA,NA,NA,NA,0,#3386FF,#D89F1C,0,0,1,38,1,922,37,1,309.0000000001164,0,1,experiment,NA,NA,1,0.7,0.3,2,3,156,4,NA
fcp-trial,191,799992,0.0-166.0-0.0,voc_e2,12123,"[{""event"":""fullscreenenter"",""trial"":1,""time"":1325}]",NA,NA,NA,NA,NA,2,#1CD855,#FA92F8,10,0,1,38,1,894.9999999998836,37,1,286,10,1,experiment,NA,NA,0,0.9,0.1,0,1,157,4,NA
fcp-trial,192,802602,0.0-167.0-0.0,voc_e2,12123,"[{""event"":""fullscreenenter"",""trial"":1,""time"":1325}]",NA,NA,NA,NA,NA,5,#D89F1C,#3386FF,0,10,0,38,1,822,39,0,282,10,1,experiment,NA,NA,1,0.3,0.7,3,2,158,4,NA
fcp-trial,193,805348,0.0-168.0-0.0,voc_e2,12123,"[{""event"":""fullscreenenter"",""trial"":1,""time"":1325}]",NA,NA,NA,NA,NA,2,#D8271C,#741CD8,10,10,0,38,1,879,39,0,360,10,1,experiment,NA,NA,2,0.5,0.5,5,4,159,4,NA
fcp-trial,194,808336,0.0-169.0-0.0,voc_e2,12123,"[{""event"":""fullscreenenter"",""trial"":1,""time"":1325}]",NA,NA,NA,NA,NA,6,#1CD855,#FA92F8,10,0,1,40,0,1106,37,1,367,10,1,experiment,NA,NA,0,0.9,0.1,0,1,160,4,NA
fcp-trial,195,811101,0.0-170.0-0.0,voc_e2,12123,"[{""event"":""fullscreenenter"",""trial"":1,""time"":1325}]",NA,NA,NA,NA,NA,6,#D89F1C,#3386FF,10,10,0,40,0,931,39,0,328,10,1,experiment,NA,NA,1,0.3,0.7,3,2,161,4,NA
fcp-trial,196,813936,0.0-171.0-0.0,voc_e2,12123,"[{""event"":""fullscreenenter"",""trial"":1,""time"":1325}]",NA,NA,NA,NA,NA,0,#741CD8,#D8271C,10,0,1,38,1,966,37,1,363.9999999998836,10,1,experiment,NA,NA,2,0.5,0.5,4,5,162,4,NA
fcp-trial,197,816785,0.0-172.0-0.0,voc_e2,12123,"[{""event"":""fullscreenenter"",""trial"":1,""time"":1325}]",NA,NA,NA,NA,NA,1,#FA92F8,#1CD855,0,10,0,38,1,731,39,0,612.0000000001164,10,1,experiment,NA,NA,0,0.1,0.9,1,0,163,4,NA
fcp-trial,198,819387,0.0-173.0-0.0,voc_e2,12123,"[{""event"":""fullscreenenter"",""trial"":1,""time"":1325}]",NA,NA,NA,NA,NA,2,#D89F1C,#3386FF,0,0,0,38,1,812.0000000001164,39,0,285,0,1,experiment,NA,NA,1,0.3,0.7,3,2,164,4,NA
fcp-trial,199,822157,0.0-174.0-0.0,voc_e2,12123,"[{""event"":""fullscreenenter"",""trial"":1,""time"":1325}]",NA,NA,NA,NA,NA,3,#FA92F8,#1CD855,0,10,0,38,1,843,39,0,419.9999999998836,10,1,experiment,NA,NA,0,0.1,0.9,1,0,165,4,NA
fcp-trial,200,824752,0.0-175.0-0.0,voc_e2,12123,"[{""event"":""fullscreenenter"",""trial"":1,""time"":1325}]",NA,NA,NA,NA,NA,3,#D8271C,#741CD8,0,0,0,38,1,605,39,0,482,0,1,experiment,NA,NA,2,0.5,0.5,5,4,166,4,NA
fcp-trial,201,827753,0.0-176.0-0.0,voc_e2,12123,"[{""event"":""fullscreenenter"",""trial"":1,""time"":1325}]",NA,NA,NA,NA,NA,4,#FA92F8,#1CD855,0,10,0,38,1,960,39,0,535,10,1,experiment,NA,NA,0,0.1,0.9,1,0,167,4,NA
fcp-trial,202,830950,0.0-177.0-0.0,voc_e2,12123,"[{""event"":""fullscreenenter"",""trial"":1,""time"":1325}]",NA,NA,NA,NA,NA,6,#D8271C,#741CD8,0,0,0,40,0,1129,37,1,562,0,0,experiment,NA,NA,2,0.5,0.5,5,4,168,4,NA
fcp-trial,203,833803,0.0-178.0-0.0,voc_e2,12123,"[{""event"":""fullscreenenter"",""trial"":1,""time"":1325}]",NA,NA,NA,NA,NA,1,#FA92F8,#1CD855,0,10,0,38,1,983.9999999998836,37,1,362.0000000001164,0,0,experiment,NA,NA,0,0.1,0.9,1,0,169,4,NA
fcp-trial,204,837368,0.0-179.0-0.0,voc_e2,12123,"[{""event"":""fullscreenenter"",""trial"":1,""time"":1325}]",NA,NA,NA,NA,NA,6,#D89F1C,#3386FF,0,10,0,40,0,1335.9999999998836,37,1,723,0,0,experiment,NA,NA,1,0.3,0.7,3,2,170,4,NA
fcp-trial,205,840998,0.0-180.0-0.0,voc_e2,12123,"[{""event"":""fullscreenenter"",""trial"":1,""time"":1325}]",NA,NA,NA,NA,NA,5,#FA92F8,#1CD855,0,10,0,40,0,1473.0000000001164,39,0,649,10,1,experiment,NA,NA,0,0.1,0.9,1,0,171,4,NA
fcp-trial,206,844252,0.0-181.0-0.0,voc_e2,12123,"[{""event"":""fullscreenenter"",""trial"":1,""time"":1325}]",NA,NA,NA,NA,NA,1,#D89F1C,#3386FF,0,10,0,38,1,708,39,0,1030,10,1,experiment,NA,NA,1,0.3,0.7,3,2,172,4,NA
fcp-trial,207,847218,0.0-182.0-0.0,voc_e2,12123,"[{""event"":""fullscreenenter"",""trial"":1,""time"":1325}]",NA,NA,NA,NA,NA,4,#FA92F8,#1CD855,10,10,0,38,1,913,39,0,548,10,1,experiment,NA,NA,0,0.1,0.9,1,0,173,4,NA
fcp-trial,208,849901,0.0-183.0-0.0,voc_e2,12123,"[{""event"":""fullscreenenter"",""trial"":1,""time"":1325}]",NA,NA,NA,NA,NA,2,#3386FF,#D89F1C,0,0,1,38,1,844,37,1,333,0,1,experiment,NA,NA,1,0.7,0.3,2,3,174,4,NA
fcp-trial,209,853104,0.0-184.0-0.0,voc_e2,12123,"[{""event"":""fullscreenenter"",""trial"":1,""time"":1325}]",NA,NA,NA,NA,NA,4,#741CD8,#D8271C,10,10,1,38,1,1330,37,1,367,10,1,experiment,NA,NA,2,0.5,0.5,4,5,175,4,NA
fcp-trial,210,855718,0.0-185.0-0.0,voc_e2,12123,"[{""event"":""fullscreenenter"",""trial"":1,""time"":1325}]",NA,NA,NA,NA,NA,0,#FA92F8,#1CD855,0,10,0,38,1,836,39,0,273,10,1,experiment,NA,NA,0,0.1,0.9,1,0,176,4,NA
fcp-trial,211,858126,0.0-186.0-0.0,voc_e2,12123,"[{""event"":""fullscreenenter"",""trial"":1,""time"":1325}]",NA,NA,NA,NA,NA,3,#D89F1C,#3386FF,10,10,0,38,1,627,39,0,273,10,1,experiment,NA,NA,1,0.3,0.7,3,2,177,4,NA
fcp-trial,212,860685,0.0-187.0-0.0,voc_e2,12123,"[{""event"":""fullscreenenter"",""trial"":1,""time"":1325}]",NA,NA,NA,NA,NA,1,#D8271C,#741CD8,10,10,0,38,1,685,39,0,367,10,1,experiment,NA,NA,2,0.5,0.5,5,4,178,4,NA
fcp-trial,213,863910,0.0-188.0-0.0,voc_e2,12123,"[{""event"":""fullscreenenter"",""trial"":1,""time"":1325}]",NA,NA,NA,NA,NA,6,#741CD8,#D8271C,0,10,1,40,0,1295.0000000001164,37,1,423,0,1,experiment,NA,NA,2,0.5,0.5,4,5,179,4,NA
fcp-trial,214,866524,0.0-189.0-0.0,voc_e2,12123,"[{""event"":""fullscreenenter"",""trial"":1,""time"":1325}]",NA,NA,NA,NA,NA,2,#FA92F8,#1CD855,10,10,0,38,1,825,39,0,283,10,1,experiment,NA,NA,0,0.1,0.9,1,0,180,4,NA
fcp-trial,215,869568,0.0-190.0-0.0,voc_e2,12123,"[{""event"":""fullscreenenter"",""trial"":1,""time"":1325}]",NA,NA,NA,NA,NA,5,#D89F1C,#3386FF,10,0,0,40,0,1021,37,1,517,10,0,experiment,NA,NA,1,0.3,0.7,3,2,181,5,NA
fcp-trial,216,872385,0.0-191.0-0.0,voc_e2,12123,"[{""event"":""fullscreenenter"",""trial"":1,""time"":1325}]",NA,NA,NA,NA,NA,3,#D8271C,#741CD8,10,10,0,38,1,996,39,0,308,10,1,experiment,NA,NA,2,0.5,0.5,5,4,182,5,NA
fcp-trial,217,875499,0.0-192.0-0.0,voc_e2,12123,"[{""event"":""fullscreenenter"",""trial"":1,""time"":1325}]",NA,NA,NA,NA,NA,4,#3386FF,#D89F1C,10,0,1,40,0,1242,37,1,349,10,1,experiment,NA,NA,1,0.7,0.3,2,3,183,5,NA
fcp-trial,218,878471,0.0-193.0-0.0,voc_e2,12123,"[{""event"":""fullscreenenter"",""trial"":1,""time"":1325}]",NA,NA,NA,NA,NA,6,#1CD855,#FA92F8,0,0,1,40,0,760,39,0,700,0,0,experiment,NA,NA,0,0.9,0.1,0,1,184,5,NA
fcp-trial,219,881464,0.0-194.0-0.0,voc_e2,12123,"[{""event"":""fullscreenenter"",""trial"":1,""time"":1325}]",NA,NA,NA,NA,NA,3,#FA92F8,#1CD855,0,10,0,38,1,954,39,0,528,10,1,experiment,NA,NA,0,0.1,0.9,1,0,185,5,NA
fcp-trial,220,884473,0.0-195.0-0.0,voc_e2,12123,"[{""event"":""fullscreenenter"",""trial"":1,""time"":1325}]",NA,NA,NA,NA,NA,0,#D8271C,#741CD8,0,10,0,38,1,986,39,0,512,10,1,experiment,NA,NA,2,0.5,0.5,5,4,186,5,NA
fcp-trial,221,887684,0.0-196.0-0.0,voc_e2,12123,"[{""event"":""fullscreenenter"",""trial"":1,""time"":1325}]",NA,NA,NA,NA,NA,2,#741CD8,#D8271C,0,0,1,40,0,1130,39,0,562.0000000001164,0,0,experiment,NA,NA,2,0.5,0.5,4,5,187,5,NA
fcp-trial,222,892176,0.0-197.0-0.0,voc_e2,12123,"[{""event"":""fullscreenenter"",""trial"":1,""time"":1325}]",NA,NA,NA,NA,NA,0,#3386FF,#D89F1C,10,10,1,38,1,2632,37,1,350,10,1,experiment,NA,NA,1,0.7,0.3,2,3,188,5,NA
fcp-trial,223,895005,0.0-198.0-0.0,voc_e2,12123,"[{""event"":""fullscreenenter"",""trial"":1,""time"":1325}]",NA,NA,NA,NA,NA,5,#D8271C,#741CD8,0,10,0,40,0,904.9999999998836,39,0,416.0000000001164,10,1,experiment,NA,NA,2,0.5,0.5,5,4,189,5,NA
fcp-trial,224,900770,0.0-199.0-0.0,voc_e2,12123,"[{""event"":""fullscreenenter"",""trial"":1,""time"":1325}]",NA,NA,NA,NA,NA,6,#FA92F8,#1CD855,0,10,0,40,0,3862.9999999998836,39,0,392.0000000001164,10,1,experiment,NA,NA,0,0.1,0.9,1,0,190,5,NA
fcp-trial,225,903375,0.0-200.0-0.0,voc_e2,12123,"[{""event"":""fullscreenenter"",""trial"":1,""time"":1325}]",NA,NA,NA,NA,NA,1,#D89F1C,#3386FF,0,10,0,38,1,784,39,0,305,10,1,experiment,NA,NA,1,0.3,0.7,3,2,191,5,NA
fcp-trial,226,906243,0.0-201.0-0.0,voc_e2,12123,"[{""event"":""fullscreenenter"",""trial"":1,""time"":1325}]",NA,NA,NA,NA,NA,4,#3386FF,#D89F1C,0,10,1,38,1,915,37,1,445,0,1,experiment,NA,NA,1,0.7,0.3,2,3,192,5,NA
fcp-trial,227,909547,0.0-202.0-0.0,voc_e2,12123,"[{""event"":""fullscreenenter"",""trial"":1,""time"":1325}]",NA,NA,NA,NA,NA,0,#D8271C,#741CD8,0,0,0,38,1,1482,39,0,315,0,1,experiment,NA,NA,2,0.5,0.5,5,4,193,5,NA
fcp-trial,228,913511,0.0-203.0-0.0,voc_e2,12123,"[{""event"":""fullscreenenter"",""trial"":1,""time"":1325}]",NA,NA,NA,NA,NA,3,#D89F1C,#3386FF,0,10,0,38,1,2174,39,0,283.0000000001164,10,1,experiment,NA,NA,1,0.3,0.7,3,2,194,5,NA
fcp-trial,229,928518,0.0-204.0-0.0,voc_e2,12123,"[{""event"":""fullscreenenter"",""trial"":1,""time"":1325}]",NA,NA,NA,NA,NA,1,#FA92F8,#1CD855,0,10,0,null,null,null,null,null,null,NA,0,experiment,NA,NA,0,0.1,0.9,1,0,195,5,NA
fcp-trial,230,943523,0.0-205.0-0.0,voc_e2,12123,"[{""event"":""fullscreenenter"",""trial"":1,""time"":1325}]",NA,NA,NA,NA,NA,1,#741CD8,#D8271C,0,0,1,null,null,null,null,null,null,NA,0,experiment,NA,NA,2,0.5,0.5,4,5,196,5,NA
fcp-trial,231,958529,0.0-206.0-0.0,voc_e2,12123,"[{""event"":""fullscreenenter"",""trial"":1,""time"":1325}]",NA,NA,NA,NA,NA,5,#3386FF,#D89F1C,10,0,1,null,null,null,null,null,null,NA,0,experiment,NA,NA,1,0.7,0.3,2,3,197,5,NA
fcp-trial,232,961763,0.0-207.0-0.0,voc_e2,12123,"[{""event"":""fullscreenenter"",""trial"":1,""time"":1325}]",NA,NA,NA,NA,NA,4,#FA92F8,#1CD855,0,0,0,38,1,1234.0000000001164,37,1,485,0,0,experiment,NA,NA,0,0.1,0.9,1,0,198,5,NA
fcp-trial,233,964703,0.0-208.0-0.0,voc_e2,12123,"[{""event"":""fullscreenenter"",""trial"":1,""time"":1325}]",NA,NA,NA,NA,NA,0,#D89F1C,#3386FF,0,0,0,38,1,1148.0000000001164,39,0,285,0,1,experiment,NA,NA,1,0.3,0.7,3,2,199,5,NA
fcp-trial,234,967651,0.0-209.0-0.0,voc_e2,12123,"[{""event"":""fullscreenenter"",""trial"":1,""time"":1325}]",NA,NA,NA,NA,NA,2,#D8271C,#741CD8,10,0,0,38,1,783,39,0,659,0,1,experiment,NA,NA,2,0.5,0.5,5,4,200,5,NA
fcp-trial,235,970731,0.0-210.0-0.0,voc_e2,12123,"[{""event"":""fullscreenenter"",""trial"":1,""time"":1325}]",NA,NA,NA,NA,NA,6,#3386FF,#D89F1C,10,10,1,40,0,1207.0000000001164,37,1,367,10,1,experiment,NA,NA,1,0.7,0.3,2,3,201,5,NA
fcp-trial,236,973297,0.0-211.0-0.0,voc_e2,12123,"[{""event"":""fullscreenenter"",""trial"":1,""time"":1325}]",NA,NA,NA,NA,NA,3,#D8271C,#741CD8,10,10,0,38,1,773,39,0,288.0000000001164,10,1,experiment,NA,NA,2,0.5,0.5,5,4,202,5,NA
fcp-trial,237,978748,0.0-212.0-0.0,voc_e2,12123,"[{""event"":""fullscreenenter"",""trial"":1,""time"":1325}]",NA,NA,NA,NA,NA,5,#1CD855,#FA92F8,10,0,1,40,0,3480,39,0,465,0,0,experiment,NA,NA,0,0.9,0.1,0,1,203,5,NA
fcp-trial,238,984999,0.0-213.0-0.0,voc_e2,12123,"[{""event"":""fullscreenenter"",""trial"":1,""time"":1325}]",NA,NA,NA,NA,NA,4,#D8271C,#741CD8,0,10,0,38,1,2902.9999999998836,39,0,1841.0000000001164,10,1,experiment,NA,NA,2,0.5,0.5,5,4,204,5,NA
fcp-trial,239,987998,0.0-214.0-0.0,voc_e2,12123,"[{""event"":""fullscreenenter"",""trial"":1,""time"":1325}]",NA,NA,NA,NA,NA,5,#741CD8,#D8271C,10,0,1,40,0,1193.9999999998836,37,1,300.0000000001164,10,1,experiment,NA,NA,2,0.5,0.5,4,5,205,5,NA
fcp-trial,240,990986,0.0-215.0-0.0,voc_e2,12123,"[{""event"":""fullscreenenter"",""trial"":1,""time"":1325}]",NA,NA,NA,NA,NA,2,#D89F1C,#3386FF,0,0,0,38,1,1163,39,0,318.9999999998836,0,1,experiment,NA,NA,1,0.3,0.7,3,2,206,5,NA
fcp-trial,241,994555,0.0-216.0-0.0,voc_e2,12123,"[{""event"":""fullscreenenter"",""trial"":1,""time"":1325}]",NA,NA,NA,NA,NA,3,#FA92F8,#1CD855,0,10,0,38,1,1445.0000000001164,39,0,618.9999999998836,10,1,experiment,NA,NA,0,0.1,0.9,1,0,207,5,NA
fcp-trial,242,997106,0.0-217.0-0.0,voc_e2,12123,"[{""event"":""fullscreenenter"",""trial"":1,""time"":1325}]",NA,NA,NA,NA,NA,2,#FA92F8,#1CD855,0,10,0,38,1,753,39,0,290,10,1,experiment,NA,NA,0,0.1,0.9,1,0,208,5,NA
fcp-trial,243,999833,0.0-218.0-0.0,voc_e2,12123,"[{""event"":""fullscreenenter"",""trial"":1,""time"":1325}]",NA,NA,NA,NA,NA,0,#1CD855,#FA92F8,10,0,1,38,1,967.9999999998836,37,1,250,10,1,experiment,NA,NA,0,0.9,0.1,0,1,209,5,NA
fcp-trial,244,1003282,0.0-219.0-0.0,voc_e2,12123,"[{""event"":""fullscreenenter"",""trial"":1,""time"":1325}]",NA,NA,NA,NA,NA,6,#741CD8,#D8271C,0,0,1,40,0,1580,37,1,364,0,1,experiment,NA,NA,2,0.5,0.5,4,5,210,5,NA
audio-instructions,245,1055069,0.0-220.0,voc_e2,12123,"[{""event"":""fullscreenenter"",""trial"":1,""time"":1325}]",NA,47348,static/audio/pause.wav,NA,0,NA,NA,NA,NA,NA,NA,NA,NA,NA,NA,NA,NA,NA,NA,NA,NA,NA,NA,NA,NA,NA,NA,NA,NA,NA
fcp-trial,246,1058907,0.0-221.0-0.0,voc_e2,12123,"[{""event"":""fullscreenenter"",""trial"":1,""time"":1325}]",NA,NA,NA,NA,NA,0,#1CD855,#FA92F8,10,0,1,38,1,1934.9999999997672,37,1,390,10,1,experiment,NA,NA,0,0.9,0.1,0,1,211,5,NA
fcp-trial,247,1061850,0.0-222.0-0.0,voc_e2,12123,"[{""event"":""fullscreenenter"",""trial"":1,""time"":1325}]",NA,NA,NA,NA,NA,5,#1CD855,#FA92F8,10,0,1,40,0,1004,39,0,435,0,0,experiment,NA,NA,0,0.9,0.1,0,1,212,5,NA
fcp-trial,248,1065633,0.0-223.0-0.0,voc_e2,12123,"[{""event"":""fullscreenenter"",""trial"":1,""time"":1325}]",NA,NA,NA,NA,NA,3,#D89F1C,#3386FF,0,10,0,38,1,1501,39,0,777,10,1,experiment,NA,NA,1,0.3,0.7,3,2,213,5,NA
fcp-trial,249,1068500,0.0-224.0-0.0,voc_e2,12123,"[{""event"":""fullscreenenter"",""trial"":1,""time"":1325}]",NA,NA,NA,NA,NA,5,#D8271C,#741CD8,10,0,0,38,1,983,39,0,379,0,1,experiment,NA,NA,2,0.5,0.5,5,4,214,5,NA
fcp-trial,250,1070949,0.0-225.0-0.0,voc_e2,12123,"[{""event"":""fullscreenenter"",""trial"":1,""time"":1325}]",NA,NA,NA,NA,NA,0,#3386FF,#D89F1C,0,0,1,38,1,660,37,1,283,0,1,experiment,NA,NA,1,0.7,0.3,2,3,215,5,NA
fcp-trial,251,1073700,0.0-226.0-0.0,voc_e2,12123,"[{""event"":""fullscreenenter"",""trial"":1,""time"":1325}]",NA,NA,NA,NA,NA,1,#3386FF,#D89F1C,10,10,1,38,1,898,37,1,347,10,1,experiment,NA,NA,1,0.7,0.3,2,3,216,5,NA
fcp-trial,252,1076234,0.0-227.0-0.0,voc_e2,12123,"[{""event"":""fullscreenenter"",""trial"":1,""time"":1325}]",NA,NA,NA,NA,NA,1,#FA92F8,#1CD855,0,10,0,38,1,683,39,0,345,10,1,experiment,NA,NA,0,0.1,0.9,1,0,217,5,NA
fcp-trial,253,1078935,0.0-228.0-0.0,voc_e2,12123,"[{""event"":""fullscreenenter"",""trial"":1,""time"":1325}]",NA,NA,NA,NA,NA,4,#741CD8,#D8271C,10,10,1,38,1,813.0000000002328,37,1,382.99999999976717,10,1,experiment,NA,NA,2,0.5,0.5,4,5,218,5,NA
fcp-trial,254,1081800,0.0-229.0-0.0,voc_e2,12123,"[{""event"":""fullscreenenter"",""trial"":1,""time"":1325}]",NA,NA,NA,NA,NA,4,#FA92F8,#1CD855,0,10,0,38,1,777,39,0,582,10,1,experiment,NA,NA,0,0.1,0.9,1,0,219,5,NA
fcp-trial,255,1084471,0.0-230.0-0.0,voc_e2,12123,"[{""event"":""fullscreenenter"",""trial"":1,""time"":1325}]",NA,NA,NA,NA,NA,4,#3386FF,#D89F1C,10,10,1,38,1,763,37,1,403,10,1,experiment,NA,NA,1,0.7,0.3,2,3,220,5,NA
fcp-trial,256,1087624,0.0-231.0-0.0,voc_e2,12123,"[{""event"":""fullscreenenter"",""trial"":1,""time"":1325}]",NA,NA,NA,NA,NA,2,#D89F1C,#3386FF,0,10,0,38,1,1324,39,0,321.99999999976717,10,1,experiment,NA,NA,1,0.3,0.7,3,2,221,5,NA
fcp-trial,257,1090466,0.0-232.0-0.0,voc_e2,12123,"[{""event"":""fullscreenenter"",""trial"":1,""time"":1325}]",NA,NA,NA,NA,NA,3,#1CD855,#FA92F8,10,0,1,38,1,747,37,1,586.9999999997672,10,1,experiment,NA,NA,0,0.9,0.1,0,1,222,5,NA
fcp-trial,258,1092988,0.0-233.0-0.0,voc_e2,12123,"[{""event"":""fullscreenenter"",""trial"":1,""time"":1325}]",NA,NA,NA,NA,NA,3,#741CD8,#D8271C,0,10,1,38,1,583,37,1,434,0,1,experiment,NA,NA,2,0.5,0.5,4,5,223,5,NA
fcp-trial,259,1095619,0.0-234.0-0.0,voc_e2,12123,"[{""event"":""fullscreenenter"",""trial"":1,""time"":1325}]",NA,NA,NA,NA,NA,0,#741CD8,#D8271C,0,10,1,38,1,707,37,1,417,0,1,experiment,NA,NA,2,0.5,0.5,4,5,224,5,NA
fcp-trial,260,1098330,0.0-235.0-0.0,voc_e2,12123,"[{""event"":""fullscreenenter"",""trial"":1,""time"":1325}]",NA,NA,NA,NA,NA,6,#3386FF,#D89F1C,0,0,1,38,1,828,37,1,374,0,1,experiment,NA,NA,1,0.7,0.3,2,3,225,5,NA
fcp-trial,261,1101559,0.0-236.0-0.0,voc_e2,12123,"[{""event"":""fullscreenenter"",""trial"":1,""time"":1325}]",NA,NA,NA,NA,NA,6,#D8271C,#741CD8,10,10,0,40,0,1326,39,0,388,10,1,experiment,NA,NA,2,0.5,0.5,5,4,226,6,NA
fcp-trial,262,1104255,0.0-237.0-0.0,voc_e2,12123,"[{""event"":""fullscreenenter"",""trial"":1,""time"":1325}]",NA,NA,NA,NA,NA,6,#FA92F8,#1CD855,0,10,0,40,0,738.0000000002328,37,1,453.99999999976717,0,0,experiment,NA,NA,0,0.1,0.9,1,0,227,6,NA
fcp-trial,263,1106785,0.0-238.0-0.0,voc_e2,12123,"[{""event"":""fullscreenenter"",""trial"":1,""time"":1325}]",NA,NA,NA,NA,NA,5,#3386FF,#D89F1C,10,0,1,38,1,702,37,1,322,10,1,experiment,NA,NA,1,0.7,0.3,2,3,228,6,NA
fcp-trial,264,1109420,0.0-239.0-0.0,voc_e2,12123,"[{""event"":""fullscreenenter"",""trial"":1,""time"":1325}]",NA,NA,NA,NA,NA,2,#1CD855,#FA92F8,10,0,1,38,1,768,37,1,360,10,1,experiment,NA,NA,0,0.9,0.1,0,1,229,6,NA
fcp-trial,265,1112209,0.0-240.0-0.0,voc_e2,12123,"[{""event"":""fullscreenenter"",""trial"":1,""time"":1325}]",NA,NA,NA,NA,NA,2,#D8271C,#741CD8,0,10,0,38,1,776,39,0,506,10,1,experiment,NA,NA,2,0.5,0.5,5,4,230,6,NA
fcp-trial,266,1114663,0.0-241.0-0.0,voc_e2,12123,"[{""event"":""fullscreenenter"",""trial"":1,""time"":1325}]",NA,NA,NA,NA,NA,1,#741CD8,#D8271C,0,0,1,38,1,618,37,1,326,0,1,experiment,NA,NA,2,0.5,0.5,4,5,231,6,NA
fcp-trial,267,1118052,0.0-242.0-0.0,voc_e2,12123,"[{""event"":""fullscreenenter"",""trial"":1,""time"":1325}]",NA,NA,NA,NA,NA,0,#FA92F8,#1CD855,10,10,0,38,1,858,39,0,1016,10,1,experiment,NA,NA,0,0.1,0.9,1,0,232,6,NA
fcp-trial,268,1120793,0.0-243.0-0.0,voc_e2,12123,"[{""event"":""fullscreenenter"",""trial"":1,""time"":1325}]",NA,NA,NA,NA,NA,6,#FA92F8,#1CD855,0,10,0,40,0,819,37,1,415,0,0,experiment,NA,NA,0,0.1,0.9,1,0,233,6,NA
fcp-trial,269,1123405,0.0-244.0-0.0,voc_e2,12123,"[{""event"":""fullscreenenter"",""trial"":1,""time"":1325}]",NA,NA,NA,NA,NA,4,#1CD855,#FA92F8,10,0,1,38,1,784,37,1,320,10,1,experiment,NA,NA,0,0.9,0.1,0,1,234,6,NA
fcp-trial,270,1127551,0.0-245.0-0.0,voc_e2,12123,"[{""event"":""fullscreenenter"",""trial"":1,""time"":1325}]",NA,NA,NA,NA,NA,5,#D89F1C,#3386FF,0,10,0,38,1,2291,39,0,349.00000000023283,10,1,experiment,NA,NA,1,0.3,0.7,3,2,235,6,NA
fcp-trial,271,1130229,0.0-246.0-0.0,voc_e2,12123,"[{""event"":""fullscreenenter"",""trial"":1,""time"":1325}]",NA,NA,NA,NA,NA,1,#3386FF,#D89F1C,0,10,1,38,1,911,37,1,260,0,1,experiment,NA,NA,1,0.7,0.3,2,3,236,6,NA
fcp-trial,272,1132969,0.0-247.0-0.0,voc_e2,12123,"[{""event"":""fullscreenenter"",""trial"":1,""time"":1325}]",NA,NA,NA,NA,NA,1,#D8271C,#741CD8,0,10,0,38,1,874,39,0,350,10,1,experiment,NA,NA,2,0.5,0.5,5,4,237,6,NA
fcp-trial,273,1135707,0.0-248.0-0.0,voc_e2,12123,"[{""event"":""fullscreenenter"",""trial"":1,""time"":1325}]",NA,NA,NA,NA,NA,6,#D8271C,#741CD8,10,10,0,40,0,831.9999999997672,37,1,400,10,0,experiment,NA,NA,2,0.5,0.5,5,4,238,6,NA
fcp-trial,274,1138578,0.0-249.0-0.0,voc_e2,12123,"[{""event"":""fullscreenenter"",""trial"":1,""time"":1325}]",NA,NA,NA,NA,NA,3,#FA92F8,#1CD855,0,10,0,38,1,991,39,0,373,10,1,experiment,NA,NA,0,0.1,0.9,1,0,239,6,NA
fcp-trial,275,1141452,0.0-250.0-0.0,voc_e2,12123,"[{""event"":""fullscreenenter"",""trial"":1,""time"":1325}]",NA,NA,NA,NA,NA,4,#D89F1C,#3386FF,10,10,0,38,1,761,39,0,599,10,1,experiment,NA,NA,1,0.3,0.7,3,2,240,6,NA
fcp-trial,276,1144019,0.0-251.0-0.0,voc_e2,12123,"[{""event"":""fullscreenenter"",""trial"":1,""time"":1325}]",NA,NA,NA,NA,NA,5,#1CD855,#FA92F8,0,0,1,38,1,770,37,1,292,0,1,experiment,NA,NA,0,0.9,0.1,0,1,241,6,NA
fcp-trial,277,1147207,0.0-252.0-0.0,voc_e2,12123,"[{""event"":""fullscreenenter"",""trial"":1,""time"":1325}]",NA,NA,NA,NA,NA,6,#D89F1C,#3386FF,0,10,0,40,0,1227,39,0,453.99999999976717,10,1,experiment,NA,NA,1,0.3,0.7,3,2,242,6,NA
fcp-trial,278,1150717,0.0-253.0-0.0,voc_e2,12123,"[{""event"":""fullscreenenter"",""trial"":1,""time"":1325}]",NA,NA,NA,NA,NA,4,#D8271C,#741CD8,0,10,0,38,1,1462.0000000002328,39,0,541,10,1,experiment,NA,NA,2,0.5,0.5,5,4,243,6,NA
fcp-trial,279,1153219,0.0-254.0-0.0,voc_e2,12123,"[{""event"":""fullscreenenter"",""trial"":1,""time"":1325}]",NA,NA,NA,NA,NA,3,#D8271C,#741CD8,10,0,0,38,1,706,39,0,288,0,1,experiment,NA,NA,2,0.5,0.5,5,4,244,6,NA
fcp-trial,280,1155823,0.0-255.0-0.0,voc_e2,12123,"[{""event"":""fullscreenenter"",""trial"":1,""time"":1325}]",NA,NA,NA,NA,NA,0,#D89F1C,#3386FF,10,0,0,38,1,814,39,0,285,0,1,experiment,NA,NA,1,0.3,0.7,3,2,245,6,NA
fcp-trial,281,1158236,0.0-256.0-0.0,voc_e2,12123,"[{""event"":""fullscreenenter"",""trial"":1,""time"":1325}]",NA,NA,NA,NA,NA,1,#FA92F8,#1CD855,0,10,0,38,1,657,39,0,251,10,1,experiment,NA,NA,0,0.1,0.9,1,0,246,6,NA
fcp-trial,282,1160859,0.0-257.0-0.0,voc_e2,12123,"[{""event"":""fullscreenenter"",""trial"":1,""time"":1325}]",NA,NA,NA,NA,NA,2,#741CD8,#D8271C,0,10,1,38,1,631,37,1,485.00000000023283,0,1,experiment,NA,NA,2,0.5,0.5,4,5,247,6,NA
fcp-trial,283,1163268,0.0-258.0-0.0,voc_e2,12123,"[{""event"":""fullscreenenter"",""trial"":1,""time"":1325}]",NA,NA,NA,NA,NA,2,#FA92F8,#1CD855,0,10,0,38,1,630,39,0,272,10,1,experiment,NA,NA,0,0.1,0.9,1,0,248,6,NA
fcp-trial,284,1166068,0.0-259.0-0.0,voc_e2,12123,"[{""event"":""fullscreenenter"",""trial"":1,""time"":1325}]",NA,NA,NA,NA,NA,5,#D8271C,#741CD8,10,10,0,40,0,881,37,1,415.00000000023283,10,0,experiment,NA,NA,2,0.5,0.5,5,4,249,6,NA
fcp-trial,285,1168635,0.0-260.0-0.0,voc_e2,12123,"[{""event"":""fullscreenenter"",""trial"":1,""time"":1325}]",NA,NA,NA,NA,NA,3,#3386FF,#D89F1C,10,0,1,38,1,714,37,1,348,10,1,experiment,NA,NA,1,0.7,0.3,2,3,250,6,NA
fcp-trial,286,1171342,0.0-261.0-0.0,voc_e2,12123,"[{""event"":""fullscreenenter"",""trial"":1,""time"":1325}]",NA,NA,NA,NA,NA,2,#3386FF,#D89F1C,10,0,1,38,1,578,37,1,623,10,1,experiment,NA,NA,1,0.7,0.3,2,3,251,6,NA
fcp-trial,287,1174257,0.0-262.0-0.0,voc_e2,12123,"[{""event"":""fullscreenenter"",""trial"":1,""time"":1325}]",NA,NA,NA,NA,NA,0,#741CD8,#D8271C,0,10,1,38,1,1107.9999999997672,37,1,300,0,1,experiment,NA,NA,2,0.5,0.5,4,5,252,6,NA
fcp-trial,288,1176869,0.0-263.0-0.0,voc_e2,12123,"[{""event"":""fullscreenenter"",""trial"":1,""time"":1325}]",NA,NA,NA,NA,NA,0,#1CD855,#FA92F8,10,0,1,38,1,639,37,1,467,10,1,experiment,NA,NA,0,0.9,0.1,0,1,253,6,NA
fcp-trial,289,1179670,0.0-264.0-0.0,voc_e2,12123,"[{""event"":""fullscreenenter"",""trial"":1,""time"":1325}]",NA,NA,NA,NA,NA,2,#D89F1C,#3386FF,0,0,0,38,1,692,39,0,600,0,1,experiment,NA,NA,1,0.3,0.7,3,2,254,6,NA
fcp-trial,290,1182202,0.0-265.0-0.0,voc_e2,12123,"[{""event"":""fullscreenenter"",""trial"":1,""time"":1325}]",NA,NA,NA,NA,NA,2,#1CD855,#FA92F8,10,0,1,38,1,644.9999999997672,37,1,382,10,1,experiment,NA,NA,0,0.9,0.1,0,1,255,6,NA
fcp-trial,291,1185202,0.0-266.0-0.0,voc_e2,12123,"[{""event"":""fullscreenenter"",""trial"":1,""time"":1325}]",NA,NA,NA,NA,NA,6,#FA92F8,#1CD855,0,0,0,40,0,982,39,0,513,0,1,experiment,NA,NA,0,0.1,0.9,1,0,256,6,NA
fcp-trial,292,1189194,0.0-267.0-0.0,voc_e2,12123,"[{""event"":""fullscreenenter"",""trial"":1,""time"":1325}]",NA,NA,NA,NA,NA,1,#D8271C,#741CD8,10,10,0,38,1,1346,39,0,1139.0000000002328,10,1,experiment,NA,NA,2,0.5,0.5,5,4,257,6,NA
fcp-trial,293,1191920,0.0-268.0-0.0,voc_e2,12123,"[{""event"":""fullscreenenter"",""trial"":1,""time"":1325}]",NA,NA,NA,NA,NA,5,#3386FF,#D89F1C,10,10,1,38,1,663,37,1,557,10,1,experiment,NA,NA,1,0.7,0.3,2,3,258,6,NA
fcp-trial,294,1195415,0.0-269.0-0.0,voc_e2,12123,"[{""event"":""fullscreenenter"",""trial"":1,""time"":1325}]",NA,NA,NA,NA,NA,5,#1CD855,#FA92F8,10,0,1,40,0,1243,37,1,745,10,1,experiment,NA,NA,0,0.9,0.1,0,1,259,6,NA
fcp-trial,295,1198385,0.0-270.0-0.0,voc_e2,12123,"[{""event"":""fullscreenenter"",""trial"":1,""time"":1325}]",NA,NA,NA,NA,NA,2,#741CD8,#D8271C,0,10,1,38,1,1076,37,1,379,0,1,experiment,NA,NA,2,0.5,0.5,4,5,260,6,NA
fcp-trial,296,1201202,0.0-271.0-0.0,voc_e2,12123,"[{""event"":""fullscreenenter"",""trial"":1,""time"":1325}]",NA,NA,NA,NA,NA,0,#D8271C,#741CD8,0,0,0,38,1,1047,39,0,266.00000000023283,0,1,experiment,NA,NA,2,0.5,0.5,5,4,261,6,NA
fcp-trial,297,1203907,0.0-272.0-0.0,voc_e2,12123,"[{""event"":""fullscreenenter"",""trial"":1,""time"":1325}]",NA,NA,NA,NA,NA,4,#1CD855,#FA92F8,0,10,1,38,1,896,37,1,304,0,1,experiment,NA,NA,0,0.9,0.1,0,1,262,6,NA
fcp-trial,298,1206577,0.0-273.0-0.0,voc_e2,12123,"[{""event"":""fullscreenenter"",""trial"":1,""time"":1325}]",NA,NA,NA,NA,NA,0,#D89F1C,#3386FF,0,10,0,38,1,759,39,0,405,10,1,experiment,NA,NA,1,0.3,0.7,3,2,263,6,NA
fcp-trial,299,1209986,0.0-274.0-0.0,voc_e2,12123,"[{""event"":""fullscreenenter"",""trial"":1,""time"":1325}]",NA,NA,NA,NA,NA,4,#741CD8,#D8271C,10,10,1,40,0,1055,39,0,849,10,0,experiment,NA,NA,2,0.5,0.5,4,5,264,6,NA
fcp-trial,300,1212813,0.0-275.0-0.0,voc_e2,12123,"[{""event"":""fullscreenenter"",""trial"":1,""time"":1325}]",NA,NA,NA,NA,NA,6,#D89F1C,#3386FF,0,0,0,40,0,872,39,0,448,0,1,experiment,NA,NA,1,0.3,0.7,3,2,265,6,NA
fcp-trial,301,1215437,0.0-276.0-0.0,voc_e2,12123,"[{""event"":""fullscreenenter"",""trial"":1,""time"":1325}]",NA,NA,NA,NA,NA,1,#1CD855,#FA92F8,10,0,1,38,1,644.9999999997672,37,1,463,10,1,experiment,NA,NA,0,0.9,0.1,0,1,266,6,NA
fcp-trial,302,1218022,0.0-277.0-0.0,voc_e2,12123,"[{""event"":""fullscreenenter"",""trial"":1,""time"":1325}]",NA,NA,NA,NA,NA,6,#741CD8,#D8271C,10,0,1,40,0,702.9999999997672,37,1,375,10,1,experiment,NA,NA,2,0.5,0.5,4,5,267,6,NA
fcp-trial,303,1220502,0.0-278.0-0.0,voc_e2,12123,"[{""event"":""fullscreenenter"",""trial"":1,""time"":1325}]",NA,NA,NA,NA,NA,3,#D89F1C,#3386FF,10,0,0,38,1,645,39,0,330,0,1,experiment,NA,NA,1,0.3,0.7,3,2,268,6,NA
fcp-trial,304,1223136,0.0-279.0-0.0,voc_e2,12123,"[{""event"":""fullscreenenter"",""trial"":1,""time"":1325}]",NA,NA,NA,NA,NA,3,#FA92F8,#1CD855,0,0,0,38,1,630,39,0,500,0,1,experiment,NA,NA,0,0.1,0.9,1,0,269,6,NA
fcp-trial,305,1225671,0.0-280.0-0.0,voc_e2,12123,"[{""event"":""fullscreenenter"",""trial"":1,""time"":1325}]",NA,NA,NA,NA,NA,1,#D89F1C,#3386FF,0,10,0,38,1,668,39,0,360,10,1,experiment,NA,NA,1,0.3,0.7,3,2,270,6,NA
fcp-trial,306,1228248,0.0-281.0-0.0,voc_e2,12123,"[{""event"":""fullscreenenter"",""trial"":1,""time"":1325}]",NA,NA,NA,NA,NA,4,#D89F1C,#3386FF,0,10,0,38,1,785.0000000002328,39,0,285.99999999976717,10,1,experiment,NA,NA,1,0.3,0.7,3,2,271,7,NA
fcp-trial,307,1230663,0.0-282.0-0.0,voc_e2,12123,"[{""event"":""fullscreenenter"",""trial"":1,""time"":1325}]",NA,NA,NA,NA,NA,3,#741CD8,#D8271C,10,10,1,38,1,573.0000000002328,37,1,325,10,1,experiment,NA,NA,2,0.5,0.5,4,5,272,7,NA
fcp-trial,308,1233324,0.0-283.0-0.0,voc_e2,12123,"[{""event"":""fullscreenenter"",""trial"":1,""time"":1325}]",NA,NA,NA,NA,NA,5,#D8271C,#741CD8,10,10,0,40,0,676,37,1,468,10,0,experiment,NA,NA,2,0.5,0.5,5,4,273,7,NA
fcp-trial,309,1236486,0.0-284.0-0.0,voc_e2,12123,"[{""event"":""fullscreenenter"",""trial"":1,""time"":1325}]",NA,NA,NA,NA,NA,3,#741CD8,#D8271C,0,10,1,38,1,888,37,1,767,0,1,experiment,NA,NA,2,0.5,0.5,4,5,274,7,NA
fcp-trial,310,1239141,0.0-285.0-0.0,voc_e2,12123,"[{""event"":""fullscreenenter"",""trial"":1,""time"":1325}]",NA,NA,NA,NA,NA,3,#FA92F8,#1CD855,0,10,0,38,1,794,39,0,355,10,1,experiment,NA,NA,0,0.1,0.9,1,0,275,7,NA
fcp-trial,311,1241657,0.0-286.0-0.0,voc_e2,12123,"[{""event"":""fullscreenenter"",""trial"":1,""time"":1325}]",NA,NA,NA,NA,NA,0,#FA92F8,#1CD855,0,10,0,38,1,692,39,0,318,10,1,experiment,NA,NA,0,0.1,0.9,1,0,276,7,NA
fcp-trial,312,1244143,0.0-287.0-0.0,voc_e2,12123,"[{""event"":""fullscreenenter"",""trial"":1,""time"":1325}]",NA,NA,NA,NA,NA,1,#D89F1C,#3386FF,10,0,0,38,1,606.9999999997672,39,0,372,0,1,experiment,NA,NA,1,0.3,0.7,3,2,277,7,NA
fcp-trial,313,1246864,0.0-288.0-0.0,voc_e2,12123,"[{""event"":""fullscreenenter"",""trial"":1,""time"":1325}]",NA,NA,NA,NA,NA,1,#741CD8,#D8271C,10,10,1,38,1,765,37,1,448,10,1,experiment,NA,NA,2,0.5,0.5,4,5,278,7,NA
fcp-trial,314,1249637,0.0-289.0-0.0,voc_e2,12123,"[{""event"":""fullscreenenter"",""trial"":1,""time"":1325}]",NA,NA,NA,NA,NA,6,#D89F1C,#3386FF,10,10,0,40,0,794,39,0,463.99999999976717,10,1,experiment,NA,NA,1,0.3,0.7,3,2,279,7,NA
fcp-trial,315,1252212,0.0-290.0-0.0,voc_e2,12123,"[{""event"":""fullscreenenter"",""trial"":1,""time"":1325}]",NA,NA,NA,NA,NA,5,#FA92F8,#1CD855,0,10,0,40,0,704.0000000002328,39,0,364.00000000023283,10,1,experiment,NA,NA,0,0.1,0.9,1,0,280,7,NA
fcp-trial,316,1254903,0.0-291.0-0.0,voc_e2,12123,"[{""event"":""fullscreenenter"",""trial"":1,""time"":1325}]",NA,NA,NA,NA,NA,2,#741CD8,#D8271C,0,0,1,38,1,675.0000000002328,37,1,509.00000000023283,0,1,experiment,NA,NA,2,0.5,0.5,4,5,281,7,NA
fcp-trial,317,1257836,0.0-292.0-0.0,voc_e2,12123,"[{""event"":""fullscreenenter"",""trial"":1,""time"":1325}]",NA,NA,NA,NA,NA,4,#741CD8,#D8271C,10,0,1,40,0,1044,39,0,383,0,0,experiment,NA,NA,2,0.5,0.5,4,5,282,7,NA
fcp-trial,318,1260571,0.0-293.0-0.0,voc_e2,12123,"[{""event"":""fullscreenenter"",""trial"":1,""time"":1325}]",NA,NA,NA,NA,NA,2,#1CD855,#FA92F8,10,0,1,38,1,911,37,1,317,10,1,experiment,NA,NA,0,0.9,0.1,0,1,283,7,NA
fcp-trial,319,1263269,0.0-294.0-0.0,voc_e2,12123,"[{""event"":""fullscreenenter"",""trial"":1,""time"":1325}]",NA,NA,NA,NA,NA,5,#D89F1C,#3386FF,0,10,0,40,0,645.9999999997672,37,1,547,0,0,experiment,NA,NA,1,0.3,0.7,3,2,284,7,NA
fcp-trial,320,1265737,0.0-295.0-0.0,voc_e2,12123,"[{""event"":""fullscreenenter"",""trial"":1,""time"":1325}]",NA,NA,NA,NA,NA,1,#FA92F8,#1CD855,0,0,0,38,1,619.0000000002328,39,0,342.99999999976717,0,1,experiment,NA,NA,0,0.1,0.9,1,0,285,7,NA
fcp-trial,321,1268186,0.0-296.0-0.0,voc_e2,12123,"[{""event"":""fullscreenenter"",""trial"":1,""time"":1325}]",NA,NA,NA,NA,NA,3,#D89F1C,#3386FF,0,10,0,38,1,650,39,0,290,10,1,experiment,NA,NA,1,0.3,0.7,3,2,286,7,NA
fcp-trial,322,1270794,0.0-297.0-0.0,voc_e2,12123,"[{""event"":""fullscreenenter"",""trial"":1,""time"":1325}]",NA,NA,NA,NA,NA,0,#741CD8,#D8271C,0,10,1,38,1,591,37,1,509,0,1,experiment,NA,NA,2,0.5,0.5,4,5,287,7,NA
fcp-trial,323,1273620,0.0-298.0-0.0,voc_e2,12123,"[{""event"":""fullscreenenter"",""trial"":1,""time"":1325}]",NA,NA,NA,NA,NA,6,#FA92F8,#1CD855,10,10,0,40,0,940,39,0,382,10,1,experiment,NA,NA,0,0.1,0.9,1,0,288,7,NA
fcp-trial,324,1276350,0.0-299.0-0.0,voc_e2,12123,"[{""event"":""fullscreenenter"",""trial"":1,""time"":1325}]",NA,NA,NA,NA,NA,5,#741CD8,#D8271C,0,0,1,40,0,754.9999999997672,37,1,468,0,1,experiment,NA,NA,2,0.5,0.5,4,5,289,7,NA
fcp-trial,325,1279407,0.0-300.0-0.0,voc_e2,12123,"[{""event"":""fullscreenenter"",""trial"":1,""time"":1325}]",NA,NA,NA,NA,NA,4,#3386FF,#D89F1C,0,0,1,40,0,1047,39,0,497,0,0,experiment,NA,NA,1,0.7,0.3,2,3,290,7,NA
fcp-trial,326,1282520,0.0-301.0-0.0,voc_e2,12123,"[{""event"":""fullscreenenter"",""trial"":1,""time"":1325}]",NA,NA,NA,NA,NA,0,#3386FF,#D89F1C,10,10,1,38,1,1007,37,1,599,10,1,experiment,NA,NA,1,0.7,0.3,2,3,291,7,NA
fcp-trial,327,1286328,0.0-302.0-0.0,voc_e2,12123,"[{""event"":""fullscreenenter"",""trial"":1,""time"":1325}]",NA,NA,NA,NA,NA,4,#1CD855,#FA92F8,10,0,1,38,1,1632,37,1,668,10,1,experiment,NA,NA,0,0.9,0.1,0,1,292,7,NA
fcp-trial,328,1289055,0.0-303.0-0.0,voc_e2,12123,"[{""event"":""fullscreenenter"",""trial"":1,""time"":1325}]",NA,NA,NA,NA,NA,2,#3386FF,#D89F1C,0,0,1,38,1,828.0000000002328,37,1,392,0,1,experiment,NA,NA,1,0.7,0.3,2,3,293,7,NA
fcp-trial,329,1291600,0.0-304.0-0.0,voc_e2,12123,"[{""event"":""fullscreenenter"",""trial"":1,""time"":1325}]",NA,NA,NA,NA,NA,6,#D8271C,#741CD8,10,10,0,40,0,670.0000000002328,39,0,368,10,1,experiment,NA,NA,2,0.5,0.5,5,4,294,7,NA
fcp-trial,330,1294078,0.0-305.0-0.0,voc_e2,12123,"[{""event"":""fullscreenenter"",""trial"":1,""time"":1325}]",NA,NA,NA,NA,NA,0,#3386FF,#D89F1C,10,10,1,38,1,595.0000000002328,37,1,367,10,1,experiment,NA,NA,1,0.7,0.3,2,3,295,7,NA
fcp-trial,331,1296837,0.0-306.0-0.0,voc_e2,12123,"[{""event"":""fullscreenenter"",""trial"":1,""time"":1325}]",NA,NA,NA,NA,NA,5,#D89F1C,#3386FF,0,10,0,40,0,752,37,1,500,0,0,experiment,NA,NA,1,0.3,0.7,3,2,296,7,NA
fcp-trial,332,1299770,0.0-307.0-0.0,voc_e2,12123,"[{""event"":""fullscreenenter"",""trial"":1,""time"":1325}]",NA,NA,NA,NA,NA,3,#741CD8,#D8271C,0,10,1,38,1,661,37,1,766,0,1,experiment,NA,NA,2,0.5,0.5,4,5,297,7,NA
fcp-trial,333,1302440,0.0-308.0-0.0,voc_e2,12123,"[{""event"":""fullscreenenter"",""trial"":1,""time"":1325}]",NA,NA,NA,NA,NA,2,#1CD855,#FA92F8,10,0,1,38,1,678,37,1,485,10,1,experiment,NA,NA,0,0.9,0.1,0,1,298,7,NA
fcp-trial,334,1305170,0.0-309.0-0.0,voc_e2,12123,"[{""event"":""fullscreenenter"",""trial"":1,""time"":1325}]",NA,NA,NA,NA,NA,1,#D89F1C,#3386FF,10,10,0,38,1,906.0000000002328,39,0,314,10,1,experiment,NA,NA,1,0.3,0.7,3,2,299,7,NA
fcp-trial,335,1307805,0.0-310.0-0.0,voc_e2,12123,"[{""event"":""fullscreenenter"",""trial"":1,""time"":1325}]",NA,NA,NA,NA,NA,0,#FA92F8,#1CD855,0,10,0,38,1,746.0000000002328,39,0,383,10,1,experiment,NA,NA,0,0.1,0.9,1,0,300,7,NA
fcp-trial,336,1310589,0.0-311.0-0.0,voc_e2,12123,"[{""event"":""fullscreenenter"",""trial"":1,""time"":1325}]",NA,NA,NA,NA,NA,4,#FA92F8,#1CD855,0,10,0,38,1,996.0000000002328,39,0,282.99999999976717,10,1,experiment,NA,NA,0,0.1,0.9,1,0,301,7,NA
fcp-trial,337,1314619,0.0-312.0-0.0,voc_e2,12123,"[{""event"":""fullscreenenter"",""trial"":1,""time"":1325}]",NA,NA,NA,NA,NA,2,#D8271C,#741CD8,10,10,0,38,1,2127.999999999767,37,1,397,10,0,experiment,NA,NA,2,0.5,0.5,5,4,302,7,NA
fcp-trial,338,1317450,0.0-313.0-0.0,voc_e2,12123,"[{""event"":""fullscreenenter"",""trial"":1,""time"":1325}]",NA,NA,NA,NA,NA,6,#1CD855,#FA92F8,10,0,1,40,0,933,37,1,391,10,1,experiment,NA,NA,0,0.9,0.1,0,1,303,7,NA
fcp-trial,339,1320420,0.0-314.0-0.0,voc_e2,12123,"[{""event"":""fullscreenenter"",""trial"":1,""time"":1325}]",NA,NA,NA,NA,NA,4,#3386FF,#D89F1C,0,10,1,38,1,693,37,1,761,0,1,experiment,NA,NA,1,0.7,0.3,2,3,304,7,NA
fcp-trial,340,1323060,0.0-315.0-0.0,voc_e2,12123,"[{""event"":""fullscreenenter"",""trial"":1,""time"":1325}]",NA,NA,NA,NA,NA,3,#3386FF,#D89F1C,10,0,1,38,1,772,37,1,361,10,1,experiment,NA,NA,1,0.7,0.3,2,3,305,7,NA
fcp-trial,341,1326620,0.0-316.0-0.0,voc_e2,12123,"[{""event"":""fullscreenenter"",""trial"":1,""time"":1325}]",NA,NA,NA,NA,NA,1,#741CD8,#D8271C,0,10,1,38,1,1104,37,1,949,0,1,experiment,NA,NA,2,0.5,0.5,4,5,306,7,NA
fcp-trial,342,1329825,0.0-317.0-0.0,voc_e2,12123,"[{""event"":""fullscreenenter"",""trial"":1,""time"":1325}]",NA,NA,NA,NA,NA,5,#741CD8,#D8271C,10,10,1,40,0,1079,37,1,619.0000000002328,10,1,experiment,NA,NA,2,0.5,0.5,4,5,307,7,NA
fcp-trial,343,1332965,0.0-318.0-0.0,voc_e2,12123,"[{""event"":""fullscreenenter"",""trial"":1,""time"":1325}]",NA,NA,NA,NA,NA,5,#1CD855,#FA92F8,10,0,1,40,0,1109.0000000002328,39,0,523,0,0,experiment,NA,NA,0,0.9,0.1,0,1,308,7,NA
fcp-trial,344,1335760,0.0-319.0-0.0,voc_e2,12123,"[{""event"":""fullscreenenter"",""trial"":1,""time"":1325}]",NA,NA,NA,NA,NA,6,#D89F1C,#3386FF,0,0,0,40,0,908,39,0,371,0,1,experiment,NA,NA,1,0.3,0.7,3,2,309,7,NA
fcp-trial,345,1338455,0.0-320.0-0.0,voc_e2,12123,"[{""event"":""fullscreenenter"",""trial"":1,""time"":1325}]",NA,NA,NA,NA,NA,1,#1CD855,#FA92F8,10,0,1,38,1,722,37,1,466.99999999976717,10,1,experiment,NA,NA,0,0.9,0.1,0,1,310,7,NA
fcp-trial,346,1342607,0.0-321.0-0.0,voc_e2,12123,"[{""event"":""fullscreenenter"",""trial"":1,""time"":1325}]",NA,NA,NA,NA,NA,4,#741CD8,#D8271C,0,10,1,38,1,1482,39,0,1164,10,0,experiment,NA,NA,2,0.5,0.5,4,5,311,7,NA
fcp-trial,347,1345160,0.0-322.0-0.0,voc_e2,12123,"[{""event"":""fullscreenenter"",""trial"":1,""time"":1325}]",NA,NA,NA,NA,NA,3,#1CD855,#FA92F8,10,0,1,38,1,649.9999999997672,37,1,394,10,1,experiment,NA,NA,0,0.9,0.1,0,1,312,7,NA
fcp-trial,348,1347789,0.0-323.0-0.0,voc_e2,12123,"[{""event"":""fullscreenenter"",""trial"":1,""time"":1325}]",NA,NA,NA,NA,NA,2,#3386FF,#D89F1C,10,0,1,38,1,670,37,1,452,10,1,experiment,NA,NA,1,0.7,0.3,2,3,313,7,NA
fcp-trial,349,1350765,0.0-324.0-0.0,voc_e2,12123,"[{""event"":""fullscreenenter"",""trial"":1,""time"":1325}]",NA,NA,NA,NA,NA,0,#D8271C,#741CD8,0,0,0,38,1,744,37,1,725,0,0,experiment,NA,NA,2,0.5,0.5,5,4,314,7,NA
fcp-trial,350,1353524,0.0-325.0-0.0,voc_e2,12123,"[{""event"":""fullscreenenter"",""trial"":1,""time"":1325}]",NA,NA,NA,NA,NA,6,#741CD8,#D8271C,10,10,1,40,0,851.0000000002328,37,1,392,10,1,experiment,NA,NA,2,0.5,0.5,4,5,315,7,NA
audio-instructions,351,1359874,0.0-326.0,voc_e2,12123,"[{""event"":""fullscreenenter"",""trial"":1,""time"":1325}]",NA,715,static/audio/finished.wav,NA,0,NA,NA,NA,NA,NA,NA,NA,NA,NA,NA,NA,NA,NA,NA,NA,NA,NA,NA,NA,NA,NA,NA,NA,NA,NA
audio-instructions,352,1372056,0.0-327.0-0.0,voc_e2,12123,"[{""event"":""fullscreenenter"",""trial"":1,""time"":1325}]",NA,1343,static/audio/explicit1.wav,NA,0,NA,NA,NA,NA,NA,NA,NA,NA,NA,NA,NA,NA,NA,NA,NA,NA,NA,NA,NA,NA,NA,NA,NA,NA,NA
audio-instructions,353,1380157,0.0-327.0-1.0,voc_e2,12123,"[{""event"":""fullscreenenter"",""trial"":1,""time"":1325}]",NA,505,static/audio/explicit2.wav,NA,0,NA,NA,NA,NA,NA,NA,NA,NA,NA,NA,NA,NA,NA,NA,NA,NA,NA,NA,NA,NA,NA,NA,NA,NA,NA
image-slider-response,354,1388158,0.0-328.0,voc_e2,12123,"[{""event"":""fullscreenenter"",""trial"":1,""time"":1325}]",NA,7998,static/img/machines/machine5.png,NA,NA,NA,NA,NA,NA,NA,NA,NA,NA,NA,NA,NA,NA,NA,NA,explicit,NA,NA,NA,NA,NA,NA,NA,NA,NA,3
image-slider-response,355,1390978,0.0-329.0,voc_e2,12123,"[{""event"":""fullscreenenter"",""trial"":1,""time"":1325}]",NA,2816.000000000233,static/img/machines/machine6.png,NA,NA,NA,NA,NA,NA,NA,NA,NA,NA,NA,NA,NA,NA,NA,NA,explicit,NA,NA,NA,NA,NA,NA,NA,NA,NA,8
image-slider-response,356,1398625,0.0-330.0,voc_e2,12123,"[{""event"":""fullscreenenter"",""trial"":1,""time"":1325}]",NA,7644,static/img/machines/machine3.png,NA,NA,NA,NA,NA,NA,NA,NA,NA,NA,NA,NA,NA,NA,NA,NA,explicit,NA,NA,NA,NA,NA,NA,NA,NA,NA,8
image-slider-response,357,1401906,0.0-331.0,voc_e2,12123,"[{""event"":""fullscreenenter"",""trial"":1,""time"":1325}]",NA,3279,static/img/machines/machine4.png,NA,NA,NA,NA,NA,NA,NA,NA,NA,NA,NA,NA,NA,NA,NA,NA,explicit,NA,NA,NA,NA,NA,NA,NA,NA,NA,2
image-slider-response,358,1405472,0.0-332.0,voc_e2,12123,"[{""event"":""fullscreenenter"",""trial"":1,""time"":1325}]",NA,3562.999999999767,static/img/machines/machine1.png,NA,NA,NA,NA,NA,NA,NA,NA,NA,NA,NA,NA,NA,NA,NA,NA,explicit,NA,NA,NA,NA,NA,NA,NA,NA,NA,4
image-slider-response,359,1407941,0.0-333.0,voc_e2,12123,"[{""event"":""fullscreenenter"",""trial"":1,""time"":1325}]",NA,2466,static/img/machines/machine2.png,NA,NA,NA,NA,NA,NA,NA,NA,NA,NA,NA,NA,NA,NA,NA,NA,explicit,NA,NA,NA,NA,NA,NA,NA,NA,NA,6
