trial_type,trial_index,time_elapsed,internal_node_id,task_version,subject_id,interactions,success,rt,stimulus,key_press,button_pressed,offer,arcade_color_L,arcade_color_R,arcade_outcome_L,arcade_outcome_R,correct,stage_1_key,stage_1_choice,stage_1_rt,stage_2_key,stage_2_choice,stage_2_rt,stage_3_outcome,accuracy,phase,responses,num_errors,context,reward_prob_L,reward_prob_R,arcade_id_L,arcade_id_R,trial,block,response
pavlovia,0,11,0.0-0.0,voc_e2,12060,[],NA,NA,NA,NA,NA,NA,NA,NA,NA,NA,NA,NA,NA,NA,NA,NA,NA,NA,NA,NA,NA,NA,NA,NA,NA,NA,NA,NA,NA,NA
fullscreen,1,4235,0.0-1.0,voc_e2,12060,"[{""event"":""fullscreenenter"",""trial"":1,""time"":3271},{""event"":""fullscreenenter"",""trial"":1,""time"":3271}]",TRUE,NA,NA,NA,NA,NA,NA,NA,NA,NA,NA,NA,NA,NA,NA,NA,NA,NA,NA,NA,NA,NA,NA,NA,NA,NA,NA,NA,NA,NA
audio-keyboard-response,2,8888,0.0-2.0,voc_e2,12060,"[{""event"":""fullscreenenter"",""trial"":1,""time"":3271},{""event"":""fullscreenenter"",""trial"":1,""time"":3271}]",NA,0,static/audio/beep_loop.wav,32,NA,NA,NA,NA,NA,NA,NA,NA,NA,NA,NA,NA,NA,NA,NA,NA,NA,NA,NA,NA,NA,NA,NA,NA,NA,NA
audio-test,3,10999,0.0-3.0,voc_e2,12060,"[{""event"":""fullscreenenter"",""trial"":1,""time"":3271},{""event"":""fullscreenenter"",""trial"":1,""time"":3271}]",NA,NA,static/audio/turtle.wav,NA,3,NA,NA,NA,NA,NA,NA,NA,NA,NA,NA,NA,NA,NA,NA,NA,NA,NA,NA,NA,NA,NA,NA,NA,NA,NA
audio-test,4,13380,0.0-4.0,voc_e2,12060,"[{""event"":""fullscreenenter"",""trial"":1,""time"":3271},{""event"":""fullscreenenter"",""trial"":1,""time"":3271}]",NA,NA,static/audio/shark.wav,NA,2,NA,NA,NA,NA,NA,NA,NA,NA,NA,NA,NA,NA,NA,NA,NA,NA,NA,NA,NA,NA,NA,NA,NA,NA,NA
audio-instructions,5,22452,0.0-5.0-0.0,voc_e2,12060,"[{""event"":""fullscreenenter"",""trial"":1,""time"":3271},{""event"":""fullscreenenter"",""trial"":1,""time"":3271}]",NA,3289,static/audio/instructions1.wav,NA,0,NA,NA,NA,NA,NA,NA,NA,NA,NA,NA,NA,NA,NA,NA,NA,NA,NA,NA,NA,NA,NA,NA,NA,NA,NA
audio-instructions,6,32380,0.0-5.0-1.0,voc_e2,12060,"[{""event"":""fullscreenenter"",""trial"":1,""time"":3271},{""event"":""fullscreenenter"",""trial"":1,""time"":3271}]",NA,3186,static/audio/instructions2.wav,NA,0,NA,NA,NA,NA,NA,NA,NA,NA,NA,NA,NA,NA,NA,NA,NA,NA,NA,NA,NA,NA,NA,NA,NA,NA,NA
audio-instructions,7,39001,0.0-5.0-2.0,voc_e2,12060,"[{""event"":""fullscreenenter"",""trial"":1,""time"":3271},{""event"":""fullscreenenter"",""trial"":1,""time"":3271}]",NA,816,static/audio/instructions3.wav,NA,0,NA,NA,NA,NA,NA,NA,NA,NA,NA,NA,NA,NA,NA,NA,NA,NA,NA,NA,NA,NA,NA,NA,NA,NA,NA
audio-instructions,8,52836,0.0-5.0-3.0,voc_e2,12060,"[{""event"":""fullscreenenter"",""trial"":1,""time"":3271},{""event"":""fullscreenenter"",""trial"":1,""time"":3271}]",NA,606.9999999999927,static/audio/instructions4.wav,NA,0,NA,NA,NA,NA,NA,NA,NA,NA,NA,NA,NA,NA,NA,NA,NA,NA,NA,NA,NA,NA,NA,NA,NA,NA,NA
audio-instructions,9,64601,0.0-5.0-4.0,voc_e2,12060,"[{""event"":""fullscreenenter"",""trial"":1,""time"":3271},{""event"":""fullscreenenter"",""trial"":1,""time"":3271}]",NA,2377,static/audio/instructions5.wav,NA,0,NA,NA,NA,NA,NA,NA,NA,NA,NA,NA,NA,NA,NA,NA,NA,NA,NA,NA,NA,NA,NA,NA,NA,NA,NA
fcp-practice,10,67898,0.0-5.0-5.0-0.0,voc_e2,12060,"[{""event"":""fullscreenenter"",""trial"":1,""time"":3271},{""event"":""fullscreenenter"",""trial"":1,""time"":3271}]",NA,NA,NA,NA,NA,NA,#EDC948,#46d3c8,10,0,1,null,null,null,37,1,1788.0000000000146,10,1,practice,NA,NA,NA,NA,NA,NA,NA,NA,NA,NA
fcp-practice,11,70083,0.0-5.0-5.0-1.0,voc_e2,12060,"[{""event"":""fullscreenenter"",""trial"":1,""time"":3271},{""event"":""fullscreenenter"",""trial"":1,""time"":3271}]",NA,NA,NA,NA,NA,NA,#EDC948,#46d3c8,10,0,1,null,null,null,37,1,681,10,1,practice,NA,NA,NA,NA,NA,NA,NA,NA,NA,NA
fcp-practice,12,72138,0.0-5.0-5.0-2.0,voc_e2,12060,"[{""event"":""fullscreenenter"",""trial"":1,""time"":3271},{""event"":""fullscreenenter"",""trial"":1,""time"":3271}]",NA,NA,NA,NA,NA,NA,#EDC948,#46d3c8,0,10,1,null,null,null,37,1,548,0,1,practice,NA,NA,NA,NA,NA,NA,NA,NA,NA,NA
fcp-practice,13,74025,0.0-5.0-5.0-3.0,voc_e2,12060,"[{""event"":""fullscreenenter"",""trial"":1,""time"":3271},{""event"":""fullscreenenter"",""trial"":1,""time"":3271}]",NA,NA,NA,NA,NA,NA,#EDC948,#46d3c8,10,0,1,null,null,null,37,1,381,10,1,practice,NA,NA,NA,NA,NA,NA,NA,NA,NA,NA
fcp-practice,14,76083,0.0-5.0-5.0-4.0,voc_e2,12060,"[{""event"":""fullscreenenter"",""trial"":1,""time"":3271},{""event"":""fullscreenenter"",""trial"":1,""time"":3271}]",NA,NA,NA,NA,NA,NA,#EDC948,#46d3c8,10,0,1,null,null,null,37,1,550.9999999999854,10,1,practice,NA,NA,NA,NA,NA,NA,NA,NA,NA,NA
audio-instructions,15,97151,0.0-5.0-6.0,voc_e2,12060,"[{""event"":""fullscreenenter"",""trial"":1,""time"":3271},{""event"":""fullscreenenter"",""trial"":1,""time"":3271}]",NA,3058,static/audio/instructions6.wav,NA,0,NA,NA,NA,NA,NA,NA,NA,NA,NA,NA,NA,NA,NA,NA,NA,NA,NA,NA,NA,NA,NA,NA,NA,NA,NA
audio-instructions,16,116935,0.0-5.0-7.0,voc_e2,12060,"[{""event"":""fullscreenenter"",""trial"":1,""time"":3271},{""event"":""fullscreenenter"",""trial"":1,""time"":3271}]",NA,582.0000000000146,static/audio/instructions7.wav,NA,0,NA,NA,NA,NA,NA,NA,NA,NA,NA,NA,NA,NA,NA,NA,NA,NA,NA,NA,NA,NA,NA,NA,NA,NA,NA
audio-instructions,17,127267,0.0-5.0-8.0,voc_e2,12060,"[{""event"":""fullscreenenter"",""trial"":1,""time"":3271},{""event"":""fullscreenenter"",""trial"":1,""time"":3271}]",NA,860,static/audio/instructions8.wav,NA,0,NA,NA,NA,NA,NA,NA,NA,NA,NA,NA,NA,NA,NA,NA,NA,NA,NA,NA,NA,NA,NA,NA,NA,NA,NA
fcp-comprehension,18,146190,0.0-5.0-9.0,voc_e2,12060,"[{""event"":""fullscreenenter"",""trial"":1,""time"":3271},{""event"":""fullscreenenter"",""trial"":1,""time"":3271}]",NA,18922,NA,NA,NA,NA,NA,NA,NA,NA,NA,NA,NA,NA,NA,NA,NA,NA,NA,NA,"false,true",1,NA,NA,NA,NA,NA,NA,NA,NA
audio-instructions,19,151902,0.0-5.1-0.1,voc_e2,12060,"[{""event"":""fullscreenenter"",""trial"":1,""time"":3271},{""event"":""fullscreenenter"",""trial"":1,""time"":3271}]",NA,931,static/audio/instructions1.wav,NA,0,NA,NA,NA,NA,NA,NA,NA,NA,NA,NA,NA,NA,NA,NA,NA,NA,NA,NA,NA,NA,NA,NA,NA,NA,NA
audio-instructions,20,159731,0.0-5.1-1.1,voc_e2,12060,"[{""event"":""fullscreenenter"",""trial"":1,""time"":3271},{""event"":""fullscreenenter"",""trial"":1,""time"":3271}]",NA,1086.999999999971,static/audio/instructions2.wav,NA,0,NA,NA,NA,NA,NA,NA,NA,NA,NA,NA,NA,NA,NA,NA,NA,NA,NA,NA,NA,NA,NA,NA,NA,NA,NA
audio-instructions,21,166581,0.0-5.1-2.1,voc_e2,12060,"[{""event"":""fullscreenenter"",""trial"":1,""time"":3271},{""event"":""fullscreenenter"",""trial"":1,""time"":3271}]",NA,1046,static/audio/instructions3.wav,NA,0,NA,NA,NA,NA,NA,NA,NA,NA,NA,NA,NA,NA,NA,NA,NA,NA,NA,NA,NA,NA,NA,NA,NA,NA,NA
audio-instructions,22,180434,0.0-5.1-3.1,voc_e2,12060,"[{""event"":""fullscreenenter"",""trial"":1,""time"":3271},{""event"":""fullscreenenter"",""trial"":1,""time"":3271}]",NA,624,static/audio/instructions4.wav,NA,0,NA,NA,NA,NA,NA,NA,NA,NA,NA,NA,NA,NA,NA,NA,NA,NA,NA,NA,NA,NA,NA,NA,NA,NA,NA
audio-instructions,23,190451,0.0-5.1-4.1,voc_e2,12060,"[{""event"":""fullscreenenter"",""trial"":1,""time"":3271},{""event"":""fullscreenenter"",""trial"":1,""time"":3271}]",NA,628,static/audio/instructions5.wav,NA,0,NA,NA,NA,NA,NA,NA,NA,NA,NA,NA,NA,NA,NA,NA,NA,NA,NA,NA,NA,NA,NA,NA,NA,NA,NA
fcp-practice,24,192467,0.0-5.1-5.1-0.1,voc_e2,12060,"[{""event"":""fullscreenenter"",""trial"":1,""time"":3271},{""event"":""fullscreenenter"",""trial"":1,""time"":3271}]",NA,NA,NA,NA,NA,NA,#EDC948,#46d3c8,10,0,1,null,null,null,37,1,511,10,1,practice,NA,NA,NA,NA,NA,NA,NA,NA,NA,NA
fcp-practice,25,194253,0.0-5.1-5.1-1.1,voc_e2,12060,"[{""event"":""fullscreenenter"",""trial"":1,""time"":3271},{""event"":""fullscreenenter"",""trial"":1,""time"":3271}]",NA,NA,NA,NA,NA,NA,#EDC948,#46d3c8,10,0,1,null,null,null,37,1,280,10,1,practice,NA,NA,NA,NA,NA,NA,NA,NA,NA,NA
fcp-practice,26,196038,0.0-5.1-5.1-2.1,voc_e2,12060,"[{""event"":""fullscreenenter"",""trial"":1,""time"":3271},{""event"":""fullscreenenter"",""trial"":1,""time"":3271}]",NA,NA,NA,NA,NA,NA,#EDC948,#46d3c8,0,10,1,null,null,null,37,1,278.0000000000291,0,1,practice,NA,NA,NA,NA,NA,NA,NA,NA,NA,NA
fcp-practice,27,197816,0.0-5.1-5.1-3.1,voc_e2,12060,"[{""event"":""fullscreenenter"",""trial"":1,""time"":3271},{""event"":""fullscreenenter"",""trial"":1,""time"":3271}]",NA,NA,NA,NA,NA,NA,#EDC948,#46d3c8,10,0,1,null,null,null,37,1,271,10,1,practice,NA,NA,NA,NA,NA,NA,NA,NA,NA,NA
fcp-practice,28,199549,0.0-5.1-5.1-4.1,voc_e2,12060,"[{""event"":""fullscreenenter"",""trial"":1,""time"":3271},{""event"":""fullscreenenter"",""trial"":1,""time"":3271}]",NA,NA,NA,NA,NA,NA,#EDC948,#46d3c8,10,0,1,null,null,null,37,1,226.0000000000291,10,1,practice,NA,NA,NA,NA,NA,NA,NA,NA,NA,NA
audio-instructions,29,220948,0.0-5.1-6.1,voc_e2,12060,"[{""event"":""fullscreenenter"",""trial"":1,""time"":3271},{""event"":""fullscreenenter"",""trial"":1,""time"":3271}]",NA,3391,static/audio/instructions6.wav,NA,0,NA,NA,NA,NA,NA,NA,NA,NA,NA,NA,NA,NA,NA,NA,NA,NA,NA,NA,NA,NA,NA,NA,NA,NA,NA
audio-instructions,30,242685,0.0-5.1-7.1,voc_e2,12060,"[{""event"":""fullscreenenter"",""trial"":1,""time"":3271},{""event"":""fullscreenenter"",""trial"":1,""time"":3271}]",NA,2534,static/audio/instructions7.wav,NA,0,NA,NA,NA,NA,NA,NA,NA,NA,NA,NA,NA,NA,NA,NA,NA,NA,NA,NA,NA,NA,NA,NA,NA,NA,NA
audio-instructions,31,252951,0.0-5.1-8.1,voc_e2,12060,"[{""event"":""fullscreenenter"",""trial"":1,""time"":3271},{""event"":""fullscreenenter"",""trial"":1,""time"":3271}]",NA,792,static/audio/instructions8.wav,NA,0,NA,NA,NA,NA,NA,NA,NA,NA,NA,NA,NA,NA,NA,NA,NA,NA,NA,NA,NA,NA,NA,NA,NA,NA,NA
fcp-comprehension,32,266271,0.0-5.1-9.1,voc_e2,12060,"[{""event"":""fullscreenenter"",""trial"":1,""time"":3271},{""event"":""fullscreenenter"",""trial"":1,""time"":3271}]",NA,13316.99999999997,NA,NA,NA,NA,NA,NA,NA,NA,NA,NA,NA,NA,NA,NA,NA,NA,NA,NA,"true,true",0,NA,NA,NA,NA,NA,NA,NA,NA
audio-instructions,33,273252,0.0-6.0-0.0,voc_e2,12060,"[{""event"":""fullscreenenter"",""trial"":1,""time"":3271},{""event"":""fullscreenenter"",""trial"":1,""time"":3271}]",NA,1432,static/audio/instructions9.wav,NA,0,NA,NA,NA,NA,NA,NA,NA,NA,NA,NA,NA,NA,NA,NA,NA,NA,NA,NA,NA,NA,NA,NA,NA,NA,NA
audio-instructions,34,285834,0.0-6.0-1.0,voc_e2,12060,"[{""event"":""fullscreenenter"",""trial"":1,""time"":3271},{""event"":""fullscreenenter"",""trial"":1,""time"":3271}]",NA,464,static/audio/instructions10.wav,NA,0,NA,NA,NA,NA,NA,NA,NA,NA,NA,NA,NA,NA,NA,NA,NA,NA,NA,NA,NA,NA,NA,NA,NA,NA,NA
fcp-trial,35,296934,0.0-6.0-2.0,voc_e2,12060,"[{""event"":""fullscreenenter"",""trial"":1,""time"":3271},{""event"":""fullscreenenter"",""trial"":1,""time"":3271}]",NA,NA,NA,NA,NA,0,#EDC948,#46d3c8,10,10,1,38,1,5645.999999999942,39,0,3946,10,0,practice,NA,NA,NA,NA,NA,NA,NA,NA,NA,NA
audio-instructions,36,310601,0.0-6.0-3.0,voc_e2,12060,"[{""event"":""fullscreenenter"",""trial"":1,""time"":3271},{""event"":""fullscreenenter"",""trial"":1,""time"":3271}]",NA,2656.000000000058,static/audio/instructions11.wav,NA,0,NA,NA,NA,NA,NA,NA,NA,NA,NA,NA,NA,NA,NA,NA,NA,NA,NA,NA,NA,NA,NA,NA,NA,NA,NA
fcp-trial,37,315156,0.0-6.0-4.0,voc_e2,12060,"[{""event"":""fullscreenenter"",""trial"":1,""time"":3271},{""event"":""fullscreenenter"",""trial"":1,""time"":3271}]",NA,NA,NA,NA,NA,6,#EDC948,#46d3c8,10,10,1,40,0,1646,37,1,1399,10,1,practice,NA,NA,NA,NA,NA,NA,NA,NA,NA,NA
audio-instructions,38,337986,0.0-6.0-5.0,voc_e2,12060,"[{""event"":""fullscreenenter"",""trial"":1,""time"":3271},{""event"":""fullscreenenter"",""trial"":1,""time"":3271}]",NA,4139,static/audio/instructions12.wav,NA,0,NA,NA,NA,NA,NA,NA,NA,NA,NA,NA,NA,NA,NA,NA,NA,NA,NA,NA,NA,NA,NA,NA,NA,NA,NA
audio-instructions,39,346115,0.0-6.0-6.0,voc_e2,12060,"[{""event"":""fullscreenenter"",""trial"":1,""time"":3271},{""event"":""fullscreenenter"",""trial"":1,""time"":3271}]",NA,533,static/audio/instructions13.wav,NA,0,NA,NA,NA,NA,NA,NA,NA,NA,NA,NA,NA,NA,NA,NA,NA,NA,NA,NA,NA,NA,NA,NA,NA,NA,NA
audio-instructions,40,355067,0.0-6.0-7.0,voc_e2,12060,"[{""event"":""fullscreenenter"",""trial"":1,""time"":3271},{""event"":""fullscreenenter"",""trial"":1,""time"":3271}]",NA,503,static/audio/instructions14.wav,NA,0,NA,NA,NA,NA,NA,NA,NA,NA,NA,NA,NA,NA,NA,NA,NA,NA,NA,NA,NA,NA,NA,NA,NA,NA,NA
audio-instructions,41,362585,0.0-7.0-0.0,voc_e2,12060,"[{""event"":""fullscreenenter"",""trial"":1,""time"":3271},{""event"":""fullscreenenter"",""trial"":1,""time"":3271}]",NA,605,static/audio/instructions15.wav,NA,0,NA,NA,NA,NA,NA,NA,NA,NA,NA,NA,NA,NA,NA,NA,NA,NA,NA,NA,NA,NA,NA,NA,NA,NA,NA
audio-instructions,42,370501,0.0-7.0-1.0,voc_e2,12060,"[{""event"":""fullscreenenter"",""trial"":1,""time"":3271},{""event"":""fullscreenenter"",""trial"":1,""time"":3271}]",NA,1090,static/audio/instructions16.wav,NA,0,NA,NA,NA,NA,NA,NA,NA,NA,NA,NA,NA,NA,NA,NA,NA,NA,NA,NA,NA,NA,NA,NA,NA,NA,NA
audio-instructions,43,378600,0.0-7.0-2.0,voc_e2,12060,"[{""event"":""fullscreenenter"",""trial"":1,""time"":3271},{""event"":""fullscreenenter"",""trial"":1,""time"":3271}]",NA,418,static/audio/instructions17.wav,NA,0,NA,NA,NA,NA,NA,NA,NA,NA,NA,NA,NA,NA,NA,NA,NA,NA,NA,NA,NA,NA,NA,NA,NA,NA,NA
audio-instructions,44,386882,0.0-7.0-3.0,voc_e2,12060,"[{""event"":""fullscreenenter"",""trial"":1,""time"":3271},{""event"":""fullscreenenter"",""trial"":1,""time"":3271}]",NA,516,static/audio/instructions18.wav,NA,0,NA,NA,NA,NA,NA,NA,NA,NA,NA,NA,NA,NA,NA,NA,NA,NA,NA,NA,NA,NA,NA,NA,NA,NA,NA
audio-instructions,45,394366,0.0-7.0-4.0,voc_e2,12060,"[{""event"":""fullscreenenter"",""trial"":1,""time"":3271},{""event"":""fullscreenenter"",""trial"":1,""time"":3271}]",NA,740,static/audio/instructions19.wav,NA,0,NA,NA,NA,NA,NA,NA,NA,NA,NA,NA,NA,NA,NA,NA,NA,NA,NA,NA,NA,NA,NA,NA,NA,NA,NA
fcp-comprehension,46,411521,0.0-7.0-5.0,voc_e2,12060,"[{""event"":""fullscreenenter"",""trial"":1,""time"":3271},{""event"":""fullscreenenter"",""trial"":1,""time"":3271}]",NA,17152.99999999994,NA,NA,NA,NA,NA,NA,NA,NA,NA,NA,NA,NA,NA,NA,NA,NA,NA,NA,"false,false,false,true",0,NA,NA,NA,NA,NA,NA,NA,NA
audio-instructions,47,423885,0.0-8.0,voc_e2,12060,"[{""event"":""fullscreenenter"",""trial"":1,""time"":3271},{""event"":""fullscreenenter"",""trial"":1,""time"":3271}]",NA,3145,static/audio/ready.wav,NA,0,NA,NA,NA,NA,NA,NA,NA,NA,NA,NA,NA,NA,NA,NA,NA,NA,NA,NA,NA,NA,NA,NA,NA,NA,NA
fcp-trial,48,428149,0.0-9.0-0.0,voc_e2,12060,"[{""event"":""fullscreenenter"",""trial"":1,""time"":3271},{""event"":""fullscreenenter"",""trial"":1,""time"":3271}]",NA,NA,NA,NA,NA,5,#FA92F8,#1CD855,0,10,0,40,0,1974.9999999999418,37,1,780.9999999999418,0,0,experiment,NA,NA,1,0.3,0.7,3,2,1,1,NA
fcp-trial,49,435248,0.0-10.0-0.0,voc_e2,12060,"[{""event"":""fullscreenenter"",""trial"":1,""time"":3271},{""event"":""fullscreenenter"",""trial"":1,""time"":3271}]",NA,NA,NA,NA,NA,2,#D8271C,#741CD8,10,10,0,38,1,4604.000000000058,39,0,987,10,1,experiment,NA,NA,2,0.5,0.5,5,4,2,1,NA
fcp-trial,50,439753,0.0-11.0-0.0,voc_e2,12060,"[{""event"":""fullscreenenter"",""trial"":1,""time"":3271},{""event"":""fullscreenenter"",""trial"":1,""time"":3271}]",NA,NA,NA,NA,NA,2,#FA92F8,#1CD855,0,10,0,38,1,2404,37,1,595,0,0,experiment,NA,NA,1,0.3,0.7,3,2,3,1,NA
fcp-trial,51,443733,0.0-12.0-0.0,voc_e2,12060,"[{""event"":""fullscreenenter"",""trial"":1,""time"":3271},{""event"":""fullscreenenter"",""trial"":1,""time"":3271}]",NA,NA,NA,NA,NA,4,#3386FF,#D89F1C,0,10,0,40,0,1875,37,1,598.9999999999418,0,0,experiment,NA,NA,0,0.1,0.9,1,0,4,1,NA
fcp-trial,52,448599,0.0-13.0-0.0,voc_e2,12060,"[{""event"":""fullscreenenter"",""trial"":1,""time"":3271},{""event"":""fullscreenenter"",""trial"":1,""time"":3271}]",NA,NA,NA,NA,NA,0,#741CD8,#D8271C,0,0,1,38,1,2720,37,1,637.9999999999418,0,1,experiment,NA,NA,2,0.5,0.5,4,5,5,1,NA
fcp-trial,53,453901,0.0-14.0-0.0,voc_e2,12060,"[{""event"":""fullscreenenter"",""trial"":1,""time"":3271},{""event"":""fullscreenenter"",""trial"":1,""time"":3271}]",NA,NA,NA,NA,NA,6,#D89F1C,#3386FF,10,10,1,40,0,3215,39,0,577,10,0,experiment,NA,NA,0,0.9,0.1,0,1,6,1,NA
fcp-trial,54,461517,0.0-15.0-0.0,voc_e2,12060,"[{""event"":""fullscreenenter"",""trial"":1,""time"":3271},{""event"":""fullscreenenter"",""trial"":1,""time"":3271}]",NA,NA,NA,NA,NA,6,#D8271C,#741CD8,10,0,0,40,0,5491.999999999942,39,0,617,0,1,experiment,NA,NA,2,0.5,0.5,5,4,7,1,NA
fcp-trial,55,466267,0.0-16.0-0.0,voc_e2,12060,"[{""event"":""fullscreenenter"",""trial"":1,""time"":3271},{""event"":""fullscreenenter"",""trial"":1,""time"":3271}]",NA,NA,NA,NA,NA,3,#1CD855,#FA92F8,10,0,1,38,1,2728,37,1,514,10,1,experiment,NA,NA,1,0.7,0.3,2,3,8,1,NA
fcp-trial,56,469851,0.0-17.0-0.0,voc_e2,12060,"[{""event"":""fullscreenenter"",""trial"":1,""time"":3271},{""event"":""fullscreenenter"",""trial"":1,""time"":3271}]",NA,NA,NA,NA,NA,3,#741CD8,#D8271C,10,10,1,38,1,1578,39,0,498,10,0,experiment,NA,NA,2,0.5,0.5,4,5,9,1,NA
fcp-trial,57,473625,0.0-18.0-0.0,voc_e2,12060,"[{""event"":""fullscreenenter"",""trial"":1,""time"":3271},{""event"":""fullscreenenter"",""trial"":1,""time"":3271}]",NA,NA,NA,NA,NA,5,#3386FF,#D89F1C,0,10,0,38,1,1842,37,1,423,0,0,experiment,NA,NA,0,0.1,0.9,1,0,10,1,NA
fcp-trial,58,477123,0.0-19.0-0.0,voc_e2,12060,"[{""event"":""fullscreenenter"",""trial"":1,""time"":3271},{""event"":""fullscreenenter"",""trial"":1,""time"":3271}]",NA,NA,NA,NA,NA,2,#D89F1C,#3386FF,10,0,1,38,1,1440,39,0,537.0000000000582,0,0,experiment,NA,NA,0,0.9,0.1,0,1,11,1,NA
fcp-trial,59,481054,0.0-20.0-0.0,voc_e2,12060,"[{""event"":""fullscreenenter"",""trial"":1,""time"":3271},{""event"":""fullscreenenter"",""trial"":1,""time"":3271}]",NA,NA,NA,NA,NA,4,#1CD855,#FA92F8,10,10,1,38,1,2020,37,1,403,10,1,experiment,NA,NA,1,0.7,0.3,2,3,12,1,NA
fcp-trial,60,484584,0.0-21.0-0.0,voc_e2,12060,"[{""event"":""fullscreenenter"",""trial"":1,""time"":3271},{""event"":""fullscreenenter"",""trial"":1,""time"":3271}]",NA,NA,NA,NA,NA,1,#741CD8,#D8271C,10,10,1,38,1,1606,39,0,416,10,0,experiment,NA,NA,2,0.5,0.5,4,5,13,1,NA
fcp-trial,61,488233,0.0-22.0-0.0,voc_e2,12060,"[{""event"":""fullscreenenter"",""trial"":1,""time"":3271},{""event"":""fullscreenenter"",""trial"":1,""time"":3271}]",NA,NA,NA,NA,NA,3,#3386FF,#D89F1C,0,10,0,38,1,1713,39,0,428,10,1,experiment,NA,NA,0,0.1,0.9,1,0,14,1,NA
fcp-trial,62,492478,0.0-23.0-0.0,voc_e2,12060,"[{""event"":""fullscreenenter"",""trial"":1,""time"":3271},{""event"":""fullscreenenter"",""trial"":1,""time"":3271}]",NA,NA,NA,NA,NA,6,#1CD855,#FA92F8,0,0,1,40,0,2230,39,0,507,0,0,experiment,NA,NA,1,0.7,0.3,2,3,15,1,NA
fcp-trial,63,495790,0.0-24.0-0.0,voc_e2,12060,"[{""event"":""fullscreenenter"",""trial"":1,""time"":3271},{""event"":""fullscreenenter"",""trial"":1,""time"":3271}]",NA,NA,NA,NA,NA,4,#741CD8,#D8271C,10,0,1,38,1,1415,39,0,378.0000000000582,0,0,experiment,NA,NA,2,0.5,0.5,4,5,16,1,NA
fcp-trial,64,499972,0.0-25.0-0.0,voc_e2,12060,"[{""event"":""fullscreenenter"",""trial"":1,""time"":3271},{""event"":""fullscreenenter"",""trial"":1,""time"":3271}]",NA,NA,NA,NA,NA,1,#D89F1C,#3386FF,0,10,1,38,1,2253,37,1,419.9999999999418,0,1,experiment,NA,NA,0,0.9,0.1,0,1,17,1,NA
fcp-trial,65,504817,0.0-26.0-0.0,voc_e2,12060,"[{""event"":""fullscreenenter"",""trial"":1,""time"":3271},{""event"":""fullscreenenter"",""trial"":1,""time"":3271}]",NA,NA,NA,NA,NA,0,#1CD855,#FA92F8,10,10,1,38,1,2820.999999999942,37,1,517,10,1,experiment,NA,NA,1,0.7,0.3,2,3,18,1,NA
fcp-trial,66,508016,0.0-27.0-0.0,voc_e2,12060,"[{""event"":""fullscreenenter"",""trial"":1,""time"":3271},{""event"":""fullscreenenter"",""trial"":1,""time"":3271}]",NA,NA,NA,NA,NA,1,#1CD855,#FA92F8,10,10,1,38,1,1269,39,0,422,10,0,experiment,NA,NA,1,0.7,0.3,2,3,19,1,NA
fcp-trial,67,512378,0.0-28.0-0.0,voc_e2,12060,"[{""event"":""fullscreenenter"",""trial"":1,""time"":3271},{""event"":""fullscreenenter"",""trial"":1,""time"":3271}]",NA,NA,NA,NA,NA,0,#D89F1C,#3386FF,10,0,1,38,1,2290.999999999942,37,1,559.9999999999418,10,1,experiment,NA,NA,0,0.9,0.1,0,1,20,1,NA
fcp-trial,68,516472,0.0-29.0-0.0,voc_e2,12060,"[{""event"":""fullscreenenter"",""trial"":1,""time"":3271},{""event"":""fullscreenenter"",""trial"":1,""time"":3271}]",NA,NA,NA,NA,NA,5,#741CD8,#D8271C,0,0,1,38,1,2169.999999999942,39,0,404,0,0,experiment,NA,NA,2,0.5,0.5,4,5,21,1,NA
fcp-trial,69,519571,0.0-30.0-0.0,voc_e2,12060,"[{""event"":""fullscreenenter"",""trial"":1,""time"":3271},{""event"":""fullscreenenter"",""trial"":1,""time"":3271}]",NA,NA,NA,NA,NA,0,#D8271C,#741CD8,0,10,0,38,1,1188.0000000001164,37,1,402.9999999998836,0,0,experiment,NA,NA,2,0.5,0.5,5,4,22,1,NA
fcp-trial,70,523105,0.0-31.0-0.0,voc_e2,12060,"[{""event"":""fullscreenenter"",""trial"":1,""time"":3271},{""event"":""fullscreenenter"",""trial"":1,""time"":3271}]",NA,NA,NA,NA,NA,2,#1CD855,#FA92F8,10,10,1,38,1,1376,37,1,648.9999999998836,10,1,experiment,NA,NA,1,0.7,0.3,2,3,23,1,NA
fcp-trial,71,526671,0.0-32.0-0.0,voc_e2,12060,"[{""event"":""fullscreenenter"",""trial"":1,""time"":3271},{""event"":""fullscreenenter"",""trial"":1,""time"":3271}]",NA,NA,NA,NA,NA,5,#1CD855,#FA92F8,10,0,1,40,0,1407,37,1,652,10,1,experiment,NA,NA,1,0.7,0.3,2,3,24,1,NA
fcp-trial,72,529773,0.0-33.0-0.0,voc_e2,12060,"[{""event"":""fullscreenenter"",""trial"":1,""time"":3271},{""event"":""fullscreenenter"",""trial"":1,""time"":3271}]",NA,NA,NA,NA,NA,3,#D89F1C,#3386FF,10,0,1,40,0,1090,37,1,504,10,1,experiment,NA,NA,0,0.9,0.1,0,1,25,1,NA
fcp-trial,73,532439,0.0-34.0-0.0,voc_e2,12060,"[{""event"":""fullscreenenter"",""trial"":1,""time"":3271},{""event"":""fullscreenenter"",""trial"":1,""time"":3271}]",NA,NA,NA,NA,NA,4,#D8271C,#741CD8,10,10,0,40,0,642,37,1,504,10,0,experiment,NA,NA,2,0.5,0.5,5,4,26,1,NA
fcp-trial,74,535100,0.0-35.0-0.0,voc_e2,12060,"[{""event"":""fullscreenenter"",""trial"":1,""time"":3271},{""event"":""fullscreenenter"",""trial"":1,""time"":3271}]",NA,NA,NA,NA,NA,6,#741CD8,#D8271C,0,10,1,40,0,692,37,1,461,0,1,experiment,NA,NA,2,0.5,0.5,4,5,27,1,NA
fcp-trial,75,537794,0.0-36.0-0.0,voc_e2,12060,"[{""event"":""fullscreenenter"",""trial"":1,""time"":3271},{""event"":""fullscreenenter"",""trial"":1,""time"":3271}]",NA,NA,NA,NA,NA,4,#D89F1C,#3386FF,10,0,1,40,0,645,37,1,540,10,1,experiment,NA,NA,0,0.9,0.1,0,1,28,1,NA
fcp-trial,76,541099,0.0-37.0-0.0,voc_e2,12060,"[{""event"":""fullscreenenter"",""trial"":1,""time"":3271},{""event"":""fullscreenenter"",""trial"":1,""time"":3271}]",NA,NA,NA,NA,NA,0,#FA92F8,#1CD855,0,10,0,38,1,1065,39,0,731,10,1,experiment,NA,NA,1,0.3,0.7,3,2,29,1,NA
fcp-trial,77,544134,0.0-38.0-0.0,voc_e2,12060,"[{""event"":""fullscreenenter"",""trial"":1,""time"":3271},{""event"":""fullscreenenter"",""trial"":1,""time"":3271}]",NA,NA,NA,NA,NA,6,#3386FF,#D89F1C,10,10,0,40,0,961.9999999998836,39,0,566.0000000001164,10,1,experiment,NA,NA,0,0.1,0.9,1,0,30,1,NA
fcp-trial,78,551144,0.0-39.0-0.0,voc_e2,12060,"[{""event"":""fullscreenenter"",""trial"":1,""time"":3271},{""event"":""fullscreenenter"",""trial"":1,""time"":3271}]",NA,NA,NA,NA,NA,1,#D8271C,#741CD8,0,10,0,38,1,4892,37,1,609,0,0,experiment,NA,NA,2,0.5,0.5,5,4,31,1,NA
fcp-trial,79,554352,0.0-40.0-0.0,voc_e2,12060,"[{""event"":""fullscreenenter"",""trial"":1,""time"":3271},{""event"":""fullscreenenter"",""trial"":1,""time"":3271}]",NA,NA,NA,NA,NA,2,#D8271C,#741CD8,10,10,0,38,1,1201,37,1,485,10,0,experiment,NA,NA,2,0.5,0.5,5,4,32,1,NA
fcp-trial,80,559557,0.0-41.0-0.0,voc_e2,12060,"[{""event"":""fullscreenenter"",""trial"":1,""time"":3271},{""event"":""fullscreenenter"",""trial"":1,""time"":3271}]",NA,NA,NA,NA,NA,1,#1CD855,#FA92F8,10,0,1,38,1,2212,37,1,1484,10,1,experiment,NA,NA,1,0.7,0.3,2,3,33,1,NA
fcp-trial,81,562741,0.0-42.0-0.0,voc_e2,12060,"[{""event"":""fullscreenenter"",""trial"":1,""time"":3271},{""event"":""fullscreenenter"",""trial"":1,""time"":3271}]",NA,NA,NA,NA,NA,6,#FA92F8,#1CD855,10,10,0,40,0,1157,37,1,506.9999999998836,10,0,experiment,NA,NA,1,0.3,0.7,3,2,34,1,NA
fcp-trial,82,566515,0.0-43.0-0.0,voc_e2,12060,"[{""event"":""fullscreenenter"",""trial"":1,""time"":3271},{""event"":""fullscreenenter"",""trial"":1,""time"":3271}]",NA,NA,NA,NA,NA,1,#3386FF,#D89F1C,0,10,0,38,1,1484,39,0,772,10,1,experiment,NA,NA,0,0.1,0.9,1,0,35,1,NA
fcp-trial,83,569720,0.0-44.0-0.0,voc_e2,12060,"[{""event"":""fullscreenenter"",""trial"":1,""time"":3271},{""event"":""fullscreenenter"",""trial"":1,""time"":3271}]",NA,NA,NA,NA,NA,5,#741CD8,#D8271C,10,0,1,40,0,1187,39,0,512,0,0,experiment,NA,NA,2,0.5,0.5,4,5,36,1,NA
fcp-trial,84,572782,0.0-45.0-0.0,voc_e2,12060,"[{""event"":""fullscreenenter"",""trial"":1,""time"":3271},{""event"":""fullscreenenter"",""trial"":1,""time"":3271}]",NA,NA,NA,NA,NA,2,#3386FF,#D89F1C,0,10,0,40,0,1090,39,0,464,10,1,experiment,NA,NA,0,0.1,0.9,1,0,37,1,NA
fcp-trial,85,576100,0.0-46.0-0.0,voc_e2,12060,"[{""event"":""fullscreenenter"",""trial"":1,""time"":3271},{""event"":""fullscreenenter"",""trial"":1,""time"":3271}]",NA,NA,NA,NA,NA,3,#FA92F8,#1CD855,0,10,0,38,1,1344,39,0,465,10,1,experiment,NA,NA,1,0.3,0.7,3,2,38,1,NA
fcp-trial,86,578917,0.0-47.0-0.0,voc_e2,12060,"[{""event"":""fullscreenenter"",""trial"":1,""time"":3271},{""event"":""fullscreenenter"",""trial"":1,""time"":3271}]",NA,NA,NA,NA,NA,3,#741CD8,#D8271C,10,10,1,40,0,808,39,0,500,10,0,experiment,NA,NA,2,0.5,0.5,4,5,39,1,NA
fcp-trial,87,581831,0.0-48.0-0.0,voc_e2,12060,"[{""event"":""fullscreenenter"",""trial"":1,""time"":3271},{""event"":""fullscreenenter"",""trial"":1,""time"":3271}]",NA,NA,NA,NA,NA,0,#3386FF,#D89F1C,10,10,0,38,1,827,37,1,581,10,0,experiment,NA,NA,0,0.1,0.9,1,0,40,1,NA
fcp-trial,88,584700,0.0-49.0-0.0,voc_e2,12060,"[{""event"":""fullscreenenter"",""trial"":1,""time"":3271},{""event"":""fullscreenenter"",""trial"":1,""time"":3271}]",NA,NA,NA,NA,NA,4,#FA92F8,#1CD855,0,10,0,40,0,964,39,0,400,10,1,experiment,NA,NA,1,0.3,0.7,3,2,41,1,NA
fcp-trial,89,587450,0.0-50.0-0.0,voc_e2,12060,"[{""event"":""fullscreenenter"",""trial"":1,""time"":3271},{""event"":""fullscreenenter"",""trial"":1,""time"":3271}]",NA,NA,NA,NA,NA,5,#D89F1C,#3386FF,10,0,1,40,0,834,39,0,406,0,0,experiment,NA,NA,0,0.9,0.1,0,1,42,1,NA
fcp-trial,90,590675,0.0-51.0-0.0,voc_e2,12060,"[{""event"":""fullscreenenter"",""trial"":1,""time"":3271},{""event"":""fullscreenenter"",""trial"":1,""time"":3271}]",NA,NA,NA,NA,NA,4,#741CD8,#D8271C,10,0,1,40,0,1195,37,1,521,10,1,experiment,NA,NA,2,0.5,0.5,4,5,43,1,NA
fcp-trial,91,593656,0.0-52.0-0.0,voc_e2,12060,"[{""event"":""fullscreenenter"",""trial"":1,""time"":3271},{""event"":""fullscreenenter"",""trial"":1,""time"":3271}]",NA,NA,NA,NA,NA,5,#741CD8,#D8271C,10,0,1,40,0,1039.0000000001164,39,0,421,0,0,experiment,NA,NA,2,0.5,0.5,4,5,44,1,NA
fcp-trial,92,596936,0.0-53.0-0.0,voc_e2,12060,"[{""event"":""fullscreenenter"",""trial"":1,""time"":3271},{""event"":""fullscreenenter"",""trial"":1,""time"":3271}]",NA,NA,NA,NA,NA,1,#FA92F8,#1CD855,10,10,0,38,1,1379,37,1,393,10,0,experiment,NA,NA,1,0.3,0.7,3,2,45,1,NA
fcp-trial,93,599958,0.0-54.0-0.0,voc_e2,12060,"[{""event"":""fullscreenenter"",""trial"":1,""time"":3271},{""event"":""fullscreenenter"",""trial"":1,""time"":3271}]",NA,NA,NA,NA,NA,2,#1CD855,#FA92F8,10,0,1,38,1,1125,37,1,389,10,1,experiment,NA,NA,1,0.7,0.3,2,3,46,2,NA
fcp-trial,94,603021,0.0-55.0-0.0,voc_e2,12060,"[{""event"":""fullscreenenter"",""trial"":1,""time"":3271},{""event"":""fullscreenenter"",""trial"":1,""time"":3271}]",NA,NA,NA,NA,NA,5,#3386FF,#D89F1C,0,10,0,40,0,1175,39,0,380,10,1,experiment,NA,NA,0,0.1,0.9,1,0,47,2,NA
fcp-trial,95,605676,0.0-56.0-0.0,voc_e2,12060,"[{""event"":""fullscreenenter"",""trial"":1,""time"":3271},{""event"":""fullscreenenter"",""trial"":1,""time"":3271}]",NA,NA,NA,NA,NA,2,#741CD8,#D8271C,10,0,1,38,1,746,39,0,400,0,0,experiment,NA,NA,2,0.5,0.5,4,5,48,2,NA
fcp-trial,96,608200,0.0-57.0-0.0,voc_e2,12060,"[{""event"":""fullscreenenter"",""trial"":1,""time"":3271},{""event"":""fullscreenenter"",""trial"":1,""time"":3271}]",NA,NA,NA,NA,NA,6,#D89F1C,#3386FF,10,10,1,40,0,642,39,0,366,10,0,experiment,NA,NA,0,0.9,0.1,0,1,49,2,NA
fcp-trial,97,610683,0.0-58.0-0.0,voc_e2,12060,"[{""event"":""fullscreenenter"",""trial"":1,""time"":3271},{""event"":""fullscreenenter"",""trial"":1,""time"":3271}]",NA,NA,NA,NA,NA,0,#741CD8,#D8271C,10,0,1,38,1,702,37,1,270,10,1,experiment,NA,NA,2,0.5,0.5,4,5,50,2,NA
fcp-trial,98,613516,0.0-59.0-0.0,voc_e2,12060,"[{""event"":""fullscreenenter"",""trial"":1,""time"":3271},{""event"":""fullscreenenter"",""trial"":1,""time"":3271}]",NA,NA,NA,NA,NA,4,#1CD855,#FA92F8,0,0,1,40,0,929,39,0,398,0,0,experiment,NA,NA,1,0.7,0.3,2,3,51,2,NA
fcp-trial,99,616866,0.0-60.0-0.0,voc_e2,12060,"[{""event"":""fullscreenenter"",""trial"":1,""time"":3271},{""event"":""fullscreenenter"",""trial"":1,""time"":3271}]",NA,NA,NA,NA,NA,3,#3386FF,#D89F1C,0,10,0,38,1,1534,39,0,309,10,1,experiment,NA,NA,0,0.1,0.9,1,0,52,2,NA
fcp-trial,100,619767,0.0-61.0-0.0,voc_e2,12060,"[{""event"":""fullscreenenter"",""trial"":1,""time"":3271},{""event"":""fullscreenenter"",""trial"":1,""time"":3271}]",NA,NA,NA,NA,NA,0,#3386FF,#D89F1C,0,0,0,38,1,1077,39,0,317,0,1,experiment,NA,NA,0,0.1,0.9,1,0,53,2,NA
fcp-trial,101,623345,0.0-62.0-0.0,voc_e2,12060,"[{""event"":""fullscreenenter"",""trial"":1,""time"":3271},{""event"":""fullscreenenter"",""trial"":1,""time"":3271}]",NA,NA,NA,NA,NA,6,#D8271C,#741CD8,10,10,0,38,1,1295,37,1,777,10,0,experiment,NA,NA,2,0.5,0.5,5,4,54,2,NA
fcp-trial,102,626749,0.0-63.0-0.0,voc_e2,12060,"[{""event"":""fullscreenenter"",""trial"":1,""time"":3271},{""event"":""fullscreenenter"",""trial"":1,""time"":3271}]",NA,NA,NA,NA,NA,5,#1CD855,#FA92F8,10,10,1,38,1,812,39,0,1082,10,0,experiment,NA,NA,1,0.7,0.3,2,3,55,2,NA
fcp-trial,103,629511,0.0-64.0-0.0,voc_e2,12060,"[{""event"":""fullscreenenter"",""trial"":1,""time"":3271},{""event"":""fullscreenenter"",""trial"":1,""time"":3271}]",NA,NA,NA,NA,NA,4,#3386FF,#D89F1C,0,0,0,40,0,948,37,1,306.9999999998836,0,0,experiment,NA,NA,0,0.1,0.9,1,0,56,2,NA
fcp-trial,104,633000,0.0-65.0-0.0,voc_e2,12060,"[{""event"":""fullscreenenter"",""trial"":1,""time"":3271},{""event"":""fullscreenenter"",""trial"":1,""time"":3271}]",NA,NA,NA,NA,NA,0,#FA92F8,#1CD855,0,0,0,38,1,857.0000000001164,37,1,1113.9999999998836,0,0,experiment,NA,NA,1,0.3,0.7,3,2,57,2,NA
fcp-trial,105,636801,0.0-66.0-0.0,voc_e2,12060,"[{""event"":""fullscreenenter"",""trial"":1,""time"":3271},{""event"":""fullscreenenter"",""trial"":1,""time"":3271}]",NA,NA,NA,NA,NA,2,#3386FF,#D89F1C,10,0,0,38,1,1543,39,0,749,0,1,experiment,NA,NA,0,0.1,0.9,1,0,58,2,NA
fcp-trial,106,639384,0.0-67.0-0.0,voc_e2,12060,"[{""event"":""fullscreenenter"",""trial"":1,""time"":3271},{""event"":""fullscreenenter"",""trial"":1,""time"":3271}]",NA,NA,NA,NA,NA,3,#D8271C,#741CD8,10,0,0,40,0,646.9999999998836,39,0,425.9999999998836,0,1,experiment,NA,NA,2,0.5,0.5,5,4,59,2,NA
fcp-trial,107,642333,0.0-68.0-0.0,voc_e2,12060,"[{""event"":""fullscreenenter"",""trial"":1,""time"":3271},{""event"":""fullscreenenter"",""trial"":1,""time"":3271}]",NA,NA,NA,NA,NA,1,#3386FF,#D89F1C,0,10,0,38,1,1118.0000000001164,37,1,321,0,0,experiment,NA,NA,0,0.1,0.9,1,0,60,2,NA
fcp-trial,108,645904,0.0-69.0-0.0,voc_e2,12060,"[{""event"":""fullscreenenter"",""trial"":1,""time"":3271},{""event"":""fullscreenenter"",""trial"":1,""time"":3271}]",NA,NA,NA,NA,NA,1,#D8271C,#741CD8,0,10,0,38,1,1763,37,1,303,0,0,experiment,NA,NA,2,0.5,0.5,5,4,61,2,NA
fcp-trial,109,648722,0.0-70.0-0.0,voc_e2,12060,"[{""event"":""fullscreenenter"",""trial"":1,""time"":3271},{""event"":""fullscreenenter"",""trial"":1,""time"":3271}]",NA,NA,NA,NA,NA,3,#1CD855,#FA92F8,10,0,1,38,1,939,39,0,370,0,0,experiment,NA,NA,1,0.7,0.3,2,3,62,2,NA
fcp-trial,110,651353,0.0-71.0-0.0,voc_e2,12060,"[{""event"":""fullscreenenter"",""trial"":1,""time"":3271},{""event"":""fullscreenenter"",""trial"":1,""time"":3271}]",NA,NA,NA,NA,NA,6,#FA92F8,#1CD855,10,10,0,40,0,689,39,0,435,10,1,experiment,NA,NA,1,0.3,0.7,3,2,63,2,NA
fcp-trial,111,654253,0.0-72.0-0.0,voc_e2,12060,"[{""event"":""fullscreenenter"",""trial"":1,""time"":3271},{""event"":""fullscreenenter"",""trial"":1,""time"":3271}]",NA,NA,NA,NA,NA,6,#3386FF,#D89F1C,0,10,0,40,0,922,39,0,469,10,1,experiment,NA,NA,0,0.1,0.9,1,0,64,2,NA
fcp-trial,112,656828,0.0-73.0-0.0,voc_e2,12060,"[{""event"":""fullscreenenter"",""trial"":1,""time"":3271},{""event"":""fullscreenenter"",""trial"":1,""time"":3271}]",NA,NA,NA,NA,NA,6,#D8271C,#741CD8,10,0,0,40,0,772.9999999998836,39,0,293,0,1,experiment,NA,NA,2,0.5,0.5,5,4,65,2,NA
fcp-trial,113,659668,0.0-74.0-0.0,voc_e2,12060,"[{""event"":""fullscreenenter"",""trial"":1,""time"":3271},{""event"":""fullscreenenter"",""trial"":1,""time"":3271}]",NA,NA,NA,NA,NA,3,#3386FF,#D89F1C,0,10,0,40,0,922,37,1,401,0,0,experiment,NA,NA,0,0.1,0.9,1,0,66,2,NA
fcp-trial,114,662084,0.0-75.0-0.0,voc_e2,12060,"[{""event"":""fullscreenenter"",""trial"":1,""time"":3271},{""event"":""fullscreenenter"",""trial"":1,""time"":3271}]",NA,NA,NA,NA,NA,6,#1CD855,#FA92F8,0,10,1,40,0,492,39,0,417,10,0,experiment,NA,NA,1,0.7,0.3,2,3,67,2,NA
fcp-trial,115,665091,0.0-76.0-0.0,voc_e2,12060,"[{""event"":""fullscreenenter"",""trial"":1,""time"":3271},{""event"":""fullscreenenter"",""trial"":1,""time"":3271}]",NA,NA,NA,NA,NA,2,#D89F1C,#3386FF,10,0,1,38,1,1087,37,1,413,10,1,experiment,NA,NA,0,0.9,0.1,0,1,68,2,NA
fcp-trial,116,668506,0.0-77.0-0.0,voc_e2,12060,"[{""event"":""fullscreenenter"",""trial"":1,""time"":3271},{""event"":""fullscreenenter"",""trial"":1,""time"":3271}]",NA,NA,NA,NA,NA,2,#D8271C,#741CD8,0,10,0,38,1,918,37,1,979.0000000001164,0,0,experiment,NA,NA,2,0.5,0.5,5,4,69,2,NA
fcp-trial,117,670971,0.0-78.0-0.0,voc_e2,12060,"[{""event"":""fullscreenenter"",""trial"":1,""time"":3271},{""event"":""fullscreenenter"",""trial"":1,""time"":3271}]",NA,NA,NA,NA,NA,0,#D8271C,#741CD8,10,0,0,38,1,656,39,0,300,0,1,experiment,NA,NA,2,0.5,0.5,5,4,70,2,NA
fcp-trial,118,673978,0.0-79.0-0.0,voc_e2,12060,"[{""event"":""fullscreenenter"",""trial"":1,""time"":3271},{""event"":""fullscreenenter"",""trial"":1,""time"":3271}]",NA,NA,NA,NA,NA,0,#1CD855,#FA92F8,10,0,1,38,1,723.0000000001164,37,1,774,10,1,experiment,NA,NA,1,0.7,0.3,2,3,71,2,NA
fcp-trial,119,676707,0.0-80.0-0.0,voc_e2,12060,"[{""event"":""fullscreenenter"",""trial"":1,""time"":3271},{""event"":""fullscreenenter"",""trial"":1,""time"":3271}]",NA,NA,NA,NA,NA,4,#FA92F8,#1CD855,0,10,0,38,1,821,37,1,388,0,0,experiment,NA,NA,1,0.3,0.7,3,2,72,2,NA
fcp-trial,120,679391,0.0-81.0-0.0,voc_e2,12060,"[{""event"":""fullscreenenter"",""trial"":1,""time"":3271},{""event"":""fullscreenenter"",""trial"":1,""time"":3271}]",NA,NA,NA,NA,NA,0,#D89F1C,#3386FF,10,0,1,38,1,771,37,1,403.9999999998836,10,1,experiment,NA,NA,0,0.9,0.1,0,1,73,2,NA
fcp-trial,121,682132,0.0-82.0-0.0,voc_e2,12060,"[{""event"":""fullscreenenter"",""trial"":1,""time"":3271},{""event"":""fullscreenenter"",""trial"":1,""time"":3271}]",NA,NA,NA,NA,NA,5,#1CD855,#FA92F8,0,0,1,40,0,854,39,0,381,0,0,experiment,NA,NA,1,0.7,0.3,2,3,74,2,NA
fcp-trial,122,685184,0.0-83.0-0.0,voc_e2,12060,"[{""event"":""fullscreenenter"",""trial"":1,""time"":3271},{""event"":""fullscreenenter"",""trial"":1,""time"":3271}]",NA,NA,NA,NA,NA,3,#D8271C,#741CD8,10,0,0,38,1,877,37,1,666,10,0,experiment,NA,NA,2,0.5,0.5,5,4,75,2,NA
fcp-trial,123,687816,0.0-84.0-0.0,voc_e2,12060,"[{""event"":""fullscreenenter"",""trial"":1,""time"":3271},{""event"":""fullscreenenter"",""trial"":1,""time"":3271}]",NA,NA,NA,NA,NA,4,#D89F1C,#3386FF,10,0,1,40,0,843,39,0,282,0,0,experiment,NA,NA,0,0.9,0.1,0,1,76,2,NA
fcp-trial,124,690316,0.0-85.0-0.0,voc_e2,12060,"[{""event"":""fullscreenenter"",""trial"":1,""time"":3271},{""event"":""fullscreenenter"",""trial"":1,""time"":3271}]",NA,NA,NA,NA,NA,5,#D89F1C,#3386FF,10,0,1,40,0,697,37,1,298,10,1,experiment,NA,NA,0,0.9,0.1,0,1,77,2,NA
fcp-trial,125,693184,0.0-86.0-0.0,voc_e2,12060,"[{""event"":""fullscreenenter"",""trial"":1,""time"":3271},{""event"":""fullscreenenter"",""trial"":1,""time"":3271}]",NA,NA,NA,NA,NA,3,#FA92F8,#1CD855,0,10,0,38,1,998,39,0,366,10,1,experiment,NA,NA,1,0.3,0.7,3,2,78,2,NA
fcp-trial,126,695817,0.0-87.0-0.0,voc_e2,12060,"[{""event"":""fullscreenenter"",""trial"":1,""time"":3271},{""event"":""fullscreenenter"",""trial"":1,""time"":3271}]",NA,NA,NA,NA,NA,4,#D8271C,#741CD8,10,10,0,40,0,759,37,1,367,10,0,experiment,NA,NA,2,0.5,0.5,5,4,79,2,NA
fcp-trial,127,698566,0.0-88.0-0.0,voc_e2,12060,"[{""event"":""fullscreenenter"",""trial"":1,""time"":3271},{""event"":""fullscreenenter"",""trial"":1,""time"":3271}]",NA,NA,NA,NA,NA,1,#D89F1C,#3386FF,10,0,1,38,1,838,37,1,404,10,1,experiment,NA,NA,0,0.9,0.1,0,1,80,2,NA
fcp-trial,128,701336,0.0-89.0-0.0,voc_e2,12060,"[{""event"":""fullscreenenter"",""trial"":1,""time"":3271},{""event"":""fullscreenenter"",""trial"":1,""time"":3271}]",NA,NA,NA,NA,NA,2,#FA92F8,#1CD855,0,10,0,38,1,962,39,0,300,10,1,experiment,NA,NA,1,0.3,0.7,3,2,81,2,NA
fcp-trial,129,703735,0.0-90.0-0.0,voc_e2,12060,"[{""event"":""fullscreenenter"",""trial"":1,""time"":3271},{""event"":""fullscreenenter"",""trial"":1,""time"":3271}]",NA,NA,NA,NA,NA,1,#1CD855,#FA92F8,10,0,1,38,1,577.0000000001164,37,1,312.0000000001164,10,1,experiment,NA,NA,1,0.7,0.3,2,3,82,2,NA
fcp-trial,130,706191,0.0-91.0-0.0,voc_e2,12060,"[{""event"":""fullscreenenter"",""trial"":1,""time"":3271},{""event"":""fullscreenenter"",""trial"":1,""time"":3271}]",NA,NA,NA,NA,NA,1,#D8271C,#741CD8,10,0,0,38,1,540.0000000001164,39,0,406,0,1,experiment,NA,NA,2,0.5,0.5,5,4,83,2,NA
fcp-trial,131,708960,0.0-92.0-0.0,voc_e2,12060,"[{""event"":""fullscreenenter"",""trial"":1,""time"":3271},{""event"":""fullscreenenter"",""trial"":1,""time"":3271}]",NA,NA,NA,NA,NA,5,#D8271C,#741CD8,0,10,0,40,0,890,37,1,359.9999999998836,0,0,experiment,NA,NA,2,0.5,0.5,5,4,84,2,NA
fcp-trial,132,711590,0.0-93.0-0.0,voc_e2,12060,"[{""event"":""fullscreenenter"",""trial"":1,""time"":3271},{""event"":""fullscreenenter"",""trial"":1,""time"":3271}]",NA,NA,NA,NA,NA,4,#3386FF,#D89F1C,0,10,0,38,1,730,37,1,380,0,0,experiment,NA,NA,0,0.1,0.9,1,0,85,2,NA
fcp-trial,133,714155,0.0-94.0-0.0,voc_e2,12060,"[{""event"":""fullscreenenter"",""trial"":1,""time"":3271},{""event"":""fullscreenenter"",""trial"":1,""time"":3271}]",NA,NA,NA,NA,NA,2,#741CD8,#D8271C,10,0,1,40,0,675.0000000001164,39,0,371.9999999998836,0,0,experiment,NA,NA,2,0.5,0.5,4,5,86,2,NA
fcp-trial,134,717118,0.0-95.0-0.0,voc_e2,12060,"[{""event"":""fullscreenenter"",""trial"":1,""time"":3271},{""event"":""fullscreenenter"",""trial"":1,""time"":3271}]",NA,NA,NA,NA,NA,5,#1CD855,#FA92F8,0,10,1,40,0,956,39,0,499,10,0,experiment,NA,NA,1,0.7,0.3,2,3,87,2,NA
fcp-trial,135,719901,0.0-96.0-0.0,voc_e2,12060,"[{""event"":""fullscreenenter"",""trial"":1,""time"":3271},{""event"":""fullscreenenter"",""trial"":1,""time"":3271}]",NA,NA,NA,NA,NA,3,#1CD855,#FA92F8,10,0,1,40,0,940,37,1,335,10,1,experiment,NA,NA,1,0.7,0.3,2,3,88,2,NA
fcp-trial,136,723801,0.0-97.0-0.0,voc_e2,12060,"[{""event"":""fullscreenenter"",""trial"":1,""time"":3271},{""event"":""fullscreenenter"",""trial"":1,""time"":3271}]",NA,NA,NA,NA,NA,1,#D89F1C,#3386FF,0,10,1,38,1,1710,37,1,683.0000000001164,0,1,experiment,NA,NA,0,0.9,0.1,0,1,89,2,NA
fcp-trial,137,726958,0.0-98.0-0.0,voc_e2,12060,"[{""event"":""fullscreenenter"",""trial"":1,""time"":3271},{""event"":""fullscreenenter"",""trial"":1,""time"":3271}]",NA,NA,NA,NA,NA,4,#1CD855,#FA92F8,10,10,1,40,0,1061,37,1,585,10,1,experiment,NA,NA,1,0.7,0.3,2,3,90,2,NA
fcp-trial,138,729509,0.0-99.0-0.0,voc_e2,12060,"[{""event"":""fullscreenenter"",""trial"":1,""time"":3271},{""event"":""fullscreenenter"",""trial"":1,""time"":3271}]",NA,NA,NA,NA,NA,6,#741CD8,#D8271C,0,0,1,40,0,699.9999999998836,39,0,333.0000000001164,0,0,experiment,NA,NA,2,0.5,0.5,4,5,91,3,NA
fcp-trial,139,732292,0.0-100.0-0.0,voc_e2,12060,"[{""event"":""fullscreenenter"",""trial"":1,""time"":3271},{""event"":""fullscreenenter"",""trial"":1,""time"":3271}]",NA,NA,NA,NA,NA,0,#3386FF,#D89F1C,0,10,0,38,1,938,37,1,325,0,0,experiment,NA,NA,0,0.1,0.9,1,0,92,3,NA
fcp-trial,140,735818,0.0-101.0-0.0,voc_e2,12060,"[{""event"":""fullscreenenter"",""trial"":1,""time"":3271},{""event"":""fullscreenenter"",""trial"":1,""time"":3271}]",NA,NA,NA,NA,NA,1,#D8271C,#741CD8,10,0,0,40,0,1256,37,1,751,10,0,experiment,NA,NA,2,0.5,0.5,5,4,93,3,NA
fcp-trial,141,738426,0.0-102.0-0.0,voc_e2,12060,"[{""event"":""fullscreenenter"",""trial"":1,""time"":3271},{""event"":""fullscreenenter"",""trial"":1,""time"":3271}]",NA,NA,NA,NA,NA,1,#1CD855,#FA92F8,10,10,1,40,0,695.9999999998836,37,1,401.9999999998836,10,1,experiment,NA,NA,1,0.7,0.3,2,3,94,3,NA
fcp-trial,142,741117,0.0-103.0-0.0,voc_e2,12060,"[{""event"":""fullscreenenter"",""trial"":1,""time"":3271},{""event"":""fullscreenenter"",""trial"":1,""time"":3271}]",NA,NA,NA,NA,NA,0,#D8271C,#741CD8,10,10,0,38,1,834.0000000001164,37,1,339,10,0,experiment,NA,NA,2,0.5,0.5,5,4,95,3,NA
fcp-trial,143,743567,0.0-104.0-0.0,voc_e2,12060,"[{""event"":""fullscreenenter"",""trial"":1,""time"":3271},{""event"":""fullscreenenter"",""trial"":1,""time"":3271}]",NA,NA,NA,NA,NA,6,#3386FF,#D89F1C,0,0,0,40,0,650,39,0,291,0,1,experiment,NA,NA,0,0.1,0.9,1,0,96,3,NA
fcp-trial,144,746337,0.0-105.0-0.0,voc_e2,12060,"[{""event"":""fullscreenenter"",""trial"":1,""time"":3271},{""event"":""fullscreenenter"",""trial"":1,""time"":3271}]",NA,NA,NA,NA,NA,0,#FA92F8,#1CD855,0,0,0,38,1,970,37,1,293,0,0,experiment,NA,NA,1,0.3,0.7,3,2,97,3,NA
fcp-trial,145,749917,0.0-106.0-0.0,voc_e2,12060,"[{""event"":""fullscreenenter"",""trial"":1,""time"":3271},{""event"":""fullscreenenter"",""trial"":1,""time"":3271}]",NA,NA,NA,NA,NA,3,#3386FF,#D89F1C,0,10,0,40,0,850,37,1,1221.9999999998836,0,0,experiment,NA,NA,0,0.1,0.9,1,0,98,3,NA
fcp-trial,146,752626,0.0-107.0-0.0,voc_e2,12060,"[{""event"":""fullscreenenter"",""trial"":1,""time"":3271},{""event"":""fullscreenenter"",""trial"":1,""time"":3271}]",NA,NA,NA,NA,NA,5,#D8271C,#741CD8,10,0,0,40,0,820,37,1,379,10,0,experiment,NA,NA,2,0.5,0.5,5,4,99,3,NA
fcp-trial,147,755884,0.0-108.0-0.0,voc_e2,12060,"[{""event"":""fullscreenenter"",""trial"":1,""time"":3271},{""event"":""fullscreenenter"",""trial"":1,""time"":3271}]",NA,NA,NA,NA,NA,2,#1CD855,#FA92F8,10,0,1,38,1,1397,37,1,341,10,1,experiment,NA,NA,1,0.7,0.3,2,3,100,3,NA
fcp-trial,148,758378,0.0-109.0-0.0,voc_e2,12060,"[{""event"":""fullscreenenter"",""trial"":1,""time"":3271},{""event"":""fullscreenenter"",""trial"":1,""time"":3271}]",NA,NA,NA,NA,NA,6,#1CD855,#FA92F8,10,0,1,40,0,677,37,1,308,10,1,experiment,NA,NA,1,0.7,0.3,2,3,101,3,NA
fcp-trial,149,760801,0.0-110.0-0.0,voc_e2,12060,"[{""event"":""fullscreenenter"",""trial"":1,""time"":3271},{""event"":""fullscreenenter"",""trial"":1,""time"":3271}]",NA,NA,NA,NA,NA,5,#D89F1C,#3386FF,10,0,1,40,0,537.9999999998836,37,1,366.0000000001164,10,1,experiment,NA,NA,0,0.9,0.1,0,1,102,3,NA
fcp-trial,150,763562,0.0-111.0-0.0,voc_e2,12060,"[{""event"":""fullscreenenter"",""trial"":1,""time"":3271},{""event"":""fullscreenenter"",""trial"":1,""time"":3271}]",NA,NA,NA,NA,NA,3,#741CD8,#D8271C,0,10,1,40,0,810,39,0,444,10,0,experiment,NA,NA,2,0.5,0.5,4,5,103,3,NA
fcp-trial,151,766155,0.0-112.0-0.0,voc_e2,12060,"[{""event"":""fullscreenenter"",""trial"":1,""time"":3271},{""event"":""fullscreenenter"",""trial"":1,""time"":3271}]",NA,NA,NA,NA,NA,4,#D8271C,#741CD8,0,10,0,40,0,682,39,0,400,10,1,experiment,NA,NA,2,0.5,0.5,5,4,104,3,NA
fcp-trial,152,769052,0.0-113.0-0.0,voc_e2,12060,"[{""event"":""fullscreenenter"",""trial"":1,""time"":3271},{""event"":""fullscreenenter"",""trial"":1,""time"":3271}]",NA,NA,NA,NA,NA,2,#3386FF,#D89F1C,0,0,0,38,1,1060,37,1,329,0,0,experiment,NA,NA,0,0.1,0.9,1,0,105,3,NA
audio-instructions,153,775282,0.0-114.0,voc_e2,12060,"[{""event"":""fullscreenenter"",""trial"":1,""time"":3271},{""event"":""fullscreenenter"",""trial"":1,""time"":3271}]",NA,1790,static/audio/pause.wav,NA,0,NA,NA,NA,NA,NA,NA,NA,NA,NA,NA,NA,NA,NA,NA,NA,NA,NA,NA,NA,NA,NA,NA,NA,NA,NA
fcp-trial,154,779621,0.0-115.0-0.0,voc_e2,12060,"[{""event"":""fullscreenenter"",""trial"":1,""time"":3271},{""event"":""fullscreenenter"",""trial"":1,""time"":3271}]",NA,NA,NA,NA,NA,0,#FA92F8,#1CD855,10,10,0,38,1,2129,39,0,702,10,1,experiment,NA,NA,1,0.3,0.7,3,2,106,3,NA
fcp-trial,155,781984,0.0-116.0-0.0,voc_e2,12060,"[{""event"":""fullscreenenter"",""trial"":1,""time"":3271},{""event"":""fullscreenenter"",""trial"":1,""time"":3271}]",NA,NA,NA,NA,NA,6,#1CD855,#FA92F8,10,0,1,40,0,549,37,1,305,10,1,experiment,NA,NA,1,0.7,0.3,2,3,107,3,NA
fcp-trial,156,784411,0.0-117.0-0.0,voc_e2,12060,"[{""event"":""fullscreenenter"",""trial"":1,""time"":3271},{""event"":""fullscreenenter"",""trial"":1,""time"":3271}]",NA,NA,NA,NA,NA,4,#FA92F8,#1CD855,10,10,0,40,0,604.0000000001164,39,0,315,10,1,experiment,NA,NA,1,0.3,0.7,3,2,108,3,NA
fcp-trial,157,787095,0.0-118.0-0.0,voc_e2,12060,"[{""event"":""fullscreenenter"",""trial"":1,""time"":3271},{""event"":""fullscreenenter"",""trial"":1,""time"":3271}]",NA,NA,NA,NA,NA,0,#D8271C,#741CD8,10,10,0,38,1,809,37,1,355,10,0,experiment,NA,NA,2,0.5,0.5,5,4,109,3,NA
fcp-trial,158,790100,0.0-119.0-0.0,voc_e2,12060,"[{""event"":""fullscreenenter"",""trial"":1,""time"":3271},{""event"":""fullscreenenter"",""trial"":1,""time"":3271}]",NA,NA,NA,NA,NA,3,#3386FF,#D89F1C,0,10,0,40,0,1146,39,0,351,10,1,experiment,NA,NA,0,0.1,0.9,1,0,110,3,NA
fcp-trial,159,792745,0.0-120.0-0.0,voc_e2,12060,"[{""event"":""fullscreenenter"",""trial"":1,""time"":3271},{""event"":""fullscreenenter"",""trial"":1,""time"":3271}]",NA,NA,NA,NA,NA,6,#3386FF,#D89F1C,0,10,0,40,0,810,37,1,327,0,0,experiment,NA,NA,0,0.1,0.9,1,0,111,3,NA
fcp-trial,160,795767,0.0-121.0-0.0,voc_e2,12060,"[{""event"":""fullscreenenter"",""trial"":1,""time"":3271},{""event"":""fullscreenenter"",""trial"":1,""time"":3271}]",NA,NA,NA,NA,NA,1,#D8271C,#741CD8,10,0,0,38,1,1188,39,0,325,0,1,experiment,NA,NA,2,0.5,0.5,5,4,112,3,NA
fcp-trial,161,798226,0.0-122.0-0.0,voc_e2,12060,"[{""event"":""fullscreenenter"",""trial"":1,""time"":3271},{""event"":""fullscreenenter"",""trial"":1,""time"":3271}]",NA,NA,NA,NA,NA,3,#1CD855,#FA92F8,0,10,1,40,0,647,37,1,302,0,1,experiment,NA,NA,1,0.7,0.3,2,3,113,3,NA
fcp-trial,162,800833,0.0-123.0-0.0,voc_e2,12060,"[{""event"":""fullscreenenter"",""trial"":1,""time"":3271},{""event"":""fullscreenenter"",""trial"":1,""time"":3271}]",NA,NA,NA,NA,NA,5,#741CD8,#D8271C,10,0,1,40,0,682,37,1,416,10,1,experiment,NA,NA,2,0.5,0.5,4,5,114,3,NA
fcp-trial,163,803229,0.0-124.0-0.0,voc_e2,12060,"[{""event"":""fullscreenenter"",""trial"":1,""time"":3271},{""event"":""fullscreenenter"",""trial"":1,""time"":3271}]",NA,NA,NA,NA,NA,2,#3386FF,#D89F1C,0,0,0,40,0,572,39,0,315.0000000001164,0,1,experiment,NA,NA,0,0.1,0.9,1,0,115,3,NA
fcp-trial,164,805788,0.0-125.0-0.0,voc_e2,12060,"[{""event"":""fullscreenenter"",""trial"":1,""time"":3271},{""event"":""fullscreenenter"",""trial"":1,""time"":3271}]",NA,NA,NA,NA,NA,4,#D89F1C,#3386FF,0,0,1,40,0,747.9999999998836,37,1,290.9999999998836,0,1,experiment,NA,NA,0,0.9,0.1,0,1,116,3,NA
fcp-trial,165,808038,0.0-126.0-0.0,voc_e2,12060,"[{""event"":""fullscreenenter"",""trial"":1,""time"":3271},{""event"":""fullscreenenter"",""trial"":1,""time"":3271}]",NA,NA,NA,NA,NA,6,#D8271C,#741CD8,0,10,0,40,0,489.9999999998836,39,0,253,10,1,experiment,NA,NA,2,0.5,0.5,5,4,117,3,NA
fcp-trial,166,810628,0.0-127.0-0.0,voc_e2,12060,"[{""event"":""fullscreenenter"",""trial"":1,""time"":3271},{""event"":""fullscreenenter"",""trial"":1,""time"":3271}]",NA,NA,NA,NA,NA,2,#1CD855,#FA92F8,0,0,1,40,0,387,37,1,694,0,1,experiment,NA,NA,1,0.7,0.3,2,3,118,3,NA
fcp-trial,167,814050,0.0-128.0-0.0,voc_e2,12060,"[{""event"":""fullscreenenter"",""trial"":1,""time"":3271},{""event"":""fullscreenenter"",""trial"":1,""time"":3271}]",NA,NA,NA,NA,NA,4,#D8271C,#741CD8,10,0,0,40,0,1256,37,1,648,10,0,experiment,NA,NA,2,0.5,0.5,5,4,119,3,NA
fcp-trial,168,817076,0.0-129.0-0.0,voc_e2,12060,"[{""event"":""fullscreenenter"",""trial"":1,""time"":3271},{""event"":""fullscreenenter"",""trial"":1,""time"":3271}]",NA,NA,NA,NA,NA,5,#3386FF,#D89F1C,0,10,0,40,0,898,39,0,618,10,1,experiment,NA,NA,0,0.1,0.9,1,0,120,3,NA
fcp-trial,169,819650,0.0-130.0-0.0,voc_e2,12060,"[{""event"":""fullscreenenter"",""trial"":1,""time"":3271},{""event"":""fullscreenenter"",""trial"":1,""time"":3271}]",NA,NA,NA,NA,NA,5,#1CD855,#FA92F8,10,0,1,40,0,744,37,1,312,10,1,experiment,NA,NA,1,0.7,0.3,2,3,121,3,NA
fcp-trial,170,823200,0.0-131.0-0.0,voc_e2,12060,"[{""event"":""fullscreenenter"",""trial"":1,""time"":3271},{""event"":""fullscreenenter"",""trial"":1,""time"":3271}]",NA,NA,NA,NA,NA,3,#D8271C,#741CD8,0,0,0,38,1,1453,37,1,590,0,0,experiment,NA,NA,2,0.5,0.5,5,4,122,3,NA
fcp-trial,171,825984,0.0-132.0-0.0,voc_e2,12060,"[{""event"":""fullscreenenter"",""trial"":1,""time"":3271},{""event"":""fullscreenenter"",""trial"":1,""time"":3271}]",NA,NA,NA,NA,NA,0,#3386FF,#D89F1C,0,10,0,38,1,969,39,0,307,10,1,experiment,NA,NA,0,0.1,0.9,1,0,123,3,NA
fcp-trial,172,828960,0.0-133.0-0.0,voc_e2,12060,"[{""event"":""fullscreenenter"",""trial"":1,""time"":3271},{""event"":""fullscreenenter"",""trial"":1,""time"":3271}]",NA,NA,NA,NA,NA,1,#D89F1C,#3386FF,10,0,1,38,1,1182,37,1,286,10,1,experiment,NA,NA,0,0.9,0.1,0,1,124,3,NA
fcp-trial,173,832050,0.0-134.0-0.0,voc_e2,12060,"[{""event"":""fullscreenenter"",""trial"":1,""time"":3271},{""event"":""fullscreenenter"",""trial"":1,""time"":3271}]",NA,NA,NA,NA,NA,2,#D8271C,#741CD8,0,0,0,38,1,1260,37,1,312,0,0,experiment,NA,NA,2,0.5,0.5,5,4,125,3,NA
fcp-trial,174,836225,0.0-135.0-0.0,voc_e2,12060,"[{""event"":""fullscreenenter"",""trial"":1,""time"":3271},{""event"":""fullscreenenter"",""trial"":1,""time"":3271}]",NA,NA,NA,NA,NA,1,#1CD855,#FA92F8,10,0,1,40,0,2324.0000000001164,37,1,340,10,1,experiment,NA,NA,1,0.7,0.3,2,3,126,3,NA
fcp-trial,175,838833,0.0-136.0-0.0,voc_e2,12060,"[{""event"":""fullscreenenter"",""trial"":1,""time"":3271},{""event"":""fullscreenenter"",""trial"":1,""time"":3271}]",NA,NA,NA,NA,NA,4,#D89F1C,#3386FF,10,0,1,40,0,775,39,0,316,0,0,experiment,NA,NA,0,0.9,0.1,0,1,127,3,NA
fcp-trial,176,841399,0.0-137.0-0.0,voc_e2,12060,"[{""event"":""fullscreenenter"",""trial"":1,""time"":3271},{""event"":""fullscreenenter"",""trial"":1,""time"":3271}]",NA,NA,NA,NA,NA,5,#D89F1C,#3386FF,10,0,1,40,0,762,37,1,299.0000000001164,10,1,experiment,NA,NA,0,0.9,0.1,0,1,128,3,NA
fcp-trial,177,843900,0.0-138.0-0.0,voc_e2,12060,"[{""event"":""fullscreenenter"",""trial"":1,""time"":3271},{""event"":""fullscreenenter"",""trial"":1,""time"":3271}]",NA,NA,NA,NA,NA,3,#D89F1C,#3386FF,10,0,1,40,0,639.9999999998836,37,1,354,10,1,experiment,NA,NA,0,0.9,0.1,0,1,129,3,NA
fcp-trial,178,848067,0.0-139.0-0.0,voc_e2,12060,"[{""event"":""fullscreenenter"",""trial"":1,""time"":3271},{""event"":""fullscreenenter"",""trial"":1,""time"":3271}]",NA,NA,NA,NA,NA,1,#FA92F8,#1CD855,10,10,0,38,1,866,37,1,1794.0000000001164,10,0,experiment,NA,NA,1,0.3,0.7,3,2,130,3,NA
fcp-trial,179,850767,0.0-140.0-0.0,voc_e2,12060,"[{""event"":""fullscreenenter"",""trial"":1,""time"":3271},{""event"":""fullscreenenter"",""trial"":1,""time"":3271}]",NA,NA,NA,NA,NA,4,#741CD8,#D8271C,10,10,1,40,0,877,39,0,316,10,0,experiment,NA,NA,2,0.5,0.5,4,5,131,3,NA
fcp-trial,180,853384,0.0-141.0-0.0,voc_e2,12060,"[{""event"":""fullscreenenter"",""trial"":1,""time"":3271},{""event"":""fullscreenenter"",""trial"":1,""time"":3271}]",NA,NA,NA,NA,NA,2,#1CD855,#FA92F8,10,0,1,40,0,626.0000000001164,39,0,484,0,0,experiment,NA,NA,1,0.7,0.3,2,3,132,3,NA
fcp-trial,181,855885,0.0-142.0-0.0,voc_e2,12060,"[{""event"":""fullscreenenter"",""trial"":1,""time"":3271},{""event"":""fullscreenenter"",""trial"":1,""time"":3271}]",NA,NA,NA,NA,NA,3,#FA92F8,#1CD855,0,10,0,40,0,511,39,0,481,10,1,experiment,NA,NA,1,0.3,0.7,3,2,133,3,NA
fcp-trial,182,858516,0.0-143.0-0.0,voc_e2,12060,"[{""event"":""fullscreenenter"",""trial"":1,""time"":3271},{""event"":""fullscreenenter"",""trial"":1,""time"":3271}]",NA,NA,NA,NA,NA,1,#D89F1C,#3386FF,10,0,1,40,0,784,37,1,340,10,1,experiment,NA,NA,0,0.9,0.1,0,1,134,3,NA
fcp-trial,183,860992,0.0-144.0-0.0,voc_e2,12060,"[{""event"":""fullscreenenter"",""trial"":1,""time"":3271},{""event"":""fullscreenenter"",""trial"":1,""time"":3271}]",NA,NA,NA,NA,NA,3,#741CD8,#D8271C,10,10,1,40,0,619,39,0,348,10,0,experiment,NA,NA,2,0.5,0.5,4,5,135,3,NA
fcp-trial,184,863441,0.0-145.0-0.0,voc_e2,12060,"[{""event"":""fullscreenenter"",""trial"":1,""time"":3271},{""event"":""fullscreenenter"",""trial"":1,""time"":3271}]",NA,NA,NA,NA,NA,6,#D8271C,#741CD8,0,10,0,40,0,606,37,1,322,0,0,experiment,NA,NA,2,0.5,0.5,5,4,136,4,NA
fcp-trial,185,866335,0.0-146.0-0.0,voc_e2,12060,"[{""event"":""fullscreenenter"",""trial"":1,""time"":3271},{""event"":""fullscreenenter"",""trial"":1,""time"":3271}]",NA,NA,NA,NA,NA,0,#D89F1C,#3386FF,10,0,1,38,1,977.0000000001164,39,0,405,0,0,experiment,NA,NA,0,0.9,0.1,0,1,137,4,NA
fcp-trial,186,871050,0.0-147.0-0.0,voc_e2,12060,"[{""event"":""fullscreenenter"",""trial"":1,""time"":3271},{""event"":""fullscreenenter"",""trial"":1,""time"":3271}]",NA,NA,NA,NA,NA,4,#FA92F8,#1CD855,10,10,0,40,0,2725,37,1,483,10,0,experiment,NA,NA,1,0.3,0.7,3,2,138,4,NA
fcp-trial,187,873620,0.0-148.0-0.0,voc_e2,12060,"[{""event"":""fullscreenenter"",""trial"":1,""time"":3271},{""event"":""fullscreenenter"",""trial"":1,""time"":3271}]",NA,NA,NA,NA,NA,0,#1CD855,#FA92F8,10,0,1,38,1,763,37,1,301.0000000001164,10,1,experiment,NA,NA,1,0.7,0.3,2,3,139,4,NA
fcp-trial,188,876500,0.0-149.0-0.0,voc_e2,12060,"[{""event"":""fullscreenenter"",""trial"":1,""time"":3271},{""event"":""fullscreenenter"",""trial"":1,""time"":3271}]",NA,NA,NA,NA,NA,1,#D8271C,#741CD8,10,10,0,40,0,1009,37,1,365,10,0,experiment,NA,NA,2,0.5,0.5,5,4,140,4,NA
fcp-trial,189,878983,0.0-150.0-0.0,voc_e2,12060,"[{""event"":""fullscreenenter"",""trial"":1,""time"":3271},{""event"":""fullscreenenter"",""trial"":1,""time"":3271}]",NA,NA,NA,NA,NA,5,#1CD855,#FA92F8,0,0,1,40,0,597.0000000001164,39,0,376,0,0,experiment,NA,NA,1,0.7,0.3,2,3,141,4,NA
fcp-trial,190,881968,0.0-151.0-0.0,voc_e2,12060,"[{""event"":""fullscreenenter"",""trial"":1,""time"":3271},{""event"":""fullscreenenter"",""trial"":1,""time"":3271}]",NA,NA,NA,NA,NA,2,#D89F1C,#3386FF,10,10,1,40,0,811,39,0,666,10,0,experiment,NA,NA,0,0.9,0.1,0,1,142,4,NA
fcp-trial,191,884317,0.0-152.0-0.0,voc_e2,12060,"[{""event"":""fullscreenenter"",""trial"":1,""time"":3271},{""event"":""fullscreenenter"",""trial"":1,""time"":3271}]",NA,NA,NA,NA,NA,5,#741CD8,#D8271C,0,0,1,40,0,563,37,1,279,0,1,experiment,NA,NA,2,0.5,0.5,4,5,143,4,NA
fcp-trial,192,886766,0.0-153.0-0.0,voc_e2,12060,"[{""event"":""fullscreenenter"",""trial"":1,""time"":3271},{""event"":""fullscreenenter"",""trial"":1,""time"":3271}]",NA,NA,NA,NA,NA,2,#D8271C,#741CD8,10,10,0,40,0,514,37,1,425,10,0,experiment,NA,NA,2,0.5,0.5,5,4,144,4,NA
fcp-trial,193,889199,0.0-154.0-0.0,voc_e2,12060,"[{""event"":""fullscreenenter"",""trial"":1,""time"":3271},{""event"":""fullscreenenter"",""trial"":1,""time"":3271}]",NA,NA,NA,NA,NA,6,#1CD855,#FA92F8,10,0,1,40,0,485.9999999998836,37,1,438,10,1,experiment,NA,NA,1,0.7,0.3,2,3,145,4,NA
fcp-trial,194,892034,0.0-155.0-0.0,voc_e2,12060,"[{""event"":""fullscreenenter"",""trial"":1,""time"":3271},{""event"":""fullscreenenter"",""trial"":1,""time"":3271}]",NA,NA,NA,NA,NA,0,#D8271C,#741CD8,10,10,0,38,1,846,37,1,484,10,0,experiment,NA,NA,2,0.5,0.5,5,4,146,4,NA
fcp-trial,195,894525,0.0-156.0-0.0,voc_e2,12060,"[{""event"":""fullscreenenter"",""trial"":1,""time"":3271},{""event"":""fullscreenenter"",""trial"":1,""time"":3271}]",NA,NA,NA,NA,NA,6,#D89F1C,#3386FF,10,0,1,40,0,558,37,1,423.9999999998836,10,1,experiment,NA,NA,0,0.9,0.1,0,1,147,4,NA
fcp-trial,196,897084,0.0-157.0-0.0,voc_e2,12060,"[{""event"":""fullscreenenter"",""trial"":1,""time"":3271},{""event"":""fullscreenenter"",""trial"":1,""time"":3271}]",NA,NA,NA,NA,NA,2,#3386FF,#D89F1C,0,10,0,40,0,601,37,1,448,0,0,experiment,NA,NA,0,0.1,0.9,1,0,148,4,NA
fcp-trial,197,899919,0.0-158.0-0.0,voc_e2,12060,"[{""event"":""fullscreenenter"",""trial"":1,""time"":3271},{""event"":""fullscreenenter"",""trial"":1,""time"":3271}]",NA,NA,NA,NA,NA,2,#D8271C,#741CD8,0,0,0,40,0,812.0000000001164,39,0,515,0,1,experiment,NA,NA,2,0.5,0.5,5,4,149,4,NA
fcp-trial,198,902500,0.0-159.0-0.0,voc_e2,12060,"[{""event"":""fullscreenenter"",""trial"":1,""time"":3271},{""event"":""fullscreenenter"",""trial"":1,""time"":3271}]",NA,NA,NA,NA,NA,4,#1CD855,#FA92F8,10,10,1,40,0,631,39,0,439.0000000001164,10,0,experiment,NA,NA,1,0.7,0.3,2,3,150,4,NA
fcp-trial,199,906383,0.0-160.0-0.0,voc_e2,12060,"[{""event"":""fullscreenenter"",""trial"":1,""time"":3271},{""event"":""fullscreenenter"",""trial"":1,""time"":3271}]",NA,NA,NA,NA,NA,0,#1CD855,#FA92F8,10,0,1,38,1,1187,37,1,1191,10,1,experiment,NA,NA,1,0.7,0.3,2,3,151,4,NA
fcp-trial,200,908968,0.0-161.0-0.0,voc_e2,12060,"[{""event"":""fullscreenenter"",""trial"":1,""time"":3271},{""event"":""fullscreenenter"",""trial"":1,""time"":3271}]",NA,NA,NA,NA,NA,3,#1CD855,#FA92F8,10,0,1,40,0,729,39,0,348.9999999998836,0,0,experiment,NA,NA,1,0.7,0.3,2,3,152,4,NA
fcp-trial,201,911949,0.0-162.0-0.0,voc_e2,12060,"[{""event"":""fullscreenenter"",""trial"":1,""time"":3271},{""event"":""fullscreenenter"",""trial"":1,""time"":3271}]",NA,NA,NA,NA,NA,4,#D89F1C,#3386FF,10,0,1,40,0,942,39,0,531.9999999998836,0,0,experiment,NA,NA,0,0.9,0.1,0,1,153,4,NA
fcp-trial,202,914402,0.0-163.0-0.0,voc_e2,12060,"[{""event"":""fullscreenenter"",""trial"":1,""time"":3271},{""event"":""fullscreenenter"",""trial"":1,""time"":3271}]",NA,NA,NA,NA,NA,0,#741CD8,#D8271C,0,10,1,38,1,651,37,1,293,0,1,experiment,NA,NA,2,0.5,0.5,4,5,154,4,NA
fcp-trial,203,917418,0.0-164.0-0.0,voc_e2,12060,"[{""event"":""fullscreenenter"",""trial"":1,""time"":3271},{""event"":""fullscreenenter"",""trial"":1,""time"":3271}]",NA,NA,NA,NA,NA,5,#D8271C,#741CD8,0,0,0,40,0,1134,39,0,372,0,1,experiment,NA,NA,2,0.5,0.5,5,4,155,4,NA
fcp-trial,204,920017,0.0-165.0-0.0,voc_e2,12060,"[{""event"":""fullscreenenter"",""trial"":1,""time"":3271},{""event"":""fullscreenenter"",""trial"":1,""time"":3271}]",NA,NA,NA,NA,NA,5,#1CD855,#FA92F8,10,0,1,40,0,725,39,0,367.0000000001164,0,0,experiment,NA,NA,1,0.7,0.3,2,3,156,4,NA
fcp-trial,205,923726,0.0-166.0-0.0,voc_e2,12060,"[{""event"":""fullscreenenter"",""trial"":1,""time"":3271},{""event"":""fullscreenenter"",""trial"":1,""time"":3271}]",NA,NA,NA,NA,NA,1,#D8271C,#741CD8,10,10,0,38,1,1860,37,1,340,10,0,experiment,NA,NA,2,0.5,0.5,5,4,157,4,NA
fcp-trial,206,926304,0.0-167.0-0.0,voc_e2,12060,"[{""event"":""fullscreenenter"",""trial"":1,""time"":3271},{""event"":""fullscreenenter"",""trial"":1,""time"":3271}]",NA,NA,NA,NA,NA,5,#3386FF,#D89F1C,0,10,0,40,0,596,39,0,462,10,1,experiment,NA,NA,0,0.1,0.9,1,0,158,4,NA
fcp-trial,207,928825,0.0-168.0-0.0,voc_e2,12060,"[{""event"":""fullscreenenter"",""trial"":1,""time"":3271},{""event"":""fullscreenenter"",""trial"":1,""time"":3271}]",NA,NA,NA,NA,NA,0,#D89F1C,#3386FF,10,0,1,38,1,755,37,1,255,10,1,experiment,NA,NA,0,0.9,0.1,0,1,159,4,NA
fcp-trial,208,931645,0.0-169.0-0.0,voc_e2,12060,"[{""event"":""fullscreenenter"",""trial"":1,""time"":3271},{""event"":""fullscreenenter"",""trial"":1,""time"":3271}]",NA,NA,NA,NA,NA,6,#1CD855,#FA92F8,0,0,1,40,0,914,39,0,389,0,0,experiment,NA,NA,1,0.7,0.3,2,3,160,4,NA
fcp-trial,209,934567,0.0-170.0-0.0,voc_e2,12060,"[{""event"":""fullscreenenter"",""trial"":1,""time"":3271},{""event"":""fullscreenenter"",""trial"":1,""time"":3271}]",NA,NA,NA,NA,NA,3,#D8271C,#741CD8,10,10,0,40,0,980,39,0,432,10,1,experiment,NA,NA,2,0.5,0.5,5,4,161,4,NA
fcp-trial,210,937216,0.0-171.0-0.0,voc_e2,12060,"[{""event"":""fullscreenenter"",""trial"":1,""time"":3271},{""event"":""fullscreenenter"",""trial"":1,""time"":3271}]",NA,NA,NA,NA,NA,1,#1CD855,#FA92F8,0,10,1,40,0,745,39,0,399,10,0,experiment,NA,NA,1,0.7,0.3,2,3,162,4,NA
fcp-trial,211,939644,0.0-172.0-0.0,voc_e2,12060,"[{""event"":""fullscreenenter"",""trial"":1,""time"":3271},{""event"":""fullscreenenter"",""trial"":1,""time"":3271}]",NA,NA,NA,NA,NA,3,#D89F1C,#3386FF,10,0,1,40,0,548,39,0,371.9999999998836,0,0,experiment,NA,NA,0,0.9,0.1,0,1,163,4,NA
fcp-trial,212,942045,0.0-173.0-0.0,voc_e2,12060,"[{""event"":""fullscreenenter"",""trial"":1,""time"":3271},{""event"":""fullscreenenter"",""trial"":1,""time"":3271}]",NA,NA,NA,NA,NA,6,#D89F1C,#3386FF,0,0,1,40,0,546,37,1,335,0,1,experiment,NA,NA,0,0.9,0.1,0,1,164,4,NA
fcp-trial,213,944417,0.0-174.0-0.0,voc_e2,12060,"[{""event"":""fullscreenenter"",""trial"":1,""time"":3271},{""event"":""fullscreenenter"",""trial"":1,""time"":3271}]",NA,NA,NA,NA,NA,4,#741CD8,#D8271C,10,10,1,40,0,388.0000000001164,37,1,466,10,1,experiment,NA,NA,2,0.5,0.5,4,5,165,4,NA
fcp-trial,214,946850,0.0-175.0-0.0,voc_e2,12060,"[{""event"":""fullscreenenter"",""trial"":1,""time"":3271},{""event"":""fullscreenenter"",""trial"":1,""time"":3271}]",NA,NA,NA,NA,NA,2,#FA92F8,#1CD855,0,10,0,40,0,516,37,1,412,0,0,experiment,NA,NA,1,0.3,0.7,3,2,166,4,NA
fcp-trial,215,950499,0.0-176.0-0.0,voc_e2,12060,"[{""event"":""fullscreenenter"",""trial"":1,""time"":3271},{""event"":""fullscreenenter"",""trial"":1,""time"":3271}]",NA,NA,NA,NA,NA,1,#D89F1C,#3386FF,10,0,1,40,0,1846,37,1,297,10,1,experiment,NA,NA,0,0.9,0.1,0,1,167,4,NA
fcp-trial,216,953188,0.0-177.0-0.0,voc_e2,12060,"[{""event"":""fullscreenenter"",""trial"":1,""time"":3271},{""event"":""fullscreenenter"",""trial"":1,""time"":3271}]",NA,NA,NA,NA,NA,6,#D8271C,#741CD8,10,0,0,40,0,696,37,1,487,10,0,experiment,NA,NA,2,0.5,0.5,5,4,168,4,NA
fcp-trial,217,956478,0.0-178.0-0.0,voc_e2,12060,"[{""event"":""fullscreenenter"",""trial"":1,""time"":3271},{""event"":""fullscreenenter"",""trial"":1,""time"":3271}]",NA,NA,NA,NA,NA,2,#FA92F8,#1CD855,0,10,0,40,0,1322,37,1,459,0,0,experiment,NA,NA,1,0.3,0.7,3,2,169,4,NA
fcp-trial,218,961935,0.0-179.0-0.0,voc_e2,12060,"[{""event"":""fullscreenenter"",""trial"":1,""time"":3271},{""event"":""fullscreenenter"",""trial"":1,""time"":3271}]",NA,NA,NA,NA,NA,1,#3386FF,#D89F1C,0,0,0,38,1,3638,37,1,300.0000000001164,0,0,experiment,NA,NA,0,0.1,0.9,1,0,170,4,NA
fcp-trial,219,965476,0.0-180.0-0.0,voc_e2,12060,"[{""event"":""fullscreenenter"",""trial"":1,""time"":3271},{""event"":""fullscreenenter"",""trial"":1,""time"":3271}]",NA,NA,NA,NA,NA,2,#D8271C,#741CD8,10,10,0,40,0,1679,39,0,355,10,1,experiment,NA,NA,2,0.5,0.5,5,4,171,4,NA
fcp-trial,220,969345,0.0-181.0-0.0,voc_e2,12060,"[{""event"":""fullscreenenter"",""trial"":1,""time"":3271},{""event"":""fullscreenenter"",""trial"":1,""time"":3271}]",NA,NA,NA,NA,NA,1,#FA92F8,#1CD855,0,10,0,40,0,923,39,0,1427.0000000001164,10,1,experiment,NA,NA,1,0.3,0.7,3,2,172,4,NA
fcp-trial,221,972768,0.0-182.0-0.0,voc_e2,12060,"[{""event"":""fullscreenenter"",""trial"":1,""time"":3271},{""event"":""fullscreenenter"",""trial"":1,""time"":3271}]",NA,NA,NA,NA,NA,4,#FA92F8,#1CD855,0,10,0,38,1,1204.9999999998836,37,1,701,0,0,experiment,NA,NA,1,0.3,0.7,3,2,173,4,NA
fcp-trial,222,976234,0.0-183.0-0.0,voc_e2,12060,"[{""event"":""fullscreenenter"",""trial"":1,""time"":3271},{""event"":""fullscreenenter"",""trial"":1,""time"":3271}]",NA,NA,NA,NA,NA,6,#741CD8,#D8271C,10,10,1,40,0,1443.0000000001164,37,1,515,10,1,experiment,NA,NA,2,0.5,0.5,4,5,174,4,NA
fcp-trial,223,978883,0.0-184.0-0.0,voc_e2,12060,"[{""event"":""fullscreenenter"",""trial"":1,""time"":3271},{""event"":""fullscreenenter"",""trial"":1,""time"":3271}]",NA,NA,NA,NA,NA,5,#3386FF,#D89F1C,0,10,0,40,0,693.0000000001164,37,1,447.9999999998836,0,0,experiment,NA,NA,0,0.1,0.9,1,0,175,4,NA
fcp-trial,224,982150,0.0-185.0-0.0,voc_e2,12060,"[{""event"":""fullscreenenter"",""trial"":1,""time"":3271},{""event"":""fullscreenenter"",""trial"":1,""time"":3271}]",NA,NA,NA,NA,NA,4,#741CD8,#D8271C,10,10,1,40,0,1162,39,0,598,10,0,experiment,NA,NA,2,0.5,0.5,4,5,176,4,NA
fcp-trial,225,985704,0.0-186.0-0.0,voc_e2,12060,"[{""event"":""fullscreenenter"",""trial"":1,""time"":3271},{""event"":""fullscreenenter"",""trial"":1,""time"":3271}]",NA,NA,NA,NA,NA,6,#1CD855,#FA92F8,10,10,1,38,1,1601,39,0,446,10,0,experiment,NA,NA,1,0.7,0.3,2,3,177,4,NA
fcp-trial,226,988987,0.0-187.0-0.0,voc_e2,12060,"[{""event"":""fullscreenenter"",""trial"":1,""time"":3271},{""event"":""fullscreenenter"",""trial"":1,""time"":3271}]",NA,NA,NA,NA,NA,5,#D8271C,#741CD8,0,10,0,40,0,1023,37,1,752.0000000001164,0,0,experiment,NA,NA,2,0.5,0.5,5,4,178,4,NA
fcp-trial,227,992643,0.0-188.0-0.0,voc_e2,12060,"[{""event"":""fullscreenenter"",""trial"":1,""time"":3271},{""event"":""fullscreenenter"",""trial"":1,""time"":3271}]",NA,NA,NA,NA,NA,2,#D89F1C,#3386FF,10,0,1,40,0,1757,39,0,391,0,0,experiment,NA,NA,0,0.9,0.1,0,1,179,4,NA
fcp-trial,228,996051,0.0-189.0-0.0,voc_e2,12060,"[{""event"":""fullscreenenter"",""trial"":1,""time"":3271},{""event"":""fullscreenenter"",""trial"":1,""time"":3271}]",NA,NA,NA,NA,NA,0,#741CD8,#D8271C,10,0,1,38,1,1409,37,1,481,10,1,experiment,NA,NA,2,0.5,0.5,4,5,180,4,NA
fcp-trial,229,999783,0.0-190.0-0.0,voc_e2,12060,"[{""event"":""fullscreenenter"",""trial"":1,""time"":3271},{""event"":""fullscreenenter"",""trial"":1,""time"":3271}]",NA,NA,NA,NA,NA,3,#1CD855,#FA92F8,10,10,1,38,1,1813.9999999998836,39,0,410,10,0,experiment,NA,NA,1,0.7,0.3,2,3,181,5,NA
fcp-trial,230,1003288,0.0-191.0-0.0,voc_e2,12060,"[{""event"":""fullscreenenter"",""trial"":1,""time"":3271},{""event"":""fullscreenenter"",""trial"":1,""time"":3271}]",NA,NA,NA,NA,NA,0,#3386FF,#D89F1C,0,10,0,38,1,1603.9999999998836,37,1,393,0,0,experiment,NA,NA,0,0.1,0.9,1,0,182,5,NA
fcp-trial,231,1006410,0.0-192.0-0.0,voc_e2,12060,"[{""event"":""fullscreenenter"",""trial"":1,""time"":3271},{""event"":""fullscreenenter"",""trial"":1,""time"":3271}]",NA,NA,NA,NA,NA,4,#D89F1C,#3386FF,10,0,1,40,0,923,37,1,690.0000000001164,10,1,experiment,NA,NA,0,0.9,0.1,0,1,183,5,NA
fcp-trial,232,1010560,0.0-193.0-0.0,voc_e2,12060,"[{""event"":""fullscreenenter"",""trial"":1,""time"":3271},{""event"":""fullscreenenter"",""trial"":1,""time"":3271}]",NA,NA,NA,NA,NA,0,#1CD855,#FA92F8,10,0,1,38,1,2271,39,0,357.0000000001164,0,0,experiment,NA,NA,1,0.7,0.3,2,3,184,5,NA
fcp-trial,233,1013119,0.0-194.0-0.0,voc_e2,12060,"[{""event"":""fullscreenenter"",""trial"":1,""time"":3271},{""event"":""fullscreenenter"",""trial"":1,""time"":3271}]",NA,NA,NA,NA,NA,1,#741CD8,#D8271C,0,10,1,40,0,656,37,1,384,0,1,experiment,NA,NA,2,0.5,0.5,4,5,185,5,NA
fcp-trial,234,1015557,0.0-195.0-0.0,voc_e2,12060,"[{""event"":""fullscreenenter"",""trial"":1,""time"":3271},{""event"":""fullscreenenter"",""trial"":1,""time"":3271}]",NA,NA,NA,NA,NA,6,#3386FF,#D89F1C,0,10,0,40,0,586,39,0,346,10,1,experiment,NA,NA,0,0.1,0.9,1,0,186,5,NA
fcp-trial,235,1018538,0.0-196.0-0.0,voc_e2,12060,"[{""event"":""fullscreenenter"",""trial"":1,""time"":3271},{""event"":""fullscreenenter"",""trial"":1,""time"":3271}]",NA,NA,NA,NA,NA,3,#D8271C,#741CD8,10,0,0,40,0,626,39,0,836,0,1,experiment,NA,NA,2,0.5,0.5,5,4,187,5,NA
fcp-trial,236,1021154,0.0-197.0-0.0,voc_e2,12060,"[{""event"":""fullscreenenter"",""trial"":1,""time"":3271},{""event"":""fullscreenenter"",""trial"":1,""time"":3271}]",NA,NA,NA,NA,NA,3,#3386FF,#D89F1C,0,10,0,40,0,772.0000000001164,37,1,335,0,0,experiment,NA,NA,0,0.1,0.9,1,0,188,5,NA
fcp-trial,237,1024059,0.0-198.0-0.0,voc_e2,12060,"[{""event"":""fullscreenenter"",""trial"":1,""time"":3271},{""event"":""fullscreenenter"",""trial"":1,""time"":3271}]",NA,NA,NA,NA,NA,5,#1CD855,#FA92F8,0,0,1,40,0,578.0000000002328,37,1,818,0,1,experiment,NA,NA,1,0.7,0.3,2,3,189,5,NA
fcp-trial,238,1027002,0.0-199.0-0.0,voc_e2,12060,"[{""event"":""fullscreenenter"",""trial"":1,""time"":3271},{""event"":""fullscreenenter"",""trial"":1,""time"":3271}]",NA,NA,NA,NA,NA,0,#D89F1C,#3386FF,10,0,1,38,1,1023.9999999998836,37,1,401,10,1,experiment,NA,NA,0,0.9,0.1,0,1,190,5,NA
fcp-trial,239,1029700,0.0-200.0-0.0,voc_e2,12060,"[{""event"":""fullscreenenter"",""trial"":1,""time"":3271},{""event"":""fullscreenenter"",""trial"":1,""time"":3271}]",NA,NA,NA,NA,NA,2,#D8271C,#741CD8,0,0,0,40,0,541.9999999998836,37,1,647.9999999998836,0,0,experiment,NA,NA,2,0.5,0.5,5,4,191,5,NA
fcp-trial,240,1032725,0.0-201.0-0.0,voc_e2,12060,"[{""event"":""fullscreenenter"",""trial"":1,""time"":3271},{""event"":""fullscreenenter"",""trial"":1,""time"":3271}]",NA,NA,NA,NA,NA,3,#1CD855,#FA92F8,0,0,1,40,0,779,37,1,740,0,1,experiment,NA,NA,1,0.7,0.3,2,3,192,5,NA
fcp-trial,241,1035267,0.0-202.0-0.0,voc_e2,12060,"[{""event"":""fullscreenenter"",""trial"":1,""time"":3271},{""event"":""fullscreenenter"",""trial"":1,""time"":3271}]",NA,NA,NA,NA,NA,4,#3386FF,#D89F1C,0,10,0,40,0,647.9999999998836,37,1,373.9999999997672,0,0,experiment,NA,NA,0,0.1,0.9,1,0,193,5,NA
fcp-trial,242,1038011,0.0-203.0-0.0,voc_e2,12060,"[{""event"":""fullscreenenter"",""trial"":1,""time"":3271},{""event"":""fullscreenenter"",""trial"":1,""time"":3271}]",NA,NA,NA,NA,NA,0,#741CD8,#D8271C,0,0,1,38,1,853,37,1,382,0,1,experiment,NA,NA,2,0.5,0.5,4,5,194,5,NA
fcp-trial,243,1040987,0.0-204.0-0.0,voc_e2,12060,"[{""event"":""fullscreenenter"",""trial"":1,""time"":3271},{""event"":""fullscreenenter"",""trial"":1,""time"":3271}]",NA,NA,NA,NA,NA,0,#FA92F8,#1CD855,10,10,0,38,1,947,37,1,509.9999999998836,10,0,experiment,NA,NA,1,0.3,0.7,3,2,195,5,NA
fcp-trial,244,1043884,0.0-205.0-0.0,voc_e2,12060,"[{""event"":""fullscreenenter"",""trial"":1,""time"":3271},{""event"":""fullscreenenter"",""trial"":1,""time"":3271}]",NA,NA,NA,NA,NA,1,#3386FF,#D89F1C,0,10,0,38,1,895.9999999998836,39,0,493.0000000002328,10,1,experiment,NA,NA,0,0.1,0.9,1,0,196,5,NA
fcp-trial,245,1046519,0.0-206.0-0.0,voc_e2,12060,"[{""event"":""fullscreenenter"",""trial"":1,""time"":3271},{""event"":""fullscreenenter"",""trial"":1,""time"":3271}]",NA,NA,NA,NA,NA,1,#D8271C,#741CD8,10,10,0,40,0,843,39,0,284,10,1,experiment,NA,NA,2,0.5,0.5,5,4,197,5,NA
fcp-trial,246,1049353,0.0-207.0-0.0,voc_e2,12060,"[{""event"":""fullscreenenter"",""trial"":1,""time"":3271},{""event"":""fullscreenenter"",""trial"":1,""time"":3271}]",NA,NA,NA,NA,NA,6,#3386FF,#D89F1C,0,10,0,40,0,794.9999999997672,37,1,531,0,0,experiment,NA,NA,0,0.1,0.9,1,0,198,5,NA
fcp-trial,247,1052034,0.0-208.0-0.0,voc_e2,12060,"[{""event"":""fullscreenenter"",""trial"":1,""time"":3271},{""event"":""fullscreenenter"",""trial"":1,""time"":3271}]",NA,NA,NA,NA,NA,5,#741CD8,#D8271C,10,10,1,40,0,727,39,0,446,10,0,experiment,NA,NA,2,0.5,0.5,4,5,199,5,NA
fcp-trial,248,1054601,0.0-209.0-0.0,voc_e2,12060,"[{""event"":""fullscreenenter"",""trial"":1,""time"":3271},{""event"":""fullscreenenter"",""trial"":1,""time"":3271}]",NA,NA,NA,NA,NA,6,#FA92F8,#1CD855,10,10,0,40,0,719,37,1,340,10,0,experiment,NA,NA,1,0.3,0.7,3,2,200,5,NA
fcp-trial,249,1056978,0.0-210.0-0.0,voc_e2,12060,"[{""event"":""fullscreenenter"",""trial"":1,""time"":3271},{""event"":""fullscreenenter"",""trial"":1,""time"":3271}]",NA,NA,NA,NA,NA,3,#D89F1C,#3386FF,10,0,1,40,0,469,37,1,401,10,1,experiment,NA,NA,0,0.9,0.1,0,1,201,5,NA
fcp-trial,250,1059634,0.0-211.0-0.0,voc_e2,12060,"[{""event"":""fullscreenenter"",""trial"":1,""time"":3271},{""event"":""fullscreenenter"",""trial"":1,""time"":3271}]",NA,NA,NA,NA,NA,4,#741CD8,#D8271C,10,0,1,40,0,710,39,0,428,0,0,experiment,NA,NA,2,0.5,0.5,4,5,202,5,NA
fcp-trial,251,1062417,0.0-212.0-0.0,voc_e2,12060,"[{""event"":""fullscreenenter"",""trial"":1,""time"":3271},{""event"":""fullscreenenter"",""trial"":1,""time"":3271}]",NA,NA,NA,NA,NA,4,#FA92F8,#1CD855,10,10,0,40,0,680,37,1,596,10,0,experiment,NA,NA,1,0.3,0.7,3,2,203,5,NA
fcp-trial,252,1065134,0.0-213.0-0.0,voc_e2,12060,"[{""event"":""fullscreenenter"",""trial"":1,""time"":3271},{""event"":""fullscreenenter"",""trial"":1,""time"":3271}]",NA,NA,NA,NA,NA,1,#FA92F8,#1CD855,0,10,0,38,1,864,37,1,344,0,0,experiment,NA,NA,1,0.3,0.7,3,2,204,5,NA
fcp-trial,253,1067861,0.0-214.0-0.0,voc_e2,12060,"[{""event"":""fullscreenenter"",""trial"":1,""time"":3271},{""event"":""fullscreenenter"",""trial"":1,""time"":3271}]",NA,NA,NA,NA,NA,5,#3386FF,#D89F1C,10,10,0,40,0,679,39,0,539,10,1,experiment,NA,NA,0,0.1,0.9,1,0,205,5,NA
fcp-trial,254,1070752,0.0-215.0-0.0,voc_e2,12060,"[{""event"":""fullscreenenter"",""trial"":1,""time"":3271},{""event"":""fullscreenenter"",""trial"":1,""time"":3271}]",NA,NA,NA,NA,NA,5,#FA92F8,#1CD855,0,10,0,38,1,1089,39,0,285,10,1,experiment,NA,NA,1,0.3,0.7,3,2,206,5,NA
fcp-trial,255,1073200,0.0-216.0-0.0,voc_e2,12060,"[{""event"":""fullscreenenter"",""trial"":1,""time"":3271},{""event"":""fullscreenenter"",""trial"":1,""time"":3271}]",NA,NA,NA,NA,NA,3,#D8271C,#741CD8,0,0,0,40,0,551,39,0,391,0,1,experiment,NA,NA,2,0.5,0.5,5,4,207,5,NA
fcp-trial,256,1075822,0.0-217.0-0.0,voc_e2,12060,"[{""event"":""fullscreenenter"",""trial"":1,""time"":3271},{""event"":""fullscreenenter"",""trial"":1,""time"":3271}]",NA,NA,NA,NA,NA,2,#D89F1C,#3386FF,10,0,1,40,0,628.0000000002328,39,0,487.9999999997672,0,0,experiment,NA,NA,0,0.9,0.1,0,1,208,5,NA
fcp-trial,257,1078351,0.0-218.0-0.0,voc_e2,12060,"[{""event"":""fullscreenenter"",""trial"":1,""time"":3271},{""event"":""fullscreenenter"",""trial"":1,""time"":3271}]",NA,NA,NA,NA,NA,6,#D8271C,#741CD8,10,10,0,40,0,656,39,0,366,10,1,experiment,NA,NA,2,0.5,0.5,5,4,209,5,NA
fcp-trial,258,1080776,0.0-219.0-0.0,voc_e2,12060,"[{""event"":""fullscreenenter"",""trial"":1,""time"":3271},{""event"":""fullscreenenter"",""trial"":1,""time"":3271}]",NA,NA,NA,NA,NA,2,#FA92F8,#1CD855,10,10,0,40,0,573,39,0,343,10,1,experiment,NA,NA,1,0.3,0.7,3,2,210,5,NA
audio-instructions,259,1100419,0.0-220.0,voc_e2,12060,"[{""event"":""fullscreenenter"",""trial"":1,""time"":3271},{""event"":""fullscreenenter"",""trial"":1,""time"":3271}]",NA,15200.000000000233,static/audio/pause.wav,NA,0,NA,NA,NA,NA,NA,NA,NA,NA,NA,NA,NA,NA,NA,NA,NA,NA,NA,NA,NA,NA,NA,NA,NA,NA,NA
fcp-trial,260,1104583,0.0-221.0-0.0,voc_e2,12060,"[{""event"":""fullscreenenter"",""trial"":1,""time"":3271},{""event"":""fullscreenenter"",""trial"":1,""time"":3271}]",NA,NA,NA,NA,NA,1,#D89F1C,#3386FF,10,0,1,38,1,1963,39,0,695.0000000002328,0,0,experiment,NA,NA,0,0.9,0.1,0,1,211,5,NA
fcp-trial,261,1107118,0.0-222.0-0.0,voc_e2,12060,"[{""event"":""fullscreenenter"",""trial"":1,""time"":3271},{""event"":""fullscreenenter"",""trial"":1,""time"":3271}]",NA,NA,NA,NA,NA,4,#D89F1C,#3386FF,0,0,1,40,0,614,37,1,417,0,1,experiment,NA,NA,0,0.9,0.1,0,1,212,5,NA
fcp-trial,262,1109737,0.0-223.0-0.0,voc_e2,12060,"[{""event"":""fullscreenenter"",""trial"":1,""time"":3271},{""event"":""fullscreenenter"",""trial"":1,""time"":3271}]",NA,NA,NA,NA,NA,0,#741CD8,#D8271C,0,0,1,38,1,651.0000000002328,39,0,461,0,0,experiment,NA,NA,2,0.5,0.5,4,5,213,5,NA
fcp-trial,263,1112845,0.0-224.0-0.0,voc_e2,12060,"[{""event"":""fullscreenenter"",""trial"":1,""time"":3271},{""event"":""fullscreenenter"",""trial"":1,""time"":3271}]",NA,NA,NA,NA,NA,6,#FA92F8,#1CD855,0,10,0,40,0,989,37,1,608,0,0,experiment,NA,NA,1,0.3,0.7,3,2,214,5,NA
fcp-trial,264,1116009,0.0-225.0-0.0,voc_e2,12060,"[{""event"":""fullscreenenter"",""trial"":1,""time"":3271},{""event"":""fullscreenenter"",""trial"":1,""time"":3271}]",NA,NA,NA,NA,NA,5,#1CD855,#FA92F8,10,0,1,40,0,932,37,1,712,10,1,experiment,NA,NA,1,0.7,0.3,2,3,215,5,NA
fcp-trial,265,1119273,0.0-226.0-0.0,voc_e2,12060,"[{""event"":""fullscreenenter"",""trial"":1,""time"":3271},{""event"":""fullscreenenter"",""trial"":1,""time"":3271}]",NA,NA,NA,NA,NA,2,#D89F1C,#3386FF,10,0,1,38,1,1322,39,0,421,0,0,experiment,NA,NA,0,0.9,0.1,0,1,216,5,NA
fcp-trial,266,1122161,0.0-227.0-0.0,voc_e2,12060,"[{""event"":""fullscreenenter"",""trial"":1,""time"":3271},{""event"":""fullscreenenter"",""trial"":1,""time"":3271}]",NA,NA,NA,NA,NA,3,#1CD855,#FA92F8,10,0,1,40,0,813,39,0,567,0,0,experiment,NA,NA,1,0.7,0.3,2,3,217,5,NA
fcp-trial,267,1124852,0.0-228.0-0.0,voc_e2,12060,"[{""event"":""fullscreenenter"",""trial"":1,""time"":3271},{""event"":""fullscreenenter"",""trial"":1,""time"":3271}]",NA,NA,NA,NA,NA,4,#741CD8,#D8271C,10,0,1,40,0,664,37,1,516.0000000002328,10,1,experiment,NA,NA,2,0.5,0.5,4,5,218,5,NA
fcp-trial,268,1127205,0.0-229.0-0.0,voc_e2,12060,"[{""event"":""fullscreenenter"",""trial"":1,""time"":3271},{""event"":""fullscreenenter"",""trial"":1,""time"":3271}]",NA,NA,NA,NA,NA,6,#741CD8,#D8271C,0,10,1,40,0,464,37,1,380,0,1,experiment,NA,NA,2,0.5,0.5,4,5,219,5,NA
fcp-trial,269,1130251,0.0-230.0-0.0,voc_e2,12060,"[{""event"":""fullscreenenter"",""trial"":1,""time"":3271},{""event"":""fullscreenenter"",""trial"":1,""time"":3271}]",NA,NA,NA,NA,NA,1,#1CD855,#FA92F8,10,0,1,38,1,980,39,0,558,0,0,experiment,NA,NA,1,0.7,0.3,2,3,220,5,NA
fcp-trial,270,1132906,0.0-231.0-0.0,voc_e2,12060,"[{""event"":""fullscreenenter"",""trial"":1,""time"":3271},{""event"":""fullscreenenter"",""trial"":1,""time"":3271}]",NA,NA,NA,NA,NA,5,#D89F1C,#3386FF,10,0,1,40,0,654,39,0,494,0,0,experiment,NA,NA,0,0.9,0.1,0,1,221,5,NA
fcp-trial,271,1136301,0.0-232.0-0.0,voc_e2,12060,"[{""event"":""fullscreenenter"",""trial"":1,""time"":3271},{""event"":""fullscreenenter"",""trial"":1,""time"":3271}]",NA,NA,NA,NA,NA,1,#D8271C,#741CD8,10,0,0,40,0,1238,37,1,650,10,0,experiment,NA,NA,2,0.5,0.5,5,4,222,5,NA
fcp-trial,272,1138805,0.0-233.0-0.0,voc_e2,12060,"[{""event"":""fullscreenenter"",""trial"":1,""time"":3271},{""event"":""fullscreenenter"",""trial"":1,""time"":3271}]",NA,NA,NA,NA,NA,6,#3386FF,#D89F1C,0,10,0,40,0,601,37,1,394,0,0,experiment,NA,NA,0,0.1,0.9,1,0,223,5,NA
fcp-trial,273,1141084,0.0-234.0-0.0,voc_e2,12060,"[{""event"":""fullscreenenter"",""trial"":1,""time"":3271},{""event"":""fullscreenenter"",""trial"":1,""time"":3271}]",NA,NA,NA,NA,NA,2,#FA92F8,#1CD855,0,10,0,40,0,462.00000000023283,39,0,308,10,1,experiment,NA,NA,1,0.3,0.7,3,2,224,5,NA
fcp-trial,274,1143718,0.0-235.0-0.0,voc_e2,12060,"[{""event"":""fullscreenenter"",""trial"":1,""time"":3271},{""event"":""fullscreenenter"",""trial"":1,""time"":3271}]",NA,NA,NA,NA,NA,3,#D89F1C,#3386FF,10,0,1,40,0,809,37,1,317,10,1,experiment,NA,NA,0,0.9,0.1,0,1,225,5,NA
fcp-trial,275,1146401,0.0-236.0-0.0,voc_e2,12060,"[{""event"":""fullscreenenter"",""trial"":1,""time"":3271},{""event"":""fullscreenenter"",""trial"":1,""time"":3271}]",NA,NA,NA,NA,NA,4,#1CD855,#FA92F8,10,0,1,40,0,759,37,1,416,10,1,experiment,NA,NA,1,0.7,0.3,2,3,226,6,NA
fcp-trial,276,1148761,0.0-237.0-0.0,voc_e2,12060,"[{""event"":""fullscreenenter"",""trial"":1,""time"":3271},{""event"":""fullscreenenter"",""trial"":1,""time"":3271}]",NA,NA,NA,NA,NA,3,#D8271C,#741CD8,10,0,0,40,0,478,39,0,374,0,1,experiment,NA,NA,2,0.5,0.5,5,4,227,6,NA
fcp-trial,277,1151876,0.0-238.0-0.0,voc_e2,12060,"[{""event"":""fullscreenenter"",""trial"":1,""time"":3271},{""event"":""fullscreenenter"",""trial"":1,""time"":3271}]",NA,NA,NA,NA,NA,0,#3386FF,#D89F1C,10,10,0,38,1,1257,37,1,339,10,0,experiment,NA,NA,0,0.1,0.9,1,0,228,6,NA
fcp-trial,278,1154400,0.0-239.0-0.0,voc_e2,12060,"[{""event"":""fullscreenenter"",""trial"":1,""time"":3271},{""event"":""fullscreenenter"",""trial"":1,""time"":3271}]",NA,NA,NA,NA,NA,0,#1CD855,#FA92F8,0,0,1,38,1,555,37,1,448,0,1,experiment,NA,NA,1,0.7,0.3,2,3,229,6,NA
fcp-trial,279,1157241,0.0-240.0-0.0,voc_e2,12060,"[{""event"":""fullscreenenter"",""trial"":1,""time"":3271},{""event"":""fullscreenenter"",""trial"":1,""time"":3271}]",NA,NA,NA,NA,NA,5,#741CD8,#D8271C,10,10,1,40,0,903,39,0,428,10,0,experiment,NA,NA,2,0.5,0.5,4,5,230,6,NA
fcp-trial,280,1161165,0.0-241.0-0.0,voc_e2,12060,"[{""event"":""fullscreenenter"",""trial"":1,""time"":3271},{""event"":""fullscreenenter"",""trial"":1,""time"":3271}]",NA,NA,NA,NA,NA,2,#741CD8,#D8271C,10,0,1,38,1,1491,37,1,915,10,1,experiment,NA,NA,2,0.5,0.5,4,5,231,6,NA
fcp-trial,281,1163807,0.0-242.0-0.0,voc_e2,12060,"[{""event"":""fullscreenenter"",""trial"":1,""time"":3271},{""event"":""fullscreenenter"",""trial"":1,""time"":3271}]",NA,NA,NA,NA,NA,3,#1CD855,#FA92F8,10,10,1,40,0,645,37,1,488,10,1,experiment,NA,NA,1,0.7,0.3,2,3,232,6,NA
fcp-trial,282,1166476,0.0-243.0-0.0,voc_e2,12060,"[{""event"":""fullscreenenter"",""trial"":1,""time"":3271},{""event"":""fullscreenenter"",""trial"":1,""time"":3271}]",NA,NA,NA,NA,NA,3,#741CD8,#D8271C,10,0,1,40,0,624,37,1,538.0000000002328,10,1,experiment,NA,NA,2,0.5,0.5,4,5,233,6,NA
fcp-trial,283,1169201,0.0-244.0-0.0,voc_e2,12060,"[{""event"":""fullscreenenter"",""trial"":1,""time"":3271},{""event"":""fullscreenenter"",""trial"":1,""time"":3271}]",NA,NA,NA,NA,NA,2,#3386FF,#D89F1C,0,10,0,40,0,874,37,1,332,0,0,experiment,NA,NA,0,0.1,0.9,1,0,234,6,NA
fcp-trial,284,1171934,0.0-245.0-0.0,voc_e2,12060,"[{""event"":""fullscreenenter"",""trial"":1,""time"":3271},{""event"":""fullscreenenter"",""trial"":1,""time"":3271}]",NA,NA,NA,NA,NA,6,#D89F1C,#3386FF,10,0,1,40,0,862,39,0,364,0,0,experiment,NA,NA,0,0.9,0.1,0,1,235,6,NA
fcp-trial,285,1174395,0.0-246.0-0.0,voc_e2,12060,"[{""event"":""fullscreenenter"",""trial"":1,""time"":3271},{""event"":""fullscreenenter"",""trial"":1,""time"":3271}]",NA,NA,NA,NA,NA,2,#1CD855,#FA92F8,10,0,1,40,0,526,39,0,427,0,0,experiment,NA,NA,1,0.7,0.3,2,3,236,6,NA
fcp-trial,286,1177011,0.0-247.0-0.0,voc_e2,12060,"[{""event"":""fullscreenenter"",""trial"":1,""time"":3271},{""event"":""fullscreenenter"",""trial"":1,""time"":3271}]",NA,NA,NA,NA,NA,4,#1CD855,#FA92F8,10,0,1,40,0,467.99999999976717,39,0,624,0,0,experiment,NA,NA,1,0.7,0.3,2,3,237,6,NA
fcp-trial,287,1179783,0.0-248.0-0.0,voc_e2,12060,"[{""event"":""fullscreenenter"",""trial"":1,""time"":3271},{""event"":""fullscreenenter"",""trial"":1,""time"":3271}]",NA,NA,NA,NA,NA,1,#741CD8,#D8271C,0,0,1,40,0,856,37,1,399.0000000002328,0,1,experiment,NA,NA,2,0.5,0.5,4,5,238,6,NA
fcp-trial,288,1182923,0.0-249.0-0.0,voc_e2,12060,"[{""event"":""fullscreenenter"",""trial"":1,""time"":3271},{""event"":""fullscreenenter"",""trial"":1,""time"":3271}]",NA,NA,NA,NA,NA,1,#D89F1C,#3386FF,10,0,1,38,1,1185,39,0,447.9999999997672,0,0,experiment,NA,NA,0,0.9,0.1,0,1,239,6,NA
fcp-trial,289,1185755,0.0-250.0-0.0,voc_e2,12060,"[{""event"":""fullscreenenter"",""trial"":1,""time"":3271},{""event"":""fullscreenenter"",""trial"":1,""time"":3271}]",NA,NA,NA,NA,NA,0,#1CD855,#FA92F8,10,10,1,38,1,949,37,1,362.0000000002328,10,1,experiment,NA,NA,1,0.7,0.3,2,3,240,6,NA
fcp-trial,290,1188367,0.0-251.0-0.0,voc_e2,12060,"[{""event"":""fullscreenenter"",""trial"":1,""time"":3271},{""event"":""fullscreenenter"",""trial"":1,""time"":3271}]",NA,NA,NA,NA,NA,5,#3386FF,#D89F1C,0,10,0,40,0,703,37,1,399,0,0,experiment,NA,NA,0,0.1,0.9,1,0,241,6,NA
fcp-trial,291,1191468,0.0-252.0-0.0,voc_e2,12060,"[{""event"":""fullscreenenter"",""trial"":1,""time"":3271},{""event"":""fullscreenenter"",""trial"":1,""time"":3271}]",NA,NA,NA,NA,NA,5,#D8271C,#741CD8,0,10,0,40,0,1242,39,0,351,10,1,experiment,NA,NA,2,0.5,0.5,5,4,242,6,NA
fcp-trial,292,1194034,0.0-253.0-0.0,voc_e2,12060,"[{""event"":""fullscreenenter"",""trial"":1,""time"":3271},{""event"":""fullscreenenter"",""trial"":1,""time"":3271}]",NA,NA,NA,NA,NA,5,#FA92F8,#1CD855,10,10,0,40,0,692,37,1,366,10,0,experiment,NA,NA,1,0.3,0.7,3,2,243,6,NA
fcp-trial,293,1196826,0.0-254.0-0.0,voc_e2,12060,"[{""event"":""fullscreenenter"",""trial"":1,""time"":3271},{""event"":""fullscreenenter"",""trial"":1,""time"":3271}]",NA,NA,NA,NA,NA,0,#3386FF,#D89F1C,0,10,0,38,1,933.9999999997672,37,1,349,0,0,experiment,NA,NA,0,0.1,0.9,1,0,244,6,NA
fcp-trial,294,1199268,0.0-255.0-0.0,voc_e2,12060,"[{""event"":""fullscreenenter"",""trial"":1,""time"":3271},{""event"":""fullscreenenter"",""trial"":1,""time"":3271}]",NA,NA,NA,NA,NA,4,#3386FF,#D89F1C,0,10,0,40,0,573,39,0,350,10,1,experiment,NA,NA,0,0.1,0.9,1,0,245,6,NA
fcp-trial,295,1201785,0.0-256.0-0.0,voc_e2,12060,"[{""event"":""fullscreenenter"",""trial"":1,""time"":3271},{""event"":""fullscreenenter"",""trial"":1,""time"":3271}]",NA,NA,NA,NA,NA,6,#D8271C,#741CD8,10,10,0,40,0,442,39,0,567,10,1,experiment,NA,NA,2,0.5,0.5,5,4,246,6,NA
fcp-trial,296,1204574,0.0-257.0-0.0,voc_e2,12060,"[{""event"":""fullscreenenter"",""trial"":1,""time"":3271},{""event"":""fullscreenenter"",""trial"":1,""time"":3271}]",NA,NA,NA,NA,NA,2,#D8271C,#741CD8,10,10,0,40,0,844,37,1,438,10,0,experiment,NA,NA,2,0.5,0.5,5,4,247,6,NA
fcp-trial,297,1206951,0.0-258.0-0.0,voc_e2,12060,"[{""event"":""fullscreenenter"",""trial"":1,""time"":3271},{""event"":""fullscreenenter"",""trial"":1,""time"":3271}]",NA,NA,NA,NA,NA,6,#1CD855,#FA92F8,10,0,1,40,0,519,37,1,351,10,1,experiment,NA,NA,1,0.7,0.3,2,3,248,6,NA
fcp-trial,298,1209957,0.0-259.0-0.0,voc_e2,12060,"[{""event"":""fullscreenenter"",""trial"":1,""time"":3271},{""event"":""fullscreenenter"",""trial"":1,""time"":3271}]",NA,NA,NA,NA,NA,4,#741CD8,#D8271C,0,0,1,40,0,1032,37,1,465.0000000002328,0,1,experiment,NA,NA,2,0.5,0.5,4,5,249,6,NA
fcp-trial,299,1212284,0.0-260.0-0.0,voc_e2,12060,"[{""event"":""fullscreenenter"",""trial"":1,""time"":3271},{""event"":""fullscreenenter"",""trial"":1,""time"":3271}]",NA,NA,NA,NA,NA,3,#D89F1C,#3386FF,10,0,1,40,0,370.99999999976717,39,0,449,0,0,experiment,NA,NA,0,0.9,0.1,0,1,250,6,NA
fcp-trial,300,1214733,0.0-261.0-0.0,voc_e2,12060,"[{""event"":""fullscreenenter"",""trial"":1,""time"":3271},{""event"":""fullscreenenter"",""trial"":1,""time"":3271}]",NA,NA,NA,NA,NA,0,#D8271C,#741CD8,0,0,0,40,0,525.9999999997672,39,0,415,0,1,experiment,NA,NA,2,0.5,0.5,5,4,251,6,NA
fcp-trial,301,1217788,0.0-262.0-0.0,voc_e2,12060,"[{""event"":""fullscreenenter"",""trial"":1,""time"":3271},{""event"":""fullscreenenter"",""trial"":1,""time"":3271}]",NA,NA,NA,NA,NA,1,#FA92F8,#1CD855,0,10,0,40,0,903,39,0,642,10,1,experiment,NA,NA,1,0.3,0.7,3,2,252,6,NA
fcp-trial,302,1220054,0.0-263.0-0.0,voc_e2,12060,"[{""event"":""fullscreenenter"",""trial"":1,""time"":3271},{""event"":""fullscreenenter"",""trial"":1,""time"":3271}]",NA,NA,NA,NA,NA,2,#D89F1C,#3386FF,10,0,1,40,0,389,37,1,370,10,1,experiment,NA,NA,0,0.9,0.1,0,1,253,6,NA
fcp-trial,303,1222301,0.0-264.0-0.0,voc_e2,12060,"[{""event"":""fullscreenenter"",""trial"":1,""time"":3271},{""event"":""fullscreenenter"",""trial"":1,""time"":3271}]",NA,NA,NA,NA,NA,1,#D8271C,#741CD8,10,0,0,40,0,340,39,0,400,0,1,experiment,NA,NA,2,0.5,0.5,5,4,254,6,NA
fcp-trial,304,1224883,0.0-265.0-0.0,voc_e2,12060,"[{""event"":""fullscreenenter"",""trial"":1,""time"":3271},{""event"":""fullscreenenter"",""trial"":1,""time"":3271}]",NA,NA,NA,NA,NA,4,#1CD855,#FA92F8,0,0,1,40,0,544,39,0,533,0,0,experiment,NA,NA,1,0.7,0.3,2,3,255,6,NA
fcp-trial,305,1227821,0.0-266.0-0.0,voc_e2,12060,"[{""event"":""fullscreenenter"",""trial"":1,""time"":3271},{""event"":""fullscreenenter"",""trial"":1,""time"":3271}]",NA,NA,NA,NA,NA,0,#3386FF,#D89F1C,0,10,0,38,1,711,39,0,718.0000000002328,10,1,experiment,NA,NA,0,0.1,0.9,1,0,256,6,NA
fcp-trial,306,1231051,0.0-267.0-0.0,voc_e2,12060,"[{""event"":""fullscreenenter"",""trial"":1,""time"":3271},{""event"":""fullscreenenter"",""trial"":1,""time"":3271}]",NA,NA,NA,NA,NA,5,#741CD8,#D8271C,10,0,1,40,0,1405,39,0,317.00000000023283,0,0,experiment,NA,NA,2,0.5,0.5,4,5,257,6,NA
fcp-trial,307,1235283,0.0-268.0-0.0,voc_e2,12060,"[{""event"":""fullscreenenter"",""trial"":1,""time"":3271},{""event"":""fullscreenenter"",""trial"":1,""time"":3271}]",NA,NA,NA,NA,NA,3,#1CD855,#FA92F8,0,0,1,38,1,2043,37,1,682,0,1,experiment,NA,NA,1,0.7,0.3,2,3,258,6,NA
fcp-trial,308,1237637,0.0-269.0-0.0,voc_e2,12060,"[{""event"":""fullscreenenter"",""trial"":1,""time"":3271},{""event"":""fullscreenenter"",""trial"":1,""time"":3271}]",NA,NA,NA,NA,NA,3,#D8271C,#741CD8,10,10,0,40,0,393,39,0,452,10,1,experiment,NA,NA,2,0.5,0.5,5,4,259,6,NA
fcp-trial,309,1240333,0.0-270.0-0.0,voc_e2,12060,"[{""event"":""fullscreenenter"",""trial"":1,""time"":3271},{""event"":""fullscreenenter"",""trial"":1,""time"":3271}]",NA,NA,NA,NA,NA,1,#3386FF,#D89F1C,0,10,0,40,0,824,39,0,363,10,1,experiment,NA,NA,0,0.1,0.9,1,0,260,6,NA
fcp-trial,310,1242751,0.0-271.0-0.0,voc_e2,12060,"[{""event"":""fullscreenenter"",""trial"":1,""time"":3271},{""event"":""fullscreenenter"",""trial"":1,""time"":3271}]",NA,NA,NA,NA,NA,6,#3386FF,#D89F1C,0,10,0,40,0,513.9999999997672,39,0,399,10,1,experiment,NA,NA,0,0.1,0.9,1,0,261,6,NA
fcp-trial,311,1245318,0.0-272.0-0.0,voc_e2,12060,"[{""event"":""fullscreenenter"",""trial"":1,""time"":3271},{""event"":""fullscreenenter"",""trial"":1,""time"":3271}]",NA,NA,NA,NA,NA,1,#FA92F8,#1CD855,0,10,0,40,0,576,37,1,482,0,0,experiment,NA,NA,1,0.3,0.7,3,2,262,6,NA
fcp-trial,312,1247818,0.0-273.0-0.0,voc_e2,12060,"[{""event"":""fullscreenenter"",""trial"":1,""time"":3271},{""event"":""fullscreenenter"",""trial"":1,""time"":3271}]",NA,NA,NA,NA,NA,3,#3386FF,#D89F1C,10,10,0,40,0,559,39,0,432,10,1,experiment,NA,NA,0,0.1,0.9,1,0,263,6,NA
fcp-trial,313,1250901,0.0-274.0-0.0,voc_e2,12060,"[{""event"":""fullscreenenter"",""trial"":1,""time"":3271},{""event"":""fullscreenenter"",""trial"":1,""time"":3271}]",NA,NA,NA,NA,NA,2,#D8271C,#741CD8,10,0,0,40,0,1109.0000000002328,37,1,465.9999999997672,10,0,experiment,NA,NA,2,0.5,0.5,5,4,264,6,NA
fcp-trial,314,1253818,0.0-275.0-0.0,voc_e2,12060,"[{""event"":""fullscreenenter"",""trial"":1,""time"":3271},{""event"":""fullscreenenter"",""trial"":1,""time"":3271}]",NA,NA,NA,NA,NA,5,#FA92F8,#1CD855,0,0,0,40,0,975,37,1,433,0,0,experiment,NA,NA,1,0.3,0.7,3,2,265,6,NA
fcp-trial,315,1257101,0.0-276.0-0.0,voc_e2,12060,"[{""event"":""fullscreenenter"",""trial"":1,""time"":3271},{""event"":""fullscreenenter"",""trial"":1,""time"":3271}]",NA,NA,NA,NA,NA,4,#D89F1C,#3386FF,10,0,1,38,1,1375,39,0,399,0,0,experiment,NA,NA,0,0.9,0.1,0,1,266,6,NA
fcp-trial,316,1259836,0.0-277.0-0.0,voc_e2,12060,"[{""event"":""fullscreenenter"",""trial"":1,""time"":3271},{""event"":""fullscreenenter"",""trial"":1,""time"":3271}]",NA,NA,NA,NA,NA,0,#D8271C,#741CD8,0,0,0,38,1,824,37,1,401.9999999997672,0,0,experiment,NA,NA,2,0.5,0.5,5,4,267,6,NA
fcp-trial,317,1262551,0.0-278.0-0.0,voc_e2,12060,"[{""event"":""fullscreenenter"",""trial"":1,""time"":3271},{""event"":""fullscreenenter"",""trial"":1,""time"":3271}]",NA,NA,NA,NA,NA,6,#1CD855,#FA92F8,10,0,1,40,0,918.0000000002328,37,1,289,10,1,experiment,NA,NA,1,0.7,0.3,2,3,268,6,NA
fcp-trial,318,1265001,0.0-279.0-0.0,voc_e2,12060,"[{""event"":""fullscreenenter"",""trial"":1,""time"":3271},{""event"":""fullscreenenter"",""trial"":1,""time"":3271}]",NA,NA,NA,NA,NA,4,#741CD8,#D8271C,0,0,1,40,0,595,39,0,349,0,0,experiment,NA,NA,2,0.5,0.5,4,5,269,6,NA
fcp-trial,319,1267685,0.0-280.0-0.0,voc_e2,12060,"[{""event"":""fullscreenenter"",""trial"":1,""time"":3271},{""event"":""fullscreenenter"",""trial"":1,""time"":3271}]",NA,NA,NA,NA,NA,5,#3386FF,#D89F1C,10,10,0,40,0,735.0000000002328,37,1,442,10,0,experiment,NA,NA,0,0.1,0.9,1,0,270,6,NA
fcp-trial,320,1270250,0.0-281.0-0.0,voc_e2,12060,"[{""event"":""fullscreenenter"",""trial"":1,""time"":3271},{""event"":""fullscreenenter"",""trial"":1,""time"":3271}]",NA,NA,NA,NA,NA,2,#FA92F8,#1CD855,10,10,0,40,0,626,39,0,430,10,1,experiment,NA,NA,1,0.3,0.7,3,2,271,7,NA
fcp-trial,321,1272636,0.0-282.0-0.0,voc_e2,12060,"[{""event"":""fullscreenenter"",""trial"":1,""time"":3271},{""event"":""fullscreenenter"",""trial"":1,""time"":3271}]",NA,NA,NA,NA,NA,6,#D8271C,#741CD8,10,0,0,40,0,396,39,0,484.0000000002328,0,1,experiment,NA,NA,2,0.5,0.5,5,4,272,7,NA
fcp-trial,322,1275167,0.0-283.0-0.0,voc_e2,12060,"[{""event"":""fullscreenenter"",""trial"":1,""time"":3271},{""event"":""fullscreenenter"",""trial"":1,""time"":3271}]",NA,NA,NA,NA,NA,0,#FA92F8,#1CD855,10,0,0,40,0,549,39,0,475,0,1,experiment,NA,NA,1,0.3,0.7,3,2,273,7,NA
fcp-trial,323,1277900,0.0-284.0-0.0,voc_e2,12060,"[{""event"":""fullscreenenter"",""trial"":1,""time"":3271},{""event"":""fullscreenenter"",""trial"":1,""time"":3271}]",NA,NA,NA,NA,NA,6,#FA92F8,#1CD855,0,0,0,40,0,743,39,0,481,0,1,experiment,NA,NA,1,0.3,0.7,3,2,274,7,NA
fcp-trial,324,1280483,0.0-285.0-0.0,voc_e2,12060,"[{""event"":""fullscreenenter"",""trial"":1,""time"":3271},{""event"":""fullscreenenter"",""trial"":1,""time"":3271}]",NA,NA,NA,NA,NA,3,#D89F1C,#3386FF,10,0,1,40,0,734.9999999997672,39,0,342,0,0,experiment,NA,NA,0,0.9,0.1,0,1,275,7,NA
fcp-trial,325,1282901,0.0-286.0-0.0,voc_e2,12060,"[{""event"":""fullscreenenter"",""trial"":1,""time"":3271},{""event"":""fullscreenenter"",""trial"":1,""time"":3271}]",NA,NA,NA,NA,NA,2,#1CD855,#FA92F8,0,0,1,40,0,519,39,0,393,0,0,experiment,NA,NA,1,0.7,0.3,2,3,276,7,NA
fcp-trial,326,1285493,0.0-287.0-0.0,voc_e2,12060,"[{""event"":""fullscreenenter"",""trial"":1,""time"":3271},{""event"":""fullscreenenter"",""trial"":1,""time"":3271}]",NA,NA,NA,NA,NA,6,#741CD8,#D8271C,0,0,1,40,0,758,37,1,324,0,1,experiment,NA,NA,2,0.5,0.5,4,5,277,7,NA
fcp-trial,327,1287751,0.0-288.0-0.0,voc_e2,12060,"[{""event"":""fullscreenenter"",""trial"":1,""time"":3271},{""event"":""fullscreenenter"",""trial"":1,""time"":3271}]",NA,NA,NA,NA,NA,5,#3386FF,#D89F1C,0,0,0,40,0,391.99999999976717,39,0,348,0,1,experiment,NA,NA,0,0.1,0.9,1,0,278,7,NA
fcp-trial,328,1290418,0.0-289.0-0.0,voc_e2,12060,"[{""event"":""fullscreenenter"",""trial"":1,""time"":3271},{""event"":""fullscreenenter"",""trial"":1,""time"":3271}]",NA,NA,NA,NA,NA,1,#741CD8,#D8271C,10,10,1,40,0,512.0000000002328,39,0,646,10,0,experiment,NA,NA,2,0.5,0.5,4,5,279,7,NA
fcp-trial,329,1293237,0.0-290.0-0.0,voc_e2,12060,"[{""event"":""fullscreenenter"",""trial"":1,""time"":3271},{""event"":""fullscreenenter"",""trial"":1,""time"":3271}]",NA,NA,NA,NA,NA,0,#741CD8,#D8271C,0,0,1,38,1,985,37,1,324,0,1,experiment,NA,NA,2,0.5,0.5,4,5,280,7,NA
fcp-trial,330,1295651,0.0-291.0-0.0,voc_e2,12060,"[{""event"":""fullscreenenter"",""trial"":1,""time"":3271},{""event"":""fullscreenenter"",""trial"":1,""time"":3271}]",NA,NA,NA,NA,NA,3,#1CD855,#FA92F8,0,0,1,40,0,524,39,0,383,0,0,experiment,NA,NA,1,0.7,0.3,2,3,281,7,NA
fcp-trial,331,1298159,0.0-292.0-0.0,voc_e2,12060,"[{""event"":""fullscreenenter"",""trial"":1,""time"":3271},{""event"":""fullscreenenter"",""trial"":1,""time"":3271}]",NA,NA,NA,NA,NA,0,#3386FF,#D89F1C,0,10,0,40,0,444,37,1,555,0,0,experiment,NA,NA,0,0.1,0.9,1,0,282,7,NA
fcp-trial,332,1301225,0.0-293.0-0.0,voc_e2,12060,"[{""event"":""fullscreenenter"",""trial"":1,""time"":3271},{""event"":""fullscreenenter"",""trial"":1,""time"":3271}]",NA,NA,NA,NA,NA,0,#1CD855,#FA92F8,10,0,1,38,1,575,39,0,972,0,0,experiment,NA,NA,1,0.7,0.3,2,3,283,7,NA
fcp-trial,333,1303883,0.0-294.0-0.0,voc_e2,12060,"[{""event"":""fullscreenenter"",""trial"":1,""time"":3271},{""event"":""fullscreenenter"",""trial"":1,""time"":3271}]",NA,NA,NA,NA,NA,5,#FA92F8,#1CD855,0,10,0,40,0,791,39,0,347,10,1,experiment,NA,NA,1,0.3,0.7,3,2,284,7,NA
fcp-trial,334,1306742,0.0-295.0-0.0,voc_e2,12060,"[{""event"":""fullscreenenter"",""trial"":1,""time"":3271},{""event"":""fullscreenenter"",""trial"":1,""time"":3271}]",NA,NA,NA,NA,NA,2,#741CD8,#D8271C,10,0,1,38,1,802,37,1,548,10,1,experiment,NA,NA,2,0.5,0.5,4,5,285,7,NA
fcp-trial,335,1310669,0.0-296.0-0.0,voc_e2,12060,"[{""event"":""fullscreenenter"",""trial"":1,""time"":3271},{""event"":""fullscreenenter"",""trial"":1,""time"":3271}]",NA,NA,NA,NA,NA,4,#741CD8,#D8271C,10,0,1,40,0,1571,37,1,835,10,1,experiment,NA,NA,2,0.5,0.5,4,5,286,7,NA
fcp-trial,336,1313451,0.0-297.0-0.0,voc_e2,12060,"[{""event"":""fullscreenenter"",""trial"":1,""time"":3271},{""event"":""fullscreenenter"",""trial"":1,""time"":3271}]",NA,NA,NA,NA,NA,2,#3386FF,#D89F1C,0,10,0,40,0,709.0000000002328,37,1,565.9999999997672,0,0,experiment,NA,NA,0,0.1,0.9,1,0,287,7,NA
fcp-trial,337,1316341,0.0-298.0-0.0,voc_e2,12060,"[{""event"":""fullscreenenter"",""trial"":1,""time"":3271},{""event"":""fullscreenenter"",""trial"":1,""time"":3271}]",NA,NA,NA,NA,NA,6,#D89F1C,#3386FF,10,10,1,38,1,1026,37,1,355,10,1,experiment,NA,NA,0,0.9,0.1,0,1,288,7,NA
fcp-trial,338,1319926,0.0-299.0-0.0,voc_e2,12060,"[{""event"":""fullscreenenter"",""trial"":1,""time"":3271},{""event"":""fullscreenenter"",""trial"":1,""time"":3271}]",NA,NA,NA,NA,NA,1,#FA92F8,#1CD855,0,0,0,38,1,1208,39,0,869,0,1,experiment,NA,NA,1,0.3,0.7,3,2,289,7,NA
fcp-trial,339,1322684,0.0-300.0-0.0,voc_e2,12060,"[{""event"":""fullscreenenter"",""trial"":1,""time"":3271},{""event"":""fullscreenenter"",""trial"":1,""time"":3271}]",NA,NA,NA,NA,NA,5,#741CD8,#D8271C,10,10,1,40,0,823,37,1,415,10,1,experiment,NA,NA,2,0.5,0.5,4,5,290,7,NA
fcp-trial,340,1326723,0.0-301.0-0.0,voc_e2,12060,"[{""event"":""fullscreenenter"",""trial"":1,""time"":3271},{""event"":""fullscreenenter"",""trial"":1,""time"":3271}]",NA,NA,NA,NA,NA,1,#D89F1C,#3386FF,0,0,1,40,0,2189,37,1,337.99999999976717,0,1,experiment,NA,NA,0,0.9,0.1,0,1,291,7,NA
fcp-trial,341,1329923,0.0-302.0-0.0,voc_e2,12060,"[{""event"":""fullscreenenter"",""trial"":1,""time"":3271},{""event"":""fullscreenenter"",""trial"":1,""time"":3271}]",NA,NA,NA,NA,NA,4,#FA92F8,#1CD855,0,10,0,40,0,1096.0000000002328,37,1,594,0,0,experiment,NA,NA,1,0.3,0.7,3,2,292,7,NA
fcp-trial,342,1332952,0.0-303.0-0.0,voc_e2,12060,"[{""event"":""fullscreenenter"",""trial"":1,""time"":3271},{""event"":""fullscreenenter"",""trial"":1,""time"":3271}]",NA,NA,NA,NA,NA,3,#741CD8,#D8271C,10,10,1,40,0,1105,37,1,417.0000000002328,10,1,experiment,NA,NA,2,0.5,0.5,4,5,293,7,NA
fcp-trial,343,1335382,0.0-304.0-0.0,voc_e2,12060,"[{""event"":""fullscreenenter"",""trial"":1,""time"":3271},{""event"":""fullscreenenter"",""trial"":1,""time"":3271}]",NA,NA,NA,NA,NA,4,#D89F1C,#3386FF,0,10,1,40,0,559,37,1,366,0,1,experiment,NA,NA,0,0.9,0.1,0,1,294,7,NA
fcp-trial,344,1337969,0.0-305.0-0.0,voc_e2,12060,"[{""event"":""fullscreenenter"",""trial"":1,""time"":3271},{""event"":""fullscreenenter"",""trial"":1,""time"":3271}]",NA,NA,NA,NA,NA,5,#D89F1C,#3386FF,10,0,1,40,0,708,37,1,373.9999999997672,10,1,experiment,NA,NA,0,0.9,0.1,0,1,295,7,NA
fcp-trial,345,1340633,0.0-306.0-0.0,voc_e2,12060,"[{""event"":""fullscreenenter"",""trial"":1,""time"":3271},{""event"":""fullscreenenter"",""trial"":1,""time"":3271}]",NA,NA,NA,NA,NA,4,#D8271C,#741CD8,0,0,0,40,0,775.0000000002328,39,0,383.0000000002328,0,1,experiment,NA,NA,2,0.5,0.5,5,4,296,7,NA
fcp-trial,346,1343641,0.0-307.0-0.0,voc_e2,12060,"[{""event"":""fullscreenenter"",""trial"":1,""time"":3271},{""event"":""fullscreenenter"",""trial"":1,""time"":3271}]",NA,NA,NA,NA,NA,1,#D89F1C,#3386FF,10,0,1,40,0,1036,37,1,463,10,1,experiment,NA,NA,0,0.9,0.1,0,1,297,7,NA
fcp-trial,347,1346861,0.0-308.0-0.0,voc_e2,12060,"[{""event"":""fullscreenenter"",""trial"":1,""time"":3271},{""event"":""fullscreenenter"",""trial"":1,""time"":3271}]",NA,NA,NA,NA,NA,4,#1CD855,#FA92F8,10,10,1,40,0,1096,37,1,615,10,1,experiment,NA,NA,1,0.7,0.3,2,3,298,7,NA
fcp-trial,348,1349740,0.0-309.0-0.0,voc_e2,12060,"[{""event"":""fullscreenenter"",""trial"":1,""time"":3271},{""event"":""fullscreenenter"",""trial"":1,""time"":3271}]",NA,NA,NA,NA,NA,6,#1CD855,#FA92F8,10,0,1,40,0,858,37,1,503,10,1,experiment,NA,NA,1,0.7,0.3,2,3,299,7,NA
fcp-trial,349,1352309,0.0-310.0-0.0,voc_e2,12060,"[{""event"":""fullscreenenter"",""trial"":1,""time"":3271},{""event"":""fullscreenenter"",""trial"":1,""time"":3271}]",NA,NA,NA,NA,NA,5,#D8271C,#741CD8,10,0,0,40,0,605,39,0,456,0,1,experiment,NA,NA,2,0.5,0.5,5,4,300,7,NA
fcp-trial,350,1354701,0.0-311.0-0.0,voc_e2,12060,"[{""event"":""fullscreenenter"",""trial"":1,""time"":3271},{""event"":""fullscreenenter"",""trial"":1,""time"":3271}]",NA,NA,NA,NA,NA,6,#3386FF,#D89F1C,0,10,0,40,0,472.99999999976717,37,1,400,0,0,experiment,NA,NA,0,0.1,0.9,1,0,301,7,NA
fcp-trial,351,1357567,0.0-312.0-0.0,voc_e2,12060,"[{""event"":""fullscreenenter"",""trial"":1,""time"":3271},{""event"":""fullscreenenter"",""trial"":1,""time"":3271}]",NA,NA,NA,NA,NA,5,#1CD855,#FA92F8,0,0,1,40,0,817,37,1,540.0000000002328,0,1,experiment,NA,NA,1,0.7,0.3,2,3,302,7,NA
fcp-trial,352,1360374,0.0-313.0-0.0,voc_e2,12060,"[{""event"":""fullscreenenter"",""trial"":1,""time"":3271},{""event"":""fullscreenenter"",""trial"":1,""time"":3271}]",NA,NA,NA,NA,NA,1,#D8271C,#741CD8,10,10,0,38,1,812,39,0,489,10,1,experiment,NA,NA,2,0.5,0.5,5,4,303,7,NA
fcp-trial,353,1362834,0.0-314.0-0.0,voc_e2,12060,"[{""event"":""fullscreenenter"",""trial"":1,""time"":3271},{""event"":""fullscreenenter"",""trial"":1,""time"":3271}]",NA,NA,NA,NA,NA,4,#3386FF,#D89F1C,0,10,0,38,1,530,37,1,421.9999999997672,0,0,experiment,NA,NA,0,0.1,0.9,1,0,304,7,NA
fcp-trial,354,1365517,0.0-315.0-0.0,voc_e2,12060,"[{""event"":""fullscreenenter"",""trial"":1,""time"":3271},{""event"":""fullscreenenter"",""trial"":1,""time"":3271}]",NA,NA,NA,NA,NA,3,#FA92F8,#1CD855,0,0,0,38,1,793,37,1,383,0,0,experiment,NA,NA,1,0.3,0.7,3,2,305,7,NA
fcp-trial,355,1368016,0.0-316.0-0.0,voc_e2,12060,"[{""event"":""fullscreenenter"",""trial"":1,""time"":3271},{""event"":""fullscreenenter"",""trial"":1,""time"":3271}]",NA,NA,NA,NA,NA,6,#741CD8,#D8271C,0,0,1,40,0,647,37,1,346,0,1,experiment,NA,NA,2,0.5,0.5,4,5,306,7,NA
fcp-trial,356,1370543,0.0-317.0-0.0,voc_e2,12060,"[{""event"":""fullscreenenter"",""trial"":1,""time"":3271},{""event"":""fullscreenenter"",""trial"":1,""time"":3271}]",NA,NA,NA,NA,NA,2,#1CD855,#FA92F8,10,0,1,40,0,595,39,0,424,0,0,experiment,NA,NA,1,0.7,0.3,2,3,307,7,NA
fcp-trial,357,1373100,0.0-318.0-0.0,voc_e2,12060,"[{""event"":""fullscreenenter"",""trial"":1,""time"":3271},{""event"":""fullscreenenter"",""trial"":1,""time"":3271}]",NA,NA,NA,NA,NA,0,#3386FF,#D89F1C,0,0,0,38,1,706,37,1,334,0,0,experiment,NA,NA,0,0.1,0.9,1,0,308,7,NA
