trial_type,trial_index,time_elapsed,internal_node_id,task_version,subject_id,interactions,success,rt,stimulus,key_press,button_pressed,offer,arcade_color_L,arcade_color_R,arcade_outcome_L,arcade_outcome_R,correct,stage_1_key,stage_1_choice,stage_1_rt,stage_2_key,stage_2_choice,stage_2_rt,stage_3_outcome,accuracy,phase,responses,num_errors,context,reward_prob_L,reward_prob_R,arcade_id_L,arcade_id_R,trial,block,response
pavlovia,0,13,0.0-0.0,voc_e2,11669,[],NA,NA,NA,NA,NA,NA,NA,NA,NA,NA,NA,NA,NA,NA,NA,NA,NA,NA,NA,NA,NA,NA,NA,NA,NA,NA,NA,NA,NA,NA
fullscreen,1,2983,0.0-1.0,voc_e2,11669,"[{""event"":""fullscreenenter"",""trial"":1,""time"":1996}]",TRUE,NA,NA,NA,NA,NA,NA,NA,NA,NA,NA,NA,NA,NA,NA,NA,NA,NA,NA,NA,NA,NA,NA,NA,NA,NA,NA,NA,NA,NA
audio-keyboard-response,2,7034,0.0-2.0,voc_e2,11669,"[{""event"":""fullscreenenter"",""trial"":1,""time"":1996}]",NA,3947,static/audio/beep_loop.wav,32,NA,NA,NA,NA,NA,NA,NA,NA,NA,NA,NA,NA,NA,NA,NA,NA,NA,NA,NA,NA,NA,NA,NA,NA,NA,NA
audio-test,3,12016,0.0-3.0,voc_e2,11669,"[{""event"":""fullscreenenter"",""trial"":1,""time"":1996}]",NA,NA,static/audio/turtle.wav,NA,3,NA,NA,NA,NA,NA,NA,NA,NA,NA,NA,NA,NA,NA,NA,NA,NA,NA,NA,NA,NA,NA,NA,NA,NA,NA
audio-test,4,15268,0.0-4.0,voc_e2,11669,"[{""event"":""fullscreenenter"",""trial"":1,""time"":1996}]",NA,NA,static/audio/shark.wav,NA,2,NA,NA,NA,NA,NA,NA,NA,NA,NA,NA,NA,NA,NA,NA,NA,NA,NA,NA,NA,NA,NA,NA,NA,NA,NA
audio-instructions,5,24457,0.0-5.0-0.0,voc_e2,11669,"[{""event"":""fullscreenenter"",""trial"":1,""time"":1996}]",NA,3404.5,static/audio/instructions1.wav,NA,0,NA,NA,NA,NA,NA,NA,NA,NA,NA,NA,NA,NA,NA,NA,NA,NA,NA,NA,NA,NA,NA,NA,NA,NA,NA
audio-instructions,6,34057,0.0-5.0-1.0,voc_e2,11669,"[{""event"":""fullscreenenter"",""trial"":1,""time"":1996}]",NA,2861.60000000149,static/audio/instructions2.wav,NA,0,NA,NA,NA,NA,NA,NA,NA,NA,NA,NA,NA,NA,NA,NA,NA,NA,NA,NA,NA,NA,NA,NA,NA,NA,NA
audio-instructions,7,41053,0.0-5.0-2.0,voc_e2,11669,"[{""event"":""fullscreenenter"",""trial"":1,""time"":1996}]",NA,1196.89999999851,static/audio/instructions3.wav,NA,0,NA,NA,NA,NA,NA,NA,NA,NA,NA,NA,NA,NA,NA,NA,NA,NA,NA,NA,NA,NA,NA,NA,NA,NA,NA
audio-instructions,8,59678,0.0-5.0-3.0,voc_e2,11669,"[{""event"":""fullscreenenter"",""trial"":1,""time"":1996}]",NA,5400.400000002235,static/audio/instructions4.wav,NA,0,NA,NA,NA,NA,NA,NA,NA,NA,NA,NA,NA,NA,NA,NA,NA,NA,NA,NA,NA,NA,NA,NA,NA,NA,NA
audio-instructions,9,72147,0.0-5.0-4.0,voc_e2,11669,"[{""event"":""fullscreenenter"",""trial"":1,""time"":1996}]",NA,3085.20000000298,static/audio/instructions5.wav,NA,0,NA,NA,NA,NA,NA,NA,NA,NA,NA,NA,NA,NA,NA,NA,NA,NA,NA,NA,NA,NA,NA,NA,NA,NA,NA
fcp-practice,10,101092,0.0-5.0-5.0-0.0,voc_e2,11669,"[{""event"":""fullscreenenter"",""trial"":1,""time"":1996}]",NA,NA,NA,NA,NA,NA,#EDC948,#46d3c8,10,0,1,null,null,null,37,1,27426.699999999255,10,1,practice,NA,NA,NA,NA,NA,NA,NA,NA,NA,NA
fcp-practice,11,104066,0.0-5.0-5.0-1.0,voc_e2,11669,"[{""event"":""fullscreenenter"",""trial"":1,""time"":1996}]",NA,NA,NA,NA,NA,NA,#EDC948,#46d3c8,10,0,1,null,null,null,37,1,1448.699999999255,10,1,practice,NA,NA,NA,NA,NA,NA,NA,NA,NA,NA
fcp-practice,12,106008,0.0-5.0-5.0-2.0,voc_e2,11669,"[{""event"":""fullscreenenter"",""trial"":1,""time"":1996}]",NA,NA,NA,NA,NA,NA,#EDC948,#46d3c8,0,10,1,null,null,null,37,1,431,0,1,practice,NA,NA,NA,NA,NA,NA,NA,NA,NA,NA
fcp-practice,13,107953,0.0-5.0-5.0-3.0,voc_e2,11669,"[{""event"":""fullscreenenter"",""trial"":1,""time"":1996}]",NA,NA,NA,NA,NA,NA,#EDC948,#46d3c8,10,0,1,null,null,null,37,1,439.1000000014901,10,1,practice,NA,NA,NA,NA,NA,NA,NA,NA,NA,NA
fcp-practice,14,110386,0.0-5.0-5.0-4.0,voc_e2,11669,"[{""event"":""fullscreenenter"",""trial"":1,""time"":1996}]",NA,NA,NA,NA,NA,NA,#EDC948,#46d3c8,10,0,1,null,null,null,37,1,926.1000000014901,10,1,practice,NA,NA,NA,NA,NA,NA,NA,NA,NA,NA
audio-instructions,15,132697,0.0-5.0-6.0,voc_e2,11669,"[{""event"":""fullscreenenter"",""trial"":1,""time"":1996}]",NA,4298.70000000298,static/audio/instructions6.wav,NA,0,NA,NA,NA,NA,NA,NA,NA,NA,NA,NA,NA,NA,NA,NA,NA,NA,NA,NA,NA,NA,NA,NA,NA,NA,NA
audio-instructions,16,153413,0.0-5.0-7.0,voc_e2,11669,"[{""event"":""fullscreenenter"",""trial"":1,""time"":1996}]",NA,1515.5,static/audio/instructions7.wav,NA,0,NA,NA,NA,NA,NA,NA,NA,NA,NA,NA,NA,NA,NA,NA,NA,NA,NA,NA,NA,NA,NA,NA,NA,NA,NA
audio-instructions,17,164102,0.0-5.0-8.0,voc_e2,11669,"[{""event"":""fullscreenenter"",""trial"":1,""time"":1996}]",NA,1218.800000000745,static/audio/instructions8.wav,NA,0,NA,NA,NA,NA,NA,NA,NA,NA,NA,NA,NA,NA,NA,NA,NA,NA,NA,NA,NA,NA,NA,NA,NA,NA,NA
fcp-comprehension,18,183533,0.0-5.0-9.0,voc_e2,11669,"[{""event"":""fullscreenenter"",""trial"":1,""time"":1996}]",NA,19427.5,NA,NA,NA,NA,NA,NA,NA,NA,NA,NA,NA,NA,NA,NA,NA,NA,NA,NA,"false,true",1,NA,NA,NA,NA,NA,NA,NA,NA
audio-instructions,19,190790,0.0-5.1-0.1,voc_e2,11669,"[{""event"":""fullscreenenter"",""trial"":1,""time"":1996}]",NA,2477.10000000149,static/audio/instructions1.wav,NA,0,NA,NA,NA,NA,NA,NA,NA,NA,NA,NA,NA,NA,NA,NA,NA,NA,NA,NA,NA,NA,NA,NA,NA,NA,NA
audio-instructions,20,199008,0.0-5.1-1.1,voc_e2,11669,"[{""event"":""fullscreenenter"",""trial"":1,""time"":1996}]",NA,1478.5,static/audio/instructions2.wav,NA,0,NA,NA,NA,NA,NA,NA,NA,NA,NA,NA,NA,NA,NA,NA,NA,NA,NA,NA,NA,NA,NA,NA,NA,NA,NA
audio-instructions,21,206571,0.0-5.1-2.1,voc_e2,11669,"[{""event"":""fullscreenenter"",""trial"":1,""time"":1996}]",NA,1767.699999999255,static/audio/instructions3.wav,NA,0,NA,NA,NA,NA,NA,NA,NA,NA,NA,NA,NA,NA,NA,NA,NA,NA,NA,NA,NA,NA,NA,NA,NA,NA,NA
audio-instructions,22,220389,0.0-5.1-3.1,voc_e2,11669,"[{""event"":""fullscreenenter"",""trial"":1,""time"":1996}]",NA,588.5,static/audio/instructions4.wav,NA,0,NA,NA,NA,NA,NA,NA,NA,NA,NA,NA,NA,NA,NA,NA,NA,NA,NA,NA,NA,NA,NA,NA,NA,NA,NA
audio-instructions,23,230383,0.0-5.1-4.1,voc_e2,11669,"[{""event"":""fullscreenenter"",""trial"":1,""time"":1996}]",NA,609.1999999992549,static/audio/instructions5.wav,NA,0,NA,NA,NA,NA,NA,NA,NA,NA,NA,NA,NA,NA,NA,NA,NA,NA,NA,NA,NA,NA,NA,NA,NA,NA,NA
fcp-practice,24,234096,0.0-5.1-5.1-0.1,voc_e2,11669,"[{""event"":""fullscreenenter"",""trial"":1,""time"":1996}]",NA,NA,NA,NA,NA,NA,#EDC948,#46d3c8,10,0,1,null,null,null,37,1,2204.7000000029802,10,1,practice,NA,NA,NA,NA,NA,NA,NA,NA,NA,NA
fcp-practice,25,236032,0.0-5.1-5.1-1.1,voc_e2,11669,"[{""event"":""fullscreenenter"",""trial"":1,""time"":1996}]",NA,NA,NA,NA,NA,NA,#EDC948,#46d3c8,10,0,1,null,null,null,37,1,422.19999999925494,10,1,practice,NA,NA,NA,NA,NA,NA,NA,NA,NA,NA
fcp-practice,26,237863,0.0-5.1-5.1-2.1,voc_e2,11669,"[{""event"":""fullscreenenter"",""trial"":1,""time"":1996}]",NA,NA,NA,NA,NA,NA,#EDC948,#46d3c8,0,10,1,null,null,null,37,1,325.70000000298023,0,1,practice,NA,NA,NA,NA,NA,NA,NA,NA,NA,NA
fcp-practice,27,239712,0.0-5.1-5.1-3.1,voc_e2,11669,"[{""event"":""fullscreenenter"",""trial"":1,""time"":1996}]",NA,NA,NA,NA,NA,NA,#EDC948,#46d3c8,10,0,1,null,null,null,37,1,342.8999999985099,10,1,practice,NA,NA,NA,NA,NA,NA,NA,NA,NA,NA
fcp-practice,28,241577,0.0-5.1-5.1-4.1,voc_e2,11669,"[{""event"":""fullscreenenter"",""trial"":1,""time"":1996}]",NA,NA,NA,NA,NA,NA,#EDC948,#46d3c8,10,0,1,null,null,null,37,1,357,10,1,practice,NA,NA,NA,NA,NA,NA,NA,NA,NA,NA
audio-instructions,29,261443,0.0-5.1-6.1,voc_e2,11669,"[{""event"":""fullscreenenter"",""trial"":1,""time"":1996}]",NA,1855.199999999255,static/audio/instructions6.wav,NA,0,NA,NA,NA,NA,NA,NA,NA,NA,NA,NA,NA,NA,NA,NA,NA,NA,NA,NA,NA,NA,NA,NA,NA,NA,NA
audio-instructions,30,281311,0.0-5.1-7.1,voc_e2,11669,"[{""event"":""fullscreenenter"",""trial"":1,""time"":1996}]",NA,667.5,static/audio/instructions7.wav,NA,0,NA,NA,NA,NA,NA,NA,NA,NA,NA,NA,NA,NA,NA,NA,NA,NA,NA,NA,NA,NA,NA,NA,NA,NA,NA
audio-instructions,31,291338,0.0-5.1-8.1,voc_e2,11669,"[{""event"":""fullscreenenter"",""trial"":1,""time"":1996}]",NA,560.0999999977648,static/audio/instructions8.wav,NA,0,NA,NA,NA,NA,NA,NA,NA,NA,NA,NA,NA,NA,NA,NA,NA,NA,NA,NA,NA,NA,NA,NA,NA,NA,NA
fcp-comprehension,32,300350,0.0-5.1-9.1,voc_e2,11669,"[{""event"":""fullscreenenter"",""trial"":1,""time"":1996}]",NA,9009.199999999257,NA,NA,NA,NA,NA,NA,NA,NA,NA,NA,NA,NA,NA,NA,NA,NA,NA,NA,"false,true",1,NA,NA,NA,NA,NA,NA,NA,NA
audio-instructions,33,305765,0.0-5.2-0.2,voc_e2,11669,"[{""event"":""fullscreenenter"",""trial"":1,""time"":1996}]",NA,641.5,static/audio/instructions1.wav,NA,0,NA,NA,NA,NA,NA,NA,NA,NA,NA,NA,NA,NA,NA,NA,NA,NA,NA,NA,NA,NA,NA,NA,NA,NA,NA
audio-instructions,34,315311,0.0-5.2-1.2,voc_e2,11669,"[{""event"":""fullscreenenter"",""trial"":1,""time"":1996}]",NA,2805.699999999255,static/audio/instructions2.wav,NA,0,NA,NA,NA,NA,NA,NA,NA,NA,NA,NA,NA,NA,NA,NA,NA,NA,NA,NA,NA,NA,NA,NA,NA,NA,NA
audio-instructions,35,321913,0.0-5.2-2.2,voc_e2,11669,"[{""event"":""fullscreenenter"",""trial"":1,""time"":1996}]",NA,799.8000000007451,static/audio/instructions3.wav,NA,0,NA,NA,NA,NA,NA,NA,NA,NA,NA,NA,NA,NA,NA,NA,NA,NA,NA,NA,NA,NA,NA,NA,NA,NA,NA
audio-instructions,36,336675,0.0-5.2-3.2,voc_e2,11669,"[{""event"":""fullscreenenter"",""trial"":1,""time"":1996}]",NA,1535.5,static/audio/instructions4.wav,NA,0,NA,NA,NA,NA,NA,NA,NA,NA,NA,NA,NA,NA,NA,NA,NA,NA,NA,NA,NA,NA,NA,NA,NA,NA,NA
audio-instructions,37,346199,0.0-5.2-4.2,voc_e2,11669,"[{""event"":""fullscreenenter"",""trial"":1,""time"":1996}]",NA,136.10000000149012,static/audio/instructions5.wav,NA,0,NA,NA,NA,NA,NA,NA,NA,NA,NA,NA,NA,NA,NA,NA,NA,NA,NA,NA,NA,NA,NA,NA,NA,NA,NA
fcp-practice,38,351023,0.0-5.2-5.2-0.2,voc_e2,11669,"[{""event"":""fullscreenenter"",""trial"":1,""time"":1996}]",NA,NA,NA,NA,NA,NA,#EDC948,#46d3c8,10,0,1,null,null,null,37,1,3315.10000000149,10,1,practice,NA,NA,NA,NA,NA,NA,NA,NA,NA,NA
fcp-practice,39,353082,0.0-5.2-5.2-1.2,voc_e2,11669,"[{""event"":""fullscreenenter"",""trial"":1,""time"":1996}]",NA,NA,NA,NA,NA,NA,#EDC948,#46d3c8,10,0,1,null,null,null,37,1,554,10,1,practice,NA,NA,NA,NA,NA,NA,NA,NA,NA,NA
fcp-practice,40,355025,0.0-5.2-5.2-2.2,voc_e2,11669,"[{""event"":""fullscreenenter"",""trial"":1,""time"":1996}]",NA,NA,NA,NA,NA,NA,#EDC948,#46d3c8,0,10,1,null,null,null,37,1,437.1000000014901,0,1,practice,NA,NA,NA,NA,NA,NA,NA,NA,NA,NA
fcp-practice,41,356935,0.0-5.2-5.2-3.2,voc_e2,11669,"[{""event"":""fullscreenenter"",""trial"":1,""time"":1996}]",NA,NA,NA,NA,NA,NA,#EDC948,#46d3c8,10,0,1,null,null,null,37,1,404.6000000014901,10,1,practice,NA,NA,NA,NA,NA,NA,NA,NA,NA,NA
fcp-practice,42,358911,0.0-5.2-5.2-4.2,voc_e2,11669,"[{""event"":""fullscreenenter"",""trial"":1,""time"":1996}]",NA,NA,NA,NA,NA,NA,#EDC948,#46d3c8,10,0,1,null,null,null,37,1,470,10,1,practice,NA,NA,NA,NA,NA,NA,NA,NA,NA,NA
audio-instructions,43,378020,0.0-5.2-6.2,voc_e2,11669,"[{""event"":""fullscreenenter"",""trial"":1,""time"":1996}]",NA,1099,static/audio/instructions6.wav,NA,0,NA,NA,NA,NA,NA,NA,NA,NA,NA,NA,NA,NA,NA,NA,NA,NA,NA,NA,NA,NA,NA,NA,NA,NA,NA
audio-instructions,44,398642,0.0-5.2-7.2,voc_e2,11669,"[{""event"":""fullscreenenter"",""trial"":1,""time"":1996}]",NA,1422.5,static/audio/instructions7.wav,NA,0,NA,NA,NA,NA,NA,NA,NA,NA,NA,NA,NA,NA,NA,NA,NA,NA,NA,NA,NA,NA,NA,NA,NA,NA,NA
audio-instructions,45,409303,0.0-5.2-8.2,voc_e2,11669,"[{""event"":""fullscreenenter"",""trial"":1,""time"":1996}]",NA,1192.10000000149,static/audio/instructions8.wav,NA,0,NA,NA,NA,NA,NA,NA,NA,NA,NA,NA,NA,NA,NA,NA,NA,NA,NA,NA,NA,NA,NA,NA,NA,NA,NA
fcp-comprehension,46,438881,0.0-5.2-9.2,voc_e2,11669,"[{""event"":""fullscreenenter"",""trial"":1,""time"":1996}]",NA,29574.199999999255,NA,NA,NA,NA,NA,NA,NA,NA,NA,NA,NA,NA,NA,NA,NA,NA,NA,NA,"true,true",0,NA,NA,NA,NA,NA,NA,NA,NA
audio-instructions,47,457354,0.0-6.0-0.0,voc_e2,11669,"[{""event"":""fullscreenenter"",""trial"":1,""time"":1996}]",NA,12928.800000000743,static/audio/instructions9.wav,NA,0,NA,NA,NA,NA,NA,NA,NA,NA,NA,NA,NA,NA,NA,NA,NA,NA,NA,NA,NA,NA,NA,NA,NA,NA,NA
audio-instructions,48,478070,0.0-6.0-1.0,voc_e2,11669,"[{""event"":""fullscreenenter"",""trial"":1,""time"":1996}]",NA,8600,static/audio/instructions10.wav,NA,0,NA,NA,NA,NA,NA,NA,NA,NA,NA,NA,NA,NA,NA,NA,NA,NA,NA,NA,NA,NA,NA,NA,NA,NA,NA
fcp-trial,49,493076,0.0-6.0-2.0,voc_e2,11669,"[{""event"":""fullscreenenter"",""trial"":1,""time"":1996}]",NA,NA,NA,NA,NA,0,#EDC948,#46d3c8,10,10,1,null,null,null,null,null,null,NA,0,practice,NA,NA,NA,NA,NA,NA,NA,NA,NA,NA
audio-instructions,50,505869,0.0-6.0-3.0,voc_e2,11669,"[{""event"":""fullscreenenter"",""trial"":1,""time"":1996}]",NA,1785.300000000745,static/audio/instructions11.wav,NA,0,NA,NA,NA,NA,NA,NA,NA,NA,NA,NA,NA,NA,NA,NA,NA,NA,NA,NA,NA,NA,NA,NA,NA,NA,NA
fcp-trial,51,512502,0.0-6.0-4.0,voc_e2,11669,"[{""event"":""fullscreenenter"",""trial"":1,""time"":1996}]",NA,NA,NA,NA,NA,6,#EDC948,#46d3c8,10,10,1,40,0,1731.6000000014901,37,1,3391.300000000745,10,1,practice,NA,NA,NA,NA,NA,NA,NA,NA,NA,NA
audio-instructions,52,534595,0.0-6.0-5.0,voc_e2,11669,"[{""event"":""fullscreenenter"",""trial"":1,""time"":1996}]",NA,3407.60000000149,static/audio/instructions12.wav,NA,0,NA,NA,NA,NA,NA,NA,NA,NA,NA,NA,NA,NA,NA,NA,NA,NA,NA,NA,NA,NA,NA,NA,NA,NA,NA
audio-instructions,53,544871,0.0-6.0-6.0,voc_e2,11669,"[{""event"":""fullscreenenter"",""trial"":1,""time"":1996}]",NA,2686.400000002235,static/audio/instructions13.wav,NA,0,NA,NA,NA,NA,NA,NA,NA,NA,NA,NA,NA,NA,NA,NA,NA,NA,NA,NA,NA,NA,NA,NA,NA,NA,NA
audio-instructions,54,554102,0.0-6.0-7.0,voc_e2,11669,"[{""event"":""fullscreenenter"",""trial"":1,""time"":1996}]",NA,780.5999999977648,static/audio/instructions14.wav,NA,0,NA,NA,NA,NA,NA,NA,NA,NA,NA,NA,NA,NA,NA,NA,NA,NA,NA,NA,NA,NA,NA,NA,NA,NA,NA
audio-instructions,55,561699,0.0-7.0-0.0,voc_e2,11669,"[{""event"":""fullscreenenter"",""trial"":1,""time"":1996}]",NA,687.5999999977648,static/audio/instructions15.wav,NA,0,NA,NA,NA,NA,NA,NA,NA,NA,NA,NA,NA,NA,NA,NA,NA,NA,NA,NA,NA,NA,NA,NA,NA,NA,NA
audio-instructions,56,570480,0.0-7.0-1.0,voc_e2,11669,"[{""event"":""fullscreenenter"",""trial"":1,""time"":1996}]",NA,1959.5,static/audio/instructions16.wav,NA,0,NA,NA,NA,NA,NA,NA,NA,NA,NA,NA,NA,NA,NA,NA,NA,NA,NA,NA,NA,NA,NA,NA,NA,NA,NA
audio-instructions,57,580385,0.0-7.0-2.0,voc_e2,11669,"[{""event"":""fullscreenenter"",""trial"":1,""time"":1996}]",NA,2221.400000002235,static/audio/instructions17.wav,NA,0,NA,NA,NA,NA,NA,NA,NA,NA,NA,NA,NA,NA,NA,NA,NA,NA,NA,NA,NA,NA,NA,NA,NA,NA,NA
audio-instructions,58,588960,0.0-7.0-3.0,voc_e2,11669,"[{""event"":""fullscreenenter"",""trial"":1,""time"":1996}]",NA,812.5999999977648,static/audio/instructions18.wav,NA,0,NA,NA,NA,NA,NA,NA,NA,NA,NA,NA,NA,NA,NA,NA,NA,NA,NA,NA,NA,NA,NA,NA,NA,NA,NA
audio-instructions,59,596316,0.0-7.0-4.0,voc_e2,11669,"[{""event"":""fullscreenenter"",""trial"":1,""time"":1996}]",NA,616.4000000022352,static/audio/instructions19.wav,NA,0,NA,NA,NA,NA,NA,NA,NA,NA,NA,NA,NA,NA,NA,NA,NA,NA,NA,NA,NA,NA,NA,NA,NA,NA,NA
fcp-comprehension,60,613579,0.0-7.0-5.0,voc_e2,11669,"[{""event"":""fullscreenenter"",""trial"":1,""time"":1996}]",NA,17259.400000002235,NA,NA,NA,NA,NA,NA,NA,NA,NA,NA,NA,NA,NA,NA,NA,NA,NA,NA,"false,false,false,false",1,NA,NA,NA,NA,NA,NA,NA,NA
audio-instructions,61,623920,0.0-7.1-0.1,voc_e2,11669,"[{""event"":""fullscreenenter"",""trial"":1,""time"":1996}]",NA,3430.699999999255,static/audio/instructions15.wav,NA,0,NA,NA,NA,NA,NA,NA,NA,NA,NA,NA,NA,NA,NA,NA,NA,NA,NA,NA,NA,NA,NA,NA,NA,NA,NA
audio-instructions,62,632605,0.0-7.1-1.1,voc_e2,11669,"[{""event"":""fullscreenenter"",""trial"":1,""time"":1996}]",NA,1865.60000000149,static/audio/instructions16.wav,NA,0,NA,NA,NA,NA,NA,NA,NA,NA,NA,NA,NA,NA,NA,NA,NA,NA,NA,NA,NA,NA,NA,NA,NA,NA,NA
audio-instructions,63,641521,0.0-7.1-2.1,voc_e2,11669,"[{""event"":""fullscreenenter"",""trial"":1,""time"":1996}]",NA,1234.7000000029802,static/audio/instructions17.wav,NA,0,NA,NA,NA,NA,NA,NA,NA,NA,NA,NA,NA,NA,NA,NA,NA,NA,NA,NA,NA,NA,NA,NA,NA,NA,NA
audio-instructions,64,650285,0.0-7.1-3.1,voc_e2,11669,"[{""event"":""fullscreenenter"",""trial"":1,""time"":1996}]",NA,996,static/audio/instructions18.wav,NA,0,NA,NA,NA,NA,NA,NA,NA,NA,NA,NA,NA,NA,NA,NA,NA,NA,NA,NA,NA,NA,NA,NA,NA,NA,NA
audio-instructions,65,657627,0.0-7.1-4.1,voc_e2,11669,"[{""event"":""fullscreenenter"",""trial"":1,""time"":1996}]",NA,605,static/audio/instructions19.wav,NA,0,NA,NA,NA,NA,NA,NA,NA,NA,NA,NA,NA,NA,NA,NA,NA,NA,NA,NA,NA,NA,NA,NA,NA,NA,NA
fcp-comprehension,66,671233,0.0-7.1-5.1,voc_e2,11669,"[{""event"":""fullscreenenter"",""trial"":1,""time"":1996}]",NA,13602.10000000149,NA,NA,NA,NA,NA,NA,NA,NA,NA,NA,NA,NA,NA,NA,NA,NA,NA,NA,"false,false,false,false",1,NA,NA,NA,NA,NA,NA,NA,NA
audio-instructions,67,683713,0.0-7.2-0.2,voc_e2,11669,"[{""event"":""fullscreenenter"",""trial"":1,""time"":1996}]",NA,5570.199999999255,static/audio/instructions15.wav,NA,0,NA,NA,NA,NA,NA,NA,NA,NA,NA,NA,NA,NA,NA,NA,NA,NA,NA,NA,NA,NA,NA,NA,NA,NA,NA
audio-instructions,68,691028,0.0-7.2-1.2,voc_e2,11669,"[{""event"":""fullscreenenter"",""trial"":1,""time"":1996}]",NA,491.1000000014901,static/audio/instructions16.wav,NA,0,NA,NA,NA,NA,NA,NA,NA,NA,NA,NA,NA,NA,NA,NA,NA,NA,NA,NA,NA,NA,NA,NA,NA,NA,NA
audio-instructions,69,699192,0.0-7.2-2.2,voc_e2,11669,"[{""event"":""fullscreenenter"",""trial"":1,""time"":1996}]",NA,484.1000000014901,static/audio/instructions17.wav,NA,0,NA,NA,NA,NA,NA,NA,NA,NA,NA,NA,NA,NA,NA,NA,NA,NA,NA,NA,NA,NA,NA,NA,NA,NA,NA
audio-instructions,70,707412,0.0-7.2-3.2,voc_e2,11669,"[{""event"":""fullscreenenter"",""trial"":1,""time"":1996}]",NA,459.6000000014901,static/audio/instructions18.wav,NA,0,NA,NA,NA,NA,NA,NA,NA,NA,NA,NA,NA,NA,NA,NA,NA,NA,NA,NA,NA,NA,NA,NA,NA,NA,NA
audio-instructions,71,717303,0.0-7.2-4.2,voc_e2,11669,"[{""event"":""fullscreenenter"",""trial"":1,""time"":1996}]",NA,3149.5,static/audio/instructions19.wav,NA,0,NA,NA,NA,NA,NA,NA,NA,NA,NA,NA,NA,NA,NA,NA,NA,NA,NA,NA,NA,NA,NA,NA,NA,NA,NA
fcp-comprehension,72,726927,0.0-7.2-5.2,voc_e2,11669,"[{""event"":""fullscreenenter"",""trial"":1,""time"":1996}]",NA,9621.300000000743,NA,NA,NA,NA,NA,NA,NA,NA,NA,NA,NA,NA,NA,NA,NA,NA,NA,NA,"false,false,false,true",0,NA,NA,NA,NA,NA,NA,NA,NA
audio-instructions,73,738676,0.0-8.0,voc_e2,11669,"[{""event"":""fullscreenenter"",""trial"":1,""time"":1996}]",NA,2527.89999999851,static/audio/ready.wav,NA,0,NA,NA,NA,NA,NA,NA,NA,NA,NA,NA,NA,NA,NA,NA,NA,NA,NA,NA,NA,NA,NA,NA,NA,NA,NA
fcp-trial,74,746585,0.0-9.0-0.0,voc_e2,11669,"[{""event"":""fullscreenenter"",""trial"":1,""time"":1996}]",NA,NA,NA,NA,NA,5,#FA92F8,#1CD855,0,10,0,38,1,3117.300000000745,37,1,3282,0,0,experiment,NA,NA,1,0.3,0.7,3,2,1,1,NA
fcp-trial,75,753843,0.0-10.0-0.0,voc_e2,11669,"[{""event"":""fullscreenenter"",""trial"":1,""time"":1996}]",NA,NA,NA,NA,NA,4,#FA92F8,#1CD855,10,10,0,40,0,3337.39999999851,39,0,2408.199999999255,10,1,experiment,NA,NA,1,0.3,0.7,3,2,2,1,NA
fcp-trial,76,760412,0.0-11.0-0.0,voc_e2,11669,"[{""event"":""fullscreenenter"",""trial"":1,""time"":1996}]",NA,NA,NA,NA,NA,2,#D89F1C,#3386FF,0,10,0,40,0,2382.89999999851,37,1,2678.400000002235,0,0,experiment,NA,NA,0,0.1,0.9,1,0,3,1,NA
fcp-trial,77,768105,0.0-12.0-0.0,voc_e2,11669,"[{""event"":""fullscreenenter"",""trial"":1,""time"":1996}]",NA,NA,NA,NA,NA,0,#FA92F8,#1CD855,0,10,0,38,1,2606.39999999851,37,1,3578.5,0,0,experiment,NA,NA,1,0.3,0.7,3,2,4,1,NA
fcp-trial,78,773244,0.0-13.0-0.0,voc_e2,11669,"[{""event"":""fullscreenenter"",""trial"":1,""time"":1996}]",NA,NA,NA,NA,NA,2,#FA92F8,#1CD855,10,10,0,40,0,2149.699999999255,37,1,1459.0999999977648,10,0,experiment,NA,NA,1,0.3,0.7,3,2,5,1,NA
fcp-trial,79,777794,0.0-14.0-0.0,voc_e2,11669,"[{""event"":""fullscreenenter"",""trial"":1,""time"":1996}]",NA,NA,NA,NA,NA,5,#D8271C,#741CD8,0,10,0,40,0,1890.6000000014901,37,1,1125.3999999985099,0,0,experiment,NA,NA,2,0.5,0.5,5,4,6,1,NA
fcp-trial,80,781646,0.0-15.0-0.0,voc_e2,11669,"[{""event"":""fullscreenenter"",""trial"":1,""time"":1996}]",NA,NA,NA,NA,NA,6,#D89F1C,#3386FF,0,10,0,40,0,976.3999999985099,39,0,1359.4000000022352,10,1,experiment,NA,NA,0,0.1,0.9,1,0,7,1,NA
fcp-trial,81,786352,0.0-16.0-0.0,voc_e2,11669,"[{""event"":""fullscreenenter"",""trial"":1,""time"":1996}]",NA,NA,NA,NA,NA,3,#FA92F8,#1CD855,10,10,0,40,0,1905.300000000745,37,1,1274.300000000745,10,0,experiment,NA,NA,1,0.3,0.7,3,2,8,1,NA
fcp-trial,82,790164,0.0-17.0-0.0,voc_e2,11669,"[{""event"":""fullscreenenter"",""trial"":1,""time"":1996}]",NA,NA,NA,NA,NA,3,#D89F1C,#3386FF,0,10,0,40,0,1162.6000000014901,39,0,1136.5,10,1,experiment,NA,NA,0,0.1,0.9,1,0,9,1,NA
fcp-trial,83,793453,0.0-18.0-0.0,voc_e2,11669,"[{""event"":""fullscreenenter"",""trial"":1,""time"":1996}]",NA,NA,NA,NA,NA,6,#741CD8,#D8271C,0,0,1,40,0,1048.5999999977648,39,0,713.0999999977648,0,0,experiment,NA,NA,2,0.5,0.5,4,5,10,1,NA
fcp-trial,84,797025,0.0-19.0-0.0,voc_e2,11669,"[{""event"":""fullscreenenter"",""trial"":1,""time"":1996}]",NA,NA,NA,NA,NA,4,#741CD8,#D8271C,10,10,1,40,0,1149.300000000745,39,0,908.5,10,0,experiment,NA,NA,2,0.5,0.5,4,5,11,1,NA
fcp-trial,85,801769,0.0-20.0-0.0,voc_e2,11669,"[{""event"":""fullscreenenter"",""trial"":1,""time"":1996}]",NA,NA,NA,NA,NA,1,#FA92F8,#1CD855,10,0,0,38,1,1532.4000000022352,37,1,1704.699999999255,10,0,experiment,NA,NA,1,0.3,0.7,3,2,12,1,NA
fcp-trial,86,806686,0.0-21.0-0.0,voc_e2,11669,"[{""event"":""fullscreenenter"",""trial"":1,""time"":1996}]",NA,NA,NA,NA,NA,4,#D89F1C,#3386FF,0,0,0,38,1,2503.10000000149,37,1,883.7999999970198,0,0,experiment,NA,NA,0,0.1,0.9,1,0,13,1,NA
fcp-trial,87,810855,0.0-22.0-0.0,voc_e2,11669,"[{""event"":""fullscreenenter"",""trial"":1,""time"":1996}]",NA,NA,NA,NA,NA,1,#D89F1C,#3386FF,0,10,0,38,1,1764.8999999985099,37,1,892.1000000014901,0,0,experiment,NA,NA,0,0.1,0.9,1,0,14,1,NA
fcp-trial,88,815220,0.0-23.0-0.0,voc_e2,11669,"[{""event"":""fullscreenenter"",""trial"":1,""time"":1996}]",NA,NA,NA,NA,NA,1,#741CD8,#D8271C,10,0,1,38,1,1089.1000000014901,39,0,1760.199999999255,0,0,experiment,NA,NA,2,0.5,0.5,4,5,15,1,NA
fcp-trial,89,819117,0.0-24.0-0.0,voc_e2,11669,"[{""event"":""fullscreenenter"",""trial"":1,""time"":1996}]",NA,NA,NA,NA,NA,5,#3386FF,#D89F1C,10,0,1,40,0,1349.2000000029802,39,0,1018.6999999992549,0,0,experiment,NA,NA,0,0.9,0.1,0,1,16,1,NA
fcp-trial,90,823530,0.0-25.0-0.0,voc_e2,11669,"[{""event"":""fullscreenenter"",""trial"":1,""time"":1996}]",NA,NA,NA,NA,NA,6,#1CD855,#FA92F8,0,0,1,40,0,2186.900000002235,39,0,692.3000000007451,0,0,experiment,NA,NA,1,0.7,0.3,2,3,17,1,NA
fcp-trial,91,827482,0.0-26.0-0.0,voc_e2,11669,"[{""event"":""fullscreenenter"",""trial"":1,""time"":1996}]",NA,NA,NA,NA,NA,3,#741CD8,#D8271C,10,0,1,40,0,1468.1000000014901,37,1,976.6000000014901,10,1,experiment,NA,NA,2,0.5,0.5,4,5,18,1,NA
fcp-trial,92,832422,0.0-27.0-0.0,voc_e2,11669,"[{""event"":""fullscreenenter"",""trial"":1,""time"":1996}]",NA,NA,NA,NA,NA,0,#D8271C,#741CD8,0,10,0,38,1,1522,39,0,1891.6000000014901,10,1,experiment,NA,NA,2,0.5,0.5,5,4,19,1,NA
fcp-trial,93,836735,0.0-28.0-0.0,voc_e2,11669,"[{""event"":""fullscreenenter"",""trial"":1,""time"":1996}]",NA,NA,NA,NA,NA,2,#D8271C,#741CD8,0,10,0,40,0,1895.3999999985099,39,0,900.9000000022352,10,1,experiment,NA,NA,2,0.5,0.5,5,4,20,1,NA
fcp-trial,94,840899,0.0-29.0-0.0,voc_e2,11669,"[{""event"":""fullscreenenter"",""trial"":1,""time"":1996}]",NA,NA,NA,NA,NA,0,#3386FF,#D89F1C,10,0,1,38,1,1829.8999999985099,37,1,827.3000000007451,10,1,experiment,NA,NA,0,0.9,0.1,0,1,21,1,NA
fcp-trial,95,845499,0.0-30.0-0.0,voc_e2,11669,"[{""event"":""fullscreenenter"",""trial"":1,""time"":1996}]",NA,NA,NA,NA,NA,1,#741CD8,#D8271C,0,10,1,38,1,1843.6000000014901,37,1,1246.6000000014901,0,1,experiment,NA,NA,2,0.5,0.5,4,5,22,1,NA
fcp-trial,96,849300,0.0-31.0-0.0,voc_e2,11669,"[{""event"":""fullscreenenter"",""trial"":1,""time"":1996}]",NA,NA,NA,NA,NA,0,#D89F1C,#3386FF,0,10,0,38,1,1570.6000000014901,37,1,721.7999999970198,0,0,experiment,NA,NA,0,0.1,0.9,1,0,23,1,NA
fcp-trial,97,853119,0.0-32.0-0.0,voc_e2,11669,"[{""event"":""fullscreenenter"",""trial"":1,""time"":1996}]",NA,NA,NA,NA,NA,0,#1CD855,#FA92F8,0,0,1,40,0,744.5999999977648,37,1,1547.199999999255,0,1,experiment,NA,NA,1,0.7,0.3,2,3,24,1,NA
fcp-trial,98,857560,0.0-33.0-0.0,voc_e2,11669,"[{""event"":""fullscreenenter"",""trial"":1,""time"":1996}]",NA,NA,NA,NA,NA,5,#3386FF,#D89F1C,10,0,1,40,0,1429.300000000745,37,1,1485.8999999985099,10,1,experiment,NA,NA,0,0.9,0.1,0,1,25,1,NA
fcp-trial,99,861057,0.0-34.0-0.0,voc_e2,11669,"[{""event"":""fullscreenenter"",""trial"":1,""time"":1996}]",NA,NA,NA,NA,NA,4,#741CD8,#D8271C,10,10,1,40,0,888.3000000007451,39,0,1088.5,10,0,experiment,NA,NA,2,0.5,0.5,4,5,26,1,NA
fcp-trial,100,866640,0.0-35.0-0.0,voc_e2,11669,"[{""event"":""fullscreenenter"",""trial"":1,""time"":1996}]",NA,NA,NA,NA,NA,3,#741CD8,#D8271C,10,10,1,40,0,2102.699999999255,39,0,1955.2000000029802,10,0,experiment,NA,NA,2,0.5,0.5,4,5,27,1,NA
fcp-trial,101,870988,0.0-36.0-0.0,voc_e2,11669,"[{""event"":""fullscreenenter"",""trial"":1,""time"":1996}]",NA,NA,NA,NA,NA,2,#FA92F8,#1CD855,0,0,0,40,0,1725.6000000014901,37,1,1094.300000000745,0,0,experiment,NA,NA,1,0.3,0.7,3,2,28,1,NA
fcp-trial,102,875623,0.0-37.0-0.0,voc_e2,11669,"[{""event"":""fullscreenenter"",""trial"":1,""time"":1996}]",NA,NA,NA,NA,NA,0,#741CD8,#D8271C,0,0,1,38,1,1816.9000000022352,39,0,1297.8999999985099,0,0,experiment,NA,NA,2,0.5,0.5,4,5,29,1,NA
fcp-trial,103,880546,0.0-38.0-0.0,voc_e2,11669,"[{""event"":""fullscreenenter"",""trial"":1,""time"":1996}]",NA,NA,NA,NA,NA,1,#3386FF,#D89F1C,10,10,1,38,1,2486.300000000745,39,0,907,10,0,experiment,NA,NA,0,0.9,0.1,0,1,30,1,NA
fcp-trial,104,883766,0.0-39.0-0.0,voc_e2,11669,"[{""event"":""fullscreenenter"",""trial"":1,""time"":1996}]",NA,NA,NA,NA,NA,6,#3386FF,#D89F1C,10,0,1,40,0,1125.5,39,0,585.1999999992549,0,0,experiment,NA,NA,0,0.9,0.1,0,1,31,1,NA
fcp-trial,105,888413,0.0-40.0-0.0,voc_e2,11669,"[{""event"":""fullscreenenter"",""trial"":1,""time"":1996}]",NA,NA,NA,NA,NA,1,#1CD855,#FA92F8,10,0,1,38,1,2303.300000000745,37,1,828.8000000007451,10,1,experiment,NA,NA,1,0.7,0.3,2,3,32,1,NA
fcp-trial,106,892990,0.0-41.0-0.0,voc_e2,11669,"[{""event"":""fullscreenenter"",""trial"":1,""time"":1996}]",NA,NA,NA,NA,NA,4,#D89F1C,#3386FF,0,10,0,38,1,2418.300000000745,37,1,652.3000000007451,0,0,experiment,NA,NA,0,0.1,0.9,1,0,33,1,NA
fcp-trial,107,896393,0.0-42.0-0.0,voc_e2,11669,"[{""event"":""fullscreenenter"",""trial"":1,""time"":1996}]",NA,NA,NA,NA,NA,2,#741CD8,#D8271C,0,0,1,40,0,1281.699999999255,39,0,604.2000000029802,0,0,experiment,NA,NA,2,0.5,0.5,4,5,34,1,NA
fcp-trial,108,899675,0.0-43.0-0.0,voc_e2,11669,"[{""event"":""fullscreenenter"",""trial"":1,""time"":1996}]",NA,NA,NA,NA,NA,5,#1CD855,#FA92F8,10,0,1,40,0,1048.800000000745,39,0,720,0,0,experiment,NA,NA,1,0.7,0.3,2,3,35,1,NA
fcp-trial,109,903649,0.0-44.0-0.0,voc_e2,11669,"[{""event"":""fullscreenenter"",""trial"":1,""time"":1996}]",NA,NA,NA,NA,NA,6,#FA92F8,#1CD855,10,0,0,40,0,1228.800000000745,39,0,1230.2000000029802,0,1,experiment,NA,NA,1,0.3,0.7,3,2,36,1,NA
fcp-trial,110,908138,0.0-45.0-0.0,voc_e2,11669,"[{""event"":""fullscreenenter"",""trial"":1,""time"":1996}]",NA,NA,NA,NA,NA,2,#D89F1C,#3386FF,0,10,0,40,0,918.2000000029802,39,0,2053.2000000029802,10,1,experiment,NA,NA,0,0.1,0.9,1,0,37,1,NA
fcp-trial,111,911830,0.0-46.0-0.0,voc_e2,11669,"[{""event"":""fullscreenenter"",""trial"":1,""time"":1996}]",NA,NA,NA,NA,NA,5,#741CD8,#D8271C,10,10,1,40,0,766.8999999985099,39,0,1397.300000000745,10,0,experiment,NA,NA,2,0.5,0.5,4,5,38,1,NA
fcp-trial,112,915674,0.0-47.0-0.0,voc_e2,11669,"[{""event"":""fullscreenenter"",""trial"":1,""time"":1996}]",NA,NA,NA,NA,NA,4,#FA92F8,#1CD855,0,10,0,40,0,612.8000000007451,37,1,1703.5,0,0,experiment,NA,NA,1,0.3,0.7,3,2,39,1,NA
fcp-trial,113,919388,0.0-48.0-0.0,voc_e2,11669,"[{""event"":""fullscreenenter"",""trial"":1,""time"":1996}]",NA,NA,NA,NA,NA,3,#3386FF,#D89F1C,10,10,1,40,0,914.0999999977648,37,1,1270.5,10,1,experiment,NA,NA,0,0.9,0.1,0,1,40,1,NA
fcp-trial,114,922411,0.0-49.0-0.0,voc_e2,11669,"[{""event"":""fullscreenenter"",""trial"":1,""time"":1996}]",NA,NA,NA,NA,NA,3,#FA92F8,#1CD855,0,10,0,40,0,802.1000000014901,39,0,691.6999999992549,10,1,experiment,NA,NA,1,0.3,0.7,3,2,41,1,NA
fcp-trial,115,925000,0.0-50.0-0.0,voc_e2,11669,"[{""event"":""fullscreenenter"",""trial"":1,""time"":1996}]",NA,NA,NA,NA,NA,6,#D8271C,#741CD8,10,10,0,40,0,522.3000000007451,39,0,536.6999999992549,10,1,experiment,NA,NA,2,0.5,0.5,5,4,42,1,NA
fcp-trial,116,927489,0.0-51.0-0.0,voc_e2,11669,"[{""event"":""fullscreenenter"",""trial"":1,""time"":1996}]",NA,NA,NA,NA,NA,3,#D89F1C,#3386FF,10,10,0,40,0,533.6999999992549,39,0,446.1000000014901,10,1,experiment,NA,NA,0,0.1,0.9,1,0,43,1,NA
fcp-trial,117,930595,0.0-52.0-0.0,voc_e2,11669,"[{""event"":""fullscreenenter"",""trial"":1,""time"":1996}]",NA,NA,NA,NA,NA,1,#741CD8,#D8271C,0,0,1,40,0,504.5999999977648,37,1,1070.8999999985099,0,1,experiment,NA,NA,2,0.5,0.5,4,5,44,1,NA
fcp-trial,118,933788,0.0-53.0-0.0,voc_e2,11669,"[{""event"":""fullscreenenter"",""trial"":1,""time"":1996}]",NA,NA,NA,NA,NA,4,#FA92F8,#1CD855,0,10,0,40,0,837.1999999992549,37,1,827.0999999977648,0,0,experiment,NA,NA,1,0.3,0.7,3,2,45,1,NA
fcp-trial,119,938811,0.0-54.0-0.0,voc_e2,11669,"[{""event"":""fullscreenenter"",""trial"":1,""time"":1996}]",NA,NA,NA,NA,NA,0,#1CD855,#FA92F8,10,0,1,38,1,1707.3999999985099,37,1,1787.4000000022352,10,1,experiment,NA,NA,1,0.7,0.3,2,3,46,2,NA
fcp-trial,120,943619,0.0-55.0-0.0,voc_e2,11669,"[{""event"":""fullscreenenter"",""trial"":1,""time"":1996}]",NA,NA,NA,NA,NA,0,#3386FF,#D89F1C,10,0,1,38,1,1680.5999999977648,39,0,1610,0,0,experiment,NA,NA,0,0.9,0.1,0,1,47,2,NA
fcp-trial,121,948357,0.0-56.0-0.0,voc_e2,11669,"[{""event"":""fullscreenenter"",""trial"":1,""time"":1996}]",NA,NA,NA,NA,NA,3,#FA92F8,#1CD855,10,10,0,38,1,2334.300000000745,37,1,896,10,0,experiment,NA,NA,1,0.3,0.7,3,2,48,2,NA
fcp-trial,122,952693,0.0-57.0-0.0,voc_e2,11669,"[{""event"":""fullscreenenter"",""trial"":1,""time"":1996}]",NA,NA,NA,NA,NA,5,#D8271C,#741CD8,0,10,0,40,0,2206.400000002235,39,0,598.7999999970198,10,1,experiment,NA,NA,2,0.5,0.5,5,4,49,2,NA
fcp-trial,123,956831,0.0-58.0-0.0,voc_e2,11669,"[{""event"":""fullscreenenter"",""trial"":1,""time"":1996}]",NA,NA,NA,NA,NA,4,#741CD8,#D8271C,0,10,1,40,0,1726.6000000014901,37,1,897.2000000029802,0,1,experiment,NA,NA,2,0.5,0.5,4,5,50,2,NA
fcp-trial,124,960636,0.0-59.0-0.0,voc_e2,11669,"[{""event"":""fullscreenenter"",""trial"":1,""time"":1996}]",NA,NA,NA,NA,NA,2,#D89F1C,#3386FF,0,10,0,38,1,1429.8999999985099,37,1,862,0,0,experiment,NA,NA,0,0.1,0.9,1,0,51,2,NA
fcp-trial,125,963986,0.0-60.0-0.0,voc_e2,11669,"[{""event"":""fullscreenenter"",""trial"":1,""time"":1996}]",NA,NA,NA,NA,NA,5,#FA92F8,#1CD855,0,0,0,38,1,995.6999999992549,37,1,847.6999999992549,0,0,experiment,NA,NA,1,0.3,0.7,3,2,52,2,NA
fcp-trial,126,967381,0.0-61.0-0.0,voc_e2,11669,"[{""event"":""fullscreenenter"",""trial"":1,""time"":1996}]",NA,NA,NA,NA,NA,2,#D8271C,#741CD8,0,10,0,40,0,901.1000000014901,37,1,987.0999999977648,0,0,experiment,NA,NA,2,0.5,0.5,5,4,53,2,NA
fcp-trial,127,970811,0.0-62.0-0.0,voc_e2,11669,"[{""event"":""fullscreenenter"",""trial"":1,""time"":1996}]",NA,NA,NA,NA,NA,0,#741CD8,#D8271C,10,0,1,38,1,1144.4000000022352,37,1,773.1999999992549,10,1,experiment,NA,NA,2,0.5,0.5,4,5,54,2,NA
fcp-trial,128,974488,0.0-63.0-0.0,voc_e2,11669,"[{""event"":""fullscreenenter"",""trial"":1,""time"":1996}]",NA,NA,NA,NA,NA,1,#D89F1C,#3386FF,0,10,0,38,1,1141.0999999977648,37,1,1007.5,0,0,experiment,NA,NA,0,0.1,0.9,1,0,55,2,NA
fcp-trial,129,978406,0.0-64.0-0.0,voc_e2,11669,"[{""event"":""fullscreenenter"",""trial"":1,""time"":1996}]",NA,NA,NA,NA,NA,6,#D8271C,#741CD8,10,0,0,40,0,1187.5,37,1,1197.8999999985099,10,0,experiment,NA,NA,2,0.5,0.5,5,4,56,2,NA
fcp-trial,130,981578,0.0-65.0-0.0,voc_e2,11669,"[{""event"":""fullscreenenter"",""trial"":1,""time"":1996}]",NA,NA,NA,NA,NA,2,#FA92F8,#1CD855,0,0,0,38,1,817.5,39,0,821.5,0,1,experiment,NA,NA,1,0.3,0.7,3,2,57,2,NA
fcp-trial,131,985381,0.0-66.0-0.0,voc_e2,11669,"[{""event"":""fullscreenenter"",""trial"":1,""time"":1996}]",NA,NA,NA,NA,NA,4,#3386FF,#D89F1C,10,0,1,38,1,1505.800000000745,37,1,766,10,1,experiment,NA,NA,0,0.9,0.1,0,1,58,2,NA
fcp-trial,132,988816,0.0-67.0-0.0,voc_e2,11669,"[{""event"":""fullscreenenter"",""trial"":1,""time"":1996}]",NA,NA,NA,NA,NA,3,#D8271C,#741CD8,0,0,0,40,0,1156.800000000745,37,1,756.5999999977648,0,0,experiment,NA,NA,2,0.5,0.5,5,4,59,2,NA
fcp-trial,133,991803,0.0-68.0-0.0,voc_e2,11669,"[{""event"":""fullscreenenter"",""trial"":1,""time"":1996}]",NA,NA,NA,NA,NA,1,#FA92F8,#1CD855,0,0,0,38,1,649.8000000007451,37,1,807.2999999970198,0,0,experiment,NA,NA,1,0.3,0.7,3,2,60,2,NA
fcp-trial,134,996357,0.0-69.0-0.0,voc_e2,11669,"[{""event"":""fullscreenenter"",""trial"":1,""time"":1996}]",NA,NA,NA,NA,NA,6,#FA92F8,#1CD855,10,10,0,40,0,2380.2000000029802,39,0,659.6999999992549,10,1,experiment,NA,NA,1,0.3,0.7,3,2,61,2,NA
fcp-trial,135,1000117,0.0-70.0-0.0,voc_e2,11669,"[{""event"":""fullscreenenter"",""trial"":1,""time"":1996}]",NA,NA,NA,NA,NA,6,#3386FF,#D89F1C,10,0,1,38,1,1221,37,1,1009.3000000007451,10,1,experiment,NA,NA,0,0.9,0.1,0,1,62,2,NA
fcp-trial,136,1003962,0.0-71.0-0.0,voc_e2,11669,"[{""event"":""fullscreenenter"",""trial"":1,""time"":1996}]",NA,NA,NA,NA,NA,5,#D89F1C,#3386FF,0,10,0,38,1,1564.1000000014901,39,0,753.6000000014901,10,1,experiment,NA,NA,0,0.1,0.9,1,0,63,2,NA
fcp-trial,137,1009008,0.0-72.0-0.0,voc_e2,11669,"[{""event"":""fullscreenenter"",""trial"":1,""time"":1996}]",NA,NA,NA,NA,NA,1,#D89F1C,#3386FF,0,10,0,38,1,2334,39,0,1183.9000000022352,10,1,experiment,NA,NA,0,0.1,0.9,1,0,64,2,NA
fcp-trial,138,1013226,0.0-73.0-0.0,voc_e2,11669,"[{""event"":""fullscreenenter"",""trial"":1,""time"":1996}]",NA,NA,NA,NA,NA,2,#FA92F8,#1CD855,10,0,0,40,0,1985.0999999977648,37,1,721.6999999992549,10,0,experiment,NA,NA,1,0.3,0.7,3,2,65,2,NA
fcp-trial,139,1016940,0.0-74.0-0.0,voc_e2,11669,"[{""event"":""fullscreenenter"",""trial"":1,""time"":1996}]",NA,NA,NA,NA,NA,6,#D89F1C,#3386FF,0,10,0,38,1,1391.1000000014901,39,0,813.5999999977648,10,1,experiment,NA,NA,0,0.1,0.9,1,0,66,2,NA
fcp-trial,140,1020812,0.0-75.0-0.0,voc_e2,11669,"[{""event"":""fullscreenenter"",""trial"":1,""time"":1996}]",NA,NA,NA,NA,NA,3,#FA92F8,#1CD855,10,10,0,40,0,1257.199999999255,37,1,1084.800000000745,10,0,experiment,NA,NA,1,0.3,0.7,3,2,67,2,NA
fcp-trial,141,1024525,0.0-76.0-0.0,voc_e2,11669,"[{""event"":""fullscreenenter"",""trial"":1,""time"":1996}]",NA,NA,NA,NA,NA,0,#3386FF,#D89F1C,10,0,1,38,1,1342.1000000014901,37,1,864.3999999985099,10,1,experiment,NA,NA,0,0.9,0.1,0,1,68,2,NA
fcp-trial,142,1028142,0.0-77.0-0.0,voc_e2,11669,"[{""event"":""fullscreenenter"",""trial"":1,""time"":1996}]",NA,NA,NA,NA,NA,1,#741CD8,#D8271C,0,0,1,38,1,1285.5,39,0,823.8999999985099,0,0,experiment,NA,NA,2,0.5,0.5,4,5,69,2,NA
fcp-trial,143,1031531,0.0-78.0-0.0,voc_e2,11669,"[{""event"":""fullscreenenter"",""trial"":1,""time"":1996}]",NA,NA,NA,NA,NA,6,#1CD855,#FA92F8,10,0,1,38,1,1213.0999999977648,37,1,645.3999999985099,10,1,experiment,NA,NA,1,0.7,0.3,2,3,70,2,NA
fcp-trial,144,1034891,0.0-79.0-0.0,voc_e2,11669,"[{""event"":""fullscreenenter"",""trial"":1,""time"":1996}]",NA,NA,NA,NA,NA,2,#D8271C,#741CD8,10,0,0,40,0,772.5,39,0,1059.199999999255,0,1,experiment,NA,NA,2,0.5,0.5,5,4,71,2,NA
fcp-trial,145,1037714,0.0-80.0-0.0,voc_e2,11669,"[{""event"":""fullscreenenter"",""trial"":1,""time"":1996}]",NA,NA,NA,NA,NA,1,#FA92F8,#1CD855,0,10,0,40,0,822.0999999977648,39,0,491.19999999925494,10,1,experiment,NA,NA,1,0.3,0.7,3,2,72,2,NA
fcp-trial,146,1041731,0.0-81.0-0.0,voc_e2,11669,"[{""event"":""fullscreenenter"",""trial"":1,""time"":1996}]",NA,NA,NA,NA,NA,3,#D89F1C,#3386FF,0,10,0,38,1,769.1000000014901,39,0,1740.5,10,1,experiment,NA,NA,0,0.1,0.9,1,0,73,2,NA
fcp-trial,147,1045677,0.0-82.0-0.0,voc_e2,11669,"[{""event"":""fullscreenenter"",""trial"":1,""time"":1996}]",NA,NA,NA,NA,NA,5,#741CD8,#D8271C,10,10,1,40,0,1548,37,1,884.5999999977648,10,1,experiment,NA,NA,2,0.5,0.5,4,5,74,2,NA
fcp-trial,148,1049061,0.0-83.0-0.0,voc_e2,11669,"[{""event"":""fullscreenenter"",""trial"":1,""time"":1996}]",NA,NA,NA,NA,NA,0,#1CD855,#FA92F8,10,10,1,38,1,1039.699999999255,39,0,825.3999999985099,10,0,experiment,NA,NA,1,0.7,0.3,2,3,75,2,NA
fcp-trial,149,1052087,0.0-84.0-0.0,voc_e2,11669,"[{""event"":""fullscreenenter"",""trial"":1,""time"":1996}]",NA,NA,NA,NA,NA,4,#D8271C,#741CD8,0,0,0,38,1,886.0999999977648,39,0,606,0,1,experiment,NA,NA,2,0.5,0.5,5,4,76,2,NA
fcp-trial,150,1056287,0.0-85.0-0.0,voc_e2,11669,"[{""event"":""fullscreenenter"",""trial"":1,""time"":1996}]",NA,NA,NA,NA,NA,3,#741CD8,#D8271C,0,0,1,40,0,1858.800000000745,37,1,811.5999999977648,0,1,experiment,NA,NA,2,0.5,0.5,4,5,77,2,NA
fcp-trial,151,1061144,0.0-86.0-0.0,voc_e2,11669,"[{""event"":""fullscreenenter"",""trial"":1,""time"":1996}]",NA,NA,NA,NA,NA,5,#3386FF,#D89F1C,10,10,1,38,1,1791.5999999977648,37,1,1547.800000000745,10,1,experiment,NA,NA,0,0.9,0.1,0,1,78,2,NA
fcp-trial,152,1064184,0.0-87.0-0.0,voc_e2,11669,"[{""event"":""fullscreenenter"",""trial"":1,""time"":1996}]",NA,NA,NA,NA,NA,5,#FA92F8,#1CD855,0,10,0,38,1,973.1999999992549,39,0,559.7999999970198,10,1,experiment,NA,NA,1,0.3,0.7,3,2,79,2,NA
fcp-trial,153,1067860,0.0-88.0-0.0,voc_e2,11669,"[{""event"":""fullscreenenter"",""trial"":1,""time"":1996}]",NA,NA,NA,NA,NA,2,#3386FF,#D89F1C,10,0,1,38,1,886.1000000014901,37,1,1264.0999999977648,10,1,experiment,NA,NA,0,0.9,0.1,0,1,80,2,NA
fcp-trial,154,1070904,0.0-89.0-0.0,voc_e2,11669,"[{""event"":""fullscreenenter"",""trial"":1,""time"":1996}]",NA,NA,NA,NA,NA,4,#3386FF,#D89F1C,10,0,1,38,1,966,37,1,570.5999999977648,10,1,experiment,NA,NA,0,0.9,0.1,0,1,81,2,NA
fcp-trial,155,1074715,0.0-90.0-0.0,voc_e2,11669,"[{""event"":""fullscreenenter"",""trial"":1,""time"":1996}]",NA,NA,NA,NA,NA,6,#741CD8,#D8271C,10,10,1,40,0,1222.9000000022352,37,1,1072.800000000745,10,1,experiment,NA,NA,2,0.5,0.5,4,5,82,2,NA
fcp-trial,156,1078882,0.0-91.0-0.0,voc_e2,11669,"[{""event"":""fullscreenenter"",""trial"":1,""time"":1996}]",NA,NA,NA,NA,NA,0,#D8271C,#741CD8,10,10,0,38,1,1297.4000000022352,39,0,1343.800000000745,10,1,experiment,NA,NA,2,0.5,0.5,5,4,83,2,NA
fcp-trial,157,1082703,0.0-92.0-0.0,voc_e2,11669,"[{""event"":""fullscreenenter"",""trial"":1,""time"":1996}]",NA,NA,NA,NA,NA,4,#FA92F8,#1CD855,0,10,0,40,0,1152.199999999255,37,1,1139.5999999977648,0,0,experiment,NA,NA,1,0.3,0.7,3,2,84,2,NA
fcp-trial,158,1085689,0.0-93.0-0.0,voc_e2,11669,"[{""event"":""fullscreenenter"",""trial"":1,""time"":1996}]",NA,NA,NA,NA,NA,5,#1CD855,#FA92F8,0,10,1,38,1,818.3000000007451,39,0,641.6000000014901,10,0,experiment,NA,NA,1,0.7,0.3,2,3,85,2,NA
fcp-trial,159,1088727,0.0-94.0-0.0,voc_e2,11669,"[{""event"":""fullscreenenter"",""trial"":1,""time"":1996}]",NA,NA,NA,NA,NA,6,#D89F1C,#3386FF,0,0,0,38,1,927.8000000007451,39,0,576,0,1,experiment,NA,NA,0,0.1,0.9,1,0,86,2,NA
fcp-trial,160,1091478,0.0-95.0-0.0,voc_e2,11669,"[{""event"":""fullscreenenter"",""trial"":1,""time"":1996}]",NA,NA,NA,NA,NA,1,#D8271C,#741CD8,10,0,0,38,1,671,39,0,549.3999999985099,0,1,experiment,NA,NA,2,0.5,0.5,5,4,87,2,NA
fcp-trial,161,1094547,0.0-96.0-0.0,voc_e2,11669,"[{""event"":""fullscreenenter"",""trial"":1,""time"":1996}]",NA,NA,NA,NA,NA,5,#D89F1C,#3386FF,0,10,0,40,0,396.4000000022352,37,1,1166.199999999255,0,0,experiment,NA,NA,0,0.1,0.9,1,0,88,2,NA
fcp-trial,162,1097686,0.0-97.0-0.0,voc_e2,11669,"[{""event"":""fullscreenenter"",""trial"":1,""time"":1996}]",NA,NA,NA,NA,NA,1,#D89F1C,#3386FF,0,10,0,38,1,1050.4000000022352,39,0,556.8000000007451,10,1,experiment,NA,NA,0,0.1,0.9,1,0,89,2,NA
fcp-trial,163,1100446,0.0-98.0-0.0,voc_e2,11669,"[{""event"":""fullscreenenter"",""trial"":1,""time"":1996}]",NA,NA,NA,NA,NA,2,#FA92F8,#1CD855,0,0,0,38,1,809.5999999977648,39,0,418.6000000014901,0,1,experiment,NA,NA,1,0.3,0.7,3,2,90,2,NA
fcp-trial,164,1103815,0.0-99.0-0.0,voc_e2,11669,"[{""event"":""fullscreenenter"",""trial"":1,""time"":1996}]",NA,NA,NA,NA,NA,6,#741CD8,#D8271C,0,10,1,40,0,599.8999999985099,39,0,1241.3999999985099,10,0,experiment,NA,NA,2,0.5,0.5,4,5,91,3,NA
fcp-trial,165,1106386,0.0-100.0-0.0,voc_e2,11669,"[{""event"":""fullscreenenter"",""trial"":1,""time"":1996}]",NA,NA,NA,NA,NA,3,#FA92F8,#1CD855,0,10,0,38,1,497.1000000014901,39,0,548.6999999992549,10,1,experiment,NA,NA,1,0.3,0.7,3,2,92,3,NA
fcp-trial,166,1109995,0.0-101.0-0.0,voc_e2,11669,"[{""event"":""fullscreenenter"",""trial"":1,""time"":1996}]",NA,NA,NA,NA,NA,4,#D8271C,#741CD8,10,0,0,40,0,560,39,0,1536.5999999977648,0,1,experiment,NA,NA,2,0.5,0.5,5,4,93,3,NA
fcp-trial,167,1112838,0.0-102.0-0.0,voc_e2,11669,"[{""event"":""fullscreenenter"",""trial"":1,""time"":1996}]",NA,NA,NA,NA,NA,2,#3386FF,#D89F1C,10,0,1,38,1,538.1000000014901,37,1,797.8000000007451,10,1,experiment,NA,NA,0,0.9,0.1,0,1,94,3,NA
fcp-trial,168,1116633,0.0-103.0-0.0,voc_e2,11669,"[{""event"":""fullscreenenter"",""trial"":1,""time"":1996}]",NA,NA,NA,NA,NA,4,#3386FF,#D89F1C,10,0,1,38,1,1551.800000000745,37,1,716.8000000007451,10,1,experiment,NA,NA,0,0.9,0.1,0,1,95,3,NA
fcp-trial,169,1119301,0.0-104.0-0.0,voc_e2,11669,"[{""event"":""fullscreenenter"",""trial"":1,""time"":1996}]",NA,NA,NA,NA,NA,6,#FA92F8,#1CD855,10,10,0,38,1,570.1000000014901,39,0,591.6999999992549,10,1,experiment,NA,NA,1,0.3,0.7,3,2,96,3,NA
fcp-trial,170,1121943,0.0-105.0-0.0,voc_e2,11669,"[{""event"":""fullscreenenter"",""trial"":1,""time"":1996}]",NA,NA,NA,NA,NA,0,#741CD8,#D8271C,0,10,1,38,1,577,37,1,558.8000000007451,0,1,experiment,NA,NA,2,0.5,0.5,4,5,97,3,NA
fcp-trial,171,1124661,0.0-106.0-0.0,voc_e2,11669,"[{""event"":""fullscreenenter"",""trial"":1,""time"":1996}]",NA,NA,NA,NA,NA,0,#D89F1C,#3386FF,0,10,0,38,1,684.1000000014901,39,0,526.1000000014901,10,1,experiment,NA,NA,0,0.1,0.9,1,0,98,3,NA
fcp-trial,172,1127468,0.0-107.0-0.0,voc_e2,11669,"[{""event"":""fullscreenenter"",""trial"":1,""time"":1996}]",NA,NA,NA,NA,NA,4,#1CD855,#FA92F8,10,0,1,38,1,719.1999999992549,37,1,574,10,1,experiment,NA,NA,1,0.7,0.3,2,3,99,3,NA
fcp-trial,173,1130901,0.0-108.0-0.0,voc_e2,11669,"[{""event"":""fullscreenenter"",""trial"":1,""time"":1996}]",NA,NA,NA,NA,NA,5,#D8271C,#741CD8,10,0,0,38,1,706.3000000007451,39,0,1220.5999999977648,0,1,experiment,NA,NA,2,0.5,0.5,5,4,100,3,NA
fcp-trial,174,1133961,0.0-109.0-0.0,voc_e2,11669,"[{""event"":""fullscreenenter"",""trial"":1,""time"":1996}]",NA,NA,NA,NA,NA,1,#1CD855,#FA92F8,0,0,1,38,1,822.9000000022352,37,1,720.1000000014901,0,1,experiment,NA,NA,1,0.7,0.3,2,3,101,3,NA
fcp-trial,175,1138554,0.0-110.0-0.0,voc_e2,11669,"[{""event"":""fullscreenenter"",""trial"":1,""time"":1996}]",NA,NA,NA,NA,NA,3,#741CD8,#D8271C,10,10,1,40,0,1209.699999999255,37,1,1873.300000000745,10,1,experiment,NA,NA,2,0.5,0.5,4,5,102,3,NA
fcp-trial,176,1141847,0.0-111.0-0.0,voc_e2,11669,"[{""event"":""fullscreenenter"",""trial"":1,""time"":1996}]",NA,NA,NA,NA,NA,3,#3386FF,#D89F1C,10,0,1,38,1,1070.4000000022352,37,1,693.8999999985099,10,1,experiment,NA,NA,0,0.9,0.1,0,1,103,3,NA
fcp-trial,177,1144518,0.0-112.0-0.0,voc_e2,11669,"[{""event"":""fullscreenenter"",""trial"":1,""time"":1996}]",NA,NA,NA,NA,NA,2,#741CD8,#D8271C,0,0,1,38,1,713.9000000022352,39,0,449.3999999985099,0,0,experiment,NA,NA,2,0.5,0.5,4,5,104,3,NA
fcp-trial,178,1147377,0.0-113.0-0.0,voc_e2,11669,"[{""event"":""fullscreenenter"",""trial"":1,""time"":1996}]",NA,NA,NA,NA,NA,0,#FA92F8,#1CD855,0,0,0,38,1,688.3000000007451,37,1,662.1000000014901,0,0,experiment,NA,NA,1,0.3,0.7,3,2,105,3,NA
audio-instructions,179,1159734,0.0-114.0,voc_e2,11669,"[{""event"":""fullscreenenter"",""trial"":1,""time"":1996}]",NA,7831.699999999255,static/audio/pause.wav,NA,0,NA,NA,NA,NA,NA,NA,NA,NA,NA,NA,NA,NA,NA,NA,NA,NA,NA,NA,NA,NA,NA,NA,NA,NA,NA
fcp-trial,180,1163852,0.0-115.0-0.0,voc_e2,11669,"[{""event"":""fullscreenenter"",""trial"":1,""time"":1996}]",NA,NA,NA,NA,NA,5,#741CD8,#D8271C,10,0,1,40,0,1590,37,1,1018.3000000007451,10,1,experiment,NA,NA,2,0.5,0.5,4,5,106,3,NA
fcp-trial,181,1166883,0.0-116.0-0.0,voc_e2,11669,"[{""event"":""fullscreenenter"",""trial"":1,""time"":1996}]",NA,NA,NA,NA,NA,3,#741CD8,#D8271C,10,0,1,38,1,871.1000000014901,37,1,653.8000000007451,10,1,experiment,NA,NA,2,0.5,0.5,4,5,107,3,NA
fcp-trial,182,1169699,0.0-117.0-0.0,voc_e2,11669,"[{""event"":""fullscreenenter"",""trial"":1,""time"":1996}]",NA,NA,NA,NA,NA,2,#D89F1C,#3386FF,0,10,0,38,1,591.3000000007451,39,0,717.5,10,1,experiment,NA,NA,0,0.1,0.9,1,0,108,3,NA
fcp-trial,183,1172717,0.0-118.0-0.0,voc_e2,11669,"[{""event"":""fullscreenenter"",""trial"":1,""time"":1996}]",NA,NA,NA,NA,NA,5,#1CD855,#FA92F8,10,0,1,40,0,720.1999999992549,37,1,791.6999999992549,10,1,experiment,NA,NA,1,0.7,0.3,2,3,109,3,NA
fcp-trial,184,1176282,0.0-119.0-0.0,voc_e2,11669,"[{""event"":""fullscreenenter"",""trial"":1,""time"":1996}]",NA,NA,NA,NA,NA,3,#1CD855,#FA92F8,0,10,1,40,0,1536.3999999985099,39,0,517.1999999992549,10,0,experiment,NA,NA,1,0.7,0.3,2,3,110,3,NA
fcp-trial,185,1178968,0.0-120.0-0.0,voc_e2,11669,"[{""event"":""fullscreenenter"",""trial"":1,""time"":1996}]",NA,NA,NA,NA,NA,4,#741CD8,#D8271C,0,10,1,38,1,664,37,1,515.6999999992549,0,1,experiment,NA,NA,2,0.5,0.5,4,5,111,3,NA
fcp-trial,186,1182376,0.0-121.0-0.0,voc_e2,11669,"[{""event"":""fullscreenenter"",""trial"":1,""time"":1996}]",NA,NA,NA,NA,NA,0,#3386FF,#D89F1C,10,0,1,38,1,1053.3999999985099,37,1,845.3000000007451,10,1,experiment,NA,NA,0,0.9,0.1,0,1,112,3,NA
fcp-trial,187,1186089,0.0-122.0-0.0,voc_e2,11669,"[{""event"":""fullscreenenter"",""trial"":1,""time"":1996}]",NA,NA,NA,NA,NA,1,#741CD8,#D8271C,0,10,1,40,0,1103.3999999985099,39,0,1077.9000000022352,10,0,experiment,NA,NA,2,0.5,0.5,4,5,113,3,NA
fcp-trial,188,1189503,0.0-123.0-0.0,voc_e2,11669,"[{""event"":""fullscreenenter"",""trial"":1,""time"":1996}]",NA,NA,NA,NA,NA,1,#1CD855,#FA92F8,10,10,1,38,1,1349.0999999977648,37,1,537.1999999992549,10,1,experiment,NA,NA,1,0.7,0.3,2,3,114,3,NA
fcp-trial,189,1192464,0.0-124.0-0.0,voc_e2,11669,"[{""event"":""fullscreenenter"",""trial"":1,""time"":1996}]",NA,NA,NA,NA,NA,5,#D89F1C,#3386FF,0,10,0,38,1,903.8000000007451,39,0,546.3999999985099,10,1,experiment,NA,NA,0,0.1,0.9,1,0,115,3,NA
fcp-trial,190,1195536,0.0-125.0-0.0,voc_e2,11669,"[{""event"":""fullscreenenter"",""trial"":1,""time"":1996}]",NA,NA,NA,NA,NA,0,#741CD8,#D8271C,0,10,1,38,1,994.9000000022352,37,1,571.3000000007451,0,1,experiment,NA,NA,2,0.5,0.5,4,5,116,3,NA
fcp-trial,191,1199473,0.0-126.0-0.0,voc_e2,11669,"[{""event"":""fullscreenenter"",""trial"":1,""time"":1996}]",NA,NA,NA,NA,NA,6,#3386FF,#D89F1C,10,0,1,38,1,1161.6000000014901,37,1,1266.699999999255,10,1,experiment,NA,NA,0,0.9,0.1,0,1,117,3,NA
fcp-trial,192,1202388,0.0-127.0-0.0,voc_e2,11669,"[{""event"":""fullscreenenter"",""trial"":1,""time"":1996}]",NA,NA,NA,NA,NA,2,#FA92F8,#1CD855,0,10,0,38,1,434.9000000022352,37,1,951.1000000014901,0,0,experiment,NA,NA,1,0.3,0.7,3,2,118,3,NA
fcp-trial,193,1205553,0.0-128.0-0.0,voc_e2,11669,"[{""event"":""fullscreenenter"",""trial"":1,""time"":1996}]",NA,NA,NA,NA,NA,4,#D89F1C,#3386FF,0,10,0,38,1,828.3000000007451,39,0,808.5,10,1,experiment,NA,NA,0,0.1,0.9,1,0,119,3,NA
fcp-trial,194,1208701,0.0-129.0-0.0,voc_e2,11669,"[{""event"":""fullscreenenter"",""trial"":1,""time"":1996}]",NA,NA,NA,NA,NA,3,#D89F1C,#3386FF,0,0,0,38,1,1083.5999999977648,39,0,533.4000000022352,0,1,experiment,NA,NA,0,0.1,0.9,1,0,120,3,NA
fcp-trial,195,1212494,0.0-130.0-0.0,voc_e2,11669,"[{""event"":""fullscreenenter"",""trial"":1,""time"":1996}]",NA,NA,NA,NA,NA,6,#D8271C,#741CD8,10,10,0,40,0,1219.5999999977648,39,0,1057,10,1,experiment,NA,NA,2,0.5,0.5,5,4,121,3,NA
fcp-trial,196,1215679,0.0-131.0-0.0,voc_e2,11669,"[{""event"":""fullscreenenter"",""trial"":1,""time"":1996}]",NA,NA,NA,NA,NA,4,#FA92F8,#1CD855,0,10,0,38,1,1101,39,0,560.8999999985099,10,1,experiment,NA,NA,1,0.3,0.7,3,2,122,3,NA
fcp-trial,197,1218772,0.0-132.0-0.0,voc_e2,11669,"[{""event"":""fullscreenenter"",""trial"":1,""time"":1996}]",NA,NA,NA,NA,NA,6,#1CD855,#FA92F8,0,0,1,38,1,1024.8999999985099,37,1,549.5999999977648,0,1,experiment,NA,NA,1,0.7,0.3,2,3,123,3,NA
fcp-trial,198,1221700,0.0-133.0-0.0,voc_e2,11669,"[{""event"":""fullscreenenter"",""trial"":1,""time"":1996}]",NA,NA,NA,NA,NA,1,#D89F1C,#3386FF,0,10,0,38,1,864.2000000029802,39,0,556.7000000029802,10,1,experiment,NA,NA,0,0.1,0.9,1,0,124,3,NA
fcp-trial,199,1225165,0.0-134.0-0.0,voc_e2,11669,"[{""event"":""fullscreenenter"",""trial"":1,""time"":1996}]",NA,NA,NA,NA,NA,0,#FA92F8,#1CD855,10,10,0,38,1,1489.699999999255,39,0,466.30000000074506,10,1,experiment,NA,NA,1,0.3,0.7,3,2,125,3,NA
fcp-trial,200,1228216,0.0-135.0-0.0,voc_e2,11669,"[{""event"":""fullscreenenter"",""trial"":1,""time"":1996}]",NA,NA,NA,NA,NA,2,#D8271C,#741CD8,10,10,0,38,1,1057.1000000014901,39,0,464,10,1,experiment,NA,NA,2,0.5,0.5,5,4,126,3,NA
fcp-trial,201,1230879,0.0-136.0-0.0,voc_e2,11669,"[{""event"":""fullscreenenter"",""trial"":1,""time"":1996}]",NA,NA,NA,NA,NA,2,#D8271C,#741CD8,0,10,0,38,1,749.2000000029802,39,0,405,10,1,experiment,NA,NA,2,0.5,0.5,5,4,127,3,NA
fcp-trial,202,1233572,0.0-137.0-0.0,voc_e2,11669,"[{""event"":""fullscreenenter"",""trial"":1,""time"":1996}]",NA,NA,NA,NA,NA,1,#741CD8,#D8271C,10,0,1,38,1,695.2999999970198,37,1,467.5,10,1,experiment,NA,NA,2,0.5,0.5,4,5,128,3,NA
fcp-trial,203,1236490,0.0-138.0-0.0,voc_e2,11669,"[{""event"":""fullscreenenter"",""trial"":1,""time"":1996}]",NA,NA,NA,NA,NA,0,#741CD8,#D8271C,10,0,1,38,1,843.1999999992549,37,1,545.5999999977648,10,1,experiment,NA,NA,2,0.5,0.5,4,5,129,3,NA
fcp-trial,204,1239769,0.0-139.0-0.0,voc_e2,11669,"[{""event"":""fullscreenenter"",""trial"":1,""time"":1996}]",NA,NA,NA,NA,NA,3,#3386FF,#D89F1C,10,10,1,38,1,1108.2999999970198,37,1,642.4000000022352,10,1,experiment,NA,NA,0,0.9,0.1,0,1,130,3,NA
fcp-trial,205,1243858,0.0-140.0-0.0,voc_e2,11669,"[{""event"":""fullscreenenter"",""trial"":1,""time"":1996}]",NA,NA,NA,NA,NA,1,#FA92F8,#1CD855,0,0,0,38,1,1810.8999999985099,39,0,745.7000000029802,0,1,experiment,NA,NA,1,0.3,0.7,3,2,131,3,NA
fcp-trial,206,1246837,0.0-141.0-0.0,voc_e2,11669,"[{""event"":""fullscreenenter"",""trial"":1,""time"":1996}]",NA,NA,NA,NA,NA,3,#741CD8,#D8271C,10,0,1,38,1,783.3999999985099,37,1,674.1000000014901,10,1,experiment,NA,NA,2,0.5,0.5,4,5,132,3,NA
fcp-trial,207,1249759,0.0-142.0-0.0,voc_e2,11669,"[{""event"":""fullscreenenter"",""trial"":1,""time"":1996}]",NA,NA,NA,NA,NA,2,#3386FF,#D89F1C,10,0,1,38,1,597.1000000014901,37,1,815.0999999977648,10,1,experiment,NA,NA,0,0.9,0.1,0,1,133,3,NA
fcp-trial,208,1252602,0.0-143.0-0.0,voc_e2,11669,"[{""event"":""fullscreenenter"",""trial"":1,""time"":1996}]",NA,NA,NA,NA,NA,3,#1CD855,#FA92F8,10,10,1,38,1,685.8000000007451,39,0,625.3000000007451,10,0,experiment,NA,NA,1,0.7,0.3,2,3,134,3,NA
fcp-trial,209,1256207,0.0-144.0-0.0,voc_e2,11669,"[{""event"":""fullscreenenter"",""trial"":1,""time"":1996}]",NA,NA,NA,NA,NA,5,#FA92F8,#1CD855,0,10,0,40,0,1422.6000000014901,39,0,668,10,1,experiment,NA,NA,1,0.3,0.7,3,2,135,3,NA
fcp-trial,210,1259322,0.0-145.0-0.0,voc_e2,11669,"[{""event"":""fullscreenenter"",""trial"":1,""time"":1996}]",NA,NA,NA,NA,NA,5,#3386FF,#D89F1C,10,0,1,38,1,981.4000000022352,37,1,607.5999999977648,10,1,experiment,NA,NA,0,0.9,0.1,0,1,136,4,NA
fcp-trial,211,1262613,0.0-146.0-0.0,voc_e2,11669,"[{""event"":""fullscreenenter"",""trial"":1,""time"":1996}]",NA,NA,NA,NA,NA,5,#D8271C,#741CD8,10,0,0,38,1,1340.8999999985099,39,0,442.3999999985099,0,1,experiment,NA,NA,2,0.5,0.5,5,4,137,4,NA
fcp-trial,212,1265764,0.0-147.0-0.0,voc_e2,11669,"[{""event"":""fullscreenenter"",""trial"":1,""time"":1996}]",NA,NA,NA,NA,NA,0,#FA92F8,#1CD855,0,10,0,38,1,1019,37,1,610.4000000022352,0,0,experiment,NA,NA,1,0.3,0.7,3,2,138,4,NA
fcp-trial,213,1268374,0.0-148.0-0.0,voc_e2,11669,"[{""event"":""fullscreenenter"",""trial"":1,""time"":1996}]",NA,NA,NA,NA,NA,6,#D89F1C,#3386FF,10,10,0,38,1,641.8000000007451,39,0,439.30000000074506,10,1,experiment,NA,NA,0,0.1,0.9,1,0,139,4,NA
fcp-trial,214,1271496,0.0-149.0-0.0,voc_e2,11669,"[{""event"":""fullscreenenter"",""trial"":1,""time"":1996}]",NA,NA,NA,NA,NA,4,#3386FF,#D89F1C,10,0,1,38,1,1052.199999999255,37,1,562.1999999992549,10,1,experiment,NA,NA,0,0.9,0.1,0,1,140,4,NA
fcp-trial,215,1274487,0.0-150.0-0.0,voc_e2,11669,"[{""event"":""fullscreenenter"",""trial"":1,""time"":1996}]",NA,NA,NA,NA,NA,4,#1CD855,#FA92F8,0,0,1,38,1,821.3999999985099,37,1,636.8999999985099,0,1,experiment,NA,NA,1,0.7,0.3,2,3,141,4,NA
fcp-trial,216,1278917,0.0-151.0-0.0,voc_e2,11669,"[{""event"":""fullscreenenter"",""trial"":1,""time"":1996}]",NA,NA,NA,NA,NA,6,#D8271C,#741CD8,10,0,0,40,0,2210.199999999255,39,0,684.3000000007451,0,1,experiment,NA,NA,2,0.5,0.5,5,4,142,4,NA
fcp-trial,217,1282695,0.0-152.0-0.0,voc_e2,11669,"[{""event"":""fullscreenenter"",""trial"":1,""time"":1996}]",NA,NA,NA,NA,NA,4,#741CD8,#D8271C,10,10,1,38,1,1432.1000000014901,37,1,818.8000000007451,10,1,experiment,NA,NA,2,0.5,0.5,4,5,143,4,NA
fcp-trial,218,1285690,0.0-153.0-0.0,voc_e2,11669,"[{""event"":""fullscreenenter"",""trial"":1,""time"":1996}]",NA,NA,NA,NA,NA,1,#3386FF,#D89F1C,10,0,1,38,1,1033.300000000745,37,1,434.9000000022352,10,1,experiment,NA,NA,0,0.9,0.1,0,1,144,4,NA
fcp-trial,219,1288496,0.0-154.0-0.0,voc_e2,11669,"[{""event"":""fullscreenenter"",""trial"":1,""time"":1996}]",NA,NA,NA,NA,NA,6,#FA92F8,#1CD855,0,0,0,38,1,884.8999999985099,39,0,391.1000000014901,0,1,experiment,NA,NA,1,0.3,0.7,3,2,145,4,NA
fcp-trial,220,1292121,0.0-155.0-0.0,voc_e2,11669,"[{""event"":""fullscreenenter"",""trial"":1,""time"":1996}]",NA,NA,NA,NA,NA,0,#D89F1C,#3386FF,0,10,0,38,1,1549.4000000022352,39,0,552.9000000022352,10,1,experiment,NA,NA,0,0.1,0.9,1,0,146,4,NA
fcp-trial,221,1295388,0.0-156.0-0.0,voc_e2,11669,"[{""event"":""fullscreenenter"",""trial"":1,""time"":1996}]",NA,NA,NA,NA,NA,2,#FA92F8,#1CD855,10,0,0,40,0,988.3999999985099,39,0,765.6000000014901,0,1,experiment,NA,NA,1,0.3,0.7,3,2,147,4,NA
fcp-trial,222,1298250,0.0-157.0-0.0,voc_e2,11669,"[{""event"":""fullscreenenter"",""trial"":1,""time"":1996}]",NA,NA,NA,NA,NA,1,#D89F1C,#3386FF,0,10,0,38,1,866.1000000014901,39,0,466.79999999701977,10,1,experiment,NA,NA,0,0.1,0.9,1,0,148,4,NA
fcp-trial,223,1300824,0.0-158.0-0.0,voc_e2,11669,"[{""event"":""fullscreenenter"",""trial"":1,""time"":1996}]",NA,NA,NA,NA,NA,0,#741CD8,#D8271C,0,10,1,38,1,664.6000000014901,37,1,382.3999999985099,0,1,experiment,NA,NA,2,0.5,0.5,4,5,149,4,NA
fcp-trial,224,1303326,0.0-159.0-0.0,voc_e2,11669,"[{""event"":""fullscreenenter"",""trial"":1,""time"":1996}]",NA,NA,NA,NA,NA,2,#741CD8,#D8271C,0,10,1,38,1,517.6999999992549,39,0,477.79999999701977,10,0,experiment,NA,NA,2,0.5,0.5,4,5,150,4,NA
fcp-trial,225,1306701,0.0-160.0-0.0,voc_e2,11669,"[{""event"":""fullscreenenter"",""trial"":1,""time"":1996}]",NA,NA,NA,NA,NA,0,#3386FF,#D89F1C,10,0,1,38,1,939.8999999985099,37,1,903.6999999992549,10,1,experiment,NA,NA,0,0.9,0.1,0,1,151,4,NA
fcp-trial,226,1309182,0.0-161.0-0.0,voc_e2,11669,"[{""event"":""fullscreenenter"",""trial"":1,""time"":1996}]",NA,NA,NA,NA,NA,1,#1CD855,#FA92F8,10,0,1,38,1,563.8000000007451,39,0,388.5,0,0,experiment,NA,NA,1,0.7,0.3,2,3,152,4,NA
fcp-trial,227,1311997,0.0-162.0-0.0,voc_e2,11669,"[{""event"":""fullscreenenter"",""trial"":1,""time"":1996}]",NA,NA,NA,NA,NA,3,#741CD8,#D8271C,0,10,1,38,1,373.4000000022352,37,1,911.1999999992549,0,1,experiment,NA,NA,2,0.5,0.5,4,5,153,4,NA
fcp-trial,228,1315606,0.0-163.0-0.0,voc_e2,11669,"[{""event"":""fullscreenenter"",""trial"":1,""time"":1996}]",NA,NA,NA,NA,NA,4,#D89F1C,#3386FF,0,10,0,40,0,821.8999999985099,37,1,1271.199999999255,0,0,experiment,NA,NA,0,0.1,0.9,1,0,154,4,NA
fcp-trial,229,1318162,0.0-164.0-0.0,voc_e2,11669,"[{""event"":""fullscreenenter"",""trial"":1,""time"":1996}]",NA,NA,NA,NA,NA,0,#FA92F8,#1CD855,10,10,0,38,1,596.3000000007451,39,0,445.5,10,1,experiment,NA,NA,1,0.3,0.7,3,2,155,4,NA
fcp-trial,230,1321927,0.0-165.0-0.0,voc_e2,11669,"[{""event"":""fullscreenenter"",""trial"":1,""time"":1996}]",NA,NA,NA,NA,NA,4,#D8271C,#741CD8,10,10,0,40,0,968,37,1,1265.1000000014901,10,0,experiment,NA,NA,2,0.5,0.5,5,4,156,4,NA
fcp-trial,231,1326060,0.0-166.0-0.0,voc_e2,11669,"[{""event"":""fullscreenenter"",""trial"":1,""time"":1996}]",NA,NA,NA,NA,NA,2,#3386FF,#D89F1C,10,0,1,40,0,1078.5,37,1,1526.0999999977648,10,1,experiment,NA,NA,0,0.9,0.1,0,1,157,4,NA
fcp-trial,232,1328984,0.0-167.0-0.0,voc_e2,11669,"[{""event"":""fullscreenenter"",""trial"":1,""time"":1996}]",NA,NA,NA,NA,NA,4,#FA92F8,#1CD855,10,0,0,38,1,711,37,1,682.6000000014901,10,0,experiment,NA,NA,1,0.3,0.7,3,2,158,4,NA
fcp-trial,233,1332068,0.0-168.0-0.0,voc_e2,11669,"[{""event"":""fullscreenenter"",""trial"":1,""time"":1996}]",NA,NA,NA,NA,NA,5,#FA92F8,#1CD855,0,10,0,38,1,837.3000000007451,39,0,716.7999999970198,10,1,experiment,NA,NA,1,0.3,0.7,3,2,159,4,NA
fcp-trial,234,1334714,0.0-169.0-0.0,voc_e2,11669,"[{""event"":""fullscreenenter"",""trial"":1,""time"":1996}]",NA,NA,NA,NA,NA,6,#D8271C,#741CD8,10,0,0,38,1,704.1999999992549,39,0,413,0,1,experiment,NA,NA,2,0.5,0.5,5,4,160,4,NA
fcp-trial,235,1337451,0.0-170.0-0.0,voc_e2,11669,"[{""event"":""fullscreenenter"",""trial"":1,""time"":1996}]",NA,NA,NA,NA,NA,5,#3386FF,#D89F1C,10,10,1,38,1,827.1999999992549,37,1,375.5999999977648,10,1,experiment,NA,NA,0,0.9,0.1,0,1,161,4,NA
fcp-trial,236,1340010,0.0-171.0-0.0,voc_e2,11669,"[{""event"":""fullscreenenter"",""trial"":1,""time"":1996}]",NA,NA,NA,NA,NA,5,#741CD8,#D8271C,10,0,1,38,1,615.8999999985099,37,1,430.5999999977648,10,1,experiment,NA,NA,2,0.5,0.5,4,5,162,4,NA
fcp-trial,237,1342508,0.0-172.0-0.0,voc_e2,11669,"[{""event"":""fullscreenenter"",""trial"":1,""time"":1996}]",NA,NA,NA,NA,NA,3,#1CD855,#FA92F8,10,0,1,38,1,613.6999999992549,37,1,376.8999999985099,10,1,experiment,NA,NA,1,0.7,0.3,2,3,163,4,NA
fcp-trial,238,1346042,0.0-173.0-0.0,voc_e2,11669,"[{""event"":""fullscreenenter"",""trial"":1,""time"":1996}]",NA,NA,NA,NA,NA,3,#D89F1C,#3386FF,0,10,0,38,1,553.3999999985099,39,0,1457.699999999255,10,1,experiment,NA,NA,0,0.1,0.9,1,0,164,4,NA
fcp-trial,239,1348658,0.0-174.0-0.0,voc_e2,11669,"[{""event"":""fullscreenenter"",""trial"":1,""time"":1996}]",NA,NA,NA,NA,NA,6,#1CD855,#FA92F8,10,0,1,38,1,610,37,1,475.3999999985099,10,1,experiment,NA,NA,1,0.7,0.3,2,3,165,4,NA
fcp-trial,240,1351359,0.0-175.0-0.0,voc_e2,11669,"[{""event"":""fullscreenenter"",""trial"":1,""time"":1996}]",NA,NA,NA,NA,NA,1,#741CD8,#D8271C,0,0,1,38,1,635.6999999992549,37,1,538.6000000014901,0,1,experiment,NA,NA,2,0.5,0.5,4,5,166,4,NA
fcp-trial,241,1353631,0.0-176.0-0.0,voc_e2,11669,"[{""event"":""fullscreenenter"",""trial"":1,""time"":1996}]",NA,NA,NA,NA,NA,2,#FA92F8,#1CD855,0,0,0,38,1,332.69999999925494,39,0,428.8999999985099,0,1,experiment,NA,NA,1,0.3,0.7,3,2,167,4,NA
fcp-trial,242,1356049,0.0-177.0-0.0,voc_e2,11669,"[{""event"":""fullscreenenter"",""trial"":1,""time"":1996}]",NA,NA,NA,NA,NA,6,#3386FF,#D89F1C,10,0,1,38,1,315,37,1,573.6000000014901,10,1,experiment,NA,NA,0,0.9,0.1,0,1,168,4,NA
fcp-trial,243,1358358,0.0-178.0-0.0,voc_e2,11669,"[{""event"":""fullscreenenter"",""trial"":1,""time"":1996}]",NA,NA,NA,NA,NA,6,#3386FF,#D89F1C,10,0,1,38,1,91.39999999850988,37,1,685.8000000007451,10,1,experiment,NA,NA,0,0.9,0.1,0,1,169,4,NA
fcp-trial,244,1360813,0.0-179.0-0.0,voc_e2,11669,"[{""event"":""fullscreenenter"",""trial"":1,""time"":1996}]",NA,NA,NA,NA,NA,3,#741CD8,#D8271C,0,10,1,38,1,456.19999999925494,37,1,484.69999999925494,0,1,experiment,NA,NA,2,0.5,0.5,4,5,170,4,NA
fcp-trial,245,1363205,0.0-180.0-0.0,voc_e2,11669,"[{""event"":""fullscreenenter"",""trial"":1,""time"":1996}]",NA,NA,NA,NA,NA,4,#1CD855,#FA92F8,10,0,1,38,1,368.3999999985099,37,1,517.1000000014901,10,1,experiment,NA,NA,1,0.7,0.3,2,3,171,4,NA
fcp-trial,246,1366665,0.0-181.0-0.0,voc_e2,11669,"[{""event"":""fullscreenenter"",""trial"":1,""time"":1996}]",NA,NA,NA,NA,NA,2,#741CD8,#D8271C,10,10,1,40,0,772,39,0,1180.2999999970198,10,0,experiment,NA,NA,2,0.5,0.5,4,5,172,4,NA
fcp-trial,247,1370026,0.0-182.0-0.0,voc_e2,11669,"[{""event"":""fullscreenenter"",""trial"":1,""time"":1996}]",NA,NA,NA,NA,NA,0,#1CD855,#FA92F8,10,10,1,38,1,1002.6999999992549,37,1,828.7999999970198,10,1,experiment,NA,NA,1,0.7,0.3,2,3,173,4,NA
fcp-trial,248,1373845,0.0-183.0-0.0,voc_e2,11669,"[{""event"":""fullscreenenter"",""trial"":1,""time"":1996}]",NA,NA,NA,NA,NA,0,#D89F1C,#3386FF,0,10,0,38,1,1785.3999999985099,39,0,516.4000000022352,10,1,experiment,NA,NA,0,0.1,0.9,1,0,174,4,NA
fcp-trial,249,1376832,0.0-184.0-0.0,voc_e2,11669,"[{""event"":""fullscreenenter"",""trial"":1,""time"":1996}]",NA,NA,NA,NA,NA,2,#1CD855,#FA92F8,10,0,1,38,1,706.5,37,1,751.1999999992549,10,1,experiment,NA,NA,1,0.7,0.3,2,3,175,4,NA
fcp-trial,250,1379592,0.0-185.0-0.0,voc_e2,11669,"[{""event"":""fullscreenenter"",""trial"":1,""time"":1996}]",NA,NA,NA,NA,NA,0,#741CD8,#D8271C,10,10,1,38,1,565.2000000029802,37,1,680.3000000007451,10,1,experiment,NA,NA,2,0.5,0.5,4,5,176,4,NA
fcp-trial,251,1382666,0.0-186.0-0.0,voc_e2,11669,"[{""event"":""fullscreenenter"",""trial"":1,""time"":1996}]",NA,NA,NA,NA,NA,1,#3386FF,#D89F1C,10,0,1,38,1,1068.300000000745,37,1,473.3999999985099,10,1,experiment,NA,NA,0,0.9,0.1,0,1,177,4,NA
fcp-trial,252,1385540,0.0-187.0-0.0,voc_e2,11669,"[{""event"":""fullscreenenter"",""trial"":1,""time"":1996}]",NA,NA,NA,NA,NA,5,#D89F1C,#3386FF,0,10,0,38,1,895,39,0,447.0999999977648,10,1,experiment,NA,NA,0,0.1,0.9,1,0,178,4,NA
fcp-trial,253,1388394,0.0-188.0-0.0,voc_e2,11669,"[{""event"":""fullscreenenter"",""trial"":1,""time"":1996}]",NA,NA,NA,NA,NA,1,#FA92F8,#1CD855,0,10,0,38,1,917,37,1,407,0,0,experiment,NA,NA,1,0.3,0.7,3,2,179,4,NA
fcp-trial,254,1392632,0.0-189.0-0.0,voc_e2,11669,"[{""event"":""fullscreenenter"",""trial"":1,""time"":1996}]",NA,NA,NA,NA,NA,6,#D8271C,#741CD8,0,0,0,40,0,1392.5999999977648,37,1,1314.5,0,0,experiment,NA,NA,2,0.5,0.5,5,4,180,4,NA
fcp-trial,255,1395394,0.0-190.0-0.0,voc_e2,11669,"[{""event"":""fullscreenenter"",""trial"":1,""time"":1996}]",NA,NA,NA,NA,NA,5,#D8271C,#741CD8,0,10,0,38,1,847.1999999992549,39,0,384.30000000074506,10,1,experiment,NA,NA,2,0.5,0.5,5,4,181,5,NA
fcp-trial,256,1398331,0.0-191.0-0.0,voc_e2,11669,"[{""event"":""fullscreenenter"",""trial"":1,""time"":1996}]",NA,NA,NA,NA,NA,1,#741CD8,#D8271C,0,10,1,38,1,751.8999999985099,37,1,677,0,1,experiment,NA,NA,2,0.5,0.5,4,5,182,5,NA
fcp-trial,257,1401369,0.0-192.0-0.0,voc_e2,11669,"[{""event"":""fullscreenenter"",""trial"":1,""time"":1996}]",NA,NA,NA,NA,NA,4,#D89F1C,#3386FF,0,10,0,38,1,1120.800000000745,39,0,388.69999999925494,10,1,experiment,NA,NA,0,0.1,0.9,1,0,183,5,NA
fcp-trial,258,1404097,0.0-193.0-0.0,voc_e2,11669,"[{""event"":""fullscreenenter"",""trial"":1,""time"":1996}]",NA,NA,NA,NA,NA,6,#FA92F8,#1CD855,0,0,0,38,1,687.2999999970198,37,1,528.5,0,0,experiment,NA,NA,1,0.3,0.7,3,2,184,5,NA
fcp-trial,259,1407217,0.0-194.0-0.0,voc_e2,11669,"[{""event"":""fullscreenenter"",""trial"":1,""time"":1996}]",NA,NA,NA,NA,NA,5,#1CD855,#FA92F8,10,10,1,40,0,944.6000000014901,37,1,645.1000000014901,10,1,experiment,NA,NA,1,0.7,0.3,2,3,185,5,NA
fcp-trial,260,1411448,0.0-195.0-0.0,voc_e2,11669,"[{""event"":""fullscreenenter"",""trial"":1,""time"":1996}]",NA,NA,NA,NA,NA,3,#1CD855,#FA92F8,10,10,1,40,0,1673,39,0,1033.1000000014901,10,0,experiment,NA,NA,1,0.7,0.3,2,3,186,5,NA
fcp-trial,261,1414688,0.0-196.0-0.0,voc_e2,11669,"[{""event"":""fullscreenenter"",""trial"":1,""time"":1996}]",NA,NA,NA,NA,NA,4,#741CD8,#D8271C,0,10,1,38,1,842.1000000014901,37,1,867.1000000014901,0,1,experiment,NA,NA,2,0.5,0.5,4,5,187,5,NA
fcp-trial,262,1417594,0.0-197.0-0.0,voc_e2,11669,"[{""event"":""fullscreenenter"",""trial"":1,""time"":1996}]",NA,NA,NA,NA,NA,3,#3386FF,#D89F1C,10,0,1,38,1,911.8999999985099,37,1,464.5,10,1,experiment,NA,NA,0,0.9,0.1,0,1,188,5,NA
fcp-trial,263,1420362,0.0-198.0-0.0,voc_e2,11669,"[{""event"":""fullscreenenter"",""trial"":1,""time"":1996}]",NA,NA,NA,NA,NA,2,#3386FF,#D89F1C,10,0,1,38,1,842.8000000007451,37,1,413.5,10,1,experiment,NA,NA,0,0.9,0.1,0,1,189,5,NA
fcp-trial,264,1423400,0.0-199.0-0.0,voc_e2,11669,"[{""event"":""fullscreenenter"",""trial"":1,""time"":1996}]",NA,NA,NA,NA,NA,1,#D89F1C,#3386FF,0,10,0,38,1,1115.800000000745,39,0,414.30000000074506,10,1,experiment,NA,NA,0,0.1,0.9,1,0,190,5,NA
fcp-trial,265,1425911,0.0-200.0-0.0,voc_e2,11669,"[{""event"":""fullscreenenter"",""trial"":1,""time"":1996}]",NA,NA,NA,NA,NA,5,#D8271C,#741CD8,10,10,0,38,1,439.9000000022352,39,0,541.6999999992549,10,1,experiment,NA,NA,2,0.5,0.5,5,4,191,5,NA
fcp-trial,266,1429571,0.0-201.0-0.0,voc_e2,11669,"[{""event"":""fullscreenenter"",""trial"":1,""time"":1996}]",NA,NA,NA,NA,NA,5,#1CD855,#FA92F8,0,0,1,40,0,1398.5,39,0,746.5999999977648,0,0,experiment,NA,NA,1,0.7,0.3,2,3,192,5,NA
fcp-trial,267,1435487,0.0-202.0-0.0,voc_e2,11669,"[{""event"":""fullscreenenter"",""trial"":1,""time"":1996}]",NA,NA,NA,NA,NA,0,#FA92F8,#1CD855,0,10,0,38,1,836,37,1,3555.2000000029802,0,0,experiment,NA,NA,1,0.3,0.7,3,2,193,5,NA
fcp-trial,268,1437985,0.0-203.0-0.0,voc_e2,11669,"[{""event"":""fullscreenenter"",""trial"":1,""time"":1996}]",NA,NA,NA,NA,NA,3,#D89F1C,#3386FF,0,10,0,38,1,508.0999999977648,39,0,475.5999999977648,10,1,experiment,NA,NA,0,0.1,0.9,1,0,194,5,NA
fcp-trial,269,1440699,0.0-204.0-0.0,voc_e2,11669,"[{""event"":""fullscreenenter"",""trial"":1,""time"":1996}]",NA,NA,NA,NA,NA,3,#741CD8,#D8271C,0,10,1,38,1,821.3000000007451,37,1,365.29999999701977,0,1,experiment,NA,NA,2,0.5,0.5,4,5,195,5,NA
fcp-trial,270,1443333,0.0-205.0-0.0,voc_e2,11669,"[{""event"":""fullscreenenter"",""trial"":1,""time"":1996}]",NA,NA,NA,NA,NA,0,#3386FF,#D89F1C,10,0,1,38,1,719.5,39,0,382.80000000074506,0,0,experiment,NA,NA,0,0.9,0.1,0,1,196,5,NA
fcp-trial,271,1445809,0.0-206.0-0.0,voc_e2,11669,"[{""event"":""fullscreenenter"",""trial"":1,""time"":1996}]",NA,NA,NA,NA,NA,4,#741CD8,#D8271C,0,10,1,38,1,437.5,37,1,506.19999999925494,0,1,experiment,NA,NA,2,0.5,0.5,4,5,197,5,NA
fcp-trial,272,1448192,0.0-207.0-0.0,voc_e2,11669,"[{""event"":""fullscreenenter"",""trial"":1,""time"":1996}]",NA,NA,NA,NA,NA,2,#FA92F8,#1CD855,10,0,0,38,1,381.5999999977648,37,1,470.80000000074506,10,0,experiment,NA,NA,1,0.3,0.7,3,2,198,5,NA
fcp-trial,273,1450652,0.0-208.0-0.0,voc_e2,11669,"[{""event"":""fullscreenenter"",""trial"":1,""time"":1996}]",NA,NA,NA,NA,NA,6,#741CD8,#D8271C,10,10,1,38,1,403.1000000014901,37,1,527.8999999985099,10,1,experiment,NA,NA,2,0.5,0.5,4,5,199,5,NA
fcp-trial,274,1453083,0.0-209.0-0.0,voc_e2,11669,"[{""event"":""fullscreenenter"",""trial"":1,""time"":1996}]",NA,NA,NA,NA,NA,3,#FA92F8,#1CD855,0,10,0,38,1,451.4000000022352,37,1,451.30000000074506,0,0,experiment,NA,NA,1,0.3,0.7,3,2,200,5,NA
fcp-trial,275,1456197,0.0-210.0-0.0,voc_e2,11669,"[{""event"":""fullscreenenter"",""trial"":1,""time"":1996}]",NA,NA,NA,NA,NA,6,#3386FF,#D89F1C,10,0,1,38,1,1233.199999999255,39,0,370.30000000074506,0,0,experiment,NA,NA,0,0.9,0.1,0,1,201,5,NA
fcp-trial,276,1458890,0.0-211.0-0.0,voc_e2,11669,"[{""event"":""fullscreenenter"",""trial"":1,""time"":1996}]",NA,NA,NA,NA,NA,4,#1CD855,#FA92F8,0,0,1,40,0,700,37,1,473.69999999925494,0,1,experiment,NA,NA,1,0.7,0.3,2,3,202,5,NA
fcp-trial,277,1461791,0.0-212.0-0.0,voc_e2,11669,"[{""event"":""fullscreenenter"",""trial"":1,""time"":1996}]",NA,NA,NA,NA,NA,1,#D8271C,#741CD8,10,10,0,38,1,906.6999999992549,39,0,465.1000000014901,10,1,experiment,NA,NA,2,0.5,0.5,5,4,203,5,NA
fcp-trial,278,1465044,0.0-213.0-0.0,voc_e2,11669,"[{""event"":""fullscreenenter"",""trial"":1,""time"":1996}]",NA,NA,NA,NA,NA,4,#3386FF,#D89F1C,10,0,1,40,0,964.5,37,1,765.9000000022352,10,1,experiment,NA,NA,0,0.9,0.1,0,1,204,5,NA
fcp-trial,279,1468324,0.0-214.0-0.0,voc_e2,11669,"[{""event"":""fullscreenenter"",""trial"":1,""time"":1996}]",NA,NA,NA,NA,NA,6,#FA92F8,#1CD855,0,0,0,40,0,1167.300000000745,37,1,583.3999999985099,0,0,experiment,NA,NA,1,0.3,0.7,3,2,205,5,NA
fcp-trial,280,1471509,0.0-215.0-0.0,voc_e2,11669,"[{""event"":""fullscreenenter"",""trial"":1,""time"":1996}]",NA,NA,NA,NA,NA,1,#FA92F8,#1CD855,0,10,0,40,0,788.0999999977648,39,0,869.3000000007451,10,1,experiment,NA,NA,1,0.3,0.7,3,2,206,5,NA
fcp-trial,281,1474934,0.0-216.0-0.0,voc_e2,11669,"[{""event"":""fullscreenenter"",""trial"":1,""time"":1996}]",NA,NA,NA,NA,NA,2,#3386FF,#D89F1C,10,0,1,40,0,1091,39,0,793.8999999985099,0,0,experiment,NA,NA,0,0.9,0.1,0,1,207,5,NA
fcp-trial,282,1479568,0.0-217.0-0.0,voc_e2,11669,"[{""event"":""fullscreenenter"",""trial"":1,""time"":1996}]",NA,NA,NA,NA,NA,0,#D8271C,#741CD8,10,0,0,40,0,1897.3999999985099,37,1,1203.800000000745,10,0,experiment,NA,NA,2,0.5,0.5,5,4,208,5,NA
fcp-trial,283,1482694,0.0-218.0-0.0,voc_e2,11669,"[{""event"":""fullscreenenter"",""trial"":1,""time"":1996}]",NA,NA,NA,NA,NA,5,#3386FF,#D89F1C,10,0,1,38,1,975.0999999977648,37,1,622.8000000007451,10,1,experiment,NA,NA,0,0.9,0.1,0,1,209,5,NA
fcp-trial,284,1485800,0.0-219.0-0.0,voc_e2,11669,"[{""event"":""fullscreenenter"",""trial"":1,""time"":1996}]",NA,NA,NA,NA,NA,2,#D8271C,#741CD8,0,0,0,40,0,800.6999999992549,37,1,792.4000000022352,0,0,experiment,NA,NA,2,0.5,0.5,5,4,210,5,NA
audio-instructions,285,1505253,0.0-220.0,voc_e2,11669,"[{""event"":""fullscreenenter"",""trial"":1,""time"":1996}]",NA,14930.300000000743,static/audio/pause.wav,NA,0,NA,NA,NA,NA,NA,NA,NA,NA,NA,NA,NA,NA,NA,NA,NA,NA,NA,NA,NA,NA,NA,NA,NA,NA,NA
fcp-trial,286,1516223,0.0-221.0-0.0,voc_e2,11669,"[{""event"":""fullscreenenter"",""trial"":1,""time"":1996}]",NA,NA,NA,NA,NA,5,#1CD855,#FA92F8,10,0,1,40,0,8728.300000000745,39,0,732.1999999992549,0,0,experiment,NA,NA,1,0.7,0.3,2,3,211,5,NA
fcp-trial,287,1519815,0.0-222.0-0.0,voc_e2,11669,"[{""event"":""fullscreenenter"",""trial"":1,""time"":1996}]",NA,NA,NA,NA,NA,4,#741CD8,#D8271C,10,10,1,40,0,824.8000000007451,39,0,1261,10,0,experiment,NA,NA,2,0.5,0.5,4,5,212,5,NA
fcp-trial,288,1523901,0.0-223.0-0.0,voc_e2,11669,"[{""event"":""fullscreenenter"",""trial"":1,""time"":1996}]",NA,NA,NA,NA,NA,6,#D89F1C,#3386FF,0,10,0,38,1,981.6000000014901,39,0,1590.4000000022352,10,1,experiment,NA,NA,0,0.1,0.9,1,0,213,5,NA
fcp-trial,289,1526413,0.0-224.0-0.0,voc_e2,11669,"[{""event"":""fullscreenenter"",""trial"":1,""time"":1996}]",NA,NA,NA,NA,NA,1,#1CD855,#FA92F8,10,0,1,38,1,619.5,37,1,360.70000000298023,10,1,experiment,NA,NA,1,0.7,0.3,2,3,214,5,NA
fcp-trial,290,1528822,0.0-225.0-0.0,voc_e2,11669,"[{""event"":""fullscreenenter"",""trial"":1,""time"":1996}]",NA,NA,NA,NA,NA,2,#741CD8,#D8271C,0,10,1,38,1,491.69999999925494,37,1,378.8999999985099,0,1,experiment,NA,NA,2,0.5,0.5,4,5,215,5,NA
fcp-trial,291,1532297,0.0-226.0-0.0,voc_e2,11669,"[{""event"":""fullscreenenter"",""trial"":1,""time"":1996}]",NA,NA,NA,NA,NA,3,#FA92F8,#1CD855,0,10,0,40,0,1192.699999999255,39,0,756.1000000014901,10,1,experiment,NA,NA,1,0.3,0.7,3,2,216,5,NA
fcp-trial,292,1535426,0.0-227.0-0.0,voc_e2,11669,"[{""event"":""fullscreenenter"",""trial"":1,""time"":1996}]",NA,NA,NA,NA,NA,0,#741CD8,#D8271C,0,0,1,38,1,1092.8999999985099,37,1,516.5,0,1,experiment,NA,NA,2,0.5,0.5,4,5,217,5,NA
fcp-trial,293,1538805,0.0-228.0-0.0,voc_e2,11669,"[{""event"":""fullscreenenter"",""trial"":1,""time"":1996}]",NA,NA,NA,NA,NA,4,#3386FF,#D89F1C,10,10,1,38,1,1264.800000000745,37,1,581.3999999985099,10,1,experiment,NA,NA,0,0.9,0.1,0,1,218,5,NA
fcp-trial,294,1541964,0.0-229.0-0.0,voc_e2,11669,"[{""event"":""fullscreenenter"",""trial"":1,""time"":1996}]",NA,NA,NA,NA,NA,6,#1CD855,#FA92F8,10,0,1,40,0,986.1000000014901,39,0,635.6999999992549,0,0,experiment,NA,NA,1,0.7,0.3,2,3,219,5,NA
fcp-trial,295,1545505,0.0-230.0-0.0,voc_e2,11669,"[{""event"":""fullscreenenter"",""trial"":1,""time"":1996}]",NA,NA,NA,NA,NA,2,#FA92F8,#1CD855,0,0,0,40,0,1383.300000000745,37,1,645.4000000022352,0,0,experiment,NA,NA,1,0.3,0.7,3,2,220,5,NA
fcp-trial,296,1549744,0.0-231.0-0.0,voc_e2,11669,"[{""event"":""fullscreenenter"",""trial"":1,""time"":1996}]",NA,NA,NA,NA,NA,5,#D8271C,#741CD8,10,0,0,40,0,1565.699999999255,37,1,1140.5,10,0,experiment,NA,NA,2,0.5,0.5,5,4,221,5,NA
fcp-trial,297,1552712,0.0-232.0-0.0,voc_e2,11669,"[{""event"":""fullscreenenter"",""trial"":1,""time"":1996}]",NA,NA,NA,NA,NA,2,#3386FF,#D89F1C,10,0,1,38,1,946.5,37,1,489.69999999925494,10,1,experiment,NA,NA,0,0.9,0.1,0,1,222,5,NA
fcp-trial,298,1556755,0.0-233.0-0.0,voc_e2,11669,"[{""event"":""fullscreenenter"",""trial"":1,""time"":1996}]",NA,NA,NA,NA,NA,1,#741CD8,#D8271C,10,10,1,40,0,1551.5,37,1,961.8000000007451,10,1,experiment,NA,NA,2,0.5,0.5,4,5,223,5,NA
fcp-trial,299,1559455,0.0-234.0-0.0,voc_e2,11669,"[{""event"":""fullscreenenter"",""trial"":1,""time"":1996}]",NA,NA,NA,NA,NA,4,#1CD855,#FA92F8,10,10,1,38,1,730.8999999985099,39,0,446.5,10,0,experiment,NA,NA,1,0.7,0.3,2,3,224,5,NA
fcp-trial,300,1563255,0.0-235.0-0.0,voc_e2,11669,"[{""event"":""fullscreenenter"",""trial"":1,""time"":1996}]",NA,NA,NA,NA,NA,6,#741CD8,#D8271C,0,0,1,40,0,1442.300000000745,39,0,826,0,0,experiment,NA,NA,2,0.5,0.5,4,5,225,5,NA
fcp-trial,301,1566031,0.0-236.0-0.0,voc_e2,11669,"[{""event"":""fullscreenenter"",""trial"":1,""time"":1996}]",NA,NA,NA,NA,NA,3,#D89F1C,#3386FF,0,10,0,38,1,867.6000000014901,39,0,376,10,1,experiment,NA,NA,0,0.1,0.9,1,0,226,6,NA
fcp-trial,302,1569854,0.0-237.0-0.0,voc_e2,11669,"[{""event"":""fullscreenenter"",""trial"":1,""time"":1996}]",NA,NA,NA,NA,NA,0,#FA92F8,#1CD855,10,10,0,40,0,1686.6000000014901,39,0,609,10,1,experiment,NA,NA,1,0.3,0.7,3,2,227,6,NA
fcp-trial,303,1572789,0.0-238.0-0.0,voc_e2,11669,"[{""event"":""fullscreenenter"",""trial"":1,""time"":1996}]",NA,NA,NA,NA,NA,5,#3386FF,#D89F1C,10,0,1,38,1,877.3000000007451,37,1,549.1000000014901,10,1,experiment,NA,NA,0,0.9,0.1,0,1,228,6,NA
fcp-trial,304,1575874,0.0-239.0-0.0,voc_e2,11669,"[{""event"":""fullscreenenter"",""trial"":1,""time"":1996}]",NA,NA,NA,NA,NA,3,#D8271C,#741CD8,10,0,0,38,1,1082.199999999255,39,0,465.19999999925494,0,1,experiment,NA,NA,2,0.5,0.5,5,4,229,6,NA
fcp-trial,305,1579705,0.0-240.0-0.0,voc_e2,11669,"[{""event"":""fullscreenenter"",""trial"":1,""time"":1996}]",NA,NA,NA,NA,NA,1,#D89F1C,#3386FF,0,10,0,38,1,1066.300000000745,39,0,1257,10,1,experiment,NA,NA,0,0.1,0.9,1,0,230,6,NA
fcp-trial,306,1582975,0.0-241.0-0.0,voc_e2,11669,"[{""event"":""fullscreenenter"",""trial"":1,""time"":1996}]",NA,NA,NA,NA,NA,0,#D89F1C,#3386FF,10,10,0,38,1,776.6000000014901,39,0,963.1999999992549,10,1,experiment,NA,NA,0,0.1,0.9,1,0,231,6,NA
fcp-trial,307,1586049,0.0-242.0-0.0,voc_e2,11669,"[{""event"":""fullscreenenter"",""trial"":1,""time"":1996}]",NA,NA,NA,NA,NA,3,#D8271C,#741CD8,0,10,0,38,1,1168,39,0,385.69999999925494,10,1,experiment,NA,NA,2,0.5,0.5,5,4,232,6,NA
fcp-trial,308,1588880,0.0-243.0-0.0,voc_e2,11669,"[{""event"":""fullscreenenter"",""trial"":1,""time"":1996}]",NA,NA,NA,NA,NA,0,#3386FF,#D89F1C,10,0,1,38,1,816.5,37,1,485.8999999985099,10,1,experiment,NA,NA,0,0.9,0.1,0,1,233,6,NA
fcp-trial,309,1591607,0.0-244.0-0.0,voc_e2,11669,"[{""event"":""fullscreenenter"",""trial"":1,""time"":1996}]",NA,NA,NA,NA,NA,2,#3386FF,#D89F1C,10,0,1,38,1,759.2000000029802,37,1,431.3999999985099,10,1,experiment,NA,NA,0,0.9,0.1,0,1,234,6,NA
fcp-trial,310,1595179,0.0-245.0-0.0,voc_e2,11669,"[{""event"":""fullscreenenter"",""trial"":1,""time"":1996}]",NA,NA,NA,NA,NA,6,#FA92F8,#1CD855,10,10,0,40,0,1028.699999999255,37,1,1033.0999999977648,10,0,experiment,NA,NA,1,0.3,0.7,3,2,235,6,NA
fcp-trial,311,1598824,0.0-246.0-0.0,voc_e2,11669,"[{""event"":""fullscreenenter"",""trial"":1,""time"":1996}]",NA,NA,NA,NA,NA,3,#3386FF,#D89F1C,10,10,1,38,1,868.9000000022352,37,1,1244.300000000745,10,1,experiment,NA,NA,0,0.9,0.1,0,1,236,6,NA
fcp-trial,312,1601663,0.0-247.0-0.0,voc_e2,11669,"[{""event"":""fullscreenenter"",""trial"":1,""time"":1996}]",NA,NA,NA,NA,NA,0,#741CD8,#D8271C,0,10,1,38,1,808.6000000014901,37,1,500.30000000074506,0,1,experiment,NA,NA,2,0.5,0.5,4,5,237,6,NA
fcp-trial,313,1604390,0.0-248.0-0.0,voc_e2,11669,"[{""event"":""fullscreenenter"",""trial"":1,""time"":1996}]",NA,NA,NA,NA,NA,1,#3386FF,#D89F1C,10,0,1,38,1,739.5,37,1,472,10,1,experiment,NA,NA,0,0.9,0.1,0,1,238,6,NA
fcp-trial,314,1607259,0.0-249.0-0.0,voc_e2,11669,"[{""event"":""fullscreenenter"",""trial"":1,""time"":1996}]",NA,NA,NA,NA,NA,5,#741CD8,#D8271C,0,0,1,38,1,896.0999999977648,37,1,441.30000000074506,0,1,experiment,NA,NA,2,0.5,0.5,4,5,239,6,NA
fcp-trial,315,1610758,0.0-250.0-0.0,voc_e2,11669,"[{""event"":""fullscreenenter"",""trial"":1,""time"":1996}]",NA,NA,NA,NA,NA,4,#FA92F8,#1CD855,0,10,0,40,0,1403.1000000014901,39,0,565.1999999992549,10,1,experiment,NA,NA,1,0.3,0.7,3,2,240,6,NA
fcp-trial,316,1613132,0.0-251.0-0.0,voc_e2,11669,"[{""event"":""fullscreenenter"",""trial"":1,""time"":1996}]",NA,NA,NA,NA,NA,6,#3386FF,#D89F1C,10,0,1,38,1,482.9000000022352,37,1,358,10,1,experiment,NA,NA,0,0.9,0.1,0,1,241,6,NA
fcp-trial,317,1616885,0.0-252.0-0.0,voc_e2,11669,"[{""event"":""fullscreenenter"",""trial"":1,""time"":1996}]",NA,NA,NA,NA,NA,1,#FA92F8,#1CD855,0,10,0,40,0,949.8000000007451,37,1,1272.2000000029802,0,0,experiment,NA,NA,1,0.3,0.7,3,2,242,6,NA
fcp-trial,318,1619531,0.0-253.0-0.0,voc_e2,11669,"[{""event"":""fullscreenenter"",""trial"":1,""time"":1996}]",NA,NA,NA,NA,NA,4,#741CD8,#D8271C,10,10,1,38,1,778,37,1,338.30000000074506,10,1,experiment,NA,NA,2,0.5,0.5,4,5,243,6,NA
fcp-trial,319,1623043,0.0-254.0-0.0,voc_e2,11669,"[{""event"":""fullscreenenter"",""trial"":1,""time"":1996}]",NA,NA,NA,NA,NA,5,#1CD855,#FA92F8,10,10,1,40,0,1024.5,37,1,962.5,10,1,experiment,NA,NA,1,0.7,0.3,2,3,244,6,NA
fcp-trial,320,1627877,0.0-255.0-0.0,voc_e2,11669,"[{""event"":""fullscreenenter"",""trial"":1,""time"":1996}]",NA,NA,NA,NA,NA,1,#741CD8,#D8271C,10,10,1,38,1,1249.8999999985099,37,1,2053.199999999255,10,1,experiment,NA,NA,2,0.5,0.5,4,5,245,6,NA
fcp-trial,321,1630612,0.0-256.0-0.0,voc_e2,11669,"[{""event"":""fullscreenenter"",""trial"":1,""time"":1996}]",NA,NA,NA,NA,NA,4,#3386FF,#D89F1C,10,0,1,38,1,778.5999999977648,37,1,450.30000000074506,10,1,experiment,NA,NA,0,0.9,0.1,0,1,246,6,NA
fcp-trial,322,1633372,0.0-257.0-0.0,voc_e2,11669,"[{""event"":""fullscreenenter"",""trial"":1,""time"":1996}]",NA,NA,NA,NA,NA,0,#1CD855,#FA92F8,0,0,1,40,0,574.4000000022352,37,1,675.1999999992549,0,1,experiment,NA,NA,1,0.7,0.3,2,3,247,6,NA
fcp-trial,323,1636216,0.0-258.0-0.0,voc_e2,11669,"[{""event"":""fullscreenenter"",""trial"":1,""time"":1996}]",NA,NA,NA,NA,NA,5,#3386FF,#D89F1C,10,0,1,38,1,662.1999999992549,37,1,673.6000000014901,10,1,experiment,NA,NA,0,0.9,0.1,0,1,248,6,NA
fcp-trial,324,1640745,0.0-259.0-0.0,voc_e2,11669,"[{""event"":""fullscreenenter"",""trial"":1,""time"":1996}]",NA,NA,NA,NA,NA,6,#D8271C,#741CD8,0,0,0,40,0,2326,37,1,678.9000000022352,0,0,experiment,NA,NA,2,0.5,0.5,5,4,249,6,NA
fcp-trial,325,1646997,0.0-260.0-0.0,voc_e2,11669,"[{""event"":""fullscreenenter"",""trial"":1,""time"":1996}]",NA,NA,NA,NA,NA,2,#1CD855,#FA92F8,0,0,1,38,1,583.3000000007451,37,1,4136.300000000745,0,1,experiment,NA,NA,1,0.7,0.3,2,3,250,6,NA
fcp-trial,326,1650942,0.0-261.0-0.0,voc_e2,11669,"[{""event"":""fullscreenenter"",""trial"":1,""time"":1996}]",NA,NA,NA,NA,NA,2,#D8271C,#741CD8,0,10,0,38,1,818.9000000022352,39,0,1591.699999999255,10,1,experiment,NA,NA,2,0.5,0.5,5,4,251,6,NA
fcp-trial,327,1654074,0.0-262.0-0.0,voc_e2,11669,"[{""event"":""fullscreenenter"",""trial"":1,""time"":1996}]",NA,NA,NA,NA,NA,3,#1CD855,#FA92F8,10,10,1,40,0,893.8999999985099,39,0,707.9000000022352,10,0,experiment,NA,NA,1,0.7,0.3,2,3,252,6,NA
fcp-trial,328,1656979,0.0-263.0-0.0,voc_e2,11669,"[{""event"":""fullscreenenter"",""trial"":1,""time"":1996}]",NA,NA,NA,NA,NA,5,#D89F1C,#3386FF,0,10,0,38,1,845.3000000007451,39,0,549.7000000029802,10,1,experiment,NA,NA,0,0.1,0.9,1,0,253,6,NA
fcp-trial,329,1660015,0.0-264.0-0.0,voc_e2,11669,"[{""event"":""fullscreenenter"",""trial"":1,""time"":1996}]",NA,NA,NA,NA,NA,6,#D89F1C,#3386FF,0,10,0,40,0,939.5999999977648,39,0,567.2999999970198,10,1,experiment,NA,NA,0,0.1,0.9,1,0,254,6,NA
fcp-trial,330,1665895,0.0-265.0-0.0,voc_e2,11669,"[{""event"":""fullscreenenter"",""trial"":1,""time"":1996}]",NA,NA,NA,NA,NA,1,#D8271C,#741CD8,0,0,0,40,0,1137,37,1,3214.400000002235,0,0,experiment,NA,NA,2,0.5,0.5,5,4,255,6,NA
fcp-trial,331,1669805,0.0-266.0-0.0,voc_e2,11669,"[{""event"":""fullscreenenter"",""trial"":1,""time"":1996}]",NA,NA,NA,NA,NA,0,#1CD855,#FA92F8,0,0,1,40,0,597,37,1,1777.1000000014901,0,1,experiment,NA,NA,1,0.7,0.3,2,3,256,6,NA
fcp-trial,332,1673545,0.0-267.0-0.0,voc_e2,11669,"[{""event"":""fullscreenenter"",""trial"":1,""time"":1996}]",NA,NA,NA,NA,NA,3,#3386FF,#D89F1C,10,0,1,38,1,1667.800000000745,37,1,543.7000000029802,10,1,experiment,NA,NA,0,0.9,0.1,0,1,257,6,NA
fcp-trial,333,1678006,0.0-268.0-0.0,voc_e2,11669,"[{""event"":""fullscreenenter"",""trial"":1,""time"":1996}]",NA,NA,NA,NA,NA,2,#D8271C,#741CD8,0,10,0,38,1,1482.0999999977648,39,0,1470.199999999255,10,1,experiment,NA,NA,2,0.5,0.5,5,4,258,6,NA
fcp-trial,334,1682935,0.0-269.0-0.0,voc_e2,11669,"[{""event"":""fullscreenenter"",""trial"":1,""time"":1996}]",NA,NA,NA,NA,NA,3,#FA92F8,#1CD855,0,0,0,40,0,2706.60000000149,37,1,706.8999999985099,0,0,experiment,NA,NA,1,0.3,0.7,3,2,259,6,NA
fcp-trial,335,1686361,0.0-270.0-0.0,voc_e2,11669,"[{""event"":""fullscreenenter"",""trial"":1,""time"":1996}]",NA,NA,NA,NA,NA,2,#3386FF,#D89F1C,10,0,1,38,1,1015.3999999985099,37,1,877.1000000014901,10,1,experiment,NA,NA,0,0.9,0.1,0,1,260,6,NA
fcp-trial,336,1691203,0.0-271.0-0.0,voc_e2,11669,"[{""event"":""fullscreenenter"",""trial"":1,""time"":1996}]",NA,NA,NA,NA,NA,5,#1CD855,#FA92F8,10,0,1,40,0,1599.5999999977648,37,1,1709.5,10,1,experiment,NA,NA,1,0.7,0.3,2,3,261,6,NA
fcp-trial,337,1693986,0.0-272.0-0.0,voc_e2,11669,"[{""event"":""fullscreenenter"",""trial"":1,""time"":1996}]",NA,NA,NA,NA,NA,4,#D8271C,#741CD8,0,10,0,38,1,758.2000000029802,37,1,508,0,0,experiment,NA,NA,2,0.5,0.5,5,4,262,6,NA
fcp-trial,338,1696823,0.0-273.0-0.0,voc_e2,11669,"[{""event"":""fullscreenenter"",""trial"":1,""time"":1996}]",NA,NA,NA,NA,NA,1,#1CD855,#FA92F8,10,0,1,40,0,665.7000000029802,39,0,636.7999999970198,0,0,experiment,NA,NA,1,0.7,0.3,2,3,263,6,NA
fcp-trial,339,1699871,0.0-274.0-0.0,voc_e2,11669,"[{""event"":""fullscreenenter"",""trial"":1,""time"":1996}]",NA,NA,NA,NA,NA,0,#D89F1C,#3386FF,0,10,0,38,1,735.9000000022352,39,0,784.0999999977648,10,1,experiment,NA,NA,0,0.1,0.9,1,0,264,6,NA
fcp-trial,340,1702879,0.0-275.0-0.0,voc_e2,11669,"[{""event"":""fullscreenenter"",""trial"":1,""time"":1996}]",NA,NA,NA,NA,NA,6,#D8271C,#741CD8,0,10,0,40,0,832.5999999977648,39,0,661.8000000007451,10,1,experiment,NA,NA,2,0.5,0.5,5,4,265,6,NA
fcp-trial,341,1707179,0.0-276.0-0.0,voc_e2,11669,"[{""event"":""fullscreenenter"",""trial"":1,""time"":1996}]",NA,NA,NA,NA,NA,6,#1CD855,#FA92F8,0,0,1,40,0,1357,37,1,1431.5,0,1,experiment,NA,NA,1,0.7,0.3,2,3,266,6,NA
fcp-trial,342,1710571,0.0-277.0-0.0,voc_e2,11669,"[{""event"":""fullscreenenter"",""trial"":1,""time"":1996}]",NA,NA,NA,NA,NA,3,#D8271C,#741CD8,0,0,0,38,1,956.5999999977648,39,0,905,0,1,experiment,NA,NA,2,0.5,0.5,5,4,267,6,NA
fcp-trial,343,1713807,0.0-278.0-0.0,voc_e2,11669,"[{""event"":""fullscreenenter"",""trial"":1,""time"":1996}]",NA,NA,NA,NA,NA,1,#3386FF,#D89F1C,10,0,1,38,1,955,37,1,749.5999999977648,10,1,experiment,NA,NA,0,0.9,0.1,0,1,268,6,NA
fcp-trial,344,1717432,0.0-279.0-0.0,voc_e2,11669,"[{""event"":""fullscreenenter"",""trial"":1,""time"":1996}]",NA,NA,NA,NA,NA,0,#741CD8,#D8271C,0,10,1,38,1,1284.199999999255,37,1,812.8000000007451,0,1,experiment,NA,NA,2,0.5,0.5,4,5,269,6,NA
fcp-trial,345,1720513,0.0-280.0-0.0,voc_e2,11669,"[{""event"":""fullscreenenter"",""trial"":1,""time"":1996}]",NA,NA,NA,NA,NA,5,#741CD8,#D8271C,0,10,1,38,1,958.0999999977648,37,1,613.6999999992549,0,1,experiment,NA,NA,2,0.5,0.5,4,5,270,6,NA
fcp-trial,346,1725150,0.0-281.0-0.0,voc_e2,11669,"[{""event"":""fullscreenenter"",""trial"":1,""time"":1996}]",NA,NA,NA,NA,NA,4,#FA92F8,#1CD855,10,10,0,40,0,2279.800000000745,39,0,850.5999999977648,10,1,experiment,NA,NA,1,0.3,0.7,3,2,271,7,NA
fcp-trial,347,1728916,0.0-282.0-0.0,voc_e2,11669,"[{""event"":""fullscreenenter"",""trial"":1,""time"":1996}]",NA,NA,NA,NA,NA,4,#D89F1C,#3386FF,0,10,0,38,1,880.4000000022352,39,0,1360.199999999255,10,1,experiment,NA,NA,0,0.1,0.9,1,0,272,7,NA
fcp-trial,348,1733720,0.0-283.0-0.0,voc_e2,11669,"[{""event"":""fullscreenenter"",""trial"":1,""time"":1996}]",NA,NA,NA,NA,NA,2,#FA92F8,#1CD855,0,10,0,38,1,899.7000000029802,37,1,2373.89999999851,0,0,experiment,NA,NA,1,0.3,0.7,3,2,273,7,NA
fcp-trial,349,1736603,0.0-284.0-0.0,voc_e2,11669,"[{""event"":""fullscreenenter"",""trial"":1,""time"":1996}]",NA,NA,NA,NA,NA,0,#741CD8,#D8271C,0,0,1,38,1,568.1000000014901,37,1,783.3000000007451,0,1,experiment,NA,NA,2,0.5,0.5,4,5,274,7,NA
fcp-trial,350,1739225,0.0-285.0-0.0,voc_e2,11669,"[{""event"":""fullscreenenter"",""trial"":1,""time"":1996}]",NA,NA,NA,NA,NA,6,#D89F1C,#3386FF,10,10,0,38,1,624.9000000022352,39,0,474.69999999925494,10,1,experiment,NA,NA,0,0.1,0.9,1,0,275,7,NA
fcp-trial,351,1741787,0.0-286.0-0.0,voc_e2,11669,"[{""event"":""fullscreenenter"",""trial"":1,""time"":1996}]",NA,NA,NA,NA,NA,5,#3386FF,#D89F1C,0,10,1,38,1,633.4000000022352,37,1,398.1000000014901,0,1,experiment,NA,NA,0,0.9,0.1,0,1,276,7,NA
fcp-trial,352,1744209,0.0-287.0-0.0,voc_e2,11669,"[{""event"":""fullscreenenter"",""trial"":1,""time"":1996}]",NA,NA,NA,NA,NA,3,#FA92F8,#1CD855,0,0,0,38,1,535.3000000007451,39,0,358.19999999925494,0,1,experiment,NA,NA,1,0.3,0.7,3,2,277,7,NA
fcp-trial,353,1747065,0.0-288.0-0.0,voc_e2,11669,"[{""event"":""fullscreenenter"",""trial"":1,""time"":1996}]",NA,NA,NA,NA,NA,2,#741CD8,#D8271C,10,0,1,38,1,723.3000000007451,37,1,601.8000000007451,10,1,experiment,NA,NA,2,0.5,0.5,4,5,278,7,NA
fcp-trial,354,1749683,0.0-289.0-0.0,voc_e2,11669,"[{""event"":""fullscreenenter"",""trial"":1,""time"":1996}]",NA,NA,NA,NA,NA,1,#741CD8,#D8271C,0,0,1,38,1,744.2000000029802,37,1,365.20000000298023,0,1,experiment,NA,NA,2,0.5,0.5,4,5,279,7,NA
fcp-trial,355,1752523,0.0-290.0-0.0,voc_e2,11669,"[{""event"":""fullscreenenter"",""trial"":1,""time"":1996}]",NA,NA,NA,NA,NA,2,#D89F1C,#3386FF,0,10,0,38,1,826.9000000022352,39,0,481.4000000022352,10,1,experiment,NA,NA,0,0.1,0.9,1,0,280,7,NA
fcp-trial,356,1755269,0.0-291.0-0.0,voc_e2,11669,"[{""event"":""fullscreenenter"",""trial"":1,""time"":1996}]",NA,NA,NA,NA,NA,2,#FA92F8,#1CD855,0,10,0,40,0,535.4000000022352,39,0,680.1999999992549,10,1,experiment,NA,NA,1,0.3,0.7,3,2,281,7,NA
fcp-trial,357,1757883,0.0-292.0-0.0,voc_e2,11669,"[{""event"":""fullscreenenter"",""trial"":1,""time"":1996}]",NA,NA,NA,NA,NA,5,#D8271C,#741CD8,0,10,0,38,1,692.1999999992549,39,0,396.8999999985099,10,1,experiment,NA,NA,2,0.5,0.5,5,4,282,7,NA
fcp-trial,358,1761717,0.0-293.0-0.0,voc_e2,11669,"[{""event"":""fullscreenenter"",""trial"":1,""time"":1996}]",NA,NA,NA,NA,NA,5,#FA92F8,#1CD855,0,10,0,40,0,1690.4000000022352,39,0,613.0999999977648,10,1,experiment,NA,NA,1,0.3,0.7,3,2,283,7,NA
fcp-trial,359,1764374,0.0-294.0-0.0,voc_e2,11669,"[{""event"":""fullscreenenter"",""trial"":1,""time"":1996}]",NA,NA,NA,NA,NA,4,#741CD8,#D8271C,10,10,1,38,1,610.1999999992549,37,1,514.0999999977648,10,1,experiment,NA,NA,2,0.5,0.5,4,5,284,7,NA
fcp-trial,360,1767100,0.0-295.0-0.0,voc_e2,11669,"[{""event"":""fullscreenenter"",""trial"":1,""time"":1996}]",NA,NA,NA,NA,NA,0,#3386FF,#D89F1C,10,0,1,38,1,646.1999999992549,37,1,546.5,10,1,experiment,NA,NA,0,0.9,0.1,0,1,285,7,NA
fcp-trial,361,1769629,0.0-296.0-0.0,voc_e2,11669,"[{""event"":""fullscreenenter"",""trial"":1,""time"":1996}]",NA,NA,NA,NA,NA,4,#3386FF,#D89F1C,10,0,1,38,1,657.7999999970198,37,1,339.9000000022352,10,1,experiment,NA,NA,0,0.9,0.1,0,1,286,7,NA
fcp-trial,362,1772582,0.0-297.0-0.0,voc_e2,11669,"[{""event"":""fullscreenenter"",""trial"":1,""time"":1996}]",NA,NA,NA,NA,NA,1,#FA92F8,#1CD855,10,10,0,40,0,750.5,39,0,673.6999999992549,10,1,experiment,NA,NA,1,0.3,0.7,3,2,287,7,NA
fcp-trial,363,1776099,0.0-298.0-0.0,voc_e2,11669,"[{""event"":""fullscreenenter"",""trial"":1,""time"":1996}]",NA,NA,NA,NA,NA,3,#D89F1C,#3386FF,0,10,0,38,1,1461.3999999985099,39,0,541.8999999985099,10,1,experiment,NA,NA,0,0.1,0.9,1,0,288,7,NA
fcp-trial,364,1778917,0.0-299.0-0.0,voc_e2,11669,"[{""event"":""fullscreenenter"",""trial"":1,""time"":1996}]",NA,NA,NA,NA,NA,3,#741CD8,#D8271C,0,0,1,38,1,917,37,1,370.9000000022352,0,1,experiment,NA,NA,2,0.5,0.5,4,5,289,7,NA
fcp-trial,365,1782509,0.0-300.0-0.0,voc_e2,11669,"[{""event"":""fullscreenenter"",""trial"":1,""time"":1996}]",NA,NA,NA,NA,NA,0,#1CD855,#FA92F8,0,0,1,40,0,1479.2999999970198,39,0,583.1000000014901,0,0,experiment,NA,NA,1,0.7,0.3,2,3,290,7,NA
fcp-trial,366,1786222,0.0-301.0-0.0,voc_e2,11669,"[{""event"":""fullscreenenter"",""trial"":1,""time"":1996}]",NA,NA,NA,NA,NA,6,#FA92F8,#1CD855,0,10,0,40,0,1335.300000000745,37,1,863.6999999992549,0,0,experiment,NA,NA,1,0.3,0.7,3,2,291,7,NA
fcp-trial,367,1789436,0.0-302.0-0.0,voc_e2,11669,"[{""event"":""fullscreenenter"",""trial"":1,""time"":1996}]",NA,NA,NA,NA,NA,4,#1CD855,#FA92F8,10,0,1,38,1,833.8000000007451,39,0,862.1000000014901,0,0,experiment,NA,NA,1,0.7,0.3,2,3,292,7,NA
fcp-trial,368,1793338,0.0-303.0-0.0,voc_e2,11669,"[{""event"":""fullscreenenter"",""trial"":1,""time"":1996}]",NA,NA,NA,NA,NA,1,#3386FF,#D89F1C,10,0,1,38,1,891.0999999977648,37,1,1497.4000000022352,10,1,experiment,NA,NA,0,0.9,0.1,0,1,293,7,NA
fcp-trial,369,1796438,0.0-304.0-0.0,voc_e2,11669,"[{""event"":""fullscreenenter"",""trial"":1,""time"":1996}]",NA,NA,NA,NA,NA,6,#741CD8,#D8271C,0,0,1,38,1,906.8000000007451,37,1,684.5,0,1,experiment,NA,NA,2,0.5,0.5,4,5,294,7,NA
fcp-trial,370,1799206,0.0-305.0-0.0,voc_e2,11669,"[{""event"":""fullscreenenter"",""trial"":1,""time"":1996}]",NA,NA,NA,NA,NA,5,#D8271C,#741CD8,10,0,0,38,1,781.6999999992549,39,0,480.1000000014901,0,1,experiment,NA,NA,2,0.5,0.5,5,4,295,7,NA
fcp-trial,371,1801891,0.0-306.0-0.0,voc_e2,11669,"[{""event"":""fullscreenenter"",""trial"":1,""time"":1996}]",NA,NA,NA,NA,NA,0,#741CD8,#D8271C,0,10,1,38,1,857,37,1,319.9000000022352,0,1,experiment,NA,NA,2,0.5,0.5,4,5,296,7,NA
fcp-trial,372,1805445,0.0-307.0-0.0,voc_e2,11669,"[{""event"":""fullscreenenter"",""trial"":1,""time"":1996}]",NA,NA,NA,NA,NA,0,#1CD855,#FA92F8,10,0,1,38,1,666.6000000014901,37,1,1370.699999999255,10,1,experiment,NA,NA,1,0.7,0.3,2,3,297,7,NA
fcp-trial,373,1808669,0.0-308.0-0.0,voc_e2,11669,"[{""event"":""fullscreenenter"",""trial"":1,""time"":1996}]",NA,NA,NA,NA,NA,0,#D89F1C,#3386FF,0,10,0,38,1,753.8000000007451,39,0,949.6000000014901,10,1,experiment,NA,NA,0,0.1,0.9,1,0,298,7,NA
fcp-trial,374,1812088,0.0-309.0-0.0,voc_e2,11669,"[{""event"":""fullscreenenter"",""trial"":1,""time"":1996}]",NA,NA,NA,NA,NA,1,#741CD8,#D8271C,0,10,1,40,0,1258.199999999255,37,1,654.1999999992549,0,1,experiment,NA,NA,2,0.5,0.5,4,5,299,7,NA
fcp-trial,375,1815139,0.0-310.0-0.0,voc_e2,11669,"[{""event"":""fullscreenenter"",""trial"":1,""time"":1996}]",NA,NA,NA,NA,NA,5,#3386FF,#D89F1C,10,0,1,38,1,761.5,37,1,782.6999999992549,10,1,experiment,NA,NA,0,0.9,0.1,0,1,300,7,NA
fcp-trial,376,1818602,0.0-311.0-0.0,voc_e2,11669,"[{""event"":""fullscreenenter"",""trial"":1,""time"":1996}]",NA,NA,NA,NA,NA,3,#1CD855,#FA92F8,10,0,1,40,0,1109.3999999985099,37,1,848,10,1,experiment,NA,NA,1,0.7,0.3,2,3,301,7,NA
fcp-trial,377,1822602,0.0-312.0-0.0,voc_e2,11669,"[{""event"":""fullscreenenter"",""trial"":1,""time"":1996}]",NA,NA,NA,NA,NA,2,#741CD8,#D8271C,0,0,1,38,1,802.3000000007451,37,1,1690.5,0,1,experiment,NA,NA,2,0.5,0.5,4,5,302,7,NA
fcp-trial,378,1825638,0.0-313.0-0.0,voc_e2,11669,"[{""event"":""fullscreenenter"",""trial"":1,""time"":1996}]",NA,NA,NA,NA,NA,6,#FA92F8,#1CD855,0,0,0,38,1,655.8000000007451,37,1,870.5,0,0,experiment,NA,NA,1,0.3,0.7,3,2,303,7,NA
fcp-trial,379,1828707,0.0-314.0-0.0,voc_e2,11669,"[{""event"":""fullscreenenter"",""trial"":1,""time"":1996}]",NA,NA,NA,NA,NA,4,#D89F1C,#3386FF,10,10,0,38,1,694.9000000022352,39,0,867.8999999985099,10,1,experiment,NA,NA,0,0.1,0.9,1,0,304,7,NA
fcp-trial,380,1831585,0.0-315.0-0.0,voc_e2,11669,"[{""event"":""fullscreenenter"",""trial"":1,""time"":1996}]",NA,NA,NA,NA,NA,1,#3386FF,#D89F1C,10,0,1,38,1,706.8999999985099,37,1,664.9000000022352,10,1,experiment,NA,NA,0,0.9,0.1,0,1,305,7,NA
fcp-trial,381,1834444,0.0-316.0-0.0,voc_e2,11669,"[{""event"":""fullscreenenter"",""trial"":1,""time"":1996}]",NA,NA,NA,NA,NA,6,#D89F1C,#3386FF,10,10,0,38,1,676.8000000007451,39,0,675,10,1,experiment,NA,NA,0,0.1,0.9,1,0,306,7,NA
fcp-trial,382,1837320,0.0-317.0-0.0,voc_e2,11669,"[{""event"":""fullscreenenter"",""trial"":1,""time"":1996}]",NA,NA,NA,NA,NA,6,#741CD8,#D8271C,0,0,1,38,1,896.1999999992549,37,1,462.3999999985099,0,1,experiment,NA,NA,2,0.5,0.5,4,5,307,7,NA
fcp-trial,383,1839988,0.0-318.0-0.0,voc_e2,11669,"[{""event"":""fullscreenenter"",""trial"":1,""time"":1996}]",NA,NA,NA,NA,NA,2,#FA92F8,#1CD855,0,10,0,40,0,461.9000000022352,37,1,673.8000000007451,0,0,experiment,NA,NA,1,0.3,0.7,3,2,308,7,NA
fcp-trial,384,1842936,0.0-319.0-0.0,voc_e2,11669,"[{""event"":""fullscreenenter"",""trial"":1,""time"":1996}]",NA,NA,NA,NA,NA,3,#D8271C,#741CD8,0,10,0,38,1,973.8000000007451,39,0,442.30000000074506,10,1,experiment,NA,NA,2,0.5,0.5,5,4,309,7,NA
fcp-trial,385,1846256,0.0-320.0-0.0,voc_e2,11669,"[{""event"":""fullscreenenter"",""trial"":1,""time"":1996}]",NA,NA,NA,NA,NA,3,#3386FF,#D89F1C,0,0,1,38,1,434.19999999925494,37,1,1368.1000000014901,0,1,experiment,NA,NA,0,0.9,0.1,0,1,310,7,NA
fcp-trial,386,1848813,0.0-321.0-0.0,voc_e2,11669,"[{""event"":""fullscreenenter"",""trial"":1,""time"":1996}]",NA,NA,NA,NA,NA,2,#3386FF,#D89F1C,10,0,1,38,1,578.9000000022352,37,1,447.4000000022352,10,1,experiment,NA,NA,0,0.9,0.1,0,1,311,7,NA
fcp-trial,387,1851738,0.0-322.0-0.0,voc_e2,11669,"[{""event"":""fullscreenenter"",""trial"":1,""time"":1996}]",NA,NA,NA,NA,NA,5,#1CD855,#FA92F8,10,0,1,38,1,597.1000000014901,37,1,798.3000000007451,10,1,experiment,NA,NA,1,0.7,0.3,2,3,312,7,NA
fcp-trial,388,1854711,0.0-323.0-0.0,voc_e2,11669,"[{""event"":""fullscreenenter"",""trial"":1,""time"":1996}]",NA,NA,NA,NA,NA,1,#FA92F8,#1CD855,0,0,0,40,0,508,39,0,932.6000000014901,0,1,experiment,NA,NA,1,0.3,0.7,3,2,313,7,NA
fcp-trial,389,1857916,0.0-324.0-0.0,voc_e2,11669,"[{""event"":""fullscreenenter"",""trial"":1,""time"":1996}]",NA,NA,NA,NA,NA,4,#D8271C,#741CD8,10,0,0,38,1,597.2000000029802,39,0,1073.1000000014901,0,1,experiment,NA,NA,2,0.5,0.5,5,4,314,7,NA
fcp-trial,390,1861743,0.0-325.0-0.0,voc_e2,11669,"[{""event"":""fullscreenenter"",""trial"":1,""time"":1996}]",NA,NA,NA,NA,NA,4,#FA92F8,#1CD855,0,10,0,40,0,989,39,0,1317.0999999977648,10,1,experiment,NA,NA,1,0.3,0.7,3,2,315,7,NA
audio-instructions,391,1870406,0.0-326.0,voc_e2,11669,"[{""event"":""fullscreenenter"",""trial"":1,""time"":1996}]",NA,2909,static/audio/finished.wav,NA,0,NA,NA,NA,NA,NA,NA,NA,NA,NA,NA,NA,NA,NA,NA,NA,NA,NA,NA,NA,NA,NA,NA,NA,NA,NA
audio-instructions,392,1882527,0.0-327.0-0.0,voc_e2,11669,"[{""event"":""fullscreenenter"",""trial"":1,""time"":1996}]",NA,1280.7999999970198,static/audio/explicit1.wav,NA,0,NA,NA,NA,NA,NA,NA,NA,NA,NA,NA,NA,NA,NA,NA,NA,NA,NA,NA,NA,NA,NA,NA,NA,NA,NA
audio-instructions,393,1890253,0.0-327.0-1.0,voc_e2,11669,"[{""event"":""fullscreenenter"",""trial"":1,""time"":1996}]",NA,132,static/audio/explicit2.wav,NA,0,NA,NA,NA,NA,NA,NA,NA,NA,NA,NA,NA,NA,NA,NA,NA,NA,NA,NA,NA,NA,NA,NA,NA,NA,NA
image-slider-response,394,1913818,0.0-328.0,voc_e2,11669,"[{""event"":""fullscreenenter"",""trial"":1,""time"":1996}]",NA,23561,static/img/machines/machine4.png,NA,NA,NA,NA,NA,NA,NA,NA,NA,NA,NA,NA,NA,NA,NA,NA,explicit,NA,NA,NA,NA,NA,NA,NA,NA,NA,5
image-slider-response,395,1917951,0.0-329.0,voc_e2,11669,"[{""event"":""fullscreenenter"",""trial"":1,""time"":1996}]",NA,4129.699999999255,static/img/machines/machine5.png,NA,NA,NA,NA,NA,NA,NA,NA,NA,NA,NA,NA,NA,NA,NA,NA,explicit,NA,NA,NA,NA,NA,NA,NA,NA,NA,4
image-slider-response,396,1923840,0.0-330.0,voc_e2,11669,"[{""event"":""fullscreenenter"",""trial"":1,""time"":1996}]",NA,5885.5,static/img/machines/machine6.png,NA,NA,NA,NA,NA,NA,NA,NA,NA,NA,NA,NA,NA,NA,NA,NA,explicit,NA,NA,NA,NA,NA,NA,NA,NA,NA,2
image-slider-response,397,1929926,0.0-331.0,voc_e2,11669,"[{""event"":""fullscreenenter"",""trial"":1,""time"":1996}]",NA,6083,static/img/machines/machine2.png,NA,NA,NA,NA,NA,NA,NA,NA,NA,NA,NA,NA,NA,NA,NA,NA,explicit,NA,NA,NA,NA,NA,NA,NA,NA,NA,6
image-slider-response,398,1937255,0.0-332.0,voc_e2,11669,"[{""event"":""fullscreenenter"",""trial"":1,""time"":1996}]",NA,7325.89999999851,static/img/machines/machine3.png,NA,NA,NA,NA,NA,NA,NA,NA,NA,NA,NA,NA,NA,NA,NA,NA,explicit,NA,NA,NA,NA,NA,NA,NA,NA,NA,9
image-slider-response,399,1941354,0.0-333.0,voc_e2,11669,"[{""event"":""fullscreenenter"",""trial"":1,""time"":1996}]",NA,4096.5,static/img/machines/machine1.png,NA,NA,NA,NA,NA,NA,NA,NA,NA,NA,NA,NA,NA,NA,NA,NA,explicit,NA,NA,NA,NA,NA,NA,NA,NA,NA,6
