trial_type,trial_index,time_elapsed,internal_node_id,task_version,subject_id,interactions,success,rt,stimulus,key_press,button_pressed,offer,arcade_color_L,arcade_color_R,arcade_outcome_L,arcade_outcome_R,correct,stage_1_key,stage_1_choice,stage_1_rt,stage_2_key,stage_2_choice,stage_2_rt,stage_3_outcome,accuracy,phase,responses,num_errors,context,reward_prob_L,reward_prob_R,arcade_id_L,arcade_id_R,trial,block,response
pavlovia,0,8,0.0-0.0,voc_e2,11762,[],NA,NA,NA,NA,NA,NA,NA,NA,NA,NA,NA,NA,NA,NA,NA,NA,NA,NA,NA,NA,NA,NA,NA,NA,NA,NA,NA,NA,NA,NA
fullscreen,1,6162,0.0-1.0,voc_e2,11762,"[{""event"":""fullscreenenter"",""trial"":1,""time"":5193}]",TRUE,NA,NA,NA,NA,NA,NA,NA,NA,NA,NA,NA,NA,NA,NA,NA,NA,NA,NA,NA,NA,NA,NA,NA,NA,NA,NA,NA,NA,NA
audio-keyboard-response,2,16078,0.0-2.0,voc_e2,11762,"[{""event"":""fullscreenenter"",""trial"":1,""time"":5193}]",NA,8360,static/audio/beep_loop.wav,32,NA,NA,NA,NA,NA,NA,NA,NA,NA,NA,NA,NA,NA,NA,NA,NA,NA,NA,NA,NA,NA,NA,NA,NA,NA,NA
audio-test,3,17838,0.0-3.0,voc_e2,11762,"[{""event"":""fullscreenenter"",""trial"":1,""time"":5193}]",NA,NA,static/audio/turtle.wav,NA,3,NA,NA,NA,NA,NA,NA,NA,NA,NA,NA,NA,NA,NA,NA,NA,NA,NA,NA,NA,NA,NA,NA,NA,NA,NA
audio-test,4,20669,0.0-4.0,voc_e2,11762,"[{""event"":""fullscreenenter"",""trial"":1,""time"":5193}]",NA,NA,static/audio/shark.wav,NA,2,NA,NA,NA,NA,NA,NA,NA,NA,NA,NA,NA,NA,NA,NA,NA,NA,NA,NA,NA,NA,NA,NA,NA,NA,NA
audio-instructions,5,29799,0.0-5.0-0.0,voc_e2,11762,"[{""event"":""fullscreenenter"",""trial"":1,""time"":5193}]",NA,3331.300000011921,static/audio/instructions1.wav,NA,0,NA,NA,NA,NA,NA,NA,NA,NA,NA,NA,NA,NA,NA,NA,NA,NA,NA,NA,NA,NA,NA,NA,NA,NA,NA
audio-instructions,6,38854,0.0-5.0-1.0,voc_e2,11762,"[{""event"":""fullscreenenter"",""trial"":1,""time"":5193}]",NA,2317.899999976158,static/audio/instructions2.wav,NA,0,NA,NA,NA,NA,NA,NA,NA,NA,NA,NA,NA,NA,NA,NA,NA,NA,NA,NA,NA,NA,NA,NA,NA,NA,NA
audio-instructions,7,48170,0.0-5.0-2.0,voc_e2,11762,"[{""event"":""fullscreenenter"",""trial"":1,""time"":5193}]",NA,3501.099999964237,static/audio/instructions3.wav,NA,0,NA,NA,NA,NA,NA,NA,NA,NA,NA,NA,NA,NA,NA,NA,NA,NA,NA,NA,NA,NA,NA,NA,NA,NA,NA
audio-instructions,8,62593,0.0-5.0-3.0,voc_e2,11762,"[{""event"":""fullscreenenter"",""trial"":1,""time"":5193}]",NA,1195.800000011921,static/audio/instructions4.wav,NA,0,NA,NA,NA,NA,NA,NA,NA,NA,NA,NA,NA,NA,NA,NA,NA,NA,NA,NA,NA,NA,NA,NA,NA,NA,NA
audio-instructions,9,73128,0.0-5.0-4.0,voc_e2,11762,"[{""event"":""fullscreenenter"",""trial"":1,""time"":5193}]",NA,1148.7999999523165,static/audio/instructions5.wav,NA,0,NA,NA,NA,NA,NA,NA,NA,NA,NA,NA,NA,NA,NA,NA,NA,NA,NA,NA,NA,NA,NA,NA,NA,NA,NA
fcp-practice,10,77209,0.0-5.0-5.0-0.0,voc_e2,11762,"[{""event"":""fullscreenenter"",""trial"":1,""time"":5193}]",NA,NA,NA,NA,NA,NA,#EDC948,#46d3c8,10,0,1,null,null,null,37,1,2557.400000035763,10,1,practice,NA,NA,NA,NA,NA,NA,NA,NA,NA,NA
fcp-practice,11,79137,0.0-5.0-5.0-1.0,voc_e2,11762,"[{""event"":""fullscreenenter"",""trial"":1,""time"":5193}]",NA,NA,NA,NA,NA,NA,#EDC948,#46d3c8,10,0,1,null,null,null,37,1,422.60000002384186,10,1,practice,NA,NA,NA,NA,NA,NA,NA,NA,NA,NA
fcp-practice,12,80967,0.0-5.0-5.0-2.0,voc_e2,11762,"[{""event"":""fullscreenenter"",""trial"":1,""time"":5193}]",NA,NA,NA,NA,NA,NA,#EDC948,#46d3c8,0,10,1,null,null,null,37,1,311.60000002384186,0,1,practice,NA,NA,NA,NA,NA,NA,NA,NA,NA,NA
fcp-practice,13,83129,0.0-5.0-5.0-3.0,voc_e2,11762,"[{""event"":""fullscreenenter"",""trial"":1,""time"":5193}]",NA,NA,NA,NA,NA,NA,#EDC948,#46d3c8,10,0,1,null,null,null,37,1,651.1999999880791,10,1,practice,NA,NA,NA,NA,NA,NA,NA,NA,NA,NA
fcp-practice,14,85099,0.0-5.0-5.0-4.0,voc_e2,11762,"[{""event"":""fullscreenenter"",""trial"":1,""time"":5193}]",NA,NA,NA,NA,NA,NA,#EDC948,#46d3c8,10,0,1,null,null,null,37,1,460.9000000357628,10,1,practice,NA,NA,NA,NA,NA,NA,NA,NA,NA,NA
audio-instructions,15,104704,0.0-5.0-6.0,voc_e2,11762,"[{""event"":""fullscreenenter"",""trial"":1,""time"":5193}]",NA,1594.5,static/audio/instructions6.wav,NA,0,NA,NA,NA,NA,NA,NA,NA,NA,NA,NA,NA,NA,NA,NA,NA,NA,NA,NA,NA,NA,NA,NA,NA,NA,NA
audio-instructions,16,127323,0.0-5.0-7.0,voc_e2,11762,"[{""event"":""fullscreenenter"",""trial"":1,""time"":5193}]",NA,3422.900000035763,static/audio/instructions7.wav,NA,0,NA,NA,NA,NA,NA,NA,NA,NA,NA,NA,NA,NA,NA,NA,NA,NA,NA,NA,NA,NA,NA,NA,NA,NA,NA
audio-instructions,17,138342,0.0-5.0-8.0,voc_e2,11762,"[{""event"":""fullscreenenter"",""trial"":1,""time"":5193}]",NA,1542.5,static/audio/instructions8.wav,NA,0,NA,NA,NA,NA,NA,NA,NA,NA,NA,NA,NA,NA,NA,NA,NA,NA,NA,NA,NA,NA,NA,NA,NA,NA,NA
fcp-comprehension,18,152471,0.0-5.0-9.0,voc_e2,11762,"[{""event"":""fullscreenenter"",""trial"":1,""time"":5193}]",NA,14127.100000023842,NA,NA,NA,NA,NA,NA,NA,NA,NA,NA,NA,NA,NA,NA,NA,NA,NA,NA,"false,true",1,NA,NA,NA,NA,NA,NA,NA,NA
audio-instructions,19,158617,0.0-5.1-0.1,voc_e2,11762,"[{""event"":""fullscreenenter"",""trial"":1,""time"":5193}]",NA,1367.399999976158,static/audio/instructions1.wav,NA,0,NA,NA,NA,NA,NA,NA,NA,NA,NA,NA,NA,NA,NA,NA,NA,NA,NA,NA,NA,NA,NA,NA,NA,NA,NA
audio-instructions,20,168249,0.0-5.1-1.1,voc_e2,11762,"[{""event"":""fullscreenenter"",""trial"":1,""time"":5193}]",NA,2878.899999976158,static/audio/instructions2.wav,NA,0,NA,NA,NA,NA,NA,NA,NA,NA,NA,NA,NA,NA,NA,NA,NA,NA,NA,NA,NA,NA,NA,NA,NA,NA,NA
audio-instructions,21,175161,0.0-5.1-2.1,voc_e2,11762,"[{""event"":""fullscreenenter"",""trial"":1,""time"":5193}]",NA,1101.7999999523165,static/audio/instructions3.wav,NA,0,NA,NA,NA,NA,NA,NA,NA,NA,NA,NA,NA,NA,NA,NA,NA,NA,NA,NA,NA,NA,NA,NA,NA,NA,NA
audio-instructions,22,190590,0.0-5.1-3.1,voc_e2,11762,"[{""event"":""fullscreenenter"",""trial"":1,""time"":5193}]",NA,2203,static/audio/instructions4.wav,NA,0,NA,NA,NA,NA,NA,NA,NA,NA,NA,NA,NA,NA,NA,NA,NA,NA,NA,NA,NA,NA,NA,NA,NA,NA,NA
audio-instructions,23,201004,0.0-5.1-4.1,voc_e2,11762,"[{""event"":""fullscreenenter"",""trial"":1,""time"":5193}]",NA,1026,static/audio/instructions5.wav,NA,0,NA,NA,NA,NA,NA,NA,NA,NA,NA,NA,NA,NA,NA,NA,NA,NA,NA,NA,NA,NA,NA,NA,NA,NA,NA
fcp-practice,24,202797,0.0-5.1-5.1-0.1,voc_e2,11762,"[{""event"":""fullscreenenter"",""trial"":1,""time"":5193}]",NA,NA,NA,NA,NA,NA,#EDC948,#46d3c8,10,0,1,null,null,null,37,1,274.2000000476837,10,1,practice,NA,NA,NA,NA,NA,NA,NA,NA,NA,NA
fcp-practice,25,204726,0.0-5.1-5.1-1.1,voc_e2,11762,"[{""event"":""fullscreenenter"",""trial"":1,""time"":5193}]",NA,NA,NA,NA,NA,NA,#EDC948,#46d3c8,10,0,1,null,null,null,37,1,418.2999999523163,10,1,practice,NA,NA,NA,NA,NA,NA,NA,NA,NA,NA
fcp-practice,26,206845,0.0-5.1-5.1-2.1,voc_e2,11762,"[{""event"":""fullscreenenter"",""trial"":1,""time"":5193}]",NA,NA,NA,NA,NA,NA,#EDC948,#46d3c8,0,10,1,null,null,null,37,1,611.1999999880791,0,1,practice,NA,NA,NA,NA,NA,NA,NA,NA,NA,NA
fcp-practice,27,208538,0.0-5.1-5.1-3.1,voc_e2,11762,"[{""event"":""fullscreenenter"",""trial"":1,""time"":5193}]",NA,NA,NA,NA,NA,NA,#EDC948,#46d3c8,10,0,1,null,null,null,37,1,181.80000001192093,10,1,practice,NA,NA,NA,NA,NA,NA,NA,NA,NA,NA
fcp-practice,28,210426,0.0-5.1-5.1-4.1,voc_e2,11762,"[{""event"":""fullscreenenter"",""trial"":1,""time"":5193}]",NA,NA,NA,NA,NA,NA,#EDC948,#46d3c8,10,0,1,null,null,null,37,1,374.7000000476837,10,1,practice,NA,NA,NA,NA,NA,NA,NA,NA,NA,NA
audio-instructions,29,230540,0.0-5.1-6.1,voc_e2,11762,"[{""event"":""fullscreenenter"",""trial"":1,""time"":5193}]",NA,2100.600000023842,static/audio/instructions6.wav,NA,0,NA,NA,NA,NA,NA,NA,NA,NA,NA,NA,NA,NA,NA,NA,NA,NA,NA,NA,NA,NA,NA,NA,NA,NA,NA
audio-instructions,30,250429,0.0-5.1-7.1,voc_e2,11762,"[{""event"":""fullscreenenter"",""trial"":1,""time"":5193}]",NA,687.1999999880791,static/audio/instructions7.wav,NA,0,NA,NA,NA,NA,NA,NA,NA,NA,NA,NA,NA,NA,NA,NA,NA,NA,NA,NA,NA,NA,NA,NA,NA,NA,NA
audio-instructions,31,263122,0.0-5.1-8.1,voc_e2,11762,"[{""event"":""fullscreenenter"",""trial"":1,""time"":5193}]",NA,3221.699999988079,static/audio/instructions8.wav,NA,0,NA,NA,NA,NA,NA,NA,NA,NA,NA,NA,NA,NA,NA,NA,NA,NA,NA,NA,NA,NA,NA,NA,NA,NA,NA
fcp-comprehension,32,272690,0.0-5.1-9.1,voc_e2,11762,"[{""event"":""fullscreenenter"",""trial"":1,""time"":5193}]",NA,9566.19999998808,NA,NA,NA,NA,NA,NA,NA,NA,NA,NA,NA,NA,NA,NA,NA,NA,NA,NA,"true,true",0,NA,NA,NA,NA,NA,NA,NA,NA
audio-instructions,33,280278,0.0-6.0-0.0,voc_e2,11762,"[{""event"":""fullscreenenter"",""trial"":1,""time"":5193}]",NA,2037.300000011921,static/audio/instructions9.wav,NA,0,NA,NA,NA,NA,NA,NA,NA,NA,NA,NA,NA,NA,NA,NA,NA,NA,NA,NA,NA,NA,NA,NA,NA,NA,NA
audio-instructions,34,294099,0.0-6.0-1.0,voc_e2,11762,"[{""event"":""fullscreenenter"",""trial"":1,""time"":5193}]",NA,1697.800000011921,static/audio/instructions10.wav,NA,0,NA,NA,NA,NA,NA,NA,NA,NA,NA,NA,NA,NA,NA,NA,NA,NA,NA,NA,NA,NA,NA,NA,NA,NA,NA
fcp-trial,35,301017,0.0-6.0-2.0,voc_e2,11762,"[{""event"":""fullscreenenter"",""trial"":1,""time"":5193}]",NA,NA,NA,NA,NA,0,#EDC948,#46d3c8,10,10,1,38,1,1355.199999988079,39,0,4019.200000047684,10,0,practice,NA,NA,NA,NA,NA,NA,NA,NA,NA,NA
audio-instructions,36,314530,0.0-6.0-3.0,voc_e2,11762,"[{""event"":""fullscreenenter"",""trial"":1,""time"":5193}]",NA,2499.100000023842,static/audio/instructions11.wav,NA,0,NA,NA,NA,NA,NA,NA,NA,NA,NA,NA,NA,NA,NA,NA,NA,NA,NA,NA,NA,NA,NA,NA,NA,NA,NA
fcp-trial,37,321534,0.0-6.0-4.0,voc_e2,11762,"[{""event"":""fullscreenenter"",""trial"":1,""time"":5193}]",NA,NA,NA,NA,NA,6,#EDC948,#46d3c8,10,10,1,40,0,3191.099999964237,37,1,2286,10,1,practice,NA,NA,NA,NA,NA,NA,NA,NA,NA,NA
audio-instructions,38,344474,0.0-6.0-5.0,voc_e2,11762,"[{""event"":""fullscreenenter"",""trial"":1,""time"":5193}]",NA,4253.100000023842,static/audio/instructions12.wav,NA,0,NA,NA,NA,NA,NA,NA,NA,NA,NA,NA,NA,NA,NA,NA,NA,NA,NA,NA,NA,NA,NA,NA,NA,NA,NA
audio-instructions,39,354079,0.0-6.0-6.0,voc_e2,11762,"[{""event"":""fullscreenenter"",""trial"":1,""time"":5193}]",NA,2008.300000011921,static/audio/instructions13.wav,NA,0,NA,NA,NA,NA,NA,NA,NA,NA,NA,NA,NA,NA,NA,NA,NA,NA,NA,NA,NA,NA,NA,NA,NA,NA,NA
audio-instructions,40,364232,0.0-6.0-7.0,voc_e2,11762,"[{""event"":""fullscreenenter"",""trial"":1,""time"":5193}]",NA,1701.199999988079,static/audio/instructions14.wav,NA,0,NA,NA,NA,NA,NA,NA,NA,NA,NA,NA,NA,NA,NA,NA,NA,NA,NA,NA,NA,NA,NA,NA,NA,NA,NA
audio-instructions,41,373476,0.0-7.0-0.0,voc_e2,11762,"[{""event"":""fullscreenenter"",""trial"":1,""time"":5193}]",NA,2334.699999988079,static/audio/instructions15.wav,NA,0,NA,NA,NA,NA,NA,NA,NA,NA,NA,NA,NA,NA,NA,NA,NA,NA,NA,NA,NA,NA,NA,NA,NA,NA,NA
audio-instructions,42,382714,0.0-7.0-1.0,voc_e2,11762,"[{""event"":""fullscreenenter"",""trial"":1,""time"":5193}]",NA,2403.199999988079,static/audio/instructions16.wav,NA,0,NA,NA,NA,NA,NA,NA,NA,NA,NA,NA,NA,NA,NA,NA,NA,NA,NA,NA,NA,NA,NA,NA,NA,NA,NA
audio-instructions,43,392952,0.0-7.0-2.0,voc_e2,11762,"[{""event"":""fullscreenenter"",""trial"":1,""time"":5193}]",NA,2560.400000035763,static/audio/instructions17.wav,NA,0,NA,NA,NA,NA,NA,NA,NA,NA,NA,NA,NA,NA,NA,NA,NA,NA,NA,NA,NA,NA,NA,NA,NA,NA,NA
audio-instructions,44,402163,0.0-7.0-3.0,voc_e2,11762,"[{""event"":""fullscreenenter"",""trial"":1,""time"":5193}]",NA,1442.0999999642372,static/audio/instructions18.wav,NA,0,NA,NA,NA,NA,NA,NA,NA,NA,NA,NA,NA,NA,NA,NA,NA,NA,NA,NA,NA,NA,NA,NA,NA,NA,NA
audio-instructions,45,410385,0.0-7.0-4.0,voc_e2,11762,"[{""event"":""fullscreenenter"",""trial"":1,""time"":5193}]",NA,1483.699999988079,static/audio/instructions19.wav,NA,0,NA,NA,NA,NA,NA,NA,NA,NA,NA,NA,NA,NA,NA,NA,NA,NA,NA,NA,NA,NA,NA,NA,NA,NA,NA
fcp-comprehension,46,424524,0.0-7.0-5.0,voc_e2,11762,"[{""event"":""fullscreenenter"",""trial"":1,""time"":5193}]",NA,14135.400000035765,NA,NA,NA,NA,NA,NA,NA,NA,NA,NA,NA,NA,NA,NA,NA,NA,NA,NA,"false,false,false,true",0,NA,NA,NA,NA,NA,NA,NA,NA
audio-instructions,47,436430,0.0-8.0,voc_e2,11762,"[{""event"":""fullscreenenter"",""trial"":1,""time"":5193}]",NA,2688.5,static/audio/ready.wav,NA,0,NA,NA,NA,NA,NA,NA,NA,NA,NA,NA,NA,NA,NA,NA,NA,NA,NA,NA,NA,NA,NA,NA,NA,NA,NA
fcp-trial,48,447326,0.0-9.0-0.0,voc_e2,11762,"[{""event"":""fullscreenenter"",""trial"":1,""time"":5193}]",NA,NA,NA,NA,NA,0,#3386FF,#D89F1C,10,10,0,38,1,6614.5,37,1,2760.800000011921,10,0,experiment,NA,NA,2,0.5,0.5,5,4,1,1,NA
fcp-trial,49,452891,0.0-10.0-0.0,voc_e2,11762,"[{""event"":""fullscreenenter"",""trial"":1,""time"":5193}]",NA,NA,NA,NA,NA,5,#D8271C,#741CD8,0,10,0,40,0,2640.899999976158,37,1,1410.5,0,0,experiment,NA,NA,1,0.3,0.7,3,2,2,1,NA
fcp-trial,50,458642,0.0-11.0-0.0,voc_e2,11762,"[{""event"":""fullscreenenter"",""trial"":1,""time"":5193}]",NA,NA,NA,NA,NA,1,#FA92F8,#1CD855,0,10,0,38,1,3700.800000011921,39,0,535.0999999642372,10,1,experiment,NA,NA,0,0.1,0.9,1,0,3,1,NA
fcp-trial,51,462821,0.0-12.0-0.0,voc_e2,11762,"[{""event"":""fullscreenenter"",""trial"":1,""time"":5193}]",NA,NA,NA,NA,NA,2,#3386FF,#D89F1C,0,0,0,38,1,2086.600000023842,37,1,574.5999999642372,0,0,experiment,NA,NA,2,0.5,0.5,5,4,4,1,NA
fcp-trial,52,466872,0.0-13.0-0.0,voc_e2,11762,"[{""event"":""fullscreenenter"",""trial"":1,""time"":5193}]",NA,NA,NA,NA,NA,3,#D89F1C,#3386FF,0,10,1,38,1,1541.2999999523163,37,1,998.899999976158,0,1,experiment,NA,NA,2,0.5,0.5,4,5,5,1,NA
fcp-trial,53,471476,0.0-14.0-0.0,voc_e2,11762,"[{""event"":""fullscreenenter"",""trial"":1,""time"":5193}]",NA,NA,NA,NA,NA,2,#741CD8,#D8271C,10,0,1,38,1,2248.899999976158,39,0,844.5,0,0,experiment,NA,NA,1,0.7,0.3,2,3,6,1,NA
fcp-trial,54,476361,0.0-15.0-0.0,voc_e2,11762,"[{""event"":""fullscreenenter"",""trial"":1,""time"":5193}]",NA,NA,NA,NA,NA,5,#D89F1C,#3386FF,10,10,1,40,0,2429.699999988079,37,1,947.4000000357628,10,1,experiment,NA,NA,2,0.5,0.5,4,5,7,1,NA
fcp-trial,55,480432,0.0-16.0-0.0,voc_e2,11762,"[{""event"":""fullscreenenter"",""trial"":1,""time"":5193}]",NA,NA,NA,NA,NA,4,#1CD855,#FA92F8,10,10,1,38,1,1778.5,39,0,785.3000000119209,10,0,experiment,NA,NA,0,0.9,0.1,0,1,8,1,NA
fcp-trial,56,483877,0.0-17.0-0.0,voc_e2,11762,"[{""event"":""fullscreenenter"",""trial"":1,""time"":5193}]",NA,NA,NA,NA,NA,1,#D8271C,#741CD8,0,10,0,38,1,672.1000000238419,37,1,1264.800000011921,0,0,experiment,NA,NA,1,0.3,0.7,3,2,9,1,NA
fcp-trial,57,487103,0.0-18.0-0.0,voc_e2,11762,"[{""event"":""fullscreenenter"",""trial"":1,""time"":5193}]",NA,NA,NA,NA,NA,1,#3386FF,#D89F1C,0,0,0,38,1,938.1000000238419,37,1,780.3000000119209,0,0,experiment,NA,NA,2,0.5,0.5,5,4,10,1,NA
fcp-trial,58,490832,0.0-19.0-0.0,voc_e2,11762,"[{""event"":""fullscreenenter"",""trial"":1,""time"":5193}]",NA,NA,NA,NA,NA,0,#D8271C,#741CD8,0,0,0,38,1,1791.300000011921,39,0,425.5,0,1,experiment,NA,NA,1,0.3,0.7,3,2,11,1,NA
fcp-trial,59,493740,0.0-20.0-0.0,voc_e2,11762,"[{""event"":""fullscreenenter"",""trial"":1,""time"":5193}]",NA,NA,NA,NA,NA,6,#3386FF,#D89F1C,0,0,0,38,1,1112.800000011921,39,0,287.69999998807907,0,1,experiment,NA,NA,2,0.5,0.5,5,4,12,1,NA
fcp-trial,60,496509,0.0-21.0-0.0,voc_e2,11762,"[{""event"":""fullscreenenter"",""trial"":1,""time"":5193}]",NA,NA,NA,NA,NA,5,#1CD855,#FA92F8,10,0,1,38,1,609.5,37,1,649.1999999880791,10,1,experiment,NA,NA,0,0.9,0.1,0,1,13,1,NA
fcp-trial,61,499835,0.0-22.0-0.0,voc_e2,11762,"[{""event"":""fullscreenenter"",""trial"":1,""time"":5193}]",NA,NA,NA,NA,NA,0,#FA92F8,#1CD855,0,10,0,38,1,1332,37,1,486.699999988079,0,0,experiment,NA,NA,0,0.1,0.9,1,0,14,1,NA
fcp-trial,62,502364,0.0-23.0-0.0,voc_e2,11762,"[{""event"":""fullscreenenter"",""trial"":1,""time"":5193}]",NA,NA,NA,NA,NA,2,#FA92F8,#1CD855,0,10,0,38,1,584.5,39,0,431.7999999523163,10,1,experiment,NA,NA,0,0.1,0.9,1,0,15,1,NA
fcp-trial,63,504972,0.0-24.0-0.0,voc_e2,11762,"[{""event"":""fullscreenenter"",""trial"":1,""time"":5193}]",NA,NA,NA,NA,NA,4,#741CD8,#D8271C,0,0,1,38,1,732.1000000238419,37,1,367.699999988079,0,1,experiment,NA,NA,1,0.7,0.3,2,3,16,1,NA
fcp-trial,64,507930,0.0-25.0-0.0,voc_e2,11762,"[{""event"":""fullscreenenter"",""trial"":1,""time"":5193}]",NA,NA,NA,NA,NA,4,#3386FF,#D89F1C,10,0,0,38,1,303.5,39,0,1143.7000000476835,0,1,experiment,NA,NA,2,0.5,0.5,5,4,17,1,NA
fcp-trial,65,510976,0.0-26.0-0.0,voc_e2,11762,"[{""event"":""fullscreenenter"",""trial"":1,""time"":5193}]",NA,NA,NA,NA,NA,3,#741CD8,#D8271C,10,10,1,38,1,505.89999997615814,39,0,1032.199999988079,10,0,experiment,NA,NA,1,0.7,0.3,2,3,18,1,NA
fcp-trial,66,513785,0.0-27.0-0.0,voc_e2,11762,"[{""event"":""fullscreenenter"",""trial"":1,""time"":5193}]",NA,NA,NA,NA,NA,6,#FA92F8,#1CD855,0,10,0,38,1,925.5999999642372,37,1,375,0,0,experiment,NA,NA,0,0.1,0.9,1,0,19,1,NA
fcp-trial,67,516326,0.0-28.0-0.0,voc_e2,11762,"[{""event"":""fullscreenenter"",""trial"":1,""time"":5193}]",NA,NA,NA,NA,NA,3,#1CD855,#FA92F8,10,0,1,38,1,407.9000000357628,37,1,620.1000000238419,10,1,experiment,NA,NA,0,0.9,0.1,0,1,20,1,NA
fcp-trial,68,519293,0.0-29.0-0.0,voc_e2,11762,"[{""event"":""fullscreenenter"",""trial"":1,""time"":5193}]",NA,NA,NA,NA,NA,6,#741CD8,#D8271C,10,0,1,38,1,848.8999999761581,39,0,610,0,0,experiment,NA,NA,1,0.7,0.3,2,3,21,1,NA
fcp-trial,69,522211,0.0-30.0-0.0,voc_e2,11762,"[{""event"":""fullscreenenter"",""trial"":1,""time"":5193}]",NA,NA,NA,NA,NA,3,#1CD855,#FA92F8,10,0,1,38,1,1115.0999999642372,37,1,295.4000000357628,10,1,experiment,NA,NA,0,0.9,0.1,0,1,22,1,NA
fcp-trial,70,524979,0.0-31.0-0.0,voc_e2,11762,"[{""event"":""fullscreenenter"",""trial"":1,""time"":5193}]",NA,NA,NA,NA,NA,1,#1CD855,#FA92F8,10,0,1,38,1,623.8000000119209,37,1,637.5,10,1,experiment,NA,NA,0,0.9,0.1,0,1,23,1,NA
fcp-trial,71,530284,0.0-32.0-0.0,voc_e2,11762,"[{""event"":""fullscreenenter"",""trial"":1,""time"":5193}]",NA,NA,NA,NA,NA,3,#3386FF,#D89F1C,10,0,0,38,1,1795.3999999761581,39,0,2001.0999999642372,0,1,experiment,NA,NA,2,0.5,0.5,5,4,24,1,NA
fcp-trial,72,534234,0.0-33.0-0.0,voc_e2,11762,"[{""event"":""fullscreenenter"",""trial"":1,""time"":5193}]",NA,NA,NA,NA,NA,5,#1CD855,#FA92F8,10,0,1,38,1,1167.800000011921,39,0,1266.9000000357628,0,0,experiment,NA,NA,0,0.9,0.1,0,1,25,1,NA
fcp-trial,73,537244,0.0-34.0-0.0,voc_e2,11762,"[{""event"":""fullscreenenter"",""trial"":1,""time"":5193}]",NA,NA,NA,NA,NA,0,#D8271C,#741CD8,10,0,0,38,1,899,37,1,600,10,0,experiment,NA,NA,1,0.3,0.7,3,2,26,1,NA
fcp-trial,74,539795,0.0-35.0-0.0,voc_e2,11762,"[{""event"":""fullscreenenter"",""trial"":1,""time"":5193}]",NA,NA,NA,NA,NA,4,#D8271C,#741CD8,0,10,0,38,1,742.5,37,1,298.69999998807907,0,0,experiment,NA,NA,1,0.3,0.7,3,2,27,1,NA
fcp-trial,75,542618,0.0-36.0-0.0,voc_e2,11762,"[{""event"":""fullscreenenter"",""trial"":1,""time"":5193}]",NA,NA,NA,NA,NA,3,#D8271C,#741CD8,10,0,0,38,1,792.3999999761581,37,1,522.8999999761581,10,0,experiment,NA,NA,1,0.3,0.7,3,2,28,1,NA
fcp-trial,76,546243,0.0-37.0-0.0,voc_e2,11762,"[{""event"":""fullscreenenter"",""trial"":1,""time"":5193}]",NA,NA,NA,NA,NA,5,#3386FF,#D89F1C,0,0,0,40,0,1463.6000000238419,39,0,637.6000000238419,0,1,experiment,NA,NA,2,0.5,0.5,5,4,29,1,NA
fcp-trial,77,550243,0.0-38.0-0.0,voc_e2,11762,"[{""event"":""fullscreenenter"",""trial"":1,""time"":5193}]",NA,NA,NA,NA,NA,6,#FA92F8,#1CD855,0,10,0,40,0,1858.4000000357628,37,1,633.8000000119209,0,0,experiment,NA,NA,0,0.1,0.9,1,0,30,1,NA
fcp-trial,78,553093,0.0-39.0-0.0,voc_e2,11762,"[{""event"":""fullscreenenter"",""trial"":1,""time"":5193}]",NA,NA,NA,NA,NA,4,#D89F1C,#3386FF,0,0,1,38,1,1033.800000011921,39,0,310.69999998807907,0,0,experiment,NA,NA,2,0.5,0.5,4,5,31,1,NA
fcp-trial,79,555855,0.0-40.0-0.0,voc_e2,11762,"[{""event"":""fullscreenenter"",""trial"":1,""time"":5193}]",NA,NA,NA,NA,NA,5,#741CD8,#D8271C,0,0,1,38,1,654.3000000119209,39,0,598.6999999880791,0,0,experiment,NA,NA,1,0.7,0.3,2,3,32,1,NA
fcp-trial,80,558634,0.0-41.0-0.0,voc_e2,11762,"[{""event"":""fullscreenenter"",""trial"":1,""time"":5193}]",NA,NA,NA,NA,NA,4,#FA92F8,#1CD855,0,10,0,38,1,555.6000000238419,37,1,716.6000000238419,0,0,experiment,NA,NA,0,0.1,0.9,1,0,33,1,NA
fcp-trial,81,561070,0.0-42.0-0.0,voc_e2,11762,"[{""event"":""fullscreenenter"",""trial"":1,""time"":5193}]",NA,NA,NA,NA,NA,6,#3386FF,#D89F1C,0,10,0,38,1,314.30000001192093,37,1,609,0,0,experiment,NA,NA,2,0.5,0.5,5,4,34,1,NA
fcp-trial,82,563714,0.0-43.0-0.0,voc_e2,11762,"[{""event"":""fullscreenenter"",""trial"":1,""time"":5193}]",NA,NA,NA,NA,NA,6,#741CD8,#D8271C,0,0,1,38,1,600.8999999761581,39,0,530.6999999880791,0,0,experiment,NA,NA,1,0.7,0.3,2,3,35,1,NA
fcp-trial,83,566779,0.0-44.0-0.0,voc_e2,11762,"[{""event"":""fullscreenenter"",""trial"":1,""time"":5193}]",NA,NA,NA,NA,NA,0,#D89F1C,#3386FF,0,0,1,38,1,873.5,37,1,681.5,0,1,experiment,NA,NA,2,0.5,0.5,4,5,36,1,NA
fcp-trial,84,569121,0.0-45.0-0.0,voc_e2,11762,"[{""event"":""fullscreenenter"",""trial"":1,""time"":5193}]",NA,NA,NA,NA,NA,0,#1CD855,#FA92F8,0,0,1,38,1,524.3999999761581,39,0,306.80000001192093,0,0,experiment,NA,NA,0,0.9,0.1,0,1,37,1,NA
fcp-trial,85,573012,0.0-46.0-0.0,voc_e2,11762,"[{""event"":""fullscreenenter"",""trial"":1,""time"":5193}]",NA,NA,NA,NA,NA,1,#3386FF,#D89F1C,0,0,0,38,1,1883,37,1,498.7000000476837,0,0,experiment,NA,NA,2,0.5,0.5,5,4,38,1,NA
fcp-trial,86,576821,0.0-47.0-0.0,voc_e2,11762,"[{""event"":""fullscreenenter"",""trial"":1,""time"":5193}]",NA,NA,NA,NA,NA,2,#741CD8,#D8271C,10,0,1,38,1,1786.3999999761581,39,0,512.3999999761581,0,0,experiment,NA,NA,1,0.7,0.3,2,3,39,1,NA
fcp-trial,87,580306,0.0-48.0-0.0,voc_e2,11762,"[{""event"":""fullscreenenter"",""trial"":1,""time"":5193}]",NA,NA,NA,NA,NA,2,#3386FF,#D89F1C,10,0,0,38,1,1312.4000000357628,39,0,660.8999999761581,0,1,experiment,NA,NA,2,0.5,0.5,5,4,40,1,NA
fcp-trial,88,582685,0.0-49.0-0.0,voc_e2,11762,"[{""event"":""fullscreenenter"",""trial"":1,""time"":5193}]",NA,NA,NA,NA,NA,2,#1CD855,#FA92F8,10,0,1,38,1,435.5,37,1,434.5999999642372,10,1,experiment,NA,NA,0,0.9,0.1,0,1,41,1,NA
fcp-trial,89,585496,0.0-50.0-0.0,voc_e2,11762,"[{""event"":""fullscreenenter"",""trial"":1,""time"":5193}]",NA,NA,NA,NA,NA,1,#D8271C,#741CD8,0,0,0,38,1,773.8000000119209,37,1,525.1999999880791,0,0,experiment,NA,NA,1,0.3,0.7,3,2,42,1,NA
fcp-trial,90,588191,0.0-51.0-0.0,voc_e2,11762,"[{""event"":""fullscreenenter"",""trial"":1,""time"":5193}]",NA,NA,NA,NA,NA,3,#D8271C,#741CD8,0,10,0,38,1,807.6000000238419,39,0,378.9000000357628,10,1,experiment,NA,NA,1,0.3,0.7,3,2,43,1,NA
fcp-trial,91,591864,0.0-52.0-0.0,voc_e2,11762,"[{""event"":""fullscreenenter"",""trial"":1,""time"":5193}]",NA,NA,NA,NA,NA,4,#D89F1C,#3386FF,10,10,1,38,1,1695.800000011921,39,0,470,10,0,experiment,NA,NA,2,0.5,0.5,4,5,44,1,NA
fcp-trial,92,594876,0.0-53.0-0.0,voc_e2,11762,"[{""event"":""fullscreenenter"",""trial"":1,""time"":5193}]",NA,NA,NA,NA,NA,0,#3386FF,#D89F1C,0,0,0,38,1,804.5,37,1,700.6000000238419,0,0,experiment,NA,NA,2,0.5,0.5,5,4,45,1,NA
fcp-trial,93,598311,0.0-54.0-0.0,voc_e2,11762,"[{""event"":""fullscreenenter"",""trial"":1,""time"":5193}]",NA,NA,NA,NA,NA,2,#741CD8,#D8271C,0,0,1,38,1,1237.699999988079,39,0,690,0,0,experiment,NA,NA,1,0.7,0.3,2,3,46,2,NA
fcp-trial,94,601289,0.0-55.0-0.0,voc_e2,11762,"[{""event"":""fullscreenenter"",""trial"":1,""time"":5193}]",NA,NA,NA,NA,NA,2,#FA92F8,#1CD855,0,10,0,38,1,714.3000000119209,37,1,746.1000000238419,0,0,experiment,NA,NA,0,0.1,0.9,1,0,47,2,NA
fcp-trial,95,604002,0.0-56.0-0.0,voc_e2,11762,"[{""event"":""fullscreenenter"",""trial"":1,""time"":5193}]",NA,NA,NA,NA,NA,1,#FA92F8,#1CD855,0,0,0,38,1,636.5,39,0,567.6999999880791,0,1,experiment,NA,NA,0,0.1,0.9,1,0,48,2,NA
fcp-trial,96,606266,0.0-57.0-0.0,voc_e2,11762,"[{""event"":""fullscreenenter"",""trial"":1,""time"":5193}]",NA,NA,NA,NA,NA,5,#3386FF,#D89F1C,10,10,0,38,1,298.9000000357628,37,1,454.0999999642372,10,0,experiment,NA,NA,2,0.5,0.5,5,4,49,2,NA
fcp-trial,97,609074,0.0-58.0-0.0,voc_e2,11762,"[{""event"":""fullscreenenter"",""trial"":1,""time"":5193}]",NA,NA,NA,NA,NA,3,#1CD855,#FA92F8,10,0,1,38,1,554.8999999761581,39,0,739.8000000119209,0,0,experiment,NA,NA,0,0.9,0.1,0,1,50,2,NA
fcp-trial,98,611931,0.0-59.0-0.0,voc_e2,11762,"[{""event"":""fullscreenenter"",""trial"":1,""time"":5193}]",NA,NA,NA,NA,NA,0,#741CD8,#D8271C,10,0,1,38,1,594,39,0,755.8999999761581,0,0,experiment,NA,NA,1,0.7,0.3,2,3,51,2,NA
fcp-trial,99,615745,0.0-60.0-0.0,voc_e2,11762,"[{""event"":""fullscreenenter"",""trial"":1,""time"":5193}]",NA,NA,NA,NA,NA,4,#1CD855,#FA92F8,10,0,1,38,1,781.6999999880791,37,1,1520.4000000357628,10,1,experiment,NA,NA,0,0.9,0.1,0,1,52,2,NA
fcp-trial,100,617875,0.0-61.0-0.0,voc_e2,11762,"[{""event"":""fullscreenenter"",""trial"":1,""time"":5193}]",NA,NA,NA,NA,NA,5,#D8271C,#741CD8,0,10,0,38,1,233,39,0,387.60000002384186,10,1,experiment,NA,NA,1,0.3,0.7,3,2,53,2,NA
fcp-trial,101,620325,0.0-62.0-0.0,voc_e2,11762,"[{""event"":""fullscreenenter"",""trial"":1,""time"":5193}]",NA,NA,NA,NA,NA,6,#D89F1C,#3386FF,0,10,1,38,1,580.5,39,0,362.300000011921,10,0,experiment,NA,NA,2,0.5,0.5,4,5,54,2,NA
fcp-trial,102,622978,0.0-63.0-0.0,voc_e2,11762,"[{""event"":""fullscreenenter"",""trial"":1,""time"":5193}]",NA,NA,NA,NA,NA,6,#D8271C,#741CD8,10,10,0,38,1,430.80000001192093,37,1,714.3999999761581,10,0,experiment,NA,NA,1,0.3,0.7,3,2,55,2,NA
fcp-trial,103,625608,0.0-64.0-0.0,voc_e2,11762,"[{""event"":""fullscreenenter"",""trial"":1,""time"":5193}]",NA,NA,NA,NA,NA,0,#FA92F8,#1CD855,0,10,0,38,1,641.9000000357628,39,0,477.699999988079,10,1,experiment,NA,NA,0,0.1,0.9,1,0,56,2,NA
fcp-trial,104,628036,0.0-65.0-0.0,voc_e2,11762,"[{""event"":""fullscreenenter"",""trial"":1,""time"":5193}]",NA,NA,NA,NA,NA,4,#D8271C,#741CD8,10,10,0,38,1,371.80000001192093,37,1,540.3000000119209,10,0,experiment,NA,NA,1,0.3,0.7,3,2,57,2,NA
fcp-trial,105,630579,0.0-66.0-0.0,voc_e2,11762,"[{""event"":""fullscreenenter"",""trial"":1,""time"":5193}]",NA,NA,NA,NA,NA,3,#D89F1C,#3386FF,0,10,1,38,1,718.1999999880791,39,0,312.30000001192093,10,0,experiment,NA,NA,2,0.5,0.5,4,5,58,2,NA
fcp-trial,106,632996,0.0-67.0-0.0,voc_e2,11762,"[{""event"":""fullscreenenter"",""trial"":1,""time"":5193}]",NA,NA,NA,NA,NA,1,#D8271C,#741CD8,0,10,0,38,1,304.89999997615814,39,0,602.3000000119209,10,1,experiment,NA,NA,1,0.3,0.7,3,2,59,2,NA
fcp-trial,107,635457,0.0-68.0-0.0,voc_e2,11762,"[{""event"":""fullscreenenter"",""trial"":1,""time"":5193}]",NA,NA,NA,NA,NA,5,#FA92F8,#1CD855,0,10,0,38,1,666.8000000119209,37,1,284.39999997615814,0,0,experiment,NA,NA,0,0.1,0.9,1,0,60,2,NA
fcp-trial,108,637899,0.0-69.0-0.0,voc_e2,11762,"[{""event"":""fullscreenenter"",""trial"":1,""time"":5193}]",NA,NA,NA,NA,NA,1,#3386FF,#D89F1C,10,0,0,38,1,672.6999999880791,39,0,263.5,0,1,experiment,NA,NA,2,0.5,0.5,5,4,61,2,NA
fcp-trial,109,639849,0.0-70.0-0.0,voc_e2,11762,"[{""event"":""fullscreenenter"",""trial"":1,""time"":5193}]",NA,NA,NA,NA,NA,6,#FA92F8,#1CD855,0,10,0,38,1,16.600000023841858,37,1,421,0,0,experiment,NA,NA,0,0.1,0.9,1,0,62,2,NA
fcp-trial,110,642349,0.0-71.0-0.0,voc_e2,11762,"[{""event"":""fullscreenenter"",""trial"":1,""time"":5193}]",NA,NA,NA,NA,NA,2,#D89F1C,#3386FF,0,10,1,38,1,332.19999998807907,39,0,655.1000000238419,10,0,experiment,NA,NA,2,0.5,0.5,4,5,63,2,NA
fcp-trial,111,644355,0.0-72.0-0.0,voc_e2,11762,"[{""event"":""fullscreenenter"",""trial"":1,""time"":5193}]",NA,NA,NA,NA,NA,1,#741CD8,#D8271C,0,0,1,38,1,230.70000004768372,37,1,264.30000001192093,0,1,experiment,NA,NA,1,0.7,0.3,2,3,64,2,NA
fcp-trial,112,646567,0.0-73.0-0.0,voc_e2,11762,"[{""event"":""fullscreenenter"",""trial"":1,""time"":5193}]",NA,NA,NA,NA,NA,5,#3386FF,#D89F1C,0,0,0,38,1,454.30000001192093,39,0,250.19999998807907,0,1,experiment,NA,NA,2,0.5,0.5,5,4,65,2,NA
fcp-trial,113,648848,0.0-74.0-0.0,voc_e2,11762,"[{""event"":""fullscreenenter"",""trial"":1,""time"":5193}]",NA,NA,NA,NA,NA,4,#FA92F8,#1CD855,0,10,0,38,1,142.20000004768372,37,1,624.6000000238419,0,0,experiment,NA,NA,0,0.1,0.9,1,0,66,2,NA
fcp-trial,114,651306,0.0-75.0-0.0,voc_e2,11762,"[{""event"":""fullscreenenter"",""trial"":1,""time"":5193}]",NA,NA,NA,NA,NA,0,#741CD8,#D8271C,10,0,1,38,1,690,39,0,256.0999999642372,0,0,experiment,NA,NA,1,0.7,0.3,2,3,67,2,NA
fcp-trial,115,654220,0.0-76.0-0.0,voc_e2,11762,"[{""event"":""fullscreenenter"",""trial"":1,""time"":5193}]",NA,NA,NA,NA,NA,6,#1CD855,#FA92F8,10,0,1,40,0,765.1000000238419,39,0,640.9000000357628,0,0,experiment,NA,NA,0,0.9,0.1,0,1,68,2,NA
fcp-trial,116,657248,0.0-77.0-0.0,voc_e2,11762,"[{""event"":""fullscreenenter"",""trial"":1,""time"":5193}]",NA,NA,NA,NA,NA,2,#D89F1C,#3386FF,0,0,1,40,0,51.30000001192093,37,1,1466.5,0,1,experiment,NA,NA,2,0.5,0.5,4,5,69,2,NA
fcp-trial,117,660265,0.0-78.0-0.0,voc_e2,11762,"[{""event"":""fullscreenenter"",""trial"":1,""time"":5193}]",NA,NA,NA,NA,NA,3,#D89F1C,#3386FF,10,10,1,38,1,1032.2000000476837,39,0,471.39999997615814,10,0,experiment,NA,NA,2,0.5,0.5,4,5,70,2,NA
fcp-trial,118,663154,0.0-79.0-0.0,voc_e2,11762,"[{""event"":""fullscreenenter"",""trial"":1,""time"":5193}]",NA,NA,NA,NA,NA,3,#FA92F8,#1CD855,0,10,0,38,1,967.6999999880791,39,0,410,10,1,experiment,NA,NA,0,0.1,0.9,1,0,71,2,NA
fcp-trial,119,665295,0.0-80.0-0.0,voc_e2,11762,"[{""event"":""fullscreenenter"",""trial"":1,""time"":5193}]",NA,NA,NA,NA,NA,6,#741CD8,#D8271C,0,10,1,38,1,304,37,1,329.89999997615814,0,1,experiment,NA,NA,1,0.7,0.3,2,3,72,2,NA
fcp-trial,120,667346,0.0-81.0-0.0,voc_e2,11762,"[{""event"":""fullscreenenter"",""trial"":1,""time"":5193}]",NA,NA,NA,NA,NA,6,#3386FF,#D89F1C,0,10,0,38,1,39.69999998807907,39,0,504.10000002384186,10,1,experiment,NA,NA,2,0.5,0.5,5,4,73,2,NA
fcp-trial,121,670043,0.0-82.0-0.0,voc_e2,11762,"[{""event"":""fullscreenenter"",""trial"":1,""time"":5193}]",NA,NA,NA,NA,NA,4,#3386FF,#D89F1C,10,10,0,38,1,446.4000000357628,37,1,741.6000000238419,10,0,experiment,NA,NA,2,0.5,0.5,5,4,74,2,NA
fcp-trial,122,672625,0.0-83.0-0.0,voc_e2,11762,"[{""event"":""fullscreenenter"",""trial"":1,""time"":5193}]",NA,NA,NA,NA,NA,0,#FA92F8,#1CD855,0,0,0,38,1,560,37,1,516,0,0,experiment,NA,NA,0,0.1,0.9,1,0,75,2,NA
fcp-trial,123,674894,0.0-84.0-0.0,voc_e2,11762,"[{""event"":""fullscreenenter"",""trial"":1,""time"":5193}]",NA,NA,NA,NA,NA,4,#D8271C,#741CD8,0,0,0,38,1,474.7000000476837,39,0,284.7999999523163,0,1,experiment,NA,NA,1,0.3,0.7,3,2,76,2,NA
fcp-trial,124,677806,0.0-85.0-0.0,voc_e2,11762,"[{""event"":""fullscreenenter"",""trial"":1,""time"":5193}]",NA,NA,NA,NA,NA,2,#741CD8,#D8271C,0,0,1,38,1,789.3000000119209,37,1,614.9000000357628,0,1,experiment,NA,NA,1,0.7,0.3,2,3,77,2,NA
fcp-trial,125,679694,0.0-86.0-0.0,voc_e2,11762,"[{""event"":""fullscreenenter"",""trial"":1,""time"":5193}]",NA,NA,NA,NA,NA,1,#3386FF,#D89F1C,0,0,0,38,1,86.30000001192093,39,0,294.5,0,1,experiment,NA,NA,2,0.5,0.5,5,4,78,2,NA
fcp-trial,126,682130,0.0-87.0-0.0,voc_e2,11762,"[{""event"":""fullscreenenter"",""trial"":1,""time"":5193}]",NA,NA,NA,NA,NA,2,#FA92F8,#1CD855,0,10,0,38,1,358.39999997615814,37,1,570.0999999642372,0,0,experiment,NA,NA,0,0.1,0.9,1,0,79,2,NA
fcp-trial,127,684557,0.0-88.0-0.0,voc_e2,11762,"[{""event"":""fullscreenenter"",""trial"":1,""time"":5193}]",NA,NA,NA,NA,NA,1,#1CD855,#FA92F8,0,0,1,38,1,452,39,0,468.300000011921,0,0,experiment,NA,NA,0,0.9,0.1,0,1,80,2,NA
fcp-trial,128,687458,0.0-89.0-0.0,voc_e2,11762,"[{""event"":""fullscreenenter"",""trial"":1,""time"":5193}]",NA,NA,NA,NA,NA,5,#741CD8,#D8271C,10,0,1,40,0,882.5999999642372,37,1,508,10,1,experiment,NA,NA,1,0.7,0.3,2,3,81,2,NA
fcp-trial,129,691185,0.0-90.0-0.0,voc_e2,11762,"[{""event"":""fullscreenenter"",""trial"":1,""time"":5193}]",NA,NA,NA,NA,NA,3,#D8271C,#741CD8,0,10,0,38,1,1689.800000011921,37,1,525.3000000119209,0,0,experiment,NA,NA,1,0.3,0.7,3,2,82,2,NA
fcp-trial,130,693557,0.0-91.0-0.0,voc_e2,11762,"[{""event"":""fullscreenenter"",""trial"":1,""time"":5193}]",NA,NA,NA,NA,NA,0,#D89F1C,#3386FF,0,10,1,38,1,512.8999999761581,39,0,344.80000001192093,10,0,experiment,NA,NA,2,0.5,0.5,4,5,83,2,NA
fcp-trial,131,695931,0.0-92.0-0.0,voc_e2,11762,"[{""event"":""fullscreenenter"",""trial"":1,""time"":5193}]",NA,NA,NA,NA,NA,5,#1CD855,#FA92F8,10,0,1,38,1,34.700000047683716,39,0,830.8000000119209,0,0,experiment,NA,NA,0,0.9,0.1,0,1,84,2,NA
fcp-trial,132,699037,0.0-93.0-0.0,voc_e2,11762,"[{""event"":""fullscreenenter"",""trial"":1,""time"":5193}]",NA,NA,NA,NA,NA,1,#1CD855,#FA92F8,10,0,1,38,1,1072.2999999523163,37,1,518,10,1,experiment,NA,NA,0,0.9,0.1,0,1,85,2,NA
fcp-trial,133,701608,0.0-94.0-0.0,voc_e2,11762,"[{""event"":""fullscreenenter"",""trial"":1,""time"":5193}]",NA,NA,NA,NA,NA,2,#D89F1C,#3386FF,0,10,1,38,1,493.69999998807907,37,1,568.6999999880791,0,1,experiment,NA,NA,2,0.5,0.5,4,5,86,2,NA
fcp-trial,134,704336,0.0-95.0-0.0,voc_e2,11762,"[{""event"":""fullscreenenter"",""trial"":1,""time"":5193}]",NA,NA,NA,NA,NA,5,#D89F1C,#3386FF,0,0,1,40,0,624.7999999523163,39,0,595.1000000238419,0,0,experiment,NA,NA,2,0.5,0.5,4,5,87,2,NA
fcp-trial,135,707208,0.0-96.0-0.0,voc_e2,11762,"[{""event"":""fullscreenenter"",""trial"":1,""time"":5193}]",NA,NA,NA,NA,NA,5,#1CD855,#FA92F8,10,0,1,40,0,750.8000000119209,37,1,613.0999999642372,10,1,experiment,NA,NA,0,0.9,0.1,0,1,88,2,NA
fcp-trial,136,711148,0.0-97.0-0.0,voc_e2,11762,"[{""event"":""fullscreenenter"",""trial"":1,""time"":5193}]",NA,NA,NA,NA,NA,4,#741CD8,#D8271C,10,0,1,40,0,1857.2000000476837,39,0,574.9000000357628,0,0,experiment,NA,NA,1,0.7,0.3,2,3,89,2,NA
fcp-trial,137,714203,0.0-98.0-0.0,voc_e2,11762,"[{""event"":""fullscreenenter"",""trial"":1,""time"":5193}]",NA,NA,NA,NA,NA,0,#FA92F8,#1CD855,0,10,0,40,0,222.80000001192093,39,0,1321.300000011921,10,1,experiment,NA,NA,0,0.1,0.9,1,0,90,2,NA
fcp-trial,138,717970,0.0-99.0-0.0,voc_e2,11762,"[{""event"":""fullscreenenter"",""trial"":1,""time"":5193}]",NA,NA,NA,NA,NA,6,#741CD8,#D8271C,10,0,1,40,0,1684.5,37,1,576.1000000238419,10,1,experiment,NA,NA,1,0.7,0.3,2,3,91,3,NA
fcp-trial,139,720810,0.0-100.0-0.0,voc_e2,11762,"[{""event"":""fullscreenenter"",""trial"":1,""time"":5193}]",NA,NA,NA,NA,NA,0,#D89F1C,#3386FF,0,0,1,38,1,740.9000000357628,37,1,590,0,1,experiment,NA,NA,2,0.5,0.5,4,5,92,3,NA
fcp-trial,140,723709,0.0-101.0-0.0,voc_e2,11762,"[{""event"":""fullscreenenter"",""trial"":1,""time"":5193}]",NA,NA,NA,NA,NA,3,#741CD8,#D8271C,10,10,1,38,1,1022.1999999880791,39,0,370.2000000476837,10,0,experiment,NA,NA,1,0.7,0.3,2,3,93,3,NA
fcp-trial,141,726412,0.0-102.0-0.0,voc_e2,11762,"[{""event"":""fullscreenenter"",""trial"":1,""time"":5193}]",NA,NA,NA,NA,NA,0,#741CD8,#D8271C,10,0,1,38,1,641.3999999761581,39,0,553.3000000119209,0,0,experiment,NA,NA,1,0.7,0.3,2,3,94,3,NA
fcp-trial,142,728975,0.0-103.0-0.0,voc_e2,11762,"[{""event"":""fullscreenenter"",""trial"":1,""time"":5193}]",NA,NA,NA,NA,NA,6,#FA92F8,#1CD855,10,10,0,38,1,536.1000000238419,37,1,518,10,0,experiment,NA,NA,0,0.1,0.9,1,0,95,3,NA
fcp-trial,143,731653,0.0-104.0-0.0,voc_e2,11762,"[{""event"":""fullscreenenter"",""trial"":1,""time"":5193}]",NA,NA,NA,NA,NA,3,#D89F1C,#3386FF,10,10,1,38,1,758.6999999880791,39,0,409.0999999642372,10,0,experiment,NA,NA,2,0.5,0.5,4,5,96,3,NA
fcp-trial,144,734375,0.0-105.0-0.0,voc_e2,11762,"[{""event"":""fullscreenenter"",""trial"":1,""time"":5193}]",NA,NA,NA,NA,NA,5,#741CD8,#D8271C,10,0,1,38,1,261.2999999523163,37,1,952.1999999880792,10,1,experiment,NA,NA,1,0.7,0.3,2,3,97,3,NA
fcp-trial,145,737059,0.0-106.0-0.0,voc_e2,11762,"[{""event"":""fullscreenenter"",""trial"":1,""time"":5193}]",NA,NA,NA,NA,NA,4,#FA92F8,#1CD855,0,10,0,38,1,848.1000000238419,39,0,326.30000001192093,10,1,experiment,NA,NA,0,0.1,0.9,1,0,98,3,NA
fcp-trial,146,739277,0.0-107.0-0.0,voc_e2,11762,"[{""event"":""fullscreenenter"",""trial"":1,""time"":5193}]",NA,NA,NA,NA,NA,1,#D89F1C,#3386FF,0,10,1,38,1,344.69999998807907,37,1,366.199999988079,0,1,experiment,NA,NA,2,0.5,0.5,4,5,99,3,NA
fcp-trial,147,742138,0.0-108.0-0.0,voc_e2,11762,"[{""event"":""fullscreenenter"",""trial"":1,""time"":5193}]",NA,NA,NA,NA,NA,1,#D8271C,#741CD8,10,10,0,38,1,379.69999998807907,39,0,974.2000000476836,10,1,experiment,NA,NA,1,0.3,0.7,3,2,100,3,NA
fcp-trial,148,744511,0.0-109.0-0.0,voc_e2,11762,"[{""event"":""fullscreenenter"",""trial"":1,""time"":5193}]",NA,NA,NA,NA,NA,2,#FA92F8,#1CD855,0,10,0,38,1,552,37,1,311.7000000476837,0,0,experiment,NA,NA,0,0.1,0.9,1,0,101,3,NA
fcp-trial,149,747590,0.0-110.0-0.0,voc_e2,11762,"[{""event"":""fullscreenenter"",""trial"":1,""time"":5193}]",NA,NA,NA,NA,NA,2,#741CD8,#D8271C,10,10,1,38,1,732.1000000238419,39,0,839.5,10,0,experiment,NA,NA,1,0.7,0.3,2,3,102,3,NA
fcp-trial,150,750488,0.0-111.0-0.0,voc_e2,11762,"[{""event"":""fullscreenenter"",""trial"":1,""time"":5193}]",NA,NA,NA,NA,NA,6,#D89F1C,#3386FF,0,0,1,40,0,797.3000000119209,37,1,593.8999999761581,0,1,experiment,NA,NA,2,0.5,0.5,4,5,103,3,NA
fcp-trial,151,753474,0.0-112.0-0.0,voc_e2,11762,"[{""event"":""fullscreenenter"",""trial"":1,""time"":5193}]",NA,NA,NA,NA,NA,4,#3386FF,#D89F1C,10,10,0,38,1,1146.199999988079,39,0,332.19999998807907,10,1,experiment,NA,NA,2,0.5,0.5,5,4,104,3,NA
fcp-trial,152,755880,0.0-113.0-0.0,voc_e2,11762,"[{""event"":""fullscreenenter"",""trial"":1,""time"":5193}]",NA,NA,NA,NA,NA,3,#1CD855,#FA92F8,10,0,1,38,1,644.8999999761581,37,1,252.80000001192093,10,1,experiment,NA,NA,0,0.9,0.1,0,1,105,3,NA
audio-instructions,153,772254,0.0-114.0,voc_e2,11762,"[{""event"":""fullscreenenter"",""trial"":1,""time"":5193}]",NA,10359.19999998808,static/audio/pause.wav,NA,0,NA,NA,NA,NA,NA,NA,NA,NA,NA,NA,NA,NA,NA,NA,NA,NA,NA,NA,NA,NA,NA,NA,NA,NA,NA
fcp-trial,154,776009,0.0-115.0-0.0,voc_e2,11762,"[{""event"":""fullscreenenter"",""trial"":1,""time"":5193}]",NA,NA,NA,NA,NA,0,#FA92F8,#1CD855,0,10,0,38,1,1842.699999988079,39,0,388.39999997615814,10,1,experiment,NA,NA,0,0.1,0.9,1,0,106,3,NA
fcp-trial,155,778585,0.0-116.0-0.0,voc_e2,11762,"[{""event"":""fullscreenenter"",""trial"":1,""time"":5193}]",NA,NA,NA,NA,NA,0,#D89F1C,#3386FF,0,0,1,38,1,773.3000000119209,37,1,278.89999997615814,0,1,experiment,NA,NA,2,0.5,0.5,4,5,107,3,NA
fcp-trial,156,781415,0.0-117.0-0.0,voc_e2,11762,"[{""event"":""fullscreenenter"",""trial"":1,""time"":5193}]",NA,NA,NA,NA,NA,1,#D8271C,#741CD8,10,10,0,38,1,995.1000000238419,37,1,313.5999999642372,10,0,experiment,NA,NA,1,0.3,0.7,3,2,108,3,NA
fcp-trial,157,784862,0.0-118.0-0.0,voc_e2,11762,"[{""event"":""fullscreenenter"",""trial"":1,""time"":5193}]",NA,NA,NA,NA,NA,4,#FA92F8,#1CD855,0,10,0,38,1,1301,39,0,620.6000000238419,10,1,experiment,NA,NA,0,0.1,0.9,1,0,109,3,NA
fcp-trial,158,787282,0.0-119.0-0.0,voc_e2,11762,"[{""event"":""fullscreenenter"",""trial"":1,""time"":5193}]",NA,NA,NA,NA,NA,2,#3386FF,#D89F1C,0,0,0,38,1,375.10000002384186,37,1,527.5,0,0,experiment,NA,NA,2,0.5,0.5,5,4,110,3,NA
fcp-trial,159,790513,0.0-120.0-0.0,voc_e2,11762,"[{""event"":""fullscreenenter"",""trial"":1,""time"":5193}]",NA,NA,NA,NA,NA,2,#FA92F8,#1CD855,0,10,0,38,1,1242.5999999642372,39,0,473.5,10,1,experiment,NA,NA,0,0.1,0.9,1,0,111,3,NA
fcp-trial,160,793974,0.0-121.0-0.0,voc_e2,11762,"[{""event"":""fullscreenenter"",""trial"":1,""time"":5193}]",NA,NA,NA,NA,NA,0,#D8271C,#741CD8,0,0,0,38,1,1477.7000000476837,39,0,470.800000011921,0,1,experiment,NA,NA,1,0.3,0.7,3,2,112,3,NA
fcp-trial,161,796743,0.0-122.0-0.0,voc_e2,11762,"[{""event"":""fullscreenenter"",""trial"":1,""time"":5193}]",NA,NA,NA,NA,NA,5,#D8271C,#741CD8,0,0,0,38,1,654.7000000476837,37,1,605,0,0,experiment,NA,NA,1,0.3,0.7,3,2,113,3,NA
fcp-trial,162,799851,0.0-123.0-0.0,voc_e2,11762,"[{""event"":""fullscreenenter"",""trial"":1,""time"":5193}]",NA,NA,NA,NA,NA,3,#3386FF,#D89F1C,10,0,0,38,1,1296.5999999642372,37,1,303.9000000357628,10,0,experiment,NA,NA,2,0.5,0.5,5,4,114,3,NA
fcp-trial,163,802101,0.0-124.0-0.0,voc_e2,11762,"[{""event"":""fullscreenenter"",""trial"":1,""time"":5193}]",NA,NA,NA,NA,NA,4,#D89F1C,#3386FF,0,10,1,38,1,393.7000000476837,37,1,347.19999998807907,0,1,experiment,NA,NA,2,0.5,0.5,4,5,115,3,NA
fcp-trial,164,805691,0.0-125.0-0.0,voc_e2,11762,"[{""event"":""fullscreenenter"",""trial"":1,""time"":5193}]",NA,NA,NA,NA,NA,3,#FA92F8,#1CD855,0,10,0,38,1,751,39,0,1331.300000011921,10,1,experiment,NA,NA,0,0.1,0.9,1,0,116,3,NA
fcp-trial,165,808211,0.0-126.0-0.0,voc_e2,11762,"[{""event"":""fullscreenenter"",""trial"":1,""time"":5193}]",NA,NA,NA,NA,NA,4,#741CD8,#D8271C,10,0,1,38,1,691.3999999761581,37,1,318.19999998807907,10,1,experiment,NA,NA,1,0.7,0.3,2,3,117,3,NA
fcp-trial,166,810519,0.0-127.0-0.0,voc_e2,11762,"[{""event"":""fullscreenenter"",""trial"":1,""time"":5193}]",NA,NA,NA,NA,NA,6,#D89F1C,#3386FF,0,10,1,38,1,502.80000001192093,39,0,298,10,0,experiment,NA,NA,2,0.5,0.5,4,5,118,3,NA
fcp-trial,167,813479,0.0-128.0-0.0,voc_e2,11762,"[{""event"":""fullscreenenter"",""trial"":1,""time"":5193}]",NA,NA,NA,NA,NA,5,#D89F1C,#3386FF,10,10,1,38,1,752.0999999642372,37,1,699.4000000357628,10,1,experiment,NA,NA,2,0.5,0.5,4,5,119,3,NA
fcp-trial,168,816134,0.0-129.0-0.0,voc_e2,11762,"[{""event"":""fullscreenenter"",""trial"":1,""time"":5193}]",NA,NA,NA,NA,NA,1,#FA92F8,#1CD855,0,10,0,38,1,344.30000001192093,39,0,793.2999999523163,10,1,experiment,NA,NA,0,0.1,0.9,1,0,120,3,NA
fcp-trial,169,818852,0.0-130.0-0.0,voc_e2,11762,"[{""event"":""fullscreenenter"",""trial"":1,""time"":5193}]",NA,NA,NA,NA,NA,3,#D8271C,#741CD8,10,10,0,38,1,651.1999999880791,37,1,559.3999999761581,10,0,experiment,NA,NA,1,0.3,0.7,3,2,121,3,NA
fcp-trial,170,821672,0.0-131.0-0.0,voc_e2,11762,"[{""event"":""fullscreenenter"",""trial"":1,""time"":5193}]",NA,NA,NA,NA,NA,5,#FA92F8,#1CD855,0,10,0,38,1,642.6999999880791,37,1,669.7999999523163,0,0,experiment,NA,NA,0,0.1,0.9,1,0,122,3,NA
fcp-trial,171,824890,0.0-132.0-0.0,voc_e2,11762,"[{""event"":""fullscreenenter"",""trial"":1,""time"":5193}]",NA,NA,NA,NA,NA,1,#D89F1C,#3386FF,0,0,1,38,1,1263.3999999761581,37,1,447.89999997615814,0,1,experiment,NA,NA,2,0.5,0.5,4,5,123,3,NA
fcp-trial,172,826999,0.0-133.0-0.0,voc_e2,11762,"[{""event"":""fullscreenenter"",""trial"":1,""time"":5193}]",NA,NA,NA,NA,NA,2,#D8271C,#741CD8,0,0,0,38,1,227.60000002384186,37,1,372.89999997615814,0,0,experiment,NA,NA,1,0.3,0.7,3,2,124,3,NA
fcp-trial,173,830263,0.0-134.0-0.0,voc_e2,11762,"[{""event"":""fullscreenenter"",""trial"":1,""time"":5193}]",NA,NA,NA,NA,NA,6,#741CD8,#D8271C,10,0,1,40,0,1012,37,1,744,10,1,experiment,NA,NA,1,0.7,0.3,2,3,125,3,NA
fcp-trial,174,833519,0.0-135.0-0.0,voc_e2,11762,"[{""event"":""fullscreenenter"",""trial"":1,""time"":5193}]",NA,NA,NA,NA,NA,6,#FA92F8,#1CD855,0,10,0,40,0,1306.300000011921,37,1,438.60000002384186,0,0,experiment,NA,NA,0,0.1,0.9,1,0,126,3,NA
fcp-trial,175,836655,0.0-136.0-0.0,voc_e2,11762,"[{""event"":""fullscreenenter"",""trial"":1,""time"":5193}]",NA,NA,NA,NA,NA,2,#3386FF,#D89F1C,10,0,0,38,1,952.5999999642372,37,1,676.7000000476837,10,0,experiment,NA,NA,2,0.5,0.5,5,4,127,3,NA
fcp-trial,176,839154,0.0-137.0-0.0,voc_e2,11762,"[{""event"":""fullscreenenter"",""trial"":1,""time"":5193}]",NA,NA,NA,NA,NA,1,#1CD855,#FA92F8,10,0,1,38,1,716.5,37,1,275.80000001192093,10,1,experiment,NA,NA,0,0.9,0.1,0,1,128,3,NA
fcp-trial,177,842093,0.0-138.0-0.0,voc_e2,11762,"[{""event"":""fullscreenenter"",""trial"":1,""time"":5193}]",NA,NA,NA,NA,NA,3,#1CD855,#FA92F8,0,10,1,38,1,571.6000000238419,37,1,858.1000000238419,0,1,experiment,NA,NA,0,0.9,0.1,0,1,129,3,NA
fcp-trial,178,844573,0.0-139.0-0.0,voc_e2,11762,"[{""event"":""fullscreenenter"",""trial"":1,""time"":5193}]",NA,NA,NA,NA,NA,5,#D8271C,#741CD8,0,10,0,38,1,707.1000000238419,39,0,264.69999998807907,10,1,experiment,NA,NA,1,0.3,0.7,3,2,130,3,NA
fcp-trial,179,847072,0.0-140.0-0.0,voc_e2,11762,"[{""event"":""fullscreenenter"",""trial"":1,""time"":5193}]",NA,NA,NA,NA,NA,6,#3386FF,#D89F1C,0,0,0,38,1,610.8000000119209,37,1,379.10000002384186,0,0,experiment,NA,NA,2,0.5,0.5,5,4,131,3,NA
fcp-trial,180,850658,0.0-141.0-0.0,voc_e2,11762,"[{""event"":""fullscreenenter"",""trial"":1,""time"":5193}]",NA,NA,NA,NA,NA,6,#D8271C,#741CD8,0,0,0,40,0,1554.8999999761581,37,1,520.8000000119209,0,0,experiment,NA,NA,1,0.3,0.7,3,2,132,3,NA
fcp-trial,181,854185,0.0-142.0-0.0,voc_e2,11762,"[{""event"":""fullscreenenter"",""trial"":1,""time"":5193}]",NA,NA,NA,NA,NA,4,#1CD855,#FA92F8,10,0,1,38,1,1261.199999988079,37,1,755.9000000357628,10,1,experiment,NA,NA,0,0.9,0.1,0,1,133,3,NA
fcp-trial,182,857238,0.0-143.0-0.0,voc_e2,11762,"[{""event"":""fullscreenenter"",""trial"":1,""time"":5193}]",NA,NA,NA,NA,NA,5,#1CD855,#FA92F8,10,0,1,40,0,675.8999999761581,39,0,869.9000000357628,0,0,experiment,NA,NA,0,0.9,0.1,0,1,134,3,NA
fcp-trial,183,860486,0.0-144.0-0.0,voc_e2,11762,"[{""event"":""fullscreenenter"",""trial"":1,""time"":5193}]",NA,NA,NA,NA,NA,1,#3386FF,#D89F1C,0,0,0,38,1,1233.300000011921,39,0,507.5999999642372,0,1,experiment,NA,NA,2,0.5,0.5,5,4,135,3,NA
fcp-trial,184,863199,0.0-145.0-0.0,voc_e2,11762,"[{""event"":""fullscreenenter"",""trial"":1,""time"":5193}]",NA,NA,NA,NA,NA,2,#D8271C,#741CD8,0,0,0,38,1,626.3000000119209,37,1,577,0,0,experiment,NA,NA,1,0.3,0.7,3,2,136,4,NA
fcp-trial,185,865266,0.0-146.0-0.0,voc_e2,11762,"[{""event"":""fullscreenenter"",""trial"":1,""time"":5193}]",NA,NA,NA,NA,NA,2,#1CD855,#FA92F8,10,0,1,38,1,18.900000035762787,39,0,539.8000000119209,0,0,experiment,NA,NA,0,0.9,0.1,0,1,137,4,NA
fcp-trial,186,867358,0.0-147.0-0.0,voc_e2,11762,"[{""event"":""fullscreenenter"",""trial"":1,""time"":5193}]",NA,NA,NA,NA,NA,6,#FA92F8,#1CD855,0,10,0,38,1,147.70000004768372,39,0,435.800000011921,10,1,experiment,NA,NA,0,0.1,0.9,1,0,138,4,NA
fcp-trial,187,870054,0.0-148.0-0.0,voc_e2,11762,"[{""event"":""fullscreenenter"",""trial"":1,""time"":5193}]",NA,NA,NA,NA,NA,4,#D89F1C,#3386FF,10,10,1,38,1,668,37,1,517.2000000476837,10,1,experiment,NA,NA,2,0.5,0.5,4,5,139,4,NA
fcp-trial,188,872852,0.0-149.0-0.0,voc_e2,11762,"[{""event"":""fullscreenenter"",""trial"":1,""time"":5193}]",NA,NA,NA,NA,NA,0,#D8271C,#741CD8,0,10,0,38,1,838.3999999761581,37,1,446.800000011921,0,0,experiment,NA,NA,1,0.3,0.7,3,2,140,4,NA
fcp-trial,189,874838,0.0-150.0-0.0,voc_e2,11762,"[{""event"":""fullscreenenter"",""trial"":1,""time"":5193}]",NA,NA,NA,NA,NA,4,#D8271C,#741CD8,10,10,0,38,1,36,39,0,442.199999988079,10,1,experiment,NA,NA,1,0.3,0.7,3,2,141,4,NA
fcp-trial,190,877758,0.0-151.0-0.0,voc_e2,11762,"[{""event"":""fullscreenenter"",""trial"":1,""time"":5193}]",NA,NA,NA,NA,NA,5,#3386FF,#D89F1C,0,0,0,40,0,791.2000000476837,39,0,619.1999999880791,0,1,experiment,NA,NA,2,0.5,0.5,5,4,142,4,NA
fcp-trial,191,881331,0.0-152.0-0.0,voc_e2,11762,"[{""event"":""fullscreenenter"",""trial"":1,""time"":5193}]",NA,NA,NA,NA,NA,0,#FA92F8,#1CD855,0,10,0,38,1,1498.199999988079,37,1,562.8000000119209,0,0,experiment,NA,NA,0,0.1,0.9,1,0,143,4,NA
fcp-trial,192,884341,0.0-153.0-0.0,voc_e2,11762,"[{""event"":""fullscreenenter"",""trial"":1,""time"":5193}]",NA,NA,NA,NA,NA,3,#3386FF,#D89F1C,0,10,0,38,1,998.0999999642372,39,0,504.199999988079,10,1,experiment,NA,NA,2,0.5,0.5,5,4,144,4,NA
fcp-trial,193,887253,0.0-154.0-0.0,voc_e2,11762,"[{""event"":""fullscreenenter"",""trial"":1,""time"":5193}]",NA,NA,NA,NA,NA,0,#D89F1C,#3386FF,10,0,1,38,1,1049.9000000357628,37,1,355.69999998807907,10,1,experiment,NA,NA,2,0.5,0.5,4,5,145,4,NA
fcp-trial,194,890199,0.0-155.0-0.0,voc_e2,11762,"[{""event"":""fullscreenenter"",""trial"":1,""time"":5193}]",NA,NA,NA,NA,NA,1,#741CD8,#D8271C,10,0,1,38,1,750.7000000476837,37,1,686.8999999761581,10,1,experiment,NA,NA,1,0.7,0.3,2,3,146,4,NA
fcp-trial,195,893728,0.0-156.0-0.0,voc_e2,11762,"[{""event"":""fullscreenenter"",""trial"":1,""time"":5193}]",NA,NA,NA,NA,NA,3,#D8271C,#741CD8,10,0,0,40,0,1369.8999999761581,39,0,648.8000000119209,0,1,experiment,NA,NA,1,0.3,0.7,3,2,147,4,NA
fcp-trial,196,897782,0.0-157.0-0.0,voc_e2,11762,"[{""event"":""fullscreenenter"",""trial"":1,""time"":5193}]",NA,NA,NA,NA,NA,0,#3386FF,#D89F1C,0,10,0,38,1,2156.800000011921,37,1,385,0,0,experiment,NA,NA,2,0.5,0.5,5,4,148,4,NA
fcp-trial,197,901400,0.0-158.0-0.0,voc_e2,11762,"[{""event"":""fullscreenenter"",""trial"":1,""time"":5193}]",NA,NA,NA,NA,NA,1,#D8271C,#741CD8,0,10,0,40,0,1562.699999988079,39,0,548.5999999642372,10,1,experiment,NA,NA,1,0.3,0.7,3,2,149,4,NA
fcp-trial,198,906080,0.0-159.0-0.0,voc_e2,11762,"[{""event"":""fullscreenenter"",""trial"":1,""time"":5193}]",NA,NA,NA,NA,NA,2,#3386FF,#D89F1C,0,10,0,38,1,2512.400000035763,37,1,660,0,0,experiment,NA,NA,2,0.5,0.5,5,4,150,4,NA
fcp-trial,199,909527,0.0-160.0-0.0,voc_e2,11762,"[{""event"":""fullscreenenter"",""trial"":1,""time"":5193}]",NA,NA,NA,NA,NA,5,#FA92F8,#1CD855,0,10,0,38,1,1553.300000011921,37,1,385,0,0,experiment,NA,NA,0,0.1,0.9,1,0,151,4,NA
fcp-trial,200,913432,0.0-161.0-0.0,voc_e2,11762,"[{""event"":""fullscreenenter"",""trial"":1,""time"":5193}]",NA,NA,NA,NA,NA,3,#3386FF,#D89F1C,0,10,0,38,1,1324.8999999761581,39,0,1066.399999976158,10,1,experiment,NA,NA,2,0.5,0.5,5,4,152,4,NA
fcp-trial,201,915966,0.0-162.0-0.0,voc_e2,11762,"[{""event"":""fullscreenenter"",""trial"":1,""time"":5193}]",NA,NA,NA,NA,NA,3,#1CD855,#FA92F8,10,0,1,38,1,592.5,37,1,432.39999997615814,10,1,experiment,NA,NA,0,0.9,0.1,0,1,153,4,NA
fcp-trial,202,919032,0.0-163.0-0.0,voc_e2,11762,"[{""event"":""fullscreenenter"",""trial"":1,""time"":5193}]",NA,NA,NA,NA,NA,4,#D8271C,#741CD8,0,0,0,38,1,393.0999999642372,37,1,1165.399999976158,0,0,experiment,NA,NA,1,0.3,0.7,3,2,154,4,NA
fcp-trial,203,922361,0.0-164.0-0.0,voc_e2,11762,"[{""event"":""fullscreenenter"",""trial"":1,""time"":5193}]",NA,NA,NA,NA,NA,6,#741CD8,#D8271C,10,0,1,40,0,1216.199999988079,37,1,604.8000000119209,10,1,experiment,NA,NA,1,0.7,0.3,2,3,155,4,NA
fcp-trial,204,925583,0.0-165.0-0.0,voc_e2,11762,"[{""event"":""fullscreenenter"",""trial"":1,""time"":5193}]",NA,NA,NA,NA,NA,5,#3386FF,#D89F1C,0,0,0,40,0,1044.699999988079,39,0,665.6000000238419,0,1,experiment,NA,NA,2,0.5,0.5,5,4,156,4,NA
fcp-trial,205,928409,0.0-166.0-0.0,voc_e2,11762,"[{""event"":""fullscreenenter"",""trial"":1,""time"":5193}]",NA,NA,NA,NA,NA,0,#741CD8,#D8271C,10,0,1,38,1,958.8000000119209,37,1,355.5999999642372,10,1,experiment,NA,NA,1,0.7,0.3,2,3,157,4,NA
fcp-trial,206,932433,0.0-167.0-0.0,voc_e2,11762,"[{""event"":""fullscreenenter"",""trial"":1,""time"":5193}]",NA,NA,NA,NA,NA,0,#1CD855,#FA92F8,10,0,1,38,1,1896.6000000238419,37,1,612.6999999880791,10,1,experiment,NA,NA,0,0.9,0.1,0,1,158,4,NA
fcp-trial,207,935483,0.0-168.0-0.0,voc_e2,11762,"[{""event"":""fullscreenenter"",""trial"":1,""time"":5193}]",NA,NA,NA,NA,NA,1,#1CD855,#FA92F8,10,0,1,38,1,1104,37,1,439,10,1,experiment,NA,NA,0,0.9,0.1,0,1,159,4,NA
fcp-trial,208,939523,0.0-169.0-0.0,voc_e2,11762,"[{""event"":""fullscreenenter"",""trial"":1,""time"":5193}]",NA,NA,NA,NA,NA,2,#D8271C,#741CD8,0,10,0,40,0,2052.800000011921,39,0,478.10000002384186,10,1,experiment,NA,NA,1,0.3,0.7,3,2,160,4,NA
fcp-trial,209,942483,0.0-170.0-0.0,voc_e2,11762,"[{""event"":""fullscreenenter"",""trial"":1,""time"":5193}]",NA,NA,NA,NA,NA,1,#D89F1C,#3386FF,0,0,1,38,1,1043.699999988079,37,1,407.4000000357628,0,1,experiment,NA,NA,2,0.5,0.5,4,5,161,4,NA
fcp-trial,210,946661,0.0-171.0-0.0,voc_e2,11762,"[{""event"":""fullscreenenter"",""trial"":1,""time"":5193}]",NA,NA,NA,NA,NA,6,#1CD855,#FA92F8,10,0,1,40,0,1911.699999988079,37,1,758.1999999880791,10,1,experiment,NA,NA,0,0.9,0.1,0,1,162,4,NA
fcp-trial,211,949871,0.0-172.0-0.0,voc_e2,11762,"[{""event"":""fullscreenenter"",""trial"":1,""time"":5193}]",NA,NA,NA,NA,NA,4,#1CD855,#FA92F8,10,0,1,40,0,1149.300000011921,37,1,549.8999999761581,10,1,experiment,NA,NA,0,0.9,0.1,0,1,163,4,NA
fcp-trial,212,953244,0.0-173.0-0.0,voc_e2,11762,"[{""event"":""fullscreenenter"",""trial"":1,""time"":5193}]",NA,NA,NA,NA,NA,6,#3386FF,#D89F1C,0,0,0,40,0,1401,37,1,465.5999999642372,0,0,experiment,NA,NA,2,0.5,0.5,5,4,164,4,NA
fcp-trial,213,956493,0.0-174.0-0.0,voc_e2,11762,"[{""event"":""fullscreenenter"",""trial"":1,""time"":5193}]",NA,NA,NA,NA,NA,3,#D8271C,#741CD8,10,0,0,38,1,1481.5999999642372,37,1,254.10000002384183,10,0,experiment,NA,NA,1,0.3,0.7,3,2,165,4,NA
fcp-trial,214,959051,0.0-175.0-0.0,voc_e2,11762,"[{""event"":""fullscreenenter"",""trial"":1,""time"":5193}]",NA,NA,NA,NA,NA,5,#D8271C,#741CD8,10,10,0,38,1,779.6000000238419,37,1,263.39999997615814,10,0,experiment,NA,NA,1,0.3,0.7,3,2,166,4,NA
fcp-trial,215,964069,0.0-176.0-0.0,voc_e2,11762,"[{""event"":""fullscreenenter"",""trial"":1,""time"":5193}]",NA,NA,NA,NA,NA,2,#1CD855,#FA92F8,0,0,1,38,1,2619.800000011921,37,1,886.1000000238419,0,1,experiment,NA,NA,0,0.9,0.1,0,1,167,4,NA
fcp-trial,216,969261,0.0-177.0-0.0,voc_e2,11762,"[{""event"":""fullscreenenter"",""trial"":1,""time"":5193}]",NA,NA,NA,NA,NA,4,#D89F1C,#3386FF,0,10,1,40,0,3285.199999988079,39,0,392.39999997615814,10,0,experiment,NA,NA,2,0.5,0.5,4,5,168,4,NA
fcp-trial,217,973347,0.0-178.0-0.0,voc_e2,11762,"[{""event"":""fullscreenenter"",""trial"":1,""time"":5193}]",NA,NA,NA,NA,NA,5,#1CD855,#FA92F8,10,0,1,40,0,1924.5,39,0,647.5,0,0,experiment,NA,NA,0,0.9,0.1,0,1,169,4,NA
fcp-trial,218,977472,0.0-179.0-0.0,voc_e2,11762,"[{""event"":""fullscreenenter"",""trial"":1,""time"":5193}]",NA,NA,NA,NA,NA,2,#741CD8,#D8271C,10,0,1,38,1,2014.4000000357628,39,0,602.4000000357628,0,0,experiment,NA,NA,1,0.7,0.3,2,3,170,4,NA
fcp-trial,219,980259,0.0-180.0-0.0,voc_e2,11762,"[{""event"":""fullscreenenter"",""trial"":1,""time"":5193}]",NA,NA,NA,NA,NA,2,#3386FF,#D89F1C,10,10,0,38,1,854.3000000119209,37,1,424.60000002384186,10,0,experiment,NA,NA,2,0.5,0.5,5,4,171,4,NA
fcp-trial,220,984930,0.0-181.0-0.0,voc_e2,11762,"[{""event"":""fullscreenenter"",""trial"":1,""time"":5193}]",NA,NA,NA,NA,NA,6,#FA92F8,#1CD855,0,10,0,40,0,2483.800000011921,39,0,675.4000000357628,10,1,experiment,NA,NA,0,0.1,0.9,1,0,172,4,NA
fcp-trial,221,987832,0.0-182.0-0.0,voc_e2,11762,"[{""event"":""fullscreenenter"",""trial"":1,""time"":5193}]",NA,NA,NA,NA,NA,0,#3386FF,#D89F1C,0,10,0,38,1,1124.5999999642372,37,1,266.80000001192093,0,0,experiment,NA,NA,2,0.5,0.5,5,4,173,4,NA
fcp-trial,222,991482,0.0-183.0-0.0,voc_e2,11762,"[{""event"":""fullscreenenter"",""trial"":1,""time"":5193}]",NA,NA,NA,NA,NA,3,#741CD8,#D8271C,0,0,1,38,1,1544.5,39,0,598.6999999880791,0,0,experiment,NA,NA,1,0.7,0.3,2,3,174,4,NA
fcp-trial,223,994834,0.0-184.0-0.0,voc_e2,11762,"[{""event"":""fullscreenenter"",""trial"":1,""time"":5193}]",NA,NA,NA,NA,NA,3,#1CD855,#FA92F8,10,0,1,38,1,1300.300000011921,37,1,543.8000000119209,10,1,experiment,NA,NA,0,0.9,0.1,0,1,175,4,NA
fcp-trial,224,997642,0.0-185.0-0.0,voc_e2,11762,"[{""event"":""fullscreenenter"",""trial"":1,""time"":5193}]",NA,NA,NA,NA,NA,3,#D89F1C,#3386FF,10,10,1,38,1,923.0999999642372,37,1,365.39999997615814,10,1,experiment,NA,NA,2,0.5,0.5,4,5,176,4,NA
fcp-trial,225,1000381,0.0-186.0-0.0,voc_e2,11762,"[{""event"":""fullscreenenter"",""trial"":1,""time"":5193}]",NA,NA,NA,NA,NA,4,#1CD855,#FA92F8,10,0,1,38,1,733.7999999523163,37,1,492.89999997615814,10,1,experiment,NA,NA,0,0.9,0.1,0,1,177,4,NA
fcp-trial,226,1003407,0.0-187.0-0.0,voc_e2,11762,"[{""event"":""fullscreenenter"",""trial"":1,""time"":5193}]",NA,NA,NA,NA,NA,4,#741CD8,#D8271C,10,10,1,40,0,942.3000000119209,39,0,573.5,10,0,experiment,NA,NA,1,0.7,0.3,2,3,178,4,NA
fcp-trial,227,1010517,0.0-188.0-0.0,voc_e2,11762,"[{""event"":""fullscreenenter"",""trial"":1,""time"":5193}]",NA,NA,NA,NA,NA,1,#3386FF,#D89F1C,10,10,0,40,0,4950.600000023842,37,1,646.6999999880791,10,0,experiment,NA,NA,2,0.5,0.5,5,4,179,4,NA
fcp-trial,228,1013986,0.0-189.0-0.0,voc_e2,11762,"[{""event"":""fullscreenenter"",""trial"":1,""time"":5193}]",NA,NA,NA,NA,NA,2,#FA92F8,#1CD855,0,10,0,38,1,1691.300000011921,39,0,271.39999997615814,10,1,experiment,NA,NA,0,0.1,0.9,1,0,180,4,NA
fcp-trial,229,1016742,0.0-190.0-0.0,voc_e2,11762,"[{""event"":""fullscreenenter"",""trial"":1,""time"":5193}]",NA,NA,NA,NA,NA,4,#D89F1C,#3386FF,10,0,1,38,1,804.6000000238419,37,1,443.800000011921,10,1,experiment,NA,NA,2,0.5,0.5,4,5,181,5,NA
fcp-trial,230,1020218,0.0-191.0-0.0,voc_e2,11762,"[{""event"":""fullscreenenter"",""trial"":1,""time"":5193}]",NA,NA,NA,NA,NA,1,#FA92F8,#1CD855,0,0,0,38,1,1428.5,39,0,535.4000000357628,0,1,experiment,NA,NA,0,0.1,0.9,1,0,182,5,NA
fcp-trial,231,1023770,0.0-192.0-0.0,voc_e2,11762,"[{""event"":""fullscreenenter"",""trial"":1,""time"":5193}]",NA,NA,NA,NA,NA,6,#741CD8,#D8271C,0,10,1,40,0,1612.800000011921,37,1,431.0999999642372,0,1,experiment,NA,NA,1,0.7,0.3,2,3,183,5,NA
fcp-trial,232,1026746,0.0-193.0-0.0,voc_e2,11762,"[{""event"":""fullscreenenter"",""trial"":1,""time"":5193}]",NA,NA,NA,NA,NA,6,#D89F1C,#3386FF,10,10,1,38,1,976.8999999761581,37,1,493.39999997615814,10,1,experiment,NA,NA,2,0.5,0.5,4,5,184,5,NA
fcp-trial,233,1029221,0.0-194.0-0.0,voc_e2,11762,"[{""event"":""fullscreenenter"",""trial"":1,""time"":5193}]",NA,NA,NA,NA,NA,0,#1CD855,#FA92F8,10,0,1,38,1,683.5,37,1,283.4000000357628,10,1,experiment,NA,NA,0,0.9,0.1,0,1,185,5,NA
fcp-trial,234,1033406,0.0-195.0-0.0,voc_e2,11762,"[{""event"":""fullscreenenter"",""trial"":1,""time"":5193}]",NA,NA,NA,NA,NA,5,#741CD8,#D8271C,10,10,1,38,1,1044.6000000238419,39,0,1630.300000011921,10,0,experiment,NA,NA,1,0.7,0.3,2,3,186,5,NA
fcp-trial,235,1036348,0.0-196.0-0.0,voc_e2,11762,"[{""event"":""fullscreenenter"",""trial"":1,""time"":5193}]",NA,NA,NA,NA,NA,0,#D8271C,#741CD8,0,10,0,40,0,832.6999999880791,39,0,598.1000000238419,10,1,experiment,NA,NA,1,0.3,0.7,3,2,187,5,NA
fcp-trial,236,1040106,0.0-197.0-0.0,voc_e2,11762,"[{""event"":""fullscreenenter"",""trial"":1,""time"":5193}]",NA,NA,NA,NA,NA,1,#741CD8,#D8271C,10,0,1,38,1,1908.199999988079,37,1,340.9000000357628,10,1,experiment,NA,NA,1,0.7,0.3,2,3,188,5,NA
fcp-trial,237,1043353,0.0-198.0-0.0,voc_e2,11762,"[{""event"":""fullscreenenter"",""trial"":1,""time"":5193}]",NA,NA,NA,NA,NA,5,#3386FF,#D89F1C,0,10,0,38,1,1084.800000011921,39,0,651.8000000119209,10,1,experiment,NA,NA,2,0.5,0.5,5,4,189,5,NA
fcp-trial,238,1046076,0.0-199.0-0.0,voc_e2,11762,"[{""event"":""fullscreenenter"",""trial"":1,""time"":5193}]",NA,NA,NA,NA,NA,6,#1CD855,#FA92F8,10,0,1,38,1,919.2000000476837,37,1,294.0999999642372,10,1,experiment,NA,NA,0,0.9,0.1,0,1,190,5,NA
fcp-trial,239,1050819,0.0-200.0-0.0,voc_e2,11762,"[{""event"":""fullscreenenter"",""trial"":1,""time"":5193}]",NA,NA,NA,NA,NA,6,#D89F1C,#3386FF,0,0,1,40,0,2764.599999964237,37,1,469.5,0,1,experiment,NA,NA,2,0.5,0.5,4,5,191,5,NA
fcp-trial,240,1054137,0.0-201.0-0.0,voc_e2,11762,"[{""event"":""fullscreenenter"",""trial"":1,""time"":5193}]",NA,NA,NA,NA,NA,1,#D89F1C,#3386FF,0,0,1,38,1,1349.199999988079,37,1,458,0,1,experiment,NA,NA,2,0.5,0.5,4,5,192,5,NA
fcp-trial,241,1060000,0.0-202.0-0.0,voc_e2,11762,"[{""event"":""fullscreenenter"",""trial"":1,""time"":5193}]",NA,NA,NA,NA,NA,1,#D8271C,#741CD8,10,10,0,38,1,3829.400000035763,39,0,522.1000000238419,10,1,experiment,NA,NA,1,0.3,0.7,3,2,193,5,NA
fcp-trial,242,1063243,0.0-203.0-0.0,voc_e2,11762,"[{""event"":""fullscreenenter"",""trial"":1,""time"":5193}]",NA,NA,NA,NA,NA,4,#FA92F8,#1CD855,0,10,0,38,1,1246.800000011921,39,0,482,10,1,experiment,NA,NA,0,0.1,0.9,1,0,194,5,NA
fcp-trial,243,1066364,0.0-204.0-0.0,voc_e2,11762,"[{""event"":""fullscreenenter"",""trial"":1,""time"":5193}]",NA,NA,NA,NA,NA,5,#741CD8,#D8271C,0,0,1,38,1,1167.8999999761581,37,1,443.0999999642372,0,1,experiment,NA,NA,1,0.7,0.3,2,3,195,5,NA
fcp-trial,244,1069185,0.0-205.0-0.0,voc_e2,11762,"[{""event"":""fullscreenenter"",""trial"":1,""time"":5193}]",NA,NA,NA,NA,NA,5,#3386FF,#D89F1C,0,10,0,38,1,1053.4000000357628,39,0,261.10000002384186,10,1,experiment,NA,NA,2,0.5,0.5,5,4,196,5,NA
fcp-trial,245,1071715,0.0-206.0-0.0,voc_e2,11762,"[{""event"":""fullscreenenter"",""trial"":1,""time"":5193}]",NA,NA,NA,NA,NA,5,#1CD855,#FA92F8,10,0,1,38,1,758.3000000119209,37,1,264,10,1,experiment,NA,NA,0,0.9,0.1,0,1,197,5,NA
fcp-trial,246,1074789,0.0-207.0-0.0,voc_e2,11762,"[{""event"":""fullscreenenter"",""trial"":1,""time"":5193}]",NA,NA,NA,NA,NA,2,#D8271C,#741CD8,10,0,0,40,0,935.4000000357628,39,0,630.5999999642372,0,1,experiment,NA,NA,1,0.3,0.7,3,2,198,5,NA
fcp-trial,247,1077527,0.0-208.0-0.0,voc_e2,11762,"[{""event"":""fullscreenenter"",""trial"":1,""time"":5193}]",NA,NA,NA,NA,NA,4,#3386FF,#D89F1C,10,10,0,38,1,961.0999999642372,37,1,264.19999998807907,10,0,experiment,NA,NA,2,0.5,0.5,5,4,199,5,NA
fcp-trial,248,1081559,0.0-209.0-0.0,voc_e2,11762,"[{""event"":""fullscreenenter"",""trial"":1,""time"":5193}]",NA,NA,NA,NA,NA,0,#1CD855,#FA92F8,10,10,1,38,1,1978.5,37,1,544,10,1,experiment,NA,NA,0,0.9,0.1,0,1,200,5,NA
fcp-trial,249,1084538,0.0-210.0-0.0,voc_e2,11762,"[{""event"":""fullscreenenter"",""trial"":1,""time"":5193}]",NA,NA,NA,NA,NA,1,#1CD855,#FA92F8,10,0,1,38,1,940.4000000357628,39,0,516.1999999880791,0,0,experiment,NA,NA,0,0.9,0.1,0,1,201,5,NA
fcp-trial,250,1088154,0.0-211.0-0.0,voc_e2,11762,"[{""event"":""fullscreenenter"",""trial"":1,""time"":5193}]",NA,NA,NA,NA,NA,6,#D8271C,#741CD8,0,10,0,40,0,1330.7999999523163,39,0,772.3999999761581,10,1,experiment,NA,NA,1,0.3,0.7,3,2,202,5,NA
fcp-trial,251,1091512,0.0-212.0-0.0,voc_e2,11762,"[{""event"":""fullscreenenter"",""trial"":1,""time"":5193}]",NA,NA,NA,NA,NA,3,#1CD855,#FA92F8,10,0,1,38,1,1330.8999999761581,37,1,503.89999997615814,10,1,experiment,NA,NA,0,0.9,0.1,0,1,203,5,NA
fcp-trial,252,1094194,0.0-213.0-0.0,voc_e2,11762,"[{""event"":""fullscreenenter"",""trial"":1,""time"":5193}]",NA,NA,NA,NA,NA,2,#D89F1C,#3386FF,0,0,1,38,1,631,37,1,543.9000000357628,0,1,experiment,NA,NA,2,0.5,0.5,4,5,204,5,NA
fcp-trial,253,1096779,0.0-214.0-0.0,voc_e2,11762,"[{""event"":""fullscreenenter"",""trial"":1,""time"":5193}]",NA,NA,NA,NA,NA,0,#3386FF,#D89F1C,0,10,0,38,1,718.8999999761581,39,0,356.80000001192093,10,1,experiment,NA,NA,2,0.5,0.5,5,4,205,5,NA
fcp-trial,254,1099950,0.0-215.0-0.0,voc_e2,11762,"[{""event"":""fullscreenenter"",""trial"":1,""time"":5193}]",NA,NA,NA,NA,NA,2,#1CD855,#FA92F8,10,0,1,38,1,1300.300000011921,37,1,363.5999999642372,10,1,experiment,NA,NA,0,0.9,0.1,0,1,206,5,NA
fcp-trial,255,1102932,0.0-216.0-0.0,voc_e2,11762,"[{""event"":""fullscreenenter"",""trial"":1,""time"":5193}]",NA,NA,NA,NA,NA,4,#D8271C,#741CD8,10,0,0,38,1,908.1000000238419,39,0,566.4000000357628,0,1,experiment,NA,NA,1,0.3,0.7,3,2,207,5,NA
fcp-trial,256,1106287,0.0-217.0-0.0,voc_e2,11762,"[{""event"":""fullscreenenter"",""trial"":1,""time"":5193}]",NA,NA,NA,NA,NA,3,#741CD8,#D8271C,10,0,1,38,1,1386.4000000357628,37,1,459.699999988079,10,1,experiment,NA,NA,1,0.7,0.3,2,3,208,5,NA
fcp-trial,257,1109142,0.0-218.0-0.0,voc_e2,11762,"[{""event"":""fullscreenenter"",""trial"":1,""time"":5193}]",NA,NA,NA,NA,NA,0,#741CD8,#D8271C,10,0,1,38,1,1005.4000000357628,37,1,336.80000001192093,10,1,experiment,NA,NA,1,0.7,0.3,2,3,209,5,NA
fcp-trial,258,1112784,0.0-219.0-0.0,voc_e2,11762,"[{""event"":""fullscreenenter"",""trial"":1,""time"":5193}]",NA,NA,NA,NA,NA,3,#3386FF,#D89F1C,0,10,0,38,1,1701.199999988079,39,0,432.4000000357628,10,1,experiment,NA,NA,2,0.5,0.5,5,4,210,5,NA
audio-instructions,259,1124058,0.0-220.0,voc_e2,11762,"[{""event"":""fullscreenenter"",""trial"":1,""time"":5193}]",NA,4944.199999988079,static/audio/pause.wav,NA,0,NA,NA,NA,NA,NA,NA,NA,NA,NA,NA,NA,NA,NA,NA,NA,NA,NA,NA,NA,NA,NA,NA,NA,NA,NA
fcp-trial,260,1130439,0.0-221.0-0.0,voc_e2,11762,"[{""event"":""fullscreenenter"",""trial"":1,""time"":5193}]",NA,NA,NA,NA,NA,2,#3386FF,#D89F1C,0,10,0,38,1,4158.799999952316,37,1,688.8999999761581,0,0,experiment,NA,NA,2,0.5,0.5,5,4,211,5,NA
fcp-trial,261,1133484,0.0-222.0-0.0,voc_e2,11762,"[{""event"":""fullscreenenter"",""trial"":1,""time"":5193}]",NA,NA,NA,NA,NA,1,#741CD8,#D8271C,10,0,1,38,1,976.9000000357628,37,1,543.1000000238419,10,1,experiment,NA,NA,1,0.7,0.3,2,3,212,5,NA
fcp-trial,262,1137616,0.0-223.0-0.0,voc_e2,11762,"[{""event"":""fullscreenenter"",""trial"":1,""time"":5193}]",NA,NA,NA,NA,NA,1,#D89F1C,#3386FF,10,10,1,38,1,2038.199999988079,39,0,574.6000000238419,10,0,experiment,NA,NA,2,0.5,0.5,4,5,213,5,NA
fcp-trial,263,1140423,0.0-224.0-0.0,voc_e2,11762,"[{""event"":""fullscreenenter"",""trial"":1,""time"":5193}]",NA,NA,NA,NA,NA,2,#FA92F8,#1CD855,0,10,0,38,1,753.5,39,0,541.3999999761581,10,1,experiment,NA,NA,0,0.1,0.9,1,0,214,5,NA
fcp-trial,264,1143176,0.0-225.0-0.0,voc_e2,11762,"[{""event"":""fullscreenenter"",""trial"":1,""time"":5193}]",NA,NA,NA,NA,NA,4,#741CD8,#D8271C,10,0,1,38,1,855.6000000238419,37,1,383.39999997615814,10,1,experiment,NA,NA,1,0.7,0.3,2,3,215,5,NA
fcp-trial,265,1145792,0.0-226.0-0.0,voc_e2,11762,"[{""event"":""fullscreenenter"",""trial"":1,""time"":5193}]",NA,NA,NA,NA,NA,0,#D8271C,#741CD8,0,10,0,38,1,704.5,39,0,402.5,10,1,experiment,NA,NA,1,0.3,0.7,3,2,216,5,NA
fcp-trial,266,1148795,0.0-227.0-0.0,voc_e2,11762,"[{""event"":""fullscreenenter"",""trial"":1,""time"":5193}]",NA,NA,NA,NA,NA,4,#D89F1C,#3386FF,10,10,1,38,1,957.3000000119209,37,1,533.9000000357628,10,1,experiment,NA,NA,2,0.5,0.5,4,5,217,5,NA
fcp-trial,267,1151339,0.0-228.0-0.0,voc_e2,11762,"[{""event"":""fullscreenenter"",""trial"":1,""time"":5193}]",NA,NA,NA,NA,NA,1,#1CD855,#FA92F8,10,0,1,38,1,784.1999999880791,39,0,253.10000002384183,0,0,experiment,NA,NA,0,0.9,0.1,0,1,218,5,NA
fcp-trial,268,1154108,0.0-229.0-0.0,voc_e2,11762,"[{""event"":""fullscreenenter"",""trial"":1,""time"":5193}]",NA,NA,NA,NA,NA,3,#FA92F8,#1CD855,0,0,0,38,1,742.7999999523163,39,0,513.8000000119209,0,1,experiment,NA,NA,0,0.1,0.9,1,0,219,5,NA
fcp-trial,269,1156698,0.0-230.0-0.0,voc_e2,11762,"[{""event"":""fullscreenenter"",""trial"":1,""time"":5193}]",NA,NA,NA,NA,NA,6,#741CD8,#D8271C,10,10,1,38,1,675,37,1,407.60000002384186,10,1,experiment,NA,NA,1,0.7,0.3,2,3,220,5,NA
fcp-trial,270,1159262,0.0-231.0-0.0,voc_e2,11762,"[{""event"":""fullscreenenter"",""trial"":1,""time"":5193}]",NA,NA,NA,NA,NA,0,#3386FF,#D89F1C,0,0,0,38,1,709.1999999880791,39,0,347.80000001192093,0,1,experiment,NA,NA,2,0.5,0.5,5,4,221,5,NA
fcp-trial,271,1161996,0.0-232.0-0.0,voc_e2,11762,"[{""event"":""fullscreenenter"",""trial"":1,""time"":5193}]",NA,NA,NA,NA,NA,6,#FA92F8,#1CD855,0,10,0,38,1,740.1999999880791,39,0,484.699999988079,10,1,experiment,NA,NA,0,0.1,0.9,1,0,222,5,NA
fcp-trial,272,1165275,0.0-233.0-0.0,voc_e2,11762,"[{""event"":""fullscreenenter"",""trial"":1,""time"":5193}]",NA,NA,NA,NA,NA,5,#3386FF,#D89F1C,0,0,0,38,1,1441.300000011921,37,1,330.10000002384186,0,0,experiment,NA,NA,2,0.5,0.5,5,4,223,5,NA
fcp-trial,273,1168113,0.0-234.0-0.0,voc_e2,11762,"[{""event"":""fullscreenenter"",""trial"":1,""time"":5193}]",NA,NA,NA,NA,NA,0,#1CD855,#FA92F8,10,0,1,38,1,696.1000000238419,37,1,634,10,1,experiment,NA,NA,0,0.9,0.1,0,1,224,5,NA
fcp-trial,274,1170810,0.0-235.0-0.0,voc_e2,11762,"[{""event"":""fullscreenenter"",""trial"":1,""time"":5193}]",NA,NA,NA,NA,NA,2,#741CD8,#D8271C,10,0,1,38,1,735.5,37,1,452.39999997615814,10,1,experiment,NA,NA,1,0.7,0.3,2,3,225,5,NA
fcp-trial,275,1173602,0.0-236.0-0.0,voc_e2,11762,"[{""event"":""fullscreenenter"",""trial"":1,""time"":5193}]",NA,NA,NA,NA,NA,3,#3386FF,#D89F1C,0,10,0,38,1,816.6000000238419,37,1,466.5,0,0,experiment,NA,NA,2,0.5,0.5,5,4,226,6,NA
fcp-trial,276,1176857,0.0-237.0-0.0,voc_e2,11762,"[{""event"":""fullscreenenter"",""trial"":1,""time"":5193}]",NA,NA,NA,NA,NA,5,#D8271C,#741CD8,10,10,0,38,1,898.6999999880791,39,0,845,10,1,experiment,NA,NA,1,0.3,0.7,3,2,227,6,NA
fcp-trial,277,1179760,0.0-238.0-0.0,voc_e2,11762,"[{""event"":""fullscreenenter"",""trial"":1,""time"":5193}]",NA,NA,NA,NA,NA,6,#D89F1C,#3386FF,10,10,1,38,1,1080.800000011921,37,1,316.5999999642372,10,1,experiment,NA,NA,2,0.5,0.5,4,5,228,6,NA
fcp-trial,278,1182393,0.0-239.0-0.0,voc_e2,11762,"[{""event"":""fullscreenenter"",""trial"":1,""time"":5193}]",NA,NA,NA,NA,NA,5,#1CD855,#FA92F8,10,0,1,38,1,684.6999999880791,37,1,442,10,1,experiment,NA,NA,0,0.9,0.1,0,1,229,6,NA
fcp-trial,279,1185141,0.0-240.0-0.0,voc_e2,11762,"[{""event"":""fullscreenenter"",""trial"":1,""time"":5193}]",NA,NA,NA,NA,NA,3,#D8271C,#741CD8,10,10,0,38,1,723.6999999880791,39,0,513.0999999642372,10,1,experiment,NA,NA,1,0.3,0.7,3,2,230,6,NA
fcp-trial,280,1188074,0.0-241.0-0.0,voc_e2,11762,"[{""event"":""fullscreenenter"",""trial"":1,""time"":5193}]",NA,NA,NA,NA,NA,4,#FA92F8,#1CD855,10,10,0,38,1,1104.9000000357628,39,0,320.80000001192093,10,1,experiment,NA,NA,0,0.1,0.9,1,0,231,6,NA
fcp-trial,281,1190383,0.0-242.0-0.0,voc_e2,11762,"[{""event"":""fullscreenenter"",""trial"":1,""time"":5193}]",NA,NA,NA,NA,NA,3,#D8271C,#741CD8,0,10,0,38,1,538,39,0,262.60000002384186,10,1,experiment,NA,NA,1,0.3,0.7,3,2,232,6,NA
fcp-trial,282,1193176,0.0-243.0-0.0,voc_e2,11762,"[{""event"":""fullscreenenter"",""trial"":1,""time"":5193}]",NA,NA,NA,NA,NA,1,#D89F1C,#3386FF,0,0,1,38,1,736.2000000476837,37,1,547.3999999761581,0,1,experiment,NA,NA,2,0.5,0.5,4,5,233,6,NA
fcp-trial,283,1195575,0.0-244.0-0.0,voc_e2,11762,"[{""event"":""fullscreenenter"",""trial"":1,""time"":5193}]",NA,NA,NA,NA,NA,5,#FA92F8,#1CD855,0,10,0,38,1,610.6999999880791,39,0,279.5999999642372,10,1,experiment,NA,NA,0,0.1,0.9,1,0,234,6,NA
fcp-trial,284,1198011,0.0-245.0-0.0,voc_e2,11762,"[{""event"":""fullscreenenter"",""trial"":1,""time"":5193}]",NA,NA,NA,NA,NA,1,#741CD8,#D8271C,0,0,1,38,1,623.8000000119209,37,1,300.7000000476837,0,1,experiment,NA,NA,1,0.7,0.3,2,3,235,6,NA
fcp-trial,285,1200658,0.0-246.0-0.0,voc_e2,11762,"[{""event"":""fullscreenenter"",""trial"":1,""time"":5193}]",NA,NA,NA,NA,NA,3,#D89F1C,#3386FF,0,0,1,38,1,700.8000000119209,37,1,437.2000000476837,0,1,experiment,NA,NA,2,0.5,0.5,4,5,236,6,NA
fcp-trial,286,1203692,0.0-247.0-0.0,voc_e2,11762,"[{""event"":""fullscreenenter"",""trial"":1,""time"":5193}]",NA,NA,NA,NA,NA,6,#741CD8,#D8271C,10,10,1,38,1,869.6999999880791,37,1,657.8999999761581,10,1,experiment,NA,NA,1,0.7,0.3,2,3,237,6,NA
fcp-trial,287,1206519,0.0-248.0-0.0,voc_e2,11762,"[{""event"":""fullscreenenter"",""trial"":1,""time"":5193}]",NA,NA,NA,NA,NA,6,#D89F1C,#3386FF,10,0,1,38,1,870.3999999761581,37,1,447.699999988079,10,1,experiment,NA,NA,2,0.5,0.5,4,5,238,6,NA
fcp-trial,288,1209388,0.0-249.0-0.0,voc_e2,11762,"[{""event"":""fullscreenenter"",""trial"":1,""time"":5193}]",NA,NA,NA,NA,NA,6,#1CD855,#FA92F8,10,0,1,38,1,1024.9000000357628,37,1,330.69999998807907,10,1,experiment,NA,NA,0,0.9,0.1,0,1,239,6,NA
fcp-trial,289,1212480,0.0-250.0-0.0,voc_e2,11762,"[{""event"":""fullscreenenter"",""trial"":1,""time"":5193}]",NA,NA,NA,NA,NA,0,#3386FF,#D89F1C,10,0,0,38,1,1260.199999988079,39,0,320.7000000476837,0,1,experiment,NA,NA,2,0.5,0.5,5,4,240,6,NA
fcp-trial,290,1215044,0.0-251.0-0.0,voc_e2,11762,"[{""event"":""fullscreenenter"",""trial"":1,""time"":5193}]",NA,NA,NA,NA,NA,5,#741CD8,#D8271C,10,0,1,38,1,593.5,37,1,462.39999997615814,10,1,experiment,NA,NA,1,0.7,0.3,2,3,241,6,NA
fcp-trial,291,1217825,0.0-252.0-0.0,voc_e2,11762,"[{""event"":""fullscreenenter"",""trial"":1,""time"":5193}]",NA,NA,NA,NA,NA,2,#FA92F8,#1CD855,0,10,0,38,1,684.8000000119209,39,0,587.6999999880791,10,1,experiment,NA,NA,0,0.1,0.9,1,0,242,6,NA
fcp-trial,292,1220545,0.0-253.0-0.0,voc_e2,11762,"[{""event"":""fullscreenenter"",""trial"":1,""time"":5193}]",NA,NA,NA,NA,NA,0,#741CD8,#D8271C,0,10,1,38,1,815.9000000357628,37,1,396.39999997615814,0,1,experiment,NA,NA,1,0.7,0.3,2,3,243,6,NA
fcp-trial,293,1223296,0.0-254.0-0.0,voc_e2,11762,"[{""event"":""fullscreenenter"",""trial"":1,""time"":5193}]",NA,NA,NA,NA,NA,4,#D89F1C,#3386FF,0,0,1,38,1,698.5,37,1,544.1000000238419,0,1,experiment,NA,NA,2,0.5,0.5,4,5,244,6,NA
fcp-trial,294,1225873,0.0-255.0-0.0,voc_e2,11762,"[{""event"":""fullscreenenter"",""trial"":1,""time"":5193}]",NA,NA,NA,NA,NA,0,#1CD855,#FA92F8,10,0,1,38,1,557.5,37,1,512.4000000357628,10,1,experiment,NA,NA,0,0.9,0.1,0,1,245,6,NA
fcp-trial,295,1228360,0.0-256.0-0.0,voc_e2,11762,"[{""event"":""fullscreenenter"",""trial"":1,""time"":5193}]",NA,NA,NA,NA,NA,2,#D89F1C,#3386FF,0,10,1,38,1,706.3999999761581,39,0,268.60000002384186,10,0,experiment,NA,NA,2,0.5,0.5,4,5,246,6,NA
fcp-trial,296,1231476,0.0-257.0-0.0,voc_e2,11762,"[{""event"":""fullscreenenter"",""trial"":1,""time"":5193}]",NA,NA,NA,NA,NA,1,#FA92F8,#1CD855,10,10,0,38,1,646.8000000119209,39,0,962,10,1,experiment,NA,NA,0,0.1,0.9,1,0,247,6,NA
fcp-trial,297,1234179,0.0-258.0-0.0,voc_e2,11762,"[{""event"":""fullscreenenter"",""trial"":1,""time"":5193}]",NA,NA,NA,NA,NA,2,#741CD8,#D8271C,10,10,1,38,1,912,37,1,283.80000001192093,10,1,experiment,NA,NA,1,0.7,0.3,2,3,248,6,NA
fcp-trial,298,1236990,0.0-259.0-0.0,voc_e2,11762,"[{""event"":""fullscreenenter"",""trial"":1,""time"":5193}]",NA,NA,NA,NA,NA,4,#D8271C,#741CD8,0,10,0,38,1,674.9000000357628,39,0,628.6999999880791,10,1,experiment,NA,NA,1,0.3,0.7,3,2,249,6,NA
fcp-trial,299,1240856,0.0-260.0-0.0,voc_e2,11762,"[{""event"":""fullscreenenter"",""trial"":1,""time"":5193}]",NA,NA,NA,NA,NA,3,#FA92F8,#1CD855,0,10,0,38,1,1652.0999999642372,39,0,706,10,1,experiment,NA,NA,0,0.1,0.9,1,0,250,6,NA
fcp-trial,300,1244278,0.0-261.0-0.0,voc_e2,11762,"[{""event"":""fullscreenenter"",""trial"":1,""time"":5193}]",NA,NA,NA,NA,NA,5,#D89F1C,#3386FF,0,10,1,38,1,1047.199999988079,39,0,866.2999999523163,10,0,experiment,NA,NA,2,0.5,0.5,4,5,251,6,NA
fcp-trial,301,1247299,0.0-262.0-0.0,voc_e2,11762,"[{""event"":""fullscreenenter"",""trial"":1,""time"":5193}]",NA,NA,NA,NA,NA,4,#FA92F8,#1CD855,0,10,0,38,1,1172.8999999761581,39,0,340.80000001192093,10,1,experiment,NA,NA,0,0.1,0.9,1,0,252,6,NA
fcp-trial,302,1250602,0.0-263.0-0.0,voc_e2,11762,"[{""event"":""fullscreenenter"",""trial"":1,""time"":5193}]",NA,NA,NA,NA,NA,3,#FA92F8,#1CD855,0,10,0,38,1,1480.2999999523163,39,0,314.9000000357628,10,1,experiment,NA,NA,0,0.1,0.9,1,0,253,6,NA
fcp-trial,303,1254076,0.0-264.0-0.0,voc_e2,11762,"[{""event"":""fullscreenenter"",""trial"":1,""time"":5193}]",NA,NA,NA,NA,NA,4,#741CD8,#D8271C,10,0,1,38,1,1306,37,1,656.3000000119209,10,1,experiment,NA,NA,1,0.7,0.3,2,3,254,6,NA
fcp-trial,304,1257603,0.0-265.0-0.0,voc_e2,11762,"[{""event"":""fullscreenenter"",""trial"":1,""time"":5193}]",NA,NA,NA,NA,NA,0,#D89F1C,#3386FF,0,0,1,38,1,1697.8999999761581,39,0,319.5,0,0,experiment,NA,NA,2,0.5,0.5,4,5,255,6,NA
fcp-trial,305,1260026,0.0-266.0-0.0,voc_e2,11762,"[{""event"":""fullscreenenter"",""trial"":1,""time"":5193}]",NA,NA,NA,NA,NA,4,#1CD855,#FA92F8,10,0,1,38,1,581.7000000476837,37,1,331,10,1,experiment,NA,NA,0,0.9,0.1,0,1,256,6,NA
fcp-trial,306,1262539,0.0-267.0-0.0,voc_e2,11762,"[{""event"":""fullscreenenter"",""trial"":1,""time"":5193}]",NA,NA,NA,NA,NA,1,#3386FF,#D89F1C,10,0,0,38,1,631.8999999761581,39,0,372,0,1,experiment,NA,NA,2,0.5,0.5,5,4,257,6,NA
fcp-trial,307,1265099,0.0-268.0-0.0,voc_e2,11762,"[{""event"":""fullscreenenter"",""trial"":1,""time"":5193}]",NA,NA,NA,NA,NA,2,#1CD855,#FA92F8,10,0,1,38,1,724.0999999642372,37,1,325.5,10,1,experiment,NA,NA,0,0.9,0.1,0,1,258,6,NA
fcp-trial,308,1267810,0.0-269.0-0.0,voc_e2,11762,"[{""event"":""fullscreenenter"",""trial"":1,""time"":5193}]",NA,NA,NA,NA,NA,3,#D8271C,#741CD8,0,10,0,38,1,951,39,0,252.10000002384183,10,1,experiment,NA,NA,1,0.3,0.7,3,2,259,6,NA
fcp-trial,309,1271440,0.0-270.0-0.0,voc_e2,11762,"[{""event"":""fullscreenenter"",""trial"":1,""time"":5193}]",NA,NA,NA,NA,NA,5,#D8271C,#741CD8,0,0,0,38,1,741.0999999642372,39,0,1381.100000023842,0,1,experiment,NA,NA,1,0.3,0.7,3,2,260,6,NA
fcp-trial,310,1274607,0.0-271.0-0.0,voc_e2,11762,"[{""event"":""fullscreenenter"",""trial"":1,""time"":5193}]",NA,NA,NA,NA,NA,0,#741CD8,#D8271C,0,10,1,38,1,1394.6000000238419,37,1,264.60000002384186,0,1,experiment,NA,NA,1,0.7,0.3,2,3,261,6,NA
fcp-trial,311,1278606,0.0-272.0-0.0,voc_e2,11762,"[{""event"":""fullscreenenter"",""trial"":1,""time"":5193}]",NA,NA,NA,NA,NA,5,#3386FF,#D89F1C,10,10,0,40,0,2105.400000035763,39,0,384.5999999642372,10,1,experiment,NA,NA,2,0.5,0.5,5,4,262,6,NA
fcp-trial,312,1282305,0.0-273.0-0.0,voc_e2,11762,"[{""event"":""fullscreenenter"",""trial"":1,""time"":5193}]",NA,NA,NA,NA,NA,5,#FA92F8,#1CD855,0,10,0,40,0,1427.800000011921,39,0,763.5,10,1,experiment,NA,NA,0,0.1,0.9,1,0,263,6,NA
fcp-trial,313,1285887,0.0-274.0-0.0,voc_e2,11762,"[{""event"":""fullscreenenter"",""trial"":1,""time"":5193}]",NA,NA,NA,NA,NA,4,#3386FF,#D89F1C,0,0,0,40,0,1598.7999999523163,39,0,473.60000002384186,0,1,experiment,NA,NA,2,0.5,0.5,5,4,264,6,NA
fcp-trial,314,1290155,0.0-275.0-0.0,voc_e2,11762,"[{""event"":""fullscreenenter"",""trial"":1,""time"":5193}]",NA,NA,NA,NA,NA,1,#741CD8,#D8271C,10,0,1,40,0,2115,37,1,643.3000000119209,10,1,experiment,NA,NA,1,0.7,0.3,2,3,265,6,NA
fcp-trial,315,1293373,0.0-276.0-0.0,voc_e2,11762,"[{""event"":""fullscreenenter"",""trial"":1,""time"":5193}]",NA,NA,NA,NA,NA,6,#FA92F8,#1CD855,0,10,0,40,0,1251.8999999761581,39,0,454.300000011921,10,1,experiment,NA,NA,0,0.1,0.9,1,0,266,6,NA
fcp-trial,316,1297012,0.0-277.0-0.0,voc_e2,11762,"[{""event"":""fullscreenenter"",""trial"":1,""time"":5193}]",NA,NA,NA,NA,NA,6,#D8271C,#741CD8,0,10,0,40,0,1341.300000011921,37,1,789,0,0,experiment,NA,NA,1,0.3,0.7,3,2,267,6,NA
fcp-trial,317,1300295,0.0-278.0-0.0,voc_e2,11762,"[{""event"":""fullscreenenter"",""trial"":1,""time"":5193}]",NA,NA,NA,NA,NA,6,#3386FF,#D89F1C,10,0,0,40,0,1183.300000011921,37,1,589.5,10,0,experiment,NA,NA,2,0.5,0.5,5,4,268,6,NA
fcp-trial,318,1303298,0.0-279.0-0.0,voc_e2,11762,"[{""event"":""fullscreenenter"",""trial"":1,""time"":5193}]",NA,NA,NA,NA,NA,2,#D8271C,#741CD8,0,0,0,40,0,750.3999999761581,37,1,742.4000000357628,0,0,experiment,NA,NA,1,0.3,0.7,3,2,269,6,NA
fcp-trial,319,1305785,0.0-280.0-0.0,voc_e2,11762,"[{""event"":""fullscreenenter"",""trial"":1,""time"":5193}]",NA,NA,NA,NA,NA,0,#1CD855,#FA92F8,0,10,1,40,0,41.60000002384186,39,0,929,10,0,experiment,NA,NA,0,0.9,0.1,0,1,270,6,NA
fcp-trial,320,1310409,0.0-281.0-0.0,voc_e2,11762,"[{""event"":""fullscreenenter"",""trial"":1,""time"":5193}]",NA,NA,NA,NA,NA,1,#1CD855,#FA92F8,10,0,1,38,1,2546.099999964237,37,1,566.6000000238419,10,1,experiment,NA,NA,0,0.9,0.1,0,1,271,7,NA
fcp-trial,321,1313762,0.0-282.0-0.0,voc_e2,11762,"[{""event"":""fullscreenenter"",""trial"":1,""time"":5193}]",NA,NA,NA,NA,NA,2,#3386FF,#D89F1C,0,0,0,38,1,1463.5999999642372,39,0,381.89999997615814,0,1,experiment,NA,NA,2,0.5,0.5,5,4,272,7,NA
fcp-trial,322,1316705,0.0-283.0-0.0,voc_e2,11762,"[{""event"":""fullscreenenter"",""trial"":1,""time"":5193}]",NA,NA,NA,NA,NA,3,#3386FF,#D89F1C,0,10,0,38,1,1074.199999988079,37,1,359.30000001192093,0,0,experiment,NA,NA,2,0.5,0.5,5,4,273,7,NA
fcp-trial,323,1319901,0.0-284.0-0.0,voc_e2,11762,"[{""event"":""fullscreenenter"",""trial"":1,""time"":5193}]",NA,NA,NA,NA,NA,3,#3386FF,#D89F1C,10,10,0,40,0,1100.1000000238419,37,1,588.3999999761581,10,0,experiment,NA,NA,2,0.5,0.5,5,4,274,7,NA
fcp-trial,324,1322839,0.0-285.0-0.0,voc_e2,11762,"[{""event"":""fullscreenenter"",""trial"":1,""time"":5193}]",NA,NA,NA,NA,NA,0,#741CD8,#D8271C,10,10,1,38,1,1159.800000011921,37,1,266.89999997615814,10,1,experiment,NA,NA,1,0.7,0.3,2,3,275,7,NA
fcp-trial,325,1326137,0.0-286.0-0.0,voc_e2,11762,"[{""event"":""fullscreenenter"",""trial"":1,""time"":5193}]",NA,NA,NA,NA,NA,5,#1CD855,#FA92F8,10,0,1,38,1,1127.5999999642372,37,1,663.8999999761581,10,1,experiment,NA,NA,0,0.9,0.1,0,1,276,7,NA
fcp-trial,326,1329522,0.0-287.0-0.0,voc_e2,11762,"[{""event"":""fullscreenenter"",""trial"":1,""time"":5193}]",NA,NA,NA,NA,NA,3,#D8271C,#741CD8,0,10,0,40,0,1110.5,37,1,766.1000000238419,0,0,experiment,NA,NA,1,0.3,0.7,3,2,277,7,NA
fcp-trial,327,1332910,0.0-288.0-0.0,voc_e2,11762,"[{""event"":""fullscreenenter"",""trial"":1,""time"":5193}]",NA,NA,NA,NA,NA,5,#3386FF,#D89F1C,10,0,0,40,0,1293.1000000238419,37,1,587.5,10,0,experiment,NA,NA,2,0.5,0.5,5,4,278,7,NA
fcp-trial,328,1336141,0.0-289.0-0.0,voc_e2,11762,"[{""event"":""fullscreenenter"",""trial"":1,""time"":5193}]",NA,NA,NA,NA,NA,2,#FA92F8,#1CD855,0,10,0,38,1,1257.300000011921,37,1,459.9000000357628,0,0,experiment,NA,NA,0,0.1,0.9,1,0,279,7,NA
fcp-trial,329,1339771,0.0-290.0-0.0,voc_e2,11762,"[{""event"":""fullscreenenter"",""trial"":1,""time"":5193}]",NA,NA,NA,NA,NA,6,#741CD8,#D8271C,10,0,1,40,0,1284.8999999761581,39,0,836.5,0,0,experiment,NA,NA,1,0.7,0.3,2,3,280,7,NA
fcp-trial,330,1342995,0.0-291.0-0.0,voc_e2,11762,"[{""event"":""fullscreenenter"",""trial"":1,""time"":5193}]",NA,NA,NA,NA,NA,5,#741CD8,#D8271C,0,0,1,40,0,1390.6000000238419,37,1,323.30000001192093,0,1,experiment,NA,NA,1,0.7,0.3,2,3,281,7,NA
fcp-trial,331,1347034,0.0-292.0-0.0,voc_e2,11762,"[{""event"":""fullscreenenter"",""trial"":1,""time"":5193}]",NA,NA,NA,NA,NA,4,#1CD855,#FA92F8,10,0,1,38,1,2034.1000000238419,37,1,494.60000002384186,10,1,experiment,NA,NA,0,0.9,0.1,0,1,282,7,NA
fcp-trial,332,1350615,0.0-293.0-0.0,voc_e2,11762,"[{""event"":""fullscreenenter"",""trial"":1,""time"":5193}]",NA,NA,NA,NA,NA,6,#3386FF,#D89F1C,0,10,0,40,0,1215,37,1,854.3000000119209,0,0,experiment,NA,NA,2,0.5,0.5,5,4,283,7,NA
fcp-trial,333,1354296,0.0-294.0-0.0,voc_e2,11762,"[{""event"":""fullscreenenter"",""trial"":1,""time"":5193}]",NA,NA,NA,NA,NA,0,#3386FF,#D89F1C,0,0,0,40,0,1566.199999988079,39,0,604.3999999761581,0,1,experiment,NA,NA,2,0.5,0.5,5,4,284,7,NA
fcp-trial,334,1357883,0.0-295.0-0.0,voc_e2,11762,"[{""event"":""fullscreenenter"",""trial"":1,""time"":5193}]",NA,NA,NA,NA,NA,6,#1CD855,#FA92F8,10,0,1,40,0,1583.3999999761581,37,1,493.60000002384186,10,1,experiment,NA,NA,0,0.9,0.1,0,1,285,7,NA
fcp-trial,335,1362498,0.0-296.0-0.0,voc_e2,11762,"[{""event"":""fullscreenenter"",""trial"":1,""time"":5193}]",NA,NA,NA,NA,NA,4,#D8271C,#741CD8,0,0,0,40,0,2389.400000035763,37,1,714.6000000238419,0,0,experiment,NA,NA,1,0.3,0.7,3,2,286,7,NA
fcp-trial,336,1365838,0.0-297.0-0.0,voc_e2,11762,"[{""event"":""fullscreenenter"",""trial"":1,""time"":5193}]",NA,NA,NA,NA,NA,3,#FA92F8,#1CD855,0,0,0,38,1,1336.300000011921,39,0,491.89999997615814,0,1,experiment,NA,NA,0,0.1,0.9,1,0,287,7,NA
fcp-trial,337,1369315,0.0-298.0-0.0,voc_e2,11762,"[{""event"":""fullscreenenter"",""trial"":1,""time"":5193}]",NA,NA,NA,NA,NA,1,#3386FF,#D89F1C,0,10,0,40,0,1515.4000000357628,37,1,453.89999997615814,0,0,experiment,NA,NA,2,0.5,0.5,5,4,288,7,NA
fcp-trial,338,1374422,0.0-299.0-0.0,voc_e2,11762,"[{""event"":""fullscreenenter"",""trial"":1,""time"":5193}]",NA,NA,NA,NA,NA,0,#1CD855,#FA92F8,10,0,1,38,1,2884.199999988079,37,1,712.1999999880791,10,1,experiment,NA,NA,0,0.9,0.1,0,1,289,7,NA
fcp-trial,339,1377962,0.0-300.0-0.0,voc_e2,11762,"[{""event"":""fullscreenenter"",""trial"":1,""time"":5193}]",NA,NA,NA,NA,NA,2,#D8271C,#741CD8,0,10,0,38,1,1483,39,0,544.8999999761581,10,1,experiment,NA,NA,1,0.3,0.7,3,2,290,7,NA
fcp-trial,340,1380953,0.0-301.0-0.0,voc_e2,11762,"[{""event"":""fullscreenenter"",""trial"":1,""time"":5193}]",NA,NA,NA,NA,NA,4,#3386FF,#D89F1C,0,10,0,38,1,1032.6000000238419,37,1,447.699999988079,0,0,experiment,NA,NA,2,0.5,0.5,5,4,291,7,NA
fcp-trial,341,1383806,0.0-302.0-0.0,voc_e2,11762,"[{""event"":""fullscreenenter"",""trial"":1,""time"":5193}]",NA,NA,NA,NA,NA,2,#D89F1C,#3386FF,0,10,1,40,0,891.3999999761581,37,1,453.4000000357628,0,1,experiment,NA,NA,2,0.5,0.5,4,5,292,7,NA
fcp-trial,342,1387321,0.0-303.0-0.0,voc_e2,11762,"[{""event"":""fullscreenenter"",""trial"":1,""time"":5193}]",NA,NA,NA,NA,NA,1,#1CD855,#FA92F8,10,0,1,38,1,1128.800000011921,37,1,879.3000000119209,10,1,experiment,NA,NA,0,0.9,0.1,0,1,293,7,NA
fcp-trial,343,1390191,0.0-304.0-0.0,voc_e2,11762,"[{""event"":""fullscreenenter"",""trial"":1,""time"":5193}]",NA,NA,NA,NA,NA,1,#741CD8,#D8271C,10,10,1,38,1,970.5,37,1,390.800000011921,10,1,experiment,NA,NA,1,0.7,0.3,2,3,294,7,NA
fcp-trial,344,1393553,0.0-305.0-0.0,voc_e2,11762,"[{""event"":""fullscreenenter"",""trial"":1,""time"":5193}]",NA,NA,NA,NA,NA,4,#D89F1C,#3386FF,10,0,1,38,1,1271.800000011921,39,0,581.2999999523163,0,0,experiment,NA,NA,2,0.5,0.5,4,5,295,7,NA
fcp-trial,345,1396629,0.0-306.0-0.0,voc_e2,11762,"[{""event"":""fullscreenenter"",""trial"":1,""time"":5193}]",NA,NA,NA,NA,NA,2,#FA92F8,#1CD855,0,10,0,38,1,1050,39,0,518,10,1,experiment,NA,NA,0,0.1,0.9,1,0,296,7,NA
fcp-trial,346,1400404,0.0-307.0-0.0,voc_e2,11762,"[{""event"":""fullscreenenter"",""trial"":1,""time"":5193}]",NA,NA,NA,NA,NA,1,#3386FF,#D89F1C,10,10,0,38,1,1447.5,37,1,816.0999999642372,10,0,experiment,NA,NA,2,0.5,0.5,5,4,297,7,NA
fcp-trial,347,1403141,0.0-308.0-0.0,voc_e2,11762,"[{""event"":""fullscreenenter"",""trial"":1,""time"":5193}]",NA,NA,NA,NA,NA,4,#FA92F8,#1CD855,10,10,0,38,1,967.3000000119209,39,0,261.89999997615814,10,1,experiment,NA,NA,0,0.1,0.9,1,0,298,7,NA
fcp-trial,348,1406143,0.0-309.0-0.0,voc_e2,11762,"[{""event"":""fullscreenenter"",""trial"":1,""time"":5193}]",NA,NA,NA,NA,NA,5,#D8271C,#741CD8,0,0,0,38,1,1219.699999988079,39,0,273.0999999642372,0,1,experiment,NA,NA,1,0.3,0.7,3,2,299,7,NA
fcp-trial,349,1409732,0.0-310.0-0.0,voc_e2,11762,"[{""event"":""fullscreenenter"",""trial"":1,""time"":5193}]",NA,NA,NA,NA,NA,0,#741CD8,#D8271C,10,0,1,38,1,1476.300000011921,37,1,603.4000000357628,10,1,experiment,NA,NA,1,0.7,0.3,2,3,300,7,NA
fcp-trial,350,1413267,0.0-311.0-0.0,voc_e2,11762,"[{""event"":""fullscreenenter"",""trial"":1,""time"":5193}]",NA,NA,NA,NA,NA,5,#1CD855,#FA92F8,10,0,1,40,0,953,39,0,1070.199999988079,0,0,experiment,NA,NA,0,0.9,0.1,0,1,301,7,NA
fcp-trial,351,1416385,0.0-312.0-0.0,voc_e2,11762,"[{""event"":""fullscreenenter"",""trial"":1,""time"":5193}]",NA,NA,NA,NA,NA,6,#3386FF,#D89F1C,10,0,0,40,0,1048.3999999761581,39,0,563.6999999880791,0,1,experiment,NA,NA,2,0.5,0.5,5,4,302,7,NA
fcp-trial,352,1419972,0.0-313.0-0.0,voc_e2,11762,"[{""event"":""fullscreenenter"",""trial"":1,""time"":5193}]",NA,NA,NA,NA,NA,0,#1CD855,#FA92F8,10,0,1,38,1,1705.5,37,1,371,10,1,experiment,NA,NA,0,0.9,0.1,0,1,303,7,NA
fcp-trial,353,1423153,0.0-314.0-0.0,voc_e2,11762,"[{""event"":""fullscreenenter"",""trial"":1,""time"":5193}]",NA,NA,NA,NA,NA,1,#D8271C,#741CD8,0,0,0,38,1,1125.8999999761581,39,0,547.4000000357628,0,1,experiment,NA,NA,1,0.3,0.7,3,2,304,7,NA
fcp-trial,354,1426822,0.0-315.0-0.0,voc_e2,11762,"[{""event"":""fullscreenenter"",""trial"":1,""time"":5193}]",NA,NA,NA,NA,NA,5,#D89F1C,#3386FF,10,0,1,40,0,1617,39,0,546.5,0,0,experiment,NA,NA,2,0.5,0.5,4,5,305,7,NA
fcp-trial,355,1430075,0.0-316.0-0.0,voc_e2,11762,"[{""event"":""fullscreenenter"",""trial"":1,""time"":5193}]",NA,NA,NA,NA,NA,1,#1CD855,#FA92F8,0,0,1,40,0,1085.6000000238419,37,1,657.3000000119209,0,1,experiment,NA,NA,0,0.9,0.1,0,1,306,7,NA
fcp-trial,356,1435502,0.0-317.0-0.0,voc_e2,11762,"[{""event"":""fullscreenenter"",""trial"":1,""time"":5193}]",NA,NA,NA,NA,NA,2,#D89F1C,#3386FF,10,10,1,40,0,3301.300000011921,37,1,611.5,10,1,experiment,NA,NA,2,0.5,0.5,4,5,307,7,NA
fcp-trial,357,1439929,0.0-318.0-0.0,voc_e2,11762,"[{""event"":""fullscreenenter"",""trial"":1,""time"":5193}]",NA,NA,NA,NA,NA,3,#FA92F8,#1CD855,0,10,0,38,1,2334.300000011921,39,0,585.1000000238419,10,1,experiment,NA,NA,0,0.1,0.9,1,0,308,7,NA
fcp-trial,358,1443224,0.0-319.0-0.0,voc_e2,11762,"[{""event"":""fullscreenenter"",""trial"":1,""time"":5193}]",NA,NA,NA,NA,NA,3,#D8271C,#741CD8,0,10,0,38,1,1331.4000000357628,39,0,451.5,10,1,experiment,NA,NA,1,0.3,0.7,3,2,309,7,NA
fcp-trial,359,1446652,0.0-320.0-0.0,voc_e2,11762,"[{""event"":""fullscreenenter"",""trial"":1,""time"":5193}]",NA,NA,NA,NA,NA,3,#3386FF,#D89F1C,10,10,0,40,0,1438.9000000357628,39,0,481.89999997615814,10,1,experiment,NA,NA,2,0.5,0.5,5,4,310,7,NA
fcp-trial,360,1449989,0.0-321.0-0.0,voc_e2,11762,"[{""event"":""fullscreenenter"",""trial"":1,""time"":5193}]",NA,NA,NA,NA,NA,6,#FA92F8,#1CD855,0,10,0,40,0,1401.5,39,0,428.300000011921,10,1,experiment,NA,NA,0,0.1,0.9,1,0,311,7,NA
fcp-trial,361,1455027,0.0-322.0-0.0,voc_e2,11762,"[{""event"":""fullscreenenter"",""trial"":1,""time"":5193}]",NA,NA,NA,NA,NA,6,#D8271C,#741CD8,10,10,0,40,0,2866,37,1,661.1000000238419,10,0,experiment,NA,NA,1,0.3,0.7,3,2,312,7,NA
fcp-trial,362,1459283,0.0-323.0-0.0,voc_e2,11762,"[{""event"":""fullscreenenter"",""trial"":1,""time"":5193}]",NA,NA,NA,NA,NA,0,#D89F1C,#3386FF,10,10,1,40,0,2144.699999988079,37,1,602.6999999880791,10,1,experiment,NA,NA,2,0.5,0.5,4,5,313,7,NA
fcp-trial,363,1462519,0.0-324.0-0.0,voc_e2,11762,"[{""event"":""fullscreenenter"",""trial"":1,""time"":5193}]",NA,NA,NA,NA,NA,4,#D8271C,#741CD8,0,10,0,40,0,1372.300000011921,39,0,354.4000000357628,10,1,experiment,NA,NA,1,0.3,0.7,3,2,314,7,NA
fcp-trial,364,1465772,0.0-325.0-0.0,voc_e2,11762,"[{""event"":""fullscreenenter"",""trial"":1,""time"":5193}]",NA,NA,NA,NA,NA,2,#741CD8,#D8271C,0,0,1,38,1,1271.199999988079,37,1,473.800000011921,0,1,experiment,NA,NA,1,0.7,0.3,2,3,315,7,NA
audio-instructions,365,1475387,0.0-326.0,voc_e2,11762,"[{""event"":""fullscreenenter"",""trial"":1,""time"":5193}]",NA,2120.699999988079,static/audio/finished.wav,NA,0,NA,NA,NA,NA,NA,NA,NA,NA,NA,NA,NA,NA,NA,NA,NA,NA,NA,NA,NA,NA,NA,NA,NA,NA,NA
audio-instructions,366,1487224,0.0-327.0-0.0,voc_e2,11762,"[{""event"":""fullscreenenter"",""trial"":1,""time"":5193}]",NA,997.8000000119208,static/audio/explicit1.wav,NA,0,NA,NA,NA,NA,NA,NA,NA,NA,NA,NA,NA,NA,NA,NA,NA,NA,NA,NA,NA,NA,NA,NA,NA,NA,NA
audio-instructions,367,1495701,0.0-327.0-1.0,voc_e2,11762,"[{""event"":""fullscreenenter"",""trial"":1,""time"":5193}]",NA,875.8999999761581,static/audio/explicit2.wav,NA,0,NA,NA,NA,NA,NA,NA,NA,NA,NA,NA,NA,NA,NA,NA,NA,NA,NA,NA,NA,NA,NA,NA,NA,NA,NA
image-slider-response,368,1506710,0.0-328.0,voc_e2,11762,"[{""event"":""fullscreenenter"",""trial"":1,""time"":5193}]",NA,11006,static/img/machines/machine4.png,NA,NA,NA,NA,NA,NA,NA,NA,NA,NA,NA,NA,NA,NA,NA,NA,explicit,NA,NA,NA,NA,NA,NA,NA,NA,NA,4
image-slider-response,369,1513172,0.0-329.0,voc_e2,11762,"[{""event"":""fullscreenenter"",""trial"":1,""time"":5193}]",NA,6458.199999988079,static/img/machines/machine5.png,NA,NA,NA,NA,NA,NA,NA,NA,NA,NA,NA,NA,NA,NA,NA,NA,explicit,NA,NA,NA,NA,NA,NA,NA,NA,NA,5
image-slider-response,370,1516954,0.0-330.0,voc_e2,11762,"[{""event"":""fullscreenenter"",""trial"":1,""time"":5193}]",NA,3779.699999988079,static/img/machines/machine2.png,NA,NA,NA,NA,NA,NA,NA,NA,NA,NA,NA,NA,NA,NA,NA,NA,explicit,NA,NA,NA,NA,NA,NA,NA,NA,NA,7
image-slider-response,371,1519286,0.0-331.0,voc_e2,11762,"[{""event"":""fullscreenenter"",""trial"":1,""time"":5193}]",NA,2329.399999976158,static/img/machines/machine6.png,NA,NA,NA,NA,NA,NA,NA,NA,NA,NA,NA,NA,NA,NA,NA,NA,explicit,NA,NA,NA,NA,NA,NA,NA,NA,NA,7
image-slider-response,372,1522469,0.0-332.0,voc_e2,11762,"[{""event"":""fullscreenenter"",""trial"":1,""time"":5193}]",NA,3180.100000023842,static/img/machines/machine3.png,NA,NA,NA,NA,NA,NA,NA,NA,NA,NA,NA,NA,NA,NA,NA,NA,explicit,NA,NA,NA,NA,NA,NA,NA,NA,NA,4
image-slider-response,373,1526961,0.0-333.0,voc_e2,11762,"[{""event"":""fullscreenenter"",""trial"":1,""time"":5193}]",NA,4488.899999976158,static/img/machines/machine1.png,NA,NA,NA,NA,NA,NA,NA,NA,NA,NA,NA,NA,NA,NA,NA,NA,explicit,NA,NA,NA,NA,NA,NA,NA,NA,NA,3
