trial_type,trial_index,time_elapsed,internal_node_id,task_version,subject_id,interactions,success,rt,stimulus,key_press,button_pressed,offer,arcade_color_L,arcade_color_R,arcade_outcome_L,arcade_outcome_R,correct,stage_1_key,stage_1_choice,stage_1_rt,stage_2_key,stage_2_choice,stage_2_rt,stage_3_outcome,accuracy,phase,responses,num_errors,context,reward_prob_L,reward_prob_R,arcade_id_L,arcade_id_R,trial,block,response
pavlovia,0,40,0.0-0.0,voc_e2,12196,[],NA,NA,NA,NA,NA,NA,NA,NA,NA,NA,NA,NA,NA,NA,NA,NA,NA,NA,NA,NA,NA,NA,NA,NA,NA,NA,NA,NA,NA,NA
fullscreen,1,17630,0.0-1.0,voc_e2,12196,"[{""event"":""fullscreenenter"",""trial"":1,""time"":16714}]",TRUE,NA,NA,NA,NA,NA,NA,NA,NA,NA,NA,NA,NA,NA,NA,NA,NA,NA,NA,NA,NA,NA,NA,NA,NA,NA,NA,NA,NA,NA
audio-keyboard-response,2,19311,0.0-2.0,voc_e2,12196,"[{""event"":""fullscreenenter"",""trial"":1,""time"":16714}]",NA,1549,static/audio/beep_loop.wav,32,NA,NA,NA,NA,NA,NA,NA,NA,NA,NA,NA,NA,NA,NA,NA,NA,NA,NA,NA,NA,NA,NA,NA,NA,NA,NA
audio-test,3,20751,0.0-3.0,voc_e2,12196,"[{""event"":""fullscreenenter"",""trial"":1,""time"":16714}]",NA,NA,static/audio/turtle.wav,NA,3,NA,NA,NA,NA,NA,NA,NA,NA,NA,NA,NA,NA,NA,NA,NA,NA,NA,NA,NA,NA,NA,NA,NA,NA,NA
audio-test,4,23024,0.0-4.0,voc_e2,12196,"[{""event"":""fullscreenenter"",""trial"":1,""time"":16714}]",NA,NA,static/audio/shark.wav,NA,2,NA,NA,NA,NA,NA,NA,NA,NA,NA,NA,NA,NA,NA,NA,NA,NA,NA,NA,NA,NA,NA,NA,NA,NA,NA
audio-instructions,5,29964,0.0-5.0-0.0,voc_e2,12196,"[{""event"":""fullscreenenter"",""trial"":1,""time"":16714}]",NA,1157.199999988079,static/audio/instructions1.wav,NA,0,NA,NA,NA,NA,NA,NA,NA,NA,NA,NA,NA,NA,NA,NA,NA,NA,NA,NA,NA,NA,NA,NA,NA,NA,NA
audio-instructions,6,39894,0.0-5.0-1.0,voc_e2,12196,"[{""event"":""fullscreenenter"",""trial"":1,""time"":16714}]",NA,3179.2000000178814,static/audio/instructions2.wav,NA,0,NA,NA,NA,NA,NA,NA,NA,NA,NA,NA,NA,NA,NA,NA,NA,NA,NA,NA,NA,NA,NA,NA,NA,NA,NA
audio-instructions,7,46788,0.0-5.0-2.0,voc_e2,12196,"[{""event"":""fullscreenenter"",""trial"":1,""time"":16714}]",NA,1082.5,static/audio/instructions3.wav,NA,0,NA,NA,NA,NA,NA,NA,NA,NA,NA,NA,NA,NA,NA,NA,NA,NA,NA,NA,NA,NA,NA,NA,NA,NA,NA
audio-instructions,8,61670,0.0-5.0-3.0,voc_e2,12196,"[{""event"":""fullscreenenter"",""trial"":1,""time"":16714}]",NA,1655.5999999940395,static/audio/instructions4.wav,NA,0,NA,NA,NA,NA,NA,NA,NA,NA,NA,NA,NA,NA,NA,NA,NA,NA,NA,NA,NA,NA,NA,NA,NA,NA,NA
audio-instructions,9,91220,0.0-5.0-4.0,voc_e2,12196,"[{""event"":""fullscreenenter"",""trial"":1,""time"":16714}]",NA,20155,static/audio/instructions5.wav,NA,0,NA,NA,NA,NA,NA,NA,NA,NA,NA,NA,NA,NA,NA,NA,NA,NA,NA,NA,NA,NA,NA,NA,NA,NA,NA
fcp-practice,10,94054,0.0-5.0-5.0-0.0,voc_e2,12196,"[{""event"":""fullscreenenter"",""trial"":1,""time"":16714}]",NA,NA,NA,NA,NA,NA,#EDC948,#46d3c8,10,0,1,null,null,null,37,1,1294.4000000059605,10,1,practice,NA,NA,NA,NA,NA,NA,NA,NA,NA,NA
fcp-practice,11,96014,0.0-5.0-5.0-1.0,voc_e2,12196,"[{""event"":""fullscreenenter"",""trial"":1,""time"":16714}]",NA,NA,NA,NA,NA,NA,#EDC948,#46d3c8,10,0,1,null,null,null,37,1,441.5,10,1,practice,NA,NA,NA,NA,NA,NA,NA,NA,NA,NA
fcp-practice,12,97976,0.0-5.0-5.0-2.0,voc_e2,12196,"[{""event"":""fullscreenenter"",""trial"":1,""time"":16714}]",NA,NA,NA,NA,NA,NA,#EDC948,#46d3c8,0,10,1,null,null,null,37,1,441.800000011921,0,1,practice,NA,NA,NA,NA,NA,NA,NA,NA,NA,NA
fcp-practice,13,99634,0.0-5.0-5.0-3.0,voc_e2,12196,"[{""event"":""fullscreenenter"",""trial"":1,""time"":16714}]",NA,NA,NA,NA,NA,NA,#EDC948,#46d3c8,10,0,1,null,null,null,37,1,138.30000001192093,10,1,practice,NA,NA,NA,NA,NA,NA,NA,NA,NA,NA
fcp-practice,14,101490,0.0-5.0-5.0-4.0,voc_e2,12196,"[{""event"":""fullscreenenter"",""trial"":1,""time"":16714}]",NA,NA,NA,NA,NA,NA,#EDC948,#46d3c8,10,0,1,null,null,null,37,1,339.5,10,1,practice,NA,NA,NA,NA,NA,NA,NA,NA,NA,NA
audio-instructions,15,120404,0.0-5.0-6.0,voc_e2,12196,"[{""event"":""fullscreenenter"",""trial"":1,""time"":16714}]",NA,903.3000000119208,static/audio/instructions6.wav,NA,0,NA,NA,NA,NA,NA,NA,NA,NA,NA,NA,NA,NA,NA,NA,NA,NA,NA,NA,NA,NA,NA,NA,NA,NA,NA
audio-instructions,16,140865,0.0-5.0-7.0,voc_e2,12196,"[{""event"":""fullscreenenter"",""trial"":1,""time"":16714}]",NA,1266.4000000059605,static/audio/instructions7.wav,NA,0,NA,NA,NA,NA,NA,NA,NA,NA,NA,NA,NA,NA,NA,NA,NA,NA,NA,NA,NA,NA,NA,NA,NA,NA,NA
audio-instructions,17,153116,0.0-5.0-8.0,voc_e2,12196,"[{""event"":""fullscreenenter"",""trial"":1,""time"":16714}]",NA,2767.9000000059605,static/audio/instructions8.wav,NA,0,NA,NA,NA,NA,NA,NA,NA,NA,NA,NA,NA,NA,NA,NA,NA,NA,NA,NA,NA,NA,NA,NA,NA,NA,NA
fcp-comprehension,18,164648,0.0-5.0-9.0,voc_e2,12196,"[{""event"":""fullscreenenter"",""trial"":1,""time"":16714}]",NA,11528.5,NA,NA,NA,NA,NA,NA,NA,NA,NA,NA,NA,NA,NA,NA,NA,NA,NA,NA,"true,true",0,NA,NA,NA,NA,NA,NA,NA,NA
audio-instructions,19,173767,0.0-6.0-0.0,voc_e2,12196,"[{""event"":""fullscreenenter"",""trial"":1,""time"":16714}]",NA,3567.9000000059605,static/audio/instructions9.wav,NA,0,NA,NA,NA,NA,NA,NA,NA,NA,NA,NA,NA,NA,NA,NA,NA,NA,NA,NA,NA,NA,NA,NA,NA,NA,NA
audio-instructions,20,189765,0.0-6.0-1.0,voc_e2,12196,"[{""event"":""fullscreenenter"",""trial"":1,""time"":16714}]",NA,3876.2999999821186,static/audio/instructions10.wav,NA,0,NA,NA,NA,NA,NA,NA,NA,NA,NA,NA,NA,NA,NA,NA,NA,NA,NA,NA,NA,NA,NA,NA,NA,NA,NA
fcp-trial,21,195338,0.0-6.0-2.0,voc_e2,12196,"[{""event"":""fullscreenenter"",""trial"":1,""time"":16714}]",NA,NA,NA,NA,NA,0,#EDC948,#46d3c8,10,10,1,38,1,2565,37,1,1417.7999999821186,10,1,practice,NA,NA,NA,NA,NA,NA,NA,NA,NA,NA
audio-instructions,22,207218,0.0-6.0-3.0,voc_e2,12196,"[{""event"":""fullscreenenter"",""trial"":1,""time"":16714}]",NA,868.8999999761581,static/audio/instructions11.wav,NA,0,NA,NA,NA,NA,NA,NA,NA,NA,NA,NA,NA,NA,NA,NA,NA,NA,NA,NA,NA,NA,NA,NA,NA,NA,NA
fcp-trial,23,210310,0.0-6.0-4.0,voc_e2,12196,"[{""event"":""fullscreenenter"",""trial"":1,""time"":16714}]",NA,NA,NA,NA,NA,6,#EDC948,#46d3c8,10,10,1,40,0,818.1000000238419,37,1,737.3000000119209,10,1,practice,NA,NA,NA,NA,NA,NA,NA,NA,NA,NA
audio-instructions,24,230645,0.0-6.0-5.0,voc_e2,12196,"[{""event"":""fullscreenenter"",""trial"":1,""time"":16714}]",NA,1646.0999999940395,static/audio/instructions12.wav,NA,0,NA,NA,NA,NA,NA,NA,NA,NA,NA,NA,NA,NA,NA,NA,NA,NA,NA,NA,NA,NA,NA,NA,NA,NA,NA
audio-instructions,25,238884,0.0-6.0-6.0,voc_e2,12196,"[{""event"":""fullscreenenter"",""trial"":1,""time"":16714}]",NA,635.6999999880791,static/audio/instructions13.wav,NA,0,NA,NA,NA,NA,NA,NA,NA,NA,NA,NA,NA,NA,NA,NA,NA,NA,NA,NA,NA,NA,NA,NA,NA,NA,NA
audio-instructions,26,247978,0.0-6.0-7.0,voc_e2,12196,"[{""event"":""fullscreenenter"",""trial"":1,""time"":16714}]",NA,640,static/audio/instructions14.wav,NA,0,NA,NA,NA,NA,NA,NA,NA,NA,NA,NA,NA,NA,NA,NA,NA,NA,NA,NA,NA,NA,NA,NA,NA,NA,NA
audio-instructions,27,256219,0.0-7.0-0.0,voc_e2,12196,"[{""event"":""fullscreenenter"",""trial"":1,""time"":16714}]",NA,1320.9000000059605,static/audio/instructions15.wav,NA,0,NA,NA,NA,NA,NA,NA,NA,NA,NA,NA,NA,NA,NA,NA,NA,NA,NA,NA,NA,NA,NA,NA,NA,NA,NA
audio-instructions,28,269716,0.0-7.0-1.0,voc_e2,12196,"[{""event"":""fullscreenenter"",""trial"":1,""time"":16714}]",NA,6668.199999988079,static/audio/instructions16.wav,NA,0,NA,NA,NA,NA,NA,NA,NA,NA,NA,NA,NA,NA,NA,NA,NA,NA,NA,NA,NA,NA,NA,NA,NA,NA,NA
audio-instructions,29,278294,0.0-7.0-2.0,voc_e2,12196,"[{""event"":""fullscreenenter"",""trial"":1,""time"":16714}]",NA,895,static/audio/instructions17.wav,NA,0,NA,NA,NA,NA,NA,NA,NA,NA,NA,NA,NA,NA,NA,NA,NA,NA,NA,NA,NA,NA,NA,NA,NA,NA,NA
audio-instructions,30,287137,0.0-7.0-3.0,voc_e2,12196,"[{""event"":""fullscreenenter"",""trial"":1,""time"":16714}]",NA,1068.2000000178814,static/audio/instructions18.wav,NA,0,NA,NA,NA,NA,NA,NA,NA,NA,NA,NA,NA,NA,NA,NA,NA,NA,NA,NA,NA,NA,NA,NA,NA,NA,NA
audio-instructions,31,294399,0.0-7.0-4.0,voc_e2,12196,"[{""event"":""fullscreenenter"",""trial"":1,""time"":16714}]",NA,520.6999999880791,static/audio/instructions19.wav,NA,0,NA,NA,NA,NA,NA,NA,NA,NA,NA,NA,NA,NA,NA,NA,NA,NA,NA,NA,NA,NA,NA,NA,NA,NA,NA
fcp-comprehension,32,302590,0.0-7.0-5.0,voc_e2,12196,"[{""event"":""fullscreenenter"",""trial"":1,""time"":16714}]",NA,8185.5,NA,NA,NA,NA,NA,NA,NA,NA,NA,NA,NA,NA,NA,NA,NA,NA,NA,NA,"false,false,false,true",0,NA,NA,NA,NA,NA,NA,NA,NA
audio-instructions,33,312854,0.0-8.0,voc_e2,12196,"[{""event"":""fullscreenenter"",""trial"":1,""time"":16714}]",NA,1045.899999976158,static/audio/ready.wav,NA,0,NA,NA,NA,NA,NA,NA,NA,NA,NA,NA,NA,NA,NA,NA,NA,NA,NA,NA,NA,NA,NA,NA,NA,NA,NA
fcp-trial,34,317837,0.0-9.0-0.0,voc_e2,12196,"[{""event"":""fullscreenenter"",""trial"":1,""time"":16714}]",NA,NA,NA,NA,NA,3,#1CD855,#FA92F8,0,10,0,40,0,2648.800000011921,37,1,796.4000000059605,0,0,experiment,NA,NA,1,0.3,0.7,3,2,1,1,NA
fcp-trial,35,321555,0.0-10.0-0.0,voc_e2,12196,"[{""event"":""fullscreenenter"",""trial"":1,""time"":16714}]",NA,NA,NA,NA,NA,2,#1CD855,#FA92F8,0,10,0,40,0,1534.2999999821186,37,1,654.3999999761581,0,0,experiment,NA,NA,1,0.3,0.7,3,2,2,1,NA
fcp-trial,36,324941,0.0-11.0-0.0,voc_e2,12196,"[{""event"":""fullscreenenter"",""trial"":1,""time"":16714}]",NA,NA,NA,NA,NA,3,#3386FF,#D89F1C,0,10,0,40,0,1176.699999988079,39,0,677.5,10,1,experiment,NA,NA,0,0.1,0.9,1,0,3,1,NA
fcp-trial,37,328510,0.0-12.0-0.0,voc_e2,12196,"[{""event"":""fullscreenenter"",""trial"":1,""time"":16714}]",NA,NA,NA,NA,NA,0,#FA92F8,#1CD855,0,0,1,38,1,1222.5,37,1,814.5,0,1,experiment,NA,NA,1,0.7,0.3,2,3,4,1,NA
fcp-trial,38,331596,0.0-13.0-0.0,voc_e2,12196,"[{""event"":""fullscreenenter"",""trial"":1,""time"":16714}]",NA,NA,NA,NA,NA,6,#D8271C,#741CD8,10,10,0,40,0,891,37,1,665.5,10,0,experiment,NA,NA,2,0.5,0.5,5,4,5,1,NA
fcp-trial,39,334468,0.0-14.0-0.0,voc_e2,12196,"[{""event"":""fullscreenenter"",""trial"":1,""time"":16714}]",NA,NA,NA,NA,NA,5,#D8271C,#741CD8,10,0,0,40,0,943.2000000178814,39,0,388.2999999821186,0,1,experiment,NA,NA,2,0.5,0.5,5,4,6,1,NA
fcp-trial,40,337650,0.0-15.0-0.0,voc_e2,12196,"[{""event"":""fullscreenenter"",""trial"":1,""time"":16714}]",NA,NA,NA,NA,NA,6,#3386FF,#D89F1C,0,10,0,40,0,1151.300000011921,39,0,492.09999999403954,10,1,experiment,NA,NA,0,0.1,0.9,1,0,7,1,NA
fcp-trial,41,340619,0.0-16.0-0.0,voc_e2,12196,"[{""event"":""fullscreenenter"",""trial"":1,""time"":16714}]",NA,NA,NA,NA,NA,5,#3386FF,#D89F1C,0,10,0,40,0,921.3000000119209,39,0,510,10,1,experiment,NA,NA,0,0.1,0.9,1,0,8,1,NA
fcp-trial,42,343402,0.0-17.0-0.0,voc_e2,12196,"[{""event"":""fullscreenenter"",""trial"":1,""time"":16714}]",NA,NA,NA,NA,NA,6,#FA92F8,#1CD855,10,0,1,40,0,736,37,1,526.2000000178814,10,1,experiment,NA,NA,1,0.7,0.3,2,3,9,1,NA
fcp-trial,43,346264,0.0-18.0-0.0,voc_e2,12196,"[{""event"":""fullscreenenter"",""trial"":1,""time"":16714}]",NA,NA,NA,NA,NA,4,#D8271C,#741CD8,0,0,0,40,0,576.1000000238419,37,1,758.8000000119209,0,0,experiment,NA,NA,2,0.5,0.5,5,4,10,1,NA
fcp-trial,44,348952,0.0-19.0-0.0,voc_e2,12196,"[{""event"":""fullscreenenter"",""trial"":1,""time"":16714}]",NA,NA,NA,NA,NA,0,#741CD8,#D8271C,10,0,1,40,0,501.7000000178814,39,0,669,0,0,experiment,NA,NA,2,0.5,0.5,4,5,11,1,NA
fcp-trial,45,351645,0.0-20.0-0.0,voc_e2,12196,"[{""event"":""fullscreenenter"",""trial"":1,""time"":16714}]",NA,NA,NA,NA,NA,1,#1CD855,#FA92F8,0,10,0,40,0,731,37,1,442.09999999403954,0,0,experiment,NA,NA,1,0.3,0.7,3,2,12,1,NA
fcp-trial,46,354844,0.0-21.0-0.0,voc_e2,12196,"[{""event"":""fullscreenenter"",""trial"":1,""time"":16714}]",NA,NA,NA,NA,NA,0,#D89F1C,#3386FF,10,0,1,38,1,871.3000000119209,39,0,810.3000000119209,0,0,experiment,NA,NA,0,0.9,0.1,0,1,13,1,NA
fcp-trial,47,357496,0.0-22.0-0.0,voc_e2,12196,"[{""event"":""fullscreenenter"",""trial"":1,""time"":16714}]",NA,NA,NA,NA,NA,5,#FA92F8,#1CD855,10,0,1,40,0,704.3999999761581,37,1,427.2999999821186,10,1,experiment,NA,NA,1,0.7,0.3,2,3,14,1,NA
fcp-trial,48,360084,0.0-23.0-0.0,voc_e2,12196,"[{""event"":""fullscreenenter"",""trial"":1,""time"":16714}]",NA,NA,NA,NA,NA,3,#741CD8,#D8271C,0,10,1,40,0,598.5,37,1,467.2000000178814,0,1,experiment,NA,NA,2,0.5,0.5,4,5,15,1,NA
fcp-trial,49,362756,0.0-24.0-0.0,voc_e2,12196,"[{""event"":""fullscreenenter"",""trial"":1,""time"":16714}]",NA,NA,NA,NA,NA,4,#3386FF,#D89F1C,0,10,0,40,0,714.2999999821186,39,0,439.90000000596046,10,1,experiment,NA,NA,0,0.1,0.9,1,0,16,1,NA
fcp-trial,50,365263,0.0-25.0-0.0,voc_e2,12196,"[{""event"":""fullscreenenter"",""trial"":1,""time"":16714}]",NA,NA,NA,NA,NA,2,#D89F1C,#3386FF,10,0,1,40,0,569.6000000238419,37,1,419.199999988079,10,1,experiment,NA,NA,0,0.9,0.1,0,1,17,1,NA
fcp-trial,51,367815,0.0-26.0-0.0,voc_e2,12196,"[{""event"":""fullscreenenter"",""trial"":1,""time"":16714}]",NA,NA,NA,NA,NA,4,#1CD855,#FA92F8,0,10,0,40,0,533,39,0,498.800000011921,10,1,experiment,NA,NA,1,0.3,0.7,3,2,18,1,NA
fcp-trial,52,370302,0.0-27.0-0.0,voc_e2,12196,"[{""event"":""fullscreenenter"",""trial"":1,""time"":16714}]",NA,NA,NA,NA,NA,2,#741CD8,#D8271C,0,0,1,40,0,506.19999998807907,39,0,457.2999999821186,0,0,experiment,NA,NA,2,0.5,0.5,4,5,19,1,NA
fcp-trial,53,373078,0.0-28.0-0.0,voc_e2,12196,"[{""event"":""fullscreenenter"",""trial"":1,""time"":16714}]",NA,NA,NA,NA,NA,1,#D89F1C,#3386FF,10,0,1,38,1,810.4000000059605,37,1,440.59999999403954,10,1,experiment,NA,NA,0,0.9,0.1,0,1,20,1,NA
fcp-trial,54,376032,0.0-29.0-0.0,voc_e2,12196,"[{""event"":""fullscreenenter"",""trial"":1,""time"":16714}]",NA,NA,NA,NA,NA,1,#741CD8,#D8271C,0,0,1,38,1,932.7000000178814,37,1,502.300000011921,0,1,experiment,NA,NA,2,0.5,0.5,4,5,21,1,NA
fcp-trial,55,378753,0.0-30.0-0.0,voc_e2,12196,"[{""event"":""fullscreenenter"",""trial"":1,""time"":16714}]",NA,NA,NA,NA,NA,3,#FA92F8,#1CD855,10,0,1,40,0,891.5999999940395,39,0,309.59999999403954,0,0,experiment,NA,NA,1,0.7,0.3,2,3,22,1,NA
fcp-trial,56,382137,0.0-31.0-0.0,voc_e2,12196,"[{""event"":""fullscreenenter"",""trial"":1,""time"":16714}]",NA,NA,NA,NA,NA,2,#FA92F8,#1CD855,0,0,1,38,1,1390.300000011921,37,1,468.40000000596046,0,1,experiment,NA,NA,1,0.7,0.3,2,3,23,1,NA
fcp-trial,57,385174,0.0-32.0-0.0,voc_e2,12196,"[{""event"":""fullscreenenter"",""trial"":1,""time"":16714}]",NA,NA,NA,NA,NA,2,#D89F1C,#3386FF,10,0,1,38,1,1218.4000000059605,37,1,296,10,1,experiment,NA,NA,0,0.9,0.1,0,1,24,1,NA
fcp-trial,58,388408,0.0-33.0-0.0,voc_e2,12196,"[{""event"":""fullscreenenter"",""trial"":1,""time"":16714}]",NA,NA,NA,NA,NA,4,#D8271C,#741CD8,10,10,0,40,0,891.1999999880791,37,1,822.2999999821186,10,0,experiment,NA,NA,2,0.5,0.5,5,4,25,1,NA
fcp-trial,59,390914,0.0-34.0-0.0,voc_e2,12196,"[{""event"":""fullscreenenter"",""trial"":1,""time"":16714}]",NA,NA,NA,NA,NA,5,#D8271C,#741CD8,10,10,0,40,0,548.4000000059605,37,1,438.300000011921,10,0,experiment,NA,NA,2,0.5,0.5,5,4,26,1,NA
fcp-trial,60,393446,0.0-35.0-0.0,voc_e2,12196,"[{""event"":""fullscreenenter"",""trial"":1,""time"":16714}]",NA,NA,NA,NA,NA,5,#3386FF,#D89F1C,0,10,0,40,0,579.3000000119209,37,1,430,0,0,experiment,NA,NA,0,0.1,0.9,1,0,27,1,NA
fcp-trial,61,396674,0.0-36.0-0.0,voc_e2,12196,"[{""event"":""fullscreenenter"",""trial"":1,""time"":16714}]",NA,NA,NA,NA,NA,0,#FA92F8,#1CD855,0,10,1,38,1,821.9000000059605,37,1,887.4000000059605,0,1,experiment,NA,NA,1,0.7,0.3,2,3,28,1,NA
fcp-trial,62,399864,0.0-37.0-0.0,voc_e2,12196,"[{""event"":""fullscreenenter"",""trial"":1,""time"":16714}]",NA,NA,NA,NA,NA,2,#D8271C,#741CD8,0,0,0,40,0,1270.2999999821186,37,1,398.40000000596046,0,0,experiment,NA,NA,2,0.5,0.5,5,4,29,1,NA
fcp-trial,63,402444,0.0-38.0-0.0,voc_e2,12196,"[{""event"":""fullscreenenter"",""trial"":1,""time"":16714}]",NA,NA,NA,NA,NA,0,#741CD8,#D8271C,10,0,1,38,1,604.2000000178814,39,0,455.59999999403954,0,0,experiment,NA,NA,2,0.5,0.5,4,5,30,1,NA
fcp-trial,64,405037,0.0-39.0-0.0,voc_e2,12196,"[{""event"":""fullscreenenter"",""trial"":1,""time"":16714}]",NA,NA,NA,NA,NA,4,#1CD855,#FA92F8,10,0,0,40,0,730.0999999940395,37,1,340.19999998807907,10,0,experiment,NA,NA,1,0.3,0.7,3,2,31,1,NA
fcp-trial,65,407646,0.0-40.0-0.0,voc_e2,12196,"[{""event"":""fullscreenenter"",""trial"":1,""time"":16714}]",NA,NA,NA,NA,NA,0,#D89F1C,#3386FF,10,0,1,38,1,749.7000000178814,37,1,339.80000001192093,10,1,experiment,NA,NA,0,0.9,0.1,0,1,32,1,NA
fcp-trial,66,410764,0.0-41.0-0.0,voc_e2,12196,"[{""event"":""fullscreenenter"",""trial"":1,""time"":16714}]",NA,NA,NA,NA,NA,1,#3386FF,#D89F1C,10,10,0,38,1,1325.300000011921,39,0,268.90000000596046,10,1,experiment,NA,NA,0,0.1,0.9,1,0,33,1,NA
fcp-trial,67,413507,0.0-42.0-0.0,voc_e2,12196,"[{""event"":""fullscreenenter"",""trial"":1,""time"":16714}]",NA,NA,NA,NA,NA,6,#1CD855,#FA92F8,0,10,0,40,0,781.5,39,0,439.09999999403954,10,1,experiment,NA,NA,1,0.3,0.7,3,2,34,1,NA
fcp-trial,68,416227,0.0-43.0-0.0,voc_e2,12196,"[{""event"":""fullscreenenter"",""trial"":1,""time"":16714}]",NA,NA,NA,NA,NA,1,#741CD8,#D8271C,10,10,1,38,1,928.7999999821186,37,1,267.40000000596046,10,1,experiment,NA,NA,2,0.5,0.5,4,5,35,1,NA
fcp-trial,69,419194,0.0-44.0-0.0,voc_e2,12196,"[{""event"":""fullscreenenter"",""trial"":1,""time"":16714}]",NA,NA,NA,NA,NA,5,#FA92F8,#1CD855,10,0,1,40,0,899.9000000059605,39,0,546.9000000059605,0,0,experiment,NA,NA,1,0.7,0.3,2,3,36,1,NA
fcp-trial,70,423046,0.0-45.0-0.0,voc_e2,12196,"[{""event"":""fullscreenenter"",""trial"":1,""time"":16714}]",NA,NA,NA,NA,NA,3,#D8271C,#741CD8,10,10,0,38,1,1660.3999999761581,39,0,672.8000000119209,10,1,experiment,NA,NA,2,0.5,0.5,5,4,37,1,NA
fcp-trial,71,425867,0.0-46.0-0.0,voc_e2,12196,"[{""event"":""fullscreenenter"",""trial"":1,""time"":16714}]",NA,NA,NA,NA,NA,6,#D89F1C,#3386FF,10,10,1,40,0,911.6999999880791,37,1,391.59999999403954,10,1,experiment,NA,NA,0,0.9,0.1,0,1,38,1,NA
fcp-trial,72,429035,0.0-47.0-0.0,voc_e2,12196,"[{""event"":""fullscreenenter"",""trial"":1,""time"":16714}]",NA,NA,NA,NA,NA,6,#741CD8,#D8271C,0,0,1,38,1,700.1999999880791,37,1,947.5,0,1,experiment,NA,NA,2,0.5,0.5,4,5,39,1,NA
fcp-trial,73,432214,0.0-48.0-0.0,voc_e2,12196,"[{""event"":""fullscreenenter"",""trial"":1,""time"":16714}]",NA,NA,NA,NA,NA,3,#3386FF,#D89F1C,0,10,0,40,0,1061.9000000059605,37,1,598.2999999821186,0,0,experiment,NA,NA,0,0.1,0.9,1,0,40,1,NA
fcp-trial,74,434887,0.0-49.0-0.0,voc_e2,12196,"[{""event"":""fullscreenenter"",""trial"":1,""time"":16714}]",NA,NA,NA,NA,NA,1,#FA92F8,#1CD855,0,0,1,38,1,871.6999999880791,37,1,278.2999999821186,0,1,experiment,NA,NA,1,0.7,0.3,2,3,41,1,NA
fcp-trial,75,437614,0.0-50.0-0.0,voc_e2,12196,"[{""event"":""fullscreenenter"",""trial"":1,""time"":16714}]",NA,NA,NA,NA,NA,4,#D89F1C,#3386FF,10,0,1,40,0,808.5,39,0,397.90000000596046,0,0,experiment,NA,NA,0,0.9,0.1,0,1,42,1,NA
fcp-trial,76,440597,0.0-51.0-0.0,voc_e2,12196,"[{""event"":""fullscreenenter"",""trial"":1,""time"":16714}]",NA,NA,NA,NA,NA,2,#FA92F8,#1CD855,10,10,1,38,1,1200.199999988079,37,1,260.60000002384186,10,1,experiment,NA,NA,1,0.7,0.3,2,3,43,1,NA
fcp-trial,77,443216,0.0-52.0-0.0,voc_e2,12196,"[{""event"":""fullscreenenter"",""trial"":1,""time"":16714}]",NA,NA,NA,NA,NA,1,#FA92F8,#1CD855,10,0,1,38,1,788.0999999940395,37,1,309.2000000178814,10,1,experiment,NA,NA,1,0.7,0.3,2,3,44,1,NA
fcp-trial,78,446315,0.0-53.0-0.0,voc_e2,12196,"[{""event"":""fullscreenenter"",""trial"":1,""time"":16714}]",NA,NA,NA,NA,NA,4,#D89F1C,#3386FF,10,0,1,38,1,898,37,1,678.2999999821186,10,1,experiment,NA,NA,0,0.9,0.1,0,1,45,1,NA
fcp-trial,79,449050,0.0-54.0-0.0,voc_e2,12196,"[{""event"":""fullscreenenter"",""trial"":1,""time"":16714}]",NA,NA,NA,NA,NA,6,#1CD855,#FA92F8,10,10,0,40,0,791.7000000178814,39,0,422.199999988079,10,1,experiment,NA,NA,1,0.3,0.7,3,2,46,2,NA
fcp-trial,80,452326,0.0-55.0-0.0,voc_e2,12196,"[{""event"":""fullscreenenter"",""trial"":1,""time"":16714}]",NA,NA,NA,NA,NA,1,#D8271C,#741CD8,10,0,0,38,1,1118,39,0,640,0,1,experiment,NA,NA,2,0.5,0.5,5,4,47,2,NA
fcp-trial,81,455168,0.0-56.0-0.0,voc_e2,12196,"[{""event"":""fullscreenenter"",""trial"":1,""time"":16714}]",NA,NA,NA,NA,NA,3,#741CD8,#D8271C,10,10,1,40,0,967,39,0,347.5,10,0,experiment,NA,NA,2,0.5,0.5,4,5,48,2,NA
fcp-trial,82,458289,0.0-57.0-0.0,voc_e2,12196,"[{""event"":""fullscreenenter"",""trial"":1,""time"":16714}]",NA,NA,NA,NA,NA,3,#3386FF,#D89F1C,0,0,0,40,0,1259.699999988079,37,1,342.30000001192093,0,0,experiment,NA,NA,0,0.1,0.9,1,0,49,2,NA
fcp-trial,83,461745,0.0-58.0-0.0,voc_e2,12196,"[{""event"":""fullscreenenter"",""trial"":1,""time"":16714}]",NA,NA,NA,NA,NA,4,#FA92F8,#1CD855,0,10,1,40,0,1608.199999988079,37,1,328.80000001192093,0,1,experiment,NA,NA,1,0.7,0.3,2,3,50,2,NA
fcp-trial,84,465004,0.0-59.0-0.0,voc_e2,12196,"[{""event"":""fullscreenenter"",""trial"":1,""time"":16714}]",NA,NA,NA,NA,NA,6,#3386FF,#D89F1C,0,10,0,40,0,1361.699999988079,39,0,375.300000011921,10,1,experiment,NA,NA,0,0.1,0.9,1,0,51,2,NA
fcp-trial,85,467684,0.0-60.0-0.0,voc_e2,12196,"[{""event"":""fullscreenenter"",""trial"":1,""time"":16714}]",NA,NA,NA,NA,NA,0,#FA92F8,#1CD855,10,0,1,38,1,787.7999999821186,37,1,367.59999999403954,10,1,experiment,NA,NA,1,0.7,0.3,2,3,52,2,NA
fcp-trial,86,470334,0.0-61.0-0.0,voc_e2,12196,"[{""event"":""fullscreenenter"",""trial"":1,""time"":16714}]",NA,NA,NA,NA,NA,4,#D8271C,#741CD8,0,10,0,40,0,781.6000000238419,39,0,346.09999999403954,10,1,experiment,NA,NA,2,0.5,0.5,5,4,53,2,NA
fcp-trial,87,472923,0.0-62.0-0.0,voc_e2,12196,"[{""event"":""fullscreenenter"",""trial"":1,""time"":16714}]",NA,NA,NA,NA,NA,6,#D8271C,#741CD8,0,0,0,40,0,700.4000000059605,37,1,365.90000000596046,0,0,experiment,NA,NA,2,0.5,0.5,5,4,54,2,NA
fcp-trial,88,475708,0.0-63.0-0.0,voc_e2,12196,"[{""event"":""fullscreenenter"",""trial"":1,""time"":16714}]",NA,NA,NA,NA,NA,1,#3386FF,#D89F1C,0,10,0,38,1,843.4000000059605,39,0,418.90000000596046,10,1,experiment,NA,NA,0,0.1,0.9,1,0,55,2,NA
fcp-trial,89,478607,0.0-64.0-0.0,voc_e2,12196,"[{""event"":""fullscreenenter"",""trial"":1,""time"":16714}]",NA,NA,NA,NA,NA,5,#D89F1C,#3386FF,10,10,1,40,0,911,39,0,467.90000000596046,10,0,experiment,NA,NA,0,0.9,0.1,0,1,56,2,NA
fcp-trial,90,481606,0.0-65.0-0.0,voc_e2,12196,"[{""event"":""fullscreenenter"",""trial"":1,""time"":16714}]",NA,NA,NA,NA,NA,3,#1CD855,#FA92F8,0,10,0,38,1,1219.9000000059605,39,0,258.5,10,1,experiment,NA,NA,1,0.3,0.7,3,2,57,2,NA
fcp-trial,91,484617,0.0-66.0-0.0,voc_e2,12196,"[{""event"":""fullscreenenter"",""trial"":1,""time"":16714}]",NA,NA,NA,NA,NA,2,#741CD8,#D8271C,10,0,1,38,1,1198.5,37,1,289.30000001192093,10,1,experiment,NA,NA,2,0.5,0.5,4,5,58,2,NA
fcp-trial,92,487608,0.0-67.0-0.0,voc_e2,12196,"[{""event"":""fullscreenenter"",""trial"":1,""time"":16714}]",NA,NA,NA,NA,NA,5,#741CD8,#D8271C,10,0,1,40,0,1050,39,0,421.800000011921,0,0,experiment,NA,NA,2,0.5,0.5,4,5,59,2,NA
fcp-trial,93,490285,0.0-68.0-0.0,voc_e2,12196,"[{""event"":""fullscreenenter"",""trial"":1,""time"":16714}]",NA,NA,NA,NA,NA,0,#D8271C,#741CD8,10,10,0,38,1,670.3999999761581,39,0,488.09999999403954,10,1,experiment,NA,NA,2,0.5,0.5,5,4,60,2,NA
fcp-trial,94,492713,0.0-69.0-0.0,voc_e2,12196,"[{""event"":""fullscreenenter"",""trial"":1,""time"":16714}]",NA,NA,NA,NA,NA,0,#D89F1C,#3386FF,10,0,1,38,1,609.0999999940395,37,1,297.90000000596046,10,1,experiment,NA,NA,0,0.9,0.1,0,1,61,2,NA
fcp-trial,95,494879,0.0-70.0-0.0,voc_e2,12196,"[{""event"":""fullscreenenter"",""trial"":1,""time"":16714}]",NA,NA,NA,NA,NA,5,#1CD855,#FA92F8,0,0,0,38,1,331.69999998807907,39,0,322.09999999403954,0,1,experiment,NA,NA,1,0.3,0.7,3,2,62,2,NA
fcp-trial,96,497129,0.0-71.0-0.0,voc_e2,12196,"[{""event"":""fullscreenenter"",""trial"":1,""time"":16714}]",NA,NA,NA,NA,NA,2,#3386FF,#D89F1C,0,10,0,38,1,366.59999999403954,39,0,363.7000000178814,10,1,experiment,NA,NA,0,0.1,0.9,1,0,63,2,NA
fcp-trial,97,499534,0.0-72.0-0.0,voc_e2,12196,"[{""event"":""fullscreenenter"",""trial"":1,""time"":16714}]",NA,NA,NA,NA,NA,4,#D89F1C,#3386FF,0,0,1,38,1,540.4000000059605,37,1,346,0,1,experiment,NA,NA,0,0.9,0.1,0,1,64,2,NA
fcp-trial,98,502117,0.0-73.0-0.0,voc_e2,12196,"[{""event"":""fullscreenenter"",""trial"":1,""time"":16714}]",NA,NA,NA,NA,NA,0,#3386FF,#D89F1C,0,10,0,38,1,275.80000001192093,39,0,788.2000000178814,10,1,experiment,NA,NA,0,0.1,0.9,1,0,65,2,NA
fcp-trial,99,504380,0.0-74.0-0.0,voc_e2,12196,"[{""event"":""fullscreenenter"",""trial"":1,""time"":16714}]",NA,NA,NA,NA,NA,3,#741CD8,#D8271C,10,0,1,38,1,441,37,1,296.7000000178814,10,1,experiment,NA,NA,2,0.5,0.5,4,5,66,2,NA
fcp-trial,100,506668,0.0-75.0-0.0,voc_e2,12196,"[{""event"":""fullscreenenter"",""trial"":1,""time"":16714}]",NA,NA,NA,NA,NA,0,#FA92F8,#1CD855,10,10,1,38,1,437.69999998807907,37,1,326.69999998807907,10,1,experiment,NA,NA,1,0.7,0.3,2,3,67,2,NA
fcp-trial,101,508906,0.0-76.0-0.0,voc_e2,12196,"[{""event"":""fullscreenenter"",""trial"":1,""time"":16714}]",NA,NA,NA,NA,NA,5,#FA92F8,#1CD855,10,0,1,38,1,432.40000000596046,37,1,284.5,10,1,experiment,NA,NA,1,0.7,0.3,2,3,68,2,NA
fcp-trial,102,511246,0.0-77.0-0.0,voc_e2,12196,"[{""event"":""fullscreenenter"",""trial"":1,""time"":16714}]",NA,NA,NA,NA,NA,5,#D89F1C,#3386FF,10,0,1,38,1,501.40000000596046,37,1,316.7999999821186,10,1,experiment,NA,NA,0,0.9,0.1,0,1,69,2,NA
fcp-trial,103,513665,0.0-78.0-0.0,voc_e2,12196,"[{""event"":""fullscreenenter"",""trial"":1,""time"":16714}]",NA,NA,NA,NA,NA,3,#3386FF,#D89F1C,10,10,0,38,1,516.5999999940395,39,0,380.39999997615814,10,1,experiment,NA,NA,0,0.1,0.9,1,0,70,2,NA
fcp-trial,104,516210,0.0-79.0-0.0,voc_e2,12196,"[{""event"":""fullscreenenter"",""trial"":1,""time"":16714}]",NA,NA,NA,NA,NA,6,#D8271C,#741CD8,10,10,0,38,1,667.5,39,0,352.40000000596046,10,1,experiment,NA,NA,2,0.5,0.5,5,4,71,2,NA
fcp-trial,105,518607,0.0-80.0-0.0,voc_e2,12196,"[{""event"":""fullscreenenter"",""trial"":1,""time"":16714}]",NA,NA,NA,NA,NA,3,#FA92F8,#1CD855,10,10,1,38,1,541,37,1,339.2999999821186,10,1,experiment,NA,NA,1,0.7,0.3,2,3,72,2,NA
fcp-trial,106,521247,0.0-81.0-0.0,voc_e2,12196,"[{""event"":""fullscreenenter"",""trial"":1,""time"":16714}]",NA,NA,NA,NA,NA,6,#D89F1C,#3386FF,10,0,1,38,1,521.5,37,1,599.7000000178814,10,1,experiment,NA,NA,0,0.9,0.1,0,1,73,2,NA
fcp-trial,107,523885,0.0-82.0-0.0,voc_e2,12196,"[{""event"":""fullscreenenter"",""trial"":1,""time"":16714}]",NA,NA,NA,NA,NA,5,#D8271C,#741CD8,0,10,0,38,1,591.8999999761581,39,0,526,10,1,experiment,NA,NA,2,0.5,0.5,5,4,74,2,NA
fcp-trial,108,526405,0.0-83.0-0.0,voc_e2,12196,"[{""event"":""fullscreenenter"",""trial"":1,""time"":16714}]",NA,NA,NA,NA,NA,2,#FA92F8,#1CD855,10,10,1,38,1,624.3000000119209,37,1,375.60000002384186,10,1,experiment,NA,NA,1,0.7,0.3,2,3,75,2,NA
fcp-trial,109,529256,0.0-84.0-0.0,voc_e2,12196,"[{""event"":""fullscreenenter"",""trial"":1,""time"":16714}]",NA,NA,NA,NA,NA,1,#D89F1C,#3386FF,10,0,1,38,1,1001.6999999880791,37,1,316.7999999821186,10,1,experiment,NA,NA,0,0.9,0.1,0,1,76,2,NA
fcp-trial,110,532055,0.0-85.0-0.0,voc_e2,12196,"[{""event"":""fullscreenenter"",""trial"":1,""time"":16714}]",NA,NA,NA,NA,NA,6,#1CD855,#FA92F8,0,10,0,38,1,924.6999999880791,39,0,356.09999999403954,10,1,experiment,NA,NA,1,0.3,0.7,3,2,77,2,NA
fcp-trial,111,534263,0.0-86.0-0.0,voc_e2,12196,"[{""event"":""fullscreenenter"",""trial"":1,""time"":16714}]",NA,NA,NA,NA,NA,2,#741CD8,#D8271C,10,10,1,38,1,414.69999998807907,37,1,275.69999998807907,10,1,experiment,NA,NA,2,0.5,0.5,4,5,78,2,NA
fcp-trial,112,536444,0.0-87.0-0.0,voc_e2,12196,"[{""event"":""fullscreenenter"",""trial"":1,""time"":16714}]",NA,NA,NA,NA,NA,0,#741CD8,#D8271C,10,0,1,38,1,370.89999997615814,37,1,287.19999998807907,10,1,experiment,NA,NA,2,0.5,0.5,4,5,79,2,NA
fcp-trial,113,538614,0.0-88.0-0.0,voc_e2,12196,"[{""event"":""fullscreenenter"",""trial"":1,""time"":16714}]",NA,NA,NA,NA,NA,2,#D89F1C,#3386FF,10,0,1,38,1,310.2000000178814,37,1,337.69999998807907,10,1,experiment,NA,NA,0,0.9,0.1,0,1,80,2,NA
fcp-trial,114,540996,0.0-89.0-0.0,voc_e2,12196,"[{""event"":""fullscreenenter"",""trial"":1,""time"":16714}]",NA,NA,NA,NA,NA,4,#741CD8,#D8271C,10,10,1,38,1,291.69999998807907,37,1,567.4000000059605,10,1,experiment,NA,NA,2,0.5,0.5,4,5,81,2,NA
fcp-trial,115,543265,0.0-90.0-0.0,voc_e2,12196,"[{""event"":""fullscreenenter"",""trial"":1,""time"":16714}]",NA,NA,NA,NA,NA,1,#1CD855,#FA92F8,0,10,0,38,1,432.09999999403954,39,0,319.5,10,1,experiment,NA,NA,1,0.3,0.7,3,2,82,2,NA
fcp-trial,116,545447,0.0-91.0-0.0,voc_e2,12196,"[{""event"":""fullscreenenter"",""trial"":1,""time"":16714}]",NA,NA,NA,NA,NA,4,#FA92F8,#1CD855,10,0,1,38,1,354.69999998807907,37,1,309.39999997615814,10,1,experiment,NA,NA,1,0.7,0.3,2,3,83,2,NA
fcp-trial,117,547636,0.0-92.0-0.0,voc_e2,12196,"[{""event"":""fullscreenenter"",""trial"":1,""time"":16714}]",NA,NA,NA,NA,NA,1,#D8271C,#741CD8,0,0,0,38,1,360.90000000596046,39,0,310.09999999403954,0,1,experiment,NA,NA,2,0.5,0.5,5,4,84,2,NA
fcp-trial,118,549865,0.0-93.0-0.0,voc_e2,12196,"[{""event"":""fullscreenenter"",""trial"":1,""time"":16714}]",NA,NA,NA,NA,NA,1,#D8271C,#741CD8,0,10,0,38,1,348.09999999403954,39,0,359.89999997615814,10,1,experiment,NA,NA,2,0.5,0.5,5,4,85,2,NA
fcp-trial,119,552647,0.0-94.0-0.0,voc_e2,12196,"[{""event"":""fullscreenenter"",""trial"":1,""time"":16714}]",NA,NA,NA,NA,NA,0,#3386FF,#D89F1C,0,10,0,38,1,1005.2999999821186,39,0,258.40000000596046,10,1,experiment,NA,NA,0,0.1,0.9,1,0,86,2,NA
fcp-trial,120,555245,0.0-95.0-0.0,voc_e2,12196,"[{""event"":""fullscreenenter"",""trial"":1,""time"":16714}]",NA,NA,NA,NA,NA,0,#1CD855,#FA92F8,10,10,0,38,1,387.40000000596046,39,0,687.7000000178814,10,1,experiment,NA,NA,1,0.3,0.7,3,2,87,2,NA
fcp-trial,121,557557,0.0-96.0-0.0,voc_e2,12196,"[{""event"":""fullscreenenter"",""trial"":1,""time"":16714}]",NA,NA,NA,NA,NA,4,#D89F1C,#3386FF,10,10,1,38,1,478.89999997615814,37,1,310.7000000178814,10,1,experiment,NA,NA,0,0.9,0.1,0,1,88,2,NA
fcp-trial,122,559766,0.0-97.0-0.0,voc_e2,12196,"[{""event"":""fullscreenenter"",""trial"":1,""time"":16714}]",NA,NA,NA,NA,NA,0,#D8271C,#741CD8,0,0,0,38,1,384.30000001192093,39,0,306.90000000596046,0,1,experiment,NA,NA,2,0.5,0.5,5,4,89,2,NA
fcp-trial,123,562067,0.0-98.0-0.0,voc_e2,12196,"[{""event"":""fullscreenenter"",""trial"":1,""time"":16714}]",NA,NA,NA,NA,NA,2,#D8271C,#741CD8,0,10,0,38,1,467.89999997615814,39,0,304.59999999403954,10,1,experiment,NA,NA,2,0.5,0.5,5,4,90,2,NA
fcp-trial,124,564355,0.0-99.0-0.0,voc_e2,12196,"[{""event"":""fullscreenenter"",""trial"":1,""time"":16714}]",NA,NA,NA,NA,NA,6,#1CD855,#FA92F8,0,0,0,38,1,449.69999998807907,39,0,317.19999998807907,0,1,experiment,NA,NA,1,0.3,0.7,3,2,91,3,NA
fcp-trial,125,566928,0.0-100.0-0.0,voc_e2,12196,"[{""event"":""fullscreenenter"",""trial"":1,""time"":16714}]",NA,NA,NA,NA,NA,6,#741CD8,#D8271C,10,10,1,38,1,356.69999998807907,37,1,690.5999999940395,10,1,experiment,NA,NA,2,0.5,0.5,4,5,92,3,NA
fcp-trial,126,569225,0.0-101.0-0.0,voc_e2,12196,"[{""event"":""fullscreenenter"",""trial"":1,""time"":16714}]",NA,NA,NA,NA,NA,3,#D89F1C,#3386FF,10,0,1,38,1,491.19999998807907,37,1,286.69999998807907,10,1,experiment,NA,NA,0,0.9,0.1,0,1,93,3,NA
fcp-trial,127,571798,0.0-102.0-0.0,voc_e2,12196,"[{""event"":""fullscreenenter"",""trial"":1,""time"":16714}]",NA,NA,NA,NA,NA,4,#FA92F8,#1CD855,10,0,1,38,1,703.0999999940395,37,1,347.39999997615814,10,1,experiment,NA,NA,1,0.7,0.3,2,3,94,3,NA
fcp-trial,128,573968,0.0-103.0-0.0,voc_e2,12196,"[{""event"":""fullscreenenter"",""trial"":1,""time"":16714}]",NA,NA,NA,NA,NA,5,#3386FF,#D89F1C,0,10,0,38,1,316.09999999403954,39,0,335.80000001192093,10,1,experiment,NA,NA,0,0.1,0.9,1,0,95,3,NA
fcp-trial,129,576207,0.0-104.0-0.0,voc_e2,12196,"[{""event"":""fullscreenenter"",""trial"":1,""time"":16714}]",NA,NA,NA,NA,NA,2,#FA92F8,#1CD855,0,0,1,38,1,341,37,1,379.7999999821186,0,1,experiment,NA,NA,1,0.7,0.3,2,3,96,3,NA
fcp-trial,130,578707,0.0-105.0-0.0,voc_e2,12196,"[{""event"":""fullscreenenter"",""trial"":1,""time"":16714}]",NA,NA,NA,NA,NA,3,#741CD8,#D8271C,0,0,1,38,1,618.9000000059605,37,1,358.30000001192093,0,1,experiment,NA,NA,2,0.5,0.5,4,5,97,3,NA
fcp-trial,131,580898,0.0-106.0-0.0,voc_e2,12196,"[{""event"":""fullscreenenter"",""trial"":1,""time"":16714}]",NA,NA,NA,NA,NA,1,#1CD855,#FA92F8,10,10,0,38,1,385.5,39,0,287.2999999821186,10,1,experiment,NA,NA,1,0.3,0.7,3,2,98,3,NA
fcp-trial,132,583138,0.0-107.0-0.0,voc_e2,12196,"[{""event"":""fullscreenenter"",""trial"":1,""time"":16714}]",NA,NA,NA,NA,NA,3,#1CD855,#FA92F8,0,0,0,38,1,420.40000000596046,39,0,298,0,1,experiment,NA,NA,1,0.3,0.7,3,2,99,3,NA
fcp-trial,133,585316,0.0-108.0-0.0,voc_e2,12196,"[{""event"":""fullscreenenter"",""trial"":1,""time"":16714}]",NA,NA,NA,NA,NA,6,#3386FF,#D89F1C,0,10,0,38,1,322.89999997615814,39,0,337.59999999403954,10,1,experiment,NA,NA,0,0.1,0.9,1,0,100,3,NA
fcp-trial,134,587645,0.0-109.0-0.0,voc_e2,12196,"[{""event"":""fullscreenenter"",""trial"":1,""time"":16714}]",NA,NA,NA,NA,NA,4,#D8271C,#741CD8,10,10,0,38,1,462.59999999403954,39,0,346.69999998807907,10,1,experiment,NA,NA,2,0.5,0.5,5,4,101,3,NA
fcp-trial,135,589786,0.0-110.0-0.0,voc_e2,12196,"[{""event"":""fullscreenenter"",""trial"":1,""time"":16714}]",NA,NA,NA,NA,NA,1,#D89F1C,#3386FF,10,0,1,38,1,267.60000002384186,37,1,344.90000000596046,10,1,experiment,NA,NA,0,0.9,0.1,0,1,102,3,NA
fcp-trial,136,592029,0.0-111.0-0.0,voc_e2,12196,"[{""event"":""fullscreenenter"",""trial"":1,""time"":16714}]",NA,NA,NA,NA,NA,5,#1CD855,#FA92F8,10,10,0,38,1,401.59999999403954,39,0,317.2000000178814,10,1,experiment,NA,NA,1,0.3,0.7,3,2,103,3,NA
fcp-trial,137,594276,0.0-112.0-0.0,voc_e2,12196,"[{""event"":""fullscreenenter"",""trial"":1,""time"":16714}]",NA,NA,NA,NA,NA,2,#D89F1C,#3386FF,10,0,1,38,1,372.89999997615814,37,1,356.60000002384186,10,1,experiment,NA,NA,0,0.9,0.1,0,1,104,3,NA
fcp-trial,138,596536,0.0-113.0-0.0,voc_e2,12196,"[{""event"":""fullscreenenter"",""trial"":1,""time"":16714}]",NA,NA,NA,NA,NA,5,#D8271C,#741CD8,0,10,0,38,1,413.2000000178814,39,0,325,10,1,experiment,NA,NA,2,0.5,0.5,5,4,105,3,NA
audio-instructions,139,613602,0.0-114.0,voc_e2,12196,"[{""event"":""fullscreenenter"",""trial"":1,""time"":16714}]",NA,12534.59999999404,static/audio/pause.wav,NA,0,NA,NA,NA,NA,NA,NA,NA,NA,NA,NA,NA,NA,NA,NA,NA,NA,NA,NA,NA,NA,NA,NA,NA,NA,NA
fcp-trial,140,617747,0.0-115.0-0.0,voc_e2,12196,"[{""event"":""fullscreenenter"",""trial"":1,""time"":16714}]",NA,NA,NA,NA,NA,4,#FA92F8,#1CD855,10,0,1,40,0,2167.199999988079,37,1,437.699999988079,10,1,experiment,NA,NA,1,0.7,0.3,2,3,106,3,NA
fcp-trial,141,620538,0.0-116.0-0.0,voc_e2,12196,"[{""event"":""fullscreenenter"",""trial"":1,""time"":16714}]",NA,NA,NA,NA,NA,4,#D8271C,#741CD8,0,0,0,40,0,792.7999999821186,37,1,460.09999999403954,0,0,experiment,NA,NA,2,0.5,0.5,5,4,107,3,NA
fcp-trial,142,623824,0.0-117.0-0.0,voc_e2,12196,"[{""event"":""fullscreenenter"",""trial"":1,""time"":16714}]",NA,NA,NA,NA,NA,0,#D8271C,#741CD8,10,10,0,38,1,1443.6000000238419,39,0,313.2000000178814,10,1,experiment,NA,NA,2,0.5,0.5,5,4,108,3,NA
fcp-trial,143,626778,0.0-118.0-0.0,voc_e2,12196,"[{""event"":""fullscreenenter"",""trial"":1,""time"":16714}]",NA,NA,NA,NA,NA,5,#3386FF,#D89F1C,0,0,0,38,1,295.5,39,0,1138.300000011921,0,1,experiment,NA,NA,0,0.1,0.9,1,0,109,3,NA
fcp-trial,144,629056,0.0-119.0-0.0,voc_e2,12196,"[{""event"":""fullscreenenter"",""trial"":1,""time"":16714}]",NA,NA,NA,NA,NA,0,#3386FF,#D89F1C,0,10,0,38,1,483.19999998807907,39,0,269.5,10,1,experiment,NA,NA,0,0.1,0.9,1,0,110,3,NA
fcp-trial,145,632205,0.0-120.0-0.0,voc_e2,12196,"[{""event"":""fullscreenenter"",""trial"":1,""time"":16714}]",NA,NA,NA,NA,NA,0,#1CD855,#FA92F8,0,10,0,38,1,1009.9000000059605,39,0,611.4000000059605,10,1,experiment,NA,NA,1,0.3,0.7,3,2,111,3,NA
fcp-trial,146,634686,0.0-121.0-0.0,voc_e2,12196,"[{""event"":""fullscreenenter"",""trial"":1,""time"":16714}]",NA,NA,NA,NA,NA,6,#741CD8,#D8271C,10,10,1,38,1,639.8000000119209,37,1,319.69999998807907,10,1,experiment,NA,NA,2,0.5,0.5,4,5,112,3,NA
fcp-trial,147,636935,0.0-122.0-0.0,voc_e2,12196,"[{""event"":""fullscreenenter"",""trial"":1,""time"":16714}]",NA,NA,NA,NA,NA,4,#3386FF,#D89F1C,0,10,0,38,1,431.90000000596046,39,0,295.80000001192093,10,1,experiment,NA,NA,0,0.1,0.9,1,0,113,3,NA
fcp-trial,148,639528,0.0-123.0-0.0,voc_e2,12196,"[{""event"":""fullscreenenter"",""trial"":1,""time"":16714}]",NA,NA,NA,NA,NA,6,#FA92F8,#1CD855,10,10,1,38,1,552.6999999880791,37,1,520.0999999940395,10,1,experiment,NA,NA,1,0.7,0.3,2,3,114,3,NA
fcp-trial,149,641946,0.0-124.0-0.0,voc_e2,12196,"[{""event"":""fullscreenenter"",""trial"":1,""time"":16714}]",NA,NA,NA,NA,NA,2,#1CD855,#FA92F8,10,10,0,38,1,538.9000000059605,39,0,355.19999998807907,10,1,experiment,NA,NA,1,0.3,0.7,3,2,115,3,NA
fcp-trial,150,644196,0.0-125.0-0.0,voc_e2,12196,"[{""event"":""fullscreenenter"",""trial"":1,""time"":16714}]",NA,NA,NA,NA,NA,5,#D8271C,#741CD8,10,0,0,38,1,323.59999999403954,39,0,404,0,1,experiment,NA,NA,2,0.5,0.5,5,4,116,3,NA
fcp-trial,151,646245,0.0-126.0-0.0,voc_e2,12196,"[{""event"":""fullscreenenter"",""trial"":1,""time"":16714}]",NA,NA,NA,NA,NA,2,#3386FF,#D89F1C,0,10,0,38,1,271.7999999821186,39,0,255.60000002384183,10,1,experiment,NA,NA,0,0.1,0.9,1,0,117,3,NA
fcp-trial,152,648517,0.0-127.0-0.0,voc_e2,12196,"[{""event"":""fullscreenenter"",""trial"":1,""time"":16714}]",NA,NA,NA,NA,NA,1,#D8271C,#741CD8,0,10,0,38,1,461.09999999403954,39,0,287.60000002384186,10,1,experiment,NA,NA,2,0.5,0.5,5,4,118,3,NA
fcp-trial,153,651061,0.0-128.0-0.0,voc_e2,12196,"[{""event"":""fullscreenenter"",""trial"":1,""time"":16714}]",NA,NA,NA,NA,NA,5,#1CD855,#FA92F8,0,0,0,38,1,350.7000000178814,39,0,668.7999999821186,0,1,experiment,NA,NA,1,0.3,0.7,3,2,119,3,NA
fcp-trial,154,653638,0.0-129.0-0.0,voc_e2,12196,"[{""event"":""fullscreenenter"",""trial"":1,""time"":16714}]",NA,NA,NA,NA,NA,1,#3386FF,#D89F1C,0,10,0,38,1,670.4000000059605,39,0,389.10000002384186,10,1,experiment,NA,NA,0,0.1,0.9,1,0,120,3,NA
fcp-trial,155,656129,0.0-130.0-0.0,voc_e2,12196,"[{""event"":""fullscreenenter"",""trial"":1,""time"":16714}]",NA,NA,NA,NA,NA,3,#1CD855,#FA92F8,0,10,0,38,1,649.2999999821186,39,0,319.5,10,1,experiment,NA,NA,1,0.3,0.7,3,2,121,3,NA
fcp-trial,156,658868,0.0-131.0-0.0,voc_e2,12196,"[{""event"":""fullscreenenter"",""trial"":1,""time"":16714}]",NA,NA,NA,NA,NA,3,#741CD8,#D8271C,10,0,1,38,1,855.6999999880791,37,1,366.199999988079,10,1,experiment,NA,NA,2,0.5,0.5,4,5,122,3,NA
fcp-trial,157,661871,0.0-132.0-0.0,voc_e2,12196,"[{""event"":""fullscreenenter"",""trial"":1,""time"":16714}]",NA,NA,NA,NA,NA,6,#3386FF,#D89F1C,0,10,0,38,1,984,39,0,498.09999999403954,10,1,experiment,NA,NA,0,0.1,0.9,1,0,123,3,NA
fcp-trial,158,664048,0.0-133.0-0.0,voc_e2,12196,"[{""event"":""fullscreenenter"",""trial"":1,""time"":16714}]",NA,NA,NA,NA,NA,1,#FA92F8,#1CD855,10,0,1,38,1,398.7000000178814,37,1,259.7999999821186,10,1,experiment,NA,NA,1,0.7,0.3,2,3,124,3,NA
fcp-trial,159,666527,0.0-134.0-0.0,voc_e2,12196,"[{""event"":""fullscreenenter"",""trial"":1,""time"":16714}]",NA,NA,NA,NA,NA,2,#741CD8,#D8271C,0,10,1,38,1,509.7999999821186,37,1,446.2999999821186,0,1,experiment,NA,NA,2,0.5,0.5,4,5,125,3,NA
fcp-trial,160,669241,0.0-135.0-0.0,voc_e2,12196,"[{""event"":""fullscreenenter"",""trial"":1,""time"":16714}]",NA,NA,NA,NA,NA,3,#3386FF,#D89F1C,0,10,0,38,1,860.3999999761581,39,0,330.60000002384186,10,1,experiment,NA,NA,0,0.1,0.9,1,0,126,3,NA
fcp-trial,161,671697,0.0-136.0-0.0,voc_e2,12196,"[{""event"":""fullscreenenter"",""trial"":1,""time"":16714}]",NA,NA,NA,NA,NA,0,#741CD8,#D8271C,10,10,1,38,1,558.9000000059605,37,1,377.2000000178814,10,1,experiment,NA,NA,2,0.5,0.5,4,5,127,3,NA
fcp-trial,162,674337,0.0-137.0-0.0,voc_e2,12196,"[{""event"":""fullscreenenter"",""trial"":1,""time"":16714}]",NA,NA,NA,NA,NA,2,#D89F1C,#3386FF,10,0,1,38,1,340.59999999403954,37,1,778.0999999940395,10,1,experiment,NA,NA,0,0.9,0.1,0,1,128,3,NA
fcp-trial,163,677112,0.0-138.0-0.0,voc_e2,12196,"[{""event"":""fullscreenenter"",""trial"":1,""time"":16714}]",NA,NA,NA,NA,NA,1,#1CD855,#FA92F8,0,0,0,38,1,852,39,0,400.2999999821186,0,1,experiment,NA,NA,1,0.3,0.7,3,2,129,3,NA
fcp-trial,164,679787,0.0-139.0-0.0,voc_e2,12196,"[{""event"":""fullscreenenter"",""trial"":1,""time"":16714}]",NA,NA,NA,NA,NA,0,#3386FF,#D89F1C,0,10,0,38,1,836.0999999940395,39,0,317.59999999403954,10,1,experiment,NA,NA,0,0.1,0.9,1,0,130,3,NA
fcp-trial,165,682027,0.0-140.0-0.0,voc_e2,12196,"[{""event"":""fullscreenenter"",""trial"":1,""time"":16714}]",NA,NA,NA,NA,NA,1,#D8271C,#741CD8,10,10,0,38,1,430.90000000596046,39,0,289.2999999821186,10,1,experiment,NA,NA,2,0.5,0.5,5,4,131,3,NA
fcp-trial,166,684750,0.0-141.0-0.0,voc_e2,12196,"[{""event"":""fullscreenenter"",""trial"":1,""time"":16714}]",NA,NA,NA,NA,NA,5,#FA92F8,#1CD855,0,0,1,38,1,650.5999999940395,37,1,549.1999999880791,0,1,experiment,NA,NA,1,0.7,0.3,2,3,132,3,NA
fcp-trial,167,686837,0.0-142.0-0.0,voc_e2,12196,"[{""event"":""fullscreenenter"",""trial"":1,""time"":16714}]",NA,NA,NA,NA,NA,6,#1CD855,#FA92F8,0,0,0,38,1,300.19999998807907,39,0,267,0,1,experiment,NA,NA,1,0.3,0.7,3,2,133,3,NA
fcp-trial,168,688948,0.0-143.0-0.0,voc_e2,12196,"[{""event"":""fullscreenenter"",""trial"":1,""time"":16714}]",NA,NA,NA,NA,NA,6,#D89F1C,#3386FF,10,0,1,38,1,315.40000000596046,37,1,276,10,1,experiment,NA,NA,0,0.9,0.1,0,1,134,3,NA
fcp-trial,169,691689,0.0-144.0-0.0,voc_e2,12196,"[{""event"":""fullscreenenter"",""trial"":1,""time"":16714}]",NA,NA,NA,NA,NA,5,#741CD8,#D8271C,10,0,1,40,0,823.4000000059605,39,0,390,0,0,experiment,NA,NA,2,0.5,0.5,4,5,135,3,NA
fcp-trial,170,694207,0.0-145.0-0.0,voc_e2,12196,"[{""event"":""fullscreenenter"",""trial"":1,""time"":16714}]",NA,NA,NA,NA,NA,2,#FA92F8,#1CD855,0,0,1,38,1,740.0999999940395,37,1,259.60000002384186,0,1,experiment,NA,NA,1,0.7,0.3,2,3,136,4,NA
fcp-trial,171,696778,0.0-146.0-0.0,voc_e2,12196,"[{""event"":""fullscreenenter"",""trial"":1,""time"":16714}]",NA,NA,NA,NA,NA,5,#3386FF,#D89F1C,10,10,0,40,0,624.6000000238419,37,1,429.09999999403954,10,0,experiment,NA,NA,0,0.1,0.9,1,0,137,4,NA
fcp-trial,172,699562,0.0-147.0-0.0,voc_e2,12196,"[{""event"":""fullscreenenter"",""trial"":1,""time"":16714}]",NA,NA,NA,NA,NA,4,#1CD855,#FA92F8,0,0,0,38,1,991.2000000178814,39,0,273.2999999821186,0,1,experiment,NA,NA,1,0.3,0.7,3,2,138,4,NA
fcp-trial,173,702064,0.0-148.0-0.0,voc_e2,12196,"[{""event"":""fullscreenenter"",""trial"":1,""time"":16714}]",NA,NA,NA,NA,NA,1,#3386FF,#D89F1C,0,10,0,38,1,638.4000000059605,37,1,345.5,0,0,experiment,NA,NA,0,0.1,0.9,1,0,139,4,NA
fcp-trial,174,704486,0.0-149.0-0.0,voc_e2,12196,"[{""event"":""fullscreenenter"",""trial"":1,""time"":16714}]",NA,NA,NA,NA,NA,3,#741CD8,#D8271C,10,10,1,38,1,572.6999999880791,37,1,338.30000001192093,10,1,experiment,NA,NA,2,0.5,0.5,4,5,140,4,NA
fcp-trial,175,706848,0.0-150.0-0.0,voc_e2,12196,"[{""event"":""fullscreenenter"",""trial"":1,""time"":16714}]",NA,NA,NA,NA,NA,4,#D8271C,#741CD8,0,10,0,38,1,521.4000000059605,39,0,321,10,1,experiment,NA,NA,2,0.5,0.5,5,4,141,4,NA
fcp-trial,176,709367,0.0-151.0-0.0,voc_e2,12196,"[{""event"":""fullscreenenter"",""trial"":1,""time"":16714}]",NA,NA,NA,NA,NA,3,#D89F1C,#3386FF,10,0,1,38,1,503.69999998807907,37,1,497.699999988079,10,1,experiment,NA,NA,0,0.9,0.1,0,1,142,4,NA
fcp-trial,177,711897,0.0-152.0-0.0,voc_e2,12196,"[{""event"":""fullscreenenter"",""trial"":1,""time"":16714}]",NA,NA,NA,NA,NA,0,#FA92F8,#1CD855,10,10,1,38,1,732.1999999880791,37,1,277.90000000596046,10,1,experiment,NA,NA,1,0.7,0.3,2,3,143,4,NA
fcp-trial,178,714268,0.0-153.0-0.0,voc_e2,12196,"[{""event"":""fullscreenenter"",""trial"":1,""time"":16714}]",NA,NA,NA,NA,NA,6,#741CD8,#D8271C,0,0,1,38,1,533.0999999940395,37,1,317,0,1,experiment,NA,NA,2,0.5,0.5,4,5,144,4,NA
fcp-trial,179,717325,0.0-154.0-0.0,voc_e2,12196,"[{""event"":""fullscreenenter"",""trial"":1,""time"":16714}]",NA,NA,NA,NA,NA,4,#D89F1C,#3386FF,0,0,1,38,1,882.6999999880791,37,1,658.2000000178814,0,1,experiment,NA,NA,0,0.9,0.1,0,1,145,4,NA
fcp-trial,180,719899,0.0-155.0-0.0,voc_e2,12196,"[{""event"":""fullscreenenter"",""trial"":1,""time"":16714}]",NA,NA,NA,NA,NA,2,#741CD8,#D8271C,0,10,1,38,1,685.2000000178814,37,1,370.09999999403954,0,1,experiment,NA,NA,2,0.5,0.5,4,5,146,4,NA
fcp-trial,181,722958,0.0-156.0-0.0,voc_e2,12196,"[{""event"":""fullscreenenter"",""trial"":1,""time"":16714}]",NA,NA,NA,NA,NA,3,#FA92F8,#1CD855,10,10,1,38,1,972.7999999821186,37,1,563,10,1,experiment,NA,NA,1,0.7,0.3,2,3,147,4,NA
fcp-trial,182,727086,0.0-157.0-0.0,voc_e2,12196,"[{""event"":""fullscreenenter"",""trial"":1,""time"":16714}]",NA,NA,NA,NA,NA,4,#D8271C,#741CD8,10,10,0,38,1,2211.5,39,0,396.5,10,1,experiment,NA,NA,2,0.5,0.5,5,4,148,4,NA
fcp-trial,183,729767,0.0-158.0-0.0,voc_e2,12196,"[{""event"":""fullscreenenter"",""trial"":1,""time"":16714}]",NA,NA,NA,NA,NA,2,#FA92F8,#1CD855,0,0,1,38,1,599.8999999761581,37,1,557.0999999940395,0,1,experiment,NA,NA,1,0.7,0.3,2,3,149,4,NA
fcp-trial,184,732108,0.0-159.0-0.0,voc_e2,12196,"[{""event"":""fullscreenenter"",""trial"":1,""time"":16714}]",NA,NA,NA,NA,NA,1,#3386FF,#D89F1C,0,10,0,38,1,420.90000000596046,39,0,400.5,10,1,experiment,NA,NA,0,0.1,0.9,1,0,150,4,NA
fcp-trial,185,734627,0.0-160.0-0.0,voc_e2,12196,"[{""event"":""fullscreenenter"",""trial"":1,""time"":16714}]",NA,NA,NA,NA,NA,4,#FA92F8,#1CD855,10,0,1,38,1,537.9000000059605,37,1,456.2000000178814,10,1,experiment,NA,NA,1,0.7,0.3,2,3,151,4,NA
fcp-trial,186,739720,0.0-161.0-0.0,voc_e2,12196,"[{""event"":""fullscreenenter"",""trial"":1,""time"":16714}]",NA,NA,NA,NA,NA,0,#D8271C,#741CD8,10,10,0,38,1,3160.7999999821186,39,0,409.5,10,1,experiment,NA,NA,2,0.5,0.5,5,4,152,4,NA
fcp-trial,187,742418,0.0-162.0-0.0,voc_e2,12196,"[{""event"":""fullscreenenter"",""trial"":1,""time"":16714}]",NA,NA,NA,NA,NA,3,#D89F1C,#3386FF,10,0,1,38,1,860.0999999940395,37,1,319.30000001192093,10,1,experiment,NA,NA,0,0.9,0.1,0,1,153,4,NA
fcp-trial,188,745077,0.0-163.0-0.0,voc_e2,12196,"[{""event"":""fullscreenenter"",""trial"":1,""time"":16714}]",NA,NA,NA,NA,NA,1,#D8271C,#741CD8,10,10,0,38,1,773.1999999880791,39,0,365.7999999821186,10,1,experiment,NA,NA,2,0.5,0.5,5,4,154,4,NA
fcp-trial,189,747636,0.0-164.0-0.0,voc_e2,12196,"[{""event"":""fullscreenenter"",""trial"":1,""time"":16714}]",NA,NA,NA,NA,NA,6,#1CD855,#FA92F8,0,10,0,38,1,501.19999998807907,39,0,537.7999999821186,10,1,experiment,NA,NA,1,0.3,0.7,3,2,155,4,NA
fcp-trial,190,750110,0.0-165.0-0.0,voc_e2,12196,"[{""event"":""fullscreenenter"",""trial"":1,""time"":16714}]",NA,NA,NA,NA,NA,5,#FA92F8,#1CD855,10,0,1,38,1,572.3000000119209,37,1,378.199999988079,10,1,experiment,NA,NA,1,0.7,0.3,2,3,156,4,NA
fcp-trial,191,753350,0.0-166.0-0.0,voc_e2,12196,"[{""event"":""fullscreenenter"",""trial"":1,""time"":16714}]",NA,NA,NA,NA,NA,6,#D8271C,#741CD8,10,10,0,40,0,1411.4000000059605,39,0,311.59999999403954,10,1,experiment,NA,NA,2,0.5,0.5,5,4,157,4,NA
fcp-trial,192,756181,0.0-167.0-0.0,voc_e2,12196,"[{""event"":""fullscreenenter"",""trial"":1,""time"":16714}]",NA,NA,NA,NA,NA,0,#3386FF,#D89F1C,0,10,0,38,1,1013.9000000059605,39,0,286.40000000596046,10,1,experiment,NA,NA,0,0.1,0.9,1,0,158,4,NA
fcp-trial,193,759033,0.0-168.0-0.0,voc_e2,12196,"[{""event"":""fullscreenenter"",""trial"":1,""time"":16714}]",NA,NA,NA,NA,NA,3,#FA92F8,#1CD855,10,0,1,38,1,1038.199999988079,37,1,279.7000000178814,10,1,experiment,NA,NA,1,0.7,0.3,2,3,159,4,NA
fcp-trial,194,761451,0.0-169.0-0.0,voc_e2,12196,"[{""event"":""fullscreenenter"",""trial"":1,""time"":16714}]",NA,NA,NA,NA,NA,0,#FA92F8,#1CD855,10,10,1,38,1,560.9000000059605,37,1,339,10,1,experiment,NA,NA,1,0.7,0.3,2,3,160,4,NA
fcp-trial,195,764321,0.0-170.0-0.0,voc_e2,12196,"[{""event"":""fullscreenenter"",""trial"":1,""time"":16714}]",NA,NA,NA,NA,NA,3,#D8271C,#741CD8,0,10,0,38,1,912.5999999940395,39,0,438.800000011921,10,1,experiment,NA,NA,2,0.5,0.5,5,4,161,4,NA
fcp-trial,196,766948,0.0-171.0-0.0,voc_e2,12196,"[{""event"":""fullscreenenter"",""trial"":1,""time"":16714}]",NA,NA,NA,NA,NA,6,#3386FF,#D89F1C,0,10,0,38,1,702.5999999940395,39,0,406.199999988079,10,1,experiment,NA,NA,0,0.1,0.9,1,0,162,4,NA
fcp-trial,197,772449,0.0-172.0-0.0,voc_e2,12196,"[{""event"":""fullscreenenter"",""trial"":1,""time"":16714}]",NA,NA,NA,NA,NA,4,#3386FF,#D89F1C,0,10,0,40,0,3451.9000000059605,39,0,527,10,1,experiment,NA,NA,0,0.1,0.9,1,0,163,4,NA
fcp-trial,198,776118,0.0-173.0-0.0,voc_e2,12196,"[{""event"":""fullscreenenter"",""trial"":1,""time"":16714}]",NA,NA,NA,NA,NA,2,#D8271C,#741CD8,10,0,0,38,1,1839.7000000178814,39,0,308.69999998807907,0,1,experiment,NA,NA,2,0.5,0.5,5,4,164,4,NA
fcp-trial,199,779538,0.0-174.0-0.0,voc_e2,12196,"[{""event"":""fullscreenenter"",""trial"":1,""time"":16714}]",NA,NA,NA,NA,NA,1,#FA92F8,#1CD855,0,10,1,38,1,1100.7999999821186,37,1,796.8999999761581,0,1,experiment,NA,NA,1,0.7,0.3,2,3,165,4,NA
fcp-trial,200,784306,0.0-175.0-0.0,voc_e2,12196,"[{""event"":""fullscreenenter"",""trial"":1,""time"":16714}]",NA,NA,NA,NA,NA,5,#D8271C,#741CD8,0,10,0,40,0,2898.4000000059605,39,0,349.09999999403954,10,1,experiment,NA,NA,2,0.5,0.5,5,4,166,4,NA
fcp-trial,201,786953,0.0-176.0-0.0,voc_e2,12196,"[{""event"":""fullscreenenter"",""trial"":1,""time"":16714}]",NA,NA,NA,NA,NA,5,#D89F1C,#3386FF,10,0,1,40,0,794.6999999880791,37,1,331.7000000178814,10,1,experiment,NA,NA,0,0.9,0.1,0,1,167,4,NA
fcp-trial,202,789840,0.0-177.0-0.0,voc_e2,12196,"[{""event"":""fullscreenenter"",""trial"":1,""time"":16714}]",NA,NA,NA,NA,NA,2,#D89F1C,#3386FF,10,0,1,40,0,981,37,1,387.90000000596046,10,1,experiment,NA,NA,0,0.9,0.1,0,1,168,4,NA
fcp-trial,203,792790,0.0-178.0-0.0,voc_e2,12196,"[{""event"":""fullscreenenter"",""trial"":1,""time"":16714}]",NA,NA,NA,NA,NA,4,#D8271C,#741CD8,10,0,0,40,0,1014.4000000059605,37,1,413.800000011921,10,0,experiment,NA,NA,2,0.5,0.5,5,4,169,4,NA
fcp-trial,204,795518,0.0-179.0-0.0,voc_e2,12196,"[{""event"":""fullscreenenter"",""trial"":1,""time"":16714}]",NA,NA,NA,NA,NA,6,#D89F1C,#3386FF,10,0,1,40,0,862.3000000119209,37,1,347.39999997615814,10,1,experiment,NA,NA,0,0.9,0.1,0,1,170,4,NA
fcp-trial,205,798489,0.0-180.0-0.0,voc_e2,12196,"[{""event"":""fullscreenenter"",""trial"":1,""time"":16714}]",NA,NA,NA,NA,NA,5,#D8271C,#741CD8,0,10,0,40,0,991.9000000059605,37,1,459,0,0,experiment,NA,NA,2,0.5,0.5,5,4,171,4,NA
fcp-trial,206,801117,0.0-181.0-0.0,voc_e2,12196,"[{""event"":""fullscreenenter"",""trial"":1,""time"":16714}]",NA,NA,NA,NA,NA,5,#FA92F8,#1CD855,0,0,1,40,0,645.4000000059605,39,0,457.7999999821186,0,0,experiment,NA,NA,1,0.7,0.3,2,3,172,4,NA
fcp-trial,207,803737,0.0-182.0-0.0,voc_e2,12196,"[{""event"":""fullscreenenter"",""trial"":1,""time"":16714}]",NA,NA,NA,NA,NA,6,#741CD8,#D8271C,0,0,1,40,0,683.6999999880791,37,1,418.40000000596046,0,1,experiment,NA,NA,2,0.5,0.5,4,5,173,4,NA
fcp-trial,208,806338,0.0-183.0-0.0,voc_e2,12196,"[{""event"":""fullscreenenter"",""trial"":1,""time"":16714}]",NA,NA,NA,NA,NA,0,#D89F1C,#3386FF,0,0,1,38,1,757.6999999880791,37,1,317.60000002384186,0,1,experiment,NA,NA,0,0.9,0.1,0,1,174,4,NA
fcp-trial,209,809170,0.0-184.0-0.0,voc_e2,12196,"[{""event"":""fullscreenenter"",""trial"":1,""time"":16714}]",NA,NA,NA,NA,NA,4,#FA92F8,#1CD855,10,0,1,38,1,934,37,1,380.59999999403954,10,1,experiment,NA,NA,1,0.7,0.3,2,3,175,4,NA
fcp-trial,210,811750,0.0-185.0-0.0,voc_e2,12196,"[{""event"":""fullscreenenter"",""trial"":1,""time"":16714}]",NA,NA,NA,NA,NA,5,#D89F1C,#3386FF,10,0,1,38,1,634.1999999880791,37,1,425,10,1,experiment,NA,NA,0,0.9,0.1,0,1,176,4,NA
fcp-trial,211,814258,0.0-186.0-0.0,voc_e2,12196,"[{""event"":""fullscreenenter"",""trial"":1,""time"":16714}]",NA,NA,NA,NA,NA,0,#741CD8,#D8271C,0,0,1,38,1,667.7999999821186,37,1,316.5,0,1,experiment,NA,NA,2,0.5,0.5,4,5,177,4,NA
fcp-trial,212,816779,0.0-187.0-0.0,voc_e2,12196,"[{""event"":""fullscreenenter"",""trial"":1,""time"":16714}]",NA,NA,NA,NA,NA,3,#741CD8,#D8271C,10,0,1,38,1,595.2999999821186,37,1,405,10,1,experiment,NA,NA,2,0.5,0.5,4,5,178,4,NA
fcp-trial,213,819147,0.0-188.0-0.0,voc_e2,12196,"[{""event"":""fullscreenenter"",""trial"":1,""time"":16714}]",NA,NA,NA,NA,NA,6,#FA92F8,#1CD855,10,0,1,38,1,559.2999999821186,37,1,285.59999999403954,10,1,experiment,NA,NA,1,0.7,0.3,2,3,179,4,NA
fcp-trial,214,822026,0.0-189.0-0.0,voc_e2,12196,"[{""event"":""fullscreenenter"",""trial"":1,""time"":16714}]",NA,NA,NA,NA,NA,1,#1CD855,#FA92F8,10,10,0,38,1,1049.4000000059605,39,0,306.5,10,1,experiment,NA,NA,1,0.3,0.7,3,2,180,4,NA
fcp-trial,215,824838,0.0-190.0-0.0,voc_e2,12196,"[{""event"":""fullscreenenter"",""trial"":1,""time"":16714}]",NA,NA,NA,NA,NA,3,#3386FF,#D89F1C,0,10,0,38,1,1026.0999999940395,39,0,269.40000000596046,10,1,experiment,NA,NA,0,0.1,0.9,1,0,181,5,NA
fcp-trial,216,827450,0.0-191.0-0.0,voc_e2,12196,"[{""event"":""fullscreenenter"",""trial"":1,""time"":16714}]",NA,NA,NA,NA,NA,2,#FA92F8,#1CD855,10,0,1,38,1,729.1999999880791,37,1,360.7000000178814,10,1,experiment,NA,NA,1,0.7,0.3,2,3,182,5,NA
fcp-trial,217,829959,0.0-192.0-0.0,voc_e2,12196,"[{""event"":""fullscreenenter"",""trial"":1,""time"":16714}]",NA,NA,NA,NA,NA,2,#D8271C,#741CD8,10,0,0,38,1,673.4000000059605,39,0,316.19999998807907,0,1,experiment,NA,NA,2,0.5,0.5,5,4,183,5,NA
fcp-trial,218,832230,0.0-193.0-0.0,voc_e2,12196,"[{""event"":""fullscreenenter"",""trial"":1,""time"":16714}]",NA,NA,NA,NA,NA,4,#3386FF,#D89F1C,0,10,0,38,1,447,39,0,301.39999997615814,10,1,experiment,NA,NA,0,0.1,0.9,1,0,184,5,NA
fcp-trial,219,834809,0.0-194.0-0.0,voc_e2,12196,"[{""event"":""fullscreenenter"",""trial"":1,""time"":16714}]",NA,NA,NA,NA,NA,1,#741CD8,#D8271C,10,0,1,38,1,731.3000000119209,37,1,328.09999999403954,10,1,experiment,NA,NA,2,0.5,0.5,4,5,185,5,NA
fcp-trial,220,837496,0.0-195.0-0.0,voc_e2,12196,"[{""event"":""fullscreenenter"",""trial"":1,""time"":16714}]",NA,NA,NA,NA,NA,0,#1CD855,#FA92F8,10,10,0,38,1,357.7000000178814,39,0,806.3000000119209,10,1,experiment,NA,NA,1,0.3,0.7,3,2,186,5,NA
fcp-trial,221,840429,0.0-196.0-0.0,voc_e2,12196,"[{""event"":""fullscreenenter"",""trial"":1,""time"":16714}]",NA,NA,NA,NA,NA,2,#D89F1C,#3386FF,10,0,1,38,1,1015.5,37,1,396.2000000178814,10,1,experiment,NA,NA,0,0.9,0.1,0,1,187,5,NA
fcp-trial,222,842743,0.0-197.0-0.0,voc_e2,12196,"[{""event"":""fullscreenenter"",""trial"":1,""time"":16714}]",NA,NA,NA,NA,NA,1,#D89F1C,#3386FF,10,0,1,38,1,410.60000002384186,37,1,379.40000000596046,10,1,experiment,NA,NA,0,0.9,0.1,0,1,188,5,NA
fcp-trial,223,845092,0.0-198.0-0.0,voc_e2,12196,"[{""event"":""fullscreenenter"",""trial"":1,""time"":16714}]",NA,NA,NA,NA,NA,3,#1CD855,#FA92F8,10,10,0,38,1,477.2999999821186,39,0,333.7000000178814,10,1,experiment,NA,NA,1,0.3,0.7,3,2,189,5,NA
fcp-trial,224,847440,0.0-199.0-0.0,voc_e2,12196,"[{""event"":""fullscreenenter"",""trial"":1,""time"":16714}]",NA,NA,NA,NA,NA,5,#D89F1C,#3386FF,10,0,1,38,1,480.60000002384186,37,1,348.59999999403954,10,1,experiment,NA,NA,0,0.9,0.1,0,1,190,5,NA
fcp-trial,225,849909,0.0-200.0-0.0,voc_e2,12196,"[{""event"":""fullscreenenter"",""trial"":1,""time"":16714}]",NA,NA,NA,NA,NA,3,#1CD855,#FA92F8,0,10,0,38,1,630.5999999940395,39,0,319,10,1,experiment,NA,NA,1,0.3,0.7,3,2,191,5,NA
fcp-trial,226,852533,0.0-201.0-0.0,voc_e2,12196,"[{""event"":""fullscreenenter"",""trial"":1,""time"":16714}]",NA,NA,NA,NA,NA,6,#741CD8,#D8271C,0,0,1,38,1,700.4000000059605,37,1,400.59999999403954,0,1,experiment,NA,NA,2,0.5,0.5,4,5,192,5,NA
fcp-trial,227,855783,0.0-202.0-0.0,voc_e2,12196,"[{""event"":""fullscreenenter"",""trial"":1,""time"":16714}]",NA,NA,NA,NA,NA,6,#3386FF,#D89F1C,0,10,0,38,1,1419.199999988079,39,0,310.40000000596046,10,1,experiment,NA,NA,0,0.1,0.9,1,0,193,5,NA
fcp-trial,228,861139,0.0-203.0-0.0,voc_e2,12196,"[{""event"":""fullscreenenter"",""trial"":1,""time"":16714}]",NA,NA,NA,NA,NA,5,#1CD855,#FA92F8,10,10,0,40,0,3529.300000011921,39,0,309.2000000178814,10,1,experiment,NA,NA,1,0.3,0.7,3,2,194,5,NA
fcp-trial,229,871371,0.0-204.0-0.0,voc_e2,12196,"[{""event"":""fullscreenenter"",""trial"":1,""time"":16714}]",NA,NA,NA,NA,NA,3,#D89F1C,#3386FF,10,10,1,38,1,8432,37,1,280.30000001192093,10,1,experiment,NA,NA,0,0.9,0.1,0,1,195,5,NA
fcp-trial,230,874679,0.0-205.0-0.0,voc_e2,12196,"[{""event"":""fullscreenenter"",""trial"":1,""time"":16714}]",NA,NA,NA,NA,NA,2,#741CD8,#D8271C,10,10,1,38,1,949.2999999821186,37,1,829.9000000059605,10,1,experiment,NA,NA,2,0.5,0.5,4,5,196,5,NA
fcp-trial,231,877138,0.0-206.0-0.0,voc_e2,12196,"[{""event"":""fullscreenenter"",""trial"":1,""time"":16714}]",NA,NA,NA,NA,NA,0,#FA92F8,#1CD855,10,0,1,38,1,584.3000000119209,37,1,354.90000000596046,10,1,experiment,NA,NA,1,0.7,0.3,2,3,197,5,NA
fcp-trial,232,879532,0.0-207.0-0.0,voc_e2,12196,"[{""event"":""fullscreenenter"",""trial"":1,""time"":16714}]",NA,NA,NA,NA,NA,1,#D8271C,#741CD8,10,0,0,38,1,580.5999999940395,39,0,289.80000001192093,0,1,experiment,NA,NA,2,0.5,0.5,5,4,198,5,NA
fcp-trial,233,882240,0.0-208.0-0.0,voc_e2,12196,"[{""event"":""fullscreenenter"",""trial"":1,""time"":16714}]",NA,NA,NA,NA,NA,4,#D89F1C,#3386FF,10,0,1,38,1,810.0999999940395,37,1,379.40000000596046,10,1,experiment,NA,NA,0,0.9,0.1,0,1,199,5,NA
fcp-trial,234,884690,0.0-209.0-0.0,voc_e2,12196,"[{""event"":""fullscreenenter"",""trial"":1,""time"":16714}]",NA,NA,NA,NA,NA,1,#D89F1C,#3386FF,0,0,1,38,1,568.5,37,1,357.59999999403954,0,1,experiment,NA,NA,0,0.9,0.1,0,1,200,5,NA
fcp-trial,235,887359,0.0-210.0-0.0,voc_e2,12196,"[{""event"":""fullscreenenter"",""trial"":1,""time"":16714}]",NA,NA,NA,NA,NA,1,#1CD855,#FA92F8,0,0,0,38,1,810.2999999821186,39,0,336.7000000178814,0,1,experiment,NA,NA,1,0.3,0.7,3,2,201,5,NA
fcp-trial,236,890193,0.0-211.0-0.0,voc_e2,12196,"[{""event"":""fullscreenenter"",""trial"":1,""time"":16714}]",NA,NA,NA,NA,NA,4,#D8271C,#741CD8,0,0,0,38,1,940.6999999880791,39,0,372.800000011921,0,1,experiment,NA,NA,2,0.5,0.5,5,4,202,5,NA
fcp-trial,237,892598,0.0-212.0-0.0,voc_e2,12196,"[{""event"":""fullscreenenter"",""trial"":1,""time"":16714}]",NA,NA,NA,NA,NA,6,#1CD855,#FA92F8,0,10,0,38,1,549.4000000059605,39,0,337.7999999821186,10,1,experiment,NA,NA,1,0.3,0.7,3,2,203,5,NA
fcp-trial,238,894993,0.0-213.0-0.0,voc_e2,12196,"[{""event"":""fullscreenenter"",""trial"":1,""time"":16714}]",NA,NA,NA,NA,NA,4,#1CD855,#FA92F8,0,10,0,38,1,550.5999999940395,39,0,310,10,1,experiment,NA,NA,1,0.3,0.7,3,2,204,5,NA
fcp-trial,239,897782,0.0-214.0-0.0,voc_e2,12196,"[{""event"":""fullscreenenter"",""trial"":1,""time"":16714}]",NA,NA,NA,NA,NA,0,#D89F1C,#3386FF,0,0,1,38,1,946.7000000178814,37,1,318.69999998807907,0,1,experiment,NA,NA,0,0.9,0.1,0,1,205,5,NA
fcp-trial,240,900934,0.0-215.0-0.0,voc_e2,12196,"[{""event"":""fullscreenenter"",""trial"":1,""time"":16714}]",NA,NA,NA,NA,NA,0,#D8271C,#741CD8,0,0,0,38,1,1031.7000000178814,39,0,601.4000000059605,0,1,experiment,NA,NA,2,0.5,0.5,5,4,206,5,NA
fcp-trial,241,903300,0.0-216.0-0.0,voc_e2,12196,"[{""event"":""fullscreenenter"",""trial"":1,""time"":16714}]",NA,NA,NA,NA,NA,5,#741CD8,#D8271C,0,10,1,38,1,410.2999999821186,37,1,438.10000002384186,0,1,experiment,NA,NA,2,0.5,0.5,4,5,207,5,NA
fcp-trial,242,905677,0.0-217.0-0.0,voc_e2,12196,"[{""event"":""fullscreenenter"",""trial"":1,""time"":16714}]",NA,NA,NA,NA,NA,2,#1CD855,#FA92F8,0,10,0,38,1,491.69999998807907,39,0,368.2000000178814,10,1,experiment,NA,NA,1,0.3,0.7,3,2,208,5,NA
fcp-trial,243,908658,0.0-218.0-0.0,voc_e2,12196,"[{""event"":""fullscreenenter"",""trial"":1,""time"":16714}]",NA,NA,NA,NA,NA,3,#741CD8,#D8271C,10,10,1,38,1,1123.199999988079,37,1,335.80000001192093,10,1,experiment,NA,NA,2,0.5,0.5,4,5,209,5,NA
fcp-trial,244,911910,0.0-219.0-0.0,voc_e2,12196,"[{""event"":""fullscreenenter"",""trial"":1,""time"":16714}]",NA,NA,NA,NA,NA,2,#3386FF,#D89F1C,0,0,0,38,1,1123.699999988079,39,0,602.5,0,1,experiment,NA,NA,0,0.1,0.9,1,0,210,5,NA
audio-instructions,245,958422,0.0-220.0,voc_e2,12196,"[{""event"":""fullscreenenter"",""trial"":1,""time"":16714}]",NA,41958.20000001788,static/audio/pause.wav,NA,0,NA,NA,NA,NA,NA,NA,NA,NA,NA,NA,NA,NA,NA,NA,NA,NA,NA,NA,NA,NA,NA,NA,NA,NA,NA
fcp-trial,246,962141,0.0-221.0-0.0,voc_e2,12196,"[{""event"":""fullscreenenter"",""trial"":1,""time"":16714}]",NA,NA,NA,NA,NA,1,#1CD855,#FA92F8,0,0,0,38,1,1883.4000000059605,39,0,304.09999999403954,0,1,experiment,NA,NA,1,0.3,0.7,3,2,211,5,NA
fcp-trial,247,964673,0.0-222.0-0.0,voc_e2,12196,"[{""event"":""fullscreenenter"",""trial"":1,""time"":16714}]",NA,NA,NA,NA,NA,0,#741CD8,#D8271C,10,10,1,38,1,713.6999999880791,37,1,301,10,1,experiment,NA,NA,2,0.5,0.5,4,5,212,5,NA
fcp-trial,248,967775,0.0-223.0-0.0,voc_e2,12196,"[{""event"":""fullscreenenter"",""trial"":1,""time"":16714}]",NA,NA,NA,NA,NA,1,#741CD8,#D8271C,0,10,1,38,1,1209.699999988079,37,1,372.90000000596046,0,1,experiment,NA,NA,2,0.5,0.5,4,5,213,5,NA
fcp-trial,249,970739,0.0-224.0-0.0,voc_e2,12196,"[{""event"":""fullscreenenter"",""trial"":1,""time"":16714}]",NA,NA,NA,NA,NA,2,#D89F1C,#3386FF,10,0,1,38,1,1078.7000000178814,37,1,366.90000000596046,10,1,experiment,NA,NA,0,0.9,0.1,0,1,214,5,NA
fcp-trial,250,975021,0.0-225.0-0.0,voc_e2,12196,"[{""event"":""fullscreenenter"",""trial"":1,""time"":16714}]",NA,NA,NA,NA,NA,5,#1CD855,#FA92F8,10,10,0,38,1,2381.199999988079,39,0,373.800000011921,10,1,experiment,NA,NA,1,0.3,0.7,3,2,215,5,NA
fcp-trial,251,980501,0.0-226.0-0.0,voc_e2,12196,"[{""event"":""fullscreenenter"",""trial"":1,""time"":16714}]",NA,NA,NA,NA,NA,1,#D89F1C,#3386FF,10,0,1,38,1,3571.5,37,1,383.7999999821186,10,1,experiment,NA,NA,0,0.9,0.1,0,1,216,5,NA
fcp-trial,252,985692,0.0-227.0-0.0,voc_e2,12196,"[{""event"":""fullscreenenter"",""trial"":1,""time"":16714}]",NA,NA,NA,NA,NA,4,#D89F1C,#3386FF,10,0,1,38,1,3286.800000011921,37,1,381.40000000596046,10,1,experiment,NA,NA,0,0.9,0.1,0,1,217,5,NA
fcp-trial,253,989791,0.0-228.0-0.0,voc_e2,12196,"[{""event"":""fullscreenenter"",""trial"":1,""time"":16714}]",NA,NA,NA,NA,NA,2,#D8271C,#741CD8,10,10,0,38,1,2270.9000000059605,39,0,306.19999998807907,10,1,experiment,NA,NA,2,0.5,0.5,5,4,218,5,NA
fcp-trial,254,993049,0.0-229.0-0.0,voc_e2,12196,"[{""event"":""fullscreenenter"",""trial"":1,""time"":16714}]",NA,NA,NA,NA,NA,2,#FA92F8,#1CD855,10,0,1,38,1,1438.199999988079,37,1,296.90000000596046,10,1,experiment,NA,NA,1,0.7,0.3,2,3,219,5,NA
fcp-trial,255,995553,0.0-230.0-0.0,voc_e2,12196,"[{""event"":""fullscreenenter"",""trial"":1,""time"":16714}]",NA,NA,NA,NA,NA,6,#D89F1C,#3386FF,10,0,1,38,1,589.5,37,1,389.90000000596046,10,1,experiment,NA,NA,0,0.9,0.1,0,1,220,5,NA
fcp-trial,256,998231,0.0-231.0-0.0,voc_e2,12196,"[{""event"":""fullscreenenter"",""trial"":1,""time"":16714}]",NA,NA,NA,NA,NA,3,#D8271C,#741CD8,10,10,0,38,1,848.8999999761581,39,0,308.59999999403954,10,1,experiment,NA,NA,2,0.5,0.5,5,4,221,5,NA
fcp-trial,257,1001429,0.0-232.0-0.0,voc_e2,12196,"[{""event"":""fullscreenenter"",""trial"":1,""time"":16714}]",NA,NA,NA,NA,NA,0,#1CD855,#FA92F8,0,10,0,38,1,1239.199999988079,39,0,440.7000000178814,10,1,experiment,NA,NA,1,0.3,0.7,3,2,222,5,NA
fcp-trial,258,1004841,0.0-233.0-0.0,voc_e2,12196,"[{""event"":""fullscreenenter"",""trial"":1,""time"":16714}]",NA,NA,NA,NA,NA,6,#FA92F8,#1CD855,10,0,1,38,1,1617.9000000059605,37,1,275.2000000178814,10,1,experiment,NA,NA,1,0.7,0.3,2,3,223,5,NA
fcp-trial,259,1008982,0.0-234.0-0.0,voc_e2,12196,"[{""event"":""fullscreenenter"",""trial"":1,""time"":16714}]",NA,NA,NA,NA,NA,0,#D89F1C,#3386FF,10,0,1,38,1,2249.0999999940395,37,1,371.800000011921,10,1,experiment,NA,NA,0,0.9,0.1,0,1,224,5,NA
fcp-trial,260,1015994,0.0-235.0-0.0,voc_e2,12196,"[{""event"":""fullscreenenter"",""trial"":1,""time"":16714}]",NA,NA,NA,NA,NA,5,#741CD8,#D8271C,10,0,1,38,1,5201.199999988079,37,1,289.09999999403954,10,1,experiment,NA,NA,2,0.5,0.5,4,5,225,5,NA
fcp-trial,261,1020662,0.0-236.0-0.0,voc_e2,12196,"[{""event"":""fullscreenenter"",""trial"":1,""time"":16714}]",NA,NA,NA,NA,NA,4,#1CD855,#FA92F8,0,10,0,38,1,2818.2999999821186,39,0,330.2000000178814,10,1,experiment,NA,NA,1,0.3,0.7,3,2,226,6,NA
fcp-trial,262,1024523,0.0-237.0-0.0,voc_e2,12196,"[{""event"":""fullscreenenter"",""trial"":1,""time"":16714}]",NA,NA,NA,NA,NA,3,#D89F1C,#3386FF,0,0,1,38,1,2002.7999999821186,37,1,337.89999997615814,0,1,experiment,NA,NA,0,0.9,0.1,0,1,227,6,NA
fcp-trial,263,1027520,0.0-238.0-0.0,voc_e2,12196,"[{""event"":""fullscreenenter"",""trial"":1,""time"":16714}]",NA,NA,NA,NA,NA,5,#3386FF,#D89F1C,0,10,0,38,1,1139.2000000178814,39,0,335.30000001192093,10,1,experiment,NA,NA,0,0.1,0.9,1,0,228,6,NA
fcp-trial,264,1030162,0.0-239.0-0.0,voc_e2,12196,"[{""event"":""fullscreenenter"",""trial"":1,""time"":16714}]",NA,NA,NA,NA,NA,3,#1CD855,#FA92F8,0,0,0,38,1,778,39,0,340.2000000178814,0,1,experiment,NA,NA,1,0.3,0.7,3,2,229,6,NA
fcp-trial,265,1032514,0.0-240.0-0.0,voc_e2,12196,"[{""event"":""fullscreenenter"",""trial"":1,""time"":16714}]",NA,NA,NA,NA,NA,6,#D8271C,#741CD8,0,0,0,38,1,496.09999999403954,39,0,328.19999998807907,0,1,experiment,NA,NA,2,0.5,0.5,5,4,230,6,NA
fcp-trial,266,1035761,0.0-241.0-0.0,voc_e2,12196,"[{""event"":""fullscreenenter"",""trial"":1,""time"":16714}]",NA,NA,NA,NA,NA,4,#741CD8,#D8271C,0,0,1,38,1,1137.800000011921,37,1,588.7999999821186,0,1,experiment,NA,NA,2,0.5,0.5,4,5,231,6,NA
fcp-trial,267,1038291,0.0-242.0-0.0,voc_e2,12196,"[{""event"":""fullscreenenter"",""trial"":1,""time"":16714}]",NA,NA,NA,NA,NA,2,#FA92F8,#1CD855,10,0,1,38,1,709.9000000059605,37,1,297.5,10,1,experiment,NA,NA,1,0.7,0.3,2,3,232,6,NA
fcp-trial,268,1041243,0.0-243.0-0.0,voc_e2,12196,"[{""event"":""fullscreenenter"",""trial"":1,""time"":16714}]",NA,NA,NA,NA,NA,2,#3386FF,#D89F1C,0,10,0,38,1,1130.800000011921,39,0,300.80000001192093,10,1,experiment,NA,NA,0,0.1,0.9,1,0,233,6,NA
fcp-trial,269,1043432,0.0-244.0-0.0,voc_e2,12196,"[{""event"":""fullscreenenter"",""trial"":1,""time"":16714}]",NA,NA,NA,NA,NA,1,#3386FF,#D89F1C,0,10,0,38,1,386.90000000596046,39,0,269.59999999403954,10,1,experiment,NA,NA,0,0.1,0.9,1,0,234,6,NA
fcp-trial,270,1046144,0.0-245.0-0.0,voc_e2,12196,"[{""event"":""fullscreenenter"",""trial"":1,""time"":16714}]",NA,NA,NA,NA,NA,4,#3386FF,#D89F1C,10,10,0,38,1,889.5,39,0,298.30000001192093,10,1,experiment,NA,NA,0,0.1,0.9,1,0,235,6,NA
fcp-trial,271,1048431,0.0-246.0-0.0,voc_e2,12196,"[{""event"":""fullscreenenter"",""trial"":1,""time"":16714}]",NA,NA,NA,NA,NA,0,#D8271C,#741CD8,0,10,0,38,1,512.0999999940395,39,0,255.4000000059605,10,1,experiment,NA,NA,2,0.5,0.5,5,4,236,6,NA
fcp-trial,272,1055872,0.0-247.0-0.0,voc_e2,12196,"[{""event"":""fullscreenenter"",""trial"":1,""time"":16714}]",NA,NA,NA,NA,NA,5,#1CD855,#FA92F8,0,0,0,38,1,5661,39,0,259.80000001192093,0,1,experiment,NA,NA,1,0.3,0.7,3,2,237,6,NA
fcp-trial,273,1058381,0.0-248.0-0.0,voc_e2,12196,"[{""event"":""fullscreenenter"",""trial"":1,""time"":16714}]",NA,NA,NA,NA,NA,6,#D89F1C,#3386FF,10,0,1,38,1,682.6999999880791,37,1,307.80000001192093,10,1,experiment,NA,NA,0,0.9,0.1,0,1,238,6,NA
fcp-trial,274,1060810,0.0-249.0-0.0,voc_e2,12196,"[{""event"":""fullscreenenter"",""trial"":1,""time"":16714}]",NA,NA,NA,NA,NA,6,#741CD8,#D8271C,0,10,1,38,1,584.5,37,1,319.59999999403954,0,1,experiment,NA,NA,2,0.5,0.5,4,5,239,6,NA
fcp-trial,275,1063272,0.0-250.0-0.0,voc_e2,12196,"[{""event"":""fullscreenenter"",""trial"":1,""time"":16714}]",NA,NA,NA,NA,NA,6,#FA92F8,#1CD855,10,10,1,38,1,681.0999999940395,37,1,258.90000000596046,10,1,experiment,NA,NA,1,0.7,0.3,2,3,240,6,NA
fcp-trial,276,1065701,0.0-251.0-0.0,voc_e2,12196,"[{""event"":""fullscreenenter"",""trial"":1,""time"":16714}]",NA,NA,NA,NA,NA,4,#741CD8,#D8271C,10,0,1,38,1,611,37,1,299.09999999403954,10,1,experiment,NA,NA,2,0.5,0.5,4,5,241,6,NA
fcp-trial,277,1068101,0.0-252.0-0.0,voc_e2,12196,"[{""event"":""fullscreenenter"",""trial"":1,""time"":16714}]",NA,NA,NA,NA,NA,0,#3386FF,#D89F1C,0,10,0,38,1,576.3999999761581,39,0,299.89999997615814,10,1,experiment,NA,NA,0,0.1,0.9,1,0,242,6,NA
fcp-trial,278,1071130,0.0-253.0-0.0,voc_e2,12196,"[{""event"":""fullscreenenter"",""trial"":1,""time"":16714}]",NA,NA,NA,NA,NA,2,#741CD8,#D8271C,10,0,1,38,1,819.3999999761581,37,1,688.7000000178814,10,1,experiment,NA,NA,2,0.5,0.5,4,5,243,6,NA
fcp-trial,279,1073419,0.0-254.0-0.0,voc_e2,12196,"[{""event"":""fullscreenenter"",""trial"":1,""time"":16714}]",NA,NA,NA,NA,NA,4,#FA92F8,#1CD855,10,0,1,38,1,484.40000000596046,37,1,286.40000000596046,10,1,experiment,NA,NA,1,0.7,0.3,2,3,244,6,NA
fcp-trial,280,1076152,0.0-255.0-0.0,voc_e2,12196,"[{""event"":""fullscreenenter"",""trial"":1,""time"":16714}]",NA,NA,NA,NA,NA,3,#1CD855,#FA92F8,0,10,0,38,1,890.3000000119209,39,0,320.40000000596046,10,1,experiment,NA,NA,1,0.3,0.7,3,2,245,6,NA
fcp-trial,281,1078716,0.0-256.0-0.0,voc_e2,12196,"[{""event"":""fullscreenenter"",""trial"":1,""time"":16714}]",NA,NA,NA,NA,NA,5,#3386FF,#D89F1C,0,0,0,38,1,687.7999999821186,39,0,363.300000011921,0,1,experiment,NA,NA,0,0.1,0.9,1,0,246,6,NA
fcp-trial,282,1081289,0.0-257.0-0.0,voc_e2,12196,"[{""event"":""fullscreenenter"",""trial"":1,""time"":16714}]",NA,NA,NA,NA,NA,5,#741CD8,#D8271C,0,0,1,38,1,585.1999999880791,37,1,467.7000000178814,0,1,experiment,NA,NA,2,0.5,0.5,4,5,247,6,NA
fcp-trial,283,1083481,0.0-258.0-0.0,voc_e2,12196,"[{""event"":""fullscreenenter"",""trial"":1,""time"":16714}]",NA,NA,NA,NA,NA,1,#741CD8,#D8271C,10,10,1,38,1,342.09999999403954,37,1,338.5,10,1,experiment,NA,NA,2,0.5,0.5,4,5,248,6,NA
fcp-trial,284,1085741,0.0-259.0-0.0,voc_e2,12196,"[{""event"":""fullscreenenter"",""trial"":1,""time"":16714}]",NA,NA,NA,NA,NA,3,#741CD8,#D8271C,0,0,1,38,1,433.80000001192093,37,1,305.59999999403954,0,1,experiment,NA,NA,2,0.5,0.5,4,5,249,6,NA
fcp-trial,285,1087941,0.0-260.0-0.0,voc_e2,12196,"[{""event"":""fullscreenenter"",""trial"":1,""time"":16714}]",NA,NA,NA,NA,NA,0,#1CD855,#FA92F8,0,10,0,38,1,251.7000000178814,39,0,428.5,10,1,experiment,NA,NA,1,0.3,0.7,3,2,250,6,NA
fcp-trial,286,1090374,0.0-261.0-0.0,voc_e2,12196,"[{""event"":""fullscreenenter"",""trial"":1,""time"":16714}]",NA,NA,NA,NA,NA,3,#D89F1C,#3386FF,10,0,1,38,1,519.5999999940395,37,1,392.40000000596046,10,1,experiment,NA,NA,0,0.9,0.1,0,1,251,6,NA
fcp-trial,287,1092982,0.0-262.0-0.0,voc_e2,12196,"[{""event"":""fullscreenenter"",""trial"":1,""time"":16714}]",NA,NA,NA,NA,NA,1,#1CD855,#FA92F8,0,10,0,38,1,740.5,39,0,348.40000000596046,10,1,experiment,NA,NA,1,0.3,0.7,3,2,252,6,NA
fcp-trial,288,1095274,0.0-263.0-0.0,voc_e2,12196,"[{""event"":""fullscreenenter"",""trial"":1,""time"":16714}]",NA,NA,NA,NA,NA,1,#D89F1C,#3386FF,10,0,1,38,1,440.19999998807907,37,1,325.5,10,1,experiment,NA,NA,0,0.9,0.1,0,1,253,6,NA
fcp-trial,289,1097721,0.0-264.0-0.0,voc_e2,12196,"[{""event"":""fullscreenenter"",""trial"":1,""time"":16714}]",NA,NA,NA,NA,NA,0,#741CD8,#D8271C,10,0,1,38,1,551.4000000059605,37,1,373.199999988079,10,1,experiment,NA,NA,2,0.5,0.5,4,5,254,6,NA
fcp-trial,290,1100134,0.0-265.0-0.0,voc_e2,12196,"[{""event"":""fullscreenenter"",""trial"":1,""time"":16714}]",NA,NA,NA,NA,NA,2,#D8271C,#741CD8,0,0,0,38,1,541.7000000178814,39,0,347.5,0,1,experiment,NA,NA,2,0.5,0.5,5,4,255,6,NA
fcp-trial,291,1102852,0.0-266.0-0.0,voc_e2,12196,"[{""event"":""fullscreenenter"",""trial"":1,""time"":16714}]",NA,NA,NA,NA,NA,3,#FA92F8,#1CD855,10,0,1,38,1,501.69999998807907,37,1,698.3999999761581,10,1,experiment,NA,NA,1,0.7,0.3,2,3,256,6,NA
fcp-trial,292,1105693,0.0-267.0-0.0,voc_e2,12196,"[{""event"":""fullscreenenter"",""trial"":1,""time"":16714}]",NA,NA,NA,NA,NA,3,#D89F1C,#3386FF,10,0,1,38,1,970.1999999880791,37,1,351.40000000596046,10,1,experiment,NA,NA,0,0.9,0.1,0,1,257,6,NA
fcp-trial,293,1108472,0.0-268.0-0.0,voc_e2,12196,"[{""event"":""fullscreenenter"",""trial"":1,""time"":16714}]",NA,NA,NA,NA,NA,1,#1CD855,#FA92F8,10,10,0,38,1,941.5999999940395,39,0,309.2999999821186,10,1,experiment,NA,NA,1,0.3,0.7,3,2,258,6,NA
fcp-trial,294,1111093,0.0-269.0-0.0,voc_e2,12196,"[{""event"":""fullscreenenter"",""trial"":1,""time"":16714}]",NA,NA,NA,NA,NA,0,#D89F1C,#3386FF,10,0,1,38,1,712.5,37,1,387,10,1,experiment,NA,NA,0,0.9,0.1,0,1,259,6,NA
fcp-trial,295,1113381,0.0-270.0-0.0,voc_e2,12196,"[{""event"":""fullscreenenter"",""trial"":1,""time"":16714}]",NA,NA,NA,NA,NA,5,#741CD8,#D8271C,0,0,1,38,1,100.40000000596046,37,1,661.8999999761581,0,1,experiment,NA,NA,2,0.5,0.5,4,5,260,6,NA
fcp-trial,296,1115876,0.0-271.0-0.0,voc_e2,12196,"[{""event"":""fullscreenenter"",""trial"":1,""time"":16714}]",NA,NA,NA,NA,NA,6,#FA92F8,#1CD855,10,10,1,38,1,651.1999999880791,37,1,318.30000001192093,10,1,experiment,NA,NA,1,0.7,0.3,2,3,261,6,NA
fcp-trial,297,1119585,0.0-272.0-0.0,voc_e2,12196,"[{""event"":""fullscreenenter"",""trial"":1,""time"":16714}]",NA,NA,NA,NA,NA,3,#741CD8,#D8271C,10,0,1,38,1,1841.300000011921,37,1,349.10000002384186,10,1,experiment,NA,NA,2,0.5,0.5,4,5,262,6,NA
fcp-trial,298,1122151,0.0-273.0-0.0,voc_e2,12196,"[{""event"":""fullscreenenter"",""trial"":1,""time"":16714}]",NA,NA,NA,NA,NA,5,#3386FF,#D89F1C,0,10,0,38,1,775.2000000178814,39,0,269.2000000178814,10,1,experiment,NA,NA,0,0.1,0.9,1,0,263,6,NA
fcp-trial,299,1124715,0.0-274.0-0.0,voc_e2,12196,"[{""event"":""fullscreenenter"",""trial"":1,""time"":16714}]",NA,NA,NA,NA,NA,2,#3386FF,#D89F1C,0,10,0,38,1,728,39,0,297.90000000596046,10,1,experiment,NA,NA,0,0.1,0.9,1,0,264,6,NA
fcp-trial,300,1127074,0.0-275.0-0.0,voc_e2,12196,"[{""event"":""fullscreenenter"",""trial"":1,""time"":16714}]",NA,NA,NA,NA,NA,4,#741CD8,#D8271C,10,10,1,38,1,472.7000000178814,37,1,360.09999999403954,10,1,experiment,NA,NA,2,0.5,0.5,4,5,265,6,NA
fcp-trial,301,1129411,0.0-276.0-0.0,voc_e2,12196,"[{""event"":""fullscreenenter"",""trial"":1,""time"":16714}]",NA,NA,NA,NA,NA,2,#FA92F8,#1CD855,10,10,1,38,1,520.9000000059605,37,1,293.2999999821186,10,1,experiment,NA,NA,1,0.7,0.3,2,3,266,6,NA
fcp-trial,302,1131641,0.0-277.0-0.0,voc_e2,12196,"[{""event"":""fullscreenenter"",""trial"":1,""time"":16714}]",NA,NA,NA,NA,NA,6,#3386FF,#D89F1C,0,10,0,38,1,410.09999999403954,39,0,299.40000000596046,10,1,experiment,NA,NA,0,0.1,0.9,1,0,267,6,NA
fcp-trial,303,1134154,0.0-278.0-0.0,voc_e2,12196,"[{""event"":""fullscreenenter"",""trial"":1,""time"":16714}]",NA,NA,NA,NA,NA,6,#741CD8,#D8271C,10,10,1,38,1,666.1999999880791,37,1,328.90000000596046,10,1,experiment,NA,NA,2,0.5,0.5,4,5,268,6,NA
fcp-trial,304,1136452,0.0-279.0-0.0,voc_e2,12196,"[{""event"":""fullscreenenter"",""trial"":1,""time"":16714}]",NA,NA,NA,NA,NA,1,#741CD8,#D8271C,10,10,1,38,1,490.5,37,1,289,10,1,experiment,NA,NA,2,0.5,0.5,4,5,269,6,NA
fcp-trial,305,1138994,0.0-280.0-0.0,voc_e2,12196,"[{""event"":""fullscreenenter"",""trial"":1,""time"":16714}]",NA,NA,NA,NA,NA,4,#1CD855,#FA92F8,0,10,0,38,1,629.9000000059605,39,0,388.60000002384186,10,1,experiment,NA,NA,1,0.3,0.7,3,2,270,6,NA
fcp-trial,306,1141421,0.0-281.0-0.0,voc_e2,12196,"[{""event"":""fullscreenenter"",""trial"":1,""time"":16714}]",NA,NA,NA,NA,NA,5,#1CD855,#FA92F8,0,10,0,38,1,611.3000000119209,39,0,294.2000000178814,10,1,experiment,NA,NA,1,0.3,0.7,3,2,271,7,NA
fcp-trial,307,1143930,0.0-282.0-0.0,voc_e2,12196,"[{""event"":""fullscreenenter"",""trial"":1,""time"":16714}]",NA,NA,NA,NA,NA,4,#D89F1C,#3386FF,10,0,1,38,1,588.1999999880791,37,1,397.59999999403954,10,1,experiment,NA,NA,0,0.9,0.1,0,1,272,7,NA
fcp-trial,308,1146921,0.0-283.0-0.0,voc_e2,12196,"[{""event"":""fullscreenenter"",""trial"":1,""time"":16714}]",NA,NA,NA,NA,NA,0,#1CD855,#FA92F8,0,0,0,38,1,1127,39,0,344,0,1,experiment,NA,NA,1,0.3,0.7,3,2,273,7,NA
fcp-trial,309,1149472,0.0-284.0-0.0,voc_e2,12196,"[{""event"":""fullscreenenter"",""trial"":1,""time"":16714}]",NA,NA,NA,NA,NA,0,#FA92F8,#1CD855,0,0,1,38,1,671.6000000238419,37,1,355.40000000596046,0,1,experiment,NA,NA,1,0.7,0.3,2,3,274,7,NA
fcp-trial,310,1151836,0.0-285.0-0.0,voc_e2,12196,"[{""event"":""fullscreenenter"",""trial"":1,""time"":16714}]",NA,NA,NA,NA,NA,4,#741CD8,#D8271C,0,0,1,38,1,583.4000000059605,37,1,258.5,0,1,experiment,NA,NA,2,0.5,0.5,4,5,275,7,NA
fcp-trial,311,1154043,0.0-286.0-0.0,voc_e2,12196,"[{""event"":""fullscreenenter"",""trial"":1,""time"":16714}]",NA,NA,NA,NA,NA,5,#D8271C,#741CD8,0,10,0,38,1,348.59999999403954,39,0,338.5,10,1,experiment,NA,NA,2,0.5,0.5,5,4,276,7,NA
fcp-trial,312,1156553,0.0-287.0-0.0,voc_e2,12196,"[{""event"":""fullscreenenter"",""trial"":1,""time"":16714}]",NA,NA,NA,NA,NA,1,#3386FF,#D89F1C,0,10,0,38,1,528.8000000119209,39,0,461.89999997615814,10,1,experiment,NA,NA,0,0.1,0.9,1,0,277,7,NA
fcp-trial,313,1158875,0.0-288.0-0.0,voc_e2,12196,"[{""event"":""fullscreenenter"",""trial"":1,""time"":16714}]",NA,NA,NA,NA,NA,6,#1CD855,#FA92F8,0,10,0,38,1,544.5,39,0,259.90000000596046,10,1,experiment,NA,NA,1,0.3,0.7,3,2,278,7,NA
fcp-trial,314,1161584,0.0-289.0-0.0,voc_e2,12196,"[{""event"":""fullscreenenter"",""trial"":1,""time"":16714}]",NA,NA,NA,NA,NA,6,#D8271C,#741CD8,0,0,0,38,1,860.4000000059605,39,0,330.7000000178814,0,1,experiment,NA,NA,2,0.5,0.5,5,4,279,7,NA
fcp-trial,315,1163851,0.0-290.0-0.0,voc_e2,12196,"[{""event"":""fullscreenenter"",""trial"":1,""time"":16714}]",NA,NA,NA,NA,NA,2,#3386FF,#D89F1C,0,10,0,38,1,447.5,39,0,298.2999999821186,10,1,experiment,NA,NA,0,0.1,0.9,1,0,280,7,NA
fcp-trial,316,1166593,0.0-291.0-0.0,voc_e2,12196,"[{""event"":""fullscreenenter"",""trial"":1,""time"":16714}]",NA,NA,NA,NA,NA,3,#D89F1C,#3386FF,10,0,1,38,1,891.2000000178814,37,1,327,10,1,experiment,NA,NA,0,0.9,0.1,0,1,281,7,NA
fcp-trial,317,1169014,0.0-292.0-0.0,voc_e2,12196,"[{""event"":""fullscreenenter"",""trial"":1,""time"":16714}]",NA,NA,NA,NA,NA,2,#1CD855,#FA92F8,0,10,0,38,1,565.2999999821186,39,0,339,10,1,experiment,NA,NA,1,0.3,0.7,3,2,282,7,NA
fcp-trial,318,1171521,0.0-293.0-0.0,voc_e2,12196,"[{""event"":""fullscreenenter"",""trial"":1,""time"":16714}]",NA,NA,NA,NA,NA,3,#D8271C,#741CD8,10,0,0,38,1,699.9000000059605,39,0,287.5,0,1,experiment,NA,NA,2,0.5,0.5,5,4,283,7,NA
fcp-trial,319,1174815,0.0-294.0-0.0,voc_e2,12196,"[{""event"":""fullscreenenter"",""trial"":1,""time"":16714}]",NA,NA,NA,NA,NA,4,#D89F1C,#3386FF,10,0,1,38,1,1474.4000000059605,37,1,291.7999999821186,10,1,experiment,NA,NA,0,0.9,0.1,0,1,284,7,NA
fcp-trial,320,1176971,0.0-295.0-0.0,voc_e2,12196,"[{""event"":""fullscreenenter"",""trial"":1,""time"":16714}]",NA,NA,NA,NA,NA,0,#3386FF,#D89F1C,0,10,0,38,1,358.59999999403954,39,0,273.30000001192093,10,1,experiment,NA,NA,0,0.1,0.9,1,0,285,7,NA
fcp-trial,321,1179422,0.0-296.0-0.0,voc_e2,12196,"[{""event"":""fullscreenenter"",""trial"":1,""time"":16714}]",NA,NA,NA,NA,NA,3,#1CD855,#FA92F8,0,10,0,38,1,604.6999999880791,39,0,328.5,10,1,experiment,NA,NA,1,0.3,0.7,3,2,286,7,NA
fcp-trial,322,1181754,0.0-297.0-0.0,voc_e2,12196,"[{""event"":""fullscreenenter"",""trial"":1,""time"":16714}]",NA,NA,NA,NA,NA,1,#D8271C,#741CD8,0,10,0,38,1,471.19999998807907,39,0,338,10,1,experiment,NA,NA,2,0.5,0.5,5,4,287,7,NA
fcp-trial,323,1184324,0.0-298.0-0.0,voc_e2,12196,"[{""event"":""fullscreenenter"",""trial"":1,""time"":16714}]",NA,NA,NA,NA,NA,5,#3386FF,#D89F1C,0,10,0,38,1,589.4000000059605,39,0,460.59999999403954,10,1,experiment,NA,NA,0,0.1,0.9,1,0,288,7,NA
fcp-trial,324,1188821,0.0-299.0-0.0,voc_e2,12196,"[{""event"":""fullscreenenter"",""trial"":1,""time"":16714}]",NA,NA,NA,NA,NA,5,#1CD855,#FA92F8,10,10,0,38,1,908.2999999821186,39,0,2068.9000000059605,10,1,experiment,NA,NA,1,0.3,0.7,3,2,289,7,NA
fcp-trial,325,1191194,0.0-300.0-0.0,voc_e2,12196,"[{""event"":""fullscreenenter"",""trial"":1,""time"":16714}]",NA,NA,NA,NA,NA,2,#D8271C,#741CD8,10,10,0,38,1,553.8999999761581,39,0,298.90000000596046,10,1,experiment,NA,NA,2,0.5,0.5,5,4,290,7,NA
fcp-trial,326,1193492,0.0-301.0-0.0,voc_e2,12196,"[{""event"":""fullscreenenter"",""trial"":1,""time"":16714}]",NA,NA,NA,NA,NA,4,#FA92F8,#1CD855,10,0,1,38,1,462.40000000596046,37,1,310,10,1,experiment,NA,NA,1,0.7,0.3,2,3,291,7,NA
fcp-trial,327,1196185,0.0-302.0-0.0,voc_e2,12196,"[{""event"":""fullscreenenter"",""trial"":1,""time"":16714}]",NA,NA,NA,NA,NA,0,#741CD8,#D8271C,0,10,1,38,1,421.7999999821186,37,1,749.9000000059605,0,1,experiment,NA,NA,2,0.5,0.5,4,5,292,7,NA
fcp-trial,328,1198567,0.0-303.0-0.0,voc_e2,12196,"[{""event"":""fullscreenenter"",""trial"":1,""time"":16714}]",NA,NA,NA,NA,NA,6,#D89F1C,#3386FF,10,0,1,38,1,566.0999999940395,37,1,294.39999997615814,10,1,experiment,NA,NA,0,0.9,0.1,0,1,293,7,NA
fcp-trial,329,1200894,0.0-304.0-0.0,voc_e2,12196,"[{""event"":""fullscreenenter"",""trial"":1,""time"":16714}]",NA,NA,NA,NA,NA,1,#1CD855,#FA92F8,10,10,0,38,1,510.60000002384186,39,0,297.7000000178814,10,1,experiment,NA,NA,1,0.3,0.7,3,2,294,7,NA
fcp-trial,330,1203161,0.0-305.0-0.0,voc_e2,12196,"[{""event"":""fullscreenenter"",""trial"":1,""time"":16714}]",NA,NA,NA,NA,NA,4,#FA92F8,#1CD855,10,10,1,38,1,391,37,1,354.2999999821186,10,1,experiment,NA,NA,1,0.7,0.3,2,3,295,7,NA
fcp-trial,331,1205674,0.0-306.0-0.0,voc_e2,12196,"[{""event"":""fullscreenenter"",""trial"":1,""time"":16714}]",NA,NA,NA,NA,NA,0,#741CD8,#D8271C,0,10,1,38,1,632,37,1,360,0,1,experiment,NA,NA,2,0.5,0.5,4,5,296,7,NA
fcp-trial,332,1208108,0.0-307.0-0.0,voc_e2,12196,"[{""event"":""fullscreenenter"",""trial"":1,""time"":16714}]",NA,NA,NA,NA,NA,5,#FA92F8,#1CD855,0,0,1,38,1,331.40000000596046,37,1,582.9000000059605,0,1,experiment,NA,NA,1,0.7,0.3,2,3,297,7,NA
fcp-trial,333,1210343,0.0-308.0-0.0,voc_e2,12196,"[{""event"":""fullscreenenter"",""trial"":1,""time"":16714}]",NA,NA,NA,NA,NA,4,#D89F1C,#3386FF,10,0,1,38,1,379,37,1,334.80000001192093,10,1,experiment,NA,NA,0,0.9,0.1,0,1,298,7,NA
fcp-trial,334,1212844,0.0-309.0-0.0,voc_e2,12196,"[{""event"":""fullscreenenter"",""trial"":1,""time"":16714}]",NA,NA,NA,NA,NA,0,#3386FF,#D89F1C,0,10,0,38,1,346.09999999403954,39,0,634.2999999821186,10,1,experiment,NA,NA,0,0.1,0.9,1,0,299,7,NA
fcp-trial,335,1215202,0.0-310.0-0.0,voc_e2,12196,"[{""event"":""fullscreenenter"",""trial"":1,""time"":16714}]",NA,NA,NA,NA,NA,5,#D8271C,#741CD8,0,0,0,38,1,532.5999999940395,39,0,300.7999999821186,0,1,experiment,NA,NA,2,0.5,0.5,5,4,300,7,NA
fcp-trial,336,1217881,0.0-311.0-0.0,voc_e2,12196,"[{""event"":""fullscreenenter"",""trial"":1,""time"":16714}]",NA,NA,NA,NA,NA,6,#741CD8,#D8271C,10,10,1,40,0,699.6999999880791,39,0,458.39999997615814,10,0,experiment,NA,NA,2,0.5,0.5,4,5,301,7,NA
fcp-trial,337,1220702,0.0-312.0-0.0,voc_e2,12196,"[{""event"":""fullscreenenter"",""trial"":1,""time"":16714}]",NA,NA,NA,NA,NA,1,#1CD855,#FA92F8,0,0,0,38,1,1025.4000000059605,39,0,279.09999999403954,0,1,experiment,NA,NA,1,0.3,0.7,3,2,302,7,NA
fcp-trial,338,1223195,0.0-313.0-0.0,voc_e2,12196,"[{""event"":""fullscreenenter"",""trial"":1,""time"":16714}]",NA,NA,NA,NA,NA,2,#D8271C,#741CD8,10,10,0,40,0,635.5,39,0,339.2999999821186,10,1,experiment,NA,NA,2,0.5,0.5,5,4,303,7,NA
fcp-trial,339,1225768,0.0-314.0-0.0,voc_e2,12196,"[{""event"":""fullscreenenter"",""trial"":1,""time"":16714}]",NA,NA,NA,NA,NA,6,#3386FF,#D89F1C,10,10,0,40,0,552.9000000059605,37,1,498.5,10,0,experiment,NA,NA,0,0.1,0.9,1,0,304,7,NA
fcp-trial,340,1228406,0.0-315.0-0.0,voc_e2,12196,"[{""event"":""fullscreenenter"",""trial"":1,""time"":16714}]",NA,NA,NA,NA,NA,2,#3386FF,#D89F1C,0,10,0,40,0,778.1999999880791,39,0,342,10,1,experiment,NA,NA,0,0.1,0.9,1,0,305,7,NA
fcp-trial,341,1230963,0.0-316.0-0.0,voc_e2,12196,"[{""event"":""fullscreenenter"",""trial"":1,""time"":16714}]",NA,NA,NA,NA,NA,6,#1CD855,#FA92F8,0,10,0,40,0,734.7999999821186,39,0,304.89999997615814,10,1,experiment,NA,NA,1,0.3,0.7,3,2,306,7,NA
fcp-trial,342,1233345,0.0-317.0-0.0,voc_e2,12196,"[{""event"":""fullscreenenter"",""trial"":1,""time"":16714}]",NA,NA,NA,NA,NA,4,#D8271C,#741CD8,10,0,0,40,0,583,39,0,276.10000002384186,0,1,experiment,NA,NA,2,0.5,0.5,5,4,307,7,NA
fcp-trial,343,1235794,0.0-318.0-0.0,voc_e2,12196,"[{""event"":""fullscreenenter"",""trial"":1,""time"":16714}]",NA,NA,NA,NA,NA,2,#1CD855,#FA92F8,0,10,0,40,0,515.3000000119209,39,0,410.800000011921,10,1,experiment,NA,NA,1,0.3,0.7,3,2,308,7,NA
fcp-trial,344,1238272,0.0-319.0-0.0,voc_e2,12196,"[{""event"":""fullscreenenter"",""trial"":1,""time"":16714}]",NA,NA,NA,NA,NA,3,#3386FF,#D89F1C,10,10,0,40,0,549.0999999940395,39,0,408.59999999403954,10,1,experiment,NA,NA,0,0.1,0.9,1,0,309,7,NA
fcp-trial,345,1240832,0.0-320.0-0.0,voc_e2,12196,"[{""event"":""fullscreenenter"",""trial"":1,""time"":16714}]",NA,NA,NA,NA,NA,1,#D8271C,#741CD8,10,0,0,40,0,731.5,39,0,308.59999999403954,0,1,experiment,NA,NA,2,0.5,0.5,5,4,310,7,NA
fcp-trial,346,1243349,0.0-321.0-0.0,voc_e2,12196,"[{""event"":""fullscreenenter"",""trial"":1,""time"":16714}]",NA,NA,NA,NA,NA,3,#D8271C,#741CD8,0,10,0,40,0,529.7000000178814,37,1,463.699999988079,0,0,experiment,NA,NA,2,0.5,0.5,5,4,311,7,NA
fcp-trial,347,1245885,0.0-322.0-0.0,voc_e2,12196,"[{""event"":""fullscreenenter"",""trial"":1,""time"":16714}]",NA,NA,NA,NA,NA,0,#FA92F8,#1CD855,0,10,1,38,1,665.4000000059605,37,1,351.19999998807907,0,1,experiment,NA,NA,1,0.7,0.3,2,3,312,7,NA
fcp-trial,348,1248453,0.0-323.0-0.0,voc_e2,12196,"[{""event"":""fullscreenenter"",""trial"":1,""time"":16714}]",NA,NA,NA,NA,NA,5,#3386FF,#D89F1C,0,10,0,40,0,556.2999999821186,37,1,485.300000011921,0,0,experiment,NA,NA,0,0.1,0.9,1,0,313,7,NA
fcp-trial,349,1251385,0.0-324.0-0.0,voc_e2,12196,"[{""event"":""fullscreenenter"",""trial"":1,""time"":16714}]",NA,NA,NA,NA,NA,1,#3386FF,#D89F1C,0,10,0,38,1,759.5999999940395,39,0,648.0999999940395,10,1,experiment,NA,NA,0,0.1,0.9,1,0,314,7,NA
fcp-trial,350,1254193,0.0-325.0-0.0,voc_e2,12196,"[{""event"":""fullscreenenter"",""trial"":1,""time"":16714}]",NA,NA,NA,NA,NA,3,#1CD855,#FA92F8,0,0,0,38,1,673.9000000059605,39,0,614.8999999761581,0,1,experiment,NA,NA,1,0.3,0.7,3,2,315,7,NA
audio-instructions,351,1260650,0.0-326.0,voc_e2,12196,"[{""event"":""fullscreenenter"",""trial"":1,""time"":16714}]",NA,745.6999999880791,static/audio/finished.wav,NA,0,NA,NA,NA,NA,NA,NA,NA,NA,NA,NA,NA,NA,NA,NA,NA,NA,NA,NA,NA,NA,NA,NA,NA,NA,NA
audio-instructions,352,1272203,0.0-327.0-0.0,voc_e2,12196,"[{""event"":""fullscreenenter"",""trial"":1,""time"":16714}]",NA,708.7000000178814,static/audio/explicit1.wav,NA,0,NA,NA,NA,NA,NA,NA,NA,NA,NA,NA,NA,NA,NA,NA,NA,NA,NA,NA,NA,NA,NA,NA,NA,NA,NA
audio-instructions,353,1280233,0.0-327.0-1.0,voc_e2,12196,"[{""event"":""fullscreenenter"",""trial"":1,""time"":16714}]",NA,428.199999988079,static/audio/explicit2.wav,NA,0,NA,NA,NA,NA,NA,NA,NA,NA,NA,NA,NA,NA,NA,NA,NA,NA,NA,NA,NA,NA,NA,NA,NA,NA,NA
image-slider-response,354,1283140,0.0-328.0,voc_e2,12196,"[{""event"":""fullscreenenter"",""trial"":1,""time"":16714}]",NA,2902.5,static/img/machines/machine1.png,NA,NA,NA,NA,NA,NA,NA,NA,NA,NA,NA,NA,NA,NA,NA,NA,explicit,NA,NA,NA,NA,NA,NA,NA,NA,NA,3
image-slider-response,355,1286019,0.0-329.0,voc_e2,12196,"[{""event"":""fullscreenenter"",""trial"":1,""time"":16714}]",NA,2875.5,static/img/machines/machine3.png,NA,NA,NA,NA,NA,NA,NA,NA,NA,NA,NA,NA,NA,NA,NA,NA,explicit,NA,NA,NA,NA,NA,NA,NA,NA,NA,2
image-slider-response,356,1288830,0.0-330.0,voc_e2,12196,"[{""event"":""fullscreenenter"",""trial"":1,""time"":16714}]",NA,2806.300000011921,static/img/machines/machine2.png,NA,NA,NA,NA,NA,NA,NA,NA,NA,NA,NA,NA,NA,NA,NA,NA,explicit,NA,NA,NA,NA,NA,NA,NA,NA,NA,6
image-slider-response,357,1290762,0.0-331.0,voc_e2,12196,"[{""event"":""fullscreenenter"",""trial"":1,""time"":16714}]",NA,1927.800000011921,static/img/machines/machine4.png,NA,NA,NA,NA,NA,NA,NA,NA,NA,NA,NA,NA,NA,NA,NA,NA,explicit,NA,NA,NA,NA,NA,NA,NA,NA,NA,8
image-slider-response,358,1293201,0.0-332.0,voc_e2,12196,"[{""event"":""fullscreenenter"",""trial"":1,""time"":16714}]",NA,2435,static/img/machines/machine5.png,NA,NA,NA,NA,NA,NA,NA,NA,NA,NA,NA,NA,NA,NA,NA,NA,explicit,NA,NA,NA,NA,NA,NA,NA,NA,NA,7
image-slider-response,359,1295716,0.0-333.0,voc_e2,12196,"[{""event"":""fullscreenenter"",""trial"":1,""time"":16714}]",NA,2511,static/img/machines/machine6.png,NA,NA,NA,NA,NA,NA,NA,NA,NA,NA,NA,NA,NA,NA,NA,NA,explicit,NA,NA,NA,NA,NA,NA,NA,NA,NA,1
