trial_type,trial_index,time_elapsed,internal_node_id,task_version,subject_id,interactions,success,rt,stimulus,key_press,button_pressed,offer,arcade_color_L,arcade_color_R,arcade_outcome_L,arcade_outcome_R,correct,stage_1_key,stage_1_choice,stage_1_rt,stage_2_key,stage_2_choice,stage_2_rt,stage_3_outcome,accuracy,phase,responses,num_errors,context,reward_prob_L,reward_prob_R,arcade_id_L,arcade_id_R,trial,block,response
pavlovia,0,17,0.0-0.0,voc_e2,11793,[],NA,NA,NA,NA,NA,NA,NA,NA,NA,NA,NA,NA,NA,NA,NA,NA,NA,NA,NA,NA,NA,NA,NA,NA,NA,NA,NA,NA,NA,NA
fullscreen,1,3112,0.0-1.0,voc_e2,11793,"[{""event"":""fullscreenenter"",""trial"":1,""time"":2197}]",TRUE,NA,NA,NA,NA,NA,NA,NA,NA,NA,NA,NA,NA,NA,NA,NA,NA,NA,NA,NA,NA,NA,NA,NA,NA,NA,NA,NA,NA,NA
audio-keyboard-response,2,6883,0.0-2.0,voc_e2,11793,"[{""event"":""fullscreenenter"",""trial"":1,""time"":2197}]",NA,0,static/audio/beep_loop.wav,32,NA,NA,NA,NA,NA,NA,NA,NA,NA,NA,NA,NA,NA,NA,NA,NA,NA,NA,NA,NA,NA,NA,NA,NA,NA,NA
audio-test,3,9106,0.0-3.0,voc_e2,11793,"[{""event"":""fullscreenenter"",""trial"":1,""time"":2197}]",NA,NA,static/audio/turtle.wav,NA,3,NA,NA,NA,NA,NA,NA,NA,NA,NA,NA,NA,NA,NA,NA,NA,NA,NA,NA,NA,NA,NA,NA,NA,NA,NA
audio-test,4,11494,0.0-4.0,voc_e2,11793,"[{""event"":""fullscreenenter"",""trial"":1,""time"":2197}]",NA,NA,static/audio/shark.wav,NA,2,NA,NA,NA,NA,NA,NA,NA,NA,NA,NA,NA,NA,NA,NA,NA,NA,NA,NA,NA,NA,NA,NA,NA,NA,NA
audio-instructions,5,37250,0.0-5.0-0.0,voc_e2,11793,"[{""event"":""fullscreenenter"",""trial"":1,""time"":2197}]",NA,19973.999999999996,static/audio/instructions1.wav,NA,0,NA,NA,NA,NA,NA,NA,NA,NA,NA,NA,NA,NA,NA,NA,NA,NA,NA,NA,NA,NA,NA,NA,NA,NA,NA
audio-instructions,6,46032,0.0-5.0-1.0,voc_e2,11793,"[{""event"":""fullscreenenter"",""trial"":1,""time"":2197}]",NA,2039.0000000000073,static/audio/instructions2.wav,NA,0,NA,NA,NA,NA,NA,NA,NA,NA,NA,NA,NA,NA,NA,NA,NA,NA,NA,NA,NA,NA,NA,NA,NA,NA,NA
audio-instructions,7,53704,0.0-5.0-2.0,voc_e2,11793,"[{""event"":""fullscreenenter"",""trial"":1,""time"":2197}]",NA,1865,static/audio/instructions3.wav,NA,0,NA,NA,NA,NA,NA,NA,NA,NA,NA,NA,NA,NA,NA,NA,NA,NA,NA,NA,NA,NA,NA,NA,NA,NA,NA
audio-instructions,8,68077,0.0-5.0-3.0,voc_e2,11793,"[{""event"":""fullscreenenter"",""trial"":1,""time"":2197}]",NA,1145.0000000000146,static/audio/instructions4.wav,NA,0,NA,NA,NA,NA,NA,NA,NA,NA,NA,NA,NA,NA,NA,NA,NA,NA,NA,NA,NA,NA,NA,NA,NA,NA,NA
audio-instructions,9,79535,0.0-5.0-4.0,voc_e2,11793,"[{""event"":""fullscreenenter"",""trial"":1,""time"":2197}]",NA,2071,static/audio/instructions5.wav,NA,0,NA,NA,NA,NA,NA,NA,NA,NA,NA,NA,NA,NA,NA,NA,NA,NA,NA,NA,NA,NA,NA,NA,NA,NA,NA
fcp-practice,10,90921,0.0-5.0-5.0-0.0,voc_e2,11793,"[{""event"":""fullscreenenter"",""trial"":1,""time"":2197}]",NA,NA,NA,NA,NA,NA,#EDC948,#46d3c8,10,0,1,null,null,null,37,1,9875,10,1,practice,NA,NA,NA,NA,NA,NA,NA,NA,NA,NA
fcp-practice,11,92979,0.0-5.0-5.0-1.0,voc_e2,11793,"[{""event"":""fullscreenenter"",""trial"":1,""time"":2197}]",NA,NA,NA,NA,NA,NA,#EDC948,#46d3c8,10,0,1,null,null,null,37,1,551.0000000000146,10,1,practice,NA,NA,NA,NA,NA,NA,NA,NA,NA,NA
fcp-practice,12,94930,0.0-5.0-5.0-2.0,voc_e2,11793,"[{""event"":""fullscreenenter"",""trial"":1,""time"":2197}]",NA,NA,NA,NA,NA,NA,#EDC948,#46d3c8,0,10,1,null,null,null,37,1,443.99999999998545,0,1,practice,NA,NA,NA,NA,NA,NA,NA,NA,NA,NA
fcp-practice,13,96886,0.0-5.0-5.0-3.0,voc_e2,11793,"[{""event"":""fullscreenenter"",""trial"":1,""time"":2197}]",NA,NA,NA,NA,NA,NA,#EDC948,#46d3c8,10,0,1,null,null,null,37,1,451,10,1,practice,NA,NA,NA,NA,NA,NA,NA,NA,NA,NA
fcp-practice,14,98891,0.0-5.0-5.0-4.0,voc_e2,11793,"[{""event"":""fullscreenenter"",""trial"":1,""time"":2197}]",NA,NA,NA,NA,NA,NA,#EDC948,#46d3c8,10,0,1,null,null,null,37,1,494,10,1,practice,NA,NA,NA,NA,NA,NA,NA,NA,NA,NA
audio-instructions,15,120105,0.0-5.0-6.0,voc_e2,11793,"[{""event"":""fullscreenenter"",""trial"":1,""time"":2197}]",NA,3202.0000000000146,static/audio/instructions6.wav,NA,0,NA,NA,NA,NA,NA,NA,NA,NA,NA,NA,NA,NA,NA,NA,NA,NA,NA,NA,NA,NA,NA,NA,NA,NA,NA
audio-instructions,16,139966,0.0-5.0-7.0,voc_e2,11793,"[{""event"":""fullscreenenter"",""trial"":1,""time"":2197}]",NA,660,static/audio/instructions7.wav,NA,0,NA,NA,NA,NA,NA,NA,NA,NA,NA,NA,NA,NA,NA,NA,NA,NA,NA,NA,NA,NA,NA,NA,NA,NA,NA
audio-instructions,17,151061,0.0-5.0-8.0,voc_e2,11793,"[{""event"":""fullscreenenter"",""trial"":1,""time"":2197}]",NA,1622.000000000029,static/audio/instructions8.wav,NA,0,NA,NA,NA,NA,NA,NA,NA,NA,NA,NA,NA,NA,NA,NA,NA,NA,NA,NA,NA,NA,NA,NA,NA,NA,NA
fcp-comprehension,18,162566,0.0-5.0-9.0,voc_e2,11793,"[{""event"":""fullscreenenter"",""trial"":1,""time"":2197}]",NA,11503,NA,NA,NA,NA,NA,NA,NA,NA,NA,NA,NA,NA,NA,NA,NA,NA,NA,NA,"false,true",1,NA,NA,NA,NA,NA,NA,NA,NA
audio-instructions,19,168097,0.0-5.1-0.1,voc_e2,11793,"[{""event"":""fullscreenenter"",""trial"":1,""time"":2197}]",NA,749,static/audio/instructions1.wav,NA,0,NA,NA,NA,NA,NA,NA,NA,NA,NA,NA,NA,NA,NA,NA,NA,NA,NA,NA,NA,NA,NA,NA,NA,NA,NA
audio-instructions,20,177138,0.0-5.1-1.1,voc_e2,11793,"[{""event"":""fullscreenenter"",""trial"":1,""time"":2197}]",NA,2299,static/audio/instructions2.wav,NA,0,NA,NA,NA,NA,NA,NA,NA,NA,NA,NA,NA,NA,NA,NA,NA,NA,NA,NA,NA,NA,NA,NA,NA,NA,NA
audio-instructions,21,184495,0.0-5.1-2.1,voc_e2,11793,"[{""event"":""fullscreenenter"",""trial"":1,""time"":2197}]",NA,1551.999999999971,static/audio/instructions3.wav,NA,0,NA,NA,NA,NA,NA,NA,NA,NA,NA,NA,NA,NA,NA,NA,NA,NA,NA,NA,NA,NA,NA,NA,NA,NA,NA
audio-instructions,22,198310,0.0-5.1-3.1,voc_e2,11793,"[{""event"":""fullscreenenter"",""trial"":1,""time"":2197}]",NA,586.9999999999709,static/audio/instructions4.wav,NA,0,NA,NA,NA,NA,NA,NA,NA,NA,NA,NA,NA,NA,NA,NA,NA,NA,NA,NA,NA,NA,NA,NA,NA,NA,NA
audio-instructions,23,209358,0.0-5.1-4.1,voc_e2,11793,"[{""event"":""fullscreenenter"",""trial"":1,""time"":2197}]",NA,1662,static/audio/instructions5.wav,NA,0,NA,NA,NA,NA,NA,NA,NA,NA,NA,NA,NA,NA,NA,NA,NA,NA,NA,NA,NA,NA,NA,NA,NA,NA,NA
fcp-practice,24,211775,0.0-5.1-5.1-0.1,voc_e2,11793,"[{""event"":""fullscreenenter"",""trial"":1,""time"":2197}]",NA,NA,NA,NA,NA,NA,#EDC948,#46d3c8,10,0,1,null,null,null,37,1,913,10,1,practice,NA,NA,NA,NA,NA,NA,NA,NA,NA,NA
fcp-practice,25,213312,0.0-5.1-5.1-1.1,voc_e2,11793,"[{""event"":""fullscreenenter"",""trial"":1,""time"":2197}]",NA,NA,NA,NA,NA,NA,#EDC948,#46d3c8,10,0,1,null,null,null,37,1,28.999999999970896,10,1,practice,NA,NA,NA,NA,NA,NA,NA,NA,NA,NA
fcp-practice,26,214951,0.0-5.1-5.1-2.1,voc_e2,11793,"[{""event"":""fullscreenenter"",""trial"":1,""time"":2197}]",NA,NA,NA,NA,NA,NA,#EDC948,#46d3c8,0,10,1,null,null,null,37,1,132.0000000000291,0,1,practice,NA,NA,NA,NA,NA,NA,NA,NA,NA,NA
fcp-practice,27,216782,0.0-5.1-5.1-3.1,voc_e2,11793,"[{""event"":""fullscreenenter"",""trial"":1,""time"":2197}]",NA,NA,NA,NA,NA,NA,#EDC948,#46d3c8,10,0,1,null,null,null,37,1,325,10,1,practice,NA,NA,NA,NA,NA,NA,NA,NA,NA,NA
fcp-practice,28,218440,0.0-5.1-5.1-4.1,voc_e2,11793,"[{""event"":""fullscreenenter"",""trial"":1,""time"":2197}]",NA,NA,NA,NA,NA,NA,#EDC948,#46d3c8,10,0,1,null,null,null,37,1,149.9999999999709,10,1,practice,NA,NA,NA,NA,NA,NA,NA,NA,NA,NA
audio-instructions,29,237844,0.0-5.1-6.1,voc_e2,11793,"[{""event"":""fullscreenenter"",""trial"":1,""time"":2197}]",NA,1394,static/audio/instructions6.wav,NA,0,NA,NA,NA,NA,NA,NA,NA,NA,NA,NA,NA,NA,NA,NA,NA,NA,NA,NA,NA,NA,NA,NA,NA,NA,NA
audio-instructions,30,257724,0.0-5.1-7.1,voc_e2,11793,"[{""event"":""fullscreenenter"",""trial"":1,""time"":2197}]",NA,680,static/audio/instructions7.wav,NA,0,NA,NA,NA,NA,NA,NA,NA,NA,NA,NA,NA,NA,NA,NA,NA,NA,NA,NA,NA,NA,NA,NA,NA,NA,NA
audio-instructions,31,268372,0.0-5.1-8.1,voc_e2,11793,"[{""event"":""fullscreenenter"",""trial"":1,""time"":2197}]",NA,1175,static/audio/instructions8.wav,NA,0,NA,NA,NA,NA,NA,NA,NA,NA,NA,NA,NA,NA,NA,NA,NA,NA,NA,NA,NA,NA,NA,NA,NA,NA,NA
fcp-comprehension,32,277434,0.0-5.1-9.1,voc_e2,11793,"[{""event"":""fullscreenenter"",""trial"":1,""time"":2197}]",NA,9059,NA,NA,NA,NA,NA,NA,NA,NA,NA,NA,NA,NA,NA,NA,NA,NA,NA,NA,"true,true",0,NA,NA,NA,NA,NA,NA,NA,NA
audio-instructions,33,284139,0.0-6.0-0.0,voc_e2,11793,"[{""event"":""fullscreenenter"",""trial"":1,""time"":2197}]",NA,1157,static/audio/instructions9.wav,NA,0,NA,NA,NA,NA,NA,NA,NA,NA,NA,NA,NA,NA,NA,NA,NA,NA,NA,NA,NA,NA,NA,NA,NA,NA,NA
audio-instructions,34,298400,0.0-6.0-1.0,voc_e2,11793,"[{""event"":""fullscreenenter"",""trial"":1,""time"":2197}]",NA,2142.000000000058,static/audio/instructions10.wav,NA,0,NA,NA,NA,NA,NA,NA,NA,NA,NA,NA,NA,NA,NA,NA,NA,NA,NA,NA,NA,NA,NA,NA,NA,NA,NA
fcp-trial,35,304420,0.0-6.0-2.0,voc_e2,11793,"[{""event"":""fullscreenenter"",""trial"":1,""time"":2197}]",NA,NA,NA,NA,NA,0,#EDC948,#46d3c8,10,10,1,38,1,2773,39,0,1737,10,0,practice,NA,NA,NA,NA,NA,NA,NA,NA,NA,NA
audio-instructions,36,317176,0.0-6.0-3.0,voc_e2,11793,"[{""event"":""fullscreenenter"",""trial"":1,""time"":2197}]",NA,1745,static/audio/instructions11.wav,NA,0,NA,NA,NA,NA,NA,NA,NA,NA,NA,NA,NA,NA,NA,NA,NA,NA,NA,NA,NA,NA,NA,NA,NA,NA,NA
fcp-trial,37,320823,0.0-6.0-4.0,voc_e2,11793,"[{""event"":""fullscreenenter"",""trial"":1,""time"":2197}]",NA,NA,NA,NA,NA,6,#EDC948,#46d3c8,10,10,1,40,0,844,37,1,1294,10,1,practice,NA,NA,NA,NA,NA,NA,NA,NA,NA,NA
audio-instructions,38,340655,0.0-6.0-5.0,voc_e2,11793,"[{""event"":""fullscreenenter"",""trial"":1,""time"":2197}]",NA,1142,static/audio/instructions12.wav,NA,0,NA,NA,NA,NA,NA,NA,NA,NA,NA,NA,NA,NA,NA,NA,NA,NA,NA,NA,NA,NA,NA,NA,NA,NA,NA
audio-instructions,39,349503,0.0-6.0-6.0,voc_e2,11793,"[{""event"":""fullscreenenter"",""trial"":1,""time"":2197}]",NA,1252,static/audio/instructions13.wav,NA,0,NA,NA,NA,NA,NA,NA,NA,NA,NA,NA,NA,NA,NA,NA,NA,NA,NA,NA,NA,NA,NA,NA,NA,NA,NA
audio-instructions,40,358543,0.0-6.0-7.0,voc_e2,11793,"[{""event"":""fullscreenenter"",""trial"":1,""time"":2197}]",NA,589,static/audio/instructions14.wav,NA,0,NA,NA,NA,NA,NA,NA,NA,NA,NA,NA,NA,NA,NA,NA,NA,NA,NA,NA,NA,NA,NA,NA,NA,NA,NA
audio-instructions,41,366578,0.0-7.0-0.0,voc_e2,11793,"[{""event"":""fullscreenenter"",""trial"":1,""time"":2197}]",NA,1121,static/audio/instructions15.wav,NA,0,NA,NA,NA,NA,NA,NA,NA,NA,NA,NA,NA,NA,NA,NA,NA,NA,NA,NA,NA,NA,NA,NA,NA,NA,NA
audio-instructions,42,374351,0.0-7.0-1.0,voc_e2,11793,"[{""event"":""fullscreenenter"",""trial"":1,""time"":2197}]",NA,944,static/audio/instructions16.wav,NA,0,NA,NA,NA,NA,NA,NA,NA,NA,NA,NA,NA,NA,NA,NA,NA,NA,NA,NA,NA,NA,NA,NA,NA,NA,NA
audio-instructions,43,382842,0.0-7.0-2.0,voc_e2,11793,"[{""event"":""fullscreenenter"",""trial"":1,""time"":2197}]",NA,811.0000000000582,static/audio/instructions17.wav,NA,0,NA,NA,NA,NA,NA,NA,NA,NA,NA,NA,NA,NA,NA,NA,NA,NA,NA,NA,NA,NA,NA,NA,NA,NA,NA
audio-instructions,44,391983,0.0-7.0-3.0,voc_e2,11793,"[{""event"":""fullscreenenter"",""trial"":1,""time"":2197}]",NA,1373,static/audio/instructions18.wav,NA,0,NA,NA,NA,NA,NA,NA,NA,NA,NA,NA,NA,NA,NA,NA,NA,NA,NA,NA,NA,NA,NA,NA,NA,NA,NA
audio-instructions,45,399385,0.0-7.0-4.0,voc_e2,11793,"[{""event"":""fullscreenenter"",""trial"":1,""time"":2197}]",NA,659,static/audio/instructions19.wav,NA,0,NA,NA,NA,NA,NA,NA,NA,NA,NA,NA,NA,NA,NA,NA,NA,NA,NA,NA,NA,NA,NA,NA,NA,NA,NA
fcp-comprehension,46,413278,0.0-7.0-5.0,voc_e2,11793,"[{""event"":""fullscreenenter"",""trial"":1,""time"":2197}]",NA,13891,NA,NA,NA,NA,NA,NA,NA,NA,NA,NA,NA,NA,NA,NA,NA,NA,NA,NA,"false,false,false,true",0,NA,NA,NA,NA,NA,NA,NA,NA
audio-instructions,47,423220,0.0-8.0,voc_e2,11793,"[{""event"":""fullscreenenter"",""trial"":1,""time"":2197}]",NA,719,static/audio/ready.wav,NA,0,NA,NA,NA,NA,NA,NA,NA,NA,NA,NA,NA,NA,NA,NA,NA,NA,NA,NA,NA,NA,NA,NA,NA,NA,NA
fcp-trial,48,428396,0.0-9.0-0.0,voc_e2,11793,"[{""event"":""fullscreenenter"",""trial"":1,""time"":2197}]",NA,NA,NA,NA,NA,4,#D89F1C,#3386FF,10,0,0,40,0,2089,37,1,1580,10,0,experiment,NA,NA,1,0.3,0.7,3,2,1,1,NA
fcp-trial,49,432113,0.0-10.0-0.0,voc_e2,11793,"[{""event"":""fullscreenenter"",""trial"":1,""time"":2197}]",NA,NA,NA,NA,NA,1,#D8271C,#741CD8,10,10,0,40,0,1465,39,0,741,10,1,experiment,NA,NA,0,0.1,0.9,1,0,2,1,NA
fcp-trial,50,435766,0.0-11.0-0.0,voc_e2,11793,"[{""event"":""fullscreenenter"",""trial"":1,""time"":2197}]",NA,NA,NA,NA,NA,1,#1CD855,#FA92F8,10,10,0,38,1,1213,39,0,931,10,1,experiment,NA,NA,2,0.5,0.5,5,4,3,1,NA
fcp-trial,51,439207,0.0-12.0-0.0,voc_e2,11793,"[{""event"":""fullscreenenter"",""trial"":1,""time"":2197}]",NA,NA,NA,NA,NA,0,#741CD8,#D8271C,10,0,1,40,0,1261,39,0,671,0,0,experiment,NA,NA,0,0.9,0.1,0,1,4,1,NA
fcp-trial,52,443331,0.0-13.0-0.0,voc_e2,11793,"[{""event"":""fullscreenenter"",""trial"":1,""time"":2197}]",NA,NA,NA,NA,NA,3,#3386FF,#D89F1C,10,0,1,38,1,1519,37,1,1092.0000000000582,10,1,experiment,NA,NA,1,0.7,0.3,2,3,5,1,NA
fcp-trial,53,447562,0.0-14.0-0.0,voc_e2,11793,"[{""event"":""fullscreenenter"",""trial"":1,""time"":2197}]",NA,NA,NA,NA,NA,5,#D8271C,#741CD8,0,10,0,38,1,1999.0000000000582,39,0,686.9999999999418,10,1,experiment,NA,NA,0,0.1,0.9,1,0,6,1,NA
fcp-trial,54,450857,0.0-15.0-0.0,voc_e2,11793,"[{""event"":""fullscreenenter"",""trial"":1,""time"":2197}]",NA,NA,NA,NA,NA,6,#3386FF,#D89F1C,10,0,1,38,1,986.0000000000582,39,0,763.9999999999418,0,0,experiment,NA,NA,1,0.7,0.3,2,3,7,1,NA
fcp-trial,55,453901,0.0-16.0-0.0,voc_e2,11793,"[{""event"":""fullscreenenter"",""trial"":1,""time"":2197}]",NA,NA,NA,NA,NA,3,#1CD855,#FA92F8,10,0,0,38,1,840,37,1,691,10,0,experiment,NA,NA,2,0.5,0.5,5,4,8,1,NA
fcp-trial,56,457758,0.0-17.0-0.0,voc_e2,11793,"[{""event"":""fullscreenenter"",""trial"":1,""time"":2197}]",NA,NA,NA,NA,NA,5,#3386FF,#D89F1C,10,10,1,40,0,1680,39,0,631,10,0,experiment,NA,NA,1,0.7,0.3,2,3,9,1,NA
fcp-trial,57,461089,0.0-18.0-0.0,voc_e2,11793,"[{""event"":""fullscreenenter"",""trial"":1,""time"":2197}]",NA,NA,NA,NA,NA,4,#D8271C,#741CD8,0,10,0,38,1,1077,37,1,741.0000000000582,0,0,experiment,NA,NA,0,0.1,0.9,1,0,10,1,NA
fcp-trial,58,464145,0.0-19.0-0.0,voc_e2,11793,"[{""event"":""fullscreenenter"",""trial"":1,""time"":2197}]",NA,NA,NA,NA,NA,3,#D8271C,#741CD8,10,10,0,40,0,633.0000000000582,37,1,878,10,0,experiment,NA,NA,0,0.1,0.9,1,0,11,1,NA
fcp-trial,59,467413,0.0-20.0-0.0,voc_e2,11793,"[{""event"":""fullscreenenter"",""trial"":1,""time"":2197}]",NA,NA,NA,NA,NA,5,#FA92F8,#1CD855,10,10,1,38,1,1165,39,0,592,10,0,experiment,NA,NA,2,0.5,0.5,4,5,12,1,NA
fcp-trial,60,470264,0.0-21.0-0.0,voc_e2,11793,"[{""event"":""fullscreenenter"",""trial"":1,""time"":2197}]",NA,NA,NA,NA,NA,6,#1CD855,#FA92F8,0,10,0,40,0,708,39,0,631,10,1,experiment,NA,NA,2,0.5,0.5,5,4,13,1,NA
fcp-trial,61,473815,0.0-22.0-0.0,voc_e2,11793,"[{""event"":""fullscreenenter"",""trial"":1,""time"":2197}]",NA,NA,NA,NA,NA,0,#3386FF,#D89F1C,0,0,1,38,1,909.0000000000582,37,1,1131,0,1,experiment,NA,NA,1,0.7,0.3,2,3,14,1,NA
fcp-trial,62,476433,0.0-23.0-0.0,voc_e2,11793,"[{""event"":""fullscreenenter"",""trial"":1,""time"":2197}]",NA,NA,NA,NA,NA,4,#FA92F8,#1CD855,0,10,1,40,0,507,39,0,599,10,0,experiment,NA,NA,2,0.5,0.5,4,5,15,1,NA
fcp-trial,63,478920,0.0-24.0-0.0,voc_e2,11793,"[{""event"":""fullscreenenter"",""trial"":1,""time"":2197}]",NA,NA,NA,NA,NA,6,#D8271C,#741CD8,0,10,0,40,0,529,37,1,446.0000000000582,0,0,experiment,NA,NA,0,0.1,0.9,1,0,16,1,NA
fcp-trial,64,482208,0.0-25.0-0.0,voc_e2,11793,"[{""event"":""fullscreenenter"",""trial"":1,""time"":2197}]",NA,NA,NA,NA,NA,2,#1CD855,#FA92F8,0,10,0,38,1,1154,39,0,618.9999999999418,10,1,experiment,NA,NA,2,0.5,0.5,5,4,17,1,NA
fcp-trial,65,485023,0.0-26.0-0.0,voc_e2,11793,"[{""event"":""fullscreenenter"",""trial"":1,""time"":2197}]",NA,NA,NA,NA,NA,1,#3386FF,#D89F1C,10,0,1,40,0,539,39,0,764,0,0,experiment,NA,NA,1,0.7,0.3,2,3,18,1,NA
fcp-trial,66,487988,0.0-27.0-0.0,voc_e2,11793,"[{""event"":""fullscreenenter"",""trial"":1,""time"":2197}]",NA,NA,NA,NA,NA,2,#3386FF,#D89F1C,10,0,1,38,1,874,37,1,577.0000000000582,10,1,experiment,NA,NA,1,0.7,0.3,2,3,19,1,NA
fcp-trial,67,491524,0.0-28.0-0.0,voc_e2,11793,"[{""event"":""fullscreenenter"",""trial"":1,""time"":2197}]",NA,NA,NA,NA,NA,2,#741CD8,#D8271C,10,10,1,38,1,954,37,1,1066,10,1,experiment,NA,NA,0,0.9,0.1,0,1,20,1,NA
fcp-trial,68,494796,0.0-29.0-0.0,voc_e2,11793,"[{""event"":""fullscreenenter"",""trial"":1,""time"":2197}]",NA,NA,NA,NA,NA,0,#1CD855,#FA92F8,10,10,0,38,1,1231,39,0,529.9999999999418,10,1,experiment,NA,NA,2,0.5,0.5,5,4,21,1,NA
fcp-trial,69,500160,0.0-30.0-0.0,voc_e2,11793,"[{""event"":""fullscreenenter"",""trial"":1,""time"":2197}]",NA,NA,NA,NA,NA,3,#FA92F8,#1CD855,10,10,1,38,1,3242.999999999942,37,1,609,10,1,experiment,NA,NA,2,0.5,0.5,4,5,22,1,NA
fcp-trial,70,503289,0.0-31.0-0.0,voc_e2,11793,"[{""event"":""fullscreenenter"",""trial"":1,""time"":2197}]",NA,NA,NA,NA,NA,5,#FA92F8,#1CD855,0,0,1,38,1,1138,39,0,473.9999999999418,0,0,experiment,NA,NA,2,0.5,0.5,4,5,23,1,NA
fcp-trial,71,506098,0.0-32.0-0.0,voc_e2,11793,"[{""event"":""fullscreenenter"",""trial"":1,""time"":2197}]",NA,NA,NA,NA,NA,2,#D89F1C,#3386FF,10,10,0,38,1,862,37,1,400,10,0,experiment,NA,NA,1,0.3,0.7,3,2,24,1,NA
fcp-trial,72,509239,0.0-33.0-0.0,voc_e2,11793,"[{""event"":""fullscreenenter"",""trial"":1,""time"":2197}]",NA,NA,NA,NA,NA,1,#D8271C,#741CD8,0,10,0,38,1,1288,39,0,340,10,1,experiment,NA,NA,0,0.1,0.9,1,0,25,1,NA
fcp-trial,73,512357,0.0-34.0-0.0,voc_e2,11793,"[{""event"":""fullscreenenter"",""trial"":1,""time"":2197}]",NA,NA,NA,NA,NA,0,#D8271C,#741CD8,0,10,0,38,1,1020,39,0,551.0000000000582,10,1,experiment,NA,NA,0,0.1,0.9,1,0,26,1,NA
fcp-trial,74,515000,0.0-35.0-0.0,voc_e2,11793,"[{""event"":""fullscreenenter"",""trial"":1,""time"":2197}]",NA,NA,NA,NA,NA,4,#3386FF,#D89F1C,0,0,1,38,1,658.9999999999418,39,0,472.9999999999418,0,0,experiment,NA,NA,1,0.7,0.3,2,3,27,1,NA
fcp-trial,75,518854,0.0-36.0-0.0,voc_e2,11793,"[{""event"":""fullscreenenter"",""trial"":1,""time"":2197}]",NA,NA,NA,NA,NA,6,#1CD855,#FA92F8,10,0,0,38,1,1990,37,1,350,10,0,experiment,NA,NA,2,0.5,0.5,5,4,28,1,NA
fcp-trial,76,522533,0.0-37.0-0.0,voc_e2,11793,"[{""event"":""fullscreenenter"",""trial"":1,""time"":2197}]",NA,NA,NA,NA,NA,2,#1CD855,#FA92F8,0,0,0,40,0,1691,39,0,474.9999999998836,0,1,experiment,NA,NA,2,0.5,0.5,5,4,29,1,NA
fcp-trial,77,527673,0.0-38.0-0.0,voc_e2,11793,"[{""event"":""fullscreenenter"",""trial"":1,""time"":2197}]",NA,NA,NA,NA,NA,5,#741CD8,#D8271C,10,0,1,38,1,1978,37,1,1649,10,1,experiment,NA,NA,0,0.9,0.1,0,1,30,1,NA
fcp-trial,78,536668,0.0-39.0-0.0,voc_e2,11793,"[{""event"":""fullscreenenter"",""trial"":1,""time"":2197},{""event"":""blur"",""trial"":78,""time"":527942},{""event"":""fullscreenexit"",""trial"":78,""time"":533307},{""event"":""focus"",""trial"":78,""time"":533384}]",NA,NA,NA,NA,NA,6,#741CD8,#D8271C,10,0,1,38,1,6807.999999999884,37,1,671,10,1,experiment,NA,NA,0,0.9,0.1,0,1,31,1,NA
fcp-trial,79,541180,0.0-40.0-0.0,voc_e2,11793,"[{""event"":""fullscreenenter"",""trial"":1,""time"":2197},{""event"":""blur"",""trial"":78,""time"":527942},{""event"":""fullscreenexit"",""trial"":78,""time"":533307},{""event"":""focus"",""trial"":78,""time"":533384}]",NA,NA,NA,NA,NA,3,#D89F1C,#3386FF,0,10,0,38,1,2655,39,0,309,10,1,experiment,NA,NA,1,0.3,0.7,3,2,32,1,NA
fcp-trial,80,545152,0.0-41.0-0.0,voc_e2,11793,"[{""event"":""fullscreenenter"",""trial"":1,""time"":2197},{""event"":""blur"",""trial"":78,""time"":527942},{""event"":""fullscreenexit"",""trial"":78,""time"":533307},{""event"":""focus"",""trial"":78,""time"":533384}]",NA,NA,NA,NA,NA,0,#FA92F8,#1CD855,10,0,1,38,1,1789,37,1,670,10,1,experiment,NA,NA,2,0.5,0.5,4,5,33,1,NA
fcp-trial,81,547893,0.0-42.0-0.0,voc_e2,11793,"[{""event"":""fullscreenenter"",""trial"":1,""time"":2197},{""event"":""blur"",""trial"":78,""time"":527942},{""event"":""fullscreenexit"",""trial"":78,""time"":533307},{""event"":""focus"",""trial"":78,""time"":533384}]",NA,NA,NA,NA,NA,6,#D89F1C,#3386FF,0,10,0,38,1,550,37,1,631,0,0,experiment,NA,NA,1,0.3,0.7,3,2,34,1,NA
fcp-trial,82,553297,0.0-43.0-0.0,voc_e2,11793,"[{""event"":""fullscreenenter"",""trial"":1,""time"":2197},{""event"":""blur"",""trial"":78,""time"":527942},{""event"":""fullscreenexit"",""trial"":78,""time"":533307},{""event"":""focus"",""trial"":78,""time"":533384}]",NA,NA,NA,NA,NA,3,#D8271C,#741CD8,0,10,0,40,0,3314.9999999998836,39,0,575,10,1,experiment,NA,NA,0,0.1,0.9,1,0,35,1,NA
fcp-trial,83,559511,0.0-44.0-0.0,voc_e2,11793,"[{""event"":""fullscreenenter"",""trial"":1,""time"":2197},{""event"":""blur"",""trial"":78,""time"":527942},{""event"":""fullscreenexit"",""trial"":78,""time"":533307},{""event"":""focus"",""trial"":78,""time"":533384}]",NA,NA,NA,NA,NA,4,#1CD855,#FA92F8,10,10,0,38,1,2826,37,1,1878.0000000001164,10,0,experiment,NA,NA,2,0.5,0.5,5,4,36,1,NA
fcp-trial,84,568296,0.0-45.0-0.0,voc_e2,11793,"[{""event"":""fullscreenenter"",""trial"":1,""time"":2197},{""event"":""blur"",""trial"":78,""time"":527942},{""event"":""fullscreenexit"",""trial"":78,""time"":533307},{""event"":""focus"",""trial"":78,""time"":533384}]",NA,NA,NA,NA,NA,5,#3386FF,#D89F1C,10,0,1,38,1,6552,37,1,688,10,1,experiment,NA,NA,1,0.7,0.3,2,3,37,1,NA
fcp-trial,85,574324,0.0-46.0-0.0,voc_e2,11793,"[{""event"":""fullscreenenter"",""trial"":1,""time"":2197},{""event"":""blur"",""trial"":78,""time"":527942},{""event"":""fullscreenexit"",""trial"":78,""time"":533307},{""event"":""focus"",""trial"":78,""time"":533384}]",NA,NA,NA,NA,NA,2,#D8271C,#741CD8,0,10,0,38,1,3638,37,1,877,0,0,experiment,NA,NA,0,0.1,0.9,1,0,38,1,NA
fcp-trial,86,584326,0.0-47.0-0.0,voc_e2,11793,"[{""event"":""fullscreenenter"",""trial"":1,""time"":2197},{""event"":""blur"",""trial"":78,""time"":527942},{""event"":""fullscreenexit"",""trial"":78,""time"":533307},{""event"":""focus"",""trial"":78,""time"":533384}]",NA,NA,NA,NA,NA,1,#FA92F8,#1CD855,10,10,1,38,1,8061,37,1,429,10,1,experiment,NA,NA,2,0.5,0.5,4,5,39,1,NA
fcp-trial,87,588339,0.0-48.0-0.0,voc_e2,11793,"[{""event"":""fullscreenenter"",""trial"":1,""time"":2197},{""event"":""blur"",""trial"":78,""time"":527942},{""event"":""fullscreenexit"",""trial"":78,""time"":533307},{""event"":""focus"",""trial"":78,""time"":533384}]",NA,NA,NA,NA,NA,0,#D89F1C,#3386FF,10,0,0,38,1,2045.0000000001164,37,1,455,10,0,experiment,NA,NA,1,0.3,0.7,3,2,40,1,NA
fcp-trial,88,591788,0.0-49.0-0.0,voc_e2,11793,"[{""event"":""fullscreenenter"",""trial"":1,""time"":2197},{""event"":""blur"",""trial"":78,""time"":527942},{""event"":""fullscreenexit"",""trial"":78,""time"":533307},{""event"":""focus"",""trial"":78,""time"":533384}]",NA,NA,NA,NA,NA,4,#D8271C,#741CD8,0,10,0,38,1,1480,37,1,423,0,0,experiment,NA,NA,0,0.1,0.9,1,0,41,1,NA
fcp-trial,89,598401,0.0-50.0-0.0,voc_e2,11793,"[{""event"":""fullscreenenter"",""trial"":1,""time"":2197},{""event"":""blur"",""trial"":78,""time"":527942},{""event"":""fullscreenexit"",""trial"":78,""time"":533307},{""event"":""focus"",""trial"":78,""time"":533384}]",NA,NA,NA,NA,NA,1,#D89F1C,#3386FF,0,0,0,38,1,4634,39,0,425,0,1,experiment,NA,NA,1,0.3,0.7,3,2,42,1,NA
fcp-trial,90,601124,0.0-51.0-0.0,voc_e2,11793,"[{""event"":""fullscreenenter"",""trial"":1,""time"":2197},{""event"":""blur"",""trial"":78,""time"":527942},{""event"":""fullscreenexit"",""trial"":78,""time"":533307},{""event"":""focus"",""trial"":78,""time"":533384}]",NA,NA,NA,NA,NA,1,#1CD855,#FA92F8,0,0,0,38,1,793.9999999998836,37,1,418,0,0,experiment,NA,NA,2,0.5,0.5,5,4,43,1,NA
fcp-trial,91,603628,0.0-52.0-0.0,voc_e2,11793,"[{""event"":""fullscreenenter"",""trial"":1,""time"":2197},{""event"":""blur"",""trial"":78,""time"":527942},{""event"":""fullscreenexit"",""trial"":78,""time"":533307},{""event"":""focus"",""trial"":78,""time"":533384}]",NA,NA,NA,NA,NA,2,#1CD855,#FA92F8,10,0,0,38,1,555,39,0,436,0,1,experiment,NA,NA,2,0.5,0.5,5,4,44,1,NA
fcp-trial,92,606181,0.0-53.0-0.0,voc_e2,11793,"[{""event"":""fullscreenenter"",""trial"":1,""time"":2197},{""event"":""blur"",""trial"":78,""time"":527942},{""event"":""fullscreenexit"",""trial"":78,""time"":533307},{""event"":""focus"",""trial"":78,""time"":533384}]",NA,NA,NA,NA,NA,1,#D89F1C,#3386FF,0,10,0,38,1,398,39,0,609,10,1,experiment,NA,NA,1,0.3,0.7,3,2,45,1,NA
fcp-trial,93,608781,0.0-54.0-0.0,voc_e2,11793,"[{""event"":""fullscreenenter"",""trial"":1,""time"":2197},{""event"":""blur"",""trial"":78,""time"":527942},{""event"":""fullscreenexit"",""trial"":78,""time"":533307},{""event"":""focus"",""trial"":78,""time"":533384}]",NA,NA,NA,NA,NA,1,#D8271C,#741CD8,0,10,0,38,1,451,37,1,601,0,0,experiment,NA,NA,0,0.1,0.9,1,0,46,2,NA
fcp-trial,94,611666,0.0-55.0-0.0,voc_e2,11793,"[{""event"":""fullscreenenter"",""trial"":1,""time"":2197},{""event"":""blur"",""trial"":78,""time"":527942},{""event"":""fullscreenexit"",""trial"":78,""time"":533307},{""event"":""focus"",""trial"":78,""time"":533384}]",NA,NA,NA,NA,NA,6,#D89F1C,#3386FF,0,0,0,40,0,647,39,0,693,0,1,experiment,NA,NA,1,0.3,0.7,3,2,47,2,NA
fcp-trial,95,615077,0.0-56.0-0.0,voc_e2,11793,"[{""event"":""fullscreenenter"",""trial"":1,""time"":2197},{""event"":""blur"",""trial"":78,""time"":527942},{""event"":""fullscreenexit"",""trial"":78,""time"":533307},{""event"":""focus"",""trial"":78,""time"":533384}]",NA,NA,NA,NA,NA,3,#D8271C,#741CD8,0,10,0,38,1,1364,39,0,502,10,1,experiment,NA,NA,0,0.1,0.9,1,0,48,2,NA
fcp-trial,96,617680,0.0-57.0-0.0,voc_e2,11793,"[{""event"":""fullscreenenter"",""trial"":1,""time"":2197},{""event"":""blur"",""trial"":78,""time"":527942},{""event"":""fullscreenexit"",""trial"":78,""time"":533307},{""event"":""focus"",""trial"":78,""time"":533384}]",NA,NA,NA,NA,NA,4,#1CD855,#FA92F8,10,0,0,38,1,506,37,1,585,10,0,experiment,NA,NA,2,0.5,0.5,5,4,49,2,NA
fcp-trial,97,620025,0.0-58.0-0.0,voc_e2,11793,"[{""event"":""fullscreenenter"",""trial"":1,""time"":2197},{""event"":""blur"",""trial"":78,""time"":527942},{""event"":""fullscreenexit"",""trial"":78,""time"":533307},{""event"":""focus"",""trial"":78,""time"":533384}]",NA,NA,NA,NA,NA,2,#741CD8,#D8271C,10,0,1,38,1,77,37,1,723,10,1,experiment,NA,NA,0,0.9,0.1,0,1,50,2,NA
fcp-trial,98,622712,0.0-59.0-0.0,voc_e2,11793,"[{""event"":""fullscreenenter"",""trial"":1,""time"":2197},{""event"":""blur"",""trial"":78,""time"":527942},{""event"":""fullscreenexit"",""trial"":78,""time"":533307},{""event"":""focus"",""trial"":78,""time"":533384}]",NA,NA,NA,NA,NA,5,#3386FF,#D89F1C,10,0,1,38,1,642.9999999998836,37,1,531.9999999998836,10,1,experiment,NA,NA,1,0.7,0.3,2,3,51,2,NA
fcp-trial,99,625312,0.0-60.0-0.0,voc_e2,11793,"[{""event"":""fullscreenenter"",""trial"":1,""time"":2197},{""event"":""blur"",""trial"":78,""time"":527942},{""event"":""fullscreenexit"",""trial"":78,""time"":533307},{""event"":""focus"",""trial"":78,""time"":533384}]",NA,NA,NA,NA,NA,0,#D8271C,#741CD8,0,10,0,38,1,537,37,1,552,0,0,experiment,NA,NA,0,0.1,0.9,1,0,52,2,NA
fcp-trial,100,627870,0.0-61.0-0.0,voc_e2,11793,"[{""event"":""fullscreenenter"",""trial"":1,""time"":2197},{""event"":""blur"",""trial"":78,""time"":527942},{""event"":""fullscreenexit"",""trial"":78,""time"":533307},{""event"":""focus"",""trial"":78,""time"":533384}]",NA,NA,NA,NA,NA,3,#3386FF,#D89F1C,10,0,1,38,1,546,37,1,497,10,1,experiment,NA,NA,1,0.7,0.3,2,3,53,2,NA
fcp-trial,101,630605,0.0-62.0-0.0,voc_e2,11793,"[{""event"":""fullscreenenter"",""trial"":1,""time"":2197},{""event"":""blur"",""trial"":78,""time"":527942},{""event"":""fullscreenexit"",""trial"":78,""time"":533307},{""event"":""focus"",""trial"":78,""time"":533384}]",NA,NA,NA,NA,NA,6,#FA92F8,#1CD855,10,10,1,38,1,549,37,1,640.9999999998836,10,1,experiment,NA,NA,2,0.5,0.5,4,5,54,2,NA
fcp-trial,102,633187,0.0-63.0-0.0,voc_e2,11793,"[{""event"":""fullscreenenter"",""trial"":1,""time"":2197},{""event"":""blur"",""trial"":78,""time"":527942},{""event"":""fullscreenexit"",""trial"":78,""time"":533307},{""event"":""focus"",""trial"":78,""time"":533384}]",NA,NA,NA,NA,NA,5,#741CD8,#D8271C,10,0,1,38,1,531,37,1,538,10,1,experiment,NA,NA,0,0.9,0.1,0,1,55,2,NA
fcp-trial,103,635735,0.0-64.0-0.0,voc_e2,11793,"[{""event"":""fullscreenenter"",""trial"":1,""time"":2197},{""event"":""blur"",""trial"":78,""time"":527942},{""event"":""fullscreenexit"",""trial"":78,""time"":533307},{""event"":""focus"",""trial"":78,""time"":533384}]",NA,NA,NA,NA,NA,0,#3386FF,#D89F1C,0,10,1,38,1,509,37,1,527,0,1,experiment,NA,NA,1,0.7,0.3,2,3,56,2,NA
fcp-trial,104,638301,0.0-65.0-0.0,voc_e2,11793,"[{""event"":""fullscreenenter"",""trial"":1,""time"":2197},{""event"":""blur"",""trial"":78,""time"":527942},{""event"":""fullscreenexit"",""trial"":78,""time"":533307},{""event"":""focus"",""trial"":78,""time"":533384}]",NA,NA,NA,NA,NA,3,#1CD855,#FA92F8,10,0,0,38,1,513,37,1,541,10,0,experiment,NA,NA,2,0.5,0.5,5,4,57,2,NA
fcp-trial,105,640874,0.0-66.0-0.0,voc_e2,11793,"[{""event"":""fullscreenenter"",""trial"":1,""time"":2197},{""event"":""blur"",""trial"":78,""time"":527942},{""event"":""fullscreenexit"",""trial"":78,""time"":533307},{""event"":""focus"",""trial"":78,""time"":533384}]",NA,NA,NA,NA,NA,6,#D8271C,#741CD8,0,10,0,40,0,520,39,0,540,10,1,experiment,NA,NA,0,0.1,0.9,1,0,58,2,NA
fcp-trial,106,643510,0.0-67.0-0.0,voc_e2,11793,"[{""event"":""fullscreenenter"",""trial"":1,""time"":2197},{""event"":""blur"",""trial"":78,""time"":527942},{""event"":""fullscreenexit"",""trial"":78,""time"":533307},{""event"":""focus"",""trial"":78,""time"":533384}]",NA,NA,NA,NA,NA,0,#FA92F8,#1CD855,10,10,1,40,0,516.0000000001164,39,0,574,10,0,experiment,NA,NA,2,0.5,0.5,4,5,59,2,NA
fcp-trial,107,646008,0.0-68.0-0.0,voc_e2,11793,"[{""event"":""fullscreenenter"",""trial"":1,""time"":2197},{""event"":""blur"",""trial"":78,""time"":527942},{""event"":""fullscreenexit"",""trial"":78,""time"":533307},{""event"":""focus"",""trial"":78,""time"":533384}]",NA,NA,NA,NA,NA,4,#3386FF,#D89F1C,10,0,1,40,0,390,37,1,562.0000000001164,10,1,experiment,NA,NA,1,0.7,0.3,2,3,60,2,NA
fcp-trial,108,648811,0.0-69.0-0.0,voc_e2,11793,"[{""event"":""fullscreenenter"",""trial"":1,""time"":2197},{""event"":""blur"",""trial"":78,""time"":527942},{""event"":""fullscreenexit"",""trial"":78,""time"":533307},{""event"":""focus"",""trial"":78,""time"":533384}]",NA,NA,NA,NA,NA,4,#741CD8,#D8271C,10,0,1,40,0,775,37,1,466.0000000001164,10,1,experiment,NA,NA,0,0.9,0.1,0,1,61,2,NA
fcp-trial,109,651318,0.0-70.0-0.0,voc_e2,11793,"[{""event"":""fullscreenenter"",""trial"":1,""time"":2197},{""event"":""blur"",""trial"":78,""time"":527942},{""event"":""fullscreenexit"",""trial"":78,""time"":533307},{""event"":""focus"",""trial"":78,""time"":533384}]",NA,NA,NA,NA,NA,5,#1CD855,#FA92F8,0,10,0,40,0,375,39,0,621,10,1,experiment,NA,NA,2,0.5,0.5,5,4,62,2,NA
fcp-trial,110,654563,0.0-71.0-0.0,voc_e2,11793,"[{""event"":""fullscreenenter"",""trial"":1,""time"":2197},{""event"":""blur"",""trial"":78,""time"":527942},{""event"":""fullscreenexit"",""trial"":78,""time"":533307},{""event"":""focus"",""trial"":78,""time"":533384}]",NA,NA,NA,NA,NA,2,#3386FF,#D89F1C,10,0,1,40,0,450,37,1,1280,10,1,experiment,NA,NA,1,0.7,0.3,2,3,63,2,NA
fcp-trial,111,657089,0.0-72.0-0.0,voc_e2,11793,"[{""event"":""fullscreenenter"",""trial"":1,""time"":2197},{""event"":""blur"",""trial"":78,""time"":527942},{""event"":""fullscreenexit"",""trial"":78,""time"":533307},{""event"":""focus"",""trial"":78,""time"":533384}]",NA,NA,NA,NA,NA,2,#D8271C,#741CD8,0,10,0,40,0,392.0000000001164,37,1,624.0000000001164,0,0,experiment,NA,NA,0,0.1,0.9,1,0,64,2,NA
fcp-trial,112,664741,0.0-73.0-0.0,voc_e2,11793,"[{""event"":""fullscreenenter"",""trial"":1,""time"":2197},{""event"":""blur"",""trial"":78,""time"":527942},{""event"":""fullscreenexit"",""trial"":78,""time"":533307},{""event"":""focus"",""trial"":78,""time"":533384}]",NA,NA,NA,NA,NA,6,#741CD8,#D8271C,10,0,1,40,0,5548,39,0,591,0,0,experiment,NA,NA,0,0.9,0.1,0,1,65,2,NA
fcp-trial,113,668843,0.0-74.0-0.0,voc_e2,11793,"[{""event"":""fullscreenenter"",""trial"":1,""time"":2197},{""event"":""blur"",""trial"":78,""time"":527942},{""event"":""fullscreenexit"",""trial"":78,""time"":533307},{""event"":""focus"",""trial"":78,""time"":533384}]",NA,NA,NA,NA,NA,0,#D8271C,#741CD8,0,10,0,40,0,2061,37,1,527,0,0,experiment,NA,NA,0,0.1,0.9,1,0,66,2,NA
fcp-trial,114,672630,0.0-75.0-0.0,voc_e2,11793,"[{""event"":""fullscreenenter"",""trial"":1,""time"":2197},{""event"":""blur"",""trial"":78,""time"":527942},{""event"":""fullscreenexit"",""trial"":78,""time"":533307},{""event"":""focus"",""trial"":78,""time"":533384}]",NA,NA,NA,NA,NA,5,#1CD855,#FA92F8,0,0,0,38,1,1876,37,1,399,0,0,experiment,NA,NA,2,0.5,0.5,5,4,67,2,NA
fcp-trial,115,676599,0.0-76.0-0.0,voc_e2,11793,"[{""event"":""fullscreenenter"",""trial"":1,""time"":2197},{""event"":""blur"",""trial"":78,""time"":527942},{""event"":""fullscreenexit"",""trial"":78,""time"":533307},{""event"":""focus"",""trial"":78,""time"":533384}]",NA,NA,NA,NA,NA,4,#D89F1C,#3386FF,10,10,0,38,1,1711,39,0,747,10,1,experiment,NA,NA,1,0.3,0.7,3,2,68,2,NA
fcp-trial,116,679921,0.0-77.0-0.0,voc_e2,11793,"[{""event"":""fullscreenenter"",""trial"":1,""time"":2197},{""event"":""blur"",""trial"":78,""time"":527942},{""event"":""fullscreenexit"",""trial"":78,""time"":533307},{""event"":""focus"",""trial"":78,""time"":533384}]",NA,NA,NA,NA,NA,2,#D89F1C,#3386FF,0,0,0,38,1,1359.9999999998836,39,0,450,0,1,experiment,NA,NA,1,0.3,0.7,3,2,69,2,NA
fcp-trial,117,682770,0.0-78.0-0.0,voc_e2,11793,"[{""event"":""fullscreenenter"",""trial"":1,""time"":2197},{""event"":""blur"",""trial"":78,""time"":527942},{""event"":""fullscreenexit"",""trial"":78,""time"":533307},{""event"":""focus"",""trial"":78,""time"":533384}]",NA,NA,NA,NA,NA,1,#D8271C,#741CD8,0,10,0,40,0,721,37,1,617,0,0,experiment,NA,NA,0,0.1,0.9,1,0,70,2,NA
fcp-trial,118,685762,0.0-79.0-0.0,voc_e2,11793,"[{""event"":""fullscreenenter"",""trial"":1,""time"":2197},{""event"":""blur"",""trial"":78,""time"":527942},{""event"":""fullscreenexit"",""trial"":78,""time"":533307},{""event"":""focus"",""trial"":78,""time"":533384}]",NA,NA,NA,NA,NA,6,#1CD855,#FA92F8,10,10,0,38,1,1165,37,1,317.0000000001164,10,0,experiment,NA,NA,2,0.5,0.5,5,4,71,2,NA
fcp-trial,119,689245,0.0-80.0-0.0,voc_e2,11793,"[{""event"":""fullscreenenter"",""trial"":1,""time"":2197},{""event"":""blur"",""trial"":78,""time"":527942},{""event"":""fullscreenexit"",""trial"":78,""time"":533307},{""event"":""focus"",""trial"":78,""time"":533384}]",NA,NA,NA,NA,NA,2,#FA92F8,#1CD855,10,10,1,38,1,1579,39,0,391,10,0,experiment,NA,NA,2,0.5,0.5,4,5,72,2,NA
fcp-trial,120,691828,0.0-81.0-0.0,voc_e2,11793,"[{""event"":""fullscreenenter"",""trial"":1,""time"":2197},{""event"":""blur"",""trial"":78,""time"":527942},{""event"":""fullscreenexit"",""trial"":78,""time"":533307},{""event"":""focus"",""trial"":78,""time"":533384}]",NA,NA,NA,NA,NA,6,#D89F1C,#3386FF,0,10,0,38,1,593,39,0,442,10,1,experiment,NA,NA,1,0.3,0.7,3,2,73,2,NA
fcp-trial,121,695044,0.0-82.0-0.0,voc_e2,11793,"[{""event"":""fullscreenenter"",""trial"":1,""time"":2197},{""event"":""blur"",""trial"":78,""time"":527942},{""event"":""fullscreenexit"",""trial"":78,""time"":533307},{""event"":""focus"",""trial"":78,""time"":533384}]",NA,NA,NA,NA,NA,5,#D8271C,#741CD8,0,10,0,38,1,1240,39,0,413,10,1,experiment,NA,NA,0,0.1,0.9,1,0,74,2,NA
fcp-trial,122,697921,0.0-83.0-0.0,voc_e2,11793,"[{""event"":""fullscreenenter"",""trial"":1,""time"":2197},{""event"":""blur"",""trial"":78,""time"":527942},{""event"":""fullscreenexit"",""trial"":78,""time"":533307},{""event"":""focus"",""trial"":78,""time"":533384}]",NA,NA,NA,NA,NA,4,#741CD8,#D8271C,10,10,1,40,0,788,37,1,580,10,1,experiment,NA,NA,0,0.9,0.1,0,1,75,2,NA
fcp-trial,123,700638,0.0-84.0-0.0,voc_e2,11793,"[{""event"":""fullscreenenter"",""trial"":1,""time"":2197},{""event"":""blur"",""trial"":78,""time"":527942},{""event"":""fullscreenexit"",""trial"":78,""time"":533307},{""event"":""focus"",""trial"":78,""time"":533384}]",NA,NA,NA,NA,NA,4,#FA92F8,#1CD855,10,0,1,40,0,661,37,1,546,10,1,experiment,NA,NA,2,0.5,0.5,4,5,76,2,NA
fcp-trial,124,703214,0.0-85.0-0.0,voc_e2,11793,"[{""event"":""fullscreenenter"",""trial"":1,""time"":2197},{""event"":""blur"",""trial"":78,""time"":527942},{""event"":""fullscreenexit"",""trial"":78,""time"":533307},{""event"":""focus"",""trial"":78,""time"":533384}]",NA,NA,NA,NA,NA,3,#D89F1C,#3386FF,0,10,0,38,1,717,39,0,344,10,1,experiment,NA,NA,1,0.3,0.7,3,2,77,2,NA
fcp-trial,125,705857,0.0-86.0-0.0,voc_e2,11793,"[{""event"":""fullscreenenter"",""trial"":1,""time"":2197},{""event"":""blur"",""trial"":78,""time"":527942},{""event"":""fullscreenexit"",""trial"":78,""time"":533307},{""event"":""focus"",""trial"":78,""time"":533384}]",NA,NA,NA,NA,NA,1,#3386FF,#D89F1C,10,0,1,38,1,584.0000000001164,37,1,493.9999999998836,10,1,experiment,NA,NA,1,0.7,0.3,2,3,78,2,NA
fcp-trial,126,708343,0.0-87.0-0.0,voc_e2,11793,"[{""event"":""fullscreenenter"",""trial"":1,""time"":2197},{""event"":""blur"",""trial"":78,""time"":527942},{""event"":""fullscreenexit"",""trial"":78,""time"":533307},{""event"":""focus"",""trial"":78,""time"":533384}]",NA,NA,NA,NA,NA,5,#D89F1C,#3386FF,0,10,0,38,1,541,37,1,432,0,0,experiment,NA,NA,1,0.3,0.7,3,2,79,2,NA
fcp-trial,127,710877,0.0-88.0-0.0,voc_e2,11793,"[{""event"":""fullscreenenter"",""trial"":1,""time"":2197},{""event"":""blur"",""trial"":78,""time"":527942},{""event"":""fullscreenexit"",""trial"":78,""time"":533307},{""event"":""focus"",""trial"":78,""time"":533384}]",NA,NA,NA,NA,NA,3,#D8271C,#741CD8,0,10,0,40,0,614.9999999998836,39,0,407,10,1,experiment,NA,NA,0,0.1,0.9,1,0,80,2,NA
fcp-trial,128,713472,0.0-89.0-0.0,voc_e2,11793,"[{""event"":""fullscreenenter"",""trial"":1,""time"":2197},{""event"":""blur"",""trial"":78,""time"":527942},{""event"":""fullscreenexit"",""trial"":78,""time"":533307},{""event"":""focus"",""trial"":78,""time"":533384}]",NA,NA,NA,NA,NA,3,#FA92F8,#1CD855,10,10,1,40,0,678,37,1,404,10,1,experiment,NA,NA,2,0.5,0.5,4,5,81,2,NA
fcp-trial,129,716092,0.0-90.0-0.0,voc_e2,11793,"[{""event"":""fullscreenenter"",""trial"":1,""time"":2197},{""event"":""blur"",""trial"":78,""time"":527942},{""event"":""fullscreenexit"",""trial"":78,""time"":533307},{""event"":""focus"",""trial"":78,""time"":533384}]",NA,NA,NA,NA,NA,0,#D89F1C,#3386FF,0,10,0,38,1,687,39,0,387,10,1,experiment,NA,NA,1,0.3,0.7,3,2,82,2,NA
fcp-trial,130,719176,0.0-91.0-0.0,voc_e2,11793,"[{""event"":""fullscreenenter"",""trial"":1,""time"":2197},{""event"":""blur"",""trial"":78,""time"":527942},{""event"":""fullscreenexit"",""trial"":78,""time"":533307},{""event"":""focus"",""trial"":78,""time"":533384}]",NA,NA,NA,NA,NA,0,#FA92F8,#1CD855,0,0,1,38,1,1079.0000000001164,39,0,460,0,0,experiment,NA,NA,2,0.5,0.5,4,5,83,2,NA
fcp-trial,131,721867,0.0-92.0-0.0,voc_e2,11793,"[{""event"":""fullscreenenter"",""trial"":1,""time"":2197},{""event"":""blur"",""trial"":78,""time"":527942},{""event"":""fullscreenexit"",""trial"":78,""time"":533307},{""event"":""focus"",""trial"":78,""time"":533384}]",NA,NA,NA,NA,NA,1,#FA92F8,#1CD855,10,10,1,38,1,787,37,1,392,10,1,experiment,NA,NA,2,0.5,0.5,4,5,84,2,NA
fcp-trial,132,724434,0.0-93.0-0.0,voc_e2,11793,"[{""event"":""fullscreenenter"",""trial"":1,""time"":2197},{""event"":""blur"",""trial"":78,""time"":527942},{""event"":""fullscreenexit"",""trial"":78,""time"":533307},{""event"":""focus"",""trial"":78,""time"":533384}]",NA,NA,NA,NA,NA,2,#D8271C,#741CD8,10,0,0,38,1,728.9999999998836,39,0,324.9999999998836,0,1,experiment,NA,NA,0,0.1,0.9,1,0,85,2,NA
fcp-trial,133,727086,0.0-94.0-0.0,voc_e2,11793,"[{""event"":""fullscreenenter"",""trial"":1,""time"":2197},{""event"":""blur"",""trial"":78,""time"":527942},{""event"":""fullscreenexit"",""trial"":78,""time"":533307},{""event"":""focus"",""trial"":78,""time"":533384}]",NA,NA,NA,NA,NA,0,#1CD855,#FA92F8,0,10,0,38,1,539.0000000001164,37,1,601,0,0,experiment,NA,NA,2,0.5,0.5,5,4,86,2,NA
fcp-trial,134,731054,0.0-95.0-0.0,voc_e2,11793,"[{""event"":""fullscreenenter"",""trial"":1,""time"":2197},{""event"":""blur"",""trial"":78,""time"":527942},{""event"":""fullscreenexit"",""trial"":78,""time"":533307},{""event"":""focus"",""trial"":78,""time"":533384}]",NA,NA,NA,NA,NA,0,#D8271C,#741CD8,10,10,0,38,1,1976,37,1,481,10,0,experiment,NA,NA,0,0.1,0.9,1,0,87,2,NA
fcp-trial,135,734823,0.0-96.0-0.0,voc_e2,11793,"[{""event"":""fullscreenenter"",""trial"":1,""time"":2197},{""event"":""blur"",""trial"":78,""time"":527942},{""event"":""fullscreenexit"",""trial"":78,""time"":533307},{""event"":""focus"",""trial"":78,""time"":533384}]",NA,NA,NA,NA,NA,3,#FA92F8,#1CD855,0,0,1,38,1,1782,37,1,476,0,1,experiment,NA,NA,2,0.5,0.5,4,5,88,2,NA
fcp-trial,136,749830,0.0-97.0-0.0,voc_e2,11793,"[{""event"":""fullscreenenter"",""trial"":1,""time"":2197},{""event"":""blur"",""trial"":78,""time"":527942},{""event"":""fullscreenexit"",""trial"":78,""time"":533307},{""event"":""focus"",""trial"":78,""time"":533384}]",NA,NA,NA,NA,NA,1,#D89F1C,#3386FF,10,0,0,null,null,null,null,null,null,NA,0,experiment,NA,NA,1,0.3,0.7,3,2,89,2,NA
fcp-trial,137,752938,0.0-98.0-0.0,voc_e2,11793,"[{""event"":""fullscreenenter"",""trial"":1,""time"":2197},{""event"":""blur"",""trial"":78,""time"":527942},{""event"":""fullscreenexit"",""trial"":78,""time"":533307},{""event"":""focus"",""trial"":78,""time"":533384}]",NA,NA,NA,NA,NA,4,#3386FF,#D89F1C,0,10,1,38,1,1156,37,1,437,0,1,experiment,NA,NA,1,0.7,0.3,2,3,90,2,NA
fcp-trial,138,755474,0.0-99.0-0.0,voc_e2,11793,"[{""event"":""fullscreenenter"",""trial"":1,""time"":2197},{""event"":""blur"",""trial"":78,""time"":527942},{""event"":""fullscreenexit"",""trial"":78,""time"":533307},{""event"":""focus"",""trial"":78,""time"":533384}]",NA,NA,NA,NA,NA,3,#741CD8,#D8271C,10,0,1,38,1,534,37,1,487,10,1,experiment,NA,NA,0,0.9,0.1,0,1,91,3,NA
fcp-trial,139,757989,0.0-100.0-0.0,voc_e2,11793,"[{""event"":""fullscreenenter"",""trial"":1,""time"":2197},{""event"":""blur"",""trial"":78,""time"":527942},{""event"":""fullscreenexit"",""trial"":78,""time"":533307},{""event"":""focus"",""trial"":78,""time"":533384}]",NA,NA,NA,NA,NA,1,#1CD855,#FA92F8,10,10,0,38,1,598,37,1,373.0000000001164,10,0,experiment,NA,NA,2,0.5,0.5,5,4,92,3,NA
fcp-trial,140,760284,0.0-101.0-0.0,voc_e2,11793,"[{""event"":""fullscreenenter"",""trial"":1,""time"":2197},{""event"":""blur"",""trial"":78,""time"":527942},{""event"":""fullscreenexit"",""trial"":78,""time"":533307},{""event"":""focus"",""trial"":78,""time"":533384}]",NA,NA,NA,NA,NA,0,#3386FF,#D89F1C,0,0,1,38,1,433,37,1,350,0,1,experiment,NA,NA,1,0.7,0.3,2,3,93,3,NA
fcp-trial,141,763044,0.0-102.0-0.0,voc_e2,11793,"[{""event"":""fullscreenenter"",""trial"":1,""time"":2197},{""event"":""blur"",""trial"":78,""time"":527942},{""event"":""fullscreenexit"",""trial"":78,""time"":533307},{""event"":""focus"",""trial"":78,""time"":533384}]",NA,NA,NA,NA,NA,5,#FA92F8,#1CD855,0,10,1,38,1,928,39,0,320,10,0,experiment,NA,NA,2,0.5,0.5,4,5,94,3,NA
fcp-trial,142,765276,0.0-103.0-0.0,voc_e2,11793,"[{""event"":""fullscreenenter"",""trial"":1,""time"":2197},{""event"":""blur"",""trial"":78,""time"":527942},{""event"":""fullscreenexit"",""trial"":78,""time"":533307},{""event"":""focus"",""trial"":78,""time"":533384}]",NA,NA,NA,NA,NA,4,#D8271C,#741CD8,10,10,0,38,1,313,37,1,373.9999999998836,10,0,experiment,NA,NA,0,0.1,0.9,1,0,95,3,NA
fcp-trial,143,767791,0.0-104.0-0.0,voc_e2,11793,"[{""event"":""fullscreenenter"",""trial"":1,""time"":2197},{""event"":""blur"",""trial"":78,""time"":527942},{""event"":""fullscreenexit"",""trial"":78,""time"":533307},{""event"":""focus"",""trial"":78,""time"":533384}]",NA,NA,NA,NA,NA,2,#D89F1C,#3386FF,10,10,0,38,1,465.0000000001164,39,0,538,10,1,experiment,NA,NA,1,0.3,0.7,3,2,96,3,NA
fcp-trial,144,770454,0.0-105.0-0.0,voc_e2,11793,"[{""event"":""fullscreenenter"",""trial"":1,""time"":2197},{""event"":""blur"",""trial"":78,""time"":527942},{""event"":""fullscreenexit"",""trial"":78,""time"":533307},{""event"":""focus"",""trial"":78,""time"":533384}]",NA,NA,NA,NA,NA,4,#1CD855,#FA92F8,0,10,0,40,0,541,37,1,610,0,0,experiment,NA,NA,2,0.5,0.5,5,4,97,3,NA
fcp-trial,145,773053,0.0-106.0-0.0,voc_e2,11793,"[{""event"":""fullscreenenter"",""trial"":1,""time"":2197},{""event"":""blur"",""trial"":78,""time"":527942},{""event"":""fullscreenexit"",""trial"":78,""time"":533307},{""event"":""focus"",""trial"":78,""time"":533384}]",NA,NA,NA,NA,NA,6,#1CD855,#FA92F8,0,10,0,40,0,350,37,1,737.0000000001164,0,0,experiment,NA,NA,2,0.5,0.5,5,4,98,3,NA
fcp-trial,146,775749,0.0-107.0-0.0,voc_e2,11793,"[{""event"":""fullscreenenter"",""trial"":1,""time"":2197},{""event"":""blur"",""trial"":78,""time"":527942},{""event"":""fullscreenexit"",""trial"":78,""time"":533307},{""event"":""focus"",""trial"":78,""time"":533384}]",NA,NA,NA,NA,NA,5,#741CD8,#D8271C,10,10,1,38,1,630,37,1,554,10,1,experiment,NA,NA,0,0.9,0.1,0,1,99,3,NA
fcp-trial,147,778314,0.0-108.0-0.0,voc_e2,11793,"[{""event"":""fullscreenenter"",""trial"":1,""time"":2197},{""event"":""blur"",""trial"":78,""time"":527942},{""event"":""fullscreenexit"",""trial"":78,""time"":533307},{""event"":""focus"",""trial"":78,""time"":533384}]",NA,NA,NA,NA,NA,3,#3386FF,#D89F1C,10,0,1,38,1,412,39,0,605,0,0,experiment,NA,NA,1,0.7,0.3,2,3,100,3,NA
fcp-trial,148,780606,0.0-109.0-0.0,voc_e2,11793,"[{""event"":""fullscreenenter"",""trial"":1,""time"":2197},{""event"":""blur"",""trial"":78,""time"":527942},{""event"":""fullscreenexit"",""trial"":78,""time"":533307},{""event"":""focus"",""trial"":78,""time"":533384}]",NA,NA,NA,NA,NA,5,#3386FF,#D89F1C,10,10,1,38,1,455,37,1,325,10,1,experiment,NA,NA,1,0.7,0.3,2,3,101,3,NA
fcp-trial,149,782867,0.0-110.0-0.0,voc_e2,11793,"[{""event"":""fullscreenenter"",""trial"":1,""time"":2197},{""event"":""blur"",""trial"":78,""time"":527942},{""event"":""fullscreenexit"",""trial"":78,""time"":533307},{""event"":""focus"",""trial"":78,""time"":533384}]",NA,NA,NA,NA,NA,6,#741CD8,#D8271C,0,0,1,38,1,415,37,1,333.9999999998836,0,1,experiment,NA,NA,0,0.9,0.1,0,1,102,3,NA
fcp-trial,150,785351,0.0-111.0-0.0,voc_e2,11793,"[{""event"":""fullscreenenter"",""trial"":1,""time"":2197},{""event"":""blur"",""trial"":78,""time"":527942},{""event"":""fullscreenexit"",""trial"":78,""time"":533307},{""event"":""focus"",""trial"":78,""time"":533384}]",NA,NA,NA,NA,NA,2,#1CD855,#FA92F8,10,10,0,38,1,371.9999999998836,39,0,597,10,1,experiment,NA,NA,2,0.5,0.5,5,4,103,3,NA
fcp-trial,151,787985,0.0-112.0-0.0,voc_e2,11793,"[{""event"":""fullscreenenter"",""trial"":1,""time"":2197},{""event"":""blur"",""trial"":78,""time"":527942},{""event"":""fullscreenexit"",""trial"":78,""time"":533307},{""event"":""focus"",""trial"":78,""time"":533384}]",NA,NA,NA,NA,NA,1,#741CD8,#D8271C,10,0,1,40,0,417,39,0,705,0,0,experiment,NA,NA,0,0.9,0.1,0,1,104,3,NA
fcp-trial,152,790649,0.0-113.0-0.0,voc_e2,11793,"[{""event"":""fullscreenenter"",""trial"":1,""time"":2197},{""event"":""blur"",""trial"":78,""time"":527942},{""event"":""fullscreenexit"",""trial"":78,""time"":533307},{""event"":""focus"",""trial"":78,""time"":533384}]",NA,NA,NA,NA,NA,6,#3386FF,#D89F1C,10,10,1,38,1,654,39,0,494,10,0,experiment,NA,NA,1,0.7,0.3,2,3,105,3,NA
audio-instructions,153,795599,0.0-114.0,voc_e2,11793,"[{""event"":""fullscreenenter"",""trial"":1,""time"":2197},{""event"":""blur"",""trial"":78,""time"":527942},{""event"":""fullscreenexit"",""trial"":78,""time"":533307},{""event"":""focus"",""trial"":78,""time"":533384}]",NA,507,static/audio/pause.wav,NA,0,NA,NA,NA,NA,NA,NA,NA,NA,NA,NA,NA,NA,NA,NA,NA,NA,NA,NA,NA,NA,NA,NA,NA,NA,NA
fcp-trial,154,799095,0.0-115.0-0.0,voc_e2,11793,"[{""event"":""fullscreenenter"",""trial"":1,""time"":2197},{""event"":""blur"",""trial"":78,""time"":527942},{""event"":""fullscreenexit"",""trial"":78,""time"":533307},{""event"":""focus"",""trial"":78,""time"":533384}]",NA,NA,NA,NA,NA,6,#1CD855,#FA92F8,0,10,0,40,0,1510,39,0,477,10,1,experiment,NA,NA,2,0.5,0.5,5,4,106,3,NA
fcp-trial,155,801820,0.0-116.0-0.0,voc_e2,11793,"[{""event"":""fullscreenenter"",""trial"":1,""time"":2197},{""event"":""blur"",""trial"":78,""time"":527942},{""event"":""fullscreenexit"",""trial"":78,""time"":533307},{""event"":""focus"",""trial"":78,""time"":533384}]",NA,NA,NA,NA,NA,0,#741CD8,#D8271C,0,0,1,38,1,797.0000000001164,37,1,415,0,1,experiment,NA,NA,0,0.9,0.1,0,1,107,3,NA
fcp-trial,156,805950,0.0-117.0-0.0,voc_e2,11793,"[{""event"":""fullscreenenter"",""trial"":1,""time"":2197},{""event"":""blur"",""trial"":78,""time"":527942},{""event"":""fullscreenexit"",""trial"":78,""time"":533307},{""event"":""focus"",""trial"":78,""time"":533384}]",NA,NA,NA,NA,NA,3,#1CD855,#FA92F8,0,10,0,40,0,1938,37,1,678,0,0,experiment,NA,NA,2,0.5,0.5,5,4,108,3,NA
fcp-trial,157,808871,0.0-118.0-0.0,voc_e2,11793,"[{""event"":""fullscreenenter"",""trial"":1,""time"":2197},{""event"":""blur"",""trial"":78,""time"":527942},{""event"":""fullscreenexit"",""trial"":78,""time"":533307},{""event"":""focus"",""trial"":78,""time"":533384}]",NA,NA,NA,NA,NA,1,#3386FF,#D89F1C,10,0,1,38,1,1117,37,1,291,10,1,experiment,NA,NA,1,0.7,0.3,2,3,109,3,NA
fcp-trial,158,811807,0.0-119.0-0.0,voc_e2,11793,"[{""event"":""fullscreenenter"",""trial"":1,""time"":2197},{""event"":""blur"",""trial"":78,""time"":527942},{""event"":""fullscreenexit"",""trial"":78,""time"":533307},{""event"":""focus"",""trial"":78,""time"":533384}]",NA,NA,NA,NA,NA,5,#741CD8,#D8271C,10,0,1,38,1,1162,39,0,260.0000000001164,0,0,experiment,NA,NA,0,0.9,0.1,0,1,110,3,NA
fcp-trial,159,814741,0.0-120.0-0.0,voc_e2,11793,"[{""event"":""fullscreenenter"",""trial"":1,""time"":2197},{""event"":""blur"",""trial"":78,""time"":527942},{""event"":""fullscreenexit"",""trial"":78,""time"":533307},{""event"":""focus"",""trial"":78,""time"":533384}]",NA,NA,NA,NA,NA,4,#FA92F8,#1CD855,10,10,1,40,0,1090.0000000001164,37,1,331.0000000001164,10,1,experiment,NA,NA,2,0.5,0.5,4,5,111,3,NA
fcp-trial,160,817090,0.0-121.0-0.0,voc_e2,11793,"[{""event"":""fullscreenenter"",""trial"":1,""time"":2197},{""event"":""blur"",""trial"":78,""time"":527942},{""event"":""fullscreenexit"",""trial"":78,""time"":533307},{""event"":""focus"",""trial"":78,""time"":533384}]",NA,NA,NA,NA,NA,5,#D89F1C,#3386FF,0,10,0,38,1,437,37,1,400,0,0,experiment,NA,NA,1,0.3,0.7,3,2,112,3,NA
fcp-trial,161,819927,0.0-122.0-0.0,voc_e2,11793,"[{""event"":""fullscreenenter"",""trial"":1,""time"":2197},{""event"":""blur"",""trial"":78,""time"":527942},{""event"":""fullscreenexit"",""trial"":78,""time"":533307},{""event"":""focus"",""trial"":78,""time"":533384}]",NA,NA,NA,NA,NA,5,#1CD855,#FA92F8,10,10,0,40,0,508,37,1,815.9999999998836,10,0,experiment,NA,NA,2,0.5,0.5,5,4,113,3,NA
fcp-trial,162,822282,0.0-123.0-0.0,voc_e2,11793,"[{""event"":""fullscreenenter"",""trial"":1,""time"":2197},{""event"":""blur"",""trial"":78,""time"":527942},{""event"":""fullscreenexit"",""trial"":78,""time"":533307},{""event"":""focus"",""trial"":78,""time"":533384}]",NA,NA,NA,NA,NA,3,#D8271C,#741CD8,0,0,0,40,0,470,39,0,372,0,1,experiment,NA,NA,0,0.1,0.9,1,0,114,3,NA
fcp-trial,163,824761,0.0-124.0-0.0,voc_e2,11793,"[{""event"":""fullscreenenter"",""trial"":1,""time"":2197},{""event"":""blur"",""trial"":78,""time"":527942},{""event"":""fullscreenexit"",""trial"":78,""time"":533307},{""event"":""focus"",""trial"":78,""time"":533384}]",NA,NA,NA,NA,NA,1,#D8271C,#741CD8,0,10,0,38,1,659.0000000001164,37,1,309,0,0,experiment,NA,NA,0,0.1,0.9,1,0,115,3,NA
fcp-trial,164,827477,0.0-125.0-0.0,voc_e2,11793,"[{""event"":""fullscreenenter"",""trial"":1,""time"":2197},{""event"":""blur"",""trial"":78,""time"":527942},{""event"":""fullscreenexit"",""trial"":78,""time"":533307},{""event"":""focus"",""trial"":78,""time"":533384}]",NA,NA,NA,NA,NA,3,#3386FF,#D89F1C,0,0,1,38,1,830,37,1,374,0,1,experiment,NA,NA,1,0.7,0.3,2,3,116,3,NA
fcp-trial,165,830003,0.0-126.0-0.0,voc_e2,11793,"[{""event"":""fullscreenenter"",""trial"":1,""time"":2197},{""event"":""blur"",""trial"":78,""time"":527942},{""event"":""fullscreenexit"",""trial"":78,""time"":533307},{""event"":""focus"",""trial"":78,""time"":533384}]",NA,NA,NA,NA,NA,2,#D89F1C,#3386FF,0,10,0,38,1,663,37,1,351,0,0,experiment,NA,NA,1,0.3,0.7,3,2,117,3,NA
fcp-trial,166,833010,0.0-127.0-0.0,voc_e2,11793,"[{""event"":""fullscreenenter"",""trial"":1,""time"":2197},{""event"":""blur"",""trial"":78,""time"":527942},{""event"":""fullscreenexit"",""trial"":78,""time"":533307},{""event"":""focus"",""trial"":78,""time"":533384}]",NA,NA,NA,NA,NA,1,#FA92F8,#1CD855,0,0,1,38,1,898.0000000001164,39,0,544,0,0,experiment,NA,NA,2,0.5,0.5,4,5,118,3,NA
fcp-trial,167,835761,0.0-128.0-0.0,voc_e2,11793,"[{""event"":""fullscreenenter"",""trial"":1,""time"":2197},{""event"":""blur"",""trial"":78,""time"":527942},{""event"":""fullscreenexit"",""trial"":78,""time"":533307},{""event"":""focus"",""trial"":78,""time"":533384}]",NA,NA,NA,NA,NA,6,#D89F1C,#3386FF,0,10,0,38,1,557,37,1,682,0,0,experiment,NA,NA,1,0.3,0.7,3,2,119,3,NA
fcp-trial,168,838615,0.0-129.0-0.0,voc_e2,11793,"[{""event"":""fullscreenenter"",""trial"":1,""time"":2197},{""event"":""blur"",""trial"":78,""time"":527942},{""event"":""fullscreenexit"",""trial"":78,""time"":533307},{""event"":""focus"",""trial"":78,""time"":533384}]",NA,NA,NA,NA,NA,2,#741CD8,#D8271C,10,10,1,38,1,526,39,0,816,10,0,experiment,NA,NA,0,0.9,0.1,0,1,120,3,NA
fcp-trial,169,841230,0.0-130.0-0.0,voc_e2,11793,"[{""event"":""fullscreenenter"",""trial"":1,""time"":2197},{""event"":""blur"",""trial"":78,""time"":527942},{""event"":""fullscreenexit"",""trial"":78,""time"":533307},{""event"":""focus"",""trial"":78,""time"":533384}]",NA,NA,NA,NA,NA,6,#D8271C,#741CD8,0,10,0,38,1,603.0000000001164,37,1,498,0,0,experiment,NA,NA,0,0.1,0.9,1,0,121,3,NA
fcp-trial,170,843619,0.0-131.0-0.0,voc_e2,11793,"[{""event"":""fullscreenenter"",""trial"":1,""time"":2197},{""event"":""blur"",""trial"":78,""time"":527942},{""event"":""fullscreenexit"",""trial"":78,""time"":533307},{""event"":""focus"",""trial"":78,""time"":533384}]",NA,NA,NA,NA,NA,4,#3386FF,#D89F1C,10,0,1,38,1,542.0000000001164,37,1,335.9999999998836,10,1,experiment,NA,NA,1,0.7,0.3,2,3,122,3,NA
fcp-trial,171,847270,0.0-132.0-0.0,voc_e2,11793,"[{""event"":""fullscreenenter"",""trial"":1,""time"":2197},{""event"":""blur"",""trial"":78,""time"":527942},{""event"":""fullscreenexit"",""trial"":78,""time"":533307},{""event"":""focus"",""trial"":78,""time"":533384}]",NA,NA,NA,NA,NA,0,#FA92F8,#1CD855,0,0,1,40,0,1671,39,0,466.9999999998836,0,0,experiment,NA,NA,2,0.5,0.5,4,5,123,3,NA
fcp-trial,172,849772,0.0-133.0-0.0,voc_e2,11793,"[{""event"":""fullscreenenter"",""trial"":1,""time"":2197},{""event"":""blur"",""trial"":78,""time"":527942},{""event"":""fullscreenexit"",""trial"":78,""time"":533307},{""event"":""focus"",""trial"":78,""time"":533384}]",NA,NA,NA,NA,NA,0,#D89F1C,#3386FF,0,10,0,38,1,679.0000000001164,37,1,303,0,0,experiment,NA,NA,1,0.3,0.7,3,2,124,3,NA
fcp-trial,173,852646,0.0-134.0-0.0,voc_e2,11793,"[{""event"":""fullscreenenter"",""trial"":1,""time"":2197},{""event"":""blur"",""trial"":78,""time"":527942},{""event"":""fullscreenexit"",""trial"":78,""time"":533307},{""event"":""focus"",""trial"":78,""time"":533384}]",NA,NA,NA,NA,NA,4,#741CD8,#D8271C,10,0,1,40,0,785.0000000001164,37,1,576,10,1,experiment,NA,NA,0,0.9,0.1,0,1,125,3,NA
fcp-trial,174,855240,0.0-135.0-0.0,voc_e2,11793,"[{""event"":""fullscreenenter"",""trial"":1,""time"":2197},{""event"":""blur"",""trial"":78,""time"":527942},{""event"":""fullscreenexit"",""trial"":78,""time"":533307},{""event"":""focus"",""trial"":78,""time"":533384}]",NA,NA,NA,NA,NA,2,#1CD855,#FA92F8,0,0,0,38,1,653,39,0,397.0000000001164,0,1,experiment,NA,NA,2,0.5,0.5,5,4,126,3,NA
fcp-trial,175,857785,0.0-136.0-0.0,voc_e2,11793,"[{""event"":""fullscreenenter"",""trial"":1,""time"":2197},{""event"":""blur"",""trial"":78,""time"":527942},{""event"":""fullscreenexit"",""trial"":78,""time"":533307},{""event"":""focus"",""trial"":78,""time"":533384}]",NA,NA,NA,NA,NA,0,#3386FF,#D89F1C,10,10,1,40,0,430,39,0,599,10,0,experiment,NA,NA,1,0.7,0.3,2,3,127,3,NA
fcp-trial,176,860254,0.0-137.0-0.0,voc_e2,11793,"[{""event"":""fullscreenenter"",""trial"":1,""time"":2197},{""event"":""blur"",""trial"":78,""time"":527942},{""event"":""fullscreenexit"",""trial"":78,""time"":533307},{""event"":""focus"",""trial"":78,""time"":533384}]",NA,NA,NA,NA,NA,2,#1CD855,#FA92F8,0,10,0,40,0,494,37,1,465.0000000001164,0,0,experiment,NA,NA,2,0.5,0.5,5,4,128,3,NA
fcp-trial,177,862572,0.0-138.0-0.0,voc_e2,11793,"[{""event"":""fullscreenenter"",""trial"":1,""time"":2197},{""event"":""blur"",""trial"":78,""time"":527942},{""event"":""fullscreenexit"",""trial"":78,""time"":533307},{""event"":""focus"",""trial"":78,""time"":533384}]",NA,NA,NA,NA,NA,3,#1CD855,#FA92F8,10,10,0,40,0,444.9999999998836,39,0,362,10,1,experiment,NA,NA,2,0.5,0.5,5,4,129,3,NA
fcp-trial,178,864856,0.0-139.0-0.0,voc_e2,11793,"[{""event"":""fullscreenenter"",""trial"":1,""time"":2197},{""event"":""blur"",""trial"":78,""time"":527942},{""event"":""fullscreenexit"",""trial"":78,""time"":533307},{""event"":""focus"",""trial"":78,""time"":533384}]",NA,NA,NA,NA,NA,0,#FA92F8,#1CD855,0,0,1,40,0,322,37,1,449.0000000001164,0,1,experiment,NA,NA,2,0.5,0.5,4,5,130,3,NA
fcp-trial,179,867645,0.0-140.0-0.0,voc_e2,11793,"[{""event"":""fullscreenenter"",""trial"":1,""time"":2197},{""event"":""blur"",""trial"":78,""time"":527942},{""event"":""fullscreenexit"",""trial"":78,""time"":533307},{""event"":""focus"",""trial"":78,""time"":533384}]",NA,NA,NA,NA,NA,5,#D8271C,#741CD8,0,10,0,38,1,867,37,1,408.9999999998836,0,0,experiment,NA,NA,0,0.1,0.9,1,0,131,3,NA
fcp-trial,180,869873,0.0-141.0-0.0,voc_e2,11793,"[{""event"":""fullscreenenter"",""trial"":1,""time"":2197},{""event"":""blur"",""trial"":78,""time"":527942},{""event"":""fullscreenexit"",""trial"":78,""time"":533307},{""event"":""focus"",""trial"":78,""time"":533384}]",NA,NA,NA,NA,NA,3,#D89F1C,#3386FF,10,10,0,38,1,379,39,0,332,10,1,experiment,NA,NA,1,0.3,0.7,3,2,132,3,NA
fcp-trial,181,872044,0.0-142.0-0.0,voc_e2,11793,"[{""event"":""fullscreenenter"",""trial"":1,""time"":2197},{""event"":""blur"",""trial"":78,""time"":527942},{""event"":""fullscreenexit"",""trial"":78,""time"":533307},{""event"":""focus"",""trial"":78,""time"":533384}]",NA,NA,NA,NA,NA,0,#D8271C,#741CD8,0,10,0,40,0,333.9999999998836,37,1,325,0,0,experiment,NA,NA,0,0.1,0.9,1,0,133,3,NA
fcp-trial,182,874599,0.0-143.0-0.0,voc_e2,11793,"[{""event"":""fullscreenenter"",""trial"":1,""time"":2197},{""event"":""blur"",""trial"":78,""time"":527942},{""event"":""fullscreenexit"",""trial"":78,""time"":533307},{""event"":""focus"",""trial"":78,""time"":533384}]",NA,NA,NA,NA,NA,5,#FA92F8,#1CD855,10,10,1,38,1,483.0000000001164,37,1,558.9999999998836,10,1,experiment,NA,NA,2,0.5,0.5,4,5,134,3,NA
fcp-trial,183,877350,0.0-144.0-0.0,voc_e2,11793,"[{""event"":""fullscreenenter"",""trial"":1,""time"":2197},{""event"":""blur"",""trial"":78,""time"":527942},{""event"":""fullscreenexit"",""trial"":78,""time"":533307},{""event"":""focus"",""trial"":78,""time"":533384}]",NA,NA,NA,NA,NA,5,#D89F1C,#3386FF,0,0,0,38,1,641,39,0,597,0,1,experiment,NA,NA,1,0.3,0.7,3,2,135,3,NA
fcp-trial,184,879931,0.0-145.0-0.0,voc_e2,11793,"[{""event"":""fullscreenenter"",""trial"":1,""time"":2197},{""event"":""blur"",""trial"":78,""time"":527942},{""event"":""fullscreenexit"",""trial"":78,""time"":533307},{""event"":""focus"",""trial"":78,""time"":533384}]",NA,NA,NA,NA,NA,4,#FA92F8,#1CD855,10,0,1,40,0,454.9999999998836,39,0,615,0,0,experiment,NA,NA,2,0.5,0.5,4,5,136,4,NA
fcp-trial,185,882896,0.0-146.0-0.0,voc_e2,11793,"[{""event"":""fullscreenenter"",""trial"":1,""time"":2197},{""event"":""blur"",""trial"":78,""time"":527942},{""event"":""fullscreenexit"",""trial"":78,""time"":533307},{""event"":""focus"",""trial"":78,""time"":533384}]",NA,NA,NA,NA,NA,3,#D8271C,#741CD8,0,0,0,40,0,598.9999999998836,39,0,853,0,1,experiment,NA,NA,0,0.1,0.9,1,0,137,4,NA
fcp-trial,186,885707,0.0-147.0-0.0,voc_e2,11793,"[{""event"":""fullscreenenter"",""trial"":1,""time"":2197},{""event"":""blur"",""trial"":78,""time"":527942},{""event"":""fullscreenexit"",""trial"":78,""time"":533307},{""event"":""focus"",""trial"":78,""time"":533384}]",NA,NA,NA,NA,NA,2,#D89F1C,#3386FF,0,10,0,38,1,927,37,1,373,0,0,experiment,NA,NA,1,0.3,0.7,3,2,138,4,NA
fcp-trial,187,888273,0.0-148.0-0.0,voc_e2,11793,"[{""event"":""fullscreenenter"",""trial"":1,""time"":2197},{""event"":""blur"",""trial"":78,""time"":527942},{""event"":""fullscreenexit"",""trial"":78,""time"":533307},{""event"":""focus"",""trial"":78,""time"":533384}]",NA,NA,NA,NA,NA,4,#D8271C,#741CD8,0,10,0,40,0,364.0000000001164,37,1,656,0,0,experiment,NA,NA,0,0.1,0.9,1,0,139,4,NA
fcp-trial,188,890933,0.0-149.0-0.0,voc_e2,11793,"[{""event"":""fullscreenenter"",""trial"":1,""time"":2197},{""event"":""blur"",""trial"":78,""time"":527942},{""event"":""fullscreenexit"",""trial"":78,""time"":533307},{""event"":""focus"",""trial"":78,""time"":533384}]",NA,NA,NA,NA,NA,1,#1CD855,#FA92F8,0,10,0,40,0,569,37,1,546.0000000001164,0,0,experiment,NA,NA,2,0.5,0.5,5,4,140,4,NA
fcp-trial,189,893413,0.0-150.0-0.0,voc_e2,11793,"[{""event"":""fullscreenenter"",""trial"":1,""time"":2197},{""event"":""blur"",""trial"":78,""time"":527942},{""event"":""fullscreenexit"",""trial"":78,""time"":533307},{""event"":""focus"",""trial"":78,""time"":533384}]",NA,NA,NA,NA,NA,4,#D89F1C,#3386FF,0,10,0,40,0,431.0000000001164,37,1,537,0,0,experiment,NA,NA,1,0.3,0.7,3,2,141,4,NA
fcp-trial,190,895983,0.0-151.0-0.0,voc_e2,11793,"[{""event"":""fullscreenenter"",""trial"":1,""time"":2197},{""event"":""blur"",""trial"":78,""time"":527942},{""event"":""fullscreenexit"",""trial"":78,""time"":533307},{""event"":""focus"",""trial"":78,""time"":533384}]",NA,NA,NA,NA,NA,6,#741CD8,#D8271C,10,0,1,40,0,448,37,1,577,10,1,experiment,NA,NA,0,0.9,0.1,0,1,142,4,NA
fcp-trial,191,898651,0.0-152.0-0.0,voc_e2,11793,"[{""event"":""fullscreenenter"",""trial"":1,""time"":2197},{""event"":""blur"",""trial"":78,""time"":527942},{""event"":""fullscreenexit"",""trial"":78,""time"":533307},{""event"":""focus"",""trial"":78,""time"":533384}]",NA,NA,NA,NA,NA,6,#D89F1C,#3386FF,0,10,0,40,0,552,37,1,605,0,0,experiment,NA,NA,1,0.3,0.7,3,2,143,4,NA
fcp-trial,192,901452,0.0-153.0-0.0,voc_e2,11793,"[{""event"":""fullscreenenter"",""trial"":1,""time"":2197},{""event"":""blur"",""trial"":78,""time"":527942},{""event"":""fullscreenexit"",""trial"":78,""time"":533307},{""event"":""focus"",""trial"":78,""time"":533384}]",NA,NA,NA,NA,NA,6,#FA92F8,#1CD855,0,0,1,40,0,628,39,0,662,0,0,experiment,NA,NA,2,0.5,0.5,4,5,144,4,NA
fcp-trial,193,904666,0.0-154.0-0.0,voc_e2,11793,"[{""event"":""fullscreenenter"",""trial"":1,""time"":2197},{""event"":""blur"",""trial"":78,""time"":527942},{""event"":""fullscreenexit"",""trial"":78,""time"":533307},{""event"":""focus"",""trial"":78,""time"":533384}]",NA,NA,NA,NA,NA,2,#D8271C,#741CD8,0,10,0,40,0,1293,37,1,408,0,0,experiment,NA,NA,0,0.1,0.9,1,0,145,4,NA
fcp-trial,194,907277,0.0-155.0-0.0,voc_e2,11793,"[{""event"":""fullscreenenter"",""trial"":1,""time"":2197},{""event"":""blur"",""trial"":78,""time"":527942},{""event"":""fullscreenexit"",""trial"":78,""time"":533307},{""event"":""focus"",""trial"":78,""time"":533384}]",NA,NA,NA,NA,NA,1,#741CD8,#D8271C,0,0,1,40,0,490.9999999998836,37,1,569,0,1,experiment,NA,NA,0,0.9,0.1,0,1,146,4,NA
fcp-trial,195,909963,0.0-156.0-0.0,voc_e2,11793,"[{""event"":""fullscreenenter"",""trial"":1,""time"":2197},{""event"":""blur"",""trial"":78,""time"":527942},{""event"":""fullscreenexit"",""trial"":78,""time"":533307},{""event"":""focus"",""trial"":78,""time"":533384}]",NA,NA,NA,NA,NA,1,#D89F1C,#3386FF,0,10,0,38,1,772,39,0,367,10,1,experiment,NA,NA,1,0.3,0.7,3,2,147,4,NA
fcp-trial,196,912379,0.0-157.0-0.0,voc_e2,11793,"[{""event"":""fullscreenenter"",""trial"":1,""time"":2197},{""event"":""blur"",""trial"":78,""time"":527942},{""event"":""fullscreenexit"",""trial"":78,""time"":533307},{""event"":""focus"",""trial"":78,""time"":533384}]",NA,NA,NA,NA,NA,0,#D89F1C,#3386FF,0,10,0,38,1,541.0000000001164,37,1,363,0,0,experiment,NA,NA,1,0.3,0.7,3,2,148,4,NA
fcp-trial,197,914681,0.0-158.0-0.0,voc_e2,11793,"[{""event"":""fullscreenenter"",""trial"":1,""time"":2197},{""event"":""blur"",""trial"":78,""time"":527942},{""event"":""fullscreenexit"",""trial"":78,""time"":533307},{""event"":""focus"",""trial"":78,""time"":533384}]",NA,NA,NA,NA,NA,0,#1CD855,#FA92F8,0,10,0,38,1,469.9999999998836,39,0,319,10,1,experiment,NA,NA,2,0.5,0.5,5,4,149,4,NA
fcp-trial,198,917223,0.0-159.0-0.0,voc_e2,11793,"[{""event"":""fullscreenenter"",""trial"":1,""time"":2197},{""event"":""blur"",""trial"":78,""time"":527942},{""event"":""fullscreenexit"",""trial"":78,""time"":533307},{""event"":""focus"",""trial"":78,""time"":533384}]",NA,NA,NA,NA,NA,6,#1CD855,#FA92F8,10,0,0,38,1,503,37,1,525,10,0,experiment,NA,NA,2,0.5,0.5,5,4,150,4,NA
fcp-trial,199,920114,0.0-160.0-0.0,voc_e2,11793,"[{""event"":""fullscreenenter"",""trial"":1,""time"":2197},{""event"":""blur"",""trial"":78,""time"":527942},{""event"":""fullscreenexit"",""trial"":78,""time"":533307},{""event"":""focus"",""trial"":78,""time"":533384}]",NA,NA,NA,NA,NA,0,#D8271C,#741CD8,0,10,0,38,1,833,39,0,514,10,1,experiment,NA,NA,0,0.1,0.9,1,0,151,4,NA
fcp-trial,200,923014,0.0-161.0-0.0,voc_e2,11793,"[{""event"":""fullscreenenter"",""trial"":1,""time"":2197},{""event"":""blur"",""trial"":78,""time"":527942},{""event"":""fullscreenexit"",""trial"":78,""time"":533307},{""event"":""focus"",""trial"":78,""time"":533384}]",NA,NA,NA,NA,NA,5,#3386FF,#D89F1C,10,0,1,38,1,855,37,1,532.0000000001164,10,1,experiment,NA,NA,1,0.7,0.3,2,3,152,4,NA
fcp-trial,201,925685,0.0-162.0-0.0,voc_e2,11793,"[{""event"":""fullscreenenter"",""trial"":1,""time"":2197},{""event"":""blur"",""trial"":78,""time"":527942},{""event"":""fullscreenexit"",""trial"":78,""time"":533307},{""event"":""focus"",""trial"":78,""time"":533384}]",NA,NA,NA,NA,NA,2,#FA92F8,#1CD855,0,0,1,38,1,706.0000000001164,39,0,450,0,0,experiment,NA,NA,2,0.5,0.5,4,5,153,4,NA
fcp-trial,202,927869,0.0-163.0-0.0,voc_e2,11793,"[{""event"":""fullscreenenter"",""trial"":1,""time"":2197},{""event"":""blur"",""trial"":78,""time"":527942},{""event"":""fullscreenexit"",""trial"":78,""time"":533307},{""event"":""focus"",""trial"":78,""time"":533384}]",NA,NA,NA,NA,NA,4,#3386FF,#D89F1C,10,0,1,38,1,328,37,1,343,10,1,experiment,NA,NA,1,0.7,0.3,2,3,154,4,NA
fcp-trial,203,930115,0.0-164.0-0.0,voc_e2,11793,"[{""event"":""fullscreenenter"",""trial"":1,""time"":2197},{""event"":""blur"",""trial"":78,""time"":527942},{""event"":""fullscreenexit"",""trial"":78,""time"":533307},{""event"":""focus"",""trial"":78,""time"":533384}]",NA,NA,NA,NA,NA,3,#D89F1C,#3386FF,10,10,0,40,0,307,39,0,429,10,1,experiment,NA,NA,1,0.3,0.7,3,2,155,4,NA
fcp-trial,204,933137,0.0-165.0-0.0,voc_e2,11793,"[{""event"":""fullscreenenter"",""trial"":1,""time"":2197},{""event"":""blur"",""trial"":78,""time"":527942},{""event"":""fullscreenexit"",""trial"":78,""time"":533307},{""event"":""focus"",""trial"":78,""time"":533384}]",NA,NA,NA,NA,NA,5,#D8271C,#741CD8,0,10,0,40,0,1179.0000000001164,39,0,333.9999999998836,10,1,experiment,NA,NA,0,0.1,0.9,1,0,156,4,NA
fcp-trial,205,935725,0.0-166.0-0.0,voc_e2,11793,"[{""event"":""fullscreenenter"",""trial"":1,""time"":2197},{""event"":""blur"",""trial"":78,""time"":527942},{""event"":""fullscreenexit"",""trial"":78,""time"":533307},{""event"":""focus"",""trial"":78,""time"":533384}]",NA,NA,NA,NA,NA,1,#1CD855,#FA92F8,10,10,0,40,0,505,37,1,570.9999999998836,10,0,experiment,NA,NA,2,0.5,0.5,5,4,157,4,NA
fcp-trial,206,938108,0.0-167.0-0.0,voc_e2,11793,"[{""event"":""fullscreenenter"",""trial"":1,""time"":2197},{""event"":""blur"",""trial"":78,""time"":527942},{""event"":""fullscreenexit"",""trial"":78,""time"":533307},{""event"":""focus"",""trial"":78,""time"":533384}]",NA,NA,NA,NA,NA,6,#D8271C,#741CD8,0,10,0,40,0,470,37,1,400.0000000001164,0,0,experiment,NA,NA,0,0.1,0.9,1,0,158,4,NA
fcp-trial,207,940793,0.0-168.0-0.0,voc_e2,11793,"[{""event"":""fullscreenenter"",""trial"":1,""time"":2197},{""event"":""blur"",""trial"":78,""time"":527942},{""event"":""fullscreenexit"",""trial"":78,""time"":533307},{""event"":""focus"",""trial"":78,""time"":533384}]",NA,NA,NA,NA,NA,4,#FA92F8,#1CD855,10,0,1,40,0,585.0000000001164,39,0,588,0,0,experiment,NA,NA,2,0.5,0.5,4,5,159,4,NA
fcp-trial,208,943376,0.0-169.0-0.0,voc_e2,11793,"[{""event"":""fullscreenenter"",""trial"":1,""time"":2197},{""event"":""blur"",""trial"":78,""time"":527942},{""event"":""fullscreenexit"",""trial"":78,""time"":533307},{""event"":""focus"",""trial"":78,""time"":533384}]",NA,NA,NA,NA,NA,1,#D89F1C,#3386FF,0,0,0,38,1,654,37,1,384,0,0,experiment,NA,NA,1,0.3,0.7,3,2,160,4,NA
fcp-trial,209,945998,0.0-170.0-0.0,voc_e2,11793,"[{""event"":""fullscreenenter"",""trial"":1,""time"":2197},{""event"":""blur"",""trial"":78,""time"":527942},{""event"":""fullscreenexit"",""trial"":78,""time"":533307},{""event"":""focus"",""trial"":78,""time"":533384}]",NA,NA,NA,NA,NA,2,#D8271C,#741CD8,0,10,0,40,0,521,39,0,552,10,1,experiment,NA,NA,0,0.1,0.9,1,0,161,4,NA
fcp-trial,210,949363,0.0-171.0-0.0,voc_e2,11793,"[{""event"":""fullscreenenter"",""trial"":1,""time"":2197},{""event"":""blur"",""trial"":78,""time"":527942},{""event"":""fullscreenexit"",""trial"":78,""time"":533307},{""event"":""focus"",""trial"":78,""time"":533384}]",NA,NA,NA,NA,NA,3,#FA92F8,#1CD855,10,10,1,40,0,1302,39,0,518,10,0,experiment,NA,NA,2,0.5,0.5,4,5,162,4,NA
fcp-trial,211,951511,0.0-172.0-0.0,voc_e2,11793,"[{""event"":""fullscreenenter"",""trial"":1,""time"":2197},{""event"":""blur"",""trial"":78,""time"":527942},{""event"":""fullscreenexit"",""trial"":78,""time"":533307},{""event"":""focus"",""trial"":78,""time"":533384}]",NA,NA,NA,NA,NA,6,#D89F1C,#3386FF,10,10,0,40,0,355,37,1,281.0000000001164,10,0,experiment,NA,NA,1,0.3,0.7,3,2,163,4,NA
fcp-trial,212,953929,0.0-173.0-0.0,voc_e2,11793,"[{""event"":""fullscreenenter"",""trial"":1,""time"":2197},{""event"":""blur"",""trial"":78,""time"":527942},{""event"":""fullscreenexit"",""trial"":78,""time"":533307},{""event"":""focus"",""trial"":78,""time"":533384}]",NA,NA,NA,NA,NA,1,#741CD8,#D8271C,10,0,1,40,0,562,39,0,342.0000000001164,0,0,experiment,NA,NA,0,0.9,0.1,0,1,164,4,NA
fcp-trial,213,956486,0.0-174.0-0.0,voc_e2,11793,"[{""event"":""fullscreenenter"",""trial"":1,""time"":2197},{""event"":""blur"",""trial"":78,""time"":527942},{""event"":""fullscreenexit"",""trial"":78,""time"":533307},{""event"":""focus"",""trial"":78,""time"":533384}]",NA,NA,NA,NA,NA,4,#741CD8,#D8271C,10,0,1,38,1,653,37,1,390,10,1,experiment,NA,NA,0,0.9,0.1,0,1,165,4,NA
fcp-trial,214,958955,0.0-175.0-0.0,voc_e2,11793,"[{""event"":""fullscreenenter"",""trial"":1,""time"":2197},{""event"":""blur"",""trial"":78,""time"":527942},{""event"":""fullscreenexit"",""trial"":78,""time"":533307},{""event"":""focus"",""trial"":78,""time"":533384}]",NA,NA,NA,NA,NA,5,#FA92F8,#1CD855,0,10,1,38,1,468,39,0,456,10,0,experiment,NA,NA,2,0.5,0.5,4,5,166,4,NA
fcp-trial,215,961588,0.0-176.0-0.0,voc_e2,11793,"[{""event"":""fullscreenenter"",""trial"":1,""time"":2197},{""event"":""blur"",""trial"":78,""time"":527942},{""event"":""fullscreenexit"",""trial"":78,""time"":533307},{""event"":""focus"",""trial"":78,""time"":533384}]",NA,NA,NA,NA,NA,2,#3386FF,#D89F1C,10,10,1,40,0,496,39,0,592.0000000001164,10,0,experiment,NA,NA,1,0.7,0.3,2,3,167,4,NA
fcp-trial,216,964387,0.0-177.0-0.0,voc_e2,11793,"[{""event"":""fullscreenenter"",""trial"":1,""time"":2197},{""event"":""blur"",""trial"":78,""time"":527942},{""event"":""fullscreenexit"",""trial"":78,""time"":533307},{""event"":""focus"",""trial"":78,""time"":533384}]",NA,NA,NA,NA,NA,3,#D8271C,#741CD8,0,10,0,38,1,886,37,1,399,0,0,experiment,NA,NA,0,0.1,0.9,1,0,168,4,NA
fcp-trial,217,966834,0.0-178.0-0.0,voc_e2,11793,"[{""event"":""fullscreenenter"",""trial"":1,""time"":2197},{""event"":""blur"",""trial"":78,""time"":527942},{""event"":""fullscreenexit"",""trial"":78,""time"":533307},{""event"":""focus"",""trial"":78,""time"":533384}]",NA,NA,NA,NA,NA,4,#D89F1C,#3386FF,10,0,0,38,1,619,39,0,283,0,1,experiment,NA,NA,1,0.3,0.7,3,2,169,4,NA
fcp-trial,218,969376,0.0-179.0-0.0,voc_e2,11793,"[{""event"":""fullscreenenter"",""trial"":1,""time"":2197},{""event"":""blur"",""trial"":78,""time"":527942},{""event"":""fullscreenexit"",""trial"":78,""time"":533307},{""event"":""focus"",""trial"":78,""time"":533384}]",NA,NA,NA,NA,NA,3,#1CD855,#FA92F8,10,10,0,38,1,741,37,1,286.9999999998836,10,0,experiment,NA,NA,2,0.5,0.5,5,4,170,4,NA
fcp-trial,219,971761,0.0-180.0-0.0,voc_e2,11793,"[{""event"":""fullscreenenter"",""trial"":1,""time"":2197},{""event"":""blur"",""trial"":78,""time"":527942},{""event"":""fullscreenexit"",""trial"":78,""time"":533307},{""event"":""focus"",""trial"":78,""time"":533384}]",NA,NA,NA,NA,NA,0,#1CD855,#FA92F8,0,10,0,38,1,481,39,0,358.0000000001164,10,1,experiment,NA,NA,2,0.5,0.5,5,4,171,4,NA
fcp-trial,220,974087,0.0-181.0-0.0,voc_e2,11793,"[{""event"":""fullscreenenter"",""trial"":1,""time"":2197},{""event"":""blur"",""trial"":78,""time"":527942},{""event"":""fullscreenexit"",""trial"":78,""time"":533307},{""event"":""focus"",""trial"":78,""time"":533384}]",NA,NA,NA,NA,NA,2,#741CD8,#D8271C,10,10,1,38,1,331.0000000001164,37,1,450.9999999998836,10,1,experiment,NA,NA,0,0.9,0.1,0,1,172,4,NA
fcp-trial,221,976469,0.0-182.0-0.0,voc_e2,11793,"[{""event"":""fullscreenenter"",""trial"":1,""time"":2197},{""event"":""blur"",""trial"":78,""time"":527942},{""event"":""fullscreenexit"",""trial"":78,""time"":533307},{""event"":""focus"",""trial"":78,""time"":533384}]",NA,NA,NA,NA,NA,2,#1CD855,#FA92F8,10,0,0,40,0,363,37,1,507,10,0,experiment,NA,NA,2,0.5,0.5,5,4,173,4,NA
fcp-trial,222,978959,0.0-183.0-0.0,voc_e2,11793,"[{""event"":""fullscreenenter"",""trial"":1,""time"":2197},{""event"":""blur"",""trial"":78,""time"":527942},{""event"":""fullscreenexit"",""trial"":78,""time"":533307},{""event"":""focus"",""trial"":78,""time"":533384}]",NA,NA,NA,NA,NA,5,#3386FF,#D89F1C,10,10,1,38,1,625,37,1,352.0000000001164,10,1,experiment,NA,NA,1,0.7,0.3,2,3,174,4,NA
fcp-trial,223,981374,0.0-184.0-0.0,voc_e2,11793,"[{""event"":""fullscreenenter"",""trial"":1,""time"":2197},{""event"":""blur"",""trial"":78,""time"":527942},{""event"":""fullscreenexit"",""trial"":78,""time"":533307},{""event"":""focus"",""trial"":78,""time"":533384}]",NA,NA,NA,NA,NA,3,#D8271C,#741CD8,0,10,0,38,1,550.0000000001164,37,1,318,0,0,experiment,NA,NA,0,0.1,0.9,1,0,175,4,NA
fcp-trial,224,983808,0.0-185.0-0.0,voc_e2,11793,"[{""event"":""fullscreenenter"",""trial"":1,""time"":2197},{""event"":""blur"",""trial"":78,""time"":527942},{""event"":""fullscreenexit"",""trial"":78,""time"":533307},{""event"":""focus"",""trial"":78,""time"":533384}]",NA,NA,NA,NA,NA,4,#D8271C,#741CD8,10,10,0,38,1,606,39,0,316.0000000001164,10,1,experiment,NA,NA,0,0.1,0.9,1,0,176,4,NA
fcp-trial,225,986426,0.0-186.0-0.0,voc_e2,11793,"[{""event"":""fullscreenenter"",""trial"":1,""time"":2197},{""event"":""blur"",""trial"":78,""time"":527942},{""event"":""fullscreenexit"",""trial"":78,""time"":533307},{""event"":""focus"",""trial"":78,""time"":533384}]",NA,NA,NA,NA,NA,0,#741CD8,#D8271C,10,0,1,38,1,742,37,1,363,10,1,experiment,NA,NA,0,0.9,0.1,0,1,177,4,NA
fcp-trial,226,989890,0.0-187.0-0.0,voc_e2,11793,"[{""event"":""fullscreenenter"",""trial"":1,""time"":2197},{""event"":""blur"",""trial"":78,""time"":527942},{""event"":""fullscreenexit"",""trial"":78,""time"":533307},{""event"":""focus"",""trial"":78,""time"":533384}]",NA,NA,NA,NA,NA,6,#FA92F8,#1CD855,10,0,1,40,0,1547,37,1,406.0000000001164,10,1,experiment,NA,NA,2,0.5,0.5,4,5,178,4,NA
fcp-trial,227,993459,0.0-188.0-0.0,voc_e2,11793,"[{""event"":""fullscreenenter"",""trial"":1,""time"":2197},{""event"":""blur"",""trial"":78,""time"":527942},{""event"":""fullscreenexit"",""trial"":78,""time"":533307},{""event"":""focus"",""trial"":78,""time"":533384}]",NA,NA,NA,NA,NA,2,#3386FF,#D89F1C,0,0,1,40,0,1326.0000000001164,39,0,731.9999999998836,0,0,experiment,NA,NA,1,0.7,0.3,2,3,179,4,NA
fcp-trial,228,997202,0.0-189.0-0.0,voc_e2,11793,"[{""event"":""fullscreenenter"",""trial"":1,""time"":2197},{""event"":""blur"",""trial"":78,""time"":527942},{""event"":""fullscreenexit"",""trial"":78,""time"":533307},{""event"":""focus"",""trial"":78,""time"":533384}]",NA,NA,NA,NA,NA,0,#3386FF,#D89F1C,10,0,1,38,1,1767,37,1,463,10,1,experiment,NA,NA,1,0.7,0.3,2,3,180,4,NA
fcp-trial,229,1000315,0.0-190.0-0.0,voc_e2,11793,"[{""event"":""fullscreenenter"",""trial"":1,""time"":2197},{""event"":""blur"",""trial"":78,""time"":527942},{""event"":""fullscreenexit"",""trial"":78,""time"":533307},{""event"":""focus"",""trial"":78,""time"":533384}]",NA,NA,NA,NA,NA,5,#741CD8,#D8271C,10,0,1,40,0,1226,39,0,375,0,0,experiment,NA,NA,0,0.9,0.1,0,1,181,5,NA
fcp-trial,230,1004404,0.0-191.0-0.0,voc_e2,11793,"[{""event"":""fullscreenenter"",""trial"":1,""time"":2197},{""event"":""blur"",""trial"":78,""time"":527942},{""event"":""fullscreenexit"",""trial"":78,""time"":533307},{""event"":""focus"",""trial"":78,""time"":533384}]",NA,NA,NA,NA,NA,1,#FA92F8,#1CD855,10,0,1,38,1,1654,37,1,919.9999999998836,10,1,experiment,NA,NA,2,0.5,0.5,4,5,182,5,NA
fcp-trial,231,1007581,0.0-192.0-0.0,voc_e2,11793,"[{""event"":""fullscreenenter"",""trial"":1,""time"":2197},{""event"":""blur"",""trial"":78,""time"":527942},{""event"":""fullscreenexit"",""trial"":78,""time"":533307},{""event"":""focus"",""trial"":78,""time"":533384}]",NA,NA,NA,NA,NA,3,#D89F1C,#3386FF,10,0,0,38,1,1221.9999999998836,39,0,444,0,1,experiment,NA,NA,1,0.3,0.7,3,2,183,5,NA
fcp-trial,232,1010153,0.0-193.0-0.0,voc_e2,11793,"[{""event"":""fullscreenenter"",""trial"":1,""time"":2197},{""event"":""blur"",""trial"":78,""time"":527942},{""event"":""fullscreenexit"",""trial"":78,""time"":533307},{""event"":""focus"",""trial"":78,""time"":533384}]",NA,NA,NA,NA,NA,1,#741CD8,#D8271C,10,0,1,38,1,673,37,1,385,10,1,experiment,NA,NA,0,0.9,0.1,0,1,184,5,NA
fcp-trial,233,1012998,0.0-194.0-0.0,voc_e2,11793,"[{""event"":""fullscreenenter"",""trial"":1,""time"":2197},{""event"":""blur"",""trial"":78,""time"":527942},{""event"":""fullscreenexit"",""trial"":78,""time"":533307},{""event"":""focus"",""trial"":78,""time"":533384}]",NA,NA,NA,NA,NA,4,#FA92F8,#1CD855,0,0,1,40,0,854,39,0,479,0,0,experiment,NA,NA,2,0.5,0.5,4,5,185,5,NA
fcp-trial,234,1015624,0.0-195.0-0.0,voc_e2,11793,"[{""event"":""fullscreenenter"",""trial"":1,""time"":2197},{""event"":""blur"",""trial"":78,""time"":527942},{""event"":""fullscreenexit"",""trial"":78,""time"":533307},{""event"":""focus"",""trial"":78,""time"":533384}]",NA,NA,NA,NA,NA,1,#3386FF,#D89F1C,10,10,1,38,1,713,37,1,401,10,1,experiment,NA,NA,1,0.7,0.3,2,3,186,5,NA
fcp-trial,235,1018420,0.0-196.0-0.0,voc_e2,11793,"[{""event"":""fullscreenenter"",""trial"":1,""time"":2197},{""event"":""blur"",""trial"":78,""time"":527942},{""event"":""fullscreenexit"",""trial"":78,""time"":533307},{""event"":""focus"",""trial"":78,""time"":533384}]",NA,NA,NA,NA,NA,6,#3386FF,#D89F1C,0,0,1,38,1,718.0000000001164,37,1,533,0,1,experiment,NA,NA,1,0.7,0.3,2,3,187,5,NA
fcp-trial,236,1020954,0.0-197.0-0.0,voc_e2,11793,"[{""event"":""fullscreenenter"",""trial"":1,""time"":2197},{""event"":""blur"",""trial"":78,""time"":527942},{""event"":""fullscreenexit"",""trial"":78,""time"":533307},{""event"":""focus"",""trial"":78,""time"":533384}]",NA,NA,NA,NA,NA,6,#741CD8,#D8271C,10,0,1,40,0,555.0000000001164,37,1,466.99999999976717,10,1,experiment,NA,NA,0,0.9,0.1,0,1,188,5,NA
fcp-trial,237,1023933,0.0-198.0-0.0,voc_e2,11793,"[{""event"":""fullscreenenter"",""trial"":1,""time"":2197},{""event"":""blur"",""trial"":78,""time"":527942},{""event"":""fullscreenexit"",""trial"":78,""time"":533307},{""event"":""focus"",""trial"":78,""time"":533384}]",NA,NA,NA,NA,NA,5,#FA92F8,#1CD855,10,0,1,40,0,1056,37,1,407.9999999998836,10,1,experiment,NA,NA,2,0.5,0.5,4,5,189,5,NA
fcp-trial,238,1026620,0.0-199.0-0.0,voc_e2,11793,"[{""event"":""fullscreenenter"",""trial"":1,""time"":2197},{""event"":""blur"",""trial"":78,""time"":527942},{""event"":""fullscreenexit"",""trial"":78,""time"":533307},{""event"":""focus"",""trial"":78,""time"":533384}]",NA,NA,NA,NA,NA,0,#FA92F8,#1CD855,0,10,1,40,0,705.9999999998836,37,1,432,0,1,experiment,NA,NA,2,0.5,0.5,4,5,190,5,NA
fcp-trial,239,1029160,0.0-200.0-0.0,voc_e2,11793,"[{""event"":""fullscreenenter"",""trial"":1,""time"":2197},{""event"":""blur"",""trial"":78,""time"":527942},{""event"":""fullscreenexit"",""trial"":78,""time"":533307},{""event"":""focus"",""trial"":78,""time"":533384}]",NA,NA,NA,NA,NA,6,#FA92F8,#1CD855,0,10,1,38,1,634,39,0,393.0000000001164,10,0,experiment,NA,NA,2,0.5,0.5,4,5,191,5,NA
fcp-trial,240,1031980,0.0-201.0-0.0,voc_e2,11793,"[{""event"":""fullscreenenter"",""trial"":1,""time"":2197},{""event"":""blur"",""trial"":78,""time"":527942},{""event"":""fullscreenexit"",""trial"":78,""time"":533307},{""event"":""focus"",""trial"":78,""time"":533384}]",NA,NA,NA,NA,NA,3,#D8271C,#741CD8,0,10,0,38,1,922.0000000001164,37,1,386,0,0,experiment,NA,NA,0,0.1,0.9,1,0,192,5,NA
fcp-trial,241,1034553,0.0-202.0-0.0,voc_e2,11793,"[{""event"":""fullscreenenter"",""trial"":1,""time"":2197},{""event"":""blur"",""trial"":78,""time"":527942},{""event"":""fullscreenexit"",""trial"":78,""time"":533307},{""event"":""focus"",""trial"":78,""time"":533384}]",NA,NA,NA,NA,NA,1,#1CD855,#FA92F8,10,0,0,38,1,609.9999999998836,39,0,414.9999999998836,0,1,experiment,NA,NA,2,0.5,0.5,5,4,193,5,NA
fcp-trial,242,1037329,0.0-203.0-0.0,voc_e2,11793,"[{""event"":""fullscreenenter"",""trial"":1,""time"":2197},{""event"":""blur"",""trial"":78,""time"":527942},{""event"":""fullscreenexit"",""trial"":78,""time"":533307},{""event"":""focus"",""trial"":78,""time"":533384}]",NA,NA,NA,NA,NA,5,#D89F1C,#3386FF,0,10,0,38,1,912,37,1,317.9999999998836,0,0,experiment,NA,NA,1,0.3,0.7,3,2,194,5,NA
fcp-trial,243,1039962,0.0-204.0-0.0,voc_e2,11793,"[{""event"":""fullscreenenter"",""trial"":1,""time"":2197},{""event"":""blur"",""trial"":78,""time"":527942},{""event"":""fullscreenexit"",""trial"":78,""time"":533307},{""event"":""focus"",""trial"":78,""time"":533384}]",NA,NA,NA,NA,NA,2,#1CD855,#FA92F8,0,10,0,38,1,754.9999999998836,39,0,365,10,1,experiment,NA,NA,2,0.5,0.5,5,4,195,5,NA
fcp-trial,244,1042929,0.0-205.0-0.0,voc_e2,11793,"[{""event"":""fullscreenenter"",""trial"":1,""time"":2197},{""event"":""blur"",""trial"":78,""time"":527942},{""event"":""fullscreenexit"",""trial"":78,""time"":533307},{""event"":""focus"",""trial"":78,""time"":533384}]",NA,NA,NA,NA,NA,1,#D8271C,#741CD8,0,10,0,38,1,940,37,1,514.0000000001164,0,0,experiment,NA,NA,0,0.1,0.9,1,0,196,5,NA
fcp-trial,245,1045475,0.0-206.0-0.0,voc_e2,11793,"[{""event"":""fullscreenenter"",""trial"":1,""time"":2197},{""event"":""blur"",""trial"":78,""time"":527942},{""event"":""fullscreenexit"",""trial"":78,""time"":533307},{""event"":""focus"",""trial"":78,""time"":533384}]",NA,NA,NA,NA,NA,5,#D8271C,#741CD8,0,10,0,38,1,514,39,0,517,10,1,experiment,NA,NA,0,0.1,0.9,1,0,197,5,NA
fcp-trial,246,1048292,0.0-207.0-0.0,voc_e2,11793,"[{""event"":""fullscreenenter"",""trial"":1,""time"":2197},{""event"":""blur"",""trial"":78,""time"":527942},{""event"":""fullscreenexit"",""trial"":78,""time"":533307},{""event"":""focus"",""trial"":78,""time"":533384}]",NA,NA,NA,NA,NA,0,#D89F1C,#3386FF,0,10,0,38,1,799,37,1,464,0,0,experiment,NA,NA,1,0.3,0.7,3,2,198,5,NA
fcp-trial,247,1050736,0.0-208.0-0.0,voc_e2,11793,"[{""event"":""fullscreenenter"",""trial"":1,""time"":2197},{""event"":""blur"",""trial"":78,""time"":527942},{""event"":""fullscreenexit"",""trial"":78,""time"":533307},{""event"":""focus"",""trial"":78,""time"":533384}]",NA,NA,NA,NA,NA,3,#D89F1C,#3386FF,0,10,0,38,1,571,39,0,317.99999999976717,10,1,experiment,NA,NA,1,0.3,0.7,3,2,199,5,NA
fcp-trial,248,1053104,0.0-209.0-0.0,voc_e2,11793,"[{""event"":""fullscreenenter"",""trial"":1,""time"":2197},{""event"":""blur"",""trial"":78,""time"":527942},{""event"":""fullscreenexit"",""trial"":78,""time"":533307},{""event"":""focus"",""trial"":78,""time"":533384}]",NA,NA,NA,NA,NA,3,#1CD855,#FA92F8,10,0,0,38,1,547,37,1,309,10,0,experiment,NA,NA,2,0.5,0.5,5,4,200,5,NA
fcp-trial,249,1055955,0.0-210.0-0.0,voc_e2,11793,"[{""event"":""fullscreenenter"",""trial"":1,""time"":2197},{""event"":""blur"",""trial"":78,""time"":527942},{""event"":""fullscreenexit"",""trial"":78,""time"":533307},{""event"":""focus"",""trial"":78,""time"":533384}]",NA,NA,NA,NA,NA,4,#D8271C,#741CD8,0,10,0,38,1,587,39,0,753,10,1,experiment,NA,NA,0,0.1,0.9,1,0,201,5,NA
fcp-trial,250,1058371,0.0-211.0-0.0,voc_e2,11793,"[{""event"":""fullscreenenter"",""trial"":1,""time"":2197},{""event"":""blur"",""trial"":78,""time"":527942},{""event"":""fullscreenexit"",""trial"":78,""time"":533307},{""event"":""focus"",""trial"":78,""time"":533384}]",NA,NA,NA,NA,NA,6,#741CD8,#D8271C,10,0,1,38,1,540,37,1,364,10,1,experiment,NA,NA,0,0.9,0.1,0,1,202,5,NA
fcp-trial,251,1060555,0.0-212.0-0.0,voc_e2,11793,"[{""event"":""fullscreenenter"",""trial"":1,""time"":2197},{""event"":""blur"",""trial"":78,""time"":527942},{""event"":""fullscreenexit"",""trial"":78,""time"":533307},{""event"":""focus"",""trial"":78,""time"":533384}]",NA,NA,NA,NA,NA,2,#D89F1C,#3386FF,0,0,0,40,0,336,37,1,335,0,0,experiment,NA,NA,1,0.3,0.7,3,2,203,5,NA
fcp-trial,252,1063618,0.0-213.0-0.0,voc_e2,11793,"[{""event"":""fullscreenenter"",""trial"":1,""time"":2197},{""event"":""blur"",""trial"":78,""time"":527942},{""event"":""fullscreenexit"",""trial"":78,""time"":533307},{""event"":""focus"",""trial"":78,""time"":533384}]",NA,NA,NA,NA,NA,0,#D8271C,#741CD8,0,10,0,40,0,769,37,1,731,0,0,experiment,NA,NA,0,0.1,0.9,1,0,204,5,NA
fcp-trial,253,1066536,0.0-214.0-0.0,voc_e2,11793,"[{""event"":""fullscreenenter"",""trial"":1,""time"":2197},{""event"":""blur"",""trial"":78,""time"":527942},{""event"":""fullscreenexit"",""trial"":78,""time"":533307},{""event"":""focus"",""trial"":78,""time"":533384}]",NA,NA,NA,NA,NA,4,#FA92F8,#1CD855,0,10,1,38,1,792,39,0,610,10,0,experiment,NA,NA,2,0.5,0.5,4,5,205,5,NA
fcp-trial,254,1069467,0.0-215.0-0.0,voc_e2,11793,"[{""event"":""fullscreenenter"",""trial"":1,""time"":2197},{""event"":""blur"",""trial"":78,""time"":527942},{""event"":""fullscreenexit"",""trial"":78,""time"":533307},{""event"":""focus"",""trial"":78,""time"":533384}]",NA,NA,NA,NA,NA,1,#D89F1C,#3386FF,10,10,0,40,0,897,39,0,523,10,1,experiment,NA,NA,1,0.3,0.7,3,2,206,5,NA
fcp-trial,255,1072505,0.0-216.0-0.0,voc_e2,11793,"[{""event"":""fullscreenenter"",""trial"":1,""time"":2197},{""event"":""blur"",""trial"":78,""time"":527942},{""event"":""fullscreenexit"",""trial"":78,""time"":533307},{""event"":""focus"",""trial"":78,""time"":533384}]",NA,NA,NA,NA,NA,4,#3386FF,#D89F1C,10,0,1,40,0,1047,37,1,448,10,1,experiment,NA,NA,1,0.7,0.3,2,3,207,5,NA
fcp-trial,256,1075695,0.0-217.0-0.0,voc_e2,11793,"[{""event"":""fullscreenenter"",""trial"":1,""time"":2197},{""event"":""blur"",""trial"":78,""time"":527942},{""event"":""fullscreenexit"",""trial"":78,""time"":533307},{""event"":""focus"",""trial"":78,""time"":533384}]",NA,NA,NA,NA,NA,5,#1CD855,#FA92F8,0,10,0,40,0,1141,39,0,535,10,1,experiment,NA,NA,2,0.5,0.5,5,4,208,5,NA
fcp-trial,257,1078591,0.0-218.0-0.0,voc_e2,11793,"[{""event"":""fullscreenenter"",""trial"":1,""time"":2197},{""event"":""blur"",""trial"":78,""time"":527942},{""event"":""fullscreenexit"",""trial"":78,""time"":533307},{""event"":""focus"",""trial"":78,""time"":533384}]",NA,NA,NA,NA,NA,2,#741CD8,#D8271C,10,0,1,40,0,831,39,0,554,0,0,experiment,NA,NA,0,0.9,0.1,0,1,209,5,NA
fcp-trial,258,1081249,0.0-219.0-0.0,voc_e2,11793,"[{""event"":""fullscreenenter"",""trial"":1,""time"":2197},{""event"":""blur"",""trial"":78,""time"":527942},{""event"":""fullscreenexit"",""trial"":78,""time"":533307},{""event"":""focus"",""trial"":78,""time"":533384}]",NA,NA,NA,NA,NA,6,#3386FF,#D89F1C,0,0,1,38,1,369,39,0,777,0,0,experiment,NA,NA,1,0.7,0.3,2,3,210,5,NA
audio-instructions,259,1086198,0.0-220.0,voc_e2,11793,"[{""event"":""fullscreenenter"",""trial"":1,""time"":2197},{""event"":""blur"",""trial"":78,""time"":527942},{""event"":""fullscreenexit"",""trial"":78,""time"":533307},{""event"":""focus"",""trial"":78,""time"":533384}]",NA,505,static/audio/pause.wav,NA,0,NA,NA,NA,NA,NA,NA,NA,NA,NA,NA,NA,NA,NA,NA,NA,NA,NA,NA,NA,NA,NA,NA,NA,NA,NA
fcp-trial,260,1089231,0.0-221.0-0.0,voc_e2,11793,"[{""event"":""fullscreenenter"",""trial"":1,""time"":2197},{""event"":""blur"",""trial"":78,""time"":527942},{""event"":""fullscreenexit"",""trial"":78,""time"":533307},{""event"":""focus"",""trial"":78,""time"":533384}]",NA,NA,NA,NA,NA,3,#D8271C,#741CD8,0,10,0,40,0,1180,39,0,346,10,1,experiment,NA,NA,0,0.1,0.9,1,0,211,5,NA
fcp-trial,261,1092007,0.0-222.0-0.0,voc_e2,11793,"[{""event"":""fullscreenenter"",""trial"":1,""time"":2197},{""event"":""blur"",""trial"":78,""time"":527942},{""event"":""fullscreenexit"",""trial"":78,""time"":533307},{""event"":""focus"",""trial"":78,""time"":533384}]",NA,NA,NA,NA,NA,2,#1CD855,#FA92F8,0,10,0,40,0,824,37,1,439,0,0,experiment,NA,NA,2,0.5,0.5,5,4,212,5,NA
fcp-trial,262,1094301,0.0-223.0-0.0,voc_e2,11793,"[{""event"":""fullscreenenter"",""trial"":1,""time"":2197},{""event"":""blur"",""trial"":78,""time"":527942},{""event"":""fullscreenexit"",""trial"":78,""time"":533307},{""event"":""focus"",""trial"":78,""time"":533384}]",NA,NA,NA,NA,NA,4,#3386FF,#D89F1C,0,0,1,38,1,393,39,0,357,0,0,experiment,NA,NA,1,0.7,0.3,2,3,213,5,NA
fcp-trial,263,1097349,0.0-224.0-0.0,voc_e2,11793,"[{""event"":""fullscreenenter"",""trial"":1,""time"":2197},{""event"":""blur"",""trial"":78,""time"":527942},{""event"":""fullscreenexit"",""trial"":78,""time"":533307},{""event"":""focus"",""trial"":78,""time"":533384}]",NA,NA,NA,NA,NA,5,#741CD8,#D8271C,10,0,1,38,1,1138.9999999997672,37,1,393,10,1,experiment,NA,NA,0,0.9,0.1,0,1,214,5,NA
fcp-trial,264,1100153,0.0-225.0-0.0,voc_e2,11793,"[{""event"":""fullscreenenter"",""trial"":1,""time"":2197},{""event"":""blur"",""trial"":78,""time"":527942},{""event"":""fullscreenexit"",""trial"":78,""time"":533307},{""event"":""focus"",""trial"":78,""time"":533384}]",NA,NA,NA,NA,NA,3,#D89F1C,#3386FF,0,10,0,40,0,933.9999999997672,39,0,356,10,1,experiment,NA,NA,1,0.3,0.7,3,2,215,5,NA
fcp-trial,265,1103073,0.0-226.0-0.0,voc_e2,11793,"[{""event"":""fullscreenenter"",""trial"":1,""time"":2197},{""event"":""blur"",""trial"":78,""time"":527942},{""event"":""fullscreenexit"",""trial"":78,""time"":533307},{""event"":""focus"",""trial"":78,""time"":533384}]",NA,NA,NA,NA,NA,6,#1CD855,#FA92F8,0,10,0,40,0,1106,37,1,302,0,0,experiment,NA,NA,2,0.5,0.5,5,4,216,5,NA
fcp-trial,266,1106538,0.0-227.0-0.0,voc_e2,11793,"[{""event"":""fullscreenenter"",""trial"":1,""time"":2197},{""event"":""blur"",""trial"":78,""time"":527942},{""event"":""fullscreenexit"",""trial"":78,""time"":533307},{""event"":""focus"",""trial"":78,""time"":533384}]",NA,NA,NA,NA,NA,6,#D89F1C,#3386FF,10,10,0,40,0,1521,37,1,432,10,0,experiment,NA,NA,1,0.3,0.7,3,2,217,5,NA
fcp-trial,267,1109622,0.0-228.0-0.0,voc_e2,11793,"[{""event"":""fullscreenenter"",""trial"":1,""time"":2197},{""event"":""blur"",""trial"":78,""time"":527942},{""event"":""fullscreenexit"",""trial"":78,""time"":533307},{""event"":""focus"",""trial"":78,""time"":533384}]",NA,NA,NA,NA,NA,0,#D8271C,#741CD8,0,10,0,38,1,1207,39,0,366,10,1,experiment,NA,NA,0,0.1,0.9,1,0,218,5,NA
fcp-trial,268,1112904,0.0-229.0-0.0,voc_e2,11793,"[{""event"":""fullscreenenter"",""trial"":1,""time"":2197},{""event"":""blur"",""trial"":78,""time"":527942},{""event"":""fullscreenexit"",""trial"":78,""time"":533307},{""event"":""focus"",""trial"":78,""time"":533384}]",NA,NA,NA,NA,NA,1,#1CD855,#FA92F8,10,0,0,40,0,951,37,1,820,10,0,experiment,NA,NA,2,0.5,0.5,5,4,219,5,NA
fcp-trial,269,1115676,0.0-230.0-0.0,voc_e2,11793,"[{""event"":""fullscreenenter"",""trial"":1,""time"":2197},{""event"":""blur"",""trial"":78,""time"":527942},{""event"":""fullscreenexit"",""trial"":78,""time"":533307},{""event"":""focus"",""trial"":78,""time"":533384}]",NA,NA,NA,NA,NA,3,#FA92F8,#1CD855,10,0,1,40,0,817,39,0,442,0,0,experiment,NA,NA,2,0.5,0.5,4,5,220,5,NA
fcp-trial,270,1118775,0.0-231.0-0.0,voc_e2,11793,"[{""event"":""fullscreenenter"",""trial"":1,""time"":2197},{""event"":""blur"",""trial"":78,""time"":527942},{""event"":""fullscreenexit"",""trial"":78,""time"":533307},{""event"":""focus"",""trial"":78,""time"":533384}]",NA,NA,NA,NA,NA,2,#D89F1C,#3386FF,0,10,0,40,0,955.9999999997672,37,1,631,0,0,experiment,NA,NA,1,0.3,0.7,3,2,221,5,NA
fcp-trial,271,1121656,0.0-232.0-0.0,voc_e2,11793,"[{""event"":""fullscreenenter"",""trial"":1,""time"":2197},{""event"":""blur"",""trial"":78,""time"":527942},{""event"":""fullscreenexit"",""trial"":78,""time"":533307},{""event"":""focus"",""trial"":78,""time"":533384}]",NA,NA,NA,NA,NA,0,#3386FF,#D89F1C,0,0,1,38,1,923,39,0,448,0,0,experiment,NA,NA,1,0.7,0.3,2,3,222,5,NA
fcp-trial,272,1124319,0.0-233.0-0.0,voc_e2,11793,"[{""event"":""fullscreenenter"",""trial"":1,""time"":2197},{""event"":""blur"",""trial"":78,""time"":527942},{""event"":""fullscreenexit"",""trial"":78,""time"":533307},{""event"":""focus"",""trial"":78,""time"":533384}]",NA,NA,NA,NA,NA,6,#741CD8,#D8271C,10,0,1,38,1,658,37,1,499,10,1,experiment,NA,NA,0,0.9,0.1,0,1,223,5,NA
fcp-trial,273,1127038,0.0-234.0-0.0,voc_e2,11793,"[{""event"":""fullscreenenter"",""trial"":1,""time"":2197},{""event"":""blur"",""trial"":78,""time"":527942},{""event"":""fullscreenexit"",""trial"":78,""time"":533307},{""event"":""focus"",""trial"":78,""time"":533384}]",NA,NA,NA,NA,NA,4,#FA92F8,#1CD855,0,0,1,40,0,714,37,1,496,0,1,experiment,NA,NA,2,0.5,0.5,4,5,224,5,NA
fcp-trial,274,1129885,0.0-235.0-0.0,voc_e2,11793,"[{""event"":""fullscreenenter"",""trial"":1,""time"":2197},{""event"":""blur"",""trial"":78,""time"":527942},{""event"":""fullscreenexit"",""trial"":78,""time"":533307},{""event"":""focus"",""trial"":78,""time"":533384}]",NA,NA,NA,NA,NA,2,#D8271C,#741CD8,0,10,0,38,1,802,39,0,536,10,1,experiment,NA,NA,0,0.1,0.9,1,0,225,5,NA
fcp-trial,275,1132962,0.0-236.0-0.0,voc_e2,11793,"[{""event"":""fullscreenenter"",""trial"":1,""time"":2197},{""event"":""blur"",""trial"":78,""time"":527942},{""event"":""fullscreenexit"",""trial"":78,""time"":533307},{""event"":""focus"",""trial"":78,""time"":533384}]",NA,NA,NA,NA,NA,5,#D89F1C,#3386FF,0,10,0,40,0,1020.0000000002328,37,1,517.9999999997672,0,0,experiment,NA,NA,1,0.3,0.7,3,2,226,6,NA
fcp-trial,276,1136139,0.0-237.0-0.0,voc_e2,11793,"[{""event"":""fullscreenenter"",""trial"":1,""time"":2197},{""event"":""blur"",""trial"":78,""time"":527942},{""event"":""fullscreenexit"",""trial"":78,""time"":533307},{""event"":""focus"",""trial"":78,""time"":533384}]",NA,NA,NA,NA,NA,4,#741CD8,#D8271C,10,0,1,40,0,971,37,1,698.9999999997672,10,1,experiment,NA,NA,0,0.9,0.1,0,1,227,6,NA
fcp-trial,277,1139175,0.0-238.0-0.0,voc_e2,11793,"[{""event"":""fullscreenenter"",""trial"":1,""time"":2197},{""event"":""blur"",""trial"":78,""time"":527942},{""event"":""fullscreenexit"",""trial"":78,""time"":533307},{""event"":""focus"",""trial"":78,""time"":533384}]",NA,NA,NA,NA,NA,5,#1CD855,#FA92F8,10,0,0,40,0,992,37,1,536,10,0,experiment,NA,NA,2,0.5,0.5,5,4,228,6,NA
fcp-trial,278,1142172,0.0-239.0-0.0,voc_e2,11793,"[{""event"":""fullscreenenter"",""trial"":1,""time"":2197},{""event"":""blur"",""trial"":78,""time"":527942},{""event"":""fullscreenexit"",""trial"":78,""time"":533307},{""event"":""focus"",""trial"":78,""time"":533384}]",NA,NA,NA,NA,NA,1,#3386FF,#D89F1C,10,0,1,40,0,856,39,0,631,0,0,experiment,NA,NA,1,0.7,0.3,2,3,229,6,NA
fcp-trial,279,1144907,0.0-240.0-0.0,voc_e2,11793,"[{""event"":""fullscreenenter"",""trial"":1,""time"":2197},{""event"":""blur"",""trial"":78,""time"":527942},{""event"":""fullscreenexit"",""trial"":78,""time"":533307},{""event"":""focus"",""trial"":78,""time"":533384}]",NA,NA,NA,NA,NA,0,#1CD855,#FA92F8,10,0,0,40,0,675.0000000002328,39,0,548,0,1,experiment,NA,NA,2,0.5,0.5,5,4,230,6,NA
fcp-trial,280,1147315,0.0-241.0-0.0,voc_e2,11793,"[{""event"":""fullscreenenter"",""trial"":1,""time"":2197},{""event"":""blur"",""trial"":78,""time"":527942},{""event"":""fullscreenexit"",""trial"":78,""time"":533307},{""event"":""focus"",""trial"":78,""time"":533384}]",NA,NA,NA,NA,NA,1,#741CD8,#D8271C,10,0,1,40,0,552,37,1,344,10,1,experiment,NA,NA,0,0.9,0.1,0,1,231,6,NA
fcp-trial,281,1150331,0.0-242.0-0.0,voc_e2,11793,"[{""event"":""fullscreenenter"",""trial"":1,""time"":2197},{""event"":""blur"",""trial"":78,""time"":527942},{""event"":""fullscreenexit"",""trial"":78,""time"":533307},{""event"":""focus"",""trial"":78,""time"":533384}]",NA,NA,NA,NA,NA,6,#FA92F8,#1CD855,10,10,1,40,0,893,37,1,566,10,1,experiment,NA,NA,2,0.5,0.5,4,5,232,6,NA
fcp-trial,282,1153053,0.0-243.0-0.0,voc_e2,11793,"[{""event"":""fullscreenenter"",""trial"":1,""time"":2197},{""event"":""blur"",""trial"":78,""time"":527942},{""event"":""fullscreenexit"",""trial"":78,""time"":533307},{""event"":""focus"",""trial"":78,""time"":533384}]",NA,NA,NA,NA,NA,0,#741CD8,#D8271C,10,10,1,40,0,680,39,0,497,10,0,experiment,NA,NA,0,0.9,0.1,0,1,233,6,NA
fcp-trial,283,1156609,0.0-244.0-0.0,voc_e2,11793,"[{""event"":""fullscreenenter"",""trial"":1,""time"":2197},{""event"":""blur"",""trial"":78,""time"":527942},{""event"":""fullscreenexit"",""trial"":78,""time"":533307},{""event"":""focus"",""trial"":78,""time"":533384}]",NA,NA,NA,NA,NA,0,#3386FF,#D89F1C,10,10,1,38,1,1577,37,1,468,10,1,experiment,NA,NA,1,0.7,0.3,2,3,234,6,NA
fcp-trial,284,1159629,0.0-245.0-0.0,voc_e2,11793,"[{""event"":""fullscreenenter"",""trial"":1,""time"":2197},{""event"":""blur"",""trial"":78,""time"":527942},{""event"":""fullscreenexit"",""trial"":78,""time"":533307},{""event"":""focus"",""trial"":78,""time"":533384}]",NA,NA,NA,NA,NA,1,#741CD8,#D8271C,10,0,1,40,0,929,37,1,582,10,1,experiment,NA,NA,0,0.9,0.1,0,1,235,6,NA
fcp-trial,285,1162627,0.0-246.0-0.0,voc_e2,11793,"[{""event"":""fullscreenenter"",""trial"":1,""time"":2197},{""event"":""blur"",""trial"":78,""time"":527942},{""event"":""fullscreenexit"",""trial"":78,""time"":533307},{""event"":""focus"",""trial"":78,""time"":533384}]",NA,NA,NA,NA,NA,4,#FA92F8,#1CD855,10,0,1,40,0,849,39,0,605,0,0,experiment,NA,NA,2,0.5,0.5,4,5,236,6,NA
fcp-trial,286,1165302,0.0-247.0-0.0,voc_e2,11793,"[{""event"":""fullscreenenter"",""trial"":1,""time"":2197},{""event"":""blur"",""trial"":78,""time"":527942},{""event"":""fullscreenexit"",""trial"":78,""time"":533307},{""event"":""focus"",""trial"":78,""time"":533384}]",NA,NA,NA,NA,NA,3,#D8271C,#741CD8,0,10,0,38,1,790,37,1,373,0,0,experiment,NA,NA,0,0.1,0.9,1,0,237,6,NA
fcp-trial,287,1167944,0.0-248.0-0.0,voc_e2,11793,"[{""event"":""fullscreenenter"",""trial"":1,""time"":2197},{""event"":""blur"",""trial"":78,""time"":527942},{""event"":""fullscreenexit"",""trial"":78,""time"":533307},{""event"":""focus"",""trial"":78,""time"":533384}]",NA,NA,NA,NA,NA,6,#741CD8,#D8271C,10,0,1,38,1,721,37,1,376,10,1,experiment,NA,NA,0,0.9,0.1,0,1,238,6,NA
fcp-trial,288,1170477,0.0-249.0-0.0,voc_e2,11793,"[{""event"":""fullscreenenter"",""trial"":1,""time"":2197},{""event"":""blur"",""trial"":78,""time"":527942},{""event"":""fullscreenexit"",""trial"":78,""time"":533307},{""event"":""focus"",""trial"":78,""time"":533384}]",NA,NA,NA,NA,NA,5,#D89F1C,#3386FF,0,10,0,38,1,729,39,0,293,10,1,experiment,NA,NA,1,0.3,0.7,3,2,239,6,NA
fcp-trial,289,1173247,0.0-250.0-0.0,voc_e2,11793,"[{""event"":""fullscreenenter"",""trial"":1,""time"":2197},{""event"":""blur"",""trial"":78,""time"":527942},{""event"":""fullscreenexit"",""trial"":78,""time"":533307},{""event"":""focus"",""trial"":78,""time"":533384}]",NA,NA,NA,NA,NA,4,#D8271C,#741CD8,0,10,0,40,0,792,37,1,467,0,0,experiment,NA,NA,0,0.1,0.9,1,0,240,6,NA
fcp-trial,290,1175521,0.0-251.0-0.0,voc_e2,11793,"[{""event"":""fullscreenenter"",""trial"":1,""time"":2197},{""event"":""blur"",""trial"":78,""time"":527942},{""event"":""fullscreenexit"",""trial"":78,""time"":533307},{""event"":""focus"",""trial"":78,""time"":533384}]",NA,NA,NA,NA,NA,2,#1CD855,#FA92F8,0,10,0,38,1,360,39,0,402,10,1,experiment,NA,NA,2,0.5,0.5,5,4,241,6,NA
fcp-trial,291,1178277,0.0-252.0-0.0,voc_e2,11793,"[{""event"":""fullscreenenter"",""trial"":1,""time"":2197},{""event"":""blur"",""trial"":78,""time"":527942},{""event"":""fullscreenexit"",""trial"":78,""time"":533307},{""event"":""focus"",""trial"":78,""time"":533384}]",NA,NA,NA,NA,NA,1,#D89F1C,#3386FF,0,0,0,40,0,548,39,0,665,0,1,experiment,NA,NA,1,0.3,0.7,3,2,242,6,NA
fcp-trial,292,1180914,0.0-253.0-0.0,voc_e2,11793,"[{""event"":""fullscreenenter"",""trial"":1,""time"":2197},{""event"":""blur"",""trial"":78,""time"":527942},{""event"":""fullscreenexit"",""trial"":78,""time"":533307},{""event"":""focus"",""trial"":78,""time"":533384}]",NA,NA,NA,NA,NA,3,#FA92F8,#1CD855,10,0,1,38,1,758,37,1,367,10,1,experiment,NA,NA,2,0.5,0.5,4,5,243,6,NA
