trial_type,trial_index,time_elapsed,internal_node_id,task_version,subject_id,interactions,success,rt,stimulus,key_press,button_pressed,offer,arcade_color_L,arcade_color_R,arcade_outcome_L,arcade_outcome_R,correct,stage_1_key,stage_1_choice,stage_1_rt,stage_2_key,stage_2_choice,stage_2_rt,stage_3_outcome,accuracy,phase,responses,num_errors,context,reward_prob_L,reward_prob_R,arcade_id_L,arcade_id_R,trial,block,response
pavlovia,0,14,0.0-0.0,voc_e2,12091,[],NA,NA,NA,NA,NA,NA,NA,NA,NA,NA,NA,NA,NA,NA,NA,NA,NA,NA,NA,NA,NA,NA,NA,NA,NA,NA,NA,NA,NA,NA
fullscreen,1,3281,0.0-1.0,voc_e2,12091,"[{""event"":""fullscreenenter"",""trial"":1,""time"":2297}]",TRUE,NA,NA,NA,NA,NA,NA,NA,NA,NA,NA,NA,NA,NA,NA,NA,NA,NA,NA,NA,NA,NA,NA,NA,NA,NA,NA,NA,NA,NA
audio-keyboard-response,2,7196,0.0-2.0,voc_e2,12091,"[{""event"":""fullscreenenter"",""trial"":1,""time"":2297}]",NA,3701,static/audio/beep_loop.wav,32,NA,NA,NA,NA,NA,NA,NA,NA,NA,NA,NA,NA,NA,NA,NA,NA,NA,NA,NA,NA,NA,NA,NA,NA,NA,NA
audio-test,3,19461,0.0-3.0,voc_e2,12091,"[{""event"":""fullscreenenter"",""trial"":1,""time"":2297}]",NA,NA,static/audio/turtle.wav,NA,3,NA,NA,NA,NA,NA,NA,NA,NA,NA,NA,NA,NA,NA,NA,NA,NA,NA,NA,NA,NA,NA,NA,NA,NA,NA
audio-test,4,24879,0.0-4.0,voc_e2,12091,"[{""event"":""fullscreenenter"",""trial"":1,""time"":2297}]",NA,NA,static/audio/shark.wav,NA,2,NA,NA,NA,NA,NA,NA,NA,NA,NA,NA,NA,NA,NA,NA,NA,NA,NA,NA,NA,NA,NA,NA,NA,NA,NA
audio-instructions,5,32562,0.0-5.0-0.0,voc_e2,12091,"[{""event"":""fullscreenenter"",""trial"":1,""time"":2297}]",NA,1896.199999988079,static/audio/instructions1.wav,NA,0,NA,NA,NA,NA,NA,NA,NA,NA,NA,NA,NA,NA,NA,NA,NA,NA,NA,NA,NA,NA,NA,NA,NA,NA,NA
audio-instructions,6,40125,0.0-5.0-1.0,voc_e2,12091,"[{""event"":""fullscreenenter"",""trial"":1,""time"":2297}]",NA,820.5999999642372,static/audio/instructions2.wav,NA,0,NA,NA,NA,NA,NA,NA,NA,NA,NA,NA,NA,NA,NA,NA,NA,NA,NA,NA,NA,NA,NA,NA,NA,NA,NA
audio-instructions,7,46556,0.0-5.0-2.0,voc_e2,12091,"[{""event"":""fullscreenenter"",""trial"":1,""time"":2297}]",NA,621.3000000119209,static/audio/instructions3.wav,NA,0,NA,NA,NA,NA,NA,NA,NA,NA,NA,NA,NA,NA,NA,NA,NA,NA,NA,NA,NA,NA,NA,NA,NA,NA,NA
audio-instructions,8,115100,0.0-5.0-3.0,voc_e2,12091,"[{""event"":""fullscreenenter"",""trial"":1,""time"":2297}]",NA,55315.80000001192,static/audio/instructions4.wav,NA,0,NA,NA,NA,NA,NA,NA,NA,NA,NA,NA,NA,NA,NA,NA,NA,NA,NA,NA,NA,NA,NA,NA,NA,NA,NA
audio-instructions,9,127742,0.0-5.0-4.0,voc_e2,12091,"[{""event"":""fullscreenenter"",""trial"":1,""time"":2297}]",NA,3170,static/audio/instructions5.wav,NA,0,NA,NA,NA,NA,NA,NA,NA,NA,NA,NA,NA,NA,NA,NA,NA,NA,NA,NA,NA,NA,NA,NA,NA,NA,NA
fcp-practice,10,130323,0.0-5.0-5.0-0.0,voc_e2,12091,"[{""event"":""fullscreenenter"",""trial"":1,""time"":2297}]",NA,NA,NA,NA,NA,NA,#EDC948,#46d3c8,10,0,1,null,null,null,37,1,1064.4000000357628,10,1,practice,NA,NA,NA,NA,NA,NA,NA,NA,NA,NA
fcp-practice,11,132366,0.0-5.0-5.0-1.0,voc_e2,12091,"[{""event"":""fullscreenenter"",""trial"":1,""time"":2297}]",NA,NA,NA,NA,NA,NA,#EDC948,#46d3c8,10,0,1,null,null,null,37,1,533,10,1,practice,NA,NA,NA,NA,NA,NA,NA,NA,NA,NA
fcp-practice,12,134542,0.0-5.0-5.0-2.0,voc_e2,12091,"[{""event"":""fullscreenenter"",""trial"":1,""time"":2297}]",NA,NA,NA,NA,NA,NA,#EDC948,#46d3c8,0,10,1,null,null,null,37,1,656.7000000476837,0,1,practice,NA,NA,NA,NA,NA,NA,NA,NA,NA,NA
fcp-practice,13,136588,0.0-5.0-5.0-3.0,voc_e2,12091,"[{""event"":""fullscreenenter"",""trial"":1,""time"":2297}]",NA,NA,NA,NA,NA,NA,#EDC948,#46d3c8,10,0,1,null,null,null,37,1,525.6999999880791,10,1,practice,NA,NA,NA,NA,NA,NA,NA,NA,NA,NA
fcp-practice,14,138880,0.0-5.0-5.0-4.0,voc_e2,12091,"[{""event"":""fullscreenenter"",""trial"":1,""time"":2297}]",NA,NA,NA,NA,NA,NA,#EDC948,#46d3c8,10,0,1,null,null,null,37,1,759.3000000119209,10,1,practice,NA,NA,NA,NA,NA,NA,NA,NA,NA,NA
audio-instructions,15,159030,0.0-5.0-6.0,voc_e2,12091,"[{""event"":""fullscreenenter"",""trial"":1,""time"":2297}]",NA,2137.399999976158,static/audio/instructions6.wav,NA,0,NA,NA,NA,NA,NA,NA,NA,NA,NA,NA,NA,NA,NA,NA,NA,NA,NA,NA,NA,NA,NA,NA,NA,NA,NA
audio-instructions,16,181831,0.0-5.0-7.0,voc_e2,12091,"[{""event"":""fullscreenenter"",""trial"":1,""time"":2297}]",NA,3598.699999988079,static/audio/instructions7.wav,NA,0,NA,NA,NA,NA,NA,NA,NA,NA,NA,NA,NA,NA,NA,NA,NA,NA,NA,NA,NA,NA,NA,NA,NA,NA,NA
audio-instructions,17,191736,0.0-5.0-8.0,voc_e2,12091,"[{""event"":""fullscreenenter"",""trial"":1,""time"":2297}]",NA,423.699999988079,static/audio/instructions8.wav,NA,0,NA,NA,NA,NA,NA,NA,NA,NA,NA,NA,NA,NA,NA,NA,NA,NA,NA,NA,NA,NA,NA,NA,NA,NA,NA
fcp-comprehension,18,198727,0.0-5.0-9.0,voc_e2,12091,"[{""event"":""fullscreenenter"",""trial"":1,""time"":2297}]",NA,6988.699999988079,NA,NA,NA,NA,NA,NA,NA,NA,NA,NA,NA,NA,NA,NA,NA,NA,NA,NA,"true,true",0,NA,NA,NA,NA,NA,NA,NA,NA
audio-instructions,19,206069,0.0-6.0-0.0,voc_e2,12091,"[{""event"":""fullscreenenter"",""trial"":1,""time"":2297}]",NA,1796.800000011921,static/audio/instructions9.wav,NA,0,NA,NA,NA,NA,NA,NA,NA,NA,NA,NA,NA,NA,NA,NA,NA,NA,NA,NA,NA,NA,NA,NA,NA,NA,NA
audio-instructions,20,218714,0.0-6.0-1.0,voc_e2,12091,"[{""event"":""fullscreenenter"",""trial"":1,""time"":2297}]",NA,531.6999999880791,static/audio/instructions10.wav,NA,0,NA,NA,NA,NA,NA,NA,NA,NA,NA,NA,NA,NA,NA,NA,NA,NA,NA,NA,NA,NA,NA,NA,NA,NA,NA
fcp-trial,21,224630,0.0-6.0-2.0,voc_e2,12091,"[{""event"":""fullscreenenter"",""trial"":1,""time"":2297}]",NA,NA,NA,NA,NA,0,#EDC948,#46d3c8,10,10,1,38,1,2978.800000011921,37,1,1405.199999988079,10,1,practice,NA,NA,NA,NA,NA,NA,NA,NA,NA,NA
audio-instructions,22,237254,0.0-6.0-3.0,voc_e2,12091,"[{""event"":""fullscreenenter"",""trial"":1,""time"":2297}]",NA,1611.5999999642372,static/audio/instructions11.wav,NA,0,NA,NA,NA,NA,NA,NA,NA,NA,NA,NA,NA,NA,NA,NA,NA,NA,NA,NA,NA,NA,NA,NA,NA,NA,NA
fcp-trial,23,240963,0.0-6.0-4.0,voc_e2,12091,"[{""event"":""fullscreenenter"",""trial"":1,""time"":2297}]",NA,NA,NA,NA,NA,6,#EDC948,#46d3c8,10,10,1,40,0,1190.0999999642372,37,1,997.2999999523164,10,1,practice,NA,NA,NA,NA,NA,NA,NA,NA,NA,NA
audio-instructions,24,262683,0.0-6.0-5.0,voc_e2,12091,"[{""event"":""fullscreenenter"",""trial"":1,""time"":2297}]",NA,3031.399999976158,static/audio/instructions12.wav,NA,0,NA,NA,NA,NA,NA,NA,NA,NA,NA,NA,NA,NA,NA,NA,NA,NA,NA,NA,NA,NA,NA,NA,NA,NA,NA
audio-instructions,25,274631,0.0-6.0-6.0,voc_e2,12091,"[{""event"":""fullscreenenter"",""trial"":1,""time"":2297}]",NA,4349,static/audio/instructions13.wav,NA,0,NA,NA,NA,NA,NA,NA,NA,NA,NA,NA,NA,NA,NA,NA,NA,NA,NA,NA,NA,NA,NA,NA,NA,NA,NA
audio-instructions,26,283967,0.0-6.0-7.0,voc_e2,12091,"[{""event"":""fullscreenenter"",""trial"":1,""time"":2297}]",NA,884.5,static/audio/instructions14.wav,NA,0,NA,NA,NA,NA,NA,NA,NA,NA,NA,NA,NA,NA,NA,NA,NA,NA,NA,NA,NA,NA,NA,NA,NA,NA,NA
audio-instructions,27,291749,0.0-7.0-0.0,voc_e2,12091,"[{""event"":""fullscreenenter"",""trial"":1,""time"":2297}]",NA,867,static/audio/instructions15.wav,NA,0,NA,NA,NA,NA,NA,NA,NA,NA,NA,NA,NA,NA,NA,NA,NA,NA,NA,NA,NA,NA,NA,NA,NA,NA,NA
audio-instructions,28,299924,0.0-7.0-1.0,voc_e2,12091,"[{""event"":""fullscreenenter"",""trial"":1,""time"":2297}]",NA,1352.7000000476835,static/audio/instructions16.wav,NA,0,NA,NA,NA,NA,NA,NA,NA,NA,NA,NA,NA,NA,NA,NA,NA,NA,NA,NA,NA,NA,NA,NA,NA,NA,NA
audio-instructions,29,308689,0.0-7.0-2.0,voc_e2,12091,"[{""event"":""fullscreenenter"",""trial"":1,""time"":2297}]",NA,1087.800000011921,static/audio/instructions17.wav,NA,0,NA,NA,NA,NA,NA,NA,NA,NA,NA,NA,NA,NA,NA,NA,NA,NA,NA,NA,NA,NA,NA,NA,NA,NA,NA
audio-instructions,30,316986,0.0-7.0-3.0,voc_e2,12091,"[{""event"":""fullscreenenter"",""trial"":1,""time"":2297}]",NA,524.6000000238419,static/audio/instructions18.wav,NA,0,NA,NA,NA,NA,NA,NA,NA,NA,NA,NA,NA,NA,NA,NA,NA,NA,NA,NA,NA,NA,NA,NA,NA,NA,NA
audio-instructions,31,324899,0.0-7.0-4.0,voc_e2,12091,"[{""event"":""fullscreenenter"",""trial"":1,""time"":2297}]",NA,1177.5,static/audio/instructions19.wav,NA,0,NA,NA,NA,NA,NA,NA,NA,NA,NA,NA,NA,NA,NA,NA,NA,NA,NA,NA,NA,NA,NA,NA,NA,NA,NA
fcp-comprehension,32,336687,0.0-7.0-5.0,voc_e2,12091,"[{""event"":""fullscreenenter"",""trial"":1,""time"":2297}]",NA,11786.30000001192,NA,NA,NA,NA,NA,NA,NA,NA,NA,NA,NA,NA,NA,NA,NA,NA,NA,NA,"false,false,false,true",0,NA,NA,NA,NA,NA,NA,NA,NA
audio-instructions,33,347596,0.0-8.0,voc_e2,12091,"[{""event"":""fullscreenenter"",""trial"":1,""time"":2297}]",NA,1693.5,static/audio/ready.wav,NA,0,NA,NA,NA,NA,NA,NA,NA,NA,NA,NA,NA,NA,NA,NA,NA,NA,NA,NA,NA,NA,NA,NA,NA,NA,NA
fcp-trial,34,354075,0.0-9.0-0.0,voc_e2,12091,"[{""event"":""fullscreenenter"",""trial"":1,""time"":2297}]",NA,NA,NA,NA,NA,2,#D89F1C,#3386FF,0,10,0,40,0,4097.699999988079,39,0,859.2999999523163,10,1,experiment,NA,NA,1,0.3,0.7,3,2,1,1,NA
fcp-trial,35,359345,0.0-10.0-0.0,voc_e2,12091,"[{""event"":""fullscreenenter"",""trial"":1,""time"":2297}]",NA,NA,NA,NA,NA,2,#1CD855,#FA92F8,10,0,1,40,0,3134.199999988079,39,0,599.3000000119209,0,0,experiment,NA,NA,0,0.9,0.1,0,1,2,1,NA
fcp-trial,36,363157,0.0-11.0-0.0,voc_e2,12091,"[{""event"":""fullscreenenter"",""trial"":1,""time"":2297}]",NA,NA,NA,NA,NA,2,#D8271C,#741CD8,0,10,0,40,0,1609,37,1,684.3000000119209,0,0,experiment,NA,NA,2,0.5,0.5,5,4,3,1,NA
fcp-trial,37,366707,0.0-12.0-0.0,voc_e2,12091,"[{""event"":""fullscreenenter"",""trial"":1,""time"":2297}]",NA,NA,NA,NA,NA,6,#D89F1C,#3386FF,0,10,0,40,0,1463.0999999642372,39,0,567.3999999761581,10,1,experiment,NA,NA,1,0.3,0.7,3,2,4,1,NA
fcp-trial,38,369827,0.0-13.0-0.0,voc_e2,12091,"[{""event"":""fullscreenenter"",""trial"":1,""time"":2297}]",NA,NA,NA,NA,NA,3,#3386FF,#D89F1C,10,0,1,40,0,1015.5999999642372,39,0,586.5,0,0,experiment,NA,NA,1,0.7,0.3,2,3,5,1,NA
fcp-trial,39,372868,0.0-14.0-0.0,voc_e2,12091,"[{""event"":""fullscreenenter"",""trial"":1,""time"":2297}]",NA,NA,NA,NA,NA,1,#D8271C,#741CD8,0,0,0,40,0,908.7000000476837,39,0,605.3000000119209,0,1,experiment,NA,NA,2,0.5,0.5,5,4,6,1,NA
fcp-trial,40,376342,0.0-15.0-0.0,voc_e2,12091,"[{""event"":""fullscreenenter"",""trial"":1,""time"":2297}]",NA,NA,NA,NA,NA,0,#FA92F8,#1CD855,0,10,0,38,1,1368.6000000238419,37,1,582,0,0,experiment,NA,NA,0,0.1,0.9,1,0,7,1,NA
fcp-trial,41,379764,0.0-16.0-0.0,voc_e2,12091,"[{""event"":""fullscreenenter"",""trial"":1,""time"":2297}]",NA,NA,NA,NA,NA,6,#741CD8,#D8271C,0,10,1,40,0,1265.699999988079,39,0,636.5,10,0,experiment,NA,NA,2,0.5,0.5,4,5,8,1,NA
fcp-trial,42,382869,0.0-17.0-0.0,voc_e2,12091,"[{""event"":""fullscreenenter"",""trial"":1,""time"":2297}]",NA,NA,NA,NA,NA,1,#3386FF,#D89F1C,10,0,1,40,0,988.3000000119209,39,0,603.8999999761581,0,0,experiment,NA,NA,1,0.7,0.3,2,3,9,1,NA
fcp-trial,43,385883,0.0-18.0-0.0,voc_e2,12091,"[{""event"":""fullscreenenter"",""trial"":1,""time"":2297}]",NA,NA,NA,NA,NA,4,#1CD855,#FA92F8,10,10,1,40,0,1030.3999999761581,37,1,466.800000011921,10,1,experiment,NA,NA,0,0.9,0.1,0,1,10,1,NA
fcp-trial,44,389200,0.0-19.0-0.0,voc_e2,12091,"[{""event"":""fullscreenenter"",""trial"":1,""time"":2297}]",NA,NA,NA,NA,NA,5,#D8271C,#741CD8,0,10,0,40,0,1284.5,39,0,514.6000000238419,10,1,experiment,NA,NA,2,0.5,0.5,5,4,11,1,NA
fcp-trial,45,393394,0.0-20.0-0.0,voc_e2,12091,"[{""event"":""fullscreenenter"",""trial"":1,""time"":2297}]",NA,NA,NA,NA,NA,0,#741CD8,#D8271C,0,0,1,38,1,2294.099999964237,37,1,387.699999988079,0,1,experiment,NA,NA,2,0.5,0.5,4,5,12,1,NA
fcp-trial,46,396891,0.0-21.0-0.0,voc_e2,12091,"[{""event"":""fullscreenenter"",""trial"":1,""time"":2297}]",NA,NA,NA,NA,NA,5,#1CD855,#FA92F8,10,0,1,40,0,1306.8999999761581,39,0,675.6999999880791,0,0,experiment,NA,NA,0,0.9,0.1,0,1,13,1,NA
fcp-trial,47,400589,0.0-22.0-0.0,voc_e2,12091,"[{""event"":""fullscreenenter"",""trial"":1,""time"":2297}]",NA,NA,NA,NA,NA,4,#3386FF,#D89F1C,10,0,1,40,0,1726.5,37,1,458.89999997615814,10,1,experiment,NA,NA,1,0.7,0.3,2,3,14,1,NA
fcp-trial,48,404051,0.0-23.0-0.0,voc_e2,12091,"[{""event"":""fullscreenenter"",""trial"":1,""time"":2297}]",NA,NA,NA,NA,NA,4,#D8271C,#741CD8,10,10,0,40,0,1395.199999988079,37,1,550.5,10,0,experiment,NA,NA,2,0.5,0.5,5,4,15,1,NA
fcp-trial,49,407740,0.0-24.0-0.0,voc_e2,12091,"[{""event"":""fullscreenenter"",""trial"":1,""time"":2297}]",NA,NA,NA,NA,NA,6,#1CD855,#FA92F8,10,0,1,40,0,1492.5,39,0,685.5,0,0,experiment,NA,NA,0,0.9,0.1,0,1,16,1,NA
fcp-trial,50,411834,0.0-25.0-0.0,voc_e2,12091,"[{""event"":""fullscreenenter"",""trial"":1,""time"":2297}]",NA,NA,NA,NA,NA,3,#D8271C,#741CD8,0,10,0,40,0,1482.5999999642372,39,0,1099.399999976158,10,1,experiment,NA,NA,2,0.5,0.5,5,4,17,1,NA
fcp-trial,51,416156,0.0-26.0-0.0,voc_e2,12091,"[{""event"":""fullscreenenter"",""trial"":1,""time"":2297}]",NA,NA,NA,NA,NA,5,#3386FF,#D89F1C,0,0,1,40,0,2036.699999988079,39,0,768.3000000119209,0,0,experiment,NA,NA,1,0.7,0.3,2,3,18,1,NA
fcp-trial,52,420188,0.0-27.0-0.0,voc_e2,12091,"[{""event"":""fullscreenenter"",""trial"":1,""time"":2297}]",NA,NA,NA,NA,NA,0,#D89F1C,#3386FF,0,10,0,38,1,1502.699999988079,39,0,1017.5,10,1,experiment,NA,NA,1,0.3,0.7,3,2,19,1,NA
fcp-trial,53,424143,0.0-28.0-0.0,voc_e2,12091,"[{""event"":""fullscreenenter"",""trial"":1,""time"":2297}]",NA,NA,NA,NA,NA,3,#1CD855,#FA92F8,10,0,1,40,0,1858,37,1,581.5,10,1,experiment,NA,NA,0,0.9,0.1,0,1,20,1,NA
fcp-trial,54,428713,0.0-29.0-0.0,voc_e2,12091,"[{""event"":""fullscreenenter"",""trial"":1,""time"":2297}]",NA,NA,NA,NA,NA,1,#FA92F8,#1CD855,0,10,0,40,0,2414.099999964237,39,0,628.1999999880791,10,1,experiment,NA,NA,0,0.1,0.9,1,0,21,1,NA
fcp-trial,55,432109,0.0-30.0-0.0,voc_e2,12091,"[{""event"":""fullscreenenter"",""trial"":1,""time"":2297}]",NA,NA,NA,NA,NA,5,#FA92F8,#1CD855,0,10,0,40,0,1351.4000000357628,37,1,533.9000000357628,0,0,experiment,NA,NA,0,0.1,0.9,1,0,22,1,NA
fcp-trial,56,435422,0.0-31.0-0.0,voc_e2,12091,"[{""event"":""fullscreenenter"",""trial"":1,""time"":2297}]",NA,NA,NA,NA,NA,0,#D89F1C,#3386FF,0,10,0,38,1,1330.5999999642372,39,0,468.300000011921,10,1,experiment,NA,NA,1,0.3,0.7,3,2,23,1,NA
fcp-trial,57,439596,0.0-32.0-0.0,voc_e2,12091,"[{""event"":""fullscreenenter"",""trial"":1,""time"":2297}]",NA,NA,NA,NA,NA,0,#741CD8,#D8271C,10,0,1,38,1,1515.7999999523163,39,0,1145.100000023842,0,0,experiment,NA,NA,2,0.5,0.5,4,5,24,1,NA
fcp-trial,58,443191,0.0-33.0-0.0,voc_e2,12091,"[{""event"":""fullscreenenter"",""trial"":1,""time"":2297}]",NA,NA,NA,NA,NA,3,#D89F1C,#3386FF,10,10,0,40,0,1677,39,0,405.199999988079,10,1,experiment,NA,NA,1,0.3,0.7,3,2,25,1,NA
fcp-trial,59,446911,0.0-34.0-0.0,voc_e2,12091,"[{""event"":""fullscreenenter"",""trial"":1,""time"":2297}]",NA,NA,NA,NA,NA,4,#D8271C,#741CD8,0,10,0,40,0,1660.0999999642372,39,0,547.6999999880791,10,1,experiment,NA,NA,2,0.5,0.5,5,4,26,1,NA
fcp-trial,60,450745,0.0-35.0-0.0,voc_e2,12091,"[{""event"":""fullscreenenter"",""trial"":1,""time"":2297}]",NA,NA,NA,NA,NA,6,#1CD855,#FA92F8,10,0,1,40,0,1844.699999988079,37,1,476.199999988079,10,1,experiment,NA,NA,0,0.9,0.1,0,1,27,1,NA
fcp-trial,61,454339,0.0-36.0-0.0,voc_e2,12091,"[{""event"":""fullscreenenter"",""trial"":1,""time"":2297}]",NA,NA,NA,NA,NA,2,#741CD8,#D8271C,0,0,1,40,0,1474.300000011921,39,0,604,0,0,experiment,NA,NA,2,0.5,0.5,4,5,28,1,NA
fcp-trial,62,457264,0.0-37.0-0.0,voc_e2,12091,"[{""event"":""fullscreenenter"",""trial"":1,""time"":2297}]",NA,NA,NA,NA,NA,6,#741CD8,#D8271C,10,0,1,40,0,951.1999999880791,37,1,461.800000011921,10,1,experiment,NA,NA,2,0.5,0.5,4,5,29,1,NA
fcp-trial,63,460547,0.0-38.0-0.0,voc_e2,12091,"[{""event"":""fullscreenenter"",""trial"":1,""time"":2297}]",NA,NA,NA,NA,NA,6,#3386FF,#D89F1C,10,0,1,40,0,1247.4000000357628,39,0,517.2999999523163,0,0,experiment,NA,NA,1,0.7,0.3,2,3,30,1,NA
fcp-trial,64,464189,0.0-39.0-0.0,voc_e2,12091,"[{""event"":""fullscreenenter"",""trial"":1,""time"":2297}]",NA,NA,NA,NA,NA,1,#3386FF,#D89F1C,10,10,1,38,1,1731,37,1,392.39999997615814,10,1,experiment,NA,NA,1,0.7,0.3,2,3,31,1,NA
fcp-trial,65,467713,0.0-40.0-0.0,voc_e2,12091,"[{""event"":""fullscreenenter"",""trial"":1,""time"":2297}]",NA,NA,NA,NA,NA,4,#1CD855,#FA92F8,10,0,1,40,0,1362.8999999761581,39,0,647.3999999761581,0,0,experiment,NA,NA,0,0.9,0.1,0,1,32,1,NA
fcp-trial,66,471855,0.0-41.0-0.0,voc_e2,12091,"[{""event"":""fullscreenenter"",""trial"":1,""time"":2297}]",NA,NA,NA,NA,NA,5,#3386FF,#D89F1C,10,0,1,40,0,1779.199999988079,39,0,850.1000000238419,0,0,experiment,NA,NA,1,0.7,0.3,2,3,33,1,NA
fcp-trial,67,475191,0.0-42.0-0.0,voc_e2,12091,"[{""event"":""fullscreenenter"",""trial"":1,""time"":2297}]",NA,NA,NA,NA,NA,3,#D8271C,#741CD8,0,0,0,40,0,1365.6000000238419,39,0,457.5,0,1,experiment,NA,NA,2,0.5,0.5,5,4,34,1,NA
fcp-trial,68,479002,0.0-43.0-0.0,voc_e2,12091,"[{""event"":""fullscreenenter"",""trial"":1,""time"":2297}]",NA,NA,NA,NA,NA,3,#1CD855,#FA92F8,10,0,1,40,0,1884.5999999642372,37,1,415.60000002384186,10,1,experiment,NA,NA,0,0.9,0.1,0,1,35,1,NA
fcp-trial,69,482824,0.0-44.0-0.0,voc_e2,12091,"[{""event"":""fullscreenenter"",""trial"":1,""time"":2297}]",NA,NA,NA,NA,NA,0,#FA92F8,#1CD855,0,10,0,38,1,1468.5,39,0,842.1999999880791,10,1,experiment,NA,NA,0,0.1,0.9,1,0,36,1,NA
fcp-trial,70,486564,0.0-45.0-0.0,voc_e2,12091,"[{""event"":""fullscreenenter"",""trial"":1,""time"":2297}]",NA,NA,NA,NA,NA,4,#D89F1C,#3386FF,0,0,0,40,0,1729.300000011921,37,1,493.199999988079,0,0,experiment,NA,NA,1,0.3,0.7,3,2,37,1,NA
fcp-trial,71,489726,0.0-46.0-0.0,voc_e2,12091,"[{""event"":""fullscreenenter"",""trial"":1,""time"":2297}]",NA,NA,NA,NA,NA,1,#D8271C,#741CD8,10,0,0,38,1,1228,39,0,422.2000000476837,0,1,experiment,NA,NA,2,0.5,0.5,5,4,38,1,NA
fcp-trial,72,494358,0.0-47.0-0.0,voc_e2,12091,"[{""event"":""fullscreenenter"",""trial"":1,""time"":2297}]",NA,NA,NA,NA,NA,2,#D89F1C,#3386FF,0,10,0,40,0,2612.899999976158,37,1,505.800000011921,0,0,experiment,NA,NA,1,0.3,0.7,3,2,39,1,NA
fcp-trial,73,498377,0.0-48.0-0.0,voc_e2,12091,"[{""event"":""fullscreenenter"",""trial"":1,""time"":2297}]",NA,NA,NA,NA,NA,5,#D8271C,#741CD8,0,10,0,40,0,2009.199999988079,37,1,501.300000011921,0,0,experiment,NA,NA,2,0.5,0.5,5,4,40,1,NA
fcp-trial,74,501674,0.0-49.0-0.0,voc_e2,12091,"[{""event"":""fullscreenenter"",""trial"":1,""time"":2297}]",NA,NA,NA,NA,NA,1,#FA92F8,#1CD855,0,10,0,38,1,1342.199999988079,39,0,443.10000002384186,10,1,experiment,NA,NA,0,0.1,0.9,1,0,41,1,NA
fcp-trial,75,505166,0.0-50.0-0.0,voc_e2,12091,"[{""event"":""fullscreenenter"",""trial"":1,""time"":2297}]",NA,NA,NA,NA,NA,2,#1CD855,#FA92F8,10,0,1,38,1,1621.1000000238419,37,1,355,10,1,experiment,NA,NA,0,0.9,0.1,0,1,42,1,NA
fcp-trial,76,508572,0.0-51.0-0.0,voc_e2,12091,"[{""event"":""fullscreenenter"",""trial"":1,""time"":2297}]",NA,NA,NA,NA,NA,5,#D89F1C,#3386FF,0,10,0,40,0,1342.699999988079,37,1,542,0,0,experiment,NA,NA,1,0.3,0.7,3,2,43,1,NA
fcp-trial,77,511851,0.0-52.0-0.0,voc_e2,12091,"[{""event"":""fullscreenenter"",""trial"":1,""time"":2297}]",NA,NA,NA,NA,NA,2,#3386FF,#D89F1C,0,0,1,38,1,1288.3999999761581,37,1,475,0,1,experiment,NA,NA,1,0.7,0.3,2,3,44,1,NA
fcp-trial,78,516120,0.0-53.0-0.0,voc_e2,12091,"[{""event"":""fullscreenenter"",""trial"":1,""time"":2297}]",NA,NA,NA,NA,NA,0,#741CD8,#D8271C,10,0,1,38,1,1650.199999988079,39,0,1104.0999999642372,0,0,experiment,NA,NA,2,0.5,0.5,4,5,45,1,NA
fcp-trial,79,519313,0.0-54.0-0.0,voc_e2,12091,"[{""event"":""fullscreenenter"",""trial"":1,""time"":2297}]",NA,NA,NA,NA,NA,1,#FA92F8,#1CD855,0,10,0,38,1,1342.8999999761581,39,0,330.39999997615814,10,1,experiment,NA,NA,0,0.1,0.9,1,0,46,2,NA
fcp-trial,80,523703,0.0-55.0-0.0,voc_e2,12091,"[{""event"":""fullscreenenter"",""trial"":1,""time"":2297}]",NA,NA,NA,NA,NA,4,#3386FF,#D89F1C,10,0,1,38,1,2522.300000011921,37,1,355.19999998807907,10,1,experiment,NA,NA,1,0.7,0.3,2,3,47,2,NA
fcp-trial,81,528594,0.0-56.0-0.0,voc_e2,12091,"[{""event"":""fullscreenenter"",""trial"":1,""time"":2297}]",NA,NA,NA,NA,NA,2,#1CD855,#FA92F8,10,0,1,38,1,1115.699999988079,37,1,2260.100000023842,10,1,experiment,NA,NA,0,0.9,0.1,0,1,48,2,NA
fcp-trial,82,531889,0.0-57.0-0.0,voc_e2,12091,"[{""event"":""fullscreenenter"",""trial"":1,""time"":2297}]",NA,NA,NA,NA,NA,2,#741CD8,#D8271C,10,10,1,38,1,1210.8999999761581,37,1,573.1000000238419,10,1,experiment,NA,NA,2,0.5,0.5,4,5,49,2,NA
fcp-trial,83,537681,0.0-58.0-0.0,voc_e2,12091,"[{""event"":""fullscreenenter"",""trial"":1,""time"":2297}]",NA,NA,NA,NA,NA,1,#D89F1C,#3386FF,10,0,0,38,1,3894.199999988079,39,0,384.5,0,1,experiment,NA,NA,1,0.3,0.7,3,2,50,2,NA
fcp-trial,84,543708,0.0-59.0-0.0,voc_e2,12091,"[{""event"":""fullscreenenter"",""trial"":1,""time"":2297}]",NA,NA,NA,NA,NA,1,#741CD8,#D8271C,10,10,1,38,1,4054.800000011921,37,1,459.5,10,1,experiment,NA,NA,2,0.5,0.5,4,5,51,2,NA
fcp-trial,85,547285,0.0-60.0-0.0,voc_e2,12091,"[{""event"":""fullscreenenter"",""trial"":1,""time"":2297}]",NA,NA,NA,NA,NA,5,#1CD855,#FA92F8,10,0,1,38,1,1724.5,37,1,336.0999999642372,10,1,experiment,NA,NA,0,0.9,0.1,0,1,52,2,NA
fcp-trial,86,551598,0.0-61.0-0.0,voc_e2,12091,"[{""event"":""fullscreenenter"",""trial"":1,""time"":2297}]",NA,NA,NA,NA,NA,6,#D8271C,#741CD8,10,10,0,38,1,2399.300000011921,39,0,398.199999988079,10,1,experiment,NA,NA,2,0.5,0.5,5,4,53,2,NA
fcp-trial,87,555531,0.0-62.0-0.0,voc_e2,12091,"[{""event"":""fullscreenenter"",""trial"":1,""time"":2297}]",NA,NA,NA,NA,NA,4,#1CD855,#FA92F8,10,0,1,38,1,1630.199999988079,37,1,790.3999999761581,10,1,experiment,NA,NA,0,0.9,0.1,0,1,54,2,NA
fcp-trial,88,559156,0.0-63.0-0.0,voc_e2,12091,"[{""event"":""fullscreenenter"",""trial"":1,""time"":2297}]",NA,NA,NA,NA,NA,3,#D89F1C,#3386FF,10,10,0,38,1,1719,39,0,394.5999999642372,10,1,experiment,NA,NA,1,0.3,0.7,3,2,55,2,NA
fcp-trial,89,564597,0.0-64.0-0.0,voc_e2,12091,"[{""event"":""fullscreenenter"",""trial"":1,""time"":2297}]",NA,NA,NA,NA,NA,0,#1CD855,#FA92F8,10,0,1,38,1,3573.199999988079,37,1,355.60000002384186,10,1,experiment,NA,NA,0,0.9,0.1,0,1,56,2,NA
fcp-trial,90,567921,0.0-65.0-0.0,voc_e2,12091,"[{""event"":""fullscreenenter"",""trial"":1,""time"":2297}]",NA,NA,NA,NA,NA,6,#1CD855,#FA92F8,10,0,1,40,0,1333.5,37,1,476.60000002384186,10,1,experiment,NA,NA,0,0.9,0.1,0,1,57,2,NA
fcp-trial,91,571405,0.0-66.0-0.0,voc_e2,12091,"[{""event"":""fullscreenenter"",""trial"":1,""time"":2297}]",NA,NA,NA,NA,NA,5,#741CD8,#D8271C,0,10,1,40,0,1488.8999999761581,39,0,479.39999997615814,10,0,experiment,NA,NA,2,0.5,0.5,4,5,58,2,NA
fcp-trial,92,574591,0.0-67.0-0.0,voc_e2,12091,"[{""event"":""fullscreenenter"",""trial"":1,""time"":2297}]",NA,NA,NA,NA,NA,4,#741CD8,#D8271C,10,10,1,40,0,1195.4000000357628,39,0,479.199999988079,10,0,experiment,NA,NA,2,0.5,0.5,4,5,59,2,NA
fcp-trial,93,579614,0.0-68.0-0.0,voc_e2,12091,"[{""event"":""fullscreenenter"",""trial"":1,""time"":2297}]",NA,NA,NA,NA,NA,6,#D89F1C,#3386FF,10,10,0,40,0,2970.699999988079,37,1,541.3999999761581,10,0,experiment,NA,NA,1,0.3,0.7,3,2,60,2,NA
fcp-trial,94,585073,0.0-69.0-0.0,voc_e2,12091,"[{""event"":""fullscreenenter"",""trial"":1,""time"":2297}]",NA,NA,NA,NA,NA,3,#D8271C,#741CD8,10,0,0,38,1,3296.399999976158,37,1,649.8999999761581,10,0,experiment,NA,NA,2,0.5,0.5,5,4,61,2,NA
fcp-trial,95,588215,0.0-70.0-0.0,voc_e2,12091,"[{""event"":""fullscreenenter"",""trial"":1,""time"":2297}]",NA,NA,NA,NA,NA,3,#1CD855,#FA92F8,10,0,1,38,1,1205.7000000476837,37,1,418.199999988079,10,1,experiment,NA,NA,0,0.9,0.1,0,1,62,2,NA
fcp-trial,96,592902,0.0-71.0-0.0,voc_e2,12091,"[{""event"":""fullscreenenter"",""trial"":1,""time"":2297}]",NA,NA,NA,NA,NA,0,#3386FF,#D89F1C,10,0,1,38,1,2682.2000000476837,37,1,493,10,1,experiment,NA,NA,1,0.7,0.3,2,3,63,2,NA
fcp-trial,97,597630,0.0-72.0-0.0,voc_e2,12091,"[{""event"":""fullscreenenter"",""trial"":1,""time"":2297}]",NA,NA,NA,NA,NA,2,#741CD8,#D8271C,10,0,1,38,1,2469.100000023842,37,1,747.8000000119209,10,1,experiment,NA,NA,2,0.5,0.5,4,5,64,2,NA
fcp-trial,98,600529,0.0-73.0-0.0,voc_e2,12091,"[{""event"":""fullscreenenter"",""trial"":1,""time"":2297}]",NA,NA,NA,NA,NA,3,#741CD8,#D8271C,0,10,1,38,1,924.3000000119209,37,1,462.800000011921,0,1,experiment,NA,NA,2,0.5,0.5,4,5,65,2,NA
fcp-trial,99,603046,0.0-74.0-0.0,voc_e2,12091,"[{""event"":""fullscreenenter"",""trial"":1,""time"":2297}]",NA,NA,NA,NA,NA,4,#741CD8,#D8271C,10,0,1,38,1,583,37,1,418,10,1,experiment,NA,NA,2,0.5,0.5,4,5,66,2,NA
fcp-trial,100,606447,0.0-75.0-0.0,voc_e2,12091,"[{""event"":""fullscreenenter"",""trial"":1,""time"":2297}]",NA,NA,NA,NA,NA,2,#1CD855,#FA92F8,10,0,1,38,1,1389.3999999761581,37,1,500.60000002384186,10,1,experiment,NA,NA,0,0.9,0.1,0,1,67,2,NA
fcp-trial,101,610114,0.0-76.0-0.0,voc_e2,12091,"[{""event"":""fullscreenenter"",""trial"":1,""time"":2297}]",NA,NA,NA,NA,NA,3,#3386FF,#D89F1C,10,0,1,38,1,1324.5999999642372,37,1,827.6999999880791,10,1,experiment,NA,NA,1,0.7,0.3,2,3,68,2,NA
fcp-trial,102,613165,0.0-77.0-0.0,voc_e2,12091,"[{""event"":""fullscreenenter"",""trial"":1,""time"":2297}]",NA,NA,NA,NA,NA,4,#D89F1C,#3386FF,0,10,0,38,1,1243.2999999523163,39,0,289.69999998807907,10,1,experiment,NA,NA,1,0.3,0.7,3,2,69,2,NA
fcp-trial,103,616773,0.0-78.0-0.0,voc_e2,12091,"[{""event"":""fullscreenenter"",""trial"":1,""time"":2297}]",NA,NA,NA,NA,NA,0,#D8271C,#741CD8,0,0,0,38,1,1492,39,0,606,0,1,experiment,NA,NA,2,0.5,0.5,5,4,70,2,NA
fcp-trial,104,619283,0.0-79.0-0.0,voc_e2,12091,"[{""event"":""fullscreenenter"",""trial"":1,""time"":2297}]",NA,NA,NA,NA,NA,6,#3386FF,#D89F1C,0,0,1,38,1,696.2000000476837,37,1,300.7000000476837,0,1,experiment,NA,NA,1,0.7,0.3,2,3,71,2,NA
fcp-trial,105,622021,0.0-80.0-0.0,voc_e2,12091,"[{""event"":""fullscreenenter"",""trial"":1,""time"":2297}]",NA,NA,NA,NA,NA,6,#FA92F8,#1CD855,0,10,0,38,1,907,39,0,312.80000001192093,10,1,experiment,NA,NA,0,0.1,0.9,1,0,72,2,NA
fcp-trial,106,625169,0.0-81.0-0.0,voc_e2,12091,"[{""event"":""fullscreenenter"",""trial"":1,""time"":2297}]",NA,NA,NA,NA,NA,6,#741CD8,#D8271C,10,0,1,38,1,1312.300000011921,37,1,324,10,1,experiment,NA,NA,2,0.5,0.5,4,5,73,2,NA
fcp-trial,107,627821,0.0-82.0-0.0,voc_e2,12091,"[{""event"":""fullscreenenter"",""trial"":1,""time"":2297}]",NA,NA,NA,NA,NA,1,#1CD855,#FA92F8,10,0,1,38,1,823.5,37,1,316.5,10,1,experiment,NA,NA,0,0.9,0.1,0,1,74,2,NA
fcp-trial,108,630465,0.0-83.0-0.0,voc_e2,12091,"[{""event"":""fullscreenenter"",""trial"":1,""time"":2297}]",NA,NA,NA,NA,NA,1,#741CD8,#D8271C,10,0,1,38,1,860.0999999642372,37,1,269,10,1,experiment,NA,NA,2,0.5,0.5,4,5,75,2,NA
fcp-trial,109,632965,0.0-84.0-0.0,voc_e2,12091,"[{""event"":""fullscreenenter"",""trial"":1,""time"":2297}]",NA,NA,NA,NA,NA,0,#3386FF,#D89F1C,10,10,1,38,1,715.4000000357628,37,1,268.5999999642372,10,1,experiment,NA,NA,1,0.7,0.3,2,3,76,2,NA
fcp-trial,110,635609,0.0-85.0-0.0,voc_e2,12091,"[{""event"":""fullscreenenter"",""trial"":1,""time"":2297}]",NA,NA,NA,NA,NA,3,#FA92F8,#1CD855,0,10,0,38,1,752,37,1,372.60000002384186,0,0,experiment,NA,NA,0,0.1,0.9,1,0,77,2,NA
fcp-trial,111,638207,0.0-86.0-0.0,voc_e2,12091,"[{""event"":""fullscreenenter"",""trial"":1,""time"":2297}]",NA,NA,NA,NA,NA,4,#1CD855,#FA92F8,10,0,1,38,1,813,39,0,271.10000002384186,0,0,experiment,NA,NA,0,0.9,0.1,0,1,78,2,NA
fcp-trial,112,640722,0.0-87.0-0.0,voc_e2,12091,"[{""event"":""fullscreenenter"",""trial"":1,""time"":2297}]",NA,NA,NA,NA,NA,5,#D89F1C,#3386FF,0,0,0,38,1,709.3999999761581,39,0,291.89999997615814,0,1,experiment,NA,NA,1,0.3,0.7,3,2,79,2,NA
fcp-trial,113,643165,0.0-88.0-0.0,voc_e2,12091,"[{""event"":""fullscreenenter"",""trial"":1,""time"":2297}]",NA,NA,NA,NA,NA,5,#741CD8,#D8271C,0,0,1,38,1,654.8000000119209,37,1,272,0,1,experiment,NA,NA,2,0.5,0.5,4,5,80,2,NA
fcp-trial,114,645655,0.0-89.0-0.0,voc_e2,12091,"[{""event"":""fullscreenenter"",""trial"":1,""time"":2297}]",NA,NA,NA,NA,NA,0,#1CD855,#FA92F8,10,0,1,38,1,702.3999999761581,37,1,276.69999998807907,10,1,experiment,NA,NA,0,0.9,0.1,0,1,81,2,NA
fcp-trial,115,648170,0.0-90.0-0.0,voc_e2,12091,"[{""event"":""fullscreenenter"",""trial"":1,""time"":2297}]",NA,NA,NA,NA,NA,1,#3386FF,#D89F1C,10,10,1,38,1,743.3000000119209,37,1,257.19999998807907,10,1,experiment,NA,NA,1,0.7,0.3,2,3,82,2,NA
fcp-trial,116,651164,0.0-91.0-0.0,voc_e2,12091,"[{""event"":""fullscreenenter"",""trial"":1,""time"":2297}]",NA,NA,NA,NA,NA,2,#D89F1C,#3386FF,0,10,0,38,1,982.0999999642372,39,0,499.699999988079,10,1,experiment,NA,NA,1,0.3,0.7,3,2,83,2,NA
fcp-trial,117,654337,0.0-92.0-0.0,voc_e2,12091,"[{""event"":""fullscreenenter"",""trial"":1,""time"":2297}]",NA,NA,NA,NA,NA,5,#1CD855,#FA92F8,10,0,1,38,1,1328.8999999761581,37,1,332.60000002384186,10,1,experiment,NA,NA,0,0.9,0.1,0,1,84,2,NA
fcp-trial,118,656871,0.0-93.0-0.0,voc_e2,12091,"[{""event"":""fullscreenenter"",""trial"":1,""time"":2297}]",NA,NA,NA,NA,NA,3,#D89F1C,#3386FF,10,10,0,38,1,706.6999999880791,39,0,311.19999998807907,10,1,experiment,NA,NA,1,0.3,0.7,3,2,85,2,NA
fcp-trial,119,659907,0.0-94.0-0.0,voc_e2,12091,"[{""event"":""fullscreenenter"",""trial"":1,""time"":2297}]",NA,NA,NA,NA,NA,4,#741CD8,#D8271C,10,0,1,38,1,1261.300000011921,37,1,263.9000000357628,10,1,experiment,NA,NA,2,0.5,0.5,4,5,86,2,NA
fcp-trial,120,662435,0.0-95.0-0.0,voc_e2,12091,"[{""event"":""fullscreenenter"",""trial"":1,""time"":2297}]",NA,NA,NA,NA,NA,1,#3386FF,#D89F1C,10,0,1,38,1,732.8000000119209,37,1,285.10000002384186,10,1,experiment,NA,NA,1,0.7,0.3,2,3,87,2,NA
fcp-trial,121,665360,0.0-96.0-0.0,voc_e2,12091,"[{""event"":""fullscreenenter"",""trial"":1,""time"":2297}]",NA,NA,NA,NA,NA,3,#1CD855,#FA92F8,10,0,1,38,1,1087.699999988079,37,1,323,10,1,experiment,NA,NA,0,0.9,0.1,0,1,88,2,NA
fcp-trial,122,667960,0.0-97.0-0.0,voc_e2,12091,"[{""event"":""fullscreenenter"",""trial"":1,""time"":2297}]",NA,NA,NA,NA,NA,0,#D89F1C,#3386FF,0,10,0,38,1,794.5,39,0,290.60000002384186,10,1,experiment,NA,NA,1,0.3,0.7,3,2,89,2,NA
fcp-trial,123,670310,0.0-98.0-0.0,voc_e2,12091,"[{""event"":""fullscreenenter"",""trial"":1,""time"":2297}]",NA,NA,NA,NA,NA,3,#741CD8,#D8271C,10,0,1,38,1,572.3999999761581,37,1,254.5,10,1,experiment,NA,NA,2,0.5,0.5,4,5,90,2,NA
fcp-trial,124,673671,0.0-99.0-0.0,voc_e2,12091,"[{""event"":""fullscreenenter"",""trial"":1,""time"":2297}]",NA,NA,NA,NA,NA,2,#1CD855,#FA92F8,10,10,1,38,1,1133.8999999761581,39,0,714.8000000119209,10,0,experiment,NA,NA,0,0.9,0.1,0,1,91,3,NA
fcp-trial,125,677435,0.0-100.0-0.0,voc_e2,12091,"[{""event"":""fullscreenenter"",""trial"":1,""time"":2297}]",NA,NA,NA,NA,NA,6,#D8271C,#741CD8,10,10,0,40,0,1795.5999999642372,37,1,453.5,10,0,experiment,NA,NA,2,0.5,0.5,5,4,92,3,NA
fcp-trial,126,680722,0.0-101.0-0.0,voc_e2,12091,"[{""event"":""fullscreenenter"",""trial"":1,""time"":2297}]",NA,NA,NA,NA,NA,6,#1CD855,#FA92F8,10,0,1,40,0,1306.0999999642372,39,0,468.10000002384186,0,0,experiment,NA,NA,0,0.9,0.1,0,1,93,3,NA
fcp-trial,127,683742,0.0-102.0-0.0,voc_e2,12091,"[{""event"":""fullscreenenter"",""trial"":1,""time"":2297}]",NA,NA,NA,NA,NA,6,#D89F1C,#3386FF,0,0,0,40,0,1095.7000000476837,39,0,412.800000011921,0,1,experiment,NA,NA,1,0.3,0.7,3,2,94,3,NA
fcp-trial,128,686930,0.0-103.0-0.0,voc_e2,12091,"[{""event"":""fullscreenenter"",""trial"":1,""time"":2297}]",NA,NA,NA,NA,NA,1,#FA92F8,#1CD855,0,10,0,38,1,975.5,37,1,700,0,0,experiment,NA,NA,0,0.1,0.9,1,0,95,3,NA
fcp-trial,129,689787,0.0-104.0-0.0,voc_e2,12091,"[{""event"":""fullscreenenter"",""trial"":1,""time"":2297}]",NA,NA,NA,NA,NA,4,#D89F1C,#3386FF,0,10,0,38,1,1071.3999999761581,39,0,265.5,10,1,experiment,NA,NA,1,0.3,0.7,3,2,96,3,NA
fcp-trial,130,692737,0.0-105.0-0.0,voc_e2,12091,"[{""event"":""fullscreenenter"",""trial"":1,""time"":2297}]",NA,NA,NA,NA,NA,2,#741CD8,#D8271C,10,10,1,38,1,1078,37,1,351.5,10,1,experiment,NA,NA,2,0.5,0.5,4,5,97,3,NA
fcp-trial,131,695834,0.0-106.0-0.0,voc_e2,12091,"[{""event"":""fullscreenenter"",""trial"":1,""time"":2297}]",NA,NA,NA,NA,NA,0,#741CD8,#D8271C,0,10,1,38,1,1304,37,1,280.69999998807907,0,1,experiment,NA,NA,2,0.5,0.5,4,5,98,3,NA
fcp-trial,132,698719,0.0-107.0-0.0,voc_e2,12091,"[{""event"":""fullscreenenter"",""trial"":1,""time"":2297}]",NA,NA,NA,NA,NA,4,#FA92F8,#1CD855,0,10,0,38,1,1088.5999999642372,39,0,279.5999999642372,10,1,experiment,NA,NA,0,0.1,0.9,1,0,99,3,NA
fcp-trial,133,702069,0.0-108.0-0.0,voc_e2,12091,"[{""event"":""fullscreenenter"",""trial"":1,""time"":2297}]",NA,NA,NA,NA,NA,5,#1CD855,#FA92F8,10,0,1,40,0,1313.199999988079,39,0,524,0,0,experiment,NA,NA,0,0.9,0.1,0,1,100,3,NA
fcp-trial,134,706338,0.0-109.0-0.0,voc_e2,12091,"[{""event"":""fullscreenenter"",""trial"":1,""time"":2297}]",NA,NA,NA,NA,NA,5,#3386FF,#D89F1C,10,10,1,40,0,2324.900000035763,37,1,426.5,10,1,experiment,NA,NA,1,0.7,0.3,2,3,101,3,NA
fcp-trial,135,709869,0.0-110.0-0.0,voc_e2,12091,"[{""event"":""fullscreenenter"",""trial"":1,""time"":2297}]",NA,NA,NA,NA,NA,0,#1CD855,#FA92F8,10,0,1,38,1,936.6999999880791,39,0,1082.800000011921,0,0,experiment,NA,NA,0,0.9,0.1,0,1,102,3,NA
fcp-trial,136,713263,0.0-111.0-0.0,voc_e2,12091,"[{""event"":""fullscreenenter"",""trial"":1,""time"":2297}]",NA,NA,NA,NA,NA,1,#D8271C,#741CD8,0,0,0,38,1,1597.5,39,0,276.80000001192093,0,1,experiment,NA,NA,2,0.5,0.5,5,4,103,3,NA
fcp-trial,137,716939,0.0-112.0-0.0,voc_e2,12091,"[{""event"":""fullscreenenter"",""trial"":1,""time"":2297}]",NA,NA,NA,NA,NA,2,#3386FF,#D89F1C,0,0,1,38,1,1804.5,37,1,358.2000000476837,0,1,experiment,NA,NA,1,0.7,0.3,2,3,104,3,NA
fcp-trial,138,724282,0.0-113.0-0.0,voc_e2,12091,"[{""event"":""fullscreenenter"",""trial"":1,""time"":2297}]",NA,NA,NA,NA,NA,5,#D8271C,#741CD8,10,0,0,40,0,5303.899999976158,37,1,528.3000000119209,10,0,experiment,NA,NA,2,0.5,0.5,5,4,105,3,NA
audio-instructions,139,768047,0.0-114.0,voc_e2,12091,"[{""event"":""fullscreenenter"",""trial"":1,""time"":2297}]",NA,39137.89999997616,static/audio/pause.wav,NA,0,NA,NA,NA,NA,NA,NA,NA,NA,NA,NA,NA,NA,NA,NA,NA,NA,NA,NA,NA,NA,NA,NA,NA,NA,NA
fcp-trial,140,771459,0.0-115.0-0.0,voc_e2,12091,"[{""event"":""fullscreenenter"",""trial"":1,""time"":2297}]",NA,NA,NA,NA,NA,2,#D8271C,#741CD8,0,10,0,38,1,1598.800000011921,39,0,307,10,1,experiment,NA,NA,2,0.5,0.5,5,4,106,3,NA
fcp-trial,141,774749,0.0-116.0-0.0,voc_e2,12091,"[{""event"":""fullscreenenter"",""trial"":1,""time"":2297}]",NA,NA,NA,NA,NA,2,#1CD855,#FA92F8,10,10,1,38,1,1143,37,1,633,10,1,experiment,NA,NA,0,0.9,0.1,0,1,107,3,NA
fcp-trial,142,779119,0.0-117.0-0.0,voc_e2,12091,"[{""event"":""fullscreenenter"",""trial"":1,""time"":2297}]",NA,NA,NA,NA,NA,5,#1CD855,#FA92F8,0,0,1,40,0,2278.300000011921,39,0,581.3999999761581,0,0,experiment,NA,NA,0,0.9,0.1,0,1,108,3,NA
fcp-trial,143,781985,0.0-118.0-0.0,voc_e2,12091,"[{""event"":""fullscreenenter"",""trial"":1,""time"":2297}]",NA,NA,NA,NA,NA,3,#3386FF,#D89F1C,10,0,1,38,1,1077.800000011921,37,1,275.2000000476837,10,1,experiment,NA,NA,1,0.7,0.3,2,3,109,3,NA
fcp-trial,144,785745,0.0-119.0-0.0,voc_e2,12091,"[{""event"":""fullscreenenter"",""trial"":1,""time"":2297}]",NA,NA,NA,NA,NA,4,#FA92F8,#1CD855,0,10,0,38,1,1673.3999999761581,37,1,571.1999999880791,0,0,experiment,NA,NA,0,0.1,0.9,1,0,110,3,NA
fcp-trial,145,788921,0.0-120.0-0.0,voc_e2,12091,"[{""event"":""fullscreenenter"",""trial"":1,""time"":2297}]",NA,NA,NA,NA,NA,6,#D8271C,#741CD8,10,0,0,40,0,1254.199999988079,39,0,405.9000000357628,0,1,experiment,NA,NA,2,0.5,0.5,5,4,111,3,NA
fcp-trial,146,791525,0.0-121.0-0.0,voc_e2,12091,"[{""event"":""fullscreenenter"",""trial"":1,""time"":2297}]",NA,NA,NA,NA,NA,1,#3386FF,#D89F1C,10,0,1,38,1,819.5,37,1,268.5,10,1,experiment,NA,NA,1,0.7,0.3,2,3,112,3,NA
fcp-trial,147,794760,0.0-122.0-0.0,voc_e2,12091,"[{""event"":""fullscreenenter"",""trial"":1,""time"":2297}]",NA,NA,NA,NA,NA,6,#3386FF,#D89F1C,10,10,1,40,0,1250.6000000238419,39,0,470,10,0,experiment,NA,NA,1,0.7,0.3,2,3,113,3,NA
fcp-trial,148,798566,0.0-123.0-0.0,voc_e2,12091,"[{""event"":""fullscreenenter"",""trial"":1,""time"":2297}]",NA,NA,NA,NA,NA,1,#D8271C,#741CD8,0,0,0,38,1,1429,39,0,863.5,0,1,experiment,NA,NA,2,0.5,0.5,5,4,114,3,NA
fcp-trial,149,801496,0.0-124.0-0.0,voc_e2,12091,"[{""event"":""fullscreenenter"",""trial"":1,""time"":2297}]",NA,NA,NA,NA,NA,0,#FA92F8,#1CD855,0,10,0,38,1,1115.1000000238419,37,1,296.5,0,0,experiment,NA,NA,0,0.1,0.9,1,0,115,3,NA
fcp-trial,150,804618,0.0-125.0-0.0,voc_e2,12091,"[{""event"":""fullscreenenter"",""trial"":1,""time"":2297}]",NA,NA,NA,NA,NA,5,#3386FF,#D89F1C,10,0,1,38,1,1309.5,37,1,299.80000001192093,10,1,experiment,NA,NA,1,0.7,0.3,2,3,116,3,NA
fcp-trial,151,807251,0.0-126.0-0.0,voc_e2,12091,"[{""event"":""fullscreenenter"",""trial"":1,""time"":2297}]",NA,NA,NA,NA,NA,0,#D89F1C,#3386FF,10,10,0,38,1,807.2999999523163,39,0,315.19999998807907,10,1,experiment,NA,NA,1,0.3,0.7,3,2,117,3,NA
fcp-trial,152,810678,0.0-127.0-0.0,voc_e2,12091,"[{""event"":""fullscreenenter"",""trial"":1,""time"":2297}]",NA,NA,NA,NA,NA,6,#FA92F8,#1CD855,10,10,0,40,0,1428.3999999761581,39,0,479.39999997615814,10,1,experiment,NA,NA,0,0.1,0.9,1,0,118,3,NA
fcp-trial,153,813513,0.0-128.0-0.0,voc_e2,12091,"[{""event"":""fullscreenenter"",""trial"":1,""time"":2297}]",NA,NA,NA,NA,NA,0,#D8271C,#741CD8,10,0,0,38,1,1039.699999988079,39,0,284.0999999642372,0,1,experiment,NA,NA,2,0.5,0.5,5,4,119,3,NA
fcp-trial,154,816349,0.0-129.0-0.0,voc_e2,12091,"[{""event"":""fullscreenenter"",""trial"":1,""time"":2297}]",NA,NA,NA,NA,NA,1,#FA92F8,#1CD855,0,0,0,38,1,983.6000000238419,37,1,337.60000002384186,0,0,experiment,NA,NA,0,0.1,0.9,1,0,120,3,NA
fcp-trial,155,819561,0.0-130.0-0.0,voc_e2,12091,"[{""event"":""fullscreenenter"",""trial"":1,""time"":2297}]",NA,NA,NA,NA,NA,2,#D89F1C,#3386FF,0,0,0,38,1,1015.3999999761581,39,0,677.6000000238419,0,1,experiment,NA,NA,1,0.3,0.7,3,2,121,3,NA
fcp-trial,156,822078,0.0-131.0-0.0,voc_e2,12091,"[{""event"":""fullscreenenter"",""trial"":1,""time"":2297}]",NA,NA,NA,NA,NA,3,#FA92F8,#1CD855,0,10,0,38,1,700.8000000119209,37,1,298.10000002384186,0,0,experiment,NA,NA,0,0.1,0.9,1,0,122,3,NA
fcp-trial,157,825090,0.0-132.0-0.0,voc_e2,12091,"[{""event"":""fullscreenenter"",""trial"":1,""time"":2297}]",NA,NA,NA,NA,NA,3,#741CD8,#D8271C,0,0,1,38,1,1205.699999988079,37,1,288.9000000357628,0,1,experiment,NA,NA,2,0.5,0.5,4,5,123,3,NA
fcp-trial,158,828105,0.0-133.0-0.0,voc_e2,12091,"[{""event"":""fullscreenenter"",""trial"":1,""time"":2297}]",NA,NA,NA,NA,NA,5,#741CD8,#D8271C,0,0,1,38,1,932.8000000119209,37,1,564.1000000238419,0,1,experiment,NA,NA,2,0.5,0.5,4,5,124,3,NA
fcp-trial,159,830748,0.0-134.0-0.0,voc_e2,12091,"[{""event"":""fullscreenenter"",""trial"":1,""time"":2297}]",NA,NA,NA,NA,NA,4,#D89F1C,#3386FF,0,0,0,38,1,796.1000000238419,39,0,331.4000000357628,0,1,experiment,NA,NA,1,0.3,0.7,3,2,125,3,NA
fcp-trial,160,833328,0.0-135.0-0.0,voc_e2,12091,"[{""event"":""fullscreenenter"",""trial"":1,""time"":2297}]",NA,NA,NA,NA,NA,4,#D8271C,#741CD8,0,10,0,38,1,771.6000000238419,37,1,293.19999998807907,0,0,experiment,NA,NA,2,0.5,0.5,5,4,126,3,NA
fcp-trial,161,836133,0.0-136.0-0.0,voc_e2,12091,"[{""event"":""fullscreenenter"",""trial"":1,""time"":2297}]",NA,NA,NA,NA,NA,4,#FA92F8,#1CD855,0,10,0,38,1,958.6999999880791,37,1,333.39999997615814,0,0,experiment,NA,NA,0,0.1,0.9,1,0,127,3,NA
fcp-trial,162,838995,0.0-137.0-0.0,voc_e2,12091,"[{""event"":""fullscreenenter"",""trial"":1,""time"":2297}]",NA,NA,NA,NA,NA,0,#741CD8,#D8271C,10,10,1,38,1,1036.1000000238419,39,0,314.5999999642372,10,0,experiment,NA,NA,2,0.5,0.5,4,5,128,3,NA
fcp-trial,163,841727,0.0-138.0-0.0,voc_e2,12091,"[{""event"":""fullscreenenter"",""trial"":1,""time"":2297}]",NA,NA,NA,NA,NA,1,#FA92F8,#1CD855,0,10,0,38,1,899.3999999761581,39,0,315.4000000357628,10,1,experiment,NA,NA,0,0.1,0.9,1,0,129,3,NA
fcp-trial,164,844277,0.0-139.0-0.0,voc_e2,12091,"[{""event"":""fullscreenenter"",""trial"":1,""time"":2297}]",NA,NA,NA,NA,NA,3,#741CD8,#D8271C,10,10,1,38,1,506.80000001192093,39,0,521.1999999880791,10,0,experiment,NA,NA,2,0.5,0.5,4,5,130,3,NA
fcp-trial,165,847215,0.0-140.0-0.0,voc_e2,12091,"[{""event"":""fullscreenenter"",""trial"":1,""time"":2297}]",NA,NA,NA,NA,NA,4,#D89F1C,#3386FF,0,10,0,38,1,1004.3999999761581,39,0,417.199999988079,10,1,experiment,NA,NA,1,0.3,0.7,3,2,131,3,NA
fcp-trial,166,849966,0.0-141.0-0.0,voc_e2,12091,"[{""event"":""fullscreenenter"",""trial"":1,""time"":2297}]",NA,NA,NA,NA,NA,2,#D89F1C,#3386FF,0,10,0,38,1,949.0999999642372,39,0,290.60000002384186,10,1,experiment,NA,NA,1,0.3,0.7,3,2,132,3,NA
fcp-trial,167,853043,0.0-142.0-0.0,voc_e2,12091,"[{""event"":""fullscreenenter"",""trial"":1,""time"":2297}]",NA,NA,NA,NA,NA,5,#D8271C,#741CD8,0,0,0,38,1,833,37,1,733.1999999880791,0,0,experiment,NA,NA,2,0.5,0.5,5,4,133,3,NA
fcp-trial,168,857334,0.0-143.0-0.0,voc_e2,12091,"[{""event"":""fullscreenenter"",""trial"":1,""time"":2297}]",NA,NA,NA,NA,NA,5,#1CD855,#FA92F8,10,0,1,38,1,2444.899999976158,37,1,329.60000002384186,10,1,experiment,NA,NA,0,0.9,0.1,0,1,134,3,NA
fcp-trial,169,860943,0.0-144.0-0.0,voc_e2,12091,"[{""event"":""fullscreenenter"",""trial"":1,""time"":2297}]",NA,NA,NA,NA,NA,1,#741CD8,#D8271C,10,0,1,38,1,1731.0999999642372,39,0,366,0,0,experiment,NA,NA,2,0.5,0.5,4,5,135,3,NA
fcp-trial,170,863920,0.0-145.0-0.0,voc_e2,12091,"[{""event"":""fullscreenenter"",""trial"":1,""time"":2297}]",NA,NA,NA,NA,NA,1,#D89F1C,#3386FF,0,10,0,38,1,924.1000000238419,39,0,541.1000000238419,10,1,experiment,NA,NA,1,0.3,0.7,3,2,136,4,NA
fcp-trial,171,868395,0.0-146.0-0.0,voc_e2,12091,"[{""event"":""fullscreenenter"",""trial"":1,""time"":2297}]",NA,NA,NA,NA,NA,2,#FA92F8,#1CD855,0,10,0,38,1,1669.5,39,0,1284.9000000357628,10,1,experiment,NA,NA,0,0.1,0.9,1,0,137,4,NA
fcp-trial,172,871067,0.0-147.0-0.0,voc_e2,12091,"[{""event"":""fullscreenenter"",""trial"":1,""time"":2297}]",NA,NA,NA,NA,NA,6,#D89F1C,#3386FF,0,10,0,38,1,847.1999999880791,39,0,313.80000001192093,10,1,experiment,NA,NA,1,0.3,0.7,3,2,138,4,NA
fcp-trial,173,873494,0.0-148.0-0.0,voc_e2,12091,"[{""event"":""fullscreenenter"",""trial"":1,""time"":2297}]",NA,NA,NA,NA,NA,5,#D89F1C,#3386FF,0,10,0,38,1,615.3999999761581,39,0,299.69999998807907,10,1,experiment,NA,NA,1,0.3,0.7,3,2,139,4,NA
fcp-trial,174,881838,0.0-149.0-0.0,voc_e2,12091,"[{""event"":""fullscreenenter"",""trial"":1,""time"":2297}]",NA,NA,NA,NA,NA,2,#741CD8,#D8271C,10,10,1,38,1,4092.2999999523163,39,0,2733.599999964237,10,0,experiment,NA,NA,2,0.5,0.5,4,5,140,4,NA
fcp-trial,175,884720,0.0-150.0-0.0,voc_e2,12091,"[{""event"":""fullscreenenter"",""trial"":1,""time"":2297}]",NA,NA,NA,NA,NA,3,#FA92F8,#1CD855,0,10,0,38,1,1024.699999988079,39,0,344.19999998807907,10,1,experiment,NA,NA,0,0.1,0.9,1,0,141,4,NA
fcp-trial,176,887396,0.0-151.0-0.0,voc_e2,12091,"[{""event"":""fullscreenenter"",""trial"":1,""time"":2297}]",NA,NA,NA,NA,NA,6,#FA92F8,#1CD855,0,10,0,38,1,603.8000000119209,39,0,552.5,10,1,experiment,NA,NA,0,0.1,0.9,1,0,142,4,NA
fcp-trial,177,890254,0.0-152.0-0.0,voc_e2,12091,"[{""event"":""fullscreenenter"",""trial"":1,""time"":2297}]",NA,NA,NA,NA,NA,0,#3386FF,#D89F1C,10,0,1,38,1,957.6000000238419,37,1,388.300000011921,10,1,experiment,NA,NA,1,0.7,0.3,2,3,143,4,NA
fcp-trial,178,893250,0.0-153.0-0.0,voc_e2,12091,"[{""event"":""fullscreenenter"",""trial"":1,""time"":2297}]",NA,NA,NA,NA,NA,4,#741CD8,#D8271C,0,10,1,38,1,920.1000000238419,39,0,561.5999999642372,10,0,experiment,NA,NA,2,0.5,0.5,4,5,144,4,NA
fcp-trial,179,895746,0.0-154.0-0.0,voc_e2,12091,"[{""event"":""fullscreenenter"",""trial"":1,""time"":2297}]",NA,NA,NA,NA,NA,3,#D89F1C,#3386FF,10,10,0,38,1,684.8999999761581,39,0,299.69999998807907,10,1,experiment,NA,NA,1,0.3,0.7,3,2,145,4,NA
fcp-trial,180,899027,0.0-155.0-0.0,voc_e2,12091,"[{""event"":""fullscreenenter"",""trial"":1,""time"":2297}]",NA,NA,NA,NA,NA,6,#D8271C,#741CD8,0,0,0,38,1,1115.5,37,1,653.9000000357628,0,0,experiment,NA,NA,2,0.5,0.5,5,4,146,4,NA
fcp-trial,181,902478,0.0-156.0-0.0,voc_e2,12091,"[{""event"":""fullscreenenter"",""trial"":1,""time"":2297}]",NA,NA,NA,NA,NA,0,#1CD855,#FA92F8,10,0,1,38,1,1052.3999999761581,37,1,883.5,10,1,experiment,NA,NA,0,0.9,0.1,0,1,147,4,NA
fcp-trial,182,905773,0.0-157.0-0.0,voc_e2,12091,"[{""event"":""fullscreenenter"",""trial"":1,""time"":2297}]",NA,NA,NA,NA,NA,0,#741CD8,#D8271C,0,10,1,38,1,1453.300000011921,39,0,330.80000001192093,10,0,experiment,NA,NA,2,0.5,0.5,4,5,148,4,NA
fcp-trial,183,908311,0.0-158.0-0.0,voc_e2,12091,"[{""event"":""fullscreenenter"",""trial"":1,""time"":2297}]",NA,NA,NA,NA,NA,1,#D89F1C,#3386FF,0,0,0,38,1,719.0999999642372,39,0,305.89999997615814,0,1,experiment,NA,NA,1,0.3,0.7,3,2,149,4,NA
fcp-trial,184,910934,0.0-159.0-0.0,voc_e2,12091,"[{""event"":""fullscreenenter"",""trial"":1,""time"":2297}]",NA,NA,NA,NA,NA,1,#1CD855,#FA92F8,10,0,1,38,1,584.9000000357628,37,1,520.6000000238419,10,1,experiment,NA,NA,0,0.9,0.1,0,1,150,4,NA
fcp-trial,185,913384,0.0-160.0-0.0,voc_e2,12091,"[{""event"":""fullscreenenter"",""trial"":1,""time"":2297}]",NA,NA,NA,NA,NA,1,#D8271C,#741CD8,10,0,0,38,1,637.1000000238419,37,1,299.69999998807907,10,0,experiment,NA,NA,2,0.5,0.5,5,4,151,4,NA
fcp-trial,186,915997,0.0-161.0-0.0,voc_e2,12091,"[{""event"":""fullscreenenter"",""trial"":1,""time"":2297}]",NA,NA,NA,NA,NA,0,#FA92F8,#1CD855,0,10,0,38,1,746,39,0,352.19999998807907,10,1,experiment,NA,NA,0,0.1,0.9,1,0,152,4,NA
fcp-trial,187,918559,0.0-162.0-0.0,voc_e2,12091,"[{""event"":""fullscreenenter"",""trial"":1,""time"":2297}]",NA,NA,NA,NA,NA,2,#D8271C,#741CD8,10,0,0,38,1,564.6000000238419,37,1,479.199999988079,10,0,experiment,NA,NA,2,0.5,0.5,5,4,153,4,NA
fcp-trial,188,920992,0.0-163.0-0.0,voc_e2,12091,"[{""event"":""fullscreenenter"",""trial"":1,""time"":2297}]",NA,NA,NA,NA,NA,5,#D89F1C,#3386FF,0,10,0,38,1,533.7999999523163,39,0,388.199999988079,10,1,experiment,NA,NA,1,0.3,0.7,3,2,154,4,NA
fcp-trial,189,923804,0.0-164.0-0.0,voc_e2,12091,"[{""event"":""fullscreenenter"",""trial"":1,""time"":2297}]",NA,NA,NA,NA,NA,5,#1CD855,#FA92F8,10,0,1,38,1,592.5999999642372,37,1,704.3999999761581,10,1,experiment,NA,NA,0,0.9,0.1,0,1,155,4,NA
fcp-trial,190,926308,0.0-165.0-0.0,voc_e2,12091,"[{""event"":""fullscreenenter"",""trial"":1,""time"":2297}]",NA,NA,NA,NA,NA,2,#1CD855,#FA92F8,10,0,1,38,1,459.69999998807907,37,1,532.3000000119209,10,1,experiment,NA,NA,0,0.9,0.1,0,1,156,4,NA
fcp-trial,191,928892,0.0-166.0-0.0,voc_e2,12091,"[{""event"":""fullscreenenter"",""trial"":1,""time"":2297}]",NA,NA,NA,NA,NA,4,#D89F1C,#3386FF,0,10,0,38,1,606.6000000238419,39,0,460.800000011921,10,1,experiment,NA,NA,1,0.3,0.7,3,2,157,4,NA
fcp-trial,192,931647,0.0-167.0-0.0,voc_e2,12091,"[{""event"":""fullscreenenter"",""trial"":1,""time"":2297}]",NA,NA,NA,NA,NA,4,#741CD8,#D8271C,10,0,1,38,1,664.6000000238419,39,0,578.6999999880791,0,0,experiment,NA,NA,2,0.5,0.5,4,5,158,4,NA
fcp-trial,193,934011,0.0-168.0-0.0,voc_e2,12091,"[{""event"":""fullscreenenter"",""trial"":1,""time"":2297}]",NA,NA,NA,NA,NA,5,#741CD8,#D8271C,10,0,1,38,1,501.0999999642372,39,0,347.2000000476837,0,0,experiment,NA,NA,2,0.5,0.5,4,5,159,4,NA
fcp-trial,194,936499,0.0-169.0-0.0,voc_e2,12091,"[{""event"":""fullscreenenter"",""trial"":1,""time"":2297}]",NA,NA,NA,NA,NA,4,#FA92F8,#1CD855,0,10,0,38,1,607.6999999880791,39,0,370.10000002384186,10,1,experiment,NA,NA,0,0.1,0.9,1,0,160,4,NA
fcp-trial,195,938953,0.0-170.0-0.0,voc_e2,12091,"[{""event"":""fullscreenenter"",""trial"":1,""time"":2297}]",NA,NA,NA,NA,NA,6,#D8271C,#741CD8,10,0,0,38,1,583.8999999761581,37,1,355.0999999642372,10,0,experiment,NA,NA,2,0.5,0.5,5,4,161,4,NA
fcp-trial,196,941273,0.0-171.0-0.0,voc_e2,12091,"[{""event"":""fullscreenenter"",""trial"":1,""time"":2297}]",NA,NA,NA,NA,NA,3,#D89F1C,#3386FF,0,0,0,38,1,510.30000001192093,39,0,292.80000001192093,0,1,experiment,NA,NA,1,0.3,0.7,3,2,162,4,NA
fcp-trial,197,943644,0.0-172.0-0.0,voc_e2,12091,"[{""event"":""fullscreenenter"",""trial"":1,""time"":2297}]",NA,NA,NA,NA,NA,2,#D89F1C,#3386FF,10,10,0,38,1,579.8000000119209,39,0,275.80000001192093,10,1,experiment,NA,NA,1,0.3,0.7,3,2,163,4,NA
fcp-trial,198,946176,0.0-173.0-0.0,voc_e2,12091,"[{""event"":""fullscreenenter"",""trial"":1,""time"":2297}]",NA,NA,NA,NA,NA,3,#FA92F8,#1CD855,0,10,0,38,1,636.8999999761581,39,0,380.9000000357628,10,1,experiment,NA,NA,0,0.1,0.9,1,0,164,4,NA
fcp-trial,199,948753,0.0-174.0-0.0,voc_e2,12091,"[{""event"":""fullscreenenter"",""trial"":1,""time"":2297}]",NA,NA,NA,NA,NA,3,#741CD8,#D8271C,10,0,1,38,1,550.0999999642372,39,0,509.699999988079,0,0,experiment,NA,NA,2,0.5,0.5,4,5,165,4,NA
fcp-trial,200,951636,0.0-175.0-0.0,voc_e2,12091,"[{""event"":""fullscreenenter"",""trial"":1,""time"":2297}]",NA,NA,NA,NA,NA,6,#FA92F8,#1CD855,0,10,0,38,1,556.1000000238419,39,0,811,10,1,experiment,NA,NA,0,0.1,0.9,1,0,166,4,NA
fcp-trial,201,954086,0.0-176.0-0.0,voc_e2,12091,"[{""event"":""fullscreenenter"",""trial"":1,""time"":2297}]",NA,NA,NA,NA,NA,6,#D89F1C,#3386FF,0,0,0,38,1,616,39,0,323.5,0,1,experiment,NA,NA,1,0.3,0.7,3,2,167,4,NA
fcp-trial,202,956539,0.0-177.0-0.0,voc_e2,12091,"[{""event"":""fullscreenenter"",""trial"":1,""time"":2297}]",NA,NA,NA,NA,NA,0,#3386FF,#D89F1C,10,0,1,38,1,564.3000000119209,37,1,373.5,10,1,experiment,NA,NA,1,0.7,0.3,2,3,168,4,NA
fcp-trial,203,959086,0.0-178.0-0.0,voc_e2,12091,"[{""event"":""fullscreenenter"",""trial"":1,""time"":2297}]",NA,NA,NA,NA,NA,3,#741CD8,#D8271C,0,0,1,38,1,756.8000000119209,39,0,267.10000002384186,0,0,experiment,NA,NA,2,0.5,0.5,4,5,169,4,NA
fcp-trial,204,961481,0.0-179.0-0.0,voc_e2,12091,"[{""event"":""fullscreenenter"",""trial"":1,""time"":2297}]",NA,NA,NA,NA,NA,1,#1CD855,#FA92F8,10,0,1,38,1,587.4000000357628,37,1,292.5,10,1,experiment,NA,NA,0,0.9,0.1,0,1,170,4,NA
fcp-trial,205,964006,0.0-180.0-0.0,voc_e2,12091,"[{""event"":""fullscreenenter"",""trial"":1,""time"":2297}]",NA,NA,NA,NA,NA,2,#1CD855,#FA92F8,10,0,1,38,1,707.5,37,1,302.69999998807907,10,1,experiment,NA,NA,0,0.9,0.1,0,1,171,4,NA
fcp-trial,206,966560,0.0-181.0-0.0,voc_e2,12091,"[{""event"":""fullscreenenter"",""trial"":1,""time"":2297}]",NA,NA,NA,NA,NA,0,#3386FF,#D89F1C,10,0,1,38,1,733.1000000238419,37,1,309.80000001192093,10,1,experiment,NA,NA,1,0.7,0.3,2,3,172,4,NA
fcp-trial,207,969288,0.0-182.0-0.0,voc_e2,12091,"[{""event"":""fullscreenenter"",""trial"":1,""time"":2297}]",NA,NA,NA,NA,NA,3,#D89F1C,#3386FF,0,10,0,38,1,929.7000000476837,39,0,279.60000002384186,10,1,experiment,NA,NA,1,0.3,0.7,3,2,173,4,NA
fcp-trial,208,972713,0.0-183.0-0.0,voc_e2,12091,"[{""event"":""fullscreenenter"",""trial"":1,""time"":2297}]",NA,NA,NA,NA,NA,5,#D8271C,#741CD8,0,10,0,38,1,1492.6000000238419,37,1,409.5,0,0,experiment,NA,NA,2,0.5,0.5,5,4,174,4,NA
fcp-trial,209,975119,0.0-184.0-0.0,voc_e2,12091,"[{""event"":""fullscreenenter"",""trial"":1,""time"":2297}]",NA,NA,NA,NA,NA,1,#741CD8,#D8271C,10,10,1,38,1,571.8000000119209,39,0,318.80000001192093,10,0,experiment,NA,NA,2,0.5,0.5,4,5,175,4,NA
fcp-trial,210,977291,0.0-185.0-0.0,voc_e2,12091,"[{""event"":""fullscreenenter"",""trial"":1,""time"":2297}]",NA,NA,NA,NA,NA,0,#FA92F8,#1CD855,0,10,0,38,1,378.30000001192093,39,0,278.7999999523163,10,1,experiment,NA,NA,0,0.1,0.9,1,0,176,4,NA
fcp-trial,211,979727,0.0-186.0-0.0,voc_e2,12091,"[{""event"":""fullscreenenter"",""trial"":1,""time"":2297}]",NA,NA,NA,NA,NA,6,#D8271C,#741CD8,0,10,0,38,1,524.4000000357628,37,1,396.7999999523163,0,0,experiment,NA,NA,2,0.5,0.5,5,4,177,4,NA
fcp-trial,212,982090,0.0-187.0-0.0,voc_e2,12091,"[{""event"":""fullscreenenter"",""trial"":1,""time"":2297}]",NA,NA,NA,NA,NA,1,#D89F1C,#3386FF,0,0,0,38,1,515.6999999880791,39,0,332.5,0,1,experiment,NA,NA,1,0.3,0.7,3,2,178,4,NA
fcp-trial,213,984423,0.0-188.0-0.0,voc_e2,12091,"[{""event"":""fullscreenenter"",""trial"":1,""time"":2297}]",NA,NA,NA,NA,NA,5,#D89F1C,#3386FF,0,10,0,38,1,519.5999999642372,39,0,302.19999998807907,10,1,experiment,NA,NA,1,0.3,0.7,3,2,179,4,NA
fcp-trial,214,986924,0.0-189.0-0.0,voc_e2,12091,"[{""event"":""fullscreenenter"",""trial"":1,""time"":2297}]",NA,NA,NA,NA,NA,6,#FA92F8,#1CD855,0,10,0,38,1,662,39,0,327.30000001192093,10,1,experiment,NA,NA,0,0.1,0.9,1,0,180,4,NA
fcp-trial,215,990398,0.0-190.0-0.0,voc_e2,12091,"[{""event"":""fullscreenenter"",""trial"":1,""time"":2297}]",NA,NA,NA,NA,NA,4,#D89F1C,#3386FF,10,10,0,38,1,1174,39,0,787.7000000476837,10,1,experiment,NA,NA,1,0.3,0.7,3,2,181,5,NA
fcp-trial,216,994078,0.0-191.0-0.0,voc_e2,12091,"[{""event"":""fullscreenenter"",""trial"":1,""time"":2297}]",NA,NA,NA,NA,NA,0,#D8271C,#741CD8,0,10,0,38,1,1509.199999988079,37,1,656.2000000476837,0,0,experiment,NA,NA,2,0.5,0.5,5,4,182,5,NA
fcp-trial,217,997609,0.0-192.0-0.0,voc_e2,12091,"[{""event"":""fullscreenenter"",""trial"":1,""time"":2297}]",NA,NA,NA,NA,NA,6,#3386FF,#D89F1C,0,0,1,40,0,1232.699999988079,37,1,782.8000000119209,0,1,experiment,NA,NA,1,0.7,0.3,2,3,183,5,NA
fcp-trial,218,1001651,0.0-193.0-0.0,voc_e2,12091,"[{""event"":""fullscreenenter"",""trial"":1,""time"":2297}]",NA,NA,NA,NA,NA,4,#1CD855,#FA92F8,0,0,1,38,1,2138.2999999523163,37,1,392.7999999523163,0,1,experiment,NA,NA,0,0.9,0.1,0,1,184,5,NA
fcp-trial,219,1004611,0.0-194.0-0.0,voc_e2,12091,"[{""event"":""fullscreenenter"",""trial"":1,""time"":2297}]",NA,NA,NA,NA,NA,2,#3386FF,#D89F1C,10,0,1,38,1,1179.3999999761581,37,1,268.30000001192093,10,1,experiment,NA,NA,1,0.7,0.3,2,3,185,5,NA
fcp-trial,220,1007775,0.0-195.0-0.0,voc_e2,12091,"[{""event"":""fullscreenenter"",""trial"":1,""time"":2297}]",NA,NA,NA,NA,NA,3,#FA92F8,#1CD855,10,10,0,38,1,1350.4000000357628,39,0,301.10000002384186,10,1,experiment,NA,NA,0,0.1,0.9,1,0,186,5,NA
fcp-trial,221,1010936,0.0-196.0-0.0,voc_e2,12091,"[{""event"":""fullscreenenter"",""trial"":1,""time"":2297}]",NA,NA,NA,NA,NA,2,#741CD8,#D8271C,0,0,1,38,1,1260.8999999761581,39,0,388.800000011921,0,0,experiment,NA,NA,2,0.5,0.5,4,5,187,5,NA
fcp-trial,222,1013595,0.0-197.0-0.0,voc_e2,12091,"[{""event"":""fullscreenenter"",""trial"":1,""time"":2297}]",NA,NA,NA,NA,NA,5,#FA92F8,#1CD855,0,10,0,38,1,703.8000000119209,39,0,443.699999988079,10,1,experiment,NA,NA,0,0.1,0.9,1,0,188,5,NA
fcp-trial,223,1016007,0.0-198.0-0.0,voc_e2,12091,"[{""event"":""fullscreenenter"",""trial"":1,""time"":2297}]",NA,NA,NA,NA,NA,4,#D8271C,#741CD8,10,10,0,38,1,587.3999999761581,37,1,308.10000002384186,10,0,experiment,NA,NA,2,0.5,0.5,5,4,189,5,NA
fcp-trial,224,1018490,0.0-199.0-0.0,voc_e2,12091,"[{""event"":""fullscreenenter"",""trial"":1,""time"":2297}]",NA,NA,NA,NA,NA,6,#3386FF,#D89F1C,10,0,1,38,1,619.5,37,1,342.10000002384186,10,1,experiment,NA,NA,1,0.7,0.3,2,3,190,5,NA
fcp-trial,225,1021971,0.0-200.0-0.0,voc_e2,12091,"[{""event"":""fullscreenenter"",""trial"":1,""time"":2297}]",NA,NA,NA,NA,NA,5,#741CD8,#D8271C,0,10,1,40,0,1487.300000011921,39,0,470.0999999642372,10,0,experiment,NA,NA,2,0.5,0.5,4,5,191,5,NA
fcp-trial,226,1025234,0.0-201.0-0.0,voc_e2,12091,"[{""event"":""fullscreenenter"",""trial"":1,""time"":2297}]",NA,NA,NA,NA,NA,1,#FA92F8,#1CD855,0,0,0,38,1,1170,39,0,584.8999999761581,0,1,experiment,NA,NA,0,0.1,0.9,1,0,192,5,NA
fcp-trial,227,1028572,0.0-202.0-0.0,voc_e2,12091,"[{""event"":""fullscreenenter"",""trial"":1,""time"":2297}]",NA,NA,NA,NA,NA,2,#D8271C,#741CD8,10,10,0,38,1,1541.5,37,1,281.2999999523163,10,0,experiment,NA,NA,2,0.5,0.5,5,4,193,5,NA
fcp-trial,228,1031189,0.0-203.0-0.0,voc_e2,12091,"[{""event"":""fullscreenenter"",""trial"":1,""time"":2297}]",NA,NA,NA,NA,NA,1,#3386FF,#D89F1C,10,10,1,38,1,648.6999999880791,37,1,452.89999997615814,10,1,experiment,NA,NA,1,0.7,0.3,2,3,194,5,NA
fcp-trial,229,1034416,0.0-204.0-0.0,voc_e2,12091,"[{""event"":""fullscreenenter"",""trial"":1,""time"":2297}]",NA,NA,NA,NA,NA,4,#3386FF,#D89F1C,10,0,1,38,1,1399.199999988079,37,1,300.5,10,1,experiment,NA,NA,1,0.7,0.3,2,3,195,5,NA
fcp-trial,230,1037791,0.0-205.0-0.0,voc_e2,12091,"[{""event"":""fullscreenenter"",""trial"":1,""time"":2297}]",NA,NA,NA,NA,NA,0,#D8271C,#741CD8,0,0,0,38,1,1536.199999988079,37,1,326.7999999523163,0,0,experiment,NA,NA,2,0.5,0.5,5,4,196,5,NA
fcp-trial,231,1041790,0.0-206.0-0.0,voc_e2,12091,"[{""event"":""fullscreenenter"",""trial"":1,""time"":2297}]",NA,NA,NA,NA,NA,2,#1CD855,#FA92F8,10,0,1,38,1,1967.1000000238419,37,1,519.8000000119209,10,1,experiment,NA,NA,0,0.9,0.1,0,1,197,5,NA
fcp-trial,232,1044478,0.0-207.0-0.0,voc_e2,12091,"[{""event"":""fullscreenenter"",""trial"":1,""time"":2297}]",NA,NA,NA,NA,NA,4,#1CD855,#FA92F8,10,0,1,38,1,857.3000000119209,37,1,314.19999998807907,10,1,experiment,NA,NA,0,0.9,0.1,0,1,198,5,NA
fcp-trial,233,1047539,0.0-208.0-0.0,voc_e2,12091,"[{""event"":""fullscreenenter"",""trial"":1,""time"":2297}]",NA,NA,NA,NA,NA,5,#3386FF,#D89F1C,10,0,1,40,0,1090.800000011921,39,0,458.199999988079,0,0,experiment,NA,NA,1,0.7,0.3,2,3,199,5,NA
fcp-trial,234,1051143,0.0-209.0-0.0,voc_e2,12091,"[{""event"":""fullscreenenter"",""trial"":1,""time"":2297}]",NA,NA,NA,NA,NA,6,#1CD855,#FA92F8,10,0,1,40,0,1583.7000000476837,39,0,502.199999988079,0,0,experiment,NA,NA,0,0.9,0.1,0,1,200,5,NA
fcp-trial,235,1054392,0.0-210.0-0.0,voc_e2,12091,"[{""event"":""fullscreenenter"",""trial"":1,""time"":2297}]",NA,NA,NA,NA,NA,6,#741CD8,#D8271C,10,10,1,40,0,1200.0999999642372,39,0,537.1000000238419,10,0,experiment,NA,NA,2,0.5,0.5,4,5,201,5,NA
fcp-trial,236,1057703,0.0-211.0-0.0,voc_e2,12091,"[{""event"":""fullscreenenter"",""trial"":1,""time"":2297}]",NA,NA,NA,NA,NA,2,#D89F1C,#3386FF,10,10,0,38,1,1083.300000011921,39,0,717.2000000476837,10,1,experiment,NA,NA,1,0.3,0.7,3,2,202,5,NA
fcp-trial,237,1060977,0.0-212.0-0.0,voc_e2,12091,"[{""event"":""fullscreenenter"",""trial"":1,""time"":2297}]",NA,NA,NA,NA,NA,3,#3386FF,#D89F1C,10,10,1,38,1,1301.8999999761581,37,1,460.800000011921,10,1,experiment,NA,NA,1,0.7,0.3,2,3,203,5,NA
fcp-trial,238,1064484,0.0-213.0-0.0,voc_e2,12091,"[{""event"":""fullscreenenter"",""trial"":1,""time"":2297}]",NA,NA,NA,NA,NA,0,#1CD855,#FA92F8,10,0,1,38,1,1662.1000000238419,37,1,333,10,1,experiment,NA,NA,0,0.9,0.1,0,1,204,5,NA
fcp-trial,239,1068078,0.0-214.0-0.0,voc_e2,12091,"[{""event"":""fullscreenenter"",""trial"":1,""time"":2297}]",NA,NA,NA,NA,NA,4,#D8271C,#741CD8,0,0,0,40,0,1717.9000000357628,37,1,355.2000000476837,0,0,experiment,NA,NA,2,0.5,0.5,5,4,205,5,NA
fcp-trial,240,1072378,0.0-215.0-0.0,voc_e2,12091,"[{""event"":""fullscreenenter"",""trial"":1,""time"":2297}]",NA,NA,NA,NA,NA,3,#D8271C,#741CD8,0,0,0,38,1,1792.0999999642372,37,1,996.0999999642372,0,0,experiment,NA,NA,2,0.5,0.5,5,4,206,5,NA
fcp-trial,241,1076730,0.0-216.0-0.0,voc_e2,12091,"[{""event"":""fullscreenenter"",""trial"":1,""time"":2297}]",NA,NA,NA,NA,NA,5,#FA92F8,#1CD855,0,10,0,40,0,2296.199999988079,39,0,539.8999999761581,10,1,experiment,NA,NA,0,0.1,0.9,1,0,207,5,NA
fcp-trial,242,1079834,0.0-217.0-0.0,voc_e2,12091,"[{""event"":""fullscreenenter"",""trial"":1,""time"":2297}]",NA,NA,NA,NA,NA,0,#3386FF,#D89F1C,10,0,1,38,1,1010,37,1,573.5999999642372,10,1,experiment,NA,NA,1,0.7,0.3,2,3,208,5,NA
fcp-trial,243,1082748,0.0-218.0-0.0,voc_e2,12091,"[{""event"":""fullscreenenter"",""trial"":1,""time"":2297}]",NA,NA,NA,NA,NA,1,#D8271C,#741CD8,10,10,0,38,1,1121.699999988079,37,1,277.10000002384186,10,0,experiment,NA,NA,2,0.5,0.5,5,4,209,5,NA
fcp-trial,244,1086141,0.0-219.0-0.0,voc_e2,12091,"[{""event"":""fullscreenenter"",""trial"":1,""time"":2297}]",NA,NA,NA,NA,NA,3,#FA92F8,#1CD855,10,10,0,38,1,1339.5999999642372,39,0,538.7999999523163,10,1,experiment,NA,NA,0,0.1,0.9,1,0,210,5,NA
audio-instructions,245,1091440,0.0-220.0,voc_e2,12091,"[{""event"":""fullscreenenter"",""trial"":1,""time"":2297}]",NA,611.1000000238419,static/audio/pause.wav,NA,0,NA,NA,NA,NA,NA,NA,NA,NA,NA,NA,NA,NA,NA,NA,NA,NA,NA,NA,NA,NA,NA,NA,NA,NA,NA
fcp-trial,246,1094711,0.0-221.0-0.0,voc_e2,12091,"[{""event"":""fullscreenenter"",""trial"":1,""time"":2297}]",NA,NA,NA,NA,NA,2,#1CD855,#FA92F8,10,0,1,38,1,1120.5,37,1,634,10,1,experiment,NA,NA,0,0.9,0.1,0,1,211,5,NA
fcp-trial,247,1097648,0.0-222.0-0.0,voc_e2,12091,"[{""event"":""fullscreenenter"",""trial"":1,""time"":2297}]",NA,NA,NA,NA,NA,3,#3386FF,#D89F1C,0,10,1,38,1,921.6999999880791,37,1,486,0,1,experiment,NA,NA,1,0.7,0.3,2,3,212,5,NA
fcp-trial,248,1100138,0.0-223.0-0.0,voc_e2,12091,"[{""event"":""fullscreenenter"",""trial"":1,""time"":2297}]",NA,NA,NA,NA,NA,0,#1CD855,#FA92F8,10,0,1,38,1,691.2999999523163,37,1,281.19999998807907,10,1,experiment,NA,NA,0,0.9,0.1,0,1,213,5,NA
fcp-trial,249,1102980,0.0-224.0-0.0,voc_e2,12091,"[{""event"":""fullscreenenter"",""trial"":1,""time"":2297}]",NA,NA,NA,NA,NA,1,#D8271C,#741CD8,10,10,0,38,1,871.1000000238419,37,1,451,10,0,experiment,NA,NA,2,0.5,0.5,5,4,214,5,NA
fcp-trial,250,1105896,0.0-225.0-0.0,voc_e2,12091,"[{""event"":""fullscreenenter"",""trial"":1,""time"":2297}]",NA,NA,NA,NA,NA,6,#D89F1C,#3386FF,10,0,0,38,1,877.0999999642372,39,0,518.2000000476837,0,1,experiment,NA,NA,1,0.3,0.7,3,2,215,5,NA
fcp-trial,251,1108396,0.0-226.0-0.0,voc_e2,12091,"[{""event"":""fullscreenenter"",""trial"":1,""time"":2297}]",NA,NA,NA,NA,NA,2,#3386FF,#D89F1C,0,0,1,38,1,468.30000001192093,37,1,505.300000011921,0,1,experiment,NA,NA,1,0.7,0.3,2,3,216,5,NA
fcp-trial,252,1110754,0.0-227.0-0.0,voc_e2,12091,"[{""event"":""fullscreenenter"",""trial"":1,""time"":2297}]",NA,NA,NA,NA,NA,3,#FA92F8,#1CD855,0,10,0,38,1,546.4000000357628,39,0,291.69999998807907,10,1,experiment,NA,NA,0,0.1,0.9,1,0,217,5,NA
fcp-trial,253,1113451,0.0-228.0-0.0,voc_e2,12091,"[{""event"":""fullscreenenter"",""trial"":1,""time"":2297}]",NA,NA,NA,NA,NA,5,#D8271C,#741CD8,0,10,0,38,1,883.1999999880791,37,1,284,0,0,experiment,NA,NA,2,0.5,0.5,5,4,218,5,NA
fcp-trial,254,1115656,0.0-229.0-0.0,voc_e2,12091,"[{""event"":""fullscreenenter"",""trial"":1,""time"":2297}]",NA,NA,NA,NA,NA,0,#D89F1C,#3386FF,10,0,0,38,1,403.19999998807907,39,0,283.30000001192093,0,1,experiment,NA,NA,1,0.3,0.7,3,2,219,5,NA
fcp-trial,255,1118073,0.0-230.0-0.0,voc_e2,12091,"[{""event"":""fullscreenenter"",""trial"":1,""time"":2297}]",NA,NA,NA,NA,NA,6,#741CD8,#D8271C,0,10,1,38,1,338.89999997615814,37,1,564.2999999523163,0,1,experiment,NA,NA,2,0.5,0.5,4,5,220,5,NA
fcp-trial,256,1120773,0.0-231.0-0.0,voc_e2,12091,"[{""event"":""fullscreenenter"",""trial"":1,""time"":2297}]",NA,NA,NA,NA,NA,4,#1CD855,#FA92F8,10,0,1,38,1,764.5999999642372,37,1,419.39999997615814,10,1,experiment,NA,NA,0,0.9,0.1,0,1,221,5,NA
fcp-trial,257,1123261,0.0-232.0-0.0,voc_e2,12091,"[{""event"":""fullscreenenter"",""trial"":1,""time"":2297}]",NA,NA,NA,NA,NA,1,#1CD855,#FA92F8,10,0,1,38,1,643.3999999761581,37,1,331.5999999642372,10,1,experiment,NA,NA,0,0.9,0.1,0,1,222,5,NA
fcp-trial,258,1125690,0.0-233.0-0.0,voc_e2,12091,"[{""event"":""fullscreenenter"",""trial"":1,""time"":2297}]",NA,NA,NA,NA,NA,4,#3386FF,#D89F1C,0,0,1,38,1,547.8999999761581,37,1,366.199999988079,0,1,experiment,NA,NA,1,0.7,0.3,2,3,223,5,NA
fcp-trial,259,1128131,0.0-234.0-0.0,voc_e2,12091,"[{""event"":""fullscreenenter"",""trial"":1,""time"":2297}]",NA,NA,NA,NA,NA,2,#D8271C,#741CD8,0,10,0,38,1,139,37,1,788.7999999523163,0,0,experiment,NA,NA,2,0.5,0.5,5,4,224,5,NA
fcp-trial,260,1131531,0.0-235.0-0.0,voc_e2,12091,"[{""event"":""fullscreenenter"",""trial"":1,""time"":2297}]",NA,NA,NA,NA,NA,6,#1CD855,#FA92F8,10,0,1,40,0,1446.199999988079,39,0,441.699999988079,0,0,experiment,NA,NA,0,0.9,0.1,0,1,225,5,NA
fcp-trial,261,1134621,0.0-236.0-0.0,voc_e2,12091,"[{""event"":""fullscreenenter"",""trial"":1,""time"":2297}]",NA,NA,NA,NA,NA,5,#D89F1C,#3386FF,0,10,0,40,0,1260.699999988079,39,0,315.5,10,1,experiment,NA,NA,1,0.3,0.7,3,2,226,6,NA
fcp-trial,262,1137577,0.0-237.0-0.0,voc_e2,12091,"[{""event"":""fullscreenenter"",""trial"":1,""time"":2297}]",NA,NA,NA,NA,NA,0,#D8271C,#741CD8,10,0,0,38,1,1173,37,1,267.9000000357628,10,0,experiment,NA,NA,2,0.5,0.5,5,4,227,6,NA
fcp-trial,263,1141192,0.0-238.0-0.0,voc_e2,12091,"[{""event"":""fullscreenenter"",""trial"":1,""time"":2297}]",NA,NA,NA,NA,NA,5,#FA92F8,#1CD855,0,10,0,40,0,1723.199999988079,39,0,377.39999997615814,10,1,experiment,NA,NA,0,0.1,0.9,1,0,228,6,NA
fcp-trial,264,1144061,0.0-239.0-0.0,voc_e2,12091,"[{""event"":""fullscreenenter"",""trial"":1,""time"":2297}]",NA,NA,NA,NA,NA,1,#D89F1C,#3386FF,10,10,0,38,1,1056.3999999761581,39,0,291.19999998807907,10,1,experiment,NA,NA,1,0.3,0.7,3,2,229,6,NA
fcp-trial,265,1147481,0.0-240.0-0.0,voc_e2,12091,"[{""event"":""fullscreenenter"",""trial"":1,""time"":2297}]",NA,NA,NA,NA,NA,4,#D8271C,#741CD8,10,10,0,40,0,1367.699999988079,39,0,540,10,1,experiment,NA,NA,2,0.5,0.5,5,4,230,6,NA
fcp-trial,266,1150467,0.0-241.0-0.0,voc_e2,12091,"[{""event"":""fullscreenenter"",""trial"":1,""time"":2297}]",NA,NA,NA,NA,NA,3,#D8271C,#741CD8,0,10,0,40,0,1076.800000011921,37,1,398,0,0,experiment,NA,NA,2,0.5,0.5,5,4,231,6,NA
fcp-trial,267,1153460,0.0-242.0-0.0,voc_e2,12091,"[{""event"":""fullscreenenter"",""trial"":1,""time"":2297}]",NA,NA,NA,NA,NA,1,#D8271C,#741CD8,10,0,0,38,1,1153.699999988079,37,1,324.10000002384186,10,0,experiment,NA,NA,2,0.5,0.5,5,4,232,6,NA
fcp-trial,268,1156591,0.0-243.0-0.0,voc_e2,12091,"[{""event"":""fullscreenenter"",""trial"":1,""time"":2297}]",NA,NA,NA,NA,NA,4,#FA92F8,#1CD855,0,10,0,40,0,1246.199999988079,39,0,372,10,1,experiment,NA,NA,0,0.1,0.9,1,0,233,6,NA
fcp-trial,269,1159865,0.0-244.0-0.0,voc_e2,12091,"[{""event"":""fullscreenenter"",""trial"":1,""time"":2297}]",NA,NA,NA,NA,NA,2,#741CD8,#D8271C,10,0,1,38,1,1311.5999999642372,39,0,448.300000011921,0,0,experiment,NA,NA,2,0.5,0.5,4,5,234,6,NA
fcp-trial,270,1162941,0.0-245.0-0.0,voc_e2,12091,"[{""event"":""fullscreenenter"",""trial"":1,""time"":2297}]",NA,NA,NA,NA,NA,1,#1CD855,#FA92F8,10,10,1,38,1,1180.8999999761581,37,1,379.4000000357628,10,1,experiment,NA,NA,0,0.9,0.1,0,1,235,6,NA
fcp-trial,271,1166016,0.0-246.0-0.0,voc_e2,12091,"[{""event"":""fullscreenenter"",""trial"":1,""time"":2297}]",NA,NA,NA,NA,NA,6,#D89F1C,#3386FF,0,10,0,40,0,1149.800000011921,39,0,412.199999988079,10,1,experiment,NA,NA,1,0.3,0.7,3,2,236,6,NA
fcp-trial,272,1169083,0.0-247.0-0.0,voc_e2,12091,"[{""event"":""fullscreenenter"",""trial"":1,""time"":2297}]",NA,NA,NA,NA,NA,3,#D89F1C,#3386FF,0,10,0,40,0,1190.300000011921,39,0,364.300000011921,10,1,experiment,NA,NA,1,0.3,0.7,3,2,237,6,NA
fcp-trial,273,1171915,0.0-248.0-0.0,voc_e2,12091,"[{""event"":""fullscreenenter"",""trial"":1,""time"":2297}]",NA,NA,NA,NA,NA,3,#741CD8,#D8271C,0,0,1,40,0,854.8999999761581,37,1,458.800000011921,0,1,experiment,NA,NA,2,0.5,0.5,4,5,238,6,NA
fcp-trial,274,1175023,0.0-249.0-0.0,voc_e2,12091,"[{""event"":""fullscreenenter"",""trial"":1,""time"":2297}]",NA,NA,NA,NA,NA,0,#1CD855,#FA92F8,10,0,1,38,1,1091.199999988079,37,1,505.0999999642372,10,1,experiment,NA,NA,0,0.9,0.1,0,1,239,6,NA
fcp-trial,275,1178238,0.0-250.0-0.0,voc_e2,12091,"[{""event"":""fullscreenenter"",""trial"":1,""time"":2297}]",NA,NA,NA,NA,NA,1,#D89F1C,#3386FF,0,10,0,38,1,1191.5,39,0,512.8000000119209,10,1,experiment,NA,NA,1,0.3,0.7,3,2,240,6,NA
fcp-trial,276,1181034,0.0-251.0-0.0,voc_e2,12091,"[{""event"":""fullscreenenter"",""trial"":1,""time"":2297}]",NA,NA,NA,NA,NA,5,#D89F1C,#3386FF,0,10,0,40,0,914.6999999880791,39,0,365.699999988079,10,1,experiment,NA,NA,1,0.3,0.7,3,2,241,6,NA
fcp-trial,277,1184596,0.0-252.0-0.0,voc_e2,12091,"[{""event"":""fullscreenenter"",""trial"":1,""time"":2297}]",NA,NA,NA,NA,NA,5,#741CD8,#D8271C,0,10,1,40,0,1349.9000000357628,39,0,700.1999999880791,10,0,experiment,NA,NA,2,0.5,0.5,4,5,242,6,NA
fcp-trial,278,1188003,0.0-253.0-0.0,voc_e2,12091,"[{""event"":""fullscreenenter"",""trial"":1,""time"":2297}]",NA,NA,NA,NA,NA,3,#FA92F8,#1CD855,0,10,0,38,1,1319.8999999761581,39,0,571.3999999761581,10,1,experiment,NA,NA,0,0.1,0.9,1,0,243,6,NA
fcp-trial,279,1191537,0.0-254.0-0.0,voc_e2,12091,"[{""event"":""fullscreenenter"",""trial"":1,""time"":2297}]",NA,NA,NA,NA,NA,5,#FA92F8,#1CD855,0,10,0,40,0,1587.7000000476837,37,1,430.5,0,0,experiment,NA,NA,0,0.1,0.9,1,0,244,6,NA
fcp-trial,280,1194434,0.0-255.0-0.0,voc_e2,12091,"[{""event"":""fullscreenenter"",""trial"":1,""time"":2297}]",NA,NA,NA,NA,NA,6,#1CD855,#FA92F8,10,0,1,40,0,1029.2999999523163,37,1,355.80000001192093,10,1,experiment,NA,NA,0,0.9,0.1,0,1,245,6,NA
fcp-trial,281,1197765,0.0-256.0-0.0,voc_e2,12091,"[{""event"":""fullscreenenter"",""trial"":1,""time"":2297}]",NA,NA,NA,NA,NA,0,#3386FF,#D89F1C,10,0,1,38,1,1278.199999988079,37,1,541,10,1,experiment,NA,NA,1,0.7,0.3,2,3,246,6,NA
fcp-trial,282,1200836,0.0-257.0-0.0,voc_e2,12091,"[{""event"":""fullscreenenter"",""trial"":1,""time"":2297}]",NA,NA,NA,NA,NA,4,#D8271C,#741CD8,0,10,0,40,0,1034.5,37,1,525.9000000357628,0,0,experiment,NA,NA,2,0.5,0.5,5,4,247,6,NA
fcp-trial,283,1203911,0.0-258.0-0.0,voc_e2,12091,"[{""event"":""fullscreenenter"",""trial"":1,""time"":2297}]",NA,NA,NA,NA,NA,0,#D8271C,#741CD8,10,10,0,38,1,953.3000000119209,37,1,604,10,0,experiment,NA,NA,2,0.5,0.5,5,4,248,6,NA
fcp-trial,284,1207089,0.0-259.0-0.0,voc_e2,12091,"[{""event"":""fullscreenenter"",""trial"":1,""time"":2297}]",NA,NA,NA,NA,NA,2,#1CD855,#FA92F8,10,0,1,38,1,1157.800000011921,37,1,509.699999988079,10,1,experiment,NA,NA,0,0.9,0.1,0,1,249,6,NA
fcp-trial,285,1210030,0.0-260.0-0.0,voc_e2,12091,"[{""event"":""fullscreenenter"",""trial"":1,""time"":2297}]",NA,NA,NA,NA,NA,6,#741CD8,#D8271C,10,10,1,40,0,946.8999999761581,37,1,476.10000002384186,10,1,experiment,NA,NA,2,0.5,0.5,4,5,250,6,NA
fcp-trial,286,1213143,0.0-261.0-0.0,voc_e2,12091,"[{""event"":""fullscreenenter"",""trial"":1,""time"":2297}]",NA,NA,NA,NA,NA,4,#D89F1C,#3386FF,0,0,0,40,0,1035.7999999523163,37,1,565.6999999880791,0,0,experiment,NA,NA,1,0.3,0.7,3,2,251,6,NA
fcp-trial,287,1216410,0.0-262.0-0.0,voc_e2,12091,"[{""event"":""fullscreenenter"",""trial"":1,""time"":2297}]",NA,NA,NA,NA,NA,2,#3386FF,#D89F1C,10,0,1,38,1,1206.5,37,1,542.6000000238419,10,1,experiment,NA,NA,1,0.7,0.3,2,3,252,6,NA
fcp-trial,288,1219371,0.0-263.0-0.0,voc_e2,12091,"[{""event"":""fullscreenenter"",""trial"":1,""time"":2297}]",NA,NA,NA,NA,NA,2,#D89F1C,#3386FF,0,10,0,38,1,1128.300000011921,39,0,318.10000002384186,10,1,experiment,NA,NA,1,0.3,0.7,3,2,253,6,NA
fcp-trial,289,1222917,0.0-264.0-0.0,voc_e2,12091,"[{""event"":""fullscreenenter"",""trial"":1,""time"":2297}]",NA,NA,NA,NA,NA,3,#FA92F8,#1CD855,0,10,0,38,1,1716.6000000238419,39,0,314.5,10,1,experiment,NA,NA,0,0.1,0.9,1,0,254,6,NA
fcp-trial,290,1226314,0.0-265.0-0.0,voc_e2,12091,"[{""event"":""fullscreenenter"",""trial"":1,""time"":2297}]",NA,NA,NA,NA,NA,2,#D8271C,#741CD8,0,10,0,38,1,1372.6000000238419,37,1,507.10000002384186,0,0,experiment,NA,NA,2,0.5,0.5,5,4,255,6,NA
fcp-trial,291,1229228,0.0-266.0-0.0,voc_e2,12091,"[{""event"":""fullscreenenter"",""trial"":1,""time"":2297}]",NA,NA,NA,NA,NA,0,#D89F1C,#3386FF,0,0,0,38,1,1042.5,39,0,355.80000001192093,0,1,experiment,NA,NA,1,0.3,0.7,3,2,256,6,NA
fcp-trial,292,1232917,0.0-267.0-0.0,voc_e2,12091,"[{""event"":""fullscreenenter"",""trial"":1,""time"":2297}]",NA,NA,NA,NA,NA,4,#741CD8,#D8271C,0,10,1,40,0,1748.199999988079,37,1,421.300000011921,0,1,experiment,NA,NA,2,0.5,0.5,4,5,257,6,NA
fcp-trial,293,1236010,0.0-268.0-0.0,voc_e2,12091,"[{""event"":""fullscreenenter"",""trial"":1,""time"":2297}]",NA,NA,NA,NA,NA,6,#D89F1C,#3386FF,0,10,0,40,0,1139,39,0,437.800000011921,10,1,experiment,NA,NA,1,0.3,0.7,3,2,258,6,NA
fcp-trial,294,1238987,0.0-269.0-0.0,voc_e2,12091,"[{""event"":""fullscreenenter"",""trial"":1,""time"":2297}]",NA,NA,NA,NA,NA,4,#FA92F8,#1CD855,10,10,0,40,0,963.1000000238419,39,0,501,10,1,experiment,NA,NA,0,0.1,0.9,1,0,259,6,NA
fcp-trial,295,1242654,0.0-270.0-0.0,voc_e2,12091,"[{""event"":""fullscreenenter"",""trial"":1,""time"":2297}]",NA,NA,NA,NA,NA,6,#1CD855,#FA92F8,10,0,1,40,0,1644.699999988079,39,0,509.800000011921,0,0,experiment,NA,NA,0,0.9,0.1,0,1,260,6,NA
fcp-trial,296,1245983,0.0-271.0-0.0,voc_e2,12091,"[{""event"":""fullscreenenter"",""trial"":1,""time"":2297}]",NA,NA,NA,NA,NA,5,#741CD8,#D8271C,0,10,1,40,0,1379.6000000238419,37,1,434.89999997615814,0,1,experiment,NA,NA,2,0.5,0.5,4,5,261,6,NA
fcp-trial,297,1249464,0.0-272.0-0.0,voc_e2,12091,"[{""event"":""fullscreenenter"",""trial"":1,""time"":2297}]",NA,NA,NA,NA,NA,0,#1CD855,#FA92F8,10,0,1,38,1,1253.7999999523163,37,1,717.1000000238419,10,1,experiment,NA,NA,0,0.9,0.1,0,1,262,6,NA
fcp-trial,298,1252387,0.0-273.0-0.0,voc_e2,12091,"[{""event"":""fullscreenenter"",""trial"":1,""time"":2297}]",NA,NA,NA,NA,NA,1,#D89F1C,#3386FF,0,10,0,38,1,1095.8999999761581,39,0,314,10,1,experiment,NA,NA,1,0.3,0.7,3,2,263,6,NA
fcp-trial,299,1255328,0.0-274.0-0.0,voc_e2,12091,"[{""event"":""fullscreenenter"",""trial"":1,""time"":2297}]",NA,NA,NA,NA,NA,5,#3386FF,#D89F1C,0,10,1,40,0,1077.199999988079,37,1,343.80000001192093,0,1,experiment,NA,NA,1,0.7,0.3,2,3,264,6,NA
fcp-trial,300,1258589,0.0-275.0-0.0,voc_e2,12091,"[{""event"":""fullscreenenter"",""trial"":1,""time"":2297}]",NA,NA,NA,NA,NA,3,#D8271C,#741CD8,0,0,0,40,0,1307.2000000476837,39,0,436.5,0,1,experiment,NA,NA,2,0.5,0.5,5,4,265,6,NA
fcp-trial,301,1261693,0.0-276.0-0.0,voc_e2,12091,"[{""event"":""fullscreenenter"",""trial"":1,""time"":2297}]",NA,NA,NA,NA,NA,1,#741CD8,#D8271C,0,10,1,38,1,1251.7999999523163,39,0,334.2999999523163,10,0,experiment,NA,NA,2,0.5,0.5,4,5,266,6,NA
fcp-trial,302,1264424,0.0-277.0-0.0,voc_e2,12091,"[{""event"":""fullscreenenter"",""trial"":1,""time"":2297}]",NA,NA,NA,NA,NA,1,#FA92F8,#1CD855,10,10,0,38,1,871.8000000119209,39,0,346.80000001192093,10,1,experiment,NA,NA,0,0.1,0.9,1,0,267,6,NA
fcp-trial,303,1266931,0.0-278.0-0.0,voc_e2,12091,"[{""event"":""fullscreenenter"",""trial"":1,""time"":2297}]",NA,NA,NA,NA,NA,5,#1CD855,#FA92F8,10,0,1,38,1,673.8999999761581,37,1,323,10,1,experiment,NA,NA,0,0.9,0.1,0,1,268,6,NA
fcp-trial,304,1269911,0.0-279.0-0.0,voc_e2,12091,"[{""event"":""fullscreenenter"",""trial"":1,""time"":2297}]",NA,NA,NA,NA,NA,3,#3386FF,#D89F1C,10,10,1,38,1,1202.7000000476837,37,1,260.80000001192093,10,1,experiment,NA,NA,1,0.7,0.3,2,3,269,6,NA
fcp-trial,305,1272929,0.0-280.0-0.0,voc_e2,12091,"[{""event"":""fullscreenenter"",""trial"":1,""time"":2297}]",NA,NA,NA,NA,NA,0,#D8271C,#741CD8,0,10,0,38,1,1104.5,37,1,395.9000000357628,0,0,experiment,NA,NA,2,0.5,0.5,5,4,270,6,NA
fcp-trial,306,1277411,0.0-281.0-0.0,voc_e2,12091,"[{""event"":""fullscreenenter"",""trial"":1,""time"":2297}]",NA,NA,NA,NA,NA,6,#741CD8,#D8271C,0,0,1,38,1,2265.300000011921,37,1,696.6999999880791,0,1,experiment,NA,NA,2,0.5,0.5,4,5,271,7,NA
fcp-trial,307,1279998,0.0-282.0-0.0,voc_e2,12091,"[{""event"":""fullscreenenter"",""trial"":1,""time"":2297}]",NA,NA,NA,NA,NA,2,#1CD855,#FA92F8,10,0,1,38,1,817.2999999523163,37,1,255.19999998807907,10,1,experiment,NA,NA,0,0.9,0.1,0,1,272,7,NA
fcp-trial,308,1283128,0.0-283.0-0.0,voc_e2,12091,"[{""event"":""fullscreenenter"",""trial"":1,""time"":2297}]",NA,NA,NA,NA,NA,4,#3386FF,#D89F1C,10,0,1,40,0,1139.5,37,1,479.10000002384186,10,1,experiment,NA,NA,1,0.7,0.3,2,3,273,7,NA
fcp-trial,309,1286353,0.0-284.0-0.0,voc_e2,12091,"[{""event"":""fullscreenenter"",""trial"":1,""time"":2297}]",NA,NA,NA,NA,NA,2,#FA92F8,#1CD855,0,10,0,38,1,1279.4000000357628,39,0,423.10000002384186,10,1,experiment,NA,NA,0,0.1,0.9,1,0,274,7,NA
fcp-trial,310,1289195,0.0-285.0-0.0,voc_e2,12091,"[{""event"":""fullscreenenter"",""trial"":1,""time"":2297}]",NA,NA,NA,NA,NA,2,#3386FF,#D89F1C,10,0,1,38,1,1013.3000000119209,37,1,315,10,1,experiment,NA,NA,1,0.7,0.3,2,3,275,7,NA
fcp-trial,311,1292166,0.0-286.0-0.0,voc_e2,12091,"[{""event"":""fullscreenenter"",""trial"":1,""time"":2297}]",NA,NA,NA,NA,NA,6,#741CD8,#D8271C,10,10,1,40,0,1035.199999988079,39,0,417.300000011921,10,0,experiment,NA,NA,2,0.5,0.5,4,5,276,7,NA
fcp-trial,312,1295751,0.0-287.0-0.0,voc_e2,12091,"[{""event"":""fullscreenenter"",""trial"":1,""time"":2297}]",NA,NA,NA,NA,NA,3,#1CD855,#FA92F8,10,0,1,40,0,1551.800000011921,39,0,522.2000000476837,0,0,experiment,NA,NA,0,0.9,0.1,0,1,277,7,NA
fcp-trial,313,1298817,0.0-288.0-0.0,voc_e2,12091,"[{""event"":""fullscreenenter"",""trial"":1,""time"":2297}]",NA,NA,NA,NA,NA,2,#D8271C,#741CD8,10,0,0,38,1,1062.199999988079,37,1,492.60000002384186,10,0,experiment,NA,NA,2,0.5,0.5,5,4,278,7,NA
fcp-trial,314,1302662,0.0-289.0-0.0,voc_e2,12091,"[{""event"":""fullscreenenter"",""trial"":1,""time"":2297}]",NA,NA,NA,NA,NA,3,#D89F1C,#3386FF,10,10,0,38,1,1030.0999999642372,39,0,1300.100000023842,10,1,experiment,NA,NA,1,0.3,0.7,3,2,279,7,NA
fcp-trial,315,1307406,0.0-290.0-0.0,voc_e2,12091,"[{""event"":""fullscreenenter"",""trial"":1,""time"":2297}]",NA,NA,NA,NA,NA,5,#FA92F8,#1CD855,0,10,0,40,0,2451.399999976158,39,0,780.3999999761581,10,1,experiment,NA,NA,0,0.1,0.9,1,0,280,7,NA
fcp-trial,316,1312111,0.0-291.0-0.0,voc_e2,12091,"[{""event"":""fullscreenenter"",""trial"":1,""time"":2297}]",NA,NA,NA,NA,NA,1,#D8271C,#741CD8,0,0,0,38,1,2082.100000023842,37,1,1107.9000000357628,0,0,experiment,NA,NA,2,0.5,0.5,5,4,281,7,NA
fcp-trial,317,1315176,0.0-292.0-0.0,voc_e2,12091,"[{""event"":""fullscreenenter"",""trial"":1,""time"":2297}]",NA,NA,NA,NA,NA,5,#D89F1C,#3386FF,0,0,0,40,0,1073.300000011921,37,1,464.5,0,0,experiment,NA,NA,1,0.3,0.7,3,2,282,7,NA
fcp-trial,318,1318539,0.0-293.0-0.0,voc_e2,12091,"[{""event"":""fullscreenenter"",""trial"":1,""time"":2297}]",NA,NA,NA,NA,NA,4,#D8271C,#741CD8,10,0,0,40,0,1450.3999999761581,39,0,394.7999999523163,0,1,experiment,NA,NA,2,0.5,0.5,5,4,283,7,NA
fcp-trial,319,1321412,0.0-294.0-0.0,voc_e2,12091,"[{""event"":""fullscreenenter"",""trial"":1,""time"":2297}]",NA,NA,NA,NA,NA,0,#D89F1C,#3386FF,10,10,0,38,1,1078.1000000238419,39,0,284.5,10,1,experiment,NA,NA,1,0.3,0.7,3,2,284,7,NA
fcp-trial,320,1324491,0.0-295.0-0.0,voc_e2,12091,"[{""event"":""fullscreenenter"",""trial"":1,""time"":2297}]",NA,NA,NA,NA,NA,0,#FA92F8,#1CD855,0,0,0,38,1,1155.5,39,0,407.39999997615814,0,1,experiment,NA,NA,0,0.1,0.9,1,0,285,7,NA
fcp-trial,321,1327353,0.0-296.0-0.0,voc_e2,12091,"[{""event"":""fullscreenenter"",""trial"":1,""time"":2297}]",NA,NA,NA,NA,NA,0,#741CD8,#D8271C,0,10,1,38,1,827.6000000238419,39,0,522.5,10,0,experiment,NA,NA,2,0.5,0.5,4,5,286,7,NA
fcp-trial,322,1330499,0.0-297.0-0.0,voc_e2,12091,"[{""event"":""fullscreenenter"",""trial"":1,""time"":2297}]",NA,NA,NA,NA,NA,6,#1CD855,#FA92F8,10,0,1,40,0,1178.3999999761581,39,0,452.60000002384186,0,0,experiment,NA,NA,0,0.9,0.1,0,1,287,7,NA
fcp-trial,323,1333375,0.0-298.0-0.0,voc_e2,12091,"[{""event"":""fullscreenenter"",""trial"":1,""time"":2297}]",NA,NA,NA,NA,NA,6,#3386FF,#D89F1C,0,0,1,40,0,1011.3999999761581,37,1,350.60000002384186,0,1,experiment,NA,NA,1,0.7,0.3,2,3,288,7,NA
fcp-trial,324,1336224,0.0-299.0-0.0,voc_e2,12091,"[{""event"":""fullscreenenter"",""trial"":1,""time"":2297}]",NA,NA,NA,NA,NA,5,#741CD8,#D8271C,0,10,1,40,0,892.2999999523163,37,1,440.60000002384186,0,1,experiment,NA,NA,2,0.5,0.5,4,5,289,7,NA
fcp-trial,325,1338993,0.0-300.0-0.0,voc_e2,12091,"[{""event"":""fullscreenenter"",""trial"":1,""time"":2297}]",NA,NA,NA,NA,NA,4,#D89F1C,#3386FF,0,10,0,40,0,918.8999999761581,39,0,334,10,1,experiment,NA,NA,1,0.3,0.7,3,2,290,7,NA
fcp-trial,326,1341988,0.0-301.0-0.0,voc_e2,12091,"[{""event"":""fullscreenenter"",""trial"":1,""time"":2297}]",NA,NA,NA,NA,NA,4,#1CD855,#FA92F8,10,0,1,40,0,616.3999999761581,39,0,866.3999999761581,0,0,experiment,NA,NA,0,0.9,0.1,0,1,291,7,NA
fcp-trial,327,1344993,0.0-302.0-0.0,voc_e2,12091,"[{""event"":""fullscreenenter"",""trial"":1,""time"":2297}]",NA,NA,NA,NA,NA,1,#FA92F8,#1CD855,0,10,0,38,1,1077.1000000238419,37,1,416.300000011921,0,0,experiment,NA,NA,0,0.1,0.9,1,0,292,7,NA
fcp-trial,328,1347808,0.0-303.0-0.0,voc_e2,12091,"[{""event"":""fullscreenenter"",""trial"":1,""time"":2297}]",NA,NA,NA,NA,NA,1,#3386FF,#D89F1C,10,10,1,38,1,971.1000000238419,37,1,332.10000002384186,10,1,experiment,NA,NA,1,0.7,0.3,2,3,293,7,NA
fcp-trial,329,1351321,0.0-304.0-0.0,voc_e2,12091,"[{""event"":""fullscreenenter"",""trial"":1,""time"":2297}]",NA,NA,NA,NA,NA,3,#741CD8,#D8271C,10,10,1,38,1,1675.699999988079,39,0,323.80000001192093,10,0,experiment,NA,NA,2,0.5,0.5,4,5,294,7,NA
fcp-trial,330,1354721,0.0-305.0-0.0,voc_e2,12091,"[{""event"":""fullscreenenter"",""trial"":1,""time"":2297}]",NA,NA,NA,NA,NA,0,#D89F1C,#3386FF,0,10,0,38,1,1591.800000011921,39,0,294.10000002384186,10,1,experiment,NA,NA,1,0.3,0.7,3,2,295,7,NA
fcp-trial,331,1357702,0.0-306.0-0.0,voc_e2,12091,"[{""event"":""fullscreenenter"",""trial"":1,""time"":2297}]",NA,NA,NA,NA,NA,2,#1CD855,#FA92F8,10,0,1,38,1,1079.8999999761581,37,1,387.5,10,1,experiment,NA,NA,0,0.9,0.1,0,1,296,7,NA
fcp-trial,332,1361471,0.0-307.0-0.0,voc_e2,12091,"[{""event"":""fullscreenenter"",""trial"":1,""time"":2297}]",NA,NA,NA,NA,NA,4,#3386FF,#D89F1C,0,10,1,40,0,1723.300000011921,37,1,533.8000000119209,0,1,experiment,NA,NA,1,0.7,0.3,2,3,297,7,NA
fcp-trial,333,1364957,0.0-308.0-0.0,voc_e2,12091,"[{""event"":""fullscreenenter"",""trial"":1,""time"":2297}]",NA,NA,NA,NA,NA,3,#FA92F8,#1CD855,0,10,0,38,1,1218.699999988079,39,0,757.2000000476837,10,1,experiment,NA,NA,0,0.1,0.9,1,0,298,7,NA
fcp-trial,334,1368406,0.0-309.0-0.0,voc_e2,12091,"[{""event"":""fullscreenenter"",""trial"":1,""time"":2297}]",NA,NA,NA,NA,NA,1,#FA92F8,#1CD855,0,10,0,38,1,1562.5,39,0,371,10,1,experiment,NA,NA,0,0.1,0.9,1,0,299,7,NA
fcp-trial,335,1371354,0.0-310.0-0.0,voc_e2,12091,"[{""event"":""fullscreenenter"",""trial"":1,""time"":2297}]",NA,NA,NA,NA,NA,1,#D8271C,#741CD8,10,0,0,38,1,1167.4000000357628,37,1,262.19999998807907,10,0,experiment,NA,NA,2,0.5,0.5,5,4,300,7,NA
fcp-trial,336,1374099,0.0-311.0-0.0,voc_e2,12091,"[{""event"":""fullscreenenter"",""trial"":1,""time"":2297}]",NA,NA,NA,NA,NA,2,#D89F1C,#3386FF,10,10,0,38,1,843.4000000357628,39,0,382.5,10,1,experiment,NA,NA,1,0.3,0.7,3,2,301,7,NA
fcp-trial,337,1377424,0.0-312.0-0.0,voc_e2,12091,"[{""event"":""fullscreenenter"",""trial"":1,""time"":2297}]",NA,NA,NA,NA,NA,5,#D8271C,#741CD8,10,10,0,40,0,1322.199999988079,37,1,490.10000002384186,10,0,experiment,NA,NA,2,0.5,0.5,5,4,302,7,NA
fcp-trial,338,1381285,0.0-313.0-0.0,voc_e2,12091,"[{""event"":""fullscreenenter"",""trial"":1,""time"":2297}]",NA,NA,NA,NA,NA,4,#1CD855,#FA92F8,10,0,1,40,0,1863.8999999761581,39,0,471.699999988079,0,0,experiment,NA,NA,0,0.9,0.1,0,1,303,7,NA
fcp-trial,339,1384299,0.0-314.0-0.0,voc_e2,12091,"[{""event"":""fullscreenenter"",""trial"":1,""time"":2297}]",NA,NA,NA,NA,NA,3,#3386FF,#D89F1C,10,10,1,40,0,1027.5,39,0,472.199999988079,10,0,experiment,NA,NA,1,0.7,0.3,2,3,304,7,NA
fcp-trial,340,1387426,0.0-315.0-0.0,voc_e2,12091,"[{""event"":""fullscreenenter"",""trial"":1,""time"":2297}]",NA,NA,NA,NA,NA,6,#741CD8,#D8271C,10,0,1,40,0,1185.3999999761581,37,1,429.7000000476837,10,1,experiment,NA,NA,2,0.5,0.5,4,5,305,7,NA
fcp-trial,341,1390360,0.0-316.0-0.0,voc_e2,12091,"[{""event"":""fullscreenenter"",""trial"":1,""time"":2297}]",NA,NA,NA,NA,NA,6,#D89F1C,#3386FF,10,10,0,40,0,940.7999999523163,39,0,477.60000002384186,10,1,experiment,NA,NA,1,0.3,0.7,3,2,306,7,NA
fcp-trial,342,1393923,0.0-317.0-0.0,voc_e2,12091,"[{""event"":""fullscreenenter"",""trial"":1,""time"":2297}]",NA,NA,NA,NA,NA,0,#1CD855,#FA92F8,10,10,1,38,1,1303.199999988079,37,1,746.6999999880791,10,1,experiment,NA,NA,0,0.9,0.1,0,1,307,7,NA
fcp-trial,343,1397333,0.0-318.0-0.0,voc_e2,12091,"[{""event"":""fullscreenenter"",""trial"":1,""time"":2297}]",NA,NA,NA,NA,NA,2,#D8271C,#741CD8,0,10,0,38,1,1027.699999988079,37,1,868.9000000357628,0,0,experiment,NA,NA,2,0.5,0.5,5,4,308,7,NA
fcp-trial,344,1400158,0.0-319.0-0.0,voc_e2,12091,"[{""event"":""fullscreenenter"",""trial"":1,""time"":2297}]",NA,NA,NA,NA,NA,5,#1CD855,#FA92F8,10,0,1,40,0,847.1000000238419,37,1,466.2000000476837,10,1,experiment,NA,NA,0,0.9,0.1,0,1,309,7,NA
fcp-trial,345,1403942,0.0-320.0-0.0,voc_e2,12091,"[{""event"":""fullscreenenter"",""trial"":1,""time"":2297}]",NA,NA,NA,NA,NA,5,#3386FF,#D89F1C,10,10,1,40,0,1648.2000000476837,39,0,619.3999999761581,10,0,experiment,NA,NA,1,0.7,0.3,2,3,310,7,NA
fcp-trial,346,1407568,0.0-321.0-0.0,voc_e2,12091,"[{""event"":""fullscreenenter"",""trial"":1,""time"":2297}]",NA,NA,NA,NA,NA,4,#D8271C,#741CD8,10,10,0,40,0,1139.199999988079,37,1,980.2999999523164,10,0,experiment,NA,NA,2,0.5,0.5,5,4,311,7,NA
fcp-trial,347,1411210,0.0-322.0-0.0,voc_e2,12091,"[{""event"":""fullscreenenter"",""trial"":1,""time"":2297}]",NA,NA,NA,NA,NA,0,#741CD8,#D8271C,10,0,1,38,1,1355.3999999761581,39,0,767.8000000119209,0,0,experiment,NA,NA,2,0.5,0.5,4,5,312,7,NA
fcp-trial,348,1414189,0.0-323.0-0.0,voc_e2,12091,"[{""event"":""fullscreenenter"",""trial"":1,""time"":2297}]",NA,NA,NA,NA,NA,6,#1CD855,#FA92F8,10,0,1,40,0,1043.5,37,1,424.5,10,1,experiment,NA,NA,0,0.9,0.1,0,1,313,7,NA
fcp-trial,349,1417611,0.0-324.0-0.0,voc_e2,12091,"[{""event"":""fullscreenenter"",""trial"":1,""time"":2297}]",NA,NA,NA,NA,NA,1,#3386FF,#D89F1C,10,10,1,38,1,1451.300000011921,37,1,459.9000000357628,10,1,experiment,NA,NA,1,0.7,0.3,2,3,314,7,NA
fcp-trial,350,1421429,0.0-325.0-0.0,voc_e2,12091,"[{""event"":""fullscreenenter"",""trial"":1,""time"":2297}]",NA,NA,NA,NA,NA,3,#D8271C,#741CD8,10,10,0,38,1,1962.7999999523163,37,1,339,10,0,experiment,NA,NA,2,0.5,0.5,5,4,315,7,NA
audio-instructions,351,1427616,0.0-326.0,voc_e2,12091,"[{""event"":""fullscreenenter"",""trial"":1,""time"":2297}]",NA,429.699999988079,static/audio/finished.wav,NA,0,NA,NA,NA,NA,NA,NA,NA,NA,NA,NA,NA,NA,NA,NA,NA,NA,NA,NA,NA,NA,NA,NA,NA,NA,NA
audio-instructions,352,1438830,0.0-327.0-0.0,voc_e2,12091,"[{""event"":""fullscreenenter"",""trial"":1,""time"":2297}]",NA,374.699999988079,static/audio/explicit1.wav,NA,0,NA,NA,NA,NA,NA,NA,NA,NA,NA,NA,NA,NA,NA,NA,NA,NA,NA,NA,NA,NA,NA,NA,NA,NA,NA
audio-instructions,353,1446851,0.0-327.0-1.0,voc_e2,12091,"[{""event"":""fullscreenenter"",""trial"":1,""time"":2297}]",NA,425.5,static/audio/explicit2.wav,NA,0,NA,NA,NA,NA,NA,NA,NA,NA,NA,NA,NA,NA,NA,NA,NA,NA,NA,NA,NA,NA,NA,NA,NA,NA,NA
image-slider-response,354,1451876,0.0-328.0,voc_e2,12091,"[{""event"":""fullscreenenter"",""trial"":1,""time"":2297}]",NA,5022.800000011921,static/img/machines/machine2.png,NA,NA,NA,NA,NA,NA,NA,NA,NA,NA,NA,NA,NA,NA,NA,NA,explicit,NA,NA,NA,NA,NA,NA,NA,NA,NA,5
image-slider-response,355,1454945,0.0-329.0,voc_e2,12091,"[{""event"":""fullscreenenter"",""trial"":1,""time"":2297}]",NA,3067.099999964237,static/img/machines/machine3.png,NA,NA,NA,NA,NA,NA,NA,NA,NA,NA,NA,NA,NA,NA,NA,NA,explicit,NA,NA,NA,NA,NA,NA,NA,NA,NA,7
image-slider-response,356,1459038,0.0-330.0,voc_e2,12091,"[{""event"":""fullscreenenter"",""trial"":1,""time"":2297}]",NA,4091.5,static/img/machines/machine5.png,NA,NA,NA,NA,NA,NA,NA,NA,NA,NA,NA,NA,NA,NA,NA,NA,explicit,NA,NA,NA,NA,NA,NA,NA,NA,NA,3
image-slider-response,357,1462077,0.0-331.0,voc_e2,12091,"[{""event"":""fullscreenenter"",""trial"":1,""time"":2297}]",NA,3037.399999976158,static/img/machines/machine6.png,NA,NA,NA,NA,NA,NA,NA,NA,NA,NA,NA,NA,NA,NA,NA,NA,explicit,NA,NA,NA,NA,NA,NA,NA,NA,NA,8
image-slider-response,358,1465357,0.0-332.0,voc_e2,12091,"[{""event"":""fullscreenenter"",""trial"":1,""time"":2297}]",NA,3279.199999988079,static/img/machines/machine1.png,NA,NA,NA,NA,NA,NA,NA,NA,NA,NA,NA,NA,NA,NA,NA,NA,explicit,NA,NA,NA,NA,NA,NA,NA,NA,NA,6
image-slider-response,359,1468018,0.0-333.0,voc_e2,12091,"[{""event"":""fullscreenenter"",""trial"":1,""time"":2297}]",NA,2659.699999988079,static/img/machines/machine4.png,NA,NA,NA,NA,NA,NA,NA,NA,NA,NA,NA,NA,NA,NA,NA,NA,explicit,NA,NA,NA,NA,NA,NA,NA,NA,NA,3
