trial_type,trial_index,time_elapsed,internal_node_id,task_version,subject_id,interactions,success,rt,stimulus,key_press,button_pressed,offer,arcade_color_L,arcade_color_R,arcade_outcome_L,arcade_outcome_R,correct,stage_1_key,stage_1_choice,stage_1_rt,stage_2_key,stage_2_choice,stage_2_rt,stage_3_outcome,accuracy,phase,responses,num_errors,context,reward_prob_L,reward_prob_R,arcade_id_L,arcade_id_R,trial,block,response
pavlovia,0,17,0.0-0.0,voc_e2,12349,[],NA,NA,NA,NA,NA,NA,NA,NA,NA,NA,NA,NA,NA,NA,NA,NA,NA,NA,NA,NA,NA,NA,NA,NA,NA,NA,NA,NA,NA,NA
fullscreen,1,9113,0.0-1.0,voc_e2,12349,"[{""event"":""fullscreenenter"",""trial"":1,""time"":8120}]",TRUE,NA,NA,NA,NA,NA,NA,NA,NA,NA,NA,NA,NA,NA,NA,NA,NA,NA,NA,NA,NA,NA,NA,NA,NA,NA,NA,NA,NA,NA
audio-keyboard-response,2,14492,0.0-2.0,voc_e2,12349,"[{""event"":""fullscreenenter"",""trial"":1,""time"":8120}]",NA,5376,static/audio/beep_loop.wav,32,NA,NA,NA,NA,NA,NA,NA,NA,NA,NA,NA,NA,NA,NA,NA,NA,NA,NA,NA,NA,NA,NA,NA,NA,NA,NA
audio-test,3,18323,0.0-3.0,voc_e2,12349,"[{""event"":""fullscreenenter"",""trial"":1,""time"":8120}]",NA,NA,static/audio/turtle.wav,NA,3,NA,NA,NA,NA,NA,NA,NA,NA,NA,NA,NA,NA,NA,NA,NA,NA,NA,NA,NA,NA,NA,NA,NA,NA,NA
audio-test,4,26284,0.0-4.0,voc_e2,12349,"[{""event"":""fullscreenenter"",""trial"":1,""time"":8120}]",NA,NA,static/audio/shark.wav,NA,2,NA,NA,NA,NA,NA,NA,NA,NA,NA,NA,NA,NA,NA,NA,NA,NA,NA,NA,NA,NA,NA,NA,NA,NA,NA
audio-instructions,5,33436,0.0-5.0-0.0,voc_e2,12349,"[{""event"":""fullscreenenter"",""trial"":1,""time"":8120}]",NA,1369.4000000059605,static/audio/instructions1.wav,NA,0,NA,NA,NA,NA,NA,NA,NA,NA,NA,NA,NA,NA,NA,NA,NA,NA,NA,NA,NA,NA,NA,NA,NA,NA,NA
audio-instructions,6,43773,0.0-5.0-1.0,voc_e2,12349,"[{""event"":""fullscreenenter"",""trial"":1,""time"":8120}]",NA,3595.3999999910593,static/audio/instructions2.wav,NA,0,NA,NA,NA,NA,NA,NA,NA,NA,NA,NA,NA,NA,NA,NA,NA,NA,NA,NA,NA,NA,NA,NA,NA,NA,NA
audio-instructions,7,51176,0.0-5.0-2.0,voc_e2,12349,"[{""event"":""fullscreenenter"",""trial"":1,""time"":8120}]",NA,1601.2000000029802,static/audio/instructions3.wav,NA,0,NA,NA,NA,NA,NA,NA,NA,NA,NA,NA,NA,NA,NA,NA,NA,NA,NA,NA,NA,NA,NA,NA,NA,NA,NA
audio-instructions,8,69144,0.0-5.0-3.0,voc_e2,12349,"[{""event"":""fullscreenenter"",""trial"":1,""time"":8120}]",NA,4742.79999999702,static/audio/instructions4.wav,NA,0,NA,NA,NA,NA,NA,NA,NA,NA,NA,NA,NA,NA,NA,NA,NA,NA,NA,NA,NA,NA,NA,NA,NA,NA,NA
audio-instructions,9,82335,0.0-5.0-4.0,voc_e2,12349,"[{""event"":""fullscreenenter"",""trial"":1,""time"":8120}]",NA,3806.29999999702,static/audio/instructions5.wav,NA,0,NA,NA,NA,NA,NA,NA,NA,NA,NA,NA,NA,NA,NA,NA,NA,NA,NA,NA,NA,NA,NA,NA,NA,NA,NA
fcp-practice,10,85773,0.0-5.0-5.0-0.0,voc_e2,12349,"[{""event"":""fullscreenenter"",""trial"":1,""time"":8120}]",NA,NA,NA,NA,NA,NA,#EDC948,#46d3c8,10,0,1,null,null,null,37,1,1924.29999999702,10,1,practice,NA,NA,NA,NA,NA,NA,NA,NA,NA,NA
fcp-practice,11,87734,0.0-5.0-5.0-1.0,voc_e2,12349,"[{""event"":""fullscreenenter"",""trial"":1,""time"":8120}]",NA,NA,NA,NA,NA,NA,#EDC948,#46d3c8,10,0,1,null,null,null,37,1,456.5,10,1,practice,NA,NA,NA,NA,NA,NA,NA,NA,NA,NA
fcp-practice,12,89865,0.0-5.0-5.0-2.0,voc_e2,12349,"[{""event"":""fullscreenenter"",""trial"":1,""time"":8120}]",NA,NA,NA,NA,NA,NA,#EDC948,#46d3c8,0,10,1,null,null,null,37,1,623.0999999940395,0,1,practice,NA,NA,NA,NA,NA,NA,NA,NA,NA,NA
fcp-practice,13,91725,0.0-5.0-5.0-3.0,voc_e2,12349,"[{""event"":""fullscreenenter"",""trial"":1,""time"":8120}]",NA,NA,NA,NA,NA,NA,#EDC948,#46d3c8,10,0,1,null,null,null,37,1,351.09999999403954,10,1,practice,NA,NA,NA,NA,NA,NA,NA,NA,NA,NA
fcp-practice,14,93588,0.0-5.0-5.0-4.0,voc_e2,12349,"[{""event"":""fullscreenenter"",""trial"":1,""time"":8120}]",NA,NA,NA,NA,NA,NA,#EDC948,#46d3c8,10,0,1,null,null,null,37,1,357.1000000089407,10,1,practice,NA,NA,NA,NA,NA,NA,NA,NA,NA,NA
audio-instructions,15,113949,0.0-5.0-6.0,voc_e2,12349,"[{""event"":""fullscreenenter"",""trial"":1,""time"":8120}]",NA,2354.20000000298,static/audio/instructions6.wav,NA,0,NA,NA,NA,NA,NA,NA,NA,NA,NA,NA,NA,NA,NA,NA,NA,NA,NA,NA,NA,NA,NA,NA,NA,NA,NA
audio-instructions,16,134811,0.0-5.0-7.0,voc_e2,12349,"[{""event"":""fullscreenenter"",""trial"":1,""time"":8120}]",NA,1665.7000000029802,static/audio/instructions7.wav,NA,0,NA,NA,NA,NA,NA,NA,NA,NA,NA,NA,NA,NA,NA,NA,NA,NA,NA,NA,NA,NA,NA,NA,NA,NA,NA
audio-instructions,17,146939,0.0-5.0-8.0,voc_e2,12349,"[{""event"":""fullscreenenter"",""trial"":1,""time"":8120}]",NA,2658.5,static/audio/instructions8.wav,NA,0,NA,NA,NA,NA,NA,NA,NA,NA,NA,NA,NA,NA,NA,NA,NA,NA,NA,NA,NA,NA,NA,NA,NA,NA,NA
fcp-comprehension,18,158666,0.0-5.0-9.0,voc_e2,12349,"[{""event"":""fullscreenenter"",""trial"":1,""time"":8120}]",NA,11725.29999999702,NA,NA,NA,NA,NA,NA,NA,NA,NA,NA,NA,NA,NA,NA,NA,NA,NA,NA,"true,true",0,NA,NA,NA,NA,NA,NA,NA,NA
audio-instructions,19,166745,0.0-6.0-0.0,voc_e2,12349,"[{""event"":""fullscreenenter"",""trial"":1,""time"":8120}]",NA,2528.20000000298,static/audio/instructions9.wav,NA,0,NA,NA,NA,NA,NA,NA,NA,NA,NA,NA,NA,NA,NA,NA,NA,NA,NA,NA,NA,NA,NA,NA,NA,NA,NA
audio-instructions,20,180790,0.0-6.0-1.0,voc_e2,12349,"[{""event"":""fullscreenenter"",""trial"":1,""time"":8120}]",NA,1929,static/audio/instructions10.wav,NA,0,NA,NA,NA,NA,NA,NA,NA,NA,NA,NA,NA,NA,NA,NA,NA,NA,NA,NA,NA,NA,NA,NA,NA,NA,NA
fcp-trial,21,191135,0.0-6.0-2.0,voc_e2,12349,"[{""event"":""fullscreenenter"",""trial"":1,""time"":8120}]",NA,NA,NA,NA,NA,0,#EDC948,#46d3c8,10,10,1,38,1,5049.79999999702,37,1,3780,10,1,practice,NA,NA,NA,NA,NA,NA,NA,NA,NA,NA
audio-instructions,22,204391,0.0-6.0-3.0,voc_e2,12349,"[{""event"":""fullscreenenter"",""trial"":1,""time"":8120}]",NA,2250.9000000059605,static/audio/instructions11.wav,NA,0,NA,NA,NA,NA,NA,NA,NA,NA,NA,NA,NA,NA,NA,NA,NA,NA,NA,NA,NA,NA,NA,NA,NA,NA,NA
fcp-trial,23,217904,0.0-6.0-4.0,voc_e2,12349,"[{""event"":""fullscreenenter"",""trial"":1,""time"":8120}]",NA,NA,NA,NA,NA,6,#EDC948,#46d3c8,10,10,1,40,0,9976.59999999404,39,0,2028.1000000089407,10,0,practice,NA,NA,NA,NA,NA,NA,NA,NA,NA,NA
audio-instructions,24,237575,0.0-6.0-5.0,voc_e2,12349,"[{""event"":""fullscreenenter"",""trial"":1,""time"":8120}]",NA,982.5,static/audio/instructions12.wav,NA,0,NA,NA,NA,NA,NA,NA,NA,NA,NA,NA,NA,NA,NA,NA,NA,NA,NA,NA,NA,NA,NA,NA,NA,NA,NA
audio-instructions,25,246872,0.0-6.0-6.0,voc_e2,12349,"[{""event"":""fullscreenenter"",""trial"":1,""time"":8120}]",NA,1703.2999999970198,static/audio/instructions13.wav,NA,0,NA,NA,NA,NA,NA,NA,NA,NA,NA,NA,NA,NA,NA,NA,NA,NA,NA,NA,NA,NA,NA,NA,NA,NA,NA
audio-instructions,26,258357,0.0-6.0-7.0,voc_e2,12349,"[{""event"":""fullscreenenter"",""trial"":1,""time"":8120}]",NA,3040.5,static/audio/instructions14.wav,NA,0,NA,NA,NA,NA,NA,NA,NA,NA,NA,NA,NA,NA,NA,NA,NA,NA,NA,NA,NA,NA,NA,NA,NA,NA,NA
audio-instructions,27,266866,0.0-7.0-0.0,voc_e2,12349,"[{""event"":""fullscreenenter"",""trial"":1,""time"":8120}]",NA,1596.5,static/audio/instructions15.wav,NA,0,NA,NA,NA,NA,NA,NA,NA,NA,NA,NA,NA,NA,NA,NA,NA,NA,NA,NA,NA,NA,NA,NA,NA,NA,NA
audio-instructions,28,276088,0.0-7.0-1.0,voc_e2,12349,"[{""event"":""fullscreenenter"",""trial"":1,""time"":8120}]",NA,2397.70000000298,static/audio/instructions16.wav,NA,0,NA,NA,NA,NA,NA,NA,NA,NA,NA,NA,NA,NA,NA,NA,NA,NA,NA,NA,NA,NA,NA,NA,NA,NA,NA
audio-instructions,29,285241,0.0-7.0-2.0,voc_e2,12349,"[{""event"":""fullscreenenter"",""trial"":1,""time"":8120}]",NA,1471.4000000059605,static/audio/instructions17.wav,NA,0,NA,NA,NA,NA,NA,NA,NA,NA,NA,NA,NA,NA,NA,NA,NA,NA,NA,NA,NA,NA,NA,NA,NA,NA,NA
audio-instructions,30,307709,0.0-7.0-3.0,voc_e2,12349,"[{""event"":""fullscreenenter"",""trial"":1,""time"":8120}]",NA,14702.60000000894,static/audio/instructions18.wav,NA,0,NA,NA,NA,NA,NA,NA,NA,NA,NA,NA,NA,NA,NA,NA,NA,NA,NA,NA,NA,NA,NA,NA,NA,NA,NA
audio-instructions,31,316095,0.0-7.0-4.0,voc_e2,12349,"[{""event"":""fullscreenenter"",""trial"":1,""time"":8120}]",NA,1643.4000000059605,static/audio/instructions19.wav,NA,0,NA,NA,NA,NA,NA,NA,NA,NA,NA,NA,NA,NA,NA,NA,NA,NA,NA,NA,NA,NA,NA,NA,NA,NA,NA
fcp-comprehension,32,351768,0.0-7.0-5.0,voc_e2,12349,"[{""event"":""fullscreenenter"",""trial"":1,""time"":8120}]",NA,35671.70000000298,NA,NA,NA,NA,NA,NA,NA,NA,NA,NA,NA,NA,NA,NA,NA,NA,NA,NA,"true,false,true,true",2,NA,NA,NA,NA,NA,NA,NA,NA
audio-instructions,33,361955,0.0-7.1-0.1,voc_e2,12349,"[{""event"":""fullscreenenter"",""trial"":1,""time"":8120}]",NA,3211.9000000059605,static/audio/instructions15.wav,NA,0,NA,NA,NA,NA,NA,NA,NA,NA,NA,NA,NA,NA,NA,NA,NA,NA,NA,NA,NA,NA,NA,NA,NA,NA,NA
audio-instructions,34,370840,0.0-7.1-1.1,voc_e2,12349,"[{""event"":""fullscreenenter"",""trial"":1,""time"":8120}]",NA,2060.29999999702,static/audio/instructions16.wav,NA,0,NA,NA,NA,NA,NA,NA,NA,NA,NA,NA,NA,NA,NA,NA,NA,NA,NA,NA,NA,NA,NA,NA,NA,NA,NA
audio-instructions,35,380611,0.0-7.1-2.1,voc_e2,12349,"[{""event"":""fullscreenenter"",""trial"":1,""time"":8120}]",NA,2093.199999988079,static/audio/instructions17.wav,NA,0,NA,NA,NA,NA,NA,NA,NA,NA,NA,NA,NA,NA,NA,NA,NA,NA,NA,NA,NA,NA,NA,NA,NA,NA,NA
audio-instructions,36,390415,0.0-7.1-3.1,voc_e2,12349,"[{""event"":""fullscreenenter"",""trial"":1,""time"":8120}]",NA,2041.20000000298,static/audio/instructions18.wav,NA,0,NA,NA,NA,NA,NA,NA,NA,NA,NA,NA,NA,NA,NA,NA,NA,NA,NA,NA,NA,NA,NA,NA,NA,NA,NA
audio-instructions,37,398673,0.0-7.1-4.1,voc_e2,12349,"[{""event"":""fullscreenenter"",""trial"":1,""time"":8120}]",NA,1516.300000011921,static/audio/instructions19.wav,NA,0,NA,NA,NA,NA,NA,NA,NA,NA,NA,NA,NA,NA,NA,NA,NA,NA,NA,NA,NA,NA,NA,NA,NA,NA,NA
fcp-comprehension,38,419335,0.0-7.1-5.1,voc_e2,12349,"[{""event"":""fullscreenenter"",""trial"":1,""time"":8120}]",NA,20659.79999999702,NA,NA,NA,NA,NA,NA,NA,NA,NA,NA,NA,NA,NA,NA,NA,NA,NA,NA,"true,true,true,false",4,NA,NA,NA,NA,NA,NA,NA,NA
audio-instructions,39,428411,0.0-7.2-0.2,voc_e2,12349,"[{""event"":""fullscreenenter"",""trial"":1,""time"":8120}]",NA,2161.5,static/audio/instructions15.wav,NA,0,NA,NA,NA,NA,NA,NA,NA,NA,NA,NA,NA,NA,NA,NA,NA,NA,NA,NA,NA,NA,NA,NA,NA,NA,NA
audio-instructions,40,437091,0.0-7.2-1.2,voc_e2,12349,"[{""event"":""fullscreenenter"",""trial"":1,""time"":8120}]",NA,1854.6000000089407,static/audio/instructions16.wav,NA,0,NA,NA,NA,NA,NA,NA,NA,NA,NA,NA,NA,NA,NA,NA,NA,NA,NA,NA,NA,NA,NA,NA,NA,NA,NA
audio-instructions,41,446649,0.0-7.2-2.2,voc_e2,12349,"[{""event"":""fullscreenenter"",""trial"":1,""time"":8120}]",NA,1876.79999999702,static/audio/instructions17.wav,NA,0,NA,NA,NA,NA,NA,NA,NA,NA,NA,NA,NA,NA,NA,NA,NA,NA,NA,NA,NA,NA,NA,NA,NA,NA,NA
audio-instructions,42,455573,0.0-7.2-3.2,voc_e2,12349,"[{""event"":""fullscreenenter"",""trial"":1,""time"":8120}]",NA,1159,static/audio/instructions18.wav,NA,0,NA,NA,NA,NA,NA,NA,NA,NA,NA,NA,NA,NA,NA,NA,NA,NA,NA,NA,NA,NA,NA,NA,NA,NA,NA
audio-instructions,43,463993,0.0-7.2-4.2,voc_e2,12349,"[{""event"":""fullscreenenter"",""trial"":1,""time"":8120}]",NA,1681.2999999970198,static/audio/instructions19.wav,NA,0,NA,NA,NA,NA,NA,NA,NA,NA,NA,NA,NA,NA,NA,NA,NA,NA,NA,NA,NA,NA,NA,NA,NA,NA,NA
fcp-comprehension,44,499149,0.0-7.2-5.2,voc_e2,12349,"[{""event"":""fullscreenenter"",""trial"":1,""time"":8120}]",NA,35153.5,NA,NA,NA,NA,NA,NA,NA,NA,NA,NA,NA,NA,NA,NA,NA,NA,NA,NA,"false,false,false,false",1,NA,NA,NA,NA,NA,NA,NA,NA
audio-instructions,45,512954,0.0-7.3-0.3,voc_e2,12349,"[{""event"":""fullscreenenter"",""trial"":1,""time"":8120}]",NA,6839.5,static/audio/instructions15.wav,NA,0,NA,NA,NA,NA,NA,NA,NA,NA,NA,NA,NA,NA,NA,NA,NA,NA,NA,NA,NA,NA,NA,NA,NA,NA,NA
audio-instructions,46,524792,0.0-7.3-1.3,voc_e2,12349,"[{""event"":""fullscreenenter"",""trial"":1,""time"":8120}]",NA,5013.600000008941,static/audio/instructions16.wav,NA,0,NA,NA,NA,NA,NA,NA,NA,NA,NA,NA,NA,NA,NA,NA,NA,NA,NA,NA,NA,NA,NA,NA,NA,NA,NA
audio-instructions,47,536348,0.0-7.3-2.3,voc_e2,12349,"[{""event"":""fullscreenenter"",""trial"":1,""time"":8120}]",NA,3876.5,static/audio/instructions17.wav,NA,0,NA,NA,NA,NA,NA,NA,NA,NA,NA,NA,NA,NA,NA,NA,NA,NA,NA,NA,NA,NA,NA,NA,NA,NA,NA
audio-instructions,48,546748,0.0-7.3-3.3,voc_e2,12349,"[{""event"":""fullscreenenter"",""trial"":1,""time"":8120}]",NA,2635.0999999940395,static/audio/instructions18.wav,NA,0,NA,NA,NA,NA,NA,NA,NA,NA,NA,NA,NA,NA,NA,NA,NA,NA,NA,NA,NA,NA,NA,NA,NA,NA,NA
audio-instructions,49,555147,0.0-7.3-4.3,voc_e2,12349,"[{""event"":""fullscreenenter"",""trial"":1,""time"":8120}]",NA,1658.1000000089407,static/audio/instructions19.wav,NA,0,NA,NA,NA,NA,NA,NA,NA,NA,NA,NA,NA,NA,NA,NA,NA,NA,NA,NA,NA,NA,NA,NA,NA,NA,NA
fcp-comprehension,50,560200,0.0-7.3-5.3,voc_e2,12349,"[{""event"":""fullscreenenter"",""trial"":1,""time"":8120}]",NA,5050.5999999940395,NA,NA,NA,NA,NA,NA,NA,NA,NA,NA,NA,NA,NA,NA,NA,NA,NA,NA,"true,true,true,true",3,NA,NA,NA,NA,NA,NA,NA,NA
audio-instructions,51,573207,0.0-7.4-0.4,voc_e2,12349,"[{""event"":""fullscreenenter"",""trial"":1,""time"":8120}]",NA,6092.5,static/audio/instructions15.wav,NA,0,NA,NA,NA,NA,NA,NA,NA,NA,NA,NA,NA,NA,NA,NA,NA,NA,NA,NA,NA,NA,NA,NA,NA,NA,NA
audio-instructions,52,581553,0.0-7.4-1.4,voc_e2,12349,"[{""event"":""fullscreenenter"",""trial"":1,""time"":8120}]",NA,1521.2999999970198,static/audio/instructions16.wav,NA,0,NA,NA,NA,NA,NA,NA,NA,NA,NA,NA,NA,NA,NA,NA,NA,NA,NA,NA,NA,NA,NA,NA,NA,NA,NA
audio-instructions,53,589671,0.0-7.4-2.4,voc_e2,12349,"[{""event"":""fullscreenenter"",""trial"":1,""time"":8120}]",NA,439.40000000596046,static/audio/instructions17.wav,NA,0,NA,NA,NA,NA,NA,NA,NA,NA,NA,NA,NA,NA,NA,NA,NA,NA,NA,NA,NA,NA,NA,NA,NA,NA,NA
audio-instructions,54,598474,0.0-7.4-3.4,voc_e2,12349,"[{""event"":""fullscreenenter"",""trial"":1,""time"":8120}]",NA,1039.5999999940395,static/audio/instructions18.wav,NA,0,NA,NA,NA,NA,NA,NA,NA,NA,NA,NA,NA,NA,NA,NA,NA,NA,NA,NA,NA,NA,NA,NA,NA,NA,NA
audio-instructions,55,605773,0.0-7.4-4.4,voc_e2,12349,"[{""event"":""fullscreenenter"",""trial"":1,""time"":8120}]",NA,557,static/audio/instructions19.wav,NA,0,NA,NA,NA,NA,NA,NA,NA,NA,NA,NA,NA,NA,NA,NA,NA,NA,NA,NA,NA,NA,NA,NA,NA,NA,NA
fcp-comprehension,56,627289,0.0-7.4-5.4,voc_e2,12349,"[{""event"":""fullscreenenter"",""trial"":1,""time"":8120}]",NA,21514.79999999702,NA,NA,NA,NA,NA,NA,NA,NA,NA,NA,NA,NA,NA,NA,NA,NA,NA,NA,"false,false,false,false",1,NA,NA,NA,NA,NA,NA,NA,NA
audio-instructions,57,636463,0.0-7.5-0.5,voc_e2,12349,"[{""event"":""fullscreenenter"",""trial"":1,""time"":8120}]",NA,2261.29999999702,static/audio/instructions15.wav,NA,0,NA,NA,NA,NA,NA,NA,NA,NA,NA,NA,NA,NA,NA,NA,NA,NA,NA,NA,NA,NA,NA,NA,NA,NA,NA
audio-instructions,58,644476,0.0-7.5-1.5,voc_e2,12349,"[{""event"":""fullscreenenter"",""trial"":1,""time"":8120}]",NA,1187.2999999970198,static/audio/instructions16.wav,NA,0,NA,NA,NA,NA,NA,NA,NA,NA,NA,NA,NA,NA,NA,NA,NA,NA,NA,NA,NA,NA,NA,NA,NA,NA,NA
audio-instructions,59,653621,0.0-7.5-2.5,voc_e2,12349,"[{""event"":""fullscreenenter"",""trial"":1,""time"":8120}]",NA,1462.9000000059605,static/audio/instructions17.wav,NA,0,NA,NA,NA,NA,NA,NA,NA,NA,NA,NA,NA,NA,NA,NA,NA,NA,NA,NA,NA,NA,NA,NA,NA,NA,NA
audio-instructions,60,662345,0.0-7.5-3.5,voc_e2,12349,"[{""event"":""fullscreenenter"",""trial"":1,""time"":8120}]",NA,960.7999999970198,static/audio/instructions18.wav,NA,0,NA,NA,NA,NA,NA,NA,NA,NA,NA,NA,NA,NA,NA,NA,NA,NA,NA,NA,NA,NA,NA,NA,NA,NA,NA
audio-instructions,61,670546,0.0-7.5-4.5,voc_e2,12349,"[{""event"":""fullscreenenter"",""trial"":1,""time"":8120}]",NA,1460.2000000029802,static/audio/instructions19.wav,NA,0,NA,NA,NA,NA,NA,NA,NA,NA,NA,NA,NA,NA,NA,NA,NA,NA,NA,NA,NA,NA,NA,NA,NA,NA,NA
fcp-comprehension,62,685515,0.0-7.5-5.5,voc_e2,12349,"[{""event"":""fullscreenenter"",""trial"":1,""time"":8120}]",NA,14967,NA,NA,NA,NA,NA,NA,NA,NA,NA,NA,NA,NA,NA,NA,NA,NA,NA,NA,"false,false,false,true",0,NA,NA,NA,NA,NA,NA,NA,NA
audio-instructions,63,697628,0.0-8.0,voc_e2,12349,"[{""event"":""fullscreenenter"",""trial"":1,""time"":8120}]",NA,2895,static/audio/ready.wav,NA,0,NA,NA,NA,NA,NA,NA,NA,NA,NA,NA,NA,NA,NA,NA,NA,NA,NA,NA,NA,NA,NA,NA,NA,NA,NA
fcp-trial,64,704686,0.0-9.0-0.0,voc_e2,12349,"[{""event"":""fullscreenenter"",""trial"":1,""time"":8120}]",NA,NA,NA,NA,NA,3,#D8271C,#741CD8,0,0,0,38,1,3648.9000000059605,37,1,1897.70000000298,0,0,experiment,NA,NA,1,0.3,0.7,3,2,1,1,NA
fcp-trial,65,716171,0.0-10.0-0.0,voc_e2,12349,"[{""event"":""fullscreenenter"",""trial"":1,""time"":8120}]",NA,NA,NA,NA,NA,4,#741CD8,#D8271C,10,0,1,38,1,8829.10000000894,39,0,1144.1000000089407,0,0,experiment,NA,NA,1,0.7,0.3,2,3,2,1,NA
fcp-trial,66,720055,0.0-11.0-0.0,voc_e2,12349,"[{""event"":""fullscreenenter"",""trial"":1,""time"":8120}]",NA,NA,NA,NA,NA,1,#3386FF,#D89F1C,0,10,0,38,1,1930.3999999910593,37,1,443,0,0,experiment,NA,NA,0,0.1,0.9,1,0,3,1,NA
fcp-trial,67,728377,0.0-12.0-0.0,voc_e2,12349,"[{""event"":""fullscreenenter"",""trial"":1,""time"":8120}]",NA,NA,NA,NA,NA,2,#1CD855,#FA92F8,0,10,0,38,1,2703.800000011921,39,0,4104.9000000059605,10,1,experiment,NA,NA,2,0.5,0.5,5,4,4,1,NA
fcp-trial,68,735816,0.0-13.0-0.0,voc_e2,12349,"[{""event"":""fullscreenenter"",""trial"":1,""time"":8120}]",NA,NA,NA,NA,NA,5,#3386FF,#D89F1C,0,10,0,38,1,3258.800000011921,39,0,2669.5,10,1,experiment,NA,NA,0,0.1,0.9,1,0,5,1,NA
fcp-trial,69,744448,0.0-14.0-0.0,voc_e2,12349,"[{""event"":""fullscreenenter"",""trial"":1,""time"":8120}]",NA,NA,NA,NA,NA,6,#741CD8,#D8271C,10,10,1,38,1,3526.2999999970198,39,0,3597.6000000089407,10,0,experiment,NA,NA,1,0.7,0.3,2,3,6,1,NA
fcp-trial,70,753454,0.0-15.0-0.0,voc_e2,12349,"[{""event"":""fullscreenenter"",""trial"":1,""time"":8120}]",NA,NA,NA,NA,NA,0,#FA92F8,#1CD855,0,0,1,38,1,2900.9000000059605,37,1,4595.79999999702,0,1,experiment,NA,NA,2,0.5,0.5,4,5,7,1,NA
fcp-trial,71,761272,0.0-16.0-0.0,voc_e2,12349,"[{""event"":""fullscreenenter"",""trial"":1,""time"":8120}]",NA,NA,NA,NA,NA,4,#1CD855,#FA92F8,0,0,0,38,1,3844.2999999970198,39,0,2466.300000011921,0,1,experiment,NA,NA,2,0.5,0.5,5,4,8,1,NA
fcp-trial,72,767041,0.0-17.0-0.0,voc_e2,12349,"[{""event"":""fullscreenenter"",""trial"":1,""time"":8120}]",NA,NA,NA,NA,NA,2,#D89F1C,#3386FF,10,0,1,38,1,2252.6000000089407,39,0,2005.70000000298,0,0,experiment,NA,NA,0,0.9,0.1,0,1,9,1,NA
fcp-trial,73,771715,0.0-18.0-0.0,voc_e2,12349,"[{""event"":""fullscreenenter"",""trial"":1,""time"":8120}]",NA,NA,NA,NA,NA,2,#D8271C,#741CD8,0,10,0,38,1,1979.5999999940395,37,1,1184,0,0,experiment,NA,NA,1,0.3,0.7,3,2,10,1,NA
fcp-trial,74,777900,0.0-19.0-0.0,voc_e2,12349,"[{""event"":""fullscreenenter"",""trial"":1,""time"":8120}]",NA,NA,NA,NA,NA,6,#FA92F8,#1CD855,10,0,1,38,1,2195.300000011921,39,0,2479.0999999940395,0,0,experiment,NA,NA,2,0.5,0.5,4,5,11,1,NA
fcp-trial,75,781543,0.0-20.0-0.0,voc_e2,12349,"[{""event"":""fullscreenenter"",""trial"":1,""time"":8120}]",NA,NA,NA,NA,NA,0,#D89F1C,#3386FF,10,0,1,38,1,1102.199999988079,37,1,1031.4000000059605,10,1,experiment,NA,NA,0,0.9,0.1,0,1,12,1,NA
fcp-trial,76,784994,0.0-21.0-0.0,voc_e2,12349,"[{""event"":""fullscreenenter"",""trial"":1,""time"":8120}]",NA,NA,NA,NA,NA,3,#FA92F8,#1CD855,0,10,1,38,1,1163,39,0,777.5,10,0,experiment,NA,NA,2,0.5,0.5,4,5,13,1,NA
fcp-trial,77,790170,0.0-22.0-0.0,voc_e2,12349,"[{""event"":""fullscreenenter"",""trial"":1,""time"":8120}]",NA,NA,NA,NA,NA,0,#741CD8,#D8271C,10,0,1,38,1,1949.2999999970198,39,0,1716.2999999970198,0,0,experiment,NA,NA,1,0.7,0.3,2,3,14,1,NA
fcp-trial,78,793197,0.0-23.0-0.0,voc_e2,12349,"[{""event"":""fullscreenenter"",""trial"":1,""time"":8120}]",NA,NA,NA,NA,NA,6,#3386FF,#D89F1C,10,10,0,38,1,861.7999999970198,37,1,655.2000000029802,10,0,experiment,NA,NA,0,0.1,0.9,1,0,15,1,NA
fcp-trial,79,798736,0.0-24.0-0.0,voc_e2,12349,"[{""event"":""fullscreenenter"",""trial"":1,""time"":8120}]",NA,NA,NA,NA,NA,5,#D8271C,#741CD8,0,10,0,38,1,2645.7000000029802,39,0,1383.1000000089407,10,1,experiment,NA,NA,1,0.3,0.7,3,2,16,1,NA
fcp-trial,80,802645,0.0-25.0-0.0,voc_e2,12349,"[{""event"":""fullscreenenter"",""trial"":1,""time"":8120}]",NA,NA,NA,NA,NA,5,#1CD855,#FA92F8,0,10,0,38,1,1051.7999999970198,39,0,1346.3999999910593,10,1,experiment,NA,NA,2,0.5,0.5,5,4,17,1,NA
fcp-trial,81,806453,0.0-26.0-0.0,voc_e2,12349,"[{""event"":""fullscreenenter"",""trial"":1,""time"":8120}]",NA,NA,NA,NA,NA,4,#D89F1C,#3386FF,10,0,1,38,1,1596.7000000029802,37,1,701.7999999970198,10,1,experiment,NA,NA,0,0.9,0.1,0,1,18,1,NA
fcp-trial,82,809629,0.0-27.0-0.0,voc_e2,12349,"[{""event"":""fullscreenenter"",""trial"":1,""time"":8120}]",NA,NA,NA,NA,NA,1,#D8271C,#741CD8,0,10,0,38,1,848.7999999970198,39,0,816.2000000029802,10,1,experiment,NA,NA,1,0.3,0.7,3,2,19,1,NA
fcp-trial,83,812673,0.0-28.0-0.0,voc_e2,12349,"[{""event"":""fullscreenenter"",""trial"":1,""time"":8120}]",NA,NA,NA,NA,NA,3,#D89F1C,#3386FF,10,0,1,38,1,970.2000000029802,37,1,565.4000000059605,10,1,experiment,NA,NA,0,0.9,0.1,0,1,20,1,NA
fcp-trial,84,815996,0.0-29.0-0.0,voc_e2,12349,"[{""event"":""fullscreenenter"",""trial"":1,""time"":8120}]",NA,NA,NA,NA,NA,1,#1CD855,#FA92F8,10,10,0,38,1,1111.1000000089407,39,0,703.7999999970198,10,1,experiment,NA,NA,2,0.5,0.5,5,4,21,1,NA
fcp-trial,85,819040,0.0-30.0-0.0,voc_e2,12349,"[{""event"":""fullscreenenter"",""trial"":1,""time"":8120}]",NA,NA,NA,NA,NA,4,#FA92F8,#1CD855,10,10,1,38,1,730.7000000029802,39,0,802.2000000029802,10,0,experiment,NA,NA,2,0.5,0.5,4,5,22,1,NA
fcp-trial,86,822807,0.0-31.0-0.0,voc_e2,12349,"[{""event"":""fullscreenenter"",""trial"":1,""time"":8120}]",NA,NA,NA,NA,NA,2,#D89F1C,#3386FF,0,0,1,38,1,871.7999999970198,39,0,1389.0999999940395,0,0,experiment,NA,NA,0,0.9,0.1,0,1,23,1,NA
fcp-trial,87,826015,0.0-32.0-0.0,voc_e2,12349,"[{""event"":""fullscreenenter"",""trial"":1,""time"":8120}]",NA,NA,NA,NA,NA,4,#D8271C,#741CD8,10,10,0,38,1,1015.5,37,1,684.5999999940395,10,0,experiment,NA,NA,1,0.3,0.7,3,2,24,1,NA
fcp-trial,88,829405,0.0-33.0-0.0,voc_e2,12349,"[{""event"":""fullscreenenter"",""trial"":1,""time"":8120}]",NA,NA,NA,NA,NA,0,#D8271C,#741CD8,0,10,0,38,1,1167.4000000059605,39,0,713.9000000059605,10,1,experiment,NA,NA,1,0.3,0.7,3,2,25,1,NA
fcp-trial,89,832826,0.0-34.0-0.0,voc_e2,12349,"[{""event"":""fullscreenenter"",""trial"":1,""time"":8120}]",NA,NA,NA,NA,NA,0,#FA92F8,#1CD855,10,10,1,38,1,904.8999999910593,39,0,1007.5,10,0,experiment,NA,NA,2,0.5,0.5,4,5,26,1,NA
fcp-trial,90,836853,0.0-35.0-0.0,voc_e2,12349,"[{""event"":""fullscreenenter"",""trial"":1,""time"":8120}]",NA,NA,NA,NA,NA,6,#D89F1C,#3386FF,10,10,1,38,1,926.2000000029802,37,1,1590.5,10,1,experiment,NA,NA,0,0.9,0.1,0,1,27,1,NA
fcp-trial,91,843102,0.0-36.0-0.0,voc_e2,12349,"[{""event"":""fullscreenenter"",""trial"":1,""time"":8120}]",NA,NA,NA,NA,NA,1,#D89F1C,#3386FF,10,0,1,38,1,3485.1000000089407,39,0,1252,0,0,experiment,NA,NA,0,0.9,0.1,0,1,28,1,NA
fcp-trial,92,852547,0.0-37.0-0.0,voc_e2,12349,"[{""event"":""fullscreenenter"",""trial"":1,""time"":8120}]",NA,NA,NA,NA,NA,6,#741CD8,#D8271C,10,10,1,38,1,4972.70000000298,39,0,2959.70000000298,10,0,experiment,NA,NA,1,0.7,0.3,2,3,29,1,NA
fcp-trial,93,857715,0.0-38.0-0.0,voc_e2,12349,"[{""event"":""fullscreenenter"",""trial"":1,""time"":8120}]",NA,NA,NA,NA,NA,5,#1CD855,#FA92F8,0,0,0,38,1,933.7000000029802,39,0,2724.6000000089407,0,1,experiment,NA,NA,2,0.5,0.5,5,4,30,1,NA
fcp-trial,94,862671,0.0-39.0-0.0,voc_e2,12349,"[{""event"":""fullscreenenter"",""trial"":1,""time"":8120}]",NA,NA,NA,NA,NA,3,#D89F1C,#3386FF,10,0,1,38,1,1079.199999988079,37,1,2366,10,1,experiment,NA,NA,0,0.9,0.1,0,1,31,1,NA
fcp-trial,95,867818,0.0-40.0-0.0,voc_e2,12349,"[{""event"":""fullscreenenter"",""trial"":1,""time"":8120}]",NA,NA,NA,NA,NA,5,#D89F1C,#3386FF,10,0,1,38,1,878.0999999940395,39,0,2758.5,0,0,experiment,NA,NA,0,0.9,0.1,0,1,32,1,NA
fcp-trial,96,872576,0.0-41.0-0.0,voc_e2,12349,"[{""event"":""fullscreenenter"",""trial"":1,""time"":8120}]",NA,NA,NA,NA,NA,2,#741CD8,#D8271C,10,0,1,38,1,990.2999999970198,39,0,2256.29999999702,0,0,experiment,NA,NA,1,0.7,0.3,2,3,33,1,NA
fcp-trial,97,876443,0.0-42.0-0.0,voc_e2,12349,"[{""event"":""fullscreenenter"",""trial"":1,""time"":8120}]",NA,NA,NA,NA,NA,1,#1CD855,#FA92F8,0,0,0,38,1,964.6999999880791,39,0,1392.7000000029802,0,1,experiment,NA,NA,2,0.5,0.5,5,4,34,1,NA
fcp-trial,98,881424,0.0-43.0-0.0,voc_e2,12349,"[{""event"":""fullscreenenter"",""trial"":1,""time"":8120}]",NA,NA,NA,NA,NA,2,#FA92F8,#1CD855,10,10,1,38,1,1508.4000000059605,39,0,1962.699999988079,10,0,experiment,NA,NA,2,0.5,0.5,4,5,35,1,NA
fcp-trial,99,887697,0.0-44.0-0.0,voc_e2,12349,"[{""event"":""fullscreenenter"",""trial"":1,""time"":8120}]",NA,NA,NA,NA,NA,3,#741CD8,#D8271C,10,0,1,38,1,1795.5,39,0,2967.3999999910593,0,0,experiment,NA,NA,1,0.7,0.3,2,3,36,1,NA
fcp-trial,100,893050,0.0-45.0-0.0,voc_e2,12349,"[{""event"":""fullscreenenter"",""trial"":1,""time"":8120}]",NA,NA,NA,NA,NA,4,#D89F1C,#3386FF,10,0,1,38,1,1248.5999999940395,37,1,2596.5,10,1,experiment,NA,NA,0,0.9,0.1,0,1,37,1,NA
fcp-trial,101,898583,0.0-46.0-0.0,voc_e2,12349,"[{""event"":""fullscreenenter"",""trial"":1,""time"":8120}]",NA,NA,NA,NA,NA,3,#1CD855,#FA92F8,10,10,0,38,1,1375.1000000089407,39,0,2645.20000000298,10,1,experiment,NA,NA,2,0.5,0.5,5,4,38,1,NA
fcp-trial,102,903018,0.0-47.0-0.0,voc_e2,12349,"[{""event"":""fullscreenenter"",""trial"":1,""time"":8120}]",NA,NA,NA,NA,NA,1,#741CD8,#D8271C,10,0,1,38,1,1023,37,1,1901.70000000298,10,1,experiment,NA,NA,1,0.7,0.3,2,3,39,1,NA
fcp-trial,103,907900,0.0-48.0-0.0,voc_e2,12349,"[{""event"":""fullscreenenter"",""trial"":1,""time"":8120}]",NA,NA,NA,NA,NA,0,#D89F1C,#3386FF,10,0,1,38,1,1184.6000000089407,39,0,2187.5,0,0,experiment,NA,NA,0,0.9,0.1,0,1,40,1,NA
fcp-trial,104,913270,0.0-49.0-0.0,voc_e2,12349,"[{""event"":""fullscreenenter"",""trial"":1,""time"":8120}]",NA,NA,NA,NA,NA,6,#1CD855,#FA92F8,0,10,0,38,1,1202.5999999940395,39,0,2660,10,1,experiment,NA,NA,2,0.5,0.5,5,4,41,1,NA
fcp-trial,105,918228,0.0-50.0-0.0,voc_e2,12349,"[{""event"":""fullscreenenter"",""trial"":1,""time"":8120}]",NA,NA,NA,NA,NA,5,#741CD8,#D8271C,10,0,1,38,1,853.8999999910593,37,1,2597.5,10,1,experiment,NA,NA,1,0.7,0.3,2,3,42,1,NA
fcp-trial,106,923935,0.0-51.0-0.0,voc_e2,12349,"[{""event"":""fullscreenenter"",""trial"":1,""time"":8120}]",NA,NA,NA,NA,NA,6,#1CD855,#FA92F8,0,0,0,38,1,1134.0999999940395,39,0,3061.4000000059605,0,1,experiment,NA,NA,2,0.5,0.5,5,4,43,1,NA
fcp-trial,107,929041,0.0-52.0-0.0,voc_e2,12349,"[{""event"":""fullscreenenter"",""trial"":1,""time"":8120}]",NA,NA,NA,NA,NA,2,#D8271C,#741CD8,10,10,0,38,1,1018,39,0,2574.4000000059605,10,1,experiment,NA,NA,1,0.3,0.7,3,2,44,1,NA
fcp-trial,108,934689,0.0-53.0-0.0,voc_e2,12349,"[{""event"":""fullscreenenter"",""trial"":1,""time"":8120}]",NA,NA,NA,NA,NA,0,#D89F1C,#3386FF,10,0,1,38,1,985.2999999970198,39,0,3154.5999999940395,0,0,experiment,NA,NA,0,0.9,0.1,0,1,45,1,NA
fcp-trial,109,942296,0.0-54.0-0.0,voc_e2,12349,"[{""event"":""fullscreenenter"",""trial"":1,""time"":8120}]",NA,NA,NA,NA,NA,0,#1CD855,#FA92F8,0,10,0,38,1,2512,39,0,3586.5,10,1,experiment,NA,NA,2,0.5,0.5,5,4,46,2,NA
fcp-trial,110,949627,0.0-55.0-0.0,voc_e2,12349,"[{""event"":""fullscreenenter"",""trial"":1,""time"":8120}]",NA,NA,NA,NA,NA,0,#D8271C,#741CD8,0,0,0,40,0,4445.199999988079,37,1,1374.5,0,0,experiment,NA,NA,1,0.3,0.7,3,2,47,2,NA
fcp-trial,111,958880,0.0-56.0-0.0,voc_e2,12349,"[{""event"":""fullscreenenter"",""trial"":1,""time"":8120}]",NA,NA,NA,NA,NA,1,#3386FF,#D89F1C,0,10,0,38,1,6433.5999999940395,39,0,1310,10,1,experiment,NA,NA,0,0.1,0.9,1,0,48,2,NA
fcp-trial,112,965361,0.0-57.0-0.0,voc_e2,12349,"[{""event"":""fullscreenenter"",""trial"":1,""time"":8120}]",NA,NA,NA,NA,NA,1,#FA92F8,#1CD855,10,0,1,38,1,2312.1000000089407,39,0,2659.5,0,0,experiment,NA,NA,2,0.5,0.5,4,5,49,2,NA
fcp-trial,113,971235,0.0-58.0-0.0,voc_e2,12349,"[{""event"":""fullscreenenter"",""trial"":1,""time"":8120}]",NA,NA,NA,NA,NA,4,#D8271C,#741CD8,0,10,0,38,1,1293.2999999970198,39,0,3070.5,10,1,experiment,NA,NA,1,0.3,0.7,3,2,50,2,NA
fcp-trial,114,978691,0.0-59.0-0.0,voc_e2,12349,"[{""event"":""fullscreenenter"",""trial"":1,""time"":8120}]",NA,NA,NA,NA,NA,6,#D8271C,#741CD8,10,0,0,38,1,3084.7999999970198,37,1,2860.5,10,0,experiment,NA,NA,1,0.3,0.7,3,2,51,2,NA
fcp-trial,115,985171,0.0-60.0-0.0,voc_e2,12349,"[{""event"":""fullscreenenter"",""trial"":1,""time"":8120}]",NA,NA,NA,NA,NA,5,#D89F1C,#3386FF,10,0,1,38,1,1202.5999999940395,39,0,3766.20000000298,0,0,experiment,NA,NA,0,0.9,0.1,0,1,52,2,NA
fcp-trial,116,992814,0.0-61.0-0.0,voc_e2,12349,"[{""event"":""fullscreenenter"",""trial"":1,""time"":8120}]",NA,NA,NA,NA,NA,3,#D8271C,#741CD8,0,10,0,38,1,924.4000000059605,39,0,5209.29999999702,10,1,experiment,NA,NA,1,0.3,0.7,3,2,53,2,NA
fcp-trial,117,998731,0.0-62.0-0.0,voc_e2,12349,"[{""event"":""fullscreenenter"",""trial"":1,""time"":8120}]",NA,NA,NA,NA,NA,2,#1CD855,#FA92F8,10,10,0,38,1,2008.7000000029802,37,1,2400.1000000089407,10,0,experiment,NA,NA,2,0.5,0.5,5,4,54,2,NA
fcp-trial,118,1006317,0.0-63.0-0.0,voc_e2,12349,"[{""event"":""fullscreenenter"",""trial"":1,""time"":8120}]",NA,NA,NA,NA,NA,6,#D89F1C,#3386FF,10,0,1,38,1,1670.2000000029802,39,0,4404.79999999702,0,0,experiment,NA,NA,0,0.9,0.1,0,1,55,2,NA
fcp-trial,119,1011010,0.0-64.0-0.0,voc_e2,12349,"[{""event"":""fullscreenenter"",""trial"":1,""time"":8120}]",NA,NA,NA,NA,NA,2,#3386FF,#D89F1C,0,10,0,38,1,1232.199999988079,37,1,1948.3999999910593,0,0,experiment,NA,NA,0,0.1,0.9,1,0,56,2,NA
fcp-trial,120,1016554,0.0-65.0-0.0,voc_e2,12349,"[{""event"":""fullscreenenter"",""trial"":1,""time"":8120}]",NA,NA,NA,NA,NA,5,#FA92F8,#1CD855,0,10,1,38,1,1617,39,0,2414.1000000089407,10,0,experiment,NA,NA,2,0.5,0.5,4,5,57,2,NA
fcp-trial,121,1021352,0.0-66.0-0.0,voc_e2,12349,"[{""event"":""fullscreenenter"",""trial"":1,""time"":8120}]",NA,NA,NA,NA,NA,1,#D8271C,#741CD8,0,10,0,38,1,1008.3000000119209,37,1,2280.70000000298,0,0,experiment,NA,NA,1,0.3,0.7,3,2,58,2,NA
fcp-trial,122,1026464,0.0-67.0-0.0,voc_e2,12349,"[{""event"":""fullscreenenter"",""trial"":1,""time"":8120}]",NA,NA,NA,NA,NA,5,#D8271C,#741CD8,0,0,0,38,1,1101.5999999940395,39,0,2502.20000000298,0,1,experiment,NA,NA,1,0.3,0.7,3,2,59,2,NA
fcp-trial,123,1032576,0.0-68.0-0.0,voc_e2,12349,"[{""event"":""fullscreenenter"",""trial"":1,""time"":8120}]",NA,NA,NA,NA,NA,4,#D89F1C,#3386FF,10,0,1,38,1,2126.0999999940395,39,0,2474.9000000059605,0,0,experiment,NA,NA,0,0.9,0.1,0,1,60,2,NA
fcp-trial,124,1037610,0.0-69.0-0.0,voc_e2,12349,"[{""event"":""fullscreenenter"",""trial"":1,""time"":8120}]",NA,NA,NA,NA,NA,4,#FA92F8,#1CD855,10,10,1,38,1,1302.8999999910593,37,1,2222,10,1,experiment,NA,NA,2,0.5,0.5,4,5,61,2,NA
fcp-trial,125,1043516,0.0-70.0-0.0,voc_e2,12349,"[{""event"":""fullscreenenter"",""trial"":1,""time"":8120}]",NA,NA,NA,NA,NA,3,#FA92F8,#1CD855,10,10,1,38,1,1175.5,39,0,3218.20000000298,10,0,experiment,NA,NA,2,0.5,0.5,4,5,62,2,NA
fcp-trial,126,1048326,0.0-71.0-0.0,voc_e2,12349,"[{""event"":""fullscreenenter"",""trial"":1,""time"":8120}]",NA,NA,NA,NA,NA,3,#3386FF,#D89F1C,0,10,0,38,1,888.2999999970198,39,0,2411.29999999702,10,1,experiment,NA,NA,0,0.1,0.9,1,0,63,2,NA
fcp-trial,127,1054077,0.0-72.0-0.0,voc_e2,12349,"[{""event"":""fullscreenenter"",""trial"":1,""time"":8120}]",NA,NA,NA,NA,NA,6,#741CD8,#D8271C,10,0,1,38,1,1199.5,37,1,3041.20000000298,10,1,experiment,NA,NA,1,0.7,0.3,2,3,64,2,NA
fcp-trial,128,1060315,0.0-73.0-0.0,voc_e2,12349,"[{""event"":""fullscreenenter"",""trial"":1,""time"":8120}]",NA,NA,NA,NA,NA,6,#FA92F8,#1CD855,0,10,1,38,1,1667.2000000029802,39,0,3060.79999999702,10,0,experiment,NA,NA,2,0.5,0.5,4,5,65,2,NA
fcp-trial,129,1065289,0.0-74.0-0.0,voc_e2,12349,"[{""event"":""fullscreenenter"",""trial"":1,""time"":8120}]",NA,NA,NA,NA,NA,2,#D8271C,#741CD8,0,10,0,38,1,897.3999999910593,39,0,2569,10,1,experiment,NA,NA,1,0.3,0.7,3,2,66,2,NA
fcp-trial,130,1069882,0.0-75.0-0.0,voc_e2,12349,"[{""event"":""fullscreenenter"",""trial"":1,""time"":8120}]",NA,NA,NA,NA,NA,0,#1CD855,#FA92F8,0,0,0,38,1,1882.9000000059605,39,0,1202.7000000029802,0,1,experiment,NA,NA,2,0.5,0.5,5,4,67,2,NA
fcp-trial,131,1074812,0.0-76.0-0.0,voc_e2,12349,"[{""event"":""fullscreenenter"",""trial"":1,""time"":8120}]",NA,NA,NA,NA,NA,3,#D89F1C,#3386FF,10,0,1,38,1,1528.7000000029802,37,1,1892.29999999702,10,1,experiment,NA,NA,0,0.9,0.1,0,1,68,2,NA
fcp-trial,132,1080601,0.0-77.0-0.0,voc_e2,12349,"[{""event"":""fullscreenenter"",""trial"":1,""time"":8120}]",NA,NA,NA,NA,NA,5,#3386FF,#D89F1C,0,10,0,38,1,1514.9000000059605,37,1,2765.199999988079,0,0,experiment,NA,NA,0,0.1,0.9,1,0,69,2,NA
fcp-trial,133,1087097,0.0-78.0-0.0,voc_e2,12349,"[{""event"":""fullscreenenter"",""trial"":1,""time"":8120}]",NA,NA,NA,NA,NA,5,#741CD8,#D8271C,0,0,1,38,1,1861.8999999910593,39,0,3123,0,0,experiment,NA,NA,1,0.7,0.3,2,3,70,2,NA
fcp-trial,134,1091723,0.0-79.0-0.0,voc_e2,12349,"[{""event"":""fullscreenenter"",""trial"":1,""time"":8120}]",NA,NA,NA,NA,NA,2,#3386FF,#D89F1C,0,10,0,38,1,1045.5999999940395,37,1,2070,0,0,experiment,NA,NA,0,0.1,0.9,1,0,71,2,NA
fcp-trial,135,1097774,0.0-80.0-0.0,voc_e2,12349,"[{""event"":""fullscreenenter"",""trial"":1,""time"":8120}]",NA,NA,NA,NA,NA,4,#FA92F8,#1CD855,10,0,1,38,1,2139,39,0,2402.20000000298,0,0,experiment,NA,NA,2,0.5,0.5,4,5,72,2,NA
fcp-trial,136,1102936,0.0-81.0-0.0,voc_e2,12349,"[{""event"":""fullscreenenter"",""trial"":1,""time"":8120}]",NA,NA,NA,NA,NA,4,#741CD8,#D8271C,0,0,1,38,1,1294.7000000029802,39,0,2360.3999999910593,0,0,experiment,NA,NA,1,0.7,0.3,2,3,73,2,NA
fcp-trial,137,1109783,0.0-82.0-0.0,voc_e2,12349,"[{""event"":""fullscreenenter"",""trial"":1,""time"":8120}]",NA,NA,NA,NA,NA,3,#1CD855,#FA92F8,10,0,0,38,1,953.0999999940395,37,1,4385.29999999702,10,0,experiment,NA,NA,2,0.5,0.5,5,4,74,2,NA
fcp-trial,138,1113884,0.0-83.0-0.0,voc_e2,12349,"[{""event"":""fullscreenenter"",""trial"":1,""time"":8120}]",NA,NA,NA,NA,NA,0,#D8271C,#741CD8,0,10,0,38,1,1748.4000000059605,39,0,844.5,10,1,experiment,NA,NA,1,0.3,0.7,3,2,75,2,NA
fcp-trial,139,1118856,0.0-84.0-0.0,voc_e2,12349,"[{""event"":""fullscreenenter"",""trial"":1,""time"":8120}]",NA,NA,NA,NA,NA,0,#3386FF,#D89F1C,0,10,0,38,1,1759.2999999970198,39,0,1702.0999999940395,10,1,experiment,NA,NA,0,0.1,0.9,1,0,76,2,NA
fcp-trial,140,1125069,0.0-85.0-0.0,voc_e2,12349,"[{""event"":""fullscreenenter"",""trial"":1,""time"":8120}]",NA,NA,NA,NA,NA,6,#D89F1C,#3386FF,10,0,1,38,1,1686.2000000029802,37,1,3013.5,10,1,experiment,NA,NA,0,0.9,0.1,0,1,77,2,NA
fcp-trial,141,1129923,0.0-86.0-0.0,voc_e2,12349,"[{""event"":""fullscreenenter"",""trial"":1,""time"":8120}]",NA,NA,NA,NA,NA,2,#FA92F8,#1CD855,0,0,1,38,1,1633.7000000029802,39,0,1706.800000011921,0,0,experiment,NA,NA,2,0.5,0.5,4,5,78,2,NA
fcp-trial,142,1135693,0.0-87.0-0.0,voc_e2,12349,"[{""event"":""fullscreenenter"",""trial"":1,""time"":8120}]",NA,NA,NA,NA,NA,3,#D8271C,#741CD8,0,0,0,38,1,1817.8999999910593,37,1,2443.4000000059605,0,0,experiment,NA,NA,1,0.3,0.7,3,2,79,2,NA
fcp-trial,143,1140120,0.0-88.0-0.0,voc_e2,12349,"[{""event"":""fullscreenenter"",""trial"":1,""time"":8120}]",NA,NA,NA,NA,NA,1,#1CD855,#FA92F8,0,10,0,38,1,906.7000000029802,39,0,2006.0999999940395,10,1,experiment,NA,NA,2,0.5,0.5,5,4,80,2,NA
fcp-trial,144,1145938,0.0-89.0-0.0,voc_e2,12349,"[{""event"":""fullscreenenter"",""trial"":1,""time"":8120}]",NA,NA,NA,NA,NA,4,#3386FF,#D89F1C,0,10,0,38,1,2022.9000000059605,39,0,2285.6000000089407,10,1,experiment,NA,NA,0,0.1,0.9,1,0,81,2,NA
fcp-trial,145,1151163,0.0-90.0-0.0,voc_e2,12349,"[{""event"":""fullscreenenter"",""trial"":1,""time"":8120}]",NA,NA,NA,NA,NA,1,#741CD8,#D8271C,10,0,1,38,1,1101.6000000089407,39,0,2611.29999999702,0,0,experiment,NA,NA,1,0.7,0.3,2,3,82,2,NA
fcp-trial,146,1157463,0.0-91.0-0.0,voc_e2,12349,"[{""event"":""fullscreenenter"",""trial"":1,""time"":8120}]",NA,NA,NA,NA,NA,1,#3386FF,#D89F1C,0,10,0,38,1,2217.0999999940395,39,0,2574.20000000298,10,1,experiment,NA,NA,0,0.1,0.9,1,0,83,2,NA
fcp-trial,147,1166039,0.0-92.0-0.0,voc_e2,12349,"[{""event"":""fullscreenenter"",""trial"":1,""time"":8120}]",NA,NA,NA,NA,NA,5,#FA92F8,#1CD855,0,0,1,38,1,3247.9000000059605,39,0,3815.599999994039,0,0,experiment,NA,NA,2,0.5,0.5,4,5,84,2,NA
fcp-trial,148,1171518,0.0-93.0-0.0,voc_e2,12349,"[{""event"":""fullscreenenter"",""trial"":1,""time"":8120}]",NA,NA,NA,NA,NA,2,#741CD8,#D8271C,0,0,1,38,1,1722.7999999970198,39,0,2246.5,0,0,experiment,NA,NA,1,0.7,0.3,2,3,85,2,NA
fcp-trial,149,1177694,0.0-94.0-0.0,voc_e2,12349,"[{""event"":""fullscreenenter"",""trial"":1,""time"":8120}]",NA,NA,NA,NA,NA,6,#FA92F8,#1CD855,0,10,1,38,1,1755.1000000089407,37,1,2914.29999999702,0,1,experiment,NA,NA,2,0.5,0.5,4,5,86,2,NA
fcp-trial,150,1182569,0.0-95.0-0.0,voc_e2,12349,"[{""event"":""fullscreenenter"",""trial"":1,""time"":8120}]",NA,NA,NA,NA,NA,1,#D89F1C,#3386FF,10,0,1,38,1,1579.2999999970198,39,0,1787,0,0,experiment,NA,NA,0,0.9,0.1,0,1,87,2,NA
fcp-trial,151,1188095,0.0-96.0-0.0,voc_e2,12349,"[{""event"":""fullscreenenter"",""trial"":1,""time"":8120}]",NA,NA,NA,NA,NA,5,#741CD8,#D8271C,10,0,1,38,1,1851.7000000029802,39,0,2165.29999999702,0,0,experiment,NA,NA,1,0.7,0.3,2,3,88,2,NA
fcp-trial,152,1194499,0.0-97.0-0.0,voc_e2,12349,"[{""event"":""fullscreenenter"",""trial"":1,""time"":8120}]",NA,NA,NA,NA,NA,5,#3386FF,#D89F1C,0,0,0,38,1,1397.9000000059605,39,0,3497,0,1,experiment,NA,NA,0,0.1,0.9,1,0,89,2,NA
fcp-trial,153,1201309,0.0-98.0-0.0,voc_e2,12349,"[{""event"":""fullscreenenter"",""trial"":1,""time"":8120}]",NA,NA,NA,NA,NA,4,#D8271C,#741CD8,0,10,0,38,1,1735.6000000089407,39,0,3566.0999999940395,10,1,experiment,NA,NA,1,0.3,0.7,3,2,90,2,NA
fcp-trial,154,1207093,0.0-99.0-0.0,voc_e2,12349,"[{""event"":""fullscreenenter"",""trial"":1,""time"":8120}]",NA,NA,NA,NA,NA,4,#FA92F8,#1CD855,10,0,1,38,1,1689.0999999940395,39,0,2586.1000000089407,0,0,experiment,NA,NA,2,0.5,0.5,4,5,91,3,NA
fcp-trial,155,1212388,0.0-100.0-0.0,voc_e2,12349,"[{""event"":""fullscreenenter"",""trial"":1,""time"":8120}]",NA,NA,NA,NA,NA,3,#D89F1C,#3386FF,0,0,1,38,1,1404.5999999940395,37,1,2380.5,0,1,experiment,NA,NA,0,0.9,0.1,0,1,92,3,NA
fcp-trial,156,1217004,0.0-101.0-0.0,voc_e2,12349,"[{""event"":""fullscreenenter"",""trial"":1,""time"":8120}]",NA,NA,NA,NA,NA,0,#1CD855,#FA92F8,0,10,0,38,1,1611.7000000029802,39,0,1494.5999999940395,10,1,experiment,NA,NA,2,0.5,0.5,5,4,93,3,NA
fcp-trial,157,1222543,0.0-102.0-0.0,voc_e2,12349,"[{""event"":""fullscreenenter"",""trial"":1,""time"":8120}]",NA,NA,NA,NA,NA,3,#741CD8,#D8271C,10,0,1,38,1,1470.1000000089407,39,0,2558.9000000059605,0,0,experiment,NA,NA,1,0.7,0.3,2,3,94,3,NA
fcp-trial,158,1227527,0.0-103.0-0.0,voc_e2,12349,"[{""event"":""fullscreenenter"",""trial"":1,""time"":8120}]",NA,NA,NA,NA,NA,1,#741CD8,#D8271C,0,0,1,38,1,1594.9000000059605,37,1,1879.8999999910593,0,1,experiment,NA,NA,1,0.7,0.3,2,3,95,3,NA
fcp-trial,159,1233633,0.0-104.0-0.0,voc_e2,12349,"[{""event"":""fullscreenenter"",""trial"":1,""time"":8120}]",NA,NA,NA,NA,NA,6,#D89F1C,#3386FF,10,0,1,38,1,1518.5,39,0,3079.9000000059605,0,0,experiment,NA,NA,0,0.9,0.1,0,1,96,3,NA
fcp-trial,160,1238725,0.0-105.0-0.0,voc_e2,12349,"[{""event"":""fullscreenenter"",""trial"":1,""time"":8120}]",NA,NA,NA,NA,NA,0,#3386FF,#D89F1C,0,10,0,38,1,1615.2999999970198,37,1,1966.29999999702,0,0,experiment,NA,NA,0,0.1,0.9,1,0,97,3,NA
fcp-trial,161,1243562,0.0-106.0-0.0,voc_e2,12349,"[{""event"":""fullscreenenter"",""trial"":1,""time"":8120}]",NA,NA,NA,NA,NA,3,#1CD855,#FA92F8,0,10,0,38,1,1451.5999999940395,37,1,1876.4000000059605,0,0,experiment,NA,NA,2,0.5,0.5,5,4,98,3,NA
fcp-trial,162,1249223,0.0-107.0-0.0,voc_e2,12349,"[{""event"":""fullscreenenter"",""trial"":1,""time"":8120}]",NA,NA,NA,NA,NA,5,#FA92F8,#1CD855,0,0,1,38,1,1291.5999999940395,39,0,2861.9000000059605,0,0,experiment,NA,NA,2,0.5,0.5,4,5,99,3,NA
fcp-trial,163,1255562,0.0-108.0-0.0,voc_e2,12349,"[{""event"":""fullscreenenter"",""trial"":1,""time"":8120}]",NA,NA,NA,NA,NA,6,#D8271C,#741CD8,10,10,0,38,1,1445.5,39,0,3384.1000000089407,10,1,experiment,NA,NA,1,0.3,0.7,3,2,100,3,NA
fcp-trial,164,1259271,0.0-109.0-0.0,voc_e2,12349,"[{""event"":""fullscreenenter"",""trial"":1,""time"":8120}]",NA,NA,NA,NA,NA,0,#741CD8,#D8271C,0,0,1,38,1,1023.2000000029802,37,1,1173.8999999910593,0,1,experiment,NA,NA,1,0.7,0.3,2,3,101,3,NA
fcp-trial,165,1265968,0.0-110.0-0.0,voc_e2,12349,"[{""event"":""fullscreenenter"",""trial"":1,""time"":8120}]",NA,NA,NA,NA,NA,2,#3386FF,#D89F1C,10,10,0,40,0,3127.1000000089407,37,1,2058.79999999702,10,0,experiment,NA,NA,0,0.1,0.9,1,0,102,3,NA
fcp-trial,166,1272063,0.0-111.0-0.0,voc_e2,12349,"[{""event"":""fullscreenenter"",""trial"":1,""time"":8120}]",NA,NA,NA,NA,NA,4,#D89F1C,#3386FF,10,0,1,38,1,2055.2000000029802,39,0,2531,0,0,experiment,NA,NA,0,0.9,0.1,0,1,103,3,NA
fcp-trial,167,1277379,0.0-112.0-0.0,voc_e2,12349,"[{""event"":""fullscreenenter"",""trial"":1,""time"":8120}]",NA,NA,NA,NA,NA,2,#FA92F8,#1CD855,10,10,1,38,1,1911,37,1,1895.3999999910593,10,1,experiment,NA,NA,2,0.5,0.5,4,5,104,3,NA
fcp-trial,168,1282670,0.0-113.0-0.0,voc_e2,12349,"[{""event"":""fullscreenenter"",""trial"":1,""time"":8120}]",NA,NA,NA,NA,NA,1,#1CD855,#FA92F8,0,10,0,38,1,2383.7000000029802,37,1,1396.2999999970198,0,0,experiment,NA,NA,2,0.5,0.5,5,4,105,3,NA
audio-instructions,169,1289096,0.0-114.0,voc_e2,12349,"[{""event"":""fullscreenenter"",""trial"":1,""time"":8120}]",NA,1937.79999999702,static/audio/pause.wav,NA,0,NA,NA,NA,NA,NA,NA,NA,NA,NA,NA,NA,NA,NA,NA,NA,NA,NA,NA,NA,NA,NA,NA,NA,NA,NA
fcp-trial,170,1294697,0.0-115.0-0.0,voc_e2,12349,"[{""event"":""fullscreenenter"",""trial"":1,""time"":8120}]",NA,NA,NA,NA,NA,1,#1CD855,#FA92F8,0,0,0,38,1,2815.199999988079,37,1,1276.5,0,0,experiment,NA,NA,2,0.5,0.5,5,4,106,3,NA
fcp-trial,171,1299966,0.0-116.0-0.0,voc_e2,12349,"[{""event"":""fullscreenenter"",""trial"":1,""time"":8120}]",NA,NA,NA,NA,NA,6,#1CD855,#FA92F8,0,0,0,38,1,1315.5,37,1,2442.20000000298,0,0,experiment,NA,NA,2,0.5,0.5,5,4,107,3,NA
fcp-trial,172,1305396,0.0-117.0-0.0,voc_e2,12349,"[{""event"":""fullscreenenter"",""trial"":1,""time"":8120}]",NA,NA,NA,NA,NA,6,#3386FF,#D89F1C,0,0,0,38,1,1317.9000000059605,39,0,2597.79999999702,0,1,experiment,NA,NA,0,0.1,0.9,1,0,108,3,NA
fcp-trial,173,1310569,0.0-118.0-0.0,voc_e2,12349,"[{""event"":""fullscreenenter"",""trial"":1,""time"":8120}]",NA,NA,NA,NA,NA,2,#D8271C,#741CD8,0,10,0,38,1,1789.8999999910593,37,1,1869.699999988079,0,0,experiment,NA,NA,1,0.3,0.7,3,2,109,3,NA
fcp-trial,174,1315636,0.0-119.0-0.0,voc_e2,12349,"[{""event"":""fullscreenenter"",""trial"":1,""time"":8120}]",NA,NA,NA,NA,NA,2,#1CD855,#FA92F8,10,0,0,38,1,1298.0999999940395,37,1,2258.800000011921,10,0,experiment,NA,NA,2,0.5,0.5,5,4,110,3,NA
fcp-trial,175,1320502,0.0-120.0-0.0,voc_e2,12349,"[{""event"":""fullscreenenter"",""trial"":1,""time"":8120}]",NA,NA,NA,NA,NA,4,#D8271C,#741CD8,0,0,0,38,1,1478.2000000029802,37,1,1876.70000000298,0,0,experiment,NA,NA,1,0.3,0.7,3,2,111,3,NA
fcp-trial,176,1325016,0.0-121.0-0.0,voc_e2,12349,"[{""event"":""fullscreenenter"",""trial"":1,""time"":8120}]",NA,NA,NA,NA,NA,0,#741CD8,#D8271C,10,0,1,38,1,1959.7999999970198,37,1,1043.6000000089407,10,1,experiment,NA,NA,1,0.7,0.3,2,3,112,3,NA
fcp-trial,177,1332573,0.0-122.0-0.0,voc_e2,12349,"[{""event"":""fullscreenenter"",""trial"":1,""time"":8120}]",NA,NA,NA,NA,NA,5,#3386FF,#D89F1C,0,10,0,38,1,2150.2000000029802,37,1,3897.099999994039,0,0,experiment,NA,NA,0,0.1,0.9,1,0,113,3,NA
fcp-trial,178,1337827,0.0-123.0-0.0,voc_e2,12349,"[{""event"":""fullscreenenter"",""trial"":1,""time"":8120}]",NA,NA,NA,NA,NA,3,#FA92F8,#1CD855,0,10,1,38,1,1380.0999999940395,37,1,2363.1000000089407,0,1,experiment,NA,NA,2,0.5,0.5,4,5,114,3,NA
fcp-trial,179,1344656,0.0-124.0-0.0,voc_e2,12349,"[{""event"":""fullscreenenter"",""trial"":1,""time"":8120}]",NA,NA,NA,NA,NA,0,#3386FF,#D89F1C,0,10,0,38,1,4114.9000000059605,39,0,1200.7999999970198,10,1,experiment,NA,NA,0,0.1,0.9,1,0,115,3,NA
fcp-trial,180,1350059,0.0-125.0-0.0,voc_e2,12349,"[{""event"":""fullscreenenter"",""trial"":1,""time"":8120}]",NA,NA,NA,NA,NA,3,#D8271C,#741CD8,0,10,0,38,1,1681.0999999940395,39,0,2214.9000000059605,10,1,experiment,NA,NA,1,0.3,0.7,3,2,116,3,NA
fcp-trial,181,1355728,0.0-126.0-0.0,voc_e2,12349,"[{""event"":""fullscreenenter"",""trial"":1,""time"":8120}]",NA,NA,NA,NA,NA,5,#1CD855,#FA92F8,0,0,0,38,1,1426.5,39,0,2731.79999999702,0,1,experiment,NA,NA,2,0.5,0.5,5,4,117,3,NA
fcp-trial,182,1360689,0.0-127.0-0.0,voc_e2,12349,"[{""event"":""fullscreenenter"",""trial"":1,""time"":8120}]",NA,NA,NA,NA,NA,1,#D89F1C,#3386FF,10,0,1,38,1,1099.2999999970198,39,0,2349.5,0,0,experiment,NA,NA,0,0.9,0.1,0,1,118,3,NA
fcp-trial,183,1367041,0.0-128.0-0.0,voc_e2,12349,"[{""event"":""fullscreenenter"",""trial"":1,""time"":8120}]",NA,NA,NA,NA,NA,4,#3386FF,#D89F1C,0,10,0,38,1,1342.7000000029802,39,0,3498.29999999702,10,1,experiment,NA,NA,0,0.1,0.9,1,0,119,3,NA
fcp-trial,184,1370796,0.0-129.0-0.0,voc_e2,12349,"[{""event"":""fullscreenenter"",""trial"":1,""time"":8120}]",NA,NA,NA,NA,NA,0,#FA92F8,#1CD855,10,0,1,38,1,970.9000000059605,37,1,1272.3999999910593,10,1,experiment,NA,NA,2,0.5,0.5,4,5,120,3,NA
fcp-trial,185,1375152,0.0-130.0-0.0,voc_e2,12349,"[{""event"":""fullscreenenter"",""trial"":1,""time"":8120}]",NA,NA,NA,NA,NA,1,#741CD8,#D8271C,0,0,1,38,1,1840.0999999940395,37,1,1009.0999999940396,0,1,experiment,NA,NA,1,0.7,0.3,2,3,121,3,NA
fcp-trial,186,1380747,0.0-131.0-0.0,voc_e2,12349,"[{""event"":""fullscreenenter"",""trial"":1,""time"":8120}]",NA,NA,NA,NA,NA,5,#741CD8,#D8271C,0,0,1,38,1,1429.7000000029802,39,0,2654.5,0,0,experiment,NA,NA,1,0.7,0.3,2,3,122,3,NA
fcp-trial,187,1385489,0.0-132.0-0.0,voc_e2,12349,"[{""event"":""fullscreenenter"",""trial"":1,""time"":8120}]",NA,NA,NA,NA,NA,2,#3386FF,#D89F1C,0,0,0,38,1,1202,37,1,2027.79999999702,0,0,experiment,NA,NA,0,0.1,0.9,1,0,123,3,NA
fcp-trial,188,1391436,0.0-133.0-0.0,voc_e2,12349,"[{""event"":""fullscreenenter"",""trial"":1,""time"":8120}]",NA,NA,NA,NA,NA,3,#3386FF,#D89F1C,0,10,0,38,1,1226.9000000059605,39,0,3210.5999999940395,10,1,experiment,NA,NA,0,0.1,0.9,1,0,124,3,NA
fcp-trial,189,1396681,0.0-134.0-0.0,voc_e2,12349,"[{""event"":""fullscreenenter"",""trial"":1,""time"":8120}]",NA,NA,NA,NA,NA,4,#FA92F8,#1CD855,10,10,1,38,1,633.1999999880791,39,0,3104,10,0,experiment,NA,NA,2,0.5,0.5,4,5,125,3,NA
fcp-trial,190,1400449,0.0-135.0-0.0,voc_e2,12349,"[{""event"":""fullscreenenter"",""trial"":1,""time"":8120}]",NA,NA,NA,NA,NA,6,#D8271C,#741CD8,0,10,0,38,1,1202.8999999910593,39,0,1057.0999999940395,10,1,experiment,NA,NA,1,0.3,0.7,3,2,126,3,NA
fcp-trial,191,1407497,0.0-136.0-0.0,voc_e2,12349,"[{""event"":""fullscreenenter"",""trial"":1,""time"":8120}]",NA,NA,NA,NA,NA,4,#D8271C,#741CD8,10,10,0,38,1,2081.5999999940395,39,0,3457.8999999910593,10,1,experiment,NA,NA,1,0.3,0.7,3,2,127,3,NA
fcp-trial,192,1414818,0.0-137.0-0.0,voc_e2,12349,"[{""event"":""fullscreenenter"",""trial"":1,""time"":8120}]",NA,NA,NA,NA,NA,4,#FA92F8,#1CD855,0,10,1,38,1,2037.3999999910593,39,0,3775.70000000298,10,0,experiment,NA,NA,2,0.5,0.5,4,5,128,3,NA
fcp-trial,193,1419948,0.0-138.0-0.0,voc_e2,12349,"[{""event"":""fullscreenenter"",""trial"":1,""time"":8120}]",NA,NA,NA,NA,NA,4,#3386FF,#D89F1C,0,10,0,38,1,1505.7000000029802,37,1,2112.8999999910593,0,0,experiment,NA,NA,0,0.1,0.9,1,0,129,3,NA
fcp-trial,194,1425101,0.0-139.0-0.0,voc_e2,12349,"[{""event"":""fullscreenenter"",""trial"":1,""time"":8120}]",NA,NA,NA,NA,NA,3,#FA92F8,#1CD855,0,10,1,38,1,1755.800000011921,37,1,1888.4000000059605,0,1,experiment,NA,NA,2,0.5,0.5,4,5,130,3,NA
fcp-trial,195,1428175,0.0-140.0-0.0,voc_e2,12349,"[{""event"":""fullscreenenter"",""trial"":1,""time"":8120}]",NA,NA,NA,NA,NA,1,#741CD8,#D8271C,10,10,1,38,1,834,37,1,730.3999999910593,10,1,experiment,NA,NA,1,0.7,0.3,2,3,131,3,NA
fcp-trial,196,1432865,0.0-141.0-0.0,voc_e2,12349,"[{""event"":""fullscreenenter"",""trial"":1,""time"":8120}]",NA,NA,NA,NA,NA,5,#FA92F8,#1CD855,0,0,1,38,1,849.2999999970198,39,0,2333.5999999940395,0,0,experiment,NA,NA,2,0.5,0.5,4,5,132,3,NA
fcp-trial,197,1439331,0.0-142.0-0.0,voc_e2,12349,"[{""event"":""fullscreenenter"",""trial"":1,""time"":8120}]",NA,NA,NA,NA,NA,5,#741CD8,#D8271C,0,10,1,40,0,1116.1000000089407,37,1,3841.599999994039,0,1,experiment,NA,NA,1,0.7,0.3,2,3,133,3,NA
fcp-trial,198,1447027,0.0-143.0-0.0,voc_e2,12349,"[{""event"":""fullscreenenter"",""trial"":1,""time"":8120}]",NA,NA,NA,NA,NA,3,#D89F1C,#3386FF,10,0,1,38,1,3767.2000000029802,39,0,2419.699999988079,0,0,experiment,NA,NA,0,0.9,0.1,0,1,134,3,NA
fcp-trial,199,1452029,0.0-144.0-0.0,voc_e2,12349,"[{""event"":""fullscreenenter"",""trial"":1,""time"":8120}]",NA,NA,NA,NA,NA,1,#3386FF,#D89F1C,0,10,0,38,1,1280,39,0,2210.3999999910593,10,1,experiment,NA,NA,0,0.1,0.9,1,0,135,3,NA
fcp-trial,200,1457983,0.0-145.0-0.0,voc_e2,12349,"[{""event"":""fullscreenenter"",""trial"":1,""time"":8120}]",NA,NA,NA,NA,NA,0,#D8271C,#741CD8,10,0,0,38,1,1551.0999999940395,39,0,2890.79999999702,0,1,experiment,NA,NA,1,0.3,0.7,3,2,136,4,NA
fcp-trial,201,1463275,0.0-146.0-0.0,voc_e2,12349,"[{""event"":""fullscreenenter"",""trial"":1,""time"":8120}]",NA,NA,NA,NA,NA,2,#1CD855,#FA92F8,10,10,0,38,1,1394.4000000059605,39,0,2389.4000000059605,10,1,experiment,NA,NA,2,0.5,0.5,5,4,137,4,NA
fcp-trial,202,1468247,0.0-147.0-0.0,voc_e2,12349,"[{""event"":""fullscreenenter"",""trial"":1,""time"":8120}]",NA,NA,NA,NA,NA,2,#3386FF,#D89F1C,10,10,0,38,1,1554.5,39,0,1908.6000000089407,10,1,experiment,NA,NA,0,0.1,0.9,1,0,138,4,NA
fcp-trial,203,1471773,0.0-148.0-0.0,voc_e2,12349,"[{""event"":""fullscreenenter"",""trial"":1,""time"":8120}]",NA,NA,NA,NA,NA,0,#1CD855,#FA92F8,0,0,0,38,1,789.3999999910593,37,1,1228.9000000059605,0,0,experiment,NA,NA,2,0.5,0.5,5,4,139,4,NA
fcp-trial,204,1476759,0.0-149.0-0.0,voc_e2,12349,"[{""event"":""fullscreenenter"",""trial"":1,""time"":8120}]",NA,NA,NA,NA,NA,5,#3386FF,#D89F1C,10,0,0,38,1,1067,39,0,2407.4000000059605,0,1,experiment,NA,NA,0,0.1,0.9,1,0,140,4,NA
fcp-trial,205,1481358,0.0-150.0-0.0,voc_e2,12349,"[{""event"":""fullscreenenter"",""trial"":1,""time"":8120}]",NA,NA,NA,NA,NA,3,#741CD8,#D8271C,10,10,1,38,1,708.9000000059605,37,1,2378.3999999910593,10,1,experiment,NA,NA,1,0.7,0.3,2,3,141,4,NA
fcp-trial,206,1486272,0.0-151.0-0.0,voc_e2,12349,"[{""event"":""fullscreenenter"",""trial"":1,""time"":8120}]",NA,NA,NA,NA,NA,1,#FA92F8,#1CD855,10,0,1,38,1,1457.9000000059605,39,0,1948.4000000059605,0,0,experiment,NA,NA,2,0.5,0.5,4,5,142,4,NA
fcp-trial,207,1490198,0.0-152.0-0.0,voc_e2,12349,"[{""event"":""fullscreenenter"",""trial"":1,""time"":8120}]",NA,NA,NA,NA,NA,2,#D8271C,#741CD8,0,10,0,38,1,758.6000000089407,39,0,1657.2999999970198,10,1,experiment,NA,NA,1,0.3,0.7,3,2,143,4,NA
fcp-trial,208,1496284,0.0-153.0-0.0,voc_e2,12349,"[{""event"":""fullscreenenter"",""trial"":1,""time"":8120}]",NA,NA,NA,NA,NA,6,#D89F1C,#3386FF,10,0,1,38,1,871.8999999910593,39,0,3703.79999999702,0,0,experiment,NA,NA,0,0.9,0.1,0,1,144,4,NA
fcp-trial,209,1500144,0.0-154.0-0.0,voc_e2,12349,"[{""event"":""fullscreenenter"",""trial"":1,""time"":8120}]",NA,NA,NA,NA,NA,0,#D89F1C,#3386FF,10,0,1,38,1,1377.7000000029802,37,1,975,10,1,experiment,NA,NA,0,0.9,0.1,0,1,145,4,NA
fcp-trial,210,1506107,0.0-155.0-0.0,voc_e2,12349,"[{""event"":""fullscreenenter"",""trial"":1,""time"":8120}]",NA,NA,NA,NA,NA,6,#1CD855,#FA92F8,0,0,0,38,1,1426.2000000029802,39,0,3027.5999999940395,0,1,experiment,NA,NA,2,0.5,0.5,5,4,146,4,NA
fcp-trial,211,1512981,0.0-156.0-0.0,voc_e2,12349,"[{""event"":""fullscreenenter"",""trial"":1,""time"":8120}]",NA,NA,NA,NA,NA,6,#741CD8,#D8271C,10,0,1,38,1,1354.8999999910593,39,0,4008.900000005961,0,0,experiment,NA,NA,1,0.7,0.3,2,3,147,4,NA
fcp-trial,212,1517247,0.0-157.0-0.0,voc_e2,12349,"[{""event"":""fullscreenenter"",""trial"":1,""time"":8120}]",NA,NA,NA,NA,NA,1,#3386FF,#D89F1C,0,10,0,38,1,1057.5999999940395,37,1,1700.7000000029802,0,0,experiment,NA,NA,0,0.1,0.9,1,0,148,4,NA
fcp-trial,213,1522422,0.0-158.0-0.0,voc_e2,12349,"[{""event"":""fullscreenenter"",""trial"":1,""time"":8120}]",NA,NA,NA,NA,NA,5,#741CD8,#D8271C,10,0,1,38,1,1085.5,39,0,2584,0,0,experiment,NA,NA,1,0.7,0.3,2,3,149,4,NA
fcp-trial,214,1528124,0.0-159.0-0.0,voc_e2,12349,"[{""event"":""fullscreenenter"",""trial"":1,""time"":8120}]",NA,NA,NA,NA,NA,6,#D89F1C,#3386FF,10,0,1,38,1,1141.3999999910593,39,0,3051.70000000298,0,0,experiment,NA,NA,0,0.9,0.1,0,1,150,4,NA
fcp-trial,215,1532540,0.0-160.0-0.0,voc_e2,12349,"[{""event"":""fullscreenenter"",""trial"":1,""time"":8120}]",NA,NA,NA,NA,NA,1,#FA92F8,#1CD855,10,10,1,38,1,776.7999999970198,37,1,2130.0999999940395,10,1,experiment,NA,NA,2,0.5,0.5,4,5,151,4,NA
fcp-trial,216,1537694,0.0-161.0-0.0,voc_e2,12349,"[{""event"":""fullscreenenter"",""trial"":1,""time"":8120}]",NA,NA,NA,NA,NA,6,#741CD8,#D8271C,10,10,1,38,1,729.2000000029802,37,1,2916.20000000298,10,1,experiment,NA,NA,1,0.7,0.3,2,3,152,4,NA
fcp-trial,217,1542740,0.0-162.0-0.0,voc_e2,12349,"[{""event"":""fullscreenenter"",""trial"":1,""time"":8120}]",NA,NA,NA,NA,NA,5,#D89F1C,#3386FF,10,0,1,38,1,693.1000000089407,39,0,2844.79999999702,0,0,experiment,NA,NA,0,0.9,0.1,0,1,153,4,NA
fcp-trial,218,1547099,0.0-163.0-0.0,voc_e2,12349,"[{""event"":""fullscreenenter"",""trial"":1,""time"":8120}]",NA,NA,NA,NA,NA,2,#D8271C,#741CD8,0,10,0,38,1,844.7000000029802,39,0,2003,10,1,experiment,NA,NA,1,0.3,0.7,3,2,154,4,NA
fcp-trial,219,1551267,0.0-164.0-0.0,voc_e2,12349,"[{""event"":""fullscreenenter"",""trial"":1,""time"":8120}]",NA,NA,NA,NA,NA,1,#741CD8,#D8271C,0,0,1,38,1,1049.800000011921,37,1,1604.8999999910593,0,1,experiment,NA,NA,1,0.7,0.3,2,3,155,4,NA
fcp-trial,220,1556522,0.0-165.0-0.0,voc_e2,12349,"[{""event"":""fullscreenenter"",""trial"":1,""time"":8120}]",NA,NA,NA,NA,NA,6,#1CD855,#FA92F8,10,10,0,38,1,699.4000000059605,39,0,3047.5,10,1,experiment,NA,NA,2,0.5,0.5,5,4,156,4,NA
fcp-trial,221,1560114,0.0-166.0-0.0,voc_e2,12349,"[{""event"":""fullscreenenter"",""trial"":1,""time"":8120}]",NA,NA,NA,NA,NA,0,#D8271C,#741CD8,0,10,0,38,1,809.3999999910593,39,0,1272.7999999970198,10,1,experiment,NA,NA,1,0.3,0.7,3,2,157,4,NA
fcp-trial,222,1563819,0.0-167.0-0.0,voc_e2,12349,"[{""event"":""fullscreenenter"",""trial"":1,""time"":8120}]",NA,NA,NA,NA,NA,0,#D89F1C,#3386FF,10,0,1,38,1,975.0999999940395,37,1,1220.5999999940395,10,1,experiment,NA,NA,0,0.9,0.1,0,1,158,4,NA
fcp-trial,223,1569482,0.0-168.0-0.0,voc_e2,12349,"[{""event"":""fullscreenenter"",""trial"":1,""time"":8120}]",NA,NA,NA,NA,NA,3,#741CD8,#D8271C,10,10,1,38,1,1578.2999999970198,39,0,2575.29999999702,10,0,experiment,NA,NA,1,0.7,0.3,2,3,159,4,NA
fcp-trial,224,1574826,0.0-169.0-0.0,voc_e2,12349,"[{""event"":""fullscreenenter"",""trial"":1,""time"":8120}]",NA,NA,NA,NA,NA,3,#FA92F8,#1CD855,10,0,1,38,1,1291.0999999940395,37,1,2543.0999999940395,10,1,experiment,NA,NA,2,0.5,0.5,4,5,160,4,NA
fcp-trial,225,1579725,0.0-170.0-0.0,voc_e2,12349,"[{""event"":""fullscreenenter"",""trial"":1,""time"":8120}]",NA,NA,NA,NA,NA,2,#3386FF,#D89F1C,0,10,0,38,1,1408.9000000059605,37,1,1977.20000000298,0,0,experiment,NA,NA,0,0.1,0.9,1,0,161,4,NA
fcp-trial,226,1584535,0.0-171.0-0.0,voc_e2,12349,"[{""event"":""fullscreenenter"",""trial"":1,""time"":8120}]",NA,NA,NA,NA,NA,4,#3386FF,#D89F1C,0,10,0,38,1,826.5,39,0,2475.0999999940395,10,1,experiment,NA,NA,0,0.1,0.9,1,0,162,4,NA
fcp-trial,227,1589494,0.0-172.0-0.0,voc_e2,12349,"[{""event"":""fullscreenenter"",""trial"":1,""time"":8120}]",NA,NA,NA,NA,NA,5,#FA92F8,#1CD855,0,0,1,38,1,970.9000000059605,39,0,2457,0,0,experiment,NA,NA,2,0.5,0.5,4,5,163,4,NA
fcp-trial,228,1594850,0.0-173.0-0.0,voc_e2,12349,"[{""event"":""fullscreenenter"",""trial"":1,""time"":8120}]",NA,NA,NA,NA,NA,4,#741CD8,#D8271C,10,0,1,38,1,1574.2999999970198,37,1,2273.0999999940395,10,1,experiment,NA,NA,1,0.7,0.3,2,3,164,4,NA
fcp-trial,229,1599144,0.0-174.0-0.0,voc_e2,12349,"[{""event"":""fullscreenenter"",""trial"":1,""time"":8120}]",NA,NA,NA,NA,NA,3,#3386FF,#D89F1C,0,10,0,38,1,832.3000000119209,39,0,1951.29999999702,10,1,experiment,NA,NA,0,0.1,0.9,1,0,165,4,NA
fcp-trial,230,1603327,0.0-175.0-0.0,voc_e2,12349,"[{""event"":""fullscreenenter"",""trial"":1,""time"":8120}]",NA,NA,NA,NA,NA,2,#FA92F8,#1CD855,10,0,1,38,1,779.3999999910593,37,1,1893.20000000298,10,1,experiment,NA,NA,2,0.5,0.5,4,5,166,4,NA
fcp-trial,231,1606763,0.0-176.0-0.0,voc_e2,12349,"[{""event"":""fullscreenenter"",""trial"":1,""time"":8120}]",NA,NA,NA,NA,NA,0,#FA92F8,#1CD855,0,10,1,38,1,835,39,0,1091.4000000059605,10,0,experiment,NA,NA,2,0.5,0.5,4,5,167,4,NA
fcp-trial,232,1611687,0.0-177.0-0.0,voc_e2,12349,"[{""event"":""fullscreenenter"",""trial"":1,""time"":8120}]",NA,NA,NA,NA,NA,4,#FA92F8,#1CD855,10,10,1,38,1,867.7000000029802,37,1,2548.8999999910593,10,1,experiment,NA,NA,2,0.5,0.5,4,5,168,4,NA
fcp-trial,233,1614700,0.0-178.0-0.0,voc_e2,12349,"[{""event"":""fullscreenenter"",""trial"":1,""time"":8120}]",NA,NA,NA,NA,NA,1,#FA92F8,#1CD855,0,0,1,38,1,153.1000000089407,39,0,1353.5999999940395,0,0,experiment,NA,NA,2,0.5,0.5,4,5,169,4,NA
fcp-trial,234,1619607,0.0-179.0-0.0,voc_e2,12349,"[{""event"":""fullscreenenter"",""trial"":1,""time"":8120}]",NA,NA,NA,NA,NA,0,#D89F1C,#3386FF,10,0,1,38,1,2008.1000000089407,37,1,1387.7000000029802,10,1,experiment,NA,NA,0,0.9,0.1,0,1,170,4,NA
fcp-trial,235,1623741,0.0-180.0-0.0,voc_e2,12349,"[{""event"":""fullscreenenter"",""trial"":1,""time"":8120}]",NA,NA,NA,NA,NA,2,#D8271C,#741CD8,0,10,0,38,1,1029.6000000089407,37,1,1597.7000000029802,0,0,experiment,NA,NA,1,0.3,0.7,3,2,171,4,NA
fcp-trial,236,1627708,0.0-181.0-0.0,voc_e2,12349,"[{""event"":""fullscreenenter"",""trial"":1,""time"":8120}]",NA,NA,NA,NA,NA,1,#3386FF,#D89F1C,0,10,0,38,1,813.7999999970198,37,1,1642.800000011921,0,0,experiment,NA,NA,0,0.1,0.9,1,0,172,4,NA
fcp-trial,237,1631233,0.0-182.0-0.0,voc_e2,12349,"[{""event"":""fullscreenenter"",""trial"":1,""time"":8120}]",NA,NA,NA,NA,NA,0,#D8271C,#741CD8,0,10,0,38,1,957.8000000119209,39,0,1058.0999999940395,10,1,experiment,NA,NA,1,0.3,0.7,3,2,173,4,NA
fcp-trial,238,1635859,0.0-183.0-0.0,voc_e2,12349,"[{""event"":""fullscreenenter"",""trial"":1,""time"":8120}]",NA,NA,NA,NA,NA,2,#1CD855,#FA92F8,10,10,0,38,1,1244.5999999940395,37,1,1872.4000000059605,10,0,experiment,NA,NA,2,0.5,0.5,5,4,174,4,NA
fcp-trial,239,1640118,0.0-184.0-0.0,voc_e2,12349,"[{""event"":""fullscreenenter"",""trial"":1,""time"":8120}]",NA,NA,NA,NA,NA,1,#D8271C,#741CD8,0,10,0,38,1,1364.3999999910593,39,0,1384.9000000059605,10,1,experiment,NA,NA,1,0.3,0.7,3,2,175,4,NA
fcp-trial,240,1644765,0.0-185.0-0.0,voc_e2,12349,"[{""event"":""fullscreenenter"",""trial"":1,""time"":8120}]",NA,NA,NA,NA,NA,3,#FA92F8,#1CD855,0,0,1,38,1,1251.9000000059605,39,0,1886.70000000298,0,0,experiment,NA,NA,2,0.5,0.5,4,5,176,4,NA
fcp-trial,241,1649982,0.0-186.0-0.0,voc_e2,12349,"[{""event"":""fullscreenenter"",""trial"":1,""time"":8120}]",NA,NA,NA,NA,NA,5,#3386FF,#D89F1C,0,10,0,38,1,935.4000000059605,37,1,2771.9000000059605,0,0,experiment,NA,NA,0,0.1,0.9,1,0,177,4,NA
fcp-trial,242,1654673,0.0-187.0-0.0,voc_e2,12349,"[{""event"":""fullscreenenter"",""trial"":1,""time"":8120}]",NA,NA,NA,NA,NA,3,#D8271C,#741CD8,10,0,0,38,1,1030.7999999970198,39,0,2147.20000000298,0,1,experiment,NA,NA,1,0.3,0.7,3,2,178,4,NA
fcp-trial,243,1661053,0.0-188.0-0.0,voc_e2,12349,"[{""event"":""fullscreenenter"",""trial"":1,""time"":8120}]",NA,NA,NA,NA,NA,6,#741CD8,#D8271C,10,10,1,38,1,1059.2000000029802,37,1,3808.70000000298,10,1,experiment,NA,NA,1,0.7,0.3,2,3,179,4,NA
fcp-trial,244,1665792,0.0-189.0-0.0,voc_e2,12349,"[{""event"":""fullscreenenter"",""trial"":1,""time"":8120}]",NA,NA,NA,NA,NA,4,#FA92F8,#1CD855,10,10,1,38,1,864.1999999880791,39,0,2364.70000000298,10,0,experiment,NA,NA,2,0.5,0.5,4,5,180,4,NA
fcp-trial,245,1671770,0.0-190.0-0.0,voc_e2,12349,"[{""event"":""fullscreenenter"",""trial"":1,""time"":8120}]",NA,NA,NA,NA,NA,6,#D89F1C,#3386FF,0,0,1,38,1,982.8999999910593,39,0,3486.4000000059605,0,0,experiment,NA,NA,0,0.9,0.1,0,1,181,5,NA
fcp-trial,246,1677281,0.0-191.0-0.0,voc_e2,12349,"[{""event"":""fullscreenenter"",""trial"":1,""time"":8120}]",NA,NA,NA,NA,NA,5,#FA92F8,#1CD855,10,10,1,38,1,1113.5,39,0,2884.70000000298,10,0,experiment,NA,NA,2,0.5,0.5,4,5,182,5,NA
fcp-trial,247,1681386,0.0-192.0-0.0,voc_e2,12349,"[{""event"":""fullscreenenter"",""trial"":1,""time"":8120}]",NA,NA,NA,NA,NA,2,#D89F1C,#3386FF,10,0,1,38,1,841.0999999940395,37,1,1754.3999999910593,10,1,experiment,NA,NA,0,0.9,0.1,0,1,183,5,NA
fcp-trial,248,1687135,0.0-193.0-0.0,voc_e2,12349,"[{""event"":""fullscreenenter"",""trial"":1,""time"":8120}]",NA,NA,NA,NA,NA,5,#741CD8,#D8271C,10,0,1,38,1,1043.6000000089407,37,1,3194,10,1,experiment,NA,NA,1,0.7,0.3,2,3,184,5,NA
fcp-trial,249,1693152,0.0-194.0-0.0,voc_e2,12349,"[{""event"":""fullscreenenter"",""trial"":1,""time"":8120}]",NA,NA,NA,NA,NA,6,#1CD855,#FA92F8,10,0,0,38,1,864.0999999940395,39,0,3643.20000000298,0,1,experiment,NA,NA,2,0.5,0.5,5,4,185,5,NA
fcp-trial,250,1697970,0.0-195.0-0.0,voc_e2,12349,"[{""event"":""fullscreenenter"",""trial"":1,""time"":8120}]",NA,NA,NA,NA,NA,4,#3386FF,#D89F1C,0,10,0,38,1,768,37,1,2541.8999999910593,0,0,experiment,NA,NA,0,0.1,0.9,1,0,186,5,NA
fcp-trial,251,1702018,0.0-196.0-0.0,voc_e2,12349,"[{""event"":""fullscreenenter"",""trial"":1,""time"":8120}]",NA,NA,NA,NA,NA,0,#FA92F8,#1CD855,0,10,1,38,1,1477.7000000029802,39,0,1059.9000000059605,10,0,experiment,NA,NA,2,0.5,0.5,4,5,187,5,NA
fcp-trial,252,1708511,0.0-197.0-0.0,voc_e2,12349,"[{""event"":""fullscreenenter"",""trial"":1,""time"":8120}]",NA,NA,NA,NA,NA,4,#D8271C,#741CD8,0,10,0,38,1,1561.2999999970198,39,0,3423.5999999940395,10,1,experiment,NA,NA,1,0.3,0.7,3,2,188,5,NA
fcp-trial,253,1713184,0.0-198.0-0.0,voc_e2,12349,"[{""event"":""fullscreenenter"",""trial"":1,""time"":8120}]",NA,NA,NA,NA,NA,3,#D89F1C,#3386FF,10,0,1,38,1,1165.4000000059605,37,1,1997.0999999940395,10,1,experiment,NA,NA,0,0.9,0.1,0,1,189,5,NA
fcp-trial,254,1718324,0.0-199.0-0.0,voc_e2,12349,"[{""event"":""fullscreenenter"",""trial"":1,""time"":8120}]",NA,NA,NA,NA,NA,5,#741CD8,#D8271C,10,0,1,38,1,1006.2999999970198,39,0,2623.4000000059605,0,0,experiment,NA,NA,1,0.7,0.3,2,3,190,5,NA
fcp-trial,255,1724254,0.0-200.0-0.0,voc_e2,12349,"[{""event"":""fullscreenenter"",""trial"":1,""time"":8120}]",NA,NA,NA,NA,NA,4,#3386FF,#D89F1C,0,10,0,38,1,872.8000000119209,37,1,3548.5,0,0,experiment,NA,NA,0,0.1,0.9,1,0,191,5,NA
fcp-trial,256,1728567,0.0-201.0-0.0,voc_e2,12349,"[{""event"":""fullscreenenter"",""trial"":1,""time"":8120}]",NA,NA,NA,NA,NA,3,#1CD855,#FA92F8,10,10,0,38,1,905.7000000029802,37,1,1898.29999999702,10,0,experiment,NA,NA,2,0.5,0.5,5,4,192,5,NA
fcp-trial,257,1732540,0.0-202.0-0.0,voc_e2,12349,"[{""event"":""fullscreenenter"",""trial"":1,""time"":8120}]",NA,NA,NA,NA,NA,2,#D89F1C,#3386FF,10,0,1,38,1,958.4000000059605,37,1,1505,10,1,experiment,NA,NA,0,0.9,0.1,0,1,193,5,NA
fcp-trial,258,1737102,0.0-203.0-0.0,voc_e2,12349,"[{""event"":""fullscreenenter"",""trial"":1,""time"":8120}]",NA,NA,NA,NA,NA,4,#D8271C,#741CD8,0,10,0,38,1,786.8000000119209,37,1,2264.3999999910593,0,0,experiment,NA,NA,1,0.3,0.7,3,2,194,5,NA
fcp-trial,259,1741037,0.0-204.0-0.0,voc_e2,12349,"[{""event"":""fullscreenenter"",""trial"":1,""time"":8120}]",NA,NA,NA,NA,NA,1,#1CD855,#FA92F8,0,0,0,38,1,938.6999999880791,37,1,1488.9000000059605,0,0,experiment,NA,NA,2,0.5,0.5,5,4,195,5,NA
fcp-trial,260,1747369,0.0-205.0-0.0,voc_e2,12349,"[{""event"":""fullscreenenter"",""trial"":1,""time"":8120}]",NA,NA,NA,NA,NA,6,#741CD8,#D8271C,10,0,1,38,1,2076.7999999970198,39,0,2746.5999999940395,0,0,experiment,NA,NA,1,0.7,0.3,2,3,196,5,NA
fcp-trial,261,1753440,0.0-206.0-0.0,voc_e2,12349,"[{""event"":""fullscreenenter"",""trial"":1,""time"":8120}]",NA,NA,NA,NA,NA,6,#D89F1C,#3386FF,10,0,1,38,1,1111.1000000089407,39,0,3448.5,0,0,experiment,NA,NA,0,0.9,0.1,0,1,197,5,NA
fcp-trial,262,1758394,0.0-207.0-0.0,voc_e2,12349,"[{""event"":""fullscreenenter"",""trial"":1,""time"":8120}]",NA,NA,NA,NA,NA,0,#1CD855,#FA92F8,0,0,0,38,1,958.1000000089407,37,1,2483.5,0,0,experiment,NA,NA,2,0.5,0.5,5,4,198,5,NA
fcp-trial,263,1764526,0.0-208.0-0.0,voc_e2,12349,"[{""event"":""fullscreenenter"",""trial"":1,""time"":8120}]",NA,NA,NA,NA,NA,6,#1CD855,#FA92F8,10,10,0,38,1,1472,39,0,3151.300000011921,10,1,experiment,NA,NA,2,0.5,0.5,5,4,199,5,NA
fcp-trial,264,1770325,0.0-209.0-0.0,voc_e2,12349,"[{""event"":""fullscreenenter"",""trial"":1,""time"":8120}]",NA,NA,NA,NA,NA,5,#3386FF,#D89F1C,0,10,0,38,1,1439.7999999970198,39,0,2849.79999999702,10,1,experiment,NA,NA,0,0.1,0.9,1,0,200,5,NA
fcp-trial,265,1774789,0.0-210.0-0.0,voc_e2,12349,"[{""event"":""fullscreenenter"",""trial"":1,""time"":8120}]",NA,NA,NA,NA,NA,2,#741CD8,#D8271C,10,0,1,38,1,864,37,1,2091.29999999702,10,1,experiment,NA,NA,1,0.7,0.3,2,3,201,5,NA
fcp-trial,266,1778168,0.0-211.0-0.0,voc_e2,12349,"[{""event"":""fullscreenenter"",""trial"":1,""time"":8120}]",NA,NA,NA,NA,NA,0,#D89F1C,#3386FF,10,0,1,38,1,841.2999999970198,39,0,1028.4000000059605,0,0,experiment,NA,NA,0,0.9,0.1,0,1,202,5,NA
fcp-trial,267,1784616,0.0-212.0-0.0,voc_e2,12349,"[{""event"":""fullscreenenter"",""trial"":1,""time"":8120}]",NA,NA,NA,NA,NA,3,#3386FF,#D89F1C,10,10,0,38,1,1880.7000000029802,37,1,3056.0999999940395,10,0,experiment,NA,NA,0,0.1,0.9,1,0,203,5,NA
fcp-trial,268,1790131,0.0-213.0-0.0,voc_e2,12349,"[{""event"":""fullscreenenter"",""trial"":1,""time"":8120}]",NA,NA,NA,NA,NA,4,#1CD855,#FA92F8,0,0,0,38,1,1065.2000000029802,39,0,2939,0,1,experiment,NA,NA,2,0.5,0.5,5,4,204,5,NA
fcp-trial,269,1795061,0.0-214.0-0.0,voc_e2,12349,"[{""event"":""fullscreenenter"",""trial"":1,""time"":8120}]",NA,NA,NA,NA,NA,3,#D8271C,#741CD8,10,10,0,38,1,810.2999999970198,37,1,2609,10,0,experiment,NA,NA,1,0.3,0.7,3,2,205,5,NA
fcp-trial,270,1801991,0.0-215.0-0.0,voc_e2,12349,"[{""event"":""fullscreenenter"",""trial"":1,""time"":8120}]",NA,NA,NA,NA,NA,5,#FA92F8,#1CD855,0,10,1,38,1,1464.6000000089407,39,0,3954.900000005961,10,0,experiment,NA,NA,2,0.5,0.5,4,5,206,5,NA
fcp-trial,271,1808260,0.0-216.0-0.0,voc_e2,12349,"[{""event"":""fullscreenenter"",""trial"":1,""time"":8120}]",NA,NA,NA,NA,NA,1,#3386FF,#D89F1C,0,10,0,38,1,1608.5,37,1,3151.70000000298,0,0,experiment,NA,NA,0,0.1,0.9,1,0,207,5,NA
fcp-trial,272,1812976,0.0-217.0-0.0,voc_e2,12349,"[{""event"":""fullscreenenter"",""trial"":1,""time"":8120}]",NA,NA,NA,NA,NA,2,#1CD855,#FA92F8,10,10,0,38,1,761.3999999910593,37,1,2445.6000000089407,10,0,experiment,NA,NA,2,0.5,0.5,5,4,208,5,NA
fcp-trial,273,1816411,0.0-218.0-0.0,voc_e2,12349,"[{""event"":""fullscreenenter"",""trial"":1,""time"":8120}]",NA,NA,NA,NA,NA,0,#D8271C,#741CD8,0,0,0,38,1,878.7000000029802,39,0,1046.5999999940395,0,1,experiment,NA,NA,1,0.3,0.7,3,2,209,5,NA
fcp-trial,274,1820255,0.0-219.0-0.0,voc_e2,12349,"[{""event"":""fullscreenenter"",""trial"":1,""time"":8120}]",NA,NA,NA,NA,NA,1,#D8271C,#741CD8,10,10,0,38,1,1088.5,39,0,1245.5999999940395,10,1,experiment,NA,NA,1,0.3,0.7,3,2,210,5,NA
audio-instructions,275,1825773,0.0-220.0,voc_e2,12349,"[{""event"":""fullscreenenter"",""trial"":1,""time"":8120}]",NA,1042.6000000089407,static/audio/pause.wav,NA,0,NA,NA,NA,NA,NA,NA,NA,NA,NA,NA,NA,NA,NA,NA,NA,NA,NA,NA,NA,NA,NA,NA,NA,NA,NA
fcp-trial,276,1830664,0.0-221.0-0.0,voc_e2,12349,"[{""event"":""fullscreenenter"",""trial"":1,""time"":8120}]",NA,NA,NA,NA,NA,1,#3386FF,#D89F1C,0,10,0,38,1,2014.1000000089407,39,0,1370,10,1,experiment,NA,NA,0,0.1,0.9,1,0,211,5,NA
fcp-trial,277,1834888,0.0-222.0-0.0,voc_e2,12349,"[{""event"":""fullscreenenter"",""trial"":1,""time"":8120}]",NA,NA,NA,NA,NA,5,#D89F1C,#3386FF,10,0,1,38,1,1110.1000000089407,37,1,1604.699999988079,10,1,experiment,NA,NA,0,0.9,0.1,0,1,212,5,NA
fcp-trial,278,1839799,0.0-223.0-0.0,voc_e2,12349,"[{""event"":""fullscreenenter"",""trial"":1,""time"":8120}]",NA,NA,NA,NA,NA,3,#741CD8,#D8271C,0,10,1,38,1,1417.5999999940395,39,0,1982.29999999702,10,0,experiment,NA,NA,1,0.7,0.3,2,3,213,5,NA
fcp-trial,279,1843367,0.0-224.0-0.0,voc_e2,12349,"[{""event"":""fullscreenenter"",""trial"":1,""time"":8120}]",NA,NA,NA,NA,NA,0,#D8271C,#741CD8,0,0,0,38,1,991.6000000089407,37,1,1062.8999999910593,0,0,experiment,NA,NA,1,0.3,0.7,3,2,214,5,NA
fcp-trial,280,1846524,0.0-225.0-0.0,voc_e2,12349,"[{""event"":""fullscreenenter"",""trial"":1,""time"":8120}]",NA,NA,NA,NA,NA,1,#1CD855,#FA92F8,0,10,0,38,1,898.5,37,1,747.2000000029802,0,0,experiment,NA,NA,2,0.5,0.5,5,4,215,5,NA
fcp-trial,281,1851794,0.0-226.0-0.0,voc_e2,12349,"[{""event"":""fullscreenenter"",""trial"":1,""time"":8120}]",NA,NA,NA,NA,NA,5,#741CD8,#D8271C,10,10,1,38,1,1041.2000000029802,39,0,2717.8999999910593,10,0,experiment,NA,NA,1,0.7,0.3,2,3,216,5,NA
fcp-trial,282,1856829,0.0-227.0-0.0,voc_e2,12349,"[{""event"":""fullscreenenter"",""trial"":1,""time"":8120}]",NA,NA,NA,NA,NA,4,#D89F1C,#3386FF,10,0,1,38,1,948.8999999910593,39,0,2579,0,0,experiment,NA,NA,0,0.9,0.1,0,1,217,5,NA
fcp-trial,283,1861701,0.0-228.0-0.0,voc_e2,12349,"[{""event"":""fullscreenenter"",""trial"":1,""time"":8120}]",NA,NA,NA,NA,NA,3,#1CD855,#FA92F8,10,10,0,38,1,858,39,0,2505,10,1,experiment,NA,NA,2,0.5,0.5,5,4,218,5,NA
fcp-trial,284,1865659,0.0-229.0-0.0,voc_e2,12349,"[{""event"":""fullscreenenter"",""trial"":1,""time"":8120}]",NA,NA,NA,NA,NA,1,#D8271C,#741CD8,0,10,0,38,1,684.3999999910593,37,1,1763,0,0,experiment,NA,NA,1,0.3,0.7,3,2,219,5,NA
fcp-trial,285,1870921,0.0-230.0-0.0,voc_e2,12349,"[{""event"":""fullscreenenter"",""trial"":1,""time"":8120}]",NA,NA,NA,NA,NA,4,#1CD855,#FA92F8,10,0,0,38,1,1462.9000000059605,39,0,2287.5999999940395,0,1,experiment,NA,NA,2,0.5,0.5,5,4,220,5,NA
fcp-trial,286,1876234,0.0-231.0-0.0,voc_e2,12349,"[{""event"":""fullscreenenter"",""trial"":1,""time"":8120}]",NA,NA,NA,NA,NA,6,#741CD8,#D8271C,10,0,1,38,1,1071.2000000029802,37,1,2732.8999999910593,10,1,experiment,NA,NA,1,0.7,0.3,2,3,221,5,NA
fcp-trial,287,1881132,0.0-232.0-0.0,voc_e2,12349,"[{""event"":""fullscreenenter"",""trial"":1,""time"":8120}]",NA,NA,NA,NA,NA,3,#D89F1C,#3386FF,10,0,1,38,1,1006.6000000089407,39,0,2382.5,0,0,experiment,NA,NA,0,0.9,0.1,0,1,222,5,NA
fcp-trial,288,1886036,0.0-233.0-0.0,voc_e2,12349,"[{""event"":""fullscreenenter"",""trial"":1,""time"":8120}]",NA,NA,NA,NA,NA,6,#FA92F8,#1CD855,10,0,1,38,1,790.5,39,0,2605.29999999702,0,0,experiment,NA,NA,2,0.5,0.5,4,5,223,5,NA
fcp-trial,289,1890447,0.0-234.0-0.0,voc_e2,12349,"[{""event"":""fullscreenenter"",""trial"":1,""time"":8120}]",NA,NA,NA,NA,NA,4,#741CD8,#D8271C,0,10,1,38,1,750.7999999970198,39,0,2148.800000011921,10,0,experiment,NA,NA,1,0.7,0.3,2,3,224,5,NA
fcp-trial,290,1897440,0.0-235.0-0.0,voc_e2,12349,"[{""event"":""fullscreenenter"",""trial"":1,""time"":8120}]",NA,NA,NA,NA,NA,2,#D89F1C,#3386FF,10,0,1,38,1,795.9000000059605,39,0,4685.4000000059605,0,0,experiment,NA,NA,0,0.9,0.1,0,1,225,5,NA
fcp-trial,291,1903424,0.0-236.0-0.0,voc_e2,12349,"[{""event"":""fullscreenenter"",""trial"":1,""time"":8120}]",NA,NA,NA,NA,NA,6,#3386FF,#D89F1C,0,10,0,38,1,1878.300000011921,37,1,2594.800000011921,0,0,experiment,NA,NA,0,0.1,0.9,1,0,226,6,NA
fcp-trial,292,1908810,0.0-237.0-0.0,voc_e2,12349,"[{""event"":""fullscreenenter"",""trial"":1,""time"":8120}]",NA,NA,NA,NA,NA,2,#741CD8,#D8271C,0,0,1,38,1,925.7999999970198,39,0,2949.79999999702,0,0,experiment,NA,NA,1,0.7,0.3,2,3,227,6,NA
fcp-trial,293,1912201,0.0-238.0-0.0,voc_e2,12349,"[{""event"":""fullscreenenter"",""trial"":1,""time"":8120}]",NA,NA,NA,NA,NA,0,#FA92F8,#1CD855,0,0,1,38,1,1190.1000000089407,37,1,690.7000000029802,0,1,experiment,NA,NA,2,0.5,0.5,4,5,228,6,NA
fcp-trial,294,1916143,0.0-239.0-0.0,voc_e2,12349,"[{""event"":""fullscreenenter"",""trial"":1,""time"":8120}]",NA,NA,NA,NA,NA,2,#FA92F8,#1CD855,0,10,1,38,1,984.5,37,1,1447.5,0,1,experiment,NA,NA,2,0.5,0.5,4,5,229,6,NA
fcp-trial,295,1919412,0.0-240.0-0.0,voc_e2,12349,"[{""event"":""fullscreenenter"",""trial"":1,""time"":8120}]",NA,NA,NA,NA,NA,0,#D89F1C,#3386FF,10,0,1,38,1,774,39,0,985.9000000059604,0,0,experiment,NA,NA,0,0.9,0.1,0,1,230,6,NA
fcp-trial,296,1924189,0.0-241.0-0.0,voc_e2,12349,"[{""event"":""fullscreenenter"",""trial"":1,""time"":8120}]",NA,NA,NA,NA,NA,5,#FA92F8,#1CD855,0,10,1,38,1,964.8000000119209,39,0,2301.8999999910593,10,0,experiment,NA,NA,2,0.5,0.5,4,5,231,6,NA
fcp-trial,297,1930810,0.0-242.0-0.0,voc_e2,12349,"[{""event"":""fullscreenenter"",""trial"":1,""time"":8120}]",NA,NA,NA,NA,NA,5,#3386FF,#D89F1C,0,10,0,38,1,1453.5,37,1,3660.5,0,0,experiment,NA,NA,0,0.1,0.9,1,0,232,6,NA
fcp-trial,298,1935914,0.0-243.0-0.0,voc_e2,12349,"[{""event"":""fullscreenenter"",""trial"":1,""time"":8120}]",NA,NA,NA,NA,NA,5,#FA92F8,#1CD855,10,10,1,38,1,978.7000000029802,37,1,2616.20000000298,10,1,experiment,NA,NA,2,0.5,0.5,4,5,233,6,NA
fcp-trial,299,1940582,0.0-244.0-0.0,voc_e2,12349,"[{""event"":""fullscreenenter"",""trial"":1,""time"":8120}]",NA,NA,NA,NA,NA,2,#D89F1C,#3386FF,10,0,1,38,1,1614.2000000029802,39,0,1544.9000000059605,0,0,experiment,NA,NA,0,0.9,0.1,0,1,234,6,NA
fcp-trial,300,1944922,0.0-245.0-0.0,voc_e2,12349,"[{""event"":""fullscreenenter"",""trial"":1,""time"":8120}]",NA,NA,NA,NA,NA,2,#741CD8,#D8271C,10,0,1,38,1,928.7999999970198,37,1,1899.1000000089407,10,1,experiment,NA,NA,1,0.7,0.3,2,3,235,6,NA
fcp-trial,301,1949401,0.0-246.0-0.0,voc_e2,12349,"[{""event"":""fullscreenenter"",""trial"":1,""time"":8120}]",NA,NA,NA,NA,NA,6,#1CD855,#FA92F8,0,0,0,38,1,1304.2999999970198,39,0,1664.800000011921,0,1,experiment,NA,NA,2,0.5,0.5,5,4,236,6,NA
fcp-trial,302,1953615,0.0-247.0-0.0,voc_e2,12349,"[{""event"":""fullscreenenter"",""trial"":1,""time"":8120}]",NA,NA,NA,NA,NA,0,#D89F1C,#3386FF,10,0,1,38,1,1470.3999999910593,37,1,1233.0999999940395,10,1,experiment,NA,NA,0,0.9,0.1,0,1,237,6,NA
fcp-trial,303,1959555,0.0-248.0-0.0,voc_e2,12349,"[{""event"":""fullscreenenter"",""trial"":1,""time"":8120}]",NA,NA,NA,NA,NA,6,#D8271C,#741CD8,0,10,0,38,1,1725.9000000059605,39,0,2703.70000000298,10,1,experiment,NA,NA,1,0.3,0.7,3,2,238,6,NA
fcp-trial,304,1965124,0.0-249.0-0.0,voc_e2,12349,"[{""event"":""fullscreenenter"",""trial"":1,""time"":8120}]",NA,NA,NA,NA,NA,6,#D89F1C,#3386FF,10,0,1,38,1,938.7000000029802,39,0,3122.199999988079,0,0,experiment,NA,NA,0,0.9,0.1,0,1,239,6,NA
fcp-trial,305,1969664,0.0-250.0-0.0,voc_e2,12349,"[{""event"":""fullscreenenter"",""trial"":1,""time"":8120}]",NA,NA,NA,NA,NA,2,#1CD855,#FA92F8,10,10,0,38,1,955.5,37,1,2073.29999999702,10,0,experiment,NA,NA,2,0.5,0.5,5,4,240,6,NA
fcp-trial,306,1974187,0.0-251.0-0.0,voc_e2,12349,"[{""event"":""fullscreenenter"",""trial"":1,""time"":8120}]",NA,NA,NA,NA,NA,5,#D8271C,#741CD8,0,10,0,38,1,749.2000000029802,37,1,2265.29999999702,0,0,experiment,NA,NA,1,0.3,0.7,3,2,241,6,NA
fcp-trial,307,1978999,0.0-252.0-0.0,voc_e2,12349,"[{""event"":""fullscreenenter"",""trial"":1,""time"":8120}]",NA,NA,NA,NA,NA,3,#1CD855,#FA92F8,10,0,0,38,1,1470,39,0,1831.699999988079,0,1,experiment,NA,NA,2,0.5,0.5,5,4,242,6,NA
fcp-trial,308,1982781,0.0-253.0-0.0,voc_e2,12349,"[{""event"":""fullscreenenter"",""trial"":1,""time"":8120}]",NA,NA,NA,NA,NA,1,#FA92F8,#1CD855,0,10,1,38,1,861.2000000029802,37,1,1410.4000000059605,0,1,experiment,NA,NA,2,0.5,0.5,4,5,243,6,NA
fcp-trial,309,1987828,0.0-254.0-0.0,voc_e2,12349,"[{""event"":""fullscreenenter"",""trial"":1,""time"":8120}]",NA,NA,NA,NA,NA,4,#3386FF,#D89F1C,0,10,0,38,1,770.6000000089407,39,0,2766.5,10,1,experiment,NA,NA,0,0.1,0.9,1,0,244,6,NA
fcp-trial,310,1992949,0.0-255.0-0.0,voc_e2,12349,"[{""event"":""fullscreenenter"",""trial"":1,""time"":8120}]",NA,NA,NA,NA,NA,3,#741CD8,#D8271C,10,0,1,38,1,777.3999999910593,37,1,2835.699999988079,10,1,experiment,NA,NA,1,0.7,0.3,2,3,245,6,NA
fcp-trial,311,1996458,0.0-256.0-0.0,voc_e2,12349,"[{""event"":""fullscreenenter"",""trial"":1,""time"":8120}]",NA,NA,NA,NA,NA,0,#FA92F8,#1CD855,10,10,1,38,1,893.3999999910593,39,0,1108.0999999940395,10,0,experiment,NA,NA,2,0.5,0.5,4,5,246,6,NA
fcp-trial,312,2000727,0.0-257.0-0.0,voc_e2,12349,"[{""event"":""fullscreenenter"",""trial"":1,""time"":8120}]",NA,NA,NA,NA,NA,1,#D89F1C,#3386FF,10,10,1,38,1,1429.2999999970198,37,1,1329.800000011921,10,1,experiment,NA,NA,0,0.9,0.1,0,1,247,6,NA
fcp-trial,313,2004281,0.0-258.0-0.0,voc_e2,12349,"[{""event"":""fullscreenenter"",""trial"":1,""time"":8120}]",NA,NA,NA,NA,NA,0,#D8271C,#741CD8,10,10,0,38,1,1173.8999999910593,39,0,869.2000000029802,10,1,experiment,NA,NA,1,0.3,0.7,3,2,248,6,NA
fcp-trial,314,2009246,0.0-259.0-0.0,voc_e2,12349,"[{""event"":""fullscreenenter"",""trial"":1,""time"":8120}]",NA,NA,NA,NA,NA,3,#D89F1C,#3386FF,10,0,1,38,1,893.5,37,1,2561.300000011921,10,1,experiment,NA,NA,0,0.9,0.1,0,1,249,6,NA
fcp-trial,315,2013514,0.0-260.0-0.0,voc_e2,12349,"[{""event"":""fullscreenenter"",""trial"":1,""time"":8120}]",NA,NA,NA,NA,NA,1,#741CD8,#D8271C,10,0,1,38,1,1332.5999999940395,37,1,1427.7000000029802,10,1,experiment,NA,NA,1,0.7,0.3,2,3,250,6,NA
fcp-trial,316,2017936,0.0-261.0-0.0,voc_e2,12349,"[{""event"":""fullscreenenter"",""trial"":1,""time"":8120}]",NA,NA,NA,NA,NA,4,#FA92F8,#1CD855,10,10,1,38,1,778.9000000059605,39,0,2132,10,0,experiment,NA,NA,2,0.5,0.5,4,5,251,6,NA
fcp-trial,317,2022406,0.0-262.0-0.0,voc_e2,12349,"[{""event"":""fullscreenenter"",""trial"":1,""time"":8120}]",NA,NA,NA,NA,NA,4,#741CD8,#D8271C,10,0,1,38,1,779.5,39,0,2181.20000000298,0,0,experiment,NA,NA,1,0.7,0.3,2,3,252,6,NA
fcp-trial,318,2026813,0.0-263.0-0.0,voc_e2,12349,"[{""event"":""fullscreenenter"",""trial"":1,""time"":8120}]",NA,NA,NA,NA,NA,1,#3386FF,#D89F1C,10,10,0,38,1,683.2999999970198,37,1,2215.79999999702,10,0,experiment,NA,NA,0,0.1,0.9,1,0,253,6,NA
fcp-trial,319,2031704,0.0-264.0-0.0,voc_e2,12349,"[{""event"":""fullscreenenter"",""trial"":1,""time"":8120}]",NA,NA,NA,NA,NA,5,#741CD8,#D8271C,10,10,1,38,1,888.7000000029802,39,0,2492.20000000298,10,0,experiment,NA,NA,1,0.7,0.3,2,3,254,6,NA
fcp-trial,320,2036326,0.0-265.0-0.0,voc_e2,12349,"[{""event"":""fullscreenenter"",""trial"":1,""time"":8120}]",NA,NA,NA,NA,NA,5,#3386FF,#D89F1C,0,10,0,38,1,809.2000000029802,37,1,2300.199999988079,0,0,experiment,NA,NA,0,0.1,0.9,1,0,255,6,NA
fcp-trial,321,2040543,0.0-266.0-0.0,voc_e2,12349,"[{""event"":""fullscreenenter"",""trial"":1,""time"":8120}]",NA,NA,NA,NA,NA,2,#1CD855,#FA92F8,10,0,0,38,1,788.1000000089407,39,0,1920.20000000298,0,1,experiment,NA,NA,2,0.5,0.5,5,4,256,6,NA
fcp-trial,322,2044427,0.0-267.0-0.0,voc_e2,12349,"[{""event"":""fullscreenenter"",""trial"":1,""time"":8120}]",NA,NA,NA,NA,NA,1,#FA92F8,#1CD855,0,0,1,38,1,1153.4000000059605,37,1,1217.800000011921,0,1,experiment,NA,NA,2,0.5,0.5,4,5,257,6,NA
fcp-trial,323,2048684,0.0-268.0-0.0,voc_e2,12349,"[{""event"":""fullscreenenter"",""trial"":1,""time"":8120}]",NA,NA,NA,NA,NA,0,#D8271C,#741CD8,0,10,0,38,1,916.7999999970198,39,0,1830.0999999940395,10,1,experiment,NA,NA,1,0.3,0.7,3,2,258,6,NA
fcp-trial,324,2053675,0.0-269.0-0.0,voc_e2,12349,"[{""event"":""fullscreenenter"",""trial"":1,""time"":8120}]",NA,NA,NA,NA,NA,5,#1CD855,#FA92F8,10,10,0,38,1,939.2000000029802,37,1,2541.20000000298,10,0,experiment,NA,NA,2,0.5,0.5,5,4,259,6,NA
fcp-trial,325,2057959,0.0-270.0-0.0,voc_e2,12349,"[{""event"":""fullscreenenter"",""trial"":1,""time"":8120}]",NA,NA,NA,NA,NA,4,#3386FF,#D89F1C,0,10,0,38,1,812.0999999940395,39,0,1966,10,1,experiment,NA,NA,0,0.1,0.9,1,0,260,6,NA
fcp-trial,326,2062646,0.0-271.0-0.0,voc_e2,12349,"[{""event"":""fullscreenenter"",""trial"":1,""time"":8120}]",NA,NA,NA,NA,NA,2,#D89F1C,#3386FF,10,0,1,38,1,1225.3999999910593,37,1,1952.9000000059605,10,1,experiment,NA,NA,0,0.9,0.1,0,1,261,6,NA
fcp-trial,327,2068022,0.0-272.0-0.0,voc_e2,12349,"[{""event"":""fullscreenenter"",""trial"":1,""time"":8120}]",NA,NA,NA,NA,NA,3,#1CD855,#FA92F8,10,10,0,38,1,1665.5,37,1,2200.1000000089407,10,0,experiment,NA,NA,2,0.5,0.5,5,4,262,6,NA
fcp-trial,328,2072784,0.0-273.0-0.0,voc_e2,12349,"[{""event"":""fullscreenenter"",""trial"":1,""time"":8120}]",NA,NA,NA,NA,NA,4,#D8271C,#741CD8,0,0,0,38,1,1225.6000000089407,39,0,2028.5,0,1,experiment,NA,NA,1,0.3,0.7,3,2,263,6,NA
fcp-trial,329,2077000,0.0-274.0-0.0,voc_e2,12349,"[{""event"":""fullscreenenter"",""trial"":1,""time"":8120}]",NA,NA,NA,NA,NA,3,#D89F1C,#3386FF,0,10,1,38,1,998.1000000089407,37,1,1705.8999999910593,0,1,experiment,NA,NA,0,0.9,0.1,0,1,264,6,NA
fcp-trial,330,2082033,0.0-275.0-0.0,voc_e2,12349,"[{""event"":""fullscreenenter"",""trial"":1,""time"":8120}]",NA,NA,NA,NA,NA,6,#1CD855,#FA92F8,10,0,0,38,1,829.2000000029802,39,0,2693.3999999910593,0,1,experiment,NA,NA,2,0.5,0.5,5,4,265,6,NA
fcp-trial,331,2087234,0.0-276.0-0.0,voc_e2,12349,"[{""event"":""fullscreenenter"",""trial"":1,""time"":8120}]",NA,NA,NA,NA,NA,6,#D8271C,#741CD8,10,10,0,38,1,775.6999999880791,37,1,2916,10,0,experiment,NA,NA,1,0.3,0.7,3,2,266,6,NA
fcp-trial,332,2091110,0.0-277.0-0.0,voc_e2,12349,"[{""event"":""fullscreenenter"",""trial"":1,""time"":8120}]",NA,NA,NA,NA,NA,2,#741CD8,#D8271C,0,0,1,38,1,847.3999999910593,37,1,1520.5999999940395,0,1,experiment,NA,NA,1,0.7,0.3,2,3,267,6,NA
fcp-trial,333,2096251,0.0-278.0-0.0,voc_e2,12349,"[{""event"":""fullscreenenter"",""trial"":1,""time"":8120}]",NA,NA,NA,NA,NA,6,#3386FF,#D89F1C,0,10,0,38,1,807.3999999910593,39,0,2822.70000000298,10,1,experiment,NA,NA,0,0.1,0.9,1,0,268,6,NA
fcp-trial,334,2099500,0.0-279.0-0.0,voc_e2,12349,"[{""event"":""fullscreenenter"",""trial"":1,""time"":8120}]",NA,NA,NA,NA,NA,0,#3386FF,#D89F1C,0,10,0,38,1,711.1000000089407,37,1,1028.7999999970198,0,0,experiment,NA,NA,0,0.1,0.9,1,0,269,6,NA
fcp-trial,335,2102718,0.0-280.0-0.0,voc_e2,12349,"[{""event"":""fullscreenenter"",""trial"":1,""time"":8120}]",NA,NA,NA,NA,NA,0,#1CD855,#FA92F8,0,0,0,38,1,794.5,39,0,912.9000000059604,0,1,experiment,NA,NA,2,0.5,0.5,5,4,270,6,NA
fcp-trial,336,2107443,0.0-281.0-0.0,voc_e2,12349,"[{""event"":""fullscreenenter"",""trial"":1,""time"":8120}]",NA,NA,NA,NA,NA,4,#FA92F8,#1CD855,10,10,1,38,1,935.5,39,0,2279.20000000298,10,0,experiment,NA,NA,2,0.5,0.5,4,5,271,7,NA
fcp-trial,337,2110941,0.0-282.0-0.0,voc_e2,12349,"[{""event"":""fullscreenenter"",""trial"":1,""time"":8120}]",NA,NA,NA,NA,NA,1,#D8271C,#741CD8,10,10,0,38,1,791.3000000119209,37,1,1199.1000000089407,10,0,experiment,NA,NA,1,0.3,0.7,3,2,272,7,NA
fcp-trial,338,2115123,0.0-283.0-0.0,voc_e2,12349,"[{""event"":""fullscreenenter"",""trial"":1,""time"":8120}]",NA,NA,NA,NA,NA,3,#D8271C,#741CD8,10,0,0,38,1,842.3000000119209,37,1,1830.0999999940395,10,0,experiment,NA,NA,1,0.3,0.7,3,2,273,7,NA
fcp-trial,339,2118941,0.0-284.0-0.0,voc_e2,12349,"[{""event"":""fullscreenenter"",""trial"":1,""time"":8120}]",NA,NA,NA,NA,NA,0,#741CD8,#D8271C,10,0,1,38,1,926.8000000119209,39,0,1378.7000000029802,0,0,experiment,NA,NA,1,0.7,0.3,2,3,274,7,NA
fcp-trial,340,2122651,0.0-285.0-0.0,voc_e2,12349,"[{""event"":""fullscreenenter"",""trial"":1,""time"":8120}]",NA,NA,NA,NA,NA,1,#3386FF,#D89F1C,0,10,0,38,1,825.2000000029802,37,1,1378.0999999940395,0,0,experiment,NA,NA,0,0.1,0.9,1,0,275,7,NA
fcp-trial,341,2126007,0.0-286.0-0.0,voc_e2,12349,"[{""event"":""fullscreenenter"",""trial"":1,""time"":8120}]",NA,NA,NA,NA,NA,0,#D89F1C,#3386FF,10,0,1,38,1,857.3000000119209,39,0,988.7000000029802,0,0,experiment,NA,NA,0,0.9,0.1,0,1,276,7,NA
fcp-trial,342,2131311,0.0-287.0-0.0,voc_e2,12349,"[{""event"":""fullscreenenter"",""trial"":1,""time"":8120}]",NA,NA,NA,NA,NA,2,#D8271C,#741CD8,0,10,0,38,1,1070.9000000059605,37,1,2724.800000011921,0,0,experiment,NA,NA,1,0.3,0.7,3,2,277,7,NA
fcp-trial,343,2136085,0.0-288.0-0.0,voc_e2,12349,"[{""event"":""fullscreenenter"",""trial"":1,""time"":8120}]",NA,NA,NA,NA,NA,3,#3386FF,#D89F1C,0,10,0,38,1,1027.7000000029802,37,1,2233.300000011921,0,0,experiment,NA,NA,0,0.1,0.9,1,0,278,7,NA
fcp-trial,344,2142241,0.0-289.0-0.0,voc_e2,12349,"[{""event"":""fullscreenenter"",""trial"":1,""time"":8120}]",NA,NA,NA,NA,NA,0,#FA92F8,#1CD855,0,0,1,38,1,2758.4000000059605,37,1,1889,0,1,experiment,NA,NA,2,0.5,0.5,4,5,279,7,NA
fcp-trial,345,2148272,0.0-290.0-0.0,voc_e2,12349,"[{""event"":""fullscreenenter"",""trial"":1,""time"":8120}]",NA,NA,NA,NA,NA,5,#1CD855,#FA92F8,10,10,0,38,1,1739.9000000059605,39,0,2778.5,10,1,experiment,NA,NA,2,0.5,0.5,5,4,280,7,NA
fcp-trial,346,2155713,0.0-291.0-0.0,voc_e2,12349,"[{""event"":""fullscreenenter"",""trial"":1,""time"":8120}]",NA,NA,NA,NA,NA,2,#3386FF,#D89F1C,0,10,0,38,1,3231.2000000029802,39,0,2698.20000000298,10,1,experiment,NA,NA,0,0.1,0.9,1,0,281,7,NA
fcp-trial,347,2161102,0.0-292.0-0.0,voc_e2,12349,"[{""event"":""fullscreenenter"",""trial"":1,""time"":8120}]",NA,NA,NA,NA,NA,3,#741CD8,#D8271C,10,0,1,38,1,1586.6000000089407,39,0,2294.70000000298,0,0,experiment,NA,NA,1,0.7,0.3,2,3,282,7,NA
fcp-trial,348,2166261,0.0-293.0-0.0,voc_e2,12349,"[{""event"":""fullscreenenter"",""trial"":1,""time"":8120}]",NA,NA,NA,NA,NA,1,#1CD855,#FA92F8,0,10,0,38,1,1746.2000000029802,37,1,1904.20000000298,0,0,experiment,NA,NA,2,0.5,0.5,5,4,283,7,NA
fcp-trial,349,2172653,0.0-294.0-0.0,voc_e2,12349,"[{""event"":""fullscreenenter"",""trial"":1,""time"":8120}]",NA,NA,NA,NA,NA,6,#D89F1C,#3386FF,10,0,1,38,1,1498,37,1,3380.8999999910593,10,1,experiment,NA,NA,0,0.9,0.1,0,1,284,7,NA
fcp-trial,350,2178468,0.0-295.0-0.0,voc_e2,12349,"[{""event"":""fullscreenenter"",""trial"":1,""time"":8120}]",NA,NA,NA,NA,NA,4,#1CD855,#FA92F8,0,0,0,38,1,1156.7000000029802,39,0,3143.20000000298,0,1,experiment,NA,NA,2,0.5,0.5,5,4,285,7,NA
fcp-trial,351,2185148,0.0-296.0-0.0,voc_e2,12349,"[{""event"":""fullscreenenter"",""trial"":1,""time"":8120}]",NA,NA,NA,NA,NA,5,#D8271C,#741CD8,0,10,0,38,1,995.3999999910593,39,0,4172.5999999940395,10,1,experiment,NA,NA,1,0.3,0.7,3,2,286,7,NA
fcp-trial,352,2191120,0.0-297.0-0.0,voc_e2,12349,"[{""event"":""fullscreenenter"",""trial"":1,""time"":8120}]",NA,NA,NA,NA,NA,6,#D8271C,#741CD8,0,10,0,38,1,1000,39,0,3461.9000000059605,10,1,experiment,NA,NA,1,0.3,0.7,3,2,287,7,NA
fcp-trial,353,2195528,0.0-298.0-0.0,voc_e2,12349,"[{""event"":""fullscreenenter"",""trial"":1,""time"":8120}]",NA,NA,NA,NA,NA,2,#FA92F8,#1CD855,0,0,1,38,1,939.4000000059605,37,1,1960.29999999702,0,1,experiment,NA,NA,2,0.5,0.5,4,5,288,7,NA
fcp-trial,354,2201430,0.0-299.0-0.0,voc_e2,12349,"[{""event"":""fullscreenenter"",""trial"":1,""time"":8120}]",NA,NA,NA,NA,NA,5,#3386FF,#D89F1C,0,10,0,38,1,1896.7000000029802,39,0,2497,10,1,experiment,NA,NA,0,0.1,0.9,1,0,289,7,NA
fcp-trial,355,2205953,0.0-300.0-0.0,voc_e2,12349,"[{""event"":""fullscreenenter"",""trial"":1,""time"":8120}]",NA,NA,NA,NA,NA,4,#741CD8,#D8271C,10,0,1,38,1,806.5,37,1,2204.79999999702,10,1,experiment,NA,NA,1,0.7,0.3,2,3,290,7,NA
fcp-trial,356,2211077,0.0-301.0-0.0,voc_e2,12349,"[{""event"":""fullscreenenter"",""trial"":1,""time"":8120}]",NA,NA,NA,NA,NA,6,#FA92F8,#1CD855,10,10,1,38,1,826.5,39,0,2788.5,10,0,experiment,NA,NA,2,0.5,0.5,4,5,291,7,NA
fcp-trial,357,2214849,0.0-302.0-0.0,voc_e2,12349,"[{""event"":""fullscreenenter"",""trial"":1,""time"":8120}]",NA,NA,NA,NA,NA,1,#D8271C,#741CD8,0,10,0,38,1,859.2999999970198,37,1,1403.7999999970198,0,0,experiment,NA,NA,1,0.3,0.7,3,2,292,7,NA
fcp-trial,358,2220192,0.0-303.0-0.0,voc_e2,12349,"[{""event"":""fullscreenenter"",""trial"":1,""time"":8120}]",NA,NA,NA,NA,NA,3,#1CD855,#FA92F8,10,10,0,38,1,876.5999999940395,37,1,2958.6000000089407,10,0,experiment,NA,NA,2,0.5,0.5,5,4,293,7,NA
fcp-trial,359,2225865,0.0-304.0-0.0,voc_e2,12349,"[{""event"":""fullscreenenter"",""trial"":1,""time"":8120}]",NA,NA,NA,NA,NA,4,#D89F1C,#3386FF,10,0,1,38,1,1697.3999999910593,37,1,2466.5999999940395,10,1,experiment,NA,NA,0,0.9,0.1,0,1,294,7,NA
fcp-trial,360,2233773,0.0-305.0-0.0,voc_e2,12349,"[{""event"":""fullscreenenter"",""trial"":1,""time"":8120}]",NA,NA,NA,NA,NA,5,#741CD8,#D8271C,10,0,1,38,1,1758.7000000029802,37,1,4638.5999999940395,10,1,experiment,NA,NA,1,0.7,0.3,2,3,295,7,NA
fcp-trial,361,2237407,0.0-306.0-0.0,voc_e2,12349,"[{""event"":""fullscreenenter"",""trial"":1,""time"":8120}]",NA,NA,NA,NA,NA,1,#1CD855,#FA92F8,0,0,0,38,1,1016.5,39,0,1107.5999999940395,0,1,experiment,NA,NA,2,0.5,0.5,5,4,296,7,NA
fcp-trial,362,2242389,0.0-307.0-0.0,voc_e2,12349,"[{""event"":""fullscreenenter"",""trial"":1,""time"":8120}]",NA,NA,NA,NA,NA,6,#3386FF,#D89F1C,0,10,0,38,1,853.5999999940395,39,0,2620.199999988079,10,1,experiment,NA,NA,0,0.1,0.9,1,0,297,7,NA
fcp-trial,363,2245945,0.0-308.0-0.0,voc_e2,12349,"[{""event"":""fullscreenenter"",""trial"":1,""time"":8120}]",NA,NA,NA,NA,NA,1,#D8271C,#741CD8,0,10,0,38,1,870,39,0,1174.5,10,1,experiment,NA,NA,1,0.3,0.7,3,2,298,7,NA
fcp-trial,364,2250881,0.0-309.0-0.0,voc_e2,12349,"[{""event"":""fullscreenenter"",""trial"":1,""time"":8120}]",NA,NA,NA,NA,NA,5,#1CD855,#FA92F8,0,10,0,38,1,1066.9000000059605,39,0,2362.4000000059605,10,1,experiment,NA,NA,2,0.5,0.5,5,4,299,7,NA
fcp-trial,365,2254463,0.0-310.0-0.0,voc_e2,12349,"[{""event"":""fullscreenenter"",""trial"":1,""time"":8120}]",NA,NA,NA,NA,NA,2,#D89F1C,#3386FF,10,0,1,38,1,668.5999999940395,39,0,1404.9000000059605,0,0,experiment,NA,NA,0,0.9,0.1,0,1,300,7,NA
fcp-trial,366,2259421,0.0-311.0-0.0,voc_e2,12349,"[{""event"":""fullscreenenter"",""trial"":1,""time"":8120}]",NA,NA,NA,NA,NA,6,#D8271C,#741CD8,0,0,0,38,1,955.5,39,0,2491.70000000298,0,1,experiment,NA,NA,1,0.3,0.7,3,2,301,7,NA
fcp-trial,367,2264409,0.0-312.0-0.0,voc_e2,12349,"[{""event"":""fullscreenenter"",""trial"":1,""time"":8120}]",NA,NA,NA,NA,NA,4,#1CD855,#FA92F8,0,10,0,38,1,897.0999999940395,37,1,2578.5,0,0,experiment,NA,NA,2,0.5,0.5,5,4,302,7,NA
fcp-trial,368,2269044,0.0-313.0-0.0,voc_e2,12349,"[{""event"":""fullscreenenter"",""trial"":1,""time"":8120}]",NA,NA,NA,NA,NA,4,#D89F1C,#3386FF,10,0,1,38,1,920.2000000029802,39,0,2204.6000000089407,0,0,experiment,NA,NA,0,0.9,0.1,0,1,303,7,NA
fcp-trial,369,2273430,0.0-314.0-0.0,voc_e2,12349,"[{""event"":""fullscreenenter"",""trial"":1,""time"":8120}]",NA,NA,NA,NA,NA,1,#D89F1C,#3386FF,10,0,1,38,1,972.3999999910593,39,0,1904.70000000298,0,0,experiment,NA,NA,0,0.9,0.1,0,1,304,7,NA
fcp-trial,370,2277890,0.0-315.0-0.0,voc_e2,12349,"[{""event"":""fullscreenenter"",""trial"":1,""time"":8120}]",NA,NA,NA,NA,NA,2,#741CD8,#D8271C,10,0,1,38,1,1019.8000000119209,37,1,1931.5,10,1,experiment,NA,NA,1,0.7,0.3,2,3,305,7,NA
fcp-trial,371,2282292,0.0-316.0-0.0,voc_e2,12349,"[{""event"":""fullscreenenter"",""trial"":1,""time"":8120}]",NA,NA,NA,NA,NA,3,#D89F1C,#3386FF,10,0,1,38,1,1047,37,1,1850.20000000298,10,1,experiment,NA,NA,0,0.9,0.1,0,1,306,7,NA
fcp-trial,372,2287522,0.0-317.0-0.0,voc_e2,12349,"[{""event"":""fullscreenenter"",""trial"":1,""time"":8120}]",NA,NA,NA,NA,NA,6,#1CD855,#FA92F8,0,0,0,38,1,806.1999999880791,39,0,2915.29999999702,0,1,experiment,NA,NA,2,0.5,0.5,5,4,307,7,NA
fcp-trial,373,2291525,0.0-318.0-0.0,voc_e2,12349,"[{""event"":""fullscreenenter"",""trial"":1,""time"":8120}]",NA,NA,NA,NA,NA,0,#1CD855,#FA92F8,0,10,0,38,1,759.7000000029802,37,1,1732.6000000089407,0,0,experiment,NA,NA,2,0.5,0.5,5,4,308,7,NA
fcp-trial,374,2296116,0.0-319.0-0.0,voc_e2,12349,"[{""event"":""fullscreenenter"",""trial"":1,""time"":8120}]",NA,NA,NA,NA,NA,0,#D8271C,#741CD8,10,0,0,38,1,1172.5,37,1,1909.4000000059605,10,0,experiment,NA,NA,1,0.3,0.7,3,2,309,7,NA
fcp-trial,375,2301650,0.0-320.0-0.0,voc_e2,12349,"[{""event"":""fullscreenenter"",""trial"":1,""time"":8120}]",NA,NA,NA,NA,NA,5,#D89F1C,#3386FF,10,0,1,40,0,2481.9000000059605,39,0,1541,0,0,experiment,NA,NA,0,0.9,0.1,0,1,310,7,NA
fcp-trial,376,2308051,0.0-321.0-0.0,voc_e2,12349,"[{""event"":""fullscreenenter"",""trial"":1,""time"":8120}]",NA,NA,NA,NA,NA,3,#D8271C,#741CD8,0,10,0,38,1,2324,39,0,2567.20000000298,10,1,experiment,NA,NA,1,0.3,0.7,3,2,311,7,NA
fcp-trial,377,2312951,0.0-322.0-0.0,voc_e2,12349,"[{""event"":""fullscreenenter"",""trial"":1,""time"":8120}]",NA,NA,NA,NA,NA,2,#FA92F8,#1CD855,0,10,1,38,1,1540.2000000029802,37,1,1853.79999999702,0,1,experiment,NA,NA,2,0.5,0.5,4,5,312,7,NA
fcp-trial,378,2316856,0.0-323.0-0.0,voc_e2,12349,"[{""event"":""fullscreenenter"",""trial"":1,""time"":8120}]",NA,NA,NA,NA,NA,0,#D89F1C,#3386FF,10,0,1,38,1,1016.2999999970198,39,0,1377.4000000059605,0,0,experiment,NA,NA,0,0.9,0.1,0,1,313,7,NA
fcp-trial,379,2321609,0.0-324.0-0.0,voc_e2,12349,"[{""event"":""fullscreenenter"",""trial"":1,""time"":8120}]",NA,NA,NA,NA,NA,3,#FA92F8,#1CD855,0,10,1,38,1,1480,37,1,1765.6000000089407,0,1,experiment,NA,NA,2,0.5,0.5,4,5,314,7,NA
fcp-trial,380,2327469,0.0-325.0-0.0,voc_e2,12349,"[{""event"":""fullscreenenter"",""trial"":1,""time"":8120}]",NA,NA,NA,NA,NA,4,#D8271C,#741CD8,0,10,0,38,1,2608.5,39,0,1740.5,10,1,experiment,NA,NA,1,0.3,0.7,3,2,315,7,NA
audio-instructions,381,2337291,0.0-326.0,voc_e2,12349,"[{""event"":""fullscreenenter"",""trial"":1,""time"":8120}]",NA,4133.5,static/audio/finished.wav,NA,0,NA,NA,NA,NA,NA,NA,NA,NA,NA,NA,NA,NA,NA,NA,NA,NA,NA,NA,NA,NA,NA,NA,NA,NA,NA
audio-instructions,382,2349887,0.0-327.0-0.0,voc_e2,12349,"[{""event"":""fullscreenenter"",""trial"":1,""time"":8120}]",NA,1760.199999988079,static/audio/explicit1.wav,NA,0,NA,NA,NA,NA,NA,NA,NA,NA,NA,NA,NA,NA,NA,NA,NA,NA,NA,NA,NA,NA,NA,NA,NA,NA,NA
audio-instructions,383,2358871,0.0-327.0-1.0,voc_e2,12349,"[{""event"":""fullscreenenter"",""trial"":1,""time"":8120}]",NA,1389.9000000059605,static/audio/explicit2.wav,NA,0,NA,NA,NA,NA,NA,NA,NA,NA,NA,NA,NA,NA,NA,NA,NA,NA,NA,NA,NA,NA,NA,NA,NA,NA,NA
image-slider-response,384,2369791,0.0-328.0,voc_e2,12349,"[{""event"":""fullscreenenter"",""trial"":1,""time"":8120}]",NA,10916.60000000894,static/img/machines/machine6.png,NA,NA,NA,NA,NA,NA,NA,NA,NA,NA,NA,NA,NA,NA,NA,NA,explicit,NA,NA,NA,NA,NA,NA,NA,NA,NA,6
image-slider-response,385,2374016,0.0-329.0,voc_e2,12349,"[{""event"":""fullscreenenter"",""trial"":1,""time"":8120}]",NA,4222.70000000298,static/img/machines/machine4.png,NA,NA,NA,NA,NA,NA,NA,NA,NA,NA,NA,NA,NA,NA,NA,NA,explicit,NA,NA,NA,NA,NA,NA,NA,NA,NA,6
image-slider-response,386,2376149,0.0-330.0,voc_e2,12349,"[{""event"":""fullscreenenter"",""trial"":1,""time"":8120}]",NA,2132.29999999702,static/img/machines/machine2.png,NA,NA,NA,NA,NA,NA,NA,NA,NA,NA,NA,NA,NA,NA,NA,NA,explicit,NA,NA,NA,NA,NA,NA,NA,NA,NA,5
image-slider-response,387,2379736,0.0-331.0,voc_e2,12349,"[{""event"":""fullscreenenter"",""trial"":1,""time"":8120}]",NA,3584.20000000298,static/img/machines/machine1.png,NA,NA,NA,NA,NA,NA,NA,NA,NA,NA,NA,NA,NA,NA,NA,NA,explicit,NA,NA,NA,NA,NA,NA,NA,NA,NA,4
image-slider-response,388,2381826,0.0-332.0,voc_e2,12349,"[{""event"":""fullscreenenter"",""trial"":1,""time"":8120}]",NA,2087.1000000089407,static/img/machines/machine3.png,NA,NA,NA,NA,NA,NA,NA,NA,NA,NA,NA,NA,NA,NA,NA,NA,explicit,NA,NA,NA,NA,NA,NA,NA,NA,NA,6
image-slider-response,389,2385308,0.0-333.0,voc_e2,12349,"[{""event"":""fullscreenenter"",""trial"":1,""time"":8120}]",NA,3480,static/img/machines/machine5.png,NA,NA,NA,NA,NA,NA,NA,NA,NA,NA,NA,NA,NA,NA,NA,NA,explicit,NA,NA,NA,NA,NA,NA,NA,NA,NA,6
