trial_type,trial_index,time_elapsed,internal_node_id,task_version,subject_id,interactions,success,rt,stimulus,key_press,button_pressed,offer,arcade_color_L,arcade_color_R,arcade_outcome_L,arcade_outcome_R,correct,stage_1_key,stage_1_choice,stage_1_rt,stage_2_key,stage_2_choice,stage_2_rt,stage_3_outcome,accuracy,phase,responses,num_errors,context,reward_prob_L,reward_prob_R,arcade_id_L,arcade_id_R,trial,block,response
pavlovia,0,18,0.0-0.0,voc_e2,11912,"[{""event"":""focus"",""trial"":0,""time"":0}]",NA,NA,NA,NA,NA,NA,NA,NA,NA,NA,NA,NA,NA,NA,NA,NA,NA,NA,NA,NA,NA,NA,NA,NA,NA,NA,NA,NA,NA,NA
fullscreen,1,7219,0.0-1.0,voc_e2,11912,"[{""event"":""focus"",""trial"":0,""time"":0},{""event"":""fullscreenenter"",""trial"":1,""time"":6476}]",TRUE,NA,NA,NA,NA,NA,NA,NA,NA,NA,NA,NA,NA,NA,NA,NA,NA,NA,NA,NA,NA,NA,NA,NA,NA,NA,NA,NA,NA,NA
audio-keyboard-response,2,11243,0.0-2.0,voc_e2,11912,"[{""event"":""focus"",""trial"":0,""time"":0},{""event"":""fullscreenenter"",""trial"":1,""time"":6476}]",NA,3872,static/audio/beep_loop.wav,32,NA,NA,NA,NA,NA,NA,NA,NA,NA,NA,NA,NA,NA,NA,NA,NA,NA,NA,NA,NA,NA,NA,NA,NA,NA,NA
audio-test,3,12563,0.0-3.0,voc_e2,11912,"[{""event"":""focus"",""trial"":0,""time"":0},{""event"":""fullscreenenter"",""trial"":1,""time"":6476}]",NA,NA,static/audio/turtle.wav,NA,3,NA,NA,NA,NA,NA,NA,NA,NA,NA,NA,NA,NA,NA,NA,NA,NA,NA,NA,NA,NA,NA,NA,NA,NA,NA
audio-test,4,16131,0.0-4.0,voc_e2,11912,"[{""event"":""focus"",""trial"":0,""time"":0},{""event"":""fullscreenenter"",""trial"":1,""time"":6476}]",NA,NA,static/audio/shark.wav,NA,2,NA,NA,NA,NA,NA,NA,NA,NA,NA,NA,NA,NA,NA,NA,NA,NA,NA,NA,NA,NA,NA,NA,NA,NA,NA
audio-instructions,5,22501,0.0-5.0-0.0,voc_e2,11912,"[{""event"":""focus"",""trial"":0,""time"":0},{""event"":""fullscreenenter"",""trial"":1,""time"":6476}]",NA,564,static/audio/instructions1.wav,NA,0,NA,NA,NA,NA,NA,NA,NA,NA,NA,NA,NA,NA,NA,NA,NA,NA,NA,NA,NA,NA,NA,NA,NA,NA,NA
audio-instructions,6,30823,0.0-5.0-1.0,voc_e2,11912,"[{""event"":""focus"",""trial"":0,""time"":0},{""event"":""fullscreenenter"",""trial"":1,""time"":6476}]",NA,1567,static/audio/instructions2.wav,NA,0,NA,NA,NA,NA,NA,NA,NA,NA,NA,NA,NA,NA,NA,NA,NA,NA,NA,NA,NA,NA,NA,NA,NA,NA,NA
audio-instructions,7,37753,0.0-5.0-2.0,voc_e2,11912,"[{""event"":""focus"",""trial"":0,""time"":0},{""event"":""fullscreenenter"",""trial"":1,""time"":6476}]",NA,1116,static/audio/instructions3.wav,NA,0,NA,NA,NA,NA,NA,NA,NA,NA,NA,NA,NA,NA,NA,NA,NA,NA,NA,NA,NA,NA,NA,NA,NA,NA,NA
audio-instructions,8,57011,0.0-5.0-3.0,voc_e2,11912,"[{""event"":""focus"",""trial"":0,""time"":0},{""event"":""fullscreenenter"",""trial"":1,""time"":6476}]",NA,6023,static/audio/instructions4.wav,NA,0,NA,NA,NA,NA,NA,NA,NA,NA,NA,NA,NA,NA,NA,NA,NA,NA,NA,NA,NA,NA,NA,NA,NA,NA,NA
audio-instructions,9,74469,0.0-5.0-4.0,voc_e2,11912,"[{""event"":""focus"",""trial"":0,""time"":0},{""event"":""fullscreenenter"",""trial"":1,""time"":6476}]",NA,8063,static/audio/instructions5.wav,NA,0,NA,NA,NA,NA,NA,NA,NA,NA,NA,NA,NA,NA,NA,NA,NA,NA,NA,NA,NA,NA,NA,NA,NA,NA,NA
fcp-practice,10,83784,0.0-5.0-5.0-0.0,voc_e2,11912,"[{""event"":""focus"",""trial"":0,""time"":0},{""event"":""fullscreenenter"",""trial"":1,""time"":6476}]",NA,NA,NA,NA,NA,NA,#EDC948,#46d3c8,10,0,1,null,null,null,37,1,7805,10,1,practice,NA,NA,NA,NA,NA,NA,NA,NA,NA,NA
fcp-practice,11,89531,0.0-5.0-5.0-1.0,voc_e2,11912,"[{""event"":""focus"",""trial"":0,""time"":0},{""event"":""fullscreenenter"",""trial"":1,""time"":6476}]",NA,NA,NA,NA,NA,NA,#EDC948,#46d3c8,10,0,1,null,null,null,37,1,4100,10,1,practice,NA,NA,NA,NA,NA,NA,NA,NA,NA,NA
fcp-practice,12,91645,0.0-5.0-5.0-2.0,voc_e2,11912,"[{""event"":""focus"",""trial"":0,""time"":0},{""event"":""fullscreenenter"",""trial"":1,""time"":6476}]",NA,NA,NA,NA,NA,NA,#EDC948,#46d3c8,0,10,1,null,null,null,37,1,600,0,1,practice,NA,NA,NA,NA,NA,NA,NA,NA,NA,NA
fcp-practice,13,98342,0.0-5.0-5.0-3.0,voc_e2,11912,"[{""event"":""focus"",""trial"":0,""time"":0},{""event"":""fullscreenenter"",""trial"":1,""time"":6476}]",NA,NA,NA,NA,NA,NA,#EDC948,#46d3c8,10,0,1,null,null,null,37,1,5177,10,1,practice,NA,NA,NA,NA,NA,NA,NA,NA,NA,NA
fcp-practice,14,105200,0.0-5.0-5.0-4.0,voc_e2,11912,"[{""event"":""focus"",""trial"":0,""time"":0},{""event"":""fullscreenenter"",""trial"":1,""time"":6476}]",NA,NA,NA,NA,NA,NA,#EDC948,#46d3c8,10,0,1,null,null,null,37,1,5343,10,1,practice,NA,NA,NA,NA,NA,NA,NA,NA,NA,NA
audio-instructions,15,128656,0.0-5.0-6.0,voc_e2,11912,"[{""event"":""focus"",""trial"":0,""time"":0},{""event"":""fullscreenenter"",""trial"":1,""time"":6476}]",NA,5440,static/audio/instructions6.wav,NA,0,NA,NA,NA,NA,NA,NA,NA,NA,NA,NA,NA,NA,NA,NA,NA,NA,NA,NA,NA,NA,NA,NA,NA,NA,NA
audio-instructions,16,157295,0.0-5.0-7.0,voc_e2,11912,"[{""event"":""focus"",""trial"":0,""time"":0},{""event"":""fullscreenenter"",""trial"":1,""time"":6476}]",NA,9428,static/audio/instructions7.wav,NA,0,NA,NA,NA,NA,NA,NA,NA,NA,NA,NA,NA,NA,NA,NA,NA,NA,NA,NA,NA,NA,NA,NA,NA,NA,NA
audio-instructions,17,173881,0.0-5.0-8.0,voc_e2,11912,"[{""event"":""focus"",""trial"":0,""time"":0},{""event"":""fullscreenenter"",""trial"":1,""time"":6476}]",NA,7094,static/audio/instructions8.wav,NA,0,NA,NA,NA,NA,NA,NA,NA,NA,NA,NA,NA,NA,NA,NA,NA,NA,NA,NA,NA,NA,NA,NA,NA,NA,NA
fcp-comprehension,18,206633,0.0-5.0-9.0,voc_e2,11912,"[{""event"":""focus"",""trial"":0,""time"":0},{""event"":""fullscreenenter"",""trial"":1,""time"":6476}]",NA,32750,NA,NA,NA,NA,NA,NA,NA,NA,NA,NA,NA,NA,NA,NA,NA,NA,NA,NA,"true,true",0,NA,NA,NA,NA,NA,NA,NA,NA
audio-instructions,19,222706,0.0-6.0-0.0,voc_e2,11912,"[{""event"":""focus"",""trial"":0,""time"":0},{""event"":""fullscreenenter"",""trial"":1,""time"":6476}]",NA,10510,static/audio/instructions9.wav,NA,0,NA,NA,NA,NA,NA,NA,NA,NA,NA,NA,NA,NA,NA,NA,NA,NA,NA,NA,NA,NA,NA,NA,NA,NA,NA
audio-instructions,20,240614,0.0-6.0-1.0,voc_e2,11912,"[{""event"":""focus"",""trial"":0,""time"":0},{""event"":""fullscreenenter"",""trial"":1,""time"":6476}]",NA,5777,static/audio/instructions10.wav,NA,0,NA,NA,NA,NA,NA,NA,NA,NA,NA,NA,NA,NA,NA,NA,NA,NA,NA,NA,NA,NA,NA,NA,NA,NA,NA
fcp-trial,21,244739,0.0-6.0-2.0,voc_e2,11912,"[{""event"":""focus"",""trial"":0,""time"":0},{""event"":""fullscreenenter"",""trial"":1,""time"":6476}]",NA,NA,NA,NA,NA,0,#EDC948,#46d3c8,10,10,1,38,1,1474,37,1,969,10,1,practice,NA,NA,NA,NA,NA,NA,NA,NA,NA,NA
audio-instructions,22,260140,0.0-6.0-3.0,voc_e2,11912,"[{""event"":""focus"",""trial"":0,""time"":0},{""event"":""fullscreenenter"",""trial"":1,""time"":6476}]",NA,4384,static/audio/instructions11.wav,NA,0,NA,NA,NA,NA,NA,NA,NA,NA,NA,NA,NA,NA,NA,NA,NA,NA,NA,NA,NA,NA,NA,NA,NA,NA,NA
fcp-trial,23,263635,0.0-6.0-4.0,voc_e2,11912,"[{""event"":""focus"",""trial"":0,""time"":0},{""event"":""fullscreenenter"",""trial"":1,""time"":6476}]",NA,NA,NA,NA,NA,6,#EDC948,#46d3c8,10,10,1,40,0,1136,37,1,836,10,1,practice,NA,NA,NA,NA,NA,NA,NA,NA,NA,NA
audio-instructions,24,292249,0.0-6.0-5.0,voc_e2,11912,"[{""event"":""focus"",""trial"":0,""time"":0},{""event"":""fullscreenenter"",""trial"":1,""time"":6476}]",NA,9914,static/audio/instructions12.wav,NA,0,NA,NA,NA,NA,NA,NA,NA,NA,NA,NA,NA,NA,NA,NA,NA,NA,NA,NA,NA,NA,NA,NA,NA,NA,NA
audio-instructions,25,304730,0.0-6.0-6.0,voc_e2,11912,"[{""event"":""focus"",""trial"":0,""time"":0},{""event"":""fullscreenenter"",""trial"":1,""time"":6476}]",NA,4874,static/audio/instructions13.wav,NA,0,NA,NA,NA,NA,NA,NA,NA,NA,NA,NA,NA,NA,NA,NA,NA,NA,NA,NA,NA,NA,NA,NA,NA,NA,NA
audio-instructions,26,345777,0.0-6.0-7.0,voc_e2,11912,"[{""event"":""focus"",""trial"":0,""time"":0},{""event"":""fullscreenenter"",""trial"":1,""time"":6476}]",NA,32592,static/audio/instructions14.wav,NA,0,NA,NA,NA,NA,NA,NA,NA,NA,NA,NA,NA,NA,NA,NA,NA,NA,NA,NA,NA,NA,NA,NA,NA,NA,NA
audio-instructions,27,359494,0.0-7.0-0.0,voc_e2,11912,"[{""event"":""focus"",""trial"":0,""time"":0},{""event"":""fullscreenenter"",""trial"":1,""time"":6476}]",NA,6788,static/audio/instructions15.wav,NA,0,NA,NA,NA,NA,NA,NA,NA,NA,NA,NA,NA,NA,NA,NA,NA,NA,NA,NA,NA,NA,NA,NA,NA,NA,NA
audio-instructions,28,374523,0.0-7.0-1.0,voc_e2,11912,"[{""event"":""focus"",""trial"":0,""time"":0},{""event"":""fullscreenenter"",""trial"":1,""time"":6476}]",NA,8187,static/audio/instructions16.wav,NA,0,NA,NA,NA,NA,NA,NA,NA,NA,NA,NA,NA,NA,NA,NA,NA,NA,NA,NA,NA,NA,NA,NA,NA,NA,NA
audio-instructions,29,387326,0.0-7.0-2.0,voc_e2,11912,"[{""event"":""focus"",""trial"":0,""time"":0},{""event"":""fullscreenenter"",""trial"":1,""time"":6476}]",NA,5112,static/audio/instructions17.wav,NA,0,NA,NA,NA,NA,NA,NA,NA,NA,NA,NA,NA,NA,NA,NA,NA,NA,NA,NA,NA,NA,NA,NA,NA,NA,NA
audio-instructions,30,1008130,0.0-7.0-3.0,voc_e2,11912,"[{""event"":""focus"",""trial"":0,""time"":0},{""event"":""fullscreenenter"",""trial"":1,""time"":6476}]",NA,613025,static/audio/instructions18.wav,NA,0,NA,NA,NA,NA,NA,NA,NA,NA,NA,NA,NA,NA,NA,NA,NA,NA,NA,NA,NA,NA,NA,NA,NA,NA,NA
audio-instructions,31,1023069,0.0-7.0-4.0,voc_e2,11912,"[{""event"":""focus"",""trial"":0,""time"":0},{""event"":""fullscreenenter"",""trial"":1,""time"":6476}]",NA,8177,static/audio/instructions19.wav,NA,0,NA,NA,NA,NA,NA,NA,NA,NA,NA,NA,NA,NA,NA,NA,NA,NA,NA,NA,NA,NA,NA,NA,NA,NA,NA
fcp-comprehension,32,1062926,0.0-7.0-5.0,voc_e2,11912,"[{""event"":""focus"",""trial"":0,""time"":0},{""event"":""fullscreenenter"",""trial"":1,""time"":6476}]",NA,39854,NA,NA,NA,NA,NA,NA,NA,NA,NA,NA,NA,NA,NA,NA,NA,NA,NA,NA,"false,false,false,true",0,NA,NA,NA,NA,NA,NA,NA,NA
audio-instructions,33,1107665,0.0-8.0,voc_e2,11912,"[{""event"":""focus"",""trial"":0,""time"":0},{""event"":""fullscreenenter"",""trial"":1,""time"":6476}]",NA,35512,static/audio/ready.wav,NA,0,NA,NA,NA,NA,NA,NA,NA,NA,NA,NA,NA,NA,NA,NA,NA,NA,NA,NA,NA,NA,NA,NA,NA,NA,NA
fcp-trial,34,1116690,0.0-9.0-0.0,voc_e2,11912,"[{""event"":""focus"",""trial"":0,""time"":0},{""event"":""fullscreenenter"",""trial"":1,""time"":6476}]",NA,NA,NA,NA,NA,5,#3386FF,#D89F1C,0,0,1,38,1,4651,37,1,2818,0,1,experiment,NA,NA,0,0.9,0.1,0,1,1,1,NA
fcp-trial,35,1123916,0.0-10.0-0.0,voc_e2,11912,"[{""event"":""focus"",""trial"":0,""time"":0},{""event"":""fullscreenenter"",""trial"":1,""time"":6476}]",NA,NA,NA,NA,NA,0,#741CD8,#D8271C,10,10,1,38,1,5167,37,1,548,10,1,experiment,NA,NA,1,0.7,0.3,2,3,2,1,NA
fcp-trial,36,1129238,0.0-11.0-0.0,voc_e2,11912,"[{""event"":""focus"",""trial"":0,""time"":0},{""event"":""fullscreenenter"",""trial"":1,""time"":6476}]",NA,NA,NA,NA,NA,3,#D8271C,#741CD8,0,10,0,38,1,2933,37,1,822,0,0,experiment,NA,NA,1,0.3,0.7,3,2,3,1,NA
fcp-trial,37,1131576,0.0-12.0-0.0,voc_e2,11912,"[{""event"":""focus"",""trial"":0,""time"":0},{""event"":""fullscreenenter"",""trial"":1,""time"":6476}]",NA,NA,NA,NA,NA,4,#FA92F8,#1CD855,0,10,0,38,1,466,39,0,333,10,1,experiment,NA,NA,2,0.5,0.5,5,4,4,1,NA
fcp-trial,38,1134016,0.0-13.0-0.0,voc_e2,11912,"[{""event"":""focus"",""trial"":0,""time"":0},{""event"":""fullscreenenter"",""trial"":1,""time"":6476}]",NA,NA,NA,NA,NA,1,#741CD8,#D8271C,0,0,1,38,1,515,39,0,400,0,0,experiment,NA,NA,1,0.7,0.3,2,3,5,1,NA
fcp-trial,39,1136325,0.0-14.0-0.0,voc_e2,11912,"[{""event"":""focus"",""trial"":0,""time"":0},{""event"":""fullscreenenter"",""trial"":1,""time"":6476}]",NA,NA,NA,NA,NA,3,#3386FF,#D89F1C,10,0,1,38,1,127,37,1,644,10,1,experiment,NA,NA,0,0.9,0.1,0,1,6,1,NA
fcp-trial,40,1139079,0.0-15.0-0.0,voc_e2,11912,"[{""event"":""focus"",""trial"":0,""time"":0},{""event"":""fullscreenenter"",""trial"":1,""time"":6476}]",NA,NA,NA,NA,NA,1,#3386FF,#D89F1C,10,0,1,38,1,674,39,0,554,0,0,experiment,NA,NA,0,0.9,0.1,0,1,7,1,NA
fcp-trial,41,1141935,0.0-16.0-0.0,voc_e2,11912,"[{""event"":""focus"",""trial"":0,""time"":0},{""event"":""fullscreenenter"",""trial"":1,""time"":6476}]",NA,NA,NA,NA,NA,6,#FA92F8,#1CD855,10,10,0,38,1,577,37,1,571,10,0,experiment,NA,NA,2,0.5,0.5,5,4,8,1,NA
fcp-trial,42,1145376,0.0-17.0-0.0,voc_e2,11912,"[{""event"":""focus"",""trial"":0,""time"":0},{""event"":""fullscreenenter"",""trial"":1,""time"":6476}]",NA,NA,NA,NA,NA,5,#D8271C,#741CD8,0,10,0,38,1,1032,37,1,876,0,0,experiment,NA,NA,1,0.3,0.7,3,2,9,1,NA
fcp-trial,43,1148496,0.0-18.0-0.0,voc_e2,11912,"[{""event"":""focus"",""trial"":0,""time"":0},{""event"":""fullscreenenter"",""trial"":1,""time"":6476}]",NA,NA,NA,NA,NA,0,#FA92F8,#1CD855,0,0,0,38,1,1033,39,0,566,0,1,experiment,NA,NA,2,0.5,0.5,5,4,10,1,NA
fcp-trial,44,1151100,0.0-19.0-0.0,voc_e2,11912,"[{""event"":""focus"",""trial"":0,""time"":0},{""event"":""fullscreenenter"",""trial"":1,""time"":6476}]",NA,NA,NA,NA,NA,0,#D89F1C,#3386FF,0,10,0,38,1,447,39,0,624,10,1,experiment,NA,NA,0,0.1,0.9,1,0,11,1,NA
fcp-trial,45,1153996,0.0-20.0-0.0,voc_e2,11912,"[{""event"":""focus"",""trial"":0,""time"":0},{""event"":""fullscreenenter"",""trial"":1,""time"":6476}]",NA,NA,NA,NA,NA,2,#FA92F8,#1CD855,0,10,0,38,1,649,39,0,690,10,1,experiment,NA,NA,2,0.5,0.5,5,4,12,1,NA
fcp-trial,46,1157566,0.0-21.0-0.0,voc_e2,11912,"[{""event"":""focus"",""trial"":0,""time"":0},{""event"":""fullscreenenter"",""trial"":1,""time"":6476}]",NA,NA,NA,NA,NA,5,#FA92F8,#1CD855,10,10,0,38,1,1308,39,0,732,10,1,experiment,NA,NA,2,0.5,0.5,5,4,13,1,NA
fcp-trial,47,1160505,0.0-22.0-0.0,voc_e2,11912,"[{""event"":""focus"",""trial"":0,""time"":0},{""event"":""fullscreenenter"",""trial"":1,""time"":6476}]",NA,NA,NA,NA,NA,2,#741CD8,#D8271C,0,10,1,38,1,778,37,1,637,0,1,experiment,NA,NA,1,0.7,0.3,2,3,14,1,NA
fcp-trial,48,1163606,0.0-23.0-0.0,voc_e2,11912,"[{""event"":""focus"",""trial"":0,""time"":0},{""event"":""fullscreenenter"",""trial"":1,""time"":6476}]",NA,NA,NA,NA,NA,6,#741CD8,#D8271C,0,0,1,38,1,1081,39,0,499,0,0,experiment,NA,NA,1,0.7,0.3,2,3,15,1,NA
fcp-trial,49,1166138,0.0-24.0-0.0,voc_e2,11912,"[{""event"":""focus"",""trial"":0,""time"":0},{""event"":""fullscreenenter"",""trial"":1,""time"":6476}]",NA,NA,NA,NA,NA,2,#3386FF,#D89F1C,10,0,1,38,1,539,37,1,462,10,1,experiment,NA,NA,0,0.9,0.1,0,1,16,1,NA
fcp-trial,50,1168615,0.0-25.0-0.0,voc_e2,11912,"[{""event"":""focus"",""trial"":0,""time"":0},{""event"":""fullscreenenter"",""trial"":1,""time"":6476}]",NA,NA,NA,NA,NA,6,#3386FF,#D89F1C,10,0,1,38,1,238,37,1,713,10,1,experiment,NA,NA,0,0.9,0.1,0,1,17,1,NA
fcp-trial,51,1171243,0.0-26.0-0.0,voc_e2,11912,"[{""event"":""focus"",""trial"":0,""time"":0},{""event"":""fullscreenenter"",""trial"":1,""time"":6476}]",NA,NA,NA,NA,NA,3,#1CD855,#FA92F8,0,0,1,38,1,459,39,0,644,0,0,experiment,NA,NA,2,0.5,0.5,4,5,18,1,NA
fcp-trial,52,1173777,0.0-27.0-0.0,voc_e2,11912,"[{""event"":""focus"",""trial"":0,""time"":0},{""event"":""fullscreenenter"",""trial"":1,""time"":6476}]",NA,NA,NA,NA,NA,4,#741CD8,#D8271C,10,0,1,38,1,437,37,1,551,10,1,experiment,NA,NA,1,0.7,0.3,2,3,19,1,NA
fcp-trial,53,1177976,0.0-28.0-0.0,voc_e2,11912,"[{""event"":""focus"",""trial"":0,""time"":0},{""event"":""fullscreenenter"",""trial"":1,""time"":6476}]",NA,NA,NA,NA,NA,4,#3386FF,#D89F1C,10,0,1,38,1,2240,37,1,448,10,1,experiment,NA,NA,0,0.9,0.1,0,1,20,1,NA
fcp-trial,54,1181071,0.0-29.0-0.0,voc_e2,11912,"[{""event"":""focus"",""trial"":0,""time"":0},{""event"":""fullscreenenter"",""trial"":1,""time"":6476}]",NA,NA,NA,NA,NA,1,#FA92F8,#1CD855,0,0,0,38,1,884,39,0,677,0,1,experiment,NA,NA,2,0.5,0.5,5,4,21,1,NA
fcp-trial,55,1183689,0.0-30.0-0.0,voc_e2,11912,"[{""event"":""focus"",""trial"":0,""time"":0},{""event"":""fullscreenenter"",""trial"":1,""time"":6476}]",NA,NA,NA,NA,NA,2,#3386FF,#D89F1C,10,0,1,38,1,384,37,1,711,10,1,experiment,NA,NA,0,0.9,0.1,0,1,22,1,NA
fcp-trial,56,1186416,0.0-31.0-0.0,voc_e2,11912,"[{""event"":""focus"",""trial"":0,""time"":0},{""event"":""fullscreenenter"",""trial"":1,""time"":6476}]",NA,NA,NA,NA,NA,0,#D89F1C,#3386FF,0,10,0,38,1,559,37,1,633,0,0,experiment,NA,NA,0,0.1,0.9,1,0,23,1,NA
fcp-trial,57,1188862,0.0-32.0-0.0,voc_e2,11912,"[{""event"":""focus"",""trial"":0,""time"":0},{""event"":""fullscreenenter"",""trial"":1,""time"":6476}]",NA,NA,NA,NA,NA,5,#3386FF,#D89F1C,10,0,1,38,1,151,39,0,784,0,0,experiment,NA,NA,0,0.9,0.1,0,1,24,1,NA
fcp-trial,58,1192120,0.0-33.0-0.0,voc_e2,11912,"[{""event"":""focus"",""trial"":0,""time"":0},{""event"":""fullscreenenter"",""trial"":1,""time"":6476}]",NA,NA,NA,NA,NA,2,#741CD8,#D8271C,0,0,1,38,1,18,37,1,1597,0,1,experiment,NA,NA,1,0.7,0.3,2,3,25,1,NA
fcp-trial,59,1194916,0.0-34.0-0.0,voc_e2,11912,"[{""event"":""focus"",""trial"":0,""time"":0},{""event"":""fullscreenenter"",""trial"":1,""time"":6476}]",NA,NA,NA,NA,NA,4,#FA92F8,#1CD855,0,10,0,38,1,495,39,0,678,10,1,experiment,NA,NA,2,0.5,0.5,5,4,26,1,NA
fcp-trial,60,1197676,0.0-35.0-0.0,voc_e2,11912,"[{""event"":""focus"",""trial"":0,""time"":0},{""event"":""fullscreenenter"",""trial"":1,""time"":6476}]",NA,NA,NA,NA,NA,1,#FA92F8,#1CD855,10,0,0,38,1,444,39,0,783,0,1,experiment,NA,NA,2,0.5,0.5,5,4,27,1,NA
fcp-trial,61,1200215,0.0-36.0-0.0,voc_e2,11912,"[{""event"":""focus"",""trial"":0,""time"":0},{""event"":""fullscreenenter"",""trial"":1,""time"":6476}]",NA,NA,NA,NA,NA,4,#3386FF,#D89F1C,10,0,1,38,1,605,37,1,387,10,1,experiment,NA,NA,0,0.9,0.1,0,1,28,1,NA
fcp-trial,62,1202958,0.0-37.0-0.0,voc_e2,11912,"[{""event"":""focus"",""trial"":0,""time"":0},{""event"":""fullscreenenter"",""trial"":1,""time"":6476}]",NA,NA,NA,NA,NA,0,#741CD8,#D8271C,0,0,1,38,1,630,37,1,577,0,1,experiment,NA,NA,1,0.7,0.3,2,3,29,1,NA
fcp-trial,63,1205965,0.0-38.0-0.0,voc_e2,11912,"[{""event"":""focus"",""trial"":0,""time"":0},{""event"":""fullscreenenter"",""trial"":1,""time"":6476}]",NA,NA,NA,NA,NA,6,#FA92F8,#1CD855,0,10,0,38,1,705,39,0,782,10,1,experiment,NA,NA,2,0.5,0.5,5,4,30,1,NA
fcp-trial,64,1208686,0.0-39.0-0.0,voc_e2,11912,"[{""event"":""focus"",""trial"":0,""time"":0},{""event"":""fullscreenenter"",""trial"":1,""time"":6476}]",NA,NA,NA,NA,NA,2,#1CD855,#FA92F8,0,10,1,38,1,577,39,0,628,10,0,experiment,NA,NA,2,0.5,0.5,4,5,31,1,NA
fcp-trial,65,1210960,0.0-40.0-0.0,voc_e2,11912,"[{""event"":""focus"",""trial"":0,""time"":0},{""event"":""fullscreenenter"",""trial"":1,""time"":6476}]",NA,NA,NA,NA,NA,6,#741CD8,#D8271C,10,0,1,38,1,387,37,1,363,10,1,experiment,NA,NA,1,0.7,0.3,2,3,32,1,NA
fcp-trial,66,1213405,0.0-41.0-0.0,voc_e2,11912,"[{""event"":""focus"",""trial"":0,""time"":0},{""event"":""fullscreenenter"",""trial"":1,""time"":6476}]",NA,NA,NA,NA,NA,3,#3386FF,#D89F1C,0,10,1,38,1,529,39,0,385,10,0,experiment,NA,NA,0,0.9,0.1,0,1,33,1,NA
fcp-trial,67,1215791,0.0-42.0-0.0,voc_e2,11912,"[{""event"":""focus"",""trial"":0,""time"":0},{""event"":""fullscreenenter"",""trial"":1,""time"":6476}]",NA,NA,NA,NA,NA,0,#FA92F8,#1CD855,10,0,0,38,1,325,37,1,532,10,0,experiment,NA,NA,2,0.5,0.5,5,4,34,1,NA
fcp-trial,68,1218482,0.0-43.0-0.0,voc_e2,11912,"[{""event"":""focus"",""trial"":0,""time"":0},{""event"":""fullscreenenter"",""trial"":1,""time"":6476}]",NA,NA,NA,NA,NA,5,#741CD8,#D8271C,10,0,1,38,1,571,37,1,435,10,1,experiment,NA,NA,1,0.7,0.3,2,3,35,1,NA
fcp-trial,69,1220996,0.0-44.0-0.0,voc_e2,11912,"[{""event"":""focus"",""trial"":0,""time"":0},{""event"":""fullscreenenter"",""trial"":1,""time"":6476}]",NA,NA,NA,NA,NA,3,#1CD855,#FA92F8,0,10,1,38,1,458,39,0,537,10,0,experiment,NA,NA,2,0.5,0.5,4,5,36,1,NA
fcp-trial,70,1227083,0.0-45.0-0.0,voc_e2,11912,"[{""event"":""focus"",""trial"":0,""time"":0},{""event"":""fullscreenenter"",""trial"":1,""time"":6476}]",NA,NA,NA,NA,NA,6,#3386FF,#D89F1C,10,0,1,38,1,3404,37,1,1154,10,1,experiment,NA,NA,0,0.9,0.1,0,1,37,1,NA
fcp-trial,71,1231668,0.0-46.0-0.0,voc_e2,11912,"[{""event"":""focus"",""trial"":0,""time"":0},{""event"":""fullscreenenter"",""trial"":1,""time"":6476}]",NA,NA,NA,NA,NA,1,#D89F1C,#3386FF,0,0,0,38,1,2638,39,0,424,0,1,experiment,NA,NA,0,0.1,0.9,1,0,38,1,NA
fcp-trial,72,1234601,0.0-47.0-0.0,voc_e2,11912,"[{""event"":""focus"",""trial"":0,""time"":0},{""event"":""fullscreenenter"",""trial"":1,""time"":6476}]",NA,NA,NA,NA,NA,4,#D8271C,#741CD8,10,0,0,38,1,1053,37,1,348,10,0,experiment,NA,NA,1,0.3,0.7,3,2,39,1,NA
fcp-trial,73,1237350,0.0-48.0-0.0,voc_e2,11912,"[{""event"":""focus"",""trial"":0,""time"":0},{""event"":""fullscreenenter"",""trial"":1,""time"":6476}]",NA,NA,NA,NA,NA,5,#1CD855,#FA92F8,0,0,1,38,1,798,39,0,419,0,0,experiment,NA,NA,2,0.5,0.5,4,5,40,1,NA
fcp-trial,74,1242632,0.0-49.0-0.0,voc_e2,11912,"[{""event"":""focus"",""trial"":0,""time"":0},{""event"":""fullscreenenter"",""trial"":1,""time"":6476}]",NA,NA,NA,NA,NA,1,#741CD8,#D8271C,10,0,1,38,1,2796,39,0,974,0,0,experiment,NA,NA,1,0.7,0.3,2,3,41,1,NA
fcp-trial,75,1246760,0.0-50.0-0.0,voc_e2,11912,"[{""event"":""focus"",""trial"":0,""time"":0},{""event"":""fullscreenenter"",""trial"":1,""time"":6476}]",NA,NA,NA,NA,NA,3,#D8271C,#741CD8,10,10,0,38,1,1239,37,1,1368,10,0,experiment,NA,NA,1,0.3,0.7,3,2,42,1,NA
fcp-trial,76,1249046,0.0-51.0-0.0,voc_e2,11912,"[{""event"":""focus"",""trial"":0,""time"":0},{""event"":""fullscreenenter"",""trial"":1,""time"":6476}]",NA,NA,NA,NA,NA,1,#D8271C,#741CD8,0,10,0,38,1,33,37,1,719,0,0,experiment,NA,NA,1,0.3,0.7,3,2,43,1,NA
fcp-trial,77,1252386,0.0-52.0-0.0,voc_e2,11912,"[{""event"":""focus"",""trial"":0,""time"":0},{""event"":""fullscreenenter"",""trial"":1,""time"":6476}]",NA,NA,NA,NA,NA,6,#FA92F8,#1CD855,10,0,0,38,1,1324,37,1,475,10,0,experiment,NA,NA,2,0.5,0.5,5,4,44,1,NA
fcp-trial,78,1255346,0.0-53.0-0.0,voc_e2,11912,"[{""event"":""focus"",""trial"":0,""time"":0},{""event"":""fullscreenenter"",""trial"":1,""time"":6476}]",NA,NA,NA,NA,NA,3,#FA92F8,#1CD855,0,0,0,38,1,917,39,0,514,0,1,experiment,NA,NA,2,0.5,0.5,5,4,45,1,NA
fcp-trial,79,1258670,0.0-54.0-0.0,voc_e2,11912,"[{""event"":""focus"",""trial"":0,""time"":0},{""event"":""fullscreenenter"",""trial"":1,""time"":6476}]",NA,NA,NA,NA,NA,3,#3386FF,#D89F1C,10,0,1,38,1,1479,39,0,319,0,0,experiment,NA,NA,0,0.9,0.1,0,1,46,2,NA
fcp-trial,80,1260916,0.0-55.0-0.0,voc_e2,11912,"[{""event"":""focus"",""trial"":0,""time"":0},{""event"":""fullscreenenter"",""trial"":1,""time"":6476}]",NA,NA,NA,NA,NA,6,#D8271C,#741CD8,10,10,0,38,1,385,37,1,341,10,0,experiment,NA,NA,1,0.3,0.7,3,2,47,2,NA
fcp-trial,81,1263411,0.0-56.0-0.0,voc_e2,11912,"[{""event"":""focus"",""trial"":0,""time"":0},{""event"":""fullscreenenter"",""trial"":1,""time"":6476}]",NA,NA,NA,NA,NA,6,#3386FF,#D89F1C,10,0,1,38,1,368,37,1,448,10,1,experiment,NA,NA,0,0.9,0.1,0,1,48,2,NA
fcp-trial,82,1265875,0.0-57.0-0.0,voc_e2,11912,"[{""event"":""focus"",""trial"":0,""time"":0},{""event"":""fullscreenenter"",""trial"":1,""time"":6476}]",NA,NA,NA,NA,NA,4,#741CD8,#D8271C,10,0,1,38,1,420,37,1,500,10,1,experiment,NA,NA,1,0.7,0.3,2,3,49,2,NA
fcp-trial,83,1268316,0.0-58.0-0.0,voc_e2,11912,"[{""event"":""focus"",""trial"":0,""time"":0},{""event"":""fullscreenenter"",""trial"":1,""time"":6476}]",NA,NA,NA,NA,NA,4,#1CD855,#FA92F8,0,10,1,38,1,500,37,1,408,0,1,experiment,NA,NA,2,0.5,0.5,4,5,50,2,NA
fcp-trial,84,1271212,0.0-59.0-0.0,voc_e2,11912,"[{""event"":""focus"",""trial"":0,""time"":0},{""event"":""fullscreenenter"",""trial"":1,""time"":6476}]",NA,NA,NA,NA,NA,5,#3386FF,#D89F1C,10,0,1,38,1,410,39,0,972,0,0,experiment,NA,NA,0,0.9,0.1,0,1,51,2,NA
fcp-trial,85,1273686,0.0-60.0-0.0,voc_e2,11912,"[{""event"":""focus"",""trial"":0,""time"":0},{""event"":""fullscreenenter"",""trial"":1,""time"":6476}]",NA,NA,NA,NA,NA,2,#FA92F8,#1CD855,0,10,0,38,1,420,37,1,437,0,0,experiment,NA,NA,2,0.5,0.5,5,4,52,2,NA
fcp-trial,86,1276075,0.0-61.0-0.0,voc_e2,11912,"[{""event"":""focus"",""trial"":0,""time"":0},{""event"":""fullscreenenter"",""trial"":1,""time"":6476}]",NA,NA,NA,NA,NA,2,#3386FF,#D89F1C,0,10,1,38,1,546,37,1,324,0,1,experiment,NA,NA,0,0.9,0.1,0,1,53,2,NA
fcp-trial,87,1278895,0.0-62.0-0.0,voc_e2,11912,"[{""event"":""focus"",""trial"":0,""time"":0},{""event"":""fullscreenenter"",""trial"":1,""time"":6476}]",NA,NA,NA,NA,NA,5,#741CD8,#D8271C,0,0,1,38,1,623,37,1,676,0,1,experiment,NA,NA,1,0.7,0.3,2,3,54,2,NA
fcp-trial,88,1281807,0.0-63.0-0.0,voc_e2,11912,"[{""event"":""focus"",""trial"":0,""time"":0},{""event"":""fullscreenenter"",""trial"":1,""time"":6476}]",NA,NA,NA,NA,NA,5,#FA92F8,#1CD855,0,0,0,38,1,886,39,0,297,0,1,experiment,NA,NA,2,0.5,0.5,5,4,55,2,NA
fcp-trial,89,1284260,0.0-64.0-0.0,voc_e2,11912,"[{""event"":""focus"",""trial"":0,""time"":0},{""event"":""fullscreenenter"",""trial"":1,""time"":6476}]",NA,NA,NA,NA,NA,4,#3386FF,#D89F1C,10,0,1,38,1,415,37,1,370,10,1,experiment,NA,NA,0,0.9,0.1,0,1,56,2,NA
fcp-trial,90,1286857,0.0-65.0-0.0,voc_e2,11912,"[{""event"":""focus"",""trial"":0,""time"":0},{""event"":""fullscreenenter"",""trial"":1,""time"":6476}]",NA,NA,NA,NA,NA,0,#D8271C,#741CD8,0,10,0,38,1,484,37,1,578,0,0,experiment,NA,NA,1,0.3,0.7,3,2,57,2,NA
fcp-trial,91,1289951,0.0-66.0-0.0,voc_e2,11912,"[{""event"":""focus"",""trial"":0,""time"":0},{""event"":""fullscreenenter"",""trial"":1,""time"":6476}]",NA,NA,NA,NA,NA,0,#1CD855,#FA92F8,0,0,1,38,1,417,37,1,1069,0,1,experiment,NA,NA,2,0.5,0.5,4,5,58,2,NA
fcp-trial,92,1292535,0.0-67.0-0.0,voc_e2,11912,"[{""event"":""focus"",""trial"":0,""time"":0},{""event"":""fullscreenenter"",""trial"":1,""time"":6476}]",NA,NA,NA,NA,NA,3,#D8271C,#741CD8,0,10,0,38,1,384,37,1,678,0,0,experiment,NA,NA,1,0.3,0.7,3,2,59,2,NA
fcp-trial,93,1295047,0.0-68.0-0.0,voc_e2,11912,"[{""event"":""focus"",""trial"":0,""time"":0},{""event"":""fullscreenenter"",""trial"":1,""time"":6476}]",NA,NA,NA,NA,NA,2,#741CD8,#D8271C,10,0,1,38,1,475,37,1,513,10,1,experiment,NA,NA,1,0.7,0.3,2,3,60,2,NA
fcp-trial,94,1297685,0.0-69.0-0.0,voc_e2,11912,"[{""event"":""focus"",""trial"":0,""time"":0},{""event"":""fullscreenenter"",""trial"":1,""time"":6476}]",NA,NA,NA,NA,NA,0,#D89F1C,#3386FF,0,10,0,38,1,499,39,0,608,10,1,experiment,NA,NA,0,0.1,0.9,1,0,61,2,NA
fcp-trial,95,1305505,0.0-70.0-0.0,voc_e2,11912,"[{""event"":""focus"",""trial"":0,""time"":0},{""event"":""fullscreenenter"",""trial"":1,""time"":6476}]",NA,NA,NA,NA,NA,1,#D89F1C,#3386FF,0,10,0,38,1,7,37,1,6308,0,0,experiment,NA,NA,0,0.1,0.9,1,0,62,2,NA
fcp-trial,96,1308371,0.0-71.0-0.0,voc_e2,11912,"[{""event"":""focus"",""trial"":0,""time"":0},{""event"":""fullscreenenter"",""trial"":1,""time"":6476}]",NA,NA,NA,NA,NA,1,#1CD855,#FA92F8,10,10,1,38,1,895,37,1,439,10,1,experiment,NA,NA,2,0.5,0.5,4,5,63,2,NA
fcp-trial,97,1310948,0.0-72.0-0.0,voc_e2,11912,"[{""event"":""focus"",""trial"":0,""time"":0},{""event"":""fullscreenenter"",""trial"":1,""time"":6476}]",NA,NA,NA,NA,NA,0,#FA92F8,#1CD855,10,10,0,38,1,712,37,1,336,10,0,experiment,NA,NA,2,0.5,0.5,5,4,64,2,NA
fcp-trial,98,1313391,0.0-73.0-0.0,voc_e2,11912,"[{""event"":""focus"",""trial"":0,""time"":0},{""event"":""fullscreenenter"",""trial"":1,""time"":6476}]",NA,NA,NA,NA,NA,4,#741CD8,#D8271C,10,0,1,38,1,588,37,1,334,10,1,experiment,NA,NA,1,0.7,0.3,2,3,65,2,NA
fcp-trial,99,1315845,0.0-74.0-0.0,voc_e2,11912,"[{""event"":""focus"",""trial"":0,""time"":0},{""event"":""fullscreenenter"",""trial"":1,""time"":6476}]",NA,NA,NA,NA,NA,0,#D89F1C,#3386FF,0,10,0,38,1,448,37,1,493,0,0,experiment,NA,NA,0,0.1,0.9,1,0,66,2,NA
fcp-trial,100,1318361,0.0-75.0-0.0,voc_e2,11912,"[{""event"":""focus"",""trial"":0,""time"":0},{""event"":""fullscreenenter"",""trial"":1,""time"":6476}]",NA,NA,NA,NA,NA,5,#1CD855,#FA92F8,10,10,1,38,1,404,37,1,593,10,1,experiment,NA,NA,2,0.5,0.5,4,5,67,2,NA
fcp-trial,101,1321075,0.0-76.0-0.0,voc_e2,11912,"[{""event"":""focus"",""trial"":0,""time"":0},{""event"":""fullscreenenter"",""trial"":1,""time"":6476}]",NA,NA,NA,NA,NA,3,#D89F1C,#3386FF,0,10,0,38,1,614,39,0,580,10,1,experiment,NA,NA,0,0.1,0.9,1,0,68,2,NA
fcp-trial,102,1323695,0.0-77.0-0.0,voc_e2,11912,"[{""event"":""focus"",""trial"":0,""time"":0},{""event"":""fullscreenenter"",""trial"":1,""time"":6476}]",NA,NA,NA,NA,NA,3,#741CD8,#D8271C,10,10,1,38,1,70,39,0,1018,10,0,experiment,NA,NA,1,0.7,0.3,2,3,69,2,NA
fcp-trial,103,1326436,0.0-78.0-0.0,voc_e2,11912,"[{""event"":""focus"",""trial"":0,""time"":0},{""event"":""fullscreenenter"",""trial"":1,""time"":6476}]",NA,NA,NA,NA,NA,0,#741CD8,#D8271C,10,0,1,38,1,481,39,0,661,0,0,experiment,NA,NA,1,0.7,0.3,2,3,70,2,NA
fcp-trial,104,1329219,0.0-79.0-0.0,voc_e2,11912,"[{""event"":""focus"",""trial"":0,""time"":0},{""event"":""fullscreenenter"",""trial"":1,""time"":6476}]",NA,NA,NA,NA,NA,5,#741CD8,#D8271C,0,10,1,38,1,428,39,0,710,10,0,experiment,NA,NA,1,0.7,0.3,2,3,71,2,NA
fcp-trial,105,1331955,0.0-80.0-0.0,voc_e2,11912,"[{""event"":""focus"",""trial"":0,""time"":0},{""event"":""fullscreenenter"",""trial"":1,""time"":6476}]",NA,NA,NA,NA,NA,1,#1CD855,#FA92F8,0,10,1,38,1,437,39,0,779,10,0,experiment,NA,NA,2,0.5,0.5,4,5,72,2,NA
fcp-trial,106,1334505,0.0-81.0-0.0,voc_e2,11912,"[{""event"":""focus"",""trial"":0,""time"":0},{""event"":""fullscreenenter"",""trial"":1,""time"":6476}]",NA,NA,NA,NA,NA,6,#3386FF,#D89F1C,10,0,1,38,1,494,39,0,513,0,0,experiment,NA,NA,0,0.9,0.1,0,1,73,2,NA
fcp-trial,107,1336796,0.0-82.0-0.0,voc_e2,11912,"[{""event"":""focus"",""trial"":0,""time"":0},{""event"":""fullscreenenter"",""trial"":1,""time"":6476}]",NA,NA,NA,NA,NA,6,#1CD855,#FA92F8,0,10,1,38,1,456,37,1,302,0,1,experiment,NA,NA,2,0.5,0.5,4,5,74,2,NA
fcp-trial,108,1339284,0.0-83.0-0.0,voc_e2,11912,"[{""event"":""focus"",""trial"":0,""time"":0},{""event"":""fullscreenenter"",""trial"":1,""time"":6476}]",NA,NA,NA,NA,NA,2,#D8271C,#741CD8,0,0,0,38,1,525,37,1,411,0,0,experiment,NA,NA,1,0.3,0.7,3,2,75,2,NA
fcp-trial,109,1341826,0.0-84.0-0.0,voc_e2,11912,"[{""event"":""focus"",""trial"":0,""time"":0},{""event"":""fullscreenenter"",""trial"":1,""time"":6476}]",NA,NA,NA,NA,NA,2,#D89F1C,#3386FF,0,10,0,38,1,427,37,1,575,0,0,experiment,NA,NA,0,0.1,0.9,1,0,76,2,NA
fcp-trial,110,1344349,0.0-85.0-0.0,voc_e2,11912,"[{""event"":""focus"",""trial"":0,""time"":0},{""event"":""fullscreenenter"",""trial"":1,""time"":6476}]",NA,NA,NA,NA,NA,4,#D89F1C,#3386FF,0,10,0,38,1,477,37,1,520,0,0,experiment,NA,NA,0,0.1,0.9,1,0,77,2,NA
fcp-trial,111,1346534,0.0-86.0-0.0,voc_e2,11912,"[{""event"":""focus"",""trial"":0,""time"":0},{""event"":""fullscreenenter"",""trial"":1,""time"":6476}]",NA,NA,NA,NA,NA,6,#D8271C,#741CD8,0,0,0,38,1,195,39,0,459,0,1,experiment,NA,NA,1,0.3,0.7,3,2,78,2,NA
fcp-trial,112,1353565,0.0-87.0-0.0,voc_e2,11912,"[{""event"":""focus"",""trial"":0,""time"":0},{""event"":""fullscreenenter"",""trial"":1,""time"":6476}]",NA,NA,NA,NA,NA,3,#1CD855,#FA92F8,10,10,1,38,1,5154,37,1,364,10,1,experiment,NA,NA,2,0.5,0.5,4,5,79,2,NA
fcp-trial,113,1356628,0.0-88.0-0.0,voc_e2,11912,"[{""event"":""focus"",""trial"":0,""time"":0},{""event"":""fullscreenenter"",""trial"":1,""time"":6476}]",NA,NA,NA,NA,NA,5,#3386FF,#D89F1C,10,0,1,38,1,947,37,1,587,10,1,experiment,NA,NA,0,0.9,0.1,0,1,80,2,NA
fcp-trial,114,1360298,0.0-89.0-0.0,voc_e2,11912,"[{""event"":""focus"",""trial"":0,""time"":0},{""event"":""fullscreenenter"",""trial"":1,""time"":6476}]",NA,NA,NA,NA,NA,4,#1CD855,#FA92F8,0,0,1,38,1,75,37,1,2072,0,1,experiment,NA,NA,2,0.5,0.5,4,5,81,2,NA
fcp-trial,115,1363070,0.0-90.0-0.0,voc_e2,11912,"[{""event"":""focus"",""trial"":0,""time"":0},{""event"":""fullscreenenter"",""trial"":1,""time"":6476}]",NA,NA,NA,NA,NA,1,#D8271C,#741CD8,0,10,0,38,1,692,39,0,416,10,1,experiment,NA,NA,1,0.3,0.7,3,2,82,2,NA
fcp-trial,116,1366195,0.0-91.0-0.0,voc_e2,11912,"[{""event"":""focus"",""trial"":0,""time"":0},{""event"":""fullscreenenter"",""trial"":1,""time"":6476}]",NA,NA,NA,NA,NA,2,#FA92F8,#1CD855,10,10,0,38,1,1016,37,1,577,10,0,experiment,NA,NA,2,0.5,0.5,5,4,83,2,NA
fcp-trial,117,1368645,0.0-92.0-0.0,voc_e2,11912,"[{""event"":""focus"",""trial"":0,""time"":0},{""event"":""fullscreenenter"",""trial"":1,""time"":6476}]",NA,NA,NA,NA,NA,1,#D89F1C,#3386FF,0,10,0,38,1,406,37,1,519,0,0,experiment,NA,NA,0,0.1,0.9,1,0,84,2,NA
fcp-trial,118,1371227,0.0-93.0-0.0,voc_e2,11912,"[{""event"":""focus"",""trial"":0,""time"":0},{""event"":""fullscreenenter"",""trial"":1,""time"":6476}]",NA,NA,NA,NA,NA,1,#D89F1C,#3386FF,0,10,0,38,1,466,39,0,583,10,1,experiment,NA,NA,0,0.1,0.9,1,0,85,2,NA
fcp-trial,119,1374065,0.0-94.0-0.0,voc_e2,11912,"[{""event"":""focus"",""trial"":0,""time"":0},{""event"":""fullscreenenter"",""trial"":1,""time"":6476}]",NA,NA,NA,NA,NA,5,#1CD855,#FA92F8,10,10,1,38,1,652,39,0,668,10,0,experiment,NA,NA,2,0.5,0.5,4,5,86,2,NA
fcp-trial,120,1376951,0.0-95.0-0.0,voc_e2,11912,"[{""event"":""focus"",""trial"":0,""time"":0},{""event"":""fullscreenenter"",""trial"":1,""time"":6476}]",NA,NA,NA,NA,NA,6,#1CD855,#FA92F8,10,0,1,38,1,581,39,0,771,0,0,experiment,NA,NA,2,0.5,0.5,4,5,87,2,NA
fcp-trial,121,1379606,0.0-96.0-0.0,voc_e2,11912,"[{""event"":""focus"",""trial"":0,""time"":0},{""event"":""fullscreenenter"",""trial"":1,""time"":6476}]",NA,NA,NA,NA,NA,1,#1CD855,#FA92F8,0,10,1,38,1,536,39,0,602,10,0,experiment,NA,NA,2,0.5,0.5,4,5,88,2,NA
fcp-trial,122,1382280,0.0-97.0-0.0,voc_e2,11912,"[{""event"":""focus"",""trial"":0,""time"":0},{""event"":""fullscreenenter"",""trial"":1,""time"":6476}]",NA,NA,NA,NA,NA,1,#D8271C,#741CD8,0,10,0,38,1,577,37,1,565,0,0,experiment,NA,NA,1,0.3,0.7,3,2,89,2,NA
fcp-trial,123,1386257,0.0-98.0-0.0,voc_e2,11912,"[{""event"":""focus"",""trial"":0,""time"":0},{""event"":""fullscreenenter"",""trial"":1,""time"":6476}]",NA,NA,NA,NA,NA,0,#D89F1C,#3386FF,0,10,0,38,1,669,37,1,1771,0,0,experiment,NA,NA,0,0.1,0.9,1,0,90,2,NA
fcp-trial,124,1389611,0.0-99.0-0.0,voc_e2,11912,"[{""event"":""focus"",""trial"":0,""time"":0},{""event"":""fullscreenenter"",""trial"":1,""time"":6476}]",NA,NA,NA,NA,NA,0,#741CD8,#D8271C,10,10,1,38,1,734,37,1,1006,10,1,experiment,NA,NA,1,0.7,0.3,2,3,91,3,NA
fcp-trial,125,1392347,0.0-100.0-0.0,voc_e2,11912,"[{""event"":""focus"",""trial"":0,""time"":0},{""event"":""fullscreenenter"",""trial"":1,""time"":6476}]",NA,NA,NA,NA,NA,6,#3386FF,#D89F1C,10,0,1,38,1,589,39,0,623,0,0,experiment,NA,NA,0,0.9,0.1,0,1,92,3,NA
fcp-trial,126,1395237,0.0-101.0-0.0,voc_e2,11912,"[{""event"":""focus"",""trial"":0,""time"":0},{""event"":""fullscreenenter"",""trial"":1,""time"":6476}]",NA,NA,NA,NA,NA,2,#1CD855,#FA92F8,10,10,1,38,1,548,39,0,827,10,0,experiment,NA,NA,2,0.5,0.5,4,5,93,3,NA
fcp-trial,127,1397942,0.0-102.0-0.0,voc_e2,11912,"[{""event"":""focus"",""trial"":0,""time"":0},{""event"":""fullscreenenter"",""trial"":1,""time"":6476}]",NA,NA,NA,NA,NA,6,#741CD8,#D8271C,0,10,1,38,1,445,39,0,689,10,0,experiment,NA,NA,1,0.7,0.3,2,3,94,3,NA
fcp-trial,128,1401986,0.0-103.0-0.0,voc_e2,11912,"[{""event"":""focus"",""trial"":0,""time"":0},{""event"":""fullscreenenter"",""trial"":1,""time"":6476}]",NA,NA,NA,NA,NA,4,#D89F1C,#3386FF,0,10,0,38,1,1896,39,0,500,10,1,experiment,NA,NA,0,0.1,0.9,1,0,95,3,NA
fcp-trial,129,1404960,0.0-104.0-0.0,voc_e2,11912,"[{""event"":""focus"",""trial"":0,""time"":0},{""event"":""fullscreenenter"",""trial"":1,""time"":6476}]",NA,NA,NA,NA,NA,5,#D89F1C,#3386FF,0,10,0,38,1,570,37,1,698,0,0,experiment,NA,NA,0,0.1,0.9,1,0,96,3,NA
fcp-trial,130,1407785,0.0-105.0-0.0,voc_e2,11912,"[{""event"":""focus"",""trial"":0,""time"":0},{""event"":""fullscreenenter"",""trial"":1,""time"":6476}]",NA,NA,NA,NA,NA,3,#1CD855,#FA92F8,10,0,1,38,1,559,37,1,745,10,1,experiment,NA,NA,2,0.5,0.5,4,5,97,3,NA
fcp-trial,131,1411247,0.0-106.0-0.0,voc_e2,11912,"[{""event"":""focus"",""trial"":0,""time"":0},{""event"":""fullscreenenter"",""trial"":1,""time"":6476}]",NA,NA,NA,NA,NA,0,#FA92F8,#1CD855,0,10,0,38,1,744,39,0,1194,10,1,experiment,NA,NA,2,0.5,0.5,5,4,98,3,NA
fcp-trial,132,1413704,0.0-107.0-0.0,voc_e2,11912,"[{""event"":""focus"",""trial"":0,""time"":0},{""event"":""fullscreenenter"",""trial"":1,""time"":6476}]",NA,NA,NA,NA,NA,5,#741CD8,#D8271C,10,0,1,38,1,453,37,1,484,10,1,experiment,NA,NA,1,0.7,0.3,2,3,99,3,NA
fcp-trial,133,1416225,0.0-108.0-0.0,voc_e2,11912,"[{""event"":""focus"",""trial"":0,""time"":0},{""event"":""fullscreenenter"",""trial"":1,""time"":6476}]",NA,NA,NA,NA,NA,2,#D89F1C,#3386FF,0,10,0,38,1,368,39,0,510,10,1,experiment,NA,NA,0,0.1,0.9,1,0,100,3,NA
fcp-trial,134,1418899,0.0-109.0-0.0,voc_e2,11912,"[{""event"":""focus"",""trial"":0,""time"":0},{""event"":""fullscreenenter"",""trial"":1,""time"":6476}]",NA,NA,NA,NA,NA,2,#D8271C,#741CD8,0,0,0,38,1,814,39,0,331,0,1,experiment,NA,NA,1,0.3,0.7,3,2,101,3,NA
fcp-trial,135,1421243,0.0-110.0-0.0,voc_e2,11912,"[{""event"":""focus"",""trial"":0,""time"":0},{""event"":""fullscreenenter"",""trial"":1,""time"":6476}]",NA,NA,NA,NA,NA,3,#D8271C,#741CD8,0,10,0,38,1,494,39,0,321,10,1,experiment,NA,NA,1,0.3,0.7,3,2,102,3,NA
fcp-trial,136,1423965,0.0-111.0-0.0,voc_e2,11912,"[{""event"":""focus"",""trial"":0,""time"":0},{""event"":""fullscreenenter"",""trial"":1,""time"":6476}]",NA,NA,NA,NA,NA,4,#1CD855,#FA92F8,0,10,1,38,1,548,39,0,654,10,0,experiment,NA,NA,2,0.5,0.5,4,5,103,3,NA
fcp-trial,137,1426835,0.0-112.0-0.0,voc_e2,11912,"[{""event"":""focus"",""trial"":0,""time"":0},{""event"":""fullscreenenter"",""trial"":1,""time"":6476}]",NA,NA,NA,NA,NA,3,#3386FF,#D89F1C,10,10,1,38,1,492,37,1,848,10,1,experiment,NA,NA,0,0.9,0.1,0,1,104,3,NA
fcp-trial,138,1429225,0.0-113.0-0.0,voc_e2,11912,"[{""event"":""focus"",""trial"":0,""time"":0},{""event"":""fullscreenenter"",""trial"":1,""time"":6476}]",NA,NA,NA,NA,NA,4,#D8271C,#741CD8,0,10,0,38,1,446,39,0,403,10,1,experiment,NA,NA,1,0.3,0.7,3,2,105,3,NA
audio-instructions,139,2055074,0.0-114.0,voc_e2,11912,"[{""event"":""focus"",""trial"":0,""time"":0},{""event"":""fullscreenenter"",""trial"":1,""time"":6476}]",NA,621402,static/audio/pause.wav,NA,0,NA,NA,NA,NA,NA,NA,NA,NA,NA,NA,NA,NA,NA,NA,NA,NA,NA,NA,NA,NA,NA,NA,NA,NA,NA
fcp-trial,140,2058879,0.0-115.0-0.0,voc_e2,11912,"[{""event"":""focus"",""trial"":0,""time"":0},{""event"":""fullscreenenter"",""trial"":1,""time"":6476}]",NA,NA,NA,NA,NA,2,#FA92F8,#1CD855,0,10,0,38,1,1671,37,1,554,0,0,experiment,NA,NA,2,0.5,0.5,5,4,106,3,NA
fcp-trial,141,2061261,0.0-116.0-0.0,voc_e2,11912,"[{""event"":""focus"",""trial"":0,""time"":0},{""event"":""fullscreenenter"",""trial"":1,""time"":6476}]",NA,NA,NA,NA,NA,5,#1CD855,#FA92F8,10,0,1,38,1,477,39,0,367,0,0,experiment,NA,NA,2,0.5,0.5,4,5,107,3,NA
fcp-trial,142,2063703,0.0-117.0-0.0,voc_e2,11912,"[{""event"":""focus"",""trial"":0,""time"":0},{""event"":""fullscreenenter"",""trial"":1,""time"":6476}]",NA,NA,NA,NA,NA,4,#741CD8,#D8271C,10,10,1,38,1,569,37,1,331,10,1,experiment,NA,NA,1,0.7,0.3,2,3,108,3,NA
fcp-trial,143,2067002,0.0-118.0-0.0,voc_e2,11912,"[{""event"":""focus"",""trial"":0,""time"":0},{""event"":""fullscreenenter"",""trial"":1,""time"":6476}]",NA,NA,NA,NA,NA,1,#D89F1C,#3386FF,0,10,0,38,1,668,39,0,1110,10,1,experiment,NA,NA,0,0.1,0.9,1,0,109,3,NA
fcp-trial,144,2069489,0.0-119.0-0.0,voc_e2,11912,"[{""event"":""focus"",""trial"":0,""time"":0},{""event"":""fullscreenenter"",""trial"":1,""time"":6476}]",NA,NA,NA,NA,NA,4,#3386FF,#D89F1C,10,0,1,38,1,498,37,1,452,10,1,experiment,NA,NA,0,0.9,0.1,0,1,110,3,NA
fcp-trial,145,2073842,0.0-120.0-0.0,voc_e2,11912,"[{""event"":""focus"",""trial"":0,""time"":0},{""event"":""fullscreenenter"",""trial"":1,""time"":6476}]",NA,NA,NA,NA,NA,4,#1CD855,#FA92F8,0,0,1,38,1,1418,39,0,1290,0,0,experiment,NA,NA,2,0.5,0.5,4,5,111,3,NA
fcp-trial,146,2077595,0.0-121.0-0.0,voc_e2,11912,"[{""event"":""focus"",""trial"":0,""time"":0},{""event"":""fullscreenenter"",""trial"":1,""time"":6476}]",NA,NA,NA,NA,NA,5,#741CD8,#D8271C,10,10,1,38,1,1483,37,1,755,10,1,experiment,NA,NA,1,0.7,0.3,2,3,112,3,NA
fcp-trial,147,2080139,0.0-122.0-0.0,voc_e2,11912,"[{""event"":""focus"",""trial"":0,""time"":0},{""event"":""fullscreenenter"",""trial"":1,""time"":6476}]",NA,NA,NA,NA,NA,1,#FA92F8,#1CD855,10,10,0,38,1,257,37,1,761,10,0,experiment,NA,NA,2,0.5,0.5,5,4,113,3,NA
fcp-trial,148,2083053,0.0-123.0-0.0,voc_e2,11912,"[{""event"":""focus"",""trial"":0,""time"":0},{""event"":""fullscreenenter"",""trial"":1,""time"":6476}]",NA,NA,NA,NA,NA,1,#741CD8,#D8271C,10,0,1,38,1,160,39,0,1223,0,0,experiment,NA,NA,1,0.7,0.3,2,3,114,3,NA
fcp-trial,149,2087123,0.0-124.0-0.0,voc_e2,11912,"[{""event"":""focus"",""trial"":0,""time"":0},{""event"":""fullscreenenter"",""trial"":1,""time"":6476}]",NA,NA,NA,NA,NA,5,#3386FF,#D89F1C,10,0,1,38,1,1001,37,1,1549,10,1,experiment,NA,NA,0,0.9,0.1,0,1,115,3,NA
fcp-trial,150,2090793,0.0-125.0-0.0,voc_e2,11912,"[{""event"":""focus"",""trial"":0,""time"":0},{""event"":""fullscreenenter"",""trial"":1,""time"":6476}]",NA,NA,NA,NA,NA,0,#D89F1C,#3386FF,10,10,0,38,1,1664,37,1,480,10,0,experiment,NA,NA,0,0.1,0.9,1,0,116,3,NA
fcp-trial,151,2093452,0.0-126.0-0.0,voc_e2,11912,"[{""event"":""focus"",""trial"":0,""time"":0},{""event"":""fullscreenenter"",""trial"":1,""time"":6476}]",NA,NA,NA,NA,NA,3,#D8271C,#741CD8,0,0,0,38,1,540,37,1,587,0,0,experiment,NA,NA,1,0.3,0.7,3,2,117,3,NA
fcp-trial,152,2096142,0.0-127.0-0.0,voc_e2,11912,"[{""event"":""focus"",""trial"":0,""time"":0},{""event"":""fullscreenenter"",""trial"":1,""time"":6476}]",NA,NA,NA,NA,NA,0,#FA92F8,#1CD855,10,0,0,38,1,280,39,0,872,0,1,experiment,NA,NA,2,0.5,0.5,5,4,118,3,NA
fcp-trial,153,2098438,0.0-128.0-0.0,voc_e2,11912,"[{""event"":""focus"",""trial"":0,""time"":0},{""event"":""fullscreenenter"",""trial"":1,""time"":6476}]",NA,NA,NA,NA,NA,3,#FA92F8,#1CD855,0,10,0,38,1,175,37,1,603,0,0,experiment,NA,NA,2,0.5,0.5,5,4,119,3,NA
fcp-trial,154,2103004,0.0-129.0-0.0,voc_e2,11912,"[{""event"":""focus"",""trial"":0,""time"":0},{""event"":""fullscreenenter"",""trial"":1,""time"":6476}]",NA,NA,NA,NA,NA,3,#3386FF,#D89F1C,10,0,1,38,1,1781,37,1,1248,10,1,experiment,NA,NA,0,0.9,0.1,0,1,120,3,NA
fcp-trial,155,2106781,0.0-130.0-0.0,voc_e2,11912,"[{""event"":""focus"",""trial"":0,""time"":0},{""event"":""fullscreenenter"",""trial"":1,""time"":6476}]",NA,NA,NA,NA,NA,2,#741CD8,#D8271C,0,0,1,40,0,1449,39,0,799,0,0,experiment,NA,NA,1,0.7,0.3,2,3,121,3,NA
fcp-trial,156,2109722,0.0-131.0-0.0,voc_e2,11912,"[{""event"":""focus"",""trial"":0,""time"":0},{""event"":""fullscreenenter"",""trial"":1,""time"":6476}]",NA,NA,NA,NA,NA,2,#3386FF,#D89F1C,10,0,1,40,0,863,37,1,553,10,1,experiment,NA,NA,0,0.9,0.1,0,1,122,3,NA
fcp-trial,157,2112932,0.0-132.0-0.0,voc_e2,11912,"[{""event"":""focus"",""trial"":0,""time"":0},{""event"":""fullscreenenter"",""trial"":1,""time"":6476}]",NA,NA,NA,NA,NA,6,#741CD8,#D8271C,10,0,1,40,0,1169,37,1,495,10,1,experiment,NA,NA,1,0.7,0.3,2,3,123,3,NA
fcp-trial,158,2115292,0.0-133.0-0.0,voc_e2,11912,"[{""event"":""focus"",""trial"":0,""time"":0},{""event"":""fullscreenenter"",""trial"":1,""time"":6476}]",NA,NA,NA,NA,NA,6,#1CD855,#FA92F8,0,0,1,40,0,209,37,1,637,0,1,experiment,NA,NA,2,0.5,0.5,4,5,124,3,NA
fcp-trial,159,2117862,0.0-134.0-0.0,voc_e2,11912,"[{""event"":""focus"",""trial"":0,""time"":0},{""event"":""fullscreenenter"",""trial"":1,""time"":6476}]",NA,NA,NA,NA,NA,6,#3386FF,#D89F1C,0,0,1,40,0,629,37,1,403,0,1,experiment,NA,NA,0,0.9,0.1,0,1,125,3,NA
fcp-trial,160,2120394,0.0-135.0-0.0,voc_e2,11912,"[{""event"":""focus"",""trial"":0,""time"":0},{""event"":""fullscreenenter"",""trial"":1,""time"":6476}]",NA,NA,NA,NA,NA,0,#D8271C,#741CD8,0,10,0,40,0,450,37,1,530,0,0,experiment,NA,NA,1,0.3,0.7,3,2,126,3,NA
fcp-trial,161,2122612,0.0-136.0-0.0,voc_e2,11912,"[{""event"":""focus"",""trial"":0,""time"":0},{""event"":""fullscreenenter"",""trial"":1,""time"":6476}]",NA,NA,NA,NA,NA,2,#D89F1C,#3386FF,0,10,0,40,0,0,39,0,690,10,1,experiment,NA,NA,0,0.1,0.9,1,0,127,3,NA
fcp-trial,162,2124982,0.0-137.0-0.0,voc_e2,11912,"[{""event"":""focus"",""trial"":0,""time"":0},{""event"":""fullscreenenter"",""trial"":1,""time"":6476}]",NA,NA,NA,NA,NA,6,#741CD8,#D8271C,0,0,1,40,0,159,39,0,703,0,0,experiment,NA,NA,1,0.7,0.3,2,3,128,3,NA
fcp-trial,163,2128531,0.0-138.0-0.0,voc_e2,11912,"[{""event"":""focus"",""trial"":0,""time"":0},{""event"":""fullscreenenter"",""trial"":1,""time"":6476}]",NA,NA,NA,NA,NA,3,#1CD855,#FA92F8,10,10,1,40,0,1431,37,1,583,10,1,experiment,NA,NA,2,0.5,0.5,4,5,129,3,NA
fcp-trial,164,2132122,0.0-139.0-0.0,voc_e2,11912,"[{""event"":""focus"",""trial"":0,""time"":0},{""event"":""fullscreenenter"",""trial"":1,""time"":6476}]",NA,NA,NA,NA,NA,0,#D8271C,#741CD8,0,0,0,40,0,1411,39,0,659,0,1,experiment,NA,NA,1,0.3,0.7,3,2,130,3,NA
fcp-trial,165,2135892,0.0-140.0-0.0,voc_e2,11912,"[{""event"":""focus"",""trial"":0,""time"":0},{""event"":""fullscreenenter"",""trial"":1,""time"":6476}]",NA,NA,NA,NA,NA,4,#3386FF,#D89F1C,10,0,1,40,0,1737,39,0,502,0,0,experiment,NA,NA,0,0.9,0.1,0,1,131,3,NA
fcp-trial,166,2138622,0.0-141.0-0.0,voc_e2,11912,"[{""event"":""focus"",""trial"":0,""time"":0},{""event"":""fullscreenenter"",""trial"":1,""time"":6476}]",NA,NA,NA,NA,NA,2,#FA92F8,#1CD855,0,0,0,40,0,616,39,0,525,0,1,experiment,NA,NA,2,0.5,0.5,5,4,132,3,NA
fcp-trial,167,2142062,0.0-142.0-0.0,voc_e2,11912,"[{""event"":""focus"",""trial"":0,""time"":0},{""event"":""fullscreenenter"",""trial"":1,""time"":6476}]",NA,NA,NA,NA,NA,4,#FA92F8,#1CD855,0,0,0,40,0,1444,39,0,443,0,1,experiment,NA,NA,2,0.5,0.5,5,4,133,3,NA
fcp-trial,168,2144602,0.0-143.0-0.0,voc_e2,11912,"[{""event"":""focus"",""trial"":0,""time"":0},{""event"":""fullscreenenter"",""trial"":1,""time"":6476}]",NA,NA,NA,NA,NA,5,#FA92F8,#1CD855,10,10,0,40,0,534,39,0,467,10,1,experiment,NA,NA,2,0.5,0.5,5,4,134,3,NA
fcp-trial,169,2147042,0.0-144.0-0.0,voc_e2,11912,"[{""event"":""focus"",""trial"":0,""time"":0},{""event"":""fullscreenenter"",""trial"":1,""time"":6476}]",NA,NA,NA,NA,NA,3,#741CD8,#D8271C,10,0,1,40,0,434,39,0,495,0,0,experiment,NA,NA,1,0.7,0.3,2,3,135,3,NA
fcp-trial,170,2150062,0.0-145.0-0.0,voc_e2,11912,"[{""event"":""focus"",""trial"":0,""time"":0},{""event"":""fullscreenenter"",""trial"":1,""time"":6476}]",NA,NA,NA,NA,NA,3,#D89F1C,#3386FF,0,10,0,40,0,597,39,0,766,10,1,experiment,NA,NA,0,0.1,0.9,1,0,136,4,NA
fcp-trial,171,2153088,0.0-146.0-0.0,voc_e2,11912,"[{""event"":""focus"",""trial"":0,""time"":0},{""event"":""fullscreenenter"",""trial"":1,""time"":6476}]",NA,NA,NA,NA,NA,6,#3386FF,#D89F1C,10,0,1,40,0,1019,39,0,472,0,0,experiment,NA,NA,0,0.9,0.1,0,1,137,4,NA
fcp-trial,172,2157382,0.0-147.0-0.0,voc_e2,11912,"[{""event"":""focus"",""trial"":0,""time"":0},{""event"":""fullscreenenter"",""trial"":1,""time"":6476}]",NA,NA,NA,NA,NA,1,#FA92F8,#1CD855,0,0,0,40,0,2259,39,0,440,0,1,experiment,NA,NA,2,0.5,0.5,5,4,138,4,NA
fcp-trial,173,2162864,0.0-148.0-0.0,voc_e2,11912,"[{""event"":""focus"",""trial"":0,""time"":0},{""event"":""fullscreenenter"",""trial"":1,""time"":6476}]",NA,NA,NA,NA,NA,4,#741CD8,#D8271C,10,10,1,40,0,1365,37,1,2595,10,1,experiment,NA,NA,1,0.7,0.3,2,3,139,4,NA
fcp-trial,174,2165784,0.0-149.0-0.0,voc_e2,11912,"[{""event"":""focus"",""trial"":0,""time"":0},{""event"":""fullscreenenter"",""trial"":1,""time"":6476}]",NA,NA,NA,NA,NA,0,#1CD855,#FA92F8,0,0,1,40,0,802,37,1,586,0,1,experiment,NA,NA,2,0.5,0.5,4,5,140,4,NA
fcp-trial,175,2168022,0.0-150.0-0.0,voc_e2,11912,"[{""event"":""focus"",""trial"":0,""time"":0},{""event"":""fullscreenenter"",""trial"":1,""time"":6476}]",NA,NA,NA,NA,NA,5,#741CD8,#D8271C,0,0,1,40,0,200,39,0,506,0,0,experiment,NA,NA,1,0.7,0.3,2,3,141,4,NA
fcp-trial,176,2171142,0.0-151.0-0.0,voc_e2,11912,"[{""event"":""focus"",""trial"":0,""time"":0},{""event"":""fullscreenenter"",""trial"":1,""time"":6476}]",NA,NA,NA,NA,NA,5,#D89F1C,#3386FF,0,10,0,40,0,1133,39,0,468,10,1,experiment,NA,NA,0,0.1,0.9,1,0,142,4,NA
fcp-trial,177,2173992,0.0-152.0-0.0,voc_e2,11912,"[{""event"":""focus"",""trial"":0,""time"":0},{""event"":""fullscreenenter"",""trial"":1,""time"":6476}]",NA,NA,NA,NA,NA,1,#741CD8,#D8271C,10,0,1,40,0,773,37,1,547,10,1,experiment,NA,NA,1,0.7,0.3,2,3,143,4,NA
fcp-trial,178,2176544,0.0-153.0-0.0,voc_e2,11912,"[{""event"":""focus"",""trial"":0,""time"":0},{""event"":""fullscreenenter"",""trial"":1,""time"":6476}]",NA,NA,NA,NA,NA,2,#741CD8,#D8271C,10,0,1,40,0,524,37,1,505,10,1,experiment,NA,NA,1,0.7,0.3,2,3,144,4,NA
fcp-trial,179,2179184,0.0-154.0-0.0,voc_e2,11912,"[{""event"":""focus"",""trial"":0,""time"":0},{""event"":""fullscreenenter"",""trial"":1,""time"":6476}]",NA,NA,NA,NA,NA,6,#FA92F8,#1CD855,10,10,0,40,0,675,39,0,447,10,1,experiment,NA,NA,2,0.5,0.5,5,4,145,4,NA
fcp-trial,180,2181702,0.0-155.0-0.0,voc_e2,11912,"[{""event"":""focus"",""trial"":0,""time"":0},{""event"":""fullscreenenter"",""trial"":1,""time"":6476}]",NA,NA,NA,NA,NA,1,#3386FF,#D89F1C,10,0,1,40,0,579,39,0,392,0,0,experiment,NA,NA,0,0.9,0.1,0,1,146,4,NA
fcp-trial,181,2184211,0.0-156.0-0.0,voc_e2,11912,"[{""event"":""focus"",""trial"":0,""time"":0},{""event"":""fullscreenenter"",""trial"":1,""time"":6476}]",NA,NA,NA,NA,NA,0,#3386FF,#D89F1C,10,10,1,40,0,500,37,1,494,10,1,experiment,NA,NA,0,0.9,0.1,0,1,147,4,NA
fcp-trial,182,2189474,0.0-157.0-0.0,voc_e2,11912,"[{""event"":""focus"",""trial"":0,""time"":0},{""event"":""fullscreenenter"",""trial"":1,""time"":6476}]",NA,NA,NA,NA,NA,3,#3386FF,#D89F1C,10,0,1,40,0,1406,39,0,2328,0,0,experiment,NA,NA,0,0.9,0.1,0,1,148,4,NA
fcp-trial,183,2191862,0.0-158.0-0.0,voc_e2,11912,"[{""event"":""focus"",""trial"":0,""time"":0},{""event"":""fullscreenenter"",""trial"":1,""time"":6476}]",NA,NA,NA,NA,NA,2,#D89F1C,#3386FF,0,10,0,40,0,153,39,0,613,10,1,experiment,NA,NA,0,0.1,0.9,1,0,149,4,NA
fcp-trial,184,2194472,0.0-159.0-0.0,voc_e2,11912,"[{""event"":""focus"",""trial"":0,""time"":0},{""event"":""fullscreenenter"",""trial"":1,""time"":6476}]",NA,NA,NA,NA,NA,5,#D8271C,#741CD8,0,10,0,40,0,735,39,0,354,10,1,experiment,NA,NA,1,0.3,0.7,3,2,150,4,NA
fcp-trial,185,2196781,0.0-160.0-0.0,voc_e2,11912,"[{""event"":""focus"",""trial"":0,""time"":0},{""event"":""fullscreenenter"",""trial"":1,""time"":6476}]",NA,NA,NA,NA,NA,4,#D8271C,#741CD8,0,10,0,40,0,228,37,1,545,0,0,experiment,NA,NA,1,0.3,0.7,3,2,151,4,NA
fcp-trial,186,2201337,0.0-161.0-0.0,voc_e2,11912,"[{""event"":""focus"",""trial"":0,""time"":0},{""event"":""fullscreenenter"",""trial"":1,""time"":6476}]",NA,NA,NA,NA,NA,2,#D8271C,#741CD8,0,0,0,40,0,2359,39,0,666,0,1,experiment,NA,NA,1,0.3,0.7,3,2,152,4,NA
fcp-trial,187,2203473,0.0-162.0-0.0,voc_e2,11912,"[{""event"":""focus"",""trial"":0,""time"":0},{""event"":""fullscreenenter"",""trial"":1,""time"":6476}]",NA,NA,NA,NA,NA,6,#D89F1C,#3386FF,0,0,0,40,0,51,39,0,554,0,1,experiment,NA,NA,0,0.1,0.9,1,0,153,4,NA
fcp-trial,188,2206407,0.0-163.0-0.0,voc_e2,11912,"[{""event"":""focus"",""trial"":0,""time"":0},{""event"":""fullscreenenter"",""trial"":1,""time"":6476}]",NA,NA,NA,NA,NA,2,#1CD855,#FA92F8,0,10,1,40,0,1018,37,1,389,0,1,experiment,NA,NA,2,0.5,0.5,4,5,154,4,NA
fcp-trial,189,2209918,0.0-164.0-0.0,voc_e2,11912,"[{""event"":""focus"",""trial"":0,""time"":0},{""event"":""fullscreenenter"",""trial"":1,""time"":6476}]",NA,NA,NA,NA,NA,0,#FA92F8,#1CD855,10,0,0,40,0,1417,37,1,552,10,0,experiment,NA,NA,2,0.5,0.5,5,4,155,4,NA
fcp-trial,190,2212442,0.0-165.0-0.0,voc_e2,11912,"[{""event"":""focus"",""trial"":0,""time"":0},{""event"":""fullscreenenter"",""trial"":1,""time"":6476}]",NA,NA,NA,NA,NA,3,#FA92F8,#1CD855,10,0,0,40,0,360,39,0,631,0,1,experiment,NA,NA,2,0.5,0.5,5,4,156,4,NA
fcp-trial,191,2215741,0.0-166.0-0.0,voc_e2,11912,"[{""event"":""focus"",""trial"":0,""time"":0},{""event"":""fullscreenenter"",""trial"":1,""time"":6476}]",NA,NA,NA,NA,NA,1,#741CD8,#D8271C,0,0,1,40,0,1305,37,1,452,0,1,experiment,NA,NA,1,0.7,0.3,2,3,157,4,NA
fcp-trial,192,2217762,0.0-167.0-0.0,voc_e2,11912,"[{""event"":""focus"",""trial"":0,""time"":0},{""event"":""fullscreenenter"",""trial"":1,""time"":6476}]",NA,NA,NA,NA,NA,4,#3386FF,#D89F1C,10,0,1,40,0,23,37,1,466,10,1,experiment,NA,NA,0,0.9,0.1,0,1,158,4,NA
fcp-trial,193,2220673,0.0-168.0-0.0,voc_e2,11912,"[{""event"":""focus"",""trial"":0,""time"":0},{""event"":""fullscreenenter"",""trial"":1,""time"":6476}]",NA,NA,NA,NA,NA,6,#FA92F8,#1CD855,0,0,0,40,0,961,39,0,410,0,1,experiment,NA,NA,2,0.5,0.5,5,4,159,4,NA
fcp-trial,194,2223091,0.0-169.0-0.0,voc_e2,11912,"[{""event"":""focus"",""trial"":0,""time"":0},{""event"":""fullscreenenter"",""trial"":1,""time"":6476}]",NA,NA,NA,NA,NA,3,#741CD8,#D8271C,10,10,1,40,0,515,37,1,369,10,1,experiment,NA,NA,1,0.7,0.3,2,3,160,4,NA
fcp-trial,195,2225681,0.0-170.0-0.0,voc_e2,11912,"[{""event"":""focus"",""trial"":0,""time"":0},{""event"":""fullscreenenter"",""trial"":1,""time"":6476}]",NA,NA,NA,NA,NA,1,#FA92F8,#1CD855,10,0,0,40,0,704,37,1,362,10,0,experiment,NA,NA,2,0.5,0.5,5,4,161,4,NA
fcp-trial,196,2228747,0.0-171.0-0.0,voc_e2,11912,"[{""event"":""focus"",""trial"":0,""time"":0},{""event"":""fullscreenenter"",""trial"":1,""time"":6476}]",NA,NA,NA,NA,NA,5,#1CD855,#FA92F8,0,10,1,40,0,979,39,0,435,10,0,experiment,NA,NA,2,0.5,0.5,4,5,162,4,NA
fcp-trial,197,2231772,0.0-172.0-0.0,voc_e2,11912,"[{""event"":""focus"",""trial"":0,""time"":0},{""event"":""fullscreenenter"",""trial"":1,""time"":6476}]",NA,NA,NA,NA,NA,5,#D89F1C,#3386FF,0,10,0,40,0,264,39,0,1239,10,1,experiment,NA,NA,0,0.1,0.9,1,0,163,4,NA
fcp-trial,198,2234811,0.0-173.0-0.0,voc_e2,11912,"[{""event"":""focus"",""trial"":0,""time"":0},{""event"":""fullscreenenter"",""trial"":1,""time"":6476}]",NA,NA,NA,NA,NA,6,#741CD8,#D8271C,0,10,1,40,0,45,37,1,1358,0,1,experiment,NA,NA,1,0.7,0.3,2,3,164,4,NA
fcp-trial,199,2237471,0.0-174.0-0.0,voc_e2,11912,"[{""event"":""focus"",""trial"":0,""time"":0},{""event"":""fullscreenenter"",""trial"":1,""time"":6476}]",NA,NA,NA,NA,NA,0,#3386FF,#D89F1C,10,0,1,40,0,730,37,1,374,10,1,experiment,NA,NA,0,0.9,0.1,0,1,165,4,NA
fcp-trial,200,2239840,0.0-175.0-0.0,voc_e2,11912,"[{""event"":""focus"",""trial"":0,""time"":0},{""event"":""fullscreenenter"",""trial"":1,""time"":6476}]",NA,NA,NA,NA,NA,1,#3386FF,#D89F1C,10,0,1,40,0,479,37,1,374,10,1,experiment,NA,NA,0,0.9,0.1,0,1,166,4,NA
fcp-trial,201,2242581,0.0-176.0-0.0,voc_e2,11912,"[{""event"":""focus"",""trial"":0,""time"":0},{""event"":""fullscreenenter"",""trial"":1,""time"":6476}]",NA,NA,NA,NA,NA,4,#1CD855,#FA92F8,0,0,1,40,0,819,37,1,394,0,1,experiment,NA,NA,2,0.5,0.5,4,5,167,4,NA
fcp-trial,202,2245032,0.0-177.0-0.0,voc_e2,11912,"[{""event"":""focus"",""trial"":0,""time"":0},{""event"":""fullscreenenter"",""trial"":1,""time"":6476}]",NA,NA,NA,NA,NA,0,#741CD8,#D8271C,10,10,1,40,0,502,37,1,417,10,1,experiment,NA,NA,1,0.7,0.3,2,3,168,4,NA
fcp-trial,203,2247926,0.0-178.0-0.0,voc_e2,11912,"[{""event"":""focus"",""trial"":0,""time"":0},{""event"":""fullscreenenter"",""trial"":1,""time"":6476}]",NA,NA,NA,NA,NA,2,#741CD8,#D8271C,10,0,1,40,0,1077,37,1,301,10,1,experiment,NA,NA,1,0.7,0.3,2,3,169,4,NA
fcp-trial,204,2250511,0.0-179.0-0.0,voc_e2,11912,"[{""event"":""focus"",""trial"":0,""time"":0},{""event"":""fullscreenenter"",""trial"":1,""time"":6476}]",NA,NA,NA,NA,NA,5,#1CD855,#FA92F8,0,10,1,40,0,535,39,0,525,10,0,experiment,NA,NA,2,0.5,0.5,4,5,170,4,NA
fcp-trial,205,2253512,0.0-180.0-0.0,voc_e2,11912,"[{""event"":""focus"",""trial"":0,""time"":0},{""event"":""fullscreenenter"",""trial"":1,""time"":6476}]",NA,NA,NA,NA,NA,1,#1CD855,#FA92F8,10,10,1,40,0,933,39,0,534,10,0,experiment,NA,NA,2,0.5,0.5,4,5,171,4,NA
fcp-trial,206,2255942,0.0-181.0-0.0,voc_e2,11912,"[{""event"":""focus"",""trial"":0,""time"":0},{""event"":""fullscreenenter"",""trial"":1,""time"":6476}]",NA,NA,NA,NA,NA,0,#1CD855,#FA92F8,10,10,1,40,0,292,37,1,609,10,1,experiment,NA,NA,2,0.5,0.5,4,5,172,4,NA
fcp-trial,207,2258067,0.0-182.0-0.0,voc_e2,11912,"[{""event"":""focus"",""trial"":0,""time"":0},{""event"":""fullscreenenter"",""trial"":1,""time"":6476}]",NA,NA,NA,NA,NA,1,#3386FF,#D89F1C,10,0,1,40,0,48,39,0,558,0,0,experiment,NA,NA,0,0.9,0.1,0,1,173,4,NA
fcp-trial,208,2260622,0.0-183.0-0.0,voc_e2,11912,"[{""event"":""focus"",""trial"":0,""time"":0},{""event"":""fullscreenenter"",""trial"":1,""time"":6476}]",NA,NA,NA,NA,NA,1,#741CD8,#D8271C,0,0,1,40,0,561,37,1,482,0,1,experiment,NA,NA,1,0.7,0.3,2,3,174,4,NA
fcp-trial,209,2263618,0.0-184.0-0.0,voc_e2,11912,"[{""event"":""focus"",""trial"":0,""time"":0},{""event"":""fullscreenenter"",""trial"":1,""time"":6476}]",NA,NA,NA,NA,NA,5,#D89F1C,#3386FF,0,10,0,40,0,812,39,0,511,10,1,experiment,NA,NA,0,0.1,0.9,1,0,175,4,NA
fcp-trial,210,2266307,0.0-185.0-0.0,voc_e2,11912,"[{""event"":""focus"",""trial"":0,""time"":0},{""event"":""fullscreenenter"",""trial"":1,""time"":6476}]",NA,NA,NA,NA,NA,6,#741CD8,#D8271C,10,0,1,40,0,729,37,1,447,10,1,experiment,NA,NA,1,0.7,0.3,2,3,176,4,NA
fcp-trial,211,2268811,0.0-186.0-0.0,voc_e2,11912,"[{""event"":""focus"",""trial"":0,""time"":0},{""event"":""fullscreenenter"",""trial"":1,""time"":6476}]",NA,NA,NA,NA,NA,3,#FA92F8,#1CD855,0,10,0,40,0,513,39,0,470,10,1,experiment,NA,NA,2,0.5,0.5,5,4,177,4,NA
fcp-trial,212,2272256,0.0-187.0-0.0,voc_e2,11912,"[{""event"":""focus"",""trial"":0,""time"":0},{""event"":""fullscreenenter"",""trial"":1,""time"":6476}]",NA,NA,NA,NA,NA,4,#3386FF,#D89F1C,10,10,1,40,0,651,37,1,1280,10,1,experiment,NA,NA,0,0.9,0.1,0,1,178,4,NA
fcp-trial,213,2278456,0.0-188.0-0.0,voc_e2,11912,"[{""event"":""focus"",""trial"":0,""time"":0},{""event"":""fullscreenenter"",""trial"":1,""time"":6476}]",NA,NA,NA,NA,NA,3,#D8271C,#741CD8,10,10,0,40,0,4123,37,1,563,10,0,experiment,NA,NA,1,0.3,0.7,3,2,179,4,NA
fcp-trial,214,2280721,0.0-189.0-0.0,voc_e2,11912,"[{""event"":""focus"",""trial"":0,""time"":0},{""event"":""fullscreenenter"",""trial"":1,""time"":6476}]",NA,NA,NA,NA,NA,3,#3386FF,#D89F1C,10,0,1,40,0,176,37,1,566,10,1,experiment,NA,NA,0,0.9,0.1,0,1,180,4,NA
fcp-trial,215,2283683,0.0-190.0-0.0,voc_e2,11912,"[{""event"":""focus"",""trial"":0,""time"":0},{""event"":""fullscreenenter"",""trial"":1,""time"":6476}]",NA,NA,NA,NA,NA,4,#741CD8,#D8271C,10,0,1,40,0,1059,37,1,388,10,1,experiment,NA,NA,1,0.7,0.3,2,3,181,5,NA
fcp-trial,216,2286543,0.0-191.0-0.0,voc_e2,11912,"[{""event"":""focus"",""trial"":0,""time"":0},{""event"":""fullscreenenter"",""trial"":1,""time"":6476}]",NA,NA,NA,NA,NA,4,#1CD855,#FA92F8,0,0,1,40,0,858,39,0,485,0,0,experiment,NA,NA,2,0.5,0.5,4,5,182,5,NA
fcp-trial,217,2289073,0.0-192.0-0.0,voc_e2,11912,"[{""event"":""focus"",""trial"":0,""time"":0},{""event"":""fullscreenenter"",""trial"":1,""time"":6476}]",NA,NA,NA,NA,NA,0,#D89F1C,#3386FF,0,10,0,40,0,580,39,0,414,10,1,experiment,NA,NA,0,0.1,0.9,1,0,183,5,NA
fcp-trial,218,2292016,0.0-193.0-0.0,voc_e2,11912,"[{""event"":""focus"",""trial"":0,""time"":0},{""event"":""fullscreenenter"",""trial"":1,""time"":6476}]",NA,NA,NA,NA,NA,6,#1CD855,#FA92F8,10,10,1,40,0,964,37,1,460,10,1,experiment,NA,NA,2,0.5,0.5,4,5,184,5,NA
fcp-trial,219,2294916,0.0-194.0-0.0,voc_e2,11912,"[{""event"":""focus"",""trial"":0,""time"":0},{""event"":""fullscreenenter"",""trial"":1,""time"":6476}]",NA,NA,NA,NA,NA,6,#D89F1C,#3386FF,0,10,0,40,0,990,39,0,364,10,1,experiment,NA,NA,0,0.1,0.9,1,0,185,5,NA
fcp-trial,220,2297606,0.0-195.0-0.0,voc_e2,11912,"[{""event"":""focus"",""trial"":0,""time"":0},{""event"":""fullscreenenter"",""trial"":1,""time"":6476}]",NA,NA,NA,NA,NA,0,#741CD8,#D8271C,0,0,1,40,0,712,37,1,436,0,1,experiment,NA,NA,1,0.7,0.3,2,3,186,5,NA
fcp-trial,221,2300242,0.0-196.0-0.0,voc_e2,11912,"[{""event"":""focus"",""trial"":0,""time"":0},{""event"":""fullscreenenter"",""trial"":1,""time"":6476}]",NA,NA,NA,NA,NA,2,#FA92F8,#1CD855,10,0,0,40,0,580,37,1,544,10,0,experiment,NA,NA,2,0.5,0.5,5,4,187,5,NA
fcp-trial,222,2302468,0.0-197.0-0.0,voc_e2,11912,"[{""event"":""focus"",""trial"":0,""time"":0},{""event"":""fullscreenenter"",""trial"":1,""time"":6476}]",NA,NA,NA,NA,NA,5,#D8271C,#741CD8,0,0,0,40,0,250,39,0,446,0,1,experiment,NA,NA,1,0.3,0.7,3,2,188,5,NA
fcp-trial,223,2305754,0.0-198.0-0.0,voc_e2,11912,"[{""event"":""focus"",""trial"":0,""time"":0},{""event"":""fullscreenenter"",""trial"":1,""time"":6476}]",NA,NA,NA,NA,NA,2,#D89F1C,#3386FF,0,10,0,40,0,1059,39,0,706,10,1,experiment,NA,NA,0,0.1,0.9,1,0,189,5,NA
fcp-trial,224,2307991,0.0-199.0-0.0,voc_e2,11912,"[{""event"":""focus"",""trial"":0,""time"":0},{""event"":""fullscreenenter"",""trial"":1,""time"":6476}]",NA,NA,NA,NA,NA,5,#D8271C,#741CD8,10,10,0,40,0,154,37,1,562,10,0,experiment,NA,NA,1,0.3,0.7,3,2,190,5,NA
fcp-trial,225,2309981,0.0-200.0-0.0,voc_e2,11912,"[{""event"":""focus"",""trial"":0,""time"":0},{""event"":""fullscreenenter"",""trial"":1,""time"":6476}]",NA,NA,NA,NA,NA,3,#D8271C,#741CD8,0,10,0,40,0,38,37,1,417,0,0,experiment,NA,NA,1,0.3,0.7,3,2,191,5,NA
fcp-trial,226,2312702,0.0-201.0-0.0,voc_e2,11912,"[{""event"":""focus"",""trial"":0,""time"":0},{""event"":""fullscreenenter"",""trial"":1,""time"":6476}]",NA,NA,NA,NA,NA,0,#1CD855,#FA92F8,10,0,1,40,0,714,37,1,487,10,1,experiment,NA,NA,2,0.5,0.5,4,5,192,5,NA
fcp-trial,227,2315370,0.0-202.0-0.0,voc_e2,11912,"[{""event"":""focus"",""trial"":0,""time"":0},{""event"":""fullscreenenter"",""trial"":1,""time"":6476}]",NA,NA,NA,NA,NA,0,#D89F1C,#3386FF,0,10,0,40,0,563,39,0,567,10,1,experiment,NA,NA,0,0.1,0.9,1,0,193,5,NA
fcp-trial,228,2318273,0.0-203.0-0.0,voc_e2,11912,"[{""event"":""focus"",""trial"":0,""time"":0},{""event"":""fullscreenenter"",""trial"":1,""time"":6476}]",NA,NA,NA,NA,NA,5,#3386FF,#D89F1C,10,0,1,40,0,648,37,1,732,10,1,experiment,NA,NA,0,0.9,0.1,0,1,194,5,NA
fcp-trial,229,2321082,0.0-204.0-0.0,voc_e2,11912,"[{""event"":""focus"",""trial"":0,""time"":0},{""event"":""fullscreenenter"",""trial"":1,""time"":6476}]",NA,NA,NA,NA,NA,2,#741CD8,#D8271C,10,0,1,40,0,651,37,1,633,10,1,experiment,NA,NA,1,0.7,0.3,2,3,195,5,NA
fcp-trial,230,2323511,0.0-205.0-0.0,voc_e2,11912,"[{""event"":""focus"",""trial"":0,""time"":0},{""event"":""fullscreenenter"",""trial"":1,""time"":6476}]",NA,NA,NA,NA,NA,4,#3386FF,#D89F1C,10,0,1,40,0,447,39,0,434,0,0,experiment,NA,NA,0,0.9,0.1,0,1,196,5,NA
fcp-trial,231,2326093,0.0-206.0-0.0,voc_e2,11912,"[{""event"":""focus"",""trial"":0,""time"":0},{""event"":""fullscreenenter"",""trial"":1,""time"":6476}]",NA,NA,NA,NA,NA,1,#1CD855,#FA92F8,0,10,1,40,0,517,37,1,548,0,1,experiment,NA,NA,2,0.5,0.5,4,5,197,5,NA
fcp-trial,232,2328886,0.0-207.0-0.0,voc_e2,11912,"[{""event"":""focus"",""trial"":0,""time"":0},{""event"":""fullscreenenter"",""trial"":1,""time"":6476}]",NA,NA,NA,NA,NA,6,#3386FF,#D89F1C,10,0,1,40,0,503,37,1,590,10,1,experiment,NA,NA,0,0.9,0.1,0,1,198,5,NA
fcp-trial,233,2331094,0.0-208.0-0.0,voc_e2,11912,"[{""event"":""focus"",""trial"":0,""time"":0},{""event"":""fullscreenenter"",""trial"":1,""time"":6476}]",NA,NA,NA,NA,NA,3,#FA92F8,#1CD855,10,10,0,40,0,101,39,0,593,10,1,experiment,NA,NA,2,0.5,0.5,5,4,199,5,NA
fcp-trial,234,2337141,0.0-209.0-0.0,voc_e2,11912,"[{""event"":""focus"",""trial"":0,""time"":0},{""event"":""fullscreenenter"",""trial"":1,""time"":6476}]",NA,NA,NA,NA,NA,6,#741CD8,#D8271C,10,10,1,38,1,4150,39,0,314,10,0,experiment,NA,NA,1,0.7,0.3,2,3,200,5,NA
fcp-trial,235,2340125,0.0-210.0-0.0,voc_e2,11912,"[{""event"":""focus"",""trial"":0,""time"":0},{""event"":""fullscreenenter"",""trial"":1,""time"":6476}]",NA,NA,NA,NA,NA,6,#1CD855,#FA92F8,10,10,1,38,1,830,39,0,627,10,0,experiment,NA,NA,2,0.5,0.5,4,5,201,5,NA
fcp-trial,236,2342742,0.0-211.0-0.0,voc_e2,11912,"[{""event"":""focus"",""trial"":0,""time"":0},{""event"":""fullscreenenter"",""trial"":1,""time"":6476}]",NA,NA,NA,NA,NA,4,#D8271C,#741CD8,0,0,0,38,1,639,39,0,460,0,1,experiment,NA,NA,1,0.3,0.7,3,2,202,5,NA
fcp-trial,237,2345633,0.0-212.0-0.0,voc_e2,11912,"[{""event"":""focus"",""trial"":0,""time"":0},{""event"":""fullscreenenter"",""trial"":1,""time"":6476}]",NA,NA,NA,NA,NA,3,#3386FF,#D89F1C,0,0,1,38,1,934,37,1,451,0,1,experiment,NA,NA,0,0.9,0.1,0,1,203,5,NA
fcp-trial,238,2348366,0.0-213.0-0.0,voc_e2,11912,"[{""event"":""focus"",""trial"":0,""time"":0},{""event"":""fullscreenenter"",""trial"":1,""time"":6476}]",NA,NA,NA,NA,NA,4,#1CD855,#FA92F8,0,10,1,38,1,442,37,1,761,0,1,experiment,NA,NA,2,0.5,0.5,4,5,204,5,NA
fcp-trial,239,2351091,0.0-214.0-0.0,voc_e2,11912,"[{""event"":""focus"",""trial"":0,""time"":0},{""event"":""fullscreenenter"",""trial"":1,""time"":6476}]",NA,NA,NA,NA,NA,2,#FA92F8,#1CD855,0,0,0,38,1,717,37,1,486,0,0,experiment,NA,NA,2,0.5,0.5,5,4,205,5,NA
fcp-trial,240,2353681,0.0-215.0-0.0,voc_e2,11912,"[{""event"":""focus"",""trial"":0,""time"":0},{""event"":""fullscreenenter"",""trial"":1,""time"":6476}]",NA,NA,NA,NA,NA,0,#741CD8,#D8271C,10,0,1,38,1,476,37,1,581,10,1,experiment,NA,NA,1,0.7,0.3,2,3,206,5,NA
fcp-trial,241,2355976,0.0-216.0-0.0,voc_e2,11912,"[{""event"":""focus"",""trial"":0,""time"":0},{""event"":""fullscreenenter"",""trial"":1,""time"":6476}]",NA,NA,NA,NA,NA,1,#3386FF,#D89F1C,10,0,1,38,1,312,37,1,450,10,1,experiment,NA,NA,0,0.9,0.1,0,1,207,5,NA
fcp-trial,242,2358409,0.0-217.0-0.0,voc_e2,11912,"[{""event"":""focus"",""trial"":0,""time"":0},{""event"":""fullscreenenter"",""trial"":1,""time"":6476}]",NA,NA,NA,NA,NA,1,#D8271C,#741CD8,0,10,0,38,1,452,39,0,453,10,1,experiment,NA,NA,1,0.3,0.7,3,2,208,5,NA
fcp-trial,243,2361271,0.0-218.0-0.0,voc_e2,11912,"[{""event"":""focus"",""trial"":0,""time"":0},{""event"":""fullscreenenter"",""trial"":1,""time"":6476}]",NA,NA,NA,NA,NA,2,#D89F1C,#3386FF,10,10,0,38,1,781,37,1,549,10,0,experiment,NA,NA,0,0.1,0.9,1,0,209,5,NA
fcp-trial,244,2364270,0.0-219.0-0.0,voc_e2,11912,"[{""event"":""focus"",""trial"":0,""time"":0},{""event"":""fullscreenenter"",""trial"":1,""time"":6476}]",NA,NA,NA,NA,NA,5,#FA92F8,#1CD855,10,0,0,38,1,699,37,1,770,10,0,experiment,NA,NA,2,0.5,0.5,5,4,210,5,NA
audio-instructions,245,2374214,0.0-220.0,voc_e2,11912,"[{""event"":""focus"",""trial"":0,""time"":0},{""event"":""fullscreenenter"",""trial"":1,""time"":6476}]",NA,5497,static/audio/pause.wav,NA,0,NA,NA,NA,NA,NA,NA,NA,NA,NA,NA,NA,NA,NA,NA,NA,NA,NA,NA,NA,NA,NA,NA,NA,NA,NA
fcp-trial,246,2377631,0.0-221.0-0.0,voc_e2,11912,"[{""event"":""focus"",""trial"":0,""time"":0},{""event"":""fullscreenenter"",""trial"":1,""time"":6476}]",NA,NA,NA,NA,NA,2,#1CD855,#FA92F8,0,10,1,38,1,1349,39,0,547,10,0,experiment,NA,NA,2,0.5,0.5,4,5,211,5,NA
fcp-trial,247,2380079,0.0-222.0-0.0,voc_e2,11912,"[{""event"":""focus"",""trial"":0,""time"":0},{""event"":""fullscreenenter"",""trial"":1,""time"":6476}]",NA,NA,NA,NA,NA,0,#D89F1C,#3386FF,0,10,0,38,1,484,37,1,427,0,0,experiment,NA,NA,0,0.1,0.9,1,0,212,5,NA
fcp-trial,248,2382101,0.0-223.0-0.0,voc_e2,11912,"[{""event"":""focus"",""trial"":0,""time"":0},{""event"":""fullscreenenter"",""trial"":1,""time"":6476}]",NA,NA,NA,NA,NA,4,#FA92F8,#1CD855,0,10,0,38,1,2,37,1,483,0,0,experiment,NA,NA,2,0.5,0.5,5,4,213,5,NA
fcp-trial,249,2385218,0.0-224.0-0.0,voc_e2,11912,"[{""event"":""focus"",""trial"":0,""time"":0},{""event"":""fullscreenenter"",""trial"":1,""time"":6476}]",NA,NA,NA,NA,NA,4,#D8271C,#741CD8,0,0,0,38,1,1328,37,1,259,0,0,experiment,NA,NA,1,0.3,0.7,3,2,214,5,NA
fcp-trial,250,2387591,0.0-225.0-0.0,voc_e2,11912,"[{""event"":""focus"",""trial"":0,""time"":0},{""event"":""fullscreenenter"",""trial"":1,""time"":6476}]",NA,NA,NA,NA,NA,2,#3386FF,#D89F1C,10,0,1,38,1,456,37,1,388,10,1,experiment,NA,NA,0,0.9,0.1,0,1,215,5,NA
fcp-trial,251,2391078,0.0-226.0-0.0,voc_e2,11912,"[{""event"":""focus"",""trial"":0,""time"":0},{""event"":""fullscreenenter"",""trial"":1,""time"":6476}]",NA,NA,NA,NA,NA,3,#FA92F8,#1CD855,0,10,0,38,1,1252,39,0,721,10,1,experiment,NA,NA,2,0.5,0.5,5,4,216,5,NA
fcp-trial,252,2394279,0.0-227.0-0.0,voc_e2,11912,"[{""event"":""focus"",""trial"":0,""time"":0},{""event"":""fullscreenenter"",""trial"":1,""time"":6476}]",NA,NA,NA,NA,NA,4,#D89F1C,#3386FF,0,0,0,38,1,1317,37,1,355,0,0,experiment,NA,NA,0,0.1,0.9,1,0,217,5,NA
fcp-trial,253,2397541,0.0-228.0-0.0,voc_e2,11912,"[{""event"":""focus"",""trial"":0,""time"":0},{""event"":""fullscreenenter"",""trial"":1,""time"":6476}]",NA,NA,NA,NA,NA,5,#3386FF,#D89F1C,10,0,1,38,1,1149,39,0,584,0,0,experiment,NA,NA,0,0.9,0.1,0,1,218,5,NA
fcp-trial,254,2400736,0.0-229.0-0.0,voc_e2,11912,"[{""event"":""focus"",""trial"":0,""time"":0},{""event"":""fullscreenenter"",""trial"":1,""time"":6476}]",NA,NA,NA,NA,NA,5,#741CD8,#D8271C,10,10,1,38,1,1277,37,1,387,10,1,experiment,NA,NA,1,0.7,0.3,2,3,219,5,NA
fcp-trial,255,2403239,0.0-230.0-0.0,voc_e2,11912,"[{""event"":""focus"",""trial"":0,""time"":0},{""event"":""fullscreenenter"",""trial"":1,""time"":6476}]",NA,NA,NA,NA,NA,1,#3386FF,#D89F1C,10,0,1,38,1,530,37,1,436,10,1,experiment,NA,NA,0,0.9,0.1,0,1,220,5,NA
fcp-trial,256,2405161,0.0-231.0-0.0,voc_e2,11912,"[{""event"":""focus"",""trial"":0,""time"":0},{""event"":""fullscreenenter"",""trial"":1,""time"":6476}]",NA,NA,NA,NA,NA,0,#1CD855,#FA92F8,0,0,1,38,1,4,37,1,375,0,1,experiment,NA,NA,2,0.5,0.5,4,5,221,5,NA
fcp-trial,257,2407961,0.0-232.0-0.0,voc_e2,11912,"[{""event"":""focus"",""trial"":0,""time"":0},{""event"":""fullscreenenter"",""trial"":1,""time"":6476}]",NA,NA,NA,NA,NA,5,#1CD855,#FA92F8,0,0,1,38,1,531,37,1,759,0,1,experiment,NA,NA,2,0.5,0.5,4,5,222,5,NA
fcp-trial,258,2410220,0.0-233.0-0.0,voc_e2,11912,"[{""event"":""focus"",""trial"":0,""time"":0},{""event"":""fullscreenenter"",""trial"":1,""time"":6476}]",NA,NA,NA,NA,NA,0,#741CD8,#D8271C,10,10,1,38,1,322,37,1,411,10,1,experiment,NA,NA,1,0.7,0.3,2,3,223,5,NA
fcp-trial,259,2412101,0.0-234.0-0.0,voc_e2,11912,"[{""event"":""focus"",""trial"":0,""time"":0},{""event"":""fullscreenenter"",""trial"":1,""time"":6476}]",NA,NA,NA,NA,NA,3,#D89F1C,#3386FF,0,10,0,38,1,25,37,1,322,0,0,experiment,NA,NA,0,0.1,0.9,1,0,224,5,NA
fcp-trial,260,2414566,0.0-235.0-0.0,voc_e2,11912,"[{""event"":""focus"",""trial"":0,""time"":0},{""event"":""fullscreenenter"",""trial"":1,""time"":6476}]",NA,NA,NA,NA,NA,1,#741CD8,#D8271C,10,0,1,38,1,14,37,1,892,10,1,experiment,NA,NA,1,0.7,0.3,2,3,225,5,NA
fcp-trial,261,2416933,0.0-236.0-0.0,voc_e2,11912,"[{""event"":""focus"",""trial"":0,""time"":0},{""event"":""fullscreenenter"",""trial"":1,""time"":6476}]",NA,NA,NA,NA,NA,1,#FA92F8,#1CD855,0,10,0,38,1,266,39,0,574,10,1,experiment,NA,NA,2,0.5,0.5,5,4,226,6,NA
fcp-trial,262,2421446,0.0-237.0-0.0,voc_e2,11912,"[{""event"":""focus"",""trial"":0,""time"":0},{""event"":""fullscreenenter"",""trial"":1,""time"":6476}]",NA,NA,NA,NA,NA,6,#D8271C,#741CD8,0,10,0,38,1,2086,37,1,916,0,0,experiment,NA,NA,1,0.3,0.7,3,2,227,6,NA
fcp-trial,263,2424352,0.0-238.0-0.0,voc_e2,11912,"[{""event"":""focus"",""trial"":0,""time"":0},{""event"":""fullscreenenter"",""trial"":1,""time"":6476}]",NA,NA,NA,NA,NA,6,#1CD855,#FA92F8,0,10,1,38,1,564,39,0,804,10,0,experiment,NA,NA,2,0.5,0.5,4,5,228,6,NA
fcp-trial,264,2429563,0.0-239.0-0.0,voc_e2,11912,"[{""event"":""focus"",""trial"":0,""time"":0},{""event"":""fullscreenenter"",""trial"":1,""time"":6476}]",NA,NA,NA,NA,NA,6,#D89F1C,#3386FF,0,10,0,38,1,3317,37,1,367,0,0,experiment,NA,NA,0,0.1,0.9,1,0,229,6,NA
fcp-trial,265,2432814,0.0-240.0-0.0,voc_e2,11912,"[{""event"":""focus"",""trial"":0,""time"":0},{""event"":""fullscreenenter"",""trial"":1,""time"":6476}]",NA,NA,NA,NA,NA,3,#741CD8,#D8271C,10,0,1,38,1,1305,39,0,420,0,0,experiment,NA,NA,1,0.7,0.3,2,3,230,6,NA
fcp-trial,266,2437130,0.0-241.0-0.0,voc_e2,11912,"[{""event"":""focus"",""trial"":0,""time"":0},{""event"":""fullscreenenter"",""trial"":1,""time"":6476}]",NA,NA,NA,NA,NA,2,#D8271C,#741CD8,0,10,0,38,1,2110,39,0,668,10,1,experiment,NA,NA,1,0.3,0.7,3,2,231,6,NA
fcp-trial,267,2439754,0.0-242.0-0.0,voc_e2,11912,"[{""event"":""focus"",""trial"":0,""time"":0},{""event"":""fullscreenenter"",""trial"":1,""time"":6476}]",NA,NA,NA,NA,NA,4,#741CD8,#D8271C,0,0,1,38,1,793,37,1,305,0,1,experiment,NA,NA,1,0.7,0.3,2,3,232,6,NA
fcp-trial,268,2442531,0.0-243.0-0.0,voc_e2,11912,"[{""event"":""focus"",""trial"":0,""time"":0},{""event"":""fullscreenenter"",""trial"":1,""time"":6476}]",NA,NA,NA,NA,NA,3,#D8271C,#741CD8,0,10,0,38,1,507,37,1,712,0,0,experiment,NA,NA,1,0.3,0.7,3,2,233,6,NA
fcp-trial,269,2445102,0.0-244.0-0.0,voc_e2,11912,"[{""event"":""focus"",""trial"":0,""time"":0},{""event"":""fullscreenenter"",""trial"":1,""time"":6476}]",NA,NA,NA,NA,NA,4,#3386FF,#D89F1C,10,0,1,38,1,523,39,0,527,0,0,experiment,NA,NA,0,0.9,0.1,0,1,234,6,NA
fcp-trial,270,2447790,0.0-245.0-0.0,voc_e2,11912,"[{""event"":""focus"",""trial"":0,""time"":0},{""event"":""fullscreenenter"",""trial"":1,""time"":6476}]",NA,NA,NA,NA,NA,2,#D8271C,#741CD8,10,0,0,38,1,365,37,1,797,10,0,experiment,NA,NA,1,0.3,0.7,3,2,235,6,NA
fcp-trial,271,2450461,0.0-246.0-0.0,voc_e2,11912,"[{""event"":""focus"",""trial"":0,""time"":0},{""event"":""fullscreenenter"",""trial"":1,""time"":6476}]",NA,NA,NA,NA,NA,2,#3386FF,#D89F1C,10,0,1,38,1,691,37,1,444,10,1,experiment,NA,NA,0,0.9,0.1,0,1,236,6,NA
fcp-trial,272,2452903,0.0-247.0-0.0,voc_e2,11912,"[{""event"":""focus"",""trial"":0,""time"":0},{""event"":""fullscreenenter"",""trial"":1,""time"":6476}]",NA,NA,NA,NA,NA,1,#1CD855,#FA92F8,10,0,1,38,1,275,39,0,641,0,0,experiment,NA,NA,2,0.5,0.5,4,5,237,6,NA
fcp-trial,273,2455711,0.0-248.0-0.0,voc_e2,11912,"[{""event"":""focus"",""trial"":0,""time"":0},{""event"":""fullscreenenter"",""trial"":1,""time"":6476}]",NA,NA,NA,NA,NA,0,#D89F1C,#3386FF,0,10,0,38,1,819,37,1,467,0,0,experiment,NA,NA,0,0.1,0.9,1,0,238,6,NA
fcp-trial,274,2459491,0.0-249.0-0.0,voc_e2,11912,"[{""event"":""focus"",""trial"":0,""time"":0},{""event"":""fullscreenenter"",""trial"":1,""time"":6476}]",NA,NA,NA,NA,NA,4,#1CD855,#FA92F8,0,10,1,38,1,1933,39,0,331,10,0,experiment,NA,NA,2,0.5,0.5,4,5,239,6,NA
fcp-trial,275,2462506,0.0-250.0-0.0,voc_e2,11912,"[{""event"":""focus"",""trial"":0,""time"":0},{""event"":""fullscreenenter"",""trial"":1,""time"":6476}]",NA,NA,NA,NA,NA,0,#D8271C,#741CD8,0,10,0,38,1,854,37,1,639,0,0,experiment,NA,NA,1,0.3,0.7,3,2,240,6,NA
fcp-trial,276,2466850,0.0-251.0-0.0,voc_e2,11912,"[{""event"":""focus"",""trial"":0,""time"":0},{""event"":""fullscreenenter"",""trial"":1,""time"":6476}]",NA,NA,NA,NA,NA,5,#3386FF,#D89F1C,10,0,1,38,1,2471,37,1,352,10,1,experiment,NA,NA,0,0.9,0.1,0,1,241,6,NA
fcp-trial,277,2469050,0.0-252.0-0.0,voc_e2,11912,"[{""event"":""focus"",""trial"":0,""time"":0},{""event"":""fullscreenenter"",""trial"":1,""time"":6476}]",NA,NA,NA,NA,NA,3,#FA92F8,#1CD855,0,10,0,38,1,210,39,0,466,10,1,experiment,NA,NA,2,0.5,0.5,5,4,242,6,NA
fcp-trial,278,2471331,0.0-253.0-0.0,voc_e2,11912,"[{""event"":""focus"",""trial"":0,""time"":0},{""event"":""fullscreenenter"",""trial"":1,""time"":6476}]",NA,NA,NA,NA,NA,0,#FA92F8,#1CD855,10,10,0,38,1,162,37,1,599,10,0,experiment,NA,NA,2,0.5,0.5,5,4,243,6,NA
fcp-trial,279,2474387,0.0-254.0-0.0,voc_e2,11912,"[{""event"":""focus"",""trial"":0,""time"":0},{""event"":""fullscreenenter"",""trial"":1,""time"":6476}]",NA,NA,NA,NA,NA,5,#741CD8,#D8271C,10,10,1,38,1,565,37,1,799,10,1,experiment,NA,NA,1,0.7,0.3,2,3,244,6,NA
fcp-trial,280,2476773,0.0-255.0-0.0,voc_e2,11912,"[{""event"":""focus"",""trial"":0,""time"":0},{""event"":""fullscreenenter"",""trial"":1,""time"":6476}]",NA,NA,NA,NA,NA,5,#FA92F8,#1CD855,0,0,0,38,1,273,39,0,584,0,1,experiment,NA,NA,2,0.5,0.5,5,4,245,6,NA
fcp-trial,281,2479206,0.0-256.0-0.0,voc_e2,11912,"[{""event"":""focus"",""trial"":0,""time"":0},{""event"":""fullscreenenter"",""trial"":1,""time"":6476}]",NA,NA,NA,NA,NA,1,#3386FF,#D89F1C,10,0,1,38,1,60,37,1,826,10,1,experiment,NA,NA,0,0.9,0.1,0,1,246,6,NA
fcp-trial,282,2481820,0.0-257.0-0.0,voc_e2,11912,"[{""event"":""focus"",""trial"":0,""time"":0},{""event"":""fullscreenenter"",""trial"":1,""time"":6476}]",NA,NA,NA,NA,NA,6,#D8271C,#741CD8,0,10,0,38,1,358,37,1,584,0,0,experiment,NA,NA,1,0.3,0.7,3,2,247,6,NA
fcp-trial,283,2483927,0.0-258.0-0.0,voc_e2,11912,"[{""event"":""focus"",""trial"":0,""time"":0},{""event"":""fullscreenenter"",""trial"":1,""time"":6476}]",NA,NA,NA,NA,NA,2,#1CD855,#FA92F8,10,0,1,38,1,317,37,1,270,10,1,experiment,NA,NA,2,0.5,0.5,4,5,248,6,NA
fcp-trial,284,2486541,0.0-259.0-0.0,voc_e2,11912,"[{""event"":""focus"",""trial"":0,""time"":0},{""event"":""fullscreenenter"",""trial"":1,""time"":6476}]",NA,NA,NA,NA,NA,6,#FA92F8,#1CD855,10,10,0,38,1,721,37,1,354,10,0,experiment,NA,NA,2,0.5,0.5,5,4,249,6,NA
fcp-trial,285,2489523,0.0-260.0-0.0,voc_e2,11912,"[{""event"":""focus"",""trial"":0,""time"":0},{""event"":""fullscreenenter"",""trial"":1,""time"":6476}]",NA,NA,NA,NA,NA,6,#3386FF,#D89F1C,10,0,1,38,1,1031,37,1,427,10,1,experiment,NA,NA,0,0.9,0.1,0,1,250,6,NA
fcp-trial,286,2494047,0.0-261.0-0.0,voc_e2,11912,"[{""event"":""focus"",""trial"":0,""time"":0},{""event"":""fullscreenenter"",""trial"":1,""time"":6476}]",NA,NA,NA,NA,NA,3,#3386FF,#D89F1C,10,0,1,38,1,1992,37,1,947,10,1,experiment,NA,NA,0,0.9,0.1,0,1,251,6,NA
fcp-trial,287,2497548,0.0-262.0-0.0,voc_e2,11912,"[{""event"":""focus"",""trial"":0,""time"":0},{""event"":""fullscreenenter"",""trial"":1,""time"":6476}]",NA,NA,NA,NA,NA,1,#D8271C,#741CD8,0,10,0,38,1,1580,39,0,385,10,1,experiment,NA,NA,1,0.3,0.7,3,2,252,6,NA
fcp-trial,288,2501060,0.0-263.0-0.0,voc_e2,11912,"[{""event"":""focus"",""trial"":0,""time"":0},{""event"":""fullscreenenter"",""trial"":1,""time"":6476}]",NA,NA,NA,NA,NA,3,#741CD8,#D8271C,10,0,1,38,1,1721,37,1,259,10,1,experiment,NA,NA,1,0.7,0.3,2,3,253,6,NA
fcp-trial,289,2503901,0.0-264.0-0.0,voc_e2,11912,"[{""event"":""focus"",""trial"":0,""time"":0},{""event"":""fullscreenenter"",""trial"":1,""time"":6476}]",NA,NA,NA,NA,NA,3,#D89F1C,#3386FF,10,10,0,38,1,911,37,1,396,10,0,experiment,NA,NA,0,0.1,0.9,1,0,254,6,NA
fcp-trial,290,2506476,0.0-265.0-0.0,voc_e2,11912,"[{""event"":""focus"",""trial"":0,""time"":0},{""event"":""fullscreenenter"",""trial"":1,""time"":6476}]",NA,NA,NA,NA,NA,6,#3386FF,#D89F1C,10,0,1,38,1,423,39,0,624,0,0,experiment,NA,NA,0,0.9,0.1,0,1,255,6,NA
fcp-trial,291,2511345,0.0-266.0-0.0,voc_e2,11912,"[{""event"":""focus"",""trial"":0,""time"":0},{""event"":""fullscreenenter"",""trial"":1,""time"":6476}]",NA,NA,NA,NA,NA,2,#D8271C,#741CD8,0,0,0,38,1,1423,39,0,1917,0,1,experiment,NA,NA,1,0.3,0.7,3,2,256,6,NA
fcp-trial,292,2514581,0.0-267.0-0.0,voc_e2,11912,"[{""event"":""focus"",""trial"":0,""time"":0},{""event"":""fullscreenenter"",""trial"":1,""time"":6476}]",NA,NA,NA,NA,NA,4,#3386FF,#D89F1C,10,0,1,38,1,984,37,1,561,10,1,experiment,NA,NA,0,0.9,0.1,0,1,257,6,NA
fcp-trial,293,2518372,0.0-268.0-0.0,voc_e2,11912,"[{""event"":""focus"",""trial"":0,""time"":0},{""event"":""fullscreenenter"",""trial"":1,""time"":6476}]",NA,NA,NA,NA,NA,6,#741CD8,#D8271C,10,10,1,38,1,1278,39,0,987,10,0,experiment,NA,NA,1,0.7,0.3,2,3,258,6,NA
fcp-trial,294,2520886,0.0-269.0-0.0,voc_e2,11912,"[{""event"":""focus"",""trial"":0,""time"":0},{""event"":""fullscreenenter"",""trial"":1,""time"":6476}]",NA,NA,NA,NA,NA,5,#3386FF,#D89F1C,10,0,1,38,1,351,37,1,653,10,1,experiment,NA,NA,0,0.9,0.1,0,1,259,6,NA
fcp-trial,295,2524710,0.0-270.0-0.0,voc_e2,11912,"[{""event"":""focus"",""trial"":0,""time"":0},{""event"":""fullscreenenter"",""trial"":1,""time"":6476}]",NA,NA,NA,NA,NA,4,#FA92F8,#1CD855,0,10,0,38,1,1569,37,1,734,0,0,experiment,NA,NA,2,0.5,0.5,5,4,260,6,NA
fcp-trial,296,2527600,0.0-271.0-0.0,voc_e2,11912,"[{""event"":""focus"",""trial"":0,""time"":0},{""event"":""fullscreenenter"",""trial"":1,""time"":6476}]",NA,NA,NA,NA,NA,4,#D8271C,#741CD8,0,10,0,38,1,21,37,1,1341,0,0,experiment,NA,NA,1,0.3,0.7,3,2,261,6,NA
fcp-trial,297,2531382,0.0-272.0-0.0,voc_e2,11912,"[{""event"":""focus"",""trial"":0,""time"":0},{""event"":""fullscreenenter"",""trial"":1,""time"":6476}]",NA,NA,NA,NA,NA,1,#FA92F8,#1CD855,10,0,0,38,1,834,39,0,1415,0,1,experiment,NA,NA,2,0.5,0.5,5,4,262,6,NA
fcp-trial,298,2534031,0.0-273.0-0.0,voc_e2,11912,"[{""event"":""focus"",""trial"":0,""time"":0},{""event"":""fullscreenenter"",""trial"":1,""time"":6476}]",NA,NA,NA,NA,NA,6,#1CD855,#FA92F8,10,10,1,38,1,693,37,1,428,10,1,experiment,NA,NA,2,0.5,0.5,4,5,263,6,NA
fcp-trial,299,2536352,0.0-274.0-0.0,voc_e2,11912,"[{""event"":""focus"",""trial"":0,""time"":0},{""event"":""fullscreenenter"",""trial"":1,""time"":6476}]",NA,NA,NA,NA,NA,2,#D89F1C,#3386FF,0,10,0,38,1,461,37,1,336,0,0,experiment,NA,NA,0,0.1,0.9,1,0,264,6,NA
fcp-trial,300,2539081,0.0-275.0-0.0,voc_e2,11912,"[{""event"":""focus"",""trial"":0,""time"":0},{""event"":""fullscreenenter"",""trial"":1,""time"":6476}]",NA,NA,NA,NA,NA,1,#D8271C,#741CD8,0,10,0,38,1,473,37,1,739,0,0,experiment,NA,NA,1,0.3,0.7,3,2,265,6,NA
fcp-trial,301,2541312,0.0-276.0-0.0,voc_e2,11912,"[{""event"":""focus"",""trial"":0,""time"":0},{""event"":""fullscreenenter"",""trial"":1,""time"":6476}]",NA,NA,NA,NA,NA,3,#1CD855,#FA92F8,0,10,1,38,1,144,39,0,532,10,0,experiment,NA,NA,2,0.5,0.5,4,5,266,6,NA
fcp-trial,302,2545311,0.0-277.0-0.0,voc_e2,11912,"[{""event"":""focus"",""trial"":0,""time"":0},{""event"":""fullscreenenter"",""trial"":1,""time"":6476}]",NA,NA,NA,NA,NA,2,#FA92F8,#1CD855,10,10,0,38,1,1531,37,1,951,10,0,experiment,NA,NA,2,0.5,0.5,5,4,267,6,NA
fcp-trial,303,2547922,0.0-278.0-0.0,voc_e2,11912,"[{""event"":""focus"",""trial"":0,""time"":0},{""event"":""fullscreenenter"",""trial"":1,""time"":6476}]",NA,NA,NA,NA,NA,0,#D89F1C,#3386FF,0,10,0,38,1,460,39,0,608,10,1,experiment,NA,NA,0,0.1,0.9,1,0,268,6,NA
fcp-trial,304,2550411,0.0-279.0-0.0,voc_e2,11912,"[{""event"":""focus"",""trial"":0,""time"":0},{""event"":""fullscreenenter"",""trial"":1,""time"":6476}]",NA,NA,NA,NA,NA,0,#741CD8,#D8271C,10,0,1,38,1,106,37,1,865,10,1,experiment,NA,NA,1,0.7,0.3,2,3,269,6,NA
fcp-trial,305,2558207,0.0-280.0-0.0,voc_e2,11912,"[{""event"":""focus"",""trial"":0,""time"":0},{""event"":""fullscreenenter"",""trial"":1,""time"":6476}]",NA,NA,NA,NA,NA,1,#D89F1C,#3386FF,0,10,0,38,1,1646,39,0,4615,10,1,experiment,NA,NA,0,0.1,0.9,1,0,270,6,NA
fcp-trial,306,2561030,0.0-281.0-0.0,voc_e2,11912,"[{""event"":""focus"",""trial"":0,""time"":0},{""event"":""fullscreenenter"",""trial"":1,""time"":6476}]",NA,NA,NA,NA,NA,0,#FA92F8,#1CD855,10,10,0,38,1,955,37,1,341,10,0,experiment,NA,NA,2,0.5,0.5,5,4,271,7,NA
fcp-trial,307,2563748,0.0-282.0-0.0,voc_e2,11912,"[{""event"":""focus"",""trial"":0,""time"":0},{""event"":""fullscreenenter"",""trial"":1,""time"":6476}]",NA,NA,NA,NA,NA,5,#1CD855,#FA92F8,0,10,1,38,1,779,39,0,415,10,0,experiment,NA,NA,2,0.5,0.5,4,5,272,7,NA
fcp-trial,308,2566362,0.0-283.0-0.0,voc_e2,11912,"[{""event"":""focus"",""trial"":0,""time"":0},{""event"":""fullscreenenter"",""trial"":1,""time"":6476}]",NA,NA,NA,NA,NA,5,#741CD8,#D8271C,10,0,1,38,1,568,37,1,517,10,1,experiment,NA,NA,1,0.7,0.3,2,3,273,7,NA
fcp-trial,309,2569141,0.0-284.0-0.0,voc_e2,11912,"[{""event"":""focus"",""trial"":0,""time"":0},{""event"":""fullscreenenter"",""trial"":1,""time"":6476}]",NA,NA,NA,NA,NA,4,#741CD8,#D8271C,10,0,1,38,1,643,37,1,612,10,1,experiment,NA,NA,1,0.7,0.3,2,3,274,7,NA
fcp-trial,310,2571811,0.0-285.0-0.0,voc_e2,11912,"[{""event"":""focus"",""trial"":0,""time"":0},{""event"":""fullscreenenter"",""trial"":1,""time"":6476}]",NA,NA,NA,NA,NA,3,#D8271C,#741CD8,0,0,0,38,1,519,39,0,639,0,1,experiment,NA,NA,1,0.3,0.7,3,2,275,7,NA
fcp-trial,311,2574530,0.0-286.0-0.0,voc_e2,11912,"[{""event"":""focus"",""trial"":0,""time"":0},{""event"":""fullscreenenter"",""trial"":1,""time"":6476}]",NA,NA,NA,NA,NA,0,#D89F1C,#3386FF,0,10,0,38,1,552,39,0,648,10,1,experiment,NA,NA,0,0.1,0.9,1,0,276,7,NA
fcp-trial,312,2577021,0.0-287.0-0.0,voc_e2,11912,"[{""event"":""focus"",""trial"":0,""time"":0},{""event"":""fullscreenenter"",""trial"":1,""time"":6476}]",NA,NA,NA,NA,NA,3,#3386FF,#D89F1C,10,0,1,38,1,433,39,0,538,0,0,experiment,NA,NA,0,0.9,0.1,0,1,277,7,NA
fcp-trial,313,2580130,0.0-288.0-0.0,voc_e2,11912,"[{""event"":""focus"",""trial"":0,""time"":0},{""event"":""fullscreenenter"",""trial"":1,""time"":6476}]",NA,NA,NA,NA,NA,5,#3386FF,#D89F1C,10,10,1,38,1,453,39,0,1120,10,0,experiment,NA,NA,0,0.9,0.1,0,1,278,7,NA
fcp-trial,314,2586056,0.0-289.0-0.0,voc_e2,11912,"[{""event"":""focus"",""trial"":0,""time"":0},{""event"":""fullscreenenter"",""trial"":1,""time"":6476}]",NA,NA,NA,NA,NA,2,#741CD8,#D8271C,10,0,1,38,1,3976,37,1,433,10,1,experiment,NA,NA,1,0.7,0.3,2,3,279,7,NA
fcp-trial,315,2588691,0.0-290.0-0.0,voc_e2,11912,"[{""event"":""focus"",""trial"":0,""time"":0},{""event"":""fullscreenenter"",""trial"":1,""time"":6476}]",NA,NA,NA,NA,NA,4,#3386FF,#D89F1C,10,0,1,38,1,670,37,1,451,10,1,experiment,NA,NA,0,0.9,0.1,0,1,280,7,NA
fcp-trial,316,2592736,0.0-291.0-0.0,voc_e2,11912,"[{""event"":""focus"",""trial"":0,""time"":0},{""event"":""fullscreenenter"",""trial"":1,""time"":6476}]",NA,NA,NA,NA,NA,0,#741CD8,#D8271C,0,0,1,38,1,528,37,1,2000,0,1,experiment,NA,NA,1,0.7,0.3,2,3,281,7,NA
fcp-trial,317,2595144,0.0-292.0-0.0,voc_e2,11912,"[{""event"":""focus"",""trial"":0,""time"":0},{""event"":""fullscreenenter"",""trial"":1,""time"":6476}]",NA,NA,NA,NA,NA,0,#1CD855,#FA92F8,0,0,1,38,1,490,39,0,391,0,0,experiment,NA,NA,2,0.5,0.5,4,5,282,7,NA
fcp-trial,318,2598020,0.0-293.0-0.0,voc_e2,11912,"[{""event"":""focus"",""trial"":0,""time"":0},{""event"":""fullscreenenter"",""trial"":1,""time"":6476}]",NA,NA,NA,NA,NA,1,#FA92F8,#1CD855,0,10,0,38,1,499,39,0,852,10,1,experiment,NA,NA,2,0.5,0.5,5,4,283,7,NA
fcp-trial,319,2600956,0.0-294.0-0.0,voc_e2,11912,"[{""event"":""focus"",""trial"":0,""time"":0},{""event"":""fullscreenenter"",""trial"":1,""time"":6476}]",NA,NA,NA,NA,NA,4,#1CD855,#FA92F8,10,0,1,38,1,492,37,1,877,10,1,experiment,NA,NA,2,0.5,0.5,4,5,284,7,NA
fcp-trial,320,2603520,0.0-295.0-0.0,voc_e2,11912,"[{""event"":""focus"",""trial"":0,""time"":0},{""event"":""fullscreenenter"",""trial"":1,""time"":6476}]",NA,NA,NA,NA,NA,1,#D89F1C,#3386FF,0,0,0,38,1,399,39,0,655,0,1,experiment,NA,NA,0,0.1,0.9,1,0,285,7,NA
fcp-trial,321,2608758,0.0-296.0-0.0,voc_e2,11912,"[{""event"":""focus"",""trial"":0,""time"":0},{""event"":""fullscreenenter"",""trial"":1,""time"":6476}]",NA,NA,NA,NA,NA,5,#741CD8,#D8271C,0,0,1,38,1,3283,37,1,363,0,1,experiment,NA,NA,1,0.7,0.3,2,3,286,7,NA
fcp-trial,322,2611400,0.0-297.0-0.0,voc_e2,11912,"[{""event"":""focus"",""trial"":0,""time"":0},{""event"":""fullscreenenter"",""trial"":1,""time"":6476}]",NA,NA,NA,NA,NA,2,#FA92F8,#1CD855,0,0,0,38,1,652,37,1,455,0,0,experiment,NA,NA,2,0.5,0.5,5,4,287,7,NA
fcp-trial,323,2613762,0.0-298.0-0.0,voc_e2,11912,"[{""event"":""focus"",""trial"":0,""time"":0},{""event"":""fullscreenenter"",""trial"":1,""time"":6476}]",NA,NA,NA,NA,NA,2,#3386FF,#D89F1C,10,10,1,38,1,489,37,1,355,10,1,experiment,NA,NA,0,0.9,0.1,0,1,288,7,NA
fcp-trial,324,2621205,0.0-299.0-0.0,voc_e2,11912,"[{""event"":""focus"",""trial"":0,""time"":0},{""event"":""fullscreenenter"",""trial"":1,""time"":6476}]",NA,NA,NA,NA,NA,1,#D8271C,#741CD8,0,10,0,38,1,162,37,1,5756,0,0,experiment,NA,NA,1,0.3,0.7,3,2,289,7,NA
fcp-trial,325,2624158,0.0-300.0-0.0,voc_e2,11912,"[{""event"":""focus"",""trial"":0,""time"":0},{""event"":""fullscreenenter"",""trial"":1,""time"":6476}]",NA,NA,NA,NA,NA,6,#D89F1C,#3386FF,0,10,0,38,1,734,39,0,649,10,1,experiment,NA,NA,0,0.1,0.9,1,0,290,7,NA
fcp-trial,326,2628310,0.0-301.0-0.0,voc_e2,11912,"[{""event"":""focus"",""trial"":0,""time"":0},{""event"":""fullscreenenter"",""trial"":1,""time"":6476}]",NA,NA,NA,NA,NA,6,#D8271C,#741CD8,10,10,0,38,1,1964,39,0,668,10,1,experiment,NA,NA,1,0.3,0.7,3,2,291,7,NA
fcp-trial,327,2632324,0.0-302.0-0.0,voc_e2,11912,"[{""event"":""focus"",""trial"":0,""time"":0},{""event"":""fullscreenenter"",""trial"":1,""time"":6476}]",NA,NA,NA,NA,NA,6,#1CD855,#FA92F8,10,10,1,38,1,1731,37,1,756,10,1,experiment,NA,NA,2,0.5,0.5,4,5,292,7,NA
fcp-trial,328,2634660,0.0-303.0-0.0,voc_e2,11912,"[{""event"":""focus"",""trial"":0,""time"":0},{""event"":""fullscreenenter"",""trial"":1,""time"":6476}]",NA,NA,NA,NA,NA,3,#FA92F8,#1CD855,10,0,0,38,1,11,39,0,790,0,1,experiment,NA,NA,2,0.5,0.5,5,4,293,7,NA
fcp-trial,329,2637191,0.0-304.0-0.0,voc_e2,11912,"[{""event"":""focus"",""trial"":0,""time"":0},{""event"":""fullscreenenter"",""trial"":1,""time"":6476}]",NA,NA,NA,NA,NA,5,#FA92F8,#1CD855,0,10,0,38,1,15,37,1,976,0,0,experiment,NA,NA,2,0.5,0.5,5,4,294,7,NA
fcp-trial,330,2640089,0.0-305.0-0.0,voc_e2,11912,"[{""event"":""focus"",""trial"":0,""time"":0},{""event"":""fullscreenenter"",""trial"":1,""time"":6476}]",NA,NA,NA,NA,NA,5,#1CD855,#FA92F8,0,10,1,38,1,916,37,1,454,0,1,experiment,NA,NA,2,0.5,0.5,4,5,295,7,NA
fcp-trial,331,2642449,0.0-306.0-0.0,voc_e2,11912,"[{""event"":""focus"",""trial"":0,""time"":0},{""event"":""fullscreenenter"",""trial"":1,""time"":6476}]",NA,NA,NA,NA,NA,0,#3386FF,#D89F1C,10,0,1,38,1,410,37,1,440,10,1,experiment,NA,NA,0,0.9,0.1,0,1,296,7,NA
fcp-trial,332,2644307,0.0-307.0-0.0,voc_e2,11912,"[{""event"":""focus"",""trial"":0,""time"":0},{""event"":""fullscreenenter"",""trial"":1,""time"":6476}]",NA,NA,NA,NA,NA,1,#741CD8,#D8271C,10,0,1,38,1,39,39,0,279,0,0,experiment,NA,NA,1,0.7,0.3,2,3,297,7,NA
fcp-trial,333,2647065,0.0-308.0-0.0,voc_e2,11912,"[{""event"":""focus"",""trial"":0,""time"":0},{""event"":""fullscreenenter"",""trial"":1,""time"":6476}]",NA,NA,NA,NA,NA,0,#1CD855,#FA92F8,0,10,1,38,1,893,37,1,329,0,1,experiment,NA,NA,2,0.5,0.5,4,5,298,7,NA
fcp-trial,334,2649750,0.0-309.0-0.0,voc_e2,11912,"[{""event"":""focus"",""trial"":0,""time"":0},{""event"":""fullscreenenter"",""trial"":1,""time"":6476}]",NA,NA,NA,NA,NA,2,#D89F1C,#3386FF,0,10,0,38,1,890,37,1,264,0,0,experiment,NA,NA,0,0.1,0.9,1,0,299,7,NA
fcp-trial,335,2652660,0.0-310.0-0.0,voc_e2,11912,"[{""event"":""focus"",""trial"":0,""time"":0},{""event"":""fullscreenenter"",""trial"":1,""time"":6476}]",NA,NA,NA,NA,NA,4,#1CD855,#FA92F8,0,10,1,38,1,1068,39,0,332,10,0,experiment,NA,NA,2,0.5,0.5,4,5,300,7,NA
fcp-trial,336,2654752,0.0-311.0-0.0,voc_e2,11912,"[{""event"":""focus"",""trial"":0,""time"":0},{""event"":""fullscreenenter"",""trial"":1,""time"":6476}]",NA,NA,NA,NA,NA,2,#D8271C,#741CD8,10,10,0,38,1,140,39,0,268,10,1,experiment,NA,NA,1,0.3,0.7,3,2,301,7,NA
fcp-trial,337,2656653,0.0-312.0-0.0,voc_e2,11912,"[{""event"":""focus"",""trial"":0,""time"":0},{""event"":""fullscreenenter"",""trial"":1,""time"":6476}]",NA,NA,NA,NA,NA,4,#3386FF,#D89F1C,10,0,1,38,1,98,37,1,287,10,1,experiment,NA,NA,0,0.9,0.1,0,1,302,7,NA
fcp-trial,338,2659489,0.0-313.0-0.0,voc_e2,11912,"[{""event"":""focus"",""trial"":0,""time"":0},{""event"":""fullscreenenter"",""trial"":1,""time"":6476}]",NA,NA,NA,NA,NA,2,#FA92F8,#1CD855,0,10,0,38,1,980,39,0,324,10,1,experiment,NA,NA,2,0.5,0.5,5,4,303,7,NA
fcp-trial,339,2662200,0.0-314.0-0.0,voc_e2,11912,"[{""event"":""focus"",""trial"":0,""time"":0},{""event"":""fullscreenenter"",""trial"":1,""time"":6476}]",NA,NA,NA,NA,NA,1,#1CD855,#FA92F8,0,0,1,38,1,843,39,0,325,0,0,experiment,NA,NA,2,0.5,0.5,4,5,304,7,NA
fcp-trial,340,2665210,0.0-315.0-0.0,voc_e2,11912,"[{""event"":""focus"",""trial"":0,""time"":0},{""event"":""fullscreenenter"",""trial"":1,""time"":6476}]",NA,NA,NA,NA,NA,1,#3386FF,#D89F1C,10,0,1,38,1,971,39,0,504,0,0,experiment,NA,NA,0,0.9,0.1,0,1,305,7,NA
fcp-trial,341,2667405,0.0-316.0-0.0,voc_e2,11912,"[{""event"":""focus"",""trial"":0,""time"":0},{""event"":""fullscreenenter"",""trial"":1,""time"":6476}]",NA,NA,NA,NA,NA,4,#741CD8,#D8271C,10,0,1,38,1,329,39,0,342,0,0,experiment,NA,NA,1,0.7,0.3,2,3,306,7,NA
fcp-trial,342,2671330,0.0-317.0-0.0,voc_e2,11912,"[{""event"":""focus"",""trial"":0,""time"":0},{""event"":""fullscreenenter"",""trial"":1,""time"":6476}]",NA,NA,NA,NA,NA,5,#741CD8,#D8271C,0,0,1,38,1,1653,37,1,741,0,1,experiment,NA,NA,1,0.7,0.3,2,3,307,7,NA
fcp-trial,343,2674473,0.0-318.0-0.0,voc_e2,11912,"[{""event"":""focus"",""trial"":0,""time"":0},{""event"":""fullscreenenter"",""trial"":1,""time"":6476}]",NA,NA,NA,NA,NA,6,#1CD855,#FA92F8,10,0,1,38,1,913,39,0,684,0,0,experiment,NA,NA,2,0.5,0.5,4,5,308,7,NA
fcp-trial,344,2676994,0.0-319.0-0.0,voc_e2,11912,"[{""event"":""focus"",""trial"":0,""time"":0},{""event"":""fullscreenenter"",""trial"":1,""time"":6476}]",NA,NA,NA,NA,NA,3,#D8271C,#741CD8,0,10,0,38,1,716,37,1,270,0,0,experiment,NA,NA,1,0.3,0.7,3,2,309,7,NA
fcp-trial,345,2679096,0.0-320.0-0.0,voc_e2,11912,"[{""event"":""focus"",""trial"":0,""time"":0},{""event"":""fullscreenenter"",""trial"":1,""time"":6476}]",NA,NA,NA,NA,NA,6,#3386FF,#D89F1C,10,0,1,38,1,12,37,1,568,10,1,experiment,NA,NA,0,0.9,0.1,0,1,310,7,NA
fcp-trial,346,2681563,0.0-321.0-0.0,voc_e2,11912,"[{""event"":""focus"",""trial"":0,""time"":0},{""event"":""fullscreenenter"",""trial"":1,""time"":6476}]",NA,NA,NA,NA,NA,3,#1CD855,#FA92F8,10,0,1,38,1,674,37,1,271,10,1,experiment,NA,NA,2,0.5,0.5,4,5,311,7,NA
fcp-trial,347,2684320,0.0-322.0-0.0,voc_e2,11912,"[{""event"":""focus"",""trial"":0,""time"":0},{""event"":""fullscreenenter"",""trial"":1,""time"":6476}]",NA,NA,NA,NA,NA,0,#D8271C,#741CD8,0,0,0,38,1,854,37,1,370,0,0,experiment,NA,NA,1,0.3,0.7,3,2,312,7,NA
fcp-trial,348,2687680,0.0-323.0-0.0,voc_e2,11912,"[{""event"":""focus"",""trial"":0,""time"":0},{""event"":""fullscreenenter"",""trial"":1,""time"":6476}]",NA,NA,NA,NA,NA,5,#3386FF,#D89F1C,10,0,1,38,1,1047,39,0,798,0,0,experiment,NA,NA,0,0.9,0.1,0,1,313,7,NA
fcp-trial,349,2690423,0.0-324.0-0.0,voc_e2,11912,"[{""event"":""focus"",""trial"":0,""time"":0},{""event"":""fullscreenenter"",""trial"":1,""time"":6476}]",NA,NA,NA,NA,NA,3,#3386FF,#D89F1C,10,10,1,38,1,49,37,1,1154,10,1,experiment,NA,NA,0,0.9,0.1,0,1,314,7,NA
fcp-trial,350,2692542,0.0-325.0-0.0,voc_e2,11912,"[{""event"":""focus"",""trial"":0,""time"":0},{""event"":""fullscreenenter"",""trial"":1,""time"":6476}]",NA,NA,NA,NA,NA,6,#D8271C,#741CD8,0,10,0,38,1,346,37,1,258,0,0,experiment,NA,NA,1,0.3,0.7,3,2,315,7,NA
audio-instructions,351,2701392,0.0-326.0,voc_e2,11912,"[{""event"":""focus"",""trial"":0,""time"":0},{""event"":""fullscreenenter"",""trial"":1,""time"":6476}]",NA,3206,static/audio/finished.wav,NA,0,NA,NA,NA,NA,NA,NA,NA,NA,NA,NA,NA,NA,NA,NA,NA,NA,NA,NA,NA,NA,NA,NA,NA,NA,NA
audio-instructions,352,2715640,0.0-327.0-0.0,voc_e2,11912,"[{""event"":""focus"",""trial"":0,""time"":0},{""event"":""fullscreenenter"",""trial"":1,""time"":6476}]",NA,3403,static/audio/explicit1.wav,NA,0,NA,NA,NA,NA,NA,NA,NA,NA,NA,NA,NA,NA,NA,NA,NA,NA,NA,NA,NA,NA,NA,NA,NA,NA,NA
audio-instructions,353,2724391,0.0-327.0-1.0,voc_e2,11912,"[{""event"":""focus"",""trial"":0,""time"":0},{""event"":""fullscreenenter"",""trial"":1,""time"":6476}]",NA,1144,static/audio/explicit2.wav,NA,0,NA,NA,NA,NA,NA,NA,NA,NA,NA,NA,NA,NA,NA,NA,NA,NA,NA,NA,NA,NA,NA,NA,NA,NA,NA
image-slider-response,354,2731738,0.0-328.0,voc_e2,11912,"[{""event"":""focus"",""trial"":0,""time"":0},{""event"":""fullscreenenter"",""trial"":1,""time"":6476}]",NA,7344,static/img/machines/machine5.png,NA,NA,NA,NA,NA,NA,NA,NA,NA,NA,NA,NA,NA,NA,NA,NA,explicit,NA,NA,NA,NA,NA,NA,NA,NA,NA,6
image-slider-response,355,2740696,0.0-329.0,voc_e2,11912,"[{""event"":""focus"",""trial"":0,""time"":0},{""event"":""fullscreenenter"",""trial"":1,""time"":6476}]",NA,8957,static/img/machines/machine4.png,NA,NA,NA,NA,NA,NA,NA,NA,NA,NA,NA,NA,NA,NA,NA,NA,explicit,NA,NA,NA,NA,NA,NA,NA,NA,NA,7
image-slider-response,356,2743342,0.0-330.0,voc_e2,11912,"[{""event"":""focus"",""trial"":0,""time"":0},{""event"":""fullscreenenter"",""trial"":1,""time"":6476}]",NA,2644,static/img/machines/machine1.png,NA,NA,NA,NA,NA,NA,NA,NA,NA,NA,NA,NA,NA,NA,NA,NA,explicit,NA,NA,NA,NA,NA,NA,NA,NA,NA,4
image-slider-response,357,2746012,0.0-331.0,voc_e2,11912,"[{""event"":""focus"",""trial"":0,""time"":0},{""event"":""fullscreenenter"",""trial"":1,""time"":6476}]",NA,2669,static/img/machines/machine2.png,NA,NA,NA,NA,NA,NA,NA,NA,NA,NA,NA,NA,NA,NA,NA,NA,explicit,NA,NA,NA,NA,NA,NA,NA,NA,NA,7
image-slider-response,358,2752792,0.0-332.0,voc_e2,11912,"[{""event"":""focus"",""trial"":0,""time"":0},{""event"":""fullscreenenter"",""trial"":1,""time"":6476}]",NA,6779,static/img/machines/machine6.png,NA,NA,NA,NA,NA,NA,NA,NA,NA,NA,NA,NA,NA,NA,NA,NA,explicit,NA,NA,NA,NA,NA,NA,NA,NA,NA,7
image-slider-response,359,2754864,0.0-333.0,voc_e2,11912,"[{""event"":""focus"",""trial"":0,""time"":0},{""event"":""fullscreenenter"",""trial"":1,""time"":6476}]",NA,2070,static/img/machines/machine3.png,NA,NA,NA,NA,NA,NA,NA,NA,NA,NA,NA,NA,NA,NA,NA,NA,explicit,NA,NA,NA,NA,NA,NA,NA,NA,NA,7
