trial_type,trial_index,time_elapsed,internal_node_id,task_version,subject_id,interactions,success,rt,stimulus,key_press,button_pressed,offer,arcade_color_L,arcade_color_R,arcade_outcome_L,arcade_outcome_R,correct,stage_1_key,stage_1_choice,stage_1_rt,stage_2_key,stage_2_choice,stage_2_rt,stage_3_outcome,accuracy,phase,responses,num_errors,context,reward_prob_L,reward_prob_R,arcade_id_L,arcade_id_R,trial,block,response
pavlovia,0,9,0.0-0.0,voc_e2,12024,[],NA,NA,NA,NA,NA,NA,NA,NA,NA,NA,NA,NA,NA,NA,NA,NA,NA,NA,NA,NA,NA,NA,NA,NA,NA,NA,NA,NA,NA,NA
fullscreen,1,5656,0.0-1.0,voc_e2,12024,"[{""event"":""fullscreenenter"",""trial"":1,""time"":4712}]",TRUE,NA,NA,NA,NA,NA,NA,NA,NA,NA,NA,NA,NA,NA,NA,NA,NA,NA,NA,NA,NA,NA,NA,NA,NA,NA,NA,NA,NA,NA
audio-keyboard-response,2,7378,0.0-2.0,voc_e2,12024,"[{""event"":""fullscreenenter"",""trial"":1,""time"":4712}]",NA,0,static/audio/beep_loop.wav,32,NA,NA,NA,NA,NA,NA,NA,NA,NA,NA,NA,NA,NA,NA,NA,NA,NA,NA,NA,NA,NA,NA,NA,NA,NA,NA
audio-test,3,12440,0.0-3.0,voc_e2,12024,"[{""event"":""fullscreenenter"",""trial"":1,""time"":4712}]",NA,NA,static/audio/turtle.wav,NA,3,NA,NA,NA,NA,NA,NA,NA,NA,NA,NA,NA,NA,NA,NA,NA,NA,NA,NA,NA,NA,NA,NA,NA,NA,NA
audio-test,4,14735,0.0-4.0,voc_e2,12024,"[{""event"":""fullscreenenter"",""trial"":1,""time"":4712}]",NA,NA,static/audio/shark.wav,NA,2,NA,NA,NA,NA,NA,NA,NA,NA,NA,NA,NA,NA,NA,NA,NA,NA,NA,NA,NA,NA,NA,NA,NA,NA,NA
audio-instructions,5,21418,0.0-5.0-0.0,voc_e2,12024,"[{""event"":""fullscreenenter"",""trial"":1,""time"":4712}]",NA,902,static/audio/instructions1.wav,NA,0,NA,NA,NA,NA,NA,NA,NA,NA,NA,NA,NA,NA,NA,NA,NA,NA,NA,NA,NA,NA,NA,NA,NA,NA,NA
audio-instructions,6,29300,0.0-5.0-1.0,voc_e2,12024,"[{""event"":""fullscreenenter"",""trial"":1,""time"":4712}]",NA,1139,static/audio/instructions2.wav,NA,0,NA,NA,NA,NA,NA,NA,NA,NA,NA,NA,NA,NA,NA,NA,NA,NA,NA,NA,NA,NA,NA,NA,NA,NA,NA
audio-instructions,7,36326,0.0-5.0-2.0,voc_e2,12024,"[{""event"":""fullscreenenter"",""trial"":1,""time"":4712}]",NA,1223,static/audio/instructions3.wav,NA,0,NA,NA,NA,NA,NA,NA,NA,NA,NA,NA,NA,NA,NA,NA,NA,NA,NA,NA,NA,NA,NA,NA,NA,NA,NA
audio-instructions,8,49981,0.0-5.0-3.0,voc_e2,12024,"[{""event"":""fullscreenenter"",""trial"":1,""time"":4712}]",NA,428,static/audio/instructions4.wav,NA,0,NA,NA,NA,NA,NA,NA,NA,NA,NA,NA,NA,NA,NA,NA,NA,NA,NA,NA,NA,NA,NA,NA,NA,NA,NA
audio-instructions,9,59794,0.0-5.0-4.0,voc_e2,12024,"[{""event"":""fullscreenenter"",""trial"":1,""time"":4712}]",NA,423,static/audio/instructions5.wav,NA,0,NA,NA,NA,NA,NA,NA,NA,NA,NA,NA,NA,NA,NA,NA,NA,NA,NA,NA,NA,NA,NA,NA,NA,NA,NA
fcp-practice,10,62062,0.0-5.0-5.0-0.0,voc_e2,12024,"[{""event"":""fullscreenenter"",""trial"":1,""time"":4712}]",NA,NA,NA,NA,NA,NA,#EDC948,#46d3c8,10,0,1,null,null,null,37,1,746.0000000000146,10,1,practice,NA,NA,NA,NA,NA,NA,NA,NA,NA,NA
fcp-practice,11,63991,0.0-5.0-5.0-1.0,voc_e2,12024,"[{""event"":""fullscreenenter"",""trial"":1,""time"":4712}]",NA,NA,NA,NA,NA,NA,#EDC948,#46d3c8,10,0,1,null,null,null,37,1,414,10,1,practice,NA,NA,NA,NA,NA,NA,NA,NA,NA,NA
fcp-practice,12,65815,0.0-5.0-5.0-2.0,voc_e2,12024,"[{""event"":""fullscreenenter"",""trial"":1,""time"":4712}]",NA,NA,NA,NA,NA,NA,#EDC948,#46d3c8,0,10,1,null,null,null,37,1,318,0,1,practice,NA,NA,NA,NA,NA,NA,NA,NA,NA,NA
fcp-practice,13,67768,0.0-5.0-5.0-3.0,voc_e2,12024,"[{""event"":""fullscreenenter"",""trial"":1,""time"":4712}]",NA,NA,NA,NA,NA,NA,#EDC948,#46d3c8,10,0,1,null,null,null,37,1,437,10,1,practice,NA,NA,NA,NA,NA,NA,NA,NA,NA,NA
fcp-practice,14,69577,0.0-5.0-5.0-4.0,voc_e2,12024,"[{""event"":""fullscreenenter"",""trial"":1,""time"":4712}]",NA,NA,NA,NA,NA,NA,#EDC948,#46d3c8,10,0,1,null,null,null,37,1,303,10,1,practice,NA,NA,NA,NA,NA,NA,NA,NA,NA,NA
audio-instructions,15,87937,0.0-5.0-6.0,voc_e2,12024,"[{""event"":""fullscreenenter"",""trial"":1,""time"":4712}]",NA,351,static/audio/instructions6.wav,NA,0,NA,NA,NA,NA,NA,NA,NA,NA,NA,NA,NA,NA,NA,NA,NA,NA,NA,NA,NA,NA,NA,NA,NA,NA,NA
audio-instructions,16,109026,0.0-5.0-7.0,voc_e2,12024,"[{""event"":""fullscreenenter"",""trial"":1,""time"":4712}]",NA,1889,static/audio/instructions7.wav,NA,0,NA,NA,NA,NA,NA,NA,NA,NA,NA,NA,NA,NA,NA,NA,NA,NA,NA,NA,NA,NA,NA,NA,NA,NA,NA
audio-instructions,17,119189,0.0-5.0-8.0,voc_e2,12024,"[{""event"":""fullscreenenter"",""trial"":1,""time"":4712}]",NA,689,static/audio/instructions8.wav,NA,0,NA,NA,NA,NA,NA,NA,NA,NA,NA,NA,NA,NA,NA,NA,NA,NA,NA,NA,NA,NA,NA,NA,NA,NA,NA
fcp-comprehension,18,124492,0.0-5.0-9.0,voc_e2,12024,"[{""event"":""fullscreenenter"",""trial"":1,""time"":4712}]",NA,5301,NA,NA,NA,NA,NA,NA,NA,NA,NA,NA,NA,NA,NA,NA,NA,NA,NA,NA,"true,true",0,NA,NA,NA,NA,NA,NA,NA,NA
audio-instructions,19,130743,0.0-6.0-0.0,voc_e2,12024,"[{""event"":""fullscreenenter"",""trial"":1,""time"":4712}]",NA,701,static/audio/instructions9.wav,NA,0,NA,NA,NA,NA,NA,NA,NA,NA,NA,NA,NA,NA,NA,NA,NA,NA,NA,NA,NA,NA,NA,NA,NA,NA,NA
audio-instructions,20,143318,0.0-6.0-1.0,voc_e2,12024,"[{""event"":""fullscreenenter"",""trial"":1,""time"":4712}]",NA,457,static/audio/instructions10.wav,NA,0,NA,NA,NA,NA,NA,NA,NA,NA,NA,NA,NA,NA,NA,NA,NA,NA,NA,NA,NA,NA,NA,NA,NA,NA,NA
fcp-trial,21,147461,0.0-6.0-2.0,voc_e2,12024,"[{""event"":""fullscreenenter"",""trial"":1,""time"":4712}]",NA,NA,NA,NA,NA,0,#EDC948,#46d3c8,10,10,1,38,1,1594,37,1,1030.999999999971,10,1,practice,NA,NA,NA,NA,NA,NA,NA,NA,NA,NA
audio-instructions,22,159141,0.0-6.0-3.0,voc_e2,12024,"[{""event"":""fullscreenenter"",""trial"":1,""time"":4712}]",NA,670,static/audio/instructions11.wav,NA,0,NA,NA,NA,NA,NA,NA,NA,NA,NA,NA,NA,NA,NA,NA,NA,NA,NA,NA,NA,NA,NA,NA,NA,NA,NA
fcp-trial,23,162170,0.0-6.0-4.0,voc_e2,12024,"[{""event"":""fullscreenenter"",""trial"":1,""time"":4712}]",NA,NA,NA,NA,NA,6,#EDC948,#46d3c8,10,10,1,40,0,823,37,1,689,10,1,practice,NA,NA,NA,NA,NA,NA,NA,NA,NA,NA
audio-instructions,24,181487,0.0-6.0-5.0,voc_e2,12024,"[{""event"":""fullscreenenter"",""trial"":1,""time"":4712}]",NA,624,static/audio/instructions12.wav,NA,0,NA,NA,NA,NA,NA,NA,NA,NA,NA,NA,NA,NA,NA,NA,NA,NA,NA,NA,NA,NA,NA,NA,NA,NA,NA
audio-instructions,25,189639,0.0-6.0-6.0,voc_e2,12024,"[{""event"":""fullscreenenter"",""trial"":1,""time"":4712}]",NA,558,static/audio/instructions13.wav,NA,0,NA,NA,NA,NA,NA,NA,NA,NA,NA,NA,NA,NA,NA,NA,NA,NA,NA,NA,NA,NA,NA,NA,NA,NA,NA
audio-instructions,26,198782,0.0-6.0-7.0,voc_e2,12024,"[{""event"":""fullscreenenter"",""trial"":1,""time"":4712}]",NA,695,static/audio/instructions14.wav,NA,0,NA,NA,NA,NA,NA,NA,NA,NA,NA,NA,NA,NA,NA,NA,NA,NA,NA,NA,NA,NA,NA,NA,NA,NA,NA
audio-instructions,27,206161,0.0-7.0-0.0,voc_e2,12024,"[{""event"":""fullscreenenter"",""trial"":1,""time"":4712}]",NA,466,static/audio/instructions15.wav,NA,0,NA,NA,NA,NA,NA,NA,NA,NA,NA,NA,NA,NA,NA,NA,NA,NA,NA,NA,NA,NA,NA,NA,NA,NA,NA
audio-instructions,28,213425,0.0-7.0-1.0,voc_e2,12024,"[{""event"":""fullscreenenter"",""trial"":1,""time"":4712}]",NA,437,static/audio/instructions16.wav,NA,0,NA,NA,NA,NA,NA,NA,NA,NA,NA,NA,NA,NA,NA,NA,NA,NA,NA,NA,NA,NA,NA,NA,NA,NA,NA
audio-instructions,29,221507,0.0-7.0-2.0,voc_e2,12024,"[{""event"":""fullscreenenter"",""trial"":1,""time"":4712}]",NA,401,static/audio/instructions17.wav,NA,0,NA,NA,NA,NA,NA,NA,NA,NA,NA,NA,NA,NA,NA,NA,NA,NA,NA,NA,NA,NA,NA,NA,NA,NA,NA
audio-instructions,30,229693,0.0-7.0-3.0,voc_e2,12024,"[{""event"":""fullscreenenter"",""trial"":1,""time"":4712}]",NA,420,static/audio/instructions18.wav,NA,0,NA,NA,NA,NA,NA,NA,NA,NA,NA,NA,NA,NA,NA,NA,NA,NA,NA,NA,NA,NA,NA,NA,NA,NA,NA
audio-instructions,31,236894,0.0-7.0-4.0,voc_e2,12024,"[{""event"":""fullscreenenter"",""trial"":1,""time"":4712}]",NA,458,static/audio/instructions19.wav,NA,0,NA,NA,NA,NA,NA,NA,NA,NA,NA,NA,NA,NA,NA,NA,NA,NA,NA,NA,NA,NA,NA,NA,NA,NA,NA
fcp-comprehension,32,244760,0.0-7.0-5.0,voc_e2,12024,"[{""event"":""fullscreenenter"",""trial"":1,""time"":4712}]",NA,7865.000000000029,NA,NA,NA,NA,NA,NA,NA,NA,NA,NA,NA,NA,NA,NA,NA,NA,NA,NA,"false,false,false,true",0,NA,NA,NA,NA,NA,NA,NA,NA
audio-instructions,33,255030,0.0-8.0,voc_e2,12024,"[{""event"":""fullscreenenter"",""trial"":1,""time"":4712}]",NA,1050.9999999999418,static/audio/ready.wav,NA,0,NA,NA,NA,NA,NA,NA,NA,NA,NA,NA,NA,NA,NA,NA,NA,NA,NA,NA,NA,NA,NA,NA,NA,NA,NA
fcp-trial,34,258671,0.0-9.0-0.0,voc_e2,12024,"[{""event"":""fullscreenenter"",""trial"":1,""time"":4712}]",NA,NA,NA,NA,NA,3,#1CD855,#FA92F8,10,0,0,40,0,1547,37,1,576,10,0,experiment,NA,NA,1,0.3,0.7,3,2,1,1,NA
fcp-trial,35,261547,0.0-10.0-0.0,voc_e2,12024,"[{""event"":""fullscreenenter"",""trial"":1,""time"":4712}]",NA,NA,NA,NA,NA,6,#D8271C,#741CD8,10,10,1,40,0,786,39,0,569,10,0,experiment,NA,NA,2,0.5,0.5,4,5,2,1,NA
fcp-trial,36,264683,0.0-11.0-0.0,voc_e2,12024,"[{""event"":""fullscreenenter"",""trial"":1,""time"":4712}]",NA,NA,NA,NA,NA,6,#1CD855,#FA92F8,10,10,0,40,0,1011,37,1,617,10,0,experiment,NA,NA,1,0.3,0.7,3,2,3,1,NA
fcp-trial,37,267866,0.0-12.0-0.0,voc_e2,12024,"[{""event"":""fullscreenenter"",""trial"":1,""time"":4712}]",NA,NA,NA,NA,NA,5,#FA92F8,#1CD855,10,0,1,40,0,1106,37,1,569,10,1,experiment,NA,NA,1,0.7,0.3,2,3,4,1,NA
fcp-trial,38,270917,0.0-13.0-0.0,voc_e2,12024,"[{""event"":""fullscreenenter"",""trial"":1,""time"":4712}]",NA,NA,NA,NA,NA,5,#D89F1C,#3386FF,0,10,0,40,0,998.0000000000582,39,0,532,10,1,experiment,NA,NA,0,0.1,0.9,1,0,5,1,NA
fcp-trial,39,273906,0.0-14.0-0.0,voc_e2,12024,"[{""event"":""fullscreenenter"",""trial"":1,""time"":4712}]",NA,NA,NA,NA,NA,5,#D8271C,#741CD8,10,0,1,40,0,988,39,0,493,0,0,experiment,NA,NA,2,0.5,0.5,4,5,6,1,NA
fcp-trial,40,277193,0.0-15.0-0.0,voc_e2,12024,"[{""event"":""fullscreenenter"",""trial"":1,""time"":4712}]",NA,NA,NA,NA,NA,4,#FA92F8,#1CD855,10,0,1,40,0,1112,37,1,656,10,1,experiment,NA,NA,1,0.7,0.3,2,3,7,1,NA
fcp-trial,41,281191,0.0-16.0-0.0,voc_e2,12024,"[{""event"":""fullscreenenter"",""trial"":1,""time"":4712}]",NA,NA,NA,NA,NA,1,#D89F1C,#3386FF,0,0,0,38,1,1996,37,1,492,0,0,experiment,NA,NA,0,0.1,0.9,1,0,8,1,NA
fcp-trial,42,285421,0.0-17.0-0.0,voc_e2,12024,"[{""event"":""fullscreenenter"",""trial"":1,""time"":4712}]",NA,NA,NA,NA,NA,1,#D8271C,#741CD8,10,10,1,38,1,2187,39,0,534,10,0,experiment,NA,NA,2,0.5,0.5,4,5,9,1,NA
fcp-trial,43,289348,0.0-18.0-0.0,voc_e2,12024,"[{""event"":""fullscreenenter"",""trial"":1,""time"":4712}]",NA,NA,NA,NA,NA,2,#1CD855,#FA92F8,0,10,0,38,1,1915,37,1,486,0,0,experiment,NA,NA,1,0.3,0.7,3,2,10,1,NA
fcp-trial,44,293847,0.0-19.0-0.0,voc_e2,12024,"[{""event"":""fullscreenenter"",""trial"":1,""time"":4712}]",NA,NA,NA,NA,NA,4,#741CD8,#D8271C,0,10,0,40,0,2046,39,0,943,10,1,experiment,NA,NA,2,0.5,0.5,5,4,11,1,NA
fcp-trial,45,297331,0.0-20.0-0.0,voc_e2,12024,"[{""event"":""fullscreenenter"",""trial"":1,""time"":4712}]",NA,NA,NA,NA,NA,3,#741CD8,#D8271C,0,10,0,38,1,1510,37,1,453.9999999999418,0,0,experiment,NA,NA,2,0.5,0.5,5,4,12,1,NA
fcp-trial,46,300495,0.0-21.0-0.0,voc_e2,12024,"[{""event"":""fullscreenenter"",""trial"":1,""time"":4712}]",NA,NA,NA,NA,NA,0,#D89F1C,#3386FF,0,10,0,38,1,1134,39,0,519,10,1,experiment,NA,NA,0,0.1,0.9,1,0,13,1,NA
fcp-trial,47,303812,0.0-22.0-0.0,voc_e2,12024,"[{""event"":""fullscreenenter"",""trial"":1,""time"":4712}]",NA,NA,NA,NA,NA,6,#3386FF,#D89F1C,10,0,1,40,0,1306,37,1,501,10,1,experiment,NA,NA,0,0.9,0.1,0,1,14,1,NA
fcp-trial,48,306996,0.0-23.0-0.0,voc_e2,12024,"[{""event"":""fullscreenenter"",""trial"":1,""time"":4712}]",NA,NA,NA,NA,NA,1,#FA92F8,#1CD855,0,10,1,38,1,1109,37,1,564.9999999999418,0,1,experiment,NA,NA,1,0.7,0.3,2,3,15,1,NA
fcp-trial,49,310206,0.0-24.0-0.0,voc_e2,12024,"[{""event"":""fullscreenenter"",""trial"":1,""time"":4712}]",NA,NA,NA,NA,NA,0,#741CD8,#D8271C,0,10,0,38,1,1113,39,0,589,10,1,experiment,NA,NA,2,0.5,0.5,5,4,16,1,NA
fcp-trial,50,313798,0.0-25.0-0.0,voc_e2,12024,"[{""event"":""fullscreenenter"",""trial"":1,""time"":4712}]",NA,NA,NA,NA,NA,2,#D89F1C,#3386FF,0,10,0,38,1,1164,39,0,920,10,1,experiment,NA,NA,0,0.1,0.9,1,0,17,1,NA
fcp-trial,51,316849,0.0-26.0-0.0,voc_e2,12024,"[{""event"":""fullscreenenter"",""trial"":1,""time"":4712}]",NA,NA,NA,NA,NA,3,#3386FF,#D89F1C,10,0,1,38,1,972.0000000000582,37,1,566,10,1,experiment,NA,NA,0,0.9,0.1,0,1,18,1,NA
fcp-trial,52,320602,0.0-27.0-0.0,voc_e2,12024,"[{""event"":""fullscreenenter"",""trial"":1,""time"":4712}]",NA,NA,NA,NA,NA,0,#FA92F8,#1CD855,10,0,1,38,1,1208,37,1,1034.9999999999418,10,1,experiment,NA,NA,1,0.7,0.3,2,3,19,1,NA
fcp-trial,53,324662,0.0-28.0-0.0,voc_e2,12024,"[{""event"":""fullscreenenter"",""trial"":1,""time"":4712}]",NA,NA,NA,NA,NA,2,#D8271C,#741CD8,0,0,1,40,0,2018.0000000000582,37,1,533,0,1,experiment,NA,NA,2,0.5,0.5,4,5,20,1,NA
fcp-trial,54,327718,0.0-29.0-0.0,voc_e2,12024,"[{""event"":""fullscreenenter"",""trial"":1,""time"":4712}]",NA,NA,NA,NA,NA,4,#3386FF,#D89F1C,10,0,1,40,0,1082.0000000000582,37,1,464,10,1,experiment,NA,NA,0,0.9,0.1,0,1,21,1,NA
fcp-trial,55,330927,0.0-30.0-0.0,voc_e2,12024,"[{""event"":""fullscreenenter"",""trial"":1,""time"":4712}]",NA,NA,NA,NA,NA,1,#FA92F8,#1CD855,10,10,1,38,1,1109,37,1,591,10,1,experiment,NA,NA,1,0.7,0.3,2,3,22,1,NA
fcp-trial,56,335008,0.0-31.0-0.0,voc_e2,12024,"[{""event"":""fullscreenenter"",""trial"":1,""time"":4712}]",NA,NA,NA,NA,NA,0,#D8271C,#741CD8,0,0,1,38,1,1480,37,1,1093,0,1,experiment,NA,NA,2,0.5,0.5,4,5,23,1,NA
fcp-trial,57,338381,0.0-32.0-0.0,voc_e2,12024,"[{""event"":""fullscreenenter"",""trial"":1,""time"":4712}]",NA,NA,NA,NA,NA,2,#741CD8,#D8271C,10,10,0,40,0,1415,37,1,448,10,0,experiment,NA,NA,2,0.5,0.5,5,4,24,1,NA
fcp-trial,58,341568,0.0-33.0-0.0,voc_e2,12024,"[{""event"":""fullscreenenter"",""trial"":1,""time"":4712}]",NA,NA,NA,NA,NA,4,#D89F1C,#3386FF,0,10,0,40,0,1119,37,1,558,0,0,experiment,NA,NA,0,0.1,0.9,1,0,25,1,NA
fcp-trial,59,344870,0.0-34.0-0.0,voc_e2,12024,"[{""event"":""fullscreenenter"",""trial"":1,""time"":4712}]",NA,NA,NA,NA,NA,3,#3386FF,#D89F1C,0,0,1,38,1,1112,37,1,682,0,1,experiment,NA,NA,0,0.9,0.1,0,1,26,1,NA
fcp-trial,60,348104,0.0-35.0-0.0,voc_e2,12024,"[{""event"":""fullscreenenter"",""trial"":1,""time"":4712}]",NA,NA,NA,NA,NA,6,#FA92F8,#1CD855,10,10,1,40,0,1190,37,1,523,10,1,experiment,NA,NA,1,0.7,0.3,2,3,27,1,NA
fcp-trial,61,351152,0.0-36.0-0.0,voc_e2,12024,"[{""event"":""fullscreenenter"",""trial"":1,""time"":4712}]",NA,NA,NA,NA,NA,2,#FA92F8,#1CD855,10,10,1,38,1,1049,37,1,489.9999999999418,10,1,experiment,NA,NA,1,0.7,0.3,2,3,28,1,NA
fcp-trial,62,355045,0.0-37.0-0.0,voc_e2,12024,"[{""event"":""fullscreenenter"",""trial"":1,""time"":4712}]",NA,NA,NA,NA,NA,3,#D8271C,#741CD8,10,0,1,38,1,1670,39,0,713,0,0,experiment,NA,NA,2,0.5,0.5,4,5,29,1,NA
fcp-trial,63,358570,0.0-38.0-0.0,voc_e2,12024,"[{""event"":""fullscreenenter"",""trial"":1,""time"":4712}]",NA,NA,NA,NA,NA,0,#FA92F8,#1CD855,10,10,1,38,1,1454.0000000000582,37,1,562,10,1,experiment,NA,NA,1,0.7,0.3,2,3,30,1,NA
fcp-trial,64,361574,0.0-39.0-0.0,voc_e2,12024,"[{""event"":""fullscreenenter"",""trial"":1,""time"":4712}]",NA,NA,NA,NA,NA,6,#D89F1C,#3386FF,0,10,0,40,0,1049.0000000000582,39,0,447,10,1,experiment,NA,NA,0,0.1,0.9,1,0,31,1,NA
fcp-trial,65,364704,0.0-40.0-0.0,voc_e2,12024,"[{""event"":""fullscreenenter"",""trial"":1,""time"":4712}]",NA,NA,NA,NA,NA,1,#D89F1C,#3386FF,0,10,0,38,1,1112,39,0,507.0000000000582,10,1,experiment,NA,NA,0,0.1,0.9,1,0,32,1,NA
fcp-trial,66,367765,0.0-41.0-0.0,voc_e2,12024,"[{""event"":""fullscreenenter"",""trial"":1,""time"":4712}]",NA,NA,NA,NA,NA,5,#741CD8,#D8271C,0,10,0,40,0,1039.0000000000582,37,1,512,0,0,experiment,NA,NA,2,0.5,0.5,5,4,33,1,NA
fcp-trial,67,370881,0.0-42.0-0.0,voc_e2,12024,"[{""event"":""fullscreenenter"",""trial"":1,""time"":4712}]",NA,NA,NA,NA,NA,5,#1CD855,#FA92F8,0,0,0,40,0,1085,37,1,522,0,0,experiment,NA,NA,1,0.3,0.7,3,2,34,1,NA
fcp-trial,68,373999,0.0-43.0-0.0,voc_e2,12024,"[{""event"":""fullscreenenter"",""trial"":1,""time"":4712}]",NA,NA,NA,NA,NA,1,#741CD8,#D8271C,10,0,0,38,1,977,37,1,631,10,0,experiment,NA,NA,2,0.5,0.5,5,4,35,1,NA
fcp-trial,69,377282,0.0-44.0-0.0,voc_e2,12024,"[{""event"":""fullscreenenter"",""trial"":1,""time"":4712}]",NA,NA,NA,NA,NA,0,#3386FF,#D89F1C,10,10,1,38,1,982,39,0,791,10,0,experiment,NA,NA,0,0.9,0.1,0,1,36,1,NA
fcp-trial,70,380274,0.0-45.0-0.0,voc_e2,12024,"[{""event"":""fullscreenenter"",""trial"":1,""time"":4712}]",NA,NA,NA,NA,NA,2,#D89F1C,#3386FF,0,10,0,38,1,1051.0000000000582,37,1,433.0000000000582,0,0,experiment,NA,NA,0,0.1,0.9,1,0,37,1,NA
fcp-trial,71,383153,0.0-46.0-0.0,voc_e2,12024,"[{""event"":""fullscreenenter"",""trial"":1,""time"":4712}]",NA,NA,NA,NA,NA,6,#D8271C,#741CD8,10,0,1,40,0,865,37,1,506,10,1,experiment,NA,NA,2,0.5,0.5,4,5,38,1,NA
fcp-trial,72,386530,0.0-47.0-0.0,voc_e2,12024,"[{""event"":""fullscreenenter"",""trial"":1,""time"":4712}]",NA,NA,NA,NA,NA,4,#1CD855,#FA92F8,10,0,0,38,1,1282.9999999999418,39,0,584.0000000000582,0,1,experiment,NA,NA,1,0.3,0.7,3,2,39,1,NA
fcp-trial,73,389487,0.0-48.0-0.0,voc_e2,12024,"[{""event"":""fullscreenenter"",""trial"":1,""time"":4712}]",NA,NA,NA,NA,NA,5,#3386FF,#D89F1C,10,0,1,40,0,1032,37,1,415,10,1,experiment,NA,NA,0,0.9,0.1,0,1,40,1,NA
fcp-trial,74,392975,0.0-49.0-0.0,voc_e2,12024,"[{""event"":""fullscreenenter"",""trial"":1,""time"":4712}]",NA,NA,NA,NA,NA,4,#741CD8,#D8271C,10,10,0,38,1,1566.0000000000582,37,1,412.9999999999418,10,0,experiment,NA,NA,2,0.5,0.5,5,4,41,1,NA
fcp-trial,75,396092,0.0-50.0-0.0,voc_e2,12024,"[{""event"":""fullscreenenter"",""trial"":1,""time"":4712}]",NA,NA,NA,NA,NA,3,#FA92F8,#1CD855,0,0,1,38,1,1108,37,1,498,0,1,experiment,NA,NA,1,0.7,0.3,2,3,42,1,NA
fcp-trial,76,398890,0.0-51.0-0.0,voc_e2,12024,"[{""event"":""fullscreenenter"",""trial"":1,""time"":4712}]",NA,NA,NA,NA,NA,3,#FA92F8,#1CD855,10,0,1,38,1,684,39,0,605,0,0,experiment,NA,NA,1,0.7,0.3,2,3,43,1,NA
fcp-trial,77,401517,0.0-52.0-0.0,voc_e2,12024,"[{""event"":""fullscreenenter"",""trial"":1,""time"":4712}]",NA,NA,NA,NA,NA,0,#FA92F8,#1CD855,10,10,1,38,1,623,37,1,495,10,1,experiment,NA,NA,1,0.7,0.3,2,3,44,1,NA
fcp-trial,78,404783,0.0-53.0-0.0,voc_e2,12024,"[{""event"":""fullscreenenter"",""trial"":1,""time"":4712}]",NA,NA,NA,NA,NA,3,#741CD8,#D8271C,0,10,0,40,0,1286,39,0,454,10,1,experiment,NA,NA,2,0.5,0.5,5,4,45,1,NA
fcp-trial,79,407616,0.0-54.0-0.0,voc_e2,12024,"[{""event"":""fullscreenenter"",""trial"":1,""time"":4712}]",NA,NA,NA,NA,NA,6,#741CD8,#D8271C,10,0,0,40,0,891.9999999999418,37,1,433,10,0,experiment,NA,NA,2,0.5,0.5,5,4,46,2,NA
fcp-trial,80,410598,0.0-55.0-0.0,voc_e2,12024,"[{""event"":""fullscreenenter"",""trial"":1,""time"":4712}]",NA,NA,NA,NA,NA,5,#D89F1C,#3386FF,0,10,0,40,0,1060,39,0,400.9999999999418,10,1,experiment,NA,NA,0,0.1,0.9,1,0,47,2,NA
fcp-trial,81,413376,0.0-56.0-0.0,voc_e2,12024,"[{""event"":""fullscreenenter"",""trial"":1,""time"":4712}]",NA,NA,NA,NA,NA,0,#741CD8,#D8271C,10,0,0,38,1,864,37,1,405.0000000000582,10,0,experiment,NA,NA,2,0.5,0.5,5,4,48,2,NA
fcp-trial,82,416968,0.0-57.0-0.0,voc_e2,12024,"[{""event"":""fullscreenenter"",""trial"":1,""time"":4712}]",NA,NA,NA,NA,NA,1,#1CD855,#FA92F8,0,10,0,38,1,1052.0000000000582,37,1,1030,0,0,experiment,NA,NA,1,0.3,0.7,3,2,49,2,NA
fcp-trial,83,420176,0.0-58.0-0.0,voc_e2,12024,"[{""event"":""fullscreenenter"",""trial"":1,""time"":4712}]",NA,NA,NA,NA,NA,2,#1CD855,#FA92F8,0,10,0,40,0,1206,37,1,494,0,0,experiment,NA,NA,1,0.3,0.7,3,2,50,2,NA
fcp-trial,84,423552,0.0-59.0-0.0,voc_e2,12024,"[{""event"":""fullscreenenter"",""trial"":1,""time"":4712}]",NA,NA,NA,NA,NA,3,#D89F1C,#3386FF,10,10,0,40,0,1361,39,0,506,10,1,experiment,NA,NA,0,0.1,0.9,1,0,51,2,NA
fcp-trial,85,426580,0.0-60.0-0.0,voc_e2,12024,"[{""event"":""fullscreenenter"",""trial"":1,""time"":4712}]",NA,NA,NA,NA,NA,1,#D8271C,#741CD8,10,10,1,38,1,1042.9999999999418,37,1,476,10,1,experiment,NA,NA,2,0.5,0.5,4,5,52,2,NA
fcp-trial,86,429656,0.0-61.0-0.0,voc_e2,12024,"[{""event"":""fullscreenenter"",""trial"":1,""time"":4712}]",NA,NA,NA,NA,NA,5,#741CD8,#D8271C,0,0,0,40,0,1090.0000000000582,39,0,477,0,1,experiment,NA,NA,2,0.5,0.5,5,4,53,2,NA
fcp-trial,87,432936,0.0-62.0-0.0,voc_e2,12024,"[{""event"":""fullscreenenter"",""trial"":1,""time"":4712}]",NA,NA,NA,NA,NA,4,#1CD855,#FA92F8,10,0,0,38,1,709,37,1,1051,10,0,experiment,NA,NA,1,0.3,0.7,3,2,54,2,NA
fcp-trial,88,435917,0.0-63.0-0.0,voc_e2,12024,"[{""event"":""fullscreenenter"",""trial"":1,""time"":4712}]",NA,NA,NA,NA,NA,6,#FA92F8,#1CD855,10,0,1,40,0,1004,39,0,467.0000000000582,0,0,experiment,NA,NA,1,0.7,0.3,2,3,55,2,NA
fcp-trial,89,438939,0.0-64.0-0.0,voc_e2,12024,"[{""event"":""fullscreenenter"",""trial"":1,""time"":4712}]",NA,NA,NA,NA,NA,0,#D89F1C,#3386FF,0,10,0,38,1,1109,37,1,402.9999999999418,0,0,experiment,NA,NA,0,0.1,0.9,1,0,56,2,NA
fcp-trial,90,442309,0.0-65.0-0.0,voc_e2,12024,"[{""event"":""fullscreenenter"",""trial"":1,""time"":4712}]",NA,NA,NA,NA,NA,2,#D8271C,#741CD8,0,10,1,38,1,1059.9999999999418,39,0,802,10,0,experiment,NA,NA,2,0.5,0.5,4,5,57,2,NA
fcp-trial,91,445224,0.0-66.0-0.0,voc_e2,12024,"[{""event"":""fullscreenenter"",""trial"":1,""time"":4712}]",NA,NA,NA,NA,NA,6,#D89F1C,#3386FF,0,10,0,40,0,940,37,1,466,0,0,experiment,NA,NA,0,0.1,0.9,1,0,58,2,NA
fcp-trial,92,448340,0.0-67.0-0.0,voc_e2,12024,"[{""event"":""fullscreenenter"",""trial"":1,""time"":4712}]",NA,NA,NA,NA,NA,5,#1CD855,#FA92F8,0,0,0,40,0,1125,39,0,482,0,1,experiment,NA,NA,1,0.3,0.7,3,2,59,2,NA
fcp-trial,93,452092,0.0-68.0-0.0,voc_e2,12024,"[{""event"":""fullscreenenter"",""trial"":1,""time"":4712}]",NA,NA,NA,NA,NA,4,#D89F1C,#3386FF,0,10,0,38,1,1013,39,0,1230,10,1,experiment,NA,NA,0,0.1,0.9,1,0,60,2,NA
fcp-trial,94,455376,0.0-69.0-0.0,voc_e2,12024,"[{""event"":""fullscreenenter"",""trial"":1,""time"":4712}]",NA,NA,NA,NA,NA,2,#3386FF,#D89F1C,10,0,1,38,1,1160.0000000000582,37,1,613,10,1,experiment,NA,NA,0,0.9,0.1,0,1,61,2,NA
fcp-trial,95,458676,0.0-70.0-0.0,voc_e2,12024,"[{""event"":""fullscreenenter"",""trial"":1,""time"":4712}]",NA,NA,NA,NA,NA,4,#741CD8,#D8271C,0,0,0,40,0,1285,39,0,507,0,1,experiment,NA,NA,2,0.5,0.5,5,4,62,2,NA
fcp-trial,96,461438,0.0-71.0-0.0,voc_e2,12024,"[{""event"":""fullscreenenter"",""trial"":1,""time"":4712}]",NA,NA,NA,NA,NA,1,#3386FF,#D89F1C,10,0,1,38,1,860.9999999999418,37,1,391,10,1,experiment,NA,NA,0,0.9,0.1,0,1,63,2,NA
fcp-trial,97,464064,0.0-72.0-0.0,voc_e2,12024,"[{""event"":""fullscreenenter"",""trial"":1,""time"":4712}]",NA,NA,NA,NA,NA,1,#D89F1C,#3386FF,0,10,0,38,1,733,39,0,385.0000000000582,10,1,experiment,NA,NA,0,0.1,0.9,1,0,64,2,NA
fcp-trial,98,467291,0.0-73.0-0.0,voc_e2,12024,"[{""event"":""fullscreenenter"",""trial"":1,""time"":4712}]",NA,NA,NA,NA,NA,2,#D8271C,#741CD8,10,10,1,38,1,1094,37,1,624.0000000000582,10,1,experiment,NA,NA,2,0.5,0.5,4,5,65,2,NA
fcp-trial,99,470380,0.0-74.0-0.0,voc_e2,12024,"[{""event"":""fullscreenenter"",""trial"":1,""time"":4712}]",NA,NA,NA,NA,NA,6,#3386FF,#D89F1C,10,0,1,40,0,1076,39,0,491.0000000000582,0,0,experiment,NA,NA,0,0.9,0.1,0,1,66,2,NA
fcp-trial,100,473430,0.0-75.0-0.0,voc_e2,12024,"[{""event"":""fullscreenenter"",""trial"":1,""time"":4712}]",NA,NA,NA,NA,NA,4,#FA92F8,#1CD855,10,0,1,40,0,1120,39,0,421,0,0,experiment,NA,NA,1,0.7,0.3,2,3,67,2,NA
fcp-trial,101,476208,0.0-76.0-0.0,voc_e2,12024,"[{""event"":""fullscreenenter"",""trial"":1,""time"":4712}]",NA,NA,NA,NA,NA,6,#FA92F8,#1CD855,10,0,1,38,1,810,37,1,459,10,1,experiment,NA,NA,1,0.7,0.3,2,3,68,2,NA
fcp-trial,102,479423,0.0-77.0-0.0,voc_e2,12024,"[{""event"":""fullscreenenter"",""trial"":1,""time"":4712}]",NA,NA,NA,NA,NA,6,#741CD8,#D8271C,0,0,0,40,0,1273,37,1,434,0,0,experiment,NA,NA,2,0.5,0.5,5,4,69,2,NA
fcp-trial,103,482755,0.0-78.0-0.0,voc_e2,12024,"[{""event"":""fullscreenenter"",""trial"":1,""time"":4712}]",NA,NA,NA,NA,NA,0,#741CD8,#D8271C,0,0,0,38,1,1366.0000000000582,39,0,456,0,1,experiment,NA,NA,2,0.5,0.5,5,4,70,2,NA
fcp-trial,104,486057,0.0-79.0-0.0,voc_e2,12024,"[{""event"":""fullscreenenter"",""trial"":1,""time"":4712}]",NA,NA,NA,NA,NA,5,#D89F1C,#3386FF,0,10,0,40,0,1356,37,1,436,0,0,experiment,NA,NA,0,0.1,0.9,1,0,71,2,NA
fcp-trial,105,489352,0.0-80.0-0.0,voc_e2,12024,"[{""event"":""fullscreenenter"",""trial"":1,""time"":4712}]",NA,NA,NA,NA,NA,2,#FA92F8,#1CD855,10,0,1,38,1,829,37,1,957,10,1,experiment,NA,NA,1,0.7,0.3,2,3,72,2,NA
fcp-trial,106,492035,0.0-81.0-0.0,voc_e2,12024,"[{""event"":""fullscreenenter"",""trial"":1,""time"":4712}]",NA,NA,NA,NA,NA,0,#FA92F8,#1CD855,10,0,1,38,1,803.9999999999418,37,1,368.0000000000582,10,1,experiment,NA,NA,1,0.7,0.3,2,3,73,2,NA
fcp-trial,107,495216,0.0-82.0-0.0,voc_e2,12024,"[{""event"":""fullscreenenter"",""trial"":1,""time"":4712}]",NA,NA,NA,NA,NA,4,#D89F1C,#3386FF,0,10,0,40,0,1216,37,1,446,0,0,experiment,NA,NA,0,0.1,0.9,1,0,74,2,NA
fcp-trial,108,498147,0.0-83.0-0.0,voc_e2,12024,"[{""event"":""fullscreenenter"",""trial"":1,""time"":4712}]",NA,NA,NA,NA,NA,1,#D8271C,#741CD8,0,10,1,38,1,850.0000000000582,37,1,570.9999999999418,0,1,experiment,NA,NA,2,0.5,0.5,4,5,75,2,NA
fcp-trial,109,500651,0.0-84.0-0.0,voc_e2,12024,"[{""event"":""fullscreenenter"",""trial"":1,""time"":4712}]",NA,NA,NA,NA,NA,3,#D8271C,#741CD8,0,10,1,38,1,689,39,0,307,10,0,experiment,NA,NA,2,0.5,0.5,4,5,76,2,NA
fcp-trial,110,503912,0.0-85.0-0.0,voc_e2,12024,"[{""event"":""fullscreenenter"",""trial"":1,""time"":4712}]",NA,NA,NA,NA,NA,3,#1CD855,#FA92F8,0,10,0,38,1,1291,39,0,461.9999999999418,10,1,experiment,NA,NA,1,0.3,0.7,3,2,77,2,NA
fcp-trial,111,507104,0.0-86.0-0.0,voc_e2,12024,"[{""event"":""fullscreenenter"",""trial"":1,""time"":4712}]",NA,NA,NA,NA,NA,1,#FA92F8,#1CD855,10,0,1,38,1,954.0000000000582,37,1,729.9999999999418,10,1,experiment,NA,NA,1,0.7,0.3,2,3,78,2,NA
fcp-trial,112,510920,0.0-87.0-0.0,voc_e2,12024,"[{""event"":""fullscreenenter"",""trial"":1,""time"":4712}]",NA,NA,NA,NA,NA,2,#D89F1C,#3386FF,0,10,0,38,1,1209.9999999998836,39,0,1096,10,1,experiment,NA,NA,0,0.1,0.9,1,0,79,2,NA
fcp-trial,113,514039,0.0-88.0-0.0,voc_e2,12024,"[{""event"":""fullscreenenter"",""trial"":1,""time"":4712}]",NA,NA,NA,NA,NA,4,#741CD8,#D8271C,0,0,0,38,1,1240,39,0,367.0000000000582,0,1,experiment,NA,NA,2,0.5,0.5,5,4,80,2,NA
fcp-trial,114,516694,0.0-89.0-0.0,voc_e2,12024,"[{""event"":""fullscreenenter"",""trial"":1,""time"":4712}]",NA,NA,NA,NA,NA,5,#1CD855,#FA92F8,10,10,0,38,1,668,39,0,479.0000000000582,10,1,experiment,NA,NA,1,0.3,0.7,3,2,81,2,NA
fcp-trial,115,519373,0.0-90.0-0.0,voc_e2,12024,"[{""event"":""fullscreenenter"",""trial"":1,""time"":4712}]",NA,NA,NA,NA,NA,0,#3386FF,#D89F1C,10,0,1,38,1,679,37,1,480,10,1,experiment,NA,NA,0,0.9,0.1,0,1,82,2,NA
fcp-trial,116,522078,0.0-91.0-0.0,voc_e2,12024,"[{""event"":""fullscreenenter"",""trial"":1,""time"":4712}]",NA,NA,NA,NA,NA,3,#3386FF,#D89F1C,10,10,1,38,1,542,37,1,653,10,1,experiment,NA,NA,0,0.9,0.1,0,1,83,2,NA
fcp-trial,117,525012,0.0-92.0-0.0,voc_e2,12024,"[{""event"":""fullscreenenter"",""trial"":1,""time"":4712}]",NA,NA,NA,NA,NA,5,#D8271C,#741CD8,0,10,1,38,1,662,39,0,765,10,0,experiment,NA,NA,2,0.5,0.5,4,5,84,2,NA
fcp-trial,118,527295,0.0-93.0-0.0,voc_e2,12024,"[{""event"":""fullscreenenter"",""trial"":1,""time"":4712}]",NA,NA,NA,NA,NA,5,#D8271C,#741CD8,0,0,1,38,1,503,39,0,270,0,0,experiment,NA,NA,2,0.5,0.5,4,5,85,2,NA
fcp-trial,119,529825,0.0-94.0-0.0,voc_e2,12024,"[{""event"":""fullscreenenter"",""trial"":1,""time"":4712}]",NA,NA,NA,NA,NA,5,#FA92F8,#1CD855,0,0,1,38,1,563.9999999998836,37,1,459,0,1,experiment,NA,NA,1,0.7,0.3,2,3,86,2,NA
fcp-trial,120,532389,0.0-95.0-0.0,voc_e2,12024,"[{""event"":""fullscreenenter"",""trial"":1,""time"":4712}]",NA,NA,NA,NA,NA,0,#D8271C,#741CD8,0,10,1,38,1,471,39,0,573,10,0,experiment,NA,NA,2,0.5,0.5,4,5,87,2,NA
fcp-trial,121,534983,0.0-96.0-0.0,voc_e2,12024,"[{""event"":""fullscreenenter"",""trial"":1,""time"":4712}]",NA,NA,NA,NA,NA,2,#D89F1C,#3386FF,0,10,0,38,1,572,37,1,514,0,0,experiment,NA,NA,0,0.1,0.9,1,0,88,2,NA
fcp-trial,122,537681,0.0-97.0-0.0,voc_e2,12024,"[{""event"":""fullscreenenter"",""trial"":1,""time"":4712}]",NA,NA,NA,NA,NA,0,#1CD855,#FA92F8,0,0,0,38,1,477,37,1,713,0,0,experiment,NA,NA,1,0.3,0.7,3,2,89,2,NA
fcp-trial,123,540056,0.0-98.0-0.0,voc_e2,12024,"[{""event"":""fullscreenenter"",""trial"":1,""time"":4712}]",NA,NA,NA,NA,NA,3,#1CD855,#FA92F8,0,10,0,38,1,358.9999999998836,39,0,495,10,1,experiment,NA,NA,1,0.3,0.7,3,2,90,2,NA
fcp-trial,124,542802,0.0-99.0-0.0,voc_e2,12024,"[{""event"":""fullscreenenter"",""trial"":1,""time"":4712}]",NA,NA,NA,NA,NA,6,#741CD8,#D8271C,10,10,0,38,1,483,39,0,755.0000000001164,10,1,experiment,NA,NA,2,0.5,0.5,5,4,91,3,NA
fcp-trial,125,545320,0.0-100.0-0.0,voc_e2,12024,"[{""event"":""fullscreenenter"",""trial"":1,""time"":4712}]",NA,NA,NA,NA,NA,4,#D8271C,#741CD8,0,0,1,38,1,562,39,0,448,0,0,experiment,NA,NA,2,0.5,0.5,4,5,92,3,NA
fcp-trial,126,547736,0.0-101.0-0.0,voc_e2,12024,"[{""event"":""fullscreenenter"",""trial"":1,""time"":4712}]",NA,NA,NA,NA,NA,6,#D89F1C,#3386FF,0,10,0,38,1,418,37,1,487.9999999998836,0,0,experiment,NA,NA,0,0.1,0.9,1,0,93,3,NA
fcp-trial,127,550130,0.0-102.0-0.0,voc_e2,12024,"[{""event"":""fullscreenenter"",""trial"":1,""time"":4712}]",NA,NA,NA,NA,NA,4,#D89F1C,#3386FF,0,10,0,38,1,399,37,1,486,0,0,experiment,NA,NA,0,0.1,0.9,1,0,94,3,NA
fcp-trial,128,552704,0.0-103.0-0.0,voc_e2,12024,"[{""event"":""fullscreenenter"",""trial"":1,""time"":4712}]",NA,NA,NA,NA,NA,2,#FA92F8,#1CD855,10,0,1,38,1,424,37,1,643,10,1,experiment,NA,NA,1,0.7,0.3,2,3,95,3,NA
fcp-trial,129,555161,0.0-104.0-0.0,voc_e2,12024,"[{""event"":""fullscreenenter"",""trial"":1,""time"":4712}]",NA,NA,NA,NA,NA,3,#741CD8,#D8271C,0,0,0,38,1,556,39,0,392,0,1,experiment,NA,NA,2,0.5,0.5,5,4,96,3,NA
fcp-trial,130,558043,0.0-105.0-0.0,voc_e2,12024,"[{""event"":""fullscreenenter"",""trial"":1,""time"":4712}]",NA,NA,NA,NA,NA,5,#3386FF,#D89F1C,10,0,1,38,1,315,37,1,1058,10,1,experiment,NA,NA,0,0.9,0.1,0,1,97,3,NA
fcp-trial,131,560760,0.0-106.0-0.0,voc_e2,12024,"[{""event"":""fullscreenenter"",""trial"":1,""time"":4712}]",NA,NA,NA,NA,NA,4,#1CD855,#FA92F8,0,10,0,40,0,783,37,1,426,0,0,experiment,NA,NA,1,0.3,0.7,3,2,98,3,NA
fcp-trial,132,564083,0.0-107.0-0.0,voc_e2,12024,"[{""event"":""fullscreenenter"",""trial"":1,""time"":4712}]",NA,NA,NA,NA,NA,0,#3386FF,#D89F1C,0,0,1,38,1,859,39,0,953.9999999998836,0,0,experiment,NA,NA,0,0.9,0.1,0,1,99,3,NA
fcp-trial,133,567304,0.0-108.0-0.0,voc_e2,12024,"[{""event"":""fullscreenenter"",""trial"":1,""time"":4712}]",NA,NA,NA,NA,NA,3,#D89F1C,#3386FF,0,10,0,38,1,1226.9999999998836,37,1,472,0,0,experiment,NA,NA,0,0.1,0.9,1,0,100,3,NA
fcp-trial,134,570487,0.0-109.0-0.0,voc_e2,12024,"[{""event"":""fullscreenenter"",""trial"":1,""time"":4712}]",NA,NA,NA,NA,NA,2,#D8271C,#741CD8,0,0,1,38,1,1179,37,1,494,0,1,experiment,NA,NA,2,0.5,0.5,4,5,101,3,NA
fcp-trial,135,573263,0.0-110.0-0.0,voc_e2,12024,"[{""event"":""fullscreenenter"",""trial"":1,""time"":4712}]",NA,NA,NA,NA,NA,6,#FA92F8,#1CD855,10,0,1,40,0,796,39,0,471,0,0,experiment,NA,NA,1,0.7,0.3,2,3,102,3,NA
fcp-trial,136,576125,0.0-111.0-0.0,voc_e2,12024,"[{""event"":""fullscreenenter"",""trial"":1,""time"":4712}]",NA,NA,NA,NA,NA,1,#FA92F8,#1CD855,0,10,1,38,1,881.0000000001164,37,1,471,0,1,experiment,NA,NA,1,0.7,0.3,2,3,103,3,NA
fcp-trial,137,578901,0.0-112.0-0.0,voc_e2,12024,"[{""event"":""fullscreenenter"",""trial"":1,""time"":4712}]",NA,NA,NA,NA,NA,1,#D8271C,#741CD8,0,0,1,38,1,915,37,1,338,0,1,experiment,NA,NA,2,0.5,0.5,4,5,104,3,NA
fcp-trial,138,581878,0.0-113.0-0.0,voc_e2,12024,"[{""event"":""fullscreenenter"",""trial"":1,""time"":4712}]",NA,NA,NA,NA,NA,1,#D89F1C,#3386FF,0,10,0,38,1,783,37,1,687,0,0,experiment,NA,NA,0,0.1,0.9,1,0,105,3,NA
audio-instructions,139,587097,0.0-114.0,voc_e2,12024,"[{""event"":""fullscreenenter"",""trial"":1,""time"":4712}]",NA,779,static/audio/pause.wav,NA,0,NA,NA,NA,NA,NA,NA,NA,NA,NA,NA,NA,NA,NA,NA,NA,NA,NA,NA,NA,NA,NA,NA,NA,NA,NA
fcp-trial,140,592686,0.0-115.0-0.0,voc_e2,12024,"[{""event"":""fullscreenenter"",""trial"":1,""time"":4712}]",NA,NA,NA,NA,NA,1,#1CD855,#FA92F8,0,10,0,38,1,3361,37,1,710.9999999998836,0,0,experiment,NA,NA,1,0.3,0.7,3,2,106,3,NA
fcp-trial,141,596864,0.0-116.0-0.0,voc_e2,12024,"[{""event"":""fullscreenenter"",""trial"":1,""time"":4712}]",NA,NA,NA,NA,NA,2,#D89F1C,#3386FF,0,0,0,38,1,2126,39,0,544,0,1,experiment,NA,NA,0,0.1,0.9,1,0,107,3,NA
fcp-trial,142,599864,0.0-117.0-0.0,voc_e2,12024,"[{""event"":""fullscreenenter"",""trial"":1,""time"":4712}]",NA,NA,NA,NA,NA,0,#3386FF,#D89F1C,10,0,1,38,1,1090,39,0,401,0,0,experiment,NA,NA,0,0.9,0.1,0,1,108,3,NA
fcp-trial,143,602478,0.0-118.0-0.0,voc_e2,12024,"[{""event"":""fullscreenenter"",""trial"":1,""time"":4712}]",NA,NA,NA,NA,NA,4,#D89F1C,#3386FF,0,10,0,38,1,671.9999999998836,37,1,431.9999999998836,0,0,experiment,NA,NA,0,0.1,0.9,1,0,109,3,NA
fcp-trial,144,605963,0.0-119.0-0.0,voc_e2,12024,"[{""event"":""fullscreenenter"",""trial"":1,""time"":4712}]",NA,NA,NA,NA,NA,4,#D8271C,#741CD8,10,0,1,40,0,1381.9999999998836,37,1,583,10,1,experiment,NA,NA,2,0.5,0.5,4,5,110,3,NA
fcp-trial,145,609675,0.0-120.0-0.0,voc_e2,12024,"[{""event"":""fullscreenenter"",""trial"":1,""time"":4712}]",NA,NA,NA,NA,NA,2,#FA92F8,#1CD855,10,0,1,38,1,1836,37,1,368.0000000001164,10,1,experiment,NA,NA,1,0.7,0.3,2,3,111,3,NA
fcp-trial,146,612608,0.0-121.0-0.0,voc_e2,12024,"[{""event"":""fullscreenenter"",""trial"":1,""time"":4712}]",NA,NA,NA,NA,NA,6,#3386FF,#D89F1C,10,0,1,40,0,1007,37,1,417,10,1,experiment,NA,NA,0,0.9,0.1,0,1,112,3,NA
fcp-trial,147,615884,0.0-122.0-0.0,voc_e2,12024,"[{""event"":""fullscreenenter"",""trial"":1,""time"":4712}]",NA,NA,NA,NA,NA,1,#D8271C,#741CD8,0,10,1,38,1,1302,37,1,464,0,1,experiment,NA,NA,2,0.5,0.5,4,5,113,3,NA
fcp-trial,148,619256,0.0-123.0-0.0,voc_e2,12024,"[{""event"":""fullscreenenter"",""trial"":1,""time"":4712}]",NA,NA,NA,NA,NA,5,#1CD855,#FA92F8,0,10,0,40,0,1407,39,0,445,10,1,experiment,NA,NA,1,0.3,0.7,3,2,114,3,NA
fcp-trial,149,622428,0.0-124.0-0.0,voc_e2,12024,"[{""event"":""fullscreenenter"",""trial"":1,""time"":4712}]",NA,NA,NA,NA,NA,1,#3386FF,#D89F1C,10,0,1,38,1,1205,37,1,456,10,1,experiment,NA,NA,0,0.9,0.1,0,1,115,3,NA
fcp-trial,150,625595,0.0-125.0-0.0,voc_e2,12024,"[{""event"":""fullscreenenter"",""trial"":1,""time"":4712}]",NA,NA,NA,NA,NA,0,#FA92F8,#1CD855,0,10,1,38,1,1295,37,1,363,0,1,experiment,NA,NA,1,0.7,0.3,2,3,116,3,NA
fcp-trial,151,629998,0.0-126.0-0.0,voc_e2,12024,"[{""event"":""fullscreenenter"",""trial"":1,""time"":4712}]",NA,NA,NA,NA,NA,3,#741CD8,#D8271C,0,10,0,40,0,2531,37,1,353,0,0,experiment,NA,NA,2,0.5,0.5,5,4,117,3,NA
fcp-trial,152,633160,0.0-127.0-0.0,voc_e2,12024,"[{""event"":""fullscreenenter"",""trial"":1,""time"":4712}]",NA,NA,NA,NA,NA,6,#741CD8,#D8271C,0,10,0,40,0,1220,39,0,433,10,1,experiment,NA,NA,2,0.5,0.5,5,4,118,3,NA
fcp-trial,153,636581,0.0-128.0-0.0,voc_e2,12024,"[{""event"":""fullscreenenter"",""trial"":1,""time"":4712}]",NA,NA,NA,NA,NA,5,#D89F1C,#3386FF,0,10,0,40,0,1142,39,0,771,10,1,experiment,NA,NA,0,0.1,0.9,1,0,119,3,NA
fcp-trial,154,640318,0.0-129.0-0.0,voc_e2,12024,"[{""event"":""fullscreenenter"",""trial"":1,""time"":4712}]",NA,NA,NA,NA,NA,4,#1CD855,#FA92F8,0,10,0,40,0,1154,39,0,1074,10,1,experiment,NA,NA,1,0.3,0.7,3,2,120,3,NA
fcp-trial,155,643899,0.0-130.0-0.0,voc_e2,12024,"[{""event"":""fullscreenenter"",""trial"":1,""time"":4712}]",NA,NA,NA,NA,NA,2,#741CD8,#D8271C,0,0,0,38,1,1154,39,0,918,0,1,experiment,NA,NA,2,0.5,0.5,5,4,121,3,NA
fcp-trial,156,646920,0.0-131.0-0.0,voc_e2,12024,"[{""event"":""fullscreenenter"",""trial"":1,""time"":4712}]",NA,NA,NA,NA,NA,0,#D8271C,#741CD8,10,10,1,38,1,1130,39,0,367,10,0,experiment,NA,NA,2,0.5,0.5,4,5,122,3,NA
fcp-trial,157,651777,0.0-132.0-0.0,voc_e2,12024,"[{""event"":""fullscreenenter"",""trial"":1,""time"":4712}]",NA,NA,NA,NA,NA,3,#3386FF,#D89F1C,10,0,1,40,0,2934,37,1,412.0000000001164,10,1,experiment,NA,NA,0,0.9,0.1,0,1,123,3,NA
fcp-trial,158,654748,0.0-133.0-0.0,voc_e2,12024,"[{""event"":""fullscreenenter"",""trial"":1,""time"":4712}]",NA,NA,NA,NA,NA,6,#FA92F8,#1CD855,0,0,1,40,0,1011,39,0,439,0,0,experiment,NA,NA,1,0.7,0.3,2,3,124,3,NA
fcp-trial,159,657469,0.0-134.0-0.0,voc_e2,12024,"[{""event"":""fullscreenenter"",""trial"":1,""time"":4712}]",NA,NA,NA,NA,NA,3,#FA92F8,#1CD855,10,0,1,40,0,713,39,0,488,0,0,experiment,NA,NA,1,0.7,0.3,2,3,125,3,NA
fcp-trial,160,660896,0.0-135.0-0.0,voc_e2,12024,"[{""event"":""fullscreenenter"",""trial"":1,""time"":4712}]",NA,NA,NA,NA,NA,5,#D8271C,#741CD8,10,10,1,40,0,1444.0000000001164,37,1,474,10,1,experiment,NA,NA,2,0.5,0.5,4,5,126,3,NA
fcp-trial,161,663898,0.0-136.0-0.0,voc_e2,12024,"[{""event"":""fullscreenenter"",""trial"":1,""time"":4712}]",NA,NA,NA,NA,NA,5,#3386FF,#D89F1C,10,10,1,40,0,1023,37,1,469,10,1,experiment,NA,NA,0,0.9,0.1,0,1,127,3,NA
fcp-trial,162,666761,0.0-137.0-0.0,voc_e2,12024,"[{""event"":""fullscreenenter"",""trial"":1,""time"":4712}]",NA,NA,NA,NA,NA,5,#FA92F8,#1CD855,10,10,1,40,0,829.9999999998836,39,0,526,10,0,experiment,NA,NA,1,0.7,0.3,2,3,128,3,NA
fcp-trial,163,669724,0.0-138.0-0.0,voc_e2,12024,"[{""event"":""fullscreenenter"",""trial"":1,""time"":4712}]",NA,NA,NA,NA,NA,0,#D89F1C,#3386FF,0,10,0,38,1,880,39,0,573.0000000001164,10,1,experiment,NA,NA,0,0.1,0.9,1,0,129,3,NA
fcp-trial,164,672635,0.0-139.0-0.0,voc_e2,12024,"[{""event"":""fullscreenenter"",""trial"":1,""time"":4712}]",NA,NA,NA,NA,NA,4,#741CD8,#D8271C,0,0,0,40,0,932,37,1,458,0,0,experiment,NA,NA,2,0.5,0.5,5,4,130,3,NA
fcp-trial,165,675753,0.0-140.0-0.0,voc_e2,12024,"[{""event"":""fullscreenenter"",""trial"":1,""time"":4712}]",NA,NA,NA,NA,NA,1,#FA92F8,#1CD855,10,0,1,38,1,880,39,0,729,0,0,experiment,NA,NA,1,0.7,0.3,2,3,131,3,NA
fcp-trial,166,679664,0.0-141.0-0.0,voc_e2,12024,"[{""event"":""fullscreenenter"",""trial"":1,""time"":4712}]",NA,NA,NA,NA,NA,3,#D8271C,#741CD8,0,10,1,38,1,949,39,0,1451,10,0,experiment,NA,NA,2,0.5,0.5,4,5,132,3,NA
fcp-trial,167,682707,0.0-142.0-0.0,voc_e2,12024,"[{""event"":""fullscreenenter"",""trial"":1,""time"":4712}]",NA,NA,NA,NA,NA,4,#3386FF,#D89F1C,10,0,1,40,0,1087,37,1,448,10,1,experiment,NA,NA,0,0.9,0.1,0,1,133,3,NA
fcp-trial,168,685864,0.0-143.0-0.0,voc_e2,12024,"[{""event"":""fullscreenenter"",""trial"":1,""time"":4712}]",NA,NA,NA,NA,NA,0,#741CD8,#D8271C,10,10,0,38,1,908,39,0,741,10,1,experiment,NA,NA,2,0.5,0.5,5,4,134,3,NA
fcp-trial,169,688940,0.0-144.0-0.0,voc_e2,12024,"[{""event"":""fullscreenenter"",""trial"":1,""time"":4712}]",NA,NA,NA,NA,NA,6,#741CD8,#D8271C,0,10,0,40,0,1051,37,1,514.9999999998836,0,0,experiment,NA,NA,2,0.5,0.5,5,4,135,3,NA
fcp-trial,170,691886,0.0-145.0-0.0,voc_e2,12024,"[{""event"":""fullscreenenter"",""trial"":1,""time"":4712}]",NA,NA,NA,NA,NA,2,#1CD855,#FA92F8,0,0,0,38,1,781,37,1,657,0,0,experiment,NA,NA,1,0.3,0.7,3,2,136,4,NA
fcp-trial,171,694827,0.0-146.0-0.0,voc_e2,12024,"[{""event"":""fullscreenenter"",""trial"":1,""time"":4712}]",NA,NA,NA,NA,NA,6,#D89F1C,#3386FF,0,10,0,40,0,966.9999999998836,39,0,463,10,1,experiment,NA,NA,0,0.1,0.9,1,0,137,4,NA
fcp-trial,172,698780,0.0-147.0-0.0,voc_e2,12024,"[{""event"":""fullscreenenter"",""trial"":1,""time"":4712}]",NA,NA,NA,NA,NA,1,#D8271C,#741CD8,10,10,1,38,1,863.0000000001164,39,0,1579,10,0,experiment,NA,NA,2,0.5,0.5,4,5,138,4,NA
fcp-trial,173,701580,0.0-148.0-0.0,voc_e2,12024,"[{""event"":""fullscreenenter"",""trial"":1,""time"":4712}]",NA,NA,NA,NA,NA,0,#1CD855,#FA92F8,10,10,0,38,1,832,37,1,458.9999999998836,10,0,experiment,NA,NA,1,0.3,0.7,3,2,139,4,NA
fcp-trial,174,704388,0.0-149.0-0.0,voc_e2,12024,"[{""event"":""fullscreenenter"",""trial"":1,""time"":4712}]",NA,NA,NA,NA,NA,1,#D89F1C,#3386FF,0,10,0,38,1,786,39,0,513,10,1,experiment,NA,NA,0,0.1,0.9,1,0,140,4,NA
fcp-trial,175,707523,0.0-150.0-0.0,voc_e2,12024,"[{""event"":""fullscreenenter"",""trial"":1,""time"":4712}]",NA,NA,NA,NA,NA,3,#FA92F8,#1CD855,10,0,1,38,1,1200,39,0,425.9999999998836,0,0,experiment,NA,NA,1,0.7,0.3,2,3,141,4,NA
fcp-trial,176,710414,0.0-151.0-0.0,voc_e2,12024,"[{""event"":""fullscreenenter"",""trial"":1,""time"":4712}]",NA,NA,NA,NA,NA,4,#1CD855,#FA92F8,0,10,0,40,0,931,39,0,449,10,1,experiment,NA,NA,1,0.3,0.7,3,2,142,4,NA
fcp-trial,177,713360,0.0-152.0-0.0,voc_e2,12024,"[{""event"":""fullscreenenter"",""trial"":1,""time"":4712}]",NA,NA,NA,NA,NA,5,#741CD8,#D8271C,0,0,0,40,0,898,39,0,527,0,1,experiment,NA,NA,2,0.5,0.5,5,4,143,4,NA
fcp-trial,178,716510,0.0-153.0-0.0,voc_e2,12024,"[{""event"":""fullscreenenter"",""trial"":1,""time"":4712}]",NA,NA,NA,NA,NA,2,#3386FF,#D89F1C,10,0,1,38,1,1227,37,1,412,10,1,experiment,NA,NA,0,0.9,0.1,0,1,144,4,NA
fcp-trial,179,719341,0.0-154.0-0.0,voc_e2,12024,"[{""event"":""fullscreenenter"",""trial"":1,""time"":4712}]",NA,NA,NA,NA,NA,6,#FA92F8,#1CD855,10,0,1,40,0,846,39,0,477.0000000001164,0,0,experiment,NA,NA,1,0.7,0.3,2,3,145,4,NA
fcp-trial,180,722811,0.0-155.0-0.0,voc_e2,12024,"[{""event"":""fullscreenenter"",""trial"":1,""time"":4712}]",NA,NA,NA,NA,NA,2,#741CD8,#D8271C,10,0,0,38,1,961,37,1,999,10,0,experiment,NA,NA,2,0.5,0.5,5,4,146,4,NA
fcp-trial,181,725777,0.0-156.0-0.0,voc_e2,12024,"[{""event"":""fullscreenenter"",""trial"":1,""time"":4712}]",NA,NA,NA,NA,NA,3,#D89F1C,#3386FF,0,10,0,40,0,1073,39,0,382.9999999998836,10,1,experiment,NA,NA,0,0.1,0.9,1,0,147,4,NA
fcp-trial,182,728477,0.0-157.0-0.0,voc_e2,12024,"[{""event"":""fullscreenenter"",""trial"":1,""time"":4712}]",NA,NA,NA,NA,NA,6,#D89F1C,#3386FF,0,0,0,40,0,794,39,0,398.0000000001164,0,1,experiment,NA,NA,0,0.1,0.9,1,0,148,4,NA
fcp-trial,183,731585,0.0-158.0-0.0,voc_e2,12024,"[{""event"":""fullscreenenter"",""trial"":1,""time"":4712}]",NA,NA,NA,NA,NA,0,#D89F1C,#3386FF,0,10,0,38,1,958,39,0,642,10,1,experiment,NA,NA,0,0.1,0.9,1,0,149,4,NA
fcp-trial,184,734412,0.0-159.0-0.0,voc_e2,12024,"[{""event"":""fullscreenenter"",""trial"":1,""time"":4712}]",NA,NA,NA,NA,NA,5,#FA92F8,#1CD855,10,0,1,40,0,871,39,0,443.9999999998836,0,0,experiment,NA,NA,1,0.7,0.3,2,3,150,4,NA
fcp-trial,185,737183,0.0-160.0-0.0,voc_e2,12024,"[{""event"":""fullscreenenter"",""trial"":1,""time"":4712}]",NA,NA,NA,NA,NA,2,#3386FF,#D89F1C,10,0,1,38,1,793,37,1,469,10,1,experiment,NA,NA,0,0.9,0.1,0,1,151,4,NA
fcp-trial,186,739960,0.0-161.0-0.0,voc_e2,12024,"[{""event"":""fullscreenenter"",""trial"":1,""time"":4712}]",NA,NA,NA,NA,NA,6,#FA92F8,#1CD855,10,0,1,40,0,816,37,1,452,10,1,experiment,NA,NA,1,0.7,0.3,2,3,152,4,NA
fcp-trial,187,742948,0.0-162.0-0.0,voc_e2,12024,"[{""event"":""fullscreenenter"",""trial"":1,""time"":4712}]",NA,NA,NA,NA,NA,3,#3386FF,#D89F1C,10,0,1,38,1,906,37,1,559.0000000001164,10,1,experiment,NA,NA,0,0.9,0.1,0,1,153,4,NA
fcp-trial,188,745762,0.0-163.0-0.0,voc_e2,12024,"[{""event"":""fullscreenenter"",""trial"":1,""time"":4712}]",NA,NA,NA,NA,NA,4,#741CD8,#D8271C,0,0,0,40,0,924,37,1,381,0,0,experiment,NA,NA,2,0.5,0.5,5,4,154,4,NA
fcp-trial,189,748616,0.0-164.0-0.0,voc_e2,12024,"[{""event"":""fullscreenenter"",""trial"":1,""time"":4712}]",NA,NA,NA,NA,NA,2,#D8271C,#741CD8,10,0,1,38,1,609.9999999998836,37,1,736,10,1,experiment,NA,NA,2,0.5,0.5,4,5,155,4,NA
fcp-trial,190,751582,0.0-165.0-0.0,voc_e2,12024,"[{""event"":""fullscreenenter"",""trial"":1,""time"":4712}]",NA,NA,NA,NA,NA,4,#3386FF,#D89F1C,10,0,1,40,0,1038,39,0,417,0,0,experiment,NA,NA,0,0.9,0.1,0,1,156,4,NA
fcp-trial,191,754351,0.0-166.0-0.0,voc_e2,12024,"[{""event"":""fullscreenenter"",""trial"":1,""time"":4712}]",NA,NA,NA,NA,NA,0,#FA92F8,#1CD855,0,0,1,38,1,763,37,1,499.0000000001164,0,1,experiment,NA,NA,1,0.7,0.3,2,3,157,4,NA
fcp-trial,192,757156,0.0-167.0-0.0,voc_e2,12024,"[{""event"":""fullscreenenter"",""trial"":1,""time"":4712}]",NA,NA,NA,NA,NA,0,#D8271C,#741CD8,10,10,1,38,1,724,37,1,573,10,1,experiment,NA,NA,2,0.5,0.5,4,5,158,4,NA
fcp-trial,193,759809,0.0-168.0-0.0,voc_e2,12024,"[{""event"":""fullscreenenter"",""trial"":1,""time"":4712}]",NA,NA,NA,NA,NA,3,#741CD8,#D8271C,10,10,0,38,1,767,39,0,376,10,1,experiment,NA,NA,2,0.5,0.5,5,4,159,4,NA
fcp-trial,194,762810,0.0-169.0-0.0,voc_e2,12024,"[{""event"":""fullscreenenter"",""trial"":1,""time"":4712}]",NA,NA,NA,NA,NA,5,#3386FF,#D89F1C,10,0,1,40,0,1068,37,1,421,10,1,experiment,NA,NA,0,0.9,0.1,0,1,160,4,NA
fcp-trial,195,766140,0.0-170.0-0.0,voc_e2,12024,"[{""event"":""fullscreenenter"",""trial"":1,""time"":4712}]",NA,NA,NA,NA,NA,2,#FA92F8,#1CD855,10,10,1,38,1,833,37,1,978,10,1,experiment,NA,NA,1,0.7,0.3,2,3,161,4,NA
fcp-trial,196,768976,0.0-171.0-0.0,voc_e2,12024,"[{""event"":""fullscreenenter"",""trial"":1,""time"":4712}]",NA,NA,NA,NA,NA,1,#D8271C,#741CD8,10,0,1,38,1,921,37,1,406.0000000001164,10,1,experiment,NA,NA,2,0.5,0.5,4,5,162,4,NA
fcp-trial,197,771977,0.0-172.0-0.0,voc_e2,12024,"[{""event"":""fullscreenenter"",""trial"":1,""time"":4712}]",NA,NA,NA,NA,NA,6,#D8271C,#741CD8,10,0,1,40,0,969.9999999998836,37,1,505,10,1,experiment,NA,NA,2,0.5,0.5,4,5,163,4,NA
fcp-trial,198,775194,0.0-173.0-0.0,voc_e2,12024,"[{""event"":""fullscreenenter"",""trial"":1,""time"":4712}]",NA,NA,NA,NA,NA,1,#D89F1C,#3386FF,10,10,0,38,1,1295,39,0,412,10,1,experiment,NA,NA,0,0.1,0.9,1,0,164,4,NA
fcp-trial,199,778089,0.0-174.0-0.0,voc_e2,12024,"[{""event"":""fullscreenenter"",""trial"":1,""time"":4712}]",NA,NA,NA,NA,NA,1,#1CD855,#FA92F8,0,10,0,38,1,985,37,1,388,0,0,experiment,NA,NA,1,0.3,0.7,3,2,165,4,NA
fcp-trial,200,780906,0.0-175.0-0.0,voc_e2,12024,"[{""event"":""fullscreenenter"",""trial"":1,""time"":4712}]",NA,NA,NA,NA,NA,4,#FA92F8,#1CD855,10,0,1,40,0,939,37,1,355,10,1,experiment,NA,NA,1,0.7,0.3,2,3,166,4,NA
fcp-trial,201,783640,0.0-176.0-0.0,voc_e2,12024,"[{""event"":""fullscreenenter"",""trial"":1,""time"":4712}]",NA,NA,NA,NA,NA,5,#D8271C,#741CD8,0,0,1,40,0,766,37,1,448.9999999998836,0,1,experiment,NA,NA,2,0.5,0.5,4,5,167,4,NA
fcp-trial,202,786859,0.0-177.0-0.0,voc_e2,12024,"[{""event"":""fullscreenenter"",""trial"":1,""time"":4712}]",NA,NA,NA,NA,NA,3,#1CD855,#FA92F8,0,10,0,38,1,1028,37,1,683,0,0,experiment,NA,NA,1,0.3,0.7,3,2,168,4,NA
fcp-trial,203,789772,0.0-178.0-0.0,voc_e2,12024,"[{""event"":""fullscreenenter"",""trial"":1,""time"":4712}]",NA,NA,NA,NA,NA,5,#741CD8,#D8271C,10,10,0,40,0,991,39,0,415,10,1,experiment,NA,NA,2,0.5,0.5,5,4,169,4,NA
fcp-trial,204,793191,0.0-179.0-0.0,voc_e2,12024,"[{""event"":""fullscreenenter"",""trial"":1,""time"":4712}]",NA,NA,NA,NA,NA,0,#D8271C,#741CD8,10,0,1,38,1,1381,37,1,517.0000000001164,10,1,experiment,NA,NA,2,0.5,0.5,4,5,170,4,NA
fcp-trial,205,795986,0.0-180.0-0.0,voc_e2,12024,"[{""event"":""fullscreenenter"",""trial"":1,""time"":4712}]",NA,NA,NA,NA,NA,2,#1CD855,#FA92F8,0,0,0,38,1,723.0000000001164,37,1,561,0,0,experiment,NA,NA,1,0.3,0.7,3,2,171,4,NA
fcp-trial,206,798891,0.0-181.0-0.0,voc_e2,12024,"[{""event"":""fullscreenenter"",""trial"":1,""time"":4712}]",NA,NA,NA,NA,NA,5,#1CD855,#FA92F8,10,10,0,40,0,983,39,0,407,10,1,experiment,NA,NA,1,0.3,0.7,3,2,172,4,NA
fcp-trial,207,801607,0.0-182.0-0.0,voc_e2,12024,"[{""event"":""fullscreenenter"",""trial"":1,""time"":4712}]",NA,NA,NA,NA,NA,5,#D89F1C,#3386FF,0,10,0,40,0,807,39,0,395,10,1,experiment,NA,NA,0,0.1,0.9,1,0,173,4,NA
fcp-trial,208,804504,0.0-183.0-0.0,voc_e2,12024,"[{""event"":""fullscreenenter"",""trial"":1,""time"":4712}]",NA,NA,NA,NA,NA,1,#1CD855,#FA92F8,0,0,0,38,1,1060.0000000001164,37,1,323,0,0,experiment,NA,NA,1,0.3,0.7,3,2,174,4,NA
fcp-trial,209,808172,0.0-184.0-0.0,voc_e2,12024,"[{""event"":""fullscreenenter"",""trial"":1,""time"":4712}]",NA,NA,NA,NA,NA,1,#741CD8,#D8271C,0,10,0,38,1,1082,39,0,1073,10,1,experiment,NA,NA,2,0.5,0.5,5,4,175,4,NA
fcp-trial,210,810775,0.0-185.0-0.0,voc_e2,12024,"[{""event"":""fullscreenenter"",""trial"":1,""time"":4712}]",NA,NA,NA,NA,NA,4,#D8271C,#741CD8,0,10,1,38,1,649,37,1,442,0,1,experiment,NA,NA,2,0.5,0.5,4,5,176,4,NA
fcp-trial,211,813590,0.0-186.0-0.0,voc_e2,12024,"[{""event"":""fullscreenenter"",""trial"":1,""time"":4712}]",NA,NA,NA,NA,NA,0,#1CD855,#FA92F8,10,10,0,38,1,845,37,1,460,10,0,experiment,NA,NA,1,0.3,0.7,3,2,177,4,NA
fcp-trial,212,816645,0.0-187.0-0.0,voc_e2,12024,"[{""event"":""fullscreenenter"",""trial"":1,""time"":4712}]",NA,NA,NA,NA,NA,2,#3386FF,#D89F1C,10,10,1,38,1,1072,37,1,469.0000000001164,10,1,experiment,NA,NA,0,0.9,0.1,0,1,178,4,NA
fcp-trial,213,819724,0.0-188.0-0.0,voc_e2,12024,"[{""event"":""fullscreenenter"",""trial"":1,""time"":4712}]",NA,NA,NA,NA,NA,4,#D89F1C,#3386FF,10,10,0,40,0,1099,39,0,455,10,1,experiment,NA,NA,0,0.1,0.9,1,0,179,4,NA
fcp-trial,214,822849,0.0-189.0-0.0,voc_e2,12024,"[{""event"":""fullscreenenter"",""trial"":1,""time"":4712}]",NA,NA,NA,NA,NA,3,#1CD855,#FA92F8,0,0,0,38,1,1259,37,1,345.0000000001164,0,0,experiment,NA,NA,1,0.3,0.7,3,2,180,4,NA
fcp-trial,215,825633,0.0-190.0-0.0,voc_e2,12024,"[{""event"":""fullscreenenter"",""trial"":1,""time"":4712}]",NA,NA,NA,NA,NA,6,#741CD8,#D8271C,10,0,0,40,0,829.0000000001164,39,0,444,0,1,experiment,NA,NA,2,0.5,0.5,5,4,181,5,NA
fcp-trial,216,828330,0.0-191.0-0.0,voc_e2,12024,"[{""event"":""fullscreenenter"",""trial"":1,""time"":4712}]",NA,NA,NA,NA,NA,2,#D8271C,#741CD8,10,0,1,38,1,874,37,1,313,10,1,experiment,NA,NA,2,0.5,0.5,4,5,182,5,NA
fcp-trial,217,831226,0.0-192.0-0.0,voc_e2,12024,"[{""event"":""fullscreenenter"",""trial"":1,""time"":4712}]",NA,NA,NA,NA,NA,1,#D89F1C,#3386FF,0,10,0,38,1,1076.9999999998836,39,0,310,10,1,experiment,NA,NA,0,0.1,0.9,1,0,183,5,NA
fcp-trial,218,834271,0.0-193.0-0.0,voc_e2,12024,"[{""event"":""fullscreenenter"",""trial"":1,""time"":4712}]",NA,NA,NA,NA,NA,4,#FA92F8,#1CD855,0,0,1,40,0,1035,37,1,498,0,1,experiment,NA,NA,1,0.7,0.3,2,3,184,5,NA
fcp-trial,219,837037,0.0-194.0-0.0,voc_e2,12024,"[{""event"":""fullscreenenter"",""trial"":1,""time"":4712}]",NA,NA,NA,NA,NA,0,#3386FF,#D89F1C,10,0,1,38,1,770,37,1,484.9999999998836,10,1,experiment,NA,NA,0,0.9,0.1,0,1,185,5,NA
fcp-trial,220,840254,0.0-195.0-0.0,voc_e2,12024,"[{""event"":""fullscreenenter"",""trial"":1,""time"":4712}]",NA,NA,NA,NA,NA,3,#741CD8,#D8271C,10,0,0,38,1,1200.9999999998836,39,0,491.9999999998836,0,1,experiment,NA,NA,2,0.5,0.5,5,4,186,5,NA
fcp-trial,221,843180,0.0-196.0-0.0,voc_e2,12024,"[{""event"":""fullscreenenter"",""trial"":1,""time"":4712}]",NA,NA,NA,NA,NA,6,#3386FF,#D89F1C,10,0,1,40,0,999,37,1,419.0000000001164,10,1,experiment,NA,NA,0,0.9,0.1,0,1,187,5,NA
fcp-trial,222,845759,0.0-197.0-0.0,voc_e2,12024,"[{""event"":""fullscreenenter"",""trial"":1,""time"":4712}]",NA,NA,NA,NA,NA,3,#3386FF,#D89F1C,10,0,1,40,0,621,37,1,449,10,1,experiment,NA,NA,0,0.9,0.1,0,1,188,5,NA
fcp-trial,223,848846,0.0-198.0-0.0,voc_e2,12024,"[{""event"":""fullscreenenter"",""trial"":1,""time"":4712}]",NA,NA,NA,NA,NA,6,#FA92F8,#1CD855,0,10,1,40,0,1063.0000000001164,37,1,515.9999999998836,0,1,experiment,NA,NA,1,0.7,0.3,2,3,189,5,NA
fcp-trial,224,851866,0.0-199.0-0.0,voc_e2,12024,"[{""event"":""fullscreenenter"",""trial"":1,""time"":4712}]",NA,NA,NA,NA,NA,0,#D8271C,#741CD8,0,0,1,38,1,1126.9999999998836,39,0,375,0,0,experiment,NA,NA,2,0.5,0.5,4,5,190,5,NA
fcp-trial,225,854236,0.0-200.0-0.0,voc_e2,12024,"[{""event"":""fullscreenenter"",""trial"":1,""time"":4712}]",NA,NA,NA,NA,NA,3,#D8271C,#741CD8,10,0,1,38,1,541,39,0,318,0,0,experiment,NA,NA,2,0.5,0.5,4,5,191,5,NA
fcp-trial,226,857266,0.0-201.0-0.0,voc_e2,12024,"[{""event"":""fullscreenenter"",""trial"":1,""time"":4712}]",NA,NA,NA,NA,NA,4,#3386FF,#D89F1C,10,0,1,40,0,1067,37,1,439.9999999998836,10,1,experiment,NA,NA,0,0.9,0.1,0,1,192,5,NA
fcp-trial,227,860258,0.0-202.0-0.0,voc_e2,12024,"[{""event"":""fullscreenenter"",""trial"":1,""time"":4712}]",NA,NA,NA,NA,NA,6,#1CD855,#FA92F8,10,10,0,40,0,1006,39,0,476,10,1,experiment,NA,NA,1,0.3,0.7,3,2,193,5,NA
fcp-trial,228,863151,0.0-203.0-0.0,voc_e2,12024,"[{""event"":""fullscreenenter"",""trial"":1,""time"":4712}]",NA,NA,NA,NA,NA,0,#3386FF,#D89F1C,10,0,1,38,1,1049,37,1,336,10,1,experiment,NA,NA,0,0.9,0.1,0,1,194,5,NA
fcp-trial,229,866095,0.0-204.0-0.0,voc_e2,12024,"[{""event"":""fullscreenenter"",""trial"":1,""time"":4712}]",NA,NA,NA,NA,NA,6,#741CD8,#D8271C,0,10,0,40,0,952.9999999998836,37,1,482,0,0,experiment,NA,NA,2,0.5,0.5,5,4,195,5,NA
fcp-trial,230,869768,0.0-205.0-0.0,voc_e2,12024,"[{""event"":""fullscreenenter"",""trial"":1,""time"":4712}]",NA,NA,NA,NA,NA,1,#D8271C,#741CD8,0,0,1,40,0,1460,37,1,690,0,1,experiment,NA,NA,2,0.5,0.5,4,5,196,5,NA
fcp-trial,231,873087,0.0-206.0-0.0,voc_e2,12024,"[{""event"":""fullscreenenter"",""trial"":1,""time"":4712}]",NA,NA,NA,NA,NA,0,#FA92F8,#1CD855,0,0,1,38,1,1222,39,0,589,0,0,experiment,NA,NA,1,0.7,0.3,2,3,197,5,NA
fcp-trial,232,875508,0.0-207.0-0.0,voc_e2,12024,"[{""event"":""fullscreenenter"",""trial"":1,""time"":4712}]",NA,NA,NA,NA,NA,1,#FA92F8,#1CD855,10,0,1,38,1,550,39,0,362.0000000001164,0,0,experiment,NA,NA,1,0.7,0.3,2,3,198,5,NA
fcp-trial,233,878408,0.0-208.0-0.0,voc_e2,12024,"[{""event"":""fullscreenenter"",""trial"":1,""time"":4712}]",NA,NA,NA,NA,NA,6,#3386FF,#D89F1C,10,0,1,40,0,940,37,1,451,10,1,experiment,NA,NA,0,0.9,0.1,0,1,199,5,NA
fcp-trial,234,881205,0.0-209.0-0.0,voc_e2,12024,"[{""event"":""fullscreenenter"",""trial"":1,""time"":4712}]",NA,NA,NA,NA,NA,4,#741CD8,#D8271C,0,10,0,40,0,842.0000000001164,39,0,445,10,1,experiment,NA,NA,2,0.5,0.5,5,4,200,5,NA
fcp-trial,235,884305,0.0-210.0-0.0,voc_e2,12024,"[{""event"":""fullscreenenter"",""trial"":1,""time"":4712}]",NA,NA,NA,NA,NA,2,#D89F1C,#3386FF,0,10,0,40,0,1141,39,0,449.9999999998836,10,1,experiment,NA,NA,0,0.1,0.9,1,0,201,5,NA
fcp-trial,236,887194,0.0-211.0-0.0,voc_e2,12024,"[{""event"":""fullscreenenter"",""trial"":1,""time"":4712}]",NA,NA,NA,NA,NA,4,#FA92F8,#1CD855,10,0,1,40,0,975.0000000001164,37,1,404,10,1,experiment,NA,NA,1,0.7,0.3,2,3,202,5,NA
fcp-trial,237,890158,0.0-212.0-0.0,voc_e2,12024,"[{""event"":""fullscreenenter"",""trial"":1,""time"":4712}]",NA,NA,NA,NA,NA,1,#3386FF,#D89F1C,10,0,1,38,1,1025,37,1,418,10,1,experiment,NA,NA,0,0.9,0.1,0,1,203,5,NA
fcp-trial,238,893268,0.0-213.0-0.0,voc_e2,12024,"[{""event"":""fullscreenenter"",""trial"":1,""time"":4712}]",NA,NA,NA,NA,NA,5,#D89F1C,#3386FF,10,10,0,40,0,1127,37,1,473,10,0,experiment,NA,NA,0,0.1,0.9,1,0,204,5,NA
fcp-trial,239,896570,0.0-214.0-0.0,voc_e2,12024,"[{""event"":""fullscreenenter"",""trial"":1,""time"":4712}]",NA,NA,NA,NA,NA,2,#741CD8,#D8271C,10,0,0,38,1,1402,39,0,391,0,1,experiment,NA,NA,2,0.5,0.5,5,4,205,5,NA
fcp-trial,240,899381,0.0-215.0-0.0,voc_e2,12024,"[{""event"":""fullscreenenter"",""trial"":1,""time"":4712}]",NA,NA,NA,NA,NA,5,#741CD8,#D8271C,10,0,0,40,0,890,39,0,413,0,1,experiment,NA,NA,2,0.5,0.5,5,4,206,5,NA
fcp-trial,241,902311,0.0-216.0-0.0,voc_e2,12024,"[{""event"":""fullscreenenter"",""trial"":1,""time"":4712}]",NA,NA,NA,NA,NA,2,#1CD855,#FA92F8,0,10,0,40,0,1018.0000000001164,39,0,401.9999999998836,10,1,experiment,NA,NA,1,0.3,0.7,3,2,207,5,NA
fcp-trial,242,905150,0.0-217.0-0.0,voc_e2,12024,"[{""event"":""fullscreenenter"",""trial"":1,""time"":4712}]",NA,NA,NA,NA,NA,3,#1CD855,#FA92F8,10,10,0,40,0,865,37,1,462,10,0,experiment,NA,NA,1,0.3,0.7,3,2,208,5,NA
fcp-trial,243,908096,0.0-218.0-0.0,voc_e2,12024,"[{""event"":""fullscreenenter"",""trial"":1,""time"":4712}]",NA,NA,NA,NA,NA,3,#3386FF,#D89F1C,10,0,1,40,0,937.0000000001164,39,0,490,0,0,experiment,NA,NA,0,0.9,0.1,0,1,209,5,NA
fcp-trial,244,911096,0.0-219.0-0.0,voc_e2,12024,"[{""event"":""fullscreenenter"",""trial"":1,""time"":4712}]",NA,NA,NA,NA,NA,5,#1CD855,#FA92F8,0,10,0,40,0,1073.0000000001164,39,0,419,10,1,experiment,NA,NA,1,0.3,0.7,3,2,210,5,NA
audio-instructions,245,916099,0.0-220.0,voc_e2,12024,"[{""event"":""fullscreenenter"",""trial"":1,""time"":4712}]",NA,562.9999999998836,static/audio/pause.wav,NA,0,NA,NA,NA,NA,NA,NA,NA,NA,NA,NA,NA,NA,NA,NA,NA,NA,NA,NA,NA,NA,NA,NA,NA,NA,NA
fcp-trial,246,919677,0.0-221.0-0.0,voc_e2,12024,"[{""event"":""fullscreenenter"",""trial"":1,""time"":4712}]",NA,NA,NA,NA,NA,2,#1CD855,#FA92F8,0,10,0,38,1,1367,37,1,694,0,0,experiment,NA,NA,1,0.3,0.7,3,2,211,5,NA
fcp-trial,247,922319,0.0-222.0-0.0,voc_e2,12024,"[{""event"":""fullscreenenter"",""trial"":1,""time"":4712}]",NA,NA,NA,NA,NA,3,#D8271C,#741CD8,0,0,1,40,0,707,37,1,426,0,1,experiment,NA,NA,2,0.5,0.5,4,5,212,5,NA
fcp-trial,248,925064,0.0-223.0-0.0,voc_e2,12024,"[{""event"":""fullscreenenter"",""trial"":1,""time"":4712}]",NA,NA,NA,NA,NA,0,#D89F1C,#3386FF,0,10,0,38,1,867,39,0,368,10,1,experiment,NA,NA,0,0.1,0.9,1,0,213,5,NA
fcp-trial,249,928075,0.0-224.0-0.0,voc_e2,12024,"[{""event"":""fullscreenenter"",""trial"":1,""time"":4712}]",NA,NA,NA,NA,NA,0,#D8271C,#741CD8,0,10,1,38,1,1006,37,1,493.9999999998836,0,1,experiment,NA,NA,2,0.5,0.5,4,5,214,5,NA
fcp-trial,250,930714,0.0-225.0-0.0,voc_e2,12024,"[{""event"":""fullscreenenter"",""trial"":1,""time"":4712}]",NA,NA,NA,NA,NA,0,#FA92F8,#1CD855,0,10,1,38,1,690,39,0,440,10,0,experiment,NA,NA,1,0.7,0.3,2,3,215,5,NA
fcp-trial,251,933782,0.0-226.0-0.0,voc_e2,12024,"[{""event"":""fullscreenenter"",""trial"":1,""time"":4712}]",NA,NA,NA,NA,NA,2,#741CD8,#D8271C,10,10,0,38,1,822,39,0,737.0000000001164,10,1,experiment,NA,NA,2,0.5,0.5,5,4,216,5,NA
fcp-trial,252,936547,0.0-227.0-0.0,voc_e2,12024,"[{""event"":""fullscreenenter"",""trial"":1,""time"":4712}]",NA,NA,NA,NA,NA,2,#D89F1C,#3386FF,0,10,0,38,1,876,39,0,380,10,1,experiment,NA,NA,0,0.1,0.9,1,0,217,5,NA
fcp-trial,253,939387,0.0-228.0-0.0,voc_e2,12024,"[{""event"":""fullscreenenter"",""trial"":1,""time"":4712}]",NA,NA,NA,NA,NA,4,#D89F1C,#3386FF,0,10,0,40,0,938,39,0,381,10,1,experiment,NA,NA,0,0.1,0.9,1,0,218,5,NA
fcp-trial,254,942315,0.0-229.0-0.0,voc_e2,12024,"[{""event"":""fullscreenenter"",""trial"":1,""time"":4712}]",NA,NA,NA,NA,NA,6,#741CD8,#D8271C,0,0,0,40,0,982,39,0,438,0,1,experiment,NA,NA,2,0.5,0.5,5,4,219,5,NA
fcp-trial,255,945067,0.0-230.0-0.0,voc_e2,12024,"[{""event"":""fullscreenenter"",""trial"":1,""time"":4712}]",NA,NA,NA,NA,NA,3,#1CD855,#FA92F8,0,10,0,40,0,807,39,0,435.0000000001164,10,1,experiment,NA,NA,1,0.3,0.7,3,2,220,5,NA
fcp-trial,256,947824,0.0-231.0-0.0,voc_e2,12024,"[{""event"":""fullscreenenter"",""trial"":1,""time"":4712}]",NA,NA,NA,NA,NA,4,#1CD855,#FA92F8,0,0,0,40,0,810,37,1,439,0,0,experiment,NA,NA,1,0.3,0.7,3,2,221,5,NA
fcp-trial,257,950784,0.0-232.0-0.0,voc_e2,12024,"[{""event"":""fullscreenenter"",""trial"":1,""time"":4712}]",NA,NA,NA,NA,NA,5,#D89F1C,#3386FF,0,10,0,40,0,974.0000000001164,37,1,477,0,0,experiment,NA,NA,0,0.1,0.9,1,0,222,5,NA
fcp-trial,258,953789,0.0-233.0-0.0,voc_e2,12024,"[{""event"":""fullscreenenter"",""trial"":1,""time"":4712}]",NA,NA,NA,NA,NA,1,#D89F1C,#3386FF,0,10,0,40,0,1067.0000000001164,39,0,429.9999999998836,10,1,experiment,NA,NA,0,0.1,0.9,1,0,223,5,NA
fcp-trial,259,956643,0.0-234.0-0.0,voc_e2,12024,"[{""event"":""fullscreenenter"",""trial"":1,""time"":4712}]",NA,NA,NA,NA,NA,5,#D8271C,#741CD8,0,0,1,40,0,877.0000000001164,39,0,465,0,0,experiment,NA,NA,2,0.5,0.5,4,5,224,5,NA
fcp-trial,260,959675,0.0-235.0-0.0,voc_e2,12024,"[{""event"":""fullscreenenter"",""trial"":1,""time"":4712}]",NA,NA,NA,NA,NA,1,#FA92F8,#1CD855,10,10,1,38,1,1000,39,0,522.9999999998836,10,0,experiment,NA,NA,1,0.7,0.3,2,3,225,5,NA
fcp-trial,261,962573,0.0-236.0-0.0,voc_e2,12024,"[{""event"":""fullscreenenter"",""trial"":1,""time"":4712}]",NA,NA,NA,NA,NA,1,#D8271C,#741CD8,10,0,1,38,1,995,39,0,394,0,0,experiment,NA,NA,2,0.5,0.5,4,5,226,6,NA
fcp-trial,262,965336,0.0-237.0-0.0,voc_e2,12024,"[{""event"":""fullscreenenter"",""trial"":1,""time"":4712}]",NA,NA,NA,NA,NA,3,#3386FF,#D89F1C,10,0,1,40,0,858,37,1,394,10,1,experiment,NA,NA,0,0.9,0.1,0,1,227,6,NA
fcp-trial,263,968118,0.0-238.0-0.0,voc_e2,12024,"[{""event"":""fullscreenenter"",""trial"":1,""time"":4712}]",NA,NA,NA,NA,NA,4,#D8271C,#741CD8,10,0,1,40,0,803.0000000001164,39,0,471,0,0,experiment,NA,NA,2,0.5,0.5,4,5,228,6,NA
fcp-trial,264,970981,0.0-239.0-0.0,voc_e2,12024,"[{""event"":""fullscreenenter"",""trial"":1,""time"":4712}]",NA,NA,NA,NA,NA,5,#FA92F8,#1CD855,10,0,1,40,0,883,39,0,470,0,0,experiment,NA,NA,1,0.7,0.3,2,3,229,6,NA
fcp-trial,265,973755,0.0-240.0-0.0,voc_e2,12024,"[{""event"":""fullscreenenter"",""trial"":1,""time"":4712}]",NA,NA,NA,NA,NA,6,#3386FF,#D89F1C,10,0,1,40,0,840,37,1,411,10,1,experiment,NA,NA,0,0.9,0.1,0,1,230,6,NA
fcp-trial,266,976541,0.0-241.0-0.0,voc_e2,12024,"[{""event"":""fullscreenenter"",""trial"":1,""time"":4712}]",NA,NA,NA,NA,NA,6,#FA92F8,#1CD855,10,0,1,40,0,765,39,0,509.9999999998836,0,0,experiment,NA,NA,1,0.7,0.3,2,3,231,6,NA
fcp-trial,267,979130,0.0-242.0-0.0,voc_e2,12024,"[{""event"":""fullscreenenter"",""trial"":1,""time"":4712}]",NA,NA,NA,NA,NA,5,#FA92F8,#1CD855,0,0,1,40,0,676,37,1,404,0,1,experiment,NA,NA,1,0.7,0.3,2,3,232,6,NA
fcp-trial,268,981795,0.0-243.0-0.0,voc_e2,12024,"[{""event"":""fullscreenenter"",""trial"":1,""time"":4712}]",NA,NA,NA,NA,NA,1,#741CD8,#D8271C,0,0,0,40,0,699,39,0,456,0,1,experiment,NA,NA,2,0.5,0.5,5,4,233,6,NA
fcp-trial,269,984408,0.0-244.0-0.0,voc_e2,12024,"[{""event"":""fullscreenenter"",""trial"":1,""time"":4712}]",NA,NA,NA,NA,NA,6,#1CD855,#FA92F8,0,10,0,40,0,737,39,0,366,10,1,experiment,NA,NA,1,0.3,0.7,3,2,234,6,NA
fcp-trial,270,987432,0.0-245.0-0.0,voc_e2,12024,"[{""event"":""fullscreenenter"",""trial"":1,""time"":4712}]",NA,NA,NA,NA,NA,2,#D89F1C,#3386FF,0,10,0,40,0,991.0000000001164,37,1,525,0,0,experiment,NA,NA,0,0.1,0.9,1,0,235,6,NA
fcp-trial,271,990439,0.0-246.0-0.0,voc_e2,12024,"[{""event"":""fullscreenenter"",""trial"":1,""time"":4712}]",NA,NA,NA,NA,NA,1,#3386FF,#D89F1C,10,0,1,40,0,950.9999999998836,37,1,546,10,1,experiment,NA,NA,0,0.9,0.1,0,1,236,6,NA
fcp-trial,272,994270,0.0-247.0-0.0,voc_e2,12024,"[{""event"":""fullscreenenter"",""trial"":1,""time"":4712}]",NA,NA,NA,NA,NA,3,#D8271C,#741CD8,0,10,1,40,0,1818,39,0,504,10,0,experiment,NA,NA,2,0.5,0.5,4,5,237,6,NA
fcp-trial,273,997089,0.0-248.0-0.0,voc_e2,12024,"[{""event"":""fullscreenenter"",""trial"":1,""time"":4712}]",NA,NA,NA,NA,NA,2,#FA92F8,#1CD855,10,10,1,40,0,818,39,0,491,10,0,experiment,NA,NA,1,0.7,0.3,2,3,238,6,NA
fcp-trial,274,1000100,0.0-249.0-0.0,voc_e2,12024,"[{""event"":""fullscreenenter"",""trial"":1,""time"":4712}]",NA,NA,NA,NA,NA,5,#3386FF,#D89F1C,10,0,1,40,0,974,39,0,528,0,0,experiment,NA,NA,0,0.9,0.1,0,1,239,6,NA
fcp-trial,275,1003302,0.0-250.0-0.0,voc_e2,12024,"[{""event"":""fullscreenenter"",""trial"":1,""time"":4712}]",NA,NA,NA,NA,NA,0,#D89F1C,#3386FF,0,10,0,40,0,825.9999999998836,39,0,853,10,1,experiment,NA,NA,0,0.1,0.9,1,0,240,6,NA
fcp-trial,276,1006294,0.0-251.0-0.0,voc_e2,12024,"[{""event"":""fullscreenenter"",""trial"":1,""time"":4712}]",NA,NA,NA,NA,NA,4,#3386FF,#D89F1C,10,0,1,40,0,1006.9999999998836,37,1,476,10,1,experiment,NA,NA,0,0.9,0.1,0,1,241,6,NA
fcp-trial,277,1010074,0.0-252.0-0.0,voc_e2,12024,"[{""event"":""fullscreenenter"",""trial"":1,""time"":4712}]",NA,NA,NA,NA,NA,2,#D8271C,#741CD8,10,0,1,38,1,1663,39,0,591,0,0,experiment,NA,NA,2,0.5,0.5,4,5,242,6,NA
fcp-trial,278,1012851,0.0-253.0-0.0,voc_e2,12024,"[{""event"":""fullscreenenter"",""trial"":1,""time"":4712}]",NA,NA,NA,NA,NA,4,#1CD855,#FA92F8,10,10,0,40,0,848.0000000001164,37,1,419,10,0,experiment,NA,NA,1,0.3,0.7,3,2,243,6,NA
fcp-trial,279,1016375,0.0-254.0-0.0,voc_e2,12024,"[{""event"":""fullscreenenter"",""trial"":1,""time"":4712}]",NA,NA,NA,NA,NA,6,#D8271C,#741CD8,0,0,1,40,0,966,39,0,1049,0,0,experiment,NA,NA,2,0.5,0.5,4,5,244,6,NA
fcp-trial,280,1019303,0.0-255.0-0.0,voc_e2,12024,"[{""event"":""fullscreenenter"",""trial"":1,""time"":4712}]",NA,NA,NA,NA,NA,5,#D8271C,#741CD8,0,10,1,40,0,877.0000000002328,39,0,542.9999999998836,10,0,experiment,NA,NA,2,0.5,0.5,4,5,245,6,NA
fcp-trial,281,1022054,0.0-256.0-0.0,voc_e2,12024,"[{""event"":""fullscreenenter"",""trial"":1,""time"":4712}]",NA,NA,NA,NA,NA,6,#D89F1C,#3386FF,0,10,0,40,0,815.0000000001164,39,0,425.9999999998836,10,1,experiment,NA,NA,0,0.1,0.9,1,0,246,6,NA
fcp-trial,282,1024839,0.0-257.0-0.0,voc_e2,12024,"[{""event"":""fullscreenenter"",""trial"":1,""time"":4712}]",NA,NA,NA,NA,NA,3,#1CD855,#FA92F8,0,10,0,40,0,807,39,0,468,10,1,experiment,NA,NA,1,0.3,0.7,3,2,247,6,NA
fcp-trial,283,1027699,0.0-258.0-0.0,voc_e2,12024,"[{""event"":""fullscreenenter"",""trial"":1,""time"":4712}]",NA,NA,NA,NA,NA,0,#FA92F8,#1CD855,0,0,1,38,1,919.9999999997672,37,1,429.9999999998836,0,1,experiment,NA,NA,1,0.7,0.3,2,3,248,6,NA
fcp-trial,284,1030584,0.0-259.0-0.0,voc_e2,12024,"[{""event"":""fullscreenenter"",""trial"":1,""time"":4712}]",NA,NA,NA,NA,NA,0,#741CD8,#D8271C,10,0,0,38,1,966.0000000001164,39,0,409.9999999998836,0,1,experiment,NA,NA,2,0.5,0.5,5,4,249,6,NA
fcp-trial,285,1033426,0.0-260.0-0.0,voc_e2,12024,"[{""event"":""fullscreenenter"",""trial"":1,""time"":4712}]",NA,NA,NA,NA,NA,3,#D89F1C,#3386FF,0,10,0,40,0,912,39,0,420,10,1,experiment,NA,NA,0,0.1,0.9,1,0,250,6,NA
fcp-trial,286,1036450,0.0-261.0-0.0,voc_e2,12024,"[{""event"":""fullscreenenter"",""trial"":1,""time"":4712}]",NA,NA,NA,NA,NA,4,#D8271C,#741CD8,0,0,1,40,0,913,39,0,587.9999999998836,0,0,experiment,NA,NA,2,0.5,0.5,4,5,251,6,NA
fcp-trial,287,1039549,0.0-262.0-0.0,voc_e2,12024,"[{""event"":""fullscreenenter"",""trial"":1,""time"":4712}]",NA,NA,NA,NA,NA,1,#1CD855,#FA92F8,10,10,0,40,0,1160.0000000001164,39,0,418.0000000001164,10,1,experiment,NA,NA,1,0.3,0.7,3,2,252,6,NA
fcp-trial,288,1042329,0.0-263.0-0.0,voc_e2,12024,"[{""event"":""fullscreenenter"",""trial"":1,""time"":4712}]",NA,NA,NA,NA,NA,0,#D89F1C,#3386FF,10,10,0,38,1,935.9999999998836,39,0,336,10,1,experiment,NA,NA,0,0.1,0.9,1,0,253,6,NA
fcp-trial,289,1045297,0.0-264.0-0.0,voc_e2,12024,"[{""event"":""fullscreenenter"",""trial"":1,""time"":4712}]",NA,NA,NA,NA,NA,6,#FA92F8,#1CD855,10,0,1,40,0,927,39,0,532,0,0,experiment,NA,NA,1,0.7,0.3,2,3,254,6,NA
fcp-trial,290,1048162,0.0-265.0-0.0,voc_e2,12024,"[{""event"":""fullscreenenter"",""trial"":1,""time"":4712}]",NA,NA,NA,NA,NA,5,#741CD8,#D8271C,0,0,0,40,0,907,39,0,449,0,1,experiment,NA,NA,2,0.5,0.5,5,4,255,6,NA
fcp-trial,291,1051218,0.0-266.0-0.0,voc_e2,12024,"[{""event"":""fullscreenenter"",""trial"":1,""time"":4712}]",NA,NA,NA,NA,NA,0,#1CD855,#FA92F8,0,0,0,38,1,1143,39,0,404,0,1,experiment,NA,NA,1,0.3,0.7,3,2,256,6,NA
fcp-trial,292,1054078,0.0-267.0-0.0,voc_e2,12024,"[{""event"":""fullscreenenter"",""trial"":1,""time"":4712}]",NA,NA,NA,NA,NA,5,#D89F1C,#3386FF,0,10,0,40,0,879,39,0,469,10,1,experiment,NA,NA,0,0.1,0.9,1,0,257,6,NA
fcp-trial,293,1056958,0.0-268.0-0.0,voc_e2,12024,"[{""event"":""fullscreenenter"",""trial"":1,""time"":4712}]",NA,NA,NA,NA,NA,2,#1CD855,#FA92F8,0,0,0,40,0,877,39,0,483,0,1,experiment,NA,NA,1,0.3,0.7,3,2,258,6,NA
fcp-trial,294,1060021,0.0-269.0-0.0,voc_e2,12024,"[{""event"":""fullscreenenter"",""trial"":1,""time"":4712}]",NA,NA,NA,NA,NA,1,#D8271C,#741CD8,0,10,1,38,1,930,37,1,611,0,1,experiment,NA,NA,2,0.5,0.5,4,5,259,6,NA
fcp-trial,295,1062905,0.0-270.0-0.0,voc_e2,12024,"[{""event"":""fullscreenenter"",""trial"":1,""time"":4712}]",NA,NA,NA,NA,NA,6,#3386FF,#D89F1C,10,0,1,40,0,906,37,1,469,10,1,experiment,NA,NA,0,0.9,0.1,0,1,260,6,NA
fcp-trial,296,1065682,0.0-271.0-0.0,voc_e2,12024,"[{""event"":""fullscreenenter"",""trial"":1,""time"":4712}]",NA,NA,NA,NA,NA,3,#D8271C,#741CD8,10,0,1,40,0,797.0000000002328,37,1,471,10,1,experiment,NA,NA,2,0.5,0.5,4,5,261,6,NA
fcp-trial,297,1068505,0.0-272.0-0.0,voc_e2,12024,"[{""event"":""fullscreenenter"",""trial"":1,""time"":4712}]",NA,NA,NA,NA,NA,2,#3386FF,#D89F1C,10,0,1,40,0,841,39,0,472,0,0,experiment,NA,NA,0,0.9,0.1,0,1,262,6,NA
fcp-trial,298,1071325,0.0-273.0-0.0,voc_e2,12024,"[{""event"":""fullscreenenter"",""trial"":1,""time"":4712}]",NA,NA,NA,NA,NA,4,#1CD855,#FA92F8,0,10,0,40,0,855,39,0,457,10,1,experiment,NA,NA,1,0.3,0.7,3,2,263,6,NA
fcp-trial,299,1074009,0.0-274.0-0.0,voc_e2,12024,"[{""event"":""fullscreenenter"",""trial"":1,""time"":4712}]",NA,NA,NA,NA,NA,1,#FA92F8,#1CD855,10,0,1,40,0,731,37,1,444.0000000002328,10,1,experiment,NA,NA,1,0.7,0.3,2,3,264,6,NA
fcp-trial,300,1076716,0.0-275.0-0.0,voc_e2,12024,"[{""event"":""fullscreenenter"",""trial"":1,""time"":4712}]",NA,NA,NA,NA,NA,0,#741CD8,#D8271C,0,10,0,38,1,792,39,0,404,10,1,experiment,NA,NA,2,0.5,0.5,5,4,265,6,NA
fcp-trial,301,1079400,0.0-276.0-0.0,voc_e2,12024,"[{""event"":""fullscreenenter"",""trial"":1,""time"":4712}]",NA,NA,NA,NA,NA,2,#D8271C,#741CD8,10,10,1,38,1,681,37,1,482,10,1,experiment,NA,NA,2,0.5,0.5,4,5,266,6,NA
fcp-trial,302,1082163,0.0-277.0-0.0,voc_e2,12024,"[{""event"":""fullscreenenter"",""trial"":1,""time"":4712}]",NA,NA,NA,NA,NA,3,#3386FF,#D89F1C,10,10,1,38,1,807,37,1,447,10,1,experiment,NA,NA,0,0.9,0.1,0,1,267,6,NA
fcp-trial,303,1085380,0.0-278.0-0.0,voc_e2,12024,"[{""event"":""fullscreenenter"",""trial"":1,""time"":4712}]",NA,NA,NA,NA,NA,1,#D89F1C,#3386FF,10,10,0,38,1,1254,39,0,455,10,1,experiment,NA,NA,0,0.1,0.9,1,0,268,6,NA
fcp-trial,304,1088721,0.0-279.0-0.0,voc_e2,12024,"[{""event"":""fullscreenenter"",""trial"":1,""time"":4712}]",NA,NA,NA,NA,NA,5,#FA92F8,#1CD855,10,10,1,40,0,1320,39,0,509.0000000002328,10,0,experiment,NA,NA,1,0.7,0.3,2,3,269,6,NA
fcp-trial,305,1091897,0.0-280.0-0.0,voc_e2,12024,"[{""event"":""fullscreenenter"",""trial"":1,""time"":4712}]",NA,NA,NA,NA,NA,4,#3386FF,#D89F1C,10,0,1,40,0,1170,39,0,485.9999999997672,0,0,experiment,NA,NA,0,0.9,0.1,0,1,270,6,NA
fcp-trial,306,1094946,0.0-281.0-0.0,voc_e2,12024,"[{""event"":""fullscreenenter"",""trial"":1,""time"":4712}]",NA,NA,NA,NA,NA,4,#741CD8,#D8271C,10,0,0,40,0,1089,39,0,452,0,1,experiment,NA,NA,2,0.5,0.5,5,4,271,7,NA
fcp-trial,307,1098064,0.0-282.0-0.0,voc_e2,12024,"[{""event"":""fullscreenenter"",""trial"":1,""time"":4712}]",NA,NA,NA,NA,NA,6,#741CD8,#D8271C,10,0,0,40,0,900,37,1,697,10,0,experiment,NA,NA,2,0.5,0.5,5,4,272,7,NA
fcp-trial,308,1101062,0.0-283.0-0.0,voc_e2,12024,"[{""event"":""fullscreenenter"",""trial"":1,""time"":4712}]",NA,NA,NA,NA,NA,3,#FA92F8,#1CD855,10,0,1,40,0,1062,39,0,428,0,0,experiment,NA,NA,1,0.7,0.3,2,3,273,7,NA
fcp-trial,309,1104000,0.0-284.0-0.0,voc_e2,12024,"[{""event"":""fullscreenenter"",""trial"":1,""time"":4712}]",NA,NA,NA,NA,NA,2,#741CD8,#D8271C,0,10,0,38,1,898.0000000002328,39,0,520,10,1,experiment,NA,NA,2,0.5,0.5,5,4,274,7,NA
fcp-trial,310,1107070,0.0-285.0-0.0,voc_e2,12024,"[{""event"":""fullscreenenter"",""trial"":1,""time"":4712}]",NA,NA,NA,NA,NA,2,#FA92F8,#1CD855,10,10,1,38,1,1089,37,1,472,10,1,experiment,NA,NA,1,0.7,0.3,2,3,275,7,NA
fcp-trial,311,1110015,0.0-286.0-0.0,voc_e2,12024,"[{""event"":""fullscreenenter"",""trial"":1,""time"":4712}]",NA,NA,NA,NA,NA,4,#D89F1C,#3386FF,0,10,0,40,0,1031,39,0,406,10,1,experiment,NA,NA,0,0.1,0.9,1,0,276,7,NA
fcp-trial,312,1112912,0.0-287.0-0.0,voc_e2,12024,"[{""event"":""fullscreenenter"",""trial"":1,""time"":4712}]",NA,NA,NA,NA,NA,3,#3386FF,#D89F1C,10,0,1,40,0,782,39,0,594,0,0,experiment,NA,NA,0,0.9,0.1,0,1,277,7,NA
fcp-trial,313,1115852,0.0-288.0-0.0,voc_e2,12024,"[{""event"":""fullscreenenter"",""trial"":1,""time"":4712}]",NA,NA,NA,NA,NA,0,#741CD8,#D8271C,0,10,0,38,1,976,39,0,454,10,1,experiment,NA,NA,2,0.5,0.5,5,4,278,7,NA
fcp-trial,314,1118601,0.0-289.0-0.0,voc_e2,12024,"[{""event"":""fullscreenenter"",""trial"":1,""time"":4712}]",NA,NA,NA,NA,NA,0,#FA92F8,#1CD855,10,0,1,38,1,880,37,1,359,10,1,experiment,NA,NA,1,0.7,0.3,2,3,279,7,NA
fcp-trial,315,1121824,0.0-290.0-0.0,voc_e2,12024,"[{""event"":""fullscreenenter"",""trial"":1,""time"":4712}]",NA,NA,NA,NA,NA,3,#D8271C,#741CD8,0,10,1,40,0,1101,39,0,612,10,0,experiment,NA,NA,2,0.5,0.5,4,5,280,7,NA
fcp-trial,316,1124696,0.0-291.0-0.0,voc_e2,12024,"[{""event"":""fullscreenenter"",""trial"":1,""time"":4712}]",NA,NA,NA,NA,NA,4,#D8271C,#741CD8,0,0,1,40,0,927.9999999997672,39,0,434,0,0,experiment,NA,NA,2,0.5,0.5,4,5,281,7,NA
fcp-trial,317,1127720,0.0-292.0-0.0,voc_e2,12024,"[{""event"":""fullscreenenter"",""trial"":1,""time"":4712}]",NA,NA,NA,NA,NA,2,#D89F1C,#3386FF,0,10,0,40,0,961,37,1,554,0,0,experiment,NA,NA,0,0.1,0.9,1,0,282,7,NA
fcp-trial,318,1130585,0.0-293.0-0.0,voc_e2,12024,"[{""event"":""fullscreenenter"",""trial"":1,""time"":4712}]",NA,NA,NA,NA,NA,5,#3386FF,#D89F1C,10,0,1,40,0,908.9999999997672,37,1,445.0000000002328,10,1,experiment,NA,NA,0,0.9,0.1,0,1,283,7,NA
fcp-trial,319,1133584,0.0-294.0-0.0,voc_e2,12024,"[{""event"":""fullscreenenter"",""trial"":1,""time"":4712}]",NA,NA,NA,NA,NA,3,#FA92F8,#1CD855,0,0,1,40,0,1027,39,0,463.0000000002328,0,0,experiment,NA,NA,1,0.7,0.3,2,3,284,7,NA
fcp-trial,320,1136459,0.0-295.0-0.0,voc_e2,12024,"[{""event"":""fullscreenenter"",""trial"":1,""time"":4712}]",NA,NA,NA,NA,NA,1,#741CD8,#D8271C,0,0,0,38,1,993,39,0,372,0,1,experiment,NA,NA,2,0.5,0.5,5,4,285,7,NA
fcp-trial,321,1139306,0.0-296.0-0.0,voc_e2,12024,"[{""event"":""fullscreenenter"",""trial"":1,""time"":4712}]",NA,NA,NA,NA,NA,1,#FA92F8,#1CD855,10,0,1,38,1,853,37,1,473,10,1,experiment,NA,NA,1,0.7,0.3,2,3,286,7,NA
fcp-trial,322,1142092,0.0-297.0-0.0,voc_e2,12024,"[{""event"":""fullscreenenter"",""trial"":1,""time"":4712}]",NA,NA,NA,NA,NA,0,#3386FF,#D89F1C,10,0,1,38,1,749,37,1,514,10,1,experiment,NA,NA,0,0.9,0.1,0,1,287,7,NA
fcp-trial,323,1145029,0.0-298.0-0.0,voc_e2,12024,"[{""event"":""fullscreenenter"",""trial"":1,""time"":4712}]",NA,NA,NA,NA,NA,6,#1CD855,#FA92F8,0,10,0,40,0,1013.9999999997672,39,0,402,10,1,experiment,NA,NA,1,0.3,0.7,3,2,288,7,NA
fcp-trial,324,1148270,0.0-299.0-0.0,voc_e2,12024,"[{""event"":""fullscreenenter"",""trial"":1,""time"":4712}]",NA,NA,NA,NA,NA,5,#741CD8,#D8271C,0,10,0,40,0,1235,39,0,496,10,1,experiment,NA,NA,2,0.5,0.5,5,4,289,7,NA
fcp-trial,325,1151101,0.0-300.0-0.0,voc_e2,12024,"[{""event"":""fullscreenenter"",""trial"":1,""time"":4712}]",NA,NA,NA,NA,NA,6,#D8271C,#741CD8,10,0,1,40,0,849,39,0,473,0,0,experiment,NA,NA,2,0.5,0.5,4,5,290,7,NA
fcp-trial,326,1153905,0.0-301.0-0.0,voc_e2,12024,"[{""event"":""fullscreenenter"",""trial"":1,""time"":4712}]",NA,NA,NA,NA,NA,6,#D89F1C,#3386FF,0,10,0,40,0,881,39,0,415,10,1,experiment,NA,NA,0,0.1,0.9,1,0,291,7,NA
fcp-trial,327,1156790,0.0-302.0-0.0,voc_e2,12024,"[{""event"":""fullscreenenter"",""trial"":1,""time"":4712}]",NA,NA,NA,NA,NA,5,#1CD855,#FA92F8,0,10,0,40,0,811,37,1,555,0,0,experiment,NA,NA,1,0.3,0.7,3,2,292,7,NA
fcp-trial,328,1159715,0.0-303.0-0.0,voc_e2,12024,"[{""event"":""fullscreenenter"",""trial"":1,""time"":4712}]",NA,NA,NA,NA,NA,1,#3386FF,#D89F1C,10,0,1,40,0,902,39,0,513,0,0,experiment,NA,NA,0,0.9,0.1,0,1,293,7,NA
fcp-trial,329,1162785,0.0-304.0-0.0,voc_e2,12024,"[{""event"":""fullscreenenter"",""trial"":1,""time"":4712}]",NA,NA,NA,NA,NA,4,#FA92F8,#1CD855,0,0,1,40,0,1123,39,0,438.0000000002328,0,0,experiment,NA,NA,1,0.7,0.3,2,3,294,7,NA
fcp-trial,330,1165444,0.0-305.0-0.0,voc_e2,12024,"[{""event"":""fullscreenenter"",""trial"":1,""time"":4712}]",NA,NA,NA,NA,NA,2,#FA92F8,#1CD855,10,0,1,40,0,681,39,0,469,0,0,experiment,NA,NA,1,0.7,0.3,2,3,295,7,NA
fcp-trial,331,1168240,0.0-306.0-0.0,voc_e2,12024,"[{""event"":""fullscreenenter"",""trial"":1,""time"":4712}]",NA,NA,NA,NA,NA,5,#1CD855,#FA92F8,10,10,0,40,0,705,37,1,582,10,0,experiment,NA,NA,1,0.3,0.7,3,2,296,7,NA
fcp-trial,332,1171748,0.0-307.0-0.0,voc_e2,12024,"[{""event"":""fullscreenenter"",""trial"":1,""time"":4712}]",NA,NA,NA,NA,NA,0,#D8271C,#741CD8,0,0,1,38,1,1479,37,1,507.0000000002328,0,1,experiment,NA,NA,2,0.5,0.5,4,5,297,7,NA
fcp-trial,333,1174503,0.0-308.0-0.0,voc_e2,12024,"[{""event"":""fullscreenenter"",""trial"":1,""time"":4712}]",NA,NA,NA,NA,NA,5,#D89F1C,#3386FF,0,10,0,40,0,798.9999999997672,39,0,445,10,1,experiment,NA,NA,0,0.1,0.9,1,0,298,7,NA
fcp-trial,334,1177207,0.0-309.0-0.0,voc_e2,12024,"[{""event"":""fullscreenenter"",""trial"":1,""time"":4712}]",NA,NA,NA,NA,NA,6,#3386FF,#D89F1C,10,0,1,40,0,722,37,1,461,10,1,experiment,NA,NA,0,0.9,0.1,0,1,299,7,NA
fcp-trial,335,1180675,0.0-310.0-0.0,voc_e2,12024,"[{""event"":""fullscreenenter"",""trial"":1,""time"":4712}]",NA,NA,NA,NA,NA,2,#D8271C,#741CD8,10,10,1,38,1,1526,39,0,423,10,0,experiment,NA,NA,2,0.5,0.5,4,5,300,7,NA
fcp-trial,336,1183676,0.0-311.0-0.0,voc_e2,12024,"[{""event"":""fullscreenenter"",""trial"":1,""time"":4712}]",NA,NA,NA,NA,NA,6,#1CD855,#FA92F8,10,0,0,40,0,970,37,1,522,10,0,experiment,NA,NA,1,0.3,0.7,3,2,301,7,NA
fcp-trial,337,1186450,0.0-312.0-0.0,voc_e2,12024,"[{""event"":""fullscreenenter"",""trial"":1,""time"":4712}]",NA,NA,NA,NA,NA,1,#D8271C,#741CD8,10,0,1,38,1,911,37,1,354,10,1,experiment,NA,NA,2,0.5,0.5,4,5,302,7,NA
fcp-trial,338,1189740,0.0-313.0-0.0,voc_e2,12024,"[{""event"":""fullscreenenter"",""trial"":1,""time"":4712}]",NA,NA,NA,NA,NA,3,#3386FF,#D89F1C,0,0,1,40,0,1285.9999999997672,39,0,494,0,0,experiment,NA,NA,0,0.9,0.1,0,1,303,7,NA
fcp-trial,339,1192452,0.0-314.0-0.0,voc_e2,12024,"[{""event"":""fullscreenenter"",""trial"":1,""time"":4712}]",NA,NA,NA,NA,NA,1,#FA92F8,#1CD855,10,0,1,38,1,777,37,1,413,10,1,experiment,NA,NA,1,0.7,0.3,2,3,304,7,NA
fcp-trial,340,1195411,0.0-315.0-0.0,voc_e2,12024,"[{""event"":""fullscreenenter"",""trial"":1,""time"":4712}]",NA,NA,NA,NA,NA,4,#3386FF,#D89F1C,0,10,1,40,0,954,39,0,496,10,0,experiment,NA,NA,0,0.9,0.1,0,1,305,7,NA
fcp-trial,341,1198570,0.0-316.0-0.0,voc_e2,12024,"[{""event"":""fullscreenenter"",""trial"":1,""time"":4712}]",NA,NA,NA,NA,NA,1,#3386FF,#D89F1C,10,0,1,40,0,1225.9999999997672,37,1,423,10,1,experiment,NA,NA,0,0.9,0.1,0,1,306,7,NA
fcp-trial,342,1201544,0.0-317.0-0.0,voc_e2,12024,"[{""event"":""fullscreenenter"",""trial"":1,""time"":4712}]",NA,NA,NA,NA,NA,4,#741CD8,#D8271C,0,10,0,40,0,1055,39,0,409,10,1,experiment,NA,NA,2,0.5,0.5,5,4,307,7,NA
fcp-trial,343,1204817,0.0-318.0-0.0,voc_e2,12024,"[{""event"":""fullscreenenter"",""trial"":1,""time"":4712}]",NA,NA,NA,NA,NA,5,#D8271C,#741CD8,0,10,1,38,1,1407,39,0,356,10,0,experiment,NA,NA,2,0.5,0.5,4,5,308,7,NA
fcp-trial,344,1207924,0.0-319.0-0.0,voc_e2,12024,"[{""event"":""fullscreenenter"",""trial"":1,""time"":4712}]",NA,NA,NA,NA,NA,3,#FA92F8,#1CD855,0,0,1,38,1,1289,37,1,306,0,1,experiment,NA,NA,1,0.7,0.3,2,3,309,7,NA
fcp-trial,345,1210658,0.0-320.0-0.0,voc_e2,12024,"[{""event"":""fullscreenenter"",""trial"":1,""time"":4712}]",NA,NA,NA,NA,NA,2,#3386FF,#D89F1C,10,0,1,38,1,890,37,1,336,10,1,experiment,NA,NA,0,0.9,0.1,0,1,310,7,NA
fcp-trial,346,1213300,0.0-321.0-0.0,voc_e2,12024,"[{""event"":""fullscreenenter"",""trial"":1,""time"":4712}]",NA,NA,NA,NA,NA,0,#FA92F8,#1CD855,10,10,1,38,1,756,37,1,379,10,1,experiment,NA,NA,1,0.7,0.3,2,3,311,7,NA
fcp-trial,347,1216292,0.0-322.0-0.0,voc_e2,12024,"[{""event"":""fullscreenenter"",""trial"":1,""time"":4712}]",NA,NA,NA,NA,NA,6,#741CD8,#D8271C,10,10,0,40,0,997,37,1,485,10,0,experiment,NA,NA,2,0.5,0.5,5,4,312,7,NA
fcp-trial,348,1219029,0.0-323.0-0.0,voc_e2,12024,"[{""event"":""fullscreenenter"",""trial"":1,""time"":4712}]",NA,NA,NA,NA,NA,3,#D8271C,#741CD8,0,0,1,40,0,882,39,0,346,0,0,experiment,NA,NA,2,0.5,0.5,4,5,313,7,NA
fcp-trial,349,1221799,0.0-324.0-0.0,voc_e2,12024,"[{""event"":""fullscreenenter"",""trial"":1,""time"":4712}]",NA,NA,NA,NA,NA,4,#1CD855,#FA92F8,0,0,0,40,0,864,39,0,398,0,1,experiment,NA,NA,1,0.3,0.7,3,2,314,7,NA
fcp-trial,350,1224515,0.0-325.0-0.0,voc_e2,12024,"[{""event"":""fullscreenenter"",""trial"":1,""time"":4712}]",NA,NA,NA,NA,NA,0,#D89F1C,#3386FF,0,10,0,38,1,952,39,0,256,10,1,experiment,NA,NA,0,0.1,0.9,1,0,315,7,NA
audio-instructions,351,1231113,0.0-326.0,voc_e2,12024,"[{""event"":""fullscreenenter"",""trial"":1,""time"":4712}]",NA,962,static/audio/finished.wav,NA,0,NA,NA,NA,NA,NA,NA,NA,NA,NA,NA,NA,NA,NA,NA,NA,NA,NA,NA,NA,NA,NA,NA,NA,NA,NA
audio-instructions,352,1242867,0.0-327.0-0.0,voc_e2,12024,"[{""event"":""fullscreenenter"",""trial"":1,""time"":4712}]",NA,915,static/audio/explicit1.wav,NA,0,NA,NA,NA,NA,NA,NA,NA,NA,NA,NA,NA,NA,NA,NA,NA,NA,NA,NA,NA,NA,NA,NA,NA,NA,NA
audio-instructions,353,1250955,0.0-327.0-1.0,voc_e2,12024,"[{""event"":""fullscreenenter"",""trial"":1,""time"":4712}]",NA,494,static/audio/explicit2.wav,NA,0,NA,NA,NA,NA,NA,NA,NA,NA,NA,NA,NA,NA,NA,NA,NA,NA,NA,NA,NA,NA,NA,NA,NA,NA,NA
image-slider-response,354,1254672,0.0-328.0,voc_e2,12024,"[{""event"":""fullscreenenter"",""trial"":1,""time"":4712}]",NA,3715,static/img/machines/machine1.png,NA,NA,NA,NA,NA,NA,NA,NA,NA,NA,NA,NA,NA,NA,NA,NA,explicit,NA,NA,NA,NA,NA,NA,NA,NA,NA,3
image-slider-response,355,1258034,0.0-329.0,voc_e2,12024,"[{""event"":""fullscreenenter"",""trial"":1,""time"":4712}]",NA,3361,static/img/machines/machine6.png,NA,NA,NA,NA,NA,NA,NA,NA,NA,NA,NA,NA,NA,NA,NA,NA,explicit,NA,NA,NA,NA,NA,NA,NA,NA,NA,5
image-slider-response,356,1260428,0.0-330.0,voc_e2,12024,"[{""event"":""fullscreenenter"",""trial"":1,""time"":4712}]",NA,2392,static/img/machines/machine5.png,NA,NA,NA,NA,NA,NA,NA,NA,NA,NA,NA,NA,NA,NA,NA,NA,explicit,NA,NA,NA,NA,NA,NA,NA,NA,NA,6
image-slider-response,357,1264651,0.0-331.0,voc_e2,12024,"[{""event"":""fullscreenenter"",""trial"":1,""time"":4712}]",NA,4221,static/img/machines/machine3.png,NA,NA,NA,NA,NA,NA,NA,NA,NA,NA,NA,NA,NA,NA,NA,NA,explicit,NA,NA,NA,NA,NA,NA,NA,NA,NA,9
image-slider-response,358,1267367,0.0-332.0,voc_e2,12024,"[{""event"":""fullscreenenter"",""trial"":1,""time"":4712}]",NA,2714,static/img/machines/machine2.png,NA,NA,NA,NA,NA,NA,NA,NA,NA,NA,NA,NA,NA,NA,NA,NA,explicit,NA,NA,NA,NA,NA,NA,NA,NA,NA,3
image-slider-response,359,1269787,0.0-333.0,voc_e2,12024,"[{""event"":""fullscreenenter"",""trial"":1,""time"":4712}]",NA,2418,static/img/machines/machine4.png,NA,NA,NA,NA,NA,NA,NA,NA,NA,NA,NA,NA,NA,NA,NA,NA,explicit,NA,NA,NA,NA,NA,NA,NA,NA,NA,4
