trial_type,trial_index,time_elapsed,internal_node_id,task_version,subject_id,interactions,success,rt,stimulus,key_press,button_pressed,offer,arcade_color_L,arcade_color_R,arcade_outcome_L,arcade_outcome_R,correct,stage_1_key,stage_1_choice,stage_1_rt,stage_2_key,stage_2_choice,stage_2_rt,stage_3_outcome,accuracy,phase,responses,num_errors,context,reward_prob_L,reward_prob_R,arcade_id_L,arcade_id_R,trial,block,response
pavlovia,0,17,0.0-0.0,voc_e2,11824,[],NA,NA,NA,NA,NA,NA,NA,NA,NA,NA,NA,NA,NA,NA,NA,NA,NA,NA,NA,NA,NA,NA,NA,NA,NA,NA,NA,NA,NA,NA
fullscreen,1,4198,0.0-1.0,voc_e2,11824,"[{""event"":""fullscreenenter"",""trial"":1,""time"":3222}]",TRUE,NA,NA,NA,NA,NA,NA,NA,NA,NA,NA,NA,NA,NA,NA,NA,NA,NA,NA,NA,NA,NA,NA,NA,NA,NA,NA,NA,NA,NA
audio-keyboard-response,2,14793,0.0-2.0,voc_e2,11824,"[{""event"":""fullscreenenter"",""trial"":1,""time"":3222}]",NA,10432,static/audio/beep_loop.wav,32,NA,NA,NA,NA,NA,NA,NA,NA,NA,NA,NA,NA,NA,NA,NA,NA,NA,NA,NA,NA,NA,NA,NA,NA,NA,NA
audio-test,3,16383,0.0-3.0,voc_e2,11824,"[{""event"":""fullscreenenter"",""trial"":1,""time"":3222}]",NA,NA,static/audio/turtle.wav,NA,3,NA,NA,NA,NA,NA,NA,NA,NA,NA,NA,NA,NA,NA,NA,NA,NA,NA,NA,NA,NA,NA,NA,NA,NA,NA
audio-test,4,18909,0.0-4.0,voc_e2,11824,"[{""event"":""fullscreenenter"",""trial"":1,""time"":3222}]",NA,NA,static/audio/shark.wav,NA,2,NA,NA,NA,NA,NA,NA,NA,NA,NA,NA,NA,NA,NA,NA,NA,NA,NA,NA,NA,NA,NA,NA,NA,NA,NA
audio-instructions,5,26060,0.0-5.0-0.0,voc_e2,11824,"[{""event"":""fullscreenenter"",""trial"":1,""time"":3222}]",NA,1359,static/audio/instructions1.wav,NA,0,NA,NA,NA,NA,NA,NA,NA,NA,NA,NA,NA,NA,NA,NA,NA,NA,NA,NA,NA,NA,NA,NA,NA,NA,NA
audio-instructions,6,34778,0.0-5.0-1.0,voc_e2,11824,"[{""event"":""fullscreenenter"",""trial"":1,""time"":3222}]",NA,1974,static/audio/instructions2.wav,NA,0,NA,NA,NA,NA,NA,NA,NA,NA,NA,NA,NA,NA,NA,NA,NA,NA,NA,NA,NA,NA,NA,NA,NA,NA,NA
audio-instructions,7,41301,0.0-5.0-2.0,voc_e2,11824,"[{""event"":""fullscreenenter"",""trial"":1,""time"":3222}]",NA,716.9000000059605,static/audio/instructions3.wav,NA,0,NA,NA,NA,NA,NA,NA,NA,NA,NA,NA,NA,NA,NA,NA,NA,NA,NA,NA,NA,NA,NA,NA,NA,NA,NA
audio-instructions,8,55355,0.0-5.0-3.0,voc_e2,11824,"[{""event"":""fullscreenenter"",""trial"":1,""time"":3222}]",NA,820.9000000059605,static/audio/instructions4.wav,NA,0,NA,NA,NA,NA,NA,NA,NA,NA,NA,NA,NA,NA,NA,NA,NA,NA,NA,NA,NA,NA,NA,NA,NA,NA,NA
audio-instructions,9,67806,0.0-5.0-4.0,voc_e2,11824,"[{""event"":""fullscreenenter"",""trial"":1,""time"":3222}]",NA,3061.800000011921,static/audio/instructions5.wav,NA,0,NA,NA,NA,NA,NA,NA,NA,NA,NA,NA,NA,NA,NA,NA,NA,NA,NA,NA,NA,NA,NA,NA,NA,NA,NA
fcp-practice,10,79990,0.0-5.0-5.0-0.0,voc_e2,11824,"[{""event"":""fullscreenenter"",""trial"":1,""time"":3222}]",NA,NA,NA,NA,NA,NA,#EDC948,#46d3c8,10,0,1,null,null,null,37,1,10670.90000000596,10,1,practice,NA,NA,NA,NA,NA,NA,NA,NA,NA,NA
fcp-practice,11,81933,0.0-5.0-5.0-1.0,voc_e2,11824,"[{""event"":""fullscreenenter"",""trial"":1,""time"":3222}]",NA,NA,NA,NA,NA,NA,#EDC948,#46d3c8,10,0,1,null,null,null,37,1,432.09999999403954,10,1,practice,NA,NA,NA,NA,NA,NA,NA,NA,NA,NA
fcp-practice,12,83713,0.0-5.0-5.0-2.0,voc_e2,11824,"[{""event"":""fullscreenenter"",""trial"":1,""time"":3222}]",NA,NA,NA,NA,NA,NA,#EDC948,#46d3c8,0,10,1,null,null,null,37,1,273.6000000089407,0,1,practice,NA,NA,NA,NA,NA,NA,NA,NA,NA,NA
fcp-practice,13,85294,0.0-5.0-5.0-3.0,voc_e2,11824,"[{""event"":""fullscreenenter"",""trial"":1,""time"":3222}]",NA,NA,NA,NA,NA,NA,#EDC948,#46d3c8,10,0,1,null,null,null,37,1,74.3999999910593,10,1,practice,NA,NA,NA,NA,NA,NA,NA,NA,NA,NA
fcp-practice,14,87662,0.0-5.0-5.0-4.0,voc_e2,11824,"[{""event"":""fullscreenenter"",""trial"":1,""time"":3222}]",NA,NA,NA,NA,NA,NA,#EDC948,#46d3c8,10,0,1,null,null,null,37,1,861.9000000059605,10,1,practice,NA,NA,NA,NA,NA,NA,NA,NA,NA,NA
audio-instructions,15,106352,0.0-5.0-6.0,voc_e2,11824,"[{""event"":""fullscreenenter"",""trial"":1,""time"":3222}]",NA,680.6000000089407,static/audio/instructions6.wav,NA,0,NA,NA,NA,NA,NA,NA,NA,NA,NA,NA,NA,NA,NA,NA,NA,NA,NA,NA,NA,NA,NA,NA,NA,NA,NA
audio-instructions,16,126303,0.0-5.0-7.0,voc_e2,11824,"[{""event"":""fullscreenenter"",""trial"":1,""time"":3222}]",NA,749.4000000059605,static/audio/instructions7.wav,NA,0,NA,NA,NA,NA,NA,NA,NA,NA,NA,NA,NA,NA,NA,NA,NA,NA,NA,NA,NA,NA,NA,NA,NA,NA,NA
audio-instructions,17,136641,0.0-5.0-8.0,voc_e2,11824,"[{""event"":""fullscreenenter"",""trial"":1,""time"":3222}]",NA,864.5,static/audio/instructions8.wav,NA,0,NA,NA,NA,NA,NA,NA,NA,NA,NA,NA,NA,NA,NA,NA,NA,NA,NA,NA,NA,NA,NA,NA,NA,NA,NA
fcp-comprehension,18,146135,0.0-5.0-9.0,voc_e2,11824,"[{""event"":""fullscreenenter"",""trial"":1,""time"":3222}]",NA,9490.59999999404,NA,NA,NA,NA,NA,NA,NA,NA,NA,NA,NA,NA,NA,NA,NA,NA,NA,NA,"true,true",0,NA,NA,NA,NA,NA,NA,NA,NA
audio-instructions,19,153410,0.0-6.0-0.0,voc_e2,11824,"[{""event"":""fullscreenenter"",""trial"":1,""time"":3222}]",NA,1722.0999999940395,static/audio/instructions9.wav,NA,0,NA,NA,NA,NA,NA,NA,NA,NA,NA,NA,NA,NA,NA,NA,NA,NA,NA,NA,NA,NA,NA,NA,NA,NA,NA
audio-instructions,20,166585,0.0-6.0-1.0,voc_e2,11824,"[{""event"":""fullscreenenter"",""trial"":1,""time"":3222}]",NA,1051.3999999910593,static/audio/instructions10.wav,NA,0,NA,NA,NA,NA,NA,NA,NA,NA,NA,NA,NA,NA,NA,NA,NA,NA,NA,NA,NA,NA,NA,NA,NA,NA,NA
fcp-trial,21,171507,0.0-6.0-2.0,voc_e2,11824,"[{""event"":""fullscreenenter"",""trial"":1,""time"":3222}]",NA,NA,NA,NA,NA,0,#EDC948,#46d3c8,10,10,1,38,1,1982.5,37,1,1419.2999999970198,10,1,practice,NA,NA,NA,NA,NA,NA,NA,NA,NA,NA
audio-instructions,22,183632,0.0-6.0-3.0,voc_e2,11824,"[{""event"":""fullscreenenter"",""trial"":1,""time"":3222}]",NA,1112.2999999970198,static/audio/instructions11.wav,NA,0,NA,NA,NA,NA,NA,NA,NA,NA,NA,NA,NA,NA,NA,NA,NA,NA,NA,NA,NA,NA,NA,NA,NA,NA,NA
fcp-trial,23,186820,0.0-6.0-4.0,voc_e2,11824,"[{""event"":""fullscreenenter"",""trial"":1,""time"":3222}]",NA,NA,NA,NA,NA,6,#EDC948,#46d3c8,10,10,1,40,0,727.7999999970198,39,0,944.4000000059605,10,0,practice,NA,NA,NA,NA,NA,NA,NA,NA,NA,NA
audio-instructions,24,206480,0.0-6.0-5.0,voc_e2,11824,"[{""event"":""fullscreenenter"",""trial"":1,""time"":3222}]",NA,966.9000000059604,static/audio/instructions12.wav,NA,0,NA,NA,NA,NA,NA,NA,NA,NA,NA,NA,NA,NA,NA,NA,NA,NA,NA,NA,NA,NA,NA,NA,NA,NA,NA
audio-instructions,25,214538,0.0-6.0-6.0,voc_e2,11824,"[{""event"":""fullscreenenter"",""trial"":1,""time"":3222}]",NA,461.8999999910593,static/audio/instructions13.wav,NA,0,NA,NA,NA,NA,NA,NA,NA,NA,NA,NA,NA,NA,NA,NA,NA,NA,NA,NA,NA,NA,NA,NA,NA,NA,NA
audio-instructions,26,223481,0.0-6.0-7.0,voc_e2,11824,"[{""event"":""fullscreenenter"",""trial"":1,""time"":3222}]",NA,494,static/audio/instructions14.wav,NA,0,NA,NA,NA,NA,NA,NA,NA,NA,NA,NA,NA,NA,NA,NA,NA,NA,NA,NA,NA,NA,NA,NA,NA,NA,NA
audio-instructions,27,231001,0.0-7.0-0.0,voc_e2,11824,"[{""event"":""fullscreenenter"",""trial"":1,""time"":3222}]",NA,606,static/audio/instructions15.wav,NA,0,NA,NA,NA,NA,NA,NA,NA,NA,NA,NA,NA,NA,NA,NA,NA,NA,NA,NA,NA,NA,NA,NA,NA,NA,NA
audio-instructions,28,239734,0.0-7.0-1.0,voc_e2,11824,"[{""event"":""fullscreenenter"",""trial"":1,""time"":3222}]",NA,1908.199999988079,static/audio/instructions16.wav,NA,0,NA,NA,NA,NA,NA,NA,NA,NA,NA,NA,NA,NA,NA,NA,NA,NA,NA,NA,NA,NA,NA,NA,NA,NA,NA
audio-instructions,29,250090,0.0-7.0-2.0,voc_e2,11824,"[{""event"":""fullscreenenter"",""trial"":1,""time"":3222}]",NA,2674.5999999940395,static/audio/instructions17.wav,NA,0,NA,NA,NA,NA,NA,NA,NA,NA,NA,NA,NA,NA,NA,NA,NA,NA,NA,NA,NA,NA,NA,NA,NA,NA,NA
audio-instructions,30,258454,0.0-7.0-3.0,voc_e2,11824,"[{""event"":""fullscreenenter"",""trial"":1,""time"":3222}]",NA,595.0999999940395,static/audio/instructions18.wav,NA,0,NA,NA,NA,NA,NA,NA,NA,NA,NA,NA,NA,NA,NA,NA,NA,NA,NA,NA,NA,NA,NA,NA,NA,NA,NA
audio-instructions,31,265667,0.0-7.0-4.0,voc_e2,11824,"[{""event"":""fullscreenenter"",""trial"":1,""time"":3222}]",NA,470.70000000298023,static/audio/instructions19.wav,NA,0,NA,NA,NA,NA,NA,NA,NA,NA,NA,NA,NA,NA,NA,NA,NA,NA,NA,NA,NA,NA,NA,NA,NA,NA,NA
fcp-comprehension,32,281460,0.0-7.0-5.0,voc_e2,11824,"[{""event"":""fullscreenenter"",""trial"":1,""time"":3222}]",NA,15790.29999999702,NA,NA,NA,NA,NA,NA,NA,NA,NA,NA,NA,NA,NA,NA,NA,NA,NA,NA,"false,false,false,true",0,NA,NA,NA,NA,NA,NA,NA,NA
audio-instructions,33,293478,0.0-8.0,voc_e2,11824,"[{""event"":""fullscreenenter"",""trial"":1,""time"":3222}]",NA,2796.70000000298,static/audio/ready.wav,NA,0,NA,NA,NA,NA,NA,NA,NA,NA,NA,NA,NA,NA,NA,NA,NA,NA,NA,NA,NA,NA,NA,NA,NA,NA,NA
fcp-trial,34,299152,0.0-9.0-0.0,voc_e2,11824,"[{""event"":""fullscreenenter"",""trial"":1,""time"":3222}]",NA,NA,NA,NA,NA,4,#3386FF,#D89F1C,0,0,1,38,1,2520.7999999970198,37,1,1645.699999988079,0,1,experiment,NA,NA,2,0.5,0.5,4,5,1,1,NA
fcp-trial,35,304152,0.0-10.0-0.0,voc_e2,11824,"[{""event"":""fullscreenenter"",""trial"":1,""time"":3222}]",NA,NA,NA,NA,NA,0,#D8271C,#741CD8,10,0,1,40,0,2341,39,0,1149.0999999940395,0,0,experiment,NA,NA,0,0.9,0.1,0,1,2,1,NA
fcp-trial,36,307957,0.0-11.0-0.0,voc_e2,11824,"[{""event"":""fullscreenenter"",""trial"":1,""time"":3222}]",NA,NA,NA,NA,NA,1,#FA92F8,#1CD855,10,0,1,40,0,1159,37,1,1137.5,10,1,experiment,NA,NA,1,0.7,0.3,2,3,3,1,NA
fcp-trial,37,311727,0.0-12.0-0.0,voc_e2,11824,"[{""event"":""fullscreenenter"",""trial"":1,""time"":3222}]",NA,NA,NA,NA,NA,2,#3386FF,#D89F1C,0,0,1,40,0,849.7999999970198,37,1,1413,0,1,experiment,NA,NA,2,0.5,0.5,4,5,4,1,NA
fcp-trial,38,316125,0.0-13.0-0.0,voc_e2,11824,"[{""event"":""fullscreenenter"",""trial"":1,""time"":3222}]",NA,NA,NA,NA,NA,4,#D8271C,#741CD8,10,0,1,40,0,1774.0999999940395,39,0,1111.2999999970198,0,0,experiment,NA,NA,0,0.9,0.1,0,1,5,1,NA
fcp-trial,39,319866,0.0-14.0-0.0,voc_e2,11824,"[{""event"":""fullscreenenter"",""trial"":1,""time"":3222}]",NA,NA,NA,NA,NA,3,#D89F1C,#3386FF,0,0,0,40,0,1223.8999999910593,37,1,1010.7000000029802,0,0,experiment,NA,NA,2,0.5,0.5,5,4,6,1,NA
fcp-trial,40,322964,0.0-15.0-0.0,voc_e2,11824,"[{""event"":""fullscreenenter"",""trial"":1,""time"":3222}]",NA,NA,NA,NA,NA,2,#FA92F8,#1CD855,10,0,1,40,0,781.5,39,0,810.2000000029802,0,0,experiment,NA,NA,1,0.7,0.3,2,3,7,1,NA
fcp-trial,41,326390,0.0-16.0-0.0,voc_e2,11824,"[{""event"":""fullscreenenter"",""trial"":1,""time"":3222}]",NA,NA,NA,NA,NA,6,#741CD8,#D8271C,0,10,0,38,1,1007.8999999910593,37,1,907.9000000059605,0,0,experiment,NA,NA,0,0.1,0.9,1,0,8,1,NA
fcp-trial,42,329215,0.0-17.0-0.0,voc_e2,11824,"[{""event"":""fullscreenenter"",""trial"":1,""time"":3222}]",NA,NA,NA,NA,NA,5,#741CD8,#D8271C,0,10,0,38,1,616.3000000119209,39,0,698,10,1,experiment,NA,NA,0,0.1,0.9,1,0,9,1,NA
fcp-trial,43,333014,0.0-18.0-0.0,voc_e2,11824,"[{""event"":""fullscreenenter"",""trial"":1,""time"":3222}]",NA,NA,NA,NA,NA,0,#D89F1C,#3386FF,0,10,0,38,1,1368.7999999970198,37,1,919.9000000059605,0,0,experiment,NA,NA,2,0.5,0.5,5,4,10,1,NA
fcp-trial,44,336049,0.0-19.0-0.0,voc_e2,11824,"[{""event"":""fullscreenenter"",""trial"":1,""time"":3222}]",NA,NA,NA,NA,NA,3,#FA92F8,#1CD855,0,10,1,38,1,835.9000000059605,39,0,691.3000000119209,10,0,experiment,NA,NA,1,0.7,0.3,2,3,11,1,NA
fcp-trial,45,339492,0.0-20.0-0.0,voc_e2,11824,"[{""event"":""fullscreenenter"",""trial"":1,""time"":3222}]",NA,NA,NA,NA,NA,3,#D8271C,#741CD8,10,0,1,38,1,1367.7000000029802,37,1,564.9000000059605,10,1,experiment,NA,NA,0,0.9,0.1,0,1,12,1,NA
fcp-trial,46,342911,0.0-21.0-0.0,voc_e2,11824,"[{""event"":""fullscreenenter"",""trial"":1,""time"":3222}]",NA,NA,NA,NA,NA,4,#1CD855,#FA92F8,0,0,0,38,1,1216.7999999970198,37,1,692.2999999970198,0,0,experiment,NA,NA,1,0.3,0.7,3,2,13,1,NA
fcp-trial,47,346307,0.0-22.0-0.0,voc_e2,11824,"[{""event"":""fullscreenenter"",""trial"":1,""time"":3222}]",NA,NA,NA,NA,NA,5,#D89F1C,#3386FF,0,10,0,38,1,1304.7000000029802,39,0,583.8999999910593,10,1,experiment,NA,NA,2,0.5,0.5,5,4,14,1,NA
fcp-trial,48,350039,0.0-23.0-0.0,voc_e2,11824,"[{""event"":""fullscreenenter"",""trial"":1,""time"":3222}]",NA,NA,NA,NA,NA,5,#1CD855,#FA92F8,0,10,0,38,1,812.5,37,1,1409.5,0,0,experiment,NA,NA,1,0.3,0.7,3,2,15,1,NA
fcp-trial,49,352728,0.0-24.0-0.0,voc_e2,11824,"[{""event"":""fullscreenenter"",""trial"":1,""time"":3222}]",NA,NA,NA,NA,NA,1,#D89F1C,#3386FF,10,10,0,38,1,532.4000000059605,39,0,643,10,1,experiment,NA,NA,2,0.5,0.5,5,4,16,1,NA
fcp-trial,50,355928,0.0-25.0-0.0,voc_e2,11824,"[{""event"":""fullscreenenter"",""trial"":1,""time"":3222}]",NA,NA,NA,NA,NA,2,#741CD8,#D8271C,0,10,0,38,1,954.1999999880791,39,0,735.7000000029802,10,1,experiment,NA,NA,0,0.1,0.9,1,0,17,1,NA
fcp-trial,51,358857,0.0-26.0-0.0,voc_e2,11824,"[{""event"":""fullscreenenter"",""trial"":1,""time"":3222}]",NA,NA,NA,NA,NA,1,#741CD8,#D8271C,0,10,0,38,1,720.2000000029802,39,0,698.6000000089407,10,1,experiment,NA,NA,0,0.1,0.9,1,0,18,1,NA
fcp-trial,52,361966,0.0-27.0-0.0,voc_e2,11824,"[{""event"":""fullscreenenter"",""trial"":1,""time"":3222}]",NA,NA,NA,NA,NA,0,#1CD855,#FA92F8,10,0,0,38,1,699.5999999940395,37,1,898.5999999940395,10,0,experiment,NA,NA,1,0.3,0.7,3,2,19,1,NA
fcp-trial,53,364791,0.0-28.0-0.0,voc_e2,11824,"[{""event"":""fullscreenenter"",""trial"":1,""time"":3222}]",NA,NA,NA,NA,NA,6,#FA92F8,#1CD855,10,0,1,38,1,815.5999999940395,39,0,502.70000000298023,0,0,experiment,NA,NA,1,0.7,0.3,2,3,20,1,NA
fcp-trial,54,368196,0.0-29.0-0.0,voc_e2,11824,"[{""event"":""fullscreenenter"",""trial"":1,""time"":3222}]",NA,NA,NA,NA,NA,6,#D89F1C,#3386FF,10,0,0,38,1,478.79999999701977,39,0,1414.2999999970198,0,1,experiment,NA,NA,2,0.5,0.5,5,4,21,1,NA
fcp-trial,55,371546,0.0-30.0-0.0,voc_e2,11824,"[{""event"":""fullscreenenter"",""trial"":1,""time"":3222}]",NA,NA,NA,NA,NA,0,#D8271C,#741CD8,10,0,1,38,1,1119.3999999910593,37,1,723.7999999970198,10,1,experiment,NA,NA,0,0.9,0.1,0,1,22,1,NA
fcp-trial,56,374822,0.0-31.0-0.0,voc_e2,11824,"[{""event"":""fullscreenenter"",""trial"":1,""time"":3222}]",NA,NA,NA,NA,NA,3,#D8271C,#741CD8,10,0,1,38,1,1075,37,1,691.5,10,1,experiment,NA,NA,0,0.9,0.1,0,1,23,1,NA
fcp-trial,57,378299,0.0-32.0-0.0,voc_e2,11824,"[{""event"":""fullscreenenter"",""trial"":1,""time"":3222}]",NA,NA,NA,NA,NA,3,#D89F1C,#3386FF,10,0,0,38,1,1377,39,0,592.5999999940395,0,1,experiment,NA,NA,2,0.5,0.5,5,4,24,1,NA
fcp-trial,58,382308,0.0-33.0-0.0,voc_e2,11824,"[{""event"":""fullscreenenter"",""trial"":1,""time"":3222}]",NA,NA,NA,NA,NA,4,#FA92F8,#1CD855,0,0,1,38,1,1717.5,39,0,784.2999999970198,0,0,experiment,NA,NA,1,0.7,0.3,2,3,25,1,NA
fcp-trial,59,385457,0.0-34.0-0.0,voc_e2,11824,"[{""event"":""fullscreenenter"",""trial"":1,""time"":3222}]",NA,NA,NA,NA,NA,3,#1CD855,#FA92F8,0,10,0,38,1,581.1999999880791,37,1,1059.6000000089407,0,0,experiment,NA,NA,1,0.3,0.7,3,2,26,1,NA
fcp-trial,60,388493,0.0-35.0-0.0,voc_e2,11824,"[{""event"":""fullscreenenter"",""trial"":1,""time"":3222}]",NA,NA,NA,NA,NA,5,#741CD8,#D8271C,0,0,0,38,1,876.8999999910593,39,0,647.2999999970198,0,1,experiment,NA,NA,0,0.1,0.9,1,0,27,1,NA
fcp-trial,61,391790,0.0-36.0-0.0,voc_e2,11824,"[{""event"":""fullscreenenter"",""trial"":1,""time"":3222}]",NA,NA,NA,NA,NA,2,#1CD855,#FA92F8,0,10,0,38,1,1168.4000000059605,37,1,616,0,0,experiment,NA,NA,1,0.3,0.7,3,2,28,1,NA
fcp-trial,62,395826,0.0-37.0-0.0,voc_e2,11824,"[{""event"":""fullscreenenter"",""trial"":1,""time"":3222}]",NA,NA,NA,NA,NA,6,#3386FF,#D89F1C,0,10,1,38,1,1726.7000000029802,37,1,792.1999999880791,0,1,experiment,NA,NA,2,0.5,0.5,4,5,29,1,NA
fcp-trial,63,399032,0.0-38.0-0.0,voc_e2,11824,"[{""event"":""fullscreenenter"",""trial"":1,""time"":3222}]",NA,NA,NA,NA,NA,1,#741CD8,#D8271C,0,10,0,38,1,1073.2999999970198,39,0,625.5999999940395,10,1,experiment,NA,NA,0,0.1,0.9,1,0,30,1,NA
fcp-trial,64,402443,0.0-39.0-0.0,voc_e2,11824,"[{""event"":""fullscreenenter"",""trial"":1,""time"":3222}]",NA,NA,NA,NA,NA,0,#FA92F8,#1CD855,10,10,1,38,1,1300.8999999910593,39,0,598.7999999970198,10,0,experiment,NA,NA,1,0.7,0.3,2,3,31,1,NA
fcp-trial,65,405147,0.0-40.0-0.0,voc_e2,11824,"[{""event"":""fullscreenenter"",""trial"":1,""time"":3222}]",NA,NA,NA,NA,NA,5,#D89F1C,#3386FF,10,0,0,38,1,558.4000000059605,39,0,640.5,0,1,experiment,NA,NA,2,0.5,0.5,5,4,32,1,NA
fcp-trial,66,407963,0.0-41.0-0.0,voc_e2,11824,"[{""event"":""fullscreenenter"",""trial"":1,""time"":3222}]",NA,NA,NA,NA,NA,5,#FA92F8,#1CD855,10,0,1,38,1,513.2000000029802,37,1,787,10,1,experiment,NA,NA,1,0.7,0.3,2,3,33,1,NA
fcp-trial,67,410721,0.0-42.0-0.0,voc_e2,11824,"[{""event"":""fullscreenenter"",""trial"":1,""time"":3222}]",NA,NA,NA,NA,NA,1,#FA92F8,#1CD855,10,0,1,38,1,622.9000000059605,37,1,625.7000000029802,10,1,experiment,NA,NA,1,0.7,0.3,2,3,34,1,NA
fcp-trial,68,413711,0.0-43.0-0.0,voc_e2,11824,"[{""event"":""fullscreenenter"",""trial"":1,""time"":3222}]",NA,NA,NA,NA,NA,2,#D8271C,#741CD8,10,0,1,38,1,909,37,1,570.0999999940395,10,1,experiment,NA,NA,0,0.9,0.1,0,1,35,1,NA
fcp-trial,69,417328,0.0-44.0-0.0,voc_e2,11824,"[{""event"":""fullscreenenter"",""trial"":1,""time"":3222}]",NA,NA,NA,NA,NA,4,#3386FF,#D89F1C,0,10,1,38,1,1511.2000000029802,37,1,592.2999999970198,0,1,experiment,NA,NA,2,0.5,0.5,4,5,36,1,NA
fcp-trial,70,423017,0.0-45.0-0.0,voc_e2,11824,"[{""event"":""fullscreenenter"",""trial"":1,""time"":3222}]",NA,NA,NA,NA,NA,2,#D89F1C,#3386FF,0,10,0,40,0,1555.800000011921,37,1,2625.3999999910593,0,0,experiment,NA,NA,2,0.5,0.5,5,4,37,1,NA
fcp-trial,71,427765,0.0-46.0-0.0,voc_e2,11824,"[{""event"":""fullscreenenter"",""trial"":1,""time"":3222}]",NA,NA,NA,NA,NA,6,#1CD855,#FA92F8,10,0,0,38,1,2819.5999999940395,37,1,420.6000000089407,10,0,experiment,NA,NA,1,0.3,0.7,3,2,38,1,NA
fcp-trial,72,431018,0.0-47.0-0.0,voc_e2,11824,"[{""event"":""fullscreenenter"",""trial"":1,""time"":3222}]",NA,NA,NA,NA,NA,6,#741CD8,#D8271C,0,10,0,38,1,1245.4000000059605,39,0,497.90000000596046,10,1,experiment,NA,NA,0,0.1,0.9,1,0,39,1,NA
fcp-trial,73,433875,0.0-48.0-0.0,voc_e2,11824,"[{""event"":""fullscreenenter"",""trial"":1,""time"":3222}]",NA,NA,NA,NA,NA,0,#3386FF,#D89F1C,10,10,1,38,1,857.7000000029802,37,1,491.70000000298023,10,1,experiment,NA,NA,2,0.5,0.5,4,5,40,1,NA
fcp-trial,74,436339,0.0-49.0-0.0,voc_e2,11824,"[{""event"":""fullscreenenter"",""trial"":1,""time"":3222}]",NA,NA,NA,NA,NA,4,#D8271C,#741CD8,10,0,1,38,1,500.40000000596046,37,1,455.5,10,1,experiment,NA,NA,0,0.9,0.1,0,1,41,1,NA
fcp-trial,75,439626,0.0-50.0-0.0,voc_e2,11824,"[{""event"":""fullscreenenter"",""trial"":1,""time"":3222}]",NA,NA,NA,NA,NA,1,#3386FF,#D89F1C,0,0,1,38,1,1170.7999999970198,37,1,607.0999999940395,0,1,experiment,NA,NA,2,0.5,0.5,4,5,42,1,NA
fcp-trial,76,442528,0.0-51.0-0.0,voc_e2,11824,"[{""event"":""fullscreenenter"",""trial"":1,""time"":3222}]",NA,NA,NA,NA,NA,1,#D89F1C,#3386FF,0,10,0,38,1,652.7000000029802,39,0,738.4000000059605,10,1,experiment,NA,NA,2,0.5,0.5,5,4,43,1,NA
fcp-trial,77,445468,0.0-52.0-0.0,voc_e2,11824,"[{""event"":""fullscreenenter"",""trial"":1,""time"":3222}]",NA,NA,NA,NA,NA,0,#FA92F8,#1CD855,10,0,1,38,1,668.7999999970198,37,1,763.2000000029802,10,1,experiment,NA,NA,1,0.7,0.3,2,3,44,1,NA
fcp-trial,78,448490,0.0-53.0-0.0,voc_e2,11824,"[{""event"":""fullscreenenter"",""trial"":1,""time"":3222}]",NA,NA,NA,NA,NA,6,#D8271C,#741CD8,10,10,1,38,1,702.5,37,1,809.5999999940395,10,1,experiment,NA,NA,0,0.9,0.1,0,1,45,1,NA
fcp-trial,79,451758,0.0-54.0-0.0,voc_e2,11824,"[{""event"":""fullscreenenter"",""trial"":1,""time"":3222}]",NA,NA,NA,NA,NA,6,#FA92F8,#1CD855,10,0,1,38,1,1162,37,1,598.3000000119209,10,1,experiment,NA,NA,1,0.7,0.3,2,3,46,2,NA
fcp-trial,80,454626,0.0-55.0-0.0,voc_e2,11824,"[{""event"":""fullscreenenter"",""trial"":1,""time"":3222}]",NA,NA,NA,NA,NA,4,#741CD8,#D8271C,0,10,0,38,1,809.7999999970198,39,0,548.7000000029802,10,1,experiment,NA,NA,0,0.1,0.9,1,0,47,2,NA
fcp-trial,81,457536,0.0-56.0-0.0,voc_e2,11824,"[{""event"":""fullscreenenter"",""trial"":1,""time"":3222}]",NA,NA,NA,NA,NA,4,#D89F1C,#3386FF,10,10,0,38,1,855.7000000029802,39,0,546.6000000089407,10,1,experiment,NA,NA,2,0.5,0.5,5,4,48,2,NA
fcp-trial,82,460232,0.0-57.0-0.0,voc_e2,11824,"[{""event"":""fullscreenenter"",""trial"":1,""time"":3222}]",NA,NA,NA,NA,NA,1,#741CD8,#D8271C,0,10,0,38,1,552.2000000029802,39,0,633.4000000059605,10,1,experiment,NA,NA,0,0.1,0.9,1,0,49,2,NA
fcp-trial,83,462990,0.0-58.0-0.0,voc_e2,11824,"[{""event"":""fullscreenenter"",""trial"":1,""time"":3222}]",NA,NA,NA,NA,NA,6,#D89F1C,#3386FF,0,10,0,38,1,549.7000000029802,39,0,698.2999999970198,10,1,experiment,NA,NA,2,0.5,0.5,5,4,50,2,NA
fcp-trial,84,465725,0.0-59.0-0.0,voc_e2,11824,"[{""event"":""fullscreenenter"",""trial"":1,""time"":3222}]",NA,NA,NA,NA,NA,5,#FA92F8,#1CD855,10,10,1,38,1,623.4000000059605,37,1,601.9000000059605,10,1,experiment,NA,NA,1,0.7,0.3,2,3,51,2,NA
fcp-trial,85,468451,0.0-60.0-0.0,voc_e2,11824,"[{""event"":""fullscreenenter"",""trial"":1,""time"":3222}]",NA,NA,NA,NA,NA,2,#1CD855,#FA92F8,0,10,0,38,1,556.3000000119209,39,0,661.0999999940395,10,1,experiment,NA,NA,1,0.3,0.7,3,2,52,2,NA
fcp-trial,86,471229,0.0-61.0-0.0,voc_e2,11824,"[{""event"":""fullscreenenter"",""trial"":1,""time"":3222}]",NA,NA,NA,NA,NA,2,#D89F1C,#3386FF,10,10,0,38,1,607,39,0,658.7999999970198,10,1,experiment,NA,NA,2,0.5,0.5,5,4,53,2,NA
fcp-trial,87,473940,0.0-62.0-0.0,voc_e2,11824,"[{""event"":""fullscreenenter"",""trial"":1,""time"":3222}]",NA,NA,NA,NA,NA,3,#D8271C,#741CD8,10,0,1,38,1,559.7999999970198,37,1,643.2999999970198,10,1,experiment,NA,NA,0,0.9,0.1,0,1,54,2,NA
fcp-trial,88,476515,0.0-63.0-0.0,voc_e2,11824,"[{""event"":""fullscreenenter"",""trial"":1,""time"":3222}]",NA,NA,NA,NA,NA,3,#D89F1C,#3386FF,0,10,0,38,1,445.8999999910593,39,0,619.7999999970198,10,1,experiment,NA,NA,2,0.5,0.5,5,4,55,2,NA
fcp-trial,89,479255,0.0-64.0-0.0,voc_e2,11824,"[{""event"":""fullscreenenter"",""trial"":1,""time"":3222}]",NA,NA,NA,NA,NA,2,#741CD8,#D8271C,0,10,0,38,1,548,39,0,683.2999999970198,10,1,experiment,NA,NA,0,0.1,0.9,1,0,56,2,NA
fcp-trial,90,482217,0.0-65.0-0.0,voc_e2,11824,"[{""event"":""fullscreenenter"",""trial"":1,""time"":3222}]",NA,NA,NA,NA,NA,3,#1CD855,#FA92F8,0,10,0,38,1,736.2000000029802,39,0,716.2000000029802,10,1,experiment,NA,NA,1,0.3,0.7,3,2,57,2,NA
fcp-trial,91,484902,0.0-66.0-0.0,voc_e2,11824,"[{""event"":""fullscreenenter"",""trial"":1,""time"":3222}]",NA,NA,NA,NA,NA,5,#D89F1C,#3386FF,0,10,0,38,1,597.2000000029802,39,0,582.4000000059605,10,1,experiment,NA,NA,2,0.5,0.5,5,4,58,2,NA
fcp-trial,92,487728,0.0-67.0-0.0,voc_e2,11824,"[{""event"":""fullscreenenter"",""trial"":1,""time"":3222}]",NA,NA,NA,NA,NA,4,#1CD855,#FA92F8,10,10,0,38,1,475.90000000596046,39,0,842.2000000029802,10,1,experiment,NA,NA,1,0.3,0.7,3,2,59,2,NA
fcp-trial,93,490270,0.0-68.0-0.0,voc_e2,11824,"[{""event"":""fullscreenenter"",""trial"":1,""time"":3222}]",NA,NA,NA,NA,NA,5,#D8271C,#741CD8,10,0,1,38,1,449.5,37,1,584,10,1,experiment,NA,NA,0,0.9,0.1,0,1,60,2,NA
fcp-trial,94,493073,0.0-69.0-0.0,voc_e2,11824,"[{""event"":""fullscreenenter"",""trial"":1,""time"":3222}]",NA,NA,NA,NA,NA,0,#D89F1C,#3386FF,0,0,0,38,1,614.8999999910593,39,0,679.7999999970198,0,1,experiment,NA,NA,2,0.5,0.5,5,4,61,2,NA
fcp-trial,95,495691,0.0-70.0-0.0,voc_e2,11824,"[{""event"":""fullscreenenter"",""trial"":1,""time"":3222}]",NA,NA,NA,NA,NA,0,#D8271C,#741CD8,0,0,1,38,1,447.5,37,1,663.0999999940395,0,1,experiment,NA,NA,0,0.9,0.1,0,1,62,2,NA
fcp-trial,96,499575,0.0-71.0-0.0,voc_e2,11824,"[{""event"":""fullscreenenter"",""trial"":1,""time"":3222}]",NA,NA,NA,NA,NA,1,#FA92F8,#1CD855,10,10,1,38,1,1805.5999999940395,37,1,569.4000000059605,10,1,experiment,NA,NA,1,0.7,0.3,2,3,63,2,NA
fcp-trial,97,502263,0.0-72.0-0.0,voc_e2,11824,"[{""event"":""fullscreenenter"",""trial"":1,""time"":3222}]",NA,NA,NA,NA,NA,2,#741CD8,#D8271C,0,10,0,38,1,378.90000000596046,39,0,800.2999999970198,10,1,experiment,NA,NA,0,0.1,0.9,1,0,64,2,NA
fcp-trial,98,504992,0.0-73.0-0.0,voc_e2,11824,"[{""event"":""fullscreenenter"",""trial"":1,""time"":3222}]",NA,NA,NA,NA,NA,6,#D8271C,#741CD8,10,0,1,38,1,568.8999999910593,37,1,649.5,10,1,experiment,NA,NA,0,0.9,0.1,0,1,65,2,NA
fcp-trial,99,507853,0.0-74.0-0.0,voc_e2,11824,"[{""event"":""fullscreenenter"",""trial"":1,""time"":3222}]",NA,NA,NA,NA,NA,3,#3386FF,#D89F1C,0,0,1,38,1,561.5,37,1,790.1000000089407,0,1,experiment,NA,NA,2,0.5,0.5,4,5,66,2,NA
fcp-trial,100,510721,0.0-75.0-0.0,voc_e2,11824,"[{""event"":""fullscreenenter"",""trial"":1,""time"":3222}]",NA,NA,NA,NA,NA,5,#3386FF,#D89F1C,10,10,1,38,1,622.1999999880791,37,1,739,10,1,experiment,NA,NA,2,0.5,0.5,4,5,67,2,NA
fcp-trial,101,513508,0.0-76.0-0.0,voc_e2,11824,"[{""event"":""fullscreenenter"",""trial"":1,""time"":3222}]",NA,NA,NA,NA,NA,3,#1CD855,#FA92F8,0,10,0,38,1,710,39,0,565.5999999940395,10,1,experiment,NA,NA,1,0.3,0.7,3,2,68,2,NA
fcp-trial,102,516195,0.0-77.0-0.0,voc_e2,11824,"[{""event"":""fullscreenenter"",""trial"":1,""time"":3222}]",NA,NA,NA,NA,NA,4,#D89F1C,#3386FF,10,0,0,38,1,461.79999999701977,39,0,715.6000000089407,0,1,experiment,NA,NA,2,0.5,0.5,5,4,69,2,NA
fcp-trial,103,518976,0.0-78.0-0.0,voc_e2,11824,"[{""event"":""fullscreenenter"",""trial"":1,""time"":3222}]",NA,NA,NA,NA,NA,0,#741CD8,#D8271C,10,10,0,38,1,459.59999999403954,39,0,811.3999999910593,10,1,experiment,NA,NA,0,0.1,0.9,1,0,70,2,NA
fcp-trial,104,521794,0.0-79.0-0.0,voc_e2,11824,"[{""event"":""fullscreenenter"",""trial"":1,""time"":3222}]",NA,NA,NA,NA,NA,2,#FA92F8,#1CD855,10,10,1,38,1,632.6999999880791,37,1,673,10,1,experiment,NA,NA,1,0.7,0.3,2,3,71,2,NA
fcp-trial,105,524319,0.0-80.0-0.0,voc_e2,11824,"[{""event"":""fullscreenenter"",""trial"":1,""time"":3222}]",NA,NA,NA,NA,NA,0,#3386FF,#D89F1C,10,0,1,38,1,133.90000000596046,37,1,879,10,1,experiment,NA,NA,2,0.5,0.5,4,5,72,2,NA
fcp-trial,106,527216,0.0-81.0-0.0,voc_e2,11824,"[{""event"":""fullscreenenter"",""trial"":1,""time"":3222}]",NA,NA,NA,NA,NA,5,#1CD855,#FA92F8,0,10,0,38,1,644,39,0,739.7000000029802,10,1,experiment,NA,NA,1,0.3,0.7,3,2,73,2,NA
fcp-trial,107,530143,0.0-82.0-0.0,voc_e2,11824,"[{""event"":""fullscreenenter"",""trial"":1,""time"":3222}]",NA,NA,NA,NA,NA,3,#D8271C,#741CD8,10,0,1,38,1,556.7999999970198,37,1,859.2000000029802,10,1,experiment,NA,NA,0,0.9,0.1,0,1,74,2,NA
fcp-trial,108,533238,0.0-83.0-0.0,voc_e2,11824,"[{""event"":""fullscreenenter"",""trial"":1,""time"":3222}]",NA,NA,NA,NA,NA,4,#1CD855,#FA92F8,10,0,0,38,1,755.6000000089407,39,0,832,0,1,experiment,NA,NA,1,0.3,0.7,3,2,75,2,NA
fcp-trial,109,535918,0.0-84.0-0.0,voc_e2,11824,"[{""event"":""fullscreenenter"",""trial"":1,""time"":3222}]",NA,NA,NA,NA,NA,5,#741CD8,#D8271C,0,10,0,38,1,464.29999999701977,39,0,710,10,1,experiment,NA,NA,0,0.1,0.9,1,0,76,2,NA
fcp-trial,110,538724,0.0-85.0-0.0,voc_e2,11824,"[{""event"":""fullscreenenter"",""trial"":1,""time"":3222}]",NA,NA,NA,NA,NA,6,#3386FF,#D89F1C,10,0,1,38,1,469.8999999910593,37,1,826.1999999880791,10,1,experiment,NA,NA,2,0.5,0.5,4,5,77,2,NA
fcp-trial,111,541447,0.0-86.0-0.0,voc_e2,11824,"[{""event"":""fullscreenenter"",""trial"":1,""time"":3222}]",NA,NA,NA,NA,NA,1,#D89F1C,#3386FF,0,0,0,38,1,411.40000000596046,39,0,804.4000000059605,0,1,experiment,NA,NA,2,0.5,0.5,5,4,78,2,NA
fcp-trial,112,544050,0.0-87.0-0.0,voc_e2,11824,"[{""event"":""fullscreenenter"",""trial"":1,""time"":3222}]",NA,NA,NA,NA,NA,0,#FA92F8,#1CD855,0,10,1,38,1,401.90000000596046,37,1,694.3000000119209,0,1,experiment,NA,NA,1,0.7,0.3,2,3,79,2,NA
fcp-trial,113,547203,0.0-88.0-0.0,voc_e2,11824,"[{""event"":""fullscreenenter"",""trial"":1,""time"":3222}]",NA,NA,NA,NA,NA,1,#1CD855,#FA92F8,0,10,0,38,1,657.3999999910593,37,1,986.9000000059605,0,0,experiment,NA,NA,1,0.3,0.7,3,2,80,2,NA
fcp-trial,114,550196,0.0-89.0-0.0,voc_e2,11824,"[{""event"":""fullscreenenter"",""trial"":1,""time"":3222}]",NA,NA,NA,NA,NA,1,#D8271C,#741CD8,0,0,1,38,1,605.2999999970198,37,1,878.9000000059605,0,1,experiment,NA,NA,0,0.9,0.1,0,1,81,2,NA
fcp-trial,115,552957,0.0-90.0-0.0,voc_e2,11824,"[{""event"":""fullscreenenter"",""trial"":1,""time"":3222}]",NA,NA,NA,NA,NA,6,#1CD855,#FA92F8,10,10,0,38,1,631.9000000059605,39,0,620.0999999940395,10,1,experiment,NA,NA,1,0.3,0.7,3,2,82,2,NA
fcp-trial,116,555560,0.0-91.0-0.0,voc_e2,11824,"[{""event"":""fullscreenenter"",""trial"":1,""time"":3222}]",NA,NA,NA,NA,NA,2,#D89F1C,#3386FF,10,0,0,38,1,343.09999999403954,39,0,751.7999999970198,0,1,experiment,NA,NA,2,0.5,0.5,5,4,83,2,NA
fcp-trial,117,558173,0.0-92.0-0.0,voc_e2,11824,"[{""event"":""fullscreenenter"",""trial"":1,""time"":3222}]",NA,NA,NA,NA,NA,4,#D8271C,#741CD8,10,0,1,38,1,342.40000000596046,37,1,762.2999999970198,10,1,experiment,NA,NA,0,0.9,0.1,0,1,84,2,NA
fcp-trial,118,561313,0.0-93.0-0.0,voc_e2,11824,"[{""event"":""fullscreenenter"",""trial"":1,""time"":3222}]",NA,NA,NA,NA,NA,5,#FA92F8,#1CD855,10,10,1,38,1,961.0999999940395,37,1,670.3000000119209,10,1,experiment,NA,NA,1,0.7,0.3,2,3,85,2,NA
fcp-trial,119,563919,0.0-94.0-0.0,voc_e2,11824,"[{""event"":""fullscreenenter"",""trial"":1,""time"":3222}]",NA,NA,NA,NA,NA,4,#FA92F8,#1CD855,10,0,1,38,1,510.79999999701977,37,1,583,10,1,experiment,NA,NA,1,0.7,0.3,2,3,86,2,NA
fcp-trial,120,566973,0.0-95.0-0.0,voc_e2,11824,"[{""event"":""fullscreenenter"",""trial"":1,""time"":3222}]",NA,NA,NA,NA,NA,5,#D8271C,#741CD8,10,0,1,38,1,1002,37,1,545.5,10,1,experiment,NA,NA,0,0.9,0.1,0,1,87,2,NA
fcp-trial,121,569807,0.0-96.0-0.0,voc_e2,11824,"[{""event"":""fullscreenenter"",""trial"":1,""time"":3222}]",NA,NA,NA,NA,NA,6,#3386FF,#D89F1C,10,0,1,38,1,597.0999999940395,37,1,729,10,1,experiment,NA,NA,2,0.5,0.5,4,5,88,2,NA
fcp-trial,122,572516,0.0-97.0-0.0,voc_e2,11824,"[{""event"":""fullscreenenter"",""trial"":1,""time"":3222}]",NA,NA,NA,NA,NA,5,#3386FF,#D89F1C,10,0,1,38,1,628.7000000029802,37,1,570.4000000059605,10,1,experiment,NA,NA,2,0.5,0.5,4,5,89,2,NA
fcp-trial,123,575008,0.0-98.0-0.0,voc_e2,11824,"[{""event"":""fullscreenenter"",""trial"":1,""time"":3222}]",NA,NA,NA,NA,NA,6,#D8271C,#741CD8,10,0,1,38,1,483.20000000298023,37,1,499,10,1,experiment,NA,NA,0,0.9,0.1,0,1,90,2,NA
fcp-trial,124,578533,0.0-99.0-0.0,voc_e2,11824,"[{""event"":""fullscreenenter"",""trial"":1,""time"":3222}]",NA,NA,NA,NA,NA,1,#1CD855,#FA92F8,0,0,0,38,1,1386.2000000029802,39,0,631,0,1,experiment,NA,NA,1,0.3,0.7,3,2,91,3,NA
fcp-trial,125,580958,0.0-100.0-0.0,voc_e2,11824,"[{""event"":""fullscreenenter"",""trial"":1,""time"":3222}]",NA,NA,NA,NA,NA,3,#D8271C,#741CD8,10,0,1,38,1,136.29999999701977,37,1,775.7999999970198,10,1,experiment,NA,NA,0,0.9,0.1,0,1,92,3,NA
fcp-trial,126,583529,0.0-101.0-0.0,voc_e2,11824,"[{""event"":""fullscreenenter"",""trial"":1,""time"":3222}]",NA,NA,NA,NA,NA,6,#FA92F8,#1CD855,10,0,1,38,1,20.599999994039536,37,1,1040.2000000029802,10,1,experiment,NA,NA,1,0.7,0.3,2,3,93,3,NA
fcp-trial,127,586786,0.0-102.0-0.0,voc_e2,11824,"[{""event"":""fullscreenenter"",""trial"":1,""time"":3222}]",NA,NA,NA,NA,NA,4,#D89F1C,#3386FF,10,0,0,38,1,1029,39,0,717.7000000029802,0,1,experiment,NA,NA,2,0.5,0.5,5,4,94,3,NA
fcp-trial,128,589625,0.0-103.0-0.0,voc_e2,11824,"[{""event"":""fullscreenenter"",""trial"":1,""time"":3222}]",NA,NA,NA,NA,NA,4,#D8271C,#741CD8,10,0,1,38,1,478,37,1,848.2999999970198,10,1,experiment,NA,NA,0,0.9,0.1,0,1,95,3,NA
fcp-trial,129,592330,0.0-104.0-0.0,voc_e2,11824,"[{""event"":""fullscreenenter"",""trial"":1,""time"":3222}]",NA,NA,NA,NA,NA,1,#D89F1C,#3386FF,0,0,0,38,1,543,39,0,651.5,0,1,experiment,NA,NA,2,0.5,0.5,5,4,96,3,NA
fcp-trial,130,595325,0.0-105.0-0.0,voc_e2,11824,"[{""event"":""fullscreenenter"",""trial"":1,""time"":3222}]",NA,NA,NA,NA,NA,0,#FA92F8,#1CD855,0,0,1,38,1,619,37,1,864.7000000029802,0,1,experiment,NA,NA,1,0.7,0.3,2,3,97,3,NA
fcp-trial,131,598265,0.0-106.0-0.0,voc_e2,11824,"[{""event"":""fullscreenenter"",""trial"":1,""time"":3222}]",NA,NA,NA,NA,NA,0,#D89F1C,#3386FF,0,0,0,38,1,796.2000000029802,39,0,636.2999999970198,0,1,experiment,NA,NA,2,0.5,0.5,5,4,98,3,NA
fcp-trial,132,601412,0.0-107.0-0.0,voc_e2,11824,"[{""event"":""fullscreenenter"",""trial"":1,""time"":3222}]",NA,NA,NA,NA,NA,0,#D8271C,#741CD8,10,10,1,38,1,823.6000000089407,37,1,813.3999999910593,10,1,experiment,NA,NA,0,0.9,0.1,0,1,99,3,NA
fcp-trial,133,604381,0.0-108.0-0.0,voc_e2,11824,"[{""event"":""fullscreenenter"",""trial"":1,""time"":3222}]",NA,NA,NA,NA,NA,2,#FA92F8,#1CD855,10,0,1,38,1,789.2999999970198,37,1,669.5,10,1,experiment,NA,NA,1,0.7,0.3,2,3,100,3,NA
fcp-trial,134,607261,0.0-109.0-0.0,voc_e2,11824,"[{""event"":""fullscreenenter"",""trial"":1,""time"":3222}]",NA,NA,NA,NA,NA,2,#D89F1C,#3386FF,10,10,0,38,1,616.7999999970198,39,0,752.9000000059605,10,1,experiment,NA,NA,2,0.5,0.5,5,4,101,3,NA
fcp-trial,135,610217,0.0-110.0-0.0,voc_e2,11824,"[{""event"":""fullscreenenter"",""trial"":1,""time"":3222}]",NA,NA,NA,NA,NA,3,#D89F1C,#3386FF,10,10,0,38,1,693.7000000029802,39,0,753,10,1,experiment,NA,NA,2,0.5,0.5,5,4,102,3,NA
fcp-trial,136,612956,0.0-111.0-0.0,voc_e2,11824,"[{""event"":""fullscreenenter"",""trial"":1,""time"":3222}]",NA,NA,NA,NA,NA,1,#D8271C,#741CD8,10,0,1,38,1,567.5,37,1,663.9000000059605,10,1,experiment,NA,NA,0,0.9,0.1,0,1,103,3,NA
fcp-trial,137,615636,0.0-112.0-0.0,voc_e2,11824,"[{""event"":""fullscreenenter"",""trial"":1,""time"":3222}]",NA,NA,NA,NA,NA,2,#D8271C,#741CD8,10,0,1,38,1,527.8999999910593,37,1,645,10,1,experiment,NA,NA,0,0.9,0.1,0,1,104,3,NA
fcp-trial,138,618593,0.0-113.0-0.0,voc_e2,11824,"[{""event"":""fullscreenenter"",""trial"":1,""time"":3222}]",NA,NA,NA,NA,NA,3,#FA92F8,#1CD855,10,0,1,38,1,762.4000000059605,37,1,684.1000000089407,10,1,experiment,NA,NA,1,0.7,0.3,2,3,105,3,NA
audio-instructions,139,623953,0.0-114.0,voc_e2,11824,"[{""event"":""fullscreenenter"",""trial"":1,""time"":3222}]",NA,751.3999999910593,static/audio/pause.wav,NA,0,NA,NA,NA,NA,NA,NA,NA,NA,NA,NA,NA,NA,NA,NA,NA,NA,NA,NA,NA,NA,NA,NA,NA,NA,NA
fcp-trial,140,629239,0.0-115.0-0.0,voc_e2,11824,"[{""event"":""fullscreenenter"",""trial"":1,""time"":3222}]",NA,NA,NA,NA,NA,6,#741CD8,#D8271C,0,10,0,38,1,3109.1000000089407,39,0,667.0999999940395,10,1,experiment,NA,NA,0,0.1,0.9,1,0,106,3,NA
fcp-trial,141,632239,0.0-116.0-0.0,voc_e2,11824,"[{""event"":""fullscreenenter"",""trial"":1,""time"":3222}]",NA,NA,NA,NA,NA,2,#1CD855,#FA92F8,0,10,0,38,1,623,37,1,868.2000000029802,0,0,experiment,NA,NA,1,0.3,0.7,3,2,107,3,NA
fcp-trial,142,634933,0.0-117.0-0.0,voc_e2,11824,"[{""event"":""fullscreenenter"",""trial"":1,""time"":3222}]",NA,NA,NA,NA,NA,1,#1CD855,#FA92F8,10,10,0,38,1,623.7000000029802,39,0,561.7999999970198,10,1,experiment,NA,NA,1,0.3,0.7,3,2,108,3,NA
fcp-trial,143,637661,0.0-118.0-0.0,voc_e2,11824,"[{""event"":""fullscreenenter"",""trial"":1,""time"":3222}]",NA,NA,NA,NA,NA,1,#741CD8,#D8271C,0,0,0,38,1,525,39,0,693.2000000029802,0,1,experiment,NA,NA,0,0.1,0.9,1,0,109,3,NA
fcp-trial,144,640521,0.0-119.0-0.0,voc_e2,11824,"[{""event"":""fullscreenenter"",""trial"":1,""time"":3222}]",NA,NA,NA,NA,NA,6,#3386FF,#D89F1C,0,0,1,38,1,622.0999999940395,37,1,727.2999999970198,0,1,experiment,NA,NA,2,0.5,0.5,4,5,110,3,NA
fcp-trial,145,643075,0.0-120.0-0.0,voc_e2,11824,"[{""event"":""fullscreenenter"",""trial"":1,""time"":3222}]",NA,NA,NA,NA,NA,1,#3386FF,#D89F1C,10,10,1,38,1,466.19999998807907,37,1,579.5,10,1,experiment,NA,NA,2,0.5,0.5,4,5,111,3,NA
fcp-trial,146,647838,0.0-121.0-0.0,voc_e2,11824,"[{""event"":""fullscreenenter"",""trial"":1,""time"":3222}]",NA,NA,NA,NA,NA,5,#1CD855,#FA92F8,0,0,0,38,1,2250.1000000089407,39,0,1000.3000000119209,0,1,experiment,NA,NA,1,0.3,0.7,3,2,112,3,NA
fcp-trial,147,650816,0.0-122.0-0.0,voc_e2,11824,"[{""event"":""fullscreenenter"",""trial"":1,""time"":3222}]",NA,NA,NA,NA,NA,2,#741CD8,#D8271C,0,10,0,38,1,800.1000000089407,39,0,665.7999999970198,10,1,experiment,NA,NA,0,0.1,0.9,1,0,113,3,NA
fcp-trial,148,653651,0.0-123.0-0.0,voc_e2,11824,"[{""event"":""fullscreenenter"",""trial"":1,""time"":3222}]",NA,NA,NA,NA,NA,0,#3386FF,#D89F1C,0,0,1,38,1,652.3999999910593,37,1,674.2000000029802,0,1,experiment,NA,NA,2,0.5,0.5,4,5,114,3,NA
fcp-trial,149,656720,0.0-124.0-0.0,voc_e2,11824,"[{""event"":""fullscreenenter"",""trial"":1,""time"":3222}]",NA,NA,NA,NA,NA,5,#3386FF,#D89F1C,10,0,1,38,1,769.7000000029802,37,1,790.7999999970198,10,1,experiment,NA,NA,2,0.5,0.5,4,5,115,3,NA
fcp-trial,150,659403,0.0-125.0-0.0,voc_e2,11824,"[{""event"":""fullscreenenter"",""trial"":1,""time"":3222}]",NA,NA,NA,NA,NA,3,#1CD855,#FA92F8,10,0,0,38,1,553.4000000059605,39,0,619.2999999970198,0,1,experiment,NA,NA,1,0.3,0.7,3,2,116,3,NA
fcp-trial,151,662188,0.0-126.0-0.0,voc_e2,11824,"[{""event"":""fullscreenenter"",""trial"":1,""time"":3222}]",NA,NA,NA,NA,NA,6,#FA92F8,#1CD855,0,0,1,38,1,553.4000000059605,37,1,721,0,1,experiment,NA,NA,1,0.7,0.3,2,3,117,3,NA
fcp-trial,152,665642,0.0-127.0-0.0,voc_e2,11824,"[{""event"":""fullscreenenter"",""trial"":1,""time"":3222}]",NA,NA,NA,NA,NA,5,#D8271C,#741CD8,10,0,1,38,1,839.3999999910593,37,1,1104.5,10,1,experiment,NA,NA,0,0.9,0.1,0,1,118,3,NA
fcp-trial,153,669133,0.0-128.0-0.0,voc_e2,11824,"[{""event"":""fullscreenenter"",""trial"":1,""time"":3222}]",NA,NA,NA,NA,NA,4,#1CD855,#FA92F8,0,10,0,38,1,1052.4000000059605,39,0,928.5,10,1,experiment,NA,NA,1,0.3,0.7,3,2,119,3,NA
fcp-trial,154,672411,0.0-129.0-0.0,voc_e2,11824,"[{""event"":""fullscreenenter"",""trial"":1,""time"":3222}]",NA,NA,NA,NA,NA,2,#D89F1C,#3386FF,0,10,0,38,1,931.8999999910593,39,0,835,10,1,experiment,NA,NA,2,0.5,0.5,5,4,120,3,NA
fcp-trial,155,675866,0.0-130.0-0.0,voc_e2,11824,"[{""event"":""fullscreenenter"",""trial"":1,""time"":3222}]",NA,NA,NA,NA,NA,4,#741CD8,#D8271C,0,10,0,38,1,890.1000000089407,39,0,1054.2000000029802,10,1,experiment,NA,NA,0,0.1,0.9,1,0,121,3,NA
fcp-trial,156,678852,0.0-131.0-0.0,voc_e2,11824,"[{""event"":""fullscreenenter"",""trial"":1,""time"":3222}]",NA,NA,NA,NA,NA,0,#FA92F8,#1CD855,10,0,1,38,1,709.7000000029802,37,1,764.2000000029802,10,1,experiment,NA,NA,1,0.7,0.3,2,3,122,3,NA
fcp-trial,157,681538,0.0-132.0-0.0,voc_e2,11824,"[{""event"":""fullscreenenter"",""trial"":1,""time"":3222}]",NA,NA,NA,NA,NA,3,#741CD8,#D8271C,0,10,0,38,1,403.70000000298023,39,0,775,10,1,experiment,NA,NA,0,0.1,0.9,1,0,123,3,NA
fcp-trial,158,684696,0.0-133.0-0.0,voc_e2,11824,"[{""event"":""fullscreenenter"",""trial"":1,""time"":3222}]",NA,NA,NA,NA,NA,3,#D89F1C,#3386FF,10,0,0,38,1,829.7999999970198,39,0,819.0999999940395,0,1,experiment,NA,NA,2,0.5,0.5,5,4,124,3,NA
fcp-trial,159,688328,0.0-134.0-0.0,voc_e2,11824,"[{""event"":""fullscreenenter"",""trial"":1,""time"":3222}]",NA,NA,NA,NA,NA,4,#D89F1C,#3386FF,10,10,0,38,1,1297.5,39,0,824.2999999970198,10,1,experiment,NA,NA,2,0.5,0.5,5,4,125,3,NA
fcp-trial,160,691094,0.0-135.0-0.0,voc_e2,11824,"[{""event"":""fullscreenenter"",""trial"":1,""time"":3222}]",NA,NA,NA,NA,NA,0,#D8271C,#741CD8,0,0,1,38,1,551.8999999910593,37,1,707.7000000029802,0,1,experiment,NA,NA,0,0.9,0.1,0,1,126,3,NA
fcp-trial,161,693922,0.0-136.0-0.0,voc_e2,11824,"[{""event"":""fullscreenenter"",""trial"":1,""time"":3222}]",NA,NA,NA,NA,NA,6,#741CD8,#D8271C,0,10,0,38,1,542.8999999910593,39,0,776.7000000029802,10,1,experiment,NA,NA,0,0.1,0.9,1,0,127,3,NA
fcp-trial,162,696689,0.0-137.0-0.0,voc_e2,11824,"[{""event"":""fullscreenenter"",""trial"":1,""time"":3222}]",NA,NA,NA,NA,NA,3,#3386FF,#D89F1C,10,10,1,38,1,504.69999998807907,37,1,748.9000000059605,10,1,experiment,NA,NA,2,0.5,0.5,4,5,128,3,NA
fcp-trial,163,699505,0.0-138.0-0.0,voc_e2,11824,"[{""event"":""fullscreenenter"",""trial"":1,""time"":3222}]",NA,NA,NA,NA,NA,3,#D8271C,#741CD8,10,10,1,38,1,496.8999999910593,37,1,810.6000000089407,10,1,experiment,NA,NA,0,0.9,0.1,0,1,129,3,NA
fcp-trial,164,702545,0.0-139.0-0.0,voc_e2,11824,"[{""event"":""fullscreenenter"",""trial"":1,""time"":3222}]",NA,NA,NA,NA,NA,1,#D89F1C,#3386FF,10,10,0,38,1,728.2000000029802,39,0,801,10,1,experiment,NA,NA,2,0.5,0.5,5,4,130,3,NA
fcp-trial,165,705366,0.0-140.0-0.0,voc_e2,11824,"[{""event"":""fullscreenenter"",""trial"":1,""time"":3222}]",NA,NA,NA,NA,NA,1,#1CD855,#FA92F8,0,10,0,38,1,459.29999999701977,39,0,854,10,1,experiment,NA,NA,1,0.3,0.7,3,2,131,3,NA
fcp-trial,166,708452,0.0-141.0-0.0,voc_e2,11824,"[{""event"":""fullscreenenter"",""trial"":1,""time"":3222}]",NA,NA,NA,NA,NA,4,#FA92F8,#1CD855,10,10,1,38,1,809,37,1,764.4000000059605,10,1,experiment,NA,NA,1,0.7,0.3,2,3,132,3,NA
fcp-trial,167,711476,0.0-142.0-0.0,voc_e2,11824,"[{""event"":""fullscreenenter"",""trial"":1,""time"":3222}]",NA,NA,NA,NA,NA,1,#D8271C,#741CD8,10,0,1,38,1,645.1000000089407,37,1,869.2000000029802,10,1,experiment,NA,NA,0,0.9,0.1,0,1,133,3,NA
fcp-trial,168,714556,0.0-143.0-0.0,voc_e2,11824,"[{""event"":""fullscreenenter"",""trial"":1,""time"":3222}]",NA,NA,NA,NA,NA,0,#D8271C,#741CD8,10,0,1,38,1,758.7000000029802,37,1,814.9000000059605,10,1,experiment,NA,NA,0,0.9,0.1,0,1,134,3,NA
fcp-trial,169,717895,0.0-144.0-0.0,voc_e2,11824,"[{""event"":""fullscreenenter"",""trial"":1,""time"":3222}]",NA,NA,NA,NA,NA,2,#D89F1C,#3386FF,0,0,0,38,1,1136.5,39,0,692.8999999910593,0,1,experiment,NA,NA,2,0.5,0.5,5,4,135,3,NA
fcp-trial,170,722562,0.0-145.0-0.0,voc_e2,11824,"[{""event"":""fullscreenenter"",""trial"":1,""time"":3222}]",NA,NA,NA,NA,NA,5,#1CD855,#FA92F8,0,10,0,38,1,2357.4000000059605,39,0,802.7999999970198,10,1,experiment,NA,NA,1,0.3,0.7,3,2,136,4,NA
fcp-trial,171,726344,0.0-146.0-0.0,voc_e2,11824,"[{""event"":""fullscreenenter"",""trial"":1,""time"":3222}]",NA,NA,NA,NA,NA,0,#D89F1C,#3386FF,0,10,0,38,1,1430.3999999910593,39,0,844.2999999970198,10,1,experiment,NA,NA,2,0.5,0.5,5,4,137,4,NA
fcp-trial,172,729920,0.0-147.0-0.0,voc_e2,11824,"[{""event"":""fullscreenenter"",""trial"":1,""time"":3222}]",NA,NA,NA,NA,NA,3,#1CD855,#FA92F8,10,10,0,38,1,1222.6000000089407,39,0,840.7000000029802,10,1,experiment,NA,NA,1,0.3,0.7,3,2,138,4,NA
fcp-trial,173,733065,0.0-148.0-0.0,voc_e2,11824,"[{""event"":""fullscreenenter"",""trial"":1,""time"":3222}]",NA,NA,NA,NA,NA,4,#D8271C,#741CD8,10,0,1,38,1,939.2000000029802,37,1,696.6999999880791,10,1,experiment,NA,NA,0,0.9,0.1,0,1,139,4,NA
fcp-trial,174,735834,0.0-149.0-0.0,voc_e2,11824,"[{""event"":""fullscreenenter"",""trial"":1,""time"":3222}]",NA,NA,NA,NA,NA,6,#FA92F8,#1CD855,10,0,1,38,1,563.2999999970198,37,1,692.2999999970198,10,1,experiment,NA,NA,1,0.7,0.3,2,3,140,4,NA
fcp-trial,175,739148,0.0-150.0-0.0,voc_e2,11824,"[{""event"":""fullscreenenter"",""trial"":1,""time"":3222}]",NA,NA,NA,NA,NA,5,#D89F1C,#3386FF,10,10,0,38,1,948.2000000029802,39,0,854.8999999910593,10,1,experiment,NA,NA,2,0.5,0.5,5,4,141,4,NA
fcp-trial,176,742060,0.0-151.0-0.0,voc_e2,11824,"[{""event"":""fullscreenenter"",""trial"":1,""time"":3222}]",NA,NA,NA,NA,NA,0,#FA92F8,#1CD855,10,0,1,38,1,658.7000000029802,37,1,743.8000000119209,10,1,experiment,NA,NA,1,0.7,0.3,2,3,142,4,NA
fcp-trial,177,744460,0.0-152.0-0.0,voc_e2,11824,"[{""event"":""fullscreenenter"",""trial"":1,""time"":3222}]",NA,NA,NA,NA,NA,2,#741CD8,#D8271C,0,10,0,38,1,178.8999999910593,39,0,711.3999999910593,10,1,experiment,NA,NA,0,0.1,0.9,1,0,143,4,NA
fcp-trial,178,747316,0.0-153.0-0.0,voc_e2,11824,"[{""event"":""fullscreenenter"",""trial"":1,""time"":3222}]",NA,NA,NA,NA,NA,4,#3386FF,#D89F1C,10,10,1,38,1,550.2000000029802,37,1,795.6999999880791,10,1,experiment,NA,NA,2,0.5,0.5,4,5,144,4,NA
fcp-trial,179,750678,0.0-154.0-0.0,voc_e2,11824,"[{""event"":""fullscreenenter"",""trial"":1,""time"":3222}]",NA,NA,NA,NA,NA,2,#1CD855,#FA92F8,0,10,0,38,1,763.2999999970198,39,0,1090.2000000029802,10,1,experiment,NA,NA,1,0.3,0.7,3,2,145,4,NA
fcp-trial,180,753937,0.0-155.0-0.0,voc_e2,11824,"[{""event"":""fullscreenenter"",""trial"":1,""time"":3222}]",NA,NA,NA,NA,NA,6,#D89F1C,#3386FF,0,0,0,38,1,875.5,39,0,875.1000000089407,0,1,experiment,NA,NA,2,0.5,0.5,5,4,146,4,NA
fcp-trial,181,757062,0.0-156.0-0.0,voc_e2,11824,"[{""event"":""fullscreenenter"",""trial"":1,""time"":3222}]",NA,NA,NA,NA,NA,5,#741CD8,#D8271C,0,10,0,38,1,795.7000000029802,39,0,820,10,1,experiment,NA,NA,0,0.1,0.9,1,0,147,4,NA
fcp-trial,182,759805,0.0-157.0-0.0,voc_e2,11824,"[{""event"":""fullscreenenter"",""trial"":1,""time"":3222}]",NA,NA,NA,NA,NA,6,#D89F1C,#3386FF,0,0,0,38,1,484.79999999701977,39,0,749.8000000119209,0,1,experiment,NA,NA,2,0.5,0.5,5,4,148,4,NA
fcp-trial,183,762444,0.0-158.0-0.0,voc_e2,11824,"[{""event"":""fullscreenenter"",""trial"":1,""time"":3222}]",NA,NA,NA,NA,NA,4,#FA92F8,#1CD855,10,0,1,38,1,487,37,1,642.5,10,1,experiment,NA,NA,1,0.7,0.3,2,3,149,4,NA
fcp-trial,184,765678,0.0-159.0-0.0,voc_e2,11824,"[{""event"":""fullscreenenter"",""trial"":1,""time"":3222}]",NA,NA,NA,NA,NA,3,#D8271C,#741CD8,0,0,1,38,1,710.3000000119209,37,1,1016.4000000059605,0,1,experiment,NA,NA,0,0.9,0.1,0,1,150,4,NA
fcp-trial,185,768134,0.0-160.0-0.0,voc_e2,11824,"[{""event"":""fullscreenenter"",""trial"":1,""time"":3222}]",NA,NA,NA,NA,NA,6,#741CD8,#D8271C,0,10,0,38,1,303.70000000298023,39,0,641.2999999970198,10,1,experiment,NA,NA,0,0.1,0.9,1,0,151,4,NA
fcp-trial,186,771913,0.0-161.0-0.0,voc_e2,11824,"[{""event"":""fullscreenenter"",""trial"":1,""time"":3222}]",NA,NA,NA,NA,NA,1,#3386FF,#D89F1C,10,10,1,38,1,636.0999999940395,37,1,1633.0999999940395,10,1,experiment,NA,NA,2,0.5,0.5,4,5,152,4,NA
fcp-trial,187,774798,0.0-162.0-0.0,voc_e2,11824,"[{""event"":""fullscreenenter"",""trial"":1,""time"":3222}]",NA,NA,NA,NA,NA,4,#D8271C,#741CD8,10,0,1,38,1,516,37,1,857.6000000089407,10,1,experiment,NA,NA,0,0.9,0.1,0,1,153,4,NA
fcp-trial,188,789808,0.0-163.0-0.0,voc_e2,11824,"[{""event"":""fullscreenenter"",""trial"":1,""time"":3222}]",NA,NA,NA,NA,NA,0,#FA92F8,#1CD855,10,0,1,null,null,null,null,null,null,NA,0,experiment,NA,NA,1,0.7,0.3,2,3,154,4,NA
fcp-trial,189,795538,0.0-164.0-0.0,voc_e2,11824,"[{""event"":""fullscreenenter"",""trial"":1,""time"":3222}]",NA,NA,NA,NA,NA,3,#1CD855,#FA92F8,10,10,0,38,1,3631.4000000059605,39,0,588,10,1,experiment,NA,NA,1,0.3,0.7,3,2,155,4,NA
fcp-trial,190,800179,0.0-165.0-0.0,voc_e2,11824,"[{""event"":""fullscreenenter"",""trial"":1,""time"":3222}]",NA,NA,NA,NA,NA,5,#D89F1C,#3386FF,10,0,0,38,1,2488,39,0,641.4000000059605,0,1,experiment,NA,NA,2,0.5,0.5,5,4,156,4,NA
fcp-trial,191,803449,0.0-166.0-0.0,voc_e2,11824,"[{""event"":""fullscreenenter"",""trial"":1,""time"":3222}]",NA,NA,NA,NA,NA,6,#FA92F8,#1CD855,0,0,1,38,1,1266.6000000089407,37,1,486.09999999403954,0,1,experiment,NA,NA,1,0.7,0.3,2,3,157,4,NA
fcp-trial,192,806482,0.0-167.0-0.0,voc_e2,11824,"[{""event"":""fullscreenenter"",""trial"":1,""time"":3222}]",NA,NA,NA,NA,NA,0,#741CD8,#D8271C,0,0,0,38,1,884.7000000029802,39,0,639.5,0,1,experiment,NA,NA,0,0.1,0.9,1,0,158,4,NA
fcp-trial,193,809226,0.0-168.0-0.0,voc_e2,11824,"[{""event"":""fullscreenenter"",""trial"":1,""time"":3222}]",NA,NA,NA,NA,NA,2,#FA92F8,#1CD855,10,0,1,38,1,478.09999999403954,37,1,760,10,1,experiment,NA,NA,1,0.7,0.3,2,3,159,4,NA
fcp-trial,194,812197,0.0-169.0-0.0,voc_e2,11824,"[{""event"":""fullscreenenter"",""trial"":1,""time"":3222}]",NA,NA,NA,NA,NA,0,#3386FF,#D89F1C,0,10,1,38,1,672.4000000059605,37,1,790.7000000029802,0,1,experiment,NA,NA,2,0.5,0.5,4,5,160,4,NA
fcp-trial,195,815120,0.0-170.0-0.0,voc_e2,11824,"[{""event"":""fullscreenenter"",""trial"":1,""time"":3222}]",NA,NA,NA,NA,NA,5,#D8271C,#741CD8,10,0,1,38,1,471.80000001192093,37,1,945.0999999940395,10,1,experiment,NA,NA,0,0.9,0.1,0,1,161,4,NA
fcp-trial,196,819028,0.0-171.0-0.0,voc_e2,11824,"[{""event"":""fullscreenenter"",""trial"":1,""time"":3222}]",NA,NA,NA,NA,NA,4,#D89F1C,#3386FF,0,10,0,38,1,1451,39,0,948.5,10,1,experiment,NA,NA,2,0.5,0.5,5,4,162,4,NA
fcp-trial,197,822014,0.0-172.0-0.0,voc_e2,11824,"[{""event"":""fullscreenenter"",""trial"":1,""time"":3222}]",NA,NA,NA,NA,NA,1,#741CD8,#D8271C,0,10,0,38,1,617,39,0,861.0999999940395,10,1,experiment,NA,NA,0,0.1,0.9,1,0,163,4,NA
fcp-trial,198,825100,0.0-173.0-0.0,voc_e2,11824,"[{""event"":""fullscreenenter"",""trial"":1,""time"":3222}]",NA,NA,NA,NA,NA,5,#1CD855,#FA92F8,0,10,0,38,1,640.5999999940395,39,0,939.2000000029802,10,1,experiment,NA,NA,1,0.3,0.7,3,2,164,4,NA
fcp-trial,199,827813,0.0-174.0-0.0,voc_e2,11824,"[{""event"":""fullscreenenter"",""trial"":1,""time"":3222}]",NA,NA,NA,NA,NA,3,#D89F1C,#3386FF,0,0,0,38,1,411.70000000298023,39,0,788.2999999970198,0,1,experiment,NA,NA,2,0.5,0.5,5,4,165,4,NA
fcp-trial,200,830459,0.0-175.0-0.0,voc_e2,11824,"[{""event"":""fullscreenenter"",""trial"":1,""time"":3222}]",NA,NA,NA,NA,NA,2,#D8271C,#741CD8,10,0,1,38,1,428.8999999910593,37,1,708.5999999940395,10,1,experiment,NA,NA,0,0.9,0.1,0,1,166,4,NA
fcp-trial,201,833214,0.0-176.0-0.0,voc_e2,11824,"[{""event"":""fullscreenenter"",""trial"":1,""time"":3222}]",NA,NA,NA,NA,NA,1,#1CD855,#FA92F8,0,0,0,38,1,449.40000000596046,39,0,798.5,0,1,experiment,NA,NA,1,0.3,0.7,3,2,167,4,NA
fcp-trial,202,835914,0.0-177.0-0.0,voc_e2,11824,"[{""event"":""fullscreenenter"",""trial"":1,""time"":3222}]",NA,NA,NA,NA,NA,2,#3386FF,#D89F1C,0,0,1,38,1,476.5,37,1,713.2999999970198,0,1,experiment,NA,NA,2,0.5,0.5,4,5,168,4,NA
fcp-trial,203,838510,0.0-178.0-0.0,voc_e2,11824,"[{""event"":""fullscreenenter"",""trial"":1,""time"":3222}]",NA,NA,NA,NA,NA,0,#FA92F8,#1CD855,10,10,1,38,1,423.20000000298023,37,1,666.2000000029802,10,1,experiment,NA,NA,1,0.7,0.3,2,3,169,4,NA
fcp-trial,204,841178,0.0-179.0-0.0,voc_e2,11824,"[{""event"":""fullscreenenter"",""trial"":1,""time"":3222}]",NA,NA,NA,NA,NA,6,#FA92F8,#1CD855,10,0,1,38,1,469.29999999701977,37,1,690.7999999970198,10,1,experiment,NA,NA,1,0.7,0.3,2,3,170,4,NA
fcp-trial,205,843992,0.0-180.0-0.0,voc_e2,11824,"[{""event"":""fullscreenenter"",""trial"":1,""time"":3222}]",NA,NA,NA,NA,NA,1,#1CD855,#FA92F8,0,10,0,38,1,658.7999999970198,39,0,650.5,10,1,experiment,NA,NA,1,0.3,0.7,3,2,171,4,NA
fcp-trial,206,846884,0.0-181.0-0.0,voc_e2,11824,"[{""event"":""fullscreenenter"",""trial"":1,""time"":3222}]",NA,NA,NA,NA,NA,1,#741CD8,#D8271C,0,10,0,38,1,713.7000000029802,39,0,670.7000000029802,10,1,experiment,NA,NA,0,0.1,0.9,1,0,172,4,NA
fcp-trial,207,849429,0.0-182.0-0.0,voc_e2,11824,"[{""event"":""fullscreenenter"",""trial"":1,""time"":3222}]",NA,NA,NA,NA,NA,6,#3386FF,#D89F1C,0,0,1,38,1,124,37,1,911.7999999970198,0,1,experiment,NA,NA,2,0.5,0.5,4,5,173,4,NA
fcp-trial,208,852098,0.0-183.0-0.0,voc_e2,11824,"[{""event"":""fullscreenenter"",""trial"":1,""time"":3222}]",NA,NA,NA,NA,NA,2,#1CD855,#FA92F8,0,10,0,38,1,527.3000000119209,39,0,632.9000000059605,10,1,experiment,NA,NA,1,0.3,0.7,3,2,174,4,NA
fcp-trial,209,854678,0.0-184.0-0.0,voc_e2,11824,"[{""event"":""fullscreenenter"",""trial"":1,""time"":3222}]",NA,NA,NA,NA,NA,3,#741CD8,#D8271C,0,10,0,38,1,454.19999998807907,39,0,618.2999999970198,10,1,experiment,NA,NA,0,0.1,0.9,1,0,175,4,NA
fcp-trial,210,857516,0.0-185.0-0.0,voc_e2,11824,"[{""event"":""fullscreenenter"",""trial"":1,""time"":3222}]",NA,NA,NA,NA,NA,4,#3386FF,#D89F1C,10,10,1,38,1,491.70000000298023,37,1,839.5,10,1,experiment,NA,NA,2,0.5,0.5,4,5,176,4,NA
fcp-trial,211,860460,0.0-186.0-0.0,voc_e2,11824,"[{""event"":""fullscreenenter"",""trial"":1,""time"":3222}]",NA,NA,NA,NA,NA,1,#3386FF,#D89F1C,10,0,1,38,1,482.3999999910593,37,1,954,10,1,experiment,NA,NA,2,0.5,0.5,4,5,177,4,NA
fcp-trial,212,863010,0.0-187.0-0.0,voc_e2,11824,"[{""event"":""fullscreenenter"",""trial"":1,""time"":3222}]",NA,NA,NA,NA,NA,4,#FA92F8,#1CD855,10,0,1,38,1,452.70000000298023,37,1,590.3999999910593,10,1,experiment,NA,NA,1,0.7,0.3,2,3,178,4,NA
fcp-trial,213,865644,0.0-188.0-0.0,voc_e2,11824,"[{""event"":""fullscreenenter"",""trial"":1,""time"":3222}]",NA,NA,NA,NA,NA,4,#741CD8,#D8271C,0,10,0,38,1,47.6000000089407,39,0,1079.5999999940395,10,1,experiment,NA,NA,0,0.1,0.9,1,0,179,4,NA
fcp-trial,214,870173,0.0-189.0-0.0,voc_e2,11824,"[{""event"":""fullscreenenter"",""trial"":1,""time"":3222}]",NA,NA,NA,NA,NA,0,#D8271C,#741CD8,10,0,1,38,1,2227.4000000059605,37,1,791.8999999910593,10,1,experiment,NA,NA,0,0.9,0.1,0,1,180,4,NA
fcp-trial,215,872969,0.0-190.0-0.0,voc_e2,11824,"[{""event"":""fullscreenenter"",""trial"":1,""time"":3222}]",NA,NA,NA,NA,NA,2,#D89F1C,#3386FF,10,10,0,38,1,450.90000000596046,39,0,835.3999999910593,10,1,experiment,NA,NA,2,0.5,0.5,5,4,181,5,NA
fcp-trial,216,875744,0.0-191.0-0.0,voc_e2,11824,"[{""event"":""fullscreenenter"",""trial"":1,""time"":3222}]",NA,NA,NA,NA,NA,6,#741CD8,#D8271C,0,10,0,38,1,535.2000000029802,39,0,731,10,1,experiment,NA,NA,0,0.1,0.9,1,0,182,5,NA
fcp-trial,217,878715,0.0-192.0-0.0,voc_e2,11824,"[{""event"":""fullscreenenter"",""trial"":1,""time"":3222}]",NA,NA,NA,NA,NA,3,#FA92F8,#1CD855,10,0,1,38,1,502.20000000298023,37,1,954.8999999910593,10,1,experiment,NA,NA,1,0.7,0.3,2,3,183,5,NA
fcp-trial,218,881526,0.0-193.0-0.0,voc_e2,11824,"[{""event"":""fullscreenenter"",""trial"":1,""time"":3222}]",NA,NA,NA,NA,NA,0,#3386FF,#D89F1C,10,10,1,38,1,691.2000000029802,37,1,612.7999999970198,10,1,experiment,NA,NA,2,0.5,0.5,4,5,184,5,NA
fcp-trial,219,884615,0.0-194.0-0.0,voc_e2,11824,"[{""event"":""fullscreenenter"",""trial"":1,""time"":3222}]",NA,NA,NA,NA,NA,5,#1CD855,#FA92F8,10,0,0,38,1,976.3999999910593,39,0,604.7000000029802,0,1,experiment,NA,NA,1,0.3,0.7,3,2,185,5,NA
fcp-trial,220,888330,0.0-195.0-0.0,voc_e2,11824,"[{""event"":""fullscreenenter"",""trial"":1,""time"":3222}]",NA,NA,NA,NA,NA,2,#D8271C,#741CD8,10,0,1,38,1,1591.5999999940395,37,1,615.3999999910593,10,1,experiment,NA,NA,0,0.9,0.1,0,1,186,5,NA
fcp-trial,221,890944,0.0-196.0-0.0,voc_e2,11824,"[{""event"":""fullscreenenter"",""trial"":1,""time"":3222}]",NA,NA,NA,NA,NA,3,#D89F1C,#3386FF,0,10,0,38,1,417.1000000089407,39,0,690,10,1,experiment,NA,NA,2,0.5,0.5,5,4,187,5,NA
fcp-trial,222,893711,0.0-197.0-0.0,voc_e2,11824,"[{""event"":""fullscreenenter"",""trial"":1,""time"":3222}]",NA,NA,NA,NA,NA,5,#3386FF,#D89F1C,10,0,1,38,1,520.7999999970198,37,1,736.6000000089407,10,1,experiment,NA,NA,2,0.5,0.5,4,5,188,5,NA
fcp-trial,223,896461,0.0-198.0-0.0,voc_e2,11824,"[{""event"":""fullscreenenter"",""trial"":1,""time"":3222}]",NA,NA,NA,NA,NA,5,#D8271C,#741CD8,10,0,1,38,1,595,37,1,647.5,10,1,experiment,NA,NA,0,0.9,0.1,0,1,189,5,NA
fcp-trial,224,899403,0.0-199.0-0.0,voc_e2,11824,"[{""event"":""fullscreenenter"",""trial"":1,""time"":3222}]",NA,NA,NA,NA,NA,2,#FA92F8,#1CD855,0,0,1,38,1,444.80000001192093,37,1,989.0999999940395,0,1,experiment,NA,NA,1,0.7,0.3,2,3,190,5,NA
fcp-trial,225,901920,0.0-200.0-0.0,voc_e2,11824,"[{""event"":""fullscreenenter"",""trial"":1,""time"":3222}]",NA,NA,NA,NA,NA,5,#741CD8,#D8271C,0,10,0,38,1,335.6000000089407,39,0,670.3999999910593,10,1,experiment,NA,NA,0,0.1,0.9,1,0,191,5,NA
fcp-trial,226,905010,0.0-201.0-0.0,voc_e2,11824,"[{""event"":""fullscreenenter"",""trial"":1,""time"":3222}]",NA,NA,NA,NA,NA,0,#741CD8,#D8271C,0,10,0,38,1,569.7000000029802,39,0,1009.9000000059605,10,1,experiment,NA,NA,0,0.1,0.9,1,0,192,5,NA
fcp-trial,227,907878,0.0-202.0-0.0,voc_e2,11824,"[{""event"":""fullscreenenter"",""trial"":1,""time"":3222}]",NA,NA,NA,NA,NA,6,#741CD8,#D8271C,0,10,0,38,1,481.1000000089407,39,0,878.2000000029802,10,1,experiment,NA,NA,0,0.1,0.9,1,0,193,5,NA
fcp-trial,228,910597,0.0-203.0-0.0,voc_e2,11824,"[{""event"":""fullscreenenter"",""trial"":1,""time"":3222}]",NA,NA,NA,NA,NA,6,#3386FF,#D89F1C,10,0,1,38,1,513.2000000029802,37,1,698.5,10,1,experiment,NA,NA,2,0.5,0.5,4,5,194,5,NA
fcp-trial,229,913512,0.0-204.0-0.0,voc_e2,11824,"[{""event"":""fullscreenenter"",""trial"":1,""time"":3222}]",NA,NA,NA,NA,NA,1,#1CD855,#FA92F8,0,0,0,38,1,393.40000000596046,39,0,1015,0,1,experiment,NA,NA,1,0.3,0.7,3,2,195,5,NA
fcp-trial,230,916293,0.0-205.0-0.0,voc_e2,11824,"[{""event"":""fullscreenenter"",""trial"":1,""time"":3222}]",NA,NA,NA,NA,NA,2,#3386FF,#D89F1C,0,10,1,38,1,477.79999999701977,37,1,797.2000000029802,0,1,experiment,NA,NA,2,0.5,0.5,4,5,196,5,NA
fcp-trial,231,919375,0.0-206.0-0.0,voc_e2,11824,"[{""event"":""fullscreenenter"",""trial"":1,""time"":3222}]",NA,NA,NA,NA,NA,4,#D8271C,#741CD8,0,10,1,38,1,498.40000000596046,37,1,1078.6000000089407,0,1,experiment,NA,NA,0,0.9,0.1,0,1,197,5,NA
fcp-trial,232,922164,0.0-207.0-0.0,voc_e2,11824,"[{""event"":""fullscreenenter"",""trial"":1,""time"":3222}]",NA,NA,NA,NA,NA,3,#D89F1C,#3386FF,10,0,0,38,1,418.6000000089407,39,0,864.2000000029802,0,1,experiment,NA,NA,2,0.5,0.5,5,4,198,5,NA
fcp-trial,233,925533,0.0-208.0-0.0,voc_e2,11824,"[{""event"":""fullscreenenter"",""trial"":1,""time"":3222}]",NA,NA,NA,NA,NA,5,#D89F1C,#3386FF,0,10,0,38,1,1139.5,39,0,717,10,1,experiment,NA,NA,2,0.5,0.5,5,4,199,5,NA
fcp-trial,234,928297,0.0-209.0-0.0,voc_e2,11824,"[{""event"":""fullscreenenter"",""trial"":1,""time"":3222}]",NA,NA,NA,NA,NA,5,#1CD855,#FA92F8,0,10,0,38,1,391.20000000298023,39,0,865,10,1,experiment,NA,NA,1,0.3,0.7,3,2,200,5,NA
fcp-trial,235,930962,0.0-210.0-0.0,voc_e2,11824,"[{""event"":""fullscreenenter"",""trial"":1,""time"":3222}]",NA,NA,NA,NA,NA,1,#3386FF,#D89F1C,10,10,1,38,1,447,37,1,710.4000000059605,10,1,experiment,NA,NA,2,0.5,0.5,4,5,201,5,NA
fcp-trial,236,933743,0.0-211.0-0.0,voc_e2,11824,"[{""event"":""fullscreenenter"",""trial"":1,""time"":3222}]",NA,NA,NA,NA,NA,1,#741CD8,#D8271C,10,10,0,38,1,467.3999999910593,39,0,809.1999999880791,10,1,experiment,NA,NA,0,0.1,0.9,1,0,202,5,NA
fcp-trial,237,936694,0.0-212.0-0.0,voc_e2,11824,"[{""event"":""fullscreenenter"",""trial"":1,""time"":3222}]",NA,NA,NA,NA,NA,0,#1CD855,#FA92F8,10,10,0,38,1,778.0999999940395,39,0,666,10,1,experiment,NA,NA,1,0.3,0.7,3,2,203,5,NA
fcp-trial,238,939535,0.0-213.0-0.0,voc_e2,11824,"[{""event"":""fullscreenenter"",""trial"":1,""time"":3222}]",NA,NA,NA,NA,NA,3,#741CD8,#D8271C,10,10,0,38,1,676.9000000059605,39,0,656.5999999940395,10,1,experiment,NA,NA,0,0.1,0.9,1,0,204,5,NA
fcp-trial,239,942331,0.0-214.0-0.0,voc_e2,11824,"[{""event"":""fullscreenenter"",""trial"":1,""time"":3222}]",NA,NA,NA,NA,NA,0,#D89F1C,#3386FF,10,10,0,38,1,484.3999999910593,39,0,801.7999999970198,10,1,experiment,NA,NA,2,0.5,0.5,5,4,205,5,NA
fcp-trial,240,944894,0.0-215.0-0.0,voc_e2,11824,"[{""event"":""fullscreenenter"",""trial"":1,""time"":3222}]",NA,NA,NA,NA,NA,4,#D89F1C,#3386FF,10,10,0,38,1,424.5,39,0,631.2999999970198,10,1,experiment,NA,NA,2,0.5,0.5,5,4,206,5,NA
fcp-trial,241,947793,0.0-216.0-0.0,voc_e2,11824,"[{""event"":""fullscreenenter"",""trial"":1,""time"":3222}]",NA,NA,NA,NA,NA,4,#FA92F8,#1CD855,10,10,1,38,1,480.19999998807907,37,1,912.6999999880791,10,1,experiment,NA,NA,1,0.7,0.3,2,3,207,5,NA
fcp-trial,242,950710,0.0-217.0-0.0,voc_e2,11824,"[{""event"":""fullscreenenter"",""trial"":1,""time"":3222}]",NA,NA,NA,NA,NA,2,#D8271C,#741CD8,10,0,1,38,1,740.1000000089407,37,1,667.6999999880791,10,1,experiment,NA,NA,0,0.9,0.1,0,1,208,5,NA
fcp-trial,243,953849,0.0-218.0-0.0,voc_e2,11824,"[{""event"":""fullscreenenter"",""trial"":1,""time"":3222}]",NA,NA,NA,NA,NA,3,#1CD855,#FA92F8,10,10,0,38,1,66.8999999910593,39,0,1565.9000000059605,10,1,experiment,NA,NA,1,0.3,0.7,3,2,209,5,NA
fcp-trial,244,956546,0.0-219.0-0.0,voc_e2,11824,"[{""event"":""fullscreenenter"",""trial"":1,""time"":3222}]",NA,NA,NA,NA,NA,6,#1CD855,#FA92F8,10,10,0,38,1,425.59999999403954,39,0,763.4000000059605,10,1,experiment,NA,NA,1,0.3,0.7,3,2,210,5,NA
audio-instructions,245,961689,0.0-220.0,voc_e2,11824,"[{""event"":""fullscreenenter"",""trial"":1,""time"":3222}]",NA,546.7999999970198,static/audio/pause.wav,NA,0,NA,NA,NA,NA,NA,NA,NA,NA,NA,NA,NA,NA,NA,NA,NA,NA,NA,NA,NA,NA,NA,NA,NA,NA,NA
fcp-trial,246,965315,0.0-221.0-0.0,voc_e2,11824,"[{""event"":""fullscreenenter"",""trial"":1,""time"":3222}]",NA,NA,NA,NA,NA,1,#741CD8,#D8271C,0,10,0,38,1,1492.5,39,0,624,10,1,experiment,NA,NA,0,0.1,0.9,1,0,211,5,NA
fcp-trial,247,969246,0.0-222.0-0.0,voc_e2,11824,"[{""event"":""fullscreenenter"",""trial"":1,""time"":3222}]",NA,NA,NA,NA,NA,0,#D8271C,#741CD8,10,0,1,38,1,1782.5,37,1,641.2999999970198,10,1,experiment,NA,NA,0,0.9,0.1,0,1,212,5,NA
fcp-trial,248,972026,0.0-223.0-0.0,voc_e2,11824,"[{""event"":""fullscreenenter"",""trial"":1,""time"":3222}]",NA,NA,NA,NA,NA,6,#FA92F8,#1CD855,10,0,1,38,1,677.2999999970198,37,1,595.5999999940395,10,1,experiment,NA,NA,1,0.7,0.3,2,3,213,5,NA
fcp-trial,249,974713,0.0-224.0-0.0,voc_e2,11824,"[{""event"":""fullscreenenter"",""trial"":1,""time"":3222}]",NA,NA,NA,NA,NA,3,#FA92F8,#1CD855,10,10,1,38,1,483,37,1,698.5,10,1,experiment,NA,NA,1,0.7,0.3,2,3,214,5,NA
fcp-trial,250,977297,0.0-225.0-0.0,voc_e2,11824,"[{""event"":""fullscreenenter"",""trial"":1,""time"":3222}]",NA,NA,NA,NA,NA,0,#3386FF,#D89F1C,10,10,1,38,1,465.5,37,1,612.2000000029802,10,1,experiment,NA,NA,2,0.5,0.5,4,5,215,5,NA
fcp-trial,251,979898,0.0-226.0-0.0,voc_e2,11824,"[{""event"":""fullscreenenter"",""trial"":1,""time"":3222}]",NA,NA,NA,NA,NA,2,#D8271C,#741CD8,10,10,1,38,1,402.5,37,1,691.7000000029802,10,1,experiment,NA,NA,0,0.9,0.1,0,1,216,5,NA
fcp-trial,252,983014,0.0-227.0-0.0,voc_e2,11824,"[{""event"":""fullscreenenter"",""trial"":1,""time"":3222}]",NA,NA,NA,NA,NA,3,#D89F1C,#3386FF,0,0,0,38,1,776.6000000089407,39,0,831.2999999970198,0,1,experiment,NA,NA,2,0.5,0.5,5,4,217,5,NA
fcp-trial,253,985810,0.0-228.0-0.0,voc_e2,11824,"[{""event"":""fullscreenenter"",""trial"":1,""time"":3222}]",NA,NA,NA,NA,NA,1,#FA92F8,#1CD855,10,0,1,38,1,466.90000000596046,37,1,820.7000000029802,10,1,experiment,NA,NA,1,0.7,0.3,2,3,218,5,NA
fcp-trial,254,988701,0.0-229.0-0.0,voc_e2,11824,"[{""event"":""fullscreenenter"",""trial"":1,""time"":3222}]",NA,NA,NA,NA,NA,5,#3386FF,#D89F1C,10,10,1,38,1,477.09999999403954,37,1,907.0999999940395,10,1,experiment,NA,NA,2,0.5,0.5,4,5,219,5,NA
fcp-trial,255,991631,0.0-230.0-0.0,voc_e2,11824,"[{""event"":""fullscreenenter"",""trial"":1,""time"":3222}]",NA,NA,NA,NA,NA,4,#FA92F8,#1CD855,0,0,1,38,1,539.8999999910593,37,1,879.4000000059605,0,1,experiment,NA,NA,1,0.7,0.3,2,3,220,5,NA
fcp-trial,256,994401,0.0-231.0-0.0,voc_e2,11824,"[{""event"":""fullscreenenter"",""trial"":1,""time"":3222}]",NA,NA,NA,NA,NA,4,#D8271C,#741CD8,10,0,1,38,1,441.90000000596046,37,1,820.3000000119209,10,1,experiment,NA,NA,0,0.9,0.1,0,1,221,5,NA
fcp-trial,257,997061,0.0-232.0-0.0,voc_e2,11824,"[{""event"":""fullscreenenter"",""trial"":1,""time"":3222}]",NA,NA,NA,NA,NA,0,#1CD855,#FA92F8,0,10,0,38,1,450.79999999701977,39,0,701.2000000029802,10,1,experiment,NA,NA,1,0.3,0.7,3,2,222,5,NA
fcp-trial,258,999802,0.0-233.0-0.0,voc_e2,11824,"[{""event"":""fullscreenenter"",""trial"":1,""time"":3222}]",NA,NA,NA,NA,NA,6,#3386FF,#D89F1C,0,0,1,38,1,550.7000000029802,37,1,682.0999999940395,0,1,experiment,NA,NA,2,0.5,0.5,4,5,223,5,NA
fcp-trial,259,1002596,0.0-234.0-0.0,voc_e2,11824,"[{""event"":""fullscreenenter"",""trial"":1,""time"":3222}]",NA,NA,NA,NA,NA,1,#D89F1C,#3386FF,10,0,0,38,1,528.5,39,0,760.5999999940395,0,1,experiment,NA,NA,2,0.5,0.5,5,4,224,5,NA
fcp-trial,260,1005383,0.0-235.0-0.0,voc_e2,11824,"[{""event"":""fullscreenenter"",""trial"":1,""time"":3222}]",NA,NA,NA,NA,NA,5,#D8271C,#741CD8,0,0,1,38,1,384.19999998807907,37,1,892.8999999910593,0,1,experiment,NA,NA,0,0.9,0.1,0,1,225,5,NA
fcp-trial,261,1008051,0.0-236.0-0.0,voc_e2,11824,"[{""event"":""fullscreenenter"",""trial"":1,""time"":3222}]",NA,NA,NA,NA,NA,6,#D8271C,#741CD8,10,0,1,38,1,452.8999999910593,37,1,705.9000000059605,10,1,experiment,NA,NA,0,0.9,0.1,0,1,226,6,NA
fcp-trial,262,1011988,0.0-237.0-0.0,voc_e2,11824,"[{""event"":""fullscreenenter"",""trial"":1,""time"":3222}]",NA,NA,NA,NA,NA,2,#1CD855,#FA92F8,10,10,0,38,1,1630,39,0,796.0999999940395,10,1,experiment,NA,NA,1,0.3,0.7,3,2,227,6,NA
fcp-trial,263,1015159,0.0-238.0-0.0,voc_e2,11824,"[{""event"":""fullscreenenter"",""trial"":1,""time"":3222}]",NA,NA,NA,NA,NA,2,#D89F1C,#3386FF,0,0,0,38,1,686.5,39,0,978.5,0,1,experiment,NA,NA,2,0.5,0.5,5,4,228,6,NA
fcp-trial,264,1017813,0.0-239.0-0.0,voc_e2,11824,"[{""event"":""fullscreenenter"",""trial"":1,""time"":3222}]",NA,NA,NA,NA,NA,3,#741CD8,#D8271C,0,10,0,38,1,349,39,0,796.3000000119209,10,1,experiment,NA,NA,0,0.1,0.9,1,0,229,6,NA
fcp-trial,265,1020382,0.0-240.0-0.0,voc_e2,11824,"[{""event"":""fullscreenenter"",""trial"":1,""time"":3222}]",NA,NA,NA,NA,NA,5,#FA92F8,#1CD855,0,0,1,38,1,423.09999999403954,37,1,638.5999999940395,0,1,experiment,NA,NA,1,0.7,0.3,2,3,230,6,NA
fcp-trial,266,1023199,0.0-241.0-0.0,voc_e2,11824,"[{""event"":""fullscreenenter"",""trial"":1,""time"":3222}]",NA,NA,NA,NA,NA,4,#3386FF,#D89F1C,0,10,1,38,1,552.4000000059605,37,1,757.5999999940395,0,1,experiment,NA,NA,2,0.5,0.5,4,5,231,6,NA
fcp-trial,267,1025731,0.0-242.0-0.0,voc_e2,11824,"[{""event"":""fullscreenenter"",""trial"":1,""time"":3222}]",NA,NA,NA,NA,NA,6,#1CD855,#FA92F8,0,0,0,38,1,379.20000000298023,39,0,645.7999999970198,0,1,experiment,NA,NA,1,0.3,0.7,3,2,232,6,NA
fcp-trial,268,1028354,0.0-243.0-0.0,voc_e2,11824,"[{""event"":""fullscreenenter"",""trial"":1,""time"":3222}]",NA,NA,NA,NA,NA,5,#FA92F8,#1CD855,10,10,1,38,1,334.79999999701977,37,1,779.2000000029802,10,1,experiment,NA,NA,1,0.7,0.3,2,3,233,6,NA
fcp-trial,269,1031016,0.0-244.0-0.0,voc_e2,11824,"[{""event"":""fullscreenenter"",""trial"":1,""time"":3222}]",NA,NA,NA,NA,NA,1,#D8271C,#741CD8,10,0,1,38,1,110.79999999701977,37,1,1041.2000000029802,10,1,experiment,NA,NA,0,0.9,0.1,0,1,234,6,NA
fcp-trial,270,1033898,0.0-245.0-0.0,voc_e2,11824,"[{""event"":""fullscreenenter"",""trial"":1,""time"":3222}]",NA,NA,NA,NA,NA,6,#D8271C,#741CD8,10,10,1,38,1,480,37,1,894.3999999910593,10,1,experiment,NA,NA,0,0.9,0.1,0,1,235,6,NA
fcp-trial,271,1036549,0.0-246.0-0.0,voc_e2,11824,"[{""event"":""fullscreenenter"",""trial"":1,""time"":3222}]",NA,NA,NA,NA,NA,2,#D89F1C,#3386FF,10,10,0,38,1,441,39,0,703.2999999970198,10,1,experiment,NA,NA,2,0.5,0.5,5,4,236,6,NA
fcp-trial,272,1039345,0.0-247.0-0.0,voc_e2,11824,"[{""event"":""fullscreenenter"",""trial"":1,""time"":3222}]",NA,NA,NA,NA,NA,1,#D89F1C,#3386FF,10,10,0,38,1,496.1000000089407,39,0,793.4000000059605,10,1,experiment,NA,NA,2,0.5,0.5,5,4,237,6,NA
fcp-trial,273,1042425,0.0-248.0-0.0,voc_e2,11824,"[{""event"":""fullscreenenter"",""trial"":1,""time"":3222}]",NA,NA,NA,NA,NA,2,#FA92F8,#1CD855,0,10,1,38,1,479.20000000298023,37,1,1090.2999999970198,0,1,experiment,NA,NA,1,0.7,0.3,2,3,238,6,NA
fcp-trial,274,1045552,0.0-249.0-0.0,voc_e2,11824,"[{""event"":""fullscreenenter"",""trial"":1,""time"":3222}]",NA,NA,NA,NA,NA,1,#FA92F8,#1CD855,0,0,1,38,1,488.20000000298023,37,1,1128.5,0,1,experiment,NA,NA,1,0.7,0.3,2,3,239,6,NA
fcp-trial,275,1048567,0.0-250.0-0.0,voc_e2,11824,"[{""event"":""fullscreenenter"",""trial"":1,""time"":3222}]",NA,NA,NA,NA,NA,3,#D8271C,#741CD8,10,0,1,38,1,690.7000000029802,37,1,816.2000000029802,10,1,experiment,NA,NA,0,0.9,0.1,0,1,240,6,NA
fcp-trial,276,1051113,0.0-251.0-0.0,voc_e2,11824,"[{""event"":""fullscreenenter"",""trial"":1,""time"":3222}]",NA,NA,NA,NA,NA,0,#3386FF,#D89F1C,0,0,1,38,1,343,37,1,695,0,1,experiment,NA,NA,2,0.5,0.5,4,5,241,6,NA
fcp-trial,277,1053864,0.0-252.0-0.0,voc_e2,11824,"[{""event"":""fullscreenenter"",""trial"":1,""time"":3222}]",NA,NA,NA,NA,NA,4,#1CD855,#FA92F8,0,0,0,38,1,327.20000000298023,39,0,919.4000000059605,0,1,experiment,NA,NA,1,0.3,0.7,3,2,242,6,NA
fcp-trial,278,1056600,0.0-253.0-0.0,voc_e2,11824,"[{""event"":""fullscreenenter"",""trial"":1,""time"":3222}]",NA,NA,NA,NA,NA,4,#3386FF,#D89F1C,10,10,1,38,1,360.20000000298023,37,1,868.2999999970198,10,1,experiment,NA,NA,2,0.5,0.5,4,5,243,6,NA
fcp-trial,279,1059382,0.0-254.0-0.0,voc_e2,11824,"[{""event"":""fullscreenenter"",""trial"":1,""time"":3222}]",NA,NA,NA,NA,NA,6,#D89F1C,#3386FF,0,0,0,38,1,443.1000000089407,39,0,830.1000000089407,0,1,experiment,NA,NA,2,0.5,0.5,5,4,244,6,NA
fcp-trial,280,1062364,0.0-255.0-0.0,voc_e2,11824,"[{""event"":""fullscreenenter"",""trial"":1,""time"":3222}]",NA,NA,NA,NA,NA,0,#741CD8,#D8271C,0,10,0,38,1,480.5,39,0,992.7999999970198,10,1,experiment,NA,NA,0,0.1,0.9,1,0,245,6,NA
fcp-trial,281,1065261,0.0-256.0-0.0,voc_e2,11824,"[{""event"":""fullscreenenter"",""trial"":1,""time"":3222}]",NA,NA,NA,NA,NA,3,#FA92F8,#1CD855,10,0,1,38,1,580.0999999940395,37,1,810.2999999970198,10,1,experiment,NA,NA,1,0.7,0.3,2,3,246,6,NA
fcp-trial,282,1068075,0.0-257.0-0.0,voc_e2,11824,"[{""event"":""fullscreenenter"",""trial"":1,""time"":3222}]",NA,NA,NA,NA,NA,3,#3386FF,#D89F1C,10,0,1,38,1,401.79999999701977,37,1,903.7999999970198,10,1,experiment,NA,NA,2,0.5,0.5,4,5,247,6,NA
fcp-trial,283,1070880,0.0-258.0-0.0,voc_e2,11824,"[{""event"":""fullscreenenter"",""trial"":1,""time"":3222}]",NA,NA,NA,NA,NA,2,#741CD8,#D8271C,0,10,0,38,1,451,39,0,847.0999999940395,10,1,experiment,NA,NA,0,0.1,0.9,1,0,248,6,NA
fcp-trial,284,1073666,0.0-259.0-0.0,voc_e2,11824,"[{""event"":""fullscreenenter"",""trial"":1,""time"":3222}]",NA,NA,NA,NA,NA,4,#741CD8,#D8271C,0,10,0,38,1,533.0999999940395,39,0,746,10,1,experiment,NA,NA,0,0.1,0.9,1,0,249,6,NA
fcp-trial,285,1076523,0.0-260.0-0.0,voc_e2,11824,"[{""event"":""fullscreenenter"",""trial"":1,""time"":3222}]",NA,NA,NA,NA,NA,0,#FA92F8,#1CD855,0,10,1,38,1,492.1000000089407,37,1,858.5,0,1,experiment,NA,NA,1,0.7,0.3,2,3,250,6,NA
fcp-trial,286,1079179,0.0-261.0-0.0,voc_e2,11824,"[{""event"":""fullscreenenter"",""trial"":1,""time"":3222}]",NA,NA,NA,NA,NA,5,#D89F1C,#3386FF,0,0,0,38,1,368.1000000089407,39,0,779.5999999940395,0,1,experiment,NA,NA,2,0.5,0.5,5,4,251,6,NA
fcp-trial,287,1081892,0.0-262.0-0.0,voc_e2,11824,"[{""event"":""fullscreenenter"",""trial"":1,""time"":3222}]",NA,NA,NA,NA,NA,5,#741CD8,#D8271C,0,10,0,38,1,527,39,0,678.8000000119209,10,1,experiment,NA,NA,0,0.1,0.9,1,0,252,6,NA
fcp-trial,288,1084650,0.0-263.0-0.0,voc_e2,11824,"[{""event"":""fullscreenenter"",""trial"":1,""time"":3222}]",NA,NA,NA,NA,NA,3,#3386FF,#D89F1C,10,10,1,38,1,415.3999999910593,37,1,834.5,10,1,experiment,NA,NA,2,0.5,0.5,4,5,253,6,NA
fcp-trial,289,1087481,0.0-264.0-0.0,voc_e2,11824,"[{""event"":""fullscreenenter"",""trial"":1,""time"":3222}]",NA,NA,NA,NA,NA,6,#D8271C,#741CD8,10,0,1,38,1,426.79999999701977,37,1,897.0999999940395,10,1,experiment,NA,NA,0,0.9,0.1,0,1,254,6,NA
fcp-trial,290,1090482,0.0-265.0-0.0,voc_e2,11824,"[{""event"":""fullscreenenter"",""trial"":1,""time"":3222}]",NA,NA,NA,NA,NA,5,#FA92F8,#1CD855,0,0,1,38,1,459.59999999403954,37,1,1034.2999999970198,0,1,experiment,NA,NA,1,0.7,0.3,2,3,255,6,NA
fcp-trial,291,1093280,0.0-266.0-0.0,voc_e2,11824,"[{""event"":""fullscreenenter"",""trial"":1,""time"":3222}]",NA,NA,NA,NA,NA,0,#741CD8,#D8271C,0,10,0,38,1,474.70000000298023,39,0,814.7000000029802,10,1,experiment,NA,NA,0,0.1,0.9,1,0,256,6,NA
fcp-trial,292,1096234,0.0-267.0-0.0,voc_e2,11824,"[{""event"":""fullscreenenter"",""trial"":1,""time"":3222}]",NA,NA,NA,NA,NA,2,#3386FF,#D89F1C,10,10,1,38,1,750.6999999880791,37,1,695.7000000029802,10,1,experiment,NA,NA,2,0.5,0.5,4,5,257,6,NA
fcp-trial,293,1099165,0.0-268.0-0.0,voc_e2,11824,"[{""event"":""fullscreenenter"",""trial"":1,""time"":3222}]",NA,NA,NA,NA,NA,4,#1CD855,#FA92F8,0,0,0,38,1,528.2999999970198,39,0,895.5,0,1,experiment,NA,NA,1,0.3,0.7,3,2,258,6,NA
fcp-trial,294,1101887,0.0-269.0-0.0,voc_e2,11824,"[{""event"":""fullscreenenter"",""trial"":1,""time"":3222}]",NA,NA,NA,NA,NA,5,#3386FF,#D89F1C,10,0,1,38,1,464,37,1,748.5999999940395,10,1,experiment,NA,NA,2,0.5,0.5,4,5,259,6,NA
fcp-trial,295,1104751,0.0-270.0-0.0,voc_e2,11824,"[{""event"":""fullscreenenter"",""trial"":1,""time"":3222}]",NA,NA,NA,NA,NA,1,#FA92F8,#1CD855,10,0,1,38,1,371.40000000596046,37,1,983.7999999970198,10,1,experiment,NA,NA,1,0.7,0.3,2,3,260,6,NA
fcp-trial,296,1107518,0.0-271.0-0.0,voc_e2,11824,"[{""event"":""fullscreenenter"",""trial"":1,""time"":3222}]",NA,NA,NA,NA,NA,3,#D8271C,#741CD8,10,0,1,38,1,376.29999999701977,37,1,881.9000000059605,10,1,experiment,NA,NA,0,0.9,0.1,0,1,261,6,NA
fcp-trial,297,1110135,0.0-272.0-0.0,voc_e2,11824,"[{""event"":""fullscreenenter"",""trial"":1,""time"":3222}]",NA,NA,NA,NA,NA,4,#D8271C,#741CD8,10,0,1,38,1,459.69999998807907,37,1,647.7000000029802,10,1,experiment,NA,NA,0,0.9,0.1,0,1,262,6,NA
fcp-trial,298,1113332,0.0-273.0-0.0,voc_e2,11824,"[{""event"":""fullscreenenter"",""trial"":1,""time"":3222}]",NA,NA,NA,NA,NA,3,#FA92F8,#1CD855,0,0,1,38,1,495.40000000596046,37,1,1192.2999999970198,0,1,experiment,NA,NA,1,0.7,0.3,2,3,263,6,NA
fcp-trial,299,1116205,0.0-274.0-0.0,voc_e2,11824,"[{""event"":""fullscreenenter"",""trial"":1,""time"":3222}]",NA,NA,NA,NA,NA,0,#3386FF,#D89F1C,10,0,1,38,1,400.20000000298023,37,1,961.9000000059605,10,1,experiment,NA,NA,2,0.5,0.5,4,5,264,6,NA
fcp-trial,300,1118984,0.0-275.0-0.0,voc_e2,11824,"[{""event"":""fullscreenenter"",""trial"":1,""time"":3222}]",NA,NA,NA,NA,NA,6,#3386FF,#D89F1C,10,0,1,38,1,388,37,1,884.0999999940395,10,1,experiment,NA,NA,2,0.5,0.5,4,5,265,6,NA
fcp-trial,301,1121586,0.0-276.0-0.0,voc_e2,11824,"[{""event"":""fullscreenenter"",""trial"":1,""time"":3222}]",NA,NA,NA,NA,NA,2,#741CD8,#D8271C,0,10,0,38,1,410.09999999403954,39,0,686.5,10,1,experiment,NA,NA,0,0.1,0.9,1,0,266,6,NA
fcp-trial,302,1124267,0.0-277.0-0.0,voc_e2,11824,"[{""event"":""fullscreenenter"",""trial"":1,""time"":3222}]",NA,NA,NA,NA,NA,1,#3386FF,#D89F1C,0,0,1,38,1,470.79999999701977,37,1,703.8000000119209,0,1,experiment,NA,NA,2,0.5,0.5,4,5,267,6,NA
fcp-trial,303,1127067,0.0-278.0-0.0,voc_e2,11824,"[{""event"":""fullscreenenter"",""trial"":1,""time"":3222}]",NA,NA,NA,NA,NA,2,#FA92F8,#1CD855,0,10,1,38,1,467.5,37,1,825.2000000029802,0,1,experiment,NA,NA,1,0.7,0.3,2,3,268,6,NA
fcp-trial,304,1129635,0.0-279.0-0.0,voc_e2,11824,"[{""event"":""fullscreenenter"",""trial"":1,""time"":3222}]",NA,NA,NA,NA,NA,6,#1CD855,#FA92F8,10,0,0,38,1,429,39,0,629.8999999910593,0,1,experiment,NA,NA,1,0.3,0.7,3,2,269,6,NA
fcp-trial,305,1132401,0.0-280.0-0.0,voc_e2,11824,"[{""event"":""fullscreenenter"",""trial"":1,""time"":3222}]",NA,NA,NA,NA,NA,5,#D8271C,#741CD8,0,10,1,38,1,559.0999999940395,37,1,696.5,0,1,experiment,NA,NA,0,0.9,0.1,0,1,270,6,NA
fcp-trial,306,1135683,0.0-281.0-0.0,voc_e2,11824,"[{""event"":""fullscreenenter"",""trial"":1,""time"":3222}]",NA,NA,NA,NA,NA,0,#1CD855,#FA92F8,10,0,0,38,1,1095.5999999940395,39,0,679.5999999940395,0,1,experiment,NA,NA,1,0.3,0.7,3,2,271,7,NA
fcp-trial,307,1138594,0.0-282.0-0.0,voc_e2,11824,"[{""event"":""fullscreenenter"",""trial"":1,""time"":3222}]",NA,NA,NA,NA,NA,4,#D89F1C,#3386FF,0,10,0,38,1,444.29999999701977,39,0,960.0999999940395,10,1,experiment,NA,NA,2,0.5,0.5,5,4,272,7,NA
fcp-trial,308,1141346,0.0-283.0-0.0,voc_e2,11824,"[{""event"":""fullscreenenter"",""trial"":1,""time"":3222}]",NA,NA,NA,NA,NA,1,#741CD8,#D8271C,0,10,0,38,1,439,39,0,806.2999999970198,10,1,experiment,NA,NA,0,0.1,0.9,1,0,273,7,NA
fcp-trial,309,1144061,0.0-284.0-0.0,voc_e2,11824,"[{""event"":""fullscreenenter"",""trial"":1,""time"":3222}]",NA,NA,NA,NA,NA,2,#3386FF,#D89F1C,10,0,1,38,1,414.8999999910593,37,1,794.2000000029802,10,1,experiment,NA,NA,2,0.5,0.5,4,5,274,7,NA
fcp-trial,310,1147350,0.0-285.0-0.0,voc_e2,11824,"[{""event"":""fullscreenenter"",""trial"":1,""time"":3222}]",NA,NA,NA,NA,NA,3,#3386FF,#D89F1C,0,0,1,38,1,1032.8999999910593,37,1,748,0,1,experiment,NA,NA,2,0.5,0.5,4,5,275,7,NA
fcp-trial,311,1150099,0.0-286.0-0.0,voc_e2,11824,"[{""event"":""fullscreenenter"",""trial"":1,""time"":3222}]",NA,NA,NA,NA,NA,3,#1CD855,#FA92F8,10,10,0,38,1,509.5,39,0,731.7000000029802,10,1,experiment,NA,NA,1,0.3,0.7,3,2,276,7,NA
fcp-trial,312,1153045,0.0-287.0-0.0,voc_e2,11824,"[{""event"":""fullscreenenter"",""trial"":1,""time"":3222}]",NA,NA,NA,NA,NA,2,#D8271C,#741CD8,10,10,1,38,1,445.20000000298023,37,1,993.5,10,1,experiment,NA,NA,0,0.9,0.1,0,1,277,7,NA
fcp-trial,313,1155850,0.0-288.0-0.0,voc_e2,11824,"[{""event"":""fullscreenenter"",""trial"":1,""time"":3222}]",NA,NA,NA,NA,NA,4,#D89F1C,#3386FF,10,10,0,38,1,631.2999999970198,39,0,666.5999999940395,10,1,experiment,NA,NA,2,0.5,0.5,5,4,278,7,NA
fcp-trial,314,1158948,0.0-289.0-0.0,voc_e2,11824,"[{""event"":""fullscreenenter"",""trial"":1,""time"":3222}]",NA,NA,NA,NA,NA,3,#D8271C,#741CD8,10,0,1,38,1,527.7999999970198,37,1,1062.9000000059605,10,1,experiment,NA,NA,0,0.9,0.1,0,1,279,7,NA
fcp-trial,315,1161705,0.0-290.0-0.0,voc_e2,11824,"[{""event"":""fullscreenenter"",""trial"":1,""time"":3222}]",NA,NA,NA,NA,NA,6,#741CD8,#D8271C,0,10,0,38,1,415.6000000089407,39,0,833.2999999970198,10,1,experiment,NA,NA,0,0.1,0.9,1,0,280,7,NA
fcp-trial,316,1164307,0.0-291.0-0.0,voc_e2,11824,"[{""event"":""fullscreenenter"",""trial"":1,""time"":3222}]",NA,NA,NA,NA,NA,5,#FA92F8,#1CD855,0,0,1,38,1,405.1000000089407,37,1,685.7999999970198,0,1,experiment,NA,NA,1,0.7,0.3,2,3,281,7,NA
fcp-trial,317,1166915,0.0-292.0-0.0,voc_e2,11824,"[{""event"":""fullscreenenter"",""trial"":1,""time"":3222}]",NA,NA,NA,NA,NA,6,#3386FF,#D89F1C,10,10,1,38,1,310.5,37,1,785.5,10,1,experiment,NA,NA,2,0.5,0.5,4,5,282,7,NA
fcp-trial,318,1169965,0.0-293.0-0.0,voc_e2,11824,"[{""event"":""fullscreenenter"",""trial"":1,""time"":3222}]",NA,NA,NA,NA,NA,0,#D8271C,#741CD8,10,0,1,38,1,653.5,37,1,889.7000000029802,10,1,experiment,NA,NA,0,0.9,0.1,0,1,283,7,NA
fcp-trial,319,1172930,0.0-294.0-0.0,voc_e2,11824,"[{""event"":""fullscreenenter"",""trial"":1,""time"":3222}]",NA,NA,NA,NA,NA,4,#741CD8,#D8271C,0,10,0,38,1,810.7999999970198,39,0,647.5999999940395,10,1,experiment,NA,NA,0,0.1,0.9,1,0,284,7,NA
fcp-trial,320,1175520,0.0-295.0-0.0,voc_e2,11824,"[{""event"":""fullscreenenter"",""trial"":1,""time"":3222}]",NA,NA,NA,NA,NA,6,#FA92F8,#1CD855,0,0,1,38,1,396,37,1,686.4000000059605,0,1,experiment,NA,NA,1,0.7,0.3,2,3,285,7,NA
fcp-trial,321,1178115,0.0-296.0-0.0,voc_e2,11824,"[{""event"":""fullscreenenter"",""trial"":1,""time"":3222}]",NA,NA,NA,NA,NA,0,#D89F1C,#3386FF,0,0,0,38,1,322,39,0,765.0999999940395,0,1,experiment,NA,NA,2,0.5,0.5,5,4,286,7,NA
fcp-trial,322,1180882,0.0-297.0-0.0,voc_e2,11824,"[{""event"":""fullscreenenter"",""trial"":1,""time"":3222}]",NA,NA,NA,NA,NA,1,#FA92F8,#1CD855,10,0,1,38,1,357.5,39,0,902.4000000059605,0,0,experiment,NA,NA,1,0.7,0.3,2,3,287,7,NA
fcp-trial,323,1183437,0.0-298.0-0.0,voc_e2,11824,"[{""event"":""fullscreenenter"",""trial"":1,""time"":3222}]",NA,NA,NA,NA,NA,0,#FA92F8,#1CD855,10,0,1,38,1,388.8999999910593,39,0,655.0999999940395,0,0,experiment,NA,NA,1,0.7,0.3,2,3,288,7,NA
fcp-trial,324,1186097,0.0-299.0-0.0,voc_e2,11824,"[{""event"":""fullscreenenter"",""trial"":1,""time"":3222}]",NA,NA,NA,NA,NA,1,#741CD8,#D8271C,0,10,0,38,1,348.1000000089407,39,0,805.6999999880791,10,1,experiment,NA,NA,0,0.1,0.9,1,0,289,7,NA
fcp-trial,325,1188851,0.0-300.0-0.0,voc_e2,11824,"[{""event"":""fullscreenenter"",""trial"":1,""time"":3222}]",NA,NA,NA,NA,NA,1,#D89F1C,#3386FF,0,10,0,38,1,498.5,39,0,748.7000000029802,10,1,experiment,NA,NA,2,0.5,0.5,5,4,290,7,NA
fcp-trial,326,1191611,0.0-301.0-0.0,voc_e2,11824,"[{""event"":""fullscreenenter"",""trial"":1,""time"":3222}]",NA,NA,NA,NA,NA,4,#FA92F8,#1CD855,10,10,1,38,1,394.90000000596046,37,1,854.7999999970198,10,1,experiment,NA,NA,1,0.7,0.3,2,3,291,7,NA
fcp-trial,327,1195267,0.0-302.0-0.0,voc_e2,11824,"[{""event"":""fullscreenenter"",""trial"":1,""time"":3222}]",NA,NA,NA,NA,NA,2,#1CD855,#FA92F8,0,10,0,38,1,1517.0999999940395,39,0,632.5,10,1,experiment,NA,NA,1,0.3,0.7,3,2,292,7,NA
fcp-trial,328,1197849,0.0-303.0-0.0,voc_e2,11824,"[{""event"":""fullscreenenter"",""trial"":1,""time"":3222}]",NA,NA,NA,NA,NA,5,#3386FF,#D89F1C,10,10,1,38,1,386.79999999701977,37,1,684.5,10,1,experiment,NA,NA,2,0.5,0.5,4,5,293,7,NA
fcp-trial,329,1200484,0.0-304.0-0.0,voc_e2,11824,"[{""event"":""fullscreenenter"",""trial"":1,""time"":3222}]",NA,NA,NA,NA,NA,5,#741CD8,#D8271C,0,10,0,38,1,388.3999999910593,39,0,739.2000000029802,10,1,experiment,NA,NA,0,0.1,0.9,1,0,294,7,NA
fcp-trial,330,1203358,0.0-305.0-0.0,voc_e2,11824,"[{""event"":""fullscreenenter"",""trial"":1,""time"":3222}]",NA,NA,NA,NA,NA,4,#FA92F8,#1CD855,0,10,1,38,1,637.0999999940395,37,1,726,0,1,experiment,NA,NA,1,0.7,0.3,2,3,295,7,NA
fcp-trial,331,1206119,0.0-306.0-0.0,voc_e2,11824,"[{""event"":""fullscreenenter"",""trial"":1,""time"":3222}]",NA,NA,NA,NA,NA,5,#FA92F8,#1CD855,10,0,1,38,1,300.70000000298023,39,0,949.7999999970198,0,0,experiment,NA,NA,1,0.7,0.3,2,3,296,7,NA
fcp-trial,332,1208750,0.0-307.0-0.0,voc_e2,11824,"[{""event"":""fullscreenenter"",""trial"":1,""time"":3222}]",NA,NA,NA,NA,NA,5,#D8271C,#741CD8,0,0,1,38,1,341.70000000298023,37,1,780.2999999970198,0,1,experiment,NA,NA,0,0.9,0.1,0,1,297,7,NA
fcp-trial,333,1211688,0.0-308.0-0.0,voc_e2,11824,"[{""event"":""fullscreenenter"",""trial"":1,""time"":3222}]",NA,NA,NA,NA,NA,1,#FA92F8,#1CD855,10,0,1,38,1,619.5,37,1,812.0999999940395,10,1,experiment,NA,NA,1,0.7,0.3,2,3,298,7,NA
fcp-trial,334,1214895,0.0-309.0-0.0,voc_e2,11824,"[{""event"":""fullscreenenter"",""trial"":1,""time"":3222}]",NA,NA,NA,NA,NA,3,#741CD8,#D8271C,0,10,0,38,1,1073.6000000089407,39,0,623.5,10,1,experiment,NA,NA,0,0.1,0.9,1,0,299,7,NA
fcp-trial,335,1217656,0.0-310.0-0.0,voc_e2,11824,"[{""event"":""fullscreenenter"",""trial"":1,""time"":3222}]",NA,NA,NA,NA,NA,3,#D89F1C,#3386FF,10,0,0,38,1,393.20000000298023,39,0,857.5,0,1,experiment,NA,NA,2,0.5,0.5,5,4,300,7,NA
fcp-trial,336,1221621,0.0-311.0-0.0,voc_e2,11824,"[{""event"":""fullscreenenter"",""trial"":1,""time"":3222}]",NA,NA,NA,NA,NA,4,#D89F1C,#3386FF,0,10,0,38,1,55.70000000298023,39,0,2400.7000000029802,10,1,experiment,NA,NA,2,0.5,0.5,5,4,301,7,NA
fcp-trial,337,1224517,0.0-312.0-0.0,voc_e2,11824,"[{""event"":""fullscreenenter"",""trial"":1,""time"":3222}]",NA,NA,NA,NA,NA,1,#741CD8,#D8271C,0,10,0,38,1,472.59999999403954,39,0,915.5,10,1,experiment,NA,NA,0,0.1,0.9,1,0,302,7,NA
fcp-trial,338,1227203,0.0-313.0-0.0,voc_e2,11824,"[{""event"":""fullscreenenter"",""trial"":1,""time"":3222}]",NA,NA,NA,NA,NA,6,#1CD855,#FA92F8,10,10,0,38,1,372.1000000089407,39,0,804.0999999940395,10,1,experiment,NA,NA,1,0.3,0.7,3,2,303,7,NA
fcp-trial,339,1230221,0.0-314.0-0.0,voc_e2,11824,"[{""event"":""fullscreenenter"",""trial"":1,""time"":3222}]",NA,NA,NA,NA,NA,5,#3386FF,#D89F1C,10,0,1,38,1,557.7999999970198,37,1,950.2999999970198,10,1,experiment,NA,NA,2,0.5,0.5,4,5,304,7,NA
fcp-trial,340,1233135,0.0-315.0-0.0,voc_e2,11824,"[{""event"":""fullscreenenter"",""trial"":1,""time"":3222}]",NA,NA,NA,NA,NA,0,#D8271C,#741CD8,10,0,1,38,1,477.5,37,1,928.5,10,1,experiment,NA,NA,0,0.9,0.1,0,1,305,7,NA
fcp-trial,341,1235769,0.0-316.0-0.0,voc_e2,11824,"[{""event"":""fullscreenenter"",""trial"":1,""time"":3222}]",NA,NA,NA,NA,NA,2,#1CD855,#FA92F8,10,10,0,38,1,465,39,0,659.2000000029802,10,1,experiment,NA,NA,1,0.3,0.7,3,2,306,7,NA
fcp-trial,342,1238348,0.0-317.0-0.0,voc_e2,11824,"[{""event"":""fullscreenenter"",""trial"":1,""time"":3222}]",NA,NA,NA,NA,NA,6,#3386FF,#D89F1C,0,0,1,38,1,395,37,1,676.3999999910593,0,1,experiment,NA,NA,2,0.5,0.5,4,5,307,7,NA
fcp-trial,343,1240995,0.0-318.0-0.0,voc_e2,11824,"[{""event"":""fullscreenenter"",""trial"":1,""time"":3222}]",NA,NA,NA,NA,NA,2,#D8271C,#741CD8,10,0,1,38,1,365.5,37,1,772.5999999940395,10,1,experiment,NA,NA,0,0.9,0.1,0,1,308,7,NA
fcp-trial,344,1243492,0.0-319.0-0.0,voc_e2,11824,"[{""event"":""fullscreenenter"",""trial"":1,""time"":3222}]",NA,NA,NA,NA,NA,3,#1CD855,#FA92F8,10,0,0,38,1,364.80000001192093,39,0,622.9000000059605,0,1,experiment,NA,NA,1,0.3,0.7,3,2,309,7,NA
fcp-trial,345,1246032,0.0-320.0-0.0,voc_e2,11824,"[{""event"":""fullscreenenter"",""trial"":1,""time"":3222}]",NA,NA,NA,NA,NA,4,#D8271C,#741CD8,10,0,1,38,1,287.29999999701977,37,1,744.7999999970198,10,1,experiment,NA,NA,0,0.9,0.1,0,1,310,7,NA
fcp-trial,346,1249050,0.0-321.0-0.0,voc_e2,11824,"[{""event"":""fullscreenenter"",""trial"":1,""time"":3222}]",NA,NA,NA,NA,NA,0,#3386FF,#D89F1C,10,10,1,38,1,615.0999999940395,37,1,896.1000000089407,10,1,experiment,NA,NA,2,0.5,0.5,4,5,311,7,NA
fcp-trial,347,1252052,0.0-322.0-0.0,voc_e2,11824,"[{""event"":""fullscreenenter"",""trial"":1,""time"":3222}]",NA,NA,NA,NA,NA,1,#3386FF,#D89F1C,0,10,1,38,1,414.70000000298023,37,1,1080.699999988079,0,1,experiment,NA,NA,2,0.5,0.5,4,5,312,7,NA
fcp-trial,348,1254536,0.0-323.0-0.0,voc_e2,11824,"[{""event"":""fullscreenenter"",""trial"":1,""time"":3222}]",NA,NA,NA,NA,NA,2,#D89F1C,#3386FF,10,10,0,38,1,362.59999999403954,39,0,615.2000000029802,10,1,experiment,NA,NA,2,0.5,0.5,5,4,313,7,NA
fcp-trial,349,1257151,0.0-324.0-0.0,voc_e2,11824,"[{""event"":""fullscreenenter"",""trial"":1,""time"":3222}]",NA,NA,NA,NA,NA,0,#FA92F8,#1CD855,10,10,1,38,1,315.29999999701977,37,1,789.7999999970198,10,1,experiment,NA,NA,1,0.7,0.3,2,3,314,7,NA
fcp-trial,350,1260434,0.0-325.0-0.0,voc_e2,11824,"[{""event"":""fullscreenenter"",""trial"":1,""time"":3222}]",NA,NA,NA,NA,NA,6,#741CD8,#D8271C,0,10,0,38,1,1188.9000000059605,39,0,586.1000000089407,10,1,experiment,NA,NA,0,0.1,0.9,1,0,315,7,NA
audio-instructions,351,1267622,0.0-326.0,voc_e2,11824,"[{""event"":""fullscreenenter"",""trial"":1,""time"":3222}]",NA,1391.9000000059605,static/audio/finished.wav,NA,0,NA,NA,NA,NA,NA,NA,NA,NA,NA,NA,NA,NA,NA,NA,NA,NA,NA,NA,NA,NA,NA,NA,NA,NA,NA
audio-instructions,352,1279105,0.0-327.0-0.0,voc_e2,11824,"[{""event"":""fullscreenenter"",""trial"":1,""time"":3222}]",NA,643.5,static/audio/explicit1.wav,NA,0,NA,NA,NA,NA,NA,NA,NA,NA,NA,NA,NA,NA,NA,NA,NA,NA,NA,NA,NA,NA,NA,NA,NA,NA,NA
audio-instructions,353,1287199,0.0-327.0-1.0,voc_e2,11824,"[{""event"":""fullscreenenter"",""trial"":1,""time"":3222}]",NA,495.800000011921,static/audio/explicit2.wav,NA,0,NA,NA,NA,NA,NA,NA,NA,NA,NA,NA,NA,NA,NA,NA,NA,NA,NA,NA,NA,NA,NA,NA,NA,NA,NA
image-slider-response,354,1291479,0.0-328.0,voc_e2,11824,"[{""event"":""fullscreenenter"",""trial"":1,""time"":3222}]",NA,4275.79999999702,static/img/machines/machine2.png,NA,NA,NA,NA,NA,NA,NA,NA,NA,NA,NA,NA,NA,NA,NA,NA,explicit,NA,NA,NA,NA,NA,NA,NA,NA,NA,3
image-slider-response,355,1294147,0.0-329.0,voc_e2,11824,"[{""event"":""fullscreenenter"",""trial"":1,""time"":3222}]",NA,2665.79999999702,static/img/machines/machine1.png,NA,NA,NA,NA,NA,NA,NA,NA,NA,NA,NA,NA,NA,NA,NA,NA,explicit,NA,NA,NA,NA,NA,NA,NA,NA,NA,9
image-slider-response,356,1296897,0.0-330.0,voc_e2,11824,"[{""event"":""fullscreenenter"",""trial"":1,""time"":3222}]",NA,2747.0999999940395,static/img/machines/machine4.png,NA,NA,NA,NA,NA,NA,NA,NA,NA,NA,NA,NA,NA,NA,NA,NA,explicit,NA,NA,NA,NA,NA,NA,NA,NA,NA,4
image-slider-response,357,1299664,0.0-331.0,voc_e2,11824,"[{""event"":""fullscreenenter"",""trial"":1,""time"":3222}]",NA,2764.199999988079,static/img/machines/machine6.png,NA,NA,NA,NA,NA,NA,NA,NA,NA,NA,NA,NA,NA,NA,NA,NA,explicit,NA,NA,NA,NA,NA,NA,NA,NA,NA,6
image-slider-response,358,1302249,0.0-332.0,voc_e2,11824,"[{""event"":""fullscreenenter"",""trial"":1,""time"":3222}]",NA,2582.0999999940395,static/img/machines/machine5.png,NA,NA,NA,NA,NA,NA,NA,NA,NA,NA,NA,NA,NA,NA,NA,NA,explicit,NA,NA,NA,NA,NA,NA,NA,NA,NA,8
image-slider-response,359,1304807,0.0-333.0,voc_e2,11824,"[{""event"":""fullscreenenter"",""trial"":1,""time"":3222}]",NA,2555.79999999702,static/img/machines/machine3.png,NA,NA,NA,NA,NA,NA,NA,NA,NA,NA,NA,NA,NA,NA,NA,NA,explicit,NA,NA,NA,NA,NA,NA,NA,NA,NA,8
