trial_type,trial_index,time_elapsed,internal_node_id,task_version,subject_id,interactions,success,rt,stimulus,key_press,button_pressed,offer,arcade_color_L,arcade_color_R,arcade_outcome_L,arcade_outcome_R,correct,stage_1_key,stage_1_choice,stage_1_rt,stage_2_key,stage_2_choice,stage_2_rt,stage_3_outcome,accuracy,phase,responses,num_errors,context,reward_prob_L,reward_prob_R,arcade_id_L,arcade_id_R,trial,block,response
pavlovia,0,21,0.0-0.0,voc_e2,12058,[],NA,NA,NA,NA,NA,NA,NA,NA,NA,NA,NA,NA,NA,NA,NA,NA,NA,NA,NA,NA,NA,NA,NA,NA,NA,NA,NA,NA,NA,NA
fullscreen,1,4111,0.0-1.0,voc_e2,12058,"[{""event"":""fullscreenenter"",""trial"":1,""time"":3114}]",TRUE,NA,NA,NA,NA,NA,NA,NA,NA,NA,NA,NA,NA,NA,NA,NA,NA,NA,NA,NA,NA,NA,NA,NA,NA,NA,NA,NA,NA,NA
audio-keyboard-response,2,16436,0.0-2.0,voc_e2,12058,"[{""event"":""fullscreenenter"",""trial"":1,""time"":3114}]",NA,12127,static/audio/beep_loop.wav,32,NA,NA,NA,NA,NA,NA,NA,NA,NA,NA,NA,NA,NA,NA,NA,NA,NA,NA,NA,NA,NA,NA,NA,NA,NA,NA
audio-test,3,19181,0.0-3.0,voc_e2,12058,"[{""event"":""fullscreenenter"",""trial"":1,""time"":3114}]",NA,NA,static/audio/turtle.wav,NA,3,NA,NA,NA,NA,NA,NA,NA,NA,NA,NA,NA,NA,NA,NA,NA,NA,NA,NA,NA,NA,NA,NA,NA,NA,NA
audio-test,4,21481,0.0-4.0,voc_e2,12058,"[{""event"":""fullscreenenter"",""trial"":1,""time"":3114}]",NA,NA,static/audio/shark.wav,NA,2,NA,NA,NA,NA,NA,NA,NA,NA,NA,NA,NA,NA,NA,NA,NA,NA,NA,NA,NA,NA,NA,NA,NA,NA,NA
audio-instructions,5,28511,0.0-5.0-0.0,voc_e2,12058,"[{""event"":""fullscreenenter"",""trial"":1,""time"":3114}]",NA,1247.600000023842,static/audio/instructions1.wav,NA,0,NA,NA,NA,NA,NA,NA,NA,NA,NA,NA,NA,NA,NA,NA,NA,NA,NA,NA,NA,NA,NA,NA,NA,NA,NA
audio-instructions,6,37245,0.0-5.0-1.0,voc_e2,12058,"[{""event"":""fullscreenenter"",""trial"":1,""time"":3114}]",NA,1987.6999999284744,static/audio/instructions2.wav,NA,0,NA,NA,NA,NA,NA,NA,NA,NA,NA,NA,NA,NA,NA,NA,NA,NA,NA,NA,NA,NA,NA,NA,NA,NA,NA
audio-instructions,7,46431,0.0-5.0-2.0,voc_e2,12058,"[{""event"":""fullscreenenter"",""trial"":1,""time"":3114}]",NA,3383.600000023842,static/audio/instructions3.wav,NA,0,NA,NA,NA,NA,NA,NA,NA,NA,NA,NA,NA,NA,NA,NA,NA,NA,NA,NA,NA,NA,NA,NA,NA,NA,NA
audio-instructions,8,60251,0.0-5.0-3.0,voc_e2,12058,"[{""event"":""fullscreenenter"",""trial"":1,""time"":3114}]",NA,589.6000000238419,static/audio/instructions4.wav,NA,0,NA,NA,NA,NA,NA,NA,NA,NA,NA,NA,NA,NA,NA,NA,NA,NA,NA,NA,NA,NA,NA,NA,NA,NA,NA
audio-instructions,9,70145,0.0-5.0-4.0,voc_e2,12058,"[{""event"":""fullscreenenter"",""trial"":1,""time"":3114}]",NA,511,static/audio/instructions5.wav,NA,0,NA,NA,NA,NA,NA,NA,NA,NA,NA,NA,NA,NA,NA,NA,NA,NA,NA,NA,NA,NA,NA,NA,NA,NA,NA
fcp-practice,10,73215,0.0-5.0-5.0-0.0,voc_e2,12058,"[{""event"":""fullscreenenter"",""trial"":1,""time"":3114}]",NA,NA,NA,NA,NA,NA,#EDC948,#46d3c8,10,0,1,null,null,null,37,1,1560,10,1,practice,NA,NA,NA,NA,NA,NA,NA,NA,NA,NA
fcp-practice,11,75285,0.0-5.0-5.0-1.0,voc_e2,12058,"[{""event"":""fullscreenenter"",""trial"":1,""time"":3114}]",NA,NA,NA,NA,NA,NA,#EDC948,#46d3c8,10,0,1,null,null,null,37,1,566.7000000476837,10,1,practice,NA,NA,NA,NA,NA,NA,NA,NA,NA,NA
fcp-practice,12,77294,0.0-5.0-5.0-2.0,voc_e2,12058,"[{""event"":""fullscreenenter"",""trial"":1,""time"":3114}]",NA,NA,NA,NA,NA,NA,#EDC948,#46d3c8,0,10,1,null,null,null,37,1,506.39999997615814,0,1,practice,NA,NA,NA,NA,NA,NA,NA,NA,NA,NA
fcp-practice,13,79171,0.0-5.0-5.0-3.0,voc_e2,12058,"[{""event"":""fullscreenenter"",""trial"":1,""time"":3114}]",NA,NA,NA,NA,NA,NA,#EDC948,#46d3c8,10,0,1,null,null,null,37,1,374,10,1,practice,NA,NA,NA,NA,NA,NA,NA,NA,NA,NA
fcp-practice,14,81105,0.0-5.0-5.0-4.0,voc_e2,12058,"[{""event"":""fullscreenenter"",""trial"":1,""time"":3114}]",NA,NA,NA,NA,NA,NA,#EDC948,#46d3c8,10,0,1,null,null,null,37,1,430.2000000476837,10,1,practice,NA,NA,NA,NA,NA,NA,NA,NA,NA,NA
audio-instructions,15,99771,0.0-5.0-6.0,voc_e2,12058,"[{""event"":""fullscreenenter"",""trial"":1,""time"":3114}]",NA,659.3999999761581,static/audio/instructions6.wav,NA,0,NA,NA,NA,NA,NA,NA,NA,NA,NA,NA,NA,NA,NA,NA,NA,NA,NA,NA,NA,NA,NA,NA,NA,NA,NA
audio-instructions,16,119944,0.0-5.0-7.0,voc_e2,12058,"[{""event"":""fullscreenenter"",""trial"":1,""time"":3114}]",NA,973.2000000476836,static/audio/instructions7.wav,NA,0,NA,NA,NA,NA,NA,NA,NA,NA,NA,NA,NA,NA,NA,NA,NA,NA,NA,NA,NA,NA,NA,NA,NA,NA,NA
audio-instructions,17,130507,0.0-5.0-8.0,voc_e2,12058,"[{""event"":""fullscreenenter"",""trial"":1,""time"":3114}]",NA,1093.1999999284744,static/audio/instructions8.wav,NA,0,NA,NA,NA,NA,NA,NA,NA,NA,NA,NA,NA,NA,NA,NA,NA,NA,NA,NA,NA,NA,NA,NA,NA,NA,NA
fcp-comprehension,18,152051,0.0-5.0-9.0,voc_e2,12058,"[{""event"":""fullscreenenter"",""trial"":1,""time"":3114}]",NA,21542,NA,NA,NA,NA,NA,NA,NA,NA,NA,NA,NA,NA,NA,NA,NA,NA,NA,NA,"true,true",0,NA,NA,NA,NA,NA,NA,NA,NA
audio-instructions,19,158281,0.0-6.0-0.0,voc_e2,12058,"[{""event"":""fullscreenenter"",""trial"":1,""time"":3114}]",NA,683.7000000476837,static/audio/instructions9.wav,NA,0,NA,NA,NA,NA,NA,NA,NA,NA,NA,NA,NA,NA,NA,NA,NA,NA,NA,NA,NA,NA,NA,NA,NA,NA,NA
audio-instructions,20,174131,0.0-6.0-1.0,voc_e2,12058,"[{""event"":""fullscreenenter"",""trial"":1,""time"":3114}]",NA,3727.899999976158,static/audio/instructions10.wav,NA,0,NA,NA,NA,NA,NA,NA,NA,NA,NA,NA,NA,NA,NA,NA,NA,NA,NA,NA,NA,NA,NA,NA,NA,NA,NA
fcp-trial,21,181851,0.0-6.0-2.0,voc_e2,12058,"[{""event"":""fullscreenenter"",""trial"":1,""time"":3114}]",NA,NA,NA,NA,NA,0,#EDC948,#46d3c8,10,10,1,38,1,4440.799999952316,37,1,1769,10,1,practice,NA,NA,NA,NA,NA,NA,NA,NA,NA,NA
audio-instructions,22,194433,0.0-6.0-3.0,voc_e2,12058,"[{""event"":""fullscreenenter"",""trial"":1,""time"":3114}]",NA,1570.600000023842,static/audio/instructions11.wav,NA,0,NA,NA,NA,NA,NA,NA,NA,NA,NA,NA,NA,NA,NA,NA,NA,NA,NA,NA,NA,NA,NA,NA,NA,NA,NA
fcp-trial,23,198788,0.0-6.0-4.0,voc_e2,12058,"[{""event"":""fullscreenenter"",""trial"":1,""time"":3114}]",NA,NA,NA,NA,NA,6,#EDC948,#46d3c8,10,10,1,40,0,1349.6999999284744,37,1,1499.399999976158,10,1,practice,NA,NA,NA,NA,NA,NA,NA,NA,NA,NA
audio-instructions,24,218281,0.0-6.0-5.0,voc_e2,12058,"[{""event"":""fullscreenenter"",""trial"":1,""time"":3114}]",NA,805.5,static/audio/instructions12.wav,NA,0,NA,NA,NA,NA,NA,NA,NA,NA,NA,NA,NA,NA,NA,NA,NA,NA,NA,NA,NA,NA,NA,NA,NA,NA,NA
audio-instructions,25,226141,0.0-6.0-6.0,voc_e2,12058,"[{""event"":""fullscreenenter"",""trial"":1,""time"":3114}]",NA,265.7999999523163,static/audio/instructions13.wav,NA,0,NA,NA,NA,NA,NA,NA,NA,NA,NA,NA,NA,NA,NA,NA,NA,NA,NA,NA,NA,NA,NA,NA,NA,NA,NA
audio-instructions,26,235297,0.0-6.0-7.0,voc_e2,12058,"[{""event"":""fullscreenenter"",""trial"":1,""time"":3114}]",NA,708.2000000476837,static/audio/instructions14.wav,NA,0,NA,NA,NA,NA,NA,NA,NA,NA,NA,NA,NA,NA,NA,NA,NA,NA,NA,NA,NA,NA,NA,NA,NA,NA,NA
audio-instructions,27,242715,0.0-7.0-0.0,voc_e2,12058,"[{""event"":""fullscreenenter"",""trial"":1,""time"":3114}]",NA,504.2000000476837,static/audio/instructions15.wav,NA,0,NA,NA,NA,NA,NA,NA,NA,NA,NA,NA,NA,NA,NA,NA,NA,NA,NA,NA,NA,NA,NA,NA,NA,NA,NA
audio-instructions,28,250421,0.0-7.0-1.0,voc_e2,12058,"[{""event"":""fullscreenenter"",""trial"":1,""time"":3114}]",NA,878.6000000238419,static/audio/instructions16.wav,NA,0,NA,NA,NA,NA,NA,NA,NA,NA,NA,NA,NA,NA,NA,NA,NA,NA,NA,NA,NA,NA,NA,NA,NA,NA,NA
audio-instructions,29,258385,0.0-7.0-2.0,voc_e2,12058,"[{""event"":""fullscreenenter"",""trial"":1,""time"":3114}]",NA,286,static/audio/instructions17.wav,NA,0,NA,NA,NA,NA,NA,NA,NA,NA,NA,NA,NA,NA,NA,NA,NA,NA,NA,NA,NA,NA,NA,NA,NA,NA,NA
audio-instructions,30,267587,0.0-7.0-3.0,voc_e2,12058,"[{""event"":""fullscreenenter"",""trial"":1,""time"":3114}]",NA,1436.600000023842,static/audio/instructions18.wav,NA,0,NA,NA,NA,NA,NA,NA,NA,NA,NA,NA,NA,NA,NA,NA,NA,NA,NA,NA,NA,NA,NA,NA,NA,NA,NA
audio-instructions,31,274827,0.0-7.0-4.0,voc_e2,12058,"[{""event"":""fullscreenenter"",""trial"":1,""time"":3114}]",NA,497.2000000476837,static/audio/instructions19.wav,NA,0,NA,NA,NA,NA,NA,NA,NA,NA,NA,NA,NA,NA,NA,NA,NA,NA,NA,NA,NA,NA,NA,NA,NA,NA,NA
fcp-comprehension,32,302662,0.0-7.0-5.0,voc_e2,12058,"[{""event"":""fullscreenenter"",""trial"":1,""time"":3114}]",NA,27833.60000002384,NA,NA,NA,NA,NA,NA,NA,NA,NA,NA,NA,NA,NA,NA,NA,NA,NA,NA,"false,false,false,true",0,NA,NA,NA,NA,NA,NA,NA,NA
audio-instructions,33,312303,0.0-8.0,voc_e2,12058,"[{""event"":""fullscreenenter"",""trial"":1,""time"":3114}]",NA,426.39999997615814,static/audio/ready.wav,NA,0,NA,NA,NA,NA,NA,NA,NA,NA,NA,NA,NA,NA,NA,NA,NA,NA,NA,NA,NA,NA,NA,NA,NA,NA,NA
fcp-trial,34,318298,0.0-9.0-0.0,voc_e2,12058,"[{""event"":""fullscreenenter"",""trial"":1,""time"":3114}]",NA,NA,NA,NA,NA,5,#D8271C,#741CD8,10,10,0,40,0,3755.7000000476837,39,0,733.2000000476837,10,1,experiment,NA,NA,2,0.5,0.5,5,4,1,1,NA
fcp-trial,35,323010,0.0-10.0-0.0,voc_e2,12058,"[{""event"":""fullscreenenter"",""trial"":1,""time"":3114}]",NA,NA,NA,NA,NA,3,#3386FF,#D89F1C,0,0,1,38,1,2367.5,39,0,838.5,0,0,experiment,NA,NA,1,0.7,0.3,2,3,2,1,NA
fcp-trial,36,325453,0.0-11.0-0.0,voc_e2,12058,"[{""event"":""fullscreenenter"",""trial"":1,""time"":3114}]",NA,NA,NA,NA,NA,3,#1CD855,#FA92F8,0,10,0,38,1,595.6999999284744,39,0,343.1999999284744,10,1,experiment,NA,NA,0,0.1,0.9,1,0,3,1,NA
fcp-trial,37,328171,0.0-12.0-0.0,voc_e2,12058,"[{""event"":""fullscreenenter"",""trial"":1,""time"":3114}]",NA,NA,NA,NA,NA,4,#FA92F8,#1CD855,10,0,1,38,1,792.2999999523163,39,0,422,0,0,experiment,NA,NA,0,0.9,0.1,0,1,4,1,NA
fcp-trial,38,331500,0.0-13.0-0.0,voc_e2,12058,"[{""event"":""fullscreenenter"",""trial"":1,""time"":3114}]",NA,NA,NA,NA,NA,4,#D89F1C,#3386FF,0,10,0,38,1,1434.6000000238419,39,0,389,10,1,experiment,NA,NA,1,0.3,0.7,3,2,5,1,NA
fcp-trial,39,334109,0.0-14.0-0.0,voc_e2,12058,"[{""event"":""fullscreenenter"",""trial"":1,""time"":3114}]",NA,NA,NA,NA,NA,1,#741CD8,#D8271C,0,10,1,40,0,355.89999997615814,39,0,749.5,10,0,experiment,NA,NA,2,0.5,0.5,4,5,6,1,NA
fcp-trial,40,336269,0.0-15.0-0.0,voc_e2,12058,"[{""event"":""fullscreenenter"",""trial"":1,""time"":3114}]",NA,NA,NA,NA,NA,1,#3386FF,#D89F1C,10,0,1,40,0,267,39,0,389.2000000476837,0,0,experiment,NA,NA,1,0.7,0.3,2,3,7,1,NA
fcp-trial,41,338550,0.0-16.0-0.0,voc_e2,12058,"[{""event"":""fullscreenenter"",""trial"":1,""time"":3114}]",NA,NA,NA,NA,NA,0,#D8271C,#741CD8,0,0,0,40,0,341.10000002384186,37,1,434.60000002384186,0,0,experiment,NA,NA,2,0.5,0.5,5,4,8,1,NA
fcp-trial,42,341085,0.0-17.0-0.0,voc_e2,12058,"[{""event"":""fullscreenenter"",""trial"":1,""time"":3114}]",NA,NA,NA,NA,NA,2,#1CD855,#FA92F8,0,10,0,40,0,506,39,0,525.1999999284744,10,1,experiment,NA,NA,0,0.1,0.9,1,0,9,1,NA
fcp-trial,43,343681,0.0-18.0-0.0,voc_e2,12058,"[{""event"":""fullscreenenter"",""trial"":1,""time"":3114}]",NA,NA,NA,NA,NA,2,#D89F1C,#3386FF,0,10,0,40,0,522.1999999284744,39,0,571.1999999284744,10,1,experiment,NA,NA,1,0.3,0.7,3,2,10,1,NA
fcp-trial,44,345931,0.0-19.0-0.0,voc_e2,12058,"[{""event"":""fullscreenenter"",""trial"":1,""time"":3114}]",NA,NA,NA,NA,NA,6,#D89F1C,#3386FF,0,0,0,40,0,400.39999997615814,39,0,346.1999999284744,0,1,experiment,NA,NA,1,0.3,0.7,3,2,11,1,NA
fcp-trial,45,348525,0.0-20.0-0.0,voc_e2,12058,"[{""event"":""fullscreenenter"",""trial"":1,""time"":3114}]",NA,NA,NA,NA,NA,2,#D8271C,#741CD8,10,0,0,40,0,550.3000000715256,37,1,539.2000000476837,10,0,experiment,NA,NA,2,0.5,0.5,5,4,12,1,NA
fcp-trial,46,351315,0.0-21.0-0.0,voc_e2,12058,"[{""event"":""fullscreenenter"",""trial"":1,""time"":3114}]",NA,NA,NA,NA,NA,3,#D8271C,#741CD8,10,0,0,40,0,731.8000000715256,39,0,553.3000000715256,0,1,experiment,NA,NA,2,0.5,0.5,5,4,13,1,NA
fcp-trial,47,353551,0.0-22.0-0.0,voc_e2,12058,"[{""event"":""fullscreenenter"",""trial"":1,""time"":3114}]",NA,NA,NA,NA,NA,5,#1CD855,#FA92F8,0,10,0,40,0,280.7999999523163,37,1,448.60000002384186,0,0,experiment,NA,NA,0,0.1,0.9,1,0,14,1,NA
fcp-trial,48,356250,0.0-23.0-0.0,voc_e2,12058,"[{""event"":""fullscreenenter"",""trial"":1,""time"":3114}]",NA,NA,NA,NA,NA,4,#D8271C,#741CD8,10,0,0,40,0,428.8000000715256,37,1,764,10,0,experiment,NA,NA,2,0.5,0.5,5,4,15,1,NA
fcp-trial,49,358681,0.0-24.0-0.0,voc_e2,12058,"[{""event"":""fullscreenenter"",""trial"":1,""time"":3114}]",NA,NA,NA,NA,NA,5,#D89F1C,#3386FF,0,10,0,40,0,446.10000002384186,39,0,478.2000000476837,10,1,experiment,NA,NA,1,0.3,0.7,3,2,16,1,NA
fcp-trial,50,361141,0.0-25.0-0.0,voc_e2,12058,"[{""event"":""fullscreenenter"",""trial"":1,""time"":3114}]",NA,NA,NA,NA,NA,6,#FA92F8,#1CD855,10,10,1,40,0,507.7000000476837,37,1,449.7999999523163,10,1,experiment,NA,NA,0,0.9,0.1,0,1,17,1,NA
fcp-trial,51,363481,0.0-26.0-0.0,voc_e2,12058,"[{""event"":""fullscreenenter"",""trial"":1,""time"":3114}]",NA,NA,NA,NA,NA,0,#D89F1C,#3386FF,0,10,0,40,0,385.6999999284744,37,1,449.10000002384186,0,0,experiment,NA,NA,1,0.3,0.7,3,2,18,1,NA
fcp-trial,52,365686,0.0-27.0-0.0,voc_e2,12058,"[{""event"":""fullscreenenter"",""trial"":1,""time"":3114}]",NA,NA,NA,NA,NA,6,#741CD8,#D8271C,10,0,1,40,0,297.39999997615814,37,1,402.8000000715256,10,1,experiment,NA,NA,2,0.5,0.5,4,5,19,1,NA
fcp-trial,53,367996,0.0-28.0-0.0,voc_e2,12058,"[{""event"":""fullscreenenter"",""trial"":1,""time"":3114}]",NA,NA,NA,NA,NA,0,#1CD855,#FA92F8,0,10,0,40,0,401.60000002384186,37,1,403.6999999284744,0,0,experiment,NA,NA,0,0.1,0.9,1,0,20,1,NA
fcp-trial,54,370352,0.0-29.0-0.0,voc_e2,12058,"[{""event"":""fullscreenenter"",""trial"":1,""time"":3114}]",NA,NA,NA,NA,NA,1,#FA92F8,#1CD855,0,0,1,40,0,235.69999992847443,39,0,615.1000000238419,0,0,experiment,NA,NA,0,0.9,0.1,0,1,21,1,NA
fcp-trial,55,372465,0.0-30.0-0.0,voc_e2,12058,"[{""event"":""fullscreenenter"",""trial"":1,""time"":3114}]",NA,NA,NA,NA,NA,0,#FA92F8,#1CD855,10,0,1,40,0,266.39999997615814,37,1,342.6999999284744,10,1,experiment,NA,NA,0,0.9,0.1,0,1,22,1,NA
fcp-trial,56,374732,0.0-31.0-0.0,voc_e2,12058,"[{""event"":""fullscreenenter"",""trial"":1,""time"":3114}]",NA,NA,NA,NA,NA,2,#D8271C,#741CD8,0,10,0,40,0,266.7999999523163,37,1,493.39999997615814,0,0,experiment,NA,NA,2,0.5,0.5,5,4,23,1,NA
fcp-trial,57,376816,0.0-32.0-0.0,voc_e2,12058,"[{""event"":""fullscreenenter"",""trial"":1,""time"":3114}]",NA,NA,NA,NA,NA,0,#D89F1C,#3386FF,10,10,0,40,0,250,39,0,329.1999999284744,10,1,experiment,NA,NA,1,0.3,0.7,3,2,24,1,NA
fcp-trial,58,379039,0.0-33.0-0.0,voc_e2,12058,"[{""event"":""fullscreenenter"",""trial"":1,""time"":3114}]",NA,NA,NA,NA,NA,3,#FA92F8,#1CD855,10,10,1,40,0,266.2999999523163,37,1,449.7000000476837,10,1,experiment,NA,NA,0,0.9,0.1,0,1,25,1,NA
fcp-trial,59,381451,0.0-34.0-0.0,voc_e2,12058,"[{""event"":""fullscreenenter"",""trial"":1,""time"":3114}]",NA,NA,NA,NA,NA,6,#D8271C,#741CD8,10,10,0,40,0,414,39,0,493.2000000476837,10,1,experiment,NA,NA,2,0.5,0.5,5,4,26,1,NA
fcp-trial,60,383432,0.0-35.0-0.0,voc_e2,12058,"[{""event"":""fullscreenenter"",""trial"":1,""time"":3114}]",NA,NA,NA,NA,NA,3,#D8271C,#741CD8,0,10,0,40,0,28.200000047683716,37,1,447.7999999523163,0,0,experiment,NA,NA,2,0.5,0.5,5,4,27,1,NA
fcp-trial,61,385696,0.0-36.0-0.0,voc_e2,12058,"[{""event"":""fullscreenenter"",""trial"":1,""time"":3114}]",NA,NA,NA,NA,NA,5,#1CD855,#FA92F8,0,10,0,40,0,386.2999999523163,39,0,373.40000009536743,10,1,experiment,NA,NA,0,0.1,0.9,1,0,28,1,NA
fcp-trial,62,387963,0.0-37.0-0.0,voc_e2,12058,"[{""event"":""fullscreenenter"",""trial"":1,""time"":3114}]",NA,NA,NA,NA,NA,5,#3386FF,#D89F1C,10,10,1,40,0,117.89999997615814,39,0,644.8000000715256,10,0,experiment,NA,NA,1,0.7,0.3,2,3,29,1,NA
fcp-trial,63,390182,0.0-38.0-0.0,voc_e2,12058,"[{""event"":""fullscreenenter"",""trial"":1,""time"":3114}]",NA,NA,NA,NA,NA,1,#D89F1C,#3386FF,0,0,0,40,0,310.5,37,1,404.60000002384186,0,0,experiment,NA,NA,1,0.3,0.7,3,2,30,1,NA
fcp-trial,64,392342,0.0-39.0-0.0,voc_e2,12058,"[{""event"":""fullscreenenter"",""trial"":1,""time"":3114}]",NA,NA,NA,NA,NA,4,#D89F1C,#3386FF,0,0,0,40,0,252.10000002384186,39,0,403,0,1,experiment,NA,NA,1,0.3,0.7,3,2,31,1,NA
fcp-trial,65,394473,0.0-40.0-0.0,voc_e2,12058,"[{""event"":""fullscreenenter"",""trial"":1,""time"":3114}]",NA,NA,NA,NA,NA,1,#D8271C,#741CD8,0,0,0,40,0,297.10000002384186,37,1,328.89999997615814,0,0,experiment,NA,NA,2,0.5,0.5,5,4,32,1,NA
fcp-trial,66,396527,0.0-41.0-0.0,voc_e2,12058,"[{""event"":""fullscreenenter"",""trial"":1,""time"":3114}]",NA,NA,NA,NA,NA,4,#FA92F8,#1CD855,10,0,1,40,0,236,39,0,313.2000000476837,0,0,experiment,NA,NA,0,0.9,0.1,0,1,33,1,NA
fcp-trial,67,398719,0.0-42.0-0.0,voc_e2,12058,"[{""event"":""fullscreenenter"",""trial"":1,""time"":3114}]",NA,NA,NA,NA,NA,5,#741CD8,#D8271C,0,0,1,40,0,222.10000002384186,39,0,464.7000000476837,0,0,experiment,NA,NA,2,0.5,0.5,4,5,34,1,NA
fcp-trial,68,400805,0.0-43.0-0.0,voc_e2,12058,"[{""event"":""fullscreenenter"",""trial"":1,""time"":3114}]",NA,NA,NA,NA,NA,2,#FA92F8,#1CD855,10,0,1,40,0,131,39,0,450,0,0,experiment,NA,NA,0,0.9,0.1,0,1,35,1,NA
fcp-trial,69,403113,0.0-44.0-0.0,voc_e2,12058,"[{""event"":""fullscreenenter"",""trial"":1,""time"":3114}]",NA,NA,NA,NA,NA,3,#3386FF,#D89F1C,10,0,1,40,0,339.8000000715256,39,0,463,0,0,experiment,NA,NA,1,0.7,0.3,2,3,36,1,NA
fcp-trial,70,405453,0.0-45.0-0.0,voc_e2,12058,"[{""event"":""fullscreenenter"",""trial"":1,""time"":3114}]",NA,NA,NA,NA,NA,6,#1CD855,#FA92F8,0,10,0,40,0,342.60000002384186,37,1,492.8000000715256,0,0,experiment,NA,NA,0,0.1,0.9,1,0,37,1,NA
fcp-trial,71,408424,0.0-46.0-0.0,voc_e2,12058,"[{""event"":""fullscreenenter"",""trial"":1,""time"":3114}]",NA,NA,NA,NA,NA,0,#D8271C,#741CD8,10,0,0,40,0,1151.8999999761581,39,0,313.5,0,1,experiment,NA,NA,2,0.5,0.5,5,4,38,1,NA
fcp-trial,72,411288,0.0-47.0-0.0,voc_e2,12058,"[{""event"":""fullscreenenter"",""trial"":1,""time"":3114}]",NA,NA,NA,NA,NA,6,#3386FF,#D89F1C,10,10,1,40,0,1076.8000000715256,37,1,282.7999999523163,10,1,experiment,NA,NA,1,0.7,0.3,2,3,39,1,NA
fcp-trial,73,414724,0.0-48.0-0.0,voc_e2,12058,"[{""event"":""fullscreenenter"",""trial"":1,""time"":3114}]",NA,NA,NA,NA,NA,2,#3386FF,#D89F1C,10,0,1,40,0,1182,39,0,748.1000000238419,0,0,experiment,NA,NA,1,0.7,0.3,2,3,40,1,NA
fcp-trial,74,418715,0.0-49.0-0.0,voc_e2,12058,"[{""event"":""fullscreenenter"",""trial"":1,""time"":3114}]",NA,NA,NA,NA,NA,1,#FA92F8,#1CD855,10,0,1,38,1,2171.4000000953674,39,0,313.5,0,0,experiment,NA,NA,0,0.9,0.1,0,1,41,1,NA
fcp-trial,75,421656,0.0-50.0-0.0,voc_e2,12058,"[{""event"":""fullscreenenter"",""trial"":1,""time"":3114}]",NA,NA,NA,NA,NA,4,#741CD8,#D8271C,10,10,1,40,0,970,37,1,465.10000002384186,10,1,experiment,NA,NA,2,0.5,0.5,4,5,42,1,NA
fcp-trial,76,424534,0.0-51.0-0.0,voc_e2,12058,"[{""event"":""fullscreenenter"",""trial"":1,""time"":3114}]",NA,NA,NA,NA,NA,0,#741CD8,#D8271C,10,0,1,40,0,596.5,39,0,776.4000000953674,0,0,experiment,NA,NA,2,0.5,0.5,4,5,43,1,NA
fcp-trial,77,428210,0.0-52.0-0.0,voc_e2,12058,"[{""event"":""fullscreenenter"",""trial"":1,""time"":3114}]",NA,NA,NA,NA,NA,1,#1CD855,#FA92F8,0,10,0,38,1,1812.1000000238419,39,0,359,10,1,experiment,NA,NA,0,0.1,0.9,1,0,44,1,NA
fcp-trial,78,431841,0.0-53.0-0.0,voc_e2,12058,"[{""event"":""fullscreenenter"",""trial"":1,""time"":3114}]",NA,NA,NA,NA,NA,4,#D89F1C,#3386FF,0,10,0,40,0,1586.5,37,1,538.5999999046326,0,0,experiment,NA,NA,1,0.3,0.7,3,2,45,1,NA
fcp-trial,79,434810,0.0-54.0-0.0,voc_e2,12058,"[{""event"":""fullscreenenter"",""trial"":1,""time"":3114}]",NA,NA,NA,NA,NA,1,#D8271C,#741CD8,0,0,0,38,1,1120.6000000238419,39,0,345.39999997615814,0,1,experiment,NA,NA,2,0.5,0.5,5,4,46,2,NA
fcp-trial,80,437510,0.0-55.0-0.0,voc_e2,12058,"[{""event"":""fullscreenenter"",""trial"":1,""time"":3114}]",NA,NA,NA,NA,NA,1,#D89F1C,#3386FF,0,10,0,38,1,850.7999999523163,39,0,342.60000002384186,10,1,experiment,NA,NA,1,0.3,0.7,3,2,47,2,NA
fcp-trial,81,440436,0.0-56.0-0.0,voc_e2,12058,"[{""event"":""fullscreenenter"",""trial"":1,""time"":3114}]",NA,NA,NA,NA,NA,2,#FA92F8,#1CD855,10,0,1,38,1,265.89999997615814,37,1,1153.5999999046326,10,1,experiment,NA,NA,0,0.9,0.1,0,1,48,2,NA
fcp-trial,82,443241,0.0-57.0-0.0,voc_e2,12058,"[{""event"":""fullscreenenter"",""trial"":1,""time"":3114}]",NA,NA,NA,NA,NA,6,#741CD8,#D8271C,10,10,1,38,1,656.3999999761581,37,1,643.0999999046326,10,1,experiment,NA,NA,2,0.5,0.5,4,5,49,2,NA
fcp-trial,83,445895,0.0-58.0-0.0,voc_e2,12058,"[{""event"":""fullscreenenter"",""trial"":1,""time"":3114}]",NA,NA,NA,NA,NA,0,#FA92F8,#1CD855,10,0,1,38,1,627.2000000476837,37,1,522.6999999284744,10,1,experiment,NA,NA,0,0.9,0.1,0,1,50,2,NA
fcp-trial,84,448490,0.0-59.0-0.0,voc_e2,12058,"[{""event"":""fullscreenenter"",""trial"":1,""time"":3114}]",NA,NA,NA,NA,NA,2,#D89F1C,#3386FF,0,10,0,38,1,658.0999999046326,37,1,433.40000009536743,0,0,experiment,NA,NA,1,0.3,0.7,3,2,51,2,NA
fcp-trial,85,450921,0.0-60.0-0.0,voc_e2,12058,"[{""event"":""fullscreenenter"",""trial"":1,""time"":3114}]",NA,NA,NA,NA,NA,3,#D89F1C,#3386FF,10,10,0,38,1,613.0999999046326,39,0,313.2999999523163,10,1,experiment,NA,NA,1,0.3,0.7,3,2,52,2,NA
fcp-trial,86,453291,0.0-61.0-0.0,voc_e2,12058,"[{""event"":""fullscreenenter"",""trial"":1,""time"":3114}]",NA,NA,NA,NA,NA,4,#1CD855,#FA92F8,0,10,0,38,1,580.3000000715256,39,0,285.5,10,1,experiment,NA,NA,0,0.1,0.9,1,0,53,2,NA
fcp-trial,87,456081,0.0-62.0-0.0,voc_e2,12058,"[{""event"":""fullscreenenter"",""trial"":1,""time"":3114}]",NA,NA,NA,NA,NA,2,#D8271C,#741CD8,10,0,0,38,1,580.7000000476837,37,1,703.6999999284744,10,0,experiment,NA,NA,2,0.5,0.5,5,4,54,2,NA
fcp-trial,88,458541,0.0-63.0-0.0,voc_e2,12058,"[{""event"":""fullscreenenter"",""trial"":1,""time"":3114}]",NA,NA,NA,NA,NA,5,#741CD8,#D8271C,0,10,1,38,1,596.7999999523163,39,0,357.59999990463257,10,0,experiment,NA,NA,2,0.5,0.5,4,5,55,2,NA
fcp-trial,89,461183,0.0-64.0-0.0,voc_e2,12058,"[{""event"":""fullscreenenter"",""trial"":1,""time"":3114}]",NA,NA,NA,NA,NA,5,#3386FF,#D89F1C,10,0,1,38,1,672.3999999761581,37,1,464.89999997615814,10,1,experiment,NA,NA,1,0.7,0.3,2,3,56,2,NA
fcp-trial,90,464003,0.0-65.0-0.0,voc_e2,12058,"[{""event"":""fullscreenenter"",""trial"":1,""time"":3114}]",NA,NA,NA,NA,NA,6,#FA92F8,#1CD855,10,0,1,38,1,685.3000000715256,37,1,629.6000000238419,10,1,experiment,NA,NA,0,0.9,0.1,0,1,57,2,NA
fcp-trial,91,466656,0.0-66.0-0.0,voc_e2,12058,"[{""event"":""fullscreenenter"",""trial"":1,""time"":3114}]",NA,NA,NA,NA,NA,0,#D89F1C,#3386FF,10,10,0,38,1,386.10000002384186,39,0,762.9000000953674,10,1,experiment,NA,NA,1,0.3,0.7,3,2,58,2,NA
fcp-trial,92,469326,0.0-67.0-0.0,voc_e2,12058,"[{""event"":""fullscreenenter"",""trial"":1,""time"":3114}]",NA,NA,NA,NA,NA,3,#FA92F8,#1CD855,10,0,1,38,1,793.1999999284744,37,1,372.7999999523163,10,1,experiment,NA,NA,0,0.9,0.1,0,1,59,2,NA
fcp-trial,93,471577,0.0-68.0-0.0,voc_e2,12058,"[{""event"":""fullscreenenter"",""trial"":1,""time"":3114}]",NA,NA,NA,NA,NA,4,#D8271C,#741CD8,10,10,0,38,1,432.89999997615814,37,1,313.89999997615814,10,0,experiment,NA,NA,2,0.5,0.5,5,4,60,2,NA
fcp-trial,94,474009,0.0-69.0-0.0,voc_e2,12058,"[{""event"":""fullscreenenter"",""trial"":1,""time"":3114}]",NA,NA,NA,NA,NA,5,#1CD855,#FA92F8,0,10,0,38,1,597.5,39,0,331.7000000476837,10,1,experiment,NA,NA,0,0.1,0.9,1,0,61,2,NA
fcp-trial,95,476271,0.0-70.0-0.0,voc_e2,12058,"[{""event"":""fullscreenenter"",""trial"":1,""time"":3114}]",NA,NA,NA,NA,NA,6,#D89F1C,#3386FF,10,10,0,38,1,339.60000002384186,39,0,419.1999999284744,10,1,experiment,NA,NA,1,0.3,0.7,3,2,62,2,NA
fcp-trial,96,479423,0.0-71.0-0.0,voc_e2,12058,"[{""event"":""fullscreenenter"",""trial"":1,""time"":3114}]",NA,NA,NA,NA,NA,3,#741CD8,#D8271C,0,0,1,38,1,430.7999999523163,39,0,1214.2999999523165,0,0,experiment,NA,NA,2,0.5,0.5,4,5,63,2,NA
fcp-trial,97,481673,0.0-72.0-0.0,voc_e2,12058,"[{""event"":""fullscreenenter"",""trial"":1,""time"":3114}]",NA,NA,NA,NA,NA,0,#D89F1C,#3386FF,10,0,0,38,1,356.09999990463257,39,0,388.39999997615814,0,1,experiment,NA,NA,1,0.3,0.7,3,2,64,2,NA
fcp-trial,98,483984,0.0-73.0-0.0,voc_e2,12058,"[{""event"":""fullscreenenter"",""trial"":1,""time"":3114}]",NA,NA,NA,NA,NA,1,#741CD8,#D8271C,10,0,1,38,1,311.1999999284744,39,0,494.59999990463257,0,0,experiment,NA,NA,2,0.5,0.5,4,5,65,2,NA
fcp-trial,99,486112,0.0-74.0-0.0,voc_e2,12058,"[{""event"":""fullscreenenter"",""trial"":1,""time"":3114}]",NA,NA,NA,NA,NA,2,#3386FF,#D89F1C,10,0,1,38,1,235.60000002384186,37,1,387,10,1,experiment,NA,NA,1,0.7,0.3,2,3,66,2,NA
fcp-trial,100,488842,0.0-75.0-0.0,voc_e2,12058,"[{""event"":""fullscreenenter"",""trial"":1,""time"":3114}]",NA,NA,NA,NA,NA,3,#1CD855,#FA92F8,0,10,0,38,1,355.90000009536743,39,0,867.8000000715256,10,1,experiment,NA,NA,0,0.1,0.9,1,0,67,2,NA
fcp-trial,101,491048,0.0-76.0-0.0,voc_e2,12058,"[{""event"":""fullscreenenter"",""trial"":1,""time"":3114}]",NA,NA,NA,NA,NA,5,#FA92F8,#1CD855,10,10,1,38,1,267.2999999523163,37,1,434.2000000476837,10,1,experiment,NA,NA,0,0.9,0.1,0,1,68,2,NA
fcp-trial,102,493268,0.0-77.0-0.0,voc_e2,12058,"[{""event"":""fullscreenenter"",""trial"":1,""time"":3114}]",NA,NA,NA,NA,NA,2,#D8271C,#741CD8,10,0,0,38,1,281.2999999523163,37,1,432.89999997615814,10,0,experiment,NA,NA,2,0.5,0.5,5,4,69,2,NA
fcp-trial,103,495325,0.0-78.0-0.0,voc_e2,12058,"[{""event"":""fullscreenenter"",""trial"":1,""time"":3114}]",NA,NA,NA,NA,NA,1,#D89F1C,#3386FF,10,0,0,38,1,296,39,0,256.10000002384186,0,1,experiment,NA,NA,1,0.3,0.7,3,2,70,2,NA
fcp-trial,104,497483,0.0-79.0-0.0,voc_e2,12058,"[{""event"":""fullscreenenter"",""trial"":1,""time"":3114}]",NA,NA,NA,NA,NA,0,#FA92F8,#1CD855,10,0,1,38,1,280.7999999523163,37,1,373.10000002384186,10,1,experiment,NA,NA,0,0.9,0.1,0,1,71,2,NA
fcp-trial,105,500063,0.0-80.0-0.0,voc_e2,12058,"[{""event"":""fullscreenenter"",""trial"":1,""time"":3114}]",NA,NA,NA,NA,NA,6,#D8271C,#741CD8,0,0,0,38,1,237.30000007152557,39,0,838.0999999046326,0,1,experiment,NA,NA,2,0.5,0.5,5,4,72,2,NA
fcp-trial,106,502539,0.0-81.0-0.0,voc_e2,12058,"[{""event"":""fullscreenenter"",""trial"":1,""time"":3114}]",NA,NA,NA,NA,NA,5,#3386FF,#D89F1C,0,0,1,38,1,566.7000000476837,37,1,403.5,0,1,experiment,NA,NA,1,0.7,0.3,2,3,73,2,NA
fcp-trial,107,505088,0.0-82.0-0.0,voc_e2,12058,"[{""event"":""fullscreenenter"",""trial"":1,""time"":3114}]",NA,NA,NA,NA,NA,3,#741CD8,#D8271C,0,0,1,38,1,296.6999999284744,39,0,748.8000000715256,0,0,experiment,NA,NA,2,0.5,0.5,4,5,74,2,NA
fcp-trial,108,507174,0.0-83.0-0.0,voc_e2,12058,"[{""event"":""fullscreenenter"",""trial"":1,""time"":3114}]",NA,NA,NA,NA,NA,6,#D89F1C,#3386FF,10,10,0,38,1,73.19999992847443,37,1,508.89999997615814,10,0,experiment,NA,NA,1,0.3,0.7,3,2,75,2,NA
fcp-trial,109,509873,0.0-84.0-0.0,voc_e2,12058,"[{""event"":""fullscreenenter"",""trial"":1,""time"":3114}]",NA,NA,NA,NA,NA,4,#1CD855,#FA92F8,0,10,0,38,1,326.39999997615814,39,0,868.4000000953674,10,1,experiment,NA,NA,0,0.1,0.9,1,0,76,2,NA
fcp-trial,110,515559,0.0-85.0-0.0,voc_e2,12058,"[{""event"":""fullscreenenter"",""trial"":1,""time"":3114}]",NA,NA,NA,NA,NA,4,#D8271C,#741CD8,0,0,0,38,1,3622,37,1,558.7000000476837,0,0,experiment,NA,NA,2,0.5,0.5,5,4,77,2,NA
fcp-trial,111,518500,0.0-86.0-0.0,voc_e2,12058,"[{""event"":""fullscreenenter"",""trial"":1,""time"":3114}]",NA,NA,NA,NA,NA,2,#1CD855,#FA92F8,0,10,0,38,1,821.8999999761581,39,0,613.8999999761581,10,1,experiment,NA,NA,0,0.1,0.9,1,0,78,2,NA
fcp-trial,112,520749,0.0-87.0-0.0,voc_e2,12058,"[{""event"":""fullscreenenter"",""trial"":1,""time"":3114}]",NA,NA,NA,NA,NA,1,#FA92F8,#1CD855,10,0,1,38,1,372.89999997615814,37,1,372.2999999523163,10,1,experiment,NA,NA,0,0.9,0.1,0,1,79,2,NA
fcp-trial,113,522985,0.0-88.0-0.0,voc_e2,12058,"[{""event"":""fullscreenenter"",""trial"":1,""time"":3114}]",NA,NA,NA,NA,NA,4,#D89F1C,#3386FF,0,10,0,38,1,416.3000000715256,39,0,313.2999999523163,10,1,experiment,NA,NA,1,0.3,0.7,3,2,80,2,NA
fcp-trial,114,525220,0.0-89.0-0.0,voc_e2,12058,"[{""event"":""fullscreenenter"",""trial"":1,""time"":3114}]",NA,NA,NA,NA,NA,6,#FA92F8,#1CD855,10,0,1,38,1,401.7999999523163,37,1,328.1999999284744,10,1,experiment,NA,NA,0,0.9,0.1,0,1,81,2,NA
fcp-trial,115,527696,0.0-90.0-0.0,voc_e2,12058,"[{""event"":""fullscreenenter"",""trial"":1,""time"":3114}]",NA,NA,NA,NA,NA,5,#741CD8,#D8271C,0,0,1,38,1,312,39,0,658.8999999761581,0,0,experiment,NA,NA,2,0.5,0.5,4,5,82,2,NA
fcp-trial,116,530244,0.0-91.0-0.0,voc_e2,12058,"[{""event"":""fullscreenenter"",""trial"":1,""time"":3114}]",NA,NA,NA,NA,NA,0,#D8271C,#741CD8,0,0,0,38,1,431,39,0,613.8999999761581,0,1,experiment,NA,NA,2,0.5,0.5,5,4,83,2,NA
fcp-trial,117,532825,0.0-92.0-0.0,voc_e2,12058,"[{""event"":""fullscreenenter"",""trial"":1,""time"":3114}]",NA,NA,NA,NA,NA,3,#D89F1C,#3386FF,0,10,0,38,1,477,39,0,598,10,1,experiment,NA,NA,1,0.3,0.7,3,2,84,2,NA
fcp-trial,118,534971,0.0-93.0-0.0,voc_e2,12058,"[{""event"":""fullscreenenter"",""trial"":1,""time"":3114}]",NA,NA,NA,NA,NA,4,#D89F1C,#3386FF,0,0,0,38,1,281.3000000715256,39,0,359.7000000476837,0,1,experiment,NA,NA,1,0.3,0.7,3,2,85,2,NA
fcp-trial,119,537025,0.0-94.0-0.0,voc_e2,12058,"[{""event"":""fullscreenenter"",""trial"":1,""time"":3114}]",NA,NA,NA,NA,NA,2,#1CD855,#FA92F8,0,10,0,38,1,251.5,39,0,298.10000002384186,10,1,experiment,NA,NA,0,0.1,0.9,1,0,86,2,NA
fcp-trial,120,539275,0.0-95.0-0.0,voc_e2,12058,"[{""event"":""fullscreenenter"",""trial"":1,""time"":3114}]",NA,NA,NA,NA,NA,2,#D8271C,#741CD8,10,10,0,38,1,328.5,39,0,416.2000000476837,10,1,experiment,NA,NA,2,0.5,0.5,5,4,87,2,NA
fcp-trial,121,542143,0.0-96.0-0.0,voc_e2,12058,"[{""event"":""fullscreenenter"",""trial"":1,""time"":3114}]",NA,NA,NA,NA,NA,6,#FA92F8,#1CD855,10,0,1,38,1,222.5,37,1,1140.100000023842,10,1,experiment,NA,NA,0,0.9,0.1,0,1,88,2,NA
fcp-trial,122,544480,0.0-97.0-0.0,voc_e2,12058,"[{""event"":""fullscreenenter"",""trial"":1,""time"":3114}]",NA,NA,NA,NA,NA,6,#D89F1C,#3386FF,10,10,0,38,1,431.2000000476837,39,0,402.60000002384186,10,1,experiment,NA,NA,1,0.3,0.7,3,2,89,2,NA
fcp-trial,123,546716,0.0-98.0-0.0,voc_e2,12058,"[{""event"":""fullscreenenter"",""trial"":1,""time"":3114}]",NA,NA,NA,NA,NA,6,#D8271C,#741CD8,0,10,0,38,1,402.39999997615814,39,0,328,10,1,experiment,NA,NA,2,0.5,0.5,5,4,90,2,NA
fcp-trial,124,548893,0.0-99.0-0.0,voc_e2,12058,"[{""event"":""fullscreenenter"",""trial"":1,""time"":3114}]",NA,NA,NA,NA,NA,5,#3386FF,#D89F1C,10,0,1,38,1,312,37,1,360,10,1,experiment,NA,NA,1,0.7,0.3,2,3,91,3,NA
fcp-trial,125,551216,0.0-100.0-0.0,voc_e2,12058,"[{""event"":""fullscreenenter"",""trial"":1,""time"":3114}]",NA,NA,NA,NA,NA,1,#1CD855,#FA92F8,10,10,0,38,1,353.7999999523163,39,0,464.7000000476837,10,1,experiment,NA,NA,0,0.1,0.9,1,0,92,3,NA
fcp-trial,126,553811,0.0-101.0-0.0,voc_e2,12058,"[{""event"":""fullscreenenter"",""trial"":1,""time"":3114}]",NA,NA,NA,NA,NA,3,#741CD8,#D8271C,10,0,1,38,1,115.89999997615814,37,1,973.2999999523164,10,1,experiment,NA,NA,2,0.5,0.5,4,5,93,3,NA
fcp-trial,127,555956,0.0-102.0-0.0,voc_e2,12058,"[{""event"":""fullscreenenter"",""trial"":1,""time"":3114}]",NA,NA,NA,NA,NA,4,#FA92F8,#1CD855,10,0,1,38,1,341.89999997615814,37,1,299.5,10,1,experiment,NA,NA,0,0.9,0.1,0,1,94,3,NA
fcp-trial,128,558733,0.0-103.0-0.0,voc_e2,12058,"[{""event"":""fullscreenenter"",""trial"":1,""time"":3114}]",NA,NA,NA,NA,NA,5,#D8271C,#741CD8,10,10,0,38,1,447.5,39,0,824.6000000238419,10,1,experiment,NA,NA,2,0.5,0.5,5,4,95,3,NA
fcp-trial,129,560863,0.0-104.0-0.0,voc_e2,12058,"[{""event"":""fullscreenenter"",""trial"":1,""time"":3114}]",NA,NA,NA,NA,NA,1,#3386FF,#D89F1C,10,0,1,38,1,323.89999997615814,37,1,298.2000000476837,10,1,experiment,NA,NA,1,0.7,0.3,2,3,96,3,NA
fcp-trial,130,562874,0.0-105.0-0.0,voc_e2,12058,"[{""event"":""fullscreenenter"",""trial"":1,""time"":3114}]",NA,NA,NA,NA,NA,3,#D89F1C,#3386FF,0,10,0,38,1,250.89999997615814,39,0,255.39999997615817,10,1,experiment,NA,NA,1,0.3,0.7,3,2,97,3,NA
fcp-trial,131,565272,0.0-106.0-0.0,voc_e2,12058,"[{""event"":""fullscreenenter"",""trial"":1,""time"":3114}]",NA,NA,NA,NA,NA,5,#FA92F8,#1CD855,10,0,1,38,1,281.09999990463257,37,1,612.1000000238419,10,1,experiment,NA,NA,0,0.9,0.1,0,1,98,3,NA
fcp-trial,132,567283,0.0-107.0-0.0,voc_e2,12058,"[{""event"":""fullscreenenter"",""trial"":1,""time"":3114}]",NA,NA,NA,NA,NA,0,#3386FF,#D89F1C,10,0,1,38,1,190.19999992847443,37,1,313.40000009536743,10,1,experiment,NA,NA,1,0.7,0.3,2,3,99,3,NA
fcp-trial,133,569652,0.0-108.0-0.0,voc_e2,12058,"[{""event"":""fullscreenenter"",""trial"":1,""time"":3114}]",NA,NA,NA,NA,NA,0,#741CD8,#D8271C,0,0,1,38,1,386.40000009536743,37,1,478.10000002384186,0,1,experiment,NA,NA,2,0.5,0.5,4,5,100,3,NA
fcp-trial,134,571708,0.0-109.0-0.0,voc_e2,12058,"[{""event"":""fullscreenenter"",""trial"":1,""time"":3114}]",NA,NA,NA,NA,NA,1,#D8271C,#741CD8,10,10,0,38,1,86.30000007152557,39,0,464.7999999523163,10,1,experiment,NA,NA,2,0.5,0.5,5,4,101,3,NA
fcp-trial,135,574092,0.0-110.0-0.0,voc_e2,12058,"[{""event"":""fullscreenenter"",""trial"":1,""time"":3114}]",NA,NA,NA,NA,NA,3,#FA92F8,#1CD855,10,0,1,38,1,387.39999997615814,37,1,492,10,1,experiment,NA,NA,0,0.9,0.1,0,1,102,3,NA
fcp-trial,136,576522,0.0-111.0-0.0,voc_e2,12058,"[{""event"":""fullscreenenter"",""trial"":1,""time"":3114}]",NA,NA,NA,NA,NA,2,#D89F1C,#3386FF,10,10,0,40,0,281.90000009536743,37,1,643.2000000476837,10,0,experiment,NA,NA,1,0.3,0.7,3,2,103,3,NA
fcp-trial,137,579569,0.0-112.0-0.0,voc_e2,12058,"[{""event"":""fullscreenenter"",""trial"":1,""time"":3114}]",NA,NA,NA,NA,NA,4,#D8271C,#741CD8,10,10,0,38,1,462.39999997615814,39,0,1080.1999999284744,10,1,experiment,NA,NA,2,0.5,0.5,5,4,104,3,NA
fcp-trial,138,582029,0.0-113.0-0.0,voc_e2,12058,"[{""event"":""fullscreenenter"",""trial"":1,""time"":3114}]",NA,NA,NA,NA,NA,0,#FA92F8,#1CD855,10,0,1,38,1,432.2000000476837,37,1,522.8000000715256,10,1,experiment,NA,NA,0,0.9,0.1,0,1,105,3,NA
audio-instructions,139,587363,0.0-114.0,voc_e2,12058,"[{""event"":""fullscreenenter"",""trial"":1,""time"":3114}]",NA,709.6000000238419,static/audio/pause.wav,NA,0,NA,NA,NA,NA,NA,NA,NA,NA,NA,NA,NA,NA,NA,NA,NA,NA,NA,NA,NA,NA,NA,NA,NA,NA,NA
fcp-trial,140,591390,0.0-115.0-0.0,voc_e2,12058,"[{""event"":""fullscreenenter"",""trial"":1,""time"":3114}]",NA,NA,NA,NA,NA,3,#741CD8,#D8271C,10,0,1,38,1,1966.3999999761581,37,1,553.3999999761581,10,1,experiment,NA,NA,2,0.5,0.5,4,5,106,3,NA
fcp-trial,141,593683,0.0-116.0-0.0,voc_e2,12058,"[{""event"":""fullscreenenter"",""trial"":1,""time"":3114}]",NA,NA,NA,NA,NA,0,#D8271C,#741CD8,10,10,0,38,1,474,39,0,313.7999999523163,10,1,experiment,NA,NA,2,0.5,0.5,5,4,107,3,NA
fcp-trial,142,596309,0.0-117.0-0.0,voc_e2,12058,"[{""event"":""fullscreenenter"",""trial"":1,""time"":3114}]",NA,NA,NA,NA,NA,2,#D89F1C,#3386FF,0,10,0,38,1,417.5,39,0,703,10,1,experiment,NA,NA,1,0.3,0.7,3,2,108,3,NA
fcp-trial,143,598515,0.0-118.0-0.0,voc_e2,12058,"[{""event"":""fullscreenenter"",""trial"":1,""time"":3114}]",NA,NA,NA,NA,NA,3,#1CD855,#FA92F8,0,0,0,38,1,310,39,0,388.2999999523163,0,1,experiment,NA,NA,0,0.1,0.9,1,0,109,3,NA
fcp-trial,144,600704,0.0-119.0-0.0,voc_e2,12058,"[{""event"":""fullscreenenter"",""trial"":1,""time"":3114}]",NA,NA,NA,NA,NA,6,#D8271C,#741CD8,10,0,0,38,1,309.6999999284744,39,0,374.39999997615814,0,1,experiment,NA,NA,2,0.5,0.5,5,4,110,3,NA
fcp-trial,145,602700,0.0-120.0-0.0,voc_e2,12058,"[{""event"":""fullscreenenter"",""trial"":1,""time"":3114}]",NA,NA,NA,NA,NA,6,#D89F1C,#3386FF,0,10,0,38,1,237.10000002384186,39,0,253.39999997615817,10,1,experiment,NA,NA,1,0.3,0.7,3,2,111,3,NA
fcp-trial,146,605609,0.0-121.0-0.0,voc_e2,12058,"[{""event"":""fullscreenenter"",""trial"":1,""time"":3114}]",NA,NA,NA,NA,NA,0,#FA92F8,#1CD855,10,0,1,38,1,340,37,1,1062.6999999284744,10,1,experiment,NA,NA,0,0.9,0.1,0,1,112,3,NA
fcp-trial,147,608204,0.0-122.0-0.0,voc_e2,12058,"[{""event"":""fullscreenenter"",""trial"":1,""time"":3114}]",NA,NA,NA,NA,NA,1,#D89F1C,#3386FF,0,10,0,40,0,552.1000000238419,37,1,538.7000000476837,0,0,experiment,NA,NA,1,0.3,0.7,3,2,113,3,NA
fcp-trial,148,610650,0.0-123.0-0.0,voc_e2,12058,"[{""event"":""fullscreenenter"",""trial"":1,""time"":3114}]",NA,NA,NA,NA,NA,1,#D8271C,#741CD8,10,0,0,38,1,567.4000000953674,39,0,372.59999990463257,0,1,experiment,NA,NA,2,0.5,0.5,5,4,114,3,NA
fcp-trial,149,613154,0.0-124.0-0.0,voc_e2,12058,"[{""event"":""fullscreenenter"",""trial"":1,""time"":3114}]",NA,NA,NA,NA,NA,5,#D89F1C,#3386FF,0,0,0,38,1,296.3000000715256,39,0,702,0,1,experiment,NA,NA,1,0.3,0.7,3,2,115,3,NA
fcp-trial,150,615495,0.0-125.0-0.0,voc_e2,12058,"[{""event"":""fullscreenenter"",""trial"":1,""time"":3114}]",NA,NA,NA,NA,NA,3,#D89F1C,#3386FF,0,10,0,38,1,312.5,39,0,523.7000000476837,10,1,experiment,NA,NA,1,0.3,0.7,3,2,116,3,NA
fcp-trial,151,618555,0.0-126.0-0.0,voc_e2,12058,"[{""event"":""fullscreenenter"",""trial"":1,""time"":3114}]",NA,NA,NA,NA,NA,1,#1CD855,#FA92F8,10,10,0,40,0,941.2000000476837,37,1,613.7000000476837,10,0,experiment,NA,NA,0,0.1,0.9,1,0,117,3,NA
fcp-trial,152,621000,0.0-127.0-0.0,voc_e2,12058,"[{""event"":""fullscreenenter"",""trial"":1,""time"":3114}]",NA,NA,NA,NA,NA,4,#741CD8,#D8271C,10,0,1,40,0,536.3999999761581,37,1,404,10,1,experiment,NA,NA,2,0.5,0.5,4,5,118,3,NA
fcp-trial,153,623085,0.0-128.0-0.0,voc_e2,12058,"[{""event"":""fullscreenenter"",""trial"":1,""time"":3114}]",NA,NA,NA,NA,NA,4,#D89F1C,#3386FF,0,10,0,40,0,102.20000004768372,39,0,478.3000000715256,10,1,experiment,NA,NA,1,0.3,0.7,3,2,119,3,NA
fcp-trial,154,625321,0.0-129.0-0.0,voc_e2,12058,"[{""event"":""fullscreenenter"",""trial"":1,""time"":3114}]",NA,NA,NA,NA,NA,6,#1CD855,#FA92F8,0,10,0,40,0,147.89999997615814,37,1,583.6000000238419,0,0,experiment,NA,NA,0,0.1,0.9,1,0,120,3,NA
fcp-trial,155,628050,0.0-130.0-0.0,voc_e2,12058,"[{""event"":""fullscreenenter"",""trial"":1,""time"":3114}]",NA,NA,NA,NA,NA,5,#741CD8,#D8271C,10,0,1,40,0,685.8000000715256,37,1,538.6000000238419,10,1,experiment,NA,NA,2,0.5,0.5,4,5,121,3,NA
fcp-trial,156,630060,0.0-131.0-0.0,voc_e2,12058,"[{""event"":""fullscreenenter"",""trial"":1,""time"":3114}]",NA,NA,NA,NA,NA,2,#FA92F8,#1CD855,10,0,1,40,0,56.299999952316284,37,1,449.1999999284744,10,1,experiment,NA,NA,0,0.9,0.1,0,1,122,3,NA
fcp-trial,157,632221,0.0-132.0-0.0,voc_e2,12058,"[{""event"":""fullscreenenter"",""trial"":1,""time"":3114}]",NA,NA,NA,NA,NA,0,#D89F1C,#3386FF,0,10,0,40,0,356.5,37,1,299.8000000715256,0,0,experiment,NA,NA,1,0.3,0.7,3,2,123,3,NA
fcp-trial,158,634395,0.0-133.0-0.0,voc_e2,12058,"[{""event"":""fullscreenenter"",""trial"":1,""time"":3114}]",NA,NA,NA,NA,NA,5,#1CD855,#FA92F8,0,10,0,40,0,279.89999997615814,37,1,389.2999999523163,0,0,experiment,NA,NA,0,0.1,0.9,1,0,124,3,NA
fcp-trial,159,636917,0.0-134.0-0.0,voc_e2,12058,"[{""event"":""fullscreenenter"",""trial"":1,""time"":3114}]",NA,NA,NA,NA,NA,2,#741CD8,#D8271C,10,0,1,40,0,764,37,1,253.39999997615817,10,1,experiment,NA,NA,2,0.5,0.5,4,5,125,3,NA
fcp-trial,160,639452,0.0-135.0-0.0,voc_e2,12058,"[{""event"":""fullscreenenter"",""trial"":1,""time"":3114}]",NA,NA,NA,NA,NA,4,#1CD855,#FA92F8,0,0,0,40,0,401,39,0,628.1999999284744,0,1,experiment,NA,NA,0,0.1,0.9,1,0,126,3,NA
fcp-trial,161,641599,0.0-136.0-0.0,voc_e2,12058,"[{""event"":""fullscreenenter"",""trial"":1,""time"":3114}]",NA,NA,NA,NA,NA,3,#FA92F8,#1CD855,10,0,1,40,0,266.7000000476837,37,1,376.39999997615814,10,1,experiment,NA,NA,0,0.9,0.1,0,1,127,3,NA
fcp-trial,162,644701,0.0-137.0-0.0,voc_e2,12058,"[{""event"":""fullscreenenter"",""trial"":1,""time"":3114}]",NA,NA,NA,NA,NA,5,#1CD855,#FA92F8,0,10,0,40,0,1209.3999999761581,37,1,388.39999997615814,0,0,experiment,NA,NA,0,0.1,0.9,1,0,128,3,NA
fcp-trial,163,647718,0.0-138.0-0.0,voc_e2,12058,"[{""event"":""fullscreenenter"",""trial"":1,""time"":3114}]",NA,NA,NA,NA,NA,2,#D89F1C,#3386FF,0,0,0,40,0,1167.6000000238419,39,0,343.60000002384186,0,1,experiment,NA,NA,1,0.3,0.7,3,2,129,3,NA
fcp-trial,164,650042,0.0-139.0-0.0,voc_e2,12058,"[{""event"":""fullscreenenter"",""trial"":1,""time"":3114}]",NA,NA,NA,NA,NA,4,#D89F1C,#3386FF,10,10,0,38,1,296.90000009536743,39,0,523.3999999761581,10,1,experiment,NA,NA,1,0.3,0.7,3,2,130,3,NA
fcp-trial,165,653492,0.0-140.0-0.0,voc_e2,12058,"[{""event"":""fullscreenenter"",""trial"":1,""time"":3114}]",NA,NA,NA,NA,NA,5,#D8271C,#741CD8,10,10,0,38,1,1647.1999999284744,39,0,298.5,10,1,experiment,NA,NA,2,0.5,0.5,5,4,131,3,NA
fcp-trial,166,655982,0.0-141.0-0.0,voc_e2,12058,"[{""event"":""fullscreenenter"",""trial"":1,""time"":3114}]",NA,NA,NA,NA,NA,1,#1CD855,#FA92F8,0,0,0,40,0,371.7000000476837,37,1,613.6000000238419,0,0,experiment,NA,NA,0,0.1,0.9,1,0,132,3,NA
fcp-trial,167,658322,0.0-142.0-0.0,voc_e2,12058,"[{""event"":""fullscreenenter"",""trial"":1,""time"":3114}]",NA,NA,NA,NA,NA,6,#3386FF,#D89F1C,0,10,1,38,1,581.3999999761581,37,1,253.39999997615817,0,1,experiment,NA,NA,1,0.7,0.3,2,3,133,3,NA
fcp-trial,168,660797,0.0-143.0-0.0,voc_e2,12058,"[{""event"":""fullscreenenter"",""trial"":1,""time"":3114}]",NA,NA,NA,NA,NA,1,#D8271C,#741CD8,10,0,0,38,1,640.7000000476837,39,0,328.3000000715256,0,1,experiment,NA,NA,2,0.5,0.5,5,4,134,3,NA
fcp-trial,169,663153,0.0-144.0-0.0,voc_e2,12058,"[{""event"":""fullscreenenter"",""trial"":1,""time"":3114}]",NA,NA,NA,NA,NA,0,#D89F1C,#3386FF,0,10,0,38,1,328.6999999284744,39,0,522.2999999523163,10,1,experiment,NA,NA,1,0.3,0.7,3,2,135,3,NA
fcp-trial,170,665492,0.0-145.0-0.0,voc_e2,12058,"[{""event"":""fullscreenenter"",""trial"":1,""time"":3114}]",NA,NA,NA,NA,NA,2,#741CD8,#D8271C,0,0,1,38,1,266.2999999523163,37,1,568.2999999523163,0,1,experiment,NA,NA,2,0.5,0.5,4,5,136,4,NA
fcp-trial,171,667788,0.0-146.0-0.0,voc_e2,12058,"[{""event"":""fullscreenenter"",""trial"":1,""time"":3114}]",NA,NA,NA,NA,NA,2,#1CD855,#FA92F8,0,10,0,38,1,521,39,0,268.7000000476837,10,1,experiment,NA,NA,0,0.1,0.9,1,0,137,4,NA
fcp-trial,172,669813,0.0-147.0-0.0,voc_e2,12058,"[{""event"":""fullscreenenter"",""trial"":1,""time"":3114}]",NA,NA,NA,NA,NA,5,#3386FF,#D89F1C,0,0,1,38,1,222.29999995231628,37,1,298,0,1,experiment,NA,NA,1,0.7,0.3,2,3,138,4,NA
fcp-trial,173,671884,0.0-148.0-0.0,voc_e2,12058,"[{""event"":""fullscreenenter"",""trial"":1,""time"":3114}]",NA,NA,NA,NA,NA,4,#1CD855,#FA92F8,10,10,0,38,1,281.60000002384186,39,0,283.1999999284744,10,1,experiment,NA,NA,0,0.1,0.9,1,0,139,4,NA
fcp-trial,174,673939,0.0-149.0-0.0,voc_e2,12058,"[{""event"":""fullscreenenter"",""trial"":1,""time"":3114}]",NA,NA,NA,NA,NA,6,#741CD8,#D8271C,10,0,1,38,1,220,37,1,330,10,1,experiment,NA,NA,2,0.5,0.5,4,5,140,4,NA
fcp-trial,175,676009,0.0-150.0-0.0,voc_e2,12058,"[{""event"":""fullscreenenter"",""trial"":1,""time"":3114}]",NA,NA,NA,NA,NA,3,#3386FF,#D89F1C,10,0,1,38,1,147.40000009536743,37,1,417.89999997615814,10,1,experiment,NA,NA,1,0.7,0.3,2,3,141,4,NA
fcp-trial,176,678259,0.0-151.0-0.0,voc_e2,12058,"[{""event"":""fullscreenenter"",""trial"":1,""time"":3114}]",NA,NA,NA,NA,NA,0,#741CD8,#D8271C,0,0,1,38,1,386.60000002384186,37,1,358.1999999284744,0,1,experiment,NA,NA,2,0.5,0.5,4,5,142,4,NA
fcp-trial,177,680375,0.0-152.0-0.0,voc_e2,12058,"[{""event"":""fullscreenenter"",""trial"":1,""time"":3114}]",NA,NA,NA,NA,NA,3,#741CD8,#D8271C,10,0,1,38,1,312.8000000715256,39,0,300.2999999523163,0,0,experiment,NA,NA,2,0.5,0.5,4,5,143,4,NA
fcp-trial,178,682729,0.0-153.0-0.0,voc_e2,12058,"[{""event"":""fullscreenenter"",""trial"":1,""time"":3114}]",NA,NA,NA,NA,NA,6,#FA92F8,#1CD855,0,0,1,38,1,416.2999999523163,37,1,433,0,1,experiment,NA,NA,0,0.9,0.1,0,1,144,4,NA
fcp-trial,179,684679,0.0-154.0-0.0,voc_e2,12058,"[{""event"":""fullscreenenter"",""trial"":1,""time"":3114}]",NA,NA,NA,NA,NA,0,#FA92F8,#1CD855,10,0,1,38,1,132.10000002384186,37,1,314.6999999284744,10,1,experiment,NA,NA,0,0.9,0.1,0,1,145,4,NA
fcp-trial,180,686617,0.0-155.0-0.0,voc_e2,12058,"[{""event"":""fullscreenenter"",""trial"":1,""time"":3114}]",NA,NA,NA,NA,NA,1,#D89F1C,#3386FF,0,10,0,38,1,71.29999995231628,37,1,360.39999997615814,0,0,experiment,NA,NA,1,0.3,0.7,3,2,146,4,NA
fcp-trial,181,688923,0.0-156.0-0.0,voc_e2,12058,"[{""event"":""fullscreenenter"",""trial"":1,""time"":3114}]",NA,NA,NA,NA,NA,4,#D8271C,#741CD8,0,10,0,38,1,249.29999995231628,37,1,553.6000000238419,0,0,experiment,NA,NA,2,0.5,0.5,5,4,147,4,NA
fcp-trial,182,691852,0.0-157.0-0.0,voc_e2,12058,"[{""event"":""fullscreenenter"",""trial"":1,""time"":3114}]",NA,NA,NA,NA,NA,5,#1CD855,#FA92F8,0,10,0,38,1,418,39,0,1005.7999999523164,10,1,experiment,NA,NA,0,0.1,0.9,1,0,148,4,NA
fcp-trial,183,694865,0.0-158.0-0.0,voc_e2,12058,"[{""event"":""fullscreenenter"",""trial"":1,""time"":3114}]",NA,NA,NA,NA,NA,5,#3386FF,#D89F1C,10,0,1,38,1,399.5,37,1,1108.7000000476835,10,1,experiment,NA,NA,1,0.7,0.3,2,3,149,4,NA
fcp-trial,184,697564,0.0-159.0-0.0,voc_e2,12058,"[{""event"":""fullscreenenter"",""trial"":1,""time"":3114}]",NA,NA,NA,NA,NA,4,#1CD855,#FA92F8,0,0,0,38,1,519.2000000476837,39,0,672.9000000953674,0,1,experiment,NA,NA,0,0.1,0.9,1,0,150,4,NA
fcp-trial,185,699921,0.0-160.0-0.0,voc_e2,12058,"[{""event"":""fullscreenenter"",""trial"":1,""time"":3114}]",NA,NA,NA,NA,NA,2,#741CD8,#D8271C,0,0,1,38,1,252.19999992847443,37,1,599.4000000953674,0,1,experiment,NA,NA,2,0.5,0.5,4,5,151,4,NA
fcp-trial,186,702470,0.0-161.0-0.0,voc_e2,12058,"[{""event"":""fullscreenenter"",""trial"":1,""time"":3114}]",NA,NA,NA,NA,NA,2,#3386FF,#D89F1C,0,10,1,38,1,385.09999990463257,37,1,658.3000000715256,0,1,experiment,NA,NA,1,0.7,0.3,2,3,152,4,NA
fcp-trial,187,704720,0.0-162.0-0.0,voc_e2,12058,"[{""event"":""fullscreenenter"",""trial"":1,""time"":3114}]",NA,NA,NA,NA,NA,3,#D89F1C,#3386FF,0,10,0,38,1,326.7999999523163,39,0,417.39999997615814,10,1,experiment,NA,NA,1,0.3,0.7,3,2,153,4,NA
fcp-trial,188,706760,0.0-163.0-0.0,voc_e2,12058,"[{""event"":""fullscreenenter"",""trial"":1,""time"":3114}]",NA,NA,NA,NA,NA,6,#D8271C,#741CD8,0,10,0,38,1,177.80000007152557,39,0,357.89999997615814,10,1,experiment,NA,NA,2,0.5,0.5,5,4,154,4,NA
fcp-trial,189,708876,0.0-164.0-0.0,voc_e2,12058,"[{""event"":""fullscreenenter"",""trial"":1,""time"":3114}]",NA,NA,NA,NA,NA,1,#FA92F8,#1CD855,10,0,1,38,1,101.10000002384186,37,1,509.39999997615814,10,1,experiment,NA,NA,0,0.9,0.1,0,1,155,4,NA
fcp-trial,190,710856,0.0-165.0-0.0,voc_e2,12058,"[{""event"":""fullscreenenter"",""trial"":1,""time"":3114}]",NA,NA,NA,NA,NA,3,#1CD855,#FA92F8,0,10,0,38,1,160.79999995231628,39,0,313.7000000476837,10,1,experiment,NA,NA,0,0.1,0.9,1,0,156,4,NA
fcp-trial,191,712957,0.0-166.0-0.0,voc_e2,12058,"[{""event"":""fullscreenenter"",""trial"":1,""time"":3114}]",NA,NA,NA,NA,NA,4,#3386FF,#D89F1C,10,0,1,38,1,266.39999997615814,37,1,328,10,1,experiment,NA,NA,1,0.7,0.3,2,3,157,4,NA
fcp-trial,192,714980,0.0-167.0-0.0,voc_e2,12058,"[{""event"":""fullscreenenter"",""trial"":1,""time"":3114}]",NA,NA,NA,NA,NA,0,#1CD855,#FA92F8,0,10,0,38,1,235.80000007152557,39,0,283,10,1,experiment,NA,NA,0,0.1,0.9,1,0,158,4,NA
fcp-trial,193,717081,0.0-168.0-0.0,voc_e2,12058,"[{""event"":""fullscreenenter"",""trial"":1,""time"":3114}]",NA,NA,NA,NA,NA,3,#741CD8,#D8271C,0,10,1,38,1,295.7999999523163,37,1,300.59999990463257,0,1,experiment,NA,NA,2,0.5,0.5,4,5,159,4,NA
fcp-trial,194,719223,0.0-169.0-0.0,voc_e2,12058,"[{""event"":""fullscreenenter"",""trial"":1,""time"":3114}]",NA,NA,NA,NA,NA,1,#741CD8,#D8271C,0,10,1,38,1,309.1999999284744,39,0,325.5,10,0,experiment,NA,NA,2,0.5,0.5,4,5,160,4,NA
fcp-trial,195,721356,0.0-170.0-0.0,voc_e2,12058,"[{""event"":""fullscreenenter"",""trial"":1,""time"":3114}]",NA,NA,NA,NA,NA,6,#3386FF,#D89F1C,10,0,1,38,1,330.59999990463257,37,1,298.7999999523163,10,1,experiment,NA,NA,1,0.7,0.3,2,3,161,4,NA
fcp-trial,196,723442,0.0-171.0-0.0,voc_e2,12058,"[{""event"":""fullscreenenter"",""trial"":1,""time"":3114}]",NA,NA,NA,NA,NA,1,#3386FF,#D89F1C,10,0,1,38,1,251.5,37,1,330,10,1,experiment,NA,NA,1,0.7,0.3,2,3,162,4,NA
fcp-trial,197,725601,0.0-172.0-0.0,voc_e2,12058,"[{""event"":""fullscreenenter"",""trial"":1,""time"":3114}]",NA,NA,NA,NA,NA,2,#1CD855,#FA92F8,0,10,0,38,1,312.5,39,0,342.39999997615814,10,1,experiment,NA,NA,0,0.1,0.9,1,0,163,4,NA
fcp-trial,198,727672,0.0-173.0-0.0,voc_e2,12058,"[{""event"":""fullscreenenter"",""trial"":1,""time"":3114}]",NA,NA,NA,NA,NA,6,#FA92F8,#1CD855,0,0,1,38,1,191.39999997615814,37,1,373.2000000476837,0,1,experiment,NA,NA,0,0.9,0.1,0,1,164,4,NA
fcp-trial,199,729922,0.0-174.0-0.0,voc_e2,12058,"[{""event"":""fullscreenenter"",""trial"":1,""time"":3114}]",NA,NA,NA,NA,NA,5,#D8271C,#741CD8,10,0,0,38,1,326.2999999523163,37,1,417.59999990463257,10,0,experiment,NA,NA,2,0.5,0.5,5,4,165,4,NA
fcp-trial,200,731965,0.0-175.0-0.0,voc_e2,12058,"[{""event"":""fullscreenenter"",""trial"":1,""time"":3114}]",NA,NA,NA,NA,NA,4,#741CD8,#D8271C,0,10,1,38,1,238.30000007152557,39,0,301.39999997615814,10,0,experiment,NA,NA,2,0.5,0.5,4,5,166,4,NA
fcp-trial,201,734033,0.0-176.0-0.0,voc_e2,12058,"[{""event"":""fullscreenenter"",""trial"":1,""time"":3114}]",NA,NA,NA,NA,NA,0,#3386FF,#D89F1C,10,0,1,38,1,218.69999992847443,37,1,344.7999999523163,10,1,experiment,NA,NA,1,0.7,0.3,2,3,167,4,NA
fcp-trial,202,736101,0.0-177.0-0.0,voc_e2,12058,"[{""event"":""fullscreenenter"",""trial"":1,""time"":3114}]",NA,NA,NA,NA,NA,0,#D8271C,#741CD8,0,10,0,38,1,205.20000004768372,37,1,358.3000000715256,0,0,experiment,NA,NA,2,0.5,0.5,5,4,168,4,NA
fcp-trial,203,738443,0.0-178.0-0.0,voc_e2,12058,"[{""event"":""fullscreenenter"",""trial"":1,""time"":3114}]",NA,NA,NA,NA,NA,5,#D8271C,#741CD8,10,10,0,38,1,237.5,37,1,598,10,0,experiment,NA,NA,2,0.5,0.5,5,4,169,4,NA
fcp-trial,204,740617,0.0-179.0-0.0,voc_e2,12058,"[{""event"":""fullscreenenter"",""trial"":1,""time"":3114}]",NA,NA,NA,NA,NA,1,#3386FF,#D89F1C,10,10,1,38,1,115.69999992847443,37,1,553,10,1,experiment,NA,NA,1,0.7,0.3,2,3,170,4,NA
fcp-trial,205,742674,0.0-180.0-0.0,voc_e2,12058,"[{""event"":""fullscreenenter"",""trial"":1,""time"":3114}]",NA,NA,NA,NA,NA,4,#D8271C,#741CD8,0,0,0,38,1,101,37,1,450.5,0,0,experiment,NA,NA,2,0.5,0.5,5,4,171,4,NA
fcp-trial,206,744577,0.0-181.0-0.0,voc_e2,12058,"[{""event"":""fullscreenenter"",""trial"":1,""time"":3114}]",NA,NA,NA,NA,NA,5,#FA92F8,#1CD855,10,0,1,38,1,25.5,37,1,373.8000000715256,10,1,experiment,NA,NA,0,0.9,0.1,0,1,172,4,NA
fcp-trial,207,747368,0.0-182.0-0.0,voc_e2,12058,"[{""event"":""fullscreenenter"",""trial"":1,""time"":3114}]",NA,NA,NA,NA,NA,2,#3386FF,#D89F1C,0,0,1,38,1,297,37,1,988.7000000476836,0,1,experiment,NA,NA,1,0.7,0.3,2,3,173,4,NA
fcp-trial,208,749438,0.0-183.0-0.0,voc_e2,12058,"[{""event"":""fullscreenenter"",""trial"":1,""time"":3114}]",NA,NA,NA,NA,NA,4,#D89F1C,#3386FF,0,0,0,38,1,266.90000009536743,39,0,299.2000000476837,0,1,experiment,NA,NA,1,0.3,0.7,3,2,174,4,NA
fcp-trial,209,751718,0.0-184.0-0.0,voc_e2,12058,"[{""event"":""fullscreenenter"",""trial"":1,""time"":3114}]",NA,NA,NA,NA,NA,6,#D8271C,#741CD8,10,10,0,38,1,400.60000002384186,37,1,373.7999999523163,10,0,experiment,NA,NA,2,0.5,0.5,5,4,175,4,NA
fcp-trial,210,753968,0.0-185.0-0.0,voc_e2,12058,"[{""event"":""fullscreenenter"",""trial"":1,""time"":3114}]",NA,NA,NA,NA,NA,1,#741CD8,#D8271C,0,0,1,38,1,266.2000000476837,37,1,478.5,0,1,experiment,NA,NA,2,0.5,0.5,4,5,176,4,NA
fcp-trial,211,756233,0.0-186.0-0.0,voc_e2,12058,"[{""event"":""fullscreenenter"",""trial"":1,""time"":3114}]",NA,NA,NA,NA,NA,3,#1CD855,#FA92F8,0,10,0,38,1,86.89999997615814,37,1,673.5,0,0,experiment,NA,NA,0,0.1,0.9,1,0,177,4,NA
fcp-trial,212,758650,0.0-187.0-0.0,voc_e2,12058,"[{""event"":""fullscreenenter"",""trial"":1,""time"":3114}]",NA,NA,NA,NA,NA,5,#3386FF,#D89F1C,10,0,1,38,1,416.59999990463257,37,1,495.39999997615814,10,1,experiment,NA,NA,1,0.7,0.3,2,3,178,4,NA
fcp-trial,213,761002,0.0-188.0-0.0,voc_e2,12058,"[{""event"":""fullscreenenter"",""trial"":1,""time"":3114}]",NA,NA,NA,NA,NA,2,#741CD8,#D8271C,10,10,1,38,1,369.7999999523163,39,0,477.39999997615814,10,0,experiment,NA,NA,2,0.5,0.5,4,5,179,4,NA
fcp-trial,214,763343,0.0-189.0-0.0,voc_e2,12058,"[{""event"":""fullscreenenter"",""trial"":1,""time"":3114}]",NA,NA,NA,NA,NA,3,#D89F1C,#3386FF,10,10,0,38,1,327.3000000715256,39,0,509.8000000715256,10,1,experiment,NA,NA,1,0.3,0.7,3,2,180,4,NA
fcp-trial,215,765521,0.0-190.0-0.0,voc_e2,12058,"[{""event"":""fullscreenenter"",""trial"":1,""time"":3114}]",NA,NA,NA,NA,NA,6,#FA92F8,#1CD855,10,0,1,38,1,251.79999995231628,37,1,421.5,10,1,experiment,NA,NA,0,0.9,0.1,0,1,181,5,NA
fcp-trial,216,768025,0.0-191.0-0.0,voc_e2,12058,"[{""event"":""fullscreenenter"",""trial"":1,""time"":3114}]",NA,NA,NA,NA,NA,0,#D8271C,#741CD8,10,10,0,38,1,219.5,37,1,779.8000000715256,10,0,experiment,NA,NA,2,0.5,0.5,5,4,182,5,NA
fcp-trial,217,771325,0.0-192.0-0.0,voc_e2,12058,"[{""event"":""fullscreenenter"",""trial"":1,""time"":3114}]",NA,NA,NA,NA,NA,0,#1CD855,#FA92F8,0,10,0,38,1,415.5,39,0,1379.899999976158,10,1,experiment,NA,NA,0,0.1,0.9,1,0,183,5,NA
fcp-trial,218,773590,0.0-193.0-0.0,voc_e2,12058,"[{""event"":""fullscreenenter"",""trial"":1,""time"":3114}]",NA,NA,NA,NA,NA,4,#FA92F8,#1CD855,10,0,1,38,1,445.60000002384186,37,1,314.2000000476837,10,1,experiment,NA,NA,0,0.9,0.1,0,1,184,5,NA
fcp-trial,219,776246,0.0-194.0-0.0,voc_e2,12058,"[{""event"":""fullscreenenter"",""trial"":1,""time"":3114}]",NA,NA,NA,NA,NA,0,#D89F1C,#3386FF,10,0,0,38,1,354.1999999284744,39,0,795.1000000238419,0,1,experiment,NA,NA,1,0.3,0.7,3,2,185,5,NA
fcp-trial,220,778523,0.0-195.0-0.0,voc_e2,12058,"[{""event"":""fullscreenenter"",""trial"":1,""time"":3114}]",NA,NA,NA,NA,NA,1,#FA92F8,#1CD855,10,0,1,38,1,446.39999997615814,37,1,328,10,1,experiment,NA,NA,0,0.9,0.1,0,1,186,5,NA
fcp-trial,221,780970,0.0-196.0-0.0,voc_e2,12058,"[{""event"":""fullscreenenter"",""trial"":1,""time"":3114}]",NA,NA,NA,NA,NA,3,#D8271C,#741CD8,0,0,0,38,1,266.2000000476837,37,1,673.8999999761581,0,0,experiment,NA,NA,2,0.5,0.5,5,4,187,5,NA
fcp-trial,222,783354,0.0-197.0-0.0,voc_e2,12058,"[{""event"":""fullscreenenter"",""trial"":1,""time"":3114}]",NA,NA,NA,NA,NA,2,#1CD855,#FA92F8,0,10,0,38,1,251.39999997615814,39,0,629.1000000238419,10,1,experiment,NA,NA,0,0.1,0.9,1,0,188,5,NA
fcp-trial,223,785636,0.0-198.0-0.0,voc_e2,12058,"[{""event"":""fullscreenenter"",""trial"":1,""time"":3114}]",NA,NA,NA,NA,NA,6,#3386FF,#D89F1C,10,10,1,38,1,193.69999992847443,37,1,583.7999999523163,10,1,experiment,NA,NA,1,0.7,0.3,2,3,189,5,NA
fcp-trial,224,788425,0.0-199.0-0.0,voc_e2,12058,"[{""event"":""fullscreenenter"",""trial"":1,""time"":3114}]",NA,NA,NA,NA,NA,2,#FA92F8,#1CD855,10,0,1,38,1,447.39999997615814,37,1,836.5,10,1,experiment,NA,NA,0,0.9,0.1,0,1,190,5,NA
fcp-trial,225,790870,0.0-200.0-0.0,voc_e2,12058,"[{""event"":""fullscreenenter"",""trial"":1,""time"":3114}]",NA,NA,NA,NA,NA,2,#3386FF,#D89F1C,10,0,1,38,1,193.20000004768372,37,1,747.3999999761581,10,1,experiment,NA,NA,1,0.7,0.3,2,3,191,5,NA
fcp-trial,226,793330,0.0-201.0-0.0,voc_e2,12058,"[{""event"":""fullscreenenter"",""trial"":1,""time"":3114}]",NA,NA,NA,NA,NA,0,#741CD8,#D8271C,10,10,1,38,1,220.19999992847443,39,0,734,10,0,experiment,NA,NA,2,0.5,0.5,4,5,192,5,NA
fcp-trial,227,795445,0.0-202.0-0.0,voc_e2,12058,"[{""event"":""fullscreenenter"",""trial"":1,""time"":3114}]",NA,NA,NA,NA,NA,5,#FA92F8,#1CD855,10,0,1,38,1,266.7999999523163,37,1,343.2000000476837,10,1,experiment,NA,NA,0,0.9,0.1,0,1,193,5,NA
fcp-trial,228,797575,0.0-203.0-0.0,voc_e2,12058,"[{""event"":""fullscreenenter"",""trial"":1,""time"":3114}]",NA,NA,NA,NA,NA,6,#FA92F8,#1CD855,10,0,1,38,1,251.80000007152557,37,1,375,10,1,experiment,NA,NA,0,0.9,0.1,0,1,194,5,NA
fcp-trial,229,799893,0.0-204.0-0.0,voc_e2,12058,"[{""event"":""fullscreenenter"",""trial"":1,""time"":3114}]",NA,NA,NA,NA,NA,6,#741CD8,#D8271C,10,0,1,38,1,385.6999999284744,39,0,427,0,0,experiment,NA,NA,2,0.5,0.5,4,5,195,5,NA
fcp-trial,230,801895,0.0-205.0-0.0,voc_e2,12058,"[{""event"":""fullscreenenter"",""trial"":1,""time"":3114}]",NA,NA,NA,NA,NA,3,#3386FF,#D89F1C,10,0,1,38,1,182.70000004768372,37,1,313.6999999284744,10,1,experiment,NA,NA,1,0.7,0.3,2,3,196,5,NA
fcp-trial,231,804026,0.0-206.0-0.0,voc_e2,12058,"[{""event"":""fullscreenenter"",""trial"":1,""time"":3114}]",NA,NA,NA,NA,NA,4,#D89F1C,#3386FF,10,0,0,38,1,281.89999997615814,39,0,342.60000002384186,0,1,experiment,NA,NA,1,0.3,0.7,3,2,197,5,NA
fcp-trial,232,806456,0.0-207.0-0.0,voc_e2,12058,"[{""event"":""fullscreenenter"",""trial"":1,""time"":3114}]",NA,NA,NA,NA,NA,1,#FA92F8,#1CD855,10,10,1,38,1,325.5,37,1,598.1000000238419,10,1,experiment,NA,NA,0,0.9,0.1,0,1,198,5,NA
fcp-trial,233,808617,0.0-208.0-0.0,voc_e2,12058,"[{""event"":""fullscreenenter"",""trial"":1,""time"":3114}]",NA,NA,NA,NA,NA,5,#3386FF,#D89F1C,10,10,1,38,1,266.39999997615814,37,1,390.39999997615814,10,1,experiment,NA,NA,1,0.7,0.3,2,3,199,5,NA
fcp-trial,234,810866,0.0-209.0-0.0,voc_e2,12058,"[{""event"":""fullscreenenter"",""trial"":1,""time"":3114}]",NA,NA,NA,NA,NA,2,#D8271C,#741CD8,10,0,0,38,1,324.60000002384186,37,1,418.6999999284744,10,0,experiment,NA,NA,2,0.5,0.5,5,4,200,5,NA
fcp-trial,235,812936,0.0-210.0-0.0,voc_e2,12058,"[{""event"":""fullscreenenter"",""trial"":1,""time"":3114}]",NA,NA,NA,NA,NA,1,#741CD8,#D8271C,10,10,1,38,1,221,39,0,344,10,0,experiment,NA,NA,2,0.5,0.5,4,5,201,5,NA
fcp-trial,236,814932,0.0-211.0-0.0,voc_e2,12058,"[{""event"":""fullscreenenter"",""trial"":1,""time"":3114}]",NA,NA,NA,NA,NA,3,#1CD855,#FA92F8,0,10,0,38,1,115.80000007152557,37,1,373.39999997615814,0,0,experiment,NA,NA,0,0.1,0.9,1,0,202,5,NA
fcp-trial,237,817226,0.0-212.0-0.0,voc_e2,12058,"[{""event"":""fullscreenenter"",""trial"":1,""time"":3114}]",NA,NA,NA,NA,NA,5,#D8271C,#741CD8,0,10,0,38,1,310.59999990463257,37,1,478.7000000476837,0,0,experiment,NA,NA,2,0.5,0.5,5,4,203,5,NA
fcp-trial,238,819566,0.0-213.0-0.0,voc_e2,12058,"[{""event"":""fullscreenenter"",""trial"":1,""time"":3114}]",NA,NA,NA,NA,NA,6,#D89F1C,#3386FF,0,0,0,38,1,237.19999992847443,39,0,598.4000000953674,0,1,experiment,NA,NA,1,0.3,0.7,3,2,204,5,NA
fcp-trial,239,821561,0.0-214.0-0.0,voc_e2,12058,"[{""event"":""fullscreenenter"",""trial"":1,""time"":3114}]",NA,NA,NA,NA,NA,4,#FA92F8,#1CD855,10,0,1,38,1,147.10000002384186,37,1,343.7999999523163,10,1,experiment,NA,NA,0,0.9,0.1,0,1,205,5,NA
fcp-trial,240,823753,0.0-215.0-0.0,voc_e2,12058,"[{""event"":""fullscreenenter"",""trial"":1,""time"":3114}]",NA,NA,NA,NA,NA,0,#3386FF,#D89F1C,10,0,1,38,1,251.60000002384186,37,1,433.6999999284744,10,1,experiment,NA,NA,1,0.7,0.3,2,3,206,5,NA
fcp-trial,241,826152,0.0-216.0-0.0,voc_e2,12058,"[{""event"":""fullscreenenter"",""trial"":1,""time"":3114}]",NA,NA,NA,NA,NA,0,#1CD855,#FA92F8,0,10,0,38,1,295.60000002384186,39,0,599.1000000238419,10,1,experiment,NA,NA,0,0.1,0.9,1,0,207,5,NA
fcp-trial,242,828447,0.0-217.0-0.0,voc_e2,12058,"[{""event"":""fullscreenenter"",""trial"":1,""time"":3114}]",NA,NA,NA,NA,NA,3,#741CD8,#D8271C,10,10,1,38,1,235.89999997615814,37,1,554.2000000476837,10,1,experiment,NA,NA,2,0.5,0.5,4,5,208,5,NA
fcp-trial,243,830668,0.0-218.0-0.0,voc_e2,12058,"[{""event"":""fullscreenenter"",""trial"":1,""time"":3114}]",NA,NA,NA,NA,NA,4,#741CD8,#D8271C,0,0,1,38,1,251.5,39,0,464.6999999284744,0,0,experiment,NA,NA,2,0.5,0.5,4,5,209,5,NA
fcp-trial,244,832962,0.0-219.0-0.0,voc_e2,12058,"[{""event"":""fullscreenenter"",""trial"":1,""time"":3114}]",NA,NA,NA,NA,NA,1,#3386FF,#D89F1C,10,0,1,38,1,311.10000002384186,37,1,478.3000000715256,10,1,experiment,NA,NA,1,0.7,0.3,2,3,210,5,NA
audio-instructions,245,838613,0.0-220.0,voc_e2,12058,"[{""event"":""fullscreenenter"",""trial"":1,""time"":3114}]",NA,1023.899999976158,static/audio/pause.wav,NA,0,NA,NA,NA,NA,NA,NA,NA,NA,NA,NA,NA,NA,NA,NA,NA,NA,NA,NA,NA,NA,NA,NA,NA,NA,NA
fcp-trial,246,844993,0.0-221.0-0.0,voc_e2,12058,"[{""event"":""fullscreenenter"",""trial"":1,""time"":3114}]",NA,NA,NA,NA,NA,2,#D8271C,#741CD8,0,10,0,38,1,3286,37,1,1588.7000000476835,0,0,experiment,NA,NA,2,0.5,0.5,5,4,211,5,NA
fcp-trial,247,847393,0.0-222.0-0.0,voc_e2,12058,"[{""event"":""fullscreenenter"",""trial"":1,""time"":3114}]",NA,NA,NA,NA,NA,3,#D8271C,#741CD8,10,0,0,38,1,536.1000000238419,39,0,358.5,0,1,experiment,NA,NA,2,0.5,0.5,5,4,212,5,NA
fcp-trial,248,849643,0.0-223.0-0.0,voc_e2,12058,"[{""event"":""fullscreenenter"",""trial"":1,""time"":3114}]",NA,NA,NA,NA,NA,4,#3386FF,#D89F1C,10,0,1,38,1,340.2999999523163,37,1,402.8000000715256,10,1,experiment,NA,NA,1,0.7,0.3,2,3,213,5,NA
fcp-trial,249,851864,0.0-224.0-0.0,voc_e2,12058,"[{""event"":""fullscreenenter"",""trial"":1,""time"":3114}]",NA,NA,NA,NA,NA,5,#D8271C,#741CD8,10,10,0,38,1,341.3000000715256,39,0,374.10000002384186,10,1,experiment,NA,NA,2,0.5,0.5,5,4,214,5,NA
fcp-trial,250,854263,0.0-225.0-0.0,voc_e2,12058,"[{""event"":""fullscreenenter"",""trial"":1,""time"":3114}]",NA,NA,NA,NA,NA,4,#1CD855,#FA92F8,0,10,0,38,1,220.39999997615814,39,0,673.2999999523163,10,1,experiment,NA,NA,0,0.1,0.9,1,0,215,5,NA
fcp-trial,251,856723,0.0-226.0-0.0,voc_e2,12058,"[{""event"":""fullscreenenter"",""trial"":1,""time"":3114}]",NA,NA,NA,NA,NA,5,#FA92F8,#1CD855,10,0,1,38,1,236.89999997615814,37,1,718.3000000715256,10,1,experiment,NA,NA,0,0.9,0.1,0,1,216,5,NA
fcp-trial,252,858779,0.0-227.0-0.0,voc_e2,12058,"[{""event"":""fullscreenenter"",""trial"":1,""time"":3114}]",NA,NA,NA,NA,NA,5,#3386FF,#D89F1C,0,10,1,38,1,72.79999995231628,37,1,478.2999999523163,0,1,experiment,NA,NA,1,0.7,0.3,2,3,217,5,NA
fcp-trial,253,860984,0.0-228.0-0.0,voc_e2,12058,"[{""event"":""fullscreenenter"",""trial"":1,""time"":3114}]",NA,NA,NA,NA,NA,4,#741CD8,#D8271C,10,0,1,38,1,266.40000009536743,39,0,432.8000000715256,0,0,experiment,NA,NA,2,0.5,0.5,4,5,218,5,NA
fcp-trial,254,863327,0.0-229.0-0.0,voc_e2,12058,"[{""event"":""fullscreenenter"",""trial"":1,""time"":3114}]",NA,NA,NA,NA,NA,6,#D89F1C,#3386FF,0,0,0,38,1,311.2000000476837,39,0,526,0,1,experiment,NA,NA,1,0.3,0.7,3,2,219,5,NA
fcp-trial,255,865515,0.0-230.0-0.0,voc_e2,12058,"[{""event"":""fullscreenenter"",""trial"":1,""time"":3114}]",NA,NA,NA,NA,NA,1,#1CD855,#FA92F8,0,10,0,38,1,114.40000009536743,39,0,568.8000000715256,10,1,experiment,NA,NA,0,0.1,0.9,1,0,220,5,NA
fcp-trial,256,867585,0.0-231.0-0.0,voc_e2,12058,"[{""event"":""fullscreenenter"",""trial"":1,""time"":3114}]",NA,NA,NA,NA,NA,0,#1CD855,#FA92F8,0,10,0,38,1,311.7999999523163,39,0,253,10,1,experiment,NA,NA,0,0.1,0.9,1,0,221,5,NA
fcp-trial,257,869833,0.0-232.0-0.0,voc_e2,12058,"[{""event"":""fullscreenenter"",""trial"":1,""time"":3114}]",NA,NA,NA,NA,NA,1,#3386FF,#D89F1C,10,10,1,38,1,446.7000000476837,37,1,297.60000002384186,10,1,experiment,NA,NA,1,0.7,0.3,2,3,222,5,NA
fcp-trial,258,872309,0.0-233.0-0.0,voc_e2,12058,"[{""event"":""fullscreenenter"",""trial"":1,""time"":3114}]",NA,NA,NA,NA,NA,0,#D8271C,#741CD8,0,10,0,38,1,537.3999999761581,37,1,434.3000000715256,0,0,experiment,NA,NA,2,0.5,0.5,5,4,223,5,NA
fcp-trial,259,874785,0.0-234.0-0.0,voc_e2,12058,"[{""event"":""fullscreenenter"",""trial"":1,""time"":3114}]",NA,NA,NA,NA,NA,2,#1CD855,#FA92F8,10,10,0,38,1,477.7000000476837,39,0,493.5,10,1,experiment,NA,NA,0,0.1,0.9,1,0,224,5,NA
fcp-trial,260,876721,0.0-235.0-0.0,voc_e2,12058,"[{""event"":""fullscreenenter"",""trial"":1,""time"":3114}]",NA,NA,NA,NA,NA,1,#D8271C,#741CD8,0,10,0,38,1,147.39999997615814,37,1,283.1999999284744,0,0,experiment,NA,NA,2,0.5,0.5,5,4,225,5,NA
fcp-trial,261,878822,0.0-236.0-0.0,voc_e2,12058,"[{""event"":""fullscreenenter"",""trial"":1,""time"":3114}]",NA,NA,NA,NA,NA,0,#D89F1C,#3386FF,0,10,0,38,1,265.5,39,0,329.7000000476837,10,1,experiment,NA,NA,1,0.3,0.7,3,2,226,6,NA
fcp-trial,262,880921,0.0-237.0-0.0,voc_e2,12058,"[{""event"":""fullscreenenter"",""trial"":1,""time"":3114}]",NA,NA,NA,NA,NA,6,#D8271C,#741CD8,0,10,0,38,1,324.5,37,1,270.2999999523163,0,0,experiment,NA,NA,2,0.5,0.5,5,4,227,6,NA
fcp-trial,263,883156,0.0-238.0-0.0,voc_e2,12058,"[{""event"":""fullscreenenter"",""trial"":1,""time"":3114}]",NA,NA,NA,NA,NA,3,#1CD855,#FA92F8,0,10,0,38,1,55.800000071525574,39,0,674.7999999523163,10,1,experiment,NA,NA,0,0.1,0.9,1,0,228,6,NA
fcp-trial,264,885285,0.0-239.0-0.0,voc_e2,12058,"[{""event"":""fullscreenenter"",""trial"":1,""time"":3114}]",NA,NA,NA,NA,NA,6,#FA92F8,#1CD855,10,0,1,38,1,265.60000002384186,37,1,358.39999997615814,10,1,experiment,NA,NA,0,0.9,0.1,0,1,229,6,NA
fcp-trial,265,887821,0.0-240.0-0.0,voc_e2,12058,"[{""event"":""fullscreenenter"",""trial"":1,""time"":3114}]",NA,NA,NA,NA,NA,3,#3386FF,#D89F1C,0,0,1,38,1,238.39999997615814,37,1,792.7000000476837,0,1,experiment,NA,NA,1,0.7,0.3,2,3,230,6,NA
fcp-trial,266,889965,0.0-241.0-0.0,voc_e2,12058,"[{""event"":""fullscreenenter"",""trial"":1,""time"":3114}]",NA,NA,NA,NA,NA,2,#D89F1C,#3386FF,10,10,0,38,1,340.39999997615814,39,0,298.7000000476837,10,1,experiment,NA,NA,1,0.3,0.7,3,2,231,6,NA
fcp-trial,267,892306,0.0-242.0-0.0,voc_e2,12058,"[{""event"":""fullscreenenter"",""trial"":1,""time"":3114}]",NA,NA,NA,NA,NA,0,#3386FF,#D89F1C,10,10,1,38,1,282.7000000476837,37,1,553.1000000238419,10,1,experiment,NA,NA,1,0.7,0.3,2,3,232,6,NA
fcp-trial,268,894345,0.0-243.0-0.0,voc_e2,12058,"[{""event"":""fullscreenenter"",""trial"":1,""time"":3114}]",NA,NA,NA,NA,NA,5,#1CD855,#FA92F8,0,10,0,38,1,147,39,0,387.5,10,1,experiment,NA,NA,0,0.1,0.9,1,0,233,6,NA
fcp-trial,269,896416,0.0-244.0-0.0,voc_e2,12058,"[{""event"":""fullscreenenter"",""trial"":1,""time"":3114}]",NA,NA,NA,NA,NA,2,#1CD855,#FA92F8,0,10,0,38,1,71.70000004768372,39,0,494.60000002384186,10,1,experiment,NA,NA,0,0.1,0.9,1,0,234,6,NA
fcp-trial,270,898921,0.0-245.0-0.0,voc_e2,12058,"[{""event"":""fullscreenenter"",""trial"":1,""time"":3114}]",NA,NA,NA,NA,NA,4,#741CD8,#D8271C,10,0,1,38,1,401.60000002384186,37,1,597.8999999761581,10,1,experiment,NA,NA,2,0.5,0.5,4,5,235,6,NA
fcp-trial,271,901246,0.0-246.0-0.0,voc_e2,12058,"[{""event"":""fullscreenenter"",""trial"":1,""time"":3114}]",NA,NA,NA,NA,NA,3,#1CD855,#FA92F8,0,10,0,38,1,371.89999997615814,39,0,448.89999997615814,10,1,experiment,NA,NA,0,0.1,0.9,1,0,236,6,NA
fcp-trial,272,903451,0.0-247.0-0.0,voc_e2,12058,"[{""event"":""fullscreenenter"",""trial"":1,""time"":3114}]",NA,NA,NA,NA,NA,5,#D89F1C,#3386FF,10,10,0,38,1,311.7999999523163,39,0,388.89999997615814,10,1,experiment,NA,NA,1,0.3,0.7,3,2,237,6,NA
fcp-trial,273,905506,0.0-248.0-0.0,voc_e2,12058,"[{""event"":""fullscreenenter"",""trial"":1,""time"":3114}]",NA,NA,NA,NA,NA,0,#741CD8,#D8271C,0,0,1,38,1,220.5,37,1,329.7999999523163,0,1,experiment,NA,NA,2,0.5,0.5,4,5,238,6,NA
fcp-trial,274,907608,0.0-249.0-0.0,voc_e2,12058,"[{""event"":""fullscreenenter"",""trial"":1,""time"":3114}]",NA,NA,NA,NA,NA,2,#741CD8,#D8271C,10,10,1,38,1,312.10000002384186,37,1,285.6999999284744,10,1,experiment,NA,NA,2,0.5,0.5,4,5,239,6,NA
fcp-trial,275,909677,0.0-250.0-0.0,voc_e2,12058,"[{""event"":""fullscreenenter"",""trial"":1,""time"":3114}]",NA,NA,NA,NA,NA,4,#3386FF,#D89F1C,10,0,1,38,1,250.10000002384186,37,1,314.89999997615814,10,1,experiment,NA,NA,1,0.7,0.3,2,3,240,6,NA
fcp-trial,276,912092,0.0-251.0-0.0,voc_e2,12058,"[{""event"":""fullscreenenter"",""trial"":1,""time"":3114}]",NA,NA,NA,NA,NA,1,#1CD855,#FA92F8,0,10,0,38,1,341,39,0,568.6000000238419,10,1,experiment,NA,NA,0,0.1,0.9,1,0,241,6,NA
fcp-trial,277,914267,0.0-252.0-0.0,voc_e2,12058,"[{""event"":""fullscreenenter"",""trial"":1,""time"":3114}]",NA,NA,NA,NA,NA,1,#D89F1C,#3386FF,0,10,0,38,1,282.8000000715256,39,0,386.60000002384186,10,1,experiment,NA,NA,1,0.3,0.7,3,2,242,6,NA
fcp-trial,278,916548,0.0-253.0-0.0,voc_e2,12058,"[{""event"":""fullscreenenter"",""trial"":1,""time"":3114}]",NA,NA,NA,NA,NA,3,#D8271C,#741CD8,10,0,0,38,1,267.09999990463257,37,1,508.5,10,0,experiment,NA,NA,2,0.5,0.5,5,4,243,6,NA
fcp-trial,279,918649,0.0-254.0-0.0,voc_e2,12058,"[{""event"":""fullscreenenter"",""trial"":1,""time"":3114}]",NA,NA,NA,NA,NA,0,#1CD855,#FA92F8,0,10,0,38,1,161,39,0,436.2999999523163,10,1,experiment,NA,NA,0,0.1,0.9,1,0,244,6,NA
fcp-trial,280,920837,0.0-255.0-0.0,voc_e2,12058,"[{""event"":""fullscreenenter"",""trial"":1,""time"":3114}]",NA,NA,NA,NA,NA,1,#D8271C,#741CD8,10,10,0,38,1,264.7000000476837,39,0,419.5,10,1,experiment,NA,NA,2,0.5,0.5,5,4,245,6,NA
fcp-trial,281,923162,0.0-256.0-0.0,voc_e2,12058,"[{""event"":""fullscreenenter"",""trial"":1,""time"":3114}]",NA,NA,NA,NA,NA,2,#3386FF,#D89F1C,10,0,1,38,1,282.10000002384186,39,0,538.6000000238419,0,0,experiment,NA,NA,1,0.7,0.3,2,3,246,6,NA
fcp-trial,282,925681,0.0-257.0-0.0,voc_e2,12058,"[{""event"":""fullscreenenter"",""trial"":1,""time"":3114}]",NA,NA,NA,NA,NA,6,#1CD855,#FA92F8,0,10,0,38,1,281.7000000476837,39,0,732.7000000476837,10,1,experiment,NA,NA,0,0.1,0.9,1,0,247,6,NA
fcp-trial,283,927902,0.0-258.0-0.0,voc_e2,12058,"[{""event"":""fullscreenenter"",""trial"":1,""time"":3114}]",NA,NA,NA,NA,NA,6,#741CD8,#D8271C,0,0,1,38,1,222.80000007152557,37,1,493.60000002384186,0,1,experiment,NA,NA,2,0.5,0.5,4,5,248,6,NA
fcp-trial,284,930154,0.0-259.0-0.0,voc_e2,12058,"[{""event"":""fullscreenenter"",""trial"":1,""time"":3114}]",NA,NA,NA,NA,NA,4,#1CD855,#FA92F8,0,10,0,38,1,221.5,39,0,524,10,1,experiment,NA,NA,0,0.1,0.9,1,0,249,6,NA
fcp-trial,285,932268,0.0-260.0-0.0,voc_e2,12058,"[{""event"":""fullscreenenter"",""trial"":1,""time"":3114}]",NA,NA,NA,NA,NA,3,#3386FF,#D89F1C,10,0,1,38,1,279.2999999523163,37,1,328.7999999523163,10,1,experiment,NA,NA,1,0.7,0.3,2,3,250,6,NA
fcp-trial,286,934518,0.0-261.0-0.0,voc_e2,12058,"[{""event"":""fullscreenenter"",""trial"":1,""time"":3114}]",NA,NA,NA,NA,NA,6,#3386FF,#D89F1C,0,0,1,38,1,237.5,37,1,508.7000000476837,0,1,experiment,NA,NA,1,0.7,0.3,2,3,251,6,NA
fcp-trial,287,936873,0.0-262.0-0.0,voc_e2,12058,"[{""event"":""fullscreenenter"",""trial"":1,""time"":3114}]",NA,NA,NA,NA,NA,5,#741CD8,#D8271C,10,0,1,38,1,251.39999997615814,39,0,598,0,0,experiment,NA,NA,2,0.5,0.5,4,5,252,6,NA
fcp-trial,288,938989,0.0-263.0-0.0,voc_e2,12058,"[{""event"":""fullscreenenter"",""trial"":1,""time"":3114}]",NA,NA,NA,NA,NA,2,#FA92F8,#1CD855,0,10,1,38,1,235.80000007152557,37,1,373.6999999284744,0,1,experiment,NA,NA,0,0.9,0.1,0,1,253,6,NA
fcp-trial,289,941073,0.0-264.0-0.0,voc_e2,12058,"[{""event"":""fullscreenenter"",""trial"":1,""time"":3114}]",NA,NA,NA,NA,NA,4,#D89F1C,#3386FF,10,0,0,38,1,221.79999995231628,39,0,357.89999997615814,0,1,experiment,NA,NA,1,0.3,0.7,3,2,254,6,NA
fcp-trial,290,943174,0.0-265.0-0.0,voc_e2,12058,"[{""event"":""fullscreenenter"",""trial"":1,""time"":3114}]",NA,NA,NA,NA,NA,1,#741CD8,#D8271C,10,10,1,38,1,87.10000002384186,37,1,509.10000002384186,10,1,experiment,NA,NA,2,0.5,0.5,4,5,255,6,NA
fcp-trial,291,945364,0.0-266.0-0.0,voc_e2,12058,"[{""event"":""fullscreenenter"",""trial"":1,""time"":3114}]",NA,NA,NA,NA,NA,2,#D89F1C,#3386FF,0,0,0,38,1,265.7999999523163,39,0,418.60000002384186,0,1,experiment,NA,NA,1,0.3,0.7,3,2,256,6,NA
fcp-trial,292,947359,0.0-267.0-0.0,voc_e2,12058,"[{""event"":""fullscreenenter"",""trial"":1,""time"":3114}]",NA,NA,NA,NA,NA,4,#741CD8,#D8271C,10,10,1,38,1,38.89999997615814,37,1,447.5,10,1,experiment,NA,NA,2,0.5,0.5,4,5,257,6,NA
fcp-trial,293,949413,0.0-268.0-0.0,voc_e2,12058,"[{""event"":""fullscreenenter"",""trial"":1,""time"":3114}]",NA,NA,NA,NA,NA,1,#1CD855,#FA92F8,0,10,0,38,1,87.20000004768372,39,0,462.8000000715256,10,1,experiment,NA,NA,0,0.1,0.9,1,0,258,6,NA
fcp-trial,294,951319,0.0-269.0-0.0,voc_e2,12058,"[{""event"":""fullscreenenter"",""trial"":1,""time"":3114}]",NA,NA,NA,NA,NA,5,#3386FF,#D89F1C,10,0,1,38,1,102.70000004768372,37,1,298.7000000476837,10,1,experiment,NA,NA,1,0.7,0.3,2,3,259,6,NA
fcp-trial,295,953388,0.0-270.0-0.0,voc_e2,12058,"[{""event"":""fullscreenenter"",""trial"":1,""time"":3114}]",NA,NA,NA,NA,NA,3,#D89F1C,#3386FF,10,10,0,38,1,268.2000000476837,39,0,297.60000002384186,10,1,experiment,NA,NA,1,0.3,0.7,3,2,260,6,NA
fcp-trial,296,955475,0.0-271.0-0.0,voc_e2,12058,"[{""event"":""fullscreenenter"",""trial"":1,""time"":3114}]",NA,NA,NA,NA,NA,0,#741CD8,#D8271C,10,0,1,38,1,220.90000009536743,37,1,360.40000009536743,10,1,experiment,NA,NA,2,0.5,0.5,4,5,261,6,NA
fcp-trial,297,957740,0.0-272.0-0.0,voc_e2,12058,"[{""event"":""fullscreenenter"",""trial"":1,""time"":3114}]",NA,NA,NA,NA,NA,5,#1CD855,#FA92F8,10,10,0,40,0,235.20000004768372,39,0,523.5999999046326,10,1,experiment,NA,NA,0,0.1,0.9,1,0,262,6,NA
fcp-trial,298,960035,0.0-273.0-0.0,voc_e2,12058,"[{""event"":""fullscreenenter"",""trial"":1,""time"":3114}]",NA,NA,NA,NA,NA,2,#741CD8,#D8271C,0,0,1,40,0,251,37,1,536.7999999523163,0,1,experiment,NA,NA,2,0.5,0.5,4,5,263,6,NA
fcp-trial,299,962134,0.0-274.0-0.0,voc_e2,12058,"[{""event"":""fullscreenenter"",""trial"":1,""time"":3114}]",NA,NA,NA,NA,NA,0,#D89F1C,#3386FF,10,0,0,40,0,161.39999997615814,37,1,433.40000009536743,10,0,experiment,NA,NA,1,0.3,0.7,3,2,264,6,NA
fcp-trial,300,964296,0.0-275.0-0.0,voc_e2,12058,"[{""event"":""fullscreenenter"",""trial"":1,""time"":3114}]",NA,NA,NA,NA,NA,6,#FA92F8,#1CD855,0,0,1,40,0,192.70000004768372,37,1,464.10000002384186,0,1,experiment,NA,NA,0,0.9,0.1,0,1,265,6,NA
fcp-trial,301,966319,0.0-276.0-0.0,voc_e2,12058,"[{""event"":""fullscreenenter"",""trial"":1,""time"":3114}]",NA,NA,NA,NA,NA,6,#D89F1C,#3386FF,0,10,0,40,0,83.90000009536743,39,0,433.39999997615814,10,1,experiment,NA,NA,1,0.3,0.7,3,2,266,6,NA
fcp-trial,302,968360,0.0-277.0-0.0,voc_e2,12058,"[{""event"":""fullscreenenter"",""trial"":1,""time"":3114}]",NA,NA,NA,NA,NA,5,#741CD8,#D8271C,0,0,1,40,0,192.40000009536743,39,0,344.60000002384186,0,0,experiment,NA,NA,2,0.5,0.5,4,5,267,6,NA
fcp-trial,303,970310,0.0-278.0-0.0,voc_e2,12058,"[{""event"":""fullscreenenter"",""trial"":1,""time"":3114}]",NA,NA,NA,NA,NA,6,#D8271C,#741CD8,10,0,0,40,0,57.299999952316284,37,1,388.39999997615814,10,0,experiment,NA,NA,2,0.5,0.5,5,4,268,6,NA
fcp-trial,304,972432,0.0-279.0-0.0,voc_e2,12058,"[{""event"":""fullscreenenter"",""trial"":1,""time"":3114}]",NA,NA,NA,NA,NA,0,#FA92F8,#1CD855,10,0,1,40,0,209.10000002384186,37,1,409,10,1,experiment,NA,NA,0,0.9,0.1,0,1,269,6,NA
fcp-trial,305,974450,0.0-280.0-0.0,voc_e2,12058,"[{""event"":""fullscreenenter"",""trial"":1,""time"":3114}]",NA,NA,NA,NA,NA,1,#3386FF,#D89F1C,10,0,1,40,0,124.70000004768372,37,1,389,10,1,experiment,NA,NA,1,0.7,0.3,2,3,270,6,NA
fcp-trial,306,976416,0.0-281.0-0.0,voc_e2,12058,"[{""event"":""fullscreenenter"",""trial"":1,""time"":3114}]",NA,NA,NA,NA,NA,3,#FA92F8,#1CD855,10,0,1,40,0,26.100000023841858,39,0,432.8000000715256,0,0,experiment,NA,NA,0,0.9,0.1,0,1,271,7,NA
fcp-trial,307,978366,0.0-282.0-0.0,voc_e2,12058,"[{""event"":""fullscreenenter"",""trial"":1,""time"":3114}]",NA,NA,NA,NA,NA,4,#1CD855,#FA92F8,0,10,0,40,0,131.30000007152557,37,1,314.2000000476837,0,0,experiment,NA,NA,0,0.1,0.9,1,0,272,7,NA
fcp-trial,308,980630,0.0-283.0-0.0,voc_e2,12058,"[{""event"":""fullscreenenter"",""trial"":1,""time"":3114}]",NA,NA,NA,NA,NA,3,#D8271C,#741CD8,10,0,0,40,0,311.2000000476837,37,1,447.89999997615814,10,0,experiment,NA,NA,2,0.5,0.5,5,4,273,7,NA
fcp-trial,309,982551,0.0-284.0-0.0,voc_e2,12058,"[{""event"":""fullscreenenter"",""trial"":1,""time"":3114}]",NA,NA,NA,NA,NA,1,#D8271C,#741CD8,10,0,0,40,0,42.700000047683716,37,1,374.39999997615814,10,0,experiment,NA,NA,2,0.5,0.5,5,4,274,7,NA
fcp-trial,310,984801,0.0-285.0-0.0,voc_e2,12058,"[{""event"":""fullscreenenter"",""trial"":1,""time"":3114}]",NA,NA,NA,NA,NA,4,#1CD855,#FA92F8,0,10,0,40,0,386.2999999523163,37,1,358.7999999523163,0,0,experiment,NA,NA,0,0.1,0.9,1,0,275,7,NA
fcp-trial,311,986812,0.0-286.0-0.0,voc_e2,12058,"[{""event"":""fullscreenenter"",""trial"":1,""time"":3114}]",NA,NA,NA,NA,NA,2,#FA92F8,#1CD855,10,0,1,40,0,221,37,1,284.7000000476837,10,1,experiment,NA,NA,0,0.9,0.1,0,1,276,7,NA
fcp-trial,312,989166,0.0-287.0-0.0,voc_e2,12058,"[{""event"":""fullscreenenter"",""trial"":1,""time"":3114}]",NA,NA,NA,NA,NA,0,#3386FF,#D89F1C,10,10,1,40,0,167.30000007152557,37,1,680.2999999523163,10,1,experiment,NA,NA,1,0.7,0.3,2,3,277,7,NA
fcp-trial,313,991761,0.0-288.0-0.0,voc_e2,12058,"[{""event"":""fullscreenenter"",""trial"":1,""time"":3114}]",NA,NA,NA,NA,NA,5,#741CD8,#D8271C,0,0,1,40,0,282.39999997615814,39,0,808.5,0,0,experiment,NA,NA,2,0.5,0.5,4,5,278,7,NA
fcp-trial,314,994071,0.0-289.0-0.0,voc_e2,12058,"[{""event"":""fullscreenenter"",""trial"":1,""time"":3114}]",NA,NA,NA,NA,NA,4,#741CD8,#D8271C,10,0,1,40,0,311.39999997615814,39,0,494.2999999523163,0,0,experiment,NA,NA,2,0.5,0.5,4,5,279,7,NA
fcp-trial,315,996262,0.0-290.0-0.0,voc_e2,12058,"[{""event"":""fullscreenenter"",""trial"":1,""time"":3114}]",NA,NA,NA,NA,NA,5,#3386FF,#D89F1C,0,0,1,40,0,281.5,37,1,404,0,1,experiment,NA,NA,1,0.7,0.3,2,3,280,7,NA
fcp-trial,316,998285,0.0-291.0-0.0,voc_e2,12058,"[{""event"":""fullscreenenter"",""trial"":1,""time"":3114}]",NA,NA,NA,NA,NA,3,#1CD855,#FA92F8,0,10,0,40,0,161.5,39,0,358.5,10,1,experiment,NA,NA,0,0.1,0.9,1,0,281,7,NA
fcp-trial,317,1000251,0.0-292.0-0.0,voc_e2,12058,"[{""event"":""fullscreenenter"",""trial"":1,""time"":3114}]",NA,NA,NA,NA,NA,6,#1CD855,#FA92F8,0,10,0,40,0,12.400000095367432,37,1,449.10000002384186,0,0,experiment,NA,NA,0,0.1,0.9,1,0,282,7,NA
fcp-trial,318,1002381,0.0-293.0-0.0,voc_e2,12058,"[{""event"":""fullscreenenter"",""trial"":1,""time"":3114}]",NA,NA,NA,NA,NA,4,#D89F1C,#3386FF,10,0,0,38,1,252.5,39,0,374.60000002384186,0,1,experiment,NA,NA,1,0.3,0.7,3,2,283,7,NA
fcp-trial,319,1004695,0.0-294.0-0.0,voc_e2,12058,"[{""event"":""fullscreenenter"",""trial"":1,""time"":3114}]",NA,NA,NA,NA,NA,3,#741CD8,#D8271C,10,0,1,38,1,252.59999990463257,37,1,555.2999999523163,10,1,experiment,NA,NA,2,0.5,0.5,4,5,284,7,NA
fcp-trial,320,1006702,0.0-295.0-0.0,voc_e2,12058,"[{""event"":""fullscreenenter"",""trial"":1,""time"":3114}]",NA,NA,NA,NA,NA,6,#D89F1C,#3386FF,10,0,0,38,1,143.70000004768372,39,0,359.39999997615814,0,1,experiment,NA,NA,1,0.3,0.7,3,2,285,7,NA
fcp-trial,321,1008998,0.0-296.0-0.0,voc_e2,12058,"[{""event"":""fullscreenenter"",""trial"":1,""time"":3114}]",NA,NA,NA,NA,NA,1,#FA92F8,#1CD855,10,0,1,38,1,282.10000002384186,37,1,509.10000002384186,10,1,experiment,NA,NA,0,0.9,0.1,0,1,286,7,NA
fcp-trial,322,1011038,0.0-297.0-0.0,voc_e2,12058,"[{""event"":""fullscreenenter"",""trial"":1,""time"":3114}]",NA,NA,NA,NA,NA,2,#D89F1C,#3386FF,0,10,0,38,1,131.10000002384186,39,0,405.09999990463257,10,1,experiment,NA,NA,1,0.3,0.7,3,2,287,7,NA
fcp-trial,323,1013363,0.0-298.0-0.0,voc_e2,12058,"[{""event"":""fullscreenenter"",""trial"":1,""time"":3114}]",NA,NA,NA,NA,NA,0,#FA92F8,#1CD855,10,10,1,38,1,551.7000000476837,37,1,267.5,10,1,experiment,NA,NA,0,0.9,0.1,0,1,288,7,NA
fcp-trial,324,1016258,0.0-299.0-0.0,voc_e2,12058,"[{""event"":""fullscreenenter"",""trial"":1,""time"":3114}]",NA,NA,NA,NA,NA,0,#741CD8,#D8271C,10,10,1,40,0,911.8999999761581,39,0,478.2999999523163,10,0,experiment,NA,NA,2,0.5,0.5,4,5,289,7,NA
fcp-trial,325,1018628,0.0-300.0-0.0,voc_e2,12058,"[{""event"":""fullscreenenter"",""trial"":1,""time"":3114}]",NA,NA,NA,NA,NA,2,#D8271C,#741CD8,0,0,0,38,1,342.90000009536743,37,1,522.3999999761581,0,0,experiment,NA,NA,2,0.5,0.5,5,4,290,7,NA
fcp-trial,326,1020834,0.0-301.0-0.0,voc_e2,12058,"[{""event"":""fullscreenenter"",""trial"":1,""time"":3114}]",NA,NA,NA,NA,NA,1,#3386FF,#D89F1C,10,0,1,38,1,372,39,0,328.2000000476837,0,0,experiment,NA,NA,1,0.7,0.3,2,3,291,7,NA
fcp-trial,327,1022962,0.0-302.0-0.0,voc_e2,12058,"[{""event"":""fullscreenenter"",""trial"":1,""time"":3114}]",NA,NA,NA,NA,NA,5,#1CD855,#FA92F8,10,10,0,38,1,236.79999995231628,39,0,388.10000002384186,10,1,experiment,NA,NA,0,0.1,0.9,1,0,292,7,NA
fcp-trial,328,1025288,0.0-303.0-0.0,voc_e2,12058,"[{""event"":""fullscreenenter"",""trial"":1,""time"":3114}]",NA,NA,NA,NA,NA,6,#D8271C,#741CD8,10,0,0,38,1,253,39,0,568,0,1,experiment,NA,NA,2,0.5,0.5,5,4,293,7,NA
fcp-trial,329,1027524,0.0-304.0-0.0,voc_e2,12058,"[{""event"":""fullscreenenter"",""trial"":1,""time"":3114}]",NA,NA,NA,NA,NA,3,#3386FF,#D89F1C,0,0,1,38,1,369.5,37,1,358.89999997615814,0,1,experiment,NA,NA,1,0.7,0.3,2,3,294,7,NA
fcp-trial,330,1029759,0.0-305.0-0.0,voc_e2,12058,"[{""event"":""fullscreenenter"",""trial"":1,""time"":3114}]",NA,NA,NA,NA,NA,3,#D89F1C,#3386FF,0,0,0,38,1,414.7000000476837,39,0,314.10000002384186,0,1,experiment,NA,NA,1,0.3,0.7,3,2,295,7,NA
fcp-trial,331,1032039,0.0-306.0-0.0,voc_e2,12058,"[{""event"":""fullscreenenter"",""trial"":1,""time"":3114}]",NA,NA,NA,NA,NA,4,#1CD855,#FA92F8,0,0,0,38,1,326,37,1,448.5,0,0,experiment,NA,NA,0,0.1,0.9,1,0,296,7,NA
fcp-trial,332,1034228,0.0-307.0-0.0,voc_e2,12058,"[{""event"":""fullscreenenter"",""trial"":1,""time"":3114}]",NA,NA,NA,NA,NA,1,#D89F1C,#3386FF,0,10,0,38,1,386.2999999523163,39,0,298.5,10,1,experiment,NA,NA,1,0.3,0.7,3,2,297,7,NA
fcp-trial,333,1037003,0.0-308.0-0.0,voc_e2,12058,"[{""event"":""fullscreenenter"",""trial"":1,""time"":3114}]",NA,NA,NA,NA,NA,1,#D8271C,#741CD8,10,10,0,40,0,792.7000000476837,39,0,477.59999990463257,10,1,experiment,NA,NA,2,0.5,0.5,5,4,298,7,NA
fcp-trial,334,1039750,0.0-309.0-0.0,voc_e2,12058,"[{""event"":""fullscreenenter"",""trial"":1,""time"":3114}]",NA,NA,NA,NA,NA,4,#D8271C,#741CD8,0,0,0,40,0,463.3000000715256,37,1,779.5,0,0,experiment,NA,NA,2,0.5,0.5,5,4,299,7,NA
fcp-trial,335,1042914,0.0-310.0-0.0,voc_e2,12058,"[{""event"":""fullscreenenter"",""trial"":1,""time"":3114}]",NA,NA,NA,NA,NA,4,#3386FF,#D89F1C,0,0,1,40,0,1256.2999999523163,37,1,403.10000002384186,0,1,experiment,NA,NA,1,0.7,0.3,2,3,300,7,NA
fcp-trial,336,1045119,0.0-311.0-0.0,voc_e2,12058,"[{""event"":""fullscreenenter"",""trial"":1,""time"":3114}]",NA,NA,NA,NA,NA,0,#FA92F8,#1CD855,10,0,1,40,0,222.70000004768372,39,0,477.6999999284744,0,0,experiment,NA,NA,0,0.9,0.1,0,1,301,7,NA
fcp-trial,337,1047219,0.0-312.0-0.0,voc_e2,12058,"[{""event"":""fullscreenenter"",""trial"":1,""time"":3114}]",NA,NA,NA,NA,NA,5,#D89F1C,#3386FF,0,10,0,40,0,297.2999999523163,39,0,298.60000002384186,10,1,experiment,NA,NA,1,0.3,0.7,3,2,302,7,NA
fcp-trial,338,1049575,0.0-313.0-0.0,voc_e2,12058,"[{""event"":""fullscreenenter"",""trial"":1,""time"":3114}]",NA,NA,NA,NA,NA,3,#741CD8,#D8271C,10,10,1,38,1,386.89999997615814,37,1,465,10,1,experiment,NA,NA,2,0.5,0.5,4,5,303,7,NA
fcp-trial,339,1051750,0.0-314.0-0.0,voc_e2,12058,"[{""event"":""fullscreenenter"",""trial"":1,""time"":3114}]",NA,NA,NA,NA,NA,5,#D8271C,#741CD8,10,0,0,38,1,354.8000000715256,39,0,313.10000002384186,0,1,experiment,NA,NA,2,0.5,0.5,5,4,304,7,NA
fcp-trial,340,1054450,0.0-315.0-0.0,voc_e2,12058,"[{""event"":""fullscreenenter"",""trial"":1,""time"":3114}]",NA,NA,NA,NA,NA,5,#1CD855,#FA92F8,0,10,0,38,1,206.5,39,0,988.2999999523164,10,1,experiment,NA,NA,0,0.1,0.9,1,0,305,7,NA
fcp-trial,341,1056550,0.0-316.0-0.0,voc_e2,12058,"[{""event"":""fullscreenenter"",""trial"":1,""time"":3114}]",NA,NA,NA,NA,NA,6,#D89F1C,#3386FF,0,10,0,38,1,281.7999999523163,39,0,314,10,1,experiment,NA,NA,1,0.3,0.7,3,2,306,7,NA
fcp-trial,342,1059040,0.0-317.0-0.0,voc_e2,12058,"[{""event"":""fullscreenenter"",""trial"":1,""time"":3114}]",NA,NA,NA,NA,NA,6,#741CD8,#D8271C,10,0,1,38,1,327.59999990463257,37,1,658.2000000476837,10,1,experiment,NA,NA,2,0.5,0.5,4,5,307,7,NA
fcp-trial,343,1061230,0.0-318.0-0.0,voc_e2,12058,"[{""event"":""fullscreenenter"",""trial"":1,""time"":3114}]",NA,NA,NA,NA,NA,3,#1CD855,#FA92F8,0,10,0,38,1,296.89999997615814,39,0,388.89999997615814,10,1,experiment,NA,NA,0,0.1,0.9,1,0,308,7,NA
fcp-trial,344,1063345,0.0-319.0-0.0,voc_e2,12058,"[{""event"":""fullscreenenter"",""trial"":1,""time"":3114}]",NA,NA,NA,NA,NA,2,#D89F1C,#3386FF,0,0,0,38,1,161.89999997615814,39,0,448.09999990463257,0,1,experiment,NA,NA,1,0.3,0.7,3,2,309,7,NA
fcp-trial,345,1065446,0.0-320.0-0.0,voc_e2,12058,"[{""event"":""fullscreenenter"",""trial"":1,""time"":3114}]",NA,NA,NA,NA,NA,0,#D8271C,#741CD8,10,0,0,38,1,236.79999995231628,37,1,359.60000002384186,10,0,experiment,NA,NA,2,0.5,0.5,5,4,310,7,NA
fcp-trial,346,1067786,0.0-321.0-0.0,voc_e2,12058,"[{""event"":""fullscreenenter"",""trial"":1,""time"":3114}]",NA,NA,NA,NA,NA,6,#FA92F8,#1CD855,10,0,1,38,1,235.89999997615814,39,0,598.9000000953674,0,0,experiment,NA,NA,0,0.9,0.1,0,1,311,7,NA
fcp-trial,347,1070067,0.0-322.0-0.0,voc_e2,12058,"[{""event"":""fullscreenenter"",""trial"":1,""time"":3114}]",NA,NA,NA,NA,NA,0,#3386FF,#D89F1C,0,0,1,38,1,280.39999997615814,37,1,494.1999999284744,0,1,experiment,NA,NA,1,0.7,0.3,2,3,312,7,NA
fcp-trial,348,1072302,0.0-323.0-0.0,voc_e2,12058,"[{""event"":""fullscreenenter"",""trial"":1,""time"":3114}]",NA,NA,NA,NA,NA,2,#1CD855,#FA92F8,0,10,0,38,1,296,39,0,432.7000000476837,10,1,experiment,NA,NA,0,0.1,0.9,1,0,313,7,NA
fcp-trial,349,1074762,0.0-324.0-0.0,voc_e2,12058,"[{""event"":""fullscreenenter"",""trial"":1,""time"":3114}]",NA,NA,NA,NA,NA,2,#D8271C,#741CD8,10,0,0,38,1,207,37,1,749.8999999761581,10,0,experiment,NA,NA,2,0.5,0.5,5,4,314,7,NA
fcp-trial,350,1077851,0.0-325.0-0.0,voc_e2,12058,"[{""event"":""fullscreenenter"",""trial"":1,""time"":3114}]",NA,NA,NA,NA,NA,1,#FA92F8,#1CD855,10,0,1,38,1,339.60000002384186,37,1,1244.399999976158,10,1,experiment,NA,NA,0,0.9,0.1,0,1,315,7,NA
audio-instructions,351,1084402,0.0-326.0,voc_e2,12058,"[{""event"":""fullscreenenter"",""trial"":1,""time"":3114}]",NA,729.3999999761581,static/audio/finished.wav,NA,0,NA,NA,NA,NA,NA,NA,NA,NA,NA,NA,NA,NA,NA,NA,NA,NA,NA,NA,NA,NA,NA,NA,NA,NA,NA
audio-instructions,352,1095648,0.0-327.0-0.0,voc_e2,12058,"[{""event"":""fullscreenenter"",""trial"":1,""time"":3114}]",NA,411.7999999523163,static/audio/explicit1.wav,NA,0,NA,NA,NA,NA,NA,NA,NA,NA,NA,NA,NA,NA,NA,NA,NA,NA,NA,NA,NA,NA,NA,NA,NA,NA,NA
audio-instructions,353,1103810,0.0-327.0-1.0,voc_e2,12058,"[{""event"":""fullscreenenter"",""trial"":1,""time"":3114}]",NA,563.2000000476837,static/audio/explicit2.wav,NA,0,NA,NA,NA,NA,NA,NA,NA,NA,NA,NA,NA,NA,NA,NA,NA,NA,NA,NA,NA,NA,NA,NA,NA,NA,NA
image-slider-response,354,1116352,0.0-328.0,voc_e2,12058,"[{""event"":""fullscreenenter"",""trial"":1,""time"":3114}]",NA,12540.5,static/img/machines/machine2.png,NA,NA,NA,NA,NA,NA,NA,NA,NA,NA,NA,NA,NA,NA,NA,NA,explicit,NA,NA,NA,NA,NA,NA,NA,NA,NA,5
image-slider-response,355,1119846,0.0-329.0,voc_e2,12058,"[{""event"":""fullscreenenter"",""trial"":1,""time"":3114}]",NA,3493,static/img/machines/machine6.png,NA,NA,NA,NA,NA,NA,NA,NA,NA,NA,NA,NA,NA,NA,NA,NA,explicit,NA,NA,NA,NA,NA,NA,NA,NA,NA,2
image-slider-response,356,1122218,0.0-330.0,voc_e2,12058,"[{""event"":""fullscreenenter"",""trial"":1,""time"":3114}]",NA,2370.1999999284744,static/img/machines/machine1.png,NA,NA,NA,NA,NA,NA,NA,NA,NA,NA,NA,NA,NA,NA,NA,NA,explicit,NA,NA,NA,NA,NA,NA,NA,NA,NA,5
image-slider-response,357,1126320,0.0-331.0,voc_e2,12058,"[{""event"":""fullscreenenter"",""trial"":1,""time"":3114}]",NA,4101.100000023842,static/img/machines/machine5.png,NA,NA,NA,NA,NA,NA,NA,NA,NA,NA,NA,NA,NA,NA,NA,NA,explicit,NA,NA,NA,NA,NA,NA,NA,NA,NA,8
image-slider-response,358,1129042,0.0-332.0,voc_e2,12058,"[{""event"":""fullscreenenter"",""trial"":1,""time"":3114}]",NA,2720.7000000476837,static/img/machines/machine3.png,NA,NA,NA,NA,NA,NA,NA,NA,NA,NA,NA,NA,NA,NA,NA,NA,explicit,NA,NA,NA,NA,NA,NA,NA,NA,NA,8
image-slider-response,359,1132878,0.0-333.0,voc_e2,12058,"[{""event"":""fullscreenenter"",""trial"":1,""time"":3114}]",NA,3834.899999976158,static/img/machines/machine4.png,NA,NA,NA,NA,NA,NA,NA,NA,NA,NA,NA,NA,NA,NA,NA,NA,explicit,NA,NA,NA,NA,NA,NA,NA,NA,NA,3
