trial_type,trial_index,time_elapsed,internal_node_id,task_version,subject_id,interactions,success,rt,stimulus,key_press,button_pressed,offer,arcade_color_L,arcade_color_R,arcade_outcome_L,arcade_outcome_R,correct,stage_1_key,stage_1_choice,stage_1_rt,stage_2_key,stage_2_choice,stage_2_rt,stage_3_outcome,accuracy,phase,responses,num_errors,context,reward_prob_L,reward_prob_R,arcade_id_L,arcade_id_R,trial,block,response
pavlovia,0,8,0.0-0.0,voc_e2,11885,"[{""event"":""blur"",""trial"":0,""time"":0}]",NA,NA,NA,NA,NA,NA,NA,NA,NA,NA,NA,NA,NA,NA,NA,NA,NA,NA,NA,NA,NA,NA,NA,NA,NA,NA,NA,NA,NA,NA
fullscreen,1,4060,0.0-1.0,voc_e2,11885,"[{""event"":""blur"",""trial"":0,""time"":0},{""event"":""focus"",""trial"":1,""time"":2974},{""event"":""fullscreenenter"",""trial"":1,""time"":3074}]",TRUE,NA,NA,NA,NA,NA,NA,NA,NA,NA,NA,NA,NA,NA,NA,NA,NA,NA,NA,NA,NA,NA,NA,NA,NA,NA,NA,NA,NA,NA
audio-keyboard-response,2,8094,0.0-2.0,voc_e2,11885,"[{""event"":""blur"",""trial"":0,""time"":0},{""event"":""focus"",""trial"":1,""time"":2974},{""event"":""fullscreenenter"",""trial"":1,""time"":3074}]",NA,3920,static/audio/beep_loop.wav,32,NA,NA,NA,NA,NA,NA,NA,NA,NA,NA,NA,NA,NA,NA,NA,NA,NA,NA,NA,NA,NA,NA,NA,NA,NA,NA
audio-test,3,10140,0.0-3.0,voc_e2,11885,"[{""event"":""blur"",""trial"":0,""time"":0},{""event"":""focus"",""trial"":1,""time"":2974},{""event"":""fullscreenenter"",""trial"":1,""time"":3074}]",NA,NA,static/audio/turtle.wav,NA,3,NA,NA,NA,NA,NA,NA,NA,NA,NA,NA,NA,NA,NA,NA,NA,NA,NA,NA,NA,NA,NA,NA,NA,NA,NA
audio-test,4,12370,0.0-4.0,voc_e2,11885,"[{""event"":""blur"",""trial"":0,""time"":0},{""event"":""focus"",""trial"":1,""time"":2974},{""event"":""fullscreenenter"",""trial"":1,""time"":3074}]",NA,NA,static/audio/shark.wav,NA,2,NA,NA,NA,NA,NA,NA,NA,NA,NA,NA,NA,NA,NA,NA,NA,NA,NA,NA,NA,NA,NA,NA,NA,NA,NA
audio-instructions,5,19036,0.0-5.0-0.0,voc_e2,11885,"[{""event"":""blur"",""trial"":0,""time"":0},{""event"":""focus"",""trial"":1,""time"":2974},{""event"":""fullscreenenter"",""trial"":1,""time"":3074}]",NA,879.1999999284744,static/audio/instructions1.wav,NA,0,NA,NA,NA,NA,NA,NA,NA,NA,NA,NA,NA,NA,NA,NA,NA,NA,NA,NA,NA,NA,NA,NA,NA,NA,NA
audio-instructions,6,27035,0.0-5.0-1.0,voc_e2,11885,"[{""event"":""blur"",""trial"":0,""time"":0},{""event"":""focus"",""trial"":1,""time"":2974},{""event"":""fullscreenenter"",""trial"":1,""time"":3074}]",NA,1257.8000000715256,static/audio/instructions2.wav,NA,0,NA,NA,NA,NA,NA,NA,NA,NA,NA,NA,NA,NA,NA,NA,NA,NA,NA,NA,NA,NA,NA,NA,NA,NA,NA
audio-instructions,7,33384,0.0-5.0-2.0,voc_e2,11885,"[{""event"":""blur"",""trial"":0,""time"":0},{""event"":""focus"",""trial"":1,""time"":2974},{""event"":""fullscreenenter"",""trial"":1,""time"":3074}]",NA,537.2999999523163,static/audio/instructions3.wav,NA,0,NA,NA,NA,NA,NA,NA,NA,NA,NA,NA,NA,NA,NA,NA,NA,NA,NA,NA,NA,NA,NA,NA,NA,NA,NA
audio-instructions,8,48573,0.0-5.0-3.0,voc_e2,11885,"[{""event"":""blur"",""trial"":0,""time"":0},{""event"":""focus"",""trial"":1,""time"":2974},{""event"":""fullscreenenter"",""trial"":1,""time"":3074}]",NA,1966.3000000715256,static/audio/instructions4.wav,NA,0,NA,NA,NA,NA,NA,NA,NA,NA,NA,NA,NA,NA,NA,NA,NA,NA,NA,NA,NA,NA,NA,NA,NA,NA,NA
audio-instructions,9,58853,0.0-5.0-4.0,voc_e2,11885,"[{""event"":""blur"",""trial"":0,""time"":0},{""event"":""focus"",""trial"":1,""time"":2974},{""event"":""fullscreenenter"",""trial"":1,""time"":3074}]",NA,896.5999999046326,static/audio/instructions5.wav,NA,0,NA,NA,NA,NA,NA,NA,NA,NA,NA,NA,NA,NA,NA,NA,NA,NA,NA,NA,NA,NA,NA,NA,NA,NA,NA
fcp-practice,10,61765,0.0-5.0-5.0-0.0,voc_e2,11885,"[{""event"":""blur"",""trial"":0,""time"":0},{""event"":""focus"",""trial"":1,""time"":2974},{""event"":""fullscreenenter"",""trial"":1,""time"":3074}]",NA,NA,NA,NA,NA,NA,#EDC948,#46d3c8,10,0,1,null,null,null,37,1,1399.600000023842,10,1,practice,NA,NA,NA,NA,NA,NA,NA,NA,NA,NA
fcp-practice,11,63745,0.0-5.0-5.0-1.0,voc_e2,11885,"[{""event"":""blur"",""trial"":0,""time"":0},{""event"":""focus"",""trial"":1,""time"":2974},{""event"":""fullscreenenter"",""trial"":1,""time"":3074}]",NA,NA,NA,NA,NA,NA,#EDC948,#46d3c8,10,0,1,null,null,null,37,1,477.09999990463257,10,1,practice,NA,NA,NA,NA,NA,NA,NA,NA,NA,NA
fcp-practice,12,65675,0.0-5.0-5.0-2.0,voc_e2,11885,"[{""event"":""blur"",""trial"":0,""time"":0},{""event"":""focus"",""trial"":1,""time"":2974},{""event"":""fullscreenenter"",""trial"":1,""time"":3074}]",NA,NA,NA,NA,NA,NA,#EDC948,#46d3c8,0,10,1,null,null,null,37,1,416.7000000476837,0,1,practice,NA,NA,NA,NA,NA,NA,NA,NA,NA,NA
fcp-practice,13,67786,0.0-5.0-5.0-3.0,voc_e2,11885,"[{""event"":""blur"",""trial"":0,""time"":0},{""event"":""focus"",""trial"":1,""time"":2974},{""event"":""fullscreenenter"",""trial"":1,""time"":3074}]",NA,NA,NA,NA,NA,NA,#EDC948,#46d3c8,10,0,1,null,null,null,37,1,596.5,10,1,practice,NA,NA,NA,NA,NA,NA,NA,NA,NA,NA
fcp-practice,14,69758,0.0-5.0-5.0-4.0,voc_e2,11885,"[{""event"":""blur"",""trial"":0,""time"":0},{""event"":""focus"",""trial"":1,""time"":2974},{""event"":""fullscreenenter"",""trial"":1,""time"":3074}]",NA,NA,NA,NA,NA,NA,#EDC948,#46d3c8,10,0,1,null,null,null,37,1,464.5,10,1,practice,NA,NA,NA,NA,NA,NA,NA,NA,NA,NA
audio-instructions,15,89453,0.0-5.0-6.0,voc_e2,11885,"[{""event"":""blur"",""trial"":0,""time"":0},{""event"":""focus"",""trial"":1,""time"":2974},{""event"":""fullscreenenter"",""trial"":1,""time"":3074}]",NA,1686.2000000476835,static/audio/instructions6.wav,NA,0,NA,NA,NA,NA,NA,NA,NA,NA,NA,NA,NA,NA,NA,NA,NA,NA,NA,NA,NA,NA,NA,NA,NA,NA,NA
audio-instructions,16,111353,0.0-5.0-7.0,voc_e2,11885,"[{""event"":""blur"",""trial"":0,""time"":0},{""event"":""focus"",""trial"":1,""time"":2974},{""event"":""fullscreenenter"",""trial"":1,""time"":3074}]",NA,2705.899999976158,static/audio/instructions7.wav,NA,0,NA,NA,NA,NA,NA,NA,NA,NA,NA,NA,NA,NA,NA,NA,NA,NA,NA,NA,NA,NA,NA,NA,NA,NA,NA
audio-instructions,17,121700,0.0-5.0-8.0,voc_e2,11885,"[{""event"":""blur"",""trial"":0,""time"":0},{""event"":""focus"",""trial"":1,""time"":2974},{""event"":""fullscreenenter"",""trial"":1,""time"":3074}]",NA,874.1000000238419,static/audio/instructions8.wav,NA,0,NA,NA,NA,NA,NA,NA,NA,NA,NA,NA,NA,NA,NA,NA,NA,NA,NA,NA,NA,NA,NA,NA,NA,NA,NA
fcp-comprehension,18,133261,0.0-5.0-9.0,voc_e2,11885,"[{""event"":""blur"",""trial"":0,""time"":0},{""event"":""focus"",""trial"":1,""time"":2974},{""event"":""fullscreenenter"",""trial"":1,""time"":3074}]",NA,11558.600000023842,NA,NA,NA,NA,NA,NA,NA,NA,NA,NA,NA,NA,NA,NA,NA,NA,NA,NA,"true,true",0,NA,NA,NA,NA,NA,NA,NA,NA
audio-instructions,19,140247,0.0-6.0-0.0,voc_e2,11885,"[{""event"":""blur"",""trial"":0,""time"":0},{""event"":""focus"",""trial"":1,""time"":2974},{""event"":""fullscreenenter"",""trial"":1,""time"":3074}]",NA,1439,static/audio/instructions9.wav,NA,0,NA,NA,NA,NA,NA,NA,NA,NA,NA,NA,NA,NA,NA,NA,NA,NA,NA,NA,NA,NA,NA,NA,NA,NA,NA
audio-instructions,20,153320,0.0-6.0-1.0,voc_e2,11885,"[{""event"":""blur"",""trial"":0,""time"":0},{""event"":""focus"",""trial"":1,""time"":2974},{""event"":""fullscreenenter"",""trial"":1,""time"":3074}]",NA,953.3000000715256,static/audio/instructions10.wav,NA,0,NA,NA,NA,NA,NA,NA,NA,NA,NA,NA,NA,NA,NA,NA,NA,NA,NA,NA,NA,NA,NA,NA,NA,NA,NA
fcp-trial,21,162408,0.0-6.0-2.0,voc_e2,11885,"[{""event"":""blur"",""trial"":0,""time"":0},{""event"":""focus"",""trial"":1,""time"":2974},{""event"":""fullscreenenter"",""trial"":1,""time"":3074}]",NA,NA,NA,NA,NA,0,#EDC948,#46d3c8,10,10,1,38,1,6389.599999904633,37,1,1175.100000023842,10,1,practice,NA,NA,NA,NA,NA,NA,NA,NA,NA,NA
audio-instructions,22,174575,0.0-6.0-3.0,voc_e2,11885,"[{""event"":""blur"",""trial"":0,""time"":0},{""event"":""focus"",""trial"":1,""time"":2974},{""event"":""fullscreenenter"",""trial"":1,""time"":3074}]",NA,1157.899999976158,static/audio/instructions11.wav,NA,0,NA,NA,NA,NA,NA,NA,NA,NA,NA,NA,NA,NA,NA,NA,NA,NA,NA,NA,NA,NA,NA,NA,NA,NA,NA
fcp-trial,23,180826,0.0-6.0-4.0,voc_e2,11885,"[{""event"":""blur"",""trial"":0,""time"":0},{""event"":""focus"",""trial"":1,""time"":2974},{""event"":""fullscreenenter"",""trial"":1,""time"":3074}]",NA,NA,NA,NA,NA,6,#EDC948,#46d3c8,10,10,1,40,0,2167.0999999046326,37,1,2566.1999999284744,10,1,practice,NA,NA,NA,NA,NA,NA,NA,NA,NA,NA
audio-instructions,24,200382,0.0-6.0-5.0,voc_e2,11885,"[{""event"":""blur"",""trial"":0,""time"":0},{""event"":""focus"",""trial"":1,""time"":2974},{""event"":""fullscreenenter"",""trial"":1,""time"":3074}]",NA,866.2000000476837,static/audio/instructions12.wav,NA,0,NA,NA,NA,NA,NA,NA,NA,NA,NA,NA,NA,NA,NA,NA,NA,NA,NA,NA,NA,NA,NA,NA,NA,NA,NA
audio-instructions,25,208419,0.0-6.0-6.0,voc_e2,11885,"[{""event"":""blur"",""trial"":0,""time"":0},{""event"":""focus"",""trial"":1,""time"":2974},{""event"":""fullscreenenter"",""trial"":1,""time"":3074}]",NA,441.60000002384186,static/audio/instructions13.wav,NA,0,NA,NA,NA,NA,NA,NA,NA,NA,NA,NA,NA,NA,NA,NA,NA,NA,NA,NA,NA,NA,NA,NA,NA,NA,NA
audio-instructions,26,217800,0.0-6.0-7.0,voc_e2,11885,"[{""event"":""blur"",""trial"":0,""time"":0},{""event"":""focus"",""trial"":1,""time"":2974},{""event"":""fullscreenenter"",""trial"":1,""time"":3074}]",NA,933.600000023842,static/audio/instructions14.wav,NA,0,NA,NA,NA,NA,NA,NA,NA,NA,NA,NA,NA,NA,NA,NA,NA,NA,NA,NA,NA,NA,NA,NA,NA,NA,NA
audio-instructions,27,225052,0.0-7.0-0.0,voc_e2,11885,"[{""event"":""blur"",""trial"":0,""time"":0},{""event"":""focus"",""trial"":1,""time"":2974},{""event"":""fullscreenenter"",""trial"":1,""time"":3074}]",NA,346.2000000476837,static/audio/instructions15.wav,NA,0,NA,NA,NA,NA,NA,NA,NA,NA,NA,NA,NA,NA,NA,NA,NA,NA,NA,NA,NA,NA,NA,NA,NA,NA,NA
audio-instructions,28,232185,0.0-7.0-1.0,voc_e2,11885,"[{""event"":""blur"",""trial"":0,""time"":0},{""event"":""focus"",""trial"":1,""time"":2974},{""event"":""fullscreenenter"",""trial"":1,""time"":3074}]",NA,308.09999990463257,static/audio/instructions16.wav,NA,0,NA,NA,NA,NA,NA,NA,NA,NA,NA,NA,NA,NA,NA,NA,NA,NA,NA,NA,NA,NA,NA,NA,NA,NA,NA
audio-instructions,29,240407,0.0-7.0-2.0,voc_e2,11885,"[{""event"":""blur"",""trial"":0,""time"":0},{""event"":""focus"",""trial"":1,""time"":2974},{""event"":""fullscreenenter"",""trial"":1,""time"":3074}]",NA,550.5,static/audio/instructions17.wav,NA,0,NA,NA,NA,NA,NA,NA,NA,NA,NA,NA,NA,NA,NA,NA,NA,NA,NA,NA,NA,NA,NA,NA,NA,NA,NA
audio-instructions,30,248265,0.0-7.0-3.0,voc_e2,11885,"[{""event"":""blur"",""trial"":0,""time"":0},{""event"":""focus"",""trial"":1,""time"":2974},{""event"":""fullscreenenter"",""trial"":1,""time"":3074}]",NA,87.89999997615814,static/audio/instructions18.wav,NA,0,NA,NA,NA,NA,NA,NA,NA,NA,NA,NA,NA,NA,NA,NA,NA,NA,NA,NA,NA,NA,NA,NA,NA,NA,NA
audio-instructions,31,255360,0.0-7.0-4.0,voc_e2,11885,"[{""event"":""blur"",""trial"":0,""time"":0},{""event"":""focus"",""trial"":1,""time"":2974},{""event"":""fullscreenenter"",""trial"":1,""time"":3074}]",NA,353.89999997615814,static/audio/instructions19.wav,NA,0,NA,NA,NA,NA,NA,NA,NA,NA,NA,NA,NA,NA,NA,NA,NA,NA,NA,NA,NA,NA,NA,NA,NA,NA,NA
fcp-comprehension,32,266869,0.0-7.0-5.0,voc_e2,11885,"[{""event"":""blur"",""trial"":0,""time"":0},{""event"":""focus"",""trial"":1,""time"":2974},{""event"":""fullscreenenter"",""trial"":1,""time"":3074}]",NA,11507.300000071526,NA,NA,NA,NA,NA,NA,NA,NA,NA,NA,NA,NA,NA,NA,NA,NA,NA,NA,"false,false,false,true",0,NA,NA,NA,NA,NA,NA,NA,NA
audio-instructions,33,278107,0.0-8.0,voc_e2,11885,"[{""event"":""blur"",""trial"":0,""time"":0},{""event"":""focus"",""trial"":1,""time"":2974},{""event"":""fullscreenenter"",""trial"":1,""time"":3074}]",NA,2020,static/audio/ready.wav,NA,0,NA,NA,NA,NA,NA,NA,NA,NA,NA,NA,NA,NA,NA,NA,NA,NA,NA,NA,NA,NA,NA,NA,NA,NA,NA
fcp-trial,34,286425,0.0-9.0-0.0,voc_e2,11885,"[{""event"":""blur"",""trial"":0,""time"":0},{""event"":""focus"",""trial"":1,""time"":2974},{""event"":""fullscreenenter"",""trial"":1,""time"":3074}]",NA,NA,NA,NA,NA,1,#FA92F8,#1CD855,10,0,0,38,1,5747.700000047684,37,1,1035.2999999523165,10,0,experiment,NA,NA,1,0.3,0.7,3,2,1,1,NA
fcp-trial,35,290375,0.0-10.0-0.0,voc_e2,11885,"[{""event"":""blur"",""trial"":0,""time"":0},{""event"":""focus"",""trial"":1,""time"":2974},{""event"":""fullscreenenter"",""trial"":1,""time"":3074}]",NA,NA,NA,NA,NA,0,#1CD855,#FA92F8,10,0,1,38,1,1716.6000000238419,39,0,711.7999999523163,0,0,experiment,NA,NA,1,0.7,0.3,2,3,2,1,NA
fcp-trial,36,293940,0.0-11.0-0.0,voc_e2,11885,"[{""event"":""blur"",""trial"":0,""time"":0},{""event"":""focus"",""trial"":1,""time"":2974},{""event"":""fullscreenenter"",""trial"":1,""time"":3074}]",NA,NA,NA,NA,NA,3,#D89F1C,#3386FF,0,10,0,38,1,1111.3999999761581,37,1,934.9000000953674,0,0,experiment,NA,NA,2,0.5,0.5,5,4,3,1,NA
fcp-trial,37,297141,0.0-12.0-0.0,voc_e2,11885,"[{""event"":""blur"",""trial"":0,""time"":0},{""event"":""focus"",""trial"":1,""time"":2974},{""event"":""fullscreenenter"",""trial"":1,""time"":3074}]",NA,NA,NA,NA,NA,2,#3386FF,#D89F1C,10,10,1,38,1,808.6000000238419,39,0,870.8000000715256,10,0,experiment,NA,NA,2,0.5,0.5,4,5,4,1,NA
fcp-trial,38,300273,0.0-13.0-0.0,voc_e2,11885,"[{""event"":""blur"",""trial"":0,""time"":0},{""event"":""focus"",""trial"":1,""time"":2974},{""event"":""fullscreenenter"",""trial"":1,""time"":3074}]",NA,NA,NA,NA,NA,5,#D8271C,#741CD8,10,10,1,38,1,688.5,39,0,923.0999999046326,10,0,experiment,NA,NA,0,0.9,0.1,0,1,5,1,NA
fcp-trial,39,303107,0.0-14.0-0.0,voc_e2,11885,"[{""event"":""blur"",""trial"":0,""time"":0},{""event"":""focus"",""trial"":1,""time"":2974},{""event"":""fullscreenenter"",""trial"":1,""time"":3074}]",NA,NA,NA,NA,NA,1,#741CD8,#D8271C,0,10,0,38,1,747.2000000476837,37,1,562.8999999761581,0,0,experiment,NA,NA,0,0.1,0.9,1,0,6,1,NA
fcp-trial,40,305874,0.0-15.0-0.0,voc_e2,11885,"[{""event"":""blur"",""trial"":0,""time"":0},{""event"":""focus"",""trial"":1,""time"":2974},{""event"":""fullscreenenter"",""trial"":1,""time"":3074}]",NA,NA,NA,NA,NA,5,#1CD855,#FA92F8,0,0,1,38,1,626.3999999761581,37,1,631.1000000238419,0,1,experiment,NA,NA,1,0.7,0.3,2,3,7,1,NA
fcp-trial,41,308801,0.0-16.0-0.0,voc_e2,11885,"[{""event"":""blur"",""trial"":0,""time"":0},{""event"":""focus"",""trial"":1,""time"":2974},{""event"":""fullscreenenter"",""trial"":1,""time"":3074}]",NA,NA,NA,NA,NA,6,#FA92F8,#1CD855,10,10,0,38,1,562.6999999284744,39,0,855.8999999761581,10,1,experiment,NA,NA,1,0.3,0.7,3,2,8,1,NA
fcp-trial,42,311545,0.0-17.0-0.0,voc_e2,11885,"[{""event"":""blur"",""trial"":0,""time"":0},{""event"":""focus"",""trial"":1,""time"":2974},{""event"":""fullscreenenter"",""trial"":1,""time"":3074}]",NA,NA,NA,NA,NA,4,#D89F1C,#3386FF,0,10,0,38,1,472.60000002384186,37,1,767.1999999284744,0,0,experiment,NA,NA,2,0.5,0.5,5,4,9,1,NA
fcp-trial,43,314568,0.0-18.0-0.0,voc_e2,11885,"[{""event"":""blur"",""trial"":0,""time"":0},{""event"":""focus"",""trial"":1,""time"":2974},{""event"":""fullscreenenter"",""trial"":1,""time"":3074}]",NA,NA,NA,NA,NA,6,#741CD8,#D8271C,0,10,0,38,1,823.2999999523163,39,0,693.8000000715256,10,1,experiment,NA,NA,0,0.1,0.9,1,0,10,1,NA
fcp-trial,44,317041,0.0-19.0-0.0,voc_e2,11885,"[{""event"":""blur"",""trial"":0,""time"":0},{""event"":""focus"",""trial"":1,""time"":2974},{""event"":""fullscreenenter"",""trial"":1,""time"":3074}]",NA,NA,NA,NA,NA,2,#1CD855,#FA92F8,10,0,1,38,1,343.5,39,0,621.8999999761581,0,0,experiment,NA,NA,1,0.7,0.3,2,3,11,1,NA
fcp-trial,45,319649,0.0-20.0-0.0,voc_e2,11885,"[{""event"":""blur"",""trial"":0,""time"":0},{""event"":""focus"",""trial"":1,""time"":2974},{""event"":""fullscreenenter"",""trial"":1,""time"":3074}]",NA,NA,NA,NA,NA,6,#3386FF,#D89F1C,10,10,1,38,1,440.10000002384186,37,1,663.5,10,1,experiment,NA,NA,2,0.5,0.5,4,5,12,1,NA
fcp-trial,46,322393,0.0-21.0-0.0,voc_e2,11885,"[{""event"":""blur"",""trial"":0,""time"":0},{""event"":""focus"",""trial"":1,""time"":2974},{""event"":""fullscreenenter"",""trial"":1,""time"":3074}]",NA,NA,NA,NA,NA,3,#1CD855,#FA92F8,0,10,1,38,1,623.1000000238419,37,1,615,0,1,experiment,NA,NA,1,0.7,0.3,2,3,13,1,NA
fcp-trial,47,325041,0.0-22.0-0.0,voc_e2,11885,"[{""event"":""blur"",""trial"":0,""time"":0},{""event"":""focus"",""trial"":1,""time"":2974},{""event"":""fullscreenenter"",""trial"":1,""time"":3074}]",NA,NA,NA,NA,NA,3,#741CD8,#D8271C,0,10,0,38,1,477.89999997615814,39,0,663.3999999761581,10,1,experiment,NA,NA,0,0.1,0.9,1,0,14,1,NA
fcp-trial,48,327537,0.0-23.0-0.0,voc_e2,11885,"[{""event"":""blur"",""trial"":0,""time"":0},{""event"":""focus"",""trial"":1,""time"":2974},{""event"":""fullscreenenter"",""trial"":1,""time"":3074}]",NA,NA,NA,NA,NA,5,#D89F1C,#3386FF,0,10,0,38,1,404.40000009536743,37,1,583,0,0,experiment,NA,NA,2,0.5,0.5,5,4,15,1,NA
fcp-trial,49,329881,0.0-24.0-0.0,voc_e2,11885,"[{""event"":""blur"",""trial"":0,""time"":0},{""event"":""focus"",""trial"":1,""time"":2974},{""event"":""fullscreenenter"",""trial"":1,""time"":3074}]",NA,NA,NA,NA,NA,4,#D8271C,#741CD8,10,0,1,38,1,270.39999997615814,37,1,566.8000000715256,10,1,experiment,NA,NA,0,0.9,0.1,0,1,16,1,NA
fcp-trial,50,332249,0.0-25.0-0.0,voc_e2,11885,"[{""event"":""blur"",""trial"":0,""time"":0},{""event"":""focus"",""trial"":1,""time"":2974},{""event"":""fullscreenenter"",""trial"":1,""time"":3074}]",NA,NA,NA,NA,NA,4,#1CD855,#FA92F8,10,0,1,38,1,350.5,39,0,510.5,0,0,experiment,NA,NA,1,0.7,0.3,2,3,17,1,NA
fcp-trial,51,334595,0.0-26.0-0.0,voc_e2,11885,"[{""event"":""blur"",""trial"":0,""time"":0},{""event"":""focus"",""trial"":1,""time"":2974},{""event"":""fullscreenenter"",""trial"":1,""time"":3074}]",NA,NA,NA,NA,NA,0,#741CD8,#D8271C,0,10,0,38,1,310.10000002384186,37,1,528.7000000476837,0,0,experiment,NA,NA,0,0.1,0.9,1,0,18,1,NA
fcp-trial,52,336929,0.0-27.0-0.0,voc_e2,11885,"[{""event"":""blur"",""trial"":0,""time"":0},{""event"":""focus"",""trial"":1,""time"":2974},{""event"":""fullscreenenter"",""trial"":1,""time"":3074}]",NA,NA,NA,NA,NA,2,#741CD8,#D8271C,0,10,0,38,1,244.5,37,1,582.8999999761581,0,0,experiment,NA,NA,0,0.1,0.9,1,0,19,1,NA
fcp-trial,53,339216,0.0-28.0-0.0,voc_e2,11885,"[{""event"":""blur"",""trial"":0,""time"":0},{""event"":""focus"",""trial"":1,""time"":2974},{""event"":""fullscreenenter"",""trial"":1,""time"":3074}]",NA,NA,NA,NA,NA,0,#3386FF,#D89F1C,10,10,1,38,1,230.5,37,1,551.2000000476837,10,1,experiment,NA,NA,2,0.5,0.5,4,5,20,1,NA
fcp-trial,54,341554,0.0-29.0-0.0,voc_e2,11885,"[{""event"":""blur"",""trial"":0,""time"":0},{""event"":""focus"",""trial"":1,""time"":2974},{""event"":""fullscreenenter"",""trial"":1,""time"":3074}]",NA,NA,NA,NA,NA,1,#3386FF,#D89F1C,10,10,1,38,1,270.7999999523163,37,1,559.4000000953674,10,1,experiment,NA,NA,2,0.5,0.5,4,5,21,1,NA
fcp-trial,55,343985,0.0-30.0-0.0,voc_e2,11885,"[{""event"":""blur"",""trial"":0,""time"":0},{""event"":""focus"",""trial"":1,""time"":2974},{""event"":""fullscreenenter"",""trial"":1,""time"":3074}]",NA,NA,NA,NA,NA,5,#FA92F8,#1CD855,0,0,0,38,1,309,37,1,615.6999999284744,0,0,experiment,NA,NA,1,0.3,0.7,3,2,22,1,NA
fcp-trial,56,346448,0.0-31.0-0.0,voc_e2,11885,"[{""event"":""blur"",""trial"":0,""time"":0},{""event"":""focus"",""trial"":1,""time"":2974},{""event"":""fullscreenenter"",""trial"":1,""time"":3074}]",NA,NA,NA,NA,NA,1,#741CD8,#D8271C,0,10,0,38,1,303.5,39,0,653.9000000953674,10,1,experiment,NA,NA,0,0.1,0.9,1,0,23,1,NA
fcp-trial,57,349368,0.0-32.0-0.0,voc_e2,11885,"[{""event"":""blur"",""trial"":0,""time"":0},{""event"":""focus"",""trial"":1,""time"":2974},{""event"":""fullscreenenter"",""trial"":1,""time"":3074}]",NA,NA,NA,NA,NA,1,#FA92F8,#1CD855,10,10,0,38,1,374.90000009536743,37,1,1038.899999976158,10,0,experiment,NA,NA,1,0.3,0.7,3,2,24,1,NA
fcp-trial,58,352081,0.0-33.0-0.0,voc_e2,11885,"[{""event"":""blur"",""trial"":0,""time"":0},{""event"":""focus"",""trial"":1,""time"":2974},{""event"":""fullscreenenter"",""trial"":1,""time"":3074}]",NA,NA,NA,NA,NA,4,#741CD8,#D8271C,0,10,0,38,1,414.89999997615814,39,0,790.9000000953674,10,1,experiment,NA,NA,0,0.1,0.9,1,0,25,1,NA
fcp-trial,59,354644,0.0-34.0-0.0,voc_e2,11885,"[{""event"":""blur"",""trial"":0,""time"":0},{""event"":""focus"",""trial"":1,""time"":2974},{""event"":""fullscreenenter"",""trial"":1,""time"":3074}]",NA,NA,NA,NA,NA,0,#741CD8,#D8271C,0,10,0,38,1,487.2999999523163,39,0,566.8999999761581,10,1,experiment,NA,NA,0,0.1,0.9,1,0,26,1,NA
fcp-trial,60,357170,0.0-35.0-0.0,voc_e2,11885,"[{""event"":""blur"",""trial"":0,""time"":0},{""event"":""focus"",""trial"":1,""time"":2974},{""event"":""fullscreenenter"",""trial"":1,""time"":3074}]",NA,NA,NA,NA,NA,0,#3386FF,#D89F1C,10,10,1,38,1,477.10000002384186,37,1,542.7999999523163,10,1,experiment,NA,NA,2,0.5,0.5,4,5,27,1,NA
fcp-trial,61,359642,0.0-36.0-0.0,voc_e2,11885,"[{""event"":""blur"",""trial"":0,""time"":0},{""event"":""focus"",""trial"":1,""time"":2974},{""event"":""fullscreenenter"",""trial"":1,""time"":3074}]",NA,NA,NA,NA,NA,2,#3386FF,#D89F1C,0,0,1,38,1,381.6999999284744,37,1,582.8999999761581,0,1,experiment,NA,NA,2,0.5,0.5,4,5,28,1,NA
fcp-trial,62,362242,0.0-37.0-0.0,voc_e2,11885,"[{""event"":""blur"",""trial"":0,""time"":0},{""event"":""focus"",""trial"":1,""time"":2974},{""event"":""fullscreenenter"",""trial"":1,""time"":3074}]",NA,NA,NA,NA,NA,3,#FA92F8,#1CD855,10,10,0,38,1,356.59999990463257,37,1,735.5,10,0,experiment,NA,NA,1,0.3,0.7,3,2,29,1,NA
fcp-trial,63,364611,0.0-38.0-0.0,voc_e2,11885,"[{""event"":""blur"",""trial"":0,""time"":0},{""event"":""focus"",""trial"":1,""time"":2974},{""event"":""fullscreenenter"",""trial"":1,""time"":3074}]",NA,NA,NA,NA,NA,6,#741CD8,#D8271C,0,10,0,38,1,316.5,39,0,543.7999999523163,10,1,experiment,NA,NA,0,0.1,0.9,1,0,30,1,NA
fcp-trial,64,367057,0.0-39.0-0.0,voc_e2,11885,"[{""event"":""blur"",""trial"":0,""time"":0},{""event"":""focus"",""trial"":1,""time"":2974},{""event"":""fullscreenenter"",""trial"":1,""time"":3074}]",NA,NA,NA,NA,NA,5,#3386FF,#D89F1C,10,10,1,38,1,373.3000000715256,37,1,566.5,10,1,experiment,NA,NA,2,0.5,0.5,4,5,31,1,NA
fcp-trial,65,369619,0.0-40.0-0.0,voc_e2,11885,"[{""event"":""blur"",""trial"":0,""time"":0},{""event"":""focus"",""trial"":1,""time"":2974},{""event"":""fullscreenenter"",""trial"":1,""time"":3074}]",NA,NA,NA,NA,NA,1,#3386FF,#D89F1C,0,0,1,38,1,452.6999999284744,37,1,599.3999999761581,0,1,experiment,NA,NA,2,0.5,0.5,4,5,32,1,NA
fcp-trial,66,372162,0.0-41.0-0.0,voc_e2,11885,"[{""event"":""blur"",""trial"":0,""time"":0},{""event"":""focus"",""trial"":1,""time"":2974},{""event"":""fullscreenenter"",""trial"":1,""time"":3074}]",NA,NA,NA,NA,NA,6,#D89F1C,#3386FF,0,0,0,38,1,421.7000000476837,39,0,615.2000000476837,0,1,experiment,NA,NA,2,0.5,0.5,5,4,33,1,NA
fcp-trial,67,374633,0.0-42.0-0.0,voc_e2,11885,"[{""event"":""blur"",""trial"":0,""time"":0},{""event"":""focus"",""trial"":1,""time"":2974},{""event"":""fullscreenenter"",""trial"":1,""time"":3074}]",NA,NA,NA,NA,NA,6,#FA92F8,#1CD855,0,10,0,38,1,398.1999999284744,37,1,565.1000000238419,0,0,experiment,NA,NA,1,0.3,0.7,3,2,34,1,NA
fcp-trial,68,376962,0.0-43.0-0.0,voc_e2,11885,"[{""event"":""blur"",""trial"":0,""time"":0},{""event"":""focus"",""trial"":1,""time"":2974},{""event"":""fullscreenenter"",""trial"":1,""time"":3074}]",NA,NA,NA,NA,NA,3,#741CD8,#D8271C,0,10,0,38,1,296.89999997615814,39,0,526.7999999523163,10,1,experiment,NA,NA,0,0.1,0.9,1,0,35,1,NA
fcp-trial,69,379420,0.0-44.0-0.0,voc_e2,11885,"[{""event"":""blur"",""trial"":0,""time"":0},{""event"":""focus"",""trial"":1,""time"":2974},{""event"":""fullscreenenter"",""trial"":1,""time"":3074}]",NA,NA,NA,NA,NA,5,#D8271C,#741CD8,10,0,1,38,1,350.5,37,1,598.6000000238419,10,1,experiment,NA,NA,0,0.9,0.1,0,1,36,1,NA
fcp-trial,70,382066,0.0-45.0-0.0,voc_e2,11885,"[{""event"":""blur"",""trial"":0,""time"":0},{""event"":""focus"",""trial"":1,""time"":2974},{""event"":""fullscreenenter"",""trial"":1,""time"":3074}]",NA,NA,NA,NA,NA,3,#3386FF,#D89F1C,0,10,1,38,1,460.60000002384186,37,1,678.7999999523163,0,1,experiment,NA,NA,2,0.5,0.5,4,5,37,1,NA
fcp-trial,71,384522,0.0-46.0-0.0,voc_e2,11885,"[{""event"":""blur"",""trial"":0,""time"":0},{""event"":""focus"",""trial"":1,""time"":2974},{""event"":""fullscreenenter"",""trial"":1,""time"":3074}]",NA,NA,NA,NA,NA,2,#FA92F8,#1CD855,0,10,0,38,1,350.7999999523163,37,1,599.1999999284744,0,0,experiment,NA,NA,1,0.3,0.7,3,2,38,1,NA
fcp-trial,72,387253,0.0-47.0-0.0,voc_e2,11885,"[{""event"":""blur"",""trial"":0,""time"":0},{""event"":""focus"",""trial"":1,""time"":2974},{""event"":""fullscreenenter"",""trial"":1,""time"":3074}]",NA,NA,NA,NA,NA,4,#D89F1C,#3386FF,10,0,0,38,1,678.3999999761581,39,0,542.8999999761581,0,1,experiment,NA,NA,2,0.5,0.5,5,4,39,1,NA
fcp-trial,73,389842,0.0-48.0-0.0,voc_e2,11885,"[{""event"":""blur"",""trial"":0,""time"":0},{""event"":""focus"",""trial"":1,""time"":2974},{""event"":""fullscreenenter"",""trial"":1,""time"":3074}]",NA,NA,NA,NA,NA,0,#1CD855,#FA92F8,10,0,1,38,1,419.7000000476837,37,1,663.3999999761581,10,1,experiment,NA,NA,1,0.7,0.3,2,3,40,1,NA
fcp-trial,74,392170,0.0-49.0-0.0,voc_e2,11885,"[{""event"":""blur"",""trial"":0,""time"":0},{""event"":""focus"",""trial"":1,""time"":2974},{""event"":""fullscreenenter"",""trial"":1,""time"":3074}]",NA,NA,NA,NA,NA,2,#D8271C,#741CD8,10,0,1,38,1,244.69999992847443,37,1,573.5,10,1,experiment,NA,NA,0,0.9,0.1,0,1,41,1,NA
fcp-trial,75,394602,0.0-50.0-0.0,voc_e2,11885,"[{""event"":""blur"",""trial"":0,""time"":0},{""event"":""focus"",""trial"":1,""time"":2974},{""event"":""fullscreenenter"",""trial"":1,""time"":3074}]",NA,NA,NA,NA,NA,4,#1CD855,#FA92F8,10,0,1,38,1,318.10000002384186,37,1,607.3999999761581,10,1,experiment,NA,NA,1,0.7,0.3,2,3,42,1,NA
fcp-trial,76,397827,0.0-51.0-0.0,voc_e2,11885,"[{""event"":""blur"",""trial"":0,""time"":0},{""event"":""focus"",""trial"":1,""time"":2974},{""event"":""fullscreenenter"",""trial"":1,""time"":3074}]",NA,NA,NA,NA,NA,4,#D89F1C,#3386FF,0,0,0,40,0,990.6000000238419,39,0,726.5,0,1,experiment,NA,NA,2,0.5,0.5,5,4,43,1,NA
fcp-trial,77,400586,0.0-52.0-0.0,voc_e2,11885,"[{""event"":""blur"",""trial"":0,""time"":0},{""event"":""focus"",""trial"":1,""time"":2974},{""event"":""fullscreenenter"",""trial"":1,""time"":3074}]",NA,NA,NA,NA,NA,4,#1CD855,#FA92F8,10,10,1,38,1,749.2000000476837,37,1,503.59999990463257,10,1,experiment,NA,NA,1,0.7,0.3,2,3,44,1,NA
fcp-trial,78,403122,0.0-53.0-0.0,voc_e2,11885,"[{""event"":""blur"",""trial"":0,""time"":0},{""event"":""focus"",""trial"":1,""time"":2974},{""event"":""fullscreenenter"",""trial"":1,""time"":3074}]",NA,NA,NA,NA,NA,6,#FA92F8,#1CD855,10,10,0,38,1,446.7000000476837,37,1,583.1999999284744,10,0,experiment,NA,NA,1,0.3,0.7,3,2,45,1,NA
fcp-trial,79,405514,0.0-54.0-0.0,voc_e2,11885,"[{""event"":""blur"",""trial"":0,""time"":0},{""event"":""focus"",""trial"":1,""time"":2974},{""event"":""fullscreenenter"",""trial"":1,""time"":3074}]",NA,NA,NA,NA,NA,1,#741CD8,#D8271C,0,10,0,38,1,342.10000002384186,39,0,542.3999999761581,10,1,experiment,NA,NA,0,0.1,0.9,1,0,46,2,NA
fcp-trial,80,407914,0.0-55.0-0.0,voc_e2,11885,"[{""event"":""blur"",""trial"":0,""time"":0},{""event"":""focus"",""trial"":1,""time"":2974},{""event"":""fullscreenenter"",""trial"":1,""time"":3074}]",NA,NA,NA,NA,NA,3,#D89F1C,#3386FF,10,10,0,38,1,342.5,39,0,550.3000000715256,10,1,experiment,NA,NA,2,0.5,0.5,5,4,47,2,NA
fcp-trial,81,410378,0.0-56.0-0.0,voc_e2,11885,"[{""event"":""blur"",""trial"":0,""time"":0},{""event"":""focus"",""trial"":1,""time"":2974},{""event"":""fullscreenenter"",""trial"":1,""time"":3074}]",NA,NA,NA,NA,NA,6,#D8271C,#741CD8,10,0,1,38,1,399.1999999284744,37,1,557.5,10,1,experiment,NA,NA,0,0.9,0.1,0,1,48,2,NA
fcp-trial,82,412833,0.0-57.0-0.0,voc_e2,11885,"[{""event"":""blur"",""trial"":0,""time"":0},{""event"":""focus"",""trial"":1,""time"":2974},{""event"":""fullscreenenter"",""trial"":1,""time"":3074}]",NA,NA,NA,NA,NA,2,#1CD855,#FA92F8,10,10,1,38,1,382.10000002384186,39,0,567.2000000476837,10,0,experiment,NA,NA,1,0.7,0.3,2,3,49,2,NA
fcp-trial,83,415185,0.0-58.0-0.0,voc_e2,11885,"[{""event"":""blur"",""trial"":0,""time"":0},{""event"":""focus"",""trial"":1,""time"":2974},{""event"":""fullscreenenter"",""trial"":1,""time"":3074}]",NA,NA,NA,NA,NA,0,#741CD8,#D8271C,0,10,0,38,1,310.10000002384186,39,0,535.2000000476837,10,1,experiment,NA,NA,0,0.1,0.9,1,0,50,2,NA
fcp-trial,84,417665,0.0-59.0-0.0,voc_e2,11885,"[{""event"":""blur"",""trial"":0,""time"":0},{""event"":""focus"",""trial"":1,""time"":2974},{""event"":""fullscreenenter"",""trial"":1,""time"":3074}]",NA,NA,NA,NA,NA,0,#3386FF,#D89F1C,10,0,1,38,1,398.10000002384186,37,1,575.2000000476837,10,1,experiment,NA,NA,2,0.5,0.5,4,5,51,2,NA
fcp-trial,85,420088,0.0-60.0-0.0,voc_e2,11885,"[{""event"":""blur"",""trial"":0,""time"":0},{""event"":""focus"",""trial"":1,""time"":2974},{""event"":""fullscreenenter"",""trial"":1,""time"":3074}]",NA,NA,NA,NA,NA,5,#D8271C,#741CD8,10,0,1,38,1,367.7999999523163,37,1,548.8999999761581,10,1,experiment,NA,NA,0,0.9,0.1,0,1,52,2,NA
fcp-trial,86,422498,0.0-61.0-0.0,voc_e2,11885,"[{""event"":""blur"",""trial"":0,""time"":0},{""event"":""focus"",""trial"":1,""time"":2974},{""event"":""fullscreenenter"",""trial"":1,""time"":3074}]",NA,NA,NA,NA,NA,3,#741CD8,#D8271C,0,0,0,38,1,375.2000000476837,39,0,527,0,1,experiment,NA,NA,0,0.1,0.9,1,0,53,2,NA
fcp-trial,87,424859,0.0-62.0-0.0,voc_e2,11885,"[{""event"":""blur"",""trial"":0,""time"":0},{""event"":""focus"",""trial"":1,""time"":2974},{""event"":""fullscreenenter"",""trial"":1,""time"":3074}]",NA,NA,NA,NA,NA,0,#1CD855,#FA92F8,10,10,1,38,1,294.3000000715256,39,0,559.5,10,0,experiment,NA,NA,1,0.7,0.3,2,3,54,2,NA
fcp-trial,88,427259,0.0-63.0-0.0,voc_e2,11885,"[{""event"":""blur"",""trial"":0,""time"":0},{""event"":""focus"",""trial"":1,""time"":2974},{""event"":""fullscreenenter"",""trial"":1,""time"":3074}]",NA,NA,NA,NA,NA,1,#3386FF,#D89F1C,10,0,1,38,1,318.60000002384186,37,1,575.1999999284744,10,1,experiment,NA,NA,2,0.5,0.5,4,5,55,2,NA
fcp-trial,89,429754,0.0-64.0-0.0,voc_e2,11885,"[{""event"":""blur"",""trial"":0,""time"":0},{""event"":""focus"",""trial"":1,""time"":2974},{""event"":""fullscreenenter"",""trial"":1,""time"":3074}]",NA,NA,NA,NA,NA,6,#3386FF,#D89F1C,10,10,1,38,1,404.5,37,1,582.3999999761581,10,1,experiment,NA,NA,2,0.5,0.5,4,5,56,2,NA
fcp-trial,90,432202,0.0-65.0-0.0,voc_e2,11885,"[{""event"":""blur"",""trial"":0,""time"":0},{""event"":""focus"",""trial"":1,""time"":2974},{""event"":""fullscreenenter"",""trial"":1,""time"":3074}]",NA,NA,NA,NA,NA,4,#741CD8,#D8271C,0,10,0,38,1,413.5,39,0,526.7000000476837,10,1,experiment,NA,NA,0,0.1,0.9,1,0,57,2,NA
fcp-trial,91,434545,0.0-66.0-0.0,voc_e2,11885,"[{""event"":""blur"",""trial"":0,""time"":0},{""event"":""focus"",""trial"":1,""time"":2974},{""event"":""fullscreenenter"",""trial"":1,""time"":3074}]",NA,NA,NA,NA,NA,1,#1CD855,#FA92F8,10,10,1,38,1,319.7999999523163,39,0,517.3999999761581,10,0,experiment,NA,NA,1,0.7,0.3,2,3,58,2,NA
fcp-trial,92,436921,0.0-67.0-0.0,voc_e2,11885,"[{""event"":""blur"",""trial"":0,""time"":0},{""event"":""focus"",""trial"":1,""time"":2974},{""event"":""fullscreenenter"",""trial"":1,""time"":3074}]",NA,NA,NA,NA,NA,3,#FA92F8,#1CD855,0,10,0,38,1,286.2999999523163,37,1,583.8999999761581,0,0,experiment,NA,NA,1,0.3,0.7,3,2,59,2,NA
fcp-trial,93,439298,0.0-68.0-0.0,voc_e2,11885,"[{""event"":""blur"",""trial"":0,""time"":0},{""event"":""focus"",""trial"":1,""time"":2974},{""event"":""fullscreenenter"",""trial"":1,""time"":3074}]",NA,NA,NA,NA,NA,2,#3386FF,#D89F1C,10,10,1,38,1,317.5,37,1,550.6999999284744,10,1,experiment,NA,NA,2,0.5,0.5,4,5,60,2,NA
fcp-trial,94,441785,0.0-69.0-0.0,voc_e2,11885,"[{""event"":""blur"",""trial"":0,""time"":0},{""event"":""focus"",""trial"":1,""time"":2974},{""event"":""fullscreenenter"",""trial"":1,""time"":3074}]",NA,NA,NA,NA,NA,2,#D8271C,#741CD8,10,0,1,38,1,391.59999990463257,37,1,589.8999999761581,10,1,experiment,NA,NA,0,0.9,0.1,0,1,61,2,NA
fcp-trial,95,444185,0.0-70.0-0.0,voc_e2,11885,"[{""event"":""blur"",""trial"":0,""time"":0},{""event"":""focus"",""trial"":1,""time"":2974},{""event"":""fullscreenenter"",""trial"":1,""time"":3074}]",NA,NA,NA,NA,NA,5,#FA92F8,#1CD855,0,10,0,38,1,278.7000000476837,37,1,614.5,0,0,experiment,NA,NA,1,0.3,0.7,3,2,62,2,NA
fcp-trial,96,446433,0.0-71.0-0.0,voc_e2,11885,"[{""event"":""blur"",""trial"":0,""time"":0},{""event"":""focus"",""trial"":1,""time"":2974},{""event"":""fullscreenenter"",""trial"":1,""time"":3074}]",NA,NA,NA,NA,NA,5,#D89F1C,#3386FF,0,0,0,38,1,254.5,39,0,486.89999997615814,0,1,experiment,NA,NA,2,0.5,0.5,5,4,63,2,NA
fcp-trial,97,448779,0.0-72.0-0.0,voc_e2,11885,"[{""event"":""blur"",""trial"":0,""time"":0},{""event"":""focus"",""trial"":1,""time"":2974},{""event"":""fullscreenenter"",""trial"":1,""time"":3074}]",NA,NA,NA,NA,NA,2,#3386FF,#D89F1C,0,0,1,38,1,286.5,37,1,551.1000000238419,0,1,experiment,NA,NA,2,0.5,0.5,4,5,64,2,NA
fcp-trial,98,451009,0.0-73.0-0.0,voc_e2,11885,"[{""event"":""blur"",""trial"":0,""time"":0},{""event"":""focus"",""trial"":1,""time"":2974},{""event"":""fullscreenenter"",""trial"":1,""time"":3074}]",NA,NA,NA,NA,NA,1,#741CD8,#D8271C,0,10,0,38,1,196.69999992847443,39,0,526.7999999523163,10,1,experiment,NA,NA,0,0.1,0.9,1,0,65,2,NA
fcp-trial,99,453393,0.0-74.0-0.0,voc_e2,11885,"[{""event"":""blur"",""trial"":0,""time"":0},{""event"":""focus"",""trial"":1,""time"":2974},{""event"":""fullscreenenter"",""trial"":1,""time"":3074}]",NA,NA,NA,NA,NA,0,#D8271C,#741CD8,10,0,1,38,1,308.6999999284744,37,1,568.1999999284744,10,1,experiment,NA,NA,0,0.9,0.1,0,1,66,2,NA
fcp-trial,100,455864,0.0-75.0-0.0,voc_e2,11885,"[{""event"":""blur"",""trial"":0,""time"":0},{""event"":""focus"",""trial"":1,""time"":2974},{""event"":""fullscreenenter"",""trial"":1,""time"":3074}]",NA,NA,NA,NA,NA,1,#1CD855,#FA92F8,0,0,1,38,1,383,39,0,581.1999999284744,0,0,experiment,NA,NA,1,0.7,0.3,2,3,67,2,NA
fcp-trial,101,458201,0.0-76.0-0.0,voc_e2,11885,"[{""event"":""blur"",""trial"":0,""time"":0},{""event"":""focus"",""trial"":1,""time"":2974},{""event"":""fullscreenenter"",""trial"":1,""time"":3074}]",NA,NA,NA,NA,NA,3,#D89F1C,#3386FF,10,0,0,38,1,311.5,39,0,518.9000000953674,0,1,experiment,NA,NA,2,0.5,0.5,5,4,68,2,NA
fcp-trial,102,460569,0.0-77.0-0.0,voc_e2,11885,"[{""event"":""blur"",""trial"":0,""time"":0},{""event"":""focus"",""trial"":1,""time"":2974},{""event"":""fullscreenenter"",""trial"":1,""time"":3074}]",NA,NA,NA,NA,NA,2,#1CD855,#FA92F8,10,0,1,38,1,304.09999990463257,39,0,557.7000000476837,0,0,experiment,NA,NA,1,0.7,0.3,2,3,69,2,NA
fcp-trial,103,462753,0.0-78.0-0.0,voc_e2,11885,"[{""event"":""blur"",""trial"":0,""time"":0},{""event"":""focus"",""trial"":1,""time"":2974},{""event"":""fullscreenenter"",""trial"":1,""time"":3074}]",NA,NA,NA,NA,NA,5,#1CD855,#FA92F8,0,0,1,38,1,94.30000007152557,37,1,582.5,0,1,experiment,NA,NA,1,0.7,0.3,2,3,70,2,NA
fcp-trial,104,465081,0.0-79.0-0.0,voc_e2,11885,"[{""event"":""blur"",""trial"":0,""time"":0},{""event"":""focus"",""trial"":1,""time"":2974},{""event"":""fullscreenenter"",""trial"":1,""time"":3074}]",NA,NA,NA,NA,NA,6,#D8271C,#741CD8,10,0,1,38,1,238.5,37,1,582.8999999761581,10,1,experiment,NA,NA,0,0.9,0.1,0,1,71,2,NA
fcp-trial,105,467641,0.0-80.0-0.0,voc_e2,11885,"[{""event"":""blur"",""trial"":0,""time"":0},{""event"":""focus"",""trial"":1,""time"":2974},{""event"":""fullscreenenter"",""trial"":1,""time"":3074}]",NA,NA,NA,NA,NA,6,#FA92F8,#1CD855,0,0,0,38,1,502,37,1,551.4000000953674,0,0,experiment,NA,NA,1,0.3,0.7,3,2,72,2,NA
fcp-trial,106,470034,0.0-81.0-0.0,voc_e2,11885,"[{""event"":""blur"",""trial"":0,""time"":0},{""event"":""focus"",""trial"":1,""time"":2974},{""event"":""fullscreenenter"",""trial"":1,""time"":3074}]",NA,NA,NA,NA,NA,4,#3386FF,#D89F1C,0,10,1,38,1,379.89999997615814,37,1,503.6999999284744,0,1,experiment,NA,NA,2,0.5,0.5,4,5,73,2,NA
fcp-trial,107,472546,0.0-82.0-0.0,voc_e2,11885,"[{""event"":""blur"",""trial"":0,""time"":0},{""event"":""focus"",""trial"":1,""time"":2974},{""event"":""fullscreenenter"",""trial"":1,""time"":3074}]",NA,NA,NA,NA,NA,6,#3386FF,#D89F1C,10,0,1,38,1,430.10000002384186,37,1,574.2000000476837,10,1,experiment,NA,NA,2,0.5,0.5,4,5,74,2,NA
fcp-trial,108,475049,0.0-83.0-0.0,voc_e2,11885,"[{""event"":""blur"",""trial"":0,""time"":0},{""event"":""focus"",""trial"":1,""time"":2974},{""event"":""fullscreenenter"",""trial"":1,""time"":3074}]",NA,NA,NA,NA,NA,3,#D8271C,#741CD8,10,0,1,38,1,454.90000009536743,37,1,542.2999999523163,10,1,experiment,NA,NA,0,0.9,0.1,0,1,75,2,NA
fcp-trial,109,477522,0.0-84.0-0.0,voc_e2,11885,"[{""event"":""blur"",""trial"":0,""time"":0},{""event"":""focus"",""trial"":1,""time"":2974},{""event"":""fullscreenenter"",""trial"":1,""time"":3074}]",NA,NA,NA,NA,NA,2,#741CD8,#D8271C,0,10,0,38,1,446.89999997615814,39,0,519.4000000953674,10,1,experiment,NA,NA,0,0.1,0.9,1,0,76,2,NA
fcp-trial,110,480396,0.0-85.0-0.0,voc_e2,11885,"[{""event"":""blur"",""trial"":0,""time"":0},{""event"":""focus"",""trial"":1,""time"":2974},{""event"":""fullscreenenter"",""trial"":1,""time"":3074}]",NA,NA,NA,NA,NA,0,#1CD855,#FA92F8,10,0,1,38,1,478.5,39,0,888,0,0,experiment,NA,NA,1,0.7,0.3,2,3,77,2,NA
fcp-trial,111,483419,0.0-86.0-0.0,voc_e2,11885,"[{""event"":""blur"",""trial"":0,""time"":0},{""event"":""focus"",""trial"":1,""time"":2974},{""event"":""fullscreenenter"",""trial"":1,""time"":3074}]",NA,NA,NA,NA,NA,1,#D89F1C,#3386FF,0,10,0,38,1,853.2000000476837,39,0,662.1000000238419,10,1,experiment,NA,NA,2,0.5,0.5,5,4,78,2,NA
fcp-trial,112,486073,0.0-87.0-0.0,voc_e2,11885,"[{""event"":""blur"",""trial"":0,""time"":0},{""event"":""focus"",""trial"":1,""time"":2974},{""event"":""fullscreenenter"",""trial"":1,""time"":3074}]",NA,NA,NA,NA,NA,5,#D8271C,#741CD8,0,0,1,38,1,573.3000000715256,37,1,575.3999999761581,0,1,experiment,NA,NA,0,0.9,0.1,0,1,79,2,NA
fcp-trial,113,489218,0.0-88.0-0.0,voc_e2,11885,"[{""event"":""blur"",""trial"":0,""time"":0},{""event"":""focus"",""trial"":1,""time"":2974},{""event"":""fullscreenenter"",""trial"":1,""time"":3074}]",NA,NA,NA,NA,NA,4,#1CD855,#FA92F8,10,0,1,40,0,1076.1000000238419,39,0,559.6000000238419,0,0,experiment,NA,NA,1,0.7,0.3,2,3,80,2,NA
fcp-trial,114,491834,0.0-89.0-0.0,voc_e2,11885,"[{""event"":""blur"",""trial"":0,""time"":0},{""event"":""focus"",""trial"":1,""time"":2974},{""event"":""fullscreenenter"",""trial"":1,""time"":3074}]",NA,NA,NA,NA,NA,4,#D8271C,#741CD8,10,0,1,38,1,566.7000000476837,37,1,543.7000000476837,10,1,experiment,NA,NA,0,0.9,0.1,0,1,81,2,NA
fcp-trial,115,494434,0.0-90.0-0.0,voc_e2,11885,"[{""event"":""blur"",""trial"":0,""time"":0},{""event"":""focus"",""trial"":1,""time"":2974},{""event"":""fullscreenenter"",""trial"":1,""time"":3074}]",NA,NA,NA,NA,NA,5,#3386FF,#D89F1C,10,10,1,38,1,550.2000000476837,37,1,542.8999999761581,10,1,experiment,NA,NA,2,0.5,0.5,4,5,82,2,NA
fcp-trial,116,497522,0.0-91.0-0.0,voc_e2,11885,"[{""event"":""blur"",""trial"":0,""time"":0},{""event"":""focus"",""trial"":1,""time"":2974},{""event"":""fullscreenenter"",""trial"":1,""time"":3074}]",NA,NA,NA,NA,NA,3,#FA92F8,#1CD855,0,10,0,40,0,934.1000000238419,39,0,646.6000000238419,10,1,experiment,NA,NA,1,0.3,0.7,3,2,83,2,NA
fcp-trial,117,500921,0.0-92.0-0.0,voc_e2,11885,"[{""event"":""blur"",""trial"":0,""time"":0},{""event"":""focus"",""trial"":1,""time"":2974},{""event"":""fullscreenenter"",""trial"":1,""time"":3074}]",NA,NA,NA,NA,NA,0,#D89F1C,#3386FF,10,10,0,38,1,1431.5,39,0,463.39999997615814,10,1,experiment,NA,NA,2,0.5,0.5,5,4,84,2,NA
fcp-trial,118,503977,0.0-93.0-0.0,voc_e2,11885,"[{""event"":""blur"",""trial"":0,""time"":0},{""event"":""focus"",""trial"":1,""time"":2974},{""event"":""fullscreenenter"",""trial"":1,""time"":3074}]",NA,NA,NA,NA,NA,6,#1CD855,#FA92F8,0,10,1,40,0,1032.5,39,0,518.9000000953674,10,0,experiment,NA,NA,1,0.7,0.3,2,3,85,2,NA
fcp-trial,119,506818,0.0-94.0-0.0,voc_e2,11885,"[{""event"":""blur"",""trial"":0,""time"":0},{""event"":""focus"",""trial"":1,""time"":2974},{""event"":""fullscreenenter"",""trial"":1,""time"":3074}]",NA,NA,NA,NA,NA,3,#D8271C,#741CD8,10,0,1,38,1,798.8999999761581,37,1,535.1000000238419,10,1,experiment,NA,NA,0,0.9,0.1,0,1,86,2,NA
fcp-trial,120,509466,0.0-95.0-0.0,voc_e2,11885,"[{""event"":""blur"",""trial"":0,""time"":0},{""event"":""focus"",""trial"":1,""time"":2974},{""event"":""fullscreenenter"",""trial"":1,""time"":3074}]",NA,NA,NA,NA,NA,0,#FA92F8,#1CD855,10,0,0,38,1,446.1999999284744,37,1,695.6000000238419,10,0,experiment,NA,NA,1,0.3,0.7,3,2,87,2,NA
fcp-trial,121,512113,0.0-96.0-0.0,voc_e2,11885,"[{""event"":""blur"",""trial"":0,""time"":0},{""event"":""focus"",""trial"":1,""time"":2974},{""event"":""fullscreenenter"",""trial"":1,""time"":3074}]",NA,NA,NA,NA,NA,4,#D8271C,#741CD8,10,0,1,38,1,550.3999999761581,37,1,590.4000000953674,10,1,experiment,NA,NA,0,0.9,0.1,0,1,88,2,NA
fcp-trial,122,514729,0.0-97.0-0.0,voc_e2,11885,"[{""event"":""blur"",""trial"":0,""time"":0},{""event"":""focus"",""trial"":1,""time"":2974},{""event"":""fullscreenenter"",""trial"":1,""time"":3074}]",NA,NA,NA,NA,NA,4,#3386FF,#D89F1C,10,0,1,38,1,487.90000009536743,37,1,622,10,1,experiment,NA,NA,2,0.5,0.5,4,5,89,2,NA
fcp-trial,123,517226,0.0-98.0-0.0,voc_e2,11885,"[{""event"":""blur"",""trial"":0,""time"":0},{""event"":""focus"",""trial"":1,""time"":2974},{""event"":""fullscreenenter"",""trial"":1,""time"":3074}]",NA,NA,NA,NA,NA,1,#1CD855,#FA92F8,0,0,1,38,1,447.1999999284744,39,0,543,0,0,experiment,NA,NA,1,0.7,0.3,2,3,90,2,NA
fcp-trial,124,519698,0.0-99.0-0.0,voc_e2,11885,"[{""event"":""blur"",""trial"":0,""time"":0},{""event"":""focus"",""trial"":1,""time"":2974},{""event"":""fullscreenenter"",""trial"":1,""time"":3074}]",NA,NA,NA,NA,NA,3,#D89F1C,#3386FF,0,0,0,38,1,407,39,0,558.6999999284744,0,1,experiment,NA,NA,2,0.5,0.5,5,4,91,3,NA
fcp-trial,125,522321,0.0-100.0-0.0,voc_e2,11885,"[{""event"":""blur"",""trial"":0,""time"":0},{""event"":""focus"",""trial"":1,""time"":2974},{""event"":""fullscreenenter"",""trial"":1,""time"":3074}]",NA,NA,NA,NA,NA,5,#1CD855,#FA92F8,0,0,1,38,1,286.39999997615814,39,0,830.7000000476837,0,0,experiment,NA,NA,1,0.7,0.3,2,3,92,3,NA
fcp-trial,126,524970,0.0-101.0-0.0,voc_e2,11885,"[{""event"":""blur"",""trial"":0,""time"":0},{""event"":""focus"",""trial"":1,""time"":2974},{""event"":""fullscreenenter"",""trial"":1,""time"":3074}]",NA,NA,NA,NA,NA,6,#741CD8,#D8271C,0,10,0,38,1,567.3999999761581,39,0,574.7000000476837,10,1,experiment,NA,NA,0,0.1,0.9,1,0,93,3,NA
fcp-trial,127,528012,0.0-102.0-0.0,voc_e2,11885,"[{""event"":""blur"",""trial"":0,""time"":0},{""event"":""focus"",""trial"":1,""time"":2974},{""event"":""fullscreenenter"",""trial"":1,""time"":3074}]",NA,NA,NA,NA,NA,2,#FA92F8,#1CD855,0,10,0,40,0,869.5,39,0,663,10,1,experiment,NA,NA,1,0.3,0.7,3,2,94,3,NA
fcp-trial,128,531067,0.0-103.0-0.0,voc_e2,11885,"[{""event"":""blur"",""trial"":0,""time"":0},{""event"":""focus"",""trial"":1,""time"":2974},{""event"":""fullscreenenter"",""trial"":1,""time"":3074}]",NA,NA,NA,NA,NA,0,#3386FF,#D89F1C,10,10,1,38,1,988.5,37,1,558.2999999523163,10,1,experiment,NA,NA,2,0.5,0.5,4,5,95,3,NA
fcp-trial,129,534257,0.0-104.0-0.0,voc_e2,11885,"[{""event"":""blur"",""trial"":0,""time"":0},{""event"":""focus"",""trial"":1,""time"":2974},{""event"":""fullscreenenter"",""trial"":1,""time"":3074}]",NA,NA,NA,NA,NA,2,#D8271C,#741CD8,10,0,1,38,1,1157.1000000238419,37,1,527,10,1,experiment,NA,NA,0,0.9,0.1,0,1,96,3,NA
fcp-trial,130,537290,0.0-105.0-0.0,voc_e2,11885,"[{""event"":""blur"",""trial"":0,""time"":0},{""event"":""focus"",""trial"":1,""time"":2974},{""event"":""fullscreenenter"",""trial"":1,""time"":3074}]",NA,NA,NA,NA,NA,1,#D89F1C,#3386FF,0,0,0,38,1,1006.3999999761581,39,0,518,0,1,experiment,NA,NA,2,0.5,0.5,5,4,97,3,NA
fcp-trial,131,540225,0.0-106.0-0.0,voc_e2,11885,"[{""event"":""blur"",""trial"":0,""time"":0},{""event"":""focus"",""trial"":1,""time"":2974},{""event"":""fullscreenenter"",""trial"":1,""time"":3074}]",NA,NA,NA,NA,NA,4,#FA92F8,#1CD855,0,10,0,40,0,870.3999999761581,37,1,557.2999999523163,0,0,experiment,NA,NA,1,0.3,0.7,3,2,98,3,NA
fcp-trial,132,544498,0.0-107.0-0.0,voc_e2,11885,"[{""event"":""blur"",""trial"":0,""time"":0},{""event"":""focus"",""trial"":1,""time"":2974},{""event"":""fullscreenenter"",""trial"":1,""time"":3074}]",NA,NA,NA,NA,NA,0,#D8271C,#741CD8,10,0,1,38,1,1901.2999999523163,37,1,854.9000000953674,10,1,experiment,NA,NA,0,0.9,0.1,0,1,99,3,NA
fcp-trial,133,547307,0.0-108.0-0.0,voc_e2,11885,"[{""event"":""blur"",""trial"":0,""time"":0},{""event"":""focus"",""trial"":1,""time"":2974},{""event"":""fullscreenenter"",""trial"":1,""time"":3074}]",NA,NA,NA,NA,NA,2,#3386FF,#D89F1C,0,0,1,38,1,709.7999999523163,37,1,592.6000000238419,0,1,experiment,NA,NA,2,0.5,0.5,4,5,100,3,NA
fcp-trial,134,550074,0.0-109.0-0.0,voc_e2,11885,"[{""event"":""blur"",""trial"":0,""time"":0},{""event"":""focus"",""trial"":1,""time"":2974},{""event"":""fullscreenenter"",""trial"":1,""time"":3074}]",NA,NA,NA,NA,NA,1,#D8271C,#741CD8,10,0,1,38,1,621.8000000715256,37,1,639.1000000238419,10,1,experiment,NA,NA,0,0.9,0.1,0,1,101,3,NA
fcp-trial,135,554329,0.0-110.0-0.0,voc_e2,11885,"[{""event"":""blur"",""trial"":0,""time"":0},{""event"":""focus"",""trial"":1,""time"":2974},{""event"":""fullscreenenter"",""trial"":1,""time"":3074}]",NA,NA,NA,NA,NA,6,#3386FF,#D89F1C,10,0,1,38,1,516,37,1,2230.600000023842,10,1,experiment,NA,NA,2,0.5,0.5,4,5,102,3,NA
fcp-trial,136,556978,0.0-111.0-0.0,voc_e2,11885,"[{""event"":""blur"",""trial"":0,""time"":0},{""event"":""focus"",""trial"":1,""time"":2974},{""event"":""fullscreenenter"",""trial"":1,""time"":3074}]",NA,NA,NA,NA,NA,3,#FA92F8,#1CD855,0,10,0,38,1,593,37,1,549.5999999046326,0,0,experiment,NA,NA,1,0.3,0.7,3,2,103,3,NA
fcp-trial,137,563873,0.0-112.0-0.0,voc_e2,11885,"[{""event"":""blur"",""trial"":0,""time"":0},{""event"":""focus"",""trial"":1,""time"":2974},{""event"":""fullscreenenter"",""trial"":1,""time"":3074}]",NA,NA,NA,NA,NA,5,#D89F1C,#3386FF,10,0,0,38,1,2830.399999976158,39,0,2557.8000000715256,0,1,experiment,NA,NA,2,0.5,0.5,5,4,104,3,NA
fcp-trial,138,567986,0.0-113.0-0.0,voc_e2,11885,"[{""event"":""blur"",""trial"":0,""time"":0},{""event"":""focus"",""trial"":1,""time"":2974},{""event"":""fullscreenenter"",""trial"":1,""time"":3074}]",NA,NA,NA,NA,NA,5,#741CD8,#D8271C,0,10,0,38,1,2062.899999976158,39,0,543.7999999523163,10,1,experiment,NA,NA,0,0.1,0.9,1,0,105,3,NA
audio-instructions,139,584075,0.0-114.0,voc_e2,11885,"[{""event"":""blur"",""trial"":0,""time"":0},{""event"":""focus"",""trial"":1,""time"":2974},{""event"":""fullscreenenter"",""trial"":1,""time"":3074}]",NA,10905.600000023842,static/audio/pause.wav,NA,0,NA,NA,NA,NA,NA,NA,NA,NA,NA,NA,NA,NA,NA,NA,NA,NA,NA,NA,NA,NA,NA,NA,NA,NA,NA
fcp-trial,140,590192,0.0-115.0-0.0,voc_e2,11885,"[{""event"":""blur"",""trial"":0,""time"":0},{""event"":""focus"",""trial"":1,""time"":2974},{""event"":""fullscreenenter"",""trial"":1,""time"":3074}]",NA,NA,NA,NA,NA,0,#1CD855,#FA92F8,10,0,1,38,1,4083.2999999523163,39,0,518.6000000238419,0,0,experiment,NA,NA,1,0.7,0.3,2,3,106,3,NA
fcp-trial,141,593293,0.0-116.0-0.0,voc_e2,11885,"[{""event"":""blur"",""trial"":0,""time"":0},{""event"":""focus"",""trial"":1,""time"":2974},{""event"":""fullscreenenter"",""trial"":1,""time"":3074}]",NA,NA,NA,NA,NA,3,#FA92F8,#1CD855,0,10,0,40,0,1127.2000000476837,39,0,462.10000002384186,10,1,experiment,NA,NA,1,0.3,0.7,3,2,107,3,NA
fcp-trial,142,596325,0.0-117.0-0.0,voc_e2,11885,"[{""event"":""blur"",""trial"":0,""time"":0},{""event"":""focus"",""trial"":1,""time"":2974},{""event"":""fullscreenenter"",""trial"":1,""time"":3074}]",NA,NA,NA,NA,NA,0,#741CD8,#D8271C,10,10,0,38,1,1059.1000000238419,39,0,462.10000002384186,10,1,experiment,NA,NA,0,0.1,0.9,1,0,108,3,NA
fcp-trial,143,599109,0.0-118.0-0.0,voc_e2,11885,"[{""event"":""blur"",""trial"":0,""time"":0},{""event"":""focus"",""trial"":1,""time"":2974},{""event"":""fullscreenenter"",""trial"":1,""time"":3074}]",NA,NA,NA,NA,NA,3,#D89F1C,#3386FF,0,10,0,38,1,825.7000000476837,39,0,446.10000002384186,10,1,experiment,NA,NA,2,0.5,0.5,5,4,109,3,NA
fcp-trial,144,601741,0.0-119.0-0.0,voc_e2,11885,"[{""event"":""blur"",""trial"":0,""time"":0},{""event"":""focus"",""trial"":1,""time"":2974},{""event"":""fullscreenenter"",""trial"":1,""time"":3074}]",NA,NA,NA,NA,NA,6,#D8271C,#741CD8,10,0,1,38,1,627.3999999761581,37,1,483.89999997615814,10,1,experiment,NA,NA,0,0.9,0.1,0,1,110,3,NA
fcp-trial,145,604281,0.0-120.0-0.0,voc_e2,11885,"[{""event"":""blur"",""trial"":0,""time"":0},{""event"":""focus"",""trial"":1,""time"":2974},{""event"":""fullscreenenter"",""trial"":1,""time"":3074}]",NA,NA,NA,NA,NA,2,#741CD8,#D8271C,0,10,0,38,1,537.8999999761581,39,0,494.2999999523163,10,1,experiment,NA,NA,0,0.1,0.9,1,0,111,3,NA
fcp-trial,146,607465,0.0-121.0-0.0,voc_e2,11885,"[{""event"":""blur"",""trial"":0,""time"":0},{""event"":""focus"",""trial"":1,""time"":2974},{""event"":""fullscreenenter"",""trial"":1,""time"":3074}]",NA,NA,NA,NA,NA,1,#1CD855,#FA92F8,10,0,1,40,0,1255.6000000238419,39,0,422.8000000715256,0,0,experiment,NA,NA,1,0.7,0.3,2,3,112,3,NA
fcp-trial,147,610129,0.0-122.0-0.0,voc_e2,11885,"[{""event"":""blur"",""trial"":0,""time"":0},{""event"":""focus"",""trial"":1,""time"":2974},{""event"":""fullscreenenter"",""trial"":1,""time"":3074}]",NA,NA,NA,NA,NA,1,#D89F1C,#3386FF,10,0,0,38,1,742.7000000476837,39,0,413.7000000476837,0,1,experiment,NA,NA,2,0.5,0.5,5,4,113,3,NA
fcp-trial,148,613801,0.0-123.0-0.0,voc_e2,11885,"[{""event"":""blur"",""trial"":0,""time"":0},{""event"":""focus"",""trial"":1,""time"":2974},{""event"":""fullscreenenter"",""trial"":1,""time"":3074}]",NA,NA,NA,NA,NA,2,#FA92F8,#1CD855,0,10,0,40,0,1622.7999999523163,39,0,543.1000000238419,10,1,experiment,NA,NA,1,0.3,0.7,3,2,114,3,NA
fcp-trial,149,617257,0.0-124.0-0.0,voc_e2,11885,"[{""event"":""blur"",""trial"":0,""time"":0},{""event"":""focus"",""trial"":1,""time"":2974},{""event"":""fullscreenenter"",""trial"":1,""time"":3074}]",NA,NA,NA,NA,NA,0,#3386FF,#D89F1C,10,0,1,38,1,1510.7999999523163,37,1,438.2999999523163,10,1,experiment,NA,NA,2,0.5,0.5,4,5,115,3,NA
fcp-trial,150,620057,0.0-125.0-0.0,voc_e2,11885,"[{""event"":""blur"",""trial"":0,""time"":0},{""event"":""focus"",""trial"":1,""time"":2974},{""event"":""fullscreenenter"",""trial"":1,""time"":3074}]",NA,NA,NA,NA,NA,5,#D8271C,#741CD8,10,0,1,38,1,861.2000000476837,37,1,430.5,10,1,experiment,NA,NA,0,0.9,0.1,0,1,116,3,NA
fcp-trial,151,623866,0.0-126.0-0.0,voc_e2,11885,"[{""event"":""blur"",""trial"":0,""time"":0},{""event"":""focus"",""trial"":1,""time"":2974},{""event"":""fullscreenenter"",""trial"":1,""time"":3074}]",NA,NA,NA,NA,NA,6,#1CD855,#FA92F8,10,10,1,40,0,1756.4000000953674,37,1,542.5999999046326,10,1,experiment,NA,NA,1,0.7,0.3,2,3,117,3,NA
fcp-trial,152,627065,0.0-127.0-0.0,voc_e2,11885,"[{""event"":""blur"",""trial"":0,""time"":0},{""event"":""focus"",""trial"":1,""time"":2974},{""event"":""fullscreenenter"",""trial"":1,""time"":3074}]",NA,NA,NA,NA,NA,5,#D89F1C,#3386FF,10,10,0,38,1,1295.5,39,0,398.39999997615814,10,1,experiment,NA,NA,2,0.5,0.5,5,4,118,3,NA
fcp-trial,153,629857,0.0-128.0-0.0,voc_e2,11885,"[{""event"":""blur"",""trial"":0,""time"":0},{""event"":""focus"",""trial"":1,""time"":2974},{""event"":""fullscreenenter"",""trial"":1,""time"":3074}]",NA,NA,NA,NA,NA,3,#741CD8,#D8271C,0,10,0,38,1,824.1000000238419,39,0,462.10000002384186,10,1,experiment,NA,NA,0,0.1,0.9,1,0,119,3,NA
fcp-trial,154,632912,0.0-129.0-0.0,voc_e2,11885,"[{""event"":""blur"",""trial"":0,""time"":0},{""event"":""focus"",""trial"":1,""time"":2974},{""event"":""fullscreenenter"",""trial"":1,""time"":3074}]",NA,NA,NA,NA,NA,2,#3386FF,#D89F1C,10,0,1,38,1,1086.6000000238419,37,1,462.6999999284744,10,1,experiment,NA,NA,2,0.5,0.5,4,5,120,3,NA
fcp-trial,155,635538,0.0-130.0-0.0,voc_e2,11885,"[{""event"":""blur"",""trial"":0,""time"":0},{""event"":""focus"",""trial"":1,""time"":2974},{""event"":""fullscreenenter"",""trial"":1,""time"":3074}]",NA,NA,NA,NA,NA,6,#3386FF,#D89F1C,0,10,1,38,1,631,37,1,487,0,1,experiment,NA,NA,2,0.5,0.5,4,5,121,3,NA
fcp-trial,156,638481,0.0-131.0-0.0,voc_e2,11885,"[{""event"":""blur"",""trial"":0,""time"":0},{""event"":""focus"",""trial"":1,""time"":2974},{""event"":""fullscreenenter"",""trial"":1,""time"":3074}]",NA,NA,NA,NA,NA,4,#FA92F8,#1CD855,0,10,0,40,0,968.2000000476837,39,0,470,10,1,experiment,NA,NA,1,0.3,0.7,3,2,122,3,NA
fcp-trial,157,641337,0.0-132.0-0.0,voc_e2,11885,"[{""event"":""blur"",""trial"":0,""time"":0},{""event"":""focus"",""trial"":1,""time"":2974},{""event"":""fullscreenenter"",""trial"":1,""time"":3074}]",NA,NA,NA,NA,NA,5,#FA92F8,#1CD855,0,10,0,40,0,864.2999999523163,37,1,486.2000000476837,0,0,experiment,NA,NA,1,0.3,0.7,3,2,123,3,NA
fcp-trial,158,644081,0.0-133.0-0.0,voc_e2,11885,"[{""event"":""blur"",""trial"":0,""time"":0},{""event"":""focus"",""trial"":1,""time"":2974},{""event"":""fullscreenenter"",""trial"":1,""time"":3074}]",NA,NA,NA,NA,NA,4,#D8271C,#741CD8,10,0,1,38,1,806.3999999761581,37,1,430.39999997615814,10,1,experiment,NA,NA,0,0.9,0.1,0,1,124,3,NA
fcp-trial,159,646753,0.0-134.0-0.0,voc_e2,11885,"[{""event"":""blur"",""trial"":0,""time"":0},{""event"":""focus"",""trial"":1,""time"":2974},{""event"":""fullscreenenter"",""trial"":1,""time"":3074}]",NA,NA,NA,NA,NA,1,#D8271C,#741CD8,10,10,1,38,1,735.1000000238419,37,1,431.7000000476837,10,1,experiment,NA,NA,0,0.9,0.1,0,1,125,3,NA
fcp-trial,160,649344,0.0-135.0-0.0,voc_e2,11885,"[{""event"":""blur"",""trial"":0,""time"":0},{""event"":""focus"",""trial"":1,""time"":2974},{""event"":""fullscreenenter"",""trial"":1,""time"":3074}]",NA,NA,NA,NA,NA,4,#3386FF,#D89F1C,10,10,1,38,1,623.6000000238419,37,1,462.60000002384186,10,1,experiment,NA,NA,2,0.5,0.5,4,5,126,3,NA
fcp-trial,161,651888,0.0-136.0-0.0,voc_e2,11885,"[{""event"":""blur"",""trial"":0,""time"":0},{""event"":""focus"",""trial"":1,""time"":2974},{""event"":""fullscreenenter"",""trial"":1,""time"":3074}]",NA,NA,NA,NA,NA,2,#3386FF,#D89F1C,0,0,1,38,1,503.7000000476837,37,1,534.8000000715256,0,1,experiment,NA,NA,2,0.5,0.5,4,5,127,3,NA
fcp-trial,162,655274,0.0-137.0-0.0,voc_e2,11885,"[{""event"":""blur"",""trial"":0,""time"":0},{""event"":""focus"",""trial"":1,""time"":2974},{""event"":""fullscreenenter"",""trial"":1,""time"":3074}]",NA,NA,NA,NA,NA,2,#FA92F8,#1CD855,0,0,0,38,1,1495.2000000476837,39,0,382.7999999523163,0,1,experiment,NA,NA,1,0.3,0.7,3,2,128,3,NA
fcp-trial,163,657762,0.0-138.0-0.0,voc_e2,11885,"[{""event"":""blur"",""trial"":0,""time"":0},{""event"":""focus"",""trial"":1,""time"":2974},{""event"":""fullscreenenter"",""trial"":1,""time"":3074}]",NA,NA,NA,NA,NA,1,#D89F1C,#3386FF,0,10,0,38,1,525,39,0,454.10000002384186,10,1,experiment,NA,NA,2,0.5,0.5,5,4,129,3,NA
fcp-trial,164,660362,0.0-139.0-0.0,voc_e2,11885,"[{""event"":""blur"",""trial"":0,""time"":0},{""event"":""focus"",""trial"":1,""time"":2974},{""event"":""fullscreenenter"",""trial"":1,""time"":3074}]",NA,NA,NA,NA,NA,4,#741CD8,#D8271C,0,10,0,38,1,712.6000000238419,39,0,383,10,1,experiment,NA,NA,0,0.1,0.9,1,0,130,3,NA
fcp-trial,165,663442,0.0-140.0-0.0,voc_e2,11885,"[{""event"":""blur"",""trial"":0,""time"":0},{""event"":""focus"",""trial"":1,""time"":2974},{""event"":""fullscreenenter"",""trial"":1,""time"":3074}]",NA,NA,NA,NA,NA,0,#FA92F8,#1CD855,10,10,0,38,1,1191.6000000238419,37,1,383,10,0,experiment,NA,NA,1,0.3,0.7,3,2,131,3,NA
fcp-trial,166,666618,0.0-141.0-0.0,voc_e2,11885,"[{""event"":""blur"",""trial"":0,""time"":0},{""event"":""focus"",""trial"":1,""time"":2974},{""event"":""fullscreenenter"",""trial"":1,""time"":3074}]",NA,NA,NA,NA,NA,6,#FA92F8,#1CD855,10,10,0,40,0,1245.6000000238419,37,1,422.2999999523163,10,0,experiment,NA,NA,1,0.3,0.7,3,2,132,3,NA
fcp-trial,167,669129,0.0-142.0-0.0,voc_e2,11885,"[{""event"":""blur"",""trial"":0,""time"":0},{""event"":""focus"",""trial"":1,""time"":2974},{""event"":""fullscreenenter"",""trial"":1,""time"":3074}]",NA,NA,NA,NA,NA,4,#3386FF,#D89F1C,0,10,1,38,1,552,37,1,453.8000000715256,0,1,experiment,NA,NA,2,0.5,0.5,4,5,133,3,NA
fcp-trial,168,671738,0.0-143.0-0.0,voc_e2,11885,"[{""event"":""blur"",""trial"":0,""time"":0},{""event"":""focus"",""trial"":1,""time"":2974},{""event"":""fullscreenenter"",""trial"":1,""time"":3074}]",NA,NA,NA,NA,NA,3,#741CD8,#D8271C,0,10,0,38,1,735.1999999284744,39,0,367.10000002384186,10,1,experiment,NA,NA,0,0.1,0.9,1,0,134,3,NA
fcp-trial,169,674954,0.0-144.0-0.0,voc_e2,11885,"[{""event"":""blur"",""trial"":0,""time"":0},{""event"":""focus"",""trial"":1,""time"":2974},{""event"":""fullscreenenter"",""trial"":1,""time"":3074}]",NA,NA,NA,NA,NA,5,#1CD855,#FA92F8,0,0,1,40,0,1286.5,37,1,423,0,1,experiment,NA,NA,1,0.7,0.3,2,3,135,3,NA
fcp-trial,170,677570,0.0-145.0-0.0,voc_e2,11885,"[{""event"":""blur"",""trial"":0,""time"":0},{""event"":""focus"",""trial"":1,""time"":2974},{""event"":""fullscreenenter"",""trial"":1,""time"":3074}]",NA,NA,NA,NA,NA,6,#3386FF,#D89F1C,10,10,1,38,1,630,37,1,479.39999997615814,10,1,experiment,NA,NA,2,0.5,0.5,4,5,136,4,NA
fcp-trial,171,680410,0.0-146.0-0.0,voc_e2,11885,"[{""event"":""blur"",""trial"":0,""time"":0},{""event"":""focus"",""trial"":1,""time"":2974},{""event"":""fullscreenenter"",""trial"":1,""time"":3074}]",NA,NA,NA,NA,NA,5,#D8271C,#741CD8,10,0,1,38,1,752.7000000476837,37,1,581.8999999761581,10,1,experiment,NA,NA,0,0.9,0.1,0,1,137,4,NA
fcp-trial,172,683497,0.0-147.0-0.0,voc_e2,11885,"[{""event"":""blur"",""trial"":0,""time"":0},{""event"":""focus"",""trial"":1,""time"":2974},{""event"":""fullscreenenter"",""trial"":1,""time"":3074}]",NA,NA,NA,NA,NA,3,#1CD855,#FA92F8,0,0,1,40,0,1198.0999999046326,39,0,383,0,0,experiment,NA,NA,1,0.7,0.3,2,3,138,4,NA
fcp-trial,173,686202,0.0-148.0-0.0,voc_e2,11885,"[{""event"":""blur"",""trial"":0,""time"":0},{""event"":""focus"",""trial"":1,""time"":2974},{""event"":""fullscreenenter"",""trial"":1,""time"":3074}]",NA,NA,NA,NA,NA,6,#741CD8,#D8271C,0,10,0,38,1,816.7999999523163,39,0,381.60000002384186,10,1,experiment,NA,NA,0,0.1,0.9,1,0,139,4,NA
fcp-trial,174,689138,0.0-149.0-0.0,voc_e2,11885,"[{""event"":""blur"",""trial"":0,""time"":0},{""event"":""focus"",""trial"":1,""time"":2974},{""event"":""fullscreenenter"",""trial"":1,""time"":3074}]",NA,NA,NA,NA,NA,3,#D89F1C,#3386FF,0,10,0,38,1,935,39,0,495.2000000476837,10,1,experiment,NA,NA,2,0.5,0.5,5,4,140,4,NA
fcp-trial,175,691658,0.0-150.0-0.0,voc_e2,11885,"[{""event"":""blur"",""trial"":0,""time"":0},{""event"":""focus"",""trial"":1,""time"":2974},{""event"":""fullscreenenter"",""trial"":1,""time"":3074}]",NA,NA,NA,NA,NA,4,#1CD855,#FA92F8,0,0,1,38,1,534.4000000953674,39,0,478.7000000476837,0,0,experiment,NA,NA,1,0.7,0.3,2,3,141,4,NA
fcp-trial,176,694380,0.0-151.0-0.0,voc_e2,11885,"[{""event"":""blur"",""trial"":0,""time"":0},{""event"":""focus"",""trial"":1,""time"":2974},{""event"":""fullscreenenter"",""trial"":1,""time"":3074}]",NA,NA,NA,NA,NA,0,#3386FF,#D89F1C,10,0,1,38,1,772.5,37,1,435.5,10,1,experiment,NA,NA,2,0.5,0.5,4,5,142,4,NA
fcp-trial,177,697531,0.0-152.0-0.0,voc_e2,11885,"[{""event"":""blur"",""trial"":0,""time"":0},{""event"":""focus"",""trial"":1,""time"":2974},{""event"":""fullscreenenter"",""trial"":1,""time"":3074}]",NA,NA,NA,NA,NA,1,#1CD855,#FA92F8,10,0,1,38,1,1292.7000000476837,39,0,350.8000000715256,0,0,experiment,NA,NA,1,0.7,0.3,2,3,143,4,NA
fcp-trial,178,700163,0.0-153.0-0.0,voc_e2,11885,"[{""event"":""blur"",""trial"":0,""time"":0},{""event"":""focus"",""trial"":1,""time"":2974},{""event"":""fullscreenenter"",""trial"":1,""time"":3074}]",NA,NA,NA,NA,NA,0,#D8271C,#741CD8,10,0,1,38,1,654.0999999046326,37,1,471.60000002384186,10,1,experiment,NA,NA,0,0.9,0.1,0,1,144,4,NA
fcp-trial,179,703081,0.0-154.0-0.0,voc_e2,11885,"[{""event"":""blur"",""trial"":0,""time"":0},{""event"":""focus"",""trial"":1,""time"":2974},{""event"":""fullscreenenter"",""trial"":1,""time"":3074}]",NA,NA,NA,NA,NA,5,#D89F1C,#3386FF,0,10,0,38,1,679.7999999523163,39,0,735.8999999761581,10,1,experiment,NA,NA,2,0.5,0.5,5,4,145,4,NA
fcp-trial,180,705841,0.0-155.0-0.0,voc_e2,11885,"[{""event"":""blur"",""trial"":0,""time"":0},{""event"":""focus"",""trial"":1,""time"":2974},{""event"":""fullscreenenter"",""trial"":1,""time"":3074}]",NA,NA,NA,NA,NA,2,#741CD8,#D8271C,0,10,0,38,1,776.8000000715256,39,0,479.1999999284744,10,1,experiment,NA,NA,0,0.1,0.9,1,0,146,4,NA
fcp-trial,181,708386,0.0-156.0-0.0,voc_e2,11885,"[{""event"":""blur"",""trial"":0,""time"":0},{""event"":""focus"",""trial"":1,""time"":2974},{""event"":""fullscreenenter"",""trial"":1,""time"":3074}]",NA,NA,NA,NA,NA,1,#D8271C,#741CD8,10,10,1,38,1,526.1999999284744,37,1,510.89999997615814,10,1,experiment,NA,NA,0,0.9,0.1,0,1,147,4,NA
fcp-trial,182,711074,0.0-157.0-0.0,voc_e2,11885,"[{""event"":""blur"",""trial"":0,""time"":0},{""event"":""focus"",""trial"":1,""time"":2974},{""event"":""fullscreenenter"",""trial"":1,""time"":3074}]",NA,NA,NA,NA,NA,1,#D8271C,#741CD8,0,0,1,38,1,592.5,37,1,591.2999999523163,0,1,experiment,NA,NA,0,0.9,0.1,0,1,148,4,NA
fcp-trial,183,713753,0.0-158.0-0.0,voc_e2,11885,"[{""event"":""blur"",""trial"":0,""time"":0},{""event"":""focus"",""trial"":1,""time"":2974},{""event"":""fullscreenenter"",""trial"":1,""time"":3074}]",NA,NA,NA,NA,NA,1,#3386FF,#D89F1C,10,0,1,38,1,608.0999999046326,37,1,566,10,1,experiment,NA,NA,2,0.5,0.5,4,5,149,4,NA
fcp-trial,184,716514,0.0-159.0-0.0,voc_e2,11885,"[{""event"":""blur"",""trial"":0,""time"":0},{""event"":""focus"",""trial"":1,""time"":2974},{""event"":""fullscreenenter"",""trial"":1,""time"":3074}]",NA,NA,NA,NA,NA,3,#741CD8,#D8271C,10,10,0,38,1,663,39,0,590.7000000476837,10,1,experiment,NA,NA,0,0.1,0.9,1,0,150,4,NA
fcp-trial,185,719329,0.0-160.0-0.0,voc_e2,11885,"[{""event"":""blur"",""trial"":0,""time"":0},{""event"":""focus"",""trial"":1,""time"":2974},{""event"":""fullscreenenter"",""trial"":1,""time"":3074}]",NA,NA,NA,NA,NA,6,#3386FF,#D89F1C,0,10,1,38,1,735.3999999761581,37,1,574.7000000476837,0,1,experiment,NA,NA,2,0.5,0.5,4,5,151,4,NA
fcp-trial,186,721801,0.0-161.0-0.0,voc_e2,11885,"[{""event"":""blur"",""trial"":0,""time"":0},{""event"":""focus"",""trial"":1,""time"":2974},{""event"":""fullscreenenter"",""trial"":1,""time"":3074}]",NA,NA,NA,NA,NA,1,#FA92F8,#1CD855,0,0,0,38,1,456.60000002384186,37,1,509.39999997615814,0,0,experiment,NA,NA,1,0.3,0.7,3,2,152,4,NA
fcp-trial,187,724194,0.0-162.0-0.0,voc_e2,11885,"[{""event"":""blur"",""trial"":0,""time"":0},{""event"":""focus"",""trial"":1,""time"":2974},{""event"":""fullscreenenter"",""trial"":1,""time"":3074}]",NA,NA,NA,NA,NA,2,#3386FF,#D89F1C,10,0,1,38,1,390.90000009536743,37,1,495.7000000476837,10,1,experiment,NA,NA,2,0.5,0.5,4,5,153,4,NA
fcp-trial,188,726849,0.0-163.0-0.0,voc_e2,11885,"[{""event"":""blur"",""trial"":0,""time"":0},{""event"":""focus"",""trial"":1,""time"":2974},{""event"":""fullscreenenter"",""trial"":1,""time"":3074}]",NA,NA,NA,NA,NA,0,#741CD8,#D8271C,0,10,0,38,1,645.6000000238419,39,0,503.89999997615814,10,1,experiment,NA,NA,0,0.1,0.9,1,0,154,4,NA
fcp-trial,189,730026,0.0-164.0-0.0,voc_e2,11885,"[{""event"":""blur"",""trial"":0,""time"":0},{""event"":""focus"",""trial"":1,""time"":2974},{""event"":""fullscreenenter"",""trial"":1,""time"":3074}]",NA,NA,NA,NA,NA,4,#FA92F8,#1CD855,0,10,0,40,0,1202.0999999046326,37,1,470.5,0,0,experiment,NA,NA,1,0.3,0.7,3,2,155,4,NA
fcp-trial,190,732961,0.0-165.0-0.0,voc_e2,11885,"[{""event"":""blur"",""trial"":0,""time"":0},{""event"":""focus"",""trial"":1,""time"":2974},{""event"":""fullscreenenter"",""trial"":1,""time"":3074}]",NA,NA,NA,NA,NA,6,#FA92F8,#1CD855,0,10,0,40,0,965.5,39,0,462.7999999523163,10,1,experiment,NA,NA,1,0.3,0.7,3,2,156,4,NA
fcp-trial,191,735761,0.0-166.0-0.0,voc_e2,11885,"[{""event"":""blur"",""trial"":0,""time"":0},{""event"":""focus"",""trial"":1,""time"":2974},{""event"":""fullscreenenter"",""trial"":1,""time"":3074}]",NA,NA,NA,NA,NA,3,#D89F1C,#3386FF,10,0,0,38,1,846.7999999523163,39,0,447.5,0,1,experiment,NA,NA,2,0.5,0.5,5,4,157,4,NA
fcp-trial,192,738281,0.0-167.0-0.0,voc_e2,11885,"[{""event"":""blur"",""trial"":0,""time"":0},{""event"":""focus"",""trial"":1,""time"":2974},{""event"":""fullscreenenter"",""trial"":1,""time"":3074}]",NA,NA,NA,NA,NA,5,#741CD8,#D8271C,0,10,0,38,1,551,39,0,462,10,1,experiment,NA,NA,0,0.1,0.9,1,0,158,4,NA
fcp-trial,193,741161,0.0-168.0-0.0,voc_e2,11885,"[{""event"":""blur"",""trial"":0,""time"":0},{""event"":""focus"",""trial"":1,""time"":2974},{""event"":""fullscreenenter"",""trial"":1,""time"":3074}]",NA,NA,NA,NA,NA,0,#1CD855,#FA92F8,0,0,1,38,1,983.7000000476837,39,0,388.7999999523163,0,0,experiment,NA,NA,1,0.7,0.3,2,3,159,4,NA
fcp-trial,194,743713,0.0-169.0-0.0,voc_e2,11885,"[{""event"":""blur"",""trial"":0,""time"":0},{""event"":""focus"",""trial"":1,""time"":2974},{""event"":""fullscreenenter"",""trial"":1,""time"":3074}]",NA,NA,NA,NA,NA,5,#FA92F8,#1CD855,0,10,0,38,1,502.89999997615814,39,0,542.5,10,1,experiment,NA,NA,1,0.3,0.7,3,2,160,4,NA
fcp-trial,195,746313,0.0-170.0-0.0,voc_e2,11885,"[{""event"":""blur"",""trial"":0,""time"":0},{""event"":""focus"",""trial"":1,""time"":2974},{""event"":""fullscreenenter"",""trial"":1,""time"":3074}]",NA,NA,NA,NA,NA,4,#D8271C,#741CD8,10,0,1,38,1,647,37,1,446.7999999523163,10,1,experiment,NA,NA,0,0.9,0.1,0,1,161,4,NA
fcp-trial,196,748929,0.0-171.0-0.0,voc_e2,11885,"[{""event"":""blur"",""trial"":0,""time"":0},{""event"":""focus"",""trial"":1,""time"":2974},{""event"":""fullscreenenter"",""trial"":1,""time"":3074}]",NA,NA,NA,NA,NA,4,#3386FF,#D89F1C,10,0,1,38,1,615.1000000238419,37,1,494,10,1,experiment,NA,NA,2,0.5,0.5,4,5,162,4,NA
fcp-trial,197,751810,0.0-172.0-0.0,voc_e2,11885,"[{""event"":""blur"",""trial"":0,""time"":0},{""event"":""focus"",""trial"":1,""time"":2974},{""event"":""fullscreenenter"",""trial"":1,""time"":3074}]",NA,NA,NA,NA,NA,3,#1CD855,#FA92F8,10,0,1,38,1,918.5,37,1,456.39999997615814,10,1,experiment,NA,NA,1,0.7,0.3,2,3,163,4,NA
fcp-trial,198,754313,0.0-173.0-0.0,voc_e2,11885,"[{""event"":""blur"",""trial"":0,""time"":0},{""event"":""focus"",""trial"":1,""time"":2974},{""event"":""fullscreenenter"",""trial"":1,""time"":3074}]",NA,NA,NA,NA,NA,5,#D89F1C,#3386FF,0,0,0,38,1,518.1999999284744,39,0,478.7000000476837,0,1,experiment,NA,NA,2,0.5,0.5,5,4,164,4,NA
fcp-trial,199,756697,0.0-174.0-0.0,voc_e2,11885,"[{""event"":""blur"",""trial"":0,""time"":0},{""event"":""focus"",""trial"":1,""time"":2974},{""event"":""fullscreenenter"",""trial"":1,""time"":3074}]",NA,NA,NA,NA,NA,0,#3386FF,#D89F1C,10,0,1,38,1,415.39999997615814,37,1,462,10,1,experiment,NA,NA,2,0.5,0.5,4,5,165,4,NA
fcp-trial,200,759227,0.0-175.0-0.0,voc_e2,11885,"[{""event"":""blur"",""trial"":0,""time"":0},{""event"":""focus"",""trial"":1,""time"":2974},{""event"":""fullscreenenter"",""trial"":1,""time"":3074}]",NA,NA,NA,NA,NA,6,#741CD8,#D8271C,0,0,0,38,1,559.7000000476837,39,0,463.2000000476837,0,1,experiment,NA,NA,0,0.1,0.9,1,0,166,4,NA
fcp-trial,201,761770,0.0-176.0-0.0,voc_e2,11885,"[{""event"":""blur"",""trial"":0,""time"":0},{""event"":""focus"",""trial"":1,""time"":2974},{""event"":""fullscreenenter"",""trial"":1,""time"":3074}]",NA,NA,NA,NA,NA,2,#D8271C,#741CD8,10,0,1,38,1,580.7000000476837,37,1,454.8000000715256,10,1,experiment,NA,NA,0,0.9,0.1,0,1,167,4,NA
fcp-trial,202,764889,0.0-177.0-0.0,voc_e2,11885,"[{""event"":""blur"",""trial"":0,""time"":0},{""event"":""focus"",""trial"":1,""time"":2974},{""event"":""fullscreenenter"",""trial"":1,""time"":3074}]",NA,NA,NA,NA,NA,2,#FA92F8,#1CD855,0,10,0,38,1,1216,39,0,399.60000002384186,10,1,experiment,NA,NA,1,0.3,0.7,3,2,168,4,NA
fcp-trial,203,767289,0.0-178.0-0.0,voc_e2,11885,"[{""event"":""blur"",""trial"":0,""time"":0},{""event"":""focus"",""trial"":1,""time"":2974},{""event"":""fullscreenenter"",""trial"":1,""time"":3074}]",NA,NA,NA,NA,NA,3,#741CD8,#D8271C,0,10,0,38,1,432.8000000715256,39,0,462.90000009536743,10,1,experiment,NA,NA,0,0.1,0.9,1,0,169,4,NA
fcp-trial,204,770073,0.0-179.0-0.0,voc_e2,11885,"[{""event"":""blur"",""trial"":0,""time"":0},{""event"":""focus"",""trial"":1,""time"":2974},{""event"":""fullscreenenter"",""trial"":1,""time"":3074}]",NA,NA,NA,NA,NA,4,#3386FF,#D89F1C,0,10,1,38,1,740.7000000476837,37,1,534.2999999523163,0,1,experiment,NA,NA,2,0.5,0.5,4,5,170,4,NA
fcp-trial,205,772994,0.0-180.0-0.0,voc_e2,11885,"[{""event"":""blur"",""trial"":0,""time"":0},{""event"":""focus"",""trial"":1,""time"":2974},{""event"":""fullscreenenter"",""trial"":1,""time"":3074}]",NA,NA,NA,NA,NA,3,#1CD855,#FA92F8,0,0,1,38,1,1005.1000000238419,37,1,407.89999997615814,0,1,experiment,NA,NA,1,0.7,0.3,2,3,171,4,NA
fcp-trial,206,775385,0.0-181.0-0.0,voc_e2,11885,"[{""event"":""blur"",""trial"":0,""time"":0},{""event"":""focus"",""trial"":1,""time"":2974},{""event"":""fullscreenenter"",""trial"":1,""time"":3074}]",NA,NA,NA,NA,NA,4,#741CD8,#D8271C,0,10,0,38,1,438.7000000476837,39,0,447.3000000715256,10,1,experiment,NA,NA,0,0.1,0.9,1,0,172,4,NA
fcp-trial,207,777866,0.0-182.0-0.0,voc_e2,11885,"[{""event"":""blur"",""trial"":0,""time"":0},{""event"":""focus"",""trial"":1,""time"":2974},{""event"":""fullscreenenter"",""trial"":1,""time"":3074}]",NA,NA,NA,NA,NA,5,#D89F1C,#3386FF,0,0,0,38,1,431.2999999523163,39,0,543.7000000476837,0,1,experiment,NA,NA,2,0.5,0.5,5,4,173,4,NA
fcp-trial,208,780650,0.0-183.0-0.0,voc_e2,11885,"[{""event"":""blur"",""trial"":0,""time"":0},{""event"":""focus"",""trial"":1,""time"":2974},{""event"":""fullscreenenter"",""trial"":1,""time"":3074}]",NA,NA,NA,NA,NA,2,#FA92F8,#1CD855,10,10,0,38,1,855.1999999284744,37,1,421.39999997615814,10,0,experiment,NA,NA,1,0.3,0.7,3,2,174,4,NA
fcp-trial,209,783178,0.0-184.0-0.0,voc_e2,11885,"[{""event"":""blur"",""trial"":0,""time"":0},{""event"":""focus"",""trial"":1,""time"":2974},{""event"":""fullscreenenter"",""trial"":1,""time"":3074}]",NA,NA,NA,NA,NA,5,#D8271C,#741CD8,10,0,1,38,1,566.7999999523163,37,1,455.10000002384186,10,1,experiment,NA,NA,0,0.9,0.1,0,1,175,4,NA
fcp-trial,210,785505,0.0-185.0-0.0,voc_e2,11885,"[{""event"":""blur"",""trial"":0,""time"":0},{""event"":""focus"",""trial"":1,""time"":2974},{""event"":""fullscreenenter"",""trial"":1,""time"":3074}]",NA,NA,NA,NA,NA,4,#1CD855,#FA92F8,10,0,1,38,1,350.5,39,0,470.39999997615814,0,0,experiment,NA,NA,1,0.7,0.3,2,3,176,4,NA
fcp-trial,211,787810,0.0-186.0-0.0,voc_e2,11885,"[{""event"":""blur"",""trial"":0,""time"":0},{""event"":""focus"",""trial"":1,""time"":2974},{""event"":""fullscreenenter"",""trial"":1,""time"":3074}]",NA,NA,NA,NA,NA,3,#3386FF,#D89F1C,10,10,1,38,1,382.5,37,1,415.5,10,1,experiment,NA,NA,2,0.5,0.5,4,5,177,4,NA
fcp-trial,212,790154,0.0-187.0-0.0,voc_e2,11885,"[{""event"":""blur"",""trial"":0,""time"":0},{""event"":""focus"",""trial"":1,""time"":2974},{""event"":""fullscreenenter"",""trial"":1,""time"":3074}]",NA,NA,NA,NA,NA,0,#FA92F8,#1CD855,10,10,0,38,1,437.60000002384186,37,1,399.60000002384186,10,0,experiment,NA,NA,1,0.3,0.7,3,2,178,4,NA
fcp-trial,213,792633,0.0-188.0-0.0,voc_e2,11885,"[{""event"":""blur"",""trial"":0,""time"":0},{""event"":""focus"",""trial"":1,""time"":2974},{""event"":""fullscreenenter"",""trial"":1,""time"":3074}]",NA,NA,NA,NA,NA,0,#D89F1C,#3386FF,0,0,0,38,1,558.8000000715256,39,0,414.5,0,1,experiment,NA,NA,2,0.5,0.5,5,4,179,4,NA
fcp-trial,214,795281,0.0-189.0-0.0,voc_e2,11885,"[{""event"":""blur"",""trial"":0,""time"":0},{""event"":""focus"",""trial"":1,""time"":2974},{""event"":""fullscreenenter"",""trial"":1,""time"":3074}]",NA,NA,NA,NA,NA,0,#741CD8,#D8271C,0,10,0,38,1,697.8999999761581,39,0,447.1999999284744,10,1,experiment,NA,NA,0,0.1,0.9,1,0,180,4,NA
fcp-trial,215,797537,0.0-190.0-0.0,voc_e2,11885,"[{""event"":""blur"",""trial"":0,""time"":0},{""event"":""focus"",""trial"":1,""time"":2974},{""event"":""fullscreenenter"",""trial"":1,""time"":3074}]",NA,NA,NA,NA,NA,1,#FA92F8,#1CD855,10,10,0,38,1,281.60000002384186,37,1,471.2999999523163,10,0,experiment,NA,NA,1,0.3,0.7,3,2,181,5,NA
fcp-trial,216,800178,0.0-191.0-0.0,voc_e2,11885,"[{""event"":""blur"",""trial"":0,""time"":0},{""event"":""focus"",""trial"":1,""time"":2974},{""event"":""fullscreenenter"",""trial"":1,""time"":3074}]",NA,NA,NA,NA,NA,2,#3386FF,#D89F1C,0,0,1,38,1,625.2999999523163,37,1,511.6999999284744,0,1,experiment,NA,NA,2,0.5,0.5,4,5,182,5,NA
fcp-trial,217,802529,0.0-192.0-0.0,voc_e2,11885,"[{""event"":""blur"",""trial"":0,""time"":0},{""event"":""focus"",""trial"":1,""time"":2974},{""event"":""fullscreenenter"",""trial"":1,""time"":3074}]",NA,NA,NA,NA,NA,1,#741CD8,#D8271C,0,10,0,38,1,384.5,39,0,462.39999997615814,10,1,experiment,NA,NA,0,0.1,0.9,1,0,183,5,NA
fcp-trial,218,804921,0.0-193.0-0.0,voc_e2,11885,"[{""event"":""blur"",""trial"":0,""time"":0},{""event"":""focus"",""trial"":1,""time"":2974},{""event"":""fullscreenenter"",""trial"":1,""time"":3074}]",NA,NA,NA,NA,NA,6,#FA92F8,#1CD855,0,10,0,38,1,487.7000000476837,37,1,398.60000002384186,0,0,experiment,NA,NA,1,0.3,0.7,3,2,184,5,NA
fcp-trial,219,807417,0.0-194.0-0.0,voc_e2,11885,"[{""event"":""blur"",""trial"":0,""time"":0},{""event"":""focus"",""trial"":1,""time"":2974},{""event"":""fullscreenenter"",""trial"":1,""time"":3074}]",NA,NA,NA,NA,NA,6,#D8271C,#741CD8,10,0,1,38,1,610,37,1,382.6999999284744,10,1,experiment,NA,NA,0,0.9,0.1,0,1,185,5,NA
fcp-trial,220,810002,0.0-195.0-0.0,voc_e2,11885,"[{""event"":""blur"",""trial"":0,""time"":0},{""event"":""focus"",""trial"":1,""time"":2974},{""event"":""fullscreenenter"",""trial"":1,""time"":3074}]",NA,NA,NA,NA,NA,1,#3386FF,#D89F1C,10,10,1,38,1,638.2999999523163,37,1,440.2000000476837,10,1,experiment,NA,NA,2,0.5,0.5,4,5,186,5,NA
fcp-trial,221,812537,0.0-196.0-0.0,voc_e2,11885,"[{""event"":""blur"",""trial"":0,""time"":0},{""event"":""focus"",""trial"":1,""time"":2974},{""event"":""fullscreenenter"",""trial"":1,""time"":3074}]",NA,NA,NA,NA,NA,6,#3386FF,#D89F1C,0,10,1,38,1,576.1999999284744,37,1,454.1999999284744,0,1,experiment,NA,NA,2,0.5,0.5,4,5,187,5,NA
fcp-trial,222,815260,0.0-197.0-0.0,voc_e2,11885,"[{""event"":""blur"",""trial"":0,""time"":0},{""event"":""focus"",""trial"":1,""time"":2974},{""event"":""fullscreenenter"",""trial"":1,""time"":3074}]",NA,NA,NA,NA,NA,2,#D8271C,#741CD8,10,0,1,38,1,710.7999999523163,37,1,504.3000000715256,10,1,experiment,NA,NA,0,0.9,0.1,0,1,188,5,NA
fcp-trial,223,818082,0.0-198.0-0.0,voc_e2,11885,"[{""event"":""blur"",""trial"":0,""time"":0},{""event"":""focus"",""trial"":1,""time"":2974},{""event"":""fullscreenenter"",""trial"":1,""time"":3074}]",NA,NA,NA,NA,NA,5,#1CD855,#FA92F8,10,0,1,38,1,700.2999999523163,39,0,614.7999999523163,0,0,experiment,NA,NA,1,0.7,0.3,2,3,189,5,NA
fcp-trial,224,820761,0.0-199.0-0.0,voc_e2,11885,"[{""event"":""blur"",""trial"":0,""time"":0},{""event"":""focus"",""trial"":1,""time"":2974},{""event"":""fullscreenenter"",""trial"":1,""time"":3074}]",NA,NA,NA,NA,NA,3,#741CD8,#D8271C,0,10,0,38,1,398.5,39,0,773.8000000715256,10,1,experiment,NA,NA,0,0.1,0.9,1,0,190,5,NA
fcp-trial,225,823338,0.0-200.0-0.0,voc_e2,11885,"[{""event"":""blur"",""trial"":0,""time"":0},{""event"":""focus"",""trial"":1,""time"":2974},{""event"":""fullscreenenter"",""trial"":1,""time"":3074}]",NA,NA,NA,NA,NA,5,#D89F1C,#3386FF,0,0,0,38,1,671.1000000238419,39,0,398.7999999523163,0,1,experiment,NA,NA,2,0.5,0.5,5,4,191,5,NA
fcp-trial,226,826251,0.0-201.0-0.0,voc_e2,11885,"[{""event"":""blur"",""trial"":0,""time"":0},{""event"":""focus"",""trial"":1,""time"":2974},{""event"":""fullscreenenter"",""trial"":1,""time"":3074}]",NA,NA,NA,NA,NA,3,#FA92F8,#1CD855,0,0,0,40,0,957.3999999761581,37,1,447.09999990463257,0,0,experiment,NA,NA,1,0.3,0.7,3,2,192,5,NA
fcp-trial,227,829538,0.0-202.0-0.0,voc_e2,11885,"[{""event"":""blur"",""trial"":0,""time"":0},{""event"":""focus"",""trial"":1,""time"":2974},{""event"":""fullscreenenter"",""trial"":1,""time"":3074}]",NA,NA,NA,NA,NA,0,#FA92F8,#1CD855,0,10,0,38,1,1382.1000000238419,39,0,399,10,1,experiment,NA,NA,1,0.3,0.7,3,2,193,5,NA
fcp-trial,228,832178,0.0-203.0-0.0,voc_e2,11885,"[{""event"":""blur"",""trial"":0,""time"":0},{""event"":""focus"",""trial"":1,""time"":2974},{""event"":""fullscreenenter"",""trial"":1,""time"":3074}]",NA,NA,NA,NA,NA,6,#D89F1C,#3386FF,0,0,0,38,1,679.6999999284744,39,0,455.60000002384186,0,1,experiment,NA,NA,2,0.5,0.5,5,4,194,5,NA
fcp-trial,229,835027,0.0-204.0-0.0,voc_e2,11885,"[{""event"":""blur"",""trial"":0,""time"":0},{""event"":""focus"",""trial"":1,""time"":2974},{""event"":""fullscreenenter"",""trial"":1,""time"":3074}]",NA,NA,NA,NA,NA,2,#D8271C,#741CD8,10,0,1,38,1,822.2999999523163,37,1,518.7999999523163,10,1,experiment,NA,NA,0,0.9,0.1,0,1,195,5,NA
fcp-trial,230,837666,0.0-205.0-0.0,voc_e2,11885,"[{""event"":""blur"",""trial"":0,""time"":0},{""event"":""focus"",""trial"":1,""time"":2974},{""event"":""fullscreenenter"",""trial"":1,""time"":3074}]",NA,NA,NA,NA,NA,4,#D89F1C,#3386FF,0,10,0,38,1,733.4000000953674,39,0,398.5,10,1,experiment,NA,NA,2,0.5,0.5,5,4,196,5,NA
fcp-trial,231,841011,0.0-206.0-0.0,voc_e2,11885,"[{""event"":""blur"",""trial"":0,""time"":0},{""event"":""focus"",""trial"":1,""time"":2974},{""event"":""fullscreenenter"",""trial"":1,""time"":3074}]",NA,NA,NA,NA,NA,6,#FA92F8,#1CD855,0,10,0,40,0,1366.6000000238419,37,1,471.7999999523163,0,0,experiment,NA,NA,1,0.3,0.7,3,2,197,5,NA
fcp-trial,232,843575,0.0-207.0-0.0,voc_e2,11885,"[{""event"":""blur"",""trial"":0,""time"":0},{""event"":""focus"",""trial"":1,""time"":2974},{""event"":""fullscreenenter"",""trial"":1,""time"":3074}]",NA,NA,NA,NA,NA,6,#741CD8,#D8271C,0,0,0,38,1,613.1999999284744,39,0,437.89999997615814,0,1,experiment,NA,NA,0,0.1,0.9,1,0,198,5,NA
fcp-trial,233,846906,0.0-208.0-0.0,voc_e2,11885,"[{""event"":""blur"",""trial"":0,""time"":0},{""event"":""focus"",""trial"":1,""time"":2974},{""event"":""fullscreenenter"",""trial"":1,""time"":3074}]",NA,NA,NA,NA,NA,1,#1CD855,#FA92F8,0,0,1,38,1,1439.7999999523163,37,1,382.5,0,1,experiment,NA,NA,1,0.7,0.3,2,3,199,5,NA
fcp-trial,234,849465,0.0-209.0-0.0,voc_e2,11885,"[{""event"":""blur"",""trial"":0,""time"":0},{""event"":""focus"",""trial"":1,""time"":2974},{""event"":""fullscreenenter"",""trial"":1,""time"":3074}]",NA,NA,NA,NA,NA,0,#D8271C,#741CD8,10,0,1,38,1,623.1000000238419,37,1,430.2999999523163,10,1,experiment,NA,NA,0,0.9,0.1,0,1,200,5,NA
fcp-trial,235,852091,0.0-210.0-0.0,voc_e2,11885,"[{""event"":""blur"",""trial"":0,""time"":0},{""event"":""focus"",""trial"":1,""time"":2974},{""event"":""fullscreenenter"",""trial"":1,""time"":3074}]",NA,NA,NA,NA,NA,2,#3386FF,#D89F1C,10,0,1,38,1,657.1000000238419,37,1,462.3000000715256,10,1,experiment,NA,NA,2,0.5,0.5,4,5,201,5,NA
fcp-trial,236,854738,0.0-211.0-0.0,voc_e2,11885,"[{""event"":""blur"",""trial"":0,""time"":0},{""event"":""focus"",""trial"":1,""time"":2974},{""event"":""fullscreenenter"",""trial"":1,""time"":3074}]",NA,NA,NA,NA,NA,1,#3386FF,#D89F1C,0,10,1,38,1,684.2999999523163,37,1,454.5,0,1,experiment,NA,NA,2,0.5,0.5,4,5,202,5,NA
fcp-trial,237,857898,0.0-212.0-0.0,voc_e2,11885,"[{""event"":""blur"",""trial"":0,""time"":0},{""event"":""focus"",""trial"":1,""time"":2974},{""event"":""fullscreenenter"",""trial"":1,""time"":3074}]",NA,NA,NA,NA,NA,5,#741CD8,#D8271C,0,10,0,38,1,1237.6999999284744,39,0,415.5,10,1,experiment,NA,NA,0,0.1,0.9,1,0,203,5,NA
fcp-trial,238,861027,0.0-213.0-0.0,voc_e2,11885,"[{""event"":""blur"",""trial"":0,""time"":0},{""event"":""focus"",""trial"":1,""time"":2974},{""event"":""fullscreenenter"",""trial"":1,""time"":3074}]",NA,NA,NA,NA,NA,4,#FA92F8,#1CD855,0,10,0,40,0,1207.8999999761581,39,0,415.3000000715256,10,1,experiment,NA,NA,1,0.3,0.7,3,2,204,5,NA
fcp-trial,239,863618,0.0-214.0-0.0,voc_e2,11885,"[{""event"":""blur"",""trial"":0,""time"":0},{""event"":""focus"",""trial"":1,""time"":2974},{""event"":""fullscreenenter"",""trial"":1,""time"":3074}]",NA,NA,NA,NA,NA,0,#D89F1C,#3386FF,10,0,0,38,1,637.3999999761581,39,0,446.59999990463257,0,1,experiment,NA,NA,2,0.5,0.5,5,4,205,5,NA
fcp-trial,240,866307,0.0-215.0-0.0,voc_e2,11885,"[{""event"":""blur"",""trial"":0,""time"":0},{""event"":""focus"",""trial"":1,""time"":2974},{""event"":""fullscreenenter"",""trial"":1,""time"":3074}]",NA,NA,NA,NA,NA,1,#D8271C,#741CD8,10,0,1,38,1,689.2999999523163,37,1,494.5,10,1,experiment,NA,NA,0,0.9,0.1,0,1,206,5,NA
fcp-trial,241,869258,0.0-216.0-0.0,voc_e2,11885,"[{""event"":""blur"",""trial"":0,""time"":0},{""event"":""focus"",""trial"":1,""time"":2974},{""event"":""fullscreenenter"",""trial"":1,""time"":3074}]",NA,NA,NA,NA,NA,3,#D89F1C,#3386FF,0,10,0,38,1,796.2000000476837,39,0,646.7000000476837,10,1,experiment,NA,NA,2,0.5,0.5,5,4,207,5,NA
fcp-trial,242,872178,0.0-217.0-0.0,voc_e2,11885,"[{""event"":""blur"",""trial"":0,""time"":0},{""event"":""focus"",""trial"":1,""time"":2974},{""event"":""fullscreenenter"",""trial"":1,""time"":3074}]",NA,NA,NA,NA,NA,4,#741CD8,#D8271C,0,10,0,38,1,679.4000000953674,39,0,734.7999999523163,10,1,experiment,NA,NA,0,0.1,0.9,1,0,208,5,NA
fcp-trial,243,875282,0.0-218.0-0.0,voc_e2,11885,"[{""event"":""blur"",""trial"":0,""time"":0},{""event"":""focus"",""trial"":1,""time"":2974},{""event"":""fullscreenenter"",""trial"":1,""time"":3074}]",NA,NA,NA,NA,NA,2,#FA92F8,#1CD855,0,10,0,38,1,1175,37,1,422.39999997615814,0,0,experiment,NA,NA,1,0.3,0.7,3,2,209,5,NA
fcp-trial,244,877658,0.0-219.0-0.0,voc_e2,11885,"[{""event"":""blur"",""trial"":0,""time"":0},{""event"":""focus"",""trial"":1,""time"":2974},{""event"":""fullscreenenter"",""trial"":1,""time"":3074}]",NA,NA,NA,NA,NA,5,#FA92F8,#1CD855,0,0,0,38,1,310.2999999523163,39,0,559.1000000238419,0,1,experiment,NA,NA,1,0.3,0.7,3,2,210,5,NA
audio-instructions,245,884075,0.0-220.0,voc_e2,11885,"[{""event"":""blur"",""trial"":0,""time"":0},{""event"":""focus"",""trial"":1,""time"":2974},{""event"":""fullscreenenter"",""trial"":1,""time"":3074}]",NA,1228,static/audio/pause.wav,NA,0,NA,NA,NA,NA,NA,NA,NA,NA,NA,NA,NA,NA,NA,NA,NA,NA,NA,NA,NA,NA,NA,NA,NA,NA,NA
fcp-trial,246,887242,0.0-221.0-0.0,voc_e2,11885,"[{""event"":""blur"",""trial"":0,""time"":0},{""event"":""focus"",""trial"":1,""time"":2974},{""event"":""fullscreenenter"",""trial"":1,""time"":3074}]",NA,NA,NA,NA,NA,3,#741CD8,#D8271C,0,10,0,38,1,1226.6999999284744,39,0,422.3000000715256,10,1,experiment,NA,NA,0,0.1,0.9,1,0,211,5,NA
fcp-trial,247,890141,0.0-222.0-0.0,voc_e2,11885,"[{""event"":""blur"",""trial"":0,""time"":0},{""event"":""focus"",""trial"":1,""time"":2974},{""event"":""fullscreenenter"",""trial"":1,""time"":3074}]",NA,NA,NA,NA,NA,5,#FA92F8,#1CD855,10,0,0,40,0,972.5,37,1,410.10000002384186,10,0,experiment,NA,NA,1,0.3,0.7,3,2,212,5,NA
fcp-trial,248,892927,0.0-223.0-0.0,voc_e2,11885,"[{""event"":""blur"",""trial"":0,""time"":0},{""event"":""focus"",""trial"":1,""time"":2974},{""event"":""fullscreenenter"",""trial"":1,""time"":3074}]",NA,NA,NA,NA,NA,4,#FA92F8,#1CD855,0,0,0,40,0,828,39,0,435.89999997615814,0,1,experiment,NA,NA,1,0.3,0.7,3,2,213,5,NA
fcp-trial,249,895709,0.0-224.0-0.0,voc_e2,11885,"[{""event"":""blur"",""trial"":0,""time"":0},{""event"":""focus"",""trial"":1,""time"":2974},{""event"":""fullscreenenter"",""trial"":1,""time"":3074}]",NA,NA,NA,NA,NA,2,#741CD8,#D8271C,0,10,0,38,1,857.5,39,0,402.7999999523163,10,1,experiment,NA,NA,0,0.1,0.9,1,0,214,5,NA
fcp-trial,250,898727,0.0-225.0-0.0,voc_e2,11885,"[{""event"":""blur"",""trial"":0,""time"":0},{""event"":""focus"",""trial"":1,""time"":2974},{""event"":""fullscreenenter"",""trial"":1,""time"":3074}]",NA,NA,NA,NA,NA,6,#1CD855,#FA92F8,10,0,1,40,0,1067.2000000476837,39,0,418.6999999284744,0,0,experiment,NA,NA,1,0.7,0.3,2,3,215,5,NA
fcp-trial,251,901761,0.0-226.0-0.0,voc_e2,11885,"[{""event"":""blur"",""trial"":0,""time"":0},{""event"":""focus"",""trial"":1,""time"":2974},{""event"":""fullscreenenter"",""trial"":1,""time"":3074}]",NA,NA,NA,NA,NA,2,#D89F1C,#3386FF,0,10,0,38,1,763.2000000476837,39,0,764.9000000953674,10,1,experiment,NA,NA,2,0.5,0.5,5,4,216,5,NA
fcp-trial,252,904660,0.0-227.0-0.0,voc_e2,11885,"[{""event"":""blur"",""trial"":0,""time"":0},{""event"":""focus"",""trial"":1,""time"":2974},{""event"":""fullscreenenter"",""trial"":1,""time"":3074}]",NA,NA,NA,NA,NA,0,#741CD8,#D8271C,0,10,0,38,1,919.1000000238419,39,0,454.7000000476837,10,1,experiment,NA,NA,0,0.1,0.9,1,0,217,5,NA
fcp-trial,253,907711,0.0-228.0-0.0,voc_e2,11885,"[{""event"":""blur"",""trial"":0,""time"":0},{""event"":""focus"",""trial"":1,""time"":2974},{""event"":""fullscreenenter"",""trial"":1,""time"":3074}]",NA,NA,NA,NA,NA,1,#1CD855,#FA92F8,10,0,1,38,1,1115.6999999284744,39,0,404.60000002384186,0,0,experiment,NA,NA,1,0.7,0.3,2,3,218,5,NA
fcp-trial,254,910360,0.0-229.0-0.0,voc_e2,11885,"[{""event"":""blur"",""trial"":0,""time"":0},{""event"":""focus"",""trial"":1,""time"":2974},{""event"":""fullscreenenter"",""trial"":1,""time"":3074}]",NA,NA,NA,NA,NA,6,#D8271C,#741CD8,10,0,1,38,1,706.3000000715256,37,1,427.2000000476837,10,1,experiment,NA,NA,0,0.9,0.1,0,1,219,5,NA
fcp-trial,255,913265,0.0-230.0-0.0,voc_e2,11885,"[{""event"":""blur"",""trial"":0,""time"":0},{""event"":""focus"",""trial"":1,""time"":2974},{""event"":""fullscreenenter"",""trial"":1,""time"":3074}]",NA,NA,NA,NA,NA,4,#3386FF,#D89F1C,10,0,1,38,1,663.7999999523163,37,1,730.1000000238419,10,1,experiment,NA,NA,2,0.5,0.5,4,5,220,5,NA
fcp-trial,256,915769,0.0-231.0-0.0,voc_e2,11885,"[{""event"":""blur"",""trial"":0,""time"":0},{""event"":""focus"",""trial"":1,""time"":2974},{""event"":""fullscreenenter"",""trial"":1,""time"":3074}]",NA,NA,NA,NA,NA,6,#D89F1C,#3386FF,10,10,0,38,1,583.5,39,0,414.7999999523163,10,1,experiment,NA,NA,2,0.5,0.5,5,4,221,5,NA
fcp-trial,257,918426,0.0-232.0-0.0,voc_e2,11885,"[{""event"":""blur"",""trial"":0,""time"":0},{""event"":""focus"",""trial"":1,""time"":2974},{""event"":""fullscreenenter"",""trial"":1,""time"":3074}]",NA,NA,NA,NA,NA,5,#D8271C,#741CD8,10,0,1,38,1,671.1000000238419,37,1,478.60000002384186,10,1,experiment,NA,NA,0,0.9,0.1,0,1,222,5,NA
fcp-trial,258,921619,0.0-233.0-0.0,voc_e2,11885,"[{""event"":""blur"",""trial"":0,""time"":0},{""event"":""focus"",""trial"":1,""time"":2974},{""event"":""fullscreenenter"",""trial"":1,""time"":3074}]",NA,NA,NA,NA,NA,3,#FA92F8,#1CD855,0,10,0,40,0,1239.8999999761581,37,1,447.2999999523163,0,0,experiment,NA,NA,1,0.3,0.7,3,2,223,5,NA
fcp-trial,259,924097,0.0-234.0-0.0,voc_e2,11885,"[{""event"":""blur"",""trial"":0,""time"":0},{""event"":""focus"",""trial"":1,""time"":2974},{""event"":""fullscreenenter"",""trial"":1,""time"":3074}]",NA,NA,NA,NA,NA,5,#D89F1C,#3386FF,10,10,0,38,1,549.5,39,0,422.60000002384186,10,1,experiment,NA,NA,2,0.5,0.5,5,4,224,5,NA
fcp-trial,260,926899,0.0-235.0-0.0,voc_e2,11885,"[{""event"":""blur"",""trial"":0,""time"":0},{""event"":""focus"",""trial"":1,""time"":2974},{""event"":""fullscreenenter"",""trial"":1,""time"":3074}]",NA,NA,NA,NA,NA,3,#D89F1C,#3386FF,0,10,0,38,1,642.5,39,0,652.7999999523163,10,1,experiment,NA,NA,2,0.5,0.5,5,4,225,5,NA
fcp-trial,261,929393,0.0-236.0-0.0,voc_e2,11885,"[{""event"":""blur"",""trial"":0,""time"":0},{""event"":""focus"",""trial"":1,""time"":2974},{""event"":""fullscreenenter"",""trial"":1,""time"":3074}]",NA,NA,NA,NA,NA,1,#3386FF,#D89F1C,0,10,1,38,1,486,37,1,502.39999997615814,0,1,experiment,NA,NA,2,0.5,0.5,4,5,226,6,NA
fcp-trial,262,932938,0.0-237.0-0.0,voc_e2,11885,"[{""event"":""blur"",""trial"":0,""time"":0},{""event"":""focus"",""trial"":1,""time"":2974},{""event"":""fullscreenenter"",""trial"":1,""time"":3074}]",NA,NA,NA,NA,NA,4,#D8271C,#741CD8,10,10,1,38,1,1070.8999999761581,37,1,967.600000023842,10,1,experiment,NA,NA,0,0.9,0.1,0,1,227,6,NA
fcp-trial,263,936193,0.0-238.0-0.0,voc_e2,11885,"[{""event"":""blur"",""trial"":0,""time"":0},{""event"":""focus"",""trial"":1,""time"":2974},{""event"":""fullscreenenter"",""trial"":1,""time"":3074}]",NA,NA,NA,NA,NA,2,#FA92F8,#1CD855,0,10,0,38,1,974.1000000238419,37,1,775.5,0,0,experiment,NA,NA,1,0.3,0.7,3,2,228,6,NA
fcp-trial,264,939169,0.0-239.0-0.0,voc_e2,11885,"[{""event"":""blur"",""trial"":0,""time"":0},{""event"":""focus"",""trial"":1,""time"":2974},{""event"":""fullscreenenter"",""trial"":1,""time"":3074}]",NA,NA,NA,NA,NA,0,#1CD855,#FA92F8,10,0,1,38,1,760.6000000238419,37,1,711.1999999284744,10,1,experiment,NA,NA,1,0.7,0.3,2,3,229,6,NA
fcp-trial,265,941665,0.0-240.0-0.0,voc_e2,11885,"[{""event"":""blur"",""trial"":0,""time"":0},{""event"":""focus"",""trial"":1,""time"":2974},{""event"":""fullscreenenter"",""trial"":1,""time"":3074}]",NA,NA,NA,NA,NA,1,#741CD8,#D8271C,0,10,0,38,1,608.6000000238419,39,0,383.39999997615814,10,1,experiment,NA,NA,0,0.1,0.9,1,0,230,6,NA
fcp-trial,266,944178,0.0-241.0-0.0,voc_e2,11885,"[{""event"":""blur"",""trial"":0,""time"":0},{""event"":""focus"",""trial"":1,""time"":2974},{""event"":""fullscreenenter"",""trial"":1,""time"":3074}]",NA,NA,NA,NA,NA,0,#3386FF,#D89F1C,0,10,1,38,1,519.6000000238419,37,1,486.2999999523163,0,1,experiment,NA,NA,2,0.5,0.5,4,5,231,6,NA
fcp-trial,267,947450,0.0-242.0-0.0,voc_e2,11885,"[{""event"":""blur"",""trial"":0,""time"":0},{""event"":""focus"",""trial"":1,""time"":2974},{""event"":""fullscreenenter"",""trial"":1,""time"":3074}]",NA,NA,NA,NA,NA,5,#FA92F8,#1CD855,0,0,0,40,0,1294.7000000476837,37,1,471.09999990463257,0,0,experiment,NA,NA,1,0.3,0.7,3,2,232,6,NA
fcp-trial,268,950001,0.0-243.0-0.0,voc_e2,11885,"[{""event"":""blur"",""trial"":0,""time"":0},{""event"":""focus"",""trial"":1,""time"":2974},{""event"":""fullscreenenter"",""trial"":1,""time"":3074}]",NA,NA,NA,NA,NA,4,#3386FF,#D89F1C,0,0,1,38,1,536.2999999523163,37,1,510.40000009536743,0,1,experiment,NA,NA,2,0.5,0.5,4,5,233,6,NA
fcp-trial,269,952658,0.0-244.0-0.0,voc_e2,11885,"[{""event"":""blur"",""trial"":0,""time"":0},{""event"":""focus"",""trial"":1,""time"":2974},{""event"":""fullscreenenter"",""trial"":1,""time"":3074}]",NA,NA,NA,NA,NA,1,#D8271C,#741CD8,10,0,1,38,1,688.5,37,1,463.2999999523163,10,1,experiment,NA,NA,0,0.9,0.1,0,1,234,6,NA
fcp-trial,270,955377,0.0-245.0-0.0,voc_e2,11885,"[{""event"":""blur"",""trial"":0,""time"":0},{""event"":""focus"",""trial"":1,""time"":2974},{""event"":""fullscreenenter"",""trial"":1,""time"":3074}]",NA,NA,NA,NA,NA,3,#3386FF,#D89F1C,10,10,1,38,1,740.8999999761581,37,1,469.89999997615814,10,1,experiment,NA,NA,2,0.5,0.5,4,5,235,6,NA
fcp-trial,271,958227,0.0-246.0-0.0,voc_e2,11885,"[{""event"":""blur"",""trial"":0,""time"":0},{""event"":""focus"",""trial"":1,""time"":2974},{""event"":""fullscreenenter"",""trial"":1,""time"":3074}]",NA,NA,NA,NA,NA,0,#FA92F8,#1CD855,0,10,0,38,1,928.5,39,0,414.5,10,1,experiment,NA,NA,1,0.3,0.7,3,2,236,6,NA
fcp-trial,272,961059,0.0-247.0-0.0,voc_e2,11885,"[{""event"":""blur"",""trial"":0,""time"":0},{""event"":""focus"",""trial"":1,""time"":2974},{""event"":""fullscreenenter"",""trial"":1,""time"":3074}]",NA,NA,NA,NA,NA,4,#741CD8,#D8271C,0,10,0,38,1,566.0999999046326,39,0,758.7000000476837,10,1,experiment,NA,NA,0,0.1,0.9,1,0,237,6,NA
fcp-trial,273,963739,0.0-248.0-0.0,voc_e2,11885,"[{""event"":""blur"",""trial"":0,""time"":0},{""event"":""focus"",""trial"":1,""time"":2974},{""event"":""fullscreenenter"",""trial"":1,""time"":3074}]",NA,NA,NA,NA,NA,0,#3386FF,#D89F1C,10,10,1,38,1,655,37,1,518.2000000476837,10,1,experiment,NA,NA,2,0.5,0.5,4,5,238,6,NA
fcp-trial,274,966506,0.0-249.0-0.0,voc_e2,11885,"[{""event"":""blur"",""trial"":0,""time"":0},{""event"":""focus"",""trial"":1,""time"":2974},{""event"":""fullscreenenter"",""trial"":1,""time"":3074}]",NA,NA,NA,NA,NA,2,#FA92F8,#1CD855,0,0,0,38,1,748.8999999761581,37,1,510.7999999523163,0,0,experiment,NA,NA,1,0.3,0.7,3,2,239,6,NA
fcp-trial,275,969593,0.0-250.0-0.0,voc_e2,11885,"[{""event"":""blur"",""trial"":0,""time"":0},{""event"":""focus"",""trial"":1,""time"":2974},{""event"":""fullscreenenter"",""trial"":1,""time"":3074}]",NA,NA,NA,NA,NA,3,#1CD855,#FA92F8,10,10,1,40,0,1117.8999999761581,37,1,464,10,1,experiment,NA,NA,1,0.7,0.3,2,3,240,6,NA
fcp-trial,276,972714,0.0-251.0-0.0,voc_e2,11885,"[{""event"":""blur"",""trial"":0,""time"":0},{""event"":""focus"",""trial"":1,""time"":2974},{""event"":""fullscreenenter"",""trial"":1,""time"":3074}]",NA,NA,NA,NA,NA,2,#741CD8,#D8271C,0,10,0,38,1,1087.5,39,0,525.4000000953674,10,1,experiment,NA,NA,0,0.1,0.9,1,0,241,6,NA
fcp-trial,277,975473,0.0-252.0-0.0,voc_e2,11885,"[{""event"":""blur"",""trial"":0,""time"":0},{""event"":""focus"",""trial"":1,""time"":2974},{""event"":""fullscreenenter"",""trial"":1,""time"":3074}]",NA,NA,NA,NA,NA,0,#D8271C,#741CD8,10,0,1,38,1,751,37,1,502.3000000715256,10,1,experiment,NA,NA,0,0.9,0.1,0,1,242,6,NA
fcp-trial,278,978329,0.0-253.0-0.0,voc_e2,11885,"[{""event"":""blur"",""trial"":0,""time"":0},{""event"":""focus"",""trial"":1,""time"":2974},{""event"":""fullscreenenter"",""trial"":1,""time"":3074}]",NA,NA,NA,NA,NA,2,#3386FF,#D89F1C,10,10,1,38,1,849.1999999284744,37,1,501,10,1,experiment,NA,NA,2,0.5,0.5,4,5,243,6,NA
fcp-trial,279,981346,0.0-254.0-0.0,voc_e2,11885,"[{""event"":""blur"",""trial"":0,""time"":0},{""event"":""focus"",""trial"":1,""time"":2974},{""event"":""fullscreenenter"",""trial"":1,""time"":3074}]",NA,NA,NA,NA,NA,1,#1CD855,#FA92F8,0,0,1,38,1,1072.2999999523163,37,1,438.60000002384186,0,1,experiment,NA,NA,1,0.7,0.3,2,3,244,6,NA
fcp-trial,280,984058,0.0-255.0-0.0,voc_e2,11885,"[{""event"":""blur"",""trial"":0,""time"":0},{""event"":""focus"",""trial"":1,""time"":2974},{""event"":""fullscreenenter"",""trial"":1,""time"":3074}]",NA,NA,NA,NA,NA,6,#741CD8,#D8271C,0,10,0,38,1,784.1999999284744,39,0,422.5,10,1,experiment,NA,NA,0,0.1,0.9,1,0,245,6,NA
fcp-trial,281,987081,0.0-256.0-0.0,voc_e2,11885,"[{""event"":""blur"",""trial"":0,""time"":0},{""event"":""focus"",""trial"":1,""time"":2974},{""event"":""fullscreenenter"",""trial"":1,""time"":3074}]",NA,NA,NA,NA,NA,4,#1CD855,#FA92F8,10,10,1,40,0,1068.3999999761581,37,1,446.10000002384186,10,1,experiment,NA,NA,1,0.7,0.3,2,3,246,6,NA
fcp-trial,282,990065,0.0-257.0-0.0,voc_e2,11885,"[{""event"":""blur"",""trial"":0,""time"":0},{""event"":""focus"",""trial"":1,""time"":2974},{""event"":""fullscreenenter"",""trial"":1,""time"":3074}]",NA,NA,NA,NA,NA,6,#D89F1C,#3386FF,10,10,0,38,1,1016.1000000238419,39,0,462.6999999284744,10,1,experiment,NA,NA,2,0.5,0.5,5,4,247,6,NA
fcp-trial,283,993129,0.0-258.0-0.0,voc_e2,11885,"[{""event"":""blur"",""trial"":0,""time"":0},{""event"":""focus"",""trial"":1,""time"":2974},{""event"":""fullscreenenter"",""trial"":1,""time"":3074}]",NA,NA,NA,NA,NA,6,#1CD855,#FA92F8,0,10,1,40,0,1095.6000000238419,37,1,462.10000002384186,0,1,experiment,NA,NA,1,0.7,0.3,2,3,248,6,NA
fcp-trial,284,996107,0.0-259.0-0.0,voc_e2,11885,"[{""event"":""blur"",""trial"":0,""time"":0},{""event"":""focus"",""trial"":1,""time"":2974},{""event"":""fullscreenenter"",""trial"":1,""time"":3074}]",NA,NA,NA,NA,NA,3,#D8271C,#741CD8,10,0,1,38,1,887.5,37,1,582.7999999523163,10,1,experiment,NA,NA,0,0.9,0.1,0,1,249,6,NA
fcp-trial,285,999241,0.0-260.0-0.0,voc_e2,11885,"[{""event"":""blur"",""trial"":0,""time"":0},{""event"":""focus"",""trial"":1,""time"":2974},{""event"":""fullscreenenter"",""trial"":1,""time"":3074}]",NA,NA,NA,NA,NA,1,#3386FF,#D89F1C,10,0,1,38,1,1131.3000000715256,37,1,495.39999997615814,10,1,experiment,NA,NA,2,0.5,0.5,4,5,250,6,NA
fcp-trial,286,1002481,0.0-261.0-0.0,voc_e2,11885,"[{""event"":""blur"",""trial"":0,""time"":0},{""event"":""focus"",""trial"":1,""time"":2974},{""event"":""fullscreenenter"",""trial"":1,""time"":3074}]",NA,NA,NA,NA,NA,5,#D8271C,#741CD8,10,0,1,38,1,1246.2000000476837,37,1,486.2999999523163,10,1,experiment,NA,NA,0,0.9,0.1,0,1,251,6,NA
fcp-trial,287,1005297,0.0-262.0-0.0,voc_e2,11885,"[{""event"":""blur"",""trial"":0,""time"":0},{""event"":""focus"",""trial"":1,""time"":2974},{""event"":""fullscreenenter"",""trial"":1,""time"":3074}]",NA,NA,NA,NA,NA,5,#3386FF,#D89F1C,10,0,1,38,1,791.1000000238419,37,1,519.2000000476837,10,1,experiment,NA,NA,2,0.5,0.5,4,5,252,6,NA
fcp-trial,288,1008066,0.0-263.0-0.0,voc_e2,11885,"[{""event"":""blur"",""trial"":0,""time"":0},{""event"":""focus"",""trial"":1,""time"":2974},{""event"":""fullscreenenter"",""trial"":1,""time"":3074}]",NA,NA,NA,NA,NA,0,#741CD8,#D8271C,0,10,0,38,1,584.6999999284744,39,0,677.5,10,1,experiment,NA,NA,0,0.1,0.9,1,0,253,6,NA
fcp-trial,289,1010898,0.0-264.0-0.0,voc_e2,11885,"[{""event"":""blur"",""trial"":0,""time"":0},{""event"":""focus"",""trial"":1,""time"":2974},{""event"":""fullscreenenter"",""trial"":1,""time"":3074}]",NA,NA,NA,NA,NA,1,#1CD855,#FA92F8,10,10,1,38,1,887.2000000476837,37,1,438.2000000476837,10,1,experiment,NA,NA,1,0.7,0.3,2,3,254,6,NA
fcp-trial,290,1014155,0.0-265.0-0.0,voc_e2,11885,"[{""event"":""blur"",""trial"":0,""time"":0},{""event"":""focus"",""trial"":1,""time"":2974},{""event"":""fullscreenenter"",""trial"":1,""time"":3074}]",NA,NA,NA,NA,NA,1,#D8271C,#741CD8,10,10,1,38,1,1016.6000000238419,37,1,727.3999999761581,10,1,experiment,NA,NA,0,0.9,0.1,0,1,255,6,NA
fcp-trial,291,1016931,0.0-266.0-0.0,voc_e2,11885,"[{""event"":""blur"",""trial"":0,""time"":0},{""event"":""focus"",""trial"":1,""time"":2974},{""event"":""fullscreenenter"",""trial"":1,""time"":3074}]",NA,NA,NA,NA,NA,5,#D89F1C,#3386FF,10,10,0,38,1,390.10000002384186,39,0,877.1999999284744,10,1,experiment,NA,NA,2,0.5,0.5,5,4,256,6,NA
fcp-trial,292,1019674,0.0-267.0-0.0,voc_e2,11885,"[{""event"":""blur"",""trial"":0,""time"":0},{""event"":""focus"",""trial"":1,""time"":2974},{""event"":""fullscreenenter"",""trial"":1,""time"":3074}]",NA,NA,NA,NA,NA,3,#FA92F8,#1CD855,0,0,0,38,1,469.7000000476837,39,0,765.8999999761581,0,1,experiment,NA,NA,1,0.3,0.7,3,2,257,6,NA
fcp-trial,293,1022082,0.0-268.0-0.0,voc_e2,11885,"[{""event"":""blur"",""trial"":0,""time"":0},{""event"":""focus"",""trial"":1,""time"":2974},{""event"":""fullscreenenter"",""trial"":1,""time"":3074}]",NA,NA,NA,NA,NA,0,#D89F1C,#3386FF,10,10,0,38,1,383.39999997615814,37,1,518.7999999523163,10,0,experiment,NA,NA,2,0.5,0.5,5,4,258,6,NA
fcp-trial,294,1024506,0.0-269.0-0.0,voc_e2,11885,"[{""event"":""blur"",""trial"":0,""time"":0},{""event"":""focus"",""trial"":1,""time"":2974},{""event"":""fullscreenenter"",""trial"":1,""time"":3074}]",NA,NA,NA,NA,NA,3,#D8271C,#741CD8,0,0,1,38,1,429.59999990463257,37,1,486.2000000476837,0,1,experiment,NA,NA,0,0.9,0.1,0,1,259,6,NA
fcp-trial,295,1027467,0.0-270.0-0.0,voc_e2,11885,"[{""event"":""blur"",""trial"":0,""time"":0},{""event"":""focus"",""trial"":1,""time"":2974},{""event"":""fullscreenenter"",""trial"":1,""time"":3074}]",NA,NA,NA,NA,NA,6,#1CD855,#FA92F8,10,10,1,40,0,983.3999999761581,37,1,471.5,10,1,experiment,NA,NA,1,0.7,0.3,2,3,260,6,NA
fcp-trial,296,1030467,0.0-271.0-0.0,voc_e2,11885,"[{""event"":""blur"",""trial"":0,""time"":0},{""event"":""focus"",""trial"":1,""time"":2974},{""event"":""fullscreenenter"",""trial"":1,""time"":3074}]",NA,NA,NA,NA,NA,2,#1CD855,#FA92F8,10,10,1,38,1,1020.8000000715256,37,1,471.10000002384186,10,1,experiment,NA,NA,1,0.7,0.3,2,3,261,6,NA
fcp-trial,297,1033458,0.0-272.0-0.0,voc_e2,11885,"[{""event"":""blur"",""trial"":0,""time"":0},{""event"":""focus"",""trial"":1,""time"":2974},{""event"":""fullscreenenter"",""trial"":1,""time"":3074}]",NA,NA,NA,NA,NA,4,#3386FF,#D89F1C,10,0,1,38,1,740,37,1,742.9000000953674,10,1,experiment,NA,NA,2,0.5,0.5,4,5,262,6,NA
fcp-trial,298,1036402,0.0-273.0-0.0,voc_e2,11885,"[{""event"":""blur"",""trial"":0,""time"":0},{""event"":""focus"",""trial"":1,""time"":2974},{""event"":""fullscreenenter"",""trial"":1,""time"":3074}]",NA,NA,NA,NA,NA,2,#741CD8,#D8271C,0,0,0,38,1,807.1999999284744,37,1,631,0,0,experiment,NA,NA,0,0.1,0.9,1,0,263,6,NA
fcp-trial,299,1038930,0.0-274.0-0.0,voc_e2,11885,"[{""event"":""blur"",""trial"":0,""time"":0},{""event"":""focus"",""trial"":1,""time"":2974},{""event"":""fullscreenenter"",""trial"":1,""time"":3074}]",NA,NA,NA,NA,NA,2,#3386FF,#D89F1C,0,10,1,38,1,446.2000000476837,37,1,574.8999999761581,0,1,experiment,NA,NA,2,0.5,0.5,4,5,264,6,NA
fcp-trial,300,1041922,0.0-275.0-0.0,voc_e2,11885,"[{""event"":""blur"",""trial"":0,""time"":0},{""event"":""focus"",""trial"":1,""time"":2974},{""event"":""fullscreenenter"",""trial"":1,""time"":3074}]",NA,NA,NA,NA,NA,4,#1CD855,#FA92F8,10,10,1,40,0,1038.7999999523163,39,0,447.2000000476837,10,0,experiment,NA,NA,1,0.7,0.3,2,3,265,6,NA
fcp-trial,301,1044867,0.0-276.0-0.0,voc_e2,11885,"[{""event"":""blur"",""trial"":0,""time"":0},{""event"":""focus"",""trial"":1,""time"":2974},{""event"":""fullscreenenter"",""trial"":1,""time"":3074}]",NA,NA,NA,NA,NA,5,#1CD855,#FA92F8,10,0,1,40,0,927,39,0,511.60000002384186,0,0,experiment,NA,NA,1,0.7,0.3,2,3,266,6,NA
fcp-trial,302,1047410,0.0-277.0-0.0,voc_e2,11885,"[{""event"":""blur"",""trial"":0,""time"":0},{""event"":""focus"",""trial"":1,""time"":2974},{""event"":""fullscreenenter"",""trial"":1,""time"":3074}]",NA,NA,NA,NA,NA,5,#D8271C,#741CD8,10,0,1,38,1,627.0999999046326,37,1,406.7000000476837,10,1,experiment,NA,NA,0,0.9,0.1,0,1,267,6,NA
fcp-trial,303,1050066,0.0-278.0-0.0,voc_e2,11885,"[{""event"":""blur"",""trial"":0,""time"":0},{""event"":""focus"",""trial"":1,""time"":2974},{""event"":""fullscreenenter"",""trial"":1,""time"":3074}]",NA,NA,NA,NA,NA,6,#D89F1C,#3386FF,0,10,0,38,1,662.7000000476837,39,0,487.7999999523163,10,1,experiment,NA,NA,2,0.5,0.5,5,4,268,6,NA
