trial_type,trial_index,time_elapsed,internal_node_id,task_version,subject_id,interactions,success,rt,stimulus,key_press,button_pressed,offer,arcade_color_L,arcade_color_R,arcade_outcome_L,arcade_outcome_R,correct,stage_1_key,stage_1_choice,stage_1_rt,stage_2_key,stage_2_choice,stage_2_rt,stage_3_outcome,accuracy,phase,responses,num_errors,context,reward_prob_L,reward_prob_R,arcade_id_L,arcade_id_R,trial,block,response
pavlovia,0,30,0.0-0.0,voc_e2,11745,[],NA,NA,NA,NA,NA,NA,NA,NA,NA,NA,NA,NA,NA,NA,NA,NA,NA,NA,NA,NA,NA,NA,NA,NA,NA,NA,NA,NA,NA,NA
fullscreen,1,17147,0.0-1.0,voc_e2,11745,"[{""event"":""fullscreenenter"",""trial"":1,""time"":16207}]",TRUE,NA,NA,NA,NA,NA,NA,NA,NA,NA,NA,NA,NA,NA,NA,NA,NA,NA,NA,NA,NA,NA,NA,NA,NA,NA,NA,NA,NA,NA
audio-keyboard-response,2,23542,0.0-2.0,voc_e2,11745,"[{""event"":""fullscreenenter"",""trial"":1,""time"":16207}]",NA,6051,static/audio/beep_loop.wav,175,NA,NA,NA,NA,NA,NA,NA,NA,NA,NA,NA,NA,NA,NA,NA,NA,NA,NA,NA,NA,NA,NA,NA,NA,NA,NA
audio-test,3,27353,0.0-3.0,voc_e2,11745,"[{""event"":""fullscreenenter"",""trial"":1,""time"":16207}]",NA,NA,static/audio/turtle.wav,NA,3,NA,NA,NA,NA,NA,NA,NA,NA,NA,NA,NA,NA,NA,NA,NA,NA,NA,NA,NA,NA,NA,NA,NA,NA,NA
audio-test,4,30974,0.0-4.0,voc_e2,11745,"[{""event"":""fullscreenenter"",""trial"":1,""time"":16207}]",NA,NA,static/audio/shark.wav,NA,2,NA,NA,NA,NA,NA,NA,NA,NA,NA,NA,NA,NA,NA,NA,NA,NA,NA,NA,NA,NA,NA,NA,NA,NA,NA
audio-instructions,5,38440,0.0-5.0-0.0,voc_e2,11745,"[{""event"":""fullscreenenter"",""trial"":1,""time"":16207}]",NA,1681.5,static/audio/instructions1.wav,NA,0,NA,NA,NA,NA,NA,NA,NA,NA,NA,NA,NA,NA,NA,NA,NA,NA,NA,NA,NA,NA,NA,NA,NA,NA,NA
audio-instructions,6,46877,0.0-5.0-1.0,voc_e2,11745,"[{""event"":""fullscreenenter"",""trial"":1,""time"":16207}]",NA,1699.199999988079,static/audio/instructions2.wav,NA,0,NA,NA,NA,NA,NA,NA,NA,NA,NA,NA,NA,NA,NA,NA,NA,NA,NA,NA,NA,NA,NA,NA,NA,NA,NA
audio-instructions,7,53913,0.0-5.0-2.0,voc_e2,11745,"[{""event"":""fullscreenenter"",""trial"":1,""time"":16207}]",NA,1224.9000000357628,static/audio/instructions3.wav,NA,0,NA,NA,NA,NA,NA,NA,NA,NA,NA,NA,NA,NA,NA,NA,NA,NA,NA,NA,NA,NA,NA,NA,NA,NA,NA
audio-instructions,8,68314,0.0-5.0-3.0,voc_e2,11745,"[{""event"":""fullscreenenter"",""trial"":1,""time"":16207}]",NA,1176.199999988079,static/audio/instructions4.wav,NA,0,NA,NA,NA,NA,NA,NA,NA,NA,NA,NA,NA,NA,NA,NA,NA,NA,NA,NA,NA,NA,NA,NA,NA,NA,NA
audio-instructions,9,78918,0.0-5.0-4.0,voc_e2,11745,"[{""event"":""fullscreenenter"",""trial"":1,""time"":16207}]",NA,1220,static/audio/instructions5.wav,NA,0,NA,NA,NA,NA,NA,NA,NA,NA,NA,NA,NA,NA,NA,NA,NA,NA,NA,NA,NA,NA,NA,NA,NA,NA,NA
fcp-practice,10,85806,0.0-5.0-5.0-0.0,voc_e2,11745,"[{""event"":""fullscreenenter"",""trial"":1,""time"":16207}]",NA,NA,NA,NA,NA,NA,#EDC948,#46d3c8,10,0,1,null,null,null,37,1,5366.699999988079,10,1,practice,NA,NA,NA,NA,NA,NA,NA,NA,NA,NA
fcp-practice,11,88740,0.0-5.0-5.0-1.0,voc_e2,11745,"[{""event"":""fullscreenenter"",""trial"":1,""time"":16207}]",NA,NA,NA,NA,NA,NA,#EDC948,#46d3c8,10,0,1,null,null,null,37,1,1411.800000011921,10,1,practice,NA,NA,NA,NA,NA,NA,NA,NA,NA,NA
fcp-practice,12,91223,0.0-5.0-5.0-2.0,voc_e2,11745,"[{""event"":""fullscreenenter"",""trial"":1,""time"":16207}]",NA,NA,NA,NA,NA,NA,#EDC948,#46d3c8,0,10,1,null,null,null,37,1,961.3000000119208,0,1,practice,NA,NA,NA,NA,NA,NA,NA,NA,NA,NA
fcp-practice,13,93890,0.0-5.0-5.0-3.0,voc_e2,11745,"[{""event"":""fullscreenenter"",""trial"":1,""time"":16207}]",NA,NA,NA,NA,NA,NA,#EDC948,#46d3c8,10,0,1,null,null,null,37,1,1143.5999999642372,10,1,practice,NA,NA,NA,NA,NA,NA,NA,NA,NA,NA
fcp-practice,14,96257,0.0-5.0-5.0-4.0,voc_e2,11745,"[{""event"":""fullscreenenter"",""trial"":1,""time"":16207}]",NA,NA,NA,NA,NA,NA,#EDC948,#46d3c8,10,0,1,null,null,null,37,1,840.6999999880791,10,1,practice,NA,NA,NA,NA,NA,NA,NA,NA,NA,NA
audio-instructions,15,115760,0.0-5.0-6.0,voc_e2,11745,"[{""event"":""fullscreenenter"",""trial"":1,""time"":16207}]",NA,1493.4000000357628,static/audio/instructions6.wav,NA,0,NA,NA,NA,NA,NA,NA,NA,NA,NA,NA,NA,NA,NA,NA,NA,NA,NA,NA,NA,NA,NA,NA,NA,NA,NA
audio-instructions,16,136405,0.0-5.0-7.0,voc_e2,11745,"[{""event"":""fullscreenenter"",""trial"":1,""time"":16207}]",NA,1448.100000023842,static/audio/instructions7.wav,NA,0,NA,NA,NA,NA,NA,NA,NA,NA,NA,NA,NA,NA,NA,NA,NA,NA,NA,NA,NA,NA,NA,NA,NA,NA,NA
audio-instructions,17,147260,0.0-5.0-8.0,voc_e2,11745,"[{""event"":""fullscreenenter"",""trial"":1,""time"":16207}]",NA,1372,static/audio/instructions8.wav,NA,0,NA,NA,NA,NA,NA,NA,NA,NA,NA,NA,NA,NA,NA,NA,NA,NA,NA,NA,NA,NA,NA,NA,NA,NA,NA
fcp-comprehension,18,175048,0.0-5.0-9.0,voc_e2,11745,"[{""event"":""fullscreenenter"",""trial"":1,""time"":16207}]",NA,27784.900000035763,NA,NA,NA,NA,NA,NA,NA,NA,NA,NA,NA,NA,NA,NA,NA,NA,NA,NA,"false,true",1,NA,NA,NA,NA,NA,NA,NA,NA
audio-instructions,19,180979,0.0-5.1-0.1,voc_e2,11745,"[{""event"":""fullscreenenter"",""trial"":1,""time"":16207}]",NA,1150.699999988079,static/audio/instructions1.wav,NA,0,NA,NA,NA,NA,NA,NA,NA,NA,NA,NA,NA,NA,NA,NA,NA,NA,NA,NA,NA,NA,NA,NA,NA,NA,NA
audio-instructions,20,189147,0.0-5.1-1.1,voc_e2,11745,"[{""event"":""fullscreenenter"",""trial"":1,""time"":16207}]",NA,1418.699999988079,static/audio/instructions2.wav,NA,0,NA,NA,NA,NA,NA,NA,NA,NA,NA,NA,NA,NA,NA,NA,NA,NA,NA,NA,NA,NA,NA,NA,NA,NA,NA
audio-instructions,21,196419,0.0-5.1-2.1,voc_e2,11745,"[{""event"":""fullscreenenter"",""trial"":1,""time"":16207}]",NA,1461.5,static/audio/instructions3.wav,NA,0,NA,NA,NA,NA,NA,NA,NA,NA,NA,NA,NA,NA,NA,NA,NA,NA,NA,NA,NA,NA,NA,NA,NA,NA,NA
audio-instructions,22,216699,0.0-5.1-3.1,voc_e2,11745,"[{""event"":""fullscreenenter"",""trial"":1,""time"":16207}]",NA,7051.5,static/audio/instructions4.wav,NA,0,NA,NA,NA,NA,NA,NA,NA,NA,NA,NA,NA,NA,NA,NA,NA,NA,NA,NA,NA,NA,NA,NA,NA,NA,NA
audio-instructions,23,227544,0.0-5.1-4.1,voc_e2,11745,"[{""event"":""fullscreenenter"",""trial"":1,""time"":16207}]",NA,1456.100000023842,static/audio/instructions5.wav,NA,0,NA,NA,NA,NA,NA,NA,NA,NA,NA,NA,NA,NA,NA,NA,NA,NA,NA,NA,NA,NA,NA,NA,NA,NA,NA
fcp-practice,24,229850,0.0-5.1-5.1-0.1,voc_e2,11745,"[{""event"":""fullscreenenter"",""trial"":1,""time"":16207}]",NA,NA,NA,NA,NA,NA,#EDC948,#46d3c8,10,0,1,null,null,null,37,1,790.8999999761581,10,1,practice,NA,NA,NA,NA,NA,NA,NA,NA,NA,NA
fcp-practice,25,231734,0.0-5.1-5.1-1.1,voc_e2,11745,"[{""event"":""fullscreenenter"",""trial"":1,""time"":16207}]",NA,NA,NA,NA,NA,NA,#EDC948,#46d3c8,10,0,1,null,null,null,37,1,365.5,10,1,practice,NA,NA,NA,NA,NA,NA,NA,NA,NA,NA
fcp-practice,26,234151,0.0-5.1-5.1-2.1,voc_e2,11745,"[{""event"":""fullscreenenter"",""trial"":1,""time"":16207}]",NA,NA,NA,NA,NA,NA,#EDC948,#46d3c8,0,10,1,null,null,null,37,1,897.0999999642372,0,1,practice,NA,NA,NA,NA,NA,NA,NA,NA,NA,NA
fcp-practice,27,236617,0.0-5.1-5.1-3.1,voc_e2,11745,"[{""event"":""fullscreenenter"",""trial"":1,""time"":16207}]",NA,NA,NA,NA,NA,NA,#EDC948,#46d3c8,10,0,1,null,null,null,37,1,950.0999999642372,10,1,practice,NA,NA,NA,NA,NA,NA,NA,NA,NA,NA
fcp-practice,28,238718,0.0-5.1-5.1-4.1,voc_e2,11745,"[{""event"":""fullscreenenter"",""trial"":1,""time"":16207}]",NA,NA,NA,NA,NA,NA,#EDC948,#46d3c8,10,0,1,null,null,null,37,1,576.5,10,1,practice,NA,NA,NA,NA,NA,NA,NA,NA,NA,NA
audio-instructions,29,258276,0.0-5.1-6.1,voc_e2,11745,"[{""event"":""fullscreenenter"",""trial"":1,""time"":16207}]",NA,1547.9000000357628,static/audio/instructions6.wav,NA,0,NA,NA,NA,NA,NA,NA,NA,NA,NA,NA,NA,NA,NA,NA,NA,NA,NA,NA,NA,NA,NA,NA,NA,NA,NA
audio-instructions,30,279872,0.0-5.1-7.1,voc_e2,11745,"[{""event"":""fullscreenenter"",""trial"":1,""time"":16207}]",NA,2393.899999976158,static/audio/instructions7.wav,NA,0,NA,NA,NA,NA,NA,NA,NA,NA,NA,NA,NA,NA,NA,NA,NA,NA,NA,NA,NA,NA,NA,NA,NA,NA,NA
audio-instructions,31,290921,0.0-5.1-8.1,voc_e2,11745,"[{""event"":""fullscreenenter"",""trial"":1,""time"":16207}]",NA,1571.9000000357628,static/audio/instructions8.wav,NA,0,NA,NA,NA,NA,NA,NA,NA,NA,NA,NA,NA,NA,NA,NA,NA,NA,NA,NA,NA,NA,NA,NA,NA,NA,NA
fcp-comprehension,32,337695,0.0-5.1-9.1,voc_e2,11745,"[{""event"":""fullscreenenter"",""trial"":1,""time"":16207}]",NA,46770.19999998808,NA,NA,NA,NA,NA,NA,NA,NA,NA,NA,NA,NA,NA,NA,NA,NA,NA,NA,"true,true",0,NA,NA,NA,NA,NA,NA,NA,NA
audio-instructions,33,345116,0.0-6.0-0.0,voc_e2,11745,"[{""event"":""fullscreenenter"",""trial"":1,""time"":16207}]",NA,1635,static/audio/instructions9.wav,NA,0,NA,NA,NA,NA,NA,NA,NA,NA,NA,NA,NA,NA,NA,NA,NA,NA,NA,NA,NA,NA,NA,NA,NA,NA,NA
audio-instructions,34,403123,0.0-6.0-1.0,voc_e2,11745,"[{""event"":""fullscreenenter"",""trial"":1,""time"":16207}]",NA,45891.89999997616,static/audio/instructions10.wav,NA,0,NA,NA,NA,NA,NA,NA,NA,NA,NA,NA,NA,NA,NA,NA,NA,NA,NA,NA,NA,NA,NA,NA,NA,NA,NA
fcp-trial,35,411585,0.0-6.0-2.0,voc_e2,11745,"[{""event"":""fullscreenenter"",""trial"":1,""time"":16207}]",NA,NA,NA,NA,NA,0,#EDC948,#46d3c8,10,10,1,38,1,5582.399999976158,39,0,1354.2999999523165,10,0,practice,NA,NA,NA,NA,NA,NA,NA,NA,NA,NA
audio-instructions,36,429956,0.0-6.0-3.0,voc_e2,11745,"[{""event"":""fullscreenenter"",""trial"":1,""time"":16207}]",NA,7111.699999988079,static/audio/instructions11.wav,NA,0,NA,NA,NA,NA,NA,NA,NA,NA,NA,NA,NA,NA,NA,NA,NA,NA,NA,NA,NA,NA,NA,NA,NA,NA,NA
fcp-trial,37,433885,0.0-6.0-4.0,voc_e2,11745,"[{""event"":""fullscreenenter"",""trial"":1,""time"":16207}]",NA,NA,NA,NA,NA,6,#EDC948,#46d3c8,10,10,1,40,0,1152,39,0,1270.300000011921,10,0,practice,NA,NA,NA,NA,NA,NA,NA,NA,NA,NA
audio-instructions,38,454105,0.0-6.0-5.0,voc_e2,11745,"[{""event"":""fullscreenenter"",""trial"":1,""time"":16207}]",NA,1530.7999999523165,static/audio/instructions12.wav,NA,0,NA,NA,NA,NA,NA,NA,NA,NA,NA,NA,NA,NA,NA,NA,NA,NA,NA,NA,NA,NA,NA,NA,NA,NA,NA
audio-instructions,39,462556,0.0-6.0-6.0,voc_e2,11745,"[{""event"":""fullscreenenter"",""trial"":1,""time"":16207}]",NA,851.8000000119209,static/audio/instructions13.wav,NA,0,NA,NA,NA,NA,NA,NA,NA,NA,NA,NA,NA,NA,NA,NA,NA,NA,NA,NA,NA,NA,NA,NA,NA,NA,NA
audio-instructions,40,473110,0.0-6.0-7.0,voc_e2,11745,"[{""event"":""fullscreenenter"",""trial"":1,""time"":16207}]",NA,2107.900000035763,static/audio/instructions14.wav,NA,0,NA,NA,NA,NA,NA,NA,NA,NA,NA,NA,NA,NA,NA,NA,NA,NA,NA,NA,NA,NA,NA,NA,NA,NA,NA
audio-instructions,41,481126,0.0-7.0-0.0,voc_e2,11745,"[{""event"":""fullscreenenter"",""trial"":1,""time"":16207}]",NA,1101.600000023842,static/audio/instructions15.wav,NA,0,NA,NA,NA,NA,NA,NA,NA,NA,NA,NA,NA,NA,NA,NA,NA,NA,NA,NA,NA,NA,NA,NA,NA,NA,NA
audio-instructions,42,645059,0.0-7.0-1.0,voc_e2,11745,"[{""event"":""fullscreenenter"",""trial"":1,""time"":16207}]",NA,157105.5,static/audio/instructions16.wav,NA,0,NA,NA,NA,NA,NA,NA,NA,NA,NA,NA,NA,NA,NA,NA,NA,NA,NA,NA,NA,NA,NA,NA,NA,NA,NA
audio-instructions,43,680657,0.0-7.0-2.0,voc_e2,11745,"[{""event"":""fullscreenenter"",""trial"":1,""time"":16207}]",NA,27693.299999952316,static/audio/instructions17.wav,NA,0,NA,NA,NA,NA,NA,NA,NA,NA,NA,NA,NA,NA,NA,NA,NA,NA,NA,NA,NA,NA,NA,NA,NA,NA,NA
audio-instructions,44,689799,0.0-7.0-3.0,voc_e2,11745,"[{""event"":""fullscreenenter"",""trial"":1,""time"":16207}]",NA,1375.300000011921,static/audio/instructions18.wav,NA,0,NA,NA,NA,NA,NA,NA,NA,NA,NA,NA,NA,NA,NA,NA,NA,NA,NA,NA,NA,NA,NA,NA,NA,NA,NA
audio-instructions,45,697152,0.0-7.0-4.0,voc_e2,11745,"[{""event"":""fullscreenenter"",""trial"":1,""time"":16207}]",NA,618.8000000119209,static/audio/instructions19.wav,NA,0,NA,NA,NA,NA,NA,NA,NA,NA,NA,NA,NA,NA,NA,NA,NA,NA,NA,NA,NA,NA,NA,NA,NA,NA,NA
fcp-comprehension,46,733360,0.0-7.0-5.0,voc_e2,11745,"[{""event"":""fullscreenenter"",""trial"":1,""time"":16207}]",NA,36205.30000001192,NA,NA,NA,NA,NA,NA,NA,NA,NA,NA,NA,NA,NA,NA,NA,NA,NA,NA,"true,false,false,false",2,NA,NA,NA,NA,NA,NA,NA,NA
audio-instructions,47,741635,0.0-7.1-0.1,voc_e2,11745,"[{""event"":""fullscreenenter"",""trial"":1,""time"":16207}]",NA,1248.7000000476835,static/audio/instructions15.wav,NA,0,NA,NA,NA,NA,NA,NA,NA,NA,NA,NA,NA,NA,NA,NA,NA,NA,NA,NA,NA,NA,NA,NA,NA,NA,NA
audio-instructions,48,750206,0.0-7.1-1.1,voc_e2,11745,"[{""event"":""fullscreenenter"",""trial"":1,""time"":16207}]",NA,1739.300000011921,static/audio/instructions16.wav,NA,0,NA,NA,NA,NA,NA,NA,NA,NA,NA,NA,NA,NA,NA,NA,NA,NA,NA,NA,NA,NA,NA,NA,NA,NA,NA
audio-instructions,49,759675,0.0-7.1-2.1,voc_e2,11745,"[{""event"":""fullscreenenter"",""trial"":1,""time"":16207}]",NA,1788.699999988079,static/audio/instructions17.wav,NA,0,NA,NA,NA,NA,NA,NA,NA,NA,NA,NA,NA,NA,NA,NA,NA,NA,NA,NA,NA,NA,NA,NA,NA,NA,NA
audio-instructions,50,768189,0.0-7.1-3.1,voc_e2,11745,"[{""event"":""fullscreenenter"",""trial"":1,""time"":16207}]",NA,742.0999999642372,static/audio/instructions18.wav,NA,0,NA,NA,NA,NA,NA,NA,NA,NA,NA,NA,NA,NA,NA,NA,NA,NA,NA,NA,NA,NA,NA,NA,NA,NA,NA
audio-instructions,51,776433,0.0-7.1-4.1,voc_e2,11745,"[{""event"":""fullscreenenter"",""trial"":1,""time"":16207}]",NA,1496.399999976158,static/audio/instructions19.wav,NA,0,NA,NA,NA,NA,NA,NA,NA,NA,NA,NA,NA,NA,NA,NA,NA,NA,NA,NA,NA,NA,NA,NA,NA,NA,NA
fcp-comprehension,52,792361,0.0-7.1-5.1,voc_e2,11745,"[{""event"":""fullscreenenter"",""trial"":1,""time"":16207}]",NA,15923.80000001192,NA,NA,NA,NA,NA,NA,NA,NA,NA,NA,NA,NA,NA,NA,NA,NA,NA,NA,"true,false,true,false",3,NA,NA,NA,NA,NA,NA,NA,NA
audio-instructions,53,800816,0.0-7.2-0.2,voc_e2,11745,"[{""event"":""fullscreenenter"",""trial"":1,""time"":16207}]",NA,1539.699999988079,static/audio/instructions15.wav,NA,0,NA,NA,NA,NA,NA,NA,NA,NA,NA,NA,NA,NA,NA,NA,NA,NA,NA,NA,NA,NA,NA,NA,NA,NA,NA
audio-instructions,54,809628,0.0-7.2-1.2,voc_e2,11745,"[{""event"":""fullscreenenter"",""trial"":1,""time"":16207}]",NA,1982.0999999642372,static/audio/instructions16.wav,NA,0,NA,NA,NA,NA,NA,NA,NA,NA,NA,NA,NA,NA,NA,NA,NA,NA,NA,NA,NA,NA,NA,NA,NA,NA,NA
audio-instructions,55,818129,0.0-7.2-2.2,voc_e2,11745,"[{""event"":""fullscreenenter"",""trial"":1,""time"":16207}]",NA,823.3000000119209,static/audio/instructions17.wav,NA,0,NA,NA,NA,NA,NA,NA,NA,NA,NA,NA,NA,NA,NA,NA,NA,NA,NA,NA,NA,NA,NA,NA,NA,NA,NA
audio-instructions,56,827122,0.0-7.2-3.2,voc_e2,11745,"[{""event"":""fullscreenenter"",""trial"":1,""time"":16207}]",NA,1225.800000011921,static/audio/instructions18.wav,NA,0,NA,NA,NA,NA,NA,NA,NA,NA,NA,NA,NA,NA,NA,NA,NA,NA,NA,NA,NA,NA,NA,NA,NA,NA,NA
audio-instructions,57,834465,0.0-7.2-4.2,voc_e2,11745,"[{""event"":""fullscreenenter"",""trial"":1,""time"":16207}]",NA,598.6000000238419,static/audio/instructions19.wav,NA,0,NA,NA,NA,NA,NA,NA,NA,NA,NA,NA,NA,NA,NA,NA,NA,NA,NA,NA,NA,NA,NA,NA,NA,NA,NA
fcp-comprehension,58,928819,0.0-7.2-5.2,voc_e2,11745,"[{""event"":""fullscreenenter"",""trial"":1,""time"":16207}]",NA,94349.20000004768,NA,NA,NA,NA,NA,NA,NA,NA,NA,NA,NA,NA,NA,NA,NA,NA,NA,NA,"true,false,false,false",2,NA,NA,NA,NA,NA,NA,NA,NA
audio-instructions,59,936866,0.0-7.3-0.3,voc_e2,11745,"[{""event"":""fullscreenenter"",""trial"":1,""time"":16207}]",NA,869.7000000476837,static/audio/instructions15.wav,NA,0,NA,NA,NA,NA,NA,NA,NA,NA,NA,NA,NA,NA,NA,NA,NA,NA,NA,NA,NA,NA,NA,NA,NA,NA,NA
audio-instructions,60,945671,0.0-7.3-1.3,voc_e2,11745,"[{""event"":""fullscreenenter"",""trial"":1,""time"":16207}]",NA,1973.699999988079,static/audio/instructions16.wav,NA,0,NA,NA,NA,NA,NA,NA,NA,NA,NA,NA,NA,NA,NA,NA,NA,NA,NA,NA,NA,NA,NA,NA,NA,NA,NA
audio-instructions,61,958107,0.0-7.3-2.3,voc_e2,11745,"[{""event"":""fullscreenenter"",""trial"":1,""time"":16207}]",NA,4760.399999976158,static/audio/instructions17.wav,NA,0,NA,NA,NA,NA,NA,NA,NA,NA,NA,NA,NA,NA,NA,NA,NA,NA,NA,NA,NA,NA,NA,NA,NA,NA,NA
audio-instructions,62,967274,0.0-7.3-3.3,voc_e2,11745,"[{""event"":""fullscreenenter"",""trial"":1,""time"":16207}]",NA,1397.699999988079,static/audio/instructions18.wav,NA,0,NA,NA,NA,NA,NA,NA,NA,NA,NA,NA,NA,NA,NA,NA,NA,NA,NA,NA,NA,NA,NA,NA,NA,NA,NA
audio-instructions,63,975626,0.0-7.3-4.3,voc_e2,11745,"[{""event"":""fullscreenenter"",""trial"":1,""time"":16207}]",NA,1599.600000023842,static/audio/instructions19.wav,NA,0,NA,NA,NA,NA,NA,NA,NA,NA,NA,NA,NA,NA,NA,NA,NA,NA,NA,NA,NA,NA,NA,NA,NA,NA,NA
fcp-comprehension,64,989817,0.0-7.3-5.3,voc_e2,11745,"[{""event"":""fullscreenenter"",""trial"":1,""time"":16207}]",NA,14189.299999952316,NA,NA,NA,NA,NA,NA,NA,NA,NA,NA,NA,NA,NA,NA,NA,NA,NA,NA,"true,true,true,true",3,NA,NA,NA,NA,NA,NA,NA,NA
audio-instructions,65,997772,0.0-7.4-0.4,voc_e2,11745,"[{""event"":""fullscreenenter"",""trial"":1,""time"":16207}]",NA,1046,static/audio/instructions15.wav,NA,0,NA,NA,NA,NA,NA,NA,NA,NA,NA,NA,NA,NA,NA,NA,NA,NA,NA,NA,NA,NA,NA,NA,NA,NA,NA
audio-instructions,66,1005777,0.0-7.4-1.4,voc_e2,11745,"[{""event"":""fullscreenenter"",""trial"":1,""time"":16207}]",NA,1180.199999988079,static/audio/instructions16.wav,NA,0,NA,NA,NA,NA,NA,NA,NA,NA,NA,NA,NA,NA,NA,NA,NA,NA,NA,NA,NA,NA,NA,NA,NA,NA,NA
audio-instructions,67,1014969,0.0-7.4-2.4,voc_e2,11745,"[{""event"":""fullscreenenter"",""trial"":1,""time"":16207}]",NA,1512.199999988079,static/audio/instructions17.wav,NA,0,NA,NA,NA,NA,NA,NA,NA,NA,NA,NA,NA,NA,NA,NA,NA,NA,NA,NA,NA,NA,NA,NA,NA,NA,NA
audio-instructions,68,1023300,0.0-7.4-3.4,voc_e2,11745,"[{""event"":""fullscreenenter"",""trial"":1,""time"":16207}]",NA,563.1999999880791,static/audio/instructions18.wav,NA,0,NA,NA,NA,NA,NA,NA,NA,NA,NA,NA,NA,NA,NA,NA,NA,NA,NA,NA,NA,NA,NA,NA,NA,NA,NA
audio-instructions,69,1030711,0.0-7.4-4.4,voc_e2,11745,"[{""event"":""fullscreenenter"",""trial"":1,""time"":16207}]",NA,675,static/audio/instructions19.wav,NA,0,NA,NA,NA,NA,NA,NA,NA,NA,NA,NA,NA,NA,NA,NA,NA,NA,NA,NA,NA,NA,NA,NA,NA,NA,NA
fcp-comprehension,70,1057697,0.0-7.4-5.4,voc_e2,11745,"[{""event"":""fullscreenenter"",""trial"":1,""time"":16207}]",NA,26984.30000001192,NA,NA,NA,NA,NA,NA,NA,NA,NA,NA,NA,NA,NA,NA,NA,NA,NA,NA,"false,false,false,true",0,NA,NA,NA,NA,NA,NA,NA,NA
audio-instructions,71,1068194,0.0-8.0,voc_e2,11745,"[{""event"":""fullscreenenter"",""trial"":1,""time"":16207}]",NA,1277.2000000476835,static/audio/ready.wav,NA,0,NA,NA,NA,NA,NA,NA,NA,NA,NA,NA,NA,NA,NA,NA,NA,NA,NA,NA,NA,NA,NA,NA,NA,NA,NA
fcp-trial,72,1072624,0.0-9.0-0.0,voc_e2,11745,"[{""event"":""fullscreenenter"",""trial"":1,""time"":16207}]",NA,NA,NA,NA,NA,3,#D8271C,#741CD8,0,0,1,38,1,1714.300000011921,39,0,1189.100000023842,0,0,experiment,NA,NA,2,0.5,0.5,4,5,1,1,NA
fcp-trial,73,1077193,0.0-10.0-0.0,voc_e2,11745,"[{""event"":""fullscreenenter"",""trial"":1,""time"":16207}]",NA,NA,NA,NA,NA,1,#1CD855,#FA92F8,10,0,1,38,1,2221.7999999523163,37,1,823.8999999761581,10,1,experiment,NA,NA,1,0.7,0.3,2,3,2,1,NA
fcp-trial,74,1081159,0.0-11.0-0.0,voc_e2,11745,"[{""event"":""fullscreenenter"",""trial"":1,""time"":16207}]",NA,NA,NA,NA,NA,4,#3386FF,#D89F1C,10,0,1,38,1,1280,37,1,1163.399999976158,10,1,experiment,NA,NA,0,0.9,0.1,0,1,3,1,NA
fcp-trial,75,1084642,0.0-12.0-0.0,voc_e2,11745,"[{""event"":""fullscreenenter"",""trial"":1,""time"":16207}]",NA,NA,NA,NA,NA,5,#741CD8,#D8271C,0,10,0,38,1,1245.7000000476837,37,1,706.7999999523163,0,0,experiment,NA,NA,2,0.5,0.5,5,4,4,1,NA
fcp-trial,76,1088726,0.0-13.0-0.0,voc_e2,11745,"[{""event"":""fullscreenenter"",""trial"":1,""time"":16207}]",NA,NA,NA,NA,NA,2,#3386FF,#D89F1C,10,0,1,38,1,1605.699999988079,37,1,954.8000000119208,10,1,experiment,NA,NA,0,0.9,0.1,0,1,5,1,NA
fcp-trial,77,1092034,0.0-14.0-0.0,voc_e2,11745,"[{""event"":""fullscreenenter"",""trial"":1,""time"":16207}]",NA,NA,NA,NA,NA,3,#3386FF,#D89F1C,0,0,1,38,1,1110,37,1,668.6999999880791,0,1,experiment,NA,NA,0,0.9,0.1,0,1,6,1,NA
fcp-trial,78,1095127,0.0-15.0-0.0,voc_e2,11745,"[{""event"":""fullscreenenter"",""trial"":1,""time"":16207}]",NA,NA,NA,NA,NA,5,#FA92F8,#1CD855,10,0,0,38,1,762.1999999880791,37,1,812.1000000238419,10,0,experiment,NA,NA,1,0.3,0.7,3,2,7,1,NA
fcp-trial,79,1098261,0.0-16.0-0.0,voc_e2,11745,"[{""event"":""fullscreenenter"",""trial"":1,""time"":16207}]",NA,NA,NA,NA,NA,6,#741CD8,#D8271C,0,10,0,38,1,803,37,1,814.1999999880791,0,0,experiment,NA,NA,2,0.5,0.5,5,4,8,1,NA
fcp-trial,80,1101685,0.0-17.0-0.0,voc_e2,11745,"[{""event"":""fullscreenenter"",""trial"":1,""time"":16207}]",NA,NA,NA,NA,NA,5,#D89F1C,#3386FF,0,10,0,38,1,781.8000000119209,39,0,1128.100000023842,10,1,experiment,NA,NA,0,0.1,0.9,1,0,9,1,NA
fcp-trial,81,1105147,0.0-18.0-0.0,voc_e2,11745,"[{""event"":""fullscreenenter"",""trial"":1,""time"":16207}]",NA,NA,NA,NA,NA,0,#D8271C,#741CD8,0,10,1,38,1,1063.6000000238419,37,1,893,0,1,experiment,NA,NA,2,0.5,0.5,4,5,10,1,NA
fcp-trial,82,1109368,0.0-19.0-0.0,voc_e2,11745,"[{""event"":""fullscreenenter"",""trial"":1,""time"":16207}]",NA,NA,NA,NA,NA,6,#D89F1C,#3386FF,0,10,0,38,1,1749.300000011921,39,0,964.6999999880792,10,1,experiment,NA,NA,0,0.1,0.9,1,0,11,1,NA
fcp-trial,83,1113258,0.0-20.0-0.0,voc_e2,11745,"[{""event"":""fullscreenenter"",""trial"":1,""time"":16207}]",NA,NA,NA,NA,NA,3,#FA92F8,#1CD855,0,10,0,38,1,1147.3999999761581,37,1,1237,0,0,experiment,NA,NA,1,0.3,0.7,3,2,12,1,NA
fcp-trial,84,1116121,0.0-21.0-0.0,voc_e2,11745,"[{""event"":""fullscreenenter"",""trial"":1,""time"":16207}]",NA,NA,NA,NA,NA,6,#FA92F8,#1CD855,0,10,0,38,1,649.6999999880791,37,1,700.3999999761581,0,0,experiment,NA,NA,1,0.3,0.7,3,2,13,1,NA
fcp-trial,85,1119095,0.0-22.0-0.0,voc_e2,11745,"[{""event"":""fullscreenenter"",""trial"":1,""time"":16207}]",NA,NA,NA,NA,NA,1,#D8271C,#741CD8,0,0,1,38,1,742.1999999880791,37,1,726.3000000119209,0,1,experiment,NA,NA,2,0.5,0.5,4,5,14,1,NA
fcp-trial,86,1121800,0.0-23.0-0.0,voc_e2,11745,"[{""event"":""fullscreenenter"",""trial"":1,""time"":16207}]",NA,NA,NA,NA,NA,0,#3386FF,#D89F1C,10,0,1,38,1,724.8999999761581,37,1,464.7000000476837,10,1,experiment,NA,NA,0,0.9,0.1,0,1,15,1,NA
fcp-trial,87,1125808,0.0-24.0-0.0,voc_e2,11745,"[{""event"":""fullscreenenter"",""trial"":1,""time"":16207}]",NA,NA,NA,NA,NA,4,#1CD855,#FA92F8,10,0,1,38,1,1555,39,0,946.2000000476836,0,0,experiment,NA,NA,1,0.7,0.3,2,3,16,1,NA
fcp-trial,88,1129420,0.0-25.0-0.0,voc_e2,11745,"[{""event"":""fullscreenenter"",""trial"":1,""time"":16207}]",NA,NA,NA,NA,NA,4,#D8271C,#741CD8,0,10,1,38,1,685.9000000357628,39,0,1421.0999999642372,10,0,experiment,NA,NA,2,0.5,0.5,4,5,17,1,NA
fcp-trial,89,1133715,0.0-26.0-0.0,voc_e2,11745,"[{""event"":""fullscreenenter"",""trial"":1,""time"":16207}]",NA,NA,NA,NA,NA,2,#1CD855,#FA92F8,10,10,1,38,1,1675.1000000238419,37,1,1112.800000011921,10,1,experiment,NA,NA,1,0.7,0.3,2,3,18,1,NA
fcp-trial,90,1136753,0.0-27.0-0.0,voc_e2,11745,"[{""event"":""fullscreenenter"",""trial"":1,""time"":16207}]",NA,NA,NA,NA,NA,1,#D89F1C,#3386FF,0,10,0,38,1,848.1999999880791,39,0,683.1999999880791,10,1,experiment,NA,NA,0,0.1,0.9,1,0,19,1,NA
fcp-trial,91,1139880,0.0-28.0-0.0,voc_e2,11745,"[{""event"":""fullscreenenter"",""trial"":1,""time"":16207}]",NA,NA,NA,NA,NA,0,#1CD855,#FA92F8,10,10,1,38,1,959.3999999761581,37,1,661.6999999880791,10,1,experiment,NA,NA,1,0.7,0.3,2,3,20,1,NA
fcp-trial,92,1143674,0.0-29.0-0.0,voc_e2,11745,"[{""event"":""fullscreenenter"",""trial"":1,""time"":16207}]",NA,NA,NA,NA,NA,2,#741CD8,#D8271C,0,10,0,38,1,547.5,39,0,1734.300000011921,10,1,experiment,NA,NA,2,0.5,0.5,5,4,21,1,NA
fcp-trial,93,1146623,0.0-30.0-0.0,voc_e2,11745,"[{""event"":""fullscreenenter"",""trial"":1,""time"":16207}]",NA,NA,NA,NA,NA,4,#D89F1C,#3386FF,0,10,0,38,1,872.6999999880791,39,0,571,10,1,experiment,NA,NA,0,0.1,0.9,1,0,22,1,NA
fcp-trial,94,1149382,0.0-31.0-0.0,voc_e2,11745,"[{""event"":""fullscreenenter"",""trial"":1,""time"":16207}]",NA,NA,NA,NA,NA,3,#741CD8,#D8271C,0,0,0,38,1,606.1000000238419,37,1,645.6000000238419,0,0,experiment,NA,NA,2,0.5,0.5,5,4,23,1,NA
fcp-trial,95,1152167,0.0-32.0-0.0,voc_e2,11745,"[{""event"":""fullscreenenter"",""trial"":1,""time"":16207}]",NA,NA,NA,NA,NA,1,#1CD855,#FA92F8,10,0,1,38,1,682.1999999880791,37,1,596,10,1,experiment,NA,NA,1,0.7,0.3,2,3,24,1,NA
fcp-trial,96,1154751,0.0-33.0-0.0,voc_e2,11745,"[{""event"":""fullscreenenter"",""trial"":1,""time"":16207}]",NA,NA,NA,NA,NA,2,#1CD855,#FA92F8,10,0,1,38,1,444.89999997615814,37,1,633.5,10,1,experiment,NA,NA,1,0.7,0.3,2,3,25,1,NA
fcp-trial,97,1157495,0.0-34.0-0.0,voc_e2,11745,"[{""event"":""fullscreenenter"",""trial"":1,""time"":16207}]",NA,NA,NA,NA,NA,0,#1CD855,#FA92F8,0,0,1,38,1,741.8000000119209,37,1,498.199999988079,0,1,experiment,NA,NA,1,0.7,0.3,2,3,26,1,NA
fcp-trial,98,1160920,0.0-35.0-0.0,voc_e2,11745,"[{""event"":""fullscreenenter"",""trial"":1,""time"":16207}]",NA,NA,NA,NA,NA,2,#3386FF,#D89F1C,10,0,1,38,1,1030.1000000238419,37,1,881.5,10,1,experiment,NA,NA,0,0.9,0.1,0,1,27,1,NA
fcp-trial,99,1164339,0.0-36.0-0.0,voc_e2,11745,"[{""event"":""fullscreenenter"",""trial"":1,""time"":16207}]",NA,NA,NA,NA,NA,2,#D8271C,#741CD8,10,0,1,38,1,1094.800000011921,37,1,818.7999999523163,10,1,experiment,NA,NA,2,0.5,0.5,4,5,28,1,NA
fcp-trial,100,1167277,0.0-37.0-0.0,voc_e2,11745,"[{""event"":""fullscreenenter"",""trial"":1,""time"":16207}]",NA,NA,NA,NA,NA,5,#D8271C,#741CD8,0,0,1,38,1,853.3999999761581,37,1,580.2000000476837,0,1,experiment,NA,NA,2,0.5,0.5,4,5,29,1,NA
fcp-trial,101,1170737,0.0-38.0-0.0,voc_e2,11745,"[{""event"":""fullscreenenter"",""trial"":1,""time"":16207}]",NA,NA,NA,NA,NA,6,#FA92F8,#1CD855,0,0,0,38,1,989.6999999880791,39,0,962.899999976158,0,1,experiment,NA,NA,1,0.3,0.7,3,2,30,1,NA
fcp-trial,102,1173978,0.0-39.0-0.0,voc_e2,11745,"[{""event"":""fullscreenenter"",""trial"":1,""time"":16207}]",NA,NA,NA,NA,NA,3,#1CD855,#FA92F8,0,0,1,38,1,981.8999999761581,37,1,753.1000000238419,0,1,experiment,NA,NA,1,0.7,0.3,2,3,31,1,NA
fcp-trial,103,1176618,0.0-40.0-0.0,voc_e2,11745,"[{""event"":""fullscreenenter"",""trial"":1,""time"":16207}]",NA,NA,NA,NA,NA,6,#3386FF,#D89F1C,10,10,1,38,1,654.4000000357628,37,1,480.300000011921,10,1,experiment,NA,NA,0,0.9,0.1,0,1,32,1,NA
fcp-trial,104,1179441,0.0-41.0-0.0,voc_e2,11745,"[{""event"":""fullscreenenter"",""trial"":1,""time"":16207}]",NA,NA,NA,NA,NA,6,#D8271C,#741CD8,0,0,1,38,1,500.69999998807907,37,1,807.6000000238419,0,1,experiment,NA,NA,2,0.5,0.5,4,5,33,1,NA
fcp-trial,105,1182831,0.0-42.0-0.0,voc_e2,11745,"[{""event"":""fullscreenenter"",""trial"":1,""time"":16207}]",NA,NA,NA,NA,NA,4,#741CD8,#D8271C,0,0,0,38,1,983.3999999761581,39,0,901.600000023842,0,1,experiment,NA,NA,2,0.5,0.5,5,4,34,1,NA
fcp-trial,106,1185545,0.0-43.0-0.0,voc_e2,11745,"[{""event"":""fullscreenenter"",""trial"":1,""time"":16207}]",NA,NA,NA,NA,NA,3,#D89F1C,#3386FF,0,10,0,38,1,505.5,39,0,691.8999999761581,10,1,experiment,NA,NA,0,0.1,0.9,1,0,35,1,NA
fcp-trial,107,1188192,0.0-44.0-0.0,voc_e2,11745,"[{""event"":""fullscreenenter"",""trial"":1,""time"":16207}]",NA,NA,NA,NA,NA,4,#1CD855,#FA92F8,10,10,1,38,1,505.80000001192093,37,1,636.3000000119209,10,1,experiment,NA,NA,1,0.7,0.3,2,3,36,1,NA
fcp-trial,108,1191069,0.0-45.0-0.0,voc_e2,11745,"[{""event"":""fullscreenenter"",""trial"":1,""time"":16207}]",NA,NA,NA,NA,NA,0,#3386FF,#D89F1C,10,0,1,38,1,772.7999999523163,37,1,598.1999999880791,10,1,experiment,NA,NA,0,0.9,0.1,0,1,37,1,NA
fcp-trial,109,1193713,0.0-46.0-0.0,voc_e2,11745,"[{""event"":""fullscreenenter"",""trial"":1,""time"":16207}]",NA,NA,NA,NA,NA,5,#3386FF,#D89F1C,10,0,1,38,1,574.4000000357628,37,1,563.1000000238419,10,1,experiment,NA,NA,0,0.9,0.1,0,1,38,1,NA
fcp-trial,110,1196900,0.0-47.0-0.0,voc_e2,11745,"[{""event"":""fullscreenenter"",""trial"":1,""time"":16207}]",NA,NA,NA,NA,NA,0,#D8271C,#741CD8,10,10,1,38,1,994.6000000238419,37,1,678.8999999761581,10,1,experiment,NA,NA,2,0.5,0.5,4,5,39,1,NA
fcp-trial,111,1199782,0.0-48.0-0.0,voc_e2,11745,"[{""event"":""fullscreenenter"",""trial"":1,""time"":16207}]",NA,NA,NA,NA,NA,1,#741CD8,#D8271C,0,0,0,38,1,810.8000000119209,37,1,560.1000000238419,0,0,experiment,NA,NA,2,0.5,0.5,5,4,40,1,NA
fcp-trial,112,1203031,0.0-49.0-0.0,voc_e2,11745,"[{""event"":""fullscreenenter"",""trial"":1,""time"":16207}]",NA,NA,NA,NA,NA,5,#FA92F8,#1CD855,0,0,0,38,1,897.8000000119209,39,0,837.5,0,1,experiment,NA,NA,1,0.3,0.7,3,2,41,1,NA
fcp-trial,113,1205790,0.0-50.0-0.0,voc_e2,11745,"[{""event"":""fullscreenenter"",""trial"":1,""time"":16207}]",NA,NA,NA,NA,NA,1,#D89F1C,#3386FF,10,10,0,38,1,695.7000000476837,39,0,550.1999999880791,10,1,experiment,NA,NA,0,0.1,0.9,1,0,42,1,NA
fcp-trial,114,1209255,0.0-51.0-0.0,voc_e2,11745,"[{""event"":""fullscreenenter"",""trial"":1,""time"":16207}]",NA,NA,NA,NA,NA,5,#D89F1C,#3386FF,0,10,0,38,1,1113.6000000238419,39,0,844.8999999761581,10,1,experiment,NA,NA,0,0.1,0.9,1,0,43,1,NA
fcp-trial,115,1212844,0.0-52.0-0.0,voc_e2,11745,"[{""event"":""fullscreenenter"",""trial"":1,""time"":16207}]",NA,NA,NA,NA,NA,3,#1CD855,#FA92F8,10,0,1,38,1,729.1999999880791,37,1,1353.399999976158,10,1,experiment,NA,NA,1,0.7,0.3,2,3,44,1,NA
fcp-trial,116,1215789,0.0-53.0-0.0,voc_e2,11745,"[{""event"":""fullscreenenter"",""trial"":1,""time"":16207}]",NA,NA,NA,NA,NA,4,#D8271C,#741CD8,0,10,1,38,1,585.5,37,1,854.3000000119209,0,1,experiment,NA,NA,2,0.5,0.5,4,5,45,1,NA
fcp-trial,117,1218919,0.0-54.0-0.0,voc_e2,11745,"[{""event"":""fullscreenenter"",""trial"":1,""time"":16207}]",NA,NA,NA,NA,NA,5,#FA92F8,#1CD855,10,0,0,38,1,712.6999999880791,39,0,910.600000023842,0,1,experiment,NA,NA,1,0.3,0.7,3,2,46,2,NA
fcp-trial,118,1221738,0.0-55.0-0.0,voc_e2,11745,"[{""event"":""fullscreenenter"",""trial"":1,""time"":16207}]",NA,NA,NA,NA,NA,0,#D89F1C,#3386FF,0,10,0,38,1,611,39,0,694,10,1,experiment,NA,NA,0,0.1,0.9,1,0,47,2,NA
fcp-trial,119,1225224,0.0-56.0-0.0,voc_e2,11745,"[{""event"":""fullscreenenter"",""trial"":1,""time"":16207}]",NA,NA,NA,NA,NA,2,#3386FF,#D89F1C,0,0,1,38,1,965.0999999642372,37,1,1007.600000023842,0,1,experiment,NA,NA,0,0.9,0.1,0,1,48,2,NA
fcp-trial,120,1228665,0.0-57.0-0.0,voc_e2,11745,"[{""event"":""fullscreenenter"",""trial"":1,""time"":16207}]",NA,NA,NA,NA,NA,5,#741CD8,#D8271C,0,10,0,38,1,963.5,37,1,969.3000000119208,0,0,experiment,NA,NA,2,0.5,0.5,5,4,49,2,NA
fcp-trial,121,1231503,0.0-58.0-0.0,voc_e2,11745,"[{""event"":""fullscreenenter"",""trial"":1,""time"":16207}]",NA,NA,NA,NA,NA,4,#FA92F8,#1CD855,0,10,0,38,1,688.6000000238419,39,0,642.7999999523163,10,1,experiment,NA,NA,1,0.3,0.7,3,2,50,2,NA
fcp-trial,122,1234281,0.0-59.0-0.0,voc_e2,11745,"[{""event"":""fullscreenenter"",""trial"":1,""time"":16207}]",NA,NA,NA,NA,NA,6,#D89F1C,#3386FF,10,0,0,38,1,611.6000000238419,39,0,655,0,1,experiment,NA,NA,0,0.1,0.9,1,0,51,2,NA
fcp-trial,123,1237383,0.0-60.0-0.0,voc_e2,11745,"[{""event"":""fullscreenenter"",""trial"":1,""time"":16207}]",NA,NA,NA,NA,NA,6,#1CD855,#FA92F8,10,10,1,38,1,649.1000000238419,37,1,949.100000023842,10,1,experiment,NA,NA,1,0.7,0.3,2,3,52,2,NA
fcp-trial,124,1240590,0.0-61.0-0.0,voc_e2,11745,"[{""event"":""fullscreenenter"",""trial"":1,""time"":16207}]",NA,NA,NA,NA,NA,0,#741CD8,#D8271C,10,0,0,38,1,692.8000000119209,39,0,1008.899999976158,0,1,experiment,NA,NA,2,0.5,0.5,5,4,53,2,NA
fcp-trial,125,1245094,0.0-62.0-0.0,voc_e2,11745,"[{""event"":""fullscreenenter"",""trial"":1,""time"":16207}]",NA,NA,NA,NA,NA,6,#D8271C,#741CD8,0,0,1,38,1,1600.3999999761581,37,1,1398.399999976158,0,1,experiment,NA,NA,2,0.5,0.5,4,5,54,2,NA
fcp-trial,126,1247545,0.0-63.0-0.0,voc_e2,11745,"[{""event"":""fullscreenenter"",""trial"":1,""time"":16207}]",NA,NA,NA,NA,NA,1,#3386FF,#D89F1C,10,0,1,38,1,518.7000000476837,37,1,426.699999988079,10,1,experiment,NA,NA,0,0.9,0.1,0,1,55,2,NA
fcp-trial,127,1251242,0.0-64.0-0.0,voc_e2,11745,"[{""event"":""fullscreenenter"",""trial"":1,""time"":16207}]",NA,NA,NA,NA,NA,2,#1CD855,#FA92F8,0,0,1,38,1,919.7999999523163,37,1,1270.699999988079,0,1,experiment,NA,NA,1,0.7,0.3,2,3,56,2,NA
fcp-trial,128,1253948,0.0-65.0-0.0,voc_e2,11745,"[{""event"":""fullscreenenter"",""trial"":1,""time"":16207}]",NA,NA,NA,NA,NA,1,#1CD855,#FA92F8,10,10,1,38,1,691.5,39,0,509.0999999642372,10,0,experiment,NA,NA,1,0.7,0.3,2,3,57,2,NA
fcp-trial,129,1257445,0.0-66.0-0.0,voc_e2,11745,"[{""event"":""fullscreenenter"",""trial"":1,""time"":16207}]",NA,NA,NA,NA,NA,2,#D8271C,#741CD8,0,0,1,38,1,647.6999999880791,39,0,1343.600000023842,0,0,experiment,NA,NA,2,0.5,0.5,4,5,58,2,NA
fcp-trial,130,1260927,0.0-67.0-0.0,voc_e2,11745,"[{""event"":""fullscreenenter"",""trial"":1,""time"":16207}]",NA,NA,NA,NA,NA,1,#D8271C,#741CD8,10,0,1,38,1,619.1000000238419,37,1,1356.0999999642372,10,1,experiment,NA,NA,2,0.5,0.5,4,5,59,2,NA
fcp-trial,131,1264398,0.0-68.0-0.0,voc_e2,11745,"[{""event"":""fullscreenenter"",""trial"":1,""time"":16207}]",NA,NA,NA,NA,NA,3,#3386FF,#D89F1C,10,0,1,38,1,672.2000000476837,37,1,1294.899999976158,10,1,experiment,NA,NA,0,0.9,0.1,0,1,60,2,NA
fcp-trial,132,1267688,0.0-69.0-0.0,voc_e2,11745,"[{""event"":""fullscreenenter"",""trial"":1,""time"":16207}]",NA,NA,NA,NA,NA,0,#FA92F8,#1CD855,0,10,0,38,1,1029.5,37,1,754.1999999880791,0,0,experiment,NA,NA,1,0.3,0.7,3,2,61,2,NA
fcp-trial,133,1271424,0.0-70.0-0.0,voc_e2,11745,"[{""event"":""fullscreenenter"",""trial"":1,""time"":16207}]",NA,NA,NA,NA,NA,3,#D8271C,#741CD8,10,10,1,38,1,1271.8999999761581,39,0,950.1999999880792,10,0,experiment,NA,NA,2,0.5,0.5,4,5,62,2,NA
fcp-trial,134,1274617,0.0-71.0-0.0,voc_e2,11745,"[{""event"":""fullscreenenter"",""trial"":1,""time"":16207}]",NA,NA,NA,NA,NA,4,#3386FF,#D89F1C,10,0,1,38,1,898.1000000238419,37,1,789.1999999880791,10,1,experiment,NA,NA,0,0.9,0.1,0,1,63,2,NA
fcp-trial,135,1277660,0.0-72.0-0.0,voc_e2,11745,"[{""event"":""fullscreenenter"",""trial"":1,""time"":16207}]",NA,NA,NA,NA,NA,2,#3386FF,#D89F1C,10,0,1,38,1,689.5999999642372,37,1,848.8000000119209,10,1,experiment,NA,NA,0,0.9,0.1,0,1,64,2,NA
fcp-trial,136,1280683,0.0-73.0-0.0,voc_e2,11745,"[{""event"":""fullscreenenter"",""trial"":1,""time"":16207}]",NA,NA,NA,NA,NA,6,#741CD8,#D8271C,10,10,0,38,1,744.3000000119209,37,1,772.2000000476837,10,0,experiment,NA,NA,2,0.5,0.5,5,4,65,2,NA
fcp-trial,137,1283751,0.0-74.0-0.0,voc_e2,11745,"[{""event"":""fullscreenenter"",""trial"":1,""time"":16207}]",NA,NA,NA,NA,NA,2,#1CD855,#FA92F8,10,10,1,38,1,546.1000000238419,37,1,1017.6999999880792,10,1,experiment,NA,NA,1,0.7,0.3,2,3,66,2,NA
fcp-trial,138,1286764,0.0-75.0-0.0,voc_e2,11745,"[{""event"":""fullscreenenter"",""trial"":1,""time"":16207}]",NA,NA,NA,NA,NA,6,#FA92F8,#1CD855,0,0,0,38,1,718.0999999642372,39,0,787.9000000357628,0,1,experiment,NA,NA,1,0.3,0.7,3,2,67,2,NA
fcp-trial,139,1289776,0.0-76.0-0.0,voc_e2,11745,"[{""event"":""fullscreenenter"",""trial"":1,""time"":16207}]",NA,NA,NA,NA,NA,6,#3386FF,#D89F1C,10,0,1,38,1,1016.5999999642372,37,1,491.0999999642372,10,1,experiment,NA,NA,0,0.9,0.1,0,1,68,2,NA
fcp-trial,140,1293017,0.0-77.0-0.0,voc_e2,11745,"[{""event"":""fullscreenenter"",""trial"":1,""time"":16207}]",NA,NA,NA,NA,NA,1,#741CD8,#D8271C,0,0,0,38,1,837.8999999761581,39,0,894.5,0,1,experiment,NA,NA,2,0.5,0.5,5,4,69,2,NA
fcp-trial,141,1296090,0.0-78.0-0.0,voc_e2,11745,"[{""event"":""fullscreenenter"",""trial"":1,""time"":16207}]",NA,NA,NA,NA,NA,4,#3386FF,#D89F1C,10,0,1,38,1,986.6000000238419,37,1,578.8000000119209,10,1,experiment,NA,NA,0,0.9,0.1,0,1,70,2,NA
fcp-trial,142,1299578,0.0-79.0-0.0,voc_e2,11745,"[{""event"":""fullscreenenter"",""trial"":1,""time"":16207}]",NA,NA,NA,NA,NA,5,#D89F1C,#3386FF,0,0,0,38,1,1302.5999999642372,39,0,672.1000000238419,0,1,experiment,NA,NA,0,0.1,0.9,1,0,71,2,NA
fcp-trial,143,1302701,0.0-80.0-0.0,voc_e2,11745,"[{""event"":""fullscreenenter"",""trial"":1,""time"":16207}]",NA,NA,NA,NA,NA,0,#1CD855,#FA92F8,10,10,1,38,1,808.6999999880791,37,1,806.8000000119209,10,1,experiment,NA,NA,1,0.7,0.3,2,3,72,2,NA
fcp-trial,144,1306322,0.0-81.0-0.0,voc_e2,11745,"[{""event"":""fullscreenenter"",""trial"":1,""time"":16207}]",NA,NA,NA,NA,NA,0,#D89F1C,#3386FF,0,10,0,38,1,1077.1000000238419,39,0,1038.800000011921,10,1,experiment,NA,NA,0,0.1,0.9,1,0,73,2,NA
fcp-trial,145,1309498,0.0-82.0-0.0,voc_e2,11745,"[{""event"":""fullscreenenter"",""trial"":1,""time"":16207}]",NA,NA,NA,NA,NA,4,#741CD8,#D8271C,10,0,0,38,1,817.8000000119209,39,0,843.9000000357628,0,1,experiment,NA,NA,2,0.5,0.5,5,4,74,2,NA
fcp-trial,146,1312445,0.0-83.0-0.0,voc_e2,11745,"[{""event"":""fullscreenenter"",""trial"":1,""time"":16207}]",NA,NA,NA,NA,NA,3,#FA92F8,#1CD855,10,0,0,38,1,865.6999999880791,39,0,573.8999999761581,0,1,experiment,NA,NA,1,0.3,0.7,3,2,75,2,NA
fcp-trial,147,1315741,0.0-84.0-0.0,voc_e2,11745,"[{""event"":""fullscreenenter"",""trial"":1,""time"":16207}]",NA,NA,NA,NA,NA,0,#741CD8,#D8271C,0,0,0,38,1,528.5999999642372,39,0,1260.0999999642372,0,1,experiment,NA,NA,2,0.5,0.5,5,4,76,2,NA
fcp-trial,148,1319128,0.0-85.0-0.0,voc_e2,11745,"[{""event"":""fullscreenenter"",""trial"":1,""time"":16207}]",NA,NA,NA,NA,NA,5,#1CD855,#FA92F8,0,0,1,38,1,817.5,37,1,1057.699999988079,0,1,experiment,NA,NA,1,0.7,0.3,2,3,77,2,NA
fcp-trial,149,1321904,0.0-86.0-0.0,voc_e2,11745,"[{""event"":""fullscreenenter"",""trial"":1,""time"":16207}]",NA,NA,NA,NA,NA,1,#3386FF,#D89F1C,10,0,1,38,1,772.5999999642372,37,1,496.300000011921,10,1,experiment,NA,NA,0,0.9,0.1,0,1,78,2,NA
fcp-trial,150,1324892,0.0-87.0-0.0,voc_e2,11745,"[{""event"":""fullscreenenter"",""trial"":1,""time"":16207}]",NA,NA,NA,NA,NA,5,#741CD8,#D8271C,10,10,0,38,1,894.3000000119209,39,0,582.6000000238419,10,1,experiment,NA,NA,2,0.5,0.5,5,4,79,2,NA
fcp-trial,151,1329268,0.0-88.0-0.0,voc_e2,11745,"[{""event"":""fullscreenenter"",""trial"":1,""time"":16207}]",NA,NA,NA,NA,NA,3,#3386FF,#D89F1C,10,0,1,38,1,1088.800000011921,37,1,1779.300000011921,10,1,experiment,NA,NA,0,0.9,0.1,0,1,80,2,NA
fcp-trial,152,1333166,0.0-89.0-0.0,voc_e2,11745,"[{""event"":""fullscreenenter"",""trial"":1,""time"":16207}]",NA,NA,NA,NA,NA,1,#FA92F8,#1CD855,0,10,0,38,1,896.8000000119209,39,0,1494.0999999642372,10,1,experiment,NA,NA,1,0.3,0.7,3,2,81,2,NA
fcp-trial,153,1336148,0.0-90.0-0.0,voc_e2,11745,"[{""event"":""fullscreenenter"",""trial"":1,""time"":16207}]",NA,NA,NA,NA,NA,2,#741CD8,#D8271C,0,10,0,38,1,493.30000001192093,39,0,981.899999976158,10,1,experiment,NA,NA,2,0.5,0.5,5,4,82,2,NA
fcp-trial,154,1340356,0.0-91.0-0.0,voc_e2,11745,"[{""event"":""fullscreenenter"",""trial"":1,""time"":16207}]",NA,NA,NA,NA,NA,4,#1CD855,#FA92F8,10,0,1,38,1,1038.300000011921,39,0,1662.4000000357628,0,0,experiment,NA,NA,1,0.7,0.3,2,3,83,2,NA
fcp-trial,155,1346846,0.0-92.0-0.0,voc_e2,11745,"[{""event"":""fullscreenenter"",""trial"":1,""time"":16207}]",NA,NA,NA,NA,NA,3,#741CD8,#D8271C,10,10,0,38,1,1973.5999999642372,39,0,3011.099999964237,10,1,experiment,NA,NA,2,0.5,0.5,5,4,84,2,NA
fcp-trial,156,1350094,0.0-93.0-0.0,voc_e2,11745,"[{""event"":""fullscreenenter"",""trial"":1,""time"":16207}]",NA,NA,NA,NA,NA,2,#741CD8,#D8271C,0,0,0,38,1,981.8999999761581,39,0,761.6000000238419,0,1,experiment,NA,NA,2,0.5,0.5,5,4,85,2,NA
fcp-trial,157,1353820,0.0-94.0-0.0,voc_e2,11745,"[{""event"":""fullscreenenter"",""trial"":1,""time"":16207}]",NA,NA,NA,NA,NA,3,#D89F1C,#3386FF,0,10,0,38,1,1014,39,0,1201,10,1,experiment,NA,NA,0,0.1,0.9,1,0,86,2,NA
fcp-trial,158,1358365,0.0-95.0-0.0,voc_e2,11745,"[{""event"":""fullscreenenter"",""trial"":1,""time"":16207}]",NA,NA,NA,NA,NA,1,#FA92F8,#1CD855,10,10,0,38,1,1836.199999988079,39,0,1201.7000000476835,10,1,experiment,NA,NA,1,0.3,0.7,3,2,87,2,NA
fcp-trial,159,1363102,0.0-96.0-0.0,voc_e2,11745,"[{""event"":""fullscreenenter"",""trial"":1,""time"":16207}]",NA,NA,NA,NA,NA,6,#3386FF,#D89F1C,10,0,1,40,0,1928.699999988079,37,1,1302.2000000476835,10,1,experiment,NA,NA,0,0.9,0.1,0,1,88,2,NA
fcp-trial,160,1366368,0.0-97.0-0.0,voc_e2,11745,"[{""event"":""fullscreenenter"",""trial"":1,""time"":16207}]",NA,NA,NA,NA,NA,5,#741CD8,#D8271C,10,10,0,38,1,927.7000000476837,39,0,834.0999999642372,10,1,experiment,NA,NA,2,0.5,0.5,5,4,89,2,NA
fcp-trial,161,1369605,0.0-98.0-0.0,voc_e2,11745,"[{""event"":""fullscreenenter"",""trial"":1,""time"":16207}]",NA,NA,NA,NA,NA,4,#1CD855,#FA92F8,10,10,1,38,1,1240.7999999523163,37,1,489.5,10,1,experiment,NA,NA,1,0.7,0.3,2,3,90,2,NA
fcp-trial,162,1372480,0.0-99.0-0.0,voc_e2,11745,"[{""event"":""fullscreenenter"",""trial"":1,""time"":16207}]",NA,NA,NA,NA,NA,3,#741CD8,#D8271C,10,10,0,38,1,724.3999999761581,39,0,644.1000000238419,10,1,experiment,NA,NA,2,0.5,0.5,5,4,91,3,NA
fcp-trial,163,1375919,0.0-100.0-0.0,voc_e2,11745,"[{""event"":""fullscreenenter"",""trial"":1,""time"":16207}]",NA,NA,NA,NA,NA,2,#3386FF,#D89F1C,10,0,1,38,1,983.1999999880791,37,1,943.399999976158,10,1,experiment,NA,NA,0,0.9,0.1,0,1,92,3,NA
fcp-trial,164,1378834,0.0-101.0-0.0,voc_e2,11745,"[{""event"":""fullscreenenter"",""trial"":1,""time"":16207}]",NA,NA,NA,NA,NA,4,#3386FF,#D89F1C,10,0,1,38,1,694.4000000357628,37,1,715.5999999642372,10,1,experiment,NA,NA,0,0.9,0.1,0,1,93,3,NA
fcp-trial,165,1381690,0.0-102.0-0.0,voc_e2,11745,"[{""event"":""fullscreenenter"",""trial"":1,""time"":16207}]",NA,NA,NA,NA,NA,6,#FA92F8,#1CD855,0,10,0,38,1,753.4000000357628,39,0,597.6999999880791,10,1,experiment,NA,NA,1,0.3,0.7,3,2,94,3,NA
fcp-trial,166,1384865,0.0-103.0-0.0,voc_e2,11745,"[{""event"":""fullscreenenter"",""trial"":1,""time"":16207}]",NA,NA,NA,NA,NA,6,#741CD8,#D8271C,10,0,0,38,1,822.1999999880791,39,0,848.3000000119209,0,1,experiment,NA,NA,2,0.5,0.5,5,4,95,3,NA
fcp-trial,167,1388080,0.0-104.0-0.0,voc_e2,11745,"[{""event"":""fullscreenenter"",""trial"":1,""time"":16207}]",NA,NA,NA,NA,NA,3,#FA92F8,#1CD855,0,0,0,38,1,897.8000000119209,39,0,809.2000000476837,0,1,experiment,NA,NA,1,0.3,0.7,3,2,96,3,NA
fcp-trial,168,1391062,0.0-105.0-0.0,voc_e2,11745,"[{""event"":""fullscreenenter"",""trial"":1,""time"":16207}]",NA,NA,NA,NA,NA,1,#D89F1C,#3386FF,0,10,0,38,1,907.8000000119209,39,0,561.4000000357628,10,1,experiment,NA,NA,0,0.1,0.9,1,0,97,3,NA
fcp-trial,169,1394983,0.0-106.0-0.0,voc_e2,11745,"[{""event"":""fullscreenenter"",""trial"":1,""time"":16207}]",NA,NA,NA,NA,NA,2,#1CD855,#FA92F8,10,10,1,38,1,1478,37,1,932.5,10,1,experiment,NA,NA,1,0.7,0.3,2,3,98,3,NA
fcp-trial,170,1398355,0.0-107.0-0.0,voc_e2,11745,"[{""event"":""fullscreenenter"",""trial"":1,""time"":16207}]",NA,NA,NA,NA,NA,0,#D8271C,#741CD8,10,0,1,38,1,1177.8999999761581,37,1,683.9000000357628,10,1,experiment,NA,NA,2,0.5,0.5,4,5,99,3,NA
fcp-trial,171,1401033,0.0-108.0-0.0,voc_e2,11745,"[{""event"":""fullscreenenter"",""trial"":1,""time"":16207}]",NA,NA,NA,NA,NA,5,#3386FF,#D89F1C,10,0,1,38,1,672.7000000476837,37,1,499.4000000357628,10,1,experiment,NA,NA,0,0.9,0.1,0,1,100,3,NA
fcp-trial,172,1405018,0.0-109.0-0.0,voc_e2,11745,"[{""event"":""fullscreenenter"",""trial"":1,""time"":16207}]",NA,NA,NA,NA,NA,5,#FA92F8,#1CD855,10,0,0,38,1,1509.8999999761581,39,0,967.6999999880792,0,1,experiment,NA,NA,1,0.3,0.7,3,2,101,3,NA
fcp-trial,173,1407907,0.0-110.0-0.0,voc_e2,11745,"[{""event"":""fullscreenenter"",""trial"":1,""time"":16207}]",NA,NA,NA,NA,NA,0,#FA92F8,#1CD855,10,10,0,38,1,899.5999999642372,39,0,485,10,1,experiment,NA,NA,1,0.3,0.7,3,2,102,3,NA
fcp-trial,174,1411348,0.0-111.0-0.0,voc_e2,11745,"[{""event"":""fullscreenenter"",""trial"":1,""time"":16207}]",NA,NA,NA,NA,NA,1,#D8271C,#741CD8,10,10,1,38,1,752.9000000357628,37,1,1183.399999976158,10,1,experiment,NA,NA,2,0.5,0.5,4,5,103,3,NA
fcp-trial,175,1414670,0.0-112.0-0.0,voc_e2,11745,"[{""event"":""fullscreenenter"",""trial"":1,""time"":16207}]",NA,NA,NA,NA,NA,4,#741CD8,#D8271C,10,10,0,38,1,668.8999999761581,39,0,1141.699999988079,10,1,experiment,NA,NA,2,0.5,0.5,5,4,104,3,NA
fcp-trial,176,1418124,0.0-113.0-0.0,voc_e2,11745,"[{""event"":""fullscreenenter"",""trial"":1,""time"":16207}]",NA,NA,NA,NA,NA,0,#D89F1C,#3386FF,0,10,0,38,1,1070.9000000357628,39,0,875.8000000119209,10,1,experiment,NA,NA,0,0.1,0.9,1,0,105,3,NA
audio-instructions,177,1467505,0.0-114.0,voc_e2,11745,"[{""event"":""fullscreenenter"",""trial"":1,""time"":16207}]",NA,44615.5,static/audio/pause.wav,NA,0,NA,NA,NA,NA,NA,NA,NA,NA,NA,NA,NA,NA,NA,NA,NA,NA,NA,NA,NA,NA,NA,NA,NA,NA,NA
fcp-trial,178,1472721,0.0-115.0-0.0,voc_e2,11745,"[{""event"":""fullscreenenter"",""trial"":1,""time"":16207}]",NA,NA,NA,NA,NA,5,#D8271C,#741CD8,10,10,1,38,1,2243.099999964237,37,1,1465.399999976158,10,1,experiment,NA,NA,2,0.5,0.5,4,5,106,3,NA
fcp-trial,179,1476971,0.0-116.0-0.0,voc_e2,11745,"[{""event"":""fullscreenenter"",""trial"":1,""time"":16207}]",NA,NA,NA,NA,NA,6,#D89F1C,#3386FF,0,10,0,38,1,1374.9000000357628,39,0,1369.199999988079,10,1,experiment,NA,NA,0,0.1,0.9,1,0,107,3,NA
fcp-trial,180,1480282,0.0-117.0-0.0,voc_e2,11745,"[{""event"":""fullscreenenter"",""trial"":1,""time"":16207}]",NA,NA,NA,NA,NA,1,#741CD8,#D8271C,10,10,0,38,1,980.8999999761581,39,0,826.6999999880791,10,1,experiment,NA,NA,2,0.5,0.5,5,4,108,3,NA
fcp-trial,181,1483214,0.0-118.0-0.0,voc_e2,11745,"[{""event"":""fullscreenenter"",""trial"":1,""time"":16207}]",NA,NA,NA,NA,NA,5,#FA92F8,#1CD855,0,10,0,38,1,853.1999999880791,39,0,567.2000000476837,10,1,experiment,NA,NA,1,0.3,0.7,3,2,109,3,NA
fcp-trial,182,1486630,0.0-119.0-0.0,voc_e2,11745,"[{""event"":""fullscreenenter"",""trial"":1,""time"":16207}]",NA,NA,NA,NA,NA,2,#D89F1C,#3386FF,0,10,0,38,1,922.9000000357628,39,0,986.1999999880792,10,1,experiment,NA,NA,0,0.1,0.9,1,0,110,3,NA
fcp-trial,183,1489465,0.0-120.0-0.0,voc_e2,11745,"[{""event"":""fullscreenenter"",""trial"":1,""time"":16207}]",NA,NA,NA,NA,NA,0,#D89F1C,#3386FF,0,10,0,38,1,562.8999999761581,39,0,767.8999999761581,10,1,experiment,NA,NA,0,0.1,0.9,1,0,111,3,NA
fcp-trial,184,1492973,0.0-121.0-0.0,voc_e2,11745,"[{""event"":""fullscreenenter"",""trial"":1,""time"":16207}]",NA,NA,NA,NA,NA,4,#FA92F8,#1CD855,0,10,0,38,1,1034.5,39,0,959.100000023842,10,1,experiment,NA,NA,1,0.3,0.7,3,2,112,3,NA
fcp-trial,185,1496135,0.0-122.0-0.0,voc_e2,11745,"[{""event"":""fullscreenenter"",""trial"":1,""time"":16207}]",NA,NA,NA,NA,NA,6,#D8271C,#741CD8,10,0,1,38,1,732.8000000119209,37,1,923.0999999642372,10,1,experiment,NA,NA,2,0.5,0.5,4,5,113,3,NA
fcp-trial,186,1499153,0.0-123.0-0.0,voc_e2,11745,"[{""event"":""fullscreenenter"",""trial"":1,""time"":16207}]",NA,NA,NA,NA,NA,4,#D8271C,#741CD8,0,10,1,38,1,590,37,1,914.899999976158,0,1,experiment,NA,NA,2,0.5,0.5,4,5,114,3,NA
fcp-trial,187,1502092,0.0-124.0-0.0,voc_e2,11745,"[{""event"":""fullscreenenter"",""trial"":1,""time"":16207}]",NA,NA,NA,NA,NA,6,#FA92F8,#1CD855,10,10,0,38,1,855.3999999761581,39,0,572.3000000119209,10,1,experiment,NA,NA,1,0.3,0.7,3,2,115,3,NA
fcp-trial,188,1504881,0.0-125.0-0.0,voc_e2,11745,"[{""event"":""fullscreenenter"",""trial"":1,""time"":16207}]",NA,NA,NA,NA,NA,4,#D89F1C,#3386FF,0,10,0,38,1,735.9000000357628,39,0,549,10,1,experiment,NA,NA,0,0.1,0.9,1,0,116,3,NA
fcp-trial,189,1507852,0.0-126.0-0.0,voc_e2,11745,"[{""event"":""fullscreenenter"",""trial"":1,""time"":16207}]",NA,NA,NA,NA,NA,3,#3386FF,#D89F1C,10,0,1,38,1,929,37,1,536.2999999523163,10,1,experiment,NA,NA,0,0.9,0.1,0,1,117,3,NA
fcp-trial,190,1510586,0.0-127.0-0.0,voc_e2,11745,"[{""event"":""fullscreenenter"",""trial"":1,""time"":16207}]",NA,NA,NA,NA,NA,3,#1CD855,#FA92F8,0,10,1,38,1,730,37,1,491.699999988079,0,1,experiment,NA,NA,1,0.7,0.3,2,3,118,3,NA
fcp-trial,191,1513803,0.0-128.0-0.0,voc_e2,11745,"[{""event"":""fullscreenenter"",""trial"":1,""time"":16207}]",NA,NA,NA,NA,NA,0,#D8271C,#741CD8,10,10,1,38,1,652.1000000238419,37,1,1053.600000023842,10,1,experiment,NA,NA,2,0.5,0.5,4,5,119,3,NA
fcp-trial,192,1516797,0.0-129.0-0.0,voc_e2,11745,"[{""event"":""fullscreenenter"",""trial"":1,""time"":16207}]",NA,NA,NA,NA,NA,2,#1CD855,#FA92F8,10,0,1,38,1,536.5,37,1,949.0999999642372,10,1,experiment,NA,NA,1,0.7,0.3,2,3,120,3,NA
fcp-trial,193,1519529,0.0-130.0-0.0,voc_e2,11745,"[{""event"":""fullscreenenter"",""trial"":1,""time"":16207}]",NA,NA,NA,NA,NA,0,#1CD855,#FA92F8,10,0,1,38,1,615.2999999523163,37,1,610.5,10,1,experiment,NA,NA,1,0.7,0.3,2,3,121,3,NA
fcp-trial,194,1522184,0.0-131.0-0.0,voc_e2,11745,"[{""event"":""fullscreenenter"",""trial"":1,""time"":16207}]",NA,NA,NA,NA,NA,5,#3386FF,#D89F1C,10,0,1,38,1,565.1999999880791,37,1,584.5,10,1,experiment,NA,NA,0,0.9,0.1,0,1,122,3,NA
fcp-trial,195,1525100,0.0-132.0-0.0,voc_e2,11745,"[{""event"":""fullscreenenter"",""trial"":1,""time"":16207}]",NA,NA,NA,NA,NA,1,#FA92F8,#1CD855,0,0,0,38,1,525.7000000476837,39,0,884.6999999880791,0,1,experiment,NA,NA,1,0.3,0.7,3,2,123,3,NA
fcp-trial,196,1528244,0.0-133.0-0.0,voc_e2,11745,"[{""event"":""fullscreenenter"",""trial"":1,""time"":16207}]",NA,NA,NA,NA,NA,3,#741CD8,#D8271C,0,0,0,38,1,669.5,39,0,969.399999976158,0,1,experiment,NA,NA,2,0.5,0.5,5,4,124,3,NA
fcp-trial,197,1532243,0.0-134.0-0.0,voc_e2,11745,"[{""event"":""fullscreenenter"",""trial"":1,""time"":16207}]",NA,NA,NA,NA,NA,2,#741CD8,#D8271C,0,0,0,40,0,1235.4000000357628,39,0,1258,0,1,experiment,NA,NA,2,0.5,0.5,5,4,125,3,NA
fcp-trial,198,1535585,0.0-135.0-0.0,voc_e2,11745,"[{""event"":""fullscreenenter"",""trial"":1,""time"":16207}]",NA,NA,NA,NA,NA,1,#3386FF,#D89F1C,10,10,1,38,1,1283.0999999642372,37,1,552.1000000238419,10,1,experiment,NA,NA,0,0.9,0.1,0,1,126,3,NA
fcp-trial,199,1538793,0.0-136.0-0.0,voc_e2,11745,"[{""event"":""fullscreenenter"",""trial"":1,""time"":16207}]",NA,NA,NA,NA,NA,1,#3386FF,#D89F1C,0,0,1,38,1,1002.6999999880791,37,1,700.2999999523163,0,1,experiment,NA,NA,0,0.9,0.1,0,1,127,3,NA
fcp-trial,200,1541465,0.0-137.0-0.0,voc_e2,11745,"[{""event"":""fullscreenenter"",""trial"":1,""time"":16207}]",NA,NA,NA,NA,NA,3,#741CD8,#D8271C,10,10,0,38,1,565,39,0,599,10,1,experiment,NA,NA,2,0.5,0.5,5,4,128,3,NA
fcp-trial,201,1545263,0.0-138.0-0.0,voc_e2,11745,"[{""event"":""fullscreenenter"",""trial"":1,""time"":16207}]",NA,NA,NA,NA,NA,6,#FA92F8,#1CD855,0,10,0,38,1,744.1000000238419,39,0,1549.2000000476835,10,1,experiment,NA,NA,1,0.3,0.7,3,2,129,3,NA
fcp-trial,202,1548251,0.0-139.0-0.0,voc_e2,11745,"[{""event"":""fullscreenenter"",""trial"":1,""time"":16207}]",NA,NA,NA,NA,NA,4,#1CD855,#FA92F8,0,0,1,38,1,929.5,37,1,555.1999999880791,0,1,experiment,NA,NA,1,0.7,0.3,2,3,130,3,NA
fcp-trial,203,1552931,0.0-140.0-0.0,voc_e2,11745,"[{""event"":""fullscreenenter"",""trial"":1,""time"":16207}]",NA,NA,NA,NA,NA,5,#741CD8,#D8271C,10,10,0,38,1,1252.0999999642372,39,0,1922.100000023842,10,1,experiment,NA,NA,2,0.5,0.5,5,4,131,3,NA
fcp-trial,204,1555951,0.0-141.0-0.0,voc_e2,11745,"[{""event"":""fullscreenenter"",""trial"":1,""time"":16207}]",NA,NA,NA,NA,NA,2,#D89F1C,#3386FF,0,10,0,38,1,949,39,0,563.6999999880791,10,1,experiment,NA,NA,0,0.1,0.9,1,0,132,3,NA
fcp-trial,205,1559044,0.0-142.0-0.0,voc_e2,11745,"[{""event"":""fullscreenenter"",""trial"":1,""time"":16207}]",NA,NA,NA,NA,NA,6,#D8271C,#741CD8,10,0,1,38,1,624.3999999761581,37,1,951.1999999880792,10,1,experiment,NA,NA,2,0.5,0.5,4,5,133,3,NA
fcp-trial,206,1561863,0.0-143.0-0.0,voc_e2,11745,"[{""event"":""fullscreenenter"",""trial"":1,""time"":16207}]",NA,NA,NA,NA,NA,4,#3386FF,#D89F1C,10,0,1,38,1,739.7000000476837,37,1,572.7999999523163,10,1,experiment,NA,NA,0,0.9,0.1,0,1,134,3,NA
fcp-trial,207,1564729,0.0-144.0-0.0,voc_e2,11745,"[{""event"":""fullscreenenter"",""trial"":1,""time"":16207}]",NA,NA,NA,NA,NA,5,#1CD855,#FA92F8,10,0,1,38,1,635.2000000476837,39,0,724.3000000119209,0,0,experiment,NA,NA,1,0.7,0.3,2,3,135,3,NA
fcp-trial,208,1567470,0.0-145.0-0.0,voc_e2,11745,"[{""event"":""fullscreenenter"",""trial"":1,""time"":16207}]",NA,NA,NA,NA,NA,0,#3386FF,#D89F1C,10,0,1,38,1,745.8999999761581,37,1,488.5999999642372,10,1,experiment,NA,NA,0,0.9,0.1,0,1,136,4,NA
fcp-trial,209,1570346,0.0-146.0-0.0,voc_e2,11745,"[{""event"":""fullscreenenter"",""trial"":1,""time"":16207}]",NA,NA,NA,NA,NA,0,#1CD855,#FA92F8,10,0,1,38,1,682.5,37,1,688.8999999761581,10,1,experiment,NA,NA,1,0.7,0.3,2,3,137,4,NA
fcp-trial,210,1573734,0.0-147.0-0.0,voc_e2,11745,"[{""event"":""fullscreenenter"",""trial"":1,""time"":16207}]",NA,NA,NA,NA,NA,1,#D8271C,#741CD8,0,0,1,38,1,887.4000000357628,37,1,995.899999976158,0,1,experiment,NA,NA,2,0.5,0.5,4,5,138,4,NA
fcp-trial,211,1576996,0.0-148.0-0.0,voc_e2,11745,"[{""event"":""fullscreenenter"",""trial"":1,""time"":16207}]",NA,NA,NA,NA,NA,6,#3386FF,#D89F1C,10,0,1,38,1,976.1999999880791,37,1,780.6999999880791,10,1,experiment,NA,NA,0,0.9,0.1,0,1,139,4,NA
fcp-trial,212,1579989,0.0-149.0-0.0,voc_e2,11745,"[{""event"":""fullscreenenter"",""trial"":1,""time"":16207}]",NA,NA,NA,NA,NA,4,#D8271C,#741CD8,10,10,1,38,1,729.6000000238419,37,1,758.3999999761581,10,1,experiment,NA,NA,2,0.5,0.5,4,5,140,4,NA
fcp-trial,213,1583416,0.0-150.0-0.0,voc_e2,11745,"[{""event"":""fullscreenenter"",""trial"":1,""time"":16207}]",NA,NA,NA,NA,NA,2,#FA92F8,#1CD855,10,10,0,38,1,719.3000000119209,39,0,1201.600000023842,10,1,experiment,NA,NA,1,0.3,0.7,3,2,141,4,NA
fcp-trial,214,1586252,0.0-151.0-0.0,voc_e2,11745,"[{""event"":""fullscreenenter"",""trial"":1,""time"":16207}]",NA,NA,NA,NA,NA,5,#3386FF,#D89F1C,10,0,1,38,1,739.5,37,1,591.5999999642372,10,1,experiment,NA,NA,0,0.9,0.1,0,1,142,4,NA
fcp-trial,215,1589474,0.0-152.0-0.0,voc_e2,11745,"[{""event"":""fullscreenenter"",""trial"":1,""time"":16207}]",NA,NA,NA,NA,NA,2,#741CD8,#D8271C,10,10,0,38,1,749.4000000357628,39,0,968.5,10,1,experiment,NA,NA,2,0.5,0.5,5,4,143,4,NA
fcp-trial,216,1593031,0.0-153.0-0.0,voc_e2,11745,"[{""event"":""fullscreenenter"",""trial"":1,""time"":16207}]",NA,NA,NA,NA,NA,3,#3386FF,#D89F1C,10,0,1,38,1,1101.7999999523163,37,1,940.7000000476836,10,1,experiment,NA,NA,0,0.9,0.1,0,1,144,4,NA
fcp-trial,217,1596145,0.0-154.0-0.0,voc_e2,11745,"[{""event"":""fullscreenenter"",""trial"":1,""time"":16207}]",NA,NA,NA,NA,NA,0,#D8271C,#741CD8,10,0,1,38,1,831.6000000238419,37,1,773.3000000119209,10,1,experiment,NA,NA,2,0.5,0.5,4,5,145,4,NA
fcp-trial,218,1599375,0.0-155.0-0.0,voc_e2,11745,"[{""event"":""fullscreenenter"",""trial"":1,""time"":16207}]",NA,NA,NA,NA,NA,3,#1CD855,#FA92F8,10,0,1,38,1,945.8000000119209,37,1,771.6000000238419,10,1,experiment,NA,NA,1,0.7,0.3,2,3,146,4,NA
fcp-trial,219,1602418,0.0-156.0-0.0,voc_e2,11745,"[{""event"":""fullscreenenter"",""trial"":1,""time"":16207}]",NA,NA,NA,NA,NA,1,#FA92F8,#1CD855,0,10,0,38,1,857.8000000119209,39,0,670.3000000119209,10,1,experiment,NA,NA,1,0.3,0.7,3,2,147,4,NA
fcp-trial,220,1605837,0.0-157.0-0.0,voc_e2,11745,"[{""event"":""fullscreenenter"",""trial"":1,""time"":16207}]",NA,NA,NA,NA,NA,2,#D8271C,#741CD8,0,10,1,38,1,659.6000000238419,37,1,1252.800000011921,0,1,experiment,NA,NA,2,0.5,0.5,4,5,148,4,NA
fcp-trial,221,1608824,0.0-158.0-0.0,voc_e2,11745,"[{""event"":""fullscreenenter"",""trial"":1,""time"":16207}]",NA,NA,NA,NA,NA,5,#D89F1C,#3386FF,0,10,0,38,1,583.6999999880791,39,0,896.6000000238419,10,1,experiment,NA,NA,0,0.1,0.9,1,0,149,4,NA
fcp-trial,222,1611533,0.0-159.0-0.0,voc_e2,11745,"[{""event"":""fullscreenenter"",""trial"":1,""time"":16207}]",NA,NA,NA,NA,NA,0,#FA92F8,#1CD855,0,0,0,38,1,648.3000000119209,39,0,554.0999999642372,0,1,experiment,NA,NA,1,0.3,0.7,3,2,150,4,NA
fcp-trial,223,1614493,0.0-160.0-0.0,voc_e2,11745,"[{""event"":""fullscreenenter"",""trial"":1,""time"":16207}]",NA,NA,NA,NA,NA,6,#D89F1C,#3386FF,0,10,0,38,1,671.7000000476837,39,0,783.0999999642372,10,1,experiment,NA,NA,0,0.1,0.9,1,0,151,4,NA
fcp-trial,224,1617365,0.0-161.0-0.0,voc_e2,11745,"[{""event"":""fullscreenenter"",""trial"":1,""time"":16207}]",NA,NA,NA,NA,NA,0,#741CD8,#D8271C,0,0,0,38,1,610,39,0,748.6000000238419,0,1,experiment,NA,NA,2,0.5,0.5,5,4,152,4,NA
fcp-trial,225,1621067,0.0-162.0-0.0,voc_e2,11745,"[{""event"":""fullscreenenter"",""trial"":1,""time"":16207}]",NA,NA,NA,NA,NA,2,#1CD855,#FA92F8,10,10,1,38,1,971,37,1,1223.5,10,1,experiment,NA,NA,1,0.7,0.3,2,3,153,4,NA
fcp-trial,226,1624397,0.0-163.0-0.0,voc_e2,11745,"[{""event"":""fullscreenenter"",""trial"":1,""time"":16207}]",NA,NA,NA,NA,NA,1,#D89F1C,#3386FF,0,10,0,38,1,620.3999999761581,39,0,1203.199999988079,10,1,experiment,NA,NA,0,0.1,0.9,1,0,154,4,NA
fcp-trial,227,1627237,0.0-164.0-0.0,voc_e2,11745,"[{""event"":""fullscreenenter"",""trial"":1,""time"":16207}]",NA,NA,NA,NA,NA,3,#D8271C,#741CD8,10,0,1,38,1,601.6999999880791,37,1,725.3000000119209,10,1,experiment,NA,NA,2,0.5,0.5,4,5,155,4,NA
fcp-trial,228,1630389,0.0-165.0-0.0,voc_e2,11745,"[{""event"":""fullscreenenter"",""trial"":1,""time"":16207}]",NA,NA,NA,NA,NA,5,#D8271C,#741CD8,0,10,1,38,1,662.8000000119209,37,1,984.0999999642372,0,1,experiment,NA,NA,2,0.5,0.5,4,5,156,4,NA
fcp-trial,229,1633533,0.0-166.0-0.0,voc_e2,11745,"[{""event"":""fullscreenenter"",""trial"":1,""time"":16207}]",NA,NA,NA,NA,NA,1,#1CD855,#FA92F8,10,10,1,38,1,711.3999999761581,37,1,927.399999976158,10,1,experiment,NA,NA,1,0.7,0.3,2,3,157,4,NA
fcp-trial,230,1636657,0.0-167.0-0.0,voc_e2,11745,"[{""event"":""fullscreenenter"",""trial"":1,""time"":16207}]",NA,NA,NA,NA,NA,3,#D89F1C,#3386FF,0,10,0,38,1,767.8999999761581,39,0,849.6999999880791,10,1,experiment,NA,NA,0,0.1,0.9,1,0,158,4,NA
fcp-trial,231,1640425,0.0-168.0-0.0,voc_e2,11745,"[{""event"":""fullscreenenter"",""trial"":1,""time"":16207}]",NA,NA,NA,NA,NA,6,#FA92F8,#1CD855,0,10,0,38,1,1072.1000000238419,39,0,1190.2999999523165,10,1,experiment,NA,NA,1,0.3,0.7,3,2,159,4,NA
fcp-trial,232,1644154,0.0-169.0-0.0,voc_e2,11745,"[{""event"":""fullscreenenter"",""trial"":1,""time"":16207}]",NA,NA,NA,NA,NA,4,#FA92F8,#1CD855,0,10,0,38,1,841.8000000119209,39,0,1381.5,10,1,experiment,NA,NA,1,0.3,0.7,3,2,160,4,NA
fcp-trial,233,1647375,0.0-170.0-0.0,voc_e2,11745,"[{""event"":""fullscreenenter"",""trial"":1,""time"":16207}]",NA,NA,NA,NA,NA,1,#D8271C,#741CD8,0,10,1,38,1,1009.2999999523163,37,1,704.8000000119209,0,1,experiment,NA,NA,2,0.5,0.5,4,5,161,4,NA
fcp-trial,234,1650518,0.0-171.0-0.0,voc_e2,11745,"[{""event"":""fullscreenenter"",""trial"":1,""time"":16207}]",NA,NA,NA,NA,NA,3,#1CD855,#FA92F8,10,10,1,38,1,761.1000000238419,37,1,874.5999999642372,10,1,experiment,NA,NA,1,0.7,0.3,2,3,162,4,NA
fcp-trial,235,1653328,0.0-172.0-0.0,voc_e2,11745,"[{""event"":""fullscreenenter"",""trial"":1,""time"":16207}]",NA,NA,NA,NA,NA,0,#D89F1C,#3386FF,0,10,0,38,1,684.8999999761581,39,0,617.9000000357628,10,1,experiment,NA,NA,0,0.1,0.9,1,0,163,4,NA
fcp-trial,236,1656522,0.0-173.0-0.0,voc_e2,11745,"[{""event"":""fullscreenenter"",""trial"":1,""time"":16207}]",NA,NA,NA,NA,NA,6,#D8271C,#741CD8,10,10,1,38,1,1053,37,1,626.1000000238419,10,1,experiment,NA,NA,2,0.5,0.5,4,5,164,4,NA
fcp-trial,237,1659120,0.0-174.0-0.0,voc_e2,11745,"[{""event"":""fullscreenenter"",""trial"":1,""time"":16207}]",NA,NA,NA,NA,NA,4,#3386FF,#D89F1C,10,0,1,38,1,591.8999999761581,37,1,499.89999997615814,10,1,experiment,NA,NA,0,0.9,0.1,0,1,165,4,NA
fcp-trial,238,1662032,0.0-175.0-0.0,voc_e2,11745,"[{""event"":""fullscreenenter"",""trial"":1,""time"":16207}]",NA,NA,NA,NA,NA,2,#D89F1C,#3386FF,0,10,0,38,1,725.6999999880791,39,0,679.4000000357628,10,1,experiment,NA,NA,0,0.1,0.9,1,0,166,4,NA
fcp-trial,239,1664920,0.0-176.0-0.0,voc_e2,11745,"[{""event"":""fullscreenenter"",""trial"":1,""time"":16207}]",NA,NA,NA,NA,NA,5,#1CD855,#FA92F8,10,0,1,38,1,843.5999999642372,37,1,530.8000000119209,10,1,experiment,NA,NA,1,0.7,0.3,2,3,167,4,NA
fcp-trial,240,1668516,0.0-177.0-0.0,voc_e2,11745,"[{""event"":""fullscreenenter"",""trial"":1,""time"":16207}]",NA,NA,NA,NA,NA,4,#741CD8,#D8271C,10,10,0,38,1,1185.1000000238419,39,0,905.8000000119208,10,1,experiment,NA,NA,2,0.5,0.5,5,4,168,4,NA
fcp-trial,241,1671435,0.0-178.0-0.0,voc_e2,11745,"[{""event"":""fullscreenenter"",""trial"":1,""time"":16207}]",NA,NA,NA,NA,NA,0,#1CD855,#FA92F8,10,0,1,38,1,676.5,37,1,729.5,10,1,experiment,NA,NA,1,0.7,0.3,2,3,169,4,NA
fcp-trial,242,1674196,0.0-179.0-0.0,voc_e2,11745,"[{""event"":""fullscreenenter"",""trial"":1,""time"":16207}]",NA,NA,NA,NA,NA,3,#D89F1C,#3386FF,0,10,0,38,1,585.5,39,0,667.9000000357628,10,1,experiment,NA,NA,0,0.1,0.9,1,0,170,4,NA
fcp-trial,243,1677433,0.0-180.0-0.0,voc_e2,11745,"[{""event"":""fullscreenenter"",""trial"":1,""time"":16207}]",NA,NA,NA,NA,NA,5,#1CD855,#FA92F8,10,0,1,38,1,524.6000000238419,37,1,1199.800000011921,10,1,experiment,NA,NA,1,0.7,0.3,2,3,171,4,NA
fcp-trial,244,1680291,0.0-181.0-0.0,voc_e2,11745,"[{""event"":""fullscreenenter"",""trial"":1,""time"":16207}]",NA,NA,NA,NA,NA,6,#D89F1C,#3386FF,0,10,0,38,1,542.3999999761581,39,0,801.8000000119209,10,1,experiment,NA,NA,0,0.1,0.9,1,0,172,4,NA
fcp-trial,245,1683545,0.0-182.0-0.0,voc_e2,11745,"[{""event"":""fullscreenenter"",""trial"":1,""time"":16207}]",NA,NA,NA,NA,NA,6,#FA92F8,#1CD855,0,10,0,38,1,723.3000000119209,39,0,1023.100000023842,10,1,experiment,NA,NA,1,0.3,0.7,3,2,173,4,NA
fcp-trial,246,1686589,0.0-183.0-0.0,voc_e2,11745,"[{""event"":""fullscreenenter"",""trial"":1,""time"":16207}]",NA,NA,NA,NA,NA,5,#741CD8,#D8271C,10,10,0,38,1,842.7000000476837,39,0,694.6000000238419,10,1,experiment,NA,NA,2,0.5,0.5,5,4,174,4,NA
fcp-trial,247,1689504,0.0-184.0-0.0,voc_e2,11745,"[{""event"":""fullscreenenter"",""trial"":1,""time"":16207}]",NA,NA,NA,NA,NA,0,#741CD8,#D8271C,10,0,0,38,1,669.1999999880791,39,0,739.6999999880791,0,1,experiment,NA,NA,2,0.5,0.5,5,4,175,4,NA
fcp-trial,248,1692221,0.0-185.0-0.0,voc_e2,11745,"[{""event"":""fullscreenenter"",""trial"":1,""time"":16207}]",NA,NA,NA,NA,NA,1,#1CD855,#FA92F8,10,0,1,38,1,553.3000000119209,37,1,656.6999999880791,10,1,experiment,NA,NA,1,0.7,0.3,2,3,176,4,NA
fcp-trial,249,1695131,0.0-186.0-0.0,voc_e2,11745,"[{""event"":""fullscreenenter"",""trial"":1,""time"":16207}]",NA,NA,NA,NA,NA,0,#3386FF,#D89F1C,10,10,1,38,1,620.5999999642372,37,1,781.3999999761581,10,1,experiment,NA,NA,0,0.9,0.1,0,1,177,4,NA
fcp-trial,250,1698197,0.0-187.0-0.0,voc_e2,11745,"[{""event"":""fullscreenenter"",""trial"":1,""time"":16207}]",NA,NA,NA,NA,NA,3,#741CD8,#D8271C,0,10,0,38,1,691,39,0,868.6000000238419,10,1,experiment,NA,NA,2,0.5,0.5,5,4,178,4,NA
fcp-trial,251,1701056,0.0-188.0-0.0,voc_e2,11745,"[{""event"":""fullscreenenter"",""trial"":1,""time"":16207}]",NA,NA,NA,NA,NA,6,#741CD8,#D8271C,0,10,0,38,1,632,39,0,720.3999999761581,10,1,experiment,NA,NA,2,0.5,0.5,5,4,179,4,NA
fcp-trial,252,1703808,0.0-189.0-0.0,voc_e2,11745,"[{""event"":""fullscreenenter"",""trial"":1,""time"":16207}]",NA,NA,NA,NA,NA,2,#1CD855,#FA92F8,0,10,1,38,1,522.1999999880791,37,1,723.6000000238419,0,1,experiment,NA,NA,1,0.7,0.3,2,3,180,4,NA
fcp-trial,253,1706907,0.0-190.0-0.0,voc_e2,11745,"[{""event"":""fullscreenenter"",""trial"":1,""time"":16207}]",NA,NA,NA,NA,NA,1,#741CD8,#D8271C,0,0,0,38,1,584.6999999880791,39,0,1008,0,1,experiment,NA,NA,2,0.5,0.5,5,4,181,5,NA
fcp-trial,254,1709902,0.0-191.0-0.0,voc_e2,11745,"[{""event"":""fullscreenenter"",""trial"":1,""time"":16207}]",NA,NA,NA,NA,NA,5,#D89F1C,#3386FF,0,10,0,38,1,646.5999999642372,39,0,842.6999999880791,10,1,experiment,NA,NA,0,0.1,0.9,1,0,182,5,NA
fcp-trial,255,1712983,0.0-192.0-0.0,voc_e2,11745,"[{""event"":""fullscreenenter"",""trial"":1,""time"":16207}]",NA,NA,NA,NA,NA,1,#3386FF,#D89F1C,10,0,1,38,1,805.1000000238419,37,1,757.8000000119209,10,1,experiment,NA,NA,0,0.9,0.1,0,1,183,5,NA
fcp-trial,256,1716526,0.0-193.0-0.0,voc_e2,11745,"[{""event"":""fullscreenenter"",""trial"":1,""time"":16207}]",NA,NA,NA,NA,NA,3,#1CD855,#FA92F8,10,0,1,38,1,781.9000000357628,39,0,1245.399999976158,0,0,experiment,NA,NA,1,0.7,0.3,2,3,184,5,NA
fcp-trial,257,1721121,0.0-194.0-0.0,voc_e2,11745,"[{""event"":""fullscreenenter"",""trial"":1,""time"":16207}]",NA,NA,NA,NA,NA,4,#741CD8,#D8271C,10,0,0,40,0,1746.1000000238419,37,1,1334.300000011921,10,0,experiment,NA,NA,2,0.5,0.5,5,4,185,5,NA
fcp-trial,258,1724663,0.0-195.0-0.0,voc_e2,11745,"[{""event"":""fullscreenenter"",""trial"":1,""time"":16207}]",NA,NA,NA,NA,NA,2,#741CD8,#D8271C,0,10,0,38,1,1241.300000011921,37,1,786.5999999642372,0,0,experiment,NA,NA,2,0.5,0.5,5,4,186,5,NA
fcp-trial,259,1727341,0.0-196.0-0.0,voc_e2,11745,"[{""event"":""fullscreenenter"",""trial"":1,""time"":16207}]",NA,NA,NA,NA,NA,4,#FA92F8,#1CD855,10,10,0,38,1,643.1000000238419,39,0,529.1000000238419,10,1,experiment,NA,NA,1,0.3,0.7,3,2,187,5,NA
fcp-trial,260,1730637,0.0-197.0-0.0,voc_e2,11745,"[{""event"":""fullscreenenter"",""trial"":1,""time"":16207}]",NA,NA,NA,NA,NA,2,#D89F1C,#3386FF,0,10,0,38,1,1229.6000000238419,39,0,558.9000000357628,10,1,experiment,NA,NA,0,0.1,0.9,1,0,188,5,NA
fcp-trial,261,1733741,0.0-198.0-0.0,voc_e2,11745,"[{""event"":""fullscreenenter"",""trial"":1,""time"":16207}]",NA,NA,NA,NA,NA,4,#3386FF,#D89F1C,10,0,1,38,1,1070.5,37,1,519.5999999642372,10,1,experiment,NA,NA,0,0.9,0.1,0,1,189,5,NA
fcp-trial,262,1736549,0.0-199.0-0.0,voc_e2,11745,"[{""event"":""fullscreenenter"",""trial"":1,""time"":16207}]",NA,NA,NA,NA,NA,3,#741CD8,#D8271C,10,10,0,38,1,604.8999999761581,39,0,700.5,10,1,experiment,NA,NA,2,0.5,0.5,5,4,190,5,NA
fcp-trial,263,1739355,0.0-200.0-0.0,voc_e2,11745,"[{""event"":""fullscreenenter"",""trial"":1,""time"":16207}]",NA,NA,NA,NA,NA,3,#FA92F8,#1CD855,10,10,0,38,1,660.0999999642372,39,0,637.6000000238419,10,1,experiment,NA,NA,1,0.3,0.7,3,2,191,5,NA
fcp-trial,264,1742261,0.0-201.0-0.0,voc_e2,11745,"[{""event"":""fullscreenenter"",""trial"":1,""time"":16207}]",NA,NA,NA,NA,NA,6,#FA92F8,#1CD855,0,10,0,38,1,763.3000000119209,39,0,628.3000000119209,10,1,experiment,NA,NA,1,0.3,0.7,3,2,192,5,NA
fcp-trial,265,1745103,0.0-202.0-0.0,voc_e2,11745,"[{""event"":""fullscreenenter"",""trial"":1,""time"":16207}]",NA,NA,NA,NA,NA,1,#3386FF,#D89F1C,10,0,1,38,1,699.1999999880791,37,1,633.6999999880791,10,1,experiment,NA,NA,0,0.9,0.1,0,1,193,5,NA
fcp-trial,266,1748433,0.0-203.0-0.0,voc_e2,11745,"[{""event"":""fullscreenenter"",""trial"":1,""time"":16207}]",NA,NA,NA,NA,NA,5,#741CD8,#D8271C,0,10,0,38,1,466.2000000476837,39,0,1349.2999999523165,10,1,experiment,NA,NA,2,0.5,0.5,5,4,194,5,NA
fcp-trial,267,1751460,0.0-204.0-0.0,voc_e2,11745,"[{""event"":""fullscreenenter"",""trial"":1,""time"":16207}]",NA,NA,NA,NA,NA,5,#1CD855,#FA92F8,10,0,1,38,1,546.6000000238419,37,1,974,10,1,experiment,NA,NA,1,0.7,0.3,2,3,195,5,NA
fcp-trial,268,1754065,0.0-205.0-0.0,voc_e2,11745,"[{""event"":""fullscreenenter"",""trial"":1,""time"":16207}]",NA,NA,NA,NA,NA,2,#D89F1C,#3386FF,0,10,0,38,1,533.0999999642372,39,0,566.3000000119209,10,1,experiment,NA,NA,0,0.1,0.9,1,0,196,5,NA
fcp-trial,269,1756844,0.0-206.0-0.0,voc_e2,11745,"[{""event"":""fullscreenenter"",""trial"":1,""time"":16207}]",NA,NA,NA,NA,NA,1,#D8271C,#741CD8,10,0,1,38,1,680.0999999642372,37,1,593.3999999761581,10,1,experiment,NA,NA,2,0.5,0.5,4,5,197,5,NA
fcp-trial,270,1759594,0.0-207.0-0.0,voc_e2,11745,"[{""event"":""fullscreenenter"",""trial"":1,""time"":16207}]",NA,NA,NA,NA,NA,2,#741CD8,#D8271C,0,0,0,38,1,610.3999999761581,39,0,632,0,1,experiment,NA,NA,2,0.5,0.5,5,4,198,5,NA
fcp-trial,271,1762606,0.0-208.0-0.0,voc_e2,11745,"[{""event"":""fullscreenenter"",""trial"":1,""time"":16207}]",NA,NA,NA,NA,NA,4,#1CD855,#FA92F8,10,0,1,38,1,819.1000000238419,37,1,687.3000000119209,10,1,experiment,NA,NA,1,0.7,0.3,2,3,199,5,NA
fcp-trial,272,1766160,0.0-209.0-0.0,voc_e2,11745,"[{""event"":""fullscreenenter"",""trial"":1,""time"":16207}]",NA,NA,NA,NA,NA,3,#3386FF,#D89F1C,10,0,1,38,1,1193.1000000238419,37,1,847.8999999761581,10,1,experiment,NA,NA,0,0.9,0.1,0,1,200,5,NA
fcp-trial,273,1769465,0.0-210.0-0.0,voc_e2,11745,"[{""event"":""fullscreenenter"",""trial"":1,""time"":16207}]",NA,NA,NA,NA,NA,0,#1CD855,#FA92F8,10,0,1,38,1,900.5999999642372,39,0,896.3000000119209,0,0,experiment,NA,NA,1,0.7,0.3,2,3,201,5,NA
fcp-trial,274,1773027,0.0-211.0-0.0,voc_e2,11745,"[{""event"":""fullscreenenter"",""trial"":1,""time"":16207}]",NA,NA,NA,NA,NA,6,#D8271C,#741CD8,10,10,1,38,1,1331.0999999642372,37,1,721.8000000119209,10,1,experiment,NA,NA,2,0.5,0.5,4,5,202,5,NA
fcp-trial,275,1776144,0.0-212.0-0.0,voc_e2,11745,"[{""event"":""fullscreenenter"",""trial"":1,""time"":16207}]",NA,NA,NA,NA,NA,4,#741CD8,#D8271C,0,0,0,38,1,572.5,39,0,1037.9000000357628,0,1,experiment,NA,NA,2,0.5,0.5,5,4,203,5,NA
fcp-trial,276,1779100,0.0-213.0-0.0,voc_e2,11745,"[{""event"":""fullscreenenter"",""trial"":1,""time"":16207}]",NA,NA,NA,NA,NA,5,#3386FF,#D89F1C,0,0,1,38,1,891.3000000119209,37,1,555.1999999880791,0,1,experiment,NA,NA,0,0.9,0.1,0,1,204,5,NA
fcp-trial,277,1781994,0.0-214.0-0.0,voc_e2,11745,"[{""event"":""fullscreenenter"",""trial"":1,""time"":16207}]",NA,NA,NA,NA,NA,1,#1CD855,#FA92F8,10,0,1,38,1,574.1999999880791,37,1,814.5,10,1,experiment,NA,NA,1,0.7,0.3,2,3,205,5,NA
fcp-trial,278,1785669,0.0-215.0-0.0,voc_e2,11745,"[{""event"":""fullscreenenter"",""trial"":1,""time"":16207}]",NA,NA,NA,NA,NA,0,#741CD8,#D8271C,0,10,0,38,1,1083.5,39,0,1085.0999999642372,10,1,experiment,NA,NA,2,0.5,0.5,5,4,206,5,NA
fcp-trial,279,1788746,0.0-216.0-0.0,voc_e2,11745,"[{""event"":""fullscreenenter"",""trial"":1,""time"":16207}]",NA,NA,NA,NA,NA,6,#3386FF,#D89F1C,10,0,1,38,1,562,39,0,1009.2999999523164,0,0,experiment,NA,NA,0,0.9,0.1,0,1,207,5,NA
fcp-trial,280,1791501,0.0-217.0-0.0,voc_e2,11745,"[{""event"":""fullscreenenter"",""trial"":1,""time"":16207}]",NA,NA,NA,NA,NA,4,#3386FF,#D89F1C,10,0,1,38,1,723.8000000119209,37,1,524.4000000357628,10,1,experiment,NA,NA,0,0.9,0.1,0,1,208,5,NA
fcp-trial,281,1794250,0.0-218.0-0.0,voc_e2,11745,"[{""event"":""fullscreenenter"",""trial"":1,""time"":16207}]",NA,NA,NA,NA,NA,0,#D89F1C,#3386FF,0,10,0,38,1,740,39,0,502.300000011921,10,1,experiment,NA,NA,0,0.1,0.9,1,0,209,5,NA
fcp-trial,282,1797150,0.0-219.0-0.0,voc_e2,11745,"[{""event"":""fullscreenenter"",""trial"":1,""time"":16207}]",NA,NA,NA,NA,NA,2,#FA92F8,#1CD855,10,0,0,38,1,814.1999999880791,39,0,580.8000000119209,0,1,experiment,NA,NA,1,0.3,0.7,3,2,210,5,NA
audio-instructions,283,1803148,0.0-220.0,voc_e2,11745,"[{""event"":""fullscreenenter"",""trial"":1,""time"":16207}]",NA,1249,static/audio/pause.wav,NA,0,NA,NA,NA,NA,NA,NA,NA,NA,NA,NA,NA,NA,NA,NA,NA,NA,NA,NA,NA,NA,NA,NA,NA,NA,NA
fcp-trial,284,1807078,0.0-221.0-0.0,voc_e2,11745,"[{""event"":""fullscreenenter"",""trial"":1,""time"":16207}]",NA,NA,NA,NA,NA,1,#D89F1C,#3386FF,0,10,0,38,1,1868.0999999642372,39,0,537.1999999880791,10,1,experiment,NA,NA,0,0.1,0.9,1,0,211,5,NA
fcp-trial,285,1810310,0.0-222.0-0.0,voc_e2,11745,"[{""event"":""fullscreenenter"",""trial"":1,""time"":16207}]",NA,NA,NA,NA,NA,3,#FA92F8,#1CD855,10,0,0,38,1,696.5,39,0,1014.1999999880792,0,1,experiment,NA,NA,1,0.3,0.7,3,2,212,5,NA
fcp-trial,286,1813660,0.0-223.0-0.0,voc_e2,11745,"[{""event"":""fullscreenenter"",""trial"":1,""time"":16207}]",NA,NA,NA,NA,NA,3,#3386FF,#D89F1C,10,0,1,38,1,727.2999999523163,37,1,1096.5999999642372,10,1,experiment,NA,NA,0,0.9,0.1,0,1,213,5,NA
fcp-trial,287,1816860,0.0-224.0-0.0,voc_e2,11745,"[{""event"":""fullscreenenter"",""trial"":1,""time"":16207}]",NA,NA,NA,NA,NA,5,#1CD855,#FA92F8,0,0,1,38,1,919.8999999761581,37,1,752.9000000357628,0,1,experiment,NA,NA,1,0.7,0.3,2,3,214,5,NA
fcp-trial,288,1820444,0.0-225.0-0.0,voc_e2,11745,"[{""event"":""fullscreenenter"",""trial"":1,""time"":16207}]",NA,NA,NA,NA,NA,2,#741CD8,#D8271C,10,10,0,38,1,779.6999999880791,39,0,1278.5,10,1,experiment,NA,NA,2,0.5,0.5,5,4,215,5,NA
fcp-trial,289,1823361,0.0-226.0-0.0,voc_e2,11745,"[{""event"":""fullscreenenter"",""trial"":1,""time"":16207}]",NA,NA,NA,NA,NA,4,#FA92F8,#1CD855,10,10,0,38,1,752.3999999761581,39,0,640.8000000119209,10,1,experiment,NA,NA,1,0.3,0.7,3,2,216,5,NA
fcp-trial,290,1826406,0.0-227.0-0.0,voc_e2,11745,"[{""event"":""fullscreenenter"",""trial"":1,""time"":16207}]",NA,NA,NA,NA,NA,3,#741CD8,#D8271C,10,0,0,38,1,721.3000000119209,39,0,808.3000000119209,0,1,experiment,NA,NA,2,0.5,0.5,5,4,217,5,NA
fcp-trial,291,1829210,0.0-228.0-0.0,voc_e2,11745,"[{""event"":""fullscreenenter"",""trial"":1,""time"":16207}]",NA,NA,NA,NA,NA,5,#D89F1C,#3386FF,10,0,0,38,1,726.1000000238419,39,0,564.8000000119209,0,1,experiment,NA,NA,0,0.1,0.9,1,0,218,5,NA
fcp-trial,292,1832041,0.0-229.0-0.0,voc_e2,11745,"[{""event"":""fullscreenenter"",""trial"":1,""time"":16207}]",NA,NA,NA,NA,NA,0,#1CD855,#FA92F8,10,10,1,38,1,542.6999999880791,37,1,778.7000000476837,10,1,experiment,NA,NA,1,0.7,0.3,2,3,219,5,NA
fcp-trial,293,1835187,0.0-230.0-0.0,voc_e2,11745,"[{""event"":""fullscreenenter"",""trial"":1,""time"":16207}]",NA,NA,NA,NA,NA,6,#741CD8,#D8271C,10,0,0,38,1,701.8000000119209,37,1,932,10,0,experiment,NA,NA,2,0.5,0.5,5,4,220,5,NA
fcp-trial,294,1837831,0.0-231.0-0.0,voc_e2,11745,"[{""event"":""fullscreenenter"",""trial"":1,""time"":16207}]",NA,NA,NA,NA,NA,4,#741CD8,#D8271C,0,10,0,38,1,630.1999999880791,37,1,509.199999988079,0,0,experiment,NA,NA,2,0.5,0.5,5,4,221,5,NA
fcp-trial,295,1840520,0.0-232.0-0.0,voc_e2,11745,"[{""event"":""fullscreenenter"",""trial"":1,""time"":16207}]",NA,NA,NA,NA,NA,0,#3386FF,#D89F1C,10,0,1,38,1,465.60000002384186,37,1,715.8000000119209,10,1,experiment,NA,NA,0,0.9,0.1,0,1,222,5,NA
fcp-trial,296,1843194,0.0-233.0-0.0,voc_e2,11745,"[{""event"":""fullscreenenter"",""trial"":1,""time"":16207}]",NA,NA,NA,NA,NA,2,#FA92F8,#1CD855,0,10,0,38,1,497.39999997615814,39,0,671.8999999761581,10,1,experiment,NA,NA,1,0.3,0.7,3,2,223,5,NA
fcp-trial,297,1846233,0.0-234.0-0.0,voc_e2,11745,"[{""event"":""fullscreenenter"",""trial"":1,""time"":16207}]",NA,NA,NA,NA,NA,5,#D8271C,#741CD8,10,0,1,38,1,702.9000000357628,37,1,828.8000000119209,10,1,experiment,NA,NA,2,0.5,0.5,4,5,224,5,NA
fcp-trial,298,1848999,0.0-235.0-0.0,voc_e2,11745,"[{""event"":""fullscreenenter"",""trial"":1,""time"":16207}]",NA,NA,NA,NA,NA,2,#D89F1C,#3386FF,0,10,0,38,1,654.9000000357628,39,0,607,10,1,experiment,NA,NA,0,0.1,0.9,1,0,225,5,NA
fcp-trial,299,1852111,0.0-236.0-0.0,voc_e2,11745,"[{""event"":""fullscreenenter"",""trial"":1,""time"":16207}]",NA,NA,NA,NA,NA,6,#FA92F8,#1CD855,10,10,0,38,1,791.6999999880791,39,0,812.7000000476837,10,1,experiment,NA,NA,1,0.3,0.7,3,2,226,6,NA
fcp-trial,300,1854812,0.0-237.0-0.0,voc_e2,11745,"[{""event"":""fullscreenenter"",""trial"":1,""time"":16207}]",NA,NA,NA,NA,NA,6,#D89F1C,#3386FF,0,10,0,38,1,581.1999999880791,39,0,608.1999999880791,10,1,experiment,NA,NA,0,0.1,0.9,1,0,227,6,NA
fcp-trial,301,1857656,0.0-238.0-0.0,voc_e2,11745,"[{""event"":""fullscreenenter"",""trial"":1,""time"":16207}]",NA,NA,NA,NA,NA,4,#3386FF,#D89F1C,0,0,1,38,1,680.3000000119209,37,1,653.8999999761581,0,1,experiment,NA,NA,0,0.9,0.1,0,1,228,6,NA
fcp-trial,302,1860432,0.0-239.0-0.0,voc_e2,11745,"[{""event"":""fullscreenenter"",""trial"":1,""time"":16207}]",NA,NA,NA,NA,NA,0,#D8271C,#741CD8,10,0,1,38,1,629.8999999761581,39,0,641.4000000357628,0,0,experiment,NA,NA,2,0.5,0.5,4,5,229,6,NA
fcp-trial,303,1863092,0.0-240.0-0.0,voc_e2,11745,"[{""event"":""fullscreenenter"",""trial"":1,""time"":16207}]",NA,NA,NA,NA,NA,1,#D8271C,#741CD8,10,10,1,38,1,551.0999999642372,37,1,602.5,10,1,experiment,NA,NA,2,0.5,0.5,4,5,230,6,NA
fcp-trial,304,1865893,0.0-241.0-0.0,voc_e2,11745,"[{""event"":""fullscreenenter"",""trial"":1,""time"":16207}]",NA,NA,NA,NA,NA,1,#FA92F8,#1CD855,0,0,0,38,1,513.3000000119209,39,0,780.5,0,1,experiment,NA,NA,1,0.3,0.7,3,2,231,6,NA
fcp-trial,305,1868813,0.0-242.0-0.0,voc_e2,11745,"[{""event"":""fullscreenenter"",""trial"":1,""time"":16207}]",NA,NA,NA,NA,NA,5,#741CD8,#D8271C,0,0,0,38,1,539.8000000119209,37,1,866.1999999880791,0,0,experiment,NA,NA,2,0.5,0.5,5,4,232,6,NA
fcp-trial,306,1871516,0.0-243.0-0.0,voc_e2,11745,"[{""event"":""fullscreenenter"",""trial"":1,""time"":16207}]",NA,NA,NA,NA,NA,4,#3386FF,#D89F1C,10,0,1,38,1,437.19999998807907,37,1,751.5,10,1,experiment,NA,NA,0,0.9,0.1,0,1,233,6,NA
fcp-trial,307,1874359,0.0-244.0-0.0,voc_e2,11745,"[{""event"":""fullscreenenter"",""trial"":1,""time"":16207}]",NA,NA,NA,NA,NA,5,#1CD855,#FA92F8,10,10,1,38,1,685.4000000357628,39,0,653.1999999880791,10,0,experiment,NA,NA,1,0.7,0.3,2,3,234,6,NA
fcp-trial,308,1877175,0.0-245.0-0.0,voc_e2,11745,"[{""event"":""fullscreenenter"",""trial"":1,""time"":16207}]",NA,NA,NA,NA,NA,2,#D8271C,#741CD8,0,0,1,38,1,537.3999999761581,37,1,771.3999999761581,0,1,experiment,NA,NA,2,0.5,0.5,4,5,235,6,NA
fcp-trial,309,1879585,0.0-246.0-0.0,voc_e2,11745,"[{""event"":""fullscreenenter"",""trial"":1,""time"":16207}]",NA,NA,NA,NA,NA,4,#D8271C,#741CD8,0,0,1,38,1,340.69999998807907,39,0,556.8000000119209,0,0,experiment,NA,NA,2,0.5,0.5,4,5,236,6,NA
fcp-trial,310,1882016,0.0-247.0-0.0,voc_e2,11745,"[{""event"":""fullscreenenter"",""trial"":1,""time"":16207}]",NA,NA,NA,NA,NA,2,#D89F1C,#3386FF,0,10,0,38,1,394.60000002384186,39,0,531,10,1,experiment,NA,NA,0,0.1,0.9,1,0,237,6,NA
fcp-trial,311,1884718,0.0-248.0-0.0,voc_e2,11745,"[{""event"":""fullscreenenter"",""trial"":1,""time"":16207}]",NA,NA,NA,NA,NA,1,#1CD855,#FA92F8,10,0,1,38,1,405.5999999642372,37,1,791.5999999642372,10,1,experiment,NA,NA,1,0.7,0.3,2,3,238,6,NA
fcp-trial,312,1887410,0.0-249.0-0.0,voc_e2,11745,"[{""event"":""fullscreenenter"",""trial"":1,""time"":16207}]",NA,NA,NA,NA,NA,4,#1CD855,#FA92F8,10,0,1,38,1,548.3000000119209,37,1,637.6999999880791,10,1,experiment,NA,NA,1,0.7,0.3,2,3,239,6,NA
fcp-trial,313,1890171,0.0-250.0-0.0,voc_e2,11745,"[{""event"":""fullscreenenter"",""trial"":1,""time"":16207}]",NA,NA,NA,NA,NA,6,#FA92F8,#1CD855,0,0,0,38,1,655.5,39,0,599.7000000476837,0,1,experiment,NA,NA,1,0.3,0.7,3,2,240,6,NA
fcp-trial,314,1892698,0.0-251.0-0.0,voc_e2,11745,"[{""event"":""fullscreenenter"",""trial"":1,""time"":16207}]",NA,NA,NA,NA,NA,6,#741CD8,#D8271C,10,0,0,38,1,442.30000001192093,37,1,580.6000000238419,10,0,experiment,NA,NA,2,0.5,0.5,5,4,241,6,NA
fcp-trial,315,1895086,0.0-252.0-0.0,voc_e2,11745,"[{""event"":""fullscreenenter"",""trial"":1,""time"":16207}]",NA,NA,NA,NA,NA,6,#D89F1C,#3386FF,10,0,0,38,1,210.9000000357628,39,0,667.8000000119209,0,1,experiment,NA,NA,0,0.1,0.9,1,0,242,6,NA
fcp-trial,316,1897770,0.0-253.0-0.0,voc_e2,11745,"[{""event"":""fullscreenenter"",""trial"":1,""time"":16207}]",NA,NA,NA,NA,NA,5,#3386FF,#D89F1C,10,0,1,38,1,527.7000000476837,37,1,649.7000000476837,10,1,experiment,NA,NA,0,0.9,0.1,0,1,243,6,NA
fcp-trial,317,1900257,0.0-254.0-0.0,voc_e2,11745,"[{""event"":""fullscreenenter"",""trial"":1,""time"":16207}]",NA,NA,NA,NA,NA,0,#741CD8,#D8271C,10,0,0,38,1,515.5999999642372,39,0,464.60000002384186,0,1,experiment,NA,NA,2,0.5,0.5,5,4,244,6,NA
fcp-trial,318,1902855,0.0-255.0-0.0,voc_e2,11745,"[{""event"":""fullscreenenter"",""trial"":1,""time"":16207}]",NA,NA,NA,NA,NA,2,#1CD855,#FA92F8,10,0,1,38,1,541,37,1,551.6999999880791,10,1,experiment,NA,NA,1,0.7,0.3,2,3,245,6,NA
fcp-trial,319,1905537,0.0-256.0-0.0,voc_e2,11745,"[{""event"":""fullscreenenter"",""trial"":1,""time"":16207}]",NA,NA,NA,NA,NA,0,#D89F1C,#3386FF,0,10,0,38,1,708.1999999880791,39,0,466,10,1,experiment,NA,NA,0,0.1,0.9,1,0,246,6,NA
fcp-trial,320,1908160,0.0-257.0-0.0,voc_e2,11745,"[{""event"":""fullscreenenter"",""trial"":1,""time"":16207}]",NA,NA,NA,NA,NA,1,#D8271C,#741CD8,10,0,1,38,1,500.10000002384186,37,1,617.3000000119209,10,1,experiment,NA,NA,2,0.5,0.5,4,5,247,6,NA
fcp-trial,321,1910744,0.0-258.0-0.0,voc_e2,11745,"[{""event"":""fullscreenenter"",""trial"":1,""time"":16207}]",NA,NA,NA,NA,NA,3,#3386FF,#D89F1C,10,0,1,38,1,515.3999999761581,37,1,558.5,10,1,experiment,NA,NA,0,0.9,0.1,0,1,248,6,NA
fcp-trial,322,1913453,0.0-259.0-0.0,voc_e2,11745,"[{""event"":""fullscreenenter"",""trial"":1,""time"":16207}]",NA,NA,NA,NA,NA,1,#3386FF,#D89F1C,10,0,1,38,1,594.5999999642372,37,1,608.6999999880791,10,1,experiment,NA,NA,0,0.9,0.1,0,1,249,6,NA
fcp-trial,323,1916205,0.0-260.0-0.0,voc_e2,11745,"[{""event"":""fullscreenenter"",""trial"":1,""time"":16207}]",NA,NA,NA,NA,NA,3,#1CD855,#FA92F8,10,0,1,38,1,667.6999999880791,37,1,579,10,1,experiment,NA,NA,1,0.7,0.3,2,3,250,6,NA
fcp-trial,324,1918916,0.0-261.0-0.0,voc_e2,11745,"[{""event"":""fullscreenenter"",""trial"":1,""time"":16207}]",NA,NA,NA,NA,NA,3,#D8271C,#741CD8,10,10,1,38,1,471.80000001192093,39,0,733.6999999880791,10,0,experiment,NA,NA,2,0.5,0.5,4,5,251,6,NA
fcp-trial,325,1921461,0.0-262.0-0.0,voc_e2,11745,"[{""event"":""fullscreenenter"",""trial"":1,""time"":16207}]",NA,NA,NA,NA,NA,0,#1CD855,#FA92F8,10,0,1,38,1,383,37,1,649.5,10,1,experiment,NA,NA,1,0.7,0.3,2,3,252,6,NA
fcp-trial,326,1923973,0.0-263.0-0.0,voc_e2,11745,"[{""event"":""fullscreenenter"",""trial"":1,""time"":16207}]",NA,NA,NA,NA,NA,2,#FA92F8,#1CD855,10,10,0,38,1,345.0999999642372,39,0,662.6000000238419,10,1,experiment,NA,NA,1,0.3,0.7,3,2,253,6,NA
fcp-trial,327,1926540,0.0-264.0-0.0,voc_e2,11745,"[{""event"":""fullscreenenter"",""trial"":1,""time"":16207}]",NA,NA,NA,NA,NA,3,#D8271C,#741CD8,10,10,1,38,1,452.30000001192093,37,1,608.6999999880791,10,1,experiment,NA,NA,2,0.5,0.5,4,5,254,6,NA
fcp-trial,328,1929071,0.0-265.0-0.0,voc_e2,11745,"[{""event"":""fullscreenenter"",""trial"":1,""time"":16207}]",NA,NA,NA,NA,NA,1,#3386FF,#D89F1C,10,0,1,38,1,360.2999999523163,37,1,665.0999999642372,10,1,experiment,NA,NA,0,0.9,0.1,0,1,255,6,NA
fcp-trial,329,1931720,0.0-266.0-0.0,voc_e2,11745,"[{""event"":""fullscreenenter"",""trial"":1,""time"":16207}]",NA,NA,NA,NA,NA,5,#D89F1C,#3386FF,0,10,0,38,1,603,39,0,537.3999999761581,10,1,experiment,NA,NA,0,0.1,0.9,1,0,256,6,NA
fcp-trial,330,1934471,0.0-267.0-0.0,voc_e2,11745,"[{""event"":""fullscreenenter"",""trial"":1,""time"":16207}]",NA,NA,NA,NA,NA,2,#741CD8,#D8271C,10,10,0,38,1,495.39999997615814,37,1,749.3000000119209,10,0,experiment,NA,NA,2,0.5,0.5,5,4,257,6,NA
fcp-trial,331,1937005,0.0-268.0-0.0,voc_e2,11745,"[{""event"":""fullscreenenter"",""trial"":1,""time"":16207}]",NA,NA,NA,NA,NA,3,#FA92F8,#1CD855,0,10,0,38,1,336.0999999642372,37,1,692.8999999761581,0,0,experiment,NA,NA,1,0.3,0.7,3,2,258,6,NA
fcp-trial,332,1939805,0.0-269.0-0.0,voc_e2,11745,"[{""event"":""fullscreenenter"",""trial"":1,""time"":16207}]",NA,NA,NA,NA,NA,1,#741CD8,#D8271C,10,10,0,38,1,812.8999999761581,37,1,480.300000011921,10,0,experiment,NA,NA,2,0.5,0.5,5,4,259,6,NA
fcp-trial,333,1942374,0.0-270.0-0.0,voc_e2,11745,"[{""event"":""fullscreenenter"",""trial"":1,""time"":16207}]",NA,NA,NA,NA,NA,4,#D89F1C,#3386FF,0,10,0,38,1,463,39,0,601.6999999880791,10,1,experiment,NA,NA,0,0.1,0.9,1,0,260,6,NA
fcp-trial,334,1944924,0.0-271.0-0.0,voc_e2,11745,"[{""event"":""fullscreenenter"",""trial"":1,""time"":16207}]",NA,NA,NA,NA,NA,6,#3386FF,#D89F1C,10,10,1,38,1,412.69999998807907,37,1,631.3999999761581,10,1,experiment,NA,NA,0,0.9,0.1,0,1,261,6,NA
fcp-trial,335,1947708,0.0-272.0-0.0,voc_e2,11745,"[{""event"":""fullscreenenter"",""trial"":1,""time"":16207}]",NA,NA,NA,NA,NA,4,#D8271C,#741CD8,0,0,1,38,1,722.8999999761581,39,0,555.7000000476837,0,0,experiment,NA,NA,2,0.5,0.5,4,5,262,6,NA
fcp-trial,336,1950375,0.0-273.0-0.0,voc_e2,11745,"[{""event"":""fullscreenenter"",""trial"":1,""time"":16207}]",NA,NA,NA,NA,NA,6,#FA92F8,#1CD855,0,0,0,38,1,504.10000002384186,37,1,658,0,0,experiment,NA,NA,1,0.3,0.7,3,2,263,6,NA
fcp-trial,337,1952856,0.0-274.0-0.0,voc_e2,11745,"[{""event"":""fullscreenenter"",""trial"":1,""time"":16207}]",NA,NA,NA,NA,NA,0,#D89F1C,#3386FF,0,10,0,38,1,456.19999998807907,39,0,514.5,10,1,experiment,NA,NA,0,0.1,0.9,1,0,264,6,NA
fcp-trial,338,1955505,0.0-275.0-0.0,voc_e2,11745,"[{""event"":""fullscreenenter"",""trial"":1,""time"":16207}]",NA,NA,NA,NA,NA,2,#3386FF,#D89F1C,10,0,1,38,1,522.3000000119209,37,1,614.2000000476837,10,1,experiment,NA,NA,0,0.9,0.1,0,1,265,6,NA
fcp-trial,339,1958591,0.0-276.0-0.0,voc_e2,11745,"[{""event"":""fullscreenenter"",""trial"":1,""time"":16207}]",NA,NA,NA,NA,NA,6,#741CD8,#D8271C,0,0,0,38,1,748.3999999761581,39,0,830.8000000119209,0,1,experiment,NA,NA,2,0.5,0.5,5,4,266,6,NA
fcp-trial,340,1961360,0.0-277.0-0.0,voc_e2,11745,"[{""event"":""fullscreenenter"",""trial"":1,""time"":16207}]",NA,NA,NA,NA,NA,1,#FA92F8,#1CD855,0,10,0,38,1,664.5,39,0,595.8000000119209,10,1,experiment,NA,NA,1,0.3,0.7,3,2,267,6,NA
fcp-trial,341,1964308,0.0-278.0-0.0,voc_e2,11745,"[{""event"":""fullscreenenter"",""trial"":1,""time"":16207}]",NA,NA,NA,NA,NA,5,#1CD855,#FA92F8,10,0,1,38,1,619.6999999880791,37,1,823.2000000476837,10,1,experiment,NA,NA,1,0.7,0.3,2,3,268,6,NA
fcp-trial,342,1967286,0.0-279.0-0.0,voc_e2,11745,"[{""event"":""fullscreenenter"",""trial"":1,""time"":16207}]",NA,NA,NA,NA,NA,5,#741CD8,#D8271C,10,0,0,38,1,612.1999999880791,37,1,858.8999999761581,10,0,experiment,NA,NA,2,0.5,0.5,5,4,269,6,NA
fcp-trial,343,1970040,0.0-280.0-0.0,voc_e2,11745,"[{""event"":""fullscreenenter"",""trial"":1,""time"":16207}]",NA,NA,NA,NA,NA,3,#D89F1C,#3386FF,0,0,0,38,1,696.6999999880791,39,0,534.8999999761581,0,1,experiment,NA,NA,0,0.1,0.9,1,0,270,6,NA
fcp-trial,344,1972751,0.0-281.0-0.0,voc_e2,11745,"[{""event"":""fullscreenenter"",""trial"":1,""time"":16207}]",NA,NA,NA,NA,NA,0,#FA92F8,#1CD855,10,10,0,38,1,691.5,39,0,512.2999999523163,10,1,experiment,NA,NA,1,0.3,0.7,3,2,271,7,NA
fcp-trial,345,1975434,0.0-282.0-0.0,voc_e2,11745,"[{""event"":""fullscreenenter"",""trial"":1,""time"":16207}]",NA,NA,NA,NA,NA,0,#D8271C,#741CD8,0,0,1,38,1,553.5,39,0,623.7999999523163,0,0,experiment,NA,NA,2,0.5,0.5,4,5,272,7,NA
fcp-trial,346,1978532,0.0-283.0-0.0,voc_e2,11745,"[{""event"":""fullscreenenter"",""trial"":1,""time"":16207}]",NA,NA,NA,NA,NA,4,#1CD855,#FA92F8,10,10,1,38,1,904.6999999880791,39,0,680.6999999880791,10,0,experiment,NA,NA,1,0.7,0.3,2,3,273,7,NA
fcp-trial,347,1981377,0.0-284.0-0.0,voc_e2,11745,"[{""event"":""fullscreenenter"",""trial"":1,""time"":16207}]",NA,NA,NA,NA,NA,6,#FA92F8,#1CD855,10,10,0,38,1,761.2000000476837,39,0,576.5,10,1,experiment,NA,NA,1,0.3,0.7,3,2,274,7,NA
fcp-trial,348,1984157,0.0-285.0-0.0,voc_e2,11745,"[{""event"":""fullscreenenter"",""trial"":1,""time"":16207}]",NA,NA,NA,NA,NA,2,#D8271C,#741CD8,0,10,1,38,1,687.1000000238419,37,1,588.1000000238419,0,1,experiment,NA,NA,2,0.5,0.5,4,5,275,7,NA
fcp-trial,349,1987271,0.0-286.0-0.0,voc_e2,11745,"[{""event"":""fullscreenenter"",""trial"":1,""time"":16207}]",NA,NA,NA,NA,NA,0,#D8271C,#741CD8,10,0,1,38,1,938.6999999880791,37,1,668,10,1,experiment,NA,NA,2,0.5,0.5,4,5,276,7,NA
fcp-trial,350,1990281,0.0-287.0-0.0,voc_e2,11745,"[{""event"":""fullscreenenter"",""trial"":1,""time"":16207}]",NA,NA,NA,NA,NA,5,#D89F1C,#3386FF,0,10,0,38,1,922.0999999642372,39,0,575.6000000238419,10,1,experiment,NA,NA,0,0.1,0.9,1,0,277,7,NA
fcp-trial,351,1993196,0.0-288.0-0.0,voc_e2,11745,"[{""event"":""fullscreenenter"",""trial"":1,""time"":16207}]",NA,NA,NA,NA,NA,1,#1CD855,#FA92F8,10,0,1,38,1,713.3000000119209,37,1,697,10,1,experiment,NA,NA,1,0.7,0.3,2,3,278,7,NA
fcp-trial,352,1995885,0.0-289.0-0.0,voc_e2,11745,"[{""event"":""fullscreenenter"",""trial"":1,""time"":16207}]",NA,NA,NA,NA,NA,0,#D89F1C,#3386FF,0,10,0,38,1,548.1000000238419,39,0,635.6000000238419,10,1,experiment,NA,NA,0,0.1,0.9,1,0,279,7,NA
fcp-trial,353,1998625,0.0-290.0-0.0,voc_e2,11745,"[{""event"":""fullscreenenter"",""trial"":1,""time"":16207}]",NA,NA,NA,NA,NA,6,#D8271C,#741CD8,0,0,1,38,1,618.0999999642372,37,1,616.5,0,1,experiment,NA,NA,2,0.5,0.5,4,5,280,7,NA
fcp-trial,354,2001310,0.0-291.0-0.0,voc_e2,11745,"[{""event"":""fullscreenenter"",""trial"":1,""time"":16207}]",NA,NA,NA,NA,NA,0,#1CD855,#FA92F8,10,0,1,38,1,367.19999998807907,37,1,810.8999999761581,10,1,experiment,NA,NA,1,0.7,0.3,2,3,281,7,NA
fcp-trial,355,2004500,0.0-292.0-0.0,voc_e2,11745,"[{""event"":""fullscreenenter"",""trial"":1,""time"":16207}]",NA,NA,NA,NA,NA,1,#3386FF,#D89F1C,10,0,1,38,1,822.3999999761581,37,1,860.7000000476837,10,1,experiment,NA,NA,0,0.9,0.1,0,1,282,7,NA
fcp-trial,356,2007504,0.0-293.0-0.0,voc_e2,11745,"[{""event"":""fullscreenenter"",""trial"":1,""time"":16207}]",NA,NA,NA,NA,NA,3,#3386FF,#D89F1C,10,0,1,38,1,726.6000000238419,37,1,772.6999999880791,10,1,experiment,NA,NA,0,0.9,0.1,0,1,283,7,NA
fcp-trial,357,2010315,0.0-294.0-0.0,voc_e2,11745,"[{""event"":""fullscreenenter"",""trial"":1,""time"":16207}]",NA,NA,NA,NA,NA,1,#D8271C,#741CD8,10,0,1,38,1,418.39999997615814,37,1,879,10,1,experiment,NA,NA,2,0.5,0.5,4,5,284,7,NA
fcp-trial,358,2013376,0.0-295.0-0.0,voc_e2,11745,"[{""event"":""fullscreenenter"",""trial"":1,""time"":16207}]",NA,NA,NA,NA,NA,5,#1CD855,#FA92F8,0,0,1,38,1,748.7999999523163,37,1,805.7999999523163,0,1,experiment,NA,NA,1,0.7,0.3,2,3,285,7,NA
fcp-trial,359,2016531,0.0-296.0-0.0,voc_e2,11745,"[{""event"":""fullscreenenter"",""trial"":1,""time"":16207}]",NA,NA,NA,NA,NA,4,#FA92F8,#1CD855,0,10,0,38,1,1038.9000000357628,39,0,610,10,1,experiment,NA,NA,1,0.3,0.7,3,2,286,7,NA
fcp-trial,360,2019249,0.0-297.0-0.0,voc_e2,11745,"[{""event"":""fullscreenenter"",""trial"":1,""time"":16207}]",NA,NA,NA,NA,NA,4,#D8271C,#741CD8,0,0,1,38,1,432,37,1,780.6000000238419,0,1,experiment,NA,NA,2,0.5,0.5,4,5,287,7,NA
fcp-trial,361,2021721,0.0-298.0-0.0,voc_e2,11745,"[{""event"":""fullscreenenter"",""trial"":1,""time"":16207}]",NA,NA,NA,NA,NA,4,#3386FF,#D89F1C,10,0,1,38,1,441.80000001192093,37,1,526.2000000476837,10,1,experiment,NA,NA,0,0.9,0.1,0,1,288,7,NA
fcp-trial,362,2024461,0.0-299.0-0.0,voc_e2,11745,"[{""event"":""fullscreenenter"",""trial"":1,""time"":16207}]",NA,NA,NA,NA,NA,3,#FA92F8,#1CD855,10,10,0,38,1,402.10000002384186,37,1,824.1999999880791,10,0,experiment,NA,NA,1,0.3,0.7,3,2,289,7,NA
fcp-trial,363,2027855,0.0-300.0-0.0,voc_e2,11745,"[{""event"":""fullscreenenter"",""trial"":1,""time"":16207}]",NA,NA,NA,NA,NA,5,#D8271C,#741CD8,10,0,1,38,1,1394,37,1,492.4000000357628,10,1,experiment,NA,NA,2,0.5,0.5,4,5,290,7,NA
fcp-trial,364,2031059,0.0-301.0-0.0,voc_e2,11745,"[{""event"":""fullscreenenter"",""trial"":1,""time"":16207}]",NA,NA,NA,NA,NA,2,#D89F1C,#3386FF,0,0,0,38,1,1025.5,39,0,666.5,0,1,experiment,NA,NA,0,0.1,0.9,1,0,291,7,NA
fcp-trial,365,2033923,0.0-302.0-0.0,voc_e2,11745,"[{""event"":""fullscreenenter"",""trial"":1,""time"":16207}]",NA,NA,NA,NA,NA,3,#741CD8,#D8271C,0,0,0,38,1,559.8999999761581,37,1,789.7000000476837,0,0,experiment,NA,NA,2,0.5,0.5,5,4,292,7,NA
fcp-trial,366,2036380,0.0-303.0-0.0,voc_e2,11745,"[{""event"":""fullscreenenter"",""trial"":1,""time"":16207}]",NA,NA,NA,NA,NA,6,#D89F1C,#3386FF,0,10,0,38,1,317,39,0,630.3000000119209,10,1,experiment,NA,NA,0,0.1,0.9,1,0,293,7,NA
fcp-trial,367,2039112,0.0-304.0-0.0,voc_e2,11745,"[{""event"":""fullscreenenter"",""trial"":1,""time"":16207}]",NA,NA,NA,NA,NA,2,#FA92F8,#1CD855,0,0,0,38,1,568.3000000119209,39,0,659,0,1,experiment,NA,NA,1,0.3,0.7,3,2,294,7,NA
fcp-trial,368,2041756,0.0-305.0-0.0,voc_e2,11745,"[{""event"":""fullscreenenter"",""trial"":1,""time"":16207}]",NA,NA,NA,NA,NA,4,#FA92F8,#1CD855,0,0,0,38,1,606.1000000238419,39,0,532.1999999880791,0,1,experiment,NA,NA,1,0.3,0.7,3,2,295,7,NA
fcp-trial,369,2044985,0.0-306.0-0.0,voc_e2,11745,"[{""event"":""fullscreenenter"",""trial"":1,""time"":16207}]",NA,NA,NA,NA,NA,5,#3386FF,#D89F1C,10,0,1,38,1,861.5,37,1,854.1999999880791,10,1,experiment,NA,NA,0,0.9,0.1,0,1,296,7,NA
fcp-trial,370,2047740,0.0-307.0-0.0,voc_e2,11745,"[{""event"":""fullscreenenter"",""trial"":1,""time"":16207}]",NA,NA,NA,NA,NA,5,#1CD855,#FA92F8,0,0,1,38,1,428.9000000357628,37,1,819.1000000238419,0,1,experiment,NA,NA,1,0.7,0.3,2,3,297,7,NA
fcp-trial,371,2050335,0.0-308.0-0.0,voc_e2,11745,"[{""event"":""fullscreenenter"",""trial"":1,""time"":16207}]",NA,NA,NA,NA,NA,0,#3386FF,#D89F1C,10,10,1,38,1,564.1999999880791,37,1,517.3000000119209,10,1,experiment,NA,NA,0,0.9,0.1,0,1,298,7,NA
fcp-trial,372,2053050,0.0-309.0-0.0,voc_e2,11745,"[{""event"":""fullscreenenter"",""trial"":1,""time"":16207}]",NA,NA,NA,NA,NA,1,#741CD8,#D8271C,10,10,0,38,1,535.4000000357628,39,0,674,10,1,experiment,NA,NA,2,0.5,0.5,5,4,299,7,NA
fcp-trial,373,2055742,0.0-310.0-0.0,voc_e2,11745,"[{""event"":""fullscreenenter"",""trial"":1,""time"":16207}]",NA,NA,NA,NA,NA,3,#D8271C,#741CD8,10,10,1,38,1,430.9000000357628,37,1,756.2000000476837,10,1,experiment,NA,NA,2,0.5,0.5,4,5,300,7,NA
fcp-trial,374,2058564,0.0-311.0-0.0,voc_e2,11745,"[{""event"":""fullscreenenter"",""trial"":1,""time"":16207}]",NA,NA,NA,NA,NA,1,#1CD855,#FA92F8,10,0,1,38,1,476.5999999642372,37,1,833.8999999761581,10,1,experiment,NA,NA,1,0.7,0.3,2,3,301,7,NA
fcp-trial,375,2061579,0.0-312.0-0.0,voc_e2,11745,"[{""event"":""fullscreenenter"",""trial"":1,""time"":16207}]",NA,NA,NA,NA,NA,0,#741CD8,#D8271C,10,0,0,38,1,763.8999999761581,37,1,746.1000000238419,10,0,experiment,NA,NA,2,0.5,0.5,5,4,302,7,NA
fcp-trial,376,2064319,0.0-313.0-0.0,voc_e2,11745,"[{""event"":""fullscreenenter"",""trial"":1,""time"":16207}]",NA,NA,NA,NA,NA,3,#3386FF,#D89F1C,10,0,1,38,1,762.5,37,1,470.699999988079,10,1,experiment,NA,NA,0,0.9,0.1,0,1,303,7,NA
fcp-trial,377,2067076,0.0-314.0-0.0,voc_e2,11745,"[{""event"":""fullscreenenter"",""trial"":1,""time"":16207}]",NA,NA,NA,NA,NA,4,#D8271C,#741CD8,10,10,1,38,1,629,37,1,623.9000000357628,10,1,experiment,NA,NA,2,0.5,0.5,4,5,304,7,NA
fcp-trial,378,2069994,0.0-315.0-0.0,voc_e2,11745,"[{""event"":""fullscreenenter"",""trial"":1,""time"":16207}]",NA,NA,NA,NA,NA,2,#3386FF,#D89F1C,10,0,1,38,1,691.7999999523163,37,1,712.7999999523163,10,1,experiment,NA,NA,0,0.9,0.1,0,1,305,7,NA
fcp-trial,379,2073168,0.0-316.0-0.0,voc_e2,11745,"[{""event"":""fullscreenenter"",""trial"":1,""time"":16207}]",NA,NA,NA,NA,NA,6,#FA92F8,#1CD855,0,0,0,38,1,765.5,39,0,897.1999999880791,0,1,experiment,NA,NA,1,0.3,0.7,3,2,306,7,NA
fcp-trial,380,2076856,0.0-317.0-0.0,voc_e2,11745,"[{""event"":""fullscreenenter"",""trial"":1,""time"":16207}]",NA,NA,NA,NA,NA,2,#FA92F8,#1CD855,0,10,0,38,1,1153,39,0,1028.300000011921,10,1,experiment,NA,NA,1,0.3,0.7,3,2,307,7,NA
fcp-trial,381,2079633,0.0-318.0-0.0,voc_e2,11745,"[{""event"":""fullscreenenter"",""trial"":1,""time"":16207}]",NA,NA,NA,NA,NA,2,#D8271C,#741CD8,10,10,1,38,1,586.3999999761581,39,0,684.6000000238419,10,0,experiment,NA,NA,2,0.5,0.5,4,5,308,7,NA
fcp-trial,382,2082553,0.0-319.0-0.0,voc_e2,11745,"[{""event"":""fullscreenenter"",""trial"":1,""time"":16207}]",NA,NA,NA,NA,NA,6,#D89F1C,#3386FF,0,10,0,38,1,749.5999999642372,39,0,663.9000000357628,10,1,experiment,NA,NA,0,0.1,0.9,1,0,309,7,NA
fcp-trial,383,2085415,0.0-320.0-0.0,voc_e2,11745,"[{""event"":""fullscreenenter"",""trial"":1,""time"":16207}]",NA,NA,NA,NA,NA,1,#3386FF,#D89F1C,10,0,1,38,1,713.8000000119209,37,1,638.5,10,1,experiment,NA,NA,0,0.9,0.1,0,1,310,7,NA
fcp-trial,384,2088076,0.0-321.0-0.0,voc_e2,11745,"[{""event"":""fullscreenenter"",""trial"":1,""time"":16207}]",NA,NA,NA,NA,NA,5,#D8271C,#741CD8,10,10,1,38,1,629,37,1,525.4000000357628,10,1,experiment,NA,NA,2,0.5,0.5,4,5,311,7,NA
fcp-trial,385,2090998,0.0-322.0-0.0,voc_e2,11745,"[{""event"":""fullscreenenter"",""trial"":1,""time"":16207}]",NA,NA,NA,NA,NA,0,#1CD855,#FA92F8,0,0,1,38,1,534.3000000119209,37,1,875.3000000119209,0,1,experiment,NA,NA,1,0.7,0.3,2,3,312,7,NA
fcp-trial,386,2093808,0.0-323.0-0.0,voc_e2,11745,"[{""event"":""fullscreenenter"",""trial"":1,""time"":16207}]",NA,NA,NA,NA,NA,6,#741CD8,#D8271C,10,0,0,38,1,498.89999997615814,39,0,804.6999999880791,0,1,experiment,NA,NA,2,0.5,0.5,5,4,313,7,NA
fcp-trial,387,2096362,0.0-324.0-0.0,voc_e2,11745,"[{""event"":""fullscreenenter"",""trial"":1,""time"":16207}]",NA,NA,NA,NA,NA,4,#D89F1C,#3386FF,0,10,0,38,1,328.19999998807907,39,0,715.8000000119209,10,1,experiment,NA,NA,0,0.1,0.9,1,0,314,7,NA
fcp-trial,388,2099034,0.0-325.0-0.0,voc_e2,11745,"[{""event"":""fullscreenenter"",""trial"":1,""time"":16207}]",NA,NA,NA,NA,NA,3,#1CD855,#FA92F8,10,0,1,38,1,482.89999997615814,37,1,675.6999999880791,10,1,experiment,NA,NA,1,0.7,0.3,2,3,315,7,NA
audio-instructions,389,2106195,0.0-326.0,voc_e2,11745,"[{""event"":""fullscreenenter"",""trial"":1,""time"":16207}]",NA,1280.0999999642372,static/audio/finished.wav,NA,0,NA,NA,NA,NA,NA,NA,NA,NA,NA,NA,NA,NA,NA,NA,NA,NA,NA,NA,NA,NA,NA,NA,NA,NA,NA
audio-instructions,390,2118656,0.0-327.0-0.0,voc_e2,11745,"[{""event"":""fullscreenenter"",""trial"":1,""time"":16207}]",NA,1620.199999988079,static/audio/explicit1.wav,NA,0,NA,NA,NA,NA,NA,NA,NA,NA,NA,NA,NA,NA,NA,NA,NA,NA,NA,NA,NA,NA,NA,NA,NA,NA,NA
audio-instructions,391,2127201,0.0-327.0-1.0,voc_e2,11745,"[{""event"":""fullscreenenter"",""trial"":1,""time"":16207}]",NA,944.5,static/audio/explicit2.wav,NA,0,NA,NA,NA,NA,NA,NA,NA,NA,NA,NA,NA,NA,NA,NA,NA,NA,NA,NA,NA,NA,NA,NA,NA,NA,NA
image-slider-response,392,2137337,0.0-328.0,voc_e2,11745,"[{""event"":""fullscreenenter"",""trial"":1,""time"":16207}]",NA,10134.5,static/img/machines/machine2.png,NA,NA,NA,NA,NA,NA,NA,NA,NA,NA,NA,NA,NA,NA,NA,NA,explicit,NA,NA,NA,NA,NA,NA,NA,NA,NA,2
image-slider-response,393,2141492,0.0-329.0,voc_e2,11745,"[{""event"":""fullscreenenter"",""trial"":1,""time"":16207}]",NA,4152.399999976158,static/img/machines/machine1.png,NA,NA,NA,NA,NA,NA,NA,NA,NA,NA,NA,NA,NA,NA,NA,NA,explicit,NA,NA,NA,NA,NA,NA,NA,NA,NA,4
image-slider-response,394,2145985,0.0-330.0,voc_e2,11745,"[{""event"":""fullscreenenter"",""trial"":1,""time"":16207}]",NA,4489.5,static/img/machines/machine4.png,NA,NA,NA,NA,NA,NA,NA,NA,NA,NA,NA,NA,NA,NA,NA,NA,explicit,NA,NA,NA,NA,NA,NA,NA,NA,NA,2
image-slider-response,395,2149652,0.0-331.0,voc_e2,11745,"[{""event"":""fullscreenenter"",""trial"":1,""time"":16207}]",NA,3663.800000011921,static/img/machines/machine3.png,NA,NA,NA,NA,NA,NA,NA,NA,NA,NA,NA,NA,NA,NA,NA,NA,explicit,NA,NA,NA,NA,NA,NA,NA,NA,NA,9
image-slider-response,396,2152557,0.0-332.0,voc_e2,11745,"[{""event"":""fullscreenenter"",""trial"":1,""time"":16207}]",NA,2903.199999988079,static/img/machines/machine5.png,NA,NA,NA,NA,NA,NA,NA,NA,NA,NA,NA,NA,NA,NA,NA,NA,explicit,NA,NA,NA,NA,NA,NA,NA,NA,NA,3
image-slider-response,397,2159650,0.0-333.0,voc_e2,11745,"[{""event"":""fullscreenenter"",""trial"":1,""time"":16207}]",NA,7089.600000023842,static/img/machines/machine6.png,NA,NA,NA,NA,NA,NA,NA,NA,NA,NA,NA,NA,NA,NA,NA,NA,explicit,NA,NA,NA,NA,NA,NA,NA,NA,NA,8
