trial_type,trial_index,time_elapsed,internal_node_id,task_version,subject_id,interactions,success,rt,stimulus,key_press,button_pressed,offer,arcade_color_L,arcade_color_R,arcade_outcome_L,arcade_outcome_R,correct,stage_1_key,stage_1_choice,stage_1_rt,stage_2_key,stage_2_choice,stage_2_rt,stage_3_outcome,accuracy,phase,responses,num_errors,context,reward_prob_L,reward_prob_R,arcade_id_L,arcade_id_R,trial,block,response
pavlovia,0,6,0.0-0.0,voc_e2,11958,[],NA,NA,NA,NA,NA,NA,NA,NA,NA,NA,NA,NA,NA,NA,NA,NA,NA,NA,NA,NA,NA,NA,NA,NA,NA,NA,NA,NA,NA,NA
fullscreen,1,140311,0.0-1.0,voc_e2,11958,"[{""event"":""fullscreenenter"",""trial"":1,""time"":139330}]",TRUE,NA,NA,NA,NA,NA,NA,NA,NA,NA,NA,NA,NA,NA,NA,NA,NA,NA,NA,NA,NA,NA,NA,NA,NA,NA,NA,NA,NA,NA
audio-keyboard-response,2,144966,0.0-2.0,voc_e2,11958,"[{""event"":""fullscreenenter"",""trial"":1,""time"":139330}]",NA,3909,static/audio/beep_loop.wav,175,NA,NA,NA,NA,NA,NA,NA,NA,NA,NA,NA,NA,NA,NA,NA,NA,NA,NA,NA,NA,NA,NA,NA,NA,NA,NA
audio-test,3,148479,0.0-3.0,voc_e2,11958,"[{""event"":""fullscreenenter"",""trial"":1,""time"":139330}]",NA,NA,static/audio/turtle.wav,NA,3,NA,NA,NA,NA,NA,NA,NA,NA,NA,NA,NA,NA,NA,NA,NA,NA,NA,NA,NA,NA,NA,NA,NA,NA,NA
audio-test,4,150712,0.0-4.0,voc_e2,11958,"[{""event"":""fullscreenenter"",""trial"":1,""time"":139330}]",NA,NA,static/audio/shark.wav,NA,2,NA,NA,NA,NA,NA,NA,NA,NA,NA,NA,NA,NA,NA,NA,NA,NA,NA,NA,NA,NA,NA,NA,NA,NA,NA
audio-instructions,5,162947,0.0-5.0-0.0,voc_e2,11958,"[{""event"":""fullscreenenter"",""trial"":1,""time"":139330}]",NA,6441.600000023842,static/audio/instructions1.wav,NA,0,NA,NA,NA,NA,NA,NA,NA,NA,NA,NA,NA,NA,NA,NA,NA,NA,NA,NA,NA,NA,NA,NA,NA,NA,NA
audio-instructions,6,170711,0.0-5.0-1.0,voc_e2,11958,"[{""event"":""fullscreenenter"",""trial"":1,""time"":139330}]",NA,1016.100000023842,static/audio/instructions2.wav,NA,0,NA,NA,NA,NA,NA,NA,NA,NA,NA,NA,NA,NA,NA,NA,NA,NA,NA,NA,NA,NA,NA,NA,NA,NA,NA
audio-instructions,7,177226,0.0-5.0-2.0,voc_e2,11958,"[{""event"":""fullscreenenter"",""trial"":1,""time"":139330}]",NA,711.5,static/audio/instructions3.wav,NA,0,NA,NA,NA,NA,NA,NA,NA,NA,NA,NA,NA,NA,NA,NA,NA,NA,NA,NA,NA,NA,NA,NA,NA,NA,NA
audio-instructions,8,203040,0.0-5.0-3.0,voc_e2,11958,"[{""event"":""fullscreenenter"",""trial"":1,""time"":139330}]",NA,12585.899999976158,static/audio/instructions4.wav,NA,0,NA,NA,NA,NA,NA,NA,NA,NA,NA,NA,NA,NA,NA,NA,NA,NA,NA,NA,NA,NA,NA,NA,NA,NA,NA
audio-instructions,9,216415,0.0-5.0-4.0,voc_e2,11958,"[{""event"":""fullscreenenter"",""trial"":1,""time"":139330}]",NA,3990.399999976158,static/audio/instructions5.wav,NA,0,NA,NA,NA,NA,NA,NA,NA,NA,NA,NA,NA,NA,NA,NA,NA,NA,NA,NA,NA,NA,NA,NA,NA,NA,NA
fcp-practice,10,218949,0.0-5.0-5.0-0.0,voc_e2,11958,"[{""event"":""fullscreenenter"",""trial"":1,""time"":139330}]",NA,NA,NA,NA,NA,NA,#EDC948,#46d3c8,10,0,1,null,null,null,37,1,1015.3999999761581,10,1,practice,NA,NA,NA,NA,NA,NA,NA,NA,NA,NA
fcp-practice,11,220826,0.0-5.0-5.0-1.0,voc_e2,11958,"[{""event"":""fullscreenenter"",""trial"":1,""time"":139330}]",NA,NA,NA,NA,NA,NA,#EDC948,#46d3c8,10,0,1,null,null,null,37,1,364,10,1,practice,NA,NA,NA,NA,NA,NA,NA,NA,NA,NA
fcp-practice,12,222409,0.0-5.0-5.0-2.0,voc_e2,11958,"[{""event"":""fullscreenenter"",""trial"":1,""time"":139330}]",NA,NA,NA,NA,NA,NA,#EDC948,#46d3c8,0,10,1,null,null,null,37,1,71.79999995231628,0,1,practice,NA,NA,NA,NA,NA,NA,NA,NA,NA,NA
fcp-practice,13,224030,0.0-5.0-5.0-3.0,voc_e2,11958,"[{""event"":""fullscreenenter"",""trial"":1,""time"":139330}]",NA,NA,NA,NA,NA,NA,#EDC948,#46d3c8,10,0,1,null,null,null,37,1,105.5,10,1,practice,NA,NA,NA,NA,NA,NA,NA,NA,NA,NA
fcp-practice,14,225723,0.0-5.0-5.0-4.0,voc_e2,11958,"[{""event"":""fullscreenenter"",""trial"":1,""time"":139330}]",NA,NA,NA,NA,NA,NA,#EDC948,#46d3c8,10,0,1,null,null,null,37,1,186.89999997615814,10,1,practice,NA,NA,NA,NA,NA,NA,NA,NA,NA,NA
audio-instructions,15,355229,0.0-5.0-6.0,voc_e2,11958,"[{""event"":""fullscreenenter"",""trial"":1,""time"":139330}]",NA,111497.40000003576,static/audio/instructions6.wav,NA,0,NA,NA,NA,NA,NA,NA,NA,NA,NA,NA,NA,NA,NA,NA,NA,NA,NA,NA,NA,NA,NA,NA,NA,NA,NA
audio-instructions,16,376555,0.0-5.0-7.0,voc_e2,11958,"[{""event"":""fullscreenenter"",""trial"":1,""time"":139330}]",NA,1385.5,static/audio/instructions7.wav,NA,0,NA,NA,NA,NA,NA,NA,NA,NA,NA,NA,NA,NA,NA,NA,NA,NA,NA,NA,NA,NA,NA,NA,NA,NA,NA
audio-instructions,17,389720,0.0-5.0-8.0,voc_e2,11958,"[{""event"":""fullscreenenter"",""trial"":1,""time"":139330}]",NA,3700.5,static/audio/instructions8.wav,NA,0,NA,NA,NA,NA,NA,NA,NA,NA,NA,NA,NA,NA,NA,NA,NA,NA,NA,NA,NA,NA,NA,NA,NA,NA,NA
fcp-comprehension,18,402207,0.0-5.0-9.0,voc_e2,11958,"[{""event"":""fullscreenenter"",""trial"":1,""time"":139330}]",NA,12484.30000001192,NA,NA,NA,NA,NA,NA,NA,NA,NA,NA,NA,NA,NA,NA,NA,NA,NA,NA,"true,true",0,NA,NA,NA,NA,NA,NA,NA,NA
audio-instructions,19,409755,0.0-6.0-0.0,voc_e2,11958,"[{""event"":""fullscreenenter"",""trial"":1,""time"":139330}]",NA,2004,static/audio/instructions9.wav,NA,0,NA,NA,NA,NA,NA,NA,NA,NA,NA,NA,NA,NA,NA,NA,NA,NA,NA,NA,NA,NA,NA,NA,NA,NA,NA
audio-instructions,20,423509,0.0-6.0-1.0,voc_e2,11958,"[{""event"":""fullscreenenter"",""trial"":1,""time"":139330}]",NA,1638.699999988079,static/audio/instructions10.wav,NA,0,NA,NA,NA,NA,NA,NA,NA,NA,NA,NA,NA,NA,NA,NA,NA,NA,NA,NA,NA,NA,NA,NA,NA,NA,NA
fcp-trial,21,429619,0.0-6.0-2.0,voc_e2,11958,"[{""event"":""fullscreenenter"",""trial"":1,""time"":139330}]",NA,NA,NA,NA,NA,0,#EDC948,#46d3c8,10,10,1,38,1,1997.0999999642372,37,1,2585.5,10,1,practice,NA,NA,NA,NA,NA,NA,NA,NA,NA,NA
audio-instructions,22,444377,0.0-6.0-3.0,voc_e2,11958,"[{""event"":""fullscreenenter"",""trial"":1,""time"":139330}]",NA,3745.600000023842,static/audio/instructions11.wav,NA,0,NA,NA,NA,NA,NA,NA,NA,NA,NA,NA,NA,NA,NA,NA,NA,NA,NA,NA,NA,NA,NA,NA,NA,NA,NA
fcp-trial,23,448752,0.0-6.0-4.0,voc_e2,11958,"[{""event"":""fullscreenenter"",""trial"":1,""time"":139330}]",NA,NA,NA,NA,NA,6,#EDC948,#46d3c8,10,10,1,40,0,1832.6000000238419,39,0,1025.5999999642372,10,0,practice,NA,NA,NA,NA,NA,NA,NA,NA,NA,NA
audio-instructions,24,471643,0.0-6.0-5.0,voc_e2,11958,"[{""event"":""fullscreenenter"",""trial"":1,""time"":139330}]",NA,4202.5,static/audio/instructions12.wav,NA,0,NA,NA,NA,NA,NA,NA,NA,NA,NA,NA,NA,NA,NA,NA,NA,NA,NA,NA,NA,NA,NA,NA,NA,NA,NA
audio-instructions,25,485717,0.0-6.0-6.0,voc_e2,11958,"[{""event"":""fullscreenenter"",""trial"":1,""time"":139330}]",NA,6477,static/audio/instructions13.wav,NA,0,NA,NA,NA,NA,NA,NA,NA,NA,NA,NA,NA,NA,NA,NA,NA,NA,NA,NA,NA,NA,NA,NA,NA,NA,NA
audio-instructions,26,498868,0.0-6.0-7.0,voc_e2,11958,"[{""event"":""fullscreenenter"",""trial"":1,""time"":139330}]",NA,4708.099999964237,static/audio/instructions14.wav,NA,0,NA,NA,NA,NA,NA,NA,NA,NA,NA,NA,NA,NA,NA,NA,NA,NA,NA,NA,NA,NA,NA,NA,NA,NA,NA
audio-instructions,27,510566,0.0-7.0-0.0,voc_e2,11958,"[{""event"":""fullscreenenter"",""trial"":1,""time"":139330}]",NA,4785.699999988079,static/audio/instructions15.wav,NA,0,NA,NA,NA,NA,NA,NA,NA,NA,NA,NA,NA,NA,NA,NA,NA,NA,NA,NA,NA,NA,NA,NA,NA,NA,NA
audio-instructions,28,519830,0.0-7.0-1.0,voc_e2,11958,"[{""event"":""fullscreenenter"",""trial"":1,""time"":139330}]",NA,2438.900000035763,static/audio/instructions16.wav,NA,0,NA,NA,NA,NA,NA,NA,NA,NA,NA,NA,NA,NA,NA,NA,NA,NA,NA,NA,NA,NA,NA,NA,NA,NA,NA
audio-instructions,29,534770,0.0-7.0-2.0,voc_e2,11958,"[{""event"":""fullscreenenter"",""trial"":1,""time"":139330}]",NA,7258.199999988079,static/audio/instructions17.wav,NA,0,NA,NA,NA,NA,NA,NA,NA,NA,NA,NA,NA,NA,NA,NA,NA,NA,NA,NA,NA,NA,NA,NA,NA,NA,NA
audio-instructions,30,544580,0.0-7.0-3.0,voc_e2,11958,"[{""event"":""fullscreenenter"",""trial"":1,""time"":139330}]",NA,2038.100000023842,static/audio/instructions18.wav,NA,0,NA,NA,NA,NA,NA,NA,NA,NA,NA,NA,NA,NA,NA,NA,NA,NA,NA,NA,NA,NA,NA,NA,NA,NA,NA
audio-instructions,31,567570,0.0-7.0-4.0,voc_e2,11958,"[{""event"":""fullscreenenter"",""trial"":1,""time"":139330}]",NA,16239.399999976158,static/audio/instructions19.wav,NA,0,NA,NA,NA,NA,NA,NA,NA,NA,NA,NA,NA,NA,NA,NA,NA,NA,NA,NA,NA,NA,NA,NA,NA,NA,NA
fcp-comprehension,32,593238,0.0-7.0-5.0,voc_e2,11958,"[{""event"":""fullscreenenter"",""trial"":1,""time"":139330}]",NA,25672.30000001192,NA,NA,NA,NA,NA,NA,NA,NA,NA,NA,NA,NA,NA,NA,NA,NA,NA,NA,"false,false,false,true",0,NA,NA,NA,NA,NA,NA,NA,NA
audio-instructions,33,604779,0.0-8.0,voc_e2,11958,"[{""event"":""fullscreenenter"",""trial"":1,""time"":139330}]",NA,1957.300000011921,static/audio/ready.wav,NA,0,NA,NA,NA,NA,NA,NA,NA,NA,NA,NA,NA,NA,NA,NA,NA,NA,NA,NA,NA,NA,NA,NA,NA,NA,NA
fcp-trial,34,608709,0.0-9.0-0.0,voc_e2,11958,"[{""event"":""fullscreenenter"",""trial"":1,""time"":139330}]",NA,NA,NA,NA,NA,5,#D89F1C,#3386FF,10,0,0,40,0,1641,37,1,771.4000000357628,10,0,experiment,NA,NA,2,0.5,0.5,5,4,1,1,NA
fcp-trial,35,613774,0.0-10.0-0.0,voc_e2,11958,"[{""event"":""fullscreenenter"",""trial"":1,""time"":139330}]",NA,NA,NA,NA,NA,3,#1CD855,#FA92F8,0,10,0,38,1,2796.199999988079,37,1,755.6000000238419,0,0,experiment,NA,NA,0,0.1,0.9,1,0,2,1,NA
fcp-trial,36,616758,0.0-11.0-0.0,voc_e2,11958,"[{""event"":""fullscreenenter"",""trial"":1,""time"":139330}]",NA,NA,NA,NA,NA,5,#D8271C,#741CD8,0,0,0,38,1,999.4000000357628,37,1,469.39999997615814,0,0,experiment,NA,NA,1,0.3,0.7,3,2,3,1,NA
fcp-trial,37,619634,0.0-12.0-0.0,voc_e2,11958,"[{""event"":""fullscreenenter"",""trial"":1,""time"":139330}]",NA,NA,NA,NA,NA,6,#3386FF,#D89F1C,10,0,1,40,0,834.3000000119209,39,0,529.3999999761581,0,0,experiment,NA,NA,2,0.5,0.5,4,5,4,1,NA
fcp-trial,38,622594,0.0-13.0-0.0,voc_e2,11958,"[{""event"":""fullscreenenter"",""trial"":1,""time"":139330}]",NA,NA,NA,NA,NA,1,#3386FF,#D89F1C,10,0,1,40,0,595.5,37,1,840.3000000119209,10,1,experiment,NA,NA,2,0.5,0.5,4,5,5,1,NA
fcp-trial,39,625513,0.0-14.0-0.0,voc_e2,11958,"[{""event"":""fullscreenenter"",""trial"":1,""time"":139330}]",NA,NA,NA,NA,NA,2,#FA92F8,#1CD855,10,0,1,40,0,763.8000000119209,37,1,635.5999999642372,10,1,experiment,NA,NA,0,0.9,0.1,0,1,6,1,NA
fcp-trial,40,628362,0.0-15.0-0.0,voc_e2,11958,"[{""event"":""fullscreenenter"",""trial"":1,""time"":139330}]",NA,NA,NA,NA,NA,6,#FA92F8,#1CD855,10,0,1,38,1,344.2000000476837,39,0,988.6999999880791,0,0,experiment,NA,NA,0,0.9,0.1,0,1,7,1,NA
fcp-trial,41,631145,0.0-16.0-0.0,voc_e2,11958,"[{""event"":""fullscreenenter"",""trial"":1,""time"":139330}]",NA,NA,NA,NA,NA,2,#D8271C,#741CD8,0,10,0,38,1,447,37,1,812.1999999880791,0,0,experiment,NA,NA,1,0.3,0.7,3,2,8,1,NA
fcp-trial,42,634879,0.0-17.0-0.0,voc_e2,11958,"[{""event"":""fullscreenenter"",""trial"":1,""time"":139330}]",NA,NA,NA,NA,NA,3,#3386FF,#D89F1C,0,0,1,38,1,1596.1000000238419,37,1,627.1999999880791,0,1,experiment,NA,NA,2,0.5,0.5,4,5,9,1,NA
fcp-trial,43,637641,0.0-18.0-0.0,voc_e2,11958,"[{""event"":""fullscreenenter"",""trial"":1,""time"":139330}]",NA,NA,NA,NA,NA,6,#D8271C,#741CD8,10,0,0,38,1,832.8999999761581,39,0,419.89999997615814,0,1,experiment,NA,NA,1,0.3,0.7,3,2,10,1,NA
fcp-trial,44,640363,0.0-19.0-0.0,voc_e2,11958,"[{""event"":""fullscreenenter"",""trial"":1,""time"":139330}]",NA,NA,NA,NA,NA,4,#1CD855,#FA92F8,0,10,0,38,1,429.10000002384186,39,0,774.1000000238419,10,1,experiment,NA,NA,0,0.1,0.9,1,0,11,1,NA
fcp-trial,45,643071,0.0-20.0-0.0,voc_e2,11958,"[{""event"":""fullscreenenter"",""trial"":1,""time"":139330}]",NA,NA,NA,NA,NA,4,#3386FF,#D89F1C,10,0,1,40,0,447.30000001192093,39,0,746,0,0,experiment,NA,NA,2,0.5,0.5,4,5,12,1,NA
fcp-trial,46,645715,0.0-21.0-0.0,voc_e2,11958,"[{""event"":""fullscreenenter"",""trial"":1,""time"":139330}]",NA,NA,NA,NA,NA,1,#741CD8,#D8271C,10,0,1,40,0,383,37,1,743.0999999642372,10,1,experiment,NA,NA,1,0.7,0.3,2,3,13,1,NA
fcp-trial,47,648663,0.0-22.0-0.0,voc_e2,11958,"[{""event"":""fullscreenenter"",""trial"":1,""time"":139330}]",NA,NA,NA,NA,NA,4,#D8271C,#741CD8,10,0,0,40,0,892.3999999761581,39,0,542.1999999880791,0,1,experiment,NA,NA,1,0.3,0.7,3,2,14,1,NA
fcp-trial,48,651165,0.0-23.0-0.0,voc_e2,11958,"[{""event"":""fullscreenenter"",""trial"":1,""time"":139330}]",NA,NA,NA,NA,NA,1,#FA92F8,#1CD855,10,10,1,40,0,360.19999998807907,37,1,634.1000000238419,10,1,experiment,NA,NA,0,0.9,0.1,0,1,15,1,NA
fcp-trial,49,654272,0.0-24.0-0.0,voc_e2,11958,"[{""event"":""fullscreenenter"",""trial"":1,""time"":139330}]",NA,NA,NA,NA,NA,5,#1CD855,#FA92F8,0,10,0,40,0,1028,37,1,568.8000000119209,0,0,experiment,NA,NA,0,0.1,0.9,1,0,16,1,NA
fcp-trial,50,656815,0.0-25.0-0.0,voc_e2,11958,"[{""event"":""fullscreenenter"",""trial"":1,""time"":139330}]",NA,NA,NA,NA,NA,2,#D89F1C,#3386FF,0,10,0,40,0,374.19999998807907,37,1,661.5,0,0,experiment,NA,NA,2,0.5,0.5,5,4,17,1,NA
fcp-trial,51,659586,0.0-26.0-0.0,voc_e2,11958,"[{""event"":""fullscreenenter"",""trial"":1,""time"":139330}]",NA,NA,NA,NA,NA,0,#D8271C,#741CD8,0,10,0,40,0,416.30000001192093,37,1,838.5999999642372,0,0,experiment,NA,NA,1,0.3,0.7,3,2,18,1,NA
fcp-trial,52,661840,0.0-27.0-0.0,voc_e2,11958,"[{""event"":""fullscreenenter"",""trial"":1,""time"":139330}]",NA,NA,NA,NA,NA,0,#1CD855,#FA92F8,0,10,0,38,1,290.80000001192093,39,0,454.5,10,1,experiment,NA,NA,0,0.1,0.9,1,0,19,1,NA
fcp-trial,53,664182,0.0-28.0-0.0,voc_e2,11958,"[{""event"":""fullscreenenter"",""trial"":1,""time"":139330}]",NA,NA,NA,NA,NA,0,#3386FF,#D89F1C,10,0,1,38,1,316.69999998807907,37,1,508,10,1,experiment,NA,NA,2,0.5,0.5,4,5,20,1,NA
fcp-trial,54,666524,0.0-29.0-0.0,voc_e2,11958,"[{""event"":""fullscreenenter"",""trial"":1,""time"":139330}]",NA,NA,NA,NA,NA,3,#D8271C,#741CD8,0,10,0,38,1,321.19999998807907,39,0,507.89999997615814,10,1,experiment,NA,NA,1,0.3,0.7,3,2,21,1,NA
fcp-trial,55,669176,0.0-30.0-0.0,voc_e2,11958,"[{""event"":""fullscreenenter"",""trial"":1,""time"":139330}]",NA,NA,NA,NA,NA,2,#741CD8,#D8271C,0,0,1,40,0,419.9000000357628,39,0,720.1999999880791,0,0,experiment,NA,NA,1,0.7,0.3,2,3,22,1,NA
fcp-trial,56,671689,0.0-31.0-0.0,voc_e2,11958,"[{""event"":""fullscreenenter"",""trial"":1,""time"":139330}]",NA,NA,NA,NA,NA,3,#D89F1C,#3386FF,10,0,0,38,1,380.4000000357628,37,1,623.8999999761581,10,0,experiment,NA,NA,2,0.5,0.5,5,4,23,1,NA
fcp-trial,57,674185,0.0-32.0-0.0,voc_e2,11958,"[{""event"":""fullscreenenter"",""trial"":1,""time"":139330}]",NA,NA,NA,NA,NA,1,#1CD855,#FA92F8,0,10,0,38,1,546.3000000119209,39,0,439.2000000476837,10,1,experiment,NA,NA,0,0.1,0.9,1,0,24,1,NA
fcp-trial,58,676473,0.0-33.0-0.0,voc_e2,11958,"[{""event"":""fullscreenenter"",""trial"":1,""time"":139330}]",NA,NA,NA,NA,NA,4,#3386FF,#D89F1C,0,10,1,38,1,369.69999998807907,37,1,406.7000000476837,0,1,experiment,NA,NA,2,0.5,0.5,4,5,25,1,NA
fcp-trial,59,678948,0.0-34.0-0.0,voc_e2,11958,"[{""event"":""fullscreenenter"",""trial"":1,""time"":139330}]",NA,NA,NA,NA,NA,6,#741CD8,#D8271C,10,0,1,38,1,361.5,39,0,594.6000000238419,0,0,experiment,NA,NA,1,0.7,0.3,2,3,26,1,NA
fcp-trial,60,681061,0.0-35.0-0.0,voc_e2,11958,"[{""event"":""fullscreenenter"",""trial"":1,""time"":139330}]",NA,NA,NA,NA,NA,0,#3386FF,#D89F1C,0,10,1,40,0,33.19999998807907,37,1,561,0,1,experiment,NA,NA,2,0.5,0.5,4,5,27,1,NA
fcp-trial,61,683698,0.0-36.0-0.0,voc_e2,11958,"[{""event"":""fullscreenenter"",""trial"":1,""time"":139330}]",NA,NA,NA,NA,NA,5,#D89F1C,#3386FF,10,10,0,40,0,558.7999999523163,37,1,566.3000000119209,10,0,experiment,NA,NA,2,0.5,0.5,5,4,28,1,NA
fcp-trial,62,686443,0.0-37.0-0.0,voc_e2,11958,"[{""event"":""fullscreenenter"",""trial"":1,""time"":139330}]",NA,NA,NA,NA,NA,3,#FA92F8,#1CD855,10,0,1,38,1,746,37,1,482.80000001192093,10,1,experiment,NA,NA,0,0.9,0.1,0,1,29,1,NA
fcp-trial,63,689115,0.0-38.0-0.0,voc_e2,11958,"[{""event"":""fullscreenenter"",""trial"":1,""time"":139330}]",NA,NA,NA,NA,NA,4,#1CD855,#FA92F8,0,10,0,38,1,671.1000000238419,39,0,483.2999999523163,10,1,experiment,NA,NA,0,0.1,0.9,1,0,30,1,NA
fcp-trial,64,692717,0.0-39.0-0.0,voc_e2,11958,"[{""event"":""fullscreenenter"",""trial"":1,""time"":139330}]",NA,NA,NA,NA,NA,1,#D8271C,#741CD8,0,10,0,40,0,1090.699999988079,37,1,1002.1000000238419,0,0,experiment,NA,NA,1,0.3,0.7,3,2,31,1,NA
fcp-trial,65,697114,0.0-40.0-0.0,voc_e2,11958,"[{""event"":""fullscreenenter"",""trial"":1,""time"":139330}]",NA,NA,NA,NA,NA,2,#3386FF,#D89F1C,0,0,1,38,1,1922,39,0,959,0,0,experiment,NA,NA,2,0.5,0.5,4,5,32,1,NA
fcp-trial,66,699481,0.0-41.0-0.0,voc_e2,11958,"[{""event"":""fullscreenenter"",""trial"":1,""time"":139330}]",NA,NA,NA,NA,NA,0,#741CD8,#D8271C,0,0,1,38,1,548.2999999523163,37,1,306.39999997615814,0,1,experiment,NA,NA,1,0.7,0.3,2,3,33,1,NA
fcp-trial,67,701716,0.0-42.0-0.0,voc_e2,11958,"[{""event"":""fullscreenenter"",""trial"":1,""time"":139330}]",NA,NA,NA,NA,NA,4,#D8271C,#741CD8,10,10,0,38,1,312.89999997615814,39,0,399.5,10,1,experiment,NA,NA,1,0.3,0.7,3,2,34,1,NA
fcp-trial,68,704259,0.0-43.0-0.0,voc_e2,11958,"[{""event"":""fullscreenenter"",""trial"":1,""time"":139330}]",NA,NA,NA,NA,NA,2,#FA92F8,#1CD855,10,0,1,38,1,376.80000001192093,37,1,658.8999999761581,10,1,experiment,NA,NA,0,0.9,0.1,0,1,35,1,NA
fcp-trial,69,707651,0.0-44.0-0.0,voc_e2,11958,"[{""event"":""fullscreenenter"",""trial"":1,""time"":139330}]",NA,NA,NA,NA,NA,6,#3386FF,#D89F1C,0,10,1,40,0,1291.199999988079,39,0,590,10,0,experiment,NA,NA,2,0.5,0.5,4,5,36,1,NA
fcp-trial,70,711016,0.0-45.0-0.0,voc_e2,11958,"[{""event"":""fullscreenenter"",""trial"":1,""time"":139330}]",NA,NA,NA,NA,NA,5,#1CD855,#FA92F8,0,10,0,38,1,1479.199999988079,37,1,378.5,0,0,experiment,NA,NA,0,0.1,0.9,1,0,37,1,NA
fcp-trial,71,713966,0.0-46.0-0.0,voc_e2,11958,"[{""event"":""fullscreenenter"",""trial"":1,""time"":139330}]",NA,NA,NA,NA,NA,3,#741CD8,#D8271C,10,0,1,38,1,410.80000001192093,37,1,1031.8999999761581,10,1,experiment,NA,NA,1,0.7,0.3,2,3,38,1,NA
fcp-trial,72,716657,0.0-47.0-0.0,voc_e2,11958,"[{""event"":""fullscreenenter"",""trial"":1,""time"":139330}]",NA,NA,NA,NA,NA,6,#1CD855,#FA92F8,0,10,0,38,1,863.3999999761581,39,0,316.69999998807907,10,1,experiment,NA,NA,0,0.1,0.9,1,0,39,1,NA
fcp-trial,73,719143,0.0-48.0-0.0,voc_e2,11958,"[{""event"":""fullscreenenter"",""trial"":1,""time"":139330}]",NA,NA,NA,NA,NA,0,#1CD855,#FA92F8,0,10,0,38,1,622.5,39,0,352.9000000357628,10,1,experiment,NA,NA,0,0.1,0.9,1,0,40,1,NA
fcp-trial,74,722144,0.0-49.0-0.0,voc_e2,11958,"[{""event"":""fullscreenenter"",""trial"":1,""time"":139330}]",NA,NA,NA,NA,NA,1,#D89F1C,#3386FF,0,10,0,38,1,860,39,0,627.3000000119209,10,1,experiment,NA,NA,2,0.5,0.5,5,4,41,1,NA
fcp-trial,75,724810,0.0-50.0-0.0,voc_e2,11958,"[{""event"":""fullscreenenter"",""trial"":1,""time"":139330}]",NA,NA,NA,NA,NA,5,#D8271C,#741CD8,10,0,0,38,1,447,39,0,709.1999999880791,0,1,experiment,NA,NA,1,0.3,0.7,3,2,42,1,NA
fcp-trial,76,728464,0.0-51.0-0.0,voc_e2,11958,"[{""event"":""fullscreenenter"",""trial"":1,""time"":139330}]",NA,NA,NA,NA,NA,6,#3386FF,#D89F1C,10,0,1,38,1,1618.0999999642372,37,1,514.3999999761581,10,1,experiment,NA,NA,2,0.5,0.5,4,5,43,1,NA
fcp-trial,77,731317,0.0-52.0-0.0,voc_e2,11958,"[{""event"":""fullscreenenter"",""trial"":1,""time"":139330}]",NA,NA,NA,NA,NA,2,#D89F1C,#3386FF,0,10,0,40,0,627.4000000357628,37,1,717.2000000476837,0,0,experiment,NA,NA,2,0.5,0.5,5,4,44,1,NA
fcp-trial,78,736090,0.0-53.0-0.0,voc_e2,11958,"[{""event"":""fullscreenenter"",""trial"":1,""time"":139330}]",NA,NA,NA,NA,NA,3,#1CD855,#FA92F8,0,10,0,40,0,2167.800000011921,37,1,1088.800000011921,0,0,experiment,NA,NA,0,0.1,0.9,1,0,45,1,NA
fcp-trial,79,738813,0.0-54.0-0.0,voc_e2,11958,"[{""event"":""fullscreenenter"",""trial"":1,""time"":139330}]",NA,NA,NA,NA,NA,5,#1CD855,#FA92F8,0,10,0,38,1,836.1000000238419,39,0,372.69999998807907,10,1,experiment,NA,NA,0,0.1,0.9,1,0,46,2,NA
fcp-trial,80,741768,0.0-55.0-0.0,voc_e2,11958,"[{""event"":""fullscreenenter"",""trial"":1,""time"":139330}]",NA,NA,NA,NA,NA,2,#741CD8,#D8271C,0,0,1,38,1,1046.7000000476837,37,1,399.80000001192093,0,1,experiment,NA,NA,1,0.7,0.3,2,3,47,2,NA
fcp-trial,81,744010,0.0-56.0-0.0,voc_e2,11958,"[{""event"":""fullscreenenter"",""trial"":1,""time"":139330}]",NA,NA,NA,NA,NA,1,#3386FF,#D89F1C,0,0,1,38,1,141.29999995231628,39,0,587.3999999761581,0,0,experiment,NA,NA,2,0.5,0.5,4,5,48,2,NA
fcp-trial,82,747575,0.0-57.0-0.0,voc_e2,11958,"[{""event"":""fullscreenenter"",""trial"":1,""time"":139330}]",NA,NA,NA,NA,NA,1,#D8271C,#741CD8,0,10,0,38,1,1607.9000000357628,39,0,445,10,1,experiment,NA,NA,1,0.3,0.7,3,2,49,2,NA
fcp-trial,83,752377,0.0-58.0-0.0,voc_e2,11958,"[{""event"":""fullscreenenter"",""trial"":1,""time"":139330}]",NA,NA,NA,NA,NA,0,#FA92F8,#1CD855,10,0,1,38,1,2970.600000023842,37,1,319.10000002384186,10,1,experiment,NA,NA,0,0.9,0.1,0,1,50,2,NA
fcp-trial,84,756197,0.0-59.0-0.0,voc_e2,11958,"[{""event"":""fullscreenenter"",""trial"":1,""time"":139330}]",NA,NA,NA,NA,NA,3,#3386FF,#D89F1C,0,0,1,40,0,1809.5,37,1,493.19999998807907,0,1,experiment,NA,NA,2,0.5,0.5,4,5,51,2,NA
fcp-trial,85,758941,0.0-60.0-0.0,voc_e2,11958,"[{""event"":""fullscreenenter"",""trial"":1,""time"":139330}]",NA,NA,NA,NA,NA,4,#D8271C,#741CD8,0,10,0,38,1,679.2999999523163,39,0,544.4000000357628,10,1,experiment,NA,NA,1,0.3,0.7,3,2,52,2,NA
fcp-trial,86,761742,0.0-61.0-0.0,voc_e2,11958,"[{""event"":""fullscreenenter"",""trial"":1,""time"":139330}]",NA,NA,NA,NA,NA,4,#3386FF,#D89F1C,0,10,1,38,1,1004.3000000119209,37,1,275.5,0,1,experiment,NA,NA,2,0.5,0.5,4,5,53,2,NA
fcp-trial,87,764823,0.0-62.0-0.0,voc_e2,11958,"[{""event"":""fullscreenenter"",""trial"":1,""time"":139330}]",NA,NA,NA,NA,NA,6,#FA92F8,#1CD855,10,0,1,38,1,1143.199999988079,37,1,425.5,10,1,experiment,NA,NA,0,0.9,0.1,0,1,54,2,NA
fcp-trial,88,767766,0.0-63.0-0.0,voc_e2,11958,"[{""event"":""fullscreenenter"",""trial"":1,""time"":139330}]",NA,NA,NA,NA,NA,0,#D8271C,#741CD8,10,0,0,38,1,875.6999999880791,37,1,549.1999999880791,10,0,experiment,NA,NA,1,0.3,0.7,3,2,55,2,NA
fcp-trial,89,770220,0.0-64.0-0.0,voc_e2,11958,"[{""event"":""fullscreenenter"",""trial"":1,""time"":139330}]",NA,NA,NA,NA,NA,6,#D8271C,#741CD8,0,10,0,38,1,612.1999999880791,39,0,328.19999998807907,10,1,experiment,NA,NA,1,0.3,0.7,3,2,56,2,NA
fcp-trial,90,772973,0.0-65.0-0.0,voc_e2,11958,"[{""event"":""fullscreenenter"",""trial"":1,""time"":139330}]",NA,NA,NA,NA,NA,0,#3386FF,#D89F1C,10,10,1,38,1,530.8999999761581,37,1,706.5,10,1,experiment,NA,NA,2,0.5,0.5,4,5,57,2,NA
fcp-trial,91,775762,0.0-66.0-0.0,voc_e2,11958,"[{""event"":""fullscreenenter"",""trial"":1,""time"":139330}]",NA,NA,NA,NA,NA,4,#1CD855,#FA92F8,0,10,0,38,1,812.2000000476837,39,0,462,10,1,experiment,NA,NA,0,0.1,0.9,1,0,58,2,NA
fcp-trial,92,778414,0.0-67.0-0.0,voc_e2,11958,"[{""event"":""fullscreenenter"",""trial"":1,""time"":139330}]",NA,NA,NA,NA,NA,3,#D8271C,#741CD8,0,10,0,38,1,821.5,39,0,317,10,1,experiment,NA,NA,1,0.3,0.7,3,2,59,2,NA
fcp-trial,93,781132,0.0-68.0-0.0,voc_e2,11958,"[{""event"":""fullscreenenter"",""trial"":1,""time"":139330}]",NA,NA,NA,NA,NA,5,#D8271C,#741CD8,10,10,0,38,1,469.39999997615814,39,0,742.7999999523163,10,1,experiment,NA,NA,1,0.3,0.7,3,2,60,2,NA
fcp-trial,94,784099,0.0-69.0-0.0,voc_e2,11958,"[{""event"":""fullscreenenter"",""trial"":1,""time"":139330}]",NA,NA,NA,NA,NA,5,#D89F1C,#3386FF,10,10,0,38,1,1084,37,1,373.19999998807907,10,0,experiment,NA,NA,2,0.5,0.5,5,4,61,2,NA
fcp-trial,95,786981,0.0-70.0-0.0,voc_e2,11958,"[{""event"":""fullscreenenter"",""trial"":1,""time"":139330}]",NA,NA,NA,NA,NA,1,#1CD855,#FA92F8,0,10,0,38,1,979.5,39,0,386.60000002384186,10,1,experiment,NA,NA,0,0.1,0.9,1,0,62,2,NA
fcp-trial,96,789422,0.0-71.0-0.0,voc_e2,11958,"[{""event"":""fullscreenenter"",""trial"":1,""time"":139330}]",NA,NA,NA,NA,NA,2,#FA92F8,#1CD855,10,0,1,38,1,659.1999999880791,37,1,267.60000002384186,10,1,experiment,NA,NA,0,0.9,0.1,0,1,63,2,NA
fcp-trial,97,792157,0.0-72.0-0.0,voc_e2,11958,"[{""event"":""fullscreenenter"",""trial"":1,""time"":139330}]",NA,NA,NA,NA,NA,2,#1CD855,#FA92F8,0,10,0,38,1,887.4000000357628,39,0,341.5999999642372,10,1,experiment,NA,NA,0,0.1,0.9,1,0,64,2,NA
fcp-trial,98,795657,0.0-73.0-0.0,voc_e2,11958,"[{""event"":""fullscreenenter"",""trial"":1,""time"":139330}]",NA,NA,NA,NA,NA,5,#1CD855,#FA92F8,10,10,0,40,0,920.5,37,1,1069,10,0,experiment,NA,NA,0,0.1,0.9,1,0,65,2,NA
fcp-trial,99,798096,0.0-74.0-0.0,voc_e2,11958,"[{""event"":""fullscreenenter"",""trial"":1,""time"":139330}]",NA,NA,NA,NA,NA,4,#3386FF,#D89F1C,0,10,1,38,1,385.19999998807907,39,0,545.2999999523163,10,0,experiment,NA,NA,2,0.5,0.5,4,5,66,2,NA
fcp-trial,100,800550,0.0-75.0-0.0,voc_e2,11958,"[{""event"":""fullscreenenter"",""trial"":1,""time"":139330}]",NA,NA,NA,NA,NA,6,#D89F1C,#3386FF,0,0,0,38,1,513.8999999761581,37,1,425.39999997615814,0,0,experiment,NA,NA,2,0.5,0.5,5,4,67,2,NA
fcp-trial,101,803008,0.0-76.0-0.0,voc_e2,11958,"[{""event"":""fullscreenenter"",""trial"":1,""time"":139330}]",NA,NA,NA,NA,NA,2,#D8271C,#741CD8,10,10,0,38,1,480.9000000357628,39,0,467.69999998807907,10,1,experiment,NA,NA,1,0.3,0.7,3,2,68,2,NA
fcp-trial,102,807764,0.0-77.0-0.0,voc_e2,11958,"[{""event"":""fullscreenenter"",""trial"":1,""time"":139330}]",NA,NA,NA,NA,NA,0,#741CD8,#D8271C,10,10,1,40,0,2510.899999976158,39,0,729.0999999642372,10,0,experiment,NA,NA,1,0.7,0.3,2,3,69,2,NA
fcp-trial,103,812660,0.0-78.0-0.0,voc_e2,11958,"[{""event"":""fullscreenenter"",""trial"":1,""time"":139330}]",NA,NA,NA,NA,NA,6,#FA92F8,#1CD855,0,10,1,38,1,2835,37,1,543.6999999880791,0,1,experiment,NA,NA,0,0.9,0.1,0,1,70,2,NA
fcp-trial,104,815363,0.0-79.0-0.0,voc_e2,11958,"[{""event"":""fullscreenenter"",""trial"":1,""time"":139330}]",NA,NA,NA,NA,NA,0,#D89F1C,#3386FF,0,10,0,40,0,705.5,39,0,479.39999997615814,10,1,experiment,NA,NA,2,0.5,0.5,5,4,71,2,NA
fcp-trial,105,820022,0.0-80.0-0.0,voc_e2,11958,"[{""event"":""fullscreenenter"",""trial"":1,""time"":139330}]",NA,NA,NA,NA,NA,1,#FA92F8,#1CD855,10,0,1,40,0,2752.399999976158,37,1,388.69999998807907,10,1,experiment,NA,NA,0,0.9,0.1,0,1,72,2,NA
fcp-trial,106,823223,0.0-81.0-0.0,voc_e2,11958,"[{""event"":""fullscreenenter"",""trial"":1,""time"":139330}]",NA,NA,NA,NA,NA,3,#D8271C,#741CD8,0,10,0,38,1,1234.5999999642372,39,0,453.4000000357628,10,1,experiment,NA,NA,1,0.3,0.7,3,2,73,2,NA
fcp-trial,107,826188,0.0-82.0-0.0,voc_e2,11958,"[{""event"":""fullscreenenter"",""trial"":1,""time"":139330}]",NA,NA,NA,NA,NA,5,#D89F1C,#3386FF,10,0,0,38,1,823.1999999880791,37,1,632.6000000238419,10,0,experiment,NA,NA,2,0.5,0.5,5,4,74,2,NA
fcp-trial,108,830610,0.0-83.0-0.0,voc_e2,11958,"[{""event"":""fullscreenenter"",""trial"":1,""time"":139330}]",NA,NA,NA,NA,NA,3,#FA92F8,#1CD855,10,0,1,38,1,2609.600000023842,37,1,301,10,1,experiment,NA,NA,0,0.9,0.1,0,1,75,2,NA
fcp-trial,109,834374,0.0-84.0-0.0,voc_e2,11958,"[{""event"":""fullscreenenter"",""trial"":1,""time"":139330}]",NA,NA,NA,NA,NA,1,#D8271C,#741CD8,0,10,0,38,1,1147.4000000357628,39,0,1097.800000011921,10,1,experiment,NA,NA,1,0.3,0.7,3,2,76,2,NA
fcp-trial,110,838208,0.0-85.0-0.0,voc_e2,11958,"[{""event"":""fullscreenenter"",""trial"":1,""time"":139330}]",NA,NA,NA,NA,NA,0,#FA92F8,#1CD855,10,10,1,38,1,2013.1000000238419,37,1,305.10000002384186,10,1,experiment,NA,NA,0,0.9,0.1,0,1,77,2,NA
fcp-trial,111,841382,0.0-86.0-0.0,voc_e2,11958,"[{""event"":""fullscreenenter"",""trial"":1,""time"":139330}]",NA,NA,NA,NA,NA,3,#D89F1C,#3386FF,10,10,0,38,1,1323.800000011921,39,0,335.80000001192093,10,1,experiment,NA,NA,2,0.5,0.5,5,4,78,2,NA
fcp-trial,112,844547,0.0-87.0-0.0,voc_e2,11958,"[{""event"":""fullscreenenter"",""trial"":1,""time"":139330}]",NA,NA,NA,NA,NA,2,#D89F1C,#3386FF,0,0,0,38,1,1382.5,37,1,272.10000002384186,0,0,experiment,NA,NA,2,0.5,0.5,5,4,79,2,NA
fcp-trial,113,847619,0.0-88.0-0.0,voc_e2,11958,"[{""event"":""fullscreenenter"",""trial"":1,""time"":139330}]",NA,NA,NA,NA,NA,4,#D8271C,#741CD8,0,10,0,38,1,1182.800000011921,39,0,378.0999999642372,10,1,experiment,NA,NA,1,0.3,0.7,3,2,80,2,NA
fcp-trial,114,850310,0.0-89.0-0.0,voc_e2,11958,"[{""event"":""fullscreenenter"",""trial"":1,""time"":139330}]",NA,NA,NA,NA,NA,1,#D89F1C,#3386FF,0,0,0,38,1,693.3000000119209,39,0,484.7000000476837,0,1,experiment,NA,NA,2,0.5,0.5,5,4,81,2,NA
fcp-trial,115,852611,0.0-90.0-0.0,voc_e2,11958,"[{""event"":""fullscreenenter"",""trial"":1,""time"":139330}]",NA,NA,NA,NA,NA,4,#1CD855,#FA92F8,0,10,0,38,1,346.0999999642372,39,0,443.5,10,1,experiment,NA,NA,0,0.1,0.9,1,0,82,2,NA
fcp-trial,116,855540,0.0-91.0-0.0,voc_e2,11958,"[{""event"":""fullscreenenter"",""trial"":1,""time"":139330}]",NA,NA,NA,NA,NA,6,#D8271C,#741CD8,0,0,0,40,0,775.7999999523163,39,0,641.5,0,1,experiment,NA,NA,1,0.3,0.7,3,2,83,2,NA
fcp-trial,117,858676,0.0-92.0-0.0,voc_e2,11958,"[{""event"":""fullscreenenter"",""trial"":1,""time"":139330}]",NA,NA,NA,NA,NA,5,#741CD8,#D8271C,0,0,1,40,0,1304.6000000238419,37,1,312.89999997615814,0,1,experiment,NA,NA,1,0.7,0.3,2,3,84,2,NA
fcp-trial,118,861762,0.0-93.0-0.0,voc_e2,11958,"[{""event"":""fullscreenenter"",""trial"":1,""time"":139330}]",NA,NA,NA,NA,NA,1,#741CD8,#D8271C,10,10,1,40,0,915.1999999880791,39,0,661,10,0,experiment,NA,NA,1,0.7,0.3,2,3,85,2,NA
fcp-trial,119,864262,0.0-94.0-0.0,voc_e2,11958,"[{""event"":""fullscreenenter"",""trial"":1,""time"":139330}]",NA,NA,NA,NA,NA,4,#3386FF,#D89F1C,0,0,1,38,1,659.5,39,0,331.10000002384186,0,0,experiment,NA,NA,2,0.5,0.5,4,5,86,2,NA
fcp-trial,120,867999,0.0-95.0-0.0,voc_e2,11958,"[{""event"":""fullscreenenter"",""trial"":1,""time"":139330}]",NA,NA,NA,NA,NA,5,#741CD8,#D8271C,0,0,1,38,1,1930.6000000238419,37,1,295.10000002384186,0,1,experiment,NA,NA,1,0.7,0.3,2,3,87,2,NA
fcp-trial,121,870264,0.0-96.0-0.0,voc_e2,11958,"[{""event"":""fullscreenenter"",""trial"":1,""time"":139330}]",NA,NA,NA,NA,NA,6,#1CD855,#FA92F8,0,10,0,38,1,432.5,39,0,320,10,1,experiment,NA,NA,0,0.1,0.9,1,0,88,2,NA
fcp-trial,122,873963,0.0-97.0-0.0,voc_e2,11958,"[{""event"":""fullscreenenter"",""trial"":1,""time"":139330}]",NA,NA,NA,NA,NA,2,#3386FF,#D89F1C,0,10,1,40,0,1725.699999988079,37,1,459.39999997615814,0,1,experiment,NA,NA,2,0.5,0.5,4,5,89,2,NA
fcp-trial,123,877397,0.0-98.0-0.0,voc_e2,11958,"[{""event"":""fullscreenenter"",""trial"":1,""time"":139330}]",NA,NA,NA,NA,NA,0,#3386FF,#D89F1C,0,0,1,38,1,1615.6000000238419,39,0,308.30000001192093,0,0,experiment,NA,NA,2,0.5,0.5,4,5,90,2,NA
fcp-trial,124,879660,0.0-99.0-0.0,voc_e2,11958,"[{""event"":""fullscreenenter"",""trial"":1,""time"":139330}]",NA,NA,NA,NA,NA,3,#D8271C,#741CD8,0,10,0,38,1,474.5999999642372,39,0,279.2000000476837,10,1,experiment,NA,NA,1,0.3,0.7,3,2,91,3,NA
fcp-trial,125,881893,0.0-100.0-0.0,voc_e2,11958,"[{""event"":""fullscreenenter"",""trial"":1,""time"":139330}]",NA,NA,NA,NA,NA,3,#3386FF,#D89F1C,10,10,1,38,1,353,37,1,368.39999997615814,10,1,experiment,NA,NA,2,0.5,0.5,4,5,92,3,NA
fcp-trial,126,884650,0.0-101.0-0.0,voc_e2,11958,"[{""event"":""fullscreenenter"",""trial"":1,""time"":139330}]",NA,NA,NA,NA,NA,5,#1CD855,#FA92F8,0,10,0,38,1,513.6999999880791,39,0,716.3000000119209,10,1,experiment,NA,NA,0,0.1,0.9,1,0,93,3,NA
fcp-trial,127,887904,0.0-102.0-0.0,voc_e2,11958,"[{""event"":""fullscreenenter"",""trial"":1,""time"":139330}]",NA,NA,NA,NA,NA,0,#FA92F8,#1CD855,10,10,1,38,1,1377.1000000238419,37,1,368.30000001192093,10,1,experiment,NA,NA,0,0.9,0.1,0,1,94,3,NA
fcp-trial,128,891022,0.0-103.0-0.0,voc_e2,11958,"[{""event"":""fullscreenenter"",""trial"":1,""time"":139330}]",NA,NA,NA,NA,NA,0,#741CD8,#D8271C,10,0,1,40,0,862.6999999880791,37,1,744.0999999642372,10,1,experiment,NA,NA,1,0.7,0.3,2,3,95,3,NA
fcp-trial,129,893913,0.0-104.0-0.0,voc_e2,11958,"[{""event"":""fullscreenenter"",""trial"":1,""time"":139330}]",NA,NA,NA,NA,NA,1,#3386FF,#D89F1C,0,0,1,40,0,886.3000000119209,39,0,493,0,0,experiment,NA,NA,2,0.5,0.5,4,5,96,3,NA
fcp-trial,130,897325,0.0-105.0-0.0,voc_e2,11958,"[{""event"":""fullscreenenter"",""trial"":1,""time"":139330}]",NA,NA,NA,NA,NA,5,#D89F1C,#3386FF,0,0,0,40,0,1357.2000000476837,39,0,540.5,0,1,experiment,NA,NA,2,0.5,0.5,5,4,97,3,NA
fcp-trial,131,899976,0.0-106.0-0.0,voc_e2,11958,"[{""event"":""fullscreenenter"",""trial"":1,""time"":139330}]",NA,NA,NA,NA,NA,1,#FA92F8,#1CD855,10,10,1,38,1,749.7999999523163,37,1,383.5,10,1,experiment,NA,NA,0,0.9,0.1,0,1,98,3,NA
fcp-trial,132,903925,0.0-107.0-0.0,voc_e2,11958,"[{""event"":""fullscreenenter"",""trial"":1,""time"":139330}]",NA,NA,NA,NA,NA,4,#D8271C,#741CD8,0,10,0,38,1,1437.2000000476837,39,0,995.1000000238419,10,1,experiment,NA,NA,1,0.3,0.7,3,2,99,3,NA
fcp-trial,133,908083,0.0-108.0-0.0,voc_e2,11958,"[{""event"":""fullscreenenter"",""trial"":1,""time"":139330}]",NA,NA,NA,NA,NA,6,#D8271C,#741CD8,10,10,0,38,1,1767.1000000238419,39,0,883.9000000357628,10,1,experiment,NA,NA,1,0.3,0.7,3,2,100,3,NA
fcp-trial,134,911928,0.0-109.0-0.0,voc_e2,11958,"[{""event"":""fullscreenenter"",""trial"":1,""time"":139330}]",NA,NA,NA,NA,NA,6,#3386FF,#D89F1C,0,10,1,38,1,1978,37,1,361.89999997615814,0,1,experiment,NA,NA,2,0.5,0.5,4,5,101,3,NA
fcp-trial,135,915350,0.0-110.0-0.0,voc_e2,11958,"[{""event"":""fullscreenenter"",""trial"":1,""time"":139330}]",NA,NA,NA,NA,NA,3,#FA92F8,#1CD855,10,0,1,38,1,1515.4000000357628,37,1,393.2000000476837,10,1,experiment,NA,NA,0,0.9,0.1,0,1,102,3,NA
fcp-trial,136,922758,0.0-111.0-0.0,voc_e2,11958,"[{""event"":""fullscreenenter"",""trial"":1,""time"":139330}]",NA,NA,NA,NA,NA,4,#FA92F8,#1CD855,0,0,1,38,1,5632.099999964237,37,1,262.30000001192093,0,1,experiment,NA,NA,0,0.9,0.1,0,1,103,3,NA
fcp-trial,137,925141,0.0-112.0-0.0,voc_e2,11958,"[{""event"":""fullscreenenter"",""trial"":1,""time"":139330}]",NA,NA,NA,NA,NA,2,#FA92F8,#1CD855,10,10,1,38,1,593.7000000476837,37,1,277.30000001192093,10,1,experiment,NA,NA,0,0.9,0.1,0,1,104,3,NA
fcp-trial,138,928658,0.0-113.0-0.0,voc_e2,11958,"[{""event"":""fullscreenenter"",""trial"":1,""time"":139330}]",NA,NA,NA,NA,NA,2,#D8271C,#741CD8,10,0,0,38,1,1376.2000000476837,39,0,625.5,0,1,experiment,NA,NA,1,0.3,0.7,3,2,105,3,NA
audio-instructions,139,1012005,0.0-114.0,voc_e2,11958,"[{""event"":""fullscreenenter"",""trial"":1,""time"":139330}]",NA,78189.60000002384,static/audio/pause.wav,NA,0,NA,NA,NA,NA,NA,NA,NA,NA,NA,NA,NA,NA,NA,NA,NA,NA,NA,NA,NA,NA,NA,NA,NA,NA,NA
fcp-trial,140,1015606,0.0-115.0-0.0,voc_e2,11958,"[{""event"":""fullscreenenter"",""trial"":1,""time"":139330}]",NA,NA,NA,NA,NA,4,#D89F1C,#3386FF,0,0,0,40,0,1586.1000000238419,39,0,502.89999997615814,0,1,experiment,NA,NA,2,0.5,0.5,5,4,106,3,NA
fcp-trial,141,1018556,0.0-116.0-0.0,voc_e2,11958,"[{""event"":""fullscreenenter"",""trial"":1,""time"":139330}]",NA,NA,NA,NA,NA,4,#FA92F8,#1CD855,10,0,1,38,1,645.3999999761581,37,1,794.6999999880791,10,1,experiment,NA,NA,0,0.9,0.1,0,1,107,3,NA
fcp-trial,142,1021305,0.0-117.0-0.0,voc_e2,11958,"[{""event"":""fullscreenenter"",""trial"":1,""time"":139330}]",NA,NA,NA,NA,NA,0,#3386FF,#D89F1C,0,10,1,40,0,935.5999999642372,39,0,299.10000002384186,10,0,experiment,NA,NA,2,0.5,0.5,4,5,108,3,NA
fcp-trial,143,1023570,0.0-118.0-0.0,voc_e2,11958,"[{""event"":""fullscreenenter"",""trial"":1,""time"":139330}]",NA,NA,NA,NA,NA,2,#741CD8,#D8271C,0,10,1,38,1,407.69999998807907,37,1,342.7999999523163,0,1,experiment,NA,NA,1,0.7,0.3,2,3,109,3,NA
fcp-trial,144,1025786,0.0-119.0-0.0,voc_e2,11958,"[{""event"":""fullscreenenter"",""trial"":1,""time"":139330}]",NA,NA,NA,NA,NA,2,#FA92F8,#1CD855,10,0,1,38,1,288.39999997615814,37,1,413.5,10,1,experiment,NA,NA,0,0.9,0.1,0,1,110,3,NA
fcp-trial,145,1028038,0.0-120.0-0.0,voc_e2,11958,"[{""event"":""fullscreenenter"",""trial"":1,""time"":139330}]",NA,NA,NA,NA,NA,0,#D8271C,#741CD8,0,10,0,38,1,492.19999998807907,37,1,251.80000001192093,0,0,experiment,NA,NA,1,0.3,0.7,3,2,111,3,NA
fcp-trial,146,1031923,0.0-121.0-0.0,voc_e2,11958,"[{""event"":""fullscreenenter"",""trial"":1,""time"":139330}]",NA,NA,NA,NA,NA,1,#D89F1C,#3386FF,10,10,0,40,0,1403.0999999642372,37,1,967.9000000357628,10,0,experiment,NA,NA,2,0.5,0.5,5,4,112,3,NA
fcp-trial,147,1046955,0.0-122.0-0.0,voc_e2,11958,"[{""event"":""fullscreenenter"",""trial"":1,""time"":139330}]",NA,NA,NA,NA,NA,5,#1CD855,#FA92F8,0,0,0,null,null,null,null,null,null,NA,0,experiment,NA,NA,0,0.1,0.9,1,0,113,3,NA
fcp-trial,148,1061966,0.0-123.0-0.0,voc_e2,11958,"[{""event"":""fullscreenenter"",""trial"":1,""time"":139330}]",NA,NA,NA,NA,NA,3,#FA92F8,#1CD855,10,0,1,null,null,null,null,null,null,NA,0,experiment,NA,NA,0,0.9,0.1,0,1,114,3,NA
fcp-trial,149,1064805,0.0-124.0-0.0,voc_e2,11958,"[{""event"":""fullscreenenter"",""trial"":1,""time"":139330}]",NA,NA,NA,NA,NA,6,#741CD8,#D8271C,10,0,1,40,0,876.3999999761581,37,1,450.4000000357628,10,1,experiment,NA,NA,1,0.7,0.3,2,3,115,3,NA
fcp-trial,150,1067618,0.0-125.0-0.0,voc_e2,11958,"[{""event"":""fullscreenenter"",""trial"":1,""time"":139330}]",NA,NA,NA,NA,NA,3,#D8271C,#741CD8,10,10,0,40,0,895.8000000119209,39,0,399.80000001192093,10,1,experiment,NA,NA,1,0.3,0.7,3,2,116,3,NA
fcp-trial,151,1071286,0.0-126.0-0.0,voc_e2,11958,"[{""event"":""fullscreenenter"",""trial"":1,""time"":139330}]",NA,NA,NA,NA,NA,2,#3386FF,#D89F1C,0,10,1,40,0,1634.800000011921,39,0,522.1000000238419,10,0,experiment,NA,NA,2,0.5,0.5,4,5,117,3,NA
fcp-trial,152,1074554,0.0-127.0-0.0,voc_e2,11958,"[{""event"":""fullscreenenter"",""trial"":1,""time"":139330}]",NA,NA,NA,NA,NA,6,#3386FF,#D89F1C,10,0,1,38,1,1370.0999999642372,37,1,383.19999998807907,10,1,experiment,NA,NA,2,0.5,0.5,4,5,118,3,NA
fcp-trial,153,1078356,0.0-128.0-0.0,voc_e2,11958,"[{""event"":""fullscreenenter"",""trial"":1,""time"":139330}]",NA,NA,NA,NA,NA,1,#1CD855,#FA92F8,0,10,0,38,1,1932,39,0,355.39999997615814,10,1,experiment,NA,NA,0,0.1,0.9,1,0,119,3,NA
fcp-trial,154,1081192,0.0-129.0-0.0,voc_e2,11958,"[{""event"":""fullscreenenter"",""trial"":1,""time"":139330}]",NA,NA,NA,NA,NA,5,#D8271C,#741CD8,0,10,0,38,1,726,39,0,597.5,10,1,experiment,NA,NA,1,0.3,0.7,3,2,120,3,NA
fcp-trial,155,1083973,0.0-130.0-0.0,voc_e2,11958,"[{""event"":""fullscreenenter"",""trial"":1,""time"":139330}]",NA,NA,NA,NA,NA,5,#D89F1C,#3386FF,0,10,0,38,1,747.7999999523163,37,1,518.8999999761581,0,0,experiment,NA,NA,2,0.5,0.5,5,4,121,3,NA
fcp-trial,156,1086273,0.0-131.0-0.0,voc_e2,11958,"[{""event"":""fullscreenenter"",""trial"":1,""time"":139330}]",NA,NA,NA,NA,NA,1,#741CD8,#D8271C,10,0,1,38,1,460,39,0,324.89999997615814,0,0,experiment,NA,NA,1,0.7,0.3,2,3,122,3,NA
fcp-trial,157,1090170,0.0-132.0-0.0,voc_e2,11958,"[{""event"":""fullscreenenter"",""trial"":1,""time"":139330}]",NA,NA,NA,NA,NA,0,#FA92F8,#1CD855,10,10,1,38,1,2015.800000011921,37,1,374.19999998807907,10,1,experiment,NA,NA,0,0.9,0.1,0,1,123,3,NA
fcp-trial,158,1094543,0.0-133.0-0.0,voc_e2,11958,"[{""event"":""fullscreenenter"",""trial"":1,""time"":139330}]",NA,NA,NA,NA,NA,3,#3386FF,#D89F1C,10,10,1,38,1,2537.800000011921,37,1,323.30000001192093,10,1,experiment,NA,NA,2,0.5,0.5,4,5,124,3,NA
fcp-trial,159,1096972,0.0-134.0-0.0,voc_e2,11958,"[{""event"":""fullscreenenter"",""trial"":1,""time"":139330}]",NA,NA,NA,NA,NA,4,#D8271C,#741CD8,0,10,0,38,1,597.0999999642372,39,0,322,10,1,experiment,NA,NA,1,0.3,0.7,3,2,125,3,NA
fcp-trial,160,1099406,0.0-135.0-0.0,voc_e2,11958,"[{""event"":""fullscreenenter"",""trial"":1,""time"":139330}]",NA,NA,NA,NA,NA,6,#1CD855,#FA92F8,0,10,0,38,1,645,39,0,276.10000002384186,10,1,experiment,NA,NA,0,0.1,0.9,1,0,126,3,NA
fcp-trial,161,1101837,0.0-136.0-0.0,voc_e2,11958,"[{""event"":""fullscreenenter"",""trial"":1,""time"":139330}]",NA,NA,NA,NA,NA,1,#3386FF,#D89F1C,0,0,1,38,1,577.6999999880791,37,1,340.9000000357628,0,1,experiment,NA,NA,2,0.5,0.5,4,5,127,3,NA
fcp-trial,162,1104918,0.0-137.0-0.0,voc_e2,11958,"[{""event"":""fullscreenenter"",""trial"":1,""time"":139330}]",NA,NA,NA,NA,NA,5,#D8271C,#741CD8,0,0,0,38,1,1039.9000000357628,39,0,525.9000000357628,0,1,experiment,NA,NA,1,0.3,0.7,3,2,128,3,NA
fcp-trial,163,1107213,0.0-138.0-0.0,voc_e2,11958,"[{""event"":""fullscreenenter"",""trial"":1,""time"":139330}]",NA,NA,NA,NA,NA,6,#741CD8,#D8271C,0,0,1,38,1,519.8000000119209,37,1,263.5,0,1,experiment,NA,NA,1,0.7,0.3,2,3,129,3,NA
fcp-trial,164,1110030,0.0-139.0-0.0,voc_e2,11958,"[{""event"":""fullscreenenter"",""trial"":1,""time"":139330}]",NA,NA,NA,NA,NA,6,#1CD855,#FA92F8,0,10,0,38,1,391.0999999642372,39,0,913.6999999880791,10,1,experiment,NA,NA,0,0.1,0.9,1,0,130,3,NA
fcp-trial,165,1113639,0.0-140.0-0.0,voc_e2,11958,"[{""event"":""fullscreenenter"",""trial"":1,""time"":139330}]",NA,NA,NA,NA,NA,0,#D89F1C,#3386FF,10,0,0,38,1,346.80000001192093,39,0,1752.6000000238419,0,1,experiment,NA,NA,2,0.5,0.5,5,4,131,3,NA
fcp-trial,166,1118922,0.0-141.0-0.0,voc_e2,11958,"[{""event"":""fullscreenenter"",""trial"":1,""time"":139330}]",NA,NA,NA,NA,NA,0,#1CD855,#FA92F8,0,10,0,38,1,3231.2999999523163,39,0,533.6000000238419,10,1,experiment,NA,NA,0,0.1,0.9,1,0,132,3,NA
fcp-trial,167,1121608,0.0-142.0-0.0,voc_e2,11958,"[{""event"":""fullscreenenter"",""trial"":1,""time"":139330}]",NA,NA,NA,NA,NA,1,#741CD8,#D8271C,10,0,1,38,1,743.6000000238419,37,1,433.0999999642372,10,1,experiment,NA,NA,1,0.7,0.3,2,3,133,3,NA
fcp-trial,168,1125081,0.0-143.0-0.0,voc_e2,11958,"[{""event"":""fullscreenenter"",""trial"":1,""time"":139330}]",NA,NA,NA,NA,NA,6,#D89F1C,#3386FF,0,10,0,40,0,1136.300000011921,37,1,820.0999999642372,0,0,experiment,NA,NA,2,0.5,0.5,5,4,134,3,NA
fcp-trial,169,1128709,0.0-144.0-0.0,voc_e2,11958,"[{""event"":""fullscreenenter"",""trial"":1,""time"":139330}]",NA,NA,NA,NA,NA,3,#D8271C,#741CD8,0,0,0,40,0,1826.699999988079,37,1,291,0,0,experiment,NA,NA,1,0.3,0.7,3,2,135,3,NA
fcp-trial,170,1132218,0.0-145.0-0.0,voc_e2,11958,"[{""event"":""fullscreenenter"",""trial"":1,""time"":139330}]",NA,NA,NA,NA,NA,4,#D8271C,#741CD8,10,10,0,40,0,1536.8999999761581,39,0,466,10,1,experiment,NA,NA,1,0.3,0.7,3,2,136,4,NA
fcp-trial,171,1135479,0.0-146.0-0.0,voc_e2,11958,"[{""event"":""fullscreenenter"",""trial"":1,""time"":139330}]",NA,NA,NA,NA,NA,2,#1CD855,#FA92F8,10,10,0,38,1,954.8000000119209,39,0,788.8000000119209,10,1,experiment,NA,NA,0,0.1,0.9,1,0,137,4,NA
fcp-trial,172,1138005,0.0-147.0-0.0,voc_e2,11958,"[{""event"":""fullscreenenter"",""trial"":1,""time"":139330}]",NA,NA,NA,NA,NA,4,#D89F1C,#3386FF,0,0,0,38,1,720.8999999761581,39,0,293.30000001192093,0,1,experiment,NA,NA,2,0.5,0.5,5,4,138,4,NA
fcp-trial,173,1143137,0.0-148.0-0.0,voc_e2,11958,"[{""event"":""fullscreenenter"",""trial"":1,""time"":139330}]",NA,NA,NA,NA,NA,3,#D89F1C,#3386FF,10,0,0,38,1,3230.300000011921,39,0,393.5,0,1,experiment,NA,NA,2,0.5,0.5,5,4,139,4,NA
fcp-trial,174,1151396,0.0-149.0-0.0,voc_e2,11958,"[{""event"":""fullscreenenter"",""trial"":1,""time"":139330}]",NA,NA,NA,NA,NA,4,#1CD855,#FA92F8,0,10,0,38,1,6320.199999988079,37,1,425.10000002384186,0,0,experiment,NA,NA,0,0.1,0.9,1,0,140,4,NA
fcp-trial,175,1154596,0.0-150.0-0.0,voc_e2,11958,"[{""event"":""fullscreenenter"",""trial"":1,""time"":139330}]",NA,NA,NA,NA,NA,2,#741CD8,#D8271C,0,10,1,38,1,1347.800000011921,39,0,340,10,0,experiment,NA,NA,1,0.7,0.3,2,3,141,4,NA
fcp-trial,176,1157753,0.0-151.0-0.0,voc_e2,11958,"[{""event"":""fullscreenenter"",""trial"":1,""time"":139330}]",NA,NA,NA,NA,NA,5,#D89F1C,#3386FF,0,10,0,38,1,1394.2999999523163,39,0,251.30000001192093,10,1,experiment,NA,NA,2,0.5,0.5,5,4,142,4,NA
fcp-trial,177,1162004,0.0-152.0-0.0,voc_e2,11958,"[{""event"":""fullscreenenter"",""trial"":1,""time"":139330}]",NA,NA,NA,NA,NA,0,#741CD8,#D8271C,10,0,1,38,1,2413.600000023842,37,1,326.4000000357628,10,1,experiment,NA,NA,1,0.7,0.3,2,3,143,4,NA
fcp-trial,178,1165509,0.0-153.0-0.0,voc_e2,11958,"[{""event"":""fullscreenenter"",""trial"":1,""time"":139330}]",NA,NA,NA,NA,NA,2,#D89F1C,#3386FF,0,10,0,38,1,1728.199999988079,39,0,261.4000000357628,10,1,experiment,NA,NA,2,0.5,0.5,5,4,144,4,NA
fcp-trial,179,1169712,0.0-154.0-0.0,voc_e2,11958,"[{""event"":""fullscreenenter"",""trial"":1,""time"":139330}]",NA,NA,NA,NA,NA,1,#1CD855,#FA92F8,0,0,0,38,1,2398,39,0,288,0,1,experiment,NA,NA,0,0.1,0.9,1,0,145,4,NA
fcp-trial,180,1172144,0.0-155.0-0.0,voc_e2,11958,"[{""event"":""fullscreenenter"",""trial"":1,""time"":139330}]",NA,NA,NA,NA,NA,5,#1CD855,#FA92F8,0,10,0,38,1,432.39999997615814,39,0,484.19999998807907,10,1,experiment,NA,NA,0,0.1,0.9,1,0,146,4,NA
fcp-trial,181,1174359,0.0-156.0-0.0,voc_e2,11958,"[{""event"":""fullscreenenter"",""trial"":1,""time"":139330}]",NA,NA,NA,NA,NA,3,#FA92F8,#1CD855,10,0,1,38,1,408,37,1,292.19999998807907,10,1,experiment,NA,NA,0,0.9,0.1,0,1,147,4,NA
fcp-trial,182,1177186,0.0-157.0-0.0,voc_e2,11958,"[{""event"":""fullscreenenter"",""trial"":1,""time"":139330}]",NA,NA,NA,NA,NA,6,#FA92F8,#1CD855,10,0,1,40,0,891.1999999880791,37,1,424.30000001192093,10,1,experiment,NA,NA,0,0.9,0.1,0,1,148,4,NA
fcp-trial,183,1180547,0.0-158.0-0.0,voc_e2,11958,"[{""event"":""fullscreenenter"",""trial"":1,""time"":139330}]",NA,NA,NA,NA,NA,5,#3386FF,#D89F1C,10,0,1,40,0,1050.5,37,1,798.7999999523163,10,1,experiment,NA,NA,2,0.5,0.5,4,5,149,4,NA
fcp-trial,184,1183400,0.0-159.0-0.0,voc_e2,11958,"[{""event"":""fullscreenenter"",""trial"":1,""time"":139330}]",NA,NA,NA,NA,NA,6,#3386FF,#D89F1C,0,10,1,40,0,846.8999999761581,37,1,493.5,0,1,experiment,NA,NA,2,0.5,0.5,4,5,150,4,NA
fcp-trial,185,1188124,0.0-160.0-0.0,voc_e2,11958,"[{""event"":""fullscreenenter"",""trial"":1,""time"":139330}]",NA,NA,NA,NA,NA,0,#1CD855,#FA92F8,10,10,0,40,0,2918.099999964237,39,0,289.7000000476837,10,1,experiment,NA,NA,0,0.1,0.9,1,0,151,4,NA
fcp-trial,186,1191679,0.0-161.0-0.0,voc_e2,11958,"[{""event"":""fullscreenenter"",""trial"":1,""time"":139330}]",NA,NA,NA,NA,NA,6,#D8271C,#741CD8,0,10,0,40,0,1616.1000000238419,37,1,419.9000000357628,0,0,experiment,NA,NA,1,0.3,0.7,3,2,152,4,NA
fcp-trial,187,1193881,0.0-162.0-0.0,voc_e2,11958,"[{""event"":""fullscreenenter"",""trial"":1,""time"":139330}]",NA,NA,NA,NA,NA,5,#1CD855,#FA92F8,0,0,0,38,1,355.0999999642372,39,0,332.30000001192093,0,1,experiment,NA,NA,0,0.1,0.9,1,0,153,4,NA
fcp-trial,188,1196531,0.0-163.0-0.0,voc_e2,11958,"[{""event"":""fullscreenenter"",""trial"":1,""time"":139330}]",NA,NA,NA,NA,NA,2,#D89F1C,#3386FF,0,10,0,38,1,814.1000000238419,37,1,325.69999998807907,0,0,experiment,NA,NA,2,0.5,0.5,5,4,154,4,NA
fcp-trial,189,1198531,0.0-164.0-0.0,voc_e2,11958,"[{""event"":""fullscreenenter"",""trial"":1,""time"":139330}]",NA,NA,NA,NA,NA,1,#741CD8,#D8271C,10,0,1,38,1,148.19999998807907,39,0,338.2999999523163,0,0,experiment,NA,NA,1,0.7,0.3,2,3,155,4,NA
fcp-trial,190,1202001,0.0-165.0-0.0,voc_e2,11958,"[{""event"":""fullscreenenter"",""trial"":1,""time"":139330}]",NA,NA,NA,NA,NA,4,#FA92F8,#1CD855,10,0,1,40,0,103.20000004768372,39,0,1851.3999999761581,0,0,experiment,NA,NA,0,0.9,0.1,0,1,156,4,NA
fcp-trial,191,1204894,0.0-166.0-0.0,voc_e2,11958,"[{""event"":""fullscreenenter"",""trial"":1,""time"":139330}]",NA,NA,NA,NA,NA,1,#3386FF,#D89F1C,0,0,1,38,1,930.5,39,0,444,0,0,experiment,NA,NA,2,0.5,0.5,4,5,157,4,NA
fcp-trial,192,1207041,0.0-167.0-0.0,voc_e2,11958,"[{""event"":""fullscreenenter"",""trial"":1,""time"":139330}]",NA,NA,NA,NA,NA,3,#D8271C,#741CD8,0,0,0,38,1,74.19999998807907,37,1,554.3000000119209,0,0,experiment,NA,NA,1,0.3,0.7,3,2,158,4,NA
fcp-trial,193,1209474,0.0-168.0-0.0,voc_e2,11958,"[{""event"":""fullscreenenter"",""trial"":1,""time"":139330}]",NA,NA,NA,NA,NA,1,#1CD855,#FA92F8,0,10,0,38,1,597.5,39,0,321.60000002384186,10,1,experiment,NA,NA,0,0.1,0.9,1,0,159,4,NA
fcp-trial,194,1212022,0.0-169.0-0.0,voc_e2,11958,"[{""event"":""fullscreenenter"",""trial"":1,""time"":139330}]",NA,NA,NA,NA,NA,4,#D89F1C,#3386FF,10,10,0,38,1,585.0999999642372,39,0,454.2999999523163,10,1,experiment,NA,NA,2,0.5,0.5,5,4,160,4,NA
fcp-trial,195,1215028,0.0-170.0-0.0,voc_e2,11958,"[{""event"":""fullscreenenter"",""trial"":1,""time"":139330}]",NA,NA,NA,NA,NA,5,#D8271C,#741CD8,0,10,0,38,1,894.8000000119209,37,1,603.8999999761581,0,0,experiment,NA,NA,1,0.3,0.7,3,2,161,4,NA
fcp-trial,196,1218042,0.0-171.0-0.0,voc_e2,11958,"[{""event"":""fullscreenenter"",""trial"":1,""time"":139330}]",NA,NA,NA,NA,NA,4,#741CD8,#D8271C,0,0,1,38,1,868.3999999761581,39,0,625.6000000238419,0,0,experiment,NA,NA,1,0.7,0.3,2,3,162,4,NA
fcp-trial,197,1220822,0.0-172.0-0.0,voc_e2,11958,"[{""event"":""fullscreenenter"",""trial"":1,""time"":139330}]",NA,NA,NA,NA,NA,2,#FA92F8,#1CD855,10,0,1,38,1,607.6000000238419,37,1,662.3000000119209,10,1,experiment,NA,NA,0,0.9,0.1,0,1,163,4,NA
fcp-trial,198,1224149,0.0-173.0-0.0,voc_e2,11958,"[{""event"":""fullscreenenter"",""trial"":1,""time"":139330}]",NA,NA,NA,NA,NA,0,#741CD8,#D8271C,0,10,1,38,1,1211.7999999523163,39,0,602,10,0,experiment,NA,NA,1,0.7,0.3,2,3,164,4,NA
fcp-trial,199,1226433,0.0-174.0-0.0,voc_e2,11958,"[{""event"":""fullscreenenter"",""trial"":1,""time"":139330}]",NA,NA,NA,NA,NA,0,#D89F1C,#3386FF,10,10,0,38,1,392.5,37,1,374.5,10,0,experiment,NA,NA,2,0.5,0.5,5,4,165,4,NA
fcp-trial,200,1229640,0.0-175.0-0.0,voc_e2,11958,"[{""event"":""fullscreenenter"",""trial"":1,""time"":139330}]",NA,NA,NA,NA,NA,3,#FA92F8,#1CD855,10,0,1,38,1,1379.699999988079,37,1,312.89999997615814,10,1,experiment,NA,NA,0,0.9,0.1,0,1,166,4,NA
fcp-trial,201,1234802,0.0-176.0-0.0,voc_e2,11958,"[{""event"":""fullscreenenter"",""trial"":1,""time"":139330}]",NA,NA,NA,NA,NA,2,#741CD8,#D8271C,10,10,1,38,1,3315.899999976158,39,0,331.7999999523163,10,0,experiment,NA,NA,1,0.7,0.3,2,3,167,4,NA
fcp-trial,202,1240769,0.0-177.0-0.0,voc_e2,11958,"[{""event"":""fullscreenenter"",""trial"":1,""time"":139330}]",NA,NA,NA,NA,NA,3,#3386FF,#D89F1C,0,10,1,38,1,4137.600000023842,37,1,309.80000001192093,0,1,experiment,NA,NA,2,0.5,0.5,4,5,168,4,NA
fcp-trial,203,1244157,0.0-178.0-0.0,voc_e2,11958,"[{""event"":""fullscreenenter"",""trial"":1,""time"":139330}]",NA,NA,NA,NA,NA,1,#D89F1C,#3386FF,10,10,0,38,1,1530.9000000357628,39,0,343.10000002384186,10,1,experiment,NA,NA,2,0.5,0.5,5,4,169,4,NA
fcp-trial,204,1247232,0.0-179.0-0.0,voc_e2,11958,"[{""event"":""fullscreenenter"",""trial"":1,""time"":139330}]",NA,NA,NA,NA,NA,2,#D8271C,#741CD8,10,10,0,38,1,1291.800000011921,37,1,266.0999999642372,10,0,experiment,NA,NA,1,0.3,0.7,3,2,170,4,NA
fcp-trial,205,1252256,0.0-180.0-0.0,voc_e2,11958,"[{""event"":""fullscreenenter"",""trial"":1,""time"":139330}]",NA,NA,NA,NA,NA,0,#D8271C,#741CD8,0,10,0,38,1,3178.599999964237,39,0,335.10000002384186,10,1,experiment,NA,NA,1,0.3,0.7,3,2,171,4,NA
fcp-trial,206,1255760,0.0-181.0-0.0,voc_e2,11958,"[{""event"":""fullscreenenter"",""trial"":1,""time"":139330}]",NA,NA,NA,NA,NA,3,#D89F1C,#3386FF,0,10,0,38,1,1731.300000011921,37,1,258.69999998807907,0,0,experiment,NA,NA,2,0.5,0.5,5,4,172,4,NA
fcp-trial,207,1257768,0.0-182.0-0.0,voc_e2,11958,"[{""event"":""fullscreenenter"",""trial"":1,""time"":139330}]",NA,NA,NA,NA,NA,5,#1CD855,#FA92F8,0,10,0,38,1,182.69999998807907,39,0,317.69999998807907,10,1,experiment,NA,NA,0,0.1,0.9,1,0,173,4,NA
fcp-trial,208,1264457,0.0-183.0-0.0,voc_e2,11958,"[{""event"":""fullscreenenter"",""trial"":1,""time"":139330}]",NA,NA,NA,NA,NA,1,#741CD8,#D8271C,0,0,1,38,1,4755.800000011921,37,1,422.19999998807907,0,1,experiment,NA,NA,1,0.7,0.3,2,3,174,4,NA
fcp-trial,209,1271359,0.0-184.0-0.0,voc_e2,11958,"[{""event"":""fullscreenenter"",""trial"":1,""time"":139330}]",NA,NA,NA,NA,NA,2,#D89F1C,#3386FF,0,0,0,38,1,5101.399999976158,39,0,286.39999997615814,0,1,experiment,NA,NA,2,0.5,0.5,5,4,175,4,NA
fcp-trial,210,1279876,0.0-185.0-0.0,voc_e2,11958,"[{""event"":""fullscreenenter"",""trial"":1,""time"":139330}]",NA,NA,NA,NA,NA,1,#1CD855,#FA92F8,0,10,0,38,1,6622.199999988079,39,0,381.0999999642372,10,1,experiment,NA,NA,0,0.1,0.9,1,0,176,4,NA
fcp-trial,211,1284198,0.0-186.0-0.0,voc_e2,11958,"[{""event"":""fullscreenenter"",""trial"":1,""time"":139330}]",NA,NA,NA,NA,NA,2,#FA92F8,#1CD855,10,0,1,38,1,1842.199999988079,37,1,970.5,10,1,experiment,NA,NA,0,0.9,0.1,0,1,177,4,NA
fcp-trial,212,1286761,0.0-187.0-0.0,voc_e2,11958,"[{""event"":""fullscreenenter"",""trial"":1,""time"":139330}]",NA,NA,NA,NA,NA,5,#D89F1C,#3386FF,0,0,0,38,1,788.3999999761581,39,0,263,0,1,experiment,NA,NA,2,0.5,0.5,5,4,178,4,NA
fcp-trial,213,1292468,0.0-188.0-0.0,voc_e2,11958,"[{""event"":""fullscreenenter"",""trial"":1,""time"":139330}]",NA,NA,NA,NA,NA,6,#D8271C,#741CD8,0,10,0,38,1,3430.5,39,0,764.0999999642372,10,1,experiment,NA,NA,1,0.3,0.7,3,2,179,4,NA
fcp-trial,214,1295031,0.0-189.0-0.0,voc_e2,11958,"[{""event"":""fullscreenenter"",""trial"":1,""time"":139330}]",NA,NA,NA,NA,NA,3,#FA92F8,#1CD855,10,0,1,38,1,680,37,1,370.60000002384186,10,1,experiment,NA,NA,0,0.9,0.1,0,1,180,4,NA
fcp-trial,215,1299514,0.0-190.0-0.0,voc_e2,11958,"[{""event"":""fullscreenenter"",""trial"":1,""time"":139330}]",NA,NA,NA,NA,NA,4,#1CD855,#FA92F8,10,10,0,38,1,2650.5,39,0,319.69999998807907,10,1,experiment,NA,NA,0,0.1,0.9,1,0,181,5,NA
fcp-trial,216,1302848,0.0-191.0-0.0,voc_e2,11958,"[{""event"":""fullscreenenter"",""trial"":1,""time"":139330}]",NA,NA,NA,NA,NA,0,#3386FF,#D89F1C,0,0,1,38,1,1523.7999999523163,37,1,298.10000002384186,0,1,experiment,NA,NA,2,0.5,0.5,4,5,182,5,NA
fcp-trial,217,1305263,0.0-192.0-0.0,voc_e2,11958,"[{""event"":""fullscreenenter"",""trial"":1,""time"":139330}]",NA,NA,NA,NA,NA,5,#D8271C,#741CD8,0,10,0,38,1,556.5,39,0,342.19999998807907,10,1,experiment,NA,NA,1,0.3,0.7,3,2,183,5,NA
fcp-trial,218,1308988,0.0-193.0-0.0,voc_e2,11958,"[{""event"":""fullscreenenter"",""trial"":1,""time"":139330}]",NA,NA,NA,NA,NA,6,#FA92F8,#1CD855,10,0,1,40,0,1585.6000000238419,39,0,625.7000000476837,0,0,experiment,NA,NA,0,0.9,0.1,0,1,184,5,NA
fcp-trial,219,1311704,0.0-194.0-0.0,voc_e2,11958,"[{""event"":""fullscreenenter"",""trial"":1,""time"":139330}]",NA,NA,NA,NA,NA,4,#D8271C,#741CD8,0,10,0,38,1,744.3999999761581,37,1,457.39999997615814,0,0,experiment,NA,NA,1,0.3,0.7,3,2,185,5,NA
fcp-trial,220,1314528,0.0-195.0-0.0,voc_e2,11958,"[{""event"":""fullscreenenter"",""trial"":1,""time"":139330}]",NA,NA,NA,NA,NA,4,#3386FF,#D89F1C,10,10,1,38,1,894.1000000238419,39,0,412.5999999642372,10,0,experiment,NA,NA,2,0.5,0.5,4,5,186,5,NA
fcp-trial,221,1316955,0.0-196.0-0.0,voc_e2,11958,"[{""event"":""fullscreenenter"",""trial"":1,""time"":139330}]",NA,NA,NA,NA,NA,3,#741CD8,#D8271C,10,0,1,38,1,626.5,37,1,290.60000002384186,10,1,experiment,NA,NA,1,0.7,0.3,2,3,187,5,NA
fcp-trial,222,1319988,0.0-197.0-0.0,voc_e2,11958,"[{""event"":""fullscreenenter"",""trial"":1,""time"":139330}]",NA,NA,NA,NA,NA,6,#3386FF,#D89F1C,0,10,1,38,1,1158.800000011921,39,0,362.39999997615814,10,0,experiment,NA,NA,2,0.5,0.5,4,5,188,5,NA
fcp-trial,223,1323735,0.0-198.0-0.0,voc_e2,11958,"[{""event"":""fullscreenenter"",""trial"":1,""time"":139330}]",NA,NA,NA,NA,NA,0,#FA92F8,#1CD855,10,0,1,38,1,1640.699999988079,37,1,595.5999999642372,10,1,experiment,NA,NA,0,0.9,0.1,0,1,189,5,NA
fcp-trial,224,1328237,0.0-199.0-0.0,voc_e2,11958,"[{""event"":""fullscreenenter"",""trial"":1,""time"":139330}]",NA,NA,NA,NA,NA,4,#3386FF,#D89F1C,0,10,1,38,1,2595.899999976158,39,0,396.30000001192093,10,0,experiment,NA,NA,2,0.5,0.5,4,5,190,5,NA
fcp-trial,225,1333479,0.0-200.0-0.0,voc_e2,11958,"[{""event"":""fullscreenenter"",""trial"":1,""time"":139330}]",NA,NA,NA,NA,NA,3,#1CD855,#FA92F8,0,10,0,38,1,3215.2999999523163,39,0,515.5999999642372,10,1,experiment,NA,NA,0,0.1,0.9,1,0,191,5,NA
fcp-trial,226,1337991,0.0-201.0-0.0,voc_e2,11958,"[{""event"":""fullscreenenter"",""trial"":1,""time"":139330}]",NA,NA,NA,NA,NA,2,#741CD8,#D8271C,10,0,1,38,1,2488.300000011921,39,0,505.10000002384186,0,0,experiment,NA,NA,1,0.7,0.3,2,3,192,5,NA
fcp-trial,227,1342479,0.0-202.0-0.0,voc_e2,11958,"[{""event"":""fullscreenenter"",""trial"":1,""time"":139330}]",NA,NA,NA,NA,NA,0,#3386FF,#D89F1C,10,10,1,38,1,2653,37,1,323.5999999642372,10,1,experiment,NA,NA,2,0.5,0.5,4,5,193,5,NA
fcp-trial,228,1350509,0.0-203.0-0.0,voc_e2,11958,"[{""event"":""fullscreenenter"",""trial"":1,""time"":139330}]",NA,NA,NA,NA,NA,0,#FA92F8,#1CD855,10,0,1,38,1,6125.699999988079,37,1,395.5999999642372,10,1,experiment,NA,NA,0,0.9,0.1,0,1,194,5,NA
fcp-trial,229,1353344,0.0-204.0-0.0,voc_e2,11958,"[{""event"":""fullscreenenter"",""trial"":1,""time"":139330}]",NA,NA,NA,NA,NA,4,#FA92F8,#1CD855,10,0,1,38,1,886.0999999642372,37,1,434.30000001192093,10,1,experiment,NA,NA,0,0.9,0.1,0,1,195,5,NA
fcp-trial,230,1355745,0.0-205.0-0.0,voc_e2,11958,"[{""event"":""fullscreenenter"",""trial"":1,""time"":139330}]",NA,NA,NA,NA,NA,1,#D89F1C,#3386FF,10,10,0,38,1,582.3999999761581,39,0,312.89999997615814,10,1,experiment,NA,NA,2,0.5,0.5,5,4,196,5,NA
fcp-trial,231,1362351,0.0-206.0-0.0,voc_e2,11958,"[{""event"":""fullscreenenter"",""trial"":1,""time"":139330}]",NA,NA,NA,NA,NA,5,#D8271C,#741CD8,0,10,0,38,1,4620.599999964237,37,1,477.69999998807907,0,0,experiment,NA,NA,1,0.3,0.7,3,2,197,5,NA
fcp-trial,232,1364373,0.0-207.0-0.0,voc_e2,11958,"[{""event"":""fullscreenenter"",""trial"":1,""time"":139330}]",NA,NA,NA,NA,NA,3,#D8271C,#741CD8,0,10,0,38,1,85.30000001192093,39,0,428.69999998807907,10,1,experiment,NA,NA,1,0.3,0.7,3,2,198,5,NA
fcp-trial,233,1367664,0.0-208.0-0.0,voc_e2,11958,"[{""event"":""fullscreenenter"",""trial"":1,""time"":139330}]",NA,NA,NA,NA,NA,2,#D89F1C,#3386FF,0,0,0,38,1,1195,39,0,585.3999999761581,0,1,experiment,NA,NA,2,0.5,0.5,5,4,199,5,NA
fcp-trial,234,1370633,0.0-209.0-0.0,voc_e2,11958,"[{""event"":""fullscreenenter"",""trial"":1,""time"":139330}]",NA,NA,NA,NA,NA,1,#FA92F8,#1CD855,0,0,1,38,1,997.8999999761581,37,1,460.5999999642372,0,1,experiment,NA,NA,0,0.9,0.1,0,1,200,5,NA
fcp-trial,235,1373564,0.0-210.0-0.0,voc_e2,11958,"[{""event"":""fullscreenenter"",""trial"":1,""time"":139330}]",NA,NA,NA,NA,NA,3,#D89F1C,#3386FF,10,0,0,38,1,559.5999999642372,39,0,861.8999999761581,0,1,experiment,NA,NA,2,0.5,0.5,5,4,201,5,NA
fcp-trial,236,1376580,0.0-211.0-0.0,voc_e2,11958,"[{""event"":""fullscreenenter"",""trial"":1,""time"":139330}]",NA,NA,NA,NA,NA,6,#D8271C,#741CD8,0,10,0,38,1,1158,39,0,345,10,1,experiment,NA,NA,1,0.3,0.7,3,2,202,5,NA
fcp-trial,237,1381046,0.0-212.0-0.0,voc_e2,11958,"[{""event"":""fullscreenenter"",""trial"":1,""time"":139330}]",NA,NA,NA,NA,NA,2,#FA92F8,#1CD855,10,0,1,38,1,2548.399999976158,37,1,410,10,1,experiment,NA,NA,0,0.9,0.1,0,1,203,5,NA
fcp-trial,238,1383910,0.0-213.0-0.0,voc_e2,11958,"[{""event"":""fullscreenenter"",""trial"":1,""time"":139330}]",NA,NA,NA,NA,NA,5,#3386FF,#D89F1C,10,10,1,38,1,1026.800000011921,39,0,329.19999998807907,10,0,experiment,NA,NA,2,0.5,0.5,4,5,204,5,NA
fcp-trial,239,1388319,0.0-214.0-0.0,voc_e2,11958,"[{""event"":""fullscreenenter"",""trial"":1,""time"":139330}]",NA,NA,NA,NA,NA,1,#741CD8,#D8271C,0,10,1,38,1,2398.800000011921,39,0,502.30000001192093,10,0,experiment,NA,NA,1,0.7,0.3,2,3,205,5,NA
fcp-trial,240,1391261,0.0-215.0-0.0,voc_e2,11958,"[{""event"":""fullscreenenter"",""trial"":1,""time"":139330}]",NA,NA,NA,NA,NA,6,#FA92F8,#1CD855,0,10,1,38,1,914.9000000357628,37,1,520.5,0,1,experiment,NA,NA,0,0.9,0.1,0,1,206,5,NA
fcp-trial,241,1395381,0.0-216.0-0.0,voc_e2,11958,"[{""event"":""fullscreenenter"",""trial"":1,""time"":139330}]",NA,NA,NA,NA,NA,4,#D8271C,#741CD8,0,0,0,38,1,2140.699999988079,39,0,457.10000002384186,0,1,experiment,NA,NA,1,0.3,0.7,3,2,207,5,NA
fcp-trial,242,1398840,0.0-217.0-0.0,voc_e2,11958,"[{""event"":""fullscreenenter"",""trial"":1,""time"":139330}]",NA,NA,NA,NA,NA,5,#1CD855,#FA92F8,0,0,0,38,1,1561.5,39,0,388.69999998807907,0,1,experiment,NA,NA,0,0.1,0.9,1,0,208,5,NA
fcp-trial,243,1403972,0.0-218.0-0.0,voc_e2,11958,"[{""event"":""fullscreenenter"",""trial"":1,""time"":139330}]",NA,NA,NA,NA,NA,6,#D89F1C,#3386FF,0,10,0,40,0,3159.5,39,0,460.10000002384186,10,1,experiment,NA,NA,2,0.5,0.5,5,4,209,5,NA
fcp-trial,244,1406598,0.0-219.0-0.0,voc_e2,11958,"[{""event"":""fullscreenenter"",""trial"":1,""time"":139330}]",NA,NA,NA,NA,NA,0,#D8271C,#741CD8,0,10,0,40,0,612.9000000357628,39,0,506.5,10,1,experiment,NA,NA,1,0.3,0.7,3,2,210,5,NA
audio-instructions,245,1450571,0.0-220.0,voc_e2,11958,"[{""event"":""fullscreenenter"",""trial"":1,""time"":139330}]",NA,38819.70000004768,static/audio/pause.wav,NA,0,NA,NA,NA,NA,NA,NA,NA,NA,NA,NA,NA,NA,NA,NA,NA,NA,NA,NA,NA,NA,NA,NA,NA,NA,NA
fcp-trial,246,1456743,0.0-221.0-0.0,voc_e2,11958,"[{""event"":""fullscreenenter"",""trial"":1,""time"":139330}]",NA,NA,NA,NA,NA,3,#D89F1C,#3386FF,10,0,0,40,0,4295.400000035763,39,0,362.89999997615814,0,1,experiment,NA,NA,2,0.5,0.5,5,4,211,5,NA
fcp-trial,247,1458900,0.0-222.0-0.0,voc_e2,11958,"[{""event"":""fullscreenenter"",""trial"":1,""time"":139330}]",NA,NA,NA,NA,NA,1,#3386FF,#D89F1C,0,0,1,38,1,331.60000002384186,37,1,319.5999999642372,0,1,experiment,NA,NA,2,0.5,0.5,4,5,212,5,NA
fcp-trial,248,1461639,0.0-223.0-0.0,voc_e2,11958,"[{""event"":""fullscreenenter"",""trial"":1,""time"":139330}]",NA,NA,NA,NA,NA,0,#741CD8,#D8271C,0,0,1,38,1,976.3999999761581,39,0,257.19999998807907,0,0,experiment,NA,NA,1,0.7,0.3,2,3,213,5,NA
fcp-trial,249,1463868,0.0-224.0-0.0,voc_e2,11958,"[{""event"":""fullscreenenter"",""trial"":1,""time"":139330}]",NA,NA,NA,NA,NA,1,#FA92F8,#1CD855,0,10,1,38,1,395.4000000357628,37,1,323.4000000357628,0,1,experiment,NA,NA,0,0.9,0.1,0,1,214,5,NA
fcp-trial,250,1466274,0.0-225.0-0.0,voc_e2,11958,"[{""event"":""fullscreenenter"",""trial"":1,""time"":139330}]",NA,NA,NA,NA,NA,5,#FA92F8,#1CD855,10,0,1,38,1,359,39,0,535.8999999761581,0,0,experiment,NA,NA,0,0.9,0.1,0,1,215,5,NA
fcp-trial,251,1468360,0.0-226.0-0.0,voc_e2,11958,"[{""event"":""fullscreenenter"",""trial"":1,""time"":139330}]",NA,NA,NA,NA,NA,4,#3386FF,#D89F1C,0,10,1,38,1,139.19999998807907,37,1,441,0,1,experiment,NA,NA,2,0.5,0.5,4,5,216,5,NA
fcp-trial,252,1470993,0.0-227.0-0.0,voc_e2,11958,"[{""event"":""fullscreenenter"",""trial"":1,""time"":139330}]",NA,NA,NA,NA,NA,1,#D8271C,#741CD8,0,0,0,38,1,590.6999999880791,37,1,526.6999999880791,0,0,experiment,NA,NA,1,0.3,0.7,3,2,217,5,NA
fcp-trial,253,1473251,0.0-228.0-0.0,voc_e2,11958,"[{""event"":""fullscreenenter"",""trial"":1,""time"":139330}]",NA,NA,NA,NA,NA,3,#FA92F8,#1CD855,10,0,1,40,0,338.19999998807907,37,1,411,10,1,experiment,NA,NA,0,0.9,0.1,0,1,218,5,NA
fcp-trial,254,1476793,0.0-229.0-0.0,voc_e2,11958,"[{""event"":""fullscreenenter"",""trial"":1,""time"":139330}]",NA,NA,NA,NA,NA,6,#3386FF,#D89F1C,0,10,1,38,1,1736.5,39,0,299.19999998807907,10,0,experiment,NA,NA,2,0.5,0.5,4,5,219,5,NA
fcp-trial,255,1480077,0.0-230.0-0.0,voc_e2,11958,"[{""event"":""fullscreenenter"",""trial"":1,""time"":139330}]",NA,NA,NA,NA,NA,6,#741CD8,#D8271C,10,0,1,38,1,1489,37,1,284.5999999642372,10,1,experiment,NA,NA,1,0.7,0.3,2,3,220,5,NA
fcp-trial,256,1482227,0.0-231.0-0.0,voc_e2,11958,"[{""event"":""fullscreenenter"",""trial"":1,""time"":139330}]",NA,NA,NA,NA,NA,3,#D8271C,#741CD8,0,10,0,38,1,314.10000002384186,39,0,324.19999998807907,10,1,experiment,NA,NA,1,0.3,0.7,3,2,221,5,NA
fcp-trial,257,1485090,0.0-232.0-0.0,voc_e2,11958,"[{""event"":""fullscreenenter"",""trial"":1,""time"":139330}]",NA,NA,NA,NA,NA,2,#3386FF,#D89F1C,0,10,1,38,1,1021.3999999761581,37,1,326,0,1,experiment,NA,NA,2,0.5,0.5,4,5,222,5,NA
fcp-trial,258,1490054,0.0-233.0-0.0,voc_e2,11958,"[{""event"":""fullscreenenter"",""trial"":1,""time"":139330}]",NA,NA,NA,NA,NA,6,#FA92F8,#1CD855,10,0,1,38,1,3101.399999976158,37,1,357,10,1,experiment,NA,NA,0,0.9,0.1,0,1,223,5,NA
fcp-trial,259,1498464,0.0-234.0-0.0,voc_e2,11958,"[{""event"":""fullscreenenter"",""trial"":1,""time"":139330}]",NA,NA,NA,NA,NA,4,#D8271C,#741CD8,0,10,0,40,0,6161.199999988079,37,1,744.1999999880791,0,0,experiment,NA,NA,1,0.3,0.7,3,2,224,5,NA
fcp-trial,260,1508609,0.0-235.0-0.0,voc_e2,11958,"[{""event"":""fullscreenenter"",""trial"":1,""time"":139330}]",NA,NA,NA,NA,NA,5,#741CD8,#D8271C,0,0,1,40,0,8069.400000035763,37,1,568.8999999761581,0,1,experiment,NA,NA,1,0.7,0.3,2,3,225,5,NA
fcp-trial,261,1523618,0.0-236.0-0.0,voc_e2,11958,"[{""event"":""fullscreenenter"",""trial"":1,""time"":139330}]",NA,NA,NA,NA,NA,4,#1CD855,#FA92F8,10,10,0,null,null,null,null,null,null,NA,0,experiment,NA,NA,0,0.1,0.9,1,0,226,6,NA
fcp-trial,262,1529203,0.0-237.0-0.0,voc_e2,11958,"[{""event"":""fullscreenenter"",""trial"":1,""time"":139330}]",NA,NA,NA,NA,NA,5,#3386FF,#D89F1C,10,10,1,40,0,3245.399999976158,37,1,830.6999999880791,10,1,experiment,NA,NA,2,0.5,0.5,4,5,227,6,NA
fcp-trial,263,1532092,0.0-238.0-0.0,voc_e2,11958,"[{""event"":""fullscreenenter"",""trial"":1,""time"":139330}]",NA,NA,NA,NA,NA,2,#741CD8,#D8271C,0,0,1,40,0,755.1000000238419,39,0,623.7000000476837,0,0,experiment,NA,NA,1,0.7,0.3,2,3,228,6,NA
fcp-trial,264,1535374,0.0-239.0-0.0,voc_e2,11958,"[{""event"":""fullscreenenter"",""trial"":1,""time"":139330}]",NA,NA,NA,NA,NA,0,#D89F1C,#3386FF,10,0,0,38,1,1236.3999999761581,37,1,528.5,10,0,experiment,NA,NA,2,0.5,0.5,5,4,229,6,NA
fcp-trial,265,1538596,0.0-240.0-0.0,voc_e2,11958,"[{""event"":""fullscreenenter"",""trial"":1,""time"":139330}]",NA,NA,NA,NA,NA,2,#1CD855,#FA92F8,0,10,0,38,1,1020.9000000357628,39,0,688.8999999761581,10,1,experiment,NA,NA,0,0.1,0.9,1,0,230,6,NA
fcp-trial,266,1541822,0.0-241.0-0.0,voc_e2,11958,"[{""event"":""fullscreenenter"",""trial"":1,""time"":139330}]",NA,NA,NA,NA,NA,0,#FA92F8,#1CD855,10,0,1,40,0,1190.5999999642372,37,1,527.5,10,1,experiment,NA,NA,0,0.9,0.1,0,1,231,6,NA
fcp-trial,267,1544035,0.0-242.0-0.0,voc_e2,11958,"[{""event"":""fullscreenenter"",""trial"":1,""time"":139330}]",NA,NA,NA,NA,NA,2,#D8271C,#741CD8,10,0,0,38,1,413.5,39,0,285.9000000357628,0,1,experiment,NA,NA,1,0.3,0.7,3,2,232,6,NA
fcp-trial,268,1546355,0.0-243.0-0.0,voc_e2,11958,"[{""event"":""fullscreenenter"",""trial"":1,""time"":139330}]",NA,NA,NA,NA,NA,0,#D89F1C,#3386FF,0,0,0,38,1,313.19999998807907,37,1,495.30000001192093,0,0,experiment,NA,NA,2,0.5,0.5,5,4,233,6,NA
fcp-trial,269,1548460,0.0-244.0-0.0,voc_e2,11958,"[{""event"":""fullscreenenter"",""trial"":1,""time"":139330}]",NA,NA,NA,NA,NA,3,#3386FF,#D89F1C,10,0,1,38,1,341.80000001192093,39,0,252.4000000357628,0,0,experiment,NA,NA,2,0.5,0.5,4,5,234,6,NA
fcp-trial,270,1551090,0.0-245.0-0.0,voc_e2,11958,"[{""event"":""fullscreenenter"",""trial"":1,""time"":139330}]",NA,NA,NA,NA,NA,0,#FA92F8,#1CD855,0,0,1,38,1,714,37,1,406.5,0,1,experiment,NA,NA,0,0.9,0.1,0,1,235,6,NA
fcp-trial,271,1553271,0.0-246.0-0.0,voc_e2,11958,"[{""event"":""fullscreenenter"",""trial"":1,""time"":139330}]",NA,NA,NA,NA,NA,1,#FA92F8,#1CD855,10,0,1,38,1,109.19999998807907,37,1,563.3999999761581,10,1,experiment,NA,NA,0,0.9,0.1,0,1,236,6,NA
fcp-trial,272,1555342,0.0-247.0-0.0,voc_e2,11958,"[{""event"":""fullscreenenter"",""trial"":1,""time"":139330}]",NA,NA,NA,NA,NA,5,#741CD8,#D8271C,10,0,1,38,1,118.5,37,1,449.10000002384186,10,1,experiment,NA,NA,1,0.7,0.3,2,3,237,6,NA
fcp-trial,273,1557341,0.0-248.0-0.0,voc_e2,11958,"[{""event"":""fullscreenenter"",""trial"":1,""time"":139330}]",NA,NA,NA,NA,NA,5,#D89F1C,#3386FF,0,10,0,38,1,41.30000001192093,37,1,445.80000001192093,0,0,experiment,NA,NA,2,0.5,0.5,5,4,238,6,NA
fcp-trial,274,1559374,0.0-249.0-0.0,voc_e2,11958,"[{""event"":""fullscreenenter"",""trial"":1,""time"":139330}]",NA,NA,NA,NA,NA,2,#1CD855,#FA92F8,0,10,0,38,1,189.10000002384186,39,0,334.30000001192093,10,1,experiment,NA,NA,0,0.1,0.9,1,0,239,6,NA
fcp-trial,275,1561482,0.0-250.0-0.0,voc_e2,11958,"[{""event"":""fullscreenenter"",""trial"":1,""time"":139330}]",NA,NA,NA,NA,NA,2,#3386FF,#D89F1C,0,0,1,38,1,101.80000001192093,39,0,497.19999998807907,0,0,experiment,NA,NA,2,0.5,0.5,4,5,240,6,NA
fcp-trial,276,1564971,0.0-251.0-0.0,voc_e2,11958,"[{""event"":""fullscreenenter"",""trial"":1,""time"":139330}]",NA,NA,NA,NA,NA,4,#741CD8,#D8271C,10,0,1,38,1,714,37,1,1259.2999999523163,10,1,experiment,NA,NA,1,0.7,0.3,2,3,241,6,NA
fcp-trial,277,1567576,0.0-252.0-0.0,voc_e2,11958,"[{""event"":""fullscreenenter"",""trial"":1,""time"":139330}]",NA,NA,NA,NA,NA,1,#D89F1C,#3386FF,0,0,0,40,0,444.30000001192093,37,1,652.8000000119209,0,0,experiment,NA,NA,2,0.5,0.5,5,4,242,6,NA
fcp-trial,278,1569821,0.0-253.0-0.0,voc_e2,11958,"[{""event"":""fullscreenenter"",""trial"":1,""time"":139330}]",NA,NA,NA,NA,NA,6,#FA92F8,#1CD855,10,0,1,38,1,391.89999997615814,37,1,345.80000001192093,10,1,experiment,NA,NA,0,0.9,0.1,0,1,243,6,NA
fcp-trial,279,1572040,0.0-254.0-0.0,voc_e2,11958,"[{""event"":""fullscreenenter"",""trial"":1,""time"":139330}]",NA,NA,NA,NA,NA,0,#741CD8,#D8271C,0,0,1,38,1,395.9000000357628,39,0,309.30000001192093,0,0,experiment,NA,NA,1,0.7,0.3,2,3,244,6,NA
fcp-trial,280,1574337,0.0-255.0-0.0,voc_e2,11958,"[{""event"":""fullscreenenter"",""trial"":1,""time"":139330}]",NA,NA,NA,NA,NA,6,#741CD8,#D8271C,0,10,1,38,1,183.79999995231628,39,0,590.3000000119209,10,0,experiment,NA,NA,1,0.7,0.3,2,3,245,6,NA
fcp-trial,281,1576441,0.0-256.0-0.0,voc_e2,11958,"[{""event"":""fullscreenenter"",""trial"":1,""time"":139330}]",NA,NA,NA,NA,NA,3,#FA92F8,#1CD855,10,0,1,38,1,320.89999997615814,37,1,271.0999999642372,10,1,experiment,NA,NA,0,0.9,0.1,0,1,246,6,NA
fcp-trial,282,1578637,0.0-257.0-0.0,voc_e2,11958,"[{""event"":""fullscreenenter"",""trial"":1,""time"":139330}]",NA,NA,NA,NA,NA,6,#D89F1C,#3386FF,10,10,0,38,1,424.80000001192093,39,0,259,10,1,experiment,NA,NA,2,0.5,0.5,5,4,247,6,NA
fcp-trial,283,1580890,0.0-258.0-0.0,voc_e2,11958,"[{""event"":""fullscreenenter"",""trial"":1,""time"":139330}]",NA,NA,NA,NA,NA,1,#741CD8,#D8271C,10,0,1,38,1,433.69999998807907,37,1,314.5,10,1,experiment,NA,NA,1,0.7,0.3,2,3,248,6,NA
fcp-trial,284,1583257,0.0-259.0-0.0,voc_e2,11958,"[{""event"":""fullscreenenter"",""trial"":1,""time"":139330}]",NA,NA,NA,NA,NA,5,#1CD855,#FA92F8,10,10,0,38,1,407.60000002384186,39,0,449.30000001192093,10,1,experiment,NA,NA,0,0.1,0.9,1,0,249,6,NA
fcp-trial,285,1585705,0.0-260.0-0.0,voc_e2,11958,"[{""event"":""fullscreenenter"",""trial"":1,""time"":139330}]",NA,NA,NA,NA,NA,3,#D8271C,#741CD8,10,10,0,38,1,660.6000000238419,37,1,279.5999999642372,10,0,experiment,NA,NA,1,0.3,0.7,3,2,250,6,NA
fcp-trial,286,1588417,0.0-261.0-0.0,voc_e2,11958,"[{""event"":""fullscreenenter"",""trial"":1,""time"":139330}]",NA,NA,NA,NA,NA,4,#1CD855,#FA92F8,0,10,0,38,1,834.3000000119209,39,0,366.80000001192093,10,1,experiment,NA,NA,0,0.1,0.9,1,0,251,6,NA
fcp-trial,287,1593017,0.0-262.0-0.0,voc_e2,11958,"[{""event"":""fullscreenenter"",""trial"":1,""time"":139330}]",NA,NA,NA,NA,NA,4,#D89F1C,#3386FF,0,10,0,38,1,2650.399999976158,39,0,438.60000002384186,10,1,experiment,NA,NA,2,0.5,0.5,5,4,252,6,NA
fcp-trial,288,1597556,0.0-263.0-0.0,voc_e2,11958,"[{""event"":""fullscreenenter"",""trial"":1,""time"":139330}]",NA,NA,NA,NA,NA,1,#FA92F8,#1CD855,10,0,1,38,1,2673.900000035763,37,1,352.69999998807907,10,1,experiment,NA,NA,0,0.9,0.1,0,1,253,6,NA
fcp-trial,289,1603916,0.0-264.0-0.0,voc_e2,11958,"[{""event"":""fullscreenenter"",""trial"":1,""time"":139330}]",NA,NA,NA,NA,NA,1,#D8271C,#741CD8,10,10,0,38,1,4460.599999964237,39,0,389.89999997615814,10,1,experiment,NA,NA,1,0.3,0.7,3,2,254,6,NA
fcp-trial,290,1611569,0.0-265.0-0.0,voc_e2,11958,"[{""event"":""fullscreenenter"",""trial"":1,""time"":139330}]",NA,NA,NA,NA,NA,2,#D8271C,#741CD8,0,10,0,38,1,5694.600000023842,39,0,442.5999999642372,10,1,experiment,NA,NA,1,0.3,0.7,3,2,255,6,NA
fcp-trial,291,1613647,0.0-266.0-0.0,voc_e2,11958,"[{""event"":""fullscreenenter"",""trial"":1,""time"":139330}]",NA,NA,NA,NA,NA,3,#D89F1C,#3386FF,10,10,0,38,1,246,37,1,322.80000001192093,10,0,experiment,NA,NA,2,0.5,0.5,5,4,256,6,NA
fcp-trial,292,1615633,0.0-267.0-0.0,voc_e2,11958,"[{""event"":""fullscreenenter"",""trial"":1,""time"":139330}]",NA,NA,NA,NA,NA,3,#1CD855,#FA92F8,10,10,0,38,1,209.80000001192093,39,0,262.4000000357628,10,1,experiment,NA,NA,0,0.1,0.9,1,0,257,6,NA
fcp-trial,293,1618018,0.0-268.0-0.0,voc_e2,11958,"[{""event"":""fullscreenenter"",""trial"":1,""time"":139330}]",NA,NA,NA,NA,NA,1,#3386FF,#D89F1C,10,10,1,38,1,262.0999999642372,37,1,613,10,1,experiment,NA,NA,2,0.5,0.5,4,5,258,6,NA
fcp-trial,294,1620072,0.0-269.0-0.0,voc_e2,11958,"[{""event"":""fullscreenenter"",""trial"":1,""time"":139330}]",NA,NA,NA,NA,NA,0,#741CD8,#D8271C,10,0,1,38,1,207.80000001192093,39,0,334.60000002384186,0,0,experiment,NA,NA,1,0.7,0.3,2,3,259,6,NA
fcp-trial,295,1622207,0.0-270.0-0.0,voc_e2,11958,"[{""event"":""fullscreenenter"",""trial"":1,""time"":139330}]",NA,NA,NA,NA,NA,5,#FA92F8,#1CD855,10,0,1,38,1,322.69999998807907,37,1,296.9000000357628,10,1,experiment,NA,NA,0,0.9,0.1,0,1,260,6,NA
fcp-trial,296,1625306,0.0-271.0-0.0,voc_e2,11958,"[{""event"":""fullscreenenter"",""trial"":1,""time"":139330}]",NA,NA,NA,NA,NA,0,#D89F1C,#3386FF,0,0,0,38,1,1274.5,39,0,316.5,0,1,experiment,NA,NA,2,0.5,0.5,5,4,261,6,NA
fcp-trial,297,1627438,0.0-272.0-0.0,voc_e2,11958,"[{""event"":""fullscreenenter"",""trial"":1,""time"":139330}]",NA,NA,NA,NA,NA,4,#1CD855,#FA92F8,10,10,0,38,1,303.80000001192093,39,0,317.5,10,1,experiment,NA,NA,0,0.1,0.9,1,0,262,6,NA
fcp-trial,298,1629821,0.0-273.0-0.0,voc_e2,11958,"[{""event"":""fullscreenenter"",""trial"":1,""time"":139330}]",NA,NA,NA,NA,NA,2,#D89F1C,#3386FF,0,10,0,38,1,340,39,0,525.9000000357628,10,1,experiment,NA,NA,2,0.5,0.5,5,4,263,6,NA
fcp-trial,299,1631902,0.0-274.0-0.0,voc_e2,11958,"[{""event"":""fullscreenenter"",""trial"":1,""time"":139330}]",NA,NA,NA,NA,NA,4,#D8271C,#741CD8,0,10,0,38,1,194.9000000357628,39,0,371.69999998807907,10,1,experiment,NA,NA,1,0.3,0.7,3,2,264,6,NA
fcp-trial,300,1633954,0.0-275.0-0.0,voc_e2,11958,"[{""event"":""fullscreenenter"",""trial"":1,""time"":139330}]",NA,NA,NA,NA,NA,0,#1CD855,#FA92F8,0,10,0,38,1,236.60000002384186,39,0,307.5,10,1,experiment,NA,NA,0,0.1,0.9,1,0,265,6,NA
fcp-trial,301,1636230,0.0-276.0-0.0,voc_e2,11958,"[{""event"":""fullscreenenter"",""trial"":1,""time"":139330}]",NA,NA,NA,NA,NA,3,#741CD8,#D8271C,10,0,1,38,1,52.5,37,1,714.8999999761581,10,1,experiment,NA,NA,1,0.7,0.3,2,3,266,6,NA
fcp-trial,302,1638170,0.0-277.0-0.0,voc_e2,11958,"[{""event"":""fullscreenenter"",""trial"":1,""time"":139330}]",NA,NA,NA,NA,NA,4,#3386FF,#D89F1C,10,10,1,38,1,159.0999999642372,39,0,273.7999999523163,10,0,experiment,NA,NA,2,0.5,0.5,4,5,267,6,NA
fcp-trial,303,1640156,0.0-278.0-0.0,voc_e2,11958,"[{""event"":""fullscreenenter"",""trial"":1,""time"":139330}]",NA,NA,NA,NA,NA,6,#1CD855,#FA92F8,0,10,0,38,1,181.69999998807907,39,0,294.5,10,1,experiment,NA,NA,0,0.1,0.9,1,0,268,6,NA
fcp-trial,304,1642322,0.0-279.0-0.0,voc_e2,11958,"[{""event"":""fullscreenenter"",""trial"":1,""time"":139330}]",NA,NA,NA,NA,NA,2,#1CD855,#FA92F8,10,0,0,38,1,339,39,0,316.10000002384186,0,1,experiment,NA,NA,0,0.1,0.9,1,0,269,6,NA
fcp-trial,305,1644862,0.0-280.0-0.0,voc_e2,11958,"[{""event"":""fullscreenenter"",""trial"":1,""time"":139330}]",NA,NA,NA,NA,NA,6,#741CD8,#D8271C,10,0,1,38,1,260.0999999642372,37,1,768.1000000238419,10,1,experiment,NA,NA,1,0.7,0.3,2,3,270,6,NA
fcp-trial,306,1646920,0.0-281.0-0.0,voc_e2,11958,"[{""event"":""fullscreenenter"",""trial"":1,""time"":139330}]",NA,NA,NA,NA,NA,6,#D89F1C,#3386FF,0,0,0,38,1,128.20000004768372,37,1,416.10000002384186,0,0,experiment,NA,NA,2,0.5,0.5,5,4,271,7,NA
fcp-trial,307,1649797,0.0-282.0-0.0,voc_e2,11958,"[{""event"":""fullscreenenter"",""trial"":1,""time"":139330}]",NA,NA,NA,NA,NA,5,#741CD8,#D8271C,10,0,1,38,1,715.8000000119209,37,1,651.4000000357628,10,1,experiment,NA,NA,1,0.7,0.3,2,3,272,7,NA
fcp-trial,308,1652138,0.0-283.0-0.0,voc_e2,11958,"[{""event"":""fullscreenenter"",""trial"":1,""time"":139330}]",NA,NA,NA,NA,NA,5,#3386FF,#D89F1C,0,10,1,38,1,395,39,0,436,10,0,experiment,NA,NA,2,0.5,0.5,4,5,273,7,NA
fcp-trial,309,1654416,0.0-284.0-0.0,voc_e2,11958,"[{""event"":""fullscreenenter"",""trial"":1,""time"":139330}]",NA,NA,NA,NA,NA,6,#FA92F8,#1CD855,10,0,1,38,1,179.19999998807907,37,1,592.6999999880791,10,1,experiment,NA,NA,0,0.9,0.1,0,1,274,7,NA
fcp-trial,310,1657146,0.0-285.0-0.0,voc_e2,11958,"[{""event"":""fullscreenenter"",""trial"":1,""time"":139330}]",NA,NA,NA,NA,NA,2,#D89F1C,#3386FF,10,0,0,40,0,535.8000000119209,37,1,683.6000000238419,10,0,experiment,NA,NA,2,0.5,0.5,5,4,275,7,NA
fcp-trial,311,1659189,0.0-286.0-0.0,voc_e2,11958,"[{""event"":""fullscreenenter"",""trial"":1,""time"":139330}]",NA,NA,NA,NA,NA,5,#D8271C,#741CD8,0,10,0,38,1,146.9000000357628,39,0,386.9000000357628,10,1,experiment,NA,NA,1,0.3,0.7,3,2,276,7,NA
fcp-trial,312,1661199,0.0-287.0-0.0,voc_e2,11958,"[{""event"":""fullscreenenter"",""trial"":1,""time"":139330}]",NA,NA,NA,NA,NA,5,#3386FF,#D89F1C,10,0,1,38,1,127.40000003576279,37,1,374.5,10,1,experiment,NA,NA,2,0.5,0.5,4,5,277,7,NA
fcp-trial,313,1663205,0.0-288.0-0.0,voc_e2,11958,"[{""event"":""fullscreenenter"",""trial"":1,""time"":139330}]",NA,NA,NA,NA,NA,2,#1CD855,#FA92F8,0,10,0,38,1,73.69999998807907,39,0,423.5,10,1,experiment,NA,NA,0,0.1,0.9,1,0,278,7,NA
fcp-trial,314,1665485,0.0-289.0-0.0,voc_e2,11958,"[{""event"":""fullscreenenter"",""trial"":1,""time"":139330}]",NA,NA,NA,NA,NA,6,#D89F1C,#3386FF,10,0,0,38,1,432.19999998807907,37,1,335.69999998807907,10,0,experiment,NA,NA,2,0.5,0.5,5,4,279,7,NA
fcp-trial,315,1667580,0.0-290.0-0.0,voc_e2,11958,"[{""event"":""fullscreenenter"",""trial"":1,""time"":139330}]",NA,NA,NA,NA,NA,6,#D8271C,#741CD8,10,10,0,38,1,165,39,0,420.0999999642372,10,1,experiment,NA,NA,1,0.3,0.7,3,2,280,7,NA
fcp-trial,316,1669578,0.0-291.0-0.0,voc_e2,11958,"[{""event"":""fullscreenenter"",""trial"":1,""time"":139330}]",NA,NA,NA,NA,NA,1,#1CD855,#FA92F8,10,10,0,38,1,139.69999998807907,39,0,353,10,1,experiment,NA,NA,0,0.1,0.9,1,0,281,7,NA
fcp-trial,317,1672021,0.0-292.0-0.0,voc_e2,11958,"[{""event"":""fullscreenenter"",""trial"":1,""time"":139330}]",NA,NA,NA,NA,NA,3,#D8271C,#741CD8,0,10,0,38,1,638.7999999523163,39,0,293,10,1,experiment,NA,NA,1,0.3,0.7,3,2,282,7,NA
fcp-trial,318,1674155,0.0-293.0-0.0,voc_e2,11958,"[{""event"":""fullscreenenter"",""trial"":1,""time"":139330}]",NA,NA,NA,NA,NA,0,#D89F1C,#3386FF,10,0,0,38,1,54.69999998807907,37,1,572,10,0,experiment,NA,NA,2,0.5,0.5,5,4,283,7,NA
fcp-trial,319,1676301,0.0-294.0-0.0,voc_e2,11958,"[{""event"":""fullscreenenter"",""trial"":1,""time"":139330}]",NA,NA,NA,NA,NA,2,#D8271C,#741CD8,10,10,0,38,1,337.60000002384186,39,0,298.10000002384186,10,1,experiment,NA,NA,1,0.3,0.7,3,2,284,7,NA
fcp-trial,320,1678463,0.0-295.0-0.0,voc_e2,11958,"[{""event"":""fullscreenenter"",""trial"":1,""time"":139330}]",NA,NA,NA,NA,NA,0,#1CD855,#FA92F8,0,10,0,38,1,345.0999999642372,39,0,306.19999998807907,10,1,experiment,NA,NA,0,0.1,0.9,1,0,285,7,NA
fcp-trial,321,1680871,0.0-296.0-0.0,voc_e2,11958,"[{""event"":""fullscreenenter"",""trial"":1,""time"":139330}]",NA,NA,NA,NA,NA,4,#D89F1C,#3386FF,10,0,0,38,1,637.5,37,1,263.10000002384186,10,0,experiment,NA,NA,2,0.5,0.5,5,4,286,7,NA
fcp-trial,322,1683784,0.0-297.0-0.0,voc_e2,11958,"[{""event"":""fullscreenenter"",""trial"":1,""time"":139330}]",NA,NA,NA,NA,NA,5,#FA92F8,#1CD855,10,0,1,38,1,945.4000000357628,37,1,457.10000002384186,10,1,experiment,NA,NA,0,0.9,0.1,0,1,287,7,NA
fcp-trial,323,1685946,0.0-298.0-0.0,voc_e2,11958,"[{""event"":""fullscreenenter"",""trial"":1,""time"":139330}]",NA,NA,NA,NA,NA,3,#3386FF,#D89F1C,0,0,1,38,1,389.69999998807907,39,0,261.80000001192093,0,0,experiment,NA,NA,2,0.5,0.5,4,5,288,7,NA
fcp-trial,324,1688287,0.0-299.0-0.0,voc_e2,11958,"[{""event"":""fullscreenenter"",""trial"":1,""time"":139330}]",NA,NA,NA,NA,NA,4,#741CD8,#D8271C,10,0,1,38,1,392.5,37,1,443.19999998807907,10,1,experiment,NA,NA,1,0.7,0.3,2,3,289,7,NA
fcp-trial,325,1690454,0.0-300.0-0.0,voc_e2,11958,"[{""event"":""fullscreenenter"",""trial"":1,""time"":139330}]",NA,NA,NA,NA,NA,3,#1CD855,#FA92F8,0,10,0,38,1,239.89999997615814,39,0,415.60000002384186,10,1,experiment,NA,NA,0,0.1,0.9,1,0,290,7,NA
fcp-trial,326,1692838,0.0-301.0-0.0,voc_e2,11958,"[{""event"":""fullscreenenter"",""trial"":1,""time"":139330}]",NA,NA,NA,NA,NA,0,#741CD8,#D8271C,0,10,1,38,1,401.80000001192093,39,0,475.5,10,0,experiment,NA,NA,1,0.7,0.3,2,3,291,7,NA
fcp-trial,327,1695111,0.0-302.0-0.0,voc_e2,11958,"[{""event"":""fullscreenenter"",""trial"":1,""time"":139330}]",NA,NA,NA,NA,NA,4,#1CD855,#FA92F8,0,10,0,38,1,116.90000003576279,39,0,643.3000000119209,10,1,experiment,NA,NA,0,0.1,0.9,1,0,292,7,NA
fcp-trial,328,1697104,0.0-303.0-0.0,voc_e2,11958,"[{""event"":""fullscreenenter"",""trial"":1,""time"":139330}]",NA,NA,NA,NA,NA,1,#D89F1C,#3386FF,0,0,0,38,1,25.69999998807907,37,1,459.19999998807907,0,0,experiment,NA,NA,2,0.5,0.5,5,4,293,7,NA
fcp-trial,329,1699369,0.0-304.0-0.0,voc_e2,11958,"[{""event"":""fullscreenenter"",""trial"":1,""time"":139330}]",NA,NA,NA,NA,NA,1,#741CD8,#D8271C,0,0,1,38,1,305.0999999642372,37,1,448,0,1,experiment,NA,NA,1,0.7,0.3,2,3,294,7,NA
fcp-trial,330,1701476,0.0-305.0-0.0,voc_e2,11958,"[{""event"":""fullscreenenter"",""trial"":1,""time"":139330}]",NA,NA,NA,NA,NA,2,#1CD855,#FA92F8,0,10,0,38,1,108,39,0,489.4000000357628,10,1,experiment,NA,NA,0,0.1,0.9,1,0,295,7,NA
fcp-trial,331,1704881,0.0-306.0-0.0,voc_e2,11958,"[{""event"":""fullscreenenter"",""trial"":1,""time"":139330}]",NA,NA,NA,NA,NA,4,#741CD8,#D8271C,10,0,1,38,1,983.1000000238419,37,1,906.8000000119209,10,1,experiment,NA,NA,1,0.7,0.3,2,3,296,7,NA
fcp-trial,332,1707137,0.0-307.0-0.0,voc_e2,11958,"[{""event"":""fullscreenenter"",""trial"":1,""time"":139330}]",NA,NA,NA,NA,NA,4,#FA92F8,#1CD855,10,0,1,38,1,439.30000001192093,37,1,308.69999998807907,10,1,experiment,NA,NA,0,0.9,0.1,0,1,297,7,NA
fcp-trial,333,1709173,0.0-308.0-0.0,voc_e2,11958,"[{""event"":""fullscreenenter"",""trial"":1,""time"":139330}]",NA,NA,NA,NA,NA,1,#D89F1C,#3386FF,10,0,0,38,1,250.69999998807907,39,0,278.2000000476837,0,1,experiment,NA,NA,2,0.5,0.5,5,4,298,7,NA
fcp-trial,334,1711486,0.0-309.0-0.0,voc_e2,11958,"[{""event"":""fullscreenenter"",""trial"":1,""time"":139330}]",NA,NA,NA,NA,NA,3,#D8271C,#741CD8,0,10,0,38,1,399.5,39,0,404.10000002384186,10,1,experiment,NA,NA,1,0.3,0.7,3,2,299,7,NA
fcp-trial,335,1713535,0.0-310.0-0.0,voc_e2,11958,"[{""event"":""fullscreenenter"",""trial"":1,""time"":139330}]",NA,NA,NA,NA,NA,1,#FA92F8,#1CD855,0,0,1,38,1,200.80000001192093,39,0,338.69999998807907,0,0,experiment,NA,NA,0,0.9,0.1,0,1,300,7,NA
fcp-trial,336,1715737,0.0-311.0-0.0,voc_e2,11958,"[{""event"":""fullscreenenter"",""trial"":1,""time"":139330}]",NA,NA,NA,NA,NA,5,#741CD8,#D8271C,0,0,1,38,1,387.69999998807907,37,1,299.19999998807907,0,1,experiment,NA,NA,1,0.7,0.3,2,3,301,7,NA
fcp-trial,337,1717884,0.0-312.0-0.0,voc_e2,11958,"[{""event"":""fullscreenenter"",""trial"":1,""time"":139330}]",NA,NA,NA,NA,NA,2,#D89F1C,#3386FF,0,0,0,38,1,256.69999998807907,39,0,376.0999999642372,0,1,experiment,NA,NA,2,0.5,0.5,5,4,302,7,NA
fcp-trial,338,1719951,0.0-313.0-0.0,voc_e2,11958,"[{""event"":""fullscreenenter"",""trial"":1,""time"":139330}]",NA,NA,NA,NA,NA,0,#1CD855,#FA92F8,10,10,0,38,1,266.9000000357628,39,0,288.5,10,1,experiment,NA,NA,0,0.1,0.9,1,0,303,7,NA
fcp-trial,339,1722056,0.0-314.0-0.0,voc_e2,11958,"[{""event"":""fullscreenenter"",""trial"":1,""time"":139330}]",NA,NA,NA,NA,NA,1,#D8271C,#741CD8,10,10,0,38,1,130,39,0,468.69999998807907,10,1,experiment,NA,NA,1,0.3,0.7,3,2,304,7,NA
fcp-trial,340,1725003,0.0-315.0-0.0,voc_e2,11958,"[{""event"":""fullscreenenter"",""trial"":1,""time"":139330}]",NA,NA,NA,NA,NA,6,#FA92F8,#1CD855,10,0,1,38,1,779.8999999761581,37,1,660,10,1,experiment,NA,NA,0,0.9,0.1,0,1,305,7,NA
fcp-trial,341,1727071,0.0-316.0-0.0,voc_e2,11958,"[{""event"":""fullscreenenter"",""trial"":1,""time"":139330}]",NA,NA,NA,NA,NA,6,#D8271C,#741CD8,0,0,0,38,1,181.89999997615814,39,0,382.5,0,1,experiment,NA,NA,1,0.3,0.7,3,2,306,7,NA
fcp-trial,342,1729251,0.0-317.0-0.0,voc_e2,11958,"[{""event"":""fullscreenenter"",""trial"":1,""time"":139330}]",NA,NA,NA,NA,NA,6,#3386FF,#D89F1C,10,0,1,38,1,383.10000002384186,37,1,281.89999997615814,10,1,experiment,NA,NA,2,0.5,0.5,4,5,307,7,NA
fcp-trial,343,1731504,0.0-318.0-0.0,voc_e2,11958,"[{""event"":""fullscreenenter"",""trial"":1,""time"":139330}]",NA,NA,NA,NA,NA,4,#D89F1C,#3386FF,10,0,0,38,1,420.2999999523163,39,0,319.4000000357628,0,1,experiment,NA,NA,2,0.5,0.5,5,4,308,7,NA
fcp-trial,344,1735901,0.0-319.0-0.0,voc_e2,11958,"[{""event"":""fullscreenenter"",""trial"":1,""time"":139330}]",NA,NA,NA,NA,NA,3,#FA92F8,#1CD855,10,10,1,38,1,2226.300000011921,37,1,662.5999999642372,10,1,experiment,NA,NA,0,0.9,0.1,0,1,309,7,NA
fcp-trial,345,1738419,0.0-320.0-0.0,voc_e2,11958,"[{""event"":""fullscreenenter"",""trial"":1,""time"":139330}]",NA,NA,NA,NA,NA,2,#D8271C,#741CD8,10,10,0,38,1,526.5,39,0,480.9000000357628,10,1,experiment,NA,NA,1,0.3,0.7,3,2,310,7,NA
fcp-trial,346,1740768,0.0-321.0-0.0,voc_e2,11958,"[{""event"":""fullscreenenter"",""trial"":1,""time"":139330}]",NA,NA,NA,NA,NA,5,#FA92F8,#1CD855,10,10,1,38,1,553.5,37,1,283.69999998807907,10,1,experiment,NA,NA,0,0.9,0.1,0,1,311,7,NA
fcp-trial,347,1743654,0.0-322.0-0.0,voc_e2,11958,"[{""event"":""fullscreenenter"",""trial"":1,""time"":139330}]",NA,NA,NA,NA,NA,3,#3386FF,#D89F1C,10,10,1,38,1,892.1999999880791,39,0,485.10000002384186,10,0,experiment,NA,NA,2,0.5,0.5,4,5,312,7,NA
fcp-trial,348,1746051,0.0-323.0-0.0,voc_e2,11958,"[{""event"":""fullscreenenter"",""trial"":1,""time"":139330}]",NA,NA,NA,NA,NA,0,#3386FF,#D89F1C,10,10,1,38,1,459.30000001192093,37,1,430.69999998807907,10,1,experiment,NA,NA,2,0.5,0.5,4,5,313,7,NA
fcp-trial,349,1748784,0.0-324.0-0.0,voc_e2,11958,"[{""event"":""fullscreenenter"",""trial"":1,""time"":139330}]",NA,NA,NA,NA,NA,0,#D8271C,#741CD8,0,0,0,38,1,945.3999999761581,39,0,279.60000002384186,0,1,experiment,NA,NA,1,0.3,0.7,3,2,314,7,NA
fcp-trial,350,1751041,0.0-325.0-0.0,voc_e2,11958,"[{""event"":""fullscreenenter"",""trial"":1,""time"":139330}]",NA,NA,NA,NA,NA,5,#D89F1C,#3386FF,10,10,0,38,1,341.2000000476837,39,0,400.89999997615814,10,1,experiment,NA,NA,2,0.5,0.5,5,4,315,7,NA
audio-instructions,351,1787176,0.0-326.0,voc_e2,11958,"[{""event"":""fullscreenenter"",""trial"":1,""time"":139330}]",NA,29768.5,static/audio/finished.wav,NA,0,NA,NA,NA,NA,NA,NA,NA,NA,NA,NA,NA,NA,NA,NA,NA,NA,NA,NA,NA,NA,NA,NA,NA,NA,NA
audio-instructions,352,1799218,0.0-327.0-0.0,voc_e2,11958,"[{""event"":""fullscreenenter"",""trial"":1,""time"":139330}]",NA,1210.300000011921,static/audio/explicit1.wav,NA,0,NA,NA,NA,NA,NA,NA,NA,NA,NA,NA,NA,NA,NA,NA,NA,NA,NA,NA,NA,NA,NA,NA,NA,NA,NA
audio-instructions,353,1808146,0.0-327.0-1.0,voc_e2,11958,"[{""event"":""fullscreenenter"",""trial"":1,""time"":139330}]",NA,1326.399999976158,static/audio/explicit2.wav,NA,0,NA,NA,NA,NA,NA,NA,NA,NA,NA,NA,NA,NA,NA,NA,NA,NA,NA,NA,NA,NA,NA,NA,NA,NA,NA
image-slider-response,354,1812217,0.0-328.0,voc_e2,11958,"[{""event"":""fullscreenenter"",""trial"":1,""time"":139330}]",NA,4069,static/img/machines/machine1.png,NA,NA,NA,NA,NA,NA,NA,NA,NA,NA,NA,NA,NA,NA,NA,NA,explicit,NA,NA,NA,NA,NA,NA,NA,NA,NA,2
image-slider-response,355,1816229,0.0-329.0,voc_e2,11958,"[{""event"":""fullscreenenter"",""trial"":1,""time"":139330}]",NA,4011.100000023842,static/img/machines/machine5.png,NA,NA,NA,NA,NA,NA,NA,NA,NA,NA,NA,NA,NA,NA,NA,NA,explicit,NA,NA,NA,NA,NA,NA,NA,NA,NA,9
image-slider-response,356,1820424,0.0-330.0,voc_e2,11958,"[{""event"":""fullscreenenter"",""trial"":1,""time"":139330}]",NA,4193.400000035763,static/img/machines/machine4.png,NA,NA,NA,NA,NA,NA,NA,NA,NA,NA,NA,NA,NA,NA,NA,NA,explicit,NA,NA,NA,NA,NA,NA,NA,NA,NA,1
image-slider-response,357,1823957,0.0-331.0,voc_e2,11958,"[{""event"":""fullscreenenter"",""trial"":1,""time"":139330}]",NA,3532.199999988079,static/img/machines/machine3.png,NA,NA,NA,NA,NA,NA,NA,NA,NA,NA,NA,NA,NA,NA,NA,NA,explicit,NA,NA,NA,NA,NA,NA,NA,NA,NA,1
image-slider-response,358,1828791,0.0-332.0,voc_e2,11958,"[{""event"":""fullscreenenter"",""trial"":1,""time"":139330}]",NA,4832,static/img/machines/machine6.png,NA,NA,NA,NA,NA,NA,NA,NA,NA,NA,NA,NA,NA,NA,NA,NA,explicit,NA,NA,NA,NA,NA,NA,NA,NA,NA,1
image-slider-response,359,1834680,0.0-333.0,voc_e2,11958,"[{""event"":""fullscreenenter"",""trial"":1,""time"":139330}]",NA,5888.299999952316,static/img/machines/machine2.png,NA,NA,NA,NA,NA,NA,NA,NA,NA,NA,NA,NA,NA,NA,NA,NA,explicit,NA,NA,NA,NA,NA,NA,NA,NA,NA,6
