trial_type,trial_index,time_elapsed,internal_node_id,task_version,subject_id,interactions,success,rt,stimulus,key_press,button_pressed,offer,arcade_color_L,arcade_color_R,arcade_outcome_L,arcade_outcome_R,correct,stage_1_key,stage_1_choice,stage_1_rt,stage_2_key,stage_2_choice,stage_2_rt,stage_3_outcome,accuracy,phase,responses,num_errors,context,reward_prob_L,reward_prob_R,arcade_id_L,arcade_id_R,trial,block,response
pavlovia,0,14,0.0-0.0,voc_e2,11884,"[{""event"":""focus"",""trial"":0,""time"":0},{""event"":""focus"",""trial"":0,""time"":0}]",NA,NA,NA,NA,NA,NA,NA,NA,NA,NA,NA,NA,NA,NA,NA,NA,NA,NA,NA,NA,NA,NA,NA,NA,NA,NA,NA,NA,NA,NA
fullscreen,1,2398,0.0-1.0,voc_e2,11884,"[{""event"":""focus"",""trial"":0,""time"":0},{""event"":""focus"",""trial"":0,""time"":0},{""event"":""fullscreenenter"",""trial"":1,""time"":1438}]",TRUE,NA,NA,NA,NA,NA,NA,NA,NA,NA,NA,NA,NA,NA,NA,NA,NA,NA,NA,NA,NA,NA,NA,NA,NA,NA,NA,NA,NA,NA
audio-keyboard-response,2,4819,0.0-2.0,voc_e2,11884,"[{""event"":""focus"",""trial"":0,""time"":0},{""event"":""focus"",""trial"":0,""time"":0},{""event"":""fullscreenenter"",""trial"":1,""time"":1438}]",NA,2109,static/audio/beep_loop.wav,175,NA,NA,NA,NA,NA,NA,NA,NA,NA,NA,NA,NA,NA,NA,NA,NA,NA,NA,NA,NA,NA,NA,NA,NA,NA,NA
audio-test,3,6461,0.0-3.0,voc_e2,11884,"[{""event"":""focus"",""trial"":0,""time"":0},{""event"":""focus"",""trial"":0,""time"":0},{""event"":""fullscreenenter"",""trial"":1,""time"":1438}]",NA,NA,static/audio/turtle.wav,NA,3,NA,NA,NA,NA,NA,NA,NA,NA,NA,NA,NA,NA,NA,NA,NA,NA,NA,NA,NA,NA,NA,NA,NA,NA,NA
audio-test,4,8953,0.0-4.0,voc_e2,11884,"[{""event"":""focus"",""trial"":0,""time"":0},{""event"":""focus"",""trial"":0,""time"":0},{""event"":""fullscreenenter"",""trial"":1,""time"":1438}]",NA,NA,static/audio/shark.wav,NA,2,NA,NA,NA,NA,NA,NA,NA,NA,NA,NA,NA,NA,NA,NA,NA,NA,NA,NA,NA,NA,NA,NA,NA,NA,NA
audio-instructions,5,17438,0.0-5.0-0.0,voc_e2,11884,"[{""event"":""focus"",""trial"":0,""time"":0},{""event"":""focus"",""trial"":0,""time"":0},{""event"":""fullscreenenter"",""trial"":1,""time"":1438}]",NA,2699.5,static/audio/instructions1.wav,NA,0,NA,NA,NA,NA,NA,NA,NA,NA,NA,NA,NA,NA,NA,NA,NA,NA,NA,NA,NA,NA,NA,NA,NA,NA,NA
audio-instructions,6,26496,0.0-5.0-1.0,voc_e2,11884,"[{""event"":""focus"",""trial"":0,""time"":0},{""event"":""focus"",""trial"":0,""time"":0},{""event"":""fullscreenenter"",""trial"":1,""time"":1438}]",NA,2307.5,static/audio/instructions2.wav,NA,0,NA,NA,NA,NA,NA,NA,NA,NA,NA,NA,NA,NA,NA,NA,NA,NA,NA,NA,NA,NA,NA,NA,NA,NA,NA
audio-instructions,7,36329,0.0-5.0-2.0,voc_e2,11884,"[{""event"":""focus"",""trial"":0,""time"":0},{""event"":""focus"",""trial"":0,""time"":0},{""event"":""fullscreenenter"",""trial"":1,""time"":1438}]",NA,4025.3000000715256,static/audio/instructions3.wav,NA,0,NA,NA,NA,NA,NA,NA,NA,NA,NA,NA,NA,NA,NA,NA,NA,NA,NA,NA,NA,NA,NA,NA,NA,NA,NA
audio-instructions,8,53715,0.0-5.0-3.0,voc_e2,11884,"[{""event"":""focus"",""trial"":0,""time"":0},{""event"":""focus"",""trial"":0,""time"":0},{""event"":""fullscreenenter"",""trial"":1,""time"":1438}]",NA,4161.5,static/audio/instructions4.wav,NA,0,NA,NA,NA,NA,NA,NA,NA,NA,NA,NA,NA,NA,NA,NA,NA,NA,NA,NA,NA,NA,NA,NA,NA,NA,NA
audio-instructions,9,64650,0.0-5.0-4.0,voc_e2,11884,"[{""event"":""focus"",""trial"":0,""time"":0},{""event"":""focus"",""trial"":0,""time"":0},{""event"":""fullscreenenter"",""trial"":1,""time"":1438}]",NA,1546.1999999284744,static/audio/instructions5.wav,NA,0,NA,NA,NA,NA,NA,NA,NA,NA,NA,NA,NA,NA,NA,NA,NA,NA,NA,NA,NA,NA,NA,NA,NA,NA,NA
fcp-practice,10,67315,0.0-5.0-5.0-0.0,voc_e2,11884,"[{""event"":""focus"",""trial"":0,""time"":0},{""event"":""focus"",""trial"":0,""time"":0},{""event"":""fullscreenenter"",""trial"":1,""time"":1438}]",NA,NA,NA,NA,NA,NA,#EDC948,#46d3c8,10,0,1,null,null,null,37,1,1146.3999999761581,10,1,practice,NA,NA,NA,NA,NA,NA,NA,NA,NA,NA
fcp-practice,11,69292,0.0-5.0-5.0-1.0,voc_e2,11884,"[{""event"":""focus"",""trial"":0,""time"":0},{""event"":""focus"",""trial"":0,""time"":0},{""event"":""fullscreenenter"",""trial"":1,""time"":1438}]",NA,NA,NA,NA,NA,NA,#EDC948,#46d3c8,10,0,1,null,null,null,37,1,467.59999990463257,10,1,practice,NA,NA,NA,NA,NA,NA,NA,NA,NA,NA
fcp-practice,12,71114,0.0-5.0-5.0-2.0,voc_e2,11884,"[{""event"":""focus"",""trial"":0,""time"":0},{""event"":""focus"",""trial"":0,""time"":0},{""event"":""fullscreenenter"",""trial"":1,""time"":1438}]",NA,NA,NA,NA,NA,NA,#EDC948,#46d3c8,0,10,1,null,null,null,37,1,308.09999990463257,0,1,practice,NA,NA,NA,NA,NA,NA,NA,NA,NA,NA
fcp-practice,13,72997,0.0-5.0-5.0-3.0,voc_e2,11884,"[{""event"":""focus"",""trial"":0,""time"":0},{""event"":""focus"",""trial"":0,""time"":0},{""event"":""fullscreenenter"",""trial"":1,""time"":1438}]",NA,NA,NA,NA,NA,NA,#EDC948,#46d3c8,10,0,1,null,null,null,37,1,365.5,10,1,practice,NA,NA,NA,NA,NA,NA,NA,NA,NA,NA
fcp-practice,14,75198,0.0-5.0-5.0-4.0,voc_e2,11884,"[{""event"":""focus"",""trial"":0,""time"":0},{""event"":""focus"",""trial"":0,""time"":0},{""event"":""fullscreenenter"",""trial"":1,""time"":1438}]",NA,NA,NA,NA,NA,NA,#EDC948,#46d3c8,10,0,1,null,null,null,37,1,682.7999999523163,10,1,practice,NA,NA,NA,NA,NA,NA,NA,NA,NA,NA
audio-instructions,15,94528,0.0-5.0-6.0,voc_e2,11884,"[{""event"":""focus"",""trial"":0,""time"":0},{""event"":""focus"",""trial"":0,""time"":0},{""event"":""fullscreenenter"",""trial"":1,""time"":1438}]",NA,1324.5,static/audio/instructions6.wav,NA,0,NA,NA,NA,NA,NA,NA,NA,NA,NA,NA,NA,NA,NA,NA,NA,NA,NA,NA,NA,NA,NA,NA,NA,NA,NA
audio-instructions,16,114705,0.0-5.0-7.0,voc_e2,11884,"[{""event"":""focus"",""trial"":0,""time"":0},{""event"":""focus"",""trial"":0,""time"":0},{""event"":""fullscreenenter"",""trial"":1,""time"":1438}]",NA,983.600000023842,static/audio/instructions7.wav,NA,0,NA,NA,NA,NA,NA,NA,NA,NA,NA,NA,NA,NA,NA,NA,NA,NA,NA,NA,NA,NA,NA,NA,NA,NA,NA
audio-instructions,17,124799,0.0-5.0-8.0,voc_e2,11884,"[{""event"":""focus"",""trial"":0,""time"":0},{""event"":""focus"",""trial"":0,""time"":0},{""event"":""fullscreenenter"",""trial"":1,""time"":1438}]",NA,626.8000000715256,static/audio/instructions8.wav,NA,0,NA,NA,NA,NA,NA,NA,NA,NA,NA,NA,NA,NA,NA,NA,NA,NA,NA,NA,NA,NA,NA,NA,NA,NA,NA
fcp-comprehension,18,132817,0.0-5.0-9.0,voc_e2,11884,"[{""event"":""focus"",""trial"":0,""time"":0},{""event"":""focus"",""trial"":0,""time"":0},{""event"":""fullscreenenter"",""trial"":1,""time"":1438}]",NA,8016.899999976158,NA,NA,NA,NA,NA,NA,NA,NA,NA,NA,NA,NA,NA,NA,NA,NA,NA,NA,"false,true",1,NA,NA,NA,NA,NA,NA,NA,NA
audio-instructions,19,140270,0.0-5.1-0.1,voc_e2,11884,"[{""event"":""focus"",""trial"":0,""time"":0},{""event"":""focus"",""trial"":0,""time"":0},{""event"":""fullscreenenter"",""trial"":1,""time"":1438}]",NA,2677.899999976158,static/audio/instructions1.wav,NA,0,NA,NA,NA,NA,NA,NA,NA,NA,NA,NA,NA,NA,NA,NA,NA,NA,NA,NA,NA,NA,NA,NA,NA,NA,NA
audio-instructions,20,148096,0.0-5.1-1.1,voc_e2,11884,"[{""event"":""focus"",""trial"":0,""time"":0},{""event"":""focus"",""trial"":0,""time"":0},{""event"":""fullscreenenter"",""trial"":1,""time"":1438}]",NA,1093.2000000476835,static/audio/instructions2.wav,NA,0,NA,NA,NA,NA,NA,NA,NA,NA,NA,NA,NA,NA,NA,NA,NA,NA,NA,NA,NA,NA,NA,NA,NA,NA,NA
audio-instructions,21,154944,0.0-5.1-2.1,voc_e2,11884,"[{""event"":""focus"",""trial"":0,""time"":0},{""event"":""focus"",""trial"":0,""time"":0},{""event"":""fullscreenenter"",""trial"":1,""time"":1438}]",NA,1042.2000000476835,static/audio/instructions3.wav,NA,0,NA,NA,NA,NA,NA,NA,NA,NA,NA,NA,NA,NA,NA,NA,NA,NA,NA,NA,NA,NA,NA,NA,NA,NA,NA
audio-instructions,22,170655,0.0-5.1-3.1,voc_e2,11884,"[{""event"":""focus"",""trial"":0,""time"":0},{""event"":""focus"",""trial"":0,""time"":0},{""event"":""fullscreenenter"",""trial"":1,""time"":1438}]",NA,2483,static/audio/instructions4.wav,NA,0,NA,NA,NA,NA,NA,NA,NA,NA,NA,NA,NA,NA,NA,NA,NA,NA,NA,NA,NA,NA,NA,NA,NA,NA,NA
audio-instructions,23,180438,0.0-5.1-4.1,voc_e2,11884,"[{""event"":""focus"",""trial"":0,""time"":0},{""event"":""focus"",""trial"":0,""time"":0},{""event"":""fullscreenenter"",""trial"":1,""time"":1438}]",NA,395.10000002384186,static/audio/instructions5.wav,NA,0,NA,NA,NA,NA,NA,NA,NA,NA,NA,NA,NA,NA,NA,NA,NA,NA,NA,NA,NA,NA,NA,NA,NA,NA,NA
fcp-practice,24,182715,0.0-5.1-5.1-0.1,voc_e2,11884,"[{""event"":""focus"",""trial"":0,""time"":0},{""event"":""focus"",""trial"":0,""time"":0},{""event"":""fullscreenenter"",""trial"":1,""time"":1438}]",NA,NA,NA,NA,NA,NA,#EDC948,#46d3c8,10,0,1,null,null,null,37,1,771.3999999761581,10,1,practice,NA,NA,NA,NA,NA,NA,NA,NA,NA,NA
fcp-practice,25,184511,0.0-5.1-5.1-1.1,voc_e2,11884,"[{""event"":""focus"",""trial"":0,""time"":0},{""event"":""focus"",""trial"":0,""time"":0},{""event"":""fullscreenenter"",""trial"":1,""time"":1438}]",NA,NA,NA,NA,NA,NA,#EDC948,#46d3c8,10,0,1,null,null,null,37,1,290.5,10,1,practice,NA,NA,NA,NA,NA,NA,NA,NA,NA,NA
fcp-practice,26,186294,0.0-5.1-5.1-2.1,voc_e2,11884,"[{""event"":""focus"",""trial"":0,""time"":0},{""event"":""focus"",""trial"":0,""time"":0},{""event"":""fullscreenenter"",""trial"":1,""time"":1438}]",NA,NA,NA,NA,NA,NA,#EDC948,#46d3c8,0,10,1,null,null,null,37,1,275.2000000476837,0,1,practice,NA,NA,NA,NA,NA,NA,NA,NA,NA,NA
fcp-practice,27,188247,0.0-5.1-5.1-3.1,voc_e2,11884,"[{""event"":""focus"",""trial"":0,""time"":0},{""event"":""focus"",""trial"":0,""time"":0},{""event"":""fullscreenenter"",""trial"":1,""time"":1438}]",NA,NA,NA,NA,NA,NA,#EDC948,#46d3c8,10,0,1,null,null,null,37,1,447.2000000476837,10,1,practice,NA,NA,NA,NA,NA,NA,NA,NA,NA,NA
fcp-practice,28,189861,0.0-5.1-5.1-4.1,voc_e2,11884,"[{""event"":""focus"",""trial"":0,""time"":0},{""event"":""focus"",""trial"":0,""time"":0},{""event"":""fullscreenenter"",""trial"":1,""time"":1438}]",NA,NA,NA,NA,NA,NA,#EDC948,#46d3c8,10,0,1,null,null,null,37,1,109.29999995231628,10,1,practice,NA,NA,NA,NA,NA,NA,NA,NA,NA,NA
audio-instructions,29,208567,0.0-5.1-6.1,voc_e2,11884,"[{""event"":""focus"",""trial"":0,""time"":0},{""event"":""focus"",""trial"":0,""time"":0},{""event"":""fullscreenenter"",""trial"":1,""time"":1438}]",NA,693.5,static/audio/instructions6.wav,NA,0,NA,NA,NA,NA,NA,NA,NA,NA,NA,NA,NA,NA,NA,NA,NA,NA,NA,NA,NA,NA,NA,NA,NA,NA,NA
audio-instructions,30,229221,0.0-5.1-7.1,voc_e2,11884,"[{""event"":""focus"",""trial"":0,""time"":0},{""event"":""focus"",""trial"":0,""time"":0},{""event"":""fullscreenenter"",""trial"":1,""time"":1438}]",NA,1457.7999999523165,static/audio/instructions7.wav,NA,0,NA,NA,NA,NA,NA,NA,NA,NA,NA,NA,NA,NA,NA,NA,NA,NA,NA,NA,NA,NA,NA,NA,NA,NA,NA
audio-instructions,31,239230,0.0-5.1-8.1,voc_e2,11884,"[{""event"":""focus"",""trial"":0,""time"":0},{""event"":""focus"",""trial"":0,""time"":0},{""event"":""fullscreenenter"",""trial"":1,""time"":1438}]",NA,536.3000000715256,static/audio/instructions8.wav,NA,0,NA,NA,NA,NA,NA,NA,NA,NA,NA,NA,NA,NA,NA,NA,NA,NA,NA,NA,NA,NA,NA,NA,NA,NA,NA
fcp-comprehension,32,246214,0.0-5.1-9.1,voc_e2,11884,"[{""event"":""focus"",""trial"":0,""time"":0},{""event"":""focus"",""trial"":0,""time"":0},{""event"":""fullscreenenter"",""trial"":1,""time"":1438}]",NA,6982.900000095367,NA,NA,NA,NA,NA,NA,NA,NA,NA,NA,NA,NA,NA,NA,NA,NA,NA,NA,"true,true",0,NA,NA,NA,NA,NA,NA,NA,NA
audio-instructions,33,253575,0.0-6.0-0.0,voc_e2,11884,"[{""event"":""focus"",""trial"":0,""time"":0},{""event"":""focus"",""trial"":0,""time"":0},{""event"":""fullscreenenter"",""trial"":1,""time"":1438}]",NA,1811,static/audio/instructions9.wav,NA,0,NA,NA,NA,NA,NA,NA,NA,NA,NA,NA,NA,NA,NA,NA,NA,NA,NA,NA,NA,NA,NA,NA,NA,NA,NA
audio-instructions,34,266343,0.0-6.0-1.0,voc_e2,11884,"[{""event"":""focus"",""trial"":0,""time"":0},{""event"":""focus"",""trial"":0,""time"":0},{""event"":""fullscreenenter"",""trial"":1,""time"":1438}]",NA,649.2000000476837,static/audio/instructions10.wav,NA,0,NA,NA,NA,NA,NA,NA,NA,NA,NA,NA,NA,NA,NA,NA,NA,NA,NA,NA,NA,NA,NA,NA,NA,NA,NA
fcp-trial,35,271425,0.0-6.0-2.0,voc_e2,11884,"[{""event"":""focus"",""trial"":0,""time"":0},{""event"":""focus"",""trial"":0,""time"":0},{""event"":""fullscreenenter"",""trial"":1,""time"":1438}]",NA,NA,NA,NA,NA,0,#EDC948,#46d3c8,10,10,1,38,1,2463.2000000476837,37,1,1095.5,10,1,practice,NA,NA,NA,NA,NA,NA,NA,NA,NA,NA
audio-instructions,36,283625,0.0-6.0-3.0,voc_e2,11884,"[{""event"":""focus"",""trial"":0,""time"":0},{""event"":""focus"",""trial"":0,""time"":0},{""event"":""fullscreenenter"",""trial"":1,""time"":1438}]",NA,1191.7999999523165,static/audio/instructions11.wav,NA,0,NA,NA,NA,NA,NA,NA,NA,NA,NA,NA,NA,NA,NA,NA,NA,NA,NA,NA,NA,NA,NA,NA,NA,NA,NA
fcp-trial,37,287159,0.0-6.0-4.0,voc_e2,11884,"[{""event"":""focus"",""trial"":0,""time"":0},{""event"":""focus"",""trial"":0,""time"":0},{""event"":""fullscreenenter"",""trial"":1,""time"":1438}]",NA,NA,NA,NA,NA,6,#EDC948,#46d3c8,10,10,1,40,0,663.8999999761581,39,0,1358.6999999284744,10,0,practice,NA,NA,NA,NA,NA,NA,NA,NA,NA,NA
audio-instructions,38,308350,0.0-6.0-5.0,voc_e2,11884,"[{""event"":""focus"",""trial"":0,""time"":0},{""event"":""focus"",""trial"":0,""time"":0},{""event"":""fullscreenenter"",""trial"":1,""time"":1438}]",NA,2506.5,static/audio/instructions12.wav,NA,0,NA,NA,NA,NA,NA,NA,NA,NA,NA,NA,NA,NA,NA,NA,NA,NA,NA,NA,NA,NA,NA,NA,NA,NA,NA
audio-instructions,39,316473,0.0-6.0-6.0,voc_e2,11884,"[{""event"":""focus"",""trial"":0,""time"":0},{""event"":""focus"",""trial"":0,""time"":0},{""event"":""fullscreenenter"",""trial"":1,""time"":1438}]",NA,529.7000000476837,static/audio/instructions13.wav,NA,0,NA,NA,NA,NA,NA,NA,NA,NA,NA,NA,NA,NA,NA,NA,NA,NA,NA,NA,NA,NA,NA,NA,NA,NA,NA
audio-instructions,40,325386,0.0-6.0-7.0,voc_e2,11884,"[{""event"":""focus"",""trial"":0,""time"":0},{""event"":""focus"",""trial"":0,""time"":0},{""event"":""fullscreenenter"",""trial"":1,""time"":1438}]",NA,462.60000002384186,static/audio/instructions14.wav,NA,0,NA,NA,NA,NA,NA,NA,NA,NA,NA,NA,NA,NA,NA,NA,NA,NA,NA,NA,NA,NA,NA,NA,NA,NA,NA
audio-instructions,41,332874,0.0-7.0-0.0,voc_e2,11884,"[{""event"":""focus"",""trial"":0,""time"":0},{""event"":""focus"",""trial"":0,""time"":0},{""event"":""fullscreenenter"",""trial"":1,""time"":1438}]",NA,580.6999999284744,static/audio/instructions15.wav,NA,0,NA,NA,NA,NA,NA,NA,NA,NA,NA,NA,NA,NA,NA,NA,NA,NA,NA,NA,NA,NA,NA,NA,NA,NA,NA
audio-instructions,42,341134,0.0-7.0-1.0,voc_e2,11884,"[{""event"":""focus"",""trial"":0,""time"":0},{""event"":""focus"",""trial"":0,""time"":0},{""event"":""fullscreenenter"",""trial"":1,""time"":1438}]",NA,1430.600000023842,static/audio/instructions16.wav,NA,0,NA,NA,NA,NA,NA,NA,NA,NA,NA,NA,NA,NA,NA,NA,NA,NA,NA,NA,NA,NA,NA,NA,NA,NA,NA
audio-instructions,43,349371,0.0-7.0-2.0,voc_e2,11884,"[{""event"":""focus"",""trial"":0,""time"":0},{""event"":""focus"",""trial"":0,""time"":0},{""event"":""fullscreenenter"",""trial"":1,""time"":1438}]",NA,557.8999999761581,static/audio/instructions17.wav,NA,0,NA,NA,NA,NA,NA,NA,NA,NA,NA,NA,NA,NA,NA,NA,NA,NA,NA,NA,NA,NA,NA,NA,NA,NA,NA
audio-instructions,44,358632,0.0-7.0-3.0,voc_e2,11884,"[{""event"":""focus"",""trial"":0,""time"":0},{""event"":""focus"",""trial"":0,""time"":0},{""event"":""fullscreenenter"",""trial"":1,""time"":1438}]",NA,1497.7999999523165,static/audio/instructions18.wav,NA,0,NA,NA,NA,NA,NA,NA,NA,NA,NA,NA,NA,NA,NA,NA,NA,NA,NA,NA,NA,NA,NA,NA,NA,NA,NA
audio-instructions,45,366969,0.0-7.0-4.0,voc_e2,11884,"[{""event"":""focus"",""trial"":0,""time"":0},{""event"":""focus"",""trial"":0,""time"":0},{""event"":""fullscreenenter"",""trial"":1,""time"":1438}]",NA,1611,static/audio/instructions19.wav,NA,0,NA,NA,NA,NA,NA,NA,NA,NA,NA,NA,NA,NA,NA,NA,NA,NA,NA,NA,NA,NA,NA,NA,NA,NA,NA
fcp-comprehension,46,376715,0.0-7.0-5.0,voc_e2,11884,"[{""event"":""focus"",""trial"":0,""time"":0},{""event"":""focus"",""trial"":0,""time"":0},{""event"":""fullscreenenter"",""trial"":1,""time"":1438}]",NA,9745,NA,NA,NA,NA,NA,NA,NA,NA,NA,NA,NA,NA,NA,NA,NA,NA,NA,NA,"false,false,false,true",0,NA,NA,NA,NA,NA,NA,NA,NA
audio-instructions,47,386767,0.0-8.0,voc_e2,11884,"[{""event"":""focus"",""trial"":0,""time"":0},{""event"":""focus"",""trial"":0,""time"":0},{""event"":""fullscreenenter"",""trial"":1,""time"":1438}]",NA,839.2000000476837,static/audio/ready.wav,NA,0,NA,NA,NA,NA,NA,NA,NA,NA,NA,NA,NA,NA,NA,NA,NA,NA,NA,NA,NA,NA,NA,NA,NA,NA,NA
fcp-trial,48,391134,0.0-9.0-0.0,voc_e2,11884,"[{""event"":""focus"",""trial"":0,""time"":0},{""event"":""focus"",""trial"":0,""time"":0},{""event"":""fullscreenenter"",""trial"":1,""time"":1438}]",NA,NA,NA,NA,NA,2,#3386FF,#D89F1C,0,10,0,38,1,2439.5,37,1,407.5,0,0,experiment,NA,NA,1,0.3,0.7,3,2,1,1,NA
fcp-trial,49,393650,0.0-10.0-0.0,voc_e2,11884,"[{""event"":""focus"",""trial"":0,""time"":0},{""event"":""focus"",""trial"":0,""time"":0},{""event"":""fullscreenenter"",""trial"":1,""time"":1438}]",NA,NA,NA,NA,NA,1,#D89F1C,#3386FF,10,10,1,38,1,666.2000000476837,39,0,323.8000000715256,10,0,experiment,NA,NA,1,0.7,0.3,2,3,2,1,NA
fcp-trial,50,396768,0.0-11.0-0.0,voc_e2,11884,"[{""event"":""focus"",""trial"":0,""time"":0},{""event"":""focus"",""trial"":0,""time"":0},{""event"":""fullscreenenter"",""trial"":1,""time"":1438}]",NA,NA,NA,NA,NA,2,#D8271C,#741CD8,0,10,0,38,1,1141.6999999284744,37,1,461.5,0,0,experiment,NA,NA,0,0.1,0.9,1,0,3,1,NA
fcp-trial,51,400071,0.0-12.0-0.0,voc_e2,11884,"[{""event"":""focus"",""trial"":0,""time"":0},{""event"":""focus"",""trial"":0,""time"":0},{""event"":""fullscreenenter"",""trial"":1,""time"":1438}]",NA,NA,NA,NA,NA,0,#D89F1C,#3386FF,10,10,1,38,1,1041.5,39,0,751.5,10,0,experiment,NA,NA,1,0.7,0.3,2,3,4,1,NA
fcp-trial,52,404151,0.0-13.0-0.0,voc_e2,11884,"[{""event"":""focus"",""trial"":0,""time"":0},{""event"":""focus"",""trial"":0,""time"":0},{""event"":""fullscreenenter"",""trial"":1,""time"":1438}]",NA,NA,NA,NA,NA,2,#FA92F8,#1CD855,10,0,1,40,0,1986.8999999761581,37,1,582.7999999523163,10,1,experiment,NA,NA,2,0.5,0.5,4,5,5,1,NA
fcp-trial,53,407417,0.0-14.0-0.0,voc_e2,11884,"[{""event"":""focus"",""trial"":0,""time"":0},{""event"":""focus"",""trial"":0,""time"":0},{""event"":""fullscreenenter"",""trial"":1,""time"":1438}]",NA,NA,NA,NA,NA,5,#741CD8,#D8271C,10,0,1,40,0,1225.1000000238419,39,0,521.6999999284744,0,0,experiment,NA,NA,0,0.9,0.1,0,1,6,1,NA
fcp-trial,54,411266,0.0-15.0-0.0,voc_e2,11884,"[{""event"":""focus"",""trial"":0,""time"":0},{""event"":""focus"",""trial"":0,""time"":0},{""event"":""fullscreenenter"",""trial"":1,""time"":1438}]",NA,NA,NA,NA,NA,4,#FA92F8,#1CD855,0,0,1,38,1,1832.7000000476837,39,0,488.10000002384186,0,0,experiment,NA,NA,2,0.5,0.5,4,5,7,1,NA
fcp-trial,55,414435,0.0-16.0-0.0,voc_e2,11884,"[{""event"":""focus"",""trial"":0,""time"":0},{""event"":""focus"",""trial"":0,""time"":0},{""event"":""fullscreenenter"",""trial"":1,""time"":1438}]",NA,NA,NA,NA,NA,5,#3386FF,#D89F1C,0,0,0,38,1,1350.3000000715256,37,1,295.7000000476837,0,0,experiment,NA,NA,1,0.3,0.7,3,2,8,1,NA
fcp-trial,56,418103,0.0-17.0-0.0,voc_e2,11884,"[{""event"":""focus"",""trial"":0,""time"":0},{""event"":""focus"",""trial"":0,""time"":0},{""event"":""fullscreenenter"",""trial"":1,""time"":1438}]",NA,NA,NA,NA,NA,0,#FA92F8,#1CD855,0,10,1,38,1,1624.7999999523163,39,0,537.8000000715256,10,0,experiment,NA,NA,2,0.5,0.5,4,5,9,1,NA
fcp-trial,57,422391,0.0-18.0-0.0,voc_e2,11884,"[{""event"":""focus"",""trial"":0,""time"":0},{""event"":""focus"",""trial"":0,""time"":0},{""event"":""fullscreenenter"",""trial"":1,""time"":1438}]",NA,NA,NA,NA,NA,6,#D89F1C,#3386FF,10,0,1,40,0,2394.5,37,1,389.90000009536743,10,1,experiment,NA,NA,1,0.7,0.3,2,3,10,1,NA
fcp-trial,58,426394,0.0-19.0-0.0,voc_e2,11884,"[{""event"":""focus"",""trial"":0,""time"":0},{""event"":""focus"",""trial"":0,""time"":0},{""event"":""fullscreenenter"",""trial"":1,""time"":1438}]",NA,NA,NA,NA,NA,0,#D8271C,#741CD8,0,10,0,38,1,1749.7000000476837,37,1,747.1000000238419,0,0,experiment,NA,NA,0,0.1,0.9,1,0,11,1,NA
fcp-trial,59,430447,0.0-20.0-0.0,voc_e2,11884,"[{""event"":""focus"",""trial"":0,""time"":0},{""event"":""focus"",""trial"":0,""time"":0},{""event"":""fullscreenenter"",""trial"":1,""time"":1438}]",NA,NA,NA,NA,NA,3,#1CD855,#FA92F8,10,0,0,38,1,1524.0999999046326,37,1,1018,10,0,experiment,NA,NA,2,0.5,0.5,5,4,12,1,NA
fcp-trial,60,433922,0.0-21.0-0.0,voc_e2,11884,"[{""event"":""focus"",""trial"":0,""time"":0},{""event"":""focus"",""trial"":0,""time"":0},{""event"":""fullscreenenter"",""trial"":1,""time"":1438}]",NA,NA,NA,NA,NA,4,#3386FF,#D89F1C,10,10,0,40,0,1532.2000000476837,39,0,438.89999997615814,10,1,experiment,NA,NA,1,0.3,0.7,3,2,13,1,NA
fcp-trial,61,437243,0.0-22.0-0.0,voc_e2,11884,"[{""event"":""focus"",""trial"":0,""time"":0},{""event"":""focus"",""trial"":0,""time"":0},{""event"":""fullscreenenter"",""trial"":1,""time"":1438}]",NA,NA,NA,NA,NA,3,#741CD8,#D8271C,0,0,1,38,1,1379.5,39,0,436.40000009536743,0,0,experiment,NA,NA,0,0.9,0.1,0,1,14,1,NA
fcp-trial,62,440421,0.0-23.0-0.0,voc_e2,11884,"[{""event"":""focus"",""trial"":0,""time"":0},{""event"":""focus"",""trial"":0,""time"":0},{""event"":""fullscreenenter"",""trial"":1,""time"":1438}]",NA,NA,NA,NA,NA,6,#D8271C,#741CD8,0,10,0,40,0,1130.8999999761581,37,1,540.9000000953674,0,0,experiment,NA,NA,0,0.1,0.9,1,0,15,1,NA
fcp-trial,63,444384,0.0-24.0-0.0,voc_e2,11884,"[{""event"":""focus"",""trial"":0,""time"":0},{""event"":""focus"",""trial"":0,""time"":0},{""event"":""fullscreenenter"",""trial"":1,""time"":1438}]",NA,NA,NA,NA,NA,6,#FA92F8,#1CD855,0,10,1,40,0,2096.2999999523163,39,0,361,10,0,experiment,NA,NA,2,0.5,0.5,4,5,16,1,NA
fcp-trial,64,447818,0.0-25.0-0.0,voc_e2,11884,"[{""event"":""focus"",""trial"":0,""time"":0},{""event"":""focus"",""trial"":0,""time"":0},{""event"":""fullscreenenter"",""trial"":1,""time"":1438}]",NA,NA,NA,NA,NA,1,#D8271C,#741CD8,0,10,0,38,1,1548.2000000476837,37,1,379.39999997615814,0,0,experiment,NA,NA,0,0.1,0.9,1,0,17,1,NA
fcp-trial,65,450939,0.0-26.0-0.0,voc_e2,11884,"[{""event"":""focus"",""trial"":0,""time"":0},{""event"":""focus"",""trial"":0,""time"":0},{""event"":""fullscreenenter"",""trial"":1,""time"":1438}]",NA,NA,NA,NA,NA,3,#3386FF,#D89F1C,10,10,0,38,1,1255.3000000715256,37,1,358.39999997615814,10,0,experiment,NA,NA,1,0.3,0.7,3,2,18,1,NA
fcp-trial,66,454528,0.0-27.0-0.0,voc_e2,11884,"[{""event"":""focus"",""trial"":0,""time"":0},{""event"":""focus"",""trial"":0,""time"":0},{""event"":""fullscreenenter"",""trial"":1,""time"":1438}]",NA,NA,NA,NA,NA,5,#FA92F8,#1CD855,0,10,1,40,0,1647.5,39,0,436.5,10,0,experiment,NA,NA,2,0.5,0.5,4,5,19,1,NA
fcp-trial,67,458083,0.0-28.0-0.0,voc_e2,11884,"[{""event"":""focus"",""trial"":0,""time"":0},{""event"":""focus"",""trial"":0,""time"":0},{""event"":""fullscreenenter"",""trial"":1,""time"":1438}]",NA,NA,NA,NA,NA,1,#1CD855,#FA92F8,10,10,0,38,1,1655.7000000476837,37,1,391.2000000476837,10,0,experiment,NA,NA,2,0.5,0.5,5,4,20,1,NA
fcp-trial,68,461203,0.0-29.0-0.0,voc_e2,11884,"[{""event"":""focus"",""trial"":0,""time"":0},{""event"":""focus"",""trial"":0,""time"":0},{""event"":""fullscreenenter"",""trial"":1,""time"":1438}]",NA,NA,NA,NA,NA,4,#741CD8,#D8271C,10,0,1,40,0,1243.3999999761581,39,0,371.10000002384186,0,0,experiment,NA,NA,0,0.9,0.1,0,1,21,1,NA
fcp-trial,69,464001,0.0-30.0-0.0,voc_e2,11884,"[{""event"":""focus"",""trial"":0,""time"":0},{""event"":""focus"",""trial"":0,""time"":0},{""event"":""fullscreenenter"",""trial"":1,""time"":1438}]",NA,NA,NA,NA,NA,2,#D8271C,#741CD8,0,10,0,40,0,826.5,37,1,462.10000002384186,0,0,experiment,NA,NA,0,0.1,0.9,1,0,22,1,NA
fcp-trial,70,467373,0.0-31.0-0.0,voc_e2,11884,"[{""event"":""focus"",""trial"":0,""time"":0},{""event"":""focus"",""trial"":0,""time"":0},{""event"":""fullscreenenter"",""trial"":1,""time"":1438}]",NA,NA,NA,NA,NA,5,#1CD855,#FA92F8,0,0,0,40,0,1490.6000000238419,39,0,377.7999999523163,0,1,experiment,NA,NA,2,0.5,0.5,5,4,23,1,NA
fcp-trial,71,470489,0.0-32.0-0.0,voc_e2,11884,"[{""event"":""focus"",""trial"":0,""time"":0},{""event"":""focus"",""trial"":0,""time"":0},{""event"":""fullscreenenter"",""trial"":1,""time"":1438}]",NA,NA,NA,NA,NA,0,#D8271C,#741CD8,0,10,0,40,0,1104.8999999761581,37,1,507.2999999523163,0,0,experiment,NA,NA,0,0.1,0.9,1,0,24,1,NA
fcp-trial,72,474414,0.0-33.0-0.0,voc_e2,11884,"[{""event"":""focus"",""trial"":0,""time"":0},{""event"":""focus"",""trial"":0,""time"":0},{""event"":""fullscreenenter"",""trial"":1,""time"":1438}]",NA,NA,NA,NA,NA,5,#741CD8,#D8271C,10,0,1,40,0,1927.5,37,1,491.60000002384186,10,1,experiment,NA,NA,0,0.9,0.1,0,1,25,1,NA
fcp-trial,73,478229,0.0-34.0-0.0,voc_e2,11884,"[{""event"":""focus"",""trial"":0,""time"":0},{""event"":""focus"",""trial"":0,""time"":0},{""event"":""fullscreenenter"",""trial"":1,""time"":1438}]",NA,NA,NA,NA,NA,2,#3386FF,#D89F1C,0,10,0,38,1,1208.6000000238419,37,1,1092.3999999761581,0,0,experiment,NA,NA,1,0.3,0.7,3,2,26,1,NA
fcp-trial,74,481159,0.0-35.0-0.0,voc_e2,11884,"[{""event"":""focus"",""trial"":0,""time"":0},{""event"":""focus"",""trial"":0,""time"":0},{""event"":""fullscreenenter"",""trial"":1,""time"":1438}]",NA,NA,NA,NA,NA,1,#FA92F8,#1CD855,0,10,1,38,1,1104.2999999523163,39,0,319.59999990463257,10,0,experiment,NA,NA,2,0.5,0.5,4,5,27,1,NA
fcp-trial,75,483770,0.0-36.0-0.0,voc_e2,11884,"[{""event"":""focus"",""trial"":0,""time"":0},{""event"":""focus"",""trial"":0,""time"":0},{""event"":""fullscreenenter"",""trial"":1,""time"":1438}]",NA,NA,NA,NA,NA,5,#D89F1C,#3386FF,10,0,1,38,1,821.2000000476837,39,0,285.40000009536743,0,0,experiment,NA,NA,1,0.7,0.3,2,3,28,1,NA
fcp-trial,76,486757,0.0-37.0-0.0,voc_e2,11884,"[{""event"":""focus"",""trial"":0,""time"":0},{""event"":""focus"",""trial"":0,""time"":0},{""event"":""fullscreenenter"",""trial"":1,""time"":1438}]",NA,NA,NA,NA,NA,3,#741CD8,#D8271C,10,0,1,40,0,942.2999999523163,37,1,537,10,1,experiment,NA,NA,0,0.9,0.1,0,1,29,1,NA
fcp-trial,77,489496,0.0-38.0-0.0,voc_e2,11884,"[{""event"":""focus"",""trial"":0,""time"":0},{""event"":""focus"",""trial"":0,""time"":0},{""event"":""fullscreenenter"",""trial"":1,""time"":1438}]",NA,NA,NA,NA,NA,6,#D89F1C,#3386FF,10,0,1,38,1,886.6000000238419,37,1,347.5,10,1,experiment,NA,NA,1,0.7,0.3,2,3,30,1,NA
fcp-trial,78,492016,0.0-39.0-0.0,voc_e2,11884,"[{""event"":""focus"",""trial"":0,""time"":0},{""event"":""focus"",""trial"":0,""time"":0},{""event"":""fullscreenenter"",""trial"":1,""time"":1438}]",NA,NA,NA,NA,NA,4,#D89F1C,#3386FF,10,0,1,38,1,737,37,1,279.7999999523163,10,1,experiment,NA,NA,1,0.7,0.3,2,3,31,1,NA
fcp-trial,79,494506,0.0-40.0-0.0,voc_e2,11884,"[{""event"":""focus"",""trial"":0,""time"":0},{""event"":""focus"",""trial"":0,""time"":0},{""event"":""fullscreenenter"",""trial"":1,""time"":1438}]",NA,NA,NA,NA,NA,0,#1CD855,#FA92F8,0,0,0,38,1,726.5,37,1,260.2000000476837,0,0,experiment,NA,NA,2,0.5,0.5,5,4,32,1,NA
fcp-trial,80,497080,0.0-41.0-0.0,voc_e2,11884,"[{""event"":""focus"",""trial"":0,""time"":0},{""event"":""focus"",""trial"":0,""time"":0},{""event"":""fullscreenenter"",""trial"":1,""time"":1438}]",NA,NA,NA,NA,NA,2,#FA92F8,#1CD855,0,0,1,38,1,669.8000000715256,39,0,398.7000000476837,0,0,experiment,NA,NA,2,0.5,0.5,4,5,33,1,NA
fcp-trial,81,500033,0.0-42.0-0.0,voc_e2,11884,"[{""event"":""focus"",""trial"":0,""time"":0},{""event"":""focus"",""trial"":0,""time"":0},{""event"":""fullscreenenter"",""trial"":1,""time"":1438}]",NA,NA,NA,NA,NA,4,#741CD8,#D8271C,10,0,1,40,0,1106.3999999761581,37,1,339.89999997615814,10,1,experiment,NA,NA,0,0.9,0.1,0,1,34,1,NA
fcp-trial,82,503231,0.0-43.0-0.0,voc_e2,11884,"[{""event"":""focus"",""trial"":0,""time"":0},{""event"":""focus"",""trial"":0,""time"":0},{""event"":""fullscreenenter"",""trial"":1,""time"":1438}]",NA,NA,NA,NA,NA,1,#3386FF,#D89F1C,0,0,0,38,1,1051.6000000238419,37,1,639.8999999761581,0,0,experiment,NA,NA,1,0.3,0.7,3,2,35,1,NA
fcp-trial,83,506705,0.0-44.0-0.0,voc_e2,11884,"[{""event"":""focus"",""trial"":0,""time"":0},{""event"":""focus"",""trial"":0,""time"":0},{""event"":""fullscreenenter"",""trial"":1,""time"":1438}]",NA,NA,NA,NA,NA,4,#FA92F8,#1CD855,0,10,1,40,0,1470.1000000238419,37,1,499.7000000476837,0,1,experiment,NA,NA,2,0.5,0.5,4,5,36,1,NA
fcp-trial,84,509832,0.0-45.0-0.0,voc_e2,11884,"[{""event"":""focus"",""trial"":0,""time"":0},{""event"":""focus"",""trial"":0,""time"":0},{""event"":""fullscreenenter"",""trial"":1,""time"":1438}]",NA,NA,NA,NA,NA,3,#3386FF,#D89F1C,0,10,0,38,1,1197,39,0,426.2000000476837,10,1,experiment,NA,NA,1,0.3,0.7,3,2,37,1,NA
fcp-trial,85,512526,0.0-46.0-0.0,voc_e2,11884,"[{""event"":""focus"",""trial"":0,""time"":0},{""event"":""focus"",""trial"":0,""time"":0},{""event"":""fullscreenenter"",""trial"":1,""time"":1438}]",NA,NA,NA,NA,NA,3,#FA92F8,#1CD855,0,10,1,38,1,865.3000000715256,39,0,323.40000009536743,10,0,experiment,NA,NA,2,0.5,0.5,4,5,38,1,NA
fcp-trial,86,515479,0.0-47.0-0.0,voc_e2,11884,"[{""event"":""focus"",""trial"":0,""time"":0},{""event"":""focus"",""trial"":0,""time"":0},{""event"":""fullscreenenter"",""trial"":1,""time"":1438}]",NA,NA,NA,NA,NA,1,#741CD8,#D8271C,10,0,1,40,0,476.3000000715256,37,1,973.8999999761581,10,1,experiment,NA,NA,0,0.9,0.1,0,1,39,1,NA
fcp-trial,87,518399,0.0-48.0-0.0,voc_e2,11884,"[{""event"":""focus"",""trial"":0,""time"":0},{""event"":""focus"",""trial"":0,""time"":0},{""event"":""fullscreenenter"",""trial"":1,""time"":1438}]",NA,NA,NA,NA,NA,6,#D8271C,#741CD8,0,10,0,40,0,998.2000000476837,37,1,417.5,0,0,experiment,NA,NA,0,0.1,0.9,1,0,40,1,NA
fcp-trial,88,522155,0.0-49.0-0.0,voc_e2,11884,"[{""event"":""focus"",""trial"":0,""time"":0},{""event"":""focus"",""trial"":0,""time"":0},{""event"":""fullscreenenter"",""trial"":1,""time"":1438}]",NA,NA,NA,NA,NA,6,#FA92F8,#1CD855,0,10,1,40,0,1919.5,39,0,331.2999999523163,10,0,experiment,NA,NA,2,0.5,0.5,4,5,41,1,NA
fcp-trial,89,525198,0.0-50.0-0.0,voc_e2,11884,"[{""event"":""focus"",""trial"":0,""time"":0},{""event"":""focus"",""trial"":0,""time"":0},{""event"":""fullscreenenter"",""trial"":1,""time"":1438}]",NA,NA,NA,NA,NA,0,#3386FF,#D89F1C,0,10,0,38,1,722.2999999523163,39,0,816.6999999284744,10,1,experiment,NA,NA,1,0.3,0.7,3,2,42,1,NA
fcp-trial,90,527853,0.0-51.0-0.0,voc_e2,11884,"[{""event"":""focus"",""trial"":0,""time"":0},{""event"":""focus"",""trial"":0,""time"":0},{""event"":""fullscreenenter"",""trial"":1,""time"":1438}]",NA,NA,NA,NA,NA,0,#D89F1C,#3386FF,10,10,1,38,1,867.5,37,1,281.2999999523163,10,1,experiment,NA,NA,1,0.7,0.3,2,3,43,1,NA
fcp-trial,91,530407,0.0-52.0-0.0,voc_e2,11884,"[{""event"":""focus"",""trial"":0,""time"":0},{""event"":""focus"",""trial"":0,""time"":0},{""event"":""fullscreenenter"",""trial"":1,""time"":1438}]",NA,NA,NA,NA,NA,2,#1CD855,#FA92F8,0,0,0,38,1,656.1999999284744,37,1,391.6999999284744,0,0,experiment,NA,NA,2,0.5,0.5,5,4,44,1,NA
fcp-trial,92,533586,0.0-53.0-0.0,voc_e2,11884,"[{""event"":""focus"",""trial"":0,""time"":0},{""event"":""focus"",""trial"":0,""time"":0},{""event"":""fullscreenenter"",""trial"":1,""time"":1438}]",NA,NA,NA,NA,NA,1,#3386FF,#D89F1C,0,0,0,38,1,1069.7000000476837,39,0,606.4000000953674,0,1,experiment,NA,NA,1,0.3,0.7,3,2,45,1,NA
fcp-trial,93,536626,0.0-54.0-0.0,voc_e2,11884,"[{""event"":""focus"",""trial"":0,""time"":0},{""event"":""focus"",""trial"":0,""time"":0},{""event"":""fullscreenenter"",""trial"":1,""time"":1438}]",NA,NA,NA,NA,NA,5,#D8271C,#741CD8,0,0,0,40,0,1007.6999999284744,37,1,527,0,0,experiment,NA,NA,0,0.1,0.9,1,0,46,2,NA
fcp-trial,94,539357,0.0-55.0-0.0,voc_e2,11884,"[{""event"":""focus"",""trial"":0,""time"":0},{""event"":""focus"",""trial"":0,""time"":0},{""event"":""fullscreenenter"",""trial"":1,""time"":1438}]",NA,NA,NA,NA,NA,4,#D8271C,#741CD8,0,10,0,40,0,796.3000000715256,39,0,429.39999997615814,10,1,experiment,NA,NA,0,0.1,0.9,1,0,47,2,NA
fcp-trial,95,541851,0.0-56.0-0.0,voc_e2,11884,"[{""event"":""focus"",""trial"":0,""time"":0},{""event"":""focus"",""trial"":0,""time"":0},{""event"":""fullscreenenter"",""trial"":1,""time"":1438}]",NA,NA,NA,NA,NA,6,#741CD8,#D8271C,10,0,1,40,0,601.1000000238419,37,1,388,10,1,experiment,NA,NA,0,0.9,0.1,0,1,48,2,NA
fcp-trial,96,544927,0.0-57.0-0.0,voc_e2,11884,"[{""event"":""focus"",""trial"":0,""time"":0},{""event"":""focus"",""trial"":0,""time"":0},{""event"":""fullscreenenter"",""trial"":1,""time"":1438}]",NA,NA,NA,NA,NA,4,#FA92F8,#1CD855,10,0,1,40,0,1271.7000000476837,39,0,296.60000002384186,0,0,experiment,NA,NA,2,0.5,0.5,4,5,49,2,NA
fcp-trial,97,548006,0.0-58.0-0.0,voc_e2,11884,"[{""event"":""focus"",""trial"":0,""time"":0},{""event"":""focus"",""trial"":0,""time"":0},{""event"":""fullscreenenter"",""trial"":1,""time"":1438}]",NA,NA,NA,NA,NA,2,#D89F1C,#3386FF,10,0,1,38,1,1316.3000000715256,37,1,259.2999999523163,10,1,experiment,NA,NA,1,0.7,0.3,2,3,50,2,NA
fcp-trial,98,551135,0.0-59.0-0.0,voc_e2,11884,"[{""event"":""focus"",""trial"":0,""time"":0},{""event"":""focus"",""trial"":0,""time"":0},{""event"":""fullscreenenter"",""trial"":1,""time"":1438}]",NA,NA,NA,NA,NA,6,#1CD855,#FA92F8,0,0,0,40,0,1165.3000000715256,39,0,459.60000002384186,0,1,experiment,NA,NA,2,0.5,0.5,5,4,51,2,NA
fcp-trial,99,554615,0.0-60.0-0.0,voc_e2,11884,"[{""event"":""focus"",""trial"":0,""time"":0},{""event"":""focus"",""trial"":0,""time"":0},{""event"":""fullscreenenter"",""trial"":1,""time"":1438}]",NA,NA,NA,NA,NA,3,#1CD855,#FA92F8,0,0,0,38,1,1620.7999999523163,37,1,354.7999999523163,0,0,experiment,NA,NA,2,0.5,0.5,5,4,52,2,NA
fcp-trial,100,558443,0.0-61.0-0.0,voc_e2,11884,"[{""event"":""focus"",""trial"":0,""time"":0},{""event"":""focus"",""trial"":0,""time"":0},{""event"":""fullscreenenter"",""trial"":1,""time"":1438}]",NA,NA,NA,NA,NA,1,#D8271C,#741CD8,0,10,0,40,0,1911.5,37,1,408.6999999284744,0,0,experiment,NA,NA,0,0.1,0.9,1,0,53,2,NA
fcp-trial,101,564931,0.0-62.0-0.0,voc_e2,11884,"[{""event"":""focus"",""trial"":0,""time"":0},{""event"":""focus"",""trial"":0,""time"":0},{""event"":""fullscreenenter"",""trial"":1,""time"":1438}]",NA,NA,NA,NA,NA,3,#D8271C,#741CD8,0,10,0,38,1,4695.800000071526,39,0,287.5,10,1,experiment,NA,NA,0,0.1,0.9,1,0,54,2,NA
fcp-trial,102,568145,0.0-63.0-0.0,voc_e2,11884,"[{""event"":""focus"",""trial"":0,""time"":0},{""event"":""focus"",""trial"":0,""time"":0},{""event"":""fullscreenenter"",""trial"":1,""time"":1438}]",NA,NA,NA,NA,NA,5,#D89F1C,#3386FF,10,0,1,40,0,1285.3999999761581,39,0,421.5,0,0,experiment,NA,NA,1,0.7,0.3,2,3,55,2,NA
fcp-trial,103,570800,0.0-64.0-0.0,voc_e2,11884,"[{""event"":""focus"",""trial"":0,""time"":0},{""event"":""focus"",""trial"":0,""time"":0},{""event"":""fullscreenenter"",""trial"":1,""time"":1438}]",NA,NA,NA,NA,NA,5,#1CD855,#FA92F8,0,10,0,40,0,832.5999999046326,37,1,316.7999999523163,0,0,experiment,NA,NA,2,0.5,0.5,5,4,56,2,NA
fcp-trial,104,573599,0.0-65.0-0.0,voc_e2,11884,"[{""event"":""focus"",""trial"":0,""time"":0},{""event"":""focus"",""trial"":0,""time"":0},{""event"":""fullscreenenter"",""trial"":1,""time"":1438}]",NA,NA,NA,NA,NA,3,#D89F1C,#3386FF,0,0,1,40,0,920.8999999761581,37,1,372,0,1,experiment,NA,NA,1,0.7,0.3,2,3,57,2,NA
fcp-trial,105,576971,0.0-66.0-0.0,voc_e2,11884,"[{""event"":""focus"",""trial"":0,""time"":0},{""event"":""focus"",""trial"":0,""time"":0},{""event"":""fullscreenenter"",""trial"":1,""time"":1438}]",NA,NA,NA,NA,NA,4,#3386FF,#D89F1C,0,10,0,38,1,1079.1000000238419,39,0,786.1000000238419,10,1,experiment,NA,NA,1,0.3,0.7,3,2,58,2,NA
fcp-trial,106,580620,0.0-67.0-0.0,voc_e2,11884,"[{""event"":""focus"",""trial"":0,""time"":0},{""event"":""focus"",""trial"":0,""time"":0},{""event"":""fullscreenenter"",""trial"":1,""time"":1438}]",NA,NA,NA,NA,NA,0,#D8271C,#741CD8,0,10,0,38,1,1694.2000000476837,39,0,449.2999999523163,10,1,experiment,NA,NA,0,0.1,0.9,1,0,59,2,NA
fcp-trial,107,583409,0.0-68.0-0.0,voc_e2,11884,"[{""event"":""focus"",""trial"":0,""time"":0},{""event"":""focus"",""trial"":0,""time"":0},{""event"":""fullscreenenter"",""trial"":1,""time"":1438}]",NA,NA,NA,NA,NA,1,#1CD855,#FA92F8,0,10,0,38,1,985.6999999284744,37,1,299.60000002384186,0,0,experiment,NA,NA,2,0.5,0.5,5,4,60,2,NA
fcp-trial,108,586684,0.0-69.0-0.0,voc_e2,11884,"[{""event"":""focus"",""trial"":0,""time"":0},{""event"":""focus"",""trial"":0,""time"":0},{""event"":""fullscreenenter"",""trial"":1,""time"":1438}]",NA,NA,NA,NA,NA,6,#D89F1C,#3386FF,10,0,1,40,0,1313.7999999523163,37,1,456.2000000476837,10,1,experiment,NA,NA,1,0.7,0.3,2,3,61,2,NA
fcp-trial,109,589795,0.0-70.0-0.0,voc_e2,11884,"[{""event"":""focus"",""trial"":0,""time"":0},{""event"":""focus"",""trial"":0,""time"":0},{""event"":""fullscreenenter"",""trial"":1,""time"":1438}]",NA,NA,NA,NA,NA,0,#1CD855,#FA92F8,10,0,0,38,1,1354.8999999761581,39,0,250.20000004768372,0,1,experiment,NA,NA,2,0.5,0.5,5,4,62,2,NA
fcp-trial,110,593022,0.0-71.0-0.0,voc_e2,11884,"[{""event"":""focus"",""trial"":0,""time"":0},{""event"":""focus"",""trial"":0,""time"":0},{""event"":""fullscreenenter"",""trial"":1,""time"":1438}]",NA,NA,NA,NA,NA,2,#741CD8,#D8271C,10,0,1,40,0,1165.5999999046326,37,1,557.6000000238419,10,1,experiment,NA,NA,0,0.9,0.1,0,1,63,2,NA
fcp-trial,111,597375,0.0-72.0-0.0,voc_e2,11884,"[{""event"":""focus"",""trial"":0,""time"":0},{""event"":""focus"",""trial"":0,""time"":0},{""event"":""fullscreenenter"",""trial"":1,""time"":1438}]",NA,NA,NA,NA,NA,1,#3386FF,#D89F1C,0,10,0,38,1,2516.2999999523163,39,0,332.1999999284744,10,1,experiment,NA,NA,1,0.3,0.7,3,2,64,2,NA
fcp-trial,112,600165,0.0-73.0-0.0,voc_e2,11884,"[{""event"":""focus"",""trial"":0,""time"":0},{""event"":""focus"",""trial"":0,""time"":0},{""event"":""fullscreenenter"",""trial"":1,""time"":1438}]",NA,NA,NA,NA,NA,5,#1CD855,#FA92F8,0,10,0,40,0,966.8999999761581,37,1,317.60000002384186,0,0,experiment,NA,NA,2,0.5,0.5,5,4,65,2,NA
fcp-trial,113,603296,0.0-74.0-0.0,voc_e2,11884,"[{""event"":""focus"",""trial"":0,""time"":0},{""event"":""focus"",""trial"":0,""time"":0},{""event"":""fullscreenenter"",""trial"":1,""time"":1438}]",NA,NA,NA,NA,NA,6,#1CD855,#FA92F8,0,10,0,40,0,802.1999999284744,39,0,822.5,10,1,experiment,NA,NA,2,0.5,0.5,5,4,66,2,NA
fcp-trial,114,606208,0.0-75.0-0.0,voc_e2,11884,"[{""event"":""focus"",""trial"":0,""time"":0},{""event"":""focus"",""trial"":0,""time"":0},{""event"":""fullscreenenter"",""trial"":1,""time"":1438}]",NA,NA,NA,NA,NA,4,#D8271C,#741CD8,0,10,0,40,0,962.3999999761581,37,1,444.60000002384186,0,0,experiment,NA,NA,0,0.1,0.9,1,0,67,2,NA
fcp-trial,115,609101,0.0-76.0-0.0,voc_e2,11884,"[{""event"":""focus"",""trial"":0,""time"":0},{""event"":""focus"",""trial"":0,""time"":0},{""event"":""fullscreenenter"",""trial"":1,""time"":1438}]",NA,NA,NA,NA,NA,4,#3386FF,#D89F1C,10,0,0,40,0,1026.7000000476837,39,0,363.2000000476837,0,1,experiment,NA,NA,1,0.3,0.7,3,2,68,2,NA
fcp-trial,116,611830,0.0-77.0-0.0,voc_e2,11884,"[{""event"":""focus"",""trial"":0,""time"":0},{""event"":""focus"",""trial"":0,""time"":0},{""event"":""fullscreenenter"",""trial"":1,""time"":1438}]",NA,NA,NA,NA,NA,6,#741CD8,#D8271C,10,0,1,40,0,833.3999999761581,37,1,392,10,1,experiment,NA,NA,0,0.9,0.1,0,1,69,2,NA
fcp-trial,117,614519,0.0-78.0-0.0,voc_e2,11884,"[{""event"":""focus"",""trial"":0,""time"":0},{""event"":""focus"",""trial"":0,""time"":0},{""event"":""fullscreenenter"",""trial"":1,""time"":1438}]",NA,NA,NA,NA,NA,6,#3386FF,#D89F1C,0,10,0,40,0,865.6999999284744,39,0,317.60000002384186,10,1,experiment,NA,NA,1,0.3,0.7,3,2,70,2,NA
fcp-trial,118,617146,0.0-79.0-0.0,voc_e2,11884,"[{""event"":""focus"",""trial"":0,""time"":0},{""event"":""focus"",""trial"":0,""time"":0},{""event"":""fullscreenenter"",""trial"":1,""time"":1438}]",NA,NA,NA,NA,NA,4,#1CD855,#FA92F8,10,10,0,40,0,817.3000000715256,37,1,305.7000000476837,10,0,experiment,NA,NA,2,0.5,0.5,5,4,71,2,NA
fcp-trial,119,620840,0.0-80.0-0.0,voc_e2,11884,"[{""event"":""focus"",""trial"":0,""time"":0},{""event"":""focus"",""trial"":0,""time"":0},{""event"":""fullscreenenter"",""trial"":1,""time"":1438}]",NA,NA,NA,NA,NA,0,#3386FF,#D89F1C,0,10,0,38,1,1426.8999999761581,39,0,762,10,1,experiment,NA,NA,1,0.3,0.7,3,2,72,2,NA
fcp-trial,120,623945,0.0-81.0-0.0,voc_e2,11884,"[{""event"":""focus"",""trial"":0,""time"":0},{""event"":""focus"",""trial"":0,""time"":0},{""event"":""fullscreenenter"",""trial"":1,""time"":1438}]",NA,NA,NA,NA,NA,0,#1CD855,#FA92F8,10,10,0,38,1,945.2999999523163,37,1,655.1999999284744,10,0,experiment,NA,NA,2,0.5,0.5,5,4,73,2,NA
fcp-trial,121,626836,0.0-82.0-0.0,voc_e2,11884,"[{""event"":""focus"",""trial"":0,""time"":0},{""event"":""focus"",""trial"":0,""time"":0},{""event"":""fullscreenenter"",""trial"":1,""time"":1438}]",NA,NA,NA,NA,NA,2,#D8271C,#741CD8,0,10,0,40,0,986.9000000953674,39,0,399,10,1,experiment,NA,NA,0,0.1,0.9,1,0,74,2,NA
fcp-trial,122,629675,0.0-83.0-0.0,voc_e2,11884,"[{""event"":""focus"",""trial"":0,""time"":0},{""event"":""focus"",""trial"":0,""time"":0},{""event"":""fullscreenenter"",""trial"":1,""time"":1438}]",NA,NA,NA,NA,NA,1,#741CD8,#D8271C,10,0,1,40,0,862.2999999523163,37,1,471.89999997615814,10,1,experiment,NA,NA,0,0.9,0.1,0,1,75,2,NA
fcp-trial,123,633169,0.0-84.0-0.0,voc_e2,11884,"[{""event"":""focus"",""trial"":0,""time"":0},{""event"":""focus"",""trial"":0,""time"":0},{""event"":""fullscreenenter"",""trial"":1,""time"":1438}]",NA,NA,NA,NA,NA,2,#D89F1C,#3386FF,10,0,1,38,1,1711.5,37,1,277.89999997615814,10,1,experiment,NA,NA,1,0.7,0.3,2,3,76,2,NA
fcp-trial,124,636062,0.0-85.0-0.0,voc_e2,11884,"[{""event"":""focus"",""trial"":0,""time"":0},{""event"":""focus"",""trial"":0,""time"":0},{""event"":""fullscreenenter"",""trial"":1,""time"":1438}]",NA,NA,NA,NA,NA,2,#1CD855,#FA92F8,0,0,0,38,1,777.1000000238419,37,1,611.7000000476837,0,0,experiment,NA,NA,2,0.5,0.5,5,4,77,2,NA
fcp-trial,125,639037,0.0-86.0-0.0,voc_e2,11884,"[{""event"":""focus"",""trial"":0,""time"":0},{""event"":""focus"",""trial"":0,""time"":0},{""event"":""fullscreenenter"",""trial"":1,""time"":1438}]",NA,NA,NA,NA,NA,3,#D8271C,#741CD8,0,10,0,40,0,1104.1000000238419,37,1,365.39999997615814,0,0,experiment,NA,NA,0,0.1,0.9,1,0,78,2,NA
fcp-trial,126,641928,0.0-87.0-0.0,voc_e2,11884,"[{""event"":""focus"",""trial"":0,""time"":0},{""event"":""focus"",""trial"":0,""time"":0},{""event"":""fullscreenenter"",""trial"":1,""time"":1438}]",NA,NA,NA,NA,NA,3,#3386FF,#D89F1C,10,10,0,40,0,939.5,37,1,445.60000002384186,10,0,experiment,NA,NA,1,0.3,0.7,3,2,79,2,NA
fcp-trial,127,645291,0.0-88.0-0.0,voc_e2,11884,"[{""event"":""focus"",""trial"":0,""time"":0},{""event"":""focus"",""trial"":0,""time"":0},{""event"":""fullscreenenter"",""trial"":1,""time"":1438}]",NA,NA,NA,NA,NA,1,#1CD855,#FA92F8,0,0,0,38,1,1164.3999999761581,37,1,694.0999999046326,0,0,experiment,NA,NA,2,0.5,0.5,5,4,80,2,NA
fcp-trial,128,649231,0.0-89.0-0.0,voc_e2,11884,"[{""event"":""focus"",""trial"":0,""time"":0},{""event"":""focus"",""trial"":0,""time"":0},{""event"":""fullscreenenter"",""trial"":1,""time"":1438}]",NA,NA,NA,NA,NA,0,#741CD8,#D8271C,10,0,1,38,1,1252.2999999523163,37,1,1180.6999999284744,10,1,experiment,NA,NA,0,0.9,0.1,0,1,81,2,NA
fcp-trial,129,652219,0.0-90.0-0.0,voc_e2,11884,"[{""event"":""focus"",""trial"":0,""time"":0},{""event"":""focus"",""trial"":0,""time"":0},{""event"":""fullscreenenter"",""trial"":1,""time"":1438}]",NA,NA,NA,NA,NA,5,#D89F1C,#3386FF,10,10,1,40,0,1161.6000000238419,37,1,319.5,10,1,experiment,NA,NA,1,0.7,0.3,2,3,82,2,NA
fcp-trial,130,655488,0.0-91.0-0.0,voc_e2,11884,"[{""event"":""focus"",""trial"":0,""time"":0},{""event"":""focus"",""trial"":0,""time"":0},{""event"":""fullscreenenter"",""trial"":1,""time"":1438}]",NA,NA,NA,NA,NA,5,#D8271C,#741CD8,0,10,0,40,0,1420.7999999523163,37,1,343.90000009536743,0,0,experiment,NA,NA,0,0.1,0.9,1,0,83,2,NA
fcp-trial,131,658490,0.0-92.0-0.0,voc_e2,11884,"[{""event"":""focus"",""trial"":0,""time"":0},{""event"":""focus"",""trial"":0,""time"":0},{""event"":""fullscreenenter"",""trial"":1,""time"":1438}]",NA,NA,NA,NA,NA,3,#1CD855,#FA92F8,10,10,0,38,1,1235.3000000715256,37,1,262.60000002384186,10,0,experiment,NA,NA,2,0.5,0.5,5,4,84,2,NA
fcp-trial,132,661694,0.0-93.0-0.0,voc_e2,11884,"[{""event"":""focus"",""trial"":0,""time"":0},{""event"":""focus"",""trial"":0,""time"":0},{""event"":""fullscreenenter"",""trial"":1,""time"":1438}]",NA,NA,NA,NA,NA,4,#1CD855,#FA92F8,0,0,0,38,1,1417.6000000238419,37,1,281.59999990463257,0,0,experiment,NA,NA,2,0.5,0.5,5,4,85,2,NA
fcp-trial,133,664918,0.0-94.0-0.0,voc_e2,11884,"[{""event"":""focus"",""trial"":0,""time"":0},{""event"":""focus"",""trial"":0,""time"":0},{""event"":""fullscreenenter"",""trial"":1,""time"":1438}]",NA,NA,NA,NA,NA,2,#FA92F8,#1CD855,0,10,1,38,1,1192.5,37,1,525.3999999761581,0,1,experiment,NA,NA,2,0.5,0.5,4,5,86,2,NA
fcp-trial,134,667985,0.0-95.0-0.0,voc_e2,11884,"[{""event"":""focus"",""trial"":0,""time"":0},{""event"":""focus"",""trial"":0,""time"":0},{""event"":""fullscreenenter"",""trial"":1,""time"":1438}]",NA,NA,NA,NA,NA,3,#D89F1C,#3386FF,0,10,1,40,0,1145.3000000715256,37,1,416.60000002384186,0,1,experiment,NA,NA,1,0.7,0.3,2,3,87,2,NA
fcp-trial,135,670782,0.0-96.0-0.0,voc_e2,11884,"[{""event"":""focus"",""trial"":0,""time"":0},{""event"":""focus"",""trial"":0,""time"":0},{""event"":""fullscreenenter"",""trial"":1,""time"":1438}]",NA,NA,NA,NA,NA,2,#741CD8,#D8271C,10,0,1,38,1,811.8000000715256,37,1,481,10,1,experiment,NA,NA,0,0.9,0.1,0,1,88,2,NA
fcp-trial,136,674004,0.0-97.0-0.0,voc_e2,11884,"[{""event"":""focus"",""trial"":0,""time"":0},{""event"":""focus"",""trial"":0,""time"":0},{""event"":""fullscreenenter"",""trial"":1,""time"":1438}]",NA,NA,NA,NA,NA,2,#3386FF,#D89F1C,0,10,0,40,0,1344.5,37,1,372,0,0,experiment,NA,NA,1,0.3,0.7,3,2,89,2,NA
fcp-trial,137,676716,0.0-98.0-0.0,voc_e2,11884,"[{""event"":""focus"",""trial"":0,""time"":0},{""event"":""focus"",""trial"":0,""time"":0},{""event"":""fullscreenenter"",""trial"":1,""time"":1438}]",NA,NA,NA,NA,NA,5,#FA92F8,#1CD855,10,10,1,40,0,732.2999999523163,39,0,476.39999997615814,10,0,experiment,NA,NA,2,0.5,0.5,4,5,90,2,NA
fcp-trial,138,679911,0.0-99.0-0.0,voc_e2,11884,"[{""event"":""focus"",""trial"":0,""time"":0},{""event"":""focus"",""trial"":0,""time"":0},{""event"":""fullscreenenter"",""trial"":1,""time"":1438}]",NA,NA,NA,NA,NA,0,#D89F1C,#3386FF,10,10,1,38,1,1252.5,37,1,437.8000000715256,10,1,experiment,NA,NA,1,0.7,0.3,2,3,91,3,NA
fcp-trial,139,683102,0.0-100.0-0.0,voc_e2,11884,"[{""event"":""focus"",""trial"":0,""time"":0},{""event"":""focus"",""trial"":0,""time"":0},{""event"":""fullscreenenter"",""trial"":1,""time"":1438}]",NA,NA,NA,NA,NA,1,#741CD8,#D8271C,10,0,1,40,0,1339.7999999523163,39,0,346.5,0,0,experiment,NA,NA,0,0.9,0.1,0,1,92,3,NA
fcp-trial,140,685815,0.0-101.0-0.0,voc_e2,11884,"[{""event"":""focus"",""trial"":0,""time"":0},{""event"":""focus"",""trial"":0,""time"":0},{""event"":""fullscreenenter"",""trial"":1,""time"":1438}]",NA,NA,NA,NA,NA,0,#741CD8,#D8271C,0,0,1,38,1,925.3000000715256,37,1,284.89999997615814,0,1,experiment,NA,NA,0,0.9,0.1,0,1,93,3,NA
fcp-trial,141,688487,0.0-102.0-0.0,voc_e2,11884,"[{""event"":""focus"",""trial"":0,""time"":0},{""event"":""focus"",""trial"":0,""time"":0},{""event"":""fullscreenenter"",""trial"":1,""time"":1438}]",NA,NA,NA,NA,NA,5,#741CD8,#D8271C,10,0,1,38,1,775.7000000476837,37,1,391.5,10,1,experiment,NA,NA,0,0.9,0.1,0,1,94,3,NA
fcp-trial,142,691751,0.0-103.0-0.0,voc_e2,11884,"[{""event"":""focus"",""trial"":0,""time"":0},{""event"":""focus"",""trial"":0,""time"":0},{""event"":""fullscreenenter"",""trial"":1,""time"":1438}]",NA,NA,NA,NA,NA,3,#1CD855,#FA92F8,10,10,0,38,1,919.9000000953674,37,1,840.1000000238419,10,0,experiment,NA,NA,2,0.5,0.5,5,4,95,3,NA
fcp-trial,143,694609,0.0-104.0-0.0,voc_e2,11884,"[{""event"":""focus"",""trial"":0,""time"":0},{""event"":""focus"",""trial"":0,""time"":0},{""event"":""fullscreenenter"",""trial"":1,""time"":1438}]",NA,NA,NA,NA,NA,5,#D89F1C,#3386FF,0,0,1,40,0,961.8999999761581,39,0,389.2000000476837,0,0,experiment,NA,NA,1,0.7,0.3,2,3,96,3,NA
fcp-trial,144,698505,0.0-105.0-0.0,voc_e2,11884,"[{""event"":""focus"",""trial"":0,""time"":0},{""event"":""focus"",""trial"":0,""time"":0},{""event"":""fullscreenenter"",""trial"":1,""time"":1438}]",NA,NA,NA,NA,NA,1,#FA92F8,#1CD855,10,0,1,38,1,1934.3000000715256,37,1,456.40000009536743,10,1,experiment,NA,NA,2,0.5,0.5,4,5,97,3,NA
fcp-trial,145,701587,0.0-106.0-0.0,voc_e2,11884,"[{""event"":""focus"",""trial"":0,""time"":0},{""event"":""focus"",""trial"":0,""time"":0},{""event"":""fullscreenenter"",""trial"":1,""time"":1438}]",NA,NA,NA,NA,NA,6,#D8271C,#741CD8,0,10,0,40,0,1233.3000000715256,39,0,341.2000000476837,10,1,experiment,NA,NA,0,0.1,0.9,1,0,98,3,NA
fcp-trial,146,705042,0.0-107.0-0.0,voc_e2,11884,"[{""event"":""focus"",""trial"":0,""time"":0},{""event"":""focus"",""trial"":0,""time"":0},{""event"":""fullscreenenter"",""trial"":1,""time"":1438}]",NA,NA,NA,NA,NA,1,#3386FF,#D89F1C,0,10,0,38,1,1444.5,39,0,504.89999997615814,10,1,experiment,NA,NA,1,0.3,0.7,3,2,99,3,NA
fcp-trial,147,708062,0.0-108.0-0.0,voc_e2,11884,"[{""event"":""focus"",""trial"":0,""time"":0},{""event"":""focus"",""trial"":0,""time"":0},{""event"":""fullscreenenter"",""trial"":1,""time"":1438}]",NA,NA,NA,NA,NA,3,#D8271C,#741CD8,0,10,0,40,0,1205.3999999761581,39,0,308.89999997615814,10,1,experiment,NA,NA,0,0.1,0.9,1,0,100,3,NA
fcp-trial,148,711462,0.0-109.0-0.0,voc_e2,11884,"[{""event"":""focus"",""trial"":0,""time"":0},{""event"":""focus"",""trial"":0,""time"":0},{""event"":""fullscreenenter"",""trial"":1,""time"":1438}]",NA,NA,NA,NA,NA,0,#1CD855,#FA92F8,0,10,0,38,1,1407,37,1,486.39999997615814,0,0,experiment,NA,NA,2,0.5,0.5,5,4,101,3,NA
fcp-trial,149,714642,0.0-110.0-0.0,voc_e2,11884,"[{""event"":""focus"",""trial"":0,""time"":0},{""event"":""focus"",""trial"":0,""time"":0},{""event"":""fullscreenenter"",""trial"":1,""time"":1438}]",NA,NA,NA,NA,NA,6,#3386FF,#D89F1C,0,10,0,40,0,1349.6000000238419,37,1,323,0,0,experiment,NA,NA,1,0.3,0.7,3,2,102,3,NA
fcp-trial,150,717792,0.0-111.0-0.0,voc_e2,11884,"[{""event"":""focus"",""trial"":0,""time"":0},{""event"":""focus"",""trial"":0,""time"":0},{""event"":""fullscreenenter"",""trial"":1,""time"":1438}]",NA,NA,NA,NA,NA,4,#D89F1C,#3386FF,0,0,1,40,0,1317.5,39,0,328,0,0,experiment,NA,NA,1,0.7,0.3,2,3,103,3,NA
fcp-trial,151,720354,0.0-112.0-0.0,voc_e2,11884,"[{""event"":""focus"",""trial"":0,""time"":0},{""event"":""focus"",""trial"":0,""time"":0},{""event"":""fullscreenenter"",""trial"":1,""time"":1438}]",NA,NA,NA,NA,NA,4,#741CD8,#D8271C,10,0,1,40,0,610.3000000715256,37,1,444.10000002384186,10,1,experiment,NA,NA,0,0.9,0.1,0,1,104,3,NA
fcp-trial,152,723197,0.0-113.0-0.0,voc_e2,11884,"[{""event"":""focus"",""trial"":0,""time"":0},{""event"":""focus"",""trial"":0,""time"":0},{""event"":""fullscreenenter"",""trial"":1,""time"":1438}]",NA,NA,NA,NA,NA,6,#1CD855,#FA92F8,10,0,0,40,0,1018.2000000476837,37,1,317.59999990463257,10,0,experiment,NA,NA,2,0.5,0.5,5,4,105,3,NA
audio-instructions,153,798973,0.0-114.0,voc_e2,11884,"[{""event"":""focus"",""trial"":0,""time"":0},{""event"":""focus"",""trial"":0,""time"":0},{""event"":""fullscreenenter"",""trial"":1,""time"":1438}]",NA,70805.79999995232,static/audio/pause.wav,NA,0,NA,NA,NA,NA,NA,NA,NA,NA,NA,NA,NA,NA,NA,NA,NA,NA,NA,NA,NA,NA,NA,NA,NA,NA,NA
fcp-trial,154,802187,0.0-115.0-0.0,voc_e2,11884,"[{""event"":""focus"",""trial"":0,""time"":0},{""event"":""focus"",""trial"":0,""time"":0},{""event"":""fullscreenenter"",""trial"":1,""time"":1438}]",NA,NA,NA,NA,NA,0,#D8271C,#741CD8,0,10,0,38,1,1397.6000000238419,39,0,311.2999999523163,10,1,experiment,NA,NA,0,0.1,0.9,1,0,106,3,NA
fcp-trial,155,804961,0.0-116.0-0.0,voc_e2,11884,"[{""event"":""focus"",""trial"":0,""time"":0},{""event"":""focus"",""trial"":0,""time"":0},{""event"":""fullscreenenter"",""trial"":1,""time"":1438}]",NA,NA,NA,NA,NA,5,#D8271C,#741CD8,0,10,0,40,0,980.6000000238419,39,0,288.89999997615814,10,1,experiment,NA,NA,0,0.1,0.9,1,0,107,3,NA
fcp-trial,156,808236,0.0-117.0-0.0,voc_e2,11884,"[{""event"":""focus"",""trial"":0,""time"":0},{""event"":""focus"",""trial"":0,""time"":0},{""event"":""fullscreenenter"",""trial"":1,""time"":1438}]",NA,NA,NA,NA,NA,6,#FA92F8,#1CD855,0,10,1,40,0,1481.3000000715256,39,0,287.8000000715256,10,0,experiment,NA,NA,2,0.5,0.5,4,5,108,3,NA
fcp-trial,157,811219,0.0-118.0-0.0,voc_e2,11884,"[{""event"":""focus"",""trial"":0,""time"":0},{""event"":""focus"",""trial"":0,""time"":0},{""event"":""fullscreenenter"",""trial"":1,""time"":1438}]",NA,NA,NA,NA,NA,6,#3386FF,#D89F1C,10,10,0,40,0,1053.6000000238419,39,0,424.3000000715256,10,1,experiment,NA,NA,1,0.3,0.7,3,2,109,3,NA
fcp-trial,158,814730,0.0-119.0-0.0,voc_e2,11884,"[{""event"":""focus"",""trial"":0,""time"":0},{""event"":""focus"",""trial"":0,""time"":0},{""event"":""fullscreenenter"",""trial"":1,""time"":1438}]",NA,NA,NA,NA,NA,3,#FA92F8,#1CD855,0,10,1,40,0,1679.6999999284744,39,0,326.39999997615814,10,0,experiment,NA,NA,2,0.5,0.5,4,5,110,3,NA
fcp-trial,159,817560,0.0-120.0-0.0,voc_e2,11884,"[{""event"":""focus"",""trial"":0,""time"":0},{""event"":""focus"",""trial"":0,""time"":0},{""event"":""fullscreenenter"",""trial"":1,""time"":1438}]",NA,NA,NA,NA,NA,4,#D8271C,#741CD8,0,10,0,40,0,883.7000000476837,37,1,439.6999999284744,0,0,experiment,NA,NA,0,0.1,0.9,1,0,111,3,NA
fcp-trial,160,820567,0.0-121.0-0.0,voc_e2,11884,"[{""event"":""focus"",""trial"":0,""time"":0},{""event"":""focus"",""trial"":0,""time"":0},{""event"":""fullscreenenter"",""trial"":1,""time"":1438}]",NA,NA,NA,NA,NA,1,#FA92F8,#1CD855,10,10,1,38,1,1247.8999999761581,39,0,252.60000002384186,10,0,experiment,NA,NA,2,0.5,0.5,4,5,112,3,NA
fcp-trial,161,823754,0.0-122.0-0.0,voc_e2,11884,"[{""event"":""focus"",""trial"":0,""time"":0},{""event"":""focus"",""trial"":0,""time"":0},{""event"":""fullscreenenter"",""trial"":1,""time"":1438}]",NA,NA,NA,NA,NA,4,#3386FF,#D89F1C,0,10,0,40,0,1299.5,39,0,382.2999999523163,10,1,experiment,NA,NA,1,0.3,0.7,3,2,113,3,NA
fcp-trial,162,826999,0.0-123.0-0.0,voc_e2,11884,"[{""event"":""focus"",""trial"":0,""time"":0},{""event"":""focus"",""trial"":0,""time"":0},{""event"":""fullscreenenter"",""trial"":1,""time"":1438}]",NA,NA,NA,NA,NA,0,#3386FF,#D89F1C,10,10,0,38,1,1139.6000000238419,39,0,601.5,10,1,experiment,NA,NA,1,0.3,0.7,3,2,114,3,NA
fcp-trial,163,830178,0.0-124.0-0.0,voc_e2,11884,"[{""event"":""focus"",""trial"":0,""time"":0},{""event"":""focus"",""trial"":0,""time"":0},{""event"":""fullscreenenter"",""trial"":1,""time"":1438}]",NA,NA,NA,NA,NA,6,#D8271C,#741CD8,0,10,0,40,0,1115.3999999761581,39,0,560.1000000238419,10,1,experiment,NA,NA,0,0.1,0.9,1,0,115,3,NA
fcp-trial,164,833299,0.0-125.0-0.0,voc_e2,11884,"[{""event"":""focus"",""trial"":0,""time"":0},{""event"":""focus"",""trial"":0,""time"":0},{""event"":""fullscreenenter"",""trial"":1,""time"":1438}]",NA,NA,NA,NA,NA,5,#FA92F8,#1CD855,10,10,1,40,0,1284,39,0,331.59999990463257,10,0,experiment,NA,NA,2,0.5,0.5,4,5,116,3,NA
fcp-trial,165,836073,0.0-126.0-0.0,voc_e2,11884,"[{""event"":""focus"",""trial"":0,""time"":0},{""event"":""focus"",""trial"":0,""time"":0},{""event"":""fullscreenenter"",""trial"":1,""time"":1438}]",NA,NA,NA,NA,NA,4,#FA92F8,#1CD855,10,10,1,38,1,899.8999999761581,39,0,370.09999990463257,10,0,experiment,NA,NA,2,0.5,0.5,4,5,117,3,NA
fcp-trial,166,838982,0.0-127.0-0.0,voc_e2,11884,"[{""event"":""focus"",""trial"":0,""time"":0},{""event"":""focus"",""trial"":0,""time"":0},{""event"":""fullscreenenter"",""trial"":1,""time"":1438}]",NA,NA,NA,NA,NA,5,#D89F1C,#3386FF,0,0,1,40,0,939.1000000238419,39,0,464.1999999284744,0,0,experiment,NA,NA,1,0.7,0.3,2,3,118,3,NA
fcp-trial,167,842583,0.0-128.0-0.0,voc_e2,11884,"[{""event"":""focus"",""trial"":0,""time"":0},{""event"":""focus"",""trial"":0,""time"":0},{""event"":""fullscreenenter"",""trial"":1,""time"":1438}]",NA,NA,NA,NA,NA,2,#741CD8,#D8271C,10,0,1,38,1,1770.8999999761581,37,1,323.89999997615814,10,1,experiment,NA,NA,0,0.9,0.1,0,1,119,3,NA
fcp-trial,168,845240,0.0-129.0-0.0,voc_e2,11884,"[{""event"":""focus"",""trial"":0,""time"":0},{""event"":""focus"",""trial"":0,""time"":0},{""event"":""fullscreenenter"",""trial"":1,""time"":1438}]",NA,NA,NA,NA,NA,0,#1CD855,#FA92F8,10,0,0,38,1,811.1000000238419,37,1,340.10000002384186,10,0,experiment,NA,NA,2,0.5,0.5,5,4,120,3,NA
fcp-trial,169,848077,0.0-130.0-0.0,voc_e2,11884,"[{""event"":""focus"",""trial"":0,""time"":0},{""event"":""focus"",""trial"":0,""time"":0},{""event"":""fullscreenenter"",""trial"":1,""time"":1438}]",NA,NA,NA,NA,NA,3,#D89F1C,#3386FF,10,0,1,38,1,763.3999999761581,37,1,569.2000000476837,10,1,experiment,NA,NA,1,0.7,0.3,2,3,121,3,NA
fcp-trial,170,850541,0.0-131.0-0.0,voc_e2,11884,"[{""event"":""focus"",""trial"":0,""time"":0},{""event"":""focus"",""trial"":0,""time"":0},{""event"":""fullscreenenter"",""trial"":1,""time"":1438}]",NA,NA,NA,NA,NA,2,#FA92F8,#1CD855,0,10,1,38,1,699,37,1,259.7000000476837,0,1,experiment,NA,NA,2,0.5,0.5,4,5,122,3,NA
fcp-trial,171,853819,0.0-132.0-0.0,voc_e2,11884,"[{""event"":""focus"",""trial"":0,""time"":0},{""event"":""focus"",""trial"":0,""time"":0},{""event"":""fullscreenenter"",""trial"":1,""time"":1438}]",NA,NA,NA,NA,NA,3,#741CD8,#D8271C,0,0,1,38,1,1353.1000000238419,37,1,418.2999999523163,0,1,experiment,NA,NA,0,0.9,0.1,0,1,123,3,NA
fcp-trial,172,857190,0.0-133.0-0.0,voc_e2,11884,"[{""event"":""focus"",""trial"":0,""time"":0},{""event"":""focus"",""trial"":0,""time"":0},{""event"":""fullscreenenter"",""trial"":1,""time"":1438}]",NA,NA,NA,NA,NA,1,#741CD8,#D8271C,10,0,1,40,0,1546.0999999046326,39,0,321.60000002384186,0,0,experiment,NA,NA,0,0.9,0.1,0,1,124,3,NA
fcp-trial,173,860362,0.0-134.0-0.0,voc_e2,11884,"[{""event"":""focus"",""trial"":0,""time"":0},{""event"":""focus"",""trial"":0,""time"":0},{""event"":""fullscreenenter"",""trial"":1,""time"":1438}]",NA,NA,NA,NA,NA,1,#3386FF,#D89F1C,10,10,0,38,1,1198.8000000715256,39,0,468.2999999523163,10,1,experiment,NA,NA,1,0.3,0.7,3,2,125,3,NA
fcp-trial,174,863027,0.0-135.0-0.0,voc_e2,11884,"[{""event"":""focus"",""trial"":0,""time"":0},{""event"":""focus"",""trial"":0,""time"":0},{""event"":""fullscreenenter"",""trial"":1,""time"":1438}]",NA,NA,NA,NA,NA,2,#D89F1C,#3386FF,10,0,1,38,1,807.5,37,1,351.89999997615814,10,1,experiment,NA,NA,1,0.7,0.3,2,3,126,3,NA
fcp-trial,175,865333,0.0-136.0-0.0,voc_e2,11884,"[{""event"":""focus"",""trial"":0,""time"":0},{""event"":""focus"",""trial"":0,""time"":0},{""event"":""fullscreenenter"",""trial"":1,""time"":1438}]",NA,NA,NA,NA,NA,2,#D89F1C,#3386FF,0,0,1,38,1,499.40000009536743,37,1,302.7999999523163,0,1,experiment,NA,NA,1,0.7,0.3,2,3,127,3,NA
fcp-trial,176,868210,0.0-137.0-0.0,voc_e2,11884,"[{""event"":""focus"",""trial"":0,""time"":0},{""event"":""focus"",""trial"":0,""time"":0},{""event"":""fullscreenenter"",""trial"":1,""time"":1438}]",NA,NA,NA,NA,NA,0,#1CD855,#FA92F8,10,0,0,38,1,839.9000000953674,37,1,531.7000000476837,10,0,experiment,NA,NA,2,0.5,0.5,5,4,128,3,NA
fcp-trial,177,872482,0.0-138.0-0.0,voc_e2,11884,"[{""event"":""focus"",""trial"":0,""time"":0},{""event"":""focus"",""trial"":0,""time"":0},{""event"":""fullscreenenter"",""trial"":1,""time"":1438}]",NA,NA,NA,NA,NA,5,#741CD8,#D8271C,10,0,1,40,0,2357.3000000715256,39,0,411,0,0,experiment,NA,NA,0,0.9,0.1,0,1,129,3,NA
fcp-trial,178,876433,0.0-139.0-0.0,voc_e2,11884,"[{""event"":""focus"",""trial"":0,""time"":0},{""event"":""focus"",""trial"":0,""time"":0},{""event"":""fullscreenenter"",""trial"":1,""time"":1438}]",NA,NA,NA,NA,NA,1,#D8271C,#741CD8,0,10,0,38,1,2109.399999976158,39,0,332.7999999523163,10,1,experiment,NA,NA,0,0.1,0.9,1,0,130,3,NA
fcp-trial,179,879044,0.0-140.0-0.0,voc_e2,11884,"[{""event"":""focus"",""trial"":0,""time"":0},{""event"":""focus"",""trial"":0,""time"":0},{""event"":""fullscreenenter"",""trial"":1,""time"":1438}]",NA,NA,NA,NA,NA,2,#D8271C,#741CD8,0,10,0,38,1,726.7999999523163,39,0,380.2999999523163,10,1,experiment,NA,NA,0,0.1,0.9,1,0,131,3,NA
fcp-trial,180,882260,0.0-141.0-0.0,voc_e2,11884,"[{""event"":""focus"",""trial"":0,""time"":0},{""event"":""focus"",""trial"":0,""time"":0},{""event"":""fullscreenenter"",""trial"":1,""time"":1438}]",NA,NA,NA,NA,NA,6,#D89F1C,#3386FF,0,10,1,40,0,1347.2999999523163,37,1,362.90000009536743,0,1,experiment,NA,NA,1,0.7,0.3,2,3,132,3,NA
fcp-trial,181,885002,0.0-142.0-0.0,voc_e2,11884,"[{""event"":""focus"",""trial"":0,""time"":0},{""event"":""focus"",""trial"":0,""time"":0},{""event"":""fullscreenenter"",""trial"":1,""time"":1438}]",NA,NA,NA,NA,NA,3,#1CD855,#FA92F8,0,0,0,38,1,975.4000000953674,37,1,261.5,0,0,experiment,NA,NA,2,0.5,0.5,5,4,133,3,NA
fcp-trial,182,889195,0.0-143.0-0.0,voc_e2,11884,"[{""event"":""focus"",""trial"":0,""time"":0},{""event"":""focus"",""trial"":0,""time"":0},{""event"":""fullscreenenter"",""trial"":1,""time"":1438}]",NA,NA,NA,NA,NA,0,#741CD8,#D8271C,10,0,1,40,0,1154.0999999046326,37,1,1533.5,10,1,experiment,NA,NA,0,0.9,0.1,0,1,134,3,NA
fcp-trial,183,892878,0.0-144.0-0.0,voc_e2,11884,"[{""event"":""focus"",""trial"":0,""time"":0},{""event"":""focus"",""trial"":0,""time"":0},{""event"":""fullscreenenter"",""trial"":1,""time"":1438}]",NA,NA,NA,NA,NA,3,#D89F1C,#3386FF,10,10,1,38,1,1875.6999999284744,37,1,303.60000002384186,10,1,experiment,NA,NA,1,0.7,0.3,2,3,135,3,NA
fcp-trial,184,895840,0.0-145.0-0.0,voc_e2,11884,"[{""event"":""focus"",""trial"":0,""time"":0},{""event"":""focus"",""trial"":0,""time"":0},{""event"":""fullscreenenter"",""trial"":1,""time"":1438}]",NA,NA,NA,NA,NA,0,#3386FF,#D89F1C,0,10,0,38,1,1082,39,0,373.2000000476837,10,1,experiment,NA,NA,1,0.3,0.7,3,2,136,4,NA
fcp-trial,185,898868,0.0-146.0-0.0,voc_e2,11884,"[{""event"":""focus"",""trial"":0,""time"":0},{""event"":""focus"",""trial"":0,""time"":0},{""event"":""fullscreenenter"",""trial"":1,""time"":1438}]",NA,NA,NA,NA,NA,5,#FA92F8,#1CD855,0,10,1,40,0,1102,37,1,420.1999999284744,0,1,experiment,NA,NA,2,0.5,0.5,4,5,137,4,NA
fcp-trial,186,902062,0.0-147.0-0.0,voc_e2,11884,"[{""event"":""focus"",""trial"":0,""time"":0},{""event"":""focus"",""trial"":0,""time"":0},{""event"":""fullscreenenter"",""trial"":1,""time"":1438}]",NA,NA,NA,NA,NA,3,#741CD8,#D8271C,0,0,1,38,1,1114.7000000476837,37,1,575.3000000715256,0,1,experiment,NA,NA,0,0.9,0.1,0,1,138,4,NA
fcp-trial,187,905687,0.0-148.0-0.0,voc_e2,11884,"[{""event"":""focus"",""trial"":0,""time"":0},{""event"":""focus"",""trial"":0,""time"":0},{""event"":""fullscreenenter"",""trial"":1,""time"":1438}]",NA,NA,NA,NA,NA,4,#FA92F8,#1CD855,10,0,1,40,0,1554.8000000715256,37,1,565.6000000238419,10,1,experiment,NA,NA,2,0.5,0.5,4,5,139,4,NA
fcp-trial,188,909057,0.0-149.0-0.0,voc_e2,11884,"[{""event"":""focus"",""trial"":0,""time"":0},{""event"":""focus"",""trial"":0,""time"":0},{""event"":""fullscreenenter"",""trial"":1,""time"":1438}]",NA,NA,NA,NA,NA,6,#741CD8,#D8271C,10,0,1,40,0,1532.7000000476837,37,1,331.10000002384186,10,1,experiment,NA,NA,0,0.9,0.1,0,1,140,4,NA
fcp-trial,189,912136,0.0-150.0-0.0,voc_e2,11884,"[{""event"":""focus"",""trial"":0,""time"":0},{""event"":""focus"",""trial"":0,""time"":0},{""event"":""fullscreenenter"",""trial"":1,""time"":1438}]",NA,NA,NA,NA,NA,1,#3386FF,#D89F1C,0,10,0,38,1,1209.3999999761581,39,0,363.5,10,1,experiment,NA,NA,1,0.3,0.7,3,2,141,4,NA
fcp-trial,190,915071,0.0-151.0-0.0,voc_e2,11884,"[{""event"":""focus"",""trial"":0,""time"":0},{""event"":""focus"",""trial"":0,""time"":0},{""event"":""fullscreenenter"",""trial"":1,""time"":1438}]",NA,NA,NA,NA,NA,4,#D89F1C,#3386FF,10,0,1,38,1,1134.1000000238419,37,1,293.2000000476837,10,1,experiment,NA,NA,1,0.7,0.3,2,3,142,4,NA
fcp-trial,191,918249,0.0-152.0-0.0,voc_e2,11884,"[{""event"":""focus"",""trial"":0,""time"":0},{""event"":""focus"",""trial"":0,""time"":0},{""event"":""fullscreenenter"",""trial"":1,""time"":1438}]",NA,NA,NA,NA,NA,4,#741CD8,#D8271C,10,0,1,40,0,1357.1999999284744,37,1,315.6999999284744,10,1,experiment,NA,NA,0,0.9,0.1,0,1,143,4,NA
fcp-trial,192,920854,0.0-153.0-0.0,voc_e2,11884,"[{""event"":""focus"",""trial"":0,""time"":0},{""event"":""focus"",""trial"":0,""time"":0},{""event"":""fullscreenenter"",""trial"":1,""time"":1438}]",NA,NA,NA,NA,NA,2,#1CD855,#FA92F8,0,0,0,38,1,767.8999999761581,37,1,332.2000000476837,0,0,experiment,NA,NA,2,0.5,0.5,5,4,144,4,NA
fcp-trial,193,924733,0.0-154.0-0.0,voc_e2,11884,"[{""event"":""focus"",""trial"":0,""time"":0},{""event"":""focus"",""trial"":0,""time"":0},{""event"":""fullscreenenter"",""trial"":1,""time"":1438}]",NA,NA,NA,NA,NA,6,#FA92F8,#1CD855,0,10,1,38,1,1195,37,1,1174.1000000238419,0,1,experiment,NA,NA,2,0.5,0.5,4,5,145,4,NA
fcp-trial,194,928205,0.0-155.0-0.0,voc_e2,11884,"[{""event"":""focus"",""trial"":0,""time"":0},{""event"":""focus"",""trial"":0,""time"":0},{""event"":""fullscreenenter"",""trial"":1,""time"":1438}]",NA,NA,NA,NA,NA,5,#D89F1C,#3386FF,10,0,1,40,0,1574.6000000238419,39,0,392.39999997615814,0,0,experiment,NA,NA,1,0.7,0.3,2,3,146,4,NA
fcp-trial,195,931172,0.0-156.0-0.0,voc_e2,11884,"[{""event"":""focus"",""trial"":0,""time"":0},{""event"":""focus"",""trial"":0,""time"":0},{""event"":""fullscreenenter"",""trial"":1,""time"":1438}]",NA,NA,NA,NA,NA,1,#1CD855,#FA92F8,0,0,0,38,1,949.6000000238419,37,1,512.1999999284744,0,0,experiment,NA,NA,2,0.5,0.5,5,4,147,4,NA
fcp-trial,196,935391,0.0-157.0-0.0,voc_e2,11884,"[{""event"":""focus"",""trial"":0,""time"":0},{""event"":""focus"",""trial"":0,""time"":0},{""event"":""fullscreenenter"",""trial"":1,""time"":1438}]",NA,NA,NA,NA,NA,4,#3386FF,#D89F1C,10,0,0,38,1,2236.600000023842,39,0,476.89999997615814,0,1,experiment,NA,NA,1,0.3,0.7,3,2,148,4,NA
fcp-trial,197,938072,0.0-158.0-0.0,voc_e2,11884,"[{""event"":""focus"",""trial"":0,""time"":0},{""event"":""focus"",""trial"":0,""time"":0},{""event"":""fullscreenenter"",""trial"":1,""time"":1438}]",NA,NA,NA,NA,NA,6,#D89F1C,#3386FF,0,10,1,38,1,922.6999999284744,37,1,253.59999990463257,0,1,experiment,NA,NA,1,0.7,0.3,2,3,149,4,NA
fcp-trial,198,941166,0.0-159.0-0.0,voc_e2,11884,"[{""event"":""focus"",""trial"":0,""time"":0},{""event"":""focus"",""trial"":0,""time"":0},{""event"":""fullscreenenter"",""trial"":1,""time"":1438}]",NA,NA,NA,NA,NA,5,#1CD855,#FA92F8,0,10,0,40,0,1086.1000000238419,39,0,501.7000000476837,10,1,experiment,NA,NA,2,0.5,0.5,5,4,150,4,NA
fcp-trial,199,944463,0.0-160.0-0.0,voc_e2,11884,"[{""event"":""focus"",""trial"":0,""time"":0},{""event"":""focus"",""trial"":0,""time"":0},{""event"":""fullscreenenter"",""trial"":1,""time"":1438}]",NA,NA,NA,NA,NA,4,#1CD855,#FA92F8,0,0,0,40,0,1355.1999999284744,37,1,439.10000002384186,0,0,experiment,NA,NA,2,0.5,0.5,5,4,151,4,NA
fcp-trial,200,949193,0.0-161.0-0.0,voc_e2,11884,"[{""event"":""focus"",""trial"":0,""time"":0},{""event"":""focus"",""trial"":0,""time"":0},{""event"":""fullscreenenter"",""trial"":1,""time"":1438}]",NA,NA,NA,NA,NA,4,#D8271C,#741CD8,0,10,0,38,1,2643.399999976158,39,0,582.1000000238419,10,1,experiment,NA,NA,0,0.1,0.9,1,0,152,4,NA
fcp-trial,201,953308,0.0-162.0-0.0,voc_e2,11884,"[{""event"":""focus"",""trial"":0,""time"":0},{""event"":""focus"",""trial"":0,""time"":0},{""event"":""fullscreenenter"",""trial"":1,""time"":1438}]",NA,NA,NA,NA,NA,3,#D89F1C,#3386FF,0,10,1,38,1,2305,37,1,305.39999997615814,0,1,experiment,NA,NA,1,0.7,0.3,2,3,153,4,NA
fcp-trial,202,956583,0.0-163.0-0.0,voc_e2,11884,"[{""event"":""focus"",""trial"":0,""time"":0},{""event"":""focus"",""trial"":0,""time"":0},{""event"":""fullscreenenter"",""trial"":1,""time"":1438}]",NA,NA,NA,NA,NA,0,#D8271C,#741CD8,0,0,0,38,1,1368.9000000953674,39,0,400.39999997615814,0,1,experiment,NA,NA,0,0.1,0.9,1,0,154,4,NA
fcp-trial,203,959060,0.0-164.0-0.0,voc_e2,11884,"[{""event"":""focus"",""trial"":0,""time"":0},{""event"":""focus"",""trial"":0,""time"":0},{""event"":""fullscreenenter"",""trial"":1,""time"":1438}]",NA,NA,NA,NA,NA,6,#1CD855,#FA92F8,0,0,0,38,1,572,37,1,399.7999999523163,0,0,experiment,NA,NA,2,0.5,0.5,5,4,155,4,NA
fcp-trial,204,961695,0.0-165.0-0.0,voc_e2,11884,"[{""event"":""focus"",""trial"":0,""time"":0},{""event"":""focus"",""trial"":0,""time"":0},{""event"":""fullscreenenter"",""trial"":1,""time"":1438}]",NA,NA,NA,NA,NA,3,#FA92F8,#1CD855,0,10,1,38,1,825.1000000238419,39,0,303.5,10,0,experiment,NA,NA,2,0.5,0.5,4,5,156,4,NA
fcp-trial,205,964335,0.0-166.0-0.0,voc_e2,11884,"[{""event"":""focus"",""trial"":0,""time"":0},{""event"":""focus"",""trial"":0,""time"":0},{""event"":""fullscreenenter"",""trial"":1,""time"":1438}]",NA,NA,NA,NA,NA,2,#FA92F8,#1CD855,10,0,1,38,1,497.7999999523163,39,0,637.6000000238419,0,0,experiment,NA,NA,2,0.5,0.5,4,5,157,4,NA
fcp-trial,206,967389,0.0-167.0-0.0,voc_e2,11884,"[{""event"":""focus"",""trial"":0,""time"":0},{""event"":""focus"",""trial"":0,""time"":0},{""event"":""fullscreenenter"",""trial"":1,""time"":1438}]",NA,NA,NA,NA,NA,5,#D89F1C,#3386FF,10,0,1,40,0,1141.7999999523163,37,1,405.7999999523163,10,1,experiment,NA,NA,1,0.7,0.3,2,3,158,4,NA
fcp-trial,207,971978,0.0-168.0-0.0,voc_e2,11884,"[{""event"":""focus"",""trial"":0,""time"":0},{""event"":""focus"",""trial"":0,""time"":0},{""event"":""fullscreenenter"",""trial"":1,""time"":1438}]",NA,NA,NA,NA,NA,2,#741CD8,#D8271C,10,0,1,38,1,2808.100000023842,37,1,273.7000000476837,10,1,experiment,NA,NA,0,0.9,0.1,0,1,159,4,NA
fcp-trial,208,978979,0.0-169.0-0.0,voc_e2,11884,"[{""event"":""focus"",""trial"":0,""time"":0},{""event"":""focus"",""trial"":0,""time"":0},{""event"":""fullscreenenter"",""trial"":1,""time"":1438}]",NA,NA,NA,NA,NA,6,#741CD8,#D8271C,10,0,1,40,0,4668.799999952316,39,0,826.1999999284744,0,0,experiment,NA,NA,0,0.9,0.1,0,1,160,4,NA
fcp-trial,209,982902,0.0-170.0-0.0,voc_e2,11884,"[{""event"":""focus"",""trial"":0,""time"":0},{""event"":""focus"",""trial"":0,""time"":0},{""event"":""fullscreenenter"",""trial"":1,""time"":1438}]",NA,NA,NA,NA,NA,1,#3386FF,#D89F1C,0,0,0,38,1,2110.0999999046326,39,0,308,0,1,experiment,NA,NA,1,0.3,0.7,3,2,161,4,NA
fcp-trial,210,986806,0.0-171.0-0.0,voc_e2,11884,"[{""event"":""focus"",""trial"":0,""time"":0},{""event"":""focus"",""trial"":0,""time"":0},{""event"":""fullscreenenter"",""trial"":1,""time"":1438}]",NA,NA,NA,NA,NA,1,#FA92F8,#1CD855,0,10,1,38,1,1989.3000000715256,39,0,409.7999999523163,10,0,experiment,NA,NA,2,0.5,0.5,4,5,162,4,NA
fcp-trial,211,989794,0.0-172.0-0.0,voc_e2,11884,"[{""event"":""focus"",""trial"":0,""time"":0},{""event"":""focus"",""trial"":0,""time"":0},{""event"":""fullscreenenter"",""trial"":1,""time"":1438}]",NA,NA,NA,NA,NA,3,#D8271C,#741CD8,10,10,0,40,0,1051.3000000715256,37,1,432.1999999284744,10,0,experiment,NA,NA,0,0.1,0.9,1,0,163,4,NA
fcp-trial,212,996026,0.0-173.0-0.0,voc_e2,11884,"[{""event"":""focus"",""trial"":0,""time"":0},{""event"":""focus"",""trial"":0,""time"":0},{""event"":""fullscreenenter"",""trial"":1,""time"":1438}]",NA,NA,NA,NA,NA,0,#FA92F8,#1CD855,0,0,1,38,1,4339.899999976158,37,1,387.8000000715256,0,1,experiment,NA,NA,2,0.5,0.5,4,5,164,4,NA
fcp-trial,213,998995,0.0-174.0-0.0,voc_e2,11884,"[{""event"":""focus"",""trial"":0,""time"":0},{""event"":""focus"",""trial"":0,""time"":0},{""event"":""fullscreenenter"",""trial"":1,""time"":1438}]",NA,NA,NA,NA,NA,5,#D8271C,#741CD8,0,10,0,40,0,1064.2999999523163,37,1,400.5,0,0,experiment,NA,NA,0,0.1,0.9,1,0,165,4,NA
fcp-trial,214,1004741,0.0-175.0-0.0,voc_e2,11884,"[{""event"":""focus"",""trial"":0,""time"":0},{""event"":""focus"",""trial"":0,""time"":0},{""event"":""fullscreenenter"",""trial"":1,""time"":1438}]",NA,NA,NA,NA,NA,0,#D89F1C,#3386FF,0,0,1,40,0,3809.5999999046326,37,1,431.39999997615814,0,1,experiment,NA,NA,1,0.7,0.3,2,3,166,4,NA
fcp-trial,215,1007313,0.0-176.0-0.0,voc_e2,11884,"[{""event"":""focus"",""trial"":0,""time"":0},{""event"":""focus"",""trial"":0,""time"":0},{""event"":""fullscreenenter"",""trial"":1,""time"":1438}]",NA,NA,NA,NA,NA,1,#D8271C,#741CD8,0,10,0,38,1,736.5999999046326,39,0,329.89999997615814,10,1,experiment,NA,NA,0,0.1,0.9,1,0,167,4,NA
fcp-trial,216,1011946,0.0-177.0-0.0,voc_e2,11884,"[{""event"":""focus"",""trial"":0,""time"":0},{""event"":""focus"",""trial"":0,""time"":0},{""event"":""fullscreenenter"",""trial"":1,""time"":1438}]",NA,NA,NA,NA,NA,2,#D89F1C,#3386FF,0,10,1,38,1,2407.6999999284744,37,1,721.2999999523163,0,1,experiment,NA,NA,1,0.7,0.3,2,3,168,4,NA
fcp-trial,217,1014853,0.0-178.0-0.0,voc_e2,11884,"[{""event"":""focus"",""trial"":0,""time"":0},{""event"":""focus"",""trial"":0,""time"":0},{""event"":""fullscreenenter"",""trial"":1,""time"":1438}]",NA,NA,NA,NA,NA,4,#D89F1C,#3386FF,10,10,1,40,0,1114.8999999761581,39,0,287.8000000715256,10,0,experiment,NA,NA,1,0.7,0.3,2,3,169,4,NA
fcp-trial,218,1018071,0.0-179.0-0.0,voc_e2,11884,"[{""event"":""focus"",""trial"":0,""time"":0},{""event"":""focus"",""trial"":0,""time"":0},{""event"":""fullscreenenter"",""trial"":1,""time"":1438}]",NA,NA,NA,NA,NA,1,#FA92F8,#1CD855,0,0,1,38,1,1213.1000000238419,39,0,497.7000000476837,0,0,experiment,NA,NA,2,0.5,0.5,4,5,170,4,NA
fcp-trial,219,1021000,0.0-180.0-0.0,voc_e2,11884,"[{""event"":""focus"",""trial"":0,""time"":0},{""event"":""focus"",""trial"":0,""time"":0},{""event"":""fullscreenenter"",""trial"":1,""time"":1438}]",NA,NA,NA,NA,NA,3,#3386FF,#D89F1C,0,0,0,38,1,881.7999999523163,37,1,541.5,0,0,experiment,NA,NA,1,0.3,0.7,3,2,171,4,NA
fcp-trial,220,1023792,0.0-181.0-0.0,voc_e2,11884,"[{""event"":""focus"",""trial"":0,""time"":0},{""event"":""focus"",""trial"":0,""time"":0},{""event"":""fullscreenenter"",""trial"":1,""time"":1438}]",NA,NA,NA,NA,NA,5,#3386FF,#D89F1C,0,10,0,40,0,929.8999999761581,37,1,358.10000002384186,0,0,experiment,NA,NA,1,0.3,0.7,3,2,172,4,NA
fcp-trial,221,1027147,0.0-182.0-0.0,voc_e2,11884,"[{""event"":""focus"",""trial"":0,""time"":0},{""event"":""focus"",""trial"":0,""time"":0},{""event"":""fullscreenenter"",""trial"":1,""time"":1438}]",NA,NA,NA,NA,NA,4,#D8271C,#741CD8,0,10,0,38,1,1077.8000000715256,39,0,772.8999999761581,10,1,experiment,NA,NA,0,0.1,0.9,1,0,173,4,NA
fcp-trial,222,1030502,0.0-183.0-0.0,voc_e2,11884,"[{""event"":""focus"",""trial"":0,""time"":0},{""event"":""focus"",""trial"":0,""time"":0},{""event"":""fullscreenenter"",""trial"":1,""time"":1438}]",NA,NA,NA,NA,NA,5,#FA92F8,#1CD855,10,10,1,40,0,1409.8000000715256,37,1,440.7999999523163,10,1,experiment,NA,NA,2,0.5,0.5,4,5,174,4,NA
fcp-trial,223,1033482,0.0-184.0-0.0,voc_e2,11884,"[{""event"":""focus"",""trial"":0,""time"":0},{""event"":""focus"",""trial"":0,""time"":0},{""event"":""fullscreenenter"",""trial"":1,""time"":1438}]",NA,NA,NA,NA,NA,2,#741CD8,#D8271C,10,0,1,38,1,892.2000000476837,37,1,582.6999999284744,10,1,experiment,NA,NA,0,0.9,0.1,0,1,175,4,NA
fcp-trial,224,1035929,0.0-185.0-0.0,voc_e2,11884,"[{""event"":""focus"",""trial"":0,""time"":0},{""event"":""focus"",""trial"":0,""time"":0},{""event"":""fullscreenenter"",""trial"":1,""time"":1438}]",NA,NA,NA,NA,NA,3,#741CD8,#D8271C,10,0,1,38,1,525.8999999761581,37,1,417.39999997615814,10,1,experiment,NA,NA,0,0.9,0.1,0,1,176,4,NA
fcp-trial,225,1040023,0.0-186.0-0.0,voc_e2,11884,"[{""event"":""focus"",""trial"":0,""time"":0},{""event"":""focus"",""trial"":0,""time"":0},{""event"":""fullscreenenter"",""trial"":1,""time"":1438}]",NA,NA,NA,NA,NA,1,#D89F1C,#3386FF,0,10,1,38,1,1462.7000000476837,37,1,1125.6999999284744,0,1,experiment,NA,NA,1,0.7,0.3,2,3,177,4,NA
fcp-trial,226,1043239,0.0-187.0-0.0,voc_e2,11884,"[{""event"":""focus"",""trial"":0,""time"":0},{""event"":""focus"",""trial"":0,""time"":0},{""event"":""fullscreenenter"",""trial"":1,""time"":1438}]",NA,NA,NA,NA,NA,2,#1CD855,#FA92F8,10,10,0,38,1,1340.1999999284744,37,1,371.60000002384186,10,0,experiment,NA,NA,2,0.5,0.5,5,4,178,4,NA
fcp-trial,227,1045929,0.0-188.0-0.0,voc_e2,11884,"[{""event"":""focus"",""trial"":0,""time"":0},{""event"":""focus"",""trial"":0,""time"":0},{""event"":""fullscreenenter"",""trial"":1,""time"":1438}]",NA,NA,NA,NA,NA,2,#3386FF,#D89F1C,10,10,0,38,1,900.3999999761581,39,0,283.5,10,1,experiment,NA,NA,1,0.3,0.7,3,2,179,4,NA
fcp-trial,228,1048793,0.0-189.0-0.0,voc_e2,11884,"[{""event"":""focus"",""trial"":0,""time"":0},{""event"":""focus"",""trial"":0,""time"":0},{""event"":""fullscreenenter"",""trial"":1,""time"":1438}]",NA,NA,NA,NA,NA,6,#D8271C,#741CD8,0,10,0,38,1,1046.8999999761581,39,0,312.89999997615814,10,1,experiment,NA,NA,0,0.1,0.9,1,0,180,4,NA
fcp-trial,229,1052547,0.0-190.0-0.0,voc_e2,11884,"[{""event"":""focus"",""trial"":0,""time"":0},{""event"":""focus"",""trial"":0,""time"":0},{""event"":""fullscreenenter"",""trial"":1,""time"":1438}]",NA,NA,NA,NA,NA,6,#1CD855,#FA92F8,10,0,0,40,0,1791.8999999761581,37,1,455.39999997615814,10,0,experiment,NA,NA,2,0.5,0.5,5,4,181,5,NA
fcp-trial,230,1061324,0.0-191.0-0.0,voc_e2,11884,"[{""event"":""focus"",""trial"":0,""time"":0},{""event"":""focus"",""trial"":0,""time"":0},{""event"":""fullscreenenter"",""trial"":1,""time"":1438}]",NA,NA,NA,NA,NA,1,#D8271C,#741CD8,0,10,0,38,1,6823.399999976158,39,0,449.5,10,1,experiment,NA,NA,0,0.1,0.9,1,0,182,5,NA
fcp-trial,231,1063905,0.0-192.0-0.0,voc_e2,11884,"[{""event"":""focus"",""trial"":0,""time"":0},{""event"":""focus"",""trial"":0,""time"":0},{""event"":""fullscreenenter"",""trial"":1,""time"":1438}]",NA,NA,NA,NA,NA,6,#3386FF,#D89F1C,0,10,0,38,1,825.2999999523163,39,0,250.89999997615814,10,1,experiment,NA,NA,1,0.3,0.7,3,2,183,5,NA
fcp-trial,232,1066352,0.0-193.0-0.0,voc_e2,11884,"[{""event"":""focus"",""trial"":0,""time"":0},{""event"":""focus"",""trial"":0,""time"":0},{""event"":""fullscreenenter"",""trial"":1,""time"":1438}]",NA,NA,NA,NA,NA,4,#1CD855,#FA92F8,10,0,0,38,1,676.7999999523163,37,1,266.89999997615814,10,0,experiment,NA,NA,2,0.5,0.5,5,4,184,5,NA
fcp-trial,233,1069183,0.0-194.0-0.0,voc_e2,11884,"[{""event"":""focus"",""trial"":0,""time"":0},{""event"":""focus"",""trial"":0,""time"":0},{""event"":""fullscreenenter"",""trial"":1,""time"":1438}]",NA,NA,NA,NA,NA,5,#D8271C,#741CD8,10,0,0,38,1,581.2000000476837,39,0,744,0,1,experiment,NA,NA,0,0.1,0.9,1,0,185,5,NA
fcp-trial,234,1071506,0.0-195.0-0.0,voc_e2,11884,"[{""event"":""focus"",""trial"":0,""time"":0},{""event"":""focus"",""trial"":0,""time"":0},{""event"":""fullscreenenter"",""trial"":1,""time"":1438}]",NA,NA,NA,NA,NA,0,#D89F1C,#3386FF,10,0,1,38,1,550.6999999284744,37,1,267,10,1,experiment,NA,NA,1,0.7,0.3,2,3,186,5,NA
fcp-trial,235,1074397,0.0-196.0-0.0,voc_e2,11884,"[{""event"":""focus"",""trial"":0,""time"":0},{""event"":""focus"",""trial"":0,""time"":0},{""event"":""fullscreenenter"",""trial"":1,""time"":1438}]",NA,NA,NA,NA,NA,0,#741CD8,#D8271C,10,0,1,38,1,1037.8999999761581,37,1,348.89999997615814,10,1,experiment,NA,NA,0,0.9,0.1,0,1,187,5,NA
fcp-trial,236,1078440,0.0-197.0-0.0,voc_e2,11884,"[{""event"":""focus"",""trial"":0,""time"":0},{""event"":""focus"",""trial"":0,""time"":0},{""event"":""fullscreenenter"",""trial"":1,""time"":1438}]",NA,NA,NA,NA,NA,3,#1CD855,#FA92F8,10,10,0,38,1,1245.9000000953674,37,1,1291.5,10,0,experiment,NA,NA,2,0.5,0.5,5,4,188,5,NA
fcp-trial,237,1081058,0.0-198.0-0.0,voc_e2,11884,"[{""event"":""focus"",""trial"":0,""time"":0},{""event"":""focus"",""trial"":0,""time"":0},{""event"":""fullscreenenter"",""trial"":1,""time"":1438}]",NA,NA,NA,NA,NA,0,#1CD855,#FA92F8,10,10,0,38,1,829.8999999761581,37,1,283.7000000476837,10,0,experiment,NA,NA,2,0.5,0.5,5,4,189,5,NA
fcp-trial,238,1085611,0.0-199.0-0.0,voc_e2,11884,"[{""event"":""focus"",""trial"":0,""time"":0},{""event"":""focus"",""trial"":0,""time"":0},{""event"":""fullscreenenter"",""trial"":1,""time"":1438}]",NA,NA,NA,NA,NA,3,#D89F1C,#3386FF,0,0,1,38,1,2691.3000000715256,37,1,357.7000000476837,0,1,experiment,NA,NA,1,0.7,0.3,2,3,190,5,NA
fcp-trial,239,1088145,0.0-200.0-0.0,voc_e2,11884,"[{""event"":""focus"",""trial"":0,""time"":0},{""event"":""focus"",""trial"":0,""time"":0},{""event"":""fullscreenenter"",""trial"":1,""time"":1438}]",NA,NA,NA,NA,NA,5,#1CD855,#FA92F8,0,0,0,38,1,690.5,37,1,341,0,0,experiment,NA,NA,2,0.5,0.5,5,4,191,5,NA
fcp-trial,240,1091083,0.0-201.0-0.0,voc_e2,11884,"[{""event"":""focus"",""trial"":0,""time"":0},{""event"":""focus"",""trial"":0,""time"":0},{""event"":""fullscreenenter"",""trial"":1,""time"":1438}]",NA,NA,NA,NA,NA,6,#741CD8,#D8271C,10,0,1,40,0,1137,37,1,296.60000002384186,10,1,experiment,NA,NA,0,0.9,0.1,0,1,192,5,NA
fcp-trial,241,1094068,0.0-202.0-0.0,voc_e2,11884,"[{""event"":""focus"",""trial"":0,""time"":0},{""event"":""focus"",""trial"":0,""time"":0},{""event"":""fullscreenenter"",""trial"":1,""time"":1438}]",NA,NA,NA,NA,NA,5,#D89F1C,#3386FF,10,0,1,38,1,1090.1999999284744,37,1,390.60000002384186,10,1,experiment,NA,NA,1,0.7,0.3,2,3,193,5,NA
fcp-trial,242,1096577,0.0-203.0-0.0,voc_e2,11884,"[{""event"":""focus"",""trial"":0,""time"":0},{""event"":""focus"",""trial"":0,""time"":0},{""event"":""fullscreenenter"",""trial"":1,""time"":1438}]",NA,NA,NA,NA,NA,2,#D89F1C,#3386FF,10,0,1,38,1,681.5,37,1,320.39999997615814,10,1,experiment,NA,NA,1,0.7,0.3,2,3,194,5,NA
fcp-trial,243,1100502,0.0-204.0-0.0,voc_e2,11884,"[{""event"":""focus"",""trial"":0,""time"":0},{""event"":""focus"",""trial"":0,""time"":0},{""event"":""fullscreenenter"",""trial"":1,""time"":1438}]",NA,NA,NA,NA,NA,1,#FA92F8,#1CD855,10,0,1,38,1,1875.3000000715256,39,0,544.7000000476837,0,0,experiment,NA,NA,2,0.5,0.5,4,5,195,5,NA
fcp-trial,244,1102980,0.0-205.0-0.0,voc_e2,11884,"[{""event"":""focus"",""trial"":0,""time"":0},{""event"":""focus"",""trial"":0,""time"":0},{""event"":""fullscreenenter"",""trial"":1,""time"":1438}]",NA,NA,NA,NA,NA,0,#D89F1C,#3386FF,10,0,1,38,1,646.1999999284744,37,1,326.6999999284744,10,1,experiment,NA,NA,1,0.7,0.3,2,3,196,5,NA
fcp-trial,245,1105877,0.0-206.0-0.0,voc_e2,11884,"[{""event"":""focus"",""trial"":0,""time"":0},{""event"":""focus"",""trial"":0,""time"":0},{""event"":""fullscreenenter"",""trial"":1,""time"":1438}]",NA,NA,NA,NA,NA,2,#D8271C,#741CD8,0,10,0,38,1,882.5,39,0,509.1999999284744,10,1,experiment,NA,NA,0,0.1,0.9,1,0,197,5,NA
fcp-trial,246,1108665,0.0-207.0-0.0,voc_e2,11884,"[{""event"":""focus"",""trial"":0,""time"":0},{""event"":""focus"",""trial"":0,""time"":0},{""event"":""fullscreenenter"",""trial"":1,""time"":1438}]",NA,NA,NA,NA,NA,6,#D89F1C,#3386FF,10,10,1,40,0,991.7000000476837,37,1,292,10,1,experiment,NA,NA,1,0.7,0.3,2,3,198,5,NA
fcp-trial,247,1111484,0.0-208.0-0.0,voc_e2,11884,"[{""event"":""focus"",""trial"":0,""time"":0},{""event"":""focus"",""trial"":0,""time"":0},{""event"":""fullscreenenter"",""trial"":1,""time"":1438}]",NA,NA,NA,NA,NA,4,#741CD8,#D8271C,10,0,1,40,0,997.7000000476837,37,1,316.09999990463257,10,1,experiment,NA,NA,0,0.9,0.1,0,1,199,5,NA
fcp-trial,248,1113865,0.0-209.0-0.0,voc_e2,11884,"[{""event"":""focus"",""trial"":0,""time"":0},{""event"":""focus"",""trial"":0,""time"":0},{""event"":""fullscreenenter"",""trial"":1,""time"":1438}]",NA,NA,NA,NA,NA,4,#1CD855,#FA92F8,10,10,0,38,1,588.8999999761581,37,1,284.7000000476837,10,0,experiment,NA,NA,2,0.5,0.5,5,4,200,5,NA
fcp-trial,249,1116883,0.0-210.0-0.0,voc_e2,11884,"[{""event"":""focus"",""trial"":0,""time"":0},{""event"":""focus"",""trial"":0,""time"":0},{""event"":""fullscreenenter"",""trial"":1,""time"":1438}]",NA,NA,NA,NA,NA,3,#1CD855,#FA92F8,10,0,0,40,0,1177.7999999523163,37,1,331.59999990463257,10,0,experiment,NA,NA,2,0.5,0.5,5,4,201,5,NA
fcp-trial,250,1119885,0.0-211.0-0.0,voc_e2,11884,"[{""event"":""focus"",""trial"":0,""time"":0},{""event"":""focus"",""trial"":0,""time"":0},{""event"":""fullscreenenter"",""trial"":1,""time"":1438}]",NA,NA,NA,NA,NA,0,#FA92F8,#1CD855,0,10,1,38,1,1090.8999999761581,39,0,403.6999999284744,10,0,experiment,NA,NA,2,0.5,0.5,4,5,202,5,NA
fcp-trial,251,1122923,0.0-212.0-0.0,voc_e2,11884,"[{""event"":""focus"",""trial"":0,""time"":0},{""event"":""focus"",""trial"":0,""time"":0},{""event"":""fullscreenenter"",""trial"":1,""time"":1438}]",NA,NA,NA,NA,NA,4,#3386FF,#D89F1C,0,0,0,38,1,928.6000000238419,39,0,602.5,0,1,experiment,NA,NA,1,0.3,0.7,3,2,203,5,NA
fcp-trial,252,1125627,0.0-213.0-0.0,voc_e2,11884,"[{""event"":""focus"",""trial"":0,""time"":0},{""event"":""focus"",""trial"":0,""time"":0},{""event"":""fullscreenenter"",""trial"":1,""time"":1438}]",NA,NA,NA,NA,NA,0,#D8271C,#741CD8,0,10,0,38,1,908.8000000715256,39,0,291.7999999523163,10,1,experiment,NA,NA,0,0.1,0.9,1,0,204,5,NA
fcp-trial,253,1128760,0.0-214.0-0.0,voc_e2,11884,"[{""event"":""focus"",""trial"":0,""time"":0},{""event"":""focus"",""trial"":0,""time"":0},{""event"":""fullscreenenter"",""trial"":1,""time"":1438}]",NA,NA,NA,NA,NA,6,#FA92F8,#1CD855,10,10,1,40,0,1111.7000000476837,37,1,515.6000000238419,10,1,experiment,NA,NA,2,0.5,0.5,4,5,205,5,NA
fcp-trial,254,1132075,0.0-215.0-0.0,voc_e2,11884,"[{""event"":""focus"",""trial"":0,""time"":0},{""event"":""focus"",""trial"":0,""time"":0},{""event"":""fullscreenenter"",""trial"":1,""time"":1438}]",NA,NA,NA,NA,NA,1,#D89F1C,#3386FF,10,10,1,38,1,1412,37,1,396.5,10,1,experiment,NA,NA,1,0.7,0.3,2,3,206,5,NA
fcp-trial,255,1135028,0.0-216.0-0.0,voc_e2,11884,"[{""event"":""focus"",""trial"":0,""time"":0},{""event"":""focus"",""trial"":0,""time"":0},{""event"":""fullscreenenter"",""trial"":1,""time"":1438}]",NA,NA,NA,NA,NA,5,#D8271C,#741CD8,0,10,0,40,0,987.5,37,1,459.10000002384186,0,0,experiment,NA,NA,0,0.1,0.9,1,0,207,5,NA
fcp-trial,256,1139151,0.0-217.0-0.0,voc_e2,11884,"[{""event"":""focus"",""trial"":0,""time"":0},{""event"":""focus"",""trial"":0,""time"":0},{""event"":""fullscreenenter"",""trial"":1,""time"":1438},{""event"":""blur"",""trial"":256,""time"":1135442},{""event"":""focus"",""trial"":256,""time"":1135624}]",NA,NA,NA,NA,NA,1,#741CD8,#D8271C,10,0,1,38,1,2180.899999976158,39,0,438,0,0,experiment,NA,NA,0,0.9,0.1,0,1,208,5,NA
fcp-trial,257,1142591,0.0-218.0-0.0,voc_e2,11884,"[{""event"":""focus"",""trial"":0,""time"":0},{""event"":""focus"",""trial"":0,""time"":0},{""event"":""fullscreenenter"",""trial"":1,""time"":1438},{""event"":""blur"",""trial"":256,""time"":1135442},{""event"":""focus"",""trial"":256,""time"":1135624}]",NA,NA,NA,NA,NA,2,#FA92F8,#1CD855,10,0,1,38,1,1485.0999999046326,39,0,448.90000009536743,0,0,experiment,NA,NA,2,0.5,0.5,4,5,209,5,NA
fcp-trial,258,1147192,0.0-219.0-0.0,voc_e2,11884,"[{""event"":""focus"",""trial"":0,""time"":0},{""event"":""focus"",""trial"":0,""time"":0},{""event"":""fullscreenenter"",""trial"":1,""time"":1438},{""event"":""blur"",""trial"":256,""time"":1135442},{""event"":""focus"",""trial"":256,""time"":1135624}]",NA,NA,NA,NA,NA,3,#D8271C,#741CD8,0,10,0,40,0,2783.100000023842,39,0,315.60000002384186,10,1,experiment,NA,NA,0,0.1,0.9,1,0,210,5,NA
audio-instructions,259,1155313,0.0-220.0,voc_e2,11884,"[{""event"":""focus"",""trial"":0,""time"":0},{""event"":""focus"",""trial"":0,""time"":0},{""event"":""fullscreenenter"",""trial"":1,""time"":1438},{""event"":""blur"",""trial"":256,""time"":1135442},{""event"":""focus"",""trial"":256,""time"":1135624}]",NA,3194.2999999523163,static/audio/pause.wav,NA,0,NA,NA,NA,NA,NA,NA,NA,NA,NA,NA,NA,NA,NA,NA,NA,NA,NA,NA,NA,NA,NA,NA,NA,NA,NA
fcp-trial,260,1158957,0.0-221.0-0.0,voc_e2,11884,"[{""event"":""focus"",""trial"":0,""time"":0},{""event"":""focus"",""trial"":0,""time"":0},{""event"":""fullscreenenter"",""trial"":1,""time"":1438},{""event"":""blur"",""trial"":256,""time"":1135442},{""event"":""focus"",""trial"":256,""time"":1135624}]",NA,NA,NA,NA,NA,1,#3386FF,#D89F1C,0,10,0,38,1,1842.1000000238419,37,1,286.09999990463257,0,0,experiment,NA,NA,1,0.3,0.7,3,2,211,5,NA
fcp-trial,261,1162018,0.0-222.0-0.0,voc_e2,11884,"[{""event"":""focus"",""trial"":0,""time"":0},{""event"":""focus"",""trial"":0,""time"":0},{""event"":""fullscreenenter"",""trial"":1,""time"":1438},{""event"":""blur"",""trial"":256,""time"":1135442},{""event"":""focus"",""trial"":256,""time"":1135624}]",NA,NA,NA,NA,NA,4,#741CD8,#D8271C,10,0,1,40,0,976.6000000238419,39,0,568.2999999523163,0,0,experiment,NA,NA,0,0.9,0.1,0,1,212,5,NA
fcp-trial,262,1165368,0.0-223.0-0.0,voc_e2,11884,"[{""event"":""focus"",""trial"":0,""time"":0},{""event"":""focus"",""trial"":0,""time"":0},{""event"":""fullscreenenter"",""trial"":1,""time"":1438},{""event"":""blur"",""trial"":256,""time"":1135442},{""event"":""focus"",""trial"":256,""time"":1135624}]",NA,NA,NA,NA,NA,4,#FA92F8,#1CD855,10,0,1,40,0,1359.7999999523163,37,1,478,10,1,experiment,NA,NA,2,0.5,0.5,4,5,213,5,NA
fcp-trial,263,1168418,0.0-224.0-0.0,voc_e2,11884,"[{""event"":""focus"",""trial"":0,""time"":0},{""event"":""focus"",""trial"":0,""time"":0},{""event"":""fullscreenenter"",""trial"":1,""time"":1438},{""event"":""blur"",""trial"":256,""time"":1135442},{""event"":""focus"",""trial"":256,""time"":1135624}]",NA,NA,NA,NA,NA,0,#D89F1C,#3386FF,10,0,1,38,1,983.3999999761581,37,1,553.3999999761581,10,1,experiment,NA,NA,1,0.7,0.3,2,3,214,5,NA
fcp-trial,264,1171768,0.0-225.0-0.0,voc_e2,11884,"[{""event"":""focus"",""trial"":0,""time"":0},{""event"":""focus"",""trial"":0,""time"":0},{""event"":""fullscreenenter"",""trial"":1,""time"":1438},{""event"":""blur"",""trial"":256,""time"":1135442},{""event"":""focus"",""trial"":256,""time"":1135624}]",NA,NA,NA,NA,NA,5,#D8271C,#741CD8,0,0,0,40,0,1522.6000000238419,37,1,314.89999997615814,0,0,experiment,NA,NA,0,0.1,0.9,1,0,215,5,NA
fcp-trial,265,1174634,0.0-226.0-0.0,voc_e2,11884,"[{""event"":""focus"",""trial"":0,""time"":0},{""event"":""focus"",""trial"":0,""time"":0},{""event"":""fullscreenenter"",""trial"":1,""time"":1438},{""event"":""blur"",""trial"":256,""time"":1135442},{""event"":""focus"",""trial"":256,""time"":1135624}]",NA,NA,NA,NA,NA,6,#1CD855,#FA92F8,0,10,0,40,0,1004.1999999284744,37,1,344.5,0,0,experiment,NA,NA,2,0.5,0.5,5,4,216,5,NA
fcp-trial,266,1177701,0.0-227.0-0.0,voc_e2,11884,"[{""event"":""focus"",""trial"":0,""time"":0},{""event"":""focus"",""trial"":0,""time"":0},{""event"":""fullscreenenter"",""trial"":1,""time"":1438},{""event"":""blur"",""trial"":256,""time"":1135442},{""event"":""focus"",""trial"":256,""time"":1135624}]",NA,NA,NA,NA,NA,1,#FA92F8,#1CD855,0,10,1,38,1,1058.9000000953674,39,0,495.7000000476837,10,0,experiment,NA,NA,2,0.5,0.5,4,5,217,5,NA
fcp-trial,267,1180418,0.0-228.0-0.0,voc_e2,11884,"[{""event"":""focus"",""trial"":0,""time"":0},{""event"":""focus"",""trial"":0,""time"":0},{""event"":""fullscreenenter"",""trial"":1,""time"":1438},{""event"":""blur"",""trial"":256,""time"":1135442},{""event"":""focus"",""trial"":256,""time"":1135624}]",NA,NA,NA,NA,NA,2,#3386FF,#D89F1C,0,10,0,38,1,871.1000000238419,39,0,329.40000009536743,10,1,experiment,NA,NA,1,0.3,0.7,3,2,218,5,NA
fcp-trial,268,1183275,0.0-229.0-0.0,voc_e2,11884,"[{""event"":""focus"",""trial"":0,""time"":0},{""event"":""focus"",""trial"":0,""time"":0},{""event"":""fullscreenenter"",""trial"":1,""time"":1438},{""event"":""blur"",""trial"":256,""time"":1135442},{""event"":""focus"",""trial"":256,""time"":1135624}]",NA,NA,NA,NA,NA,2,#1CD855,#FA92F8,0,10,0,38,1,969.5,37,1,373.89999997615814,0,0,experiment,NA,NA,2,0.5,0.5,5,4,219,5,NA
fcp-trial,269,1187087,0.0-230.0-0.0,voc_e2,11884,"[{""event"":""focus"",""trial"":0,""time"":0},{""event"":""focus"",""trial"":0,""time"":0},{""event"":""fullscreenenter"",""trial"":1,""time"":1438},{""event"":""blur"",""trial"":256,""time"":1135442},{""event"":""focus"",""trial"":256,""time"":1135624}]",NA,NA,NA,NA,NA,2,#D8271C,#741CD8,0,10,0,38,1,1964,39,0,343.1999999284744,10,1,experiment,NA,NA,0,0.1,0.9,1,0,220,5,NA
fcp-trial,270,1202090,0.0-231.0-0.0,voc_e2,11884,"[{""event"":""focus"",""trial"":0,""time"":0},{""event"":""focus"",""trial"":0,""time"":0},{""event"":""fullscreenenter"",""trial"":1,""time"":1438},{""event"":""blur"",""trial"":256,""time"":1135442},{""event"":""focus"",""trial"":256,""time"":1135624}]",NA,NA,NA,NA,NA,5,#D89F1C,#3386FF,0,0,1,null,null,null,null,null,null,NA,0,experiment,NA,NA,1,0.7,0.3,2,3,221,5,NA
fcp-trial,271,1205263,0.0-232.0-0.0,voc_e2,11884,"[{""event"":""focus"",""trial"":0,""time"":0},{""event"":""focus"",""trial"":0,""time"":0},{""event"":""fullscreenenter"",""trial"":1,""time"":1438},{""event"":""blur"",""trial"":256,""time"":1135442},{""event"":""focus"",""trial"":256,""time"":1135624}]",NA,NA,NA,NA,NA,0,#1CD855,#FA92F8,10,10,0,38,1,1333.2000000476837,37,1,334,10,0,experiment,NA,NA,2,0.5,0.5,5,4,222,5,NA
fcp-trial,272,1208144,0.0-233.0-0.0,voc_e2,11884,"[{""event"":""focus"",""trial"":0,""time"":0},{""event"":""focus"",""trial"":0,""time"":0},{""event"":""fullscreenenter"",""trial"":1,""time"":1438},{""event"":""blur"",""trial"":256,""time"":1135442},{""event"":""focus"",""trial"":256,""time"":1135624}]",NA,NA,NA,NA,NA,3,#741CD8,#D8271C,10,0,1,40,0,929.8000000715256,37,1,446.10000002384186,10,1,experiment,NA,NA,0,0.9,0.1,0,1,223,5,NA
fcp-trial,273,1210953,0.0-234.0-0.0,voc_e2,11884,"[{""event"":""focus"",""trial"":0,""time"":0},{""event"":""focus"",""trial"":0,""time"":0},{""event"":""fullscreenenter"",""trial"":1,""time"":1438},{""event"":""blur"",""trial"":256,""time"":1135442},{""event"":""focus"",""trial"":256,""time"":1135624}]",NA,NA,NA,NA,NA,4,#D89F1C,#3386FF,10,0,1,40,0,965.7999999523163,39,0,339.5,0,0,experiment,NA,NA,1,0.7,0.3,2,3,224,5,NA
fcp-trial,274,1213631,0.0-235.0-0.0,voc_e2,11884,"[{""event"":""focus"",""trial"":0,""time"":0},{""event"":""focus"",""trial"":0,""time"":0},{""event"":""fullscreenenter"",""trial"":1,""time"":1438},{""event"":""blur"",""trial"":256,""time"":1135442},{""event"":""focus"",""trial"":256,""time"":1135624}]",NA,NA,NA,NA,NA,0,#D8271C,#741CD8,0,10,0,38,1,759.7000000476837,37,1,414.39999997615814,0,0,experiment,NA,NA,0,0.1,0.9,1,0,225,5,NA
fcp-trial,275,1216541,0.0-236.0-0.0,voc_e2,11884,"[{""event"":""focus"",""trial"":0,""time"":0},{""event"":""focus"",""trial"":0,""time"":0},{""event"":""fullscreenenter"",""trial"":1,""time"":1438},{""event"":""blur"",""trial"":256,""time"":1135442},{""event"":""focus"",""trial"":256,""time"":1135624}]",NA,NA,NA,NA,NA,5,#FA92F8,#1CD855,10,10,1,40,0,1087.3000000715256,39,0,314.5,10,0,experiment,NA,NA,2,0.5,0.5,4,5,226,6,NA
fcp-trial,276,1219524,0.0-237.0-0.0,voc_e2,11884,"[{""event"":""focus"",""trial"":0,""time"":0},{""event"":""focus"",""trial"":0,""time"":0},{""event"":""fullscreenenter"",""trial"":1,""time"":1438},{""event"":""blur"",""trial"":256,""time"":1135442},{""event"":""focus"",""trial"":256,""time"":1135624}]",NA,NA,NA,NA,NA,1,#D8271C,#741CD8,0,10,0,38,1,980.2000000476837,39,0,498.5,10,1,experiment,NA,NA,0,0.1,0.9,1,0,227,6,NA
fcp-trial,277,1222673,0.0-238.0-0.0,voc_e2,11884,"[{""event"":""focus"",""trial"":0,""time"":0},{""event"":""focus"",""trial"":0,""time"":0},{""event"":""fullscreenenter"",""trial"":1,""time"":1438},{""event"":""blur"",""trial"":256,""time"":1135442},{""event"":""focus"",""trial"":256,""time"":1135624}]",NA,NA,NA,NA,NA,3,#3386FF,#D89F1C,10,10,0,40,0,1332.6000000238419,37,1,311.5,10,0,experiment,NA,NA,1,0.3,0.7,3,2,228,6,NA
fcp-trial,278,1225860,0.0-239.0-0.0,voc_e2,11884,"[{""event"":""focus"",""trial"":0,""time"":0},{""event"":""focus"",""trial"":0,""time"":0},{""event"":""fullscreenenter"",""trial"":1,""time"":1438},{""event"":""blur"",""trial"":256,""time"":1135442},{""event"":""focus"",""trial"":256,""time"":1135624}]",NA,NA,NA,NA,NA,6,#D8271C,#741CD8,0,10,0,40,0,1104.1000000238419,37,1,578.7999999523163,0,0,experiment,NA,NA,0,0.1,0.9,1,0,229,6,NA
fcp-trial,279,1228516,0.0-240.0-0.0,voc_e2,11884,"[{""event"":""focus"",""trial"":0,""time"":0},{""event"":""focus"",""trial"":0,""time"":0},{""event"":""fullscreenenter"",""trial"":1,""time"":1438},{""event"":""blur"",""trial"":256,""time"":1135442},{""event"":""focus"",""trial"":256,""time"":1135624}]",NA,NA,NA,NA,NA,6,#3386FF,#D89F1C,0,10,0,40,0,787.2999999523163,37,1,363.60000002384186,0,0,experiment,NA,NA,1,0.3,0.7,3,2,230,6,NA
fcp-trial,280,1231416,0.0-241.0-0.0,voc_e2,11884,"[{""event"":""focus"",""trial"":0,""time"":0},{""event"":""focus"",""trial"":0,""time"":0},{""event"":""fullscreenenter"",""trial"":1,""time"":1438},{""event"":""blur"",""trial"":256,""time"":1135442},{""event"":""focus"",""trial"":256,""time"":1135624}]",NA,NA,NA,NA,NA,3,#1CD855,#FA92F8,0,10,0,38,1,914.1999999284744,37,1,480.5,0,0,experiment,NA,NA,2,0.5,0.5,5,4,231,6,NA
fcp-trial,281,1234665,0.0-242.0-0.0,voc_e2,11884,"[{""event"":""focus"",""trial"":0,""time"":0},{""event"":""focus"",""trial"":0,""time"":0},{""event"":""fullscreenenter"",""trial"":1,""time"":1438},{""event"":""blur"",""trial"":256,""time"":1135442},{""event"":""focus"",""trial"":256,""time"":1135624}]",NA,NA,NA,NA,NA,6,#FA92F8,#1CD855,0,0,1,40,0,1313.6000000238419,37,1,427.7000000476837,0,1,experiment,NA,NA,2,0.5,0.5,4,5,232,6,NA
fcp-trial,282,1239343,0.0-243.0-0.0,voc_e2,11884,"[{""event"":""focus"",""trial"":0,""time"":0},{""event"":""focus"",""trial"":0,""time"":0},{""event"":""fullscreenenter"",""trial"":1,""time"":1438},{""event"":""blur"",""trial"":256,""time"":1135442},{""event"":""focus"",""trial"":256,""time"":1135624}]",NA,NA,NA,NA,NA,2,#1CD855,#FA92F8,10,10,0,38,1,2714,39,0,458.2999999523163,10,1,experiment,NA,NA,2,0.5,0.5,5,4,233,6,NA
fcp-trial,283,1242477,0.0-244.0-0.0,voc_e2,11884,"[{""event"":""focus"",""trial"":0,""time"":0},{""event"":""focus"",""trial"":0,""time"":0},{""event"":""fullscreenenter"",""trial"":1,""time"":1438},{""event"":""blur"",""trial"":256,""time"":1135442},{""event"":""focus"",""trial"":256,""time"":1135624}]",NA,NA,NA,NA,NA,1,#1CD855,#FA92F8,10,0,0,38,1,1271.8999999761581,39,0,356.39999997615814,0,1,experiment,NA,NA,2,0.5,0.5,5,4,234,6,NA
fcp-trial,284,1245632,0.0-245.0-0.0,voc_e2,11884,"[{""event"":""focus"",""trial"":0,""time"":0},{""event"":""focus"",""trial"":0,""time"":0},{""event"":""fullscreenenter"",""trial"":1,""time"":1438},{""event"":""blur"",""trial"":256,""time"":1135442},{""event"":""focus"",""trial"":256,""time"":1135624}]",NA,NA,NA,NA,NA,2,#3386FF,#D89F1C,0,10,0,38,1,1075.8000000715256,37,1,572.8999999761581,0,0,experiment,NA,NA,1,0.3,0.7,3,2,235,6,NA
fcp-trial,285,1248437,0.0-246.0-0.0,voc_e2,11884,"[{""event"":""focus"",""trial"":0,""time"":0},{""event"":""focus"",""trial"":0,""time"":0},{""event"":""fullscreenenter"",""trial"":1,""time"":1438},{""event"":""blur"",""trial"":256,""time"":1135442},{""event"":""focus"",""trial"":256,""time"":1135624}]",NA,NA,NA,NA,NA,5,#741CD8,#D8271C,10,10,1,40,0,921,39,0,379,10,0,experiment,NA,NA,0,0.9,0.1,0,1,236,6,NA
fcp-trial,286,1251217,0.0-247.0-0.0,voc_e2,11884,"[{""event"":""focus"",""trial"":0,""time"":0},{""event"":""focus"",""trial"":0,""time"":0},{""event"":""fullscreenenter"",""trial"":1,""time"":1438},{""event"":""blur"",""trial"":256,""time"":1135442},{""event"":""focus"",""trial"":256,""time"":1135624}]",NA,NA,NA,NA,NA,0,#741CD8,#D8271C,10,0,1,38,1,939.5,39,0,336,0,0,experiment,NA,NA,0,0.9,0.1,0,1,237,6,NA
fcp-trial,287,1254341,0.0-248.0-0.0,voc_e2,11884,"[{""event"":""focus"",""trial"":0,""time"":0},{""event"":""focus"",""trial"":0,""time"":0},{""event"":""fullscreenenter"",""trial"":1,""time"":1438},{""event"":""blur"",""trial"":256,""time"":1135442},{""event"":""focus"",""trial"":256,""time"":1135624}]",NA,NA,NA,NA,NA,4,#D89F1C,#3386FF,10,0,1,40,0,1002.5999999046326,39,0,615.1000000238419,0,0,experiment,NA,NA,1,0.7,0.3,2,3,238,6,NA
fcp-trial,288,1257492,0.0-249.0-0.0,voc_e2,11884,"[{""event"":""focus"",""trial"":0,""time"":0},{""event"":""focus"",""trial"":0,""time"":0},{""event"":""fullscreenenter"",""trial"":1,""time"":1438},{""event"":""blur"",""trial"":256,""time"":1135442},{""event"":""focus"",""trial"":256,""time"":1135624}]",NA,NA,NA,NA,NA,4,#FA92F8,#1CD855,0,10,1,40,0,1082.9000000953674,37,1,562.9000000953674,0,1,experiment,NA,NA,2,0.5,0.5,4,5,239,6,NA
fcp-trial,289,1260227,0.0-250.0-0.0,voc_e2,11884,"[{""event"":""focus"",""trial"":0,""time"":0},{""event"":""focus"",""trial"":0,""time"":0},{""event"":""fullscreenenter"",""trial"":1,""time"":1438},{""event"":""blur"",""trial"":256,""time"":1135442},{""event"":""focus"",""trial"":256,""time"":1135624}]",NA,NA,NA,NA,NA,3,#3386FF,#D89F1C,10,10,0,38,1,889.5,39,0,332.2999999523163,10,1,experiment,NA,NA,1,0.3,0.7,3,2,240,6,NA
fcp-trial,290,1262819,0.0-251.0-0.0,voc_e2,11884,"[{""event"":""focus"",""trial"":0,""time"":0},{""event"":""focus"",""trial"":0,""time"":0},{""event"":""fullscreenenter"",""trial"":1,""time"":1438},{""event"":""blur"",""trial"":256,""time"":1135442},{""event"":""focus"",""trial"":256,""time"":1135624}]",NA,NA,NA,NA,NA,6,#D8271C,#741CD8,0,10,0,40,0,718.0999999046326,39,0,369.10000002384186,10,1,experiment,NA,NA,0,0.1,0.9,1,0,241,6,NA
fcp-trial,291,1265820,0.0-252.0-0.0,voc_e2,11884,"[{""event"":""focus"",""trial"":0,""time"":0},{""event"":""focus"",""trial"":0,""time"":0},{""event"":""fullscreenenter"",""trial"":1,""time"":1438},{""event"":""blur"",""trial"":256,""time"":1135442},{""event"":""focus"",""trial"":256,""time"":1135624}]",NA,NA,NA,NA,NA,2,#741CD8,#D8271C,10,0,1,38,1,1228.8999999761581,37,1,268.89999997615814,10,1,experiment,NA,NA,0,0.9,0.1,0,1,242,6,NA
fcp-trial,292,1268889,0.0-253.0-0.0,voc_e2,11884,"[{""event"":""focus"",""trial"":0,""time"":0},{""event"":""focus"",""trial"":0,""time"":0},{""event"":""fullscreenenter"",""trial"":1,""time"":1438},{""event"":""blur"",""trial"":256,""time"":1135442},{""event"":""focus"",""trial"":256,""time"":1135624}]",NA,NA,NA,NA,NA,0,#FA92F8,#1CD855,10,10,1,38,1,1211,39,0,354.2999999523163,10,0,experiment,NA,NA,2,0.5,0.5,4,5,243,6,NA
