trial_type,trial_index,time_elapsed,internal_node_id,task_version,subject_id,interactions,success,rt,stimulus,key_press,button_pressed,offer,arcade_color_L,arcade_color_R,arcade_outcome_L,arcade_outcome_R,correct,stage_1_key,stage_1_choice,stage_1_rt,stage_2_key,stage_2_choice,stage_2_rt,stage_3_outcome,accuracy,phase,responses,num_errors,context,reward_prob_L,reward_prob_R,arcade_id_L,arcade_id_R,trial,block,response
pavlovia,0,5,0.0-0.0,voc_e2,11973,[],NA,NA,NA,NA,NA,NA,NA,NA,NA,NA,NA,NA,NA,NA,NA,NA,NA,NA,NA,NA,NA,NA,NA,NA,NA,NA,NA,NA,NA,NA
fullscreen,1,7527,0.0-1.0,voc_e2,11973,"[{""event"":""fullscreenenter"",""trial"":1,""time"":6540}]",TRUE,NA,NA,NA,NA,NA,NA,NA,NA,NA,NA,NA,NA,NA,NA,NA,NA,NA,NA,NA,NA,NA,NA,NA,NA,NA,NA,NA,NA,NA
audio-keyboard-response,2,12141,0.0-2.0,voc_e2,11973,"[{""event"":""fullscreenenter"",""trial"":1,""time"":6540}]",NA,4251,static/audio/beep_loop.wav,32,NA,NA,NA,NA,NA,NA,NA,NA,NA,NA,NA,NA,NA,NA,NA,NA,NA,NA,NA,NA,NA,NA,NA,NA,NA,NA
audio-test,3,14390,0.0-3.0,voc_e2,11973,"[{""event"":""fullscreenenter"",""trial"":1,""time"":6540}]",NA,NA,static/audio/turtle.wav,NA,3,NA,NA,NA,NA,NA,NA,NA,NA,NA,NA,NA,NA,NA,NA,NA,NA,NA,NA,NA,NA,NA,NA,NA,NA,NA
audio-test,4,16853,0.0-4.0,voc_e2,11973,"[{""event"":""fullscreenenter"",""trial"":1,""time"":6540}]",NA,NA,static/audio/shark.wav,NA,2,NA,NA,NA,NA,NA,NA,NA,NA,NA,NA,NA,NA,NA,NA,NA,NA,NA,NA,NA,NA,NA,NA,NA,NA,NA
audio-instructions,5,23690,0.0-5.0-0.0,voc_e2,11973,"[{""event"":""fullscreenenter"",""trial"":1,""time"":6540}]",NA,1047.8999998569489,static/audio/instructions1.wav,NA,0,NA,NA,NA,NA,NA,NA,NA,NA,NA,NA,NA,NA,NA,NA,NA,NA,NA,NA,NA,NA,NA,NA,NA,NA,NA
audio-instructions,6,32415,0.0-5.0-1.0,voc_e2,11973,"[{""event"":""fullscreenenter"",""trial"":1,""time"":6540}]",NA,1983.8999998569489,static/audio/instructions2.wav,NA,0,NA,NA,NA,NA,NA,NA,NA,NA,NA,NA,NA,NA,NA,NA,NA,NA,NA,NA,NA,NA,NA,NA,NA,NA,NA
audio-instructions,7,39791,0.0-5.0-2.0,voc_e2,11973,"[{""event"":""fullscreenenter"",""trial"":1,""time"":6540}]",NA,1570,static/audio/instructions3.wav,NA,0,NA,NA,NA,NA,NA,NA,NA,NA,NA,NA,NA,NA,NA,NA,NA,NA,NA,NA,NA,NA,NA,NA,NA,NA,NA
audio-instructions,8,64183,0.0-5.0-3.0,voc_e2,11973,"[{""event"":""fullscreenenter"",""trial"":1,""time"":6540}]",NA,11162.299999952316,static/audio/instructions4.wav,NA,0,NA,NA,NA,NA,NA,NA,NA,NA,NA,NA,NA,NA,NA,NA,NA,NA,NA,NA,NA,NA,NA,NA,NA,NA,NA
audio-instructions,9,74724,0.0-5.0-4.0,voc_e2,11973,"[{""event"":""fullscreenenter"",""trial"":1,""time"":6540}]",NA,1154.0999999046326,static/audio/instructions5.wav,NA,0,NA,NA,NA,NA,NA,NA,NA,NA,NA,NA,NA,NA,NA,NA,NA,NA,NA,NA,NA,NA,NA,NA,NA,NA,NA
fcp-practice,10,78195,0.0-5.0-5.0-0.0,voc_e2,11973,"[{""event"":""fullscreenenter"",""trial"":1,""time"":6540}]",NA,NA,NA,NA,NA,NA,#EDC948,#46d3c8,10,0,1,null,null,null,37,1,1954.5999999046328,10,1,practice,NA,NA,NA,NA,NA,NA,NA,NA,NA,NA
fcp-practice,11,80174,0.0-5.0-5.0-1.0,voc_e2,11973,"[{""event"":""fullscreenenter"",""trial"":1,""time"":6540}]",NA,NA,NA,NA,NA,NA,#EDC948,#46d3c8,10,0,1,null,null,null,37,1,475.69999980926514,10,1,practice,NA,NA,NA,NA,NA,NA,NA,NA,NA,NA
fcp-practice,12,82024,0.0-5.0-5.0-2.0,voc_e2,11973,"[{""event"":""fullscreenenter"",""trial"":1,""time"":6540}]",NA,NA,NA,NA,NA,NA,#EDC948,#46d3c8,0,10,1,null,null,null,37,1,330.2999999523163,0,1,practice,NA,NA,NA,NA,NA,NA,NA,NA,NA,NA
fcp-practice,13,83805,0.0-5.0-5.0-3.0,voc_e2,11973,"[{""event"":""fullscreenenter"",""trial"":1,""time"":6540}]",NA,NA,NA,NA,NA,NA,#EDC948,#46d3c8,10,0,1,null,null,null,37,1,266.7000000476837,10,1,practice,NA,NA,NA,NA,NA,NA,NA,NA,NA,NA
fcp-practice,14,85587,0.0-5.0-5.0-4.0,voc_e2,11973,"[{""event"":""fullscreenenter"",""trial"":1,""time"":6540}]",NA,NA,NA,NA,NA,NA,#EDC948,#46d3c8,10,0,1,null,null,null,37,1,274.90000009536743,10,1,practice,NA,NA,NA,NA,NA,NA,NA,NA,NA,NA
audio-instructions,15,104963,0.0-5.0-6.0,voc_e2,11973,"[{""event"":""fullscreenenter"",""trial"":1,""time"":6540}]",NA,1373.2000000476835,static/audio/instructions6.wav,NA,0,NA,NA,NA,NA,NA,NA,NA,NA,NA,NA,NA,NA,NA,NA,NA,NA,NA,NA,NA,NA,NA,NA,NA,NA,NA
audio-instructions,16,125391,0.0-5.0-7.0,voc_e2,11973,"[{""event"":""fullscreenenter"",""trial"":1,""time"":6540}]",NA,1230.5,static/audio/instructions7.wav,NA,0,NA,NA,NA,NA,NA,NA,NA,NA,NA,NA,NA,NA,NA,NA,NA,NA,NA,NA,NA,NA,NA,NA,NA,NA,NA
audio-instructions,17,135680,0.0-5.0-8.0,voc_e2,11973,"[{""event"":""fullscreenenter"",""trial"":1,""time"":6540}]",NA,809.5,static/audio/instructions8.wav,NA,0,NA,NA,NA,NA,NA,NA,NA,NA,NA,NA,NA,NA,NA,NA,NA,NA,NA,NA,NA,NA,NA,NA,NA,NA,NA
fcp-comprehension,18,148870,0.0-5.0-9.0,voc_e2,11973,"[{""event"":""fullscreenenter"",""trial"":1,""time"":6540}]",NA,13188.799999952316,NA,NA,NA,NA,NA,NA,NA,NA,NA,NA,NA,NA,NA,NA,NA,NA,NA,NA,"true,true",0,NA,NA,NA,NA,NA,NA,NA,NA
audio-instructions,19,156427,0.0-6.0-0.0,voc_e2,11973,"[{""event"":""fullscreenenter"",""trial"":1,""time"":6540}]",NA,2005.8999998569489,static/audio/instructions9.wav,NA,0,NA,NA,NA,NA,NA,NA,NA,NA,NA,NA,NA,NA,NA,NA,NA,NA,NA,NA,NA,NA,NA,NA,NA,NA,NA
audio-instructions,20,170346,0.0-6.0-1.0,voc_e2,11973,"[{""event"":""fullscreenenter"",""trial"":1,""time"":6540}]",NA,1795.3999998569489,static/audio/instructions10.wav,NA,0,NA,NA,NA,NA,NA,NA,NA,NA,NA,NA,NA,NA,NA,NA,NA,NA,NA,NA,NA,NA,NA,NA,NA,NA,NA
fcp-trial,21,182807,0.0-6.0-2.0,voc_e2,11973,"[{""event"":""fullscreenenter"",""trial"":1,""time"":6540}]",NA,NA,NA,NA,NA,0,#EDC948,#46d3c8,10,10,1,38,1,8469.299999952316,37,1,2457,10,1,practice,NA,NA,NA,NA,NA,NA,NA,NA,NA,NA
audio-instructions,22,196087,0.0-6.0-3.0,voc_e2,11973,"[{""event"":""fullscreenenter"",""trial"":1,""time"":6540}]",NA,2275.399999856949,static/audio/instructions11.wav,NA,0,NA,NA,NA,NA,NA,NA,NA,NA,NA,NA,NA,NA,NA,NA,NA,NA,NA,NA,NA,NA,NA,NA,NA,NA,NA
fcp-trial,23,199510,0.0-6.0-4.0,voc_e2,11973,"[{""event"":""fullscreenenter"",""trial"":1,""time"":6540}]",NA,NA,NA,NA,NA,6,#EDC948,#46d3c8,10,10,1,40,0,1185.4000000953674,39,0,729.7000000476837,10,0,practice,NA,NA,NA,NA,NA,NA,NA,NA,NA,NA
audio-instructions,24,219550,0.0-6.0-5.0,voc_e2,11973,"[{""event"":""fullscreenenter"",""trial"":1,""time"":6540}]",NA,1348.1000001430511,static/audio/instructions12.wav,NA,0,NA,NA,NA,NA,NA,NA,NA,NA,NA,NA,NA,NA,NA,NA,NA,NA,NA,NA,NA,NA,NA,NA,NA,NA,NA
audio-instructions,25,228342,0.0-6.0-6.0,voc_e2,11973,"[{""event"":""fullscreenenter"",""trial"":1,""time"":6540}]",NA,1191,static/audio/instructions13.wav,NA,0,NA,NA,NA,NA,NA,NA,NA,NA,NA,NA,NA,NA,NA,NA,NA,NA,NA,NA,NA,NA,NA,NA,NA,NA,NA
audio-instructions,26,237765,0.0-6.0-7.0,voc_e2,11973,"[{""event"":""fullscreenenter"",""trial"":1,""time"":6540}]",NA,974.6999998092653,static/audio/instructions14.wav,NA,0,NA,NA,NA,NA,NA,NA,NA,NA,NA,NA,NA,NA,NA,NA,NA,NA,NA,NA,NA,NA,NA,NA,NA,NA,NA
audio-instructions,27,249353,0.0-7.0-0.0,voc_e2,11973,"[{""event"":""fullscreenenter"",""trial"":1,""time"":6540}]",NA,4680.5,static/audio/instructions15.wav,NA,0,NA,NA,NA,NA,NA,NA,NA,NA,NA,NA,NA,NA,NA,NA,NA,NA,NA,NA,NA,NA,NA,NA,NA,NA,NA
audio-instructions,28,256678,0.0-7.0-1.0,voc_e2,11973,"[{""event"":""fullscreenenter"",""trial"":1,""time"":6540}]",NA,497.09999990463257,static/audio/instructions16.wav,NA,0,NA,NA,NA,NA,NA,NA,NA,NA,NA,NA,NA,NA,NA,NA,NA,NA,NA,NA,NA,NA,NA,NA,NA,NA,NA
audio-instructions,29,265191,0.0-7.0-2.0,voc_e2,11973,"[{""event"":""fullscreenenter"",""trial"":1,""time"":6540}]",NA,829.4000000953674,static/audio/instructions17.wav,NA,0,NA,NA,NA,NA,NA,NA,NA,NA,NA,NA,NA,NA,NA,NA,NA,NA,NA,NA,NA,NA,NA,NA,NA,NA,NA
audio-instructions,30,273616,0.0-7.0-3.0,voc_e2,11973,"[{""event"":""fullscreenenter"",""trial"":1,""time"":6540}]",NA,653.7999999523163,static/audio/instructions18.wav,NA,0,NA,NA,NA,NA,NA,NA,NA,NA,NA,NA,NA,NA,NA,NA,NA,NA,NA,NA,NA,NA,NA,NA,NA,NA,NA
audio-instructions,31,281087,0.0-7.0-4.0,voc_e2,11973,"[{""event"":""fullscreenenter"",""trial"":1,""time"":6540}]",NA,735.5999999046326,static/audio/instructions19.wav,NA,0,NA,NA,NA,NA,NA,NA,NA,NA,NA,NA,NA,NA,NA,NA,NA,NA,NA,NA,NA,NA,NA,NA,NA,NA,NA
fcp-comprehension,32,292980,0.0-7.0-5.0,voc_e2,11973,"[{""event"":""fullscreenenter"",""trial"":1,""time"":6540}]",NA,11890.400000095367,NA,NA,NA,NA,NA,NA,NA,NA,NA,NA,NA,NA,NA,NA,NA,NA,NA,NA,"false,false,false,true",0,NA,NA,NA,NA,NA,NA,NA,NA
audio-instructions,33,304464,0.0-8.0,voc_e2,11973,"[{""event"":""fullscreenenter"",""trial"":1,""time"":6540}]",NA,2261.7999999523163,static/audio/ready.wav,NA,0,NA,NA,NA,NA,NA,NA,NA,NA,NA,NA,NA,NA,NA,NA,NA,NA,NA,NA,NA,NA,NA,NA,NA,NA,NA
fcp-trial,34,310785,0.0-9.0-0.0,voc_e2,11973,"[{""event"":""fullscreenenter"",""trial"":1,""time"":6540}]",NA,NA,NA,NA,NA,1,#3386FF,#D89F1C,10,0,1,38,1,4186.700000047684,39,0,616.4000000953674,0,0,experiment,NA,NA,1,0.7,0.3,2,3,1,1,NA
fcp-trial,35,314895,0.0-10.0-0.0,voc_e2,11973,"[{""event"":""fullscreenenter"",""trial"":1,""time"":6540}]",NA,NA,NA,NA,NA,4,#D89F1C,#3386FF,0,0,0,38,1,1470.0999999046326,39,0,1118.2000000476835,0,1,experiment,NA,NA,1,0.3,0.7,3,2,2,1,NA
fcp-trial,36,318108,0.0-11.0-0.0,voc_e2,11973,"[{""event"":""fullscreenenter"",""trial"":1,""time"":6540}]",NA,NA,NA,NA,NA,2,#D8271C,#741CD8,10,0,1,38,1,818,37,1,872.2999999523163,10,1,experiment,NA,NA,0,0.9,0.1,0,1,3,1,NA
fcp-trial,37,325968,0.0-12.0-0.0,voc_e2,11973,"[{""event"":""fullscreenenter"",""trial"":1,""time"":6540}]",NA,NA,NA,NA,NA,0,#1CD855,#FA92F8,10,10,0,38,1,5444.899999856949,39,0,908.0999999046326,10,1,experiment,NA,NA,2,0.5,0.5,5,4,4,1,NA
fcp-trial,38,330513,0.0-13.0-0.0,voc_e2,11973,"[{""event"":""fullscreenenter"",""trial"":1,""time"":6540}]",NA,NA,NA,NA,NA,5,#741CD8,#D8271C,0,10,0,38,1,2511.7000000476837,39,0,518.3999998569489,10,1,experiment,NA,NA,0,0.1,0.9,1,0,5,1,NA
fcp-trial,39,335358,0.0-14.0-0.0,voc_e2,11973,"[{""event"":""fullscreenenter"",""trial"":1,""time"":6540}]",NA,NA,NA,NA,NA,0,#3386FF,#D89F1C,10,0,1,38,1,2034.2999999523163,39,0,1305.2999999523165,0,0,experiment,NA,NA,1,0.7,0.3,2,3,6,1,NA
fcp-trial,40,338674,0.0-15.0-0.0,voc_e2,11973,"[{""event"":""fullscreenenter"",""trial"":1,""time"":6540}]",NA,NA,NA,NA,NA,6,#741CD8,#D8271C,0,10,0,38,1,1056.4000000953674,37,1,749.9000000953674,0,0,experiment,NA,NA,0,0.1,0.9,1,0,7,1,NA
fcp-trial,41,341921,0.0-16.0-0.0,voc_e2,11973,"[{""event"":""fullscreenenter"",""trial"":1,""time"":6540}]",NA,NA,NA,NA,NA,6,#FA92F8,#1CD855,0,0,1,40,0,862.7999999523163,39,0,875.2000000476837,0,0,experiment,NA,NA,2,0.5,0.5,4,5,8,1,NA
fcp-trial,42,345320,0.0-17.0-0.0,voc_e2,11973,"[{""event"":""fullscreenenter"",""trial"":1,""time"":6540}]",NA,NA,NA,NA,NA,0,#741CD8,#D8271C,0,10,0,38,1,1413.5,39,0,479.59999990463257,10,1,experiment,NA,NA,0,0.1,0.9,1,0,9,1,NA
fcp-trial,43,349729,0.0-18.0-0.0,voc_e2,11973,"[{""event"":""fullscreenenter"",""trial"":1,""time"":6540}]",NA,NA,NA,NA,NA,6,#D89F1C,#3386FF,10,10,0,40,0,2314.5,39,0,576.9000000953674,10,1,experiment,NA,NA,1,0.3,0.7,3,2,10,1,NA
fcp-trial,44,357605,0.0-19.0-0.0,voc_e2,11973,"[{""event"":""fullscreenenter"",""trial"":1,""time"":6540}]",NA,NA,NA,NA,NA,2,#FA92F8,#1CD855,0,0,1,40,0,5953.600000143051,39,0,414.7999999523163,0,0,experiment,NA,NA,2,0.5,0.5,4,5,11,1,NA
fcp-trial,45,362114,0.0-20.0-0.0,voc_e2,11973,"[{""event"":""fullscreenenter"",""trial"":1,""time"":6540}]",NA,NA,NA,NA,NA,3,#1CD855,#FA92F8,0,0,0,38,1,2493.4000000953674,39,0,508.60000014305115,0,1,experiment,NA,NA,2,0.5,0.5,5,4,12,1,NA
fcp-trial,46,366682,0.0-21.0-0.0,voc_e2,11973,"[{""event"":""fullscreenenter"",""trial"":1,""time"":6540}]",NA,NA,NA,NA,NA,4,#D8271C,#741CD8,10,0,1,38,1,2391.5,37,1,668.7000000476837,10,1,experiment,NA,NA,0,0.9,0.1,0,1,13,1,NA
fcp-trial,47,370118,0.0-22.0-0.0,voc_e2,11973,"[{""event"":""fullscreenenter"",""trial"":1,""time"":6540}]",NA,NA,NA,NA,NA,1,#D8271C,#741CD8,10,0,1,38,1,1262.5,37,1,664.5999999046326,10,1,experiment,NA,NA,0,0.9,0.1,0,1,14,1,NA
fcp-trial,48,373400,0.0-23.0-0.0,voc_e2,11973,"[{""event"":""fullscreenenter"",""trial"":1,""time"":6540}]",NA,NA,NA,NA,NA,3,#3386FF,#D89F1C,10,0,1,38,1,603,37,1,1172,10,1,experiment,NA,NA,1,0.7,0.3,2,3,15,1,NA
fcp-trial,49,376275,0.0-24.0-0.0,voc_e2,11973,"[{""event"":""fullscreenenter"",""trial"":1,""time"":6540}]",NA,NA,NA,NA,NA,5,#D89F1C,#3386FF,0,10,0,38,1,762.2000000476837,39,0,605.5999999046326,10,1,experiment,NA,NA,1,0.3,0.7,3,2,16,1,NA
fcp-trial,50,379240,0.0-25.0-0.0,voc_e2,11973,"[{""event"":""fullscreenenter"",""trial"":1,""time"":6540}]",NA,NA,NA,NA,NA,5,#FA92F8,#1CD855,0,0,1,38,1,727.2000000476837,39,0,733.5,0,0,experiment,NA,NA,2,0.5,0.5,4,5,17,1,NA
fcp-trial,51,382003,0.0-26.0-0.0,voc_e2,11973,"[{""event"":""fullscreenenter"",""trial"":1,""time"":6540}]",NA,NA,NA,NA,NA,3,#D8271C,#741CD8,0,0,1,38,1,634.6000001430511,37,1,623.2000000476837,0,1,experiment,NA,NA,0,0.9,0.1,0,1,18,1,NA
fcp-trial,52,384378,0.0-27.0-0.0,voc_e2,11973,"[{""event"":""fullscreenenter"",""trial"":1,""time"":6540}]",NA,NA,NA,NA,NA,1,#1CD855,#FA92F8,10,10,0,38,1,320.59999990463257,37,1,544.8000001907349,10,0,experiment,NA,NA,2,0.5,0.5,5,4,19,1,NA
fcp-trial,53,387214,0.0-28.0-0.0,voc_e2,11973,"[{""event"":""fullscreenenter"",""trial"":1,""time"":6540}]",NA,NA,NA,NA,NA,2,#D89F1C,#3386FF,0,0,0,38,1,934.2999999523163,39,0,395,0,1,experiment,NA,NA,1,0.3,0.7,3,2,20,1,NA
fcp-trial,54,390688,0.0-29.0-0.0,voc_e2,11973,"[{""event"":""fullscreenenter"",""trial"":1,""time"":6540}]",NA,NA,NA,NA,NA,4,#FA92F8,#1CD855,0,10,1,40,0,1398.7999999523163,39,0,568.6999998092651,10,0,experiment,NA,NA,2,0.5,0.5,4,5,21,1,NA
fcp-trial,55,393787,0.0-30.0-0.0,voc_e2,11973,"[{""event"":""fullscreenenter"",""trial"":1,""time"":6540}]",NA,NA,NA,NA,NA,3,#1CD855,#FA92F8,0,10,0,38,1,737,37,1,853.5,0,0,experiment,NA,NA,2,0.5,0.5,5,4,22,1,NA
fcp-trial,56,396448,0.0-31.0-0.0,voc_e2,11973,"[{""event"":""fullscreenenter"",""trial"":1,""time"":6540}]",NA,NA,NA,NA,NA,0,#D8271C,#741CD8,10,0,1,38,1,634.0999999046326,37,1,521.2999999523163,10,1,experiment,NA,NA,0,0.9,0.1,0,1,23,1,NA
fcp-trial,57,400962,0.0-32.0-0.0,voc_e2,11973,"[{""event"":""fullscreenenter"",""trial"":1,""time"":6540}]",NA,NA,NA,NA,NA,2,#1CD855,#FA92F8,0,0,0,40,0,2422.199999809265,37,1,582.9000000953674,0,0,experiment,NA,NA,2,0.5,0.5,5,4,24,1,NA
fcp-trial,58,404098,0.0-33.0-0.0,voc_e2,11973,"[{""event"":""fullscreenenter"",""trial"":1,""time"":6540}]",NA,NA,NA,NA,NA,3,#3386FF,#D89F1C,10,0,1,40,0,1021.8999998569489,37,1,608.3999998569489,10,1,experiment,NA,NA,1,0.7,0.3,2,3,25,1,NA
fcp-trial,59,408351,0.0-34.0-0.0,voc_e2,11973,"[{""event"":""fullscreenenter"",""trial"":1,""time"":6540}]",NA,NA,NA,NA,NA,1,#1CD855,#FA92F8,10,0,0,38,1,1627.0999999046326,37,1,1120,10,0,experiment,NA,NA,2,0.5,0.5,5,4,26,1,NA
fcp-trial,60,410989,0.0-35.0-0.0,voc_e2,11973,"[{""event"":""fullscreenenter"",""trial"":1,""time"":6540}]",NA,NA,NA,NA,NA,1,#3386FF,#D89F1C,10,0,1,38,1,566.5,37,1,564.7999999523163,10,1,experiment,NA,NA,1,0.7,0.3,2,3,27,1,NA
fcp-trial,61,413580,0.0-36.0-0.0,voc_e2,11973,"[{""event"":""fullscreenenter"",""trial"":1,""time"":6540}]",NA,NA,NA,NA,NA,6,#741CD8,#D8271C,0,10,0,38,1,636.0999999046326,39,0,450,10,1,experiment,NA,NA,0,0.1,0.9,1,0,28,1,NA
fcp-trial,62,416187,0.0-37.0-0.0,voc_e2,11973,"[{""event"":""fullscreenenter"",""trial"":1,""time"":6540}]",NA,NA,NA,NA,NA,2,#3386FF,#D89F1C,0,10,1,38,1,598.2000000476837,37,1,497.90000009536743,0,1,experiment,NA,NA,1,0.7,0.3,2,3,29,1,NA
fcp-trial,63,418641,0.0-38.0-0.0,voc_e2,11973,"[{""event"":""fullscreenenter"",""trial"":1,""time"":6540}]",NA,NA,NA,NA,NA,1,#D8271C,#741CD8,0,0,1,38,1,442.09999990463257,37,1,506,0,1,experiment,NA,NA,0,0.9,0.1,0,1,30,1,NA
fcp-trial,64,421756,0.0-39.0-0.0,voc_e2,11973,"[{""event"":""fullscreenenter"",""trial"":1,""time"":6540}]",NA,NA,NA,NA,NA,5,#FA92F8,#1CD855,0,0,1,40,0,924.7000000476837,37,1,679.7999999523163,0,1,experiment,NA,NA,2,0.5,0.5,4,5,31,1,NA
fcp-trial,65,424310,0.0-40.0-0.0,voc_e2,11973,"[{""event"":""fullscreenenter"",""trial"":1,""time"":6540}]",NA,NA,NA,NA,NA,2,#741CD8,#D8271C,0,10,0,38,1,506.2999999523163,39,0,541,10,1,experiment,NA,NA,0,0.1,0.9,1,0,32,1,NA
fcp-trial,66,428192,0.0-41.0-0.0,voc_e2,11973,"[{""event"":""fullscreenenter"",""trial"":1,""time"":6540}]",NA,NA,NA,NA,NA,6,#FA92F8,#1CD855,0,0,1,38,1,1498,39,0,879.2000000476837,0,0,experiment,NA,NA,2,0.5,0.5,4,5,33,1,NA
fcp-trial,67,431267,0.0-42.0-0.0,voc_e2,11973,"[{""event"":""fullscreenenter"",""trial"":1,""time"":6540}]",NA,NA,NA,NA,NA,5,#D89F1C,#3386FF,10,0,0,38,1,1038.6999998092651,39,0,530.6999998092651,0,1,experiment,NA,NA,1,0.3,0.7,3,2,34,1,NA
fcp-trial,68,434300,0.0-43.0-0.0,voc_e2,11973,"[{""event"":""fullscreenenter"",""trial"":1,""time"":6540}]",NA,NA,NA,NA,NA,4,#D89F1C,#3386FF,10,10,0,38,1,894.2000000476837,39,0,632.1000001430511,10,1,experiment,NA,NA,1,0.3,0.7,3,2,35,1,NA
fcp-trial,69,437225,0.0-44.0-0.0,voc_e2,11973,"[{""event"":""fullscreenenter"",""trial"":1,""time"":6540}]",NA,NA,NA,NA,NA,3,#D8271C,#741CD8,10,0,1,38,1,626.3999998569489,37,1,792.0999999046326,10,1,experiment,NA,NA,0,0.9,0.1,0,1,36,1,NA
fcp-trial,70,440756,0.0-45.0-0.0,voc_e2,11973,"[{""event"":""fullscreenenter"",""trial"":1,""time"":6540}]",NA,NA,NA,NA,NA,0,#D89F1C,#3386FF,10,0,0,38,1,1542.9000000953674,39,0,478.59999990463257,0,1,experiment,NA,NA,1,0.3,0.7,3,2,37,1,NA
fcp-trial,71,443542,0.0-46.0-0.0,voc_e2,11973,"[{""event"":""fullscreenenter"",""trial"":1,""time"":6540}]",NA,NA,NA,NA,NA,4,#1CD855,#FA92F8,10,10,0,38,1,680,37,1,598.2999999523163,10,0,experiment,NA,NA,2,0.5,0.5,5,4,38,1,NA
fcp-trial,72,446369,0.0-47.0-0.0,voc_e2,11973,"[{""event"":""fullscreenenter"",""trial"":1,""time"":6540}]",NA,NA,NA,NA,NA,6,#3386FF,#D89F1C,10,10,1,38,1,695,37,1,626.7000000476837,10,1,experiment,NA,NA,1,0.7,0.3,2,3,39,1,NA
fcp-trial,73,449123,0.0-48.0-0.0,voc_e2,11973,"[{""event"":""fullscreenenter"",""trial"":1,""time"":6540}]",NA,NA,NA,NA,NA,4,#741CD8,#D8271C,0,10,0,38,1,548.1999998092651,39,0,698.7000000476837,10,1,experiment,NA,NA,0,0.1,0.9,1,0,40,1,NA
fcp-trial,74,451845,0.0-49.0-0.0,voc_e2,11973,"[{""event"":""fullscreenenter"",""trial"":1,""time"":6540}]",NA,NA,NA,NA,NA,5,#741CD8,#D8271C,0,10,0,38,1,464.40000009536743,39,0,750.6000001430511,10,1,experiment,NA,NA,0,0.1,0.9,1,0,41,1,NA
fcp-trial,75,456513,0.0-50.0-0.0,voc_e2,11973,"[{""event"":""fullscreenenter"",""trial"":1,""time"":6540}]",NA,NA,NA,NA,NA,0,#FA92F8,#1CD855,0,0,1,38,1,1477.7000000476837,39,0,1682.8000001907349,0,0,experiment,NA,NA,2,0.5,0.5,4,5,42,1,NA
fcp-trial,76,460154,0.0-51.0-0.0,voc_e2,11973,"[{""event"":""fullscreenenter"",""trial"":1,""time"":6540}]",NA,NA,NA,NA,NA,6,#1CD855,#FA92F8,10,0,0,40,0,1319.2999999523163,39,0,816.1000001430511,0,1,experiment,NA,NA,2,0.5,0.5,5,4,43,1,NA
fcp-trial,77,463640,0.0-52.0-0.0,voc_e2,11973,"[{""event"":""fullscreenenter"",""trial"":1,""time"":6540}]",NA,NA,NA,NA,NA,5,#D8271C,#741CD8,10,0,1,40,0,1153.5999999046326,39,0,826,0,0,experiment,NA,NA,0,0.9,0.1,0,1,44,1,NA
fcp-trial,78,468633,0.0-53.0-0.0,voc_e2,11973,"[{""event"":""fullscreenenter"",""trial"":1,""time"":6540}]",NA,NA,NA,NA,NA,2,#741CD8,#D8271C,0,10,0,38,1,3006.5999999046326,39,0,479.7999999523163,10,1,experiment,NA,NA,0,0.1,0.9,1,0,45,1,NA
fcp-trial,79,472082,0.0-54.0-0.0,voc_e2,11973,"[{""event"":""fullscreenenter"",""trial"":1,""time"":6540}]",NA,NA,NA,NA,NA,0,#3386FF,#D89F1C,10,10,1,38,1,1313.0999999046326,37,1,630.7999999523163,10,1,experiment,NA,NA,1,0.7,0.3,2,3,46,2,NA
fcp-trial,80,474832,0.0-55.0-0.0,voc_e2,11973,"[{""event"":""fullscreenenter"",""trial"":1,""time"":6540}]",NA,NA,NA,NA,NA,3,#741CD8,#D8271C,0,10,0,38,1,840.7999999523163,39,0,403.59999990463257,10,1,experiment,NA,NA,0,0.1,0.9,1,0,47,2,NA
fcp-trial,81,479243,0.0-56.0-0.0,voc_e2,11973,"[{""event"":""fullscreenenter"",""trial"":1,""time"":6540}]",NA,NA,NA,NA,NA,0,#FA92F8,#1CD855,10,10,1,40,0,1533,37,1,1372.7999999523165,10,1,experiment,NA,NA,2,0.5,0.5,4,5,48,2,NA
fcp-trial,82,482838,0.0-57.0-0.0,voc_e2,11973,"[{""event"":""fullscreenenter"",""trial"":1,""time"":6540}]",NA,NA,NA,NA,NA,5,#FA92F8,#1CD855,0,0,1,40,0,1420.7999999523163,37,1,667,0,1,experiment,NA,NA,2,0.5,0.5,4,5,49,2,NA
fcp-trial,83,488970,0.0-58.0-0.0,voc_e2,11973,"[{""event"":""fullscreenenter"",""trial"":1,""time"":6540}]",NA,NA,NA,NA,NA,6,#3386FF,#D89F1C,10,0,1,40,0,3991.100000143051,39,0,637.7000000476837,0,0,experiment,NA,NA,1,0.7,0.3,2,3,50,2,NA
fcp-trial,84,492407,0.0-59.0-0.0,voc_e2,11973,"[{""event"":""fullscreenenter"",""trial"":1,""time"":6540}]",NA,NA,NA,NA,NA,1,#3386FF,#D89F1C,10,10,1,38,1,1415.7000000476837,37,1,499.90000009536743,10,1,experiment,NA,NA,1,0.7,0.3,2,3,51,2,NA
fcp-trial,85,496165,0.0-60.0-0.0,voc_e2,11973,"[{""event"":""fullscreenenter"",""trial"":1,""time"":6540}]",NA,NA,NA,NA,NA,1,#741CD8,#D8271C,0,10,0,38,1,1680,39,0,570.9000000953674,10,1,experiment,NA,NA,0,0.1,0.9,1,0,52,2,NA
fcp-trial,86,499614,0.0-61.0-0.0,voc_e2,11973,"[{""event"":""fullscreenenter"",""trial"":1,""time"":6540}]",NA,NA,NA,NA,NA,1,#1CD855,#FA92F8,0,10,0,38,1,1305.7999999523163,37,1,635.2999999523163,0,0,experiment,NA,NA,2,0.5,0.5,5,4,53,2,NA
fcp-trial,87,502618,0.0-62.0-0.0,voc_e2,11973,"[{""event"":""fullscreenenter"",""trial"":1,""time"":6540}]",NA,NA,NA,NA,NA,3,#3386FF,#D89F1C,10,0,1,38,1,938.4000000953674,37,1,558.7000000476837,10,1,experiment,NA,NA,1,0.7,0.3,2,3,54,2,NA
fcp-trial,88,505383,0.0-63.0-0.0,voc_e2,11973,"[{""event"":""fullscreenenter"",""trial"":1,""time"":6540}]",NA,NA,NA,NA,NA,0,#741CD8,#D8271C,0,10,0,38,1,684.3999998569489,39,0,572.8999998569489,10,1,experiment,NA,NA,0,0.1,0.9,1,0,55,2,NA
fcp-trial,89,509990,0.0-64.0-0.0,voc_e2,11973,"[{""event"":""fullscreenenter"",""trial"":1,""time"":6540}]",NA,NA,NA,NA,NA,4,#3386FF,#D89F1C,10,10,1,40,0,2322.399999856949,39,0,777.2000000476837,10,0,experiment,NA,NA,1,0.7,0.3,2,3,56,2,NA
fcp-trial,90,513043,0.0-65.0-0.0,voc_e2,11973,"[{""event"":""fullscreenenter"",""trial"":1,""time"":6540}]",NA,NA,NA,NA,NA,3,#FA92F8,#1CD855,0,0,1,38,1,1022.3000001907349,37,1,523.9000000953674,0,1,experiment,NA,NA,2,0.5,0.5,4,5,57,2,NA
fcp-trial,91,515973,0.0-66.0-0.0,voc_e2,11973,"[{""event"":""fullscreenenter"",""trial"":1,""time"":6540}]",NA,NA,NA,NA,NA,2,#1CD855,#FA92F8,10,10,0,38,1,858.5,39,0,564.5999999046326,10,1,experiment,NA,NA,2,0.5,0.5,5,4,58,2,NA
fcp-trial,92,518684,0.0-67.0-0.0,voc_e2,11973,"[{""event"":""fullscreenenter"",""trial"":1,""time"":6540}]",NA,NA,NA,NA,NA,6,#D8271C,#741CD8,10,0,1,38,1,606.2999999523163,37,1,598.8999998569489,10,1,experiment,NA,NA,0,0.9,0.1,0,1,59,2,NA
fcp-trial,93,522226,0.0-68.0-0.0,voc_e2,11973,"[{""event"":""fullscreenenter"",""trial"":1,""time"":6540}]",NA,NA,NA,NA,NA,2,#D89F1C,#3386FF,0,10,0,38,1,1479.0999999046326,39,0,557.9000000953674,10,1,experiment,NA,NA,1,0.3,0.7,3,2,60,2,NA
fcp-trial,94,525108,0.0-69.0-0.0,voc_e2,11973,"[{""event"":""fullscreenenter"",""trial"":1,""time"":6540}]",NA,NA,NA,NA,NA,4,#1CD855,#FA92F8,10,0,0,40,0,916.5999999046326,39,0,454.09999990463257,0,1,experiment,NA,NA,2,0.5,0.5,5,4,61,2,NA
fcp-trial,95,528373,0.0-70.0-0.0,voc_e2,11973,"[{""event"":""fullscreenenter"",""trial"":1,""time"":6540}]",NA,NA,NA,NA,NA,4,#D8271C,#741CD8,10,0,1,40,0,1241.5999999046326,37,1,517,10,1,experiment,NA,NA,0,0.9,0.1,0,1,62,2,NA
fcp-trial,96,531574,0.0-71.0-0.0,voc_e2,11973,"[{""event"":""fullscreenenter"",""trial"":1,""time"":6540}]",NA,NA,NA,NA,NA,5,#D89F1C,#3386FF,10,10,0,40,0,1253.7999999523163,39,0,441.2999999523163,10,1,experiment,NA,NA,1,0.3,0.7,3,2,63,2,NA
fcp-trial,97,537291,0.0-72.0-0.0,voc_e2,11973,"[{""event"":""fullscreenenter"",""trial"":1,""time"":6540}]",NA,NA,NA,NA,NA,0,#1CD855,#FA92F8,10,10,0,38,1,3878.7999999523163,39,0,332.7000000476837,10,1,experiment,NA,NA,2,0.5,0.5,5,4,64,2,NA
fcp-trial,98,540287,0.0-73.0-0.0,voc_e2,11973,"[{""event"":""fullscreenenter"",""trial"":1,""time"":6540}]",NA,NA,NA,NA,NA,4,#D8271C,#741CD8,10,0,1,38,1,816,37,1,673.6000001430511,10,1,experiment,NA,NA,0,0.9,0.1,0,1,65,2,NA
fcp-trial,99,543136,0.0-74.0-0.0,voc_e2,11973,"[{""event"":""fullscreenenter"",""trial"":1,""time"":6540}]",NA,NA,NA,NA,NA,5,#3386FF,#D89F1C,0,0,1,40,0,632.0999999046326,39,0,709,0,0,experiment,NA,NA,1,0.7,0.3,2,3,66,2,NA
fcp-trial,100,546388,0.0-75.0-0.0,voc_e2,11973,"[{""event"":""fullscreenenter"",""trial"":1,""time"":6540}]",NA,NA,NA,NA,NA,5,#FA92F8,#1CD855,0,10,1,40,0,1233.3999998569489,37,1,507.89999985694885,0,1,experiment,NA,NA,2,0.5,0.5,4,5,67,2,NA
fcp-trial,101,550384,0.0-76.0-0.0,voc_e2,11973,"[{""event"":""fullscreenenter"",""trial"":1,""time"":6540}]",NA,NA,NA,NA,NA,3,#D89F1C,#3386FF,0,10,0,38,1,1931.7999999523163,39,0,558.7999999523163,10,1,experiment,NA,NA,1,0.3,0.7,3,2,68,2,NA
fcp-trial,102,553517,0.0-77.0-0.0,voc_e2,11973,"[{""event"":""fullscreenenter"",""trial"":1,""time"":6540}]",NA,NA,NA,NA,NA,1,#3386FF,#D89F1C,10,0,1,38,1,1262.5,37,1,364,10,1,experiment,NA,NA,1,0.7,0.3,2,3,69,2,NA
fcp-trial,103,556825,0.0-78.0-0.0,voc_e2,11973,"[{""event"":""fullscreenenter"",""trial"":1,""time"":6540}]",NA,NA,NA,NA,NA,1,#D8271C,#741CD8,10,0,1,38,1,1357.2000000476837,37,1,443.7999999523163,10,1,experiment,NA,NA,0,0.9,0.1,0,1,70,2,NA
fcp-trial,104,559912,0.0-79.0-0.0,voc_e2,11973,"[{""event"":""fullscreenenter"",""trial"":1,""time"":6540}]",NA,NA,NA,NA,NA,4,#FA92F8,#1CD855,0,10,1,40,0,1081.4000000953674,37,1,497.59999990463257,0,1,experiment,NA,NA,2,0.5,0.5,4,5,71,2,NA
fcp-trial,105,563184,0.0-80.0-0.0,voc_e2,11973,"[{""event"":""fullscreenenter"",""trial"":1,""time"":6540}]",NA,NA,NA,NA,NA,2,#3386FF,#D89F1C,0,0,1,38,1,1374.8999998569489,37,1,391.7000000476837,0,1,experiment,NA,NA,1,0.7,0.3,2,3,72,2,NA
fcp-trial,106,566135,0.0-81.0-0.0,voc_e2,11973,"[{""event"":""fullscreenenter"",""trial"":1,""time"":6540}]",NA,NA,NA,NA,NA,0,#3386FF,#D89F1C,10,0,1,38,1,896.0999999046326,37,1,544.2999999523163,10,1,experiment,NA,NA,1,0.7,0.3,2,3,73,2,NA
fcp-trial,107,568936,0.0-82.0-0.0,voc_e2,11973,"[{""event"":""fullscreenenter"",""trial"":1,""time"":6540}]",NA,NA,NA,NA,NA,3,#D8271C,#741CD8,10,0,1,38,1,612.2000000476837,37,1,683.0999999046326,10,1,experiment,NA,NA,0,0.9,0.1,0,1,74,2,NA
fcp-trial,108,572067,0.0-83.0-0.0,voc_e2,11973,"[{""event"":""fullscreenenter"",""trial"":1,""time"":6540}]",NA,NA,NA,NA,NA,4,#D89F1C,#3386FF,0,10,0,40,0,1060.5,37,1,566.3000001907349,0,0,experiment,NA,NA,1,0.3,0.7,3,2,75,2,NA
fcp-trial,109,576162,0.0-84.0-0.0,voc_e2,11973,"[{""event"":""fullscreenenter"",""trial"":1,""time"":6540}]",NA,NA,NA,NA,NA,1,#FA92F8,#1CD855,10,10,1,38,1,1988.5999999046326,37,1,600.7999999523163,10,1,experiment,NA,NA,2,0.5,0.5,4,5,76,2,NA
fcp-trial,110,580081,0.0-85.0-0.0,voc_e2,11973,"[{""event"":""fullscreenenter"",""trial"":1,""time"":6540}]",NA,NA,NA,NA,NA,0,#D8271C,#741CD8,10,0,1,38,1,1964.2000000476837,37,1,447.39999985694885,10,1,experiment,NA,NA,0,0.9,0.1,0,1,77,2,NA
fcp-trial,111,583149,0.0-86.0-0.0,voc_e2,11973,"[{""event"":""fullscreenenter"",""trial"":1,""time"":6540}]",NA,NA,NA,NA,NA,5,#D8271C,#741CD8,10,0,1,40,0,1030.0999999046326,37,1,530,10,1,experiment,NA,NA,0,0.9,0.1,0,1,78,2,NA
fcp-trial,112,587118,0.0-87.0-0.0,voc_e2,11973,"[{""event"":""fullscreenenter"",""trial"":1,""time"":6540}]",NA,NA,NA,NA,NA,3,#FA92F8,#1CD855,0,10,1,40,0,1884,39,0,576.6000001430511,10,0,experiment,NA,NA,2,0.5,0.5,4,5,79,2,NA
fcp-trial,113,590582,0.0-88.0-0.0,voc_e2,11973,"[{""event"":""fullscreenenter"",""trial"":1,""time"":6540}]",NA,NA,NA,NA,NA,6,#D89F1C,#3386FF,0,0,0,40,0,1478.4000000953674,39,0,481.40000009536743,0,1,experiment,NA,NA,1,0.3,0.7,3,2,80,2,NA
fcp-trial,114,594232,0.0-89.0-0.0,voc_e2,11973,"[{""event"":""fullscreenenter"",""trial"":1,""time"":6540}]",NA,NA,NA,NA,NA,2,#FA92F8,#1CD855,10,10,1,38,1,1406.5999999046326,37,1,737.7999999523163,10,1,experiment,NA,NA,2,0.5,0.5,4,5,81,2,NA
fcp-trial,115,598887,0.0-90.0-0.0,voc_e2,11973,"[{""event"":""fullscreenenter"",""trial"":1,""time"":6540}]",NA,NA,NA,NA,NA,2,#741CD8,#D8271C,0,10,0,38,1,2684,39,0,462.7999999523163,10,1,experiment,NA,NA,0,0.1,0.9,1,0,82,2,NA
fcp-trial,116,601761,0.0-91.0-0.0,voc_e2,11973,"[{""event"":""fullscreenenter"",""trial"":1,""time"":6540}]",NA,NA,NA,NA,NA,6,#D8271C,#741CD8,10,0,1,40,0,766.5999999046326,37,1,594.6999998092651,10,1,experiment,NA,NA,0,0.9,0.1,0,1,83,2,NA
fcp-trial,117,604970,0.0-92.0-0.0,voc_e2,11973,"[{""event"":""fullscreenenter"",""trial"":1,""time"":6540}]",NA,NA,NA,NA,NA,6,#1CD855,#FA92F8,10,10,0,40,0,1099.8999998569489,37,1,602.5,10,0,experiment,NA,NA,2,0.5,0.5,5,4,84,2,NA
fcp-trial,118,608026,0.0-93.0-0.0,voc_e2,11973,"[{""event"":""fullscreenenter"",""trial"":1,""time"":6540}]",NA,NA,NA,NA,NA,5,#741CD8,#D8271C,0,0,0,40,0,1087.4000000953674,39,0,461.09999990463257,0,1,experiment,NA,NA,0,0.1,0.9,1,0,85,2,NA
fcp-trial,119,611650,0.0-94.0-0.0,voc_e2,11973,"[{""event"":""fullscreenenter"",""trial"":1,""time"":6540}]",NA,NA,NA,NA,NA,0,#D89F1C,#3386FF,0,0,0,38,1,1595.3000001907349,39,0,521.7000000476837,0,1,experiment,NA,NA,1,0.3,0.7,3,2,86,2,NA
fcp-trial,120,614608,0.0-95.0-0.0,voc_e2,11973,"[{""event"":""fullscreenenter"",""trial"":1,""time"":6540}]",NA,NA,NA,NA,NA,4,#1CD855,#FA92F8,10,0,0,40,0,951.7000000476837,39,0,500.2999999523163,0,1,experiment,NA,NA,2,0.5,0.5,5,4,87,2,NA
fcp-trial,121,617802,0.0-96.0-0.0,voc_e2,11973,"[{""event"":""fullscreenenter"",""trial"":1,""time"":6540}]",NA,NA,NA,NA,NA,5,#D89F1C,#3386FF,0,10,0,40,0,1025.3000001907349,37,1,661.2000000476837,0,0,experiment,NA,NA,1,0.3,0.7,3,2,88,2,NA
fcp-trial,122,620805,0.0-97.0-0.0,voc_e2,11973,"[{""event"":""fullscreenenter"",""trial"":1,""time"":6540}]",NA,NA,NA,NA,NA,2,#741CD8,#D8271C,0,10,0,38,1,1210.9000000953674,39,0,286.89999985694885,10,1,experiment,NA,NA,0,0.1,0.9,1,0,89,2,NA
fcp-trial,123,623904,0.0-98.0-0.0,voc_e2,11973,"[{""event"":""fullscreenenter"",""trial"":1,""time"":6540}]",NA,NA,NA,NA,NA,2,#3386FF,#D89F1C,10,0,1,38,1,1110.4000000953674,37,1,484.10000014305115,10,1,experiment,NA,NA,1,0.7,0.3,2,3,90,2,NA
fcp-trial,124,626805,0.0-99.0-0.0,voc_e2,11973,"[{""event"":""fullscreenenter"",""trial"":1,""time"":6540}]",NA,NA,NA,NA,NA,1,#3386FF,#D89F1C,10,0,1,38,1,872.8999998569489,37,1,521,10,1,experiment,NA,NA,1,0.7,0.3,2,3,91,3,NA
fcp-trial,125,629678,0.0-100.0-0.0,voc_e2,11973,"[{""event"":""fullscreenenter"",""trial"":1,""time"":6540}]",NA,NA,NA,NA,NA,1,#1CD855,#FA92F8,0,0,0,38,1,893.2999999523163,39,0,474.5,0,1,experiment,NA,NA,2,0.5,0.5,5,4,92,3,NA
fcp-trial,126,632725,0.0-101.0-0.0,voc_e2,11973,"[{""event"":""fullscreenenter"",""trial"":1,""time"":6540}]",NA,NA,NA,NA,NA,0,#741CD8,#D8271C,0,10,0,38,1,1003.2000000476837,39,0,537.1999998092651,10,1,experiment,NA,NA,0,0.1,0.9,1,0,93,3,NA
fcp-trial,127,635901,0.0-102.0-0.0,voc_e2,11973,"[{""event"":""fullscreenenter"",""trial"":1,""time"":6540}]",NA,NA,NA,NA,NA,1,#D8271C,#741CD8,10,0,1,38,1,1141.8000001907349,37,1,528.3999998569489,10,1,experiment,NA,NA,0,0.9,0.1,0,1,94,3,NA
fcp-trial,128,639058,0.0-103.0-0.0,voc_e2,11973,"[{""event"":""fullscreenenter"",""trial"":1,""time"":6540}]",NA,NA,NA,NA,NA,3,#741CD8,#D8271C,0,10,0,38,1,691.3999998569489,39,0,960.2000000476836,10,1,experiment,NA,NA,0,0.1,0.9,1,0,95,3,NA
fcp-trial,129,642050,0.0-104.0-0.0,voc_e2,11973,"[{""event"":""fullscreenenter"",""trial"":1,""time"":6540}]",NA,NA,NA,NA,NA,4,#D89F1C,#3386FF,10,10,0,40,0,871.5,39,0,614.2999999523163,10,1,experiment,NA,NA,1,0.3,0.7,3,2,96,3,NA
fcp-trial,130,645370,0.0-105.0-0.0,voc_e2,11973,"[{""event"":""fullscreenenter"",""trial"":1,""time"":6540}]",NA,NA,NA,NA,NA,5,#FA92F8,#1CD855,0,10,1,40,0,1266.7000000476837,37,1,548.4000000953674,0,1,experiment,NA,NA,2,0.5,0.5,4,5,97,3,NA
fcp-trial,131,648153,0.0-106.0-0.0,voc_e2,11973,"[{""event"":""fullscreenenter"",""trial"":1,""time"":6540}]",NA,NA,NA,NA,NA,6,#3386FF,#D89F1C,0,0,1,40,0,677.2000000476837,37,1,596.6999998092651,0,1,experiment,NA,NA,1,0.7,0.3,2,3,98,3,NA
fcp-trial,132,654595,0.0-107.0-0.0,voc_e2,11973,"[{""event"":""fullscreenenter"",""trial"":1,""time"":6540}]",NA,NA,NA,NA,NA,3,#1CD855,#FA92F8,10,10,0,38,1,4510.799999952316,39,0,418,10,1,experiment,NA,NA,2,0.5,0.5,5,4,99,3,NA
fcp-trial,133,661626,0.0-108.0-0.0,voc_e2,11973,"[{""event"":""fullscreenenter"",""trial"":1,""time"":6540}]",NA,NA,NA,NA,NA,4,#741CD8,#D8271C,0,10,0,40,0,4914.799999952316,39,0,608.2000000476837,10,1,experiment,NA,NA,0,0.1,0.9,1,0,100,3,NA
fcp-trial,134,664667,0.0-109.0-0.0,voc_e2,11973,"[{""event"":""fullscreenenter"",""trial"":1,""time"":6540}]",NA,NA,NA,NA,NA,0,#1CD855,#FA92F8,0,0,0,38,1,1095,39,0,440.09999990463257,0,1,experiment,NA,NA,2,0.5,0.5,5,4,101,3,NA
fcp-trial,135,669557,0.0-110.0-0.0,voc_e2,11973,"[{""event"":""fullscreenenter"",""trial"":1,""time"":6540}]",NA,NA,NA,NA,NA,3,#D89F1C,#3386FF,10,10,0,38,1,2391.899999856949,39,0,991.7000000476836,10,1,experiment,NA,NA,1,0.3,0.7,3,2,102,3,NA
fcp-trial,136,672326,0.0-111.0-0.0,voc_e2,11973,"[{""event"":""fullscreenenter"",""trial"":1,""time"":6540}]",NA,NA,NA,NA,NA,6,#FA92F8,#1CD855,10,0,1,40,0,727.5,39,0,535.9000000953674,0,0,experiment,NA,NA,2,0.5,0.5,4,5,103,3,NA
fcp-trial,137,675347,0.0-112.0-0.0,voc_e2,11973,"[{""event"":""fullscreenenter"",""trial"":1,""time"":6540}]",NA,NA,NA,NA,NA,6,#D8271C,#741CD8,10,10,1,40,0,776.0999999046326,39,0,738.9000000953674,10,0,experiment,NA,NA,0,0.9,0.1,0,1,104,3,NA
fcp-trial,138,680472,0.0-113.0-0.0,voc_e2,11973,"[{""event"":""fullscreenenter"",""trial"":1,""time"":6540}]",NA,NA,NA,NA,NA,2,#FA92F8,#1CD855,10,0,1,38,1,3123.0999999046326,37,1,494.69999980926514,10,1,experiment,NA,NA,2,0.5,0.5,4,5,105,3,NA
audio-instructions,139,708904,0.0-114.0,voc_e2,11973,"[{""event"":""fullscreenenter"",""trial"":1,""time"":6540}]",NA,23567.400000095367,static/audio/pause.wav,NA,0,NA,NA,NA,NA,NA,NA,NA,NA,NA,NA,NA,NA,NA,NA,NA,NA,NA,NA,NA,NA,NA,NA,NA,NA,NA
fcp-trial,140,714388,0.0-115.0-0.0,voc_e2,11973,"[{""event"":""fullscreenenter"",""trial"":1,""time"":6540}]",NA,NA,NA,NA,NA,1,#3386FF,#D89F1C,10,0,1,38,1,2344.5,37,1,1618.8999998569489,10,1,experiment,NA,NA,1,0.7,0.3,2,3,106,3,NA
fcp-trial,141,717758,0.0-116.0-0.0,voc_e2,11973,"[{""event"":""fullscreenenter"",""trial"":1,""time"":6540}]",NA,NA,NA,NA,NA,4,#1CD855,#FA92F8,0,10,0,40,0,1302.2999999523163,37,1,561.9000000953674,0,0,experiment,NA,NA,2,0.5,0.5,5,4,107,3,NA
fcp-trial,142,720569,0.0-117.0-0.0,voc_e2,11973,"[{""event"":""fullscreenenter"",""trial"":1,""time"":6540}]",NA,NA,NA,NA,NA,5,#741CD8,#D8271C,0,10,0,40,0,845.8000001907349,39,0,459.7999999523163,10,1,experiment,NA,NA,0,0.1,0.9,1,0,108,3,NA
fcp-trial,143,724010,0.0-118.0-0.0,voc_e2,11973,"[{""event"":""fullscreenenter"",""trial"":1,""time"":6540}]",NA,NA,NA,NA,NA,2,#1CD855,#FA92F8,0,10,0,38,1,1252.1000001430511,39,0,683.8999998569489,10,1,experiment,NA,NA,2,0.5,0.5,5,4,109,3,NA
fcp-trial,144,727198,0.0-119.0-0.0,voc_e2,11973,"[{""event"":""fullscreenenter"",""trial"":1,""time"":6540}]",NA,NA,NA,NA,NA,0,#3386FF,#D89F1C,10,0,1,38,1,1142.8000001907349,37,1,536,10,1,experiment,NA,NA,1,0.7,0.3,2,3,110,3,NA
fcp-trial,145,730351,0.0-120.0-0.0,voc_e2,11973,"[{""event"":""fullscreenenter"",""trial"":1,""time"":6540}]",NA,NA,NA,NA,NA,3,#3386FF,#D89F1C,0,0,1,38,1,1210.0999999046326,37,1,437.7999999523163,0,1,experiment,NA,NA,1,0.7,0.3,2,3,111,3,NA
fcp-trial,146,733500,0.0-121.0-0.0,voc_e2,11973,"[{""event"":""fullscreenenter"",""trial"":1,""time"":6540}]",NA,NA,NA,NA,NA,4,#D8271C,#741CD8,10,0,1,40,0,1164.7999999523163,37,1,477.40000009536743,10,1,experiment,NA,NA,0,0.9,0.1,0,1,112,3,NA
fcp-trial,147,737771,0.0-122.0-0.0,voc_e2,11973,"[{""event"":""fullscreenenter"",""trial"":1,""time"":6540}]",NA,NA,NA,NA,NA,6,#3386FF,#D89F1C,10,0,1,40,0,2037.4000000953674,39,0,729,0,0,experiment,NA,NA,1,0.7,0.3,2,3,113,3,NA
fcp-trial,148,746060,0.0-123.0-0.0,voc_e2,11973,"[{""event"":""fullscreenenter"",""trial"":1,""time"":6540}]",NA,NA,NA,NA,NA,1,#1CD855,#FA92F8,10,0,0,38,1,6022.399999856949,39,0,758.8999998569489,0,1,experiment,NA,NA,2,0.5,0.5,5,4,114,3,NA
fcp-trial,149,749536,0.0-124.0-0.0,voc_e2,11973,"[{""event"":""fullscreenenter"",""trial"":1,""time"":6540}]",NA,NA,NA,NA,NA,2,#741CD8,#D8271C,0,10,0,38,1,1545.4000000953674,39,0,424.10000014305115,10,1,experiment,NA,NA,0,0.1,0.9,1,0,115,3,NA
fcp-trial,150,752721,0.0-125.0-0.0,voc_e2,11973,"[{""event"":""fullscreenenter"",""trial"":1,""time"":6540}]",NA,NA,NA,NA,NA,5,#1CD855,#FA92F8,10,0,0,40,0,1031.2999999523163,39,0,645.0999999046326,0,1,experiment,NA,NA,2,0.5,0.5,5,4,116,3,NA
fcp-trial,151,755760,0.0-126.0-0.0,voc_e2,11973,"[{""event"":""fullscreenenter"",""trial"":1,""time"":6540}]",NA,NA,NA,NA,NA,2,#3386FF,#D89F1C,10,0,1,40,0,867.2999999523163,37,1,666.9000000953674,10,1,experiment,NA,NA,1,0.7,0.3,2,3,117,3,NA
fcp-trial,152,758851,0.0-127.0-0.0,voc_e2,11973,"[{""event"":""fullscreenenter"",""trial"":1,""time"":6540}]",NA,NA,NA,NA,NA,6,#741CD8,#D8271C,0,10,0,40,0,951.4000000953674,37,1,633.1000001430511,0,0,experiment,NA,NA,0,0.1,0.9,1,0,118,3,NA
fcp-trial,153,762723,0.0-128.0-0.0,voc_e2,11973,"[{""event"":""fullscreenenter"",""trial"":1,""time"":6540}]",NA,NA,NA,NA,NA,0,#741CD8,#D8271C,0,10,0,40,0,1773.6999998092651,37,1,592.8999998569489,0,0,experiment,NA,NA,0,0.1,0.9,1,0,119,3,NA
fcp-trial,154,765812,0.0-129.0-0.0,voc_e2,11973,"[{""event"":""fullscreenenter"",""trial"":1,""time"":6540}]",NA,NA,NA,NA,NA,5,#D89F1C,#3386FF,0,0,0,40,0,927.2999999523163,37,1,655.1999998092651,0,0,experiment,NA,NA,1,0.3,0.7,3,2,120,3,NA
fcp-trial,155,768921,0.0-130.0-0.0,voc_e2,11973,"[{""event"":""fullscreenenter"",""trial"":1,""time"":6540}]",NA,NA,NA,NA,NA,6,#FA92F8,#1CD855,0,0,1,40,0,939.8000001907349,39,0,661.5999999046326,0,0,experiment,NA,NA,2,0.5,0.5,4,5,121,3,NA
fcp-trial,156,771808,0.0-131.0-0.0,voc_e2,11973,"[{""event"":""fullscreenenter"",""trial"":1,""time"":6540}]",NA,NA,NA,NA,NA,4,#D89F1C,#3386FF,0,10,0,40,0,769.7000000476837,37,1,611.7999999523163,0,0,experiment,NA,NA,1,0.3,0.7,3,2,122,3,NA
fcp-trial,157,776741,0.0-132.0-0.0,voc_e2,11973,"[{""event"":""fullscreenenter"",""trial"":1,""time"":6540}]",NA,NA,NA,NA,NA,3,#1CD855,#FA92F8,0,0,0,38,1,3085.5,39,0,340.09999990463257,0,1,experiment,NA,NA,2,0.5,0.5,5,4,123,3,NA
fcp-trial,158,780871,0.0-133.0-0.0,voc_e2,11973,"[{""event"":""fullscreenenter"",""trial"":1,""time"":6540}]",NA,NA,NA,NA,NA,1,#741CD8,#D8271C,0,10,0,40,0,1444.2000000476837,37,1,1181.4000000953674,0,0,experiment,NA,NA,0,0.1,0.9,1,0,124,3,NA
fcp-trial,159,785120,0.0-134.0-0.0,voc_e2,11973,"[{""event"":""fullscreenenter"",""trial"":1,""time"":6540}]",NA,NA,NA,NA,NA,3,#741CD8,#D8271C,0,10,0,38,1,2422.4000000953674,39,0,319.19999980926514,10,1,experiment,NA,NA,0,0.1,0.9,1,0,125,3,NA
fcp-trial,160,789299,0.0-135.0-0.0,voc_e2,11973,"[{""event"":""fullscreenenter"",""trial"":1,""time"":6540}]",NA,NA,NA,NA,NA,0,#1CD855,#FA92F8,0,0,0,38,1,1994,39,0,677.5,0,1,experiment,NA,NA,2,0.5,0.5,5,4,126,3,NA
fcp-trial,161,792113,0.0-136.0-0.0,voc_e2,11973,"[{""event"":""fullscreenenter"",""trial"":1,""time"":6540}]",NA,NA,NA,NA,NA,1,#1CD855,#FA92F8,0,0,0,38,1,738.0999999046326,39,0,569.2999999523163,0,1,experiment,NA,NA,2,0.5,0.5,5,4,127,3,NA
fcp-trial,162,795718,0.0-137.0-0.0,voc_e2,11973,"[{""event"":""fullscreenenter"",""trial"":1,""time"":6540}]",NA,NA,NA,NA,NA,2,#D8271C,#741CD8,10,0,1,38,1,1265,37,1,831.5999999046326,10,1,experiment,NA,NA,0,0.9,0.1,0,1,128,3,NA
fcp-trial,163,798486,0.0-138.0-0.0,voc_e2,11973,"[{""event"":""fullscreenenter"",""trial"":1,""time"":6540}]",NA,NA,NA,NA,NA,3,#741CD8,#D8271C,0,10,0,38,1,690.2000000476837,39,0,572.2999999523163,10,1,experiment,NA,NA,0,0.1,0.9,1,0,129,3,NA
fcp-trial,164,801928,0.0-139.0-0.0,voc_e2,11973,"[{""event"":""fullscreenenter"",""trial"":1,""time"":6540}]",NA,NA,NA,NA,NA,2,#D89F1C,#3386FF,0,10,0,40,0,1440.7000000476837,39,0,494.90000009536743,10,1,experiment,NA,NA,1,0.3,0.7,3,2,130,3,NA
fcp-trial,165,804904,0.0-140.0-0.0,voc_e2,11973,"[{""event"":""fullscreenenter"",""trial"":1,""time"":6540}]",NA,NA,NA,NA,NA,5,#1CD855,#FA92F8,0,10,0,40,0,868.1000001430511,37,1,602.2000000476837,0,0,experiment,NA,NA,2,0.5,0.5,5,4,131,3,NA
fcp-trial,166,807647,0.0-141.0-0.0,voc_e2,11973,"[{""event"":""fullscreenenter"",""trial"":1,""time"":6540}]",NA,NA,NA,NA,NA,6,#1CD855,#FA92F8,0,0,0,40,0,788.7000000476837,39,0,448.40000009536743,0,1,experiment,NA,NA,2,0.5,0.5,5,4,132,3,NA
fcp-trial,167,810405,0.0-142.0-0.0,voc_e2,11973,"[{""event"":""fullscreenenter"",""trial"":1,""time"":6540}]",NA,NA,NA,NA,NA,4,#D8271C,#741CD8,10,0,1,38,1,754.8999998569489,37,1,495,10,1,experiment,NA,NA,0,0.9,0.1,0,1,133,3,NA
fcp-trial,168,813329,0.0-143.0-0.0,voc_e2,11973,"[{""event"":""fullscreenenter"",""trial"":1,""time"":6540}]",NA,NA,NA,NA,NA,4,#1CD855,#FA92F8,10,10,0,40,0,986.2999999523163,39,0,430.39999985694885,10,1,experiment,NA,NA,2,0.5,0.5,5,4,134,3,NA
fcp-trial,169,816231,0.0-144.0-0.0,voc_e2,11973,"[{""event"":""fullscreenenter"",""trial"":1,""time"":6540}]",NA,NA,NA,NA,NA,4,#D89F1C,#3386FF,0,10,0,40,0,843.8999998569489,37,1,553.3000001907349,0,0,experiment,NA,NA,1,0.3,0.7,3,2,135,3,NA
fcp-trial,170,819557,0.0-145.0-0.0,voc_e2,11973,"[{""event"":""fullscreenenter"",""trial"":1,""time"":6540}]",NA,NA,NA,NA,NA,2,#1CD855,#FA92F8,0,0,0,38,1,1141.7000000476837,39,0,678.4000000953674,0,1,experiment,NA,NA,2,0.5,0.5,5,4,136,4,NA
fcp-trial,171,822352,0.0-146.0-0.0,voc_e2,11973,"[{""event"":""fullscreenenter"",""trial"":1,""time"":6540}]",NA,NA,NA,NA,NA,5,#741CD8,#D8271C,0,0,0,40,0,872.6000001430511,39,0,416.5,0,1,experiment,NA,NA,0,0.1,0.9,1,0,137,4,NA
fcp-trial,172,825120,0.0-147.0-0.0,voc_e2,11973,"[{""event"":""fullscreenenter"",""trial"":1,""time"":6540}]",NA,NA,NA,NA,NA,1,#D8271C,#741CD8,10,10,1,40,0,761.5999999046326,37,1,500.10000014305115,10,1,experiment,NA,NA,0,0.9,0.1,0,1,138,4,NA
fcp-trial,173,828550,0.0-148.0-0.0,voc_e2,11973,"[{""event"":""fullscreenenter"",""trial"":1,""time"":6540}]",NA,NA,NA,NA,NA,0,#D89F1C,#3386FF,0,10,0,38,1,1390.1999998092651,39,0,534,10,1,experiment,NA,NA,1,0.3,0.7,3,2,139,4,NA
fcp-trial,174,833676,0.0-149.0-0.0,voc_e2,11973,"[{""event"":""fullscreenenter"",""trial"":1,""time"":6540}]",NA,NA,NA,NA,NA,1,#3386FF,#D89F1C,0,0,1,38,1,1587.2000000476837,37,1,2033.3999998569489,0,1,experiment,NA,NA,1,0.7,0.3,2,3,140,4,NA
fcp-trial,175,836395,0.0-150.0-0.0,voc_e2,11973,"[{""event"":""fullscreenenter"",""trial"":1,""time"":6540}]",NA,NA,NA,NA,NA,0,#1CD855,#FA92F8,10,0,0,38,1,814.6000001430511,39,0,399.90000009536743,0,1,experiment,NA,NA,2,0.5,0.5,5,4,141,4,NA
fcp-trial,176,839340,0.0-151.0-0.0,voc_e2,11973,"[{""event"":""fullscreenenter"",""trial"":1,""time"":6540}]",NA,NA,NA,NA,NA,5,#3386FF,#D89F1C,0,0,1,40,0,954.3999998569489,37,1,483.7000000476837,0,1,experiment,NA,NA,1,0.7,0.3,2,3,142,4,NA
fcp-trial,177,842561,0.0-152.0-0.0,voc_e2,11973,"[{""event"":""fullscreenenter"",""trial"":1,""time"":6540}]",NA,NA,NA,NA,NA,6,#741CD8,#D8271C,0,10,0,40,0,1093.4000000953674,37,1,622.9000000953674,0,0,experiment,NA,NA,0,0.1,0.9,1,0,143,4,NA
fcp-trial,178,847125,0.0-153.0-0.0,voc_e2,11973,"[{""event"":""fullscreenenter"",""trial"":1,""time"":6540}]",NA,NA,NA,NA,NA,3,#1CD855,#FA92F8,0,0,0,38,1,2613.600000143051,39,0,443,0,1,experiment,NA,NA,2,0.5,0.5,5,4,144,4,NA
fcp-trial,179,851812,0.0-154.0-0.0,voc_e2,11973,"[{""event"":""fullscreenenter"",""trial"":1,""time"":6540}]",NA,NA,NA,NA,NA,3,#3386FF,#D89F1C,10,0,1,38,1,2718.4000000953674,37,1,461.69999980926514,10,1,experiment,NA,NA,1,0.7,0.3,2,3,145,4,NA
fcp-trial,180,854863,0.0-155.0-0.0,voc_e2,11973,"[{""event"":""fullscreenenter"",""trial"":1,""time"":6540}]",NA,NA,NA,NA,NA,0,#D8271C,#741CD8,10,0,1,38,1,1019.7999999523163,37,1,524,10,1,experiment,NA,NA,0,0.9,0.1,0,1,146,4,NA
fcp-trial,181,857774,0.0-156.0-0.0,voc_e2,11973,"[{""event"":""fullscreenenter"",""trial"":1,""time"":6540}]",NA,NA,NA,NA,NA,6,#D89F1C,#3386FF,0,0,0,40,0,953.2000000476837,39,0,450.30000019073486,0,1,experiment,NA,NA,1,0.3,0.7,3,2,147,4,NA
fcp-trial,182,861035,0.0-157.0-0.0,voc_e2,11973,"[{""event"":""fullscreenenter"",""trial"":1,""time"":6540}]",NA,NA,NA,NA,NA,4,#FA92F8,#1CD855,10,0,1,40,0,1309.5999999046326,37,1,447.2000000476837,10,1,experiment,NA,NA,2,0.5,0.5,4,5,148,4,NA
fcp-trial,183,864170,0.0-158.0-0.0,voc_e2,11973,"[{""event"":""fullscreenenter"",""trial"":1,""time"":6540}]",NA,NA,NA,NA,NA,0,#D89F1C,#3386FF,0,10,0,38,1,1205,39,0,421.80000019073486,10,1,experiment,NA,NA,1,0.3,0.7,3,2,149,4,NA
fcp-trial,184,866840,0.0-159.0-0.0,voc_e2,11973,"[{""event"":""fullscreenenter"",""trial"":1,""time"":6540}]",NA,NA,NA,NA,NA,3,#D89F1C,#3386FF,0,10,0,40,0,738.7000000476837,39,0,425.7999999523163,10,1,experiment,NA,NA,1,0.3,0.7,3,2,150,4,NA
fcp-trial,185,869582,0.0-160.0-0.0,voc_e2,11973,"[{""event"":""fullscreenenter"",""trial"":1,""time"":6540}]",NA,NA,NA,NA,NA,2,#FA92F8,#1CD855,0,0,1,38,1,694.8999998569489,37,1,540.4000000953674,0,1,experiment,NA,NA,2,0.5,0.5,4,5,151,4,NA
fcp-trial,186,872279,0.0-161.0-0.0,voc_e2,11973,"[{""event"":""fullscreenenter"",""trial"":1,""time"":6540}]",NA,NA,NA,NA,NA,6,#741CD8,#D8271C,0,10,0,40,0,762.3999998569489,39,0,426.40000009536743,10,1,experiment,NA,NA,0,0.1,0.9,1,0,152,4,NA
fcp-trial,187,875555,0.0-162.0-0.0,voc_e2,11973,"[{""event"":""fullscreenenter"",""trial"":1,""time"":6540}]",NA,NA,NA,NA,NA,2,#3386FF,#D89F1C,0,0,1,38,1,1224.2000000476837,37,1,546,0,1,experiment,NA,NA,1,0.7,0.3,2,3,153,4,NA
fcp-trial,188,878957,0.0-163.0-0.0,voc_e2,11973,"[{""event"":""fullscreenenter"",""trial"":1,""time"":6540}]",NA,NA,NA,NA,NA,0,#D8271C,#741CD8,10,0,1,38,1,1470.6999998092651,37,1,417.80000019073486,10,1,experiment,NA,NA,0,0.9,0.1,0,1,154,4,NA
fcp-trial,189,881636,0.0-164.0-0.0,voc_e2,11973,"[{""event"":""fullscreenenter"",""trial"":1,""time"":6540}]",NA,NA,NA,NA,NA,6,#3386FF,#D89F1C,0,0,1,38,1,607.4000000953674,37,1,566.1000001430511,0,1,experiment,NA,NA,1,0.7,0.3,2,3,155,4,NA
fcp-trial,190,884724,0.0-165.0-0.0,voc_e2,11973,"[{""event"":""fullscreenenter"",""trial"":1,""time"":6540}]",NA,NA,NA,NA,NA,3,#1CD855,#FA92F8,10,10,0,38,1,1034.5,39,0,546.7000000476837,10,1,experiment,NA,NA,2,0.5,0.5,5,4,156,4,NA
fcp-trial,191,887492,0.0-166.0-0.0,voc_e2,11973,"[{""event"":""fullscreenenter"",""trial"":1,""time"":6540}]",NA,NA,NA,NA,NA,4,#D8271C,#741CD8,10,10,1,40,0,675.5,39,0,586.5,10,0,experiment,NA,NA,0,0.9,0.1,0,1,157,4,NA
fcp-trial,192,890407,0.0-167.0-0.0,voc_e2,11973,"[{""event"":""fullscreenenter"",""trial"":1,""time"":6540}]",NA,NA,NA,NA,NA,5,#D89F1C,#3386FF,0,0,0,40,0,831.2999999523163,39,0,578.2000000476837,0,1,experiment,NA,NA,1,0.3,0.7,3,2,158,4,NA
fcp-trial,193,895709,0.0-168.0-0.0,voc_e2,11973,"[{""event"":""fullscreenenter"",""trial"":1,""time"":6540}]",NA,NA,NA,NA,NA,3,#741CD8,#D8271C,0,10,0,38,1,3462.2000000476837,39,0,332.40000009536743,10,1,experiment,NA,NA,0,0.1,0.9,1,0,159,4,NA
fcp-trial,194,898463,0.0-169.0-0.0,voc_e2,11973,"[{""event"":""fullscreenenter"",""trial"":1,""time"":6540}]",NA,NA,NA,NA,NA,6,#FA92F8,#1CD855,10,10,1,40,0,759,37,1,487.7999999523163,10,1,experiment,NA,NA,2,0.5,0.5,4,5,160,4,NA
fcp-trial,195,901259,0.0-170.0-0.0,voc_e2,11973,"[{""event"":""fullscreenenter"",""trial"":1,""time"":6540}]",NA,NA,NA,NA,NA,5,#741CD8,#D8271C,0,10,0,40,0,862.6000001430511,39,0,429.40000009536743,10,1,experiment,NA,NA,0,0.1,0.9,1,0,161,4,NA
fcp-trial,196,905557,0.0-171.0-0.0,voc_e2,11973,"[{""event"":""fullscreenenter"",""trial"":1,""time"":6540}]",NA,NA,NA,NA,NA,1,#D89F1C,#3386FF,0,10,0,38,1,2120.199999809265,39,0,672.5,10,1,experiment,NA,NA,1,0.3,0.7,3,2,162,4,NA
fcp-trial,197,908661,0.0-172.0-0.0,voc_e2,11973,"[{""event"":""fullscreenenter"",""trial"":1,""time"":6540}]",NA,NA,NA,NA,NA,5,#1CD855,#FA92F8,0,10,0,40,0,969.2999999523163,37,1,628,0,0,experiment,NA,NA,2,0.5,0.5,5,4,163,4,NA
fcp-trial,198,912010,0.0-173.0-0.0,voc_e2,11973,"[{""event"":""fullscreenenter"",""trial"":1,""time"":6540}]",NA,NA,NA,NA,NA,1,#1CD855,#FA92F8,0,10,0,38,1,1415,39,0,424.5,10,1,experiment,NA,NA,2,0.5,0.5,5,4,164,4,NA
fcp-trial,199,916788,0.0-174.0-0.0,voc_e2,11973,"[{""event"":""fullscreenenter"",""trial"":1,""time"":6540}]",NA,NA,NA,NA,NA,2,#741CD8,#D8271C,0,10,0,38,1,2784.5999999046326,39,0,486.19999980926514,10,1,experiment,NA,NA,0,0.1,0.9,1,0,165,4,NA
fcp-trial,200,920296,0.0-175.0-0.0,voc_e2,11973,"[{""event"":""fullscreenenter"",""trial"":1,""time"":6540}]",NA,NA,NA,NA,NA,4,#3386FF,#D89F1C,10,10,1,40,0,1591.3999998569489,37,1,408.7000000476837,10,1,experiment,NA,NA,1,0.7,0.3,2,3,166,4,NA
fcp-trial,201,926759,0.0-176.0-0.0,voc_e2,11973,"[{""event"":""fullscreenenter"",""trial"":1,""time"":6540}]",NA,NA,NA,NA,NA,1,#741CD8,#D8271C,0,10,0,38,1,4236.399999856949,39,0,721.2000000476837,10,1,experiment,NA,NA,0,0.1,0.9,1,0,167,4,NA
fcp-trial,202,931410,0.0-177.0-0.0,voc_e2,11973,"[{""event"":""fullscreenenter"",""trial"":1,""time"":6540}]",NA,NA,NA,NA,NA,0,#FA92F8,#1CD855,0,10,1,40,0,2638.2999999523163,37,1,505.90000009536743,0,1,experiment,NA,NA,2,0.5,0.5,4,5,168,4,NA
fcp-trial,203,934744,0.0-178.0-0.0,voc_e2,11973,"[{""event"":""fullscreenenter"",""trial"":1,""time"":6540}]",NA,NA,NA,NA,NA,0,#D89F1C,#3386FF,0,10,0,40,0,1453.2000000476837,39,0,369.5,10,1,experiment,NA,NA,1,0.3,0.7,3,2,169,4,NA
fcp-trial,204,939792,0.0-179.0-0.0,voc_e2,11973,"[{""event"":""fullscreenenter"",""trial"":1,""time"":6540}]",NA,NA,NA,NA,NA,2,#D8271C,#741CD8,10,0,1,38,1,3102.0999999046326,37,1,440.59999990463257,10,1,experiment,NA,NA,0,0.9,0.1,0,1,170,4,NA
fcp-trial,205,943719,0.0-180.0-0.0,voc_e2,11973,"[{""event"":""fullscreenenter"",""trial"":1,""time"":6540}]",NA,NA,NA,NA,NA,3,#741CD8,#D8271C,0,10,0,40,0,1729.6999998092651,37,1,692.5,0,0,experiment,NA,NA,0,0.1,0.9,1,0,171,4,NA
fcp-trial,206,947272,0.0-181.0-0.0,voc_e2,11973,"[{""event"":""fullscreenenter"",""trial"":1,""time"":6540}]",NA,NA,NA,NA,NA,6,#741CD8,#D8271C,0,10,0,40,0,1252.2999999523163,37,1,794.3999998569489,0,0,experiment,NA,NA,0,0.1,0.9,1,0,172,4,NA
fcp-trial,207,950368,0.0-182.0-0.0,voc_e2,11973,"[{""event"":""fullscreenenter"",""trial"":1,""time"":6540}]",NA,NA,NA,NA,NA,2,#1CD855,#FA92F8,0,0,0,38,1,1226.4000000953674,39,0,363.2000000476837,0,1,experiment,NA,NA,2,0.5,0.5,5,4,173,4,NA
fcp-trial,208,953586,0.0-183.0-0.0,voc_e2,11973,"[{""event"":""fullscreenenter"",""trial"":1,""time"":6540}]",NA,NA,NA,NA,NA,5,#D89F1C,#3386FF,0,0,0,40,0,1155.9000000953674,37,1,555.5,0,0,experiment,NA,NA,1,0.3,0.7,3,2,174,4,NA
fcp-trial,209,956886,0.0-184.0-0.0,voc_e2,11973,"[{""event"":""fullscreenenter"",""trial"":1,""time"":6540}]",NA,NA,NA,NA,NA,1,#D89F1C,#3386FF,0,10,0,38,1,1306.6000001430511,39,0,484.60000014305115,10,1,experiment,NA,NA,1,0.3,0.7,3,2,175,4,NA
fcp-trial,210,965358,0.0-185.0-0.0,voc_e2,11973,"[{""event"":""fullscreenenter"",""trial"":1,""time"":6540}]",NA,NA,NA,NA,NA,1,#D8271C,#741CD8,10,0,1,38,1,961.3999998569489,37,1,6003.5,10,1,experiment,NA,NA,0,0.9,0.1,0,1,176,4,NA
fcp-trial,211,968776,0.0-186.0-0.0,voc_e2,11973,"[{""event"":""fullscreenenter"",""trial"":1,""time"":6540}]",NA,NA,NA,NA,NA,2,#D89F1C,#3386FF,0,10,0,38,1,1557.2000000476837,39,0,353.5,10,1,experiment,NA,NA,1,0.3,0.7,3,2,177,4,NA
fcp-trial,212,972359,0.0-187.0-0.0,voc_e2,11973,"[{""event"":""fullscreenenter"",""trial"":1,""time"":6540}]",NA,NA,NA,NA,NA,0,#1CD855,#FA92F8,0,10,0,38,1,1683.8999998569489,37,1,393.7000000476837,0,0,experiment,NA,NA,2,0.5,0.5,5,4,178,4,NA
fcp-trial,213,975461,0.0-188.0-0.0,voc_e2,11973,"[{""event"":""fullscreenenter"",""trial"":1,""time"":6540}]",NA,NA,NA,NA,NA,0,#D8271C,#741CD8,10,10,1,38,1,1104,37,1,493.2999999523163,10,1,experiment,NA,NA,0,0.9,0.1,0,1,179,4,NA
fcp-trial,214,978513,0.0-189.0-0.0,voc_e2,11973,"[{""event"":""fullscreenenter"",""trial"":1,""time"":6540}]",NA,NA,NA,NA,NA,4,#1CD855,#FA92F8,0,10,0,40,0,928.1000001430511,37,1,618.2000000476837,0,0,experiment,NA,NA,2,0.5,0.5,5,4,180,4,NA
fcp-trial,215,981428,0.0-190.0-0.0,voc_e2,11973,"[{""event"":""fullscreenenter"",""trial"":1,""time"":6540}]",NA,NA,NA,NA,NA,4,#D89F1C,#3386FF,0,10,0,40,0,981.2000000476837,39,0,425,10,1,experiment,NA,NA,1,0.3,0.7,3,2,181,5,NA
fcp-trial,216,984840,0.0-191.0-0.0,voc_e2,11973,"[{""event"":""fullscreenenter"",""trial"":1,""time"":6540}]",NA,NA,NA,NA,NA,5,#741CD8,#D8271C,0,10,0,40,0,1280.7999999523163,37,1,618.1000001430511,0,0,experiment,NA,NA,0,0.1,0.9,1,0,182,5,NA
fcp-trial,217,988163,0.0-192.0-0.0,voc_e2,11973,"[{""event"":""fullscreenenter"",""trial"":1,""time"":6540}]",NA,NA,NA,NA,NA,3,#FA92F8,#1CD855,10,10,1,38,1,1431.2000000476837,37,1,383.89999985694885,10,1,experiment,NA,NA,2,0.5,0.5,4,5,183,5,NA
fcp-trial,218,991040,0.0-193.0-0.0,voc_e2,11973,"[{""event"":""fullscreenenter"",""trial"":1,""time"":6540}]",NA,NA,NA,NA,NA,6,#D89F1C,#3386FF,0,10,0,40,0,844.8000001907349,37,1,526.5,0,0,experiment,NA,NA,1,0.3,0.7,3,2,184,5,NA
fcp-trial,219,998437,0.0-194.0-0.0,voc_e2,11973,"[{""event"":""fullscreenenter"",""trial"":1,""time"":6540}]",NA,NA,NA,NA,NA,4,#741CD8,#D8271C,0,10,0,40,0,4919.599999904633,37,1,970,0,0,experiment,NA,NA,0,0.1,0.9,1,0,185,5,NA
fcp-trial,220,1001799,0.0-195.0-0.0,voc_e2,11973,"[{""event"":""fullscreenenter"",""trial"":1,""time"":6540}]",NA,NA,NA,NA,NA,1,#1CD855,#FA92F8,10,0,0,38,1,1567.5,39,0,288.5,0,1,experiment,NA,NA,2,0.5,0.5,5,4,186,5,NA
fcp-trial,221,1005361,0.0-196.0-0.0,voc_e2,11973,"[{""event"":""fullscreenenter"",""trial"":1,""time"":6540}]",NA,NA,NA,NA,NA,3,#D89F1C,#3386FF,0,10,0,38,1,1474.5999999046326,39,0,581.9000000953674,10,1,experiment,NA,NA,1,0.3,0.7,3,2,187,5,NA
fcp-trial,222,1008017,0.0-197.0-0.0,voc_e2,11973,"[{""event"":""fullscreenenter"",""trial"":1,""time"":6540}]",NA,NA,NA,NA,NA,6,#FA92F8,#1CD855,10,10,1,40,0,710,39,0,440.40000009536743,10,0,experiment,NA,NA,2,0.5,0.5,4,5,188,5,NA
fcp-trial,223,1011051,0.0-198.0-0.0,voc_e2,11973,"[{""event"":""fullscreenenter"",""trial"":1,""time"":6540}]",NA,NA,NA,NA,NA,5,#1CD855,#FA92F8,10,0,0,40,0,872.9000000953674,37,1,652.4000000953674,10,0,experiment,NA,NA,2,0.5,0.5,5,4,189,5,NA
fcp-trial,224,1015260,0.0-199.0-0.0,voc_e2,11973,"[{""event"":""fullscreenenter"",""trial"":1,""time"":6540}]",NA,NA,NA,NA,NA,6,#741CD8,#D8271C,0,10,0,40,0,1917.9000000953674,37,1,783.7999999523163,0,0,experiment,NA,NA,0,0.1,0.9,1,0,190,5,NA
fcp-trial,225,1020240,0.0-200.0-0.0,voc_e2,11973,"[{""event"":""fullscreenenter"",""trial"":1,""time"":6540}]",NA,NA,NA,NA,NA,2,#1CD855,#FA92F8,10,10,0,38,1,2351.7999999523163,39,0,1119,10,1,experiment,NA,NA,2,0.5,0.5,5,4,191,5,NA
fcp-trial,226,1022900,0.0-201.0-0.0,voc_e2,11973,"[{""event"":""fullscreenenter"",""trial"":1,""time"":6540}]",NA,NA,NA,NA,NA,4,#D89F1C,#3386FF,0,10,0,40,0,713.5,39,0,440.09999990463257,10,1,experiment,NA,NA,1,0.3,0.7,3,2,192,5,NA
fcp-trial,227,1028688,0.0-202.0-0.0,voc_e2,11973,"[{""event"":""fullscreenenter"",""trial"":1,""time"":6540}]",NA,NA,NA,NA,NA,2,#D8271C,#741CD8,10,0,1,40,0,3727.2000000476837,37,1,555.0999999046326,10,1,experiment,NA,NA,0,0.9,0.1,0,1,193,5,NA
fcp-trial,228,1033033,0.0-203.0-0.0,voc_e2,11973,"[{""event"":""fullscreenenter"",""trial"":1,""time"":6540}]",NA,NA,NA,NA,NA,0,#3386FF,#D89F1C,0,0,1,38,1,1302.2000000476837,37,1,1536.5,0,1,experiment,NA,NA,1,0.7,0.3,2,3,194,5,NA
fcp-trial,229,1035880,0.0-204.0-0.0,voc_e2,11973,"[{""event"":""fullscreenenter"",""trial"":1,""time"":6540}]",NA,NA,NA,NA,NA,3,#741CD8,#D8271C,0,10,0,40,0,943.9000000953674,39,0,396.2999999523163,10,1,experiment,NA,NA,0,0.1,0.9,1,0,195,5,NA
fcp-trial,230,1038711,0.0-205.0-0.0,voc_e2,11973,"[{""event"":""fullscreenenter"",""trial"":1,""time"":6540}]",NA,NA,NA,NA,NA,5,#1CD855,#FA92F8,10,0,0,40,0,836.2000000476837,39,0,490.5,0,1,experiment,NA,NA,2,0.5,0.5,5,4,196,5,NA
fcp-trial,231,1041515,0.0-206.0-0.0,voc_e2,11973,"[{""event"":""fullscreenenter"",""trial"":1,""time"":6540}]",NA,NA,NA,NA,NA,5,#D8271C,#741CD8,10,0,1,40,0,846,37,1,453.80000019073486,10,1,experiment,NA,NA,0,0.9,0.1,0,1,197,5,NA
fcp-trial,232,1044546,0.0-207.0-0.0,voc_e2,11973,"[{""event"":""fullscreenenter"",""trial"":1,""time"":6540}]",NA,NA,NA,NA,NA,1,#FA92F8,#1CD855,0,10,1,38,1,1007.5,37,1,518.0999999046326,0,1,experiment,NA,NA,2,0.5,0.5,4,5,198,5,NA
fcp-trial,233,1047385,0.0-208.0-0.0,voc_e2,11973,"[{""event"":""fullscreenenter"",""trial"":1,""time"":6540}]",NA,NA,NA,NA,NA,5,#3386FF,#D89F1C,10,0,1,40,0,783.6000001430511,37,1,550.4000000953674,10,1,experiment,NA,NA,1,0.7,0.3,2,3,199,5,NA
fcp-trial,234,1050984,0.0-209.0-0.0,voc_e2,11973,"[{""event"":""fullscreenenter"",""trial"":1,""time"":6540}]",NA,NA,NA,NA,NA,2,#D89F1C,#3386FF,0,10,0,38,1,1600.4000000953674,39,0,492.2000000476837,10,1,experiment,NA,NA,1,0.3,0.7,3,2,200,5,NA
fcp-trial,235,1053654,0.0-210.0-0.0,voc_e2,11973,"[{""event"":""fullscreenenter"",""trial"":1,""time"":6540}]",NA,NA,NA,NA,NA,6,#1CD855,#FA92F8,0,10,0,40,0,675.8000001907349,37,1,489.40000009536743,0,0,experiment,NA,NA,2,0.5,0.5,5,4,201,5,NA
fcp-trial,236,1057150,0.0-211.0-0.0,voc_e2,11973,"[{""event"":""fullscreenenter"",""trial"":1,""time"":6540}]",NA,NA,NA,NA,NA,1,#D8271C,#741CD8,10,0,1,38,1,1165.1000001430511,37,1,821.7000000476837,10,1,experiment,NA,NA,0,0.9,0.1,0,1,202,5,NA
fcp-trial,237,1062853,0.0-212.0-0.0,voc_e2,11973,"[{""event"":""fullscreenenter"",""trial"":1,""time"":6540}]",NA,NA,NA,NA,NA,0,#FA92F8,#1CD855,10,0,1,38,1,3682,37,1,514.6000001430511,10,1,experiment,NA,NA,2,0.5,0.5,4,5,203,5,NA
fcp-trial,238,1066006,0.0-213.0-0.0,voc_e2,11973,"[{""event"":""fullscreenenter"",""trial"":1,""time"":6540}]",NA,NA,NA,NA,NA,1,#3386FF,#D89F1C,0,10,1,38,1,1223.1999998092651,39,0,424.90000009536743,10,0,experiment,NA,NA,1,0.7,0.3,2,3,204,5,NA
fcp-trial,239,1069033,0.0-214.0-0.0,voc_e2,11973,"[{""event"":""fullscreenenter"",""trial"":1,""time"":6540}]",NA,NA,NA,NA,NA,6,#D89F1C,#3386FF,10,0,0,40,0,1023.5,39,0,496.7000000476837,0,1,experiment,NA,NA,1,0.3,0.7,3,2,205,5,NA
fcp-trial,240,1074261,0.0-215.0-0.0,voc_e2,11973,"[{""event"":""fullscreenenter"",""trial"":1,""time"":6540}]",NA,NA,NA,NA,NA,3,#1CD855,#FA92F8,10,10,0,40,0,3211.399999856949,39,0,508.2000000476837,10,1,experiment,NA,NA,2,0.5,0.5,5,4,206,5,NA
fcp-trial,241,1077244,0.0-216.0-0.0,voc_e2,11973,"[{""event"":""fullscreenenter"",""trial"":1,""time"":6540}]",NA,NA,NA,NA,NA,0,#741CD8,#D8271C,0,10,0,38,1,1054.2000000476837,39,0,423.59999990463257,10,1,experiment,NA,NA,0,0.1,0.9,1,0,207,5,NA
fcp-trial,242,1079897,0.0-217.0-0.0,voc_e2,11973,"[{""event"":""fullscreenenter"",""trial"":1,""time"":6540}]",NA,NA,NA,NA,NA,4,#741CD8,#D8271C,0,10,0,40,0,732.5999999046326,39,0,413.40000009536743,10,1,experiment,NA,NA,0,0.1,0.9,1,0,208,5,NA
fcp-trial,243,1082704,0.0-218.0-0.0,voc_e2,11973,"[{""event"":""fullscreenenter"",""trial"":1,""time"":6540}]",NA,NA,NA,NA,NA,3,#3386FF,#D89F1C,10,10,1,40,0,907.2999999523163,37,1,393.40000009536743,10,1,experiment,NA,NA,1,0.7,0.3,2,3,209,5,NA
fcp-trial,244,1085358,0.0-219.0-0.0,voc_e2,11973,"[{""event"":""fullscreenenter"",""trial"":1,""time"":6540}]",NA,NA,NA,NA,NA,4,#1CD855,#FA92F8,0,0,0,40,0,770.4000000953674,39,0,376.40000009536743,0,1,experiment,NA,NA,2,0.5,0.5,5,4,210,5,NA
audio-instructions,245,1111728,0.0-220.0,voc_e2,11973,"[{""event"":""fullscreenenter"",""trial"":1,""time"":6540}]",NA,21530.700000047684,static/audio/pause.wav,NA,0,NA,NA,NA,NA,NA,NA,NA,NA,NA,NA,NA,NA,NA,NA,NA,NA,NA,NA,NA,NA,NA,NA,NA,NA,NA
fcp-trial,246,1116647,0.0-221.0-0.0,voc_e2,11973,"[{""event"":""fullscreenenter"",""trial"":1,""time"":6540}]",NA,NA,NA,NA,NA,1,#3386FF,#D89F1C,10,10,1,38,1,2501,37,1,899.7999999523163,10,1,experiment,NA,NA,1,0.7,0.3,2,3,211,5,NA
fcp-trial,247,1121659,0.0-222.0-0.0,voc_e2,11973,"[{""event"":""fullscreenenter"",""trial"":1,""time"":6540}]",NA,NA,NA,NA,NA,0,#741CD8,#D8271C,0,0,0,38,1,1916.5,39,0,1570.5,0,1,experiment,NA,NA,0,0.1,0.9,1,0,212,5,NA
fcp-trial,248,1124526,0.0-223.0-0.0,voc_e2,11973,"[{""event"":""fullscreenenter"",""trial"":1,""time"":6540}]",NA,NA,NA,NA,NA,5,#FA92F8,#1CD855,0,0,1,40,0,780.3999998569489,39,0,579.7000000476837,0,0,experiment,NA,NA,2,0.5,0.5,4,5,213,5,NA
fcp-trial,249,1127990,0.0-224.0-0.0,voc_e2,11973,"[{""event"":""fullscreenenter"",""trial"":1,""time"":6540}]",NA,NA,NA,NA,NA,1,#741CD8,#D8271C,0,0,0,38,1,1317.3000001907349,39,0,641.7999999523163,0,1,experiment,NA,NA,0,0.1,0.9,1,0,214,5,NA
fcp-trial,250,1131018,0.0-225.0-0.0,voc_e2,11973,"[{""event"":""fullscreenenter"",""trial"":1,""time"":6540}]",NA,NA,NA,NA,NA,4,#D8271C,#741CD8,0,0,1,40,0,1056,37,1,467.5,0,1,experiment,NA,NA,0,0.9,0.1,0,1,215,5,NA
fcp-trial,251,1134469,0.0-226.0-0.0,voc_e2,11973,"[{""event"":""fullscreenenter"",""trial"":1,""time"":6540}]",NA,NA,NA,NA,NA,0,#D89F1C,#3386FF,0,10,0,38,1,1389.9000000953674,39,0,554.1000001430511,10,1,experiment,NA,NA,1,0.3,0.7,3,2,216,5,NA
fcp-trial,252,1137900,0.0-227.0-0.0,voc_e2,11973,"[{""event"":""fullscreenenter"",""trial"":1,""time"":6540}]",NA,NA,NA,NA,NA,1,#1CD855,#FA92F8,0,0,0,38,1,1491.1999998092651,39,0,434.10000014305115,0,1,experiment,NA,NA,2,0.5,0.5,5,4,217,5,NA
fcp-trial,253,1140883,0.0-228.0-0.0,voc_e2,11973,"[{""event"":""fullscreenenter"",""trial"":1,""time"":6540}]",NA,NA,NA,NA,NA,5,#D89F1C,#3386FF,0,10,0,40,0,949.1000001430511,37,1,529.1000001430511,0,0,experiment,NA,NA,1,0.3,0.7,3,2,218,5,NA
fcp-trial,254,1143894,0.0-229.0-0.0,voc_e2,11973,"[{""event"":""fullscreenenter"",""trial"":1,""time"":6540}]",NA,NA,NA,NA,NA,5,#D8271C,#741CD8,10,0,1,40,0,908.3999998569489,37,1,596.7000000476837,10,1,experiment,NA,NA,0,0.9,0.1,0,1,219,5,NA
fcp-trial,255,1146599,0.0-230.0-0.0,voc_e2,11973,"[{""event"":""fullscreenenter"",""trial"":1,""time"":6540}]",NA,NA,NA,NA,NA,6,#1CD855,#FA92F8,0,0,0,40,0,709.2999999523163,37,1,490.09999990463257,0,0,experiment,NA,NA,2,0.5,0.5,5,4,220,5,NA
fcp-trial,256,1150000,0.0-231.0-0.0,voc_e2,11973,"[{""event"":""fullscreenenter"",""trial"":1,""time"":6540}]",NA,NA,NA,NA,NA,2,#3386FF,#D89F1C,0,0,1,38,1,1343.7000000476837,37,1,547.2999999523163,0,1,experiment,NA,NA,1,0.7,0.3,2,3,221,5,NA
fcp-trial,257,1152798,0.0-232.0-0.0,voc_e2,11973,"[{""event"":""fullscreenenter"",""trial"":1,""time"":6540}]",NA,NA,NA,NA,NA,0,#1CD855,#FA92F8,0,0,0,38,1,877,39,0,414.2999999523163,0,1,experiment,NA,NA,2,0.5,0.5,5,4,222,5,NA
fcp-trial,258,1155915,0.0-233.0-0.0,voc_e2,11973,"[{""event"":""fullscreenenter"",""trial"":1,""time"":6540}]",NA,NA,NA,NA,NA,6,#D8271C,#741CD8,10,0,1,40,0,1085.5,37,1,525.1000001430511,10,1,experiment,NA,NA,0,0.9,0.1,0,1,223,5,NA
fcp-trial,259,1159486,0.0-234.0-0.0,voc_e2,11973,"[{""event"":""fullscreenenter"",""trial"":1,""time"":6540}]",NA,NA,NA,NA,NA,3,#741CD8,#D8271C,0,10,0,40,0,1474.5,39,0,590.6000001430511,10,1,experiment,NA,NA,0,0.1,0.9,1,0,224,5,NA
fcp-trial,260,1162349,0.0-235.0-0.0,voc_e2,11973,"[{""event"":""fullscreenenter"",""trial"":1,""time"":6540}]",NA,NA,NA,NA,NA,3,#1CD855,#FA92F8,10,10,0,38,1,982.7999999523163,39,0,375.2999999523163,10,1,experiment,NA,NA,2,0.5,0.5,5,4,225,5,NA
fcp-trial,261,1165156,0.0-236.0-0.0,voc_e2,11973,"[{""event"":""fullscreenenter"",""trial"":1,""time"":6540}]",NA,NA,NA,NA,NA,6,#D89F1C,#3386FF,0,10,0,40,0,865.1999998092651,39,0,433.5,10,1,experiment,NA,NA,1,0.3,0.7,3,2,226,6,NA
fcp-trial,262,1168433,0.0-237.0-0.0,voc_e2,11973,"[{""event"":""fullscreenenter"",""trial"":1,""time"":6540}]",NA,NA,NA,NA,NA,4,#3386FF,#D89F1C,0,10,1,40,0,1295.9000000953674,37,1,475.90000009536743,0,1,experiment,NA,NA,1,0.7,0.3,2,3,227,6,NA
fcp-trial,263,1171230,0.0-238.0-0.0,voc_e2,11973,"[{""event"":""fullscreenenter"",""trial"":1,""time"":6540}]",NA,NA,NA,NA,NA,2,#1CD855,#FA92F8,10,10,0,38,1,935.0999999046326,39,0,353.09999990463257,10,1,experiment,NA,NA,2,0.5,0.5,5,4,228,6,NA
fcp-trial,264,1175647,0.0-239.0-0.0,voc_e2,11973,"[{""event"":""fullscreenenter"",""trial"":1,""time"":6540}]",NA,NA,NA,NA,NA,2,#741CD8,#D8271C,0,10,0,38,1,2577.2000000476837,39,0,334.40000009536743,10,1,experiment,NA,NA,0,0.1,0.9,1,0,229,6,NA
fcp-trial,265,1179360,0.0-240.0-0.0,voc_e2,11973,"[{""event"":""fullscreenenter"",""trial"":1,""time"":6540}]",NA,NA,NA,NA,NA,3,#D89F1C,#3386FF,0,10,0,40,0,1258.4000000953674,39,0,948.7000000476836,10,1,experiment,NA,NA,1,0.3,0.7,3,2,230,6,NA
fcp-trial,266,1184614,0.0-241.0-0.0,voc_e2,11973,"[{""event"":""fullscreenenter"",""trial"":1,""time"":6540}]",NA,NA,NA,NA,NA,4,#1CD855,#FA92F8,0,10,0,40,0,3278.5,37,1,468.60000014305115,0,0,experiment,NA,NA,2,0.5,0.5,5,4,231,6,NA
fcp-trial,267,1188594,0.0-242.0-0.0,voc_e2,11973,"[{""event"":""fullscreenenter"",""trial"":1,""time"":6540}]",NA,NA,NA,NA,NA,3,#3386FF,#D89F1C,10,10,1,38,1,1306.2000000476837,37,1,1166.6000001430511,10,1,experiment,NA,NA,1,0.7,0.3,2,3,232,6,NA
fcp-trial,268,1191324,0.0-243.0-0.0,voc_e2,11973,"[{""event"":""fullscreenenter"",""trial"":1,""time"":6540}]",NA,NA,NA,NA,NA,2,#1CD855,#FA92F8,0,0,0,38,1,813.6000001430511,39,0,409.09999990463257,0,1,experiment,NA,NA,2,0.5,0.5,5,4,233,6,NA
fcp-trial,269,1194043,0.0-244.0-0.0,voc_e2,11973,"[{""event"":""fullscreenenter"",""trial"":1,""time"":6540}]",NA,NA,NA,NA,NA,6,#741CD8,#D8271C,0,10,0,40,0,702.6000001430511,37,1,508.90000009536743,0,0,experiment,NA,NA,0,0.1,0.9,1,0,234,6,NA
fcp-trial,270,1197921,0.0-245.0-0.0,voc_e2,11973,"[{""event"":""fullscreenenter"",""trial"":1,""time"":6540}]",NA,NA,NA,NA,NA,4,#1CD855,#FA92F8,0,0,0,40,0,1873.5,37,1,499.69999980926514,0,0,experiment,NA,NA,2,0.5,0.5,5,4,235,6,NA
fcp-trial,271,1202753,0.0-246.0-0.0,voc_e2,11973,"[{""event"":""fullscreenenter"",""trial"":1,""time"":6540}]",NA,NA,NA,NA,NA,0,#D89F1C,#3386FF,0,10,0,38,1,1121.5,39,0,2203.7000000476837,10,1,experiment,NA,NA,1,0.3,0.7,3,2,236,6,NA
fcp-trial,272,1205436,0.0-247.0-0.0,voc_e2,11973,"[{""event"":""fullscreenenter"",""trial"":1,""time"":6540}]",NA,NA,NA,NA,NA,6,#1CD855,#FA92F8,10,10,0,40,0,645.0999999046326,37,1,532.5999999046326,10,0,experiment,NA,NA,2,0.5,0.5,5,4,237,6,NA
fcp-trial,273,1208341,0.0-248.0-0.0,voc_e2,11973,"[{""event"":""fullscreenenter"",""trial"":1,""time"":6540}]",NA,NA,NA,NA,NA,5,#3386FF,#D89F1C,10,0,1,40,0,898.7999999523163,39,0,493.7000000476837,0,0,experiment,NA,NA,1,0.7,0.3,2,3,238,6,NA
fcp-trial,274,1211258,0.0-249.0-0.0,voc_e2,11973,"[{""event"":""fullscreenenter"",""trial"":1,""time"":6540}]",NA,NA,NA,NA,NA,3,#D8271C,#741CD8,10,0,1,38,1,1047,37,1,358.7000000476837,10,1,experiment,NA,NA,0,0.9,0.1,0,1,239,6,NA
fcp-trial,275,1214230,0.0-250.0-0.0,voc_e2,11973,"[{""event"":""fullscreenenter"",""trial"":1,""time"":6540}]",NA,NA,NA,NA,NA,5,#741CD8,#D8271C,0,10,0,40,0,1043.6000001430511,39,0,422.90000009536743,10,1,experiment,NA,NA,0,0.1,0.9,1,0,240,6,NA
fcp-trial,276,1217830,0.0-251.0-0.0,voc_e2,11973,"[{""event"":""fullscreenenter"",""trial"":1,""time"":6540}]",NA,NA,NA,NA,NA,1,#FA92F8,#1CD855,0,0,1,38,1,1640.7000000476837,37,1,444.39999985694885,0,1,experiment,NA,NA,2,0.5,0.5,4,5,241,6,NA
fcp-trial,277,1220520,0.0-252.0-0.0,voc_e2,11973,"[{""event"":""fullscreenenter"",""trial"":1,""time"":6540}]",NA,NA,NA,NA,NA,1,#D8271C,#741CD8,10,0,1,38,1,794.7999999523163,37,1,385.2999999523163,10,1,experiment,NA,NA,0,0.9,0.1,0,1,242,6,NA
fcp-trial,278,1223741,0.0-253.0-0.0,voc_e2,11973,"[{""event"":""fullscreenenter"",""trial"":1,""time"":6540}]",NA,NA,NA,NA,NA,2,#3386FF,#D89F1C,10,10,1,38,1,625.5999999046326,37,1,1087.2999999523165,10,1,experiment,NA,NA,1,0.7,0.3,2,3,243,6,NA
fcp-trial,279,1227291,0.0-254.0-0.0,voc_e2,11973,"[{""event"":""fullscreenenter"",""trial"":1,""time"":6540}]",NA,NA,NA,NA,NA,0,#FA92F8,#1CD855,10,10,1,38,1,1657.7999999523163,37,1,383.2999999523163,10,1,experiment,NA,NA,2,0.5,0.5,4,5,244,6,NA
fcp-trial,280,1230215,0.0-255.0-0.0,voc_e2,11973,"[{""event"":""fullscreenenter"",""trial"":1,""time"":6540}]",NA,NA,NA,NA,NA,1,#D89F1C,#3386FF,0,0,0,38,1,1088.2000000476837,37,1,330.40000009536743,0,0,experiment,NA,NA,1,0.3,0.7,3,2,245,6,NA
fcp-trial,281,1233074,0.0-256.0-0.0,voc_e2,11973,"[{""event"":""fullscreenenter"",""trial"":1,""time"":6540}]",NA,NA,NA,NA,NA,2,#D8271C,#741CD8,10,0,1,38,1,991,37,1,362,10,1,experiment,NA,NA,0,0.9,0.1,0,1,246,6,NA
fcp-trial,282,1237460,0.0-257.0-0.0,voc_e2,11973,"[{""event"":""fullscreenenter"",""trial"":1,""time"":6540}]",NA,NA,NA,NA,NA,3,#1CD855,#FA92F8,0,0,0,40,0,2395.5,37,1,485.60000014305115,0,0,experiment,NA,NA,2,0.5,0.5,5,4,247,6,NA
fcp-trial,283,1240603,0.0-258.0-0.0,voc_e2,11973,"[{""event"":""fullscreenenter"",""trial"":1,""time"":6540}]",NA,NA,NA,NA,NA,5,#1CD855,#FA92F8,10,0,0,40,0,1081.5,37,1,553.0999999046326,10,0,experiment,NA,NA,2,0.5,0.5,5,4,248,6,NA
fcp-trial,284,1243499,0.0-259.0-0.0,voc_e2,11973,"[{""event"":""fullscreenenter"",""trial"":1,""time"":6540}]",NA,NA,NA,NA,NA,6,#3386FF,#D89F1C,10,10,1,40,0,880.7000000476837,39,0,509.7000000476837,10,0,experiment,NA,NA,1,0.7,0.3,2,3,249,6,NA
fcp-trial,285,1246622,0.0-260.0-0.0,voc_e2,11973,"[{""event"":""fullscreenenter"",""trial"":1,""time"":6540}]",NA,NA,NA,NA,NA,0,#D8271C,#741CD8,10,0,1,38,1,1166.9000000953674,37,1,450.2999999523163,10,1,experiment,NA,NA,0,0.9,0.1,0,1,250,6,NA
fcp-trial,286,1249605,0.0-261.0-0.0,voc_e2,11973,"[{""event"":""fullscreenenter"",""trial"":1,""time"":6540}]",NA,NA,NA,NA,NA,4,#741CD8,#D8271C,0,10,0,40,0,1024.2000000476837,39,0,452.90000009536743,10,1,experiment,NA,NA,0,0.1,0.9,1,0,251,6,NA
fcp-trial,287,1252446,0.0-262.0-0.0,voc_e2,11973,"[{""event"":""fullscreenenter"",""trial"":1,""time"":6540}]",NA,NA,NA,NA,NA,4,#D89F1C,#3386FF,0,10,0,40,0,841.8999998569489,39,0,491.60000014305115,10,1,experiment,NA,NA,1,0.3,0.7,3,2,252,6,NA
fcp-trial,288,1256779,0.0-263.0-0.0,voc_e2,11973,"[{""event"":""fullscreenenter"",""trial"":1,""time"":6540}]",NA,NA,NA,NA,NA,2,#741CD8,#D8271C,0,10,0,38,1,883.2999999523163,39,0,1939.7999999523165,10,1,experiment,NA,NA,0,0.1,0.9,1,0,253,6,NA
fcp-trial,289,1260726,0.0-264.0-0.0,voc_e2,11973,"[{""event"":""fullscreenenter"",""trial"":1,""time"":6540}]",NA,NA,NA,NA,NA,0,#D8271C,#741CD8,0,0,1,38,1,1776.2999999523163,37,1,665,0,1,experiment,NA,NA,0,0.9,0.1,0,1,254,6,NA
fcp-trial,290,1264555,0.0-265.0-0.0,voc_e2,11973,"[{""event"":""fullscreenenter"",""trial"":1,""time"":6540}]",NA,NA,NA,NA,NA,0,#1CD855,#FA92F8,10,10,0,38,1,922.1000001430511,39,0,1401.9000000953674,10,1,experiment,NA,NA,2,0.5,0.5,5,4,255,6,NA
fcp-trial,291,1267367,0.0-266.0-0.0,voc_e2,11973,"[{""event"":""fullscreenenter"",""trial"":1,""time"":6540}]",NA,NA,NA,NA,NA,3,#3386FF,#D89F1C,0,0,1,40,0,843.5,39,0,460,0,0,experiment,NA,NA,1,0.7,0.3,2,3,256,6,NA
fcp-trial,292,1270169,0.0-267.0-0.0,voc_e2,11973,"[{""event"":""fullscreenenter"",""trial"":1,""time"":6540}]",NA,NA,NA,NA,NA,3,#741CD8,#D8271C,0,0,0,40,0,720.8999998569489,37,1,574.0999999046326,0,0,experiment,NA,NA,0,0.1,0.9,1,0,257,6,NA
fcp-trial,293,1272940,0.0-268.0-0.0,voc_e2,11973,"[{""event"":""fullscreenenter"",""trial"":1,""time"":6540}]",NA,NA,NA,NA,NA,0,#D89F1C,#3386FF,10,10,0,38,1,880.2000000476837,39,0,384.89999985694885,10,1,experiment,NA,NA,1,0.3,0.7,3,2,258,6,NA
fcp-trial,294,1275745,0.0-269.0-0.0,voc_e2,11973,"[{""event"":""fullscreenenter"",""trial"":1,""time"":6540}]",NA,NA,NA,NA,NA,3,#FA92F8,#1CD855,10,10,1,40,0,714.2000000476837,39,0,584.9000000953674,10,0,experiment,NA,NA,2,0.5,0.5,4,5,259,6,NA
fcp-trial,295,1278380,0.0-270.0-0.0,voc_e2,11973,"[{""event"":""fullscreenenter"",""trial"":1,""time"":6540}]",NA,NA,NA,NA,NA,4,#3386FF,#D89F1C,10,0,1,40,0,627.3000001907349,39,0,499.59999990463257,0,0,experiment,NA,NA,1,0.7,0.3,2,3,260,6,NA
fcp-trial,296,1281123,0.0-271.0-0.0,voc_e2,11973,"[{""event"":""fullscreenenter"",""trial"":1,""time"":6540}]",NA,NA,NA,NA,NA,4,#741CD8,#D8271C,0,10,0,40,0,828.8999998569489,39,0,409.19999980926514,10,1,experiment,NA,NA,0,0.1,0.9,1,0,261,6,NA
fcp-trial,297,1283873,0.0-272.0-0.0,voc_e2,11973,"[{""event"":""fullscreenenter"",""trial"":1,""time"":6540}]",NA,NA,NA,NA,NA,5,#3386FF,#D89F1C,10,0,1,40,0,669.6000001430511,37,1,575.7999999523163,10,1,experiment,NA,NA,1,0.7,0.3,2,3,262,6,NA
fcp-trial,298,1286516,0.0-273.0-0.0,voc_e2,11973,"[{""event"":""fullscreenenter"",""trial"":1,""time"":6540}]",NA,NA,NA,NA,NA,5,#1CD855,#FA92F8,10,10,0,40,0,710.9000000953674,39,0,426.69999980926514,10,1,experiment,NA,NA,2,0.5,0.5,5,4,263,6,NA
fcp-trial,299,1289142,0.0-274.0-0.0,voc_e2,11973,"[{""event"":""fullscreenenter"",""trial"":1,""time"":6540}]",NA,NA,NA,NA,NA,6,#FA92F8,#1CD855,0,10,1,40,0,653.3000001907349,37,1,466.69999980926514,0,1,experiment,NA,NA,2,0.5,0.5,4,5,264,6,NA
fcp-trial,300,1291833,0.0-275.0-0.0,voc_e2,11973,"[{""event"":""fullscreenenter"",""trial"":1,""time"":6540}]",NA,NA,NA,NA,NA,5,#D8271C,#741CD8,10,0,1,40,0,700.8999998569489,39,0,483,0,0,experiment,NA,NA,0,0.9,0.1,0,1,265,6,NA
fcp-trial,301,1294964,0.0-276.0-0.0,voc_e2,11973,"[{""event"":""fullscreenenter"",""trial"":1,""time"":6540}]",NA,NA,NA,NA,NA,2,#3386FF,#D89F1C,10,0,1,38,1,1213.7999999523163,37,1,411.5,10,1,experiment,NA,NA,1,0.7,0.3,2,3,266,6,NA
fcp-trial,302,1298422,0.0-277.0-0.0,voc_e2,11973,"[{""event"":""fullscreenenter"",""trial"":1,""time"":6540}]",NA,NA,NA,NA,NA,2,#FA92F8,#1CD855,10,0,1,38,1,1576.5,37,1,375.7000000476837,10,1,experiment,NA,NA,2,0.5,0.5,4,5,267,6,NA
fcp-trial,303,1301517,0.0-278.0-0.0,voc_e2,11973,"[{""event"":""fullscreenenter"",""trial"":1,""time"":6540}]",NA,NA,NA,NA,NA,1,#FA92F8,#1CD855,0,0,1,38,1,1118.7000000476837,37,1,470,0,1,experiment,NA,NA,2,0.5,0.5,4,5,268,6,NA
fcp-trial,304,1304504,0.0-279.0-0.0,voc_e2,11973,"[{""event"":""fullscreenenter"",""trial"":1,""time"":6540}]",NA,NA,NA,NA,NA,6,#3386FF,#D89F1C,10,0,1,38,1,960.5999999046326,37,1,517.5999999046326,10,1,experiment,NA,NA,1,0.7,0.3,2,3,269,6,NA
fcp-trial,305,1307601,0.0-280.0-0.0,voc_e2,11973,"[{""event"":""fullscreenenter"",""trial"":1,""time"":6540}]",NA,NA,NA,NA,NA,6,#741CD8,#D8271C,0,10,0,40,0,1039.7000000476837,37,1,549.8999998569489,0,0,experiment,NA,NA,0,0.1,0.9,1,0,270,6,NA
fcp-trial,306,1312361,0.0-281.0-0.0,voc_e2,11973,"[{""event"":""fullscreenenter"",""trial"":1,""time"":6540}]",NA,NA,NA,NA,NA,1,#741CD8,#D8271C,10,10,0,40,0,1792.2000000476837,37,1,1462.2999999523165,10,0,experiment,NA,NA,0,0.1,0.9,1,0,271,7,NA
fcp-trial,307,1315282,0.0-282.0-0.0,voc_e2,11973,"[{""event"":""fullscreenenter"",""trial"":1,""time"":6540}]",NA,NA,NA,NA,NA,4,#FA92F8,#1CD855,0,10,1,40,0,1004.8000001907349,37,1,410.09999990463257,0,1,experiment,NA,NA,2,0.5,0.5,4,5,272,7,NA
fcp-trial,308,1321157,0.0-283.0-0.0,voc_e2,11973,"[{""event"":""fullscreenenter"",""trial"":1,""time"":6540}]",NA,NA,NA,NA,NA,1,#3386FF,#D89F1C,0,0,1,38,1,3388.2000000476837,37,1,981.8999998569489,0,1,experiment,NA,NA,1,0.7,0.3,2,3,273,7,NA
fcp-trial,309,1324618,0.0-284.0-0.0,voc_e2,11973,"[{""event"":""fullscreenenter"",""trial"":1,""time"":6540}]",NA,NA,NA,NA,NA,2,#1CD855,#FA92F8,0,10,0,38,1,1357.2999999523163,39,0,596.6000001430511,10,1,experiment,NA,NA,2,0.5,0.5,5,4,274,7,NA
fcp-trial,310,1329026,0.0-285.0-0.0,voc_e2,11973,"[{""event"":""fullscreenenter"",""trial"":1,""time"":6540}]",NA,NA,NA,NA,NA,1,#3386FF,#D89F1C,0,0,1,40,0,2083.399999856949,37,1,819.7999999523163,0,1,experiment,NA,NA,1,0.7,0.3,2,3,275,7,NA
fcp-trial,311,1334651,0.0-286.0-0.0,voc_e2,11973,"[{""event"":""fullscreenenter"",""trial"":1,""time"":6540}]",NA,NA,NA,NA,NA,1,#FA92F8,#1CD855,0,0,1,38,1,3715.0999999046326,37,1,394.40000009536743,0,1,experiment,NA,NA,2,0.5,0.5,4,5,276,7,NA
fcp-trial,312,1337549,0.0-287.0-0.0,voc_e2,11973,"[{""event"":""fullscreenenter"",""trial"":1,""time"":6540}]",NA,NA,NA,NA,NA,4,#3386FF,#D89F1C,10,0,1,40,0,874.2000000476837,39,0,515.6000001430511,0,0,experiment,NA,NA,1,0.7,0.3,2,3,277,7,NA
fcp-trial,313,1341556,0.0-288.0-0.0,voc_e2,11973,"[{""event"":""fullscreenenter"",""trial"":1,""time"":6540}]",NA,NA,NA,NA,NA,2,#741CD8,#D8271C,0,10,0,38,1,2180.2000000476837,39,0,321.2999999523163,10,1,experiment,NA,NA,0,0.1,0.9,1,0,278,7,NA
fcp-trial,314,1346609,0.0-289.0-0.0,voc_e2,11973,"[{""event"":""fullscreenenter"",""trial"":1,""time"":6540}]",NA,NA,NA,NA,NA,5,#3386FF,#D89F1C,0,0,1,40,0,2814.5,37,1,730.5,0,1,experiment,NA,NA,1,0.7,0.3,2,3,279,7,NA
fcp-trial,315,1350542,0.0-290.0-0.0,voc_e2,11973,"[{""event"":""fullscreenenter"",""trial"":1,""time"":6540}]",NA,NA,NA,NA,NA,0,#D89F1C,#3386FF,10,10,0,38,1,2037.9000000953674,39,0,389.90000009536743,10,1,experiment,NA,NA,1,0.3,0.7,3,2,280,7,NA
fcp-trial,316,1353178,0.0-291.0-0.0,voc_e2,11973,"[{""event"":""fullscreenenter"",""trial"":1,""time"":6540}]",NA,NA,NA,NA,NA,5,#FA92F8,#1CD855,10,10,1,40,0,720.7000000476837,37,1,409.19999980926514,10,1,experiment,NA,NA,2,0.5,0.5,4,5,281,7,NA
fcp-trial,317,1356536,0.0-292.0-0.0,voc_e2,11973,"[{""event"":""fullscreenenter"",""trial"":1,""time"":6540}]",NA,NA,NA,NA,NA,2,#D89F1C,#3386FF,10,10,0,38,1,1204.5999999046326,37,1,646.7000000476837,10,0,experiment,NA,NA,1,0.3,0.7,3,2,282,7,NA
fcp-trial,318,1360262,0.0-293.0-0.0,voc_e2,11973,"[{""event"":""fullscreenenter"",""trial"":1,""time"":6540}]",NA,NA,NA,NA,NA,0,#D8271C,#741CD8,10,0,1,38,1,1642.5,37,1,576.4000000953674,10,1,experiment,NA,NA,0,0.9,0.1,0,1,283,7,NA
fcp-trial,319,1363539,0.0-294.0-0.0,voc_e2,11973,"[{""event"":""fullscreenenter"",""trial"":1,""time"":6540}]",NA,NA,NA,NA,NA,3,#1CD855,#FA92F8,10,0,0,40,0,885.5999999046326,37,1,885.6999998092651,10,0,experiment,NA,NA,2,0.5,0.5,5,4,284,7,NA
fcp-trial,320,1366479,0.0-295.0-0.0,voc_e2,11973,"[{""event"":""fullscreenenter"",""trial"":1,""time"":6540}]",NA,NA,NA,NA,NA,6,#D89F1C,#3386FF,0,10,0,40,0,667.2000000476837,39,0,763.8999998569489,10,1,experiment,NA,NA,1,0.3,0.7,3,2,285,7,NA
fcp-trial,321,1369447,0.0-296.0-0.0,voc_e2,11973,"[{""event"":""fullscreenenter"",""trial"":1,""time"":6540}]",NA,NA,NA,NA,NA,0,#1CD855,#FA92F8,0,10,0,38,1,1014.2999999523163,39,0,447.2999999523163,10,1,experiment,NA,NA,2,0.5,0.5,5,4,286,7,NA
fcp-trial,322,1372145,0.0-297.0-0.0,voc_e2,11973,"[{""event"":""fullscreenenter"",""trial"":1,""time"":6540}]",NA,NA,NA,NA,NA,6,#741CD8,#D8271C,0,10,0,40,0,694.2000000476837,39,0,492.7999999523163,10,1,experiment,NA,NA,0,0.1,0.9,1,0,287,7,NA
fcp-trial,323,1375379,0.0-298.0-0.0,voc_e2,11973,"[{""event"":""fullscreenenter"",""trial"":1,""time"":6540}]",NA,NA,NA,NA,NA,3,#D8271C,#741CD8,10,0,1,40,0,1347.5,37,1,377.90000009536743,10,1,experiment,NA,NA,0,0.9,0.1,0,1,288,7,NA
fcp-trial,324,1378066,0.0-299.0-0.0,voc_e2,11973,"[{""event"":""fullscreenenter"",""trial"":1,""time"":6540}]",NA,NA,NA,NA,NA,4,#FA92F8,#1CD855,0,10,1,40,0,686,37,1,495.2000000476837,0,1,experiment,NA,NA,2,0.5,0.5,4,5,289,7,NA
fcp-trial,325,1381708,0.0-300.0-0.0,voc_e2,11973,"[{""event"":""fullscreenenter"",""trial"":1,""time"":6540}]",NA,NA,NA,NA,NA,3,#3386FF,#D89F1C,10,0,1,40,0,1733.5999999046326,37,1,403.10000014305115,10,1,experiment,NA,NA,1,0.7,0.3,2,3,290,7,NA
fcp-trial,326,1384562,0.0-301.0-0.0,voc_e2,11973,"[{""event"":""fullscreenenter"",""trial"":1,""time"":6540}]",NA,NA,NA,NA,NA,4,#741CD8,#D8271C,0,0,0,40,0,926,39,0,421.90000009536743,0,1,experiment,NA,NA,0,0.1,0.9,1,0,291,7,NA
fcp-trial,327,1388014,0.0-302.0-0.0,voc_e2,11973,"[{""event"":""fullscreenenter"",""trial"":1,""time"":6540}]",NA,NA,NA,NA,NA,5,#741CD8,#D8271C,0,10,0,40,0,902.9000000953674,37,1,1043,0,0,experiment,NA,NA,0,0.1,0.9,1,0,292,7,NA
fcp-trial,328,1390741,0.0-303.0-0.0,voc_e2,11973,"[{""event"":""fullscreenenter"",""trial"":1,""time"":6540}]",NA,NA,NA,NA,NA,6,#1CD855,#FA92F8,0,0,0,40,0,660.0999999046326,37,1,555,0,0,experiment,NA,NA,2,0.5,0.5,5,4,293,7,NA
fcp-trial,329,1393923,0.0-304.0-0.0,voc_e2,11973,"[{""event"":""fullscreenenter"",""trial"":1,""time"":6540}]",NA,NA,NA,NA,NA,1,#741CD8,#D8271C,0,10,0,38,1,746,39,0,929.8999998569489,10,1,experiment,NA,NA,0,0.1,0.9,1,0,294,7,NA
fcp-trial,330,1397055,0.0-305.0-0.0,voc_e2,11973,"[{""event"":""fullscreenenter"",""trial"":1,""time"":6540}]",NA,NA,NA,NA,NA,0,#741CD8,#D8271C,10,0,0,38,1,1183,39,0,443,0,1,experiment,NA,NA,0,0.1,0.9,1,0,295,7,NA
fcp-trial,331,1399863,0.0-306.0-0.0,voc_e2,11973,"[{""event"":""fullscreenenter"",""trial"":1,""time"":6540}]",NA,NA,NA,NA,NA,3,#1CD855,#FA92F8,10,10,0,38,1,876.3999998569489,39,0,422.30000019073486,10,1,experiment,NA,NA,2,0.5,0.5,5,4,296,7,NA
fcp-trial,332,1403407,0.0-307.0-0.0,voc_e2,11973,"[{""event"":""fullscreenenter"",""trial"":1,""time"":6540}]",NA,NA,NA,NA,NA,3,#3386FF,#D89F1C,0,10,1,38,1,1321.5,37,1,717.1000001430511,0,1,experiment,NA,NA,1,0.7,0.3,2,3,297,7,NA
fcp-trial,333,1406390,0.0-308.0-0.0,voc_e2,11973,"[{""event"":""fullscreenenter"",""trial"":1,""time"":6540}]",NA,NA,NA,NA,NA,1,#D8271C,#741CD8,0,0,1,38,1,851.5999999046326,37,1,626.3999998569489,0,1,experiment,NA,NA,0,0.9,0.1,0,1,298,7,NA
fcp-trial,334,1409563,0.0-309.0-0.0,voc_e2,11973,"[{""event"":""fullscreenenter"",""trial"":1,""time"":6540}]",NA,NA,NA,NA,NA,4,#D89F1C,#3386FF,0,10,0,40,0,1089,39,0,576,10,1,experiment,NA,NA,1,0.3,0.7,3,2,299,7,NA
fcp-trial,335,1412495,0.0-310.0-0.0,voc_e2,11973,"[{""event"":""fullscreenenter"",""trial"":1,""time"":6540}]",NA,NA,NA,NA,NA,4,#1CD855,#FA92F8,0,10,0,40,0,980.7999999523163,39,0,445.2000000476837,10,1,experiment,NA,NA,2,0.5,0.5,5,4,300,7,NA
fcp-trial,336,1416410,0.0-311.0-0.0,voc_e2,11973,"[{""event"":""fullscreenenter"",""trial"":1,""time"":6540}]",NA,NA,NA,NA,NA,0,#1CD855,#FA92F8,0,0,0,38,1,1290.7999999523163,39,0,1120,0,1,experiment,NA,NA,2,0.5,0.5,5,4,301,7,NA
fcp-trial,337,1420823,0.0-312.0-0.0,voc_e2,11973,"[{""event"":""fullscreenenter"",""trial"":1,""time"":6540}]",NA,NA,NA,NA,NA,2,#741CD8,#D8271C,0,10,0,38,1,2554.7999999523163,39,0,351,10,1,experiment,NA,NA,0,0.1,0.9,1,0,302,7,NA
fcp-trial,338,1425430,0.0-313.0-0.0,voc_e2,11973,"[{""event"":""fullscreenenter"",""trial"":1,""time"":6540}]",NA,NA,NA,NA,NA,2,#3386FF,#D89F1C,10,0,1,40,0,2458.199999809265,37,1,642.2000000476837,10,1,experiment,NA,NA,1,0.7,0.3,2,3,303,7,NA
fcp-trial,339,1428666,0.0-314.0-0.0,voc_e2,11973,"[{""event"":""fullscreenenter"",""trial"":1,""time"":6540}]",NA,NA,NA,NA,NA,2,#1CD855,#FA92F8,10,0,0,38,1,1391.4000000953674,39,0,337.09999990463257,0,1,experiment,NA,NA,2,0.5,0.5,5,4,304,7,NA
fcp-trial,340,1432177,0.0-315.0-0.0,voc_e2,11973,"[{""event"":""fullscreenenter"",""trial"":1,""time"":6540}]",NA,NA,NA,NA,NA,1,#D89F1C,#3386FF,0,0,0,38,1,1627.2000000476837,39,0,378,0,1,experiment,NA,NA,1,0.3,0.7,3,2,305,7,NA
fcp-trial,341,1434637,0.0-316.0-0.0,voc_e2,11973,"[{""event"":""fullscreenenter"",""trial"":1,""time"":6540}]",NA,NA,NA,NA,NA,4,#741CD8,#D8271C,0,10,0,40,0,587,39,0,367,10,1,experiment,NA,NA,0,0.1,0.9,1,0,306,7,NA
fcp-trial,342,1437623,0.0-317.0-0.0,voc_e2,11973,"[{""event"":""fullscreenenter"",""trial"":1,""time"":6540}]",NA,NA,NA,NA,NA,6,#FA92F8,#1CD855,0,0,1,40,0,926.9000000953674,37,1,550.9000000953674,0,1,experiment,NA,NA,2,0.5,0.5,4,5,307,7,NA
fcp-trial,343,1440607,0.0-318.0-0.0,voc_e2,11973,"[{""event"":""fullscreenenter"",""trial"":1,""time"":6540}]",NA,NA,NA,NA,NA,5,#741CD8,#D8271C,0,10,0,40,0,827.5,37,1,651.4000000953674,0,0,experiment,NA,NA,0,0.1,0.9,1,0,308,7,NA
fcp-trial,344,1443099,0.0-319.0-0.0,voc_e2,11973,"[{""event"":""fullscreenenter"",""trial"":1,""time"":6540}]",NA,NA,NA,NA,NA,5,#D89F1C,#3386FF,0,10,0,40,0,550.8000001907349,39,0,434.2000000476837,10,1,experiment,NA,NA,1,0.3,0.7,3,2,309,7,NA
fcp-trial,345,1446524,0.0-320.0-0.0,voc_e2,11973,"[{""event"":""fullscreenenter"",""trial"":1,""time"":6540}]",NA,NA,NA,NA,NA,3,#D8271C,#741CD8,10,0,1,38,1,1385.7000000476837,37,1,534,10,1,experiment,NA,NA,0,0.9,0.1,0,1,310,7,NA
fcp-trial,346,1449183,0.0-321.0-0.0,voc_e2,11973,"[{""event"":""fullscreenenter"",""trial"":1,""time"":6540}]",NA,NA,NA,NA,NA,5,#1CD855,#FA92F8,0,0,0,40,0,611.7999999523163,37,1,537.1999998092651,0,0,experiment,NA,NA,2,0.5,0.5,5,4,311,7,NA
fcp-trial,347,1451776,0.0-322.0-0.0,voc_e2,11973,"[{""event"":""fullscreenenter"",""trial"":1,""time"":6540}]",NA,NA,NA,NA,NA,6,#741CD8,#D8271C,0,10,0,40,0,576.5,39,0,511.19999980926514,10,1,experiment,NA,NA,0,0.1,0.9,1,0,312,7,NA
fcp-trial,348,1454772,0.0-323.0-0.0,voc_e2,11973,"[{""event"":""fullscreenenter"",""trial"":1,""time"":6540}]",NA,NA,NA,NA,NA,0,#D89F1C,#3386FF,0,10,0,38,1,1065.6000001430511,39,0,423.09999990463257,10,1,experiment,NA,NA,1,0.3,0.7,3,2,313,7,NA
fcp-trial,349,1457484,0.0-324.0-0.0,voc_e2,11973,"[{""event"":""fullscreenenter"",""trial"":1,""time"":6540}]",NA,NA,NA,NA,NA,6,#D89F1C,#3386FF,0,0,0,40,0,694.2000000476837,39,0,510.5,0,1,experiment,NA,NA,1,0.3,0.7,3,2,314,7,NA
fcp-trial,350,1461447,0.0-325.0-0.0,voc_e2,11973,"[{""event"":""fullscreenenter"",""trial"":1,""time"":6540}]",NA,NA,NA,NA,NA,1,#FA92F8,#1CD855,0,0,1,38,1,880.7999999523163,37,1,1574.0999999046326,0,1,experiment,NA,NA,2,0.5,0.5,4,5,315,7,NA
audio-instructions,351,1468480,0.0-326.0,voc_e2,11973,"[{""event"":""fullscreenenter"",""trial"":1,""time"":6540}]",NA,991,static/audio/finished.wav,NA,0,NA,NA,NA,NA,NA,NA,NA,NA,NA,NA,NA,NA,NA,NA,NA,NA,NA,NA,NA,NA,NA,NA,NA,NA,NA
audio-instructions,352,1481470,0.0-327.0-0.0,voc_e2,11973,"[{""event"":""fullscreenenter"",""trial"":1,""time"":6540}]",NA,2149.2999999523163,static/audio/explicit1.wav,NA,0,NA,NA,NA,NA,NA,NA,NA,NA,NA,NA,NA,NA,NA,NA,NA,NA,NA,NA,NA,NA,NA,NA,NA,NA,NA
audio-instructions,353,1490043,0.0-327.0-1.0,voc_e2,11973,"[{""event"":""fullscreenenter"",""trial"":1,""time"":6540}]",NA,973.5,static/audio/explicit2.wav,NA,0,NA,NA,NA,NA,NA,NA,NA,NA,NA,NA,NA,NA,NA,NA,NA,NA,NA,NA,NA,NA,NA,NA,NA,NA,NA
image-slider-response,354,1500234,0.0-328.0,voc_e2,11973,"[{""event"":""fullscreenenter"",""trial"":1,""time"":6540}]",NA,10189.200000047684,static/img/machines/machine2.png,NA,NA,NA,NA,NA,NA,NA,NA,NA,NA,NA,NA,NA,NA,NA,NA,explicit,NA,NA,NA,NA,NA,NA,NA,NA,NA,3
image-slider-response,355,1504215,0.0-329.0,voc_e2,11973,"[{""event"":""fullscreenenter"",""trial"":1,""time"":6540}]",NA,3979.800000190735,static/img/machines/machine5.png,NA,NA,NA,NA,NA,NA,NA,NA,NA,NA,NA,NA,NA,NA,NA,NA,explicit,NA,NA,NA,NA,NA,NA,NA,NA,NA,5
image-slider-response,356,1510857,0.0-330.0,voc_e2,11973,"[{""event"":""fullscreenenter"",""trial"":1,""time"":6540}]",NA,6639.800000190735,static/img/machines/machine6.png,NA,NA,NA,NA,NA,NA,NA,NA,NA,NA,NA,NA,NA,NA,NA,NA,explicit,NA,NA,NA,NA,NA,NA,NA,NA,NA,2
image-slider-response,357,1515119,0.0-331.0,voc_e2,11973,"[{""event"":""fullscreenenter"",""trial"":1,""time"":6540}]",NA,4258.200000047684,static/img/machines/machine4.png,NA,NA,NA,NA,NA,NA,NA,NA,NA,NA,NA,NA,NA,NA,NA,NA,explicit,NA,NA,NA,NA,NA,NA,NA,NA,NA,1
image-slider-response,358,1521347,0.0-332.0,voc_e2,11973,"[{""event"":""fullscreenenter"",""trial"":1,""time"":6540}]",NA,6226.300000190735,static/img/machines/machine1.png,NA,NA,NA,NA,NA,NA,NA,NA,NA,NA,NA,NA,NA,NA,NA,NA,explicit,NA,NA,NA,NA,NA,NA,NA,NA,NA,9
image-slider-response,359,1526851,0.0-333.0,voc_e2,11973,"[{""event"":""fullscreenenter"",""trial"":1,""time"":6540}]",NA,5502.200000047684,static/img/machines/machine3.png,NA,NA,NA,NA,NA,NA,NA,NA,NA,NA,NA,NA,NA,NA,NA,NA,explicit,NA,NA,NA,NA,NA,NA,NA,NA,NA,8
