trial_type,trial_index,time_elapsed,internal_node_id,task_version,subject_id,interactions,success,rt,stimulus,key_press,button_pressed,offer,arcade_color_L,arcade_color_R,arcade_outcome_L,arcade_outcome_R,correct,stage_1_key,stage_1_choice,stage_1_rt,stage_2_key,stage_2_choice,stage_2_rt,stage_3_outcome,accuracy,phase,responses,num_errors,context,reward_prob_L,reward_prob_R,arcade_id_L,arcade_id_R,trial,block,response
pavlovia,0,8,0.0-0.0,voc_e2,12257,[],NA,NA,NA,NA,NA,NA,NA,NA,NA,NA,NA,NA,NA,NA,NA,NA,NA,NA,NA,NA,NA,NA,NA,NA,NA,NA,NA,NA,NA,NA
fullscreen,1,3497,0.0-1.0,voc_e2,12257,"[{""event"":""fullscreenenter"",""trial"":1,""time"":2522}]",TRUE,NA,NA,NA,NA,NA,NA,NA,NA,NA,NA,NA,NA,NA,NA,NA,NA,NA,NA,NA,NA,NA,NA,NA,NA,NA,NA,NA,NA,NA
audio-keyboard-response,2,5761,0.0-2.0,voc_e2,12257,"[{""event"":""fullscreenenter"",""trial"":1,""time"":2522}]",NA,2247,static/audio/beep_loop.wav,32,NA,NA,NA,NA,NA,NA,NA,NA,NA,NA,NA,NA,NA,NA,NA,NA,NA,NA,NA,NA,NA,NA,NA,NA,NA,NA
audio-test,3,7113,0.0-3.0,voc_e2,12257,"[{""event"":""fullscreenenter"",""trial"":1,""time"":2522}]",NA,NA,static/audio/turtle.wav,NA,3,NA,NA,NA,NA,NA,NA,NA,NA,NA,NA,NA,NA,NA,NA,NA,NA,NA,NA,NA,NA,NA,NA,NA,NA,NA
audio-test,4,9264,0.0-4.0,voc_e2,12257,"[{""event"":""fullscreenenter"",""trial"":1,""time"":2522}]",NA,NA,static/audio/shark.wav,NA,2,NA,NA,NA,NA,NA,NA,NA,NA,NA,NA,NA,NA,NA,NA,NA,NA,NA,NA,NA,NA,NA,NA,NA,NA,NA
audio-instructions,5,16564,0.0-5.0-0.0,voc_e2,12257,"[{""event"":""fullscreenenter"",""trial"":1,""time"":2522}]",NA,1512,static/audio/instructions1.wav,NA,0,NA,NA,NA,NA,NA,NA,NA,NA,NA,NA,NA,NA,NA,NA,NA,NA,NA,NA,NA,NA,NA,NA,NA,NA,NA
audio-instructions,6,24445,0.0-5.0-1.0,voc_e2,12257,"[{""event"":""fullscreenenter"",""trial"":1,""time"":2522}]",NA,1133.5,static/audio/instructions2.wav,NA,0,NA,NA,NA,NA,NA,NA,NA,NA,NA,NA,NA,NA,NA,NA,NA,NA,NA,NA,NA,NA,NA,NA,NA,NA,NA
audio-instructions,7,30896,0.0-5.0-2.0,voc_e2,12257,"[{""event"":""fullscreenenter"",""trial"":1,""time"":2522}]",NA,647.6000000238419,static/audio/instructions3.wav,NA,0,NA,NA,NA,NA,NA,NA,NA,NA,NA,NA,NA,NA,NA,NA,NA,NA,NA,NA,NA,NA,NA,NA,NA,NA,NA
audio-instructions,8,48062,0.0-5.0-3.0,voc_e2,12257,"[{""event"":""fullscreenenter"",""trial"":1,""time"":2522}]",NA,3933.899999976158,static/audio/instructions4.wav,NA,0,NA,NA,NA,NA,NA,NA,NA,NA,NA,NA,NA,NA,NA,NA,NA,NA,NA,NA,NA,NA,NA,NA,NA,NA,NA
audio-instructions,9,58329,0.0-5.0-4.0,voc_e2,12257,"[{""event"":""fullscreenenter"",""trial"":1,""time"":2522}]",NA,878.1000000238419,static/audio/instructions5.wav,NA,0,NA,NA,NA,NA,NA,NA,NA,NA,NA,NA,NA,NA,NA,NA,NA,NA,NA,NA,NA,NA,NA,NA,NA,NA,NA
fcp-practice,10,60680,0.0-5.0-5.0-0.0,voc_e2,12257,"[{""event"":""fullscreenenter"",""trial"":1,""time"":2522}]",NA,NA,NA,NA,NA,NA,#EDC948,#46d3c8,10,0,1,null,null,null,37,1,839.8000000119209,10,1,practice,NA,NA,NA,NA,NA,NA,NA,NA,NA,NA
fcp-practice,11,62894,0.0-5.0-5.0-1.0,voc_e2,12257,"[{""event"":""fullscreenenter"",""trial"":1,""time"":2522}]",NA,NA,NA,NA,NA,NA,#EDC948,#46d3c8,10,0,1,null,null,null,37,1,712,10,1,practice,NA,NA,NA,NA,NA,NA,NA,NA,NA,NA
fcp-practice,12,64741,0.0-5.0-5.0-2.0,voc_e2,12257,"[{""event"":""fullscreenenter"",""trial"":1,""time"":2522}]",NA,NA,NA,NA,NA,NA,#EDC948,#46d3c8,0,10,1,null,null,null,37,1,343.0999999642372,0,1,practice,NA,NA,NA,NA,NA,NA,NA,NA,NA,NA
fcp-practice,13,66539,0.0-5.0-5.0-3.0,voc_e2,12257,"[{""event"":""fullscreenenter"",""trial"":1,""time"":2522}]",NA,NA,NA,NA,NA,NA,#EDC948,#46d3c8,10,0,1,null,null,null,37,1,292.19999998807907,10,1,practice,NA,NA,NA,NA,NA,NA,NA,NA,NA,NA
fcp-practice,14,68217,0.0-5.0-5.0-4.0,voc_e2,12257,"[{""event"":""fullscreenenter"",""trial"":1,""time"":2522}]",NA,NA,NA,NA,NA,NA,#EDC948,#46d3c8,10,0,1,null,null,null,37,1,171.0999999642372,10,1,practice,NA,NA,NA,NA,NA,NA,NA,NA,NA,NA
audio-instructions,15,88995,0.0-5.0-6.0,voc_e2,12257,"[{""event"":""fullscreenenter"",""trial"":1,""time"":2522}]",NA,2769,static/audio/instructions6.wav,NA,0,NA,NA,NA,NA,NA,NA,NA,NA,NA,NA,NA,NA,NA,NA,NA,NA,NA,NA,NA,NA,NA,NA,NA,NA,NA
audio-instructions,16,109649,0.0-5.0-7.0,voc_e2,12257,"[{""event"":""fullscreenenter"",""trial"":1,""time"":2522}]",NA,1451.199999988079,static/audio/instructions7.wav,NA,0,NA,NA,NA,NA,NA,NA,NA,NA,NA,NA,NA,NA,NA,NA,NA,NA,NA,NA,NA,NA,NA,NA,NA,NA,NA
audio-instructions,17,119897,0.0-5.0-8.0,voc_e2,12257,"[{""event"":""fullscreenenter"",""trial"":1,""time"":2522}]",NA,774.1000000238419,static/audio/instructions8.wav,NA,0,NA,NA,NA,NA,NA,NA,NA,NA,NA,NA,NA,NA,NA,NA,NA,NA,NA,NA,NA,NA,NA,NA,NA,NA,NA
fcp-comprehension,18,128314,0.0-5.0-9.0,voc_e2,12257,"[{""event"":""fullscreenenter"",""trial"":1,""time"":2522}]",NA,8413.800000011921,NA,NA,NA,NA,NA,NA,NA,NA,NA,NA,NA,NA,NA,NA,NA,NA,NA,NA,"true,true",0,NA,NA,NA,NA,NA,NA,NA,NA
audio-instructions,19,135146,0.0-6.0-0.0,voc_e2,12257,"[{""event"":""fullscreenenter"",""trial"":1,""time"":2522}]",NA,1278.5,static/audio/instructions9.wav,NA,0,NA,NA,NA,NA,NA,NA,NA,NA,NA,NA,NA,NA,NA,NA,NA,NA,NA,NA,NA,NA,NA,NA,NA,NA,NA
audio-instructions,20,179463,0.0-6.0-1.0,voc_e2,12257,"[{""event"":""fullscreenenter"",""trial"":1,""time"":2522}]",NA,32198.89999997616,static/audio/instructions10.wav,NA,0,NA,NA,NA,NA,NA,NA,NA,NA,NA,NA,NA,NA,NA,NA,NA,NA,NA,NA,NA,NA,NA,NA,NA,NA,NA
fcp-trial,21,186491,0.0-6.0-2.0,voc_e2,12257,"[{""event"":""fullscreenenter"",""trial"":1,""time"":2522}]",NA,NA,NA,NA,NA,0,#EDC948,#46d3c8,10,10,1,38,1,4198.199999988079,39,0,1317.100000023842,10,0,practice,NA,NA,NA,NA,NA,NA,NA,NA,NA,NA
audio-instructions,22,199079,0.0-6.0-3.0,voc_e2,12257,"[{""event"":""fullscreenenter"",""trial"":1,""time"":2522}]",NA,1568.300000011921,static/audio/instructions11.wav,NA,0,NA,NA,NA,NA,NA,NA,NA,NA,NA,NA,NA,NA,NA,NA,NA,NA,NA,NA,NA,NA,NA,NA,NA,NA,NA
fcp-trial,23,202716,0.0-6.0-4.0,voc_e2,12257,"[{""event"":""fullscreenenter"",""trial"":1,""time"":2522}]",NA,NA,NA,NA,NA,6,#EDC948,#46d3c8,10,10,1,40,0,1110.7999999523163,39,0,1018.5,10,0,practice,NA,NA,NA,NA,NA,NA,NA,NA,NA,NA
audio-instructions,24,222347,0.0-6.0-5.0,voc_e2,12257,"[{""event"":""fullscreenenter"",""trial"":1,""time"":2522}]",NA,937.100000023842,static/audio/instructions12.wav,NA,0,NA,NA,NA,NA,NA,NA,NA,NA,NA,NA,NA,NA,NA,NA,NA,NA,NA,NA,NA,NA,NA,NA,NA,NA,NA
audio-instructions,25,230679,0.0-6.0-6.0,voc_e2,12257,"[{""event"":""fullscreenenter"",""trial"":1,""time"":2522}]",NA,736.1999999880791,static/audio/instructions13.wav,NA,0,NA,NA,NA,NA,NA,NA,NA,NA,NA,NA,NA,NA,NA,NA,NA,NA,NA,NA,NA,NA,NA,NA,NA,NA,NA
audio-instructions,26,239730,0.0-6.0-7.0,voc_e2,12257,"[{""event"":""fullscreenenter"",""trial"":1,""time"":2522}]",NA,598,static/audio/instructions14.wav,NA,0,NA,NA,NA,NA,NA,NA,NA,NA,NA,NA,NA,NA,NA,NA,NA,NA,NA,NA,NA,NA,NA,NA,NA,NA,NA
audio-instructions,27,247230,0.0-7.0-0.0,voc_e2,12257,"[{""event"":""fullscreenenter"",""trial"":1,""time"":2522}]",NA,586.3000000119209,static/audio/instructions15.wav,NA,0,NA,NA,NA,NA,NA,NA,NA,NA,NA,NA,NA,NA,NA,NA,NA,NA,NA,NA,NA,NA,NA,NA,NA,NA,NA
audio-instructions,28,254480,0.0-7.0-1.0,voc_e2,12257,"[{""event"":""fullscreenenter"",""trial"":1,""time"":2522}]",NA,422.89999997615814,static/audio/instructions16.wav,NA,0,NA,NA,NA,NA,NA,NA,NA,NA,NA,NA,NA,NA,NA,NA,NA,NA,NA,NA,NA,NA,NA,NA,NA,NA,NA
audio-instructions,29,262663,0.0-7.0-2.0,voc_e2,12257,"[{""event"":""fullscreenenter"",""trial"":1,""time"":2522}]",NA,502.300000011921,static/audio/instructions17.wav,NA,0,NA,NA,NA,NA,NA,NA,NA,NA,NA,NA,NA,NA,NA,NA,NA,NA,NA,NA,NA,NA,NA,NA,NA,NA,NA
audio-instructions,30,271580,0.0-7.0-3.0,voc_e2,12257,"[{""event"":""fullscreenenter"",""trial"":1,""time"":2522}]",NA,1147.399999976158,static/audio/instructions18.wav,NA,0,NA,NA,NA,NA,NA,NA,NA,NA,NA,NA,NA,NA,NA,NA,NA,NA,NA,NA,NA,NA,NA,NA,NA,NA,NA
audio-instructions,31,278896,0.0-7.0-4.0,voc_e2,12257,"[{""event"":""fullscreenenter"",""trial"":1,""time"":2522}]",NA,568.8000000119209,static/audio/instructions19.wav,NA,0,NA,NA,NA,NA,NA,NA,NA,NA,NA,NA,NA,NA,NA,NA,NA,NA,NA,NA,NA,NA,NA,NA,NA,NA,NA
fcp-comprehension,32,291148,0.0-7.0-5.0,voc_e2,12257,"[{""event"":""fullscreenenter"",""trial"":1,""time"":2522}]",NA,12249.700000047684,NA,NA,NA,NA,NA,NA,NA,NA,NA,NA,NA,NA,NA,NA,NA,NA,NA,NA,"false,false,false,true",0,NA,NA,NA,NA,NA,NA,NA,NA
audio-instructions,33,301029,0.0-8.0,voc_e2,12257,"[{""event"":""fullscreenenter"",""trial"":1,""time"":2522}]",NA,660.3000000119209,static/audio/ready.wav,NA,0,NA,NA,NA,NA,NA,NA,NA,NA,NA,NA,NA,NA,NA,NA,NA,NA,NA,NA,NA,NA,NA,NA,NA,NA,NA
fcp-trial,34,305394,0.0-9.0-0.0,voc_e2,12257,"[{""event"":""fullscreenenter"",""trial"":1,""time"":2522}]",NA,NA,NA,NA,NA,4,#1CD855,#FA92F8,0,0,1,38,1,1870,37,1,987.5,0,1,experiment,NA,NA,1,0.7,0.3,2,3,1,1,NA
fcp-trial,35,310388,0.0-10.0-0.0,voc_e2,12257,"[{""event"":""fullscreenenter"",""trial"":1,""time"":2522}]",NA,NA,NA,NA,NA,4,#3386FF,#D89F1C,0,10,0,40,0,2117,39,0,1372.800000011921,10,1,experiment,NA,NA,2,0.5,0.5,5,4,2,1,NA
fcp-trial,36,315597,0.0-11.0-0.0,voc_e2,12257,"[{""event"":""fullscreenenter"",""trial"":1,""time"":2522}]",NA,NA,NA,NA,NA,1,#1CD855,#FA92F8,0,0,1,38,1,3345.199999988079,39,0,357.39999997615814,0,0,experiment,NA,NA,1,0.7,0.3,2,3,3,1,NA
fcp-trial,37,319663,0.0-12.0-0.0,voc_e2,12257,"[{""event"":""fullscreenenter"",""trial"":1,""time"":2522}]",NA,NA,NA,NA,NA,3,#741CD8,#D8271C,0,10,0,38,1,1699.699999988079,37,1,861.8000000119209,0,0,experiment,NA,NA,0,0.1,0.9,1,0,4,1,NA
fcp-trial,38,323599,0.0-13.0-0.0,voc_e2,12257,"[{""event"":""fullscreenenter"",""trial"":1,""time"":2522}]",NA,NA,NA,NA,NA,3,#D89F1C,#3386FF,10,10,1,40,0,1249.699999988079,37,1,1183.300000011921,10,1,experiment,NA,NA,2,0.5,0.5,4,5,5,1,NA
fcp-trial,39,328246,0.0-14.0-0.0,voc_e2,12257,"[{""event"":""fullscreenenter"",""trial"":1,""time"":2522}]",NA,NA,NA,NA,NA,4,#D8271C,#741CD8,10,0,1,38,1,1928,37,1,1215.100000023842,10,1,experiment,NA,NA,0,0.9,0.1,0,1,6,1,NA
fcp-trial,40,331490,0.0-15.0-0.0,voc_e2,12257,"[{""event"":""fullscreenenter"",""trial"":1,""time"":2522}]",NA,NA,NA,NA,NA,0,#D89F1C,#3386FF,0,0,1,38,1,1368.699999988079,37,1,370.199999988079,0,1,experiment,NA,NA,2,0.5,0.5,4,5,7,1,NA
fcp-trial,41,334882,0.0-16.0-0.0,voc_e2,12257,"[{""event"":""fullscreenenter"",""trial"":1,""time"":2522}]",NA,NA,NA,NA,NA,6,#FA92F8,#1CD855,0,10,0,40,0,1083.5999999642372,39,0,801.6000000238419,10,1,experiment,NA,NA,1,0.3,0.7,3,2,8,1,NA
fcp-trial,42,339541,0.0-17.0-0.0,voc_e2,12257,"[{""event"":""fullscreenenter"",""trial"":1,""time"":2522}]",NA,NA,NA,NA,NA,5,#1CD855,#FA92F8,0,10,1,38,1,1596.3999999761581,39,0,1558.399999976158,10,0,experiment,NA,NA,1,0.7,0.3,2,3,9,1,NA
fcp-trial,43,343305,0.0-18.0-0.0,voc_e2,12257,"[{""event"":""fullscreenenter"",""trial"":1,""time"":2522}]",NA,NA,NA,NA,NA,0,#741CD8,#D8271C,0,10,0,38,1,1778.699999988079,39,0,479.7000000476837,10,1,experiment,NA,NA,0,0.1,0.9,1,0,10,1,NA
fcp-trial,44,346783,0.0-19.0-0.0,voc_e2,12257,"[{""event"":""fullscreenenter"",""trial"":1,""time"":2522}]",NA,NA,NA,NA,NA,5,#741CD8,#D8271C,0,10,0,40,0,1229,37,1,741.7000000476837,0,0,experiment,NA,NA,0,0.1,0.9,1,0,11,1,NA
fcp-trial,45,349981,0.0-20.0-0.0,voc_e2,12257,"[{""event"":""fullscreenenter"",""trial"":1,""time"":2522}]",NA,NA,NA,NA,NA,5,#D89F1C,#3386FF,10,0,1,38,1,669.8999999761581,37,1,1022.600000023842,10,1,experiment,NA,NA,2,0.5,0.5,4,5,12,1,NA
fcp-trial,46,352831,0.0-21.0-0.0,voc_e2,12257,"[{""event"":""fullscreenenter"",""trial"":1,""time"":2522}]",NA,NA,NA,NA,NA,2,#1CD855,#FA92F8,0,0,1,38,1,767.2999999523163,37,1,579,0,1,experiment,NA,NA,1,0.7,0.3,2,3,13,1,NA
fcp-trial,47,355696,0.0-22.0-0.0,voc_e2,12257,"[{""event"":""fullscreenenter"",""trial"":1,""time"":2522}]",NA,NA,NA,NA,NA,6,#3386FF,#D89F1C,10,0,0,38,1,878.6999999880791,39,0,482.5,0,1,experiment,NA,NA,2,0.5,0.5,5,4,14,1,NA
fcp-trial,48,359308,0.0-23.0-0.0,voc_e2,12257,"[{""event"":""fullscreenenter"",""trial"":1,""time"":2522}]",NA,NA,NA,NA,NA,2,#D8271C,#741CD8,10,0,1,40,0,1431.5999999642372,37,1,675.1000000238419,10,1,experiment,NA,NA,0,0.9,0.1,0,1,15,1,NA
fcp-trial,49,362135,0.0-24.0-0.0,voc_e2,12257,"[{""event"":""fullscreenenter"",""trial"":1,""time"":2522}]",NA,NA,NA,NA,NA,2,#D89F1C,#3386FF,0,0,1,38,1,717.3000000119209,37,1,601.6000000238419,0,1,experiment,NA,NA,2,0.5,0.5,4,5,16,1,NA
fcp-trial,50,364917,0.0-25.0-0.0,voc_e2,12257,"[{""event"":""fullscreenenter"",""trial"":1,""time"":2522}]",NA,NA,NA,NA,NA,1,#D89F1C,#3386FF,10,10,1,38,1,717.1999999880791,39,0,558.4000000357628,10,0,experiment,NA,NA,2,0.5,0.5,4,5,17,1,NA
fcp-trial,51,367892,0.0-26.0-0.0,voc_e2,12257,"[{""event"":""fullscreenenter"",""trial"":1,""time"":2522}]",NA,NA,NA,NA,NA,0,#1CD855,#FA92F8,10,10,1,40,0,876.5,37,1,592.3000000119209,10,1,experiment,NA,NA,1,0.7,0.3,2,3,18,1,NA
fcp-trial,52,371608,0.0-27.0-0.0,voc_e2,12257,"[{""event"":""fullscreenenter"",""trial"":1,""time"":2522}]",NA,NA,NA,NA,NA,6,#D8271C,#741CD8,0,10,1,40,0,1493.800000011921,39,0,714.5,10,0,experiment,NA,NA,0,0.9,0.1,0,1,19,1,NA
fcp-trial,53,375282,0.0-28.0-0.0,voc_e2,12257,"[{""event"":""fullscreenenter"",""trial"":1,""time"":2522}]",NA,NA,NA,NA,NA,1,#D8271C,#741CD8,10,0,1,38,1,1718.2000000476837,37,1,450,10,1,experiment,NA,NA,0,0.9,0.1,0,1,20,1,NA
fcp-trial,54,379363,0.0-29.0-0.0,voc_e2,12257,"[{""event"":""fullscreenenter"",""trial"":1,""time"":2522}]",NA,NA,NA,NA,NA,3,#1CD855,#FA92F8,0,0,1,40,0,1920.9000000357628,37,1,656.1000000238419,0,1,experiment,NA,NA,1,0.7,0.3,2,3,21,1,NA
fcp-trial,55,383448,0.0-30.0-0.0,voc_e2,12257,"[{""event"":""fullscreenenter"",""trial"":1,""time"":2522}]",NA,NA,NA,NA,NA,6,#741CD8,#D8271C,0,10,0,40,0,1849.699999988079,37,1,730.5,0,0,experiment,NA,NA,0,0.1,0.9,1,0,22,1,NA
fcp-trial,56,387846,0.0-31.0-0.0,voc_e2,12257,"[{""event"":""fullscreenenter"",""trial"":1,""time"":2522}]",NA,NA,NA,NA,NA,0,#FA92F8,#1CD855,10,10,0,38,1,1927.699999988079,39,0,965.8000000119208,10,1,experiment,NA,NA,1,0.3,0.7,3,2,23,1,NA
fcp-trial,57,391723,0.0-32.0-0.0,voc_e2,12257,"[{""event"":""fullscreenenter"",""trial"":1,""time"":2522}]",NA,NA,NA,NA,NA,1,#FA92F8,#1CD855,10,10,0,40,0,1764,37,1,608.0999999642372,10,0,experiment,NA,NA,1,0.3,0.7,3,2,24,1,NA
fcp-trial,58,396562,0.0-33.0-0.0,voc_e2,12257,"[{""event"":""fullscreenenter"",""trial"":1,""time"":2522}]",NA,NA,NA,NA,NA,3,#741CD8,#D8271C,0,10,0,40,0,2802.899999976158,37,1,531.1999999880791,0,0,experiment,NA,NA,0,0.1,0.9,1,0,25,1,NA
fcp-trial,59,400358,0.0-34.0-0.0,voc_e2,12257,"[{""event"":""fullscreenenter"",""trial"":1,""time"":2522}]",NA,NA,NA,NA,NA,2,#D8271C,#741CD8,0,0,1,38,1,1976.5999999642372,37,1,315.0999999642372,0,1,experiment,NA,NA,0,0.9,0.1,0,1,26,1,NA
fcp-trial,60,403963,0.0-35.0-0.0,voc_e2,12257,"[{""event"":""fullscreenenter"",""trial"":1,""time"":2522}]",NA,NA,NA,NA,NA,3,#3386FF,#D89F1C,0,0,0,40,0,1621.3999999761581,39,0,477.60000002384186,0,1,experiment,NA,NA,2,0.5,0.5,5,4,27,1,NA
fcp-trial,61,407897,0.0-36.0-0.0,voc_e2,12257,"[{""event"":""fullscreenenter"",""trial"":1,""time"":2522}]",NA,NA,NA,NA,NA,2,#1CD855,#FA92F8,0,0,1,38,1,1880.199999988079,39,0,550.4000000357628,0,0,experiment,NA,NA,1,0.7,0.3,2,3,28,1,NA
fcp-trial,62,411697,0.0-37.0-0.0,voc_e2,12257,"[{""event"":""fullscreenenter"",""trial"":1,""time"":2522}]",NA,NA,NA,NA,NA,4,#D8271C,#741CD8,10,0,1,40,0,1879.0999999642372,37,1,415.89999997615814,10,1,experiment,NA,NA,0,0.9,0.1,0,1,29,1,NA
fcp-trial,63,415667,0.0-38.0-0.0,voc_e2,12257,"[{""event"":""fullscreenenter"",""trial"":1,""time"":2522}]",NA,NA,NA,NA,NA,5,#1CD855,#FA92F8,10,10,1,40,0,1972.2000000476837,39,0,492.4000000357628,10,0,experiment,NA,NA,1,0.7,0.3,2,3,30,1,NA
fcp-trial,64,418523,0.0-39.0-0.0,voc_e2,12257,"[{""event"":""fullscreenenter"",""trial"":1,""time"":2522}]",NA,NA,NA,NA,NA,6,#FA92F8,#1CD855,10,10,0,40,0,779.3999999761581,39,0,574.2999999523163,10,1,experiment,NA,NA,1,0.3,0.7,3,2,31,1,NA
fcp-trial,65,421175,0.0-40.0-0.0,voc_e2,12257,"[{""event"":""fullscreenenter"",""trial"":1,""time"":2522}]",NA,NA,NA,NA,NA,4,#D89F1C,#3386FF,0,10,1,40,0,682.3000000119209,39,0,463,10,0,experiment,NA,NA,2,0.5,0.5,4,5,32,1,NA
fcp-trial,66,424564,0.0-41.0-0.0,voc_e2,12257,"[{""event"":""fullscreenenter"",""trial"":1,""time"":2522}]",NA,NA,NA,NA,NA,0,#741CD8,#D8271C,0,10,0,38,1,1148.7999999523163,37,1,734.1999999880791,0,0,experiment,NA,NA,0,0.1,0.9,1,0,33,1,NA
fcp-trial,67,427395,0.0-42.0-0.0,voc_e2,12257,"[{""event"":""fullscreenenter"",""trial"":1,""time"":2522}]",NA,NA,NA,NA,NA,5,#3386FF,#D89F1C,0,0,0,40,0,841.1999999880791,39,0,485.699999988079,0,1,experiment,NA,NA,2,0.5,0.5,5,4,34,1,NA
fcp-trial,68,431068,0.0-43.0-0.0,voc_e2,12257,"[{""event"":""fullscreenenter"",""trial"":1,""time"":2522}]",NA,NA,NA,NA,NA,1,#3386FF,#D89F1C,0,0,0,38,1,1265.800000011921,37,1,903.3000000119208,0,0,experiment,NA,NA,2,0.5,0.5,5,4,35,1,NA
fcp-trial,69,434269,0.0-44.0-0.0,voc_e2,12257,"[{""event"":""fullscreenenter"",""trial"":1,""time"":2522}]",NA,NA,NA,NA,NA,3,#FA92F8,#1CD855,10,10,0,40,0,1285.8999999761581,39,0,409.0999999642372,10,1,experiment,NA,NA,1,0.3,0.7,3,2,36,1,NA
fcp-trial,70,437592,0.0-45.0-0.0,voc_e2,12257,"[{""event"":""fullscreenenter"",""trial"":1,""time"":2522}]",NA,NA,NA,NA,NA,0,#D89F1C,#3386FF,10,10,1,38,1,1238.0999999642372,37,1,578.7999999523163,10,1,experiment,NA,NA,2,0.5,0.5,4,5,37,1,NA
fcp-trial,71,440760,0.0-46.0-0.0,voc_e2,12257,"[{""event"":""fullscreenenter"",""trial"":1,""time"":2522}]",NA,NA,NA,NA,NA,5,#741CD8,#D8271C,0,0,0,40,0,1032.300000011921,37,1,630,0,0,experiment,NA,NA,0,0.1,0.9,1,0,38,1,NA
fcp-trial,72,444039,0.0-47.0-0.0,voc_e2,12257,"[{""event"":""fullscreenenter"",""trial"":1,""time"":2522}]",NA,NA,NA,NA,NA,1,#741CD8,#D8271C,10,10,0,38,1,1138.5999999642372,39,0,632.3000000119209,10,1,experiment,NA,NA,0,0.1,0.9,1,0,39,1,NA
fcp-trial,73,447179,0.0-48.0-0.0,voc_e2,12257,"[{""event"":""fullscreenenter"",""trial"":1,""time"":2522}]",NA,NA,NA,NA,NA,4,#1CD855,#FA92F8,0,0,1,40,0,1045.5,37,1,588.4000000357628,0,1,experiment,NA,NA,1,0.7,0.3,2,3,40,1,NA
fcp-trial,74,450920,0.0-49.0-0.0,voc_e2,12257,"[{""event"":""fullscreenenter"",""trial"":1,""time"":2522}]",NA,NA,NA,NA,NA,2,#3386FF,#D89F1C,0,10,0,38,1,1706.5999999642372,39,0,529.1999999880791,10,1,experiment,NA,NA,2,0.5,0.5,5,4,41,1,NA
fcp-trial,75,454158,0.0-50.0-0.0,voc_e2,12257,"[{""event"":""fullscreenenter"",""trial"":1,""time"":2522}]",NA,NA,NA,NA,NA,6,#3386FF,#D89F1C,0,10,0,40,0,1080.0999999642372,39,0,654.3000000119209,10,1,experiment,NA,NA,2,0.5,0.5,5,4,42,1,NA
fcp-trial,76,457816,0.0-51.0-0.0,voc_e2,12257,"[{""event"":""fullscreenenter"",""trial"":1,""time"":2522}]",NA,NA,NA,NA,NA,5,#D89F1C,#3386FF,0,0,1,40,0,1665.199999988079,39,0,486.300000011921,0,0,experiment,NA,NA,2,0.5,0.5,4,5,43,1,NA
fcp-trial,77,461115,0.0-52.0-0.0,voc_e2,12257,"[{""event"":""fullscreenenter"",""trial"":1,""time"":2522}]",NA,NA,NA,NA,NA,4,#D8271C,#741CD8,10,0,1,40,0,1349.3999999761581,39,0,445.5999999642372,0,0,experiment,NA,NA,0,0.9,0.1,0,1,44,1,NA
fcp-trial,78,464998,0.0-53.0-0.0,voc_e2,12257,"[{""event"":""fullscreenenter"",""trial"":1,""time"":2522}]",NA,NA,NA,NA,NA,1,#FA92F8,#1CD855,0,0,0,38,1,1609.699999988079,37,1,767.9000000357628,0,0,experiment,NA,NA,1,0.3,0.7,3,2,45,1,NA
fcp-trial,79,468657,0.0-54.0-0.0,voc_e2,12257,"[{""event"":""fullscreenenter"",""trial"":1,""time"":2522}]",NA,NA,NA,NA,NA,0,#1CD855,#FA92F8,10,10,1,38,1,1246.1000000238419,37,1,906.4000000357628,10,1,experiment,NA,NA,1,0.7,0.3,2,3,46,2,NA
fcp-trial,80,471565,0.0-55.0-0.0,voc_e2,12257,"[{""event"":""fullscreenenter"",""trial"":1,""time"":2522}]",NA,NA,NA,NA,NA,1,#3386FF,#D89F1C,0,10,0,40,0,719.3000000119209,39,0,680.8000000119209,10,1,experiment,NA,NA,2,0.5,0.5,5,4,47,2,NA
fcp-trial,81,474632,0.0-56.0-0.0,voc_e2,12257,"[{""event"":""fullscreenenter"",""trial"":1,""time"":2522}]",NA,NA,NA,NA,NA,2,#3386FF,#D89F1C,0,0,0,40,0,986.1000000238419,37,1,574.8000000119209,0,0,experiment,NA,NA,2,0.5,0.5,5,4,48,2,NA
fcp-trial,82,478681,0.0-57.0-0.0,voc_e2,12257,"[{""event"":""fullscreenenter"",""trial"":1,""time"":2522}]",NA,NA,NA,NA,NA,2,#D8271C,#741CD8,10,0,1,38,1,2276.5,39,0,267.30000001192093,0,0,experiment,NA,NA,0,0.9,0.1,0,1,49,2,NA
fcp-trial,83,482214,0.0-58.0-0.0,voc_e2,12257,"[{""event"":""fullscreenenter"",""trial"":1,""time"":2522}]",NA,NA,NA,NA,NA,5,#1CD855,#FA92F8,10,10,1,38,1,1442.4000000357628,37,1,584.1000000238419,10,1,experiment,NA,NA,1,0.7,0.3,2,3,50,2,NA
fcp-trial,84,485183,0.0-59.0-0.0,voc_e2,12257,"[{""event"":""fullscreenenter"",""trial"":1,""time"":2522}]",NA,NA,NA,NA,NA,3,#3386FF,#D89F1C,0,0,0,40,0,905.9000000357628,37,1,558,0,0,experiment,NA,NA,2,0.5,0.5,5,4,51,2,NA
fcp-trial,85,488163,0.0-60.0-0.0,voc_e2,12257,"[{""event"":""fullscreenenter"",""trial"":1,""time"":2522}]",NA,NA,NA,NA,NA,6,#D8271C,#741CD8,10,0,1,40,0,983.3000000119209,37,1,490.5,10,1,experiment,NA,NA,0,0.9,0.1,0,1,52,2,NA
fcp-trial,86,492132,0.0-61.0-0.0,voc_e2,12257,"[{""event"":""fullscreenenter"",""trial"":1,""time"":2522}]",NA,NA,NA,NA,NA,3,#FA92F8,#1CD855,0,10,0,40,0,1998.5,37,1,467.2999999523163,0,0,experiment,NA,NA,1,0.3,0.7,3,2,53,2,NA
fcp-trial,87,494858,0.0-62.0-0.0,voc_e2,12257,"[{""event"":""fullscreenenter"",""trial"":1,""time"":2522}]",NA,NA,NA,NA,NA,4,#1CD855,#FA92F8,10,0,1,40,0,808.1000000238419,39,0,413.5,0,0,experiment,NA,NA,1,0.7,0.3,2,3,54,2,NA
fcp-trial,88,498481,0.0-63.0-0.0,voc_e2,12257,"[{""event"":""fullscreenenter"",""trial"":1,""time"":2522}]",NA,NA,NA,NA,NA,4,#D89F1C,#3386FF,0,10,1,40,0,1232.699999988079,39,0,884.1000000238419,10,0,experiment,NA,NA,2,0.5,0.5,4,5,55,2,NA
fcp-trial,89,502166,0.0-64.0-0.0,voc_e2,12257,"[{""event"":""fullscreenenter"",""trial"":1,""time"":2522}]",NA,NA,NA,NA,NA,0,#741CD8,#D8271C,0,10,0,38,1,1579.0999999642372,39,0,599.3999999761581,10,1,experiment,NA,NA,0,0.1,0.9,1,0,56,2,NA
fcp-trial,90,506332,0.0-65.0-0.0,voc_e2,12257,"[{""event"":""fullscreenenter"",""trial"":1,""time"":2522}]",NA,NA,NA,NA,NA,1,#D8271C,#741CD8,10,0,1,40,0,1425.4000000357628,39,0,1234.5,0,0,experiment,NA,NA,0,0.9,0.1,0,1,57,2,NA
fcp-trial,91,510339,0.0-66.0-0.0,voc_e2,12257,"[{""event"":""fullscreenenter"",""trial"":1,""time"":2522}]",NA,NA,NA,NA,NA,6,#1CD855,#FA92F8,10,0,1,40,0,2064.300000011921,37,1,437,10,1,experiment,NA,NA,1,0.7,0.3,2,3,58,2,NA
fcp-trial,92,514047,0.0-67.0-0.0,voc_e2,12257,"[{""event"":""fullscreenenter"",""trial"":1,""time"":2522}]",NA,NA,NA,NA,NA,0,#D89F1C,#3386FF,10,10,1,38,1,1610.4000000357628,37,1,589.7000000476837,10,1,experiment,NA,NA,2,0.5,0.5,4,5,59,2,NA
fcp-trial,93,517155,0.0-68.0-0.0,voc_e2,12257,"[{""event"":""fullscreenenter"",""trial"":1,""time"":2522}]",NA,NA,NA,NA,NA,6,#D89F1C,#3386FF,10,0,1,40,0,1149.0999999642372,37,1,453.0999999642372,10,1,experiment,NA,NA,2,0.5,0.5,4,5,60,2,NA
fcp-trial,94,521576,0.0-69.0-0.0,voc_e2,12257,"[{""event"":""fullscreenenter"",""trial"":1,""time"":2522}]",NA,NA,NA,NA,NA,3,#D8271C,#741CD8,10,0,1,40,0,2419.099999964237,39,0,496.39999997615814,0,0,experiment,NA,NA,0,0.9,0.1,0,1,61,2,NA
fcp-trial,95,525220,0.0-70.0-0.0,voc_e2,12257,"[{""event"":""fullscreenenter"",""trial"":1,""time"":2522}]",NA,NA,NA,NA,NA,2,#1CD855,#FA92F8,0,0,1,38,1,1769.2000000476837,37,1,368.39999997615814,0,1,experiment,NA,NA,1,0.7,0.3,2,3,62,2,NA
fcp-trial,96,528147,0.0-71.0-0.0,voc_e2,12257,"[{""event"":""fullscreenenter"",""trial"":1,""time"":2522}]",NA,NA,NA,NA,NA,5,#741CD8,#D8271C,0,10,0,40,0,975.6999999880791,39,0,446.199999988079,10,1,experiment,NA,NA,0,0.1,0.9,1,0,63,2,NA
fcp-trial,97,532062,0.0-72.0-0.0,voc_e2,12257,"[{""event"":""fullscreenenter"",""trial"":1,""time"":2522}]",NA,NA,NA,NA,NA,2,#3386FF,#D89F1C,10,10,0,38,1,1823,39,0,587.8999999761581,10,1,experiment,NA,NA,2,0.5,0.5,5,4,64,2,NA
fcp-trial,98,535581,0.0-73.0-0.0,voc_e2,12257,"[{""event"":""fullscreenenter"",""trial"":1,""time"":2522}]",NA,NA,NA,NA,NA,6,#FA92F8,#1CD855,0,10,0,40,0,1625.300000011921,37,1,388.0999999642372,0,0,experiment,NA,NA,1,0.3,0.7,3,2,65,2,NA
fcp-trial,99,538731,0.0-74.0-0.0,voc_e2,12257,"[{""event"":""fullscreenenter"",""trial"":1,""time"":2522}]",NA,NA,NA,NA,NA,0,#D89F1C,#3386FF,0,0,1,38,1,1336.199999988079,37,1,306.69999998807907,0,1,experiment,NA,NA,2,0.5,0.5,4,5,66,2,NA
fcp-trial,100,541525,0.0-75.0-0.0,voc_e2,12257,"[{""event"":""fullscreenenter"",""trial"":1,""time"":2522}]",NA,NA,NA,NA,NA,1,#D89F1C,#3386FF,0,10,1,38,1,929.6999999880791,37,1,358.0999999642372,0,1,experiment,NA,NA,2,0.5,0.5,4,5,67,2,NA
fcp-trial,101,546615,0.0-76.0-0.0,voc_e2,12257,"[{""event"":""fullscreenenter"",""trial"":1,""time"":2522}]",NA,NA,NA,NA,NA,0,#D8271C,#741CD8,10,10,1,38,1,3152,37,1,430.5999999642372,10,1,experiment,NA,NA,0,0.9,0.1,0,1,68,2,NA
fcp-trial,102,550081,0.0-77.0-0.0,voc_e2,12257,"[{""event"":""fullscreenenter"",""trial"":1,""time"":2522}]",NA,NA,NA,NA,NA,0,#1CD855,#FA92F8,10,0,1,38,1,1601.3999999761581,37,1,359.39999997615814,10,1,experiment,NA,NA,1,0.7,0.3,2,3,69,2,NA
fcp-trial,103,553266,0.0-78.0-0.0,voc_e2,12257,"[{""event"":""fullscreenenter"",""trial"":1,""time"":2522}]",NA,NA,NA,NA,NA,2,#1CD855,#FA92F8,10,10,1,38,1,1279.6000000238419,37,1,399.89999997615814,10,1,experiment,NA,NA,1,0.7,0.3,2,3,70,2,NA
fcp-trial,104,556331,0.0-79.0-0.0,voc_e2,12257,"[{""event"":""fullscreenenter"",""trial"":1,""time"":2522}]",NA,NA,NA,NA,NA,6,#3386FF,#D89F1C,10,10,0,40,0,1092.1000000238419,39,0,467.699999988079,10,1,experiment,NA,NA,2,0.5,0.5,5,4,71,2,NA
fcp-trial,105,559068,0.0-80.0-0.0,voc_e2,12257,"[{""event"":""fullscreenenter"",""trial"":1,""time"":2522}]",NA,NA,NA,NA,NA,5,#741CD8,#D8271C,10,10,0,40,0,841.6999999880791,37,1,389.10000002384186,10,0,experiment,NA,NA,0,0.1,0.9,1,0,72,2,NA
fcp-trial,106,562713,0.0-81.0-0.0,voc_e2,12257,"[{""event"":""fullscreenenter"",""trial"":1,""time"":2522}]",NA,NA,NA,NA,NA,4,#1CD855,#FA92F8,0,0,1,40,0,1658.5,37,1,482.5,0,1,experiment,NA,NA,1,0.7,0.3,2,3,73,2,NA
fcp-trial,107,566790,0.0-82.0-0.0,voc_e2,12257,"[{""event"":""fullscreenenter"",""trial"":1,""time"":2522}]",NA,NA,NA,NA,NA,3,#D8271C,#741CD8,10,0,1,38,1,1819.300000011921,37,1,751.1000000238419,10,1,experiment,NA,NA,0,0.9,0.1,0,1,74,2,NA
fcp-trial,108,569800,0.0-83.0-0.0,voc_e2,12257,"[{""event"":""fullscreenenter"",""trial"":1,""time"":2522}]",NA,NA,NA,NA,NA,5,#3386FF,#D89F1C,0,0,0,40,0,1121.7999999523163,37,1,380.60000002384186,0,0,experiment,NA,NA,2,0.5,0.5,5,4,75,2,NA
fcp-trial,109,572611,0.0-84.0-0.0,voc_e2,12257,"[{""event"":""fullscreenenter"",""trial"":1,""time"":2522}]",NA,NA,NA,NA,NA,1,#1CD855,#FA92F8,10,0,1,38,1,963,37,1,343.2000000476837,10,1,experiment,NA,NA,1,0.7,0.3,2,3,76,2,NA
fcp-trial,110,577114,0.0-85.0-0.0,voc_e2,12257,"[{""event"":""fullscreenenter"",""trial"":1,""time"":2522}]",NA,NA,NA,NA,NA,1,#D8271C,#741CD8,10,0,1,38,1,2715.600000023842,37,1,281.60000002384186,10,1,experiment,NA,NA,0,0.9,0.1,0,1,77,2,NA
fcp-trial,111,580548,0.0-86.0-0.0,voc_e2,12257,"[{""event"":""fullscreenenter"",""trial"":1,""time"":2522}]",NA,NA,NA,NA,NA,2,#741CD8,#D8271C,0,10,0,38,1,1572.4000000357628,37,1,356.19999998807907,0,0,experiment,NA,NA,0,0.1,0.9,1,0,78,2,NA
fcp-trial,112,584565,0.0-87.0-0.0,voc_e2,12257,"[{""event"":""fullscreenenter"",""trial"":1,""time"":2522}]",NA,NA,NA,NA,NA,4,#3386FF,#D89F1C,10,10,0,40,0,2140.300000011921,37,1,371.5,10,0,experiment,NA,NA,2,0.5,0.5,5,4,79,2,NA
fcp-trial,113,587632,0.0-88.0-0.0,voc_e2,12257,"[{""event"":""fullscreenenter"",""trial"":1,""time"":2522}]",NA,NA,NA,NA,NA,6,#741CD8,#D8271C,0,10,0,40,0,1184.5999999642372,37,1,375.800000011921,0,0,experiment,NA,NA,0,0.1,0.9,1,0,80,2,NA
fcp-trial,114,591402,0.0-89.0-0.0,voc_e2,12257,"[{""event"":""fullscreenenter"",""trial"":1,""time"":2522}]",NA,NA,NA,NA,NA,5,#FA92F8,#1CD855,0,10,0,38,1,1655,39,0,609.5999999642372,10,1,experiment,NA,NA,1,0.3,0.7,3,2,81,2,NA
fcp-trial,115,594832,0.0-90.0-0.0,voc_e2,12257,"[{""event"":""fullscreenenter"",""trial"":1,""time"":2522}]",NA,NA,NA,NA,NA,3,#1CD855,#FA92F8,10,0,1,40,0,1540.5,37,1,383.4000000357628,10,1,experiment,NA,NA,1,0.7,0.3,2,3,82,2,NA
fcp-trial,116,598871,0.0-91.0-0.0,voc_e2,12257,"[{""event"":""fullscreenenter"",""trial"":1,""time"":2522}]",NA,NA,NA,NA,NA,3,#3386FF,#D89F1C,10,10,0,38,1,2238.2000000476837,39,0,292.10000002384186,10,1,experiment,NA,NA,2,0.5,0.5,5,4,83,2,NA
fcp-trial,117,601932,0.0-92.0-0.0,voc_e2,12257,"[{""event"":""fullscreenenter"",""trial"":1,""time"":2522}]",NA,NA,NA,NA,NA,4,#D8271C,#741CD8,10,0,1,38,1,1249.0999999642372,37,1,305.7999999523163,10,1,experiment,NA,NA,0,0.9,0.1,0,1,84,2,NA
fcp-trial,118,605932,0.0-93.0-0.0,voc_e2,12257,"[{""event"":""fullscreenenter"",""trial"":1,""time"":2522}]",NA,NA,NA,NA,NA,5,#FA92F8,#1CD855,0,0,0,38,1,2162.900000035763,39,0,332.30000001192093,0,1,experiment,NA,NA,1,0.3,0.7,3,2,85,2,NA
fcp-trial,119,608747,0.0-94.0-0.0,voc_e2,12257,"[{""event"":""fullscreenenter"",""trial"":1,""time"":2522}]",NA,NA,NA,NA,NA,5,#3386FF,#D89F1C,0,0,0,40,0,949.8000000119209,37,1,359.5,0,0,experiment,NA,NA,2,0.5,0.5,5,4,86,2,NA
fcp-trial,120,611407,0.0-95.0-0.0,voc_e2,12257,"[{""event"":""fullscreenenter"",""trial"":1,""time"":2522}]",NA,NA,NA,NA,NA,4,#1CD855,#FA92F8,10,0,1,40,0,763,39,0,390,0,0,experiment,NA,NA,1,0.7,0.3,2,3,87,2,NA
fcp-trial,121,615393,0.0-96.0-0.0,voc_e2,12257,"[{""event"":""fullscreenenter"",""trial"":1,""time"":2522}]",NA,NA,NA,NA,NA,0,#3386FF,#D89F1C,0,0,0,38,1,2188.7999999523163,39,0,291.30000001192093,0,1,experiment,NA,NA,2,0.5,0.5,5,4,88,2,NA
fcp-trial,122,618718,0.0-97.0-0.0,voc_e2,12257,"[{""event"":""fullscreenenter"",""trial"":1,""time"":2522}]",NA,NA,NA,NA,NA,4,#741CD8,#D8271C,0,10,0,38,1,1410,39,0,406.89999997615814,10,1,experiment,NA,NA,0,0.1,0.9,1,0,89,2,NA
fcp-trial,123,621373,0.0-98.0-0.0,voc_e2,12257,"[{""event"":""fullscreenenter"",""trial"":1,""time"":2522}]",NA,NA,NA,NA,NA,6,#FA92F8,#1CD855,0,0,0,38,1,792.5,39,0,355,0,1,experiment,NA,NA,1,0.3,0.7,3,2,90,2,NA
fcp-trial,124,623935,0.0-99.0-0.0,voc_e2,12257,"[{""event"":""fullscreenenter"",""trial"":1,""time"":2522}]",NA,NA,NA,NA,NA,3,#3386FF,#D89F1C,10,10,0,38,1,664.1000000238419,39,0,391.5,10,1,experiment,NA,NA,2,0.5,0.5,5,4,91,3,NA
fcp-trial,125,626869,0.0-100.0-0.0,voc_e2,12257,"[{""event"":""fullscreenenter"",""trial"":1,""time"":2522}]",NA,NA,NA,NA,NA,1,#3386FF,#D89F1C,0,10,0,38,1,1008.2000000476837,39,0,419.5999999642372,10,1,experiment,NA,NA,2,0.5,0.5,5,4,92,3,NA
fcp-trial,126,629468,0.0-101.0-0.0,voc_e2,12257,"[{""event"":""fullscreenenter"",""trial"":1,""time"":2522}]",NA,NA,NA,NA,NA,2,#3386FF,#D89F1C,10,10,0,38,1,708.5999999642372,39,0,383.4000000357628,10,1,experiment,NA,NA,2,0.5,0.5,5,4,93,3,NA
fcp-trial,127,632982,0.0-102.0-0.0,voc_e2,12257,"[{""event"":""fullscreenenter"",""trial"":1,""time"":2522}]",NA,NA,NA,NA,NA,2,#D8271C,#741CD8,10,0,1,38,1,1610.5,37,1,398,10,1,experiment,NA,NA,0,0.9,0.1,0,1,94,3,NA
fcp-trial,128,635548,0.0-103.0-0.0,voc_e2,12257,"[{""event"":""fullscreenenter"",""trial"":1,""time"":2522}]",NA,NA,NA,NA,NA,3,#FA92F8,#1CD855,0,0,0,38,1,760.3999999761581,39,0,299.80000001192093,0,1,experiment,NA,NA,1,0.3,0.7,3,2,95,3,NA
fcp-trial,129,638117,0.0-104.0-0.0,voc_e2,12257,"[{""event"":""fullscreenenter"",""trial"":1,""time"":2522}]",NA,NA,NA,NA,NA,1,#741CD8,#D8271C,0,10,0,38,1,667.1999999880791,39,0,396.39999997615814,10,1,experiment,NA,NA,0,0.1,0.9,1,0,96,3,NA
fcp-trial,130,640688,0.0-105.0-0.0,voc_e2,12257,"[{""event"":""fullscreenenter"",""trial"":1,""time"":2522}]",NA,NA,NA,NA,NA,3,#741CD8,#D8271C,10,10,0,38,1,696,39,0,368.5999999642372,10,1,experiment,NA,NA,0,0.1,0.9,1,0,97,3,NA
fcp-trial,131,643524,0.0-106.0-0.0,voc_e2,12257,"[{""event"":""fullscreenenter"",""trial"":1,""time"":2522}]",NA,NA,NA,NA,NA,6,#D89F1C,#3386FF,10,0,1,38,1,945.8000000119209,37,1,382.199999988079,10,1,experiment,NA,NA,2,0.5,0.5,4,5,98,3,NA
fcp-trial,132,646076,0.0-107.0-0.0,voc_e2,12257,"[{""event"":""fullscreenenter"",""trial"":1,""time"":2522}]",NA,NA,NA,NA,NA,0,#741CD8,#D8271C,10,10,0,38,1,712.6000000238419,37,1,332.5,10,0,experiment,NA,NA,0,0.1,0.9,1,0,99,3,NA
fcp-trial,133,648853,0.0-108.0-0.0,voc_e2,12257,"[{""event"":""fullscreenenter"",""trial"":1,""time"":2522}]",NA,NA,NA,NA,NA,2,#1CD855,#FA92F8,0,0,1,38,1,783,39,0,485.199999988079,0,0,experiment,NA,NA,1,0.7,0.3,2,3,100,3,NA
fcp-trial,134,651377,0.0-109.0-0.0,voc_e2,12257,"[{""event"":""fullscreenenter"",""trial"":1,""time"":2522}]",NA,NA,NA,NA,NA,4,#3386FF,#D89F1C,0,10,0,38,1,650.8999999761581,39,0,367.7000000476837,10,1,experiment,NA,NA,2,0.5,0.5,5,4,101,3,NA
fcp-trial,135,653883,0.0-110.0-0.0,voc_e2,12257,"[{""event"":""fullscreenenter"",""trial"":1,""time"":2522}]",NA,NA,NA,NA,NA,1,#1CD855,#FA92F8,10,0,1,38,1,611.3999999761581,37,1,387.800000011921,10,1,experiment,NA,NA,1,0.7,0.3,2,3,102,3,NA
fcp-trial,136,656736,0.0-111.0-0.0,voc_e2,12257,"[{""event"":""fullscreenenter"",""trial"":1,""time"":2522}]",NA,NA,NA,NA,NA,5,#D8271C,#741CD8,10,0,1,38,1,713.5,37,1,633.6000000238419,10,1,experiment,NA,NA,0,0.9,0.1,0,1,103,3,NA
fcp-trial,137,659267,0.0-112.0-0.0,voc_e2,12257,"[{""event"":""fullscreenenter"",""trial"":1,""time"":2522}]",NA,NA,NA,NA,NA,6,#741CD8,#D8271C,0,10,0,38,1,618.5,39,0,406.0999999642372,10,1,experiment,NA,NA,0,0.1,0.9,1,0,104,3,NA
fcp-trial,138,662453,0.0-113.0-0.0,voc_e2,12257,"[{""event"":""fullscreenenter"",""trial"":1,""time"":2522}]",NA,NA,NA,NA,NA,0,#FA92F8,#1CD855,10,0,0,38,1,1297.0999999642372,39,0,381.699999988079,0,1,experiment,NA,NA,1,0.3,0.7,3,2,105,3,NA
audio-instructions,139,726024,0.0-114.0,voc_e2,12257,"[{""event"":""fullscreenenter"",""trial"":1,""time"":2522}]",NA,59126.5,static/audio/pause.wav,NA,0,NA,NA,NA,NA,NA,NA,NA,NA,NA,NA,NA,NA,NA,NA,NA,NA,NA,NA,NA,NA,NA,NA,NA,NA,NA
fcp-trial,140,730160,0.0-115.0-0.0,voc_e2,12257,"[{""event"":""fullscreenenter"",""trial"":1,""time"":2522}]",NA,NA,NA,NA,NA,0,#D89F1C,#3386FF,10,0,1,38,1,2088.399999976158,37,1,542.4000000357628,10,1,experiment,NA,NA,2,0.5,0.5,4,5,106,3,NA
fcp-trial,141,732542,0.0-116.0-0.0,voc_e2,12257,"[{""event"":""fullscreenenter"",""trial"":1,""time"":2522}]",NA,NA,NA,NA,NA,5,#741CD8,#D8271C,0,10,0,38,1,558.6000000238419,39,0,318.2999999523163,10,1,experiment,NA,NA,0,0.1,0.9,1,0,107,3,NA
fcp-trial,142,734835,0.0-117.0-0.0,voc_e2,12257,"[{""event"":""fullscreenenter"",""trial"":1,""time"":2522}]",NA,NA,NA,NA,NA,1,#1CD855,#FA92F8,10,0,1,38,1,473.19999998807907,37,1,312.7999999523163,10,1,experiment,NA,NA,1,0.7,0.3,2,3,108,3,NA
fcp-trial,143,737161,0.0-118.0-0.0,voc_e2,12257,"[{""event"":""fullscreenenter"",""trial"":1,""time"":2522}]",NA,NA,NA,NA,NA,2,#D89F1C,#3386FF,0,0,1,38,1,506.39999997615814,37,1,312.60000002384186,0,1,experiment,NA,NA,2,0.5,0.5,4,5,109,3,NA
fcp-trial,144,739325,0.0-119.0-0.0,voc_e2,12257,"[{""event"":""fullscreenenter"",""trial"":1,""time"":2522}]",NA,NA,NA,NA,NA,6,#741CD8,#D8271C,0,10,0,38,1,377,39,0,282.19999998807907,10,1,experiment,NA,NA,0,0.1,0.9,1,0,110,3,NA
fcp-trial,145,741990,0.0-120.0-0.0,voc_e2,12257,"[{""event"":""fullscreenenter"",""trial"":1,""time"":2522}]",NA,NA,NA,NA,NA,6,#FA92F8,#1CD855,10,10,0,38,1,778.9000000357628,39,0,382.39999997615814,10,1,experiment,NA,NA,1,0.3,0.7,3,2,111,3,NA
fcp-trial,146,744457,0.0-121.0-0.0,voc_e2,12257,"[{""event"":""fullscreenenter"",""trial"":1,""time"":2522}]",NA,NA,NA,NA,NA,4,#3386FF,#D89F1C,0,10,0,38,1,530.8999999761581,39,0,432.4000000357628,10,1,experiment,NA,NA,2,0.5,0.5,5,4,112,3,NA
fcp-trial,147,746794,0.0-122.0-0.0,voc_e2,12257,"[{""event"":""fullscreenenter"",""trial"":1,""time"":2522}]",NA,NA,NA,NA,NA,2,#1CD855,#FA92F8,0,10,1,38,1,497.80000001192093,37,1,335.69999998807907,0,1,experiment,NA,NA,1,0.7,0.3,2,3,113,3,NA
fcp-trial,148,748927,0.0-123.0-0.0,voc_e2,12257,"[{""event"":""fullscreenenter"",""trial"":1,""time"":2522}]",NA,NA,NA,NA,NA,1,#3386FF,#D89F1C,10,10,0,38,1,378.30000001192093,39,0,250.39999997615817,10,1,experiment,NA,NA,2,0.5,0.5,5,4,114,3,NA
fcp-trial,149,751214,0.0-124.0-0.0,voc_e2,12257,"[{""event"":""fullscreenenter"",""trial"":1,""time"":2522}]",NA,NA,NA,NA,NA,4,#741CD8,#D8271C,0,10,0,38,1,348.4000000357628,39,0,430.89999997615814,10,1,experiment,NA,NA,0,0.1,0.9,1,0,115,3,NA
fcp-trial,150,753558,0.0-125.0-0.0,voc_e2,12257,"[{""event"":""fullscreenenter"",""trial"":1,""time"":2522}]",NA,NA,NA,NA,NA,2,#D8271C,#741CD8,10,0,1,38,1,392,37,1,445.39999997615814,10,1,experiment,NA,NA,0,0.9,0.1,0,1,116,3,NA
fcp-trial,151,755937,0.0-126.0-0.0,voc_e2,12257,"[{""event"":""fullscreenenter"",""trial"":1,""time"":2522}]",NA,NA,NA,NA,NA,3,#1CD855,#FA92F8,10,0,1,38,1,518.3000000119209,39,0,355.4000000357628,0,0,experiment,NA,NA,1,0.7,0.3,2,3,117,3,NA
fcp-trial,152,758326,0.0-127.0-0.0,voc_e2,12257,"[{""event"":""fullscreenenter"",""trial"":1,""time"":2522}]",NA,NA,NA,NA,NA,5,#FA92F8,#1CD855,10,10,0,38,1,580,39,0,305.19999998807907,10,1,experiment,NA,NA,1,0.3,0.7,3,2,118,3,NA
fcp-trial,153,760627,0.0-128.0-0.0,voc_e2,12257,"[{""event"":""fullscreenenter"",""trial"":1,""time"":2522}]",NA,NA,NA,NA,NA,5,#3386FF,#D89F1C,10,0,0,38,1,511.60000002384186,39,0,284.30000001192093,0,1,experiment,NA,NA,2,0.5,0.5,5,4,119,3,NA
fcp-trial,154,762853,0.0-129.0-0.0,voc_e2,12257,"[{""event"":""fullscreenenter"",""trial"":1,""time"":2522}]",NA,NA,NA,NA,NA,1,#741CD8,#D8271C,0,10,0,38,1,429.19999998807907,39,0,291.10000002384186,10,1,experiment,NA,NA,0,0.1,0.9,1,0,120,3,NA
fcp-trial,155,765520,0.0-130.0-0.0,voc_e2,12257,"[{""event"":""fullscreenenter"",""trial"":1,""time"":2522}]",NA,NA,NA,NA,NA,3,#3386FF,#D89F1C,0,10,0,38,1,901.1000000238419,39,0,259.19999998807907,10,1,experiment,NA,NA,2,0.5,0.5,5,4,121,3,NA
fcp-trial,156,768102,0.0-131.0-0.0,voc_e2,12257,"[{""event"":""fullscreenenter"",""trial"":1,""time"":2522}]",NA,NA,NA,NA,NA,0,#741CD8,#D8271C,0,10,0,38,1,477.60000002384186,39,0,596.8999999761581,10,1,experiment,NA,NA,0,0.1,0.9,1,0,122,3,NA
fcp-trial,157,770396,0.0-132.0-0.0,voc_e2,12257,"[{""event"":""fullscreenenter"",""trial"":1,""time"":2522}]",NA,NA,NA,NA,NA,0,#1CD855,#FA92F8,0,10,1,38,1,517.4000000357628,37,1,270,0,1,experiment,NA,NA,1,0.7,0.3,2,3,123,3,NA
fcp-trial,158,773180,0.0-133.0-0.0,voc_e2,12257,"[{""event"":""fullscreenenter"",""trial"":1,""time"":2522}]",NA,NA,NA,NA,NA,3,#741CD8,#D8271C,0,10,0,38,1,636.4000000357628,39,0,641.1000000238419,10,1,experiment,NA,NA,0,0.1,0.9,1,0,124,3,NA
fcp-trial,159,775480,0.0-134.0-0.0,voc_e2,12257,"[{""event"":""fullscreenenter"",""trial"":1,""time"":2522}]",NA,NA,NA,NA,NA,6,#3386FF,#D89F1C,0,10,0,38,1,525.0999999642372,39,0,268.80000001192093,10,1,experiment,NA,NA,2,0.5,0.5,5,4,125,3,NA
fcp-trial,160,778058,0.0-135.0-0.0,voc_e2,12257,"[{""event"":""fullscreenenter"",""trial"":1,""time"":2522}]",NA,NA,NA,NA,NA,4,#1CD855,#FA92F8,10,0,1,38,1,409.5999999642372,37,1,663.6000000238419,10,1,experiment,NA,NA,1,0.7,0.3,2,3,126,3,NA
fcp-trial,161,780483,0.0-136.0-0.0,voc_e2,12257,"[{""event"":""fullscreenenter"",""trial"":1,""time"":2522}]",NA,NA,NA,NA,NA,5,#1CD855,#FA92F8,10,0,1,38,1,530.0999999642372,37,1,389.39999997615814,10,1,experiment,NA,NA,1,0.7,0.3,2,3,127,3,NA
fcp-trial,162,783052,0.0-137.0-0.0,voc_e2,12257,"[{""event"":""fullscreenenter"",""trial"":1,""time"":2522}]",NA,NA,NA,NA,NA,4,#3386FF,#D89F1C,10,0,0,38,1,403.30000001192093,39,0,659.6999999880791,0,1,experiment,NA,NA,2,0.5,0.5,5,4,128,3,NA
fcp-trial,163,785307,0.0-138.0-0.0,voc_e2,12257,"[{""event"":""fullscreenenter"",""trial"":1,""time"":2522}]",NA,NA,NA,NA,NA,3,#1CD855,#FA92F8,10,0,1,38,1,443.30000001192093,37,1,305.5,10,1,experiment,NA,NA,1,0.7,0.3,2,3,129,3,NA
fcp-trial,164,787528,0.0-139.0-0.0,voc_e2,12257,"[{""event"":""fullscreenenter"",""trial"":1,""time"":2522}]",NA,NA,NA,NA,NA,1,#3386FF,#D89F1C,0,10,0,38,1,432.80000001192093,39,0,284.4000000357628,10,1,experiment,NA,NA,2,0.5,0.5,5,4,130,3,NA
fcp-trial,165,790752,0.0-140.0-0.0,voc_e2,12257,"[{""event"":""fullscreenenter"",""trial"":1,""time"":2522}]",NA,NA,NA,NA,NA,2,#D8271C,#741CD8,10,0,1,38,1,517.5,37,1,1201,10,1,experiment,NA,NA,0,0.9,0.1,0,1,131,3,NA
fcp-trial,166,793876,0.0-141.0-0.0,voc_e2,12257,"[{""event"":""fullscreenenter"",""trial"":1,""time"":2522}]",NA,NA,NA,NA,NA,4,#FA92F8,#1CD855,10,0,0,38,1,584.1999999880791,39,0,1032.800000011921,0,1,experiment,NA,NA,1,0.3,0.7,3,2,132,3,NA
fcp-trial,167,796244,0.0-142.0-0.0,voc_e2,12257,"[{""event"":""fullscreenenter"",""trial"":1,""time"":2522}]",NA,NA,NA,NA,NA,3,#D89F1C,#3386FF,0,0,1,38,1,429.2999999523163,37,1,434.5,0,1,experiment,NA,NA,2,0.5,0.5,4,5,133,3,NA
fcp-trial,168,798519,0.0-143.0-0.0,voc_e2,12257,"[{""event"":""fullscreenenter"",""trial"":1,""time"":2522}]",NA,NA,NA,NA,NA,0,#D8271C,#741CD8,10,0,1,38,1,483.30000001192093,37,1,285.5999999642372,10,1,experiment,NA,NA,0,0.9,0.1,0,1,134,3,NA
fcp-trial,169,800890,0.0-144.0-0.0,voc_e2,12257,"[{""event"":""fullscreenenter"",""trial"":1,""time"":2522}]",NA,NA,NA,NA,NA,5,#D8271C,#741CD8,10,0,1,38,1,440.19999998807907,37,1,422.800000011921,10,1,experiment,NA,NA,0,0.9,0.1,0,1,135,3,NA
fcp-trial,170,803318,0.0-145.0-0.0,voc_e2,12257,"[{""event"":""fullscreenenter"",""trial"":1,""time"":2522}]",NA,NA,NA,NA,NA,6,#1CD855,#FA92F8,10,0,1,38,1,524.8000000119209,37,1,397.699999988079,10,1,experiment,NA,NA,1,0.7,0.3,2,3,136,4,NA
fcp-trial,171,805693,0.0-146.0-0.0,voc_e2,12257,"[{""event"":""fullscreenenter"",""trial"":1,""time"":2522}]",NA,NA,NA,NA,NA,3,#741CD8,#D8271C,0,10,0,38,1,567,39,0,300.7000000476837,10,1,experiment,NA,NA,0,0.1,0.9,1,0,137,4,NA
fcp-trial,172,808227,0.0-147.0-0.0,voc_e2,12257,"[{""event"":""fullscreenenter"",""trial"":1,""time"":2522}]",NA,NA,NA,NA,NA,0,#3386FF,#D89F1C,10,0,0,38,1,633.5999999642372,39,0,393.699999988079,0,1,experiment,NA,NA,2,0.5,0.5,5,4,138,4,NA
fcp-trial,173,810553,0.0-148.0-0.0,voc_e2,12257,"[{""event"":""fullscreenenter"",""trial"":1,""time"":2522}]",NA,NA,NA,NA,NA,1,#1CD855,#FA92F8,0,0,1,38,1,464,37,1,354.89999997615814,0,1,experiment,NA,NA,1,0.7,0.3,2,3,139,4,NA
fcp-trial,174,812860,0.0-149.0-0.0,voc_e2,12257,"[{""event"":""fullscreenenter"",""trial"":1,""time"":2522}]",NA,NA,NA,NA,NA,2,#FA92F8,#1CD855,0,0,0,38,1,525.8000000119209,39,0,273.69999998807907,0,1,experiment,NA,NA,1,0.3,0.7,3,2,140,4,NA
fcp-trial,175,815382,0.0-150.0-0.0,voc_e2,12257,"[{""event"":""fullscreenenter"",""trial"":1,""time"":2522}]",NA,NA,NA,NA,NA,1,#D8271C,#741CD8,10,0,1,38,1,467,37,1,548,10,1,experiment,NA,NA,0,0.9,0.1,0,1,141,4,NA
fcp-trial,176,818148,0.0-151.0-0.0,voc_e2,12257,"[{""event"":""fullscreenenter"",""trial"":1,""time"":2522}]",NA,NA,NA,NA,NA,2,#D89F1C,#3386FF,0,0,1,38,1,389.10000002384186,37,1,869.7000000476837,0,1,experiment,NA,NA,2,0.5,0.5,4,5,142,4,NA
fcp-trial,177,820426,0.0-152.0-0.0,voc_e2,12257,"[{""event"":""fullscreenenter"",""trial"":1,""time"":2522}]",NA,NA,NA,NA,NA,0,#FA92F8,#1CD855,10,0,0,38,1,479,39,0,292.80000001192093,0,1,experiment,NA,NA,1,0.3,0.7,3,2,143,4,NA
fcp-trial,178,822902,0.0-153.0-0.0,voc_e2,12257,"[{""event"":""fullscreenenter"",""trial"":1,""time"":2522}]",NA,NA,NA,NA,NA,6,#D8271C,#741CD8,10,0,1,38,1,528.6999999880791,37,1,440.5,10,1,experiment,NA,NA,0,0.9,0.1,0,1,144,4,NA
fcp-trial,179,825510,0.0-154.0-0.0,voc_e2,12257,"[{""event"":""fullscreenenter"",""trial"":1,""time"":2522}]",NA,NA,NA,NA,NA,5,#D89F1C,#3386FF,10,10,1,38,1,651.0999999642372,37,1,450.2999999523163,10,1,experiment,NA,NA,2,0.5,0.5,4,5,145,4,NA
fcp-trial,180,827766,0.0-155.0-0.0,voc_e2,12257,"[{""event"":""fullscreenenter"",""trial"":1,""time"":2522}]",NA,NA,NA,NA,NA,4,#D8271C,#741CD8,10,0,1,38,1,388.60000002384186,37,1,361.800000011921,10,1,experiment,NA,NA,0,0.9,0.1,0,1,146,4,NA
fcp-trial,181,830009,0.0-156.0-0.0,voc_e2,12257,"[{""event"":""fullscreenenter"",""trial"":1,""time"":2522}]",NA,NA,NA,NA,NA,6,#3386FF,#D89F1C,10,10,0,38,1,379.80000001192093,39,0,357.9000000357628,10,1,experiment,NA,NA,2,0.5,0.5,5,4,147,4,NA
fcp-trial,182,832352,0.0-157.0-0.0,voc_e2,12257,"[{""event"":""fullscreenenter"",""trial"":1,""time"":2522}]",NA,NA,NA,NA,NA,6,#741CD8,#D8271C,10,10,0,38,1,478.7999999523163,39,0,358.80000001192093,10,1,experiment,NA,NA,0,0.1,0.9,1,0,148,4,NA
fcp-trial,183,834918,0.0-158.0-0.0,voc_e2,12257,"[{""event"":""fullscreenenter"",""trial"":1,""time"":2522}]",NA,NA,NA,NA,NA,3,#1CD855,#FA92F8,10,10,1,38,1,452,37,1,606.7999999523163,10,1,experiment,NA,NA,1,0.7,0.3,2,3,149,4,NA
fcp-trial,184,837292,0.0-159.0-0.0,voc_e2,12257,"[{""event"":""fullscreenenter"",""trial"":1,""time"":2522}]",NA,NA,NA,NA,NA,0,#D8271C,#741CD8,10,0,1,38,1,501.89999997615814,37,1,367.10000002384186,10,1,experiment,NA,NA,0,0.9,0.1,0,1,150,4,NA
fcp-trial,185,840059,0.0-160.0-0.0,voc_e2,12257,"[{""event"":""fullscreenenter"",""trial"":1,""time"":2522}]",NA,NA,NA,NA,NA,2,#D89F1C,#3386FF,10,0,1,38,1,469.5,37,1,792.4000000357628,10,1,experiment,NA,NA,2,0.5,0.5,4,5,151,4,NA
fcp-trial,186,842381,0.0-161.0-0.0,voc_e2,12257,"[{""event"":""fullscreenenter"",""trial"":1,""time"":2522}]",NA,NA,NA,NA,NA,1,#D8271C,#741CD8,10,0,1,38,1,434.80000001192093,37,1,379.5999999642372,10,1,experiment,NA,NA,0,0.9,0.1,0,1,152,4,NA
fcp-trial,187,845206,0.0-162.0-0.0,voc_e2,12257,"[{""event"":""fullscreenenter"",""trial"":1,""time"":2522}]",NA,NA,NA,NA,NA,4,#FA92F8,#1CD855,0,10,0,38,1,387.80000001192093,39,0,932.4000000357628,10,1,experiment,NA,NA,1,0.3,0.7,3,2,153,4,NA
fcp-trial,188,847481,0.0-163.0-0.0,voc_e2,12257,"[{""event"":""fullscreenenter"",""trial"":1,""time"":2522}]",NA,NA,NA,NA,NA,6,#FA92F8,#1CD855,0,10,0,38,1,440.0999999642372,39,0,329.2999999523163,10,1,experiment,NA,NA,1,0.3,0.7,3,2,154,4,NA
fcp-trial,189,849991,0.0-164.0-0.0,voc_e2,12257,"[{""event"":""fullscreenenter"",""trial"":1,""time"":2522}]",NA,NA,NA,NA,NA,3,#3386FF,#D89F1C,0,0,0,38,1,439.80000001192093,39,0,564.9000000357628,0,1,experiment,NA,NA,2,0.5,0.5,5,4,155,4,NA
fcp-trial,190,852308,0.0-165.0-0.0,voc_e2,12257,"[{""event"":""fullscreenenter"",""trial"":1,""time"":2522}]",NA,NA,NA,NA,NA,3,#D8271C,#741CD8,10,0,1,38,1,497.89999997615814,37,1,316.60000002384186,10,1,experiment,NA,NA,0,0.9,0.1,0,1,156,4,NA
fcp-trial,191,854763,0.0-166.0-0.0,voc_e2,12257,"[{""event"":""fullscreenenter"",""trial"":1,""time"":2522}]",NA,NA,NA,NA,NA,5,#741CD8,#D8271C,0,10,0,38,1,608.3999999761581,39,0,342,10,1,experiment,NA,NA,0,0.1,0.9,1,0,157,4,NA
fcp-trial,192,857145,0.0-167.0-0.0,voc_e2,12257,"[{""event"":""fullscreenenter"",""trial"":1,""time"":2522}]",NA,NA,NA,NA,NA,5,#FA92F8,#1CD855,0,10,0,38,1,353.0999999642372,39,0,524.1000000238419,10,1,experiment,NA,NA,1,0.3,0.7,3,2,158,4,NA
fcp-trial,193,859434,0.0-168.0-0.0,voc_e2,12257,"[{""event"":""fullscreenenter"",""trial"":1,""time"":2522}]",NA,NA,NA,NA,NA,6,#D89F1C,#3386FF,0,0,1,38,1,444.19999998807907,37,1,339.4000000357628,0,1,experiment,NA,NA,2,0.5,0.5,4,5,159,4,NA
fcp-trial,194,862041,0.0-169.0-0.0,voc_e2,12257,"[{""event"":""fullscreenenter"",""trial"":1,""time"":2522}]",NA,NA,NA,NA,NA,2,#1CD855,#FA92F8,10,0,1,38,1,395.0999999642372,37,1,704.8000000119209,10,1,experiment,NA,NA,1,0.7,0.3,2,3,160,4,NA
fcp-trial,195,864493,0.0-170.0-0.0,voc_e2,12257,"[{""event"":""fullscreenenter"",""trial"":1,""time"":2522}]",NA,NA,NA,NA,NA,2,#741CD8,#D8271C,0,10,0,38,1,576,39,0,372.800000011921,10,1,experiment,NA,NA,0,0.1,0.9,1,0,161,4,NA
fcp-trial,196,866716,0.0-171.0-0.0,voc_e2,12257,"[{""event"":""fullscreenenter"",""trial"":1,""time"":2522}]",NA,NA,NA,NA,NA,5,#3386FF,#D89F1C,0,0,0,38,1,372.60000002384186,39,0,344.2000000476837,0,1,experiment,NA,NA,2,0.5,0.5,5,4,162,4,NA
fcp-trial,197,869192,0.0-172.0-0.0,voc_e2,12257,"[{""event"":""fullscreenenter"",""trial"":1,""time"":2522}]",NA,NA,NA,NA,NA,0,#FA92F8,#1CD855,10,10,0,38,1,418.80000001192093,39,0,553,10,1,experiment,NA,NA,1,0.3,0.7,3,2,163,4,NA
fcp-trial,198,871658,0.0-173.0-0.0,voc_e2,12257,"[{""event"":""fullscreenenter"",""trial"":1,""time"":2522}]",NA,NA,NA,NA,NA,1,#D89F1C,#3386FF,10,0,1,38,1,433.80000001192093,39,0,527.6999999880791,0,0,experiment,NA,NA,2,0.5,0.5,4,5,164,4,NA
fcp-trial,199,874266,0.0-174.0-0.0,voc_e2,12257,"[{""event"":""fullscreenenter"",""trial"":1,""time"":2522}]",NA,NA,NA,NA,NA,4,#D8271C,#741CD8,10,0,1,38,1,386.0999999642372,37,1,717.2999999523163,10,1,experiment,NA,NA,0,0.9,0.1,0,1,165,4,NA
fcp-trial,200,876708,0.0-175.0-0.0,voc_e2,12257,"[{""event"":""fullscreenenter"",""trial"":1,""time"":2522}]",NA,NA,NA,NA,NA,4,#3386FF,#D89F1C,0,10,0,38,1,566,39,0,370.4000000357628,10,1,experiment,NA,NA,2,0.5,0.5,5,4,166,4,NA
fcp-trial,201,879143,0.0-176.0-0.0,voc_e2,12257,"[{""event"":""fullscreenenter"",""trial"":1,""time"":2522}]",NA,NA,NA,NA,NA,0,#3386FF,#D89F1C,10,10,0,38,1,467.10000002384186,39,0,463.300000011921,10,1,experiment,NA,NA,2,0.5,0.5,5,4,167,4,NA
fcp-trial,202,881853,0.0-177.0-0.0,voc_e2,12257,"[{""event"":""fullscreenenter"",""trial"":1,""time"":2522}]",NA,NA,NA,NA,NA,1,#FA92F8,#1CD855,0,10,0,38,1,495.89999997615814,39,0,710,10,1,experiment,NA,NA,1,0.3,0.7,3,2,168,4,NA
fcp-trial,203,884227,0.0-178.0-0.0,voc_e2,12257,"[{""event"":""fullscreenenter"",""trial"":1,""time"":2522}]",NA,NA,NA,NA,NA,3,#D8271C,#741CD8,10,0,1,38,1,450.89999997615814,37,1,418.39999997615814,10,1,experiment,NA,NA,0,0.9,0.1,0,1,169,4,NA
fcp-trial,204,886709,0.0-179.0-0.0,voc_e2,12257,"[{""event"":""fullscreenenter"",""trial"":1,""time"":2522}]",NA,NA,NA,NA,NA,0,#3386FF,#D89F1C,10,0,0,38,1,507.5999999642372,39,0,470.9000000357628,0,1,experiment,NA,NA,2,0.5,0.5,5,4,170,4,NA
fcp-trial,205,889210,0.0-180.0-0.0,voc_e2,12257,"[{""event"":""fullscreenenter"",""trial"":1,""time"":2522}]",NA,NA,NA,NA,NA,4,#741CD8,#D8271C,0,10,0,38,1,363.80000001192093,39,0,633,10,1,experiment,NA,NA,0,0.1,0.9,1,0,171,4,NA
fcp-trial,206,891653,0.0-181.0-0.0,voc_e2,12257,"[{""event"":""fullscreenenter"",""trial"":1,""time"":2522}]",NA,NA,NA,NA,NA,2,#FA92F8,#1CD855,10,10,0,38,1,665.3000000119209,39,0,272.10000002384186,10,1,experiment,NA,NA,1,0.3,0.7,3,2,172,4,NA
fcp-trial,207,893968,0.0-182.0-0.0,voc_e2,12257,"[{""event"":""fullscreenenter"",""trial"":1,""time"":2522}]",NA,NA,NA,NA,NA,4,#3386FF,#D89F1C,10,0,0,38,1,468.89999997615814,39,0,340,0,1,experiment,NA,NA,2,0.5,0.5,5,4,173,4,NA
fcp-trial,208,896540,0.0-183.0-0.0,voc_e2,12257,"[{""event"":""fullscreenenter"",""trial"":1,""time"":2522}]",NA,NA,NA,NA,NA,2,#741CD8,#D8271C,0,0,0,38,1,401.5999999642372,39,0,665.8999999761581,0,1,experiment,NA,NA,0,0.1,0.9,1,0,174,4,NA
fcp-trial,209,898908,0.0-184.0-0.0,voc_e2,12257,"[{""event"":""fullscreenenter"",""trial"":1,""time"":2522}]",NA,NA,NA,NA,NA,5,#1CD855,#FA92F8,0,10,1,38,1,452,39,0,412.300000011921,10,0,experiment,NA,NA,1,0.7,0.3,2,3,175,4,NA
fcp-trial,210,901581,0.0-185.0-0.0,voc_e2,12257,"[{""event"":""fullscreenenter"",""trial"":1,""time"":2522}]",NA,NA,NA,NA,NA,0,#741CD8,#D8271C,0,10,0,38,1,599.4000000357628,39,0,567.5,10,1,experiment,NA,NA,0,0.1,0.9,1,0,176,4,NA
fcp-trial,211,904037,0.0-186.0-0.0,voc_e2,12257,"[{""event"":""fullscreenenter"",""trial"":1,""time"":2522}]",NA,NA,NA,NA,NA,3,#D89F1C,#3386FF,10,10,1,38,1,594.1000000238419,37,1,356.4000000357628,10,1,experiment,NA,NA,2,0.5,0.5,4,5,177,4,NA
fcp-trial,212,906574,0.0-187.0-0.0,voc_e2,12257,"[{""event"":""fullscreenenter"",""trial"":1,""time"":2522}]",NA,NA,NA,NA,NA,6,#1CD855,#FA92F8,0,0,1,38,1,660.6999999880791,37,1,372.10000002384186,0,1,experiment,NA,NA,1,0.7,0.3,2,3,178,4,NA
fcp-trial,213,909154,0.0-188.0-0.0,voc_e2,12257,"[{""event"":""fullscreenenter"",""trial"":1,""time"":2522}]",NA,NA,NA,NA,NA,4,#FA92F8,#1CD855,10,10,0,38,1,548.3999999761581,39,0,526.3000000119209,10,1,experiment,NA,NA,1,0.3,0.7,3,2,179,4,NA
fcp-trial,214,911524,0.0-189.0-0.0,voc_e2,12257,"[{""event"":""fullscreenenter"",""trial"":1,""time"":2522}]",NA,NA,NA,NA,NA,2,#3386FF,#D89F1C,0,0,0,38,1,533.1000000238419,39,0,332.5,0,1,experiment,NA,NA,2,0.5,0.5,5,4,180,4,NA
fcp-trial,215,914032,0.0-190.0-0.0,voc_e2,12257,"[{""event"":""fullscreenenter"",""trial"":1,""time"":2522}]",NA,NA,NA,NA,NA,5,#D8271C,#741CD8,10,0,1,38,1,467,37,1,535.1999999880791,10,1,experiment,NA,NA,0,0.9,0.1,0,1,181,5,NA
fcp-trial,216,916442,0.0-191.0-0.0,voc_e2,12257,"[{""event"":""fullscreenenter"",""trial"":1,""time"":2522}]",NA,NA,NA,NA,NA,1,#3386FF,#D89F1C,0,10,0,38,1,520.8999999761581,39,0,383.699999988079,10,1,experiment,NA,NA,2,0.5,0.5,5,4,182,5,NA
fcp-trial,217,918729,0.0-192.0-0.0,voc_e2,12257,"[{""event"":""fullscreenenter"",""trial"":1,""time"":2522}]",NA,NA,NA,NA,NA,5,#D89F1C,#3386FF,10,10,1,38,1,429.10000002384186,37,1,354.80000001192093,10,1,experiment,NA,NA,2,0.5,0.5,4,5,183,5,NA
fcp-trial,218,921442,0.0-193.0-0.0,voc_e2,12257,"[{""event"":""fullscreenenter"",""trial"":1,""time"":2522}]",NA,NA,NA,NA,NA,1,#1CD855,#FA92F8,10,0,1,38,1,523.6000000238419,39,0,685,0,0,experiment,NA,NA,1,0.7,0.3,2,3,184,5,NA
fcp-trial,219,923610,0.0-194.0-0.0,voc_e2,12257,"[{""event"":""fullscreenenter"",""trial"":1,""time"":2522}]",NA,NA,NA,NA,NA,0,#1CD855,#FA92F8,10,0,1,38,1,284.80000001192093,37,1,379.10000002384186,10,1,experiment,NA,NA,1,0.7,0.3,2,3,185,5,NA
fcp-trial,220,926342,0.0-195.0-0.0,voc_e2,12257,"[{""event"":""fullscreenenter"",""trial"":1,""time"":2522}]",NA,NA,NA,NA,NA,6,#741CD8,#D8271C,0,10,0,38,1,540.2000000476837,39,0,687.6999999880791,10,1,experiment,NA,NA,0,0.1,0.9,1,0,186,5,NA
fcp-trial,221,928744,0.0-196.0-0.0,voc_e2,12257,"[{""event"":""fullscreenenter"",""trial"":1,""time"":2522}]",NA,NA,NA,NA,NA,6,#3386FF,#D89F1C,0,0,0,38,1,412.80000001192093,39,0,484.0999999642372,0,1,experiment,NA,NA,2,0.5,0.5,5,4,187,5,NA
fcp-trial,222,931668,0.0-197.0-0.0,voc_e2,12257,"[{""event"":""fullscreenenter"",""trial"":1,""time"":2522}]",NA,NA,NA,NA,NA,3,#FA92F8,#1CD855,0,10,0,38,1,811.3000000119209,39,0,609,10,1,experiment,NA,NA,1,0.3,0.7,3,2,188,5,NA
fcp-trial,223,934024,0.0-198.0-0.0,voc_e2,12257,"[{""event"":""fullscreenenter"",""trial"":1,""time"":2522}]",NA,NA,NA,NA,NA,1,#D8271C,#741CD8,10,0,1,38,1,417.60000002384186,37,1,433.699999988079,10,1,experiment,NA,NA,0,0.9,0.1,0,1,189,5,NA
fcp-trial,224,936262,0.0-199.0-0.0,voc_e2,12257,"[{""event"":""fullscreenenter"",""trial"":1,""time"":2522}]",NA,NA,NA,NA,NA,3,#741CD8,#D8271C,0,10,0,38,1,389.9000000357628,39,0,342.69999998807907,10,1,experiment,NA,NA,0,0.1,0.9,1,0,190,5,NA
fcp-trial,225,938613,0.0-200.0-0.0,voc_e2,12257,"[{""event"":""fullscreenenter"",""trial"":1,""time"":2522}]",NA,NA,NA,NA,NA,6,#D8271C,#741CD8,10,0,1,38,1,459.80000001192093,37,1,387.7000000476837,10,1,experiment,NA,NA,0,0.9,0.1,0,1,191,5,NA
fcp-trial,226,940817,0.0-201.0-0.0,voc_e2,12257,"[{""event"":""fullscreenenter"",""trial"":1,""time"":2522}]",NA,NA,NA,NA,NA,5,#D89F1C,#3386FF,0,10,1,38,1,332.19999998807907,37,1,365.199999988079,0,1,experiment,NA,NA,2,0.5,0.5,4,5,192,5,NA
fcp-trial,227,943020,0.0-202.0-0.0,voc_e2,12257,"[{""event"":""fullscreenenter"",""trial"":1,""time"":2522}]",NA,NA,NA,NA,NA,4,#D8271C,#741CD8,10,10,1,38,1,336.5999999642372,39,0,361.5,10,0,experiment,NA,NA,0,0.9,0.1,0,1,193,5,NA
fcp-trial,228,945358,0.0-203.0-0.0,voc_e2,12257,"[{""event"":""fullscreenenter"",""trial"":1,""time"":2522}]",NA,NA,NA,NA,NA,1,#1CD855,#FA92F8,0,0,1,38,1,382.0999999642372,37,1,449.5999999642372,0,1,experiment,NA,NA,1,0.7,0.3,2,3,194,5,NA
fcp-trial,229,947454,0.0-204.0-0.0,voc_e2,12257,"[{""event"":""fullscreenenter"",""trial"":1,""time"":2522}]",NA,NA,NA,NA,NA,1,#D89F1C,#3386FF,0,0,1,38,1,280.10000002384186,39,0,310,0,0,experiment,NA,NA,2,0.5,0.5,4,5,195,5,NA
fcp-trial,230,949685,0.0-205.0-0.0,voc_e2,12257,"[{""event"":""fullscreenenter"",""trial"":1,""time"":2522}]",NA,NA,NA,NA,NA,0,#741CD8,#D8271C,0,10,0,38,1,393.9000000357628,39,0,331.60000002384186,10,1,experiment,NA,NA,0,0.1,0.9,1,0,196,5,NA
fcp-trial,231,951992,0.0-206.0-0.0,voc_e2,12257,"[{""event"":""fullscreenenter"",""trial"":1,""time"":2522}]",NA,NA,NA,NA,NA,1,#D8271C,#741CD8,10,0,1,38,1,351.5,37,1,450.89999997615814,10,1,experiment,NA,NA,0,0.9,0.1,0,1,197,5,NA
fcp-trial,232,954448,0.0-207.0-0.0,voc_e2,12257,"[{""event"":""fullscreenenter"",""trial"":1,""time"":2522}]",NA,NA,NA,NA,NA,6,#1CD855,#FA92F8,10,0,1,38,1,338.2000000476837,37,1,614.3999999761581,10,1,experiment,NA,NA,1,0.7,0.3,2,3,198,5,NA
fcp-trial,233,956700,0.0-208.0-0.0,voc_e2,12257,"[{""event"":""fullscreenenter"",""trial"":1,""time"":2522}]",NA,NA,NA,NA,NA,4,#FA92F8,#1CD855,10,10,0,38,1,265,37,1,480.199999988079,10,0,experiment,NA,NA,1,0.3,0.7,3,2,199,5,NA
fcp-trial,234,959320,0.0-209.0-0.0,voc_e2,12257,"[{""event"":""fullscreenenter"",""trial"":1,""time"":2522}]",NA,NA,NA,NA,NA,3,#D89F1C,#3386FF,10,10,1,38,1,707.1999999880791,37,1,406.39999997615814,10,1,experiment,NA,NA,2,0.5,0.5,4,5,200,5,NA
fcp-trial,235,961742,0.0-210.0-0.0,voc_e2,12257,"[{""event"":""fullscreenenter"",""trial"":1,""time"":2522}]",NA,NA,NA,NA,NA,2,#D89F1C,#3386FF,10,0,1,38,1,483.0999999642372,37,1,433.199999988079,10,1,experiment,NA,NA,2,0.5,0.5,4,5,201,5,NA
fcp-trial,236,964330,0.0-211.0-0.0,voc_e2,12257,"[{""event"":""fullscreenenter"",""trial"":1,""time"":2522}]",NA,NA,NA,NA,NA,2,#741CD8,#D8271C,0,10,0,38,1,379.0999999642372,39,0,704.2999999523163,10,1,experiment,NA,NA,0,0.1,0.9,1,0,202,5,NA
fcp-trial,237,966691,0.0-212.0-0.0,voc_e2,12257,"[{""event"":""fullscreenenter"",""trial"":1,""time"":2522}]",NA,NA,NA,NA,NA,6,#3386FF,#D89F1C,0,10,0,38,1,406.2000000476837,39,0,449.300000011921,10,1,experiment,NA,NA,2,0.5,0.5,5,4,203,5,NA
fcp-trial,238,969097,0.0-213.0-0.0,voc_e2,12257,"[{""event"":""fullscreenenter"",""trial"":1,""time"":2522}]",NA,NA,NA,NA,NA,2,#FA92F8,#1CD855,0,0,0,38,1,567.8999999761581,39,0,333.10000002384186,0,1,experiment,NA,NA,1,0.3,0.7,3,2,204,5,NA
fcp-trial,239,971657,0.0-214.0-0.0,voc_e2,12257,"[{""event"":""fullscreenenter"",""trial"":1,""time"":2522}]",NA,NA,NA,NA,NA,5,#FA92F8,#1CD855,0,0,0,38,1,684,39,0,370.7999999523163,0,1,experiment,NA,NA,1,0.3,0.7,3,2,205,5,NA
fcp-trial,240,973958,0.0-215.0-0.0,voc_e2,12257,"[{""event"":""fullscreenenter"",""trial"":1,""time"":2522}]",NA,NA,NA,NA,NA,3,#1CD855,#FA92F8,0,0,1,38,1,398.2999999523163,37,1,399.39999997615814,0,1,experiment,NA,NA,1,0.7,0.3,2,3,206,5,NA
fcp-trial,241,976318,0.0-216.0-0.0,voc_e2,12257,"[{""event"":""fullscreenenter"",""trial"":1,""time"":2522}]",NA,NA,NA,NA,NA,5,#741CD8,#D8271C,0,10,0,38,1,479.89999997615814,37,1,375.10000002384186,0,0,experiment,NA,NA,0,0.1,0.9,1,0,207,5,NA
fcp-trial,242,978580,0.0-217.0-0.0,voc_e2,12257,"[{""event"":""fullscreenenter"",""trial"":1,""time"":2522}]",NA,NA,NA,NA,NA,0,#D89F1C,#3386FF,10,0,1,38,1,367.5,37,1,387.4000000357628,10,1,experiment,NA,NA,2,0.5,0.5,4,5,208,5,NA
fcp-trial,243,980785,0.0-218.0-0.0,voc_e2,12257,"[{""event"":""fullscreenenter"",""trial"":1,""time"":2522}]",NA,NA,NA,NA,NA,0,#1CD855,#FA92F8,0,0,1,38,1,332.39999997615814,37,1,368.4000000357628,0,1,experiment,NA,NA,1,0.7,0.3,2,3,209,5,NA
fcp-trial,244,983408,0.0-219.0-0.0,voc_e2,12257,"[{""event"":""fullscreenenter"",""trial"":1,""time"":2522}]",NA,NA,NA,NA,NA,4,#D89F1C,#3386FF,0,10,1,38,1,433.69999998807907,37,1,684.8000000119209,0,1,experiment,NA,NA,2,0.5,0.5,4,5,210,5,NA
audio-instructions,245,1012308,0.0-220.0,voc_e2,12257,"[{""event"":""fullscreenenter"",""trial"":1,""time"":2522}]",NA,24452.299999952316,static/audio/pause.wav,NA,0,NA,NA,NA,NA,NA,NA,NA,NA,NA,NA,NA,NA,NA,NA,NA,NA,NA,NA,NA,NA,NA,NA,NA,NA,NA
fcp-trial,246,1015292,0.0-221.0-0.0,voc_e2,12257,"[{""event"":""fullscreenenter"",""trial"":1,""time"":2522}]",NA,NA,NA,NA,NA,0,#D8271C,#741CD8,10,0,1,38,1,1127.6000000238419,37,1,350.0999999642372,10,1,experiment,NA,NA,0,0.9,0.1,0,1,211,5,NA
fcp-trial,247,1017419,0.0-222.0-0.0,voc_e2,12257,"[{""event"":""fullscreenenter"",""trial"":1,""time"":2522}]",NA,NA,NA,NA,NA,3,#741CD8,#D8271C,0,10,0,38,1,296.19999998807907,39,0,326.30000001192093,10,1,experiment,NA,NA,0,0.1,0.9,1,0,212,5,NA
fcp-trial,248,1019825,0.0-223.0-0.0,voc_e2,12257,"[{""event"":""fullscreenenter"",""trial"":1,""time"":2522}]",NA,NA,NA,NA,NA,4,#FA92F8,#1CD855,10,10,0,38,1,315.9000000357628,39,0,585.6999999880791,10,1,experiment,NA,NA,1,0.3,0.7,3,2,213,5,NA
fcp-trial,249,1022042,0.0-224.0-0.0,voc_e2,12257,"[{""event"":""fullscreenenter"",""trial"":1,""time"":2522}]",NA,NA,NA,NA,NA,1,#FA92F8,#1CD855,10,10,0,38,1,330.19999998807907,39,0,383.10000002384186,10,1,experiment,NA,NA,1,0.3,0.7,3,2,214,5,NA
fcp-trial,250,1024210,0.0-225.0-0.0,voc_e2,12257,"[{""event"":""fullscreenenter"",""trial"":1,""time"":2522}]",NA,NA,NA,NA,NA,6,#741CD8,#D8271C,0,10,0,38,1,309.5,37,1,352.39999997615814,0,0,experiment,NA,NA,0,0.1,0.9,1,0,215,5,NA
fcp-trial,251,1026273,0.0-226.0-0.0,voc_e2,12257,"[{""event"":""fullscreenenter"",""trial"":1,""time"":2522}]",NA,NA,NA,NA,NA,4,#741CD8,#D8271C,0,10,0,38,1,268.89999997615814,39,0,290.30000001192093,10,1,experiment,NA,NA,0,0.1,0.9,1,0,216,5,NA
fcp-trial,252,1028467,0.0-227.0-0.0,voc_e2,12257,"[{""event"":""fullscreenenter"",""trial"":1,""time"":2522}]",NA,NA,NA,NA,NA,2,#FA92F8,#1CD855,0,0,0,38,1,373.7000000476837,39,0,315.39999997615814,0,1,experiment,NA,NA,1,0.3,0.7,3,2,217,5,NA
fcp-trial,253,1030659,0.0-228.0-0.0,voc_e2,12257,"[{""event"":""fullscreenenter"",""trial"":1,""time"":2522}]",NA,NA,NA,NA,NA,5,#1CD855,#FA92F8,10,10,1,38,1,353.80000001192093,37,1,331.69999998807907,10,1,experiment,NA,NA,1,0.7,0.3,2,3,218,5,NA
fcp-trial,254,1032850,0.0-229.0-0.0,voc_e2,12257,"[{""event"":""fullscreenenter"",""trial"":1,""time"":2522}]",NA,NA,NA,NA,NA,2,#741CD8,#D8271C,10,10,0,38,1,323.80000001192093,39,0,359.39999997615814,10,1,experiment,NA,NA,0,0.1,0.9,1,0,219,5,NA
fcp-trial,255,1035159,0.0-230.0-0.0,voc_e2,12257,"[{""event"":""fullscreenenter"",""trial"":1,""time"":2522}]",NA,NA,NA,NA,NA,1,#3386FF,#D89F1C,10,10,0,38,1,438.2000000476837,39,0,366.2999999523163,10,1,experiment,NA,NA,2,0.5,0.5,5,4,220,5,NA
fcp-trial,256,1037463,0.0-231.0-0.0,voc_e2,12257,"[{""event"":""fullscreenenter"",""trial"":1,""time"":2522}]",NA,NA,NA,NA,NA,5,#3386FF,#D89F1C,10,0,0,38,1,470.80000001192093,39,0,328.5,0,1,experiment,NA,NA,2,0.5,0.5,5,4,221,5,NA
fcp-trial,257,1040284,0.0-232.0-0.0,voc_e2,12257,"[{""event"":""fullscreenenter"",""trial"":1,""time"":2522}]",NA,NA,NA,NA,NA,0,#1CD855,#FA92F8,10,0,1,38,1,974.8999999761581,37,1,340.69999998807907,10,1,experiment,NA,NA,1,0.7,0.3,2,3,222,5,NA
fcp-trial,258,1042442,0.0-233.0-0.0,voc_e2,12257,"[{""event"":""fullscreenenter"",""trial"":1,""time"":2522}]",NA,NA,NA,NA,NA,1,#741CD8,#D8271C,0,10,0,38,1,363,39,0,290,10,1,experiment,NA,NA,0,0.1,0.9,1,0,223,5,NA
fcp-trial,259,1044568,0.0-234.0-0.0,voc_e2,12257,"[{""event"":""fullscreenenter"",""trial"":1,""time"":2522}]",NA,NA,NA,NA,NA,6,#3386FF,#D89F1C,0,0,0,38,1,330.2000000476837,39,0,290.60000002384186,0,1,experiment,NA,NA,2,0.5,0.5,5,4,224,5,NA
fcp-trial,260,1046692,0.0-235.0-0.0,voc_e2,12257,"[{""event"":""fullscreenenter"",""trial"":1,""time"":2522}]",NA,NA,NA,NA,NA,4,#D89F1C,#3386FF,0,0,1,38,1,319.10000002384186,37,1,300.0999999642372,0,1,experiment,NA,NA,2,0.5,0.5,4,5,225,5,NA
fcp-trial,261,1048876,0.0-236.0-0.0,voc_e2,12257,"[{""event"":""fullscreenenter"",""trial"":1,""time"":2522}]",NA,NA,NA,NA,NA,3,#FA92F8,#1CD855,0,10,0,38,1,396.39999997615814,39,0,283.5,10,1,experiment,NA,NA,1,0.3,0.7,3,2,226,6,NA
fcp-trial,262,1051287,0.0-237.0-0.0,voc_e2,12257,"[{""event"":""fullscreenenter"",""trial"":1,""time"":2522}]",NA,NA,NA,NA,NA,2,#3386FF,#D89F1C,10,0,0,38,1,279,39,0,625.8000000119209,0,1,experiment,NA,NA,2,0.5,0.5,5,4,227,6,NA
fcp-trial,263,1053786,0.0-238.0-0.0,voc_e2,12257,"[{""event"":""fullscreenenter"",""trial"":1,""time"":2522}]",NA,NA,NA,NA,NA,5,#741CD8,#D8271C,0,10,0,38,1,324.30000001192093,39,0,669.6999999880791,10,1,experiment,NA,NA,0,0.1,0.9,1,0,228,6,NA
fcp-trial,264,1055984,0.0-239.0-0.0,voc_e2,12257,"[{""event"":""fullscreenenter"",""trial"":1,""time"":2522}]",NA,NA,NA,NA,NA,3,#D89F1C,#3386FF,0,0,1,38,1,351.80000001192093,37,1,340.5,0,1,experiment,NA,NA,2,0.5,0.5,4,5,229,6,NA
fcp-trial,265,1058208,0.0-240.0-0.0,voc_e2,12257,"[{""event"":""fullscreenenter"",""trial"":1,""time"":2522}]",NA,NA,NA,NA,NA,6,#FA92F8,#1CD855,0,0,0,38,1,369.4000000357628,39,0,348.30000001192093,0,1,experiment,NA,NA,1,0.3,0.7,3,2,230,6,NA
fcp-trial,266,1060360,0.0-241.0-0.0,voc_e2,12257,"[{""event"":""fullscreenenter"",""trial"":1,""time"":2522}]",NA,NA,NA,NA,NA,0,#3386FF,#D89F1C,10,10,0,38,1,367.10000002384186,39,0,279.89999997615814,10,1,experiment,NA,NA,2,0.5,0.5,5,4,231,6,NA
fcp-trial,267,1062470,0.0-242.0-0.0,voc_e2,12257,"[{""event"":""fullscreenenter"",""trial"":1,""time"":2522}]",NA,NA,NA,NA,NA,2,#FA92F8,#1CD855,0,10,0,38,1,332.60000002384186,39,0,272.5,10,1,experiment,NA,NA,1,0.3,0.7,3,2,232,6,NA
fcp-trial,268,1064651,0.0-243.0-0.0,voc_e2,12257,"[{""event"":""fullscreenenter"",""trial"":1,""time"":2522}]",NA,NA,NA,NA,NA,2,#D89F1C,#3386FF,10,0,1,38,1,238,37,1,435.199999988079,10,1,experiment,NA,NA,2,0.5,0.5,4,5,233,6,NA
fcp-trial,269,1067395,0.0-244.0-0.0,voc_e2,12257,"[{""event"":""fullscreenenter"",""trial"":1,""time"":2522}]",NA,NA,NA,NA,NA,3,#D8271C,#741CD8,10,10,1,38,1,356.5999999642372,37,1,881,10,1,experiment,NA,NA,0,0.9,0.1,0,1,234,6,NA
fcp-trial,270,1069843,0.0-245.0-0.0,voc_e2,12257,"[{""event"":""fullscreenenter"",""trial"":1,""time"":2522}]",NA,NA,NA,NA,NA,6,#FA92F8,#1CD855,0,0,0,38,1,631.1000000238419,39,0,313.39999997615814,0,1,experiment,NA,NA,1,0.3,0.7,3,2,235,6,NA
fcp-trial,271,1072109,0.0-246.0-0.0,voc_e2,12257,"[{""event"":""fullscreenenter"",""trial"":1,""time"":2522}]",NA,NA,NA,NA,NA,6,#D8271C,#741CD8,10,0,1,38,1,412.19999998807907,37,1,350,10,1,experiment,NA,NA,0,0.9,0.1,0,1,236,6,NA
fcp-trial,272,1074860,0.0-247.0-0.0,voc_e2,12257,"[{""event"":""fullscreenenter"",""trial"":1,""time"":2522}]",NA,NA,NA,NA,NA,3,#D89F1C,#3386FF,10,10,1,38,1,562.8000000119209,37,1,683.6000000238419,10,1,experiment,NA,NA,2,0.5,0.5,4,5,237,6,NA
fcp-trial,273,1077216,0.0-248.0-0.0,voc_e2,12257,"[{""event"":""fullscreenenter"",""trial"":1,""time"":2522}]",NA,NA,NA,NA,NA,3,#1CD855,#FA92F8,10,0,1,38,1,505.39999997615814,37,1,346.4000000357628,10,1,experiment,NA,NA,1,0.7,0.3,2,3,238,6,NA
fcp-trial,274,1079829,0.0-249.0-0.0,voc_e2,12257,"[{""event"":""fullscreenenter"",""trial"":1,""time"":2522}]",NA,NA,NA,NA,NA,5,#FA92F8,#1CD855,0,0,0,38,1,562.1000000238419,39,0,543.3000000119209,0,1,experiment,NA,NA,1,0.3,0.7,3,2,239,6,NA
fcp-trial,275,1082048,0.0-250.0-0.0,voc_e2,12257,"[{""event"":""fullscreenenter"",""trial"":1,""time"":2522}]",NA,NA,NA,NA,NA,0,#FA92F8,#1CD855,0,0,0,38,1,379.2999999523163,39,0,333.89999997615814,0,1,experiment,NA,NA,1,0.3,0.7,3,2,240,6,NA
fcp-trial,276,1084260,0.0-251.0-0.0,voc_e2,12257,"[{""event"":""fullscreenenter"",""trial"":1,""time"":2522}]",NA,NA,NA,NA,NA,4,#741CD8,#D8271C,0,10,0,38,1,411.60000002384186,39,0,294.5,10,1,experiment,NA,NA,0,0.1,0.9,1,0,241,6,NA
fcp-trial,277,1086414,0.0-252.0-0.0,voc_e2,12257,"[{""event"":""fullscreenenter"",""trial"":1,""time"":2522}]",NA,NA,NA,NA,NA,5,#3386FF,#D89F1C,10,0,0,38,1,398.39999997615814,39,0,250,0,1,experiment,NA,NA,2,0.5,0.5,5,4,242,6,NA
fcp-trial,278,1088641,0.0-253.0-0.0,voc_e2,12257,"[{""event"":""fullscreenenter"",""trial"":1,""time"":2522}]",NA,NA,NA,NA,NA,5,#741CD8,#D8271C,0,10,0,38,1,416.80000001192093,39,0,305.69999998807907,10,1,experiment,NA,NA,0,0.1,0.9,1,0,243,6,NA
fcp-trial,279,1091179,0.0-254.0-0.0,voc_e2,12257,"[{""event"":""fullscreenenter"",""trial"":1,""time"":2522}]",NA,NA,NA,NA,NA,0,#D89F1C,#3386FF,0,0,1,38,1,682.3000000119209,37,1,350.89999997615814,0,1,experiment,NA,NA,2,0.5,0.5,4,5,244,6,NA
fcp-trial,280,1094008,0.0-255.0-0.0,voc_e2,12257,"[{""event"":""fullscreenenter"",""trial"":1,""time"":2522}]",NA,NA,NA,NA,NA,1,#1CD855,#FA92F8,10,0,1,38,1,431.69999998807907,37,1,891.6999999880791,10,1,experiment,NA,NA,1,0.7,0.3,2,3,245,6,NA
fcp-trial,281,1096164,0.0-256.0-0.0,voc_e2,12257,"[{""event"":""fullscreenenter"",""trial"":1,""time"":2522}]",NA,NA,NA,NA,NA,0,#D8271C,#741CD8,10,0,1,38,1,382.19999998807907,39,0,270.10000002384186,0,0,experiment,NA,NA,0,0.9,0.1,0,1,246,6,NA
fcp-trial,282,1098324,0.0-257.0-0.0,voc_e2,12257,"[{""event"":""fullscreenenter"",""trial"":1,""time"":2522}]",NA,NA,NA,NA,NA,4,#D89F1C,#3386FF,0,10,1,38,1,274.4000000357628,37,1,382.0999999642372,0,1,experiment,NA,NA,2,0.5,0.5,4,5,247,6,NA
fcp-trial,283,1100518,0.0-258.0-0.0,voc_e2,12257,"[{""event"":""fullscreenenter"",""trial"":1,""time"":2522}]",NA,NA,NA,NA,NA,4,#1CD855,#FA92F8,0,10,1,38,1,309,37,1,376.2999999523163,0,1,experiment,NA,NA,1,0.7,0.3,2,3,248,6,NA
fcp-trial,284,1102645,0.0-259.0-0.0,voc_e2,12257,"[{""event"":""fullscreenenter"",""trial"":1,""time"":2522}]",NA,NA,NA,NA,NA,6,#3386FF,#D89F1C,10,0,0,38,1,307.30000001192093,39,0,315.5,0,1,experiment,NA,NA,2,0.5,0.5,5,4,249,6,NA
fcp-trial,285,1105074,0.0-260.0-0.0,voc_e2,12257,"[{""event"":""fullscreenenter"",""trial"":1,""time"":2522}]",NA,NA,NA,NA,NA,1,#3386FF,#D89F1C,10,0,0,38,1,344.0999999642372,39,0,581.5999999642372,0,1,experiment,NA,NA,2,0.5,0.5,5,4,250,6,NA
fcp-trial,286,1107458,0.0-261.0-0.0,voc_e2,12257,"[{""event"":""fullscreenenter"",""trial"":1,""time"":2522}]",NA,NA,NA,NA,NA,1,#D8271C,#741CD8,0,0,1,38,1,381.39999997615814,37,1,498.699999988079,0,1,experiment,NA,NA,0,0.9,0.1,0,1,251,6,NA
fcp-trial,287,1109793,0.0-262.0-0.0,voc_e2,12257,"[{""event"":""fullscreenenter"",""trial"":1,""time"":2522}]",NA,NA,NA,NA,NA,2,#D8271C,#741CD8,10,0,1,38,1,513.2000000476837,37,1,317.5,10,1,experiment,NA,NA,0,0.9,0.1,0,1,252,6,NA
fcp-trial,288,1112085,0.0-263.0-0.0,voc_e2,12257,"[{""event"":""fullscreenenter"",""trial"":1,""time"":2522}]",NA,NA,NA,NA,NA,5,#D8271C,#741CD8,10,0,1,38,1,345,37,1,441.89999997615814,10,1,experiment,NA,NA,0,0.9,0.1,0,1,253,6,NA
fcp-trial,289,1114410,0.0-264.0-0.0,voc_e2,12257,"[{""event"":""fullscreenenter"",""trial"":1,""time"":2522}]",NA,NA,NA,NA,NA,0,#FA92F8,#1CD855,0,10,0,38,1,527.5999999642372,39,0,290.5,10,1,experiment,NA,NA,1,0.3,0.7,3,2,254,6,NA
fcp-trial,290,1116552,0.0-265.0-0.0,voc_e2,12257,"[{""event"":""fullscreenenter"",""trial"":1,""time"":2522}]",NA,NA,NA,NA,NA,5,#D89F1C,#3386FF,0,0,1,38,1,179.89999997615814,37,1,457.89999997615814,0,1,experiment,NA,NA,2,0.5,0.5,4,5,255,6,NA
fcp-trial,291,1118759,0.0-266.0-0.0,voc_e2,12257,"[{""event"":""fullscreenenter"",""trial"":1,""time"":2522}]",NA,NA,NA,NA,NA,4,#741CD8,#D8271C,0,10,0,38,1,340.30000001192093,39,0,359.30000001192093,10,1,experiment,NA,NA,0,0.1,0.9,1,0,256,6,NA
fcp-trial,292,1121193,0.0-267.0-0.0,voc_e2,12257,"[{""event"":""fullscreenenter"",""trial"":1,""time"":2522}]",NA,NA,NA,NA,NA,3,#D8271C,#741CD8,10,0,1,38,1,306,37,1,622.5,10,1,experiment,NA,NA,0,0.9,0.1,0,1,257,6,NA
fcp-trial,293,1123513,0.0-268.0-0.0,voc_e2,12257,"[{""event"":""fullscreenenter"",""trial"":1,""time"":2522}]",NA,NA,NA,NA,NA,1,#741CD8,#D8271C,0,10,0,38,1,430.69999998807907,39,0,386.10000002384186,10,1,experiment,NA,NA,0,0.1,0.9,1,0,258,6,NA
fcp-trial,294,1126124,0.0-269.0-0.0,voc_e2,12257,"[{""event"":""fullscreenenter"",""trial"":1,""time"":2522}]",NA,NA,NA,NA,NA,5,#FA92F8,#1CD855,0,0,0,38,1,442.30000001192093,39,0,665.8000000119209,0,1,experiment,NA,NA,1,0.3,0.7,3,2,259,6,NA
fcp-trial,295,1128484,0.0-270.0-0.0,voc_e2,12257,"[{""event"":""fullscreenenter"",""trial"":1,""time"":2522}]",NA,NA,NA,NA,NA,1,#3386FF,#D89F1C,10,10,0,38,1,483.39999997615814,39,0,371.2000000476837,10,1,experiment,NA,NA,2,0.5,0.5,5,4,260,6,NA
fcp-trial,296,1130763,0.0-271.0-0.0,voc_e2,12257,"[{""event"":""fullscreenenter"",""trial"":1,""time"":2522}]",NA,NA,NA,NA,NA,3,#3386FF,#D89F1C,0,0,0,38,1,383.10000002384186,39,0,388.10000002384186,0,1,experiment,NA,NA,2,0.5,0.5,5,4,261,6,NA
fcp-trial,297,1133001,0.0-272.0-0.0,voc_e2,12257,"[{""event"":""fullscreenenter"",""trial"":1,""time"":2522}]",NA,NA,NA,NA,NA,3,#FA92F8,#1CD855,10,0,0,38,1,385.30000001192093,39,0,347.0999999642372,0,1,experiment,NA,NA,1,0.3,0.7,3,2,262,6,NA
fcp-trial,298,1135440,0.0-273.0-0.0,voc_e2,12257,"[{""event"":""fullscreenenter"",""trial"":1,""time"":2522}]",NA,NA,NA,NA,NA,6,#741CD8,#D8271C,0,10,0,38,1,248,39,0,685.5999999642372,10,1,experiment,NA,NA,0,0.1,0.9,1,0,263,6,NA
fcp-trial,299,1137742,0.0-274.0-0.0,voc_e2,12257,"[{""event"":""fullscreenenter"",""trial"":1,""time"":2522}]",NA,NA,NA,NA,NA,6,#D89F1C,#3386FF,10,10,1,38,1,416.39999997615814,37,1,380.699999988079,10,1,experiment,NA,NA,2,0.5,0.5,4,5,264,6,NA
fcp-trial,300,1140190,0.0-275.0-0.0,voc_e2,12257,"[{""event"":""fullscreenenter"",""trial"":1,""time"":2522}]",NA,NA,NA,NA,NA,6,#1CD855,#FA92F8,10,10,1,38,1,501.30000001192093,39,0,443.10000002384186,10,0,experiment,NA,NA,1,0.7,0.3,2,3,265,6,NA
fcp-trial,301,1142554,0.0-276.0-0.0,voc_e2,12257,"[{""event"":""fullscreenenter"",""trial"":1,""time"":2522}]",NA,NA,NA,NA,NA,4,#1CD855,#FA92F8,10,0,1,38,1,483.30000001192093,39,0,374.39999997615814,0,0,experiment,NA,NA,1,0.7,0.3,2,3,266,6,NA
fcp-trial,302,1145158,0.0-277.0-0.0,voc_e2,12257,"[{""event"":""fullscreenenter"",""trial"":1,""time"":2522}]",NA,NA,NA,NA,NA,2,#D89F1C,#3386FF,0,10,1,38,1,626.1999999880791,37,1,471.800000011921,0,1,experiment,NA,NA,2,0.5,0.5,4,5,267,6,NA
fcp-trial,303,1147427,0.0-278.0-0.0,voc_e2,12257,"[{""event"":""fullscreenenter"",""trial"":1,""time"":2522}]",NA,NA,NA,NA,NA,2,#741CD8,#D8271C,0,10,0,38,1,413.69999998807907,39,0,350.30000001192093,10,1,experiment,NA,NA,0,0.1,0.9,1,0,268,6,NA
fcp-trial,304,1149723,0.0-279.0-0.0,voc_e2,12257,"[{""event"":""fullscreenenter"",""trial"":1,""time"":2522}]",NA,NA,NA,NA,NA,2,#1CD855,#FA92F8,10,10,1,38,1,470.69999998807907,39,0,321.19999998807907,10,0,experiment,NA,NA,1,0.7,0.3,2,3,269,6,NA
fcp-trial,305,1152585,0.0-280.0-0.0,voc_e2,12257,"[{""event"":""fullscreenenter"",""trial"":1,""time"":2522}]",NA,NA,NA,NA,NA,0,#3386FF,#D89F1C,0,0,0,38,1,741.2000000476837,39,0,616.0999999642372,0,1,experiment,NA,NA,2,0.5,0.5,5,4,270,6,NA
fcp-trial,306,1154927,0.0-281.0-0.0,voc_e2,12257,"[{""event"":""fullscreenenter"",""trial"":1,""time"":2522}]",NA,NA,NA,NA,NA,4,#D89F1C,#3386FF,10,0,1,38,1,501.19999998807907,37,1,334.9000000357628,10,1,experiment,NA,NA,2,0.5,0.5,4,5,271,7,NA
fcp-trial,307,1157781,0.0-282.0-0.0,voc_e2,12257,"[{""event"":""fullscreenenter"",""trial"":1,""time"":2522}]",NA,NA,NA,NA,NA,1,#FA92F8,#1CD855,10,0,0,38,1,394.4000000357628,37,1,954.6999999880792,10,0,experiment,NA,NA,1,0.3,0.7,3,2,272,7,NA
fcp-trial,308,1160203,0.0-283.0-0.0,voc_e2,12257,"[{""event"":""fullscreenenter"",""trial"":1,""time"":2522}]",NA,NA,NA,NA,NA,0,#D8271C,#741CD8,10,0,1,38,1,455.5,37,1,460.300000011921,10,1,experiment,NA,NA,0,0.9,0.1,0,1,273,7,NA
fcp-trial,309,1162480,0.0-284.0-0.0,voc_e2,12257,"[{""event"":""fullscreenenter"",""trial"":1,""time"":2522}]",NA,NA,NA,NA,NA,5,#1CD855,#FA92F8,10,0,1,38,1,451.19999998807907,39,0,319.80000001192093,0,0,experiment,NA,NA,1,0.7,0.3,2,3,274,7,NA
fcp-trial,310,1164781,0.0-285.0-0.0,voc_e2,12257,"[{""event"":""fullscreenenter"",""trial"":1,""time"":2522}]",NA,NA,NA,NA,NA,4,#FA92F8,#1CD855,0,10,0,38,1,401.69999998807907,37,1,392.699999988079,0,0,experiment,NA,NA,1,0.3,0.7,3,2,275,7,NA
fcp-trial,311,1167545,0.0-286.0-0.0,voc_e2,12257,"[{""event"":""fullscreenenter"",""trial"":1,""time"":2522}]",NA,NA,NA,NA,NA,4,#741CD8,#D8271C,0,10,0,38,1,556.8999999761581,39,0,702.1999999880791,10,1,experiment,NA,NA,0,0.1,0.9,1,0,276,7,NA
fcp-trial,312,1170030,0.0-287.0-0.0,voc_e2,12257,"[{""event"":""fullscreenenter"",""trial"":1,""time"":2522}]",NA,NA,NA,NA,NA,1,#1CD855,#FA92F8,10,10,1,38,1,516.7999999523163,39,0,461.89999997615814,10,0,experiment,NA,NA,1,0.7,0.3,2,3,277,7,NA
fcp-trial,313,1174744,0.0-288.0-0.0,voc_e2,12257,"[{""event"":""fullscreenenter"",""trial"":1,""time"":2522}]",NA,NA,NA,NA,NA,6,#3386FF,#D89F1C,10,10,0,38,1,707.5,37,1,2499.600000023842,10,0,experiment,NA,NA,2,0.5,0.5,5,4,278,7,NA
fcp-trial,314,1177261,0.0-289.0-0.0,voc_e2,12257,"[{""event"":""fullscreenenter"",""trial"":1,""time"":2522}]",NA,NA,NA,NA,NA,0,#1CD855,#FA92F8,10,0,1,38,1,528.6000000238419,39,0,483.0999999642372,0,0,experiment,NA,NA,1,0.7,0.3,2,3,279,7,NA
fcp-trial,315,1179643,0.0-290.0-0.0,voc_e2,12257,"[{""event"":""fullscreenenter"",""trial"":1,""time"":2522}]",NA,NA,NA,NA,NA,2,#741CD8,#D8271C,0,10,0,38,1,446.69999998807907,39,0,429.5,10,1,experiment,NA,NA,0,0.1,0.9,1,0,280,7,NA
fcp-trial,316,1182408,0.0-291.0-0.0,voc_e2,12257,"[{""event"":""fullscreenenter"",""trial"":1,""time"":2522}]",NA,NA,NA,NA,NA,3,#3386FF,#D89F1C,10,10,0,38,1,738.5,37,1,521.8999999761581,10,0,experiment,NA,NA,2,0.5,0.5,5,4,281,7,NA
fcp-trial,317,1184741,0.0-292.0-0.0,voc_e2,12257,"[{""event"":""fullscreenenter"",""trial"":1,""time"":2522}]",NA,NA,NA,NA,NA,4,#3386FF,#D89F1C,10,10,0,38,1,330.39999997615814,37,1,498.5,10,0,experiment,NA,NA,2,0.5,0.5,5,4,282,7,NA
fcp-trial,318,1187987,0.0-293.0-0.0,voc_e2,12257,"[{""event"":""fullscreenenter"",""trial"":1,""time"":2522}]",NA,NA,NA,NA,NA,1,#741CD8,#D8271C,0,10,0,38,1,493.39999997615814,39,0,1249.800000011921,10,1,experiment,NA,NA,0,0.1,0.9,1,0,283,7,NA
fcp-trial,319,1190375,0.0-294.0-0.0,voc_e2,12257,"[{""event"":""fullscreenenter"",""trial"":1,""time"":2522}]",NA,NA,NA,NA,NA,6,#FA92F8,#1CD855,10,10,0,38,1,342.69999998807907,37,1,540.5,10,0,experiment,NA,NA,1,0.3,0.7,3,2,284,7,NA
fcp-trial,320,1193091,0.0-295.0-0.0,voc_e2,12257,"[{""event"":""fullscreenenter"",""trial"":1,""time"":2522}]",NA,NA,NA,NA,NA,0,#3386FF,#D89F1C,10,10,0,38,1,464.30000001192093,37,1,747.8000000119209,10,0,experiment,NA,NA,2,0.5,0.5,5,4,285,7,NA
fcp-trial,321,1195945,0.0-296.0-0.0,voc_e2,12257,"[{""event"":""fullscreenenter"",""trial"":1,""time"":2522}]",NA,NA,NA,NA,NA,6,#D8271C,#741CD8,10,0,1,38,1,903.6999999880791,39,0,443.5,0,0,experiment,NA,NA,0,0.9,0.1,0,1,286,7,NA
fcp-trial,322,1198487,0.0-297.0-0.0,voc_e2,12257,"[{""event"":""fullscreenenter"",""trial"":1,""time"":2522}]",NA,NA,NA,NA,NA,5,#741CD8,#D8271C,0,10,0,38,1,431.10000002384186,39,0,607.6999999880791,10,1,experiment,NA,NA,0,0.1,0.9,1,0,287,7,NA
fcp-trial,323,1200857,0.0-298.0-0.0,voc_e2,12257,"[{""event"":""fullscreenenter"",""trial"":1,""time"":2522}]",NA,NA,NA,NA,NA,3,#FA92F8,#1CD855,0,0,0,38,1,503.4000000357628,37,1,362.9000000357628,0,0,experiment,NA,NA,1,0.3,0.7,3,2,288,7,NA
fcp-trial,324,1205060,0.0-299.0-0.0,voc_e2,12257,"[{""event"":""fullscreenenter"",""trial"":1,""time"":2522}]",NA,NA,NA,NA,NA,5,#3386FF,#D89F1C,10,0,0,38,1,740.5999999642372,37,1,1957.4000000357628,10,0,experiment,NA,NA,2,0.5,0.5,5,4,289,7,NA
fcp-trial,325,1207995,0.0-300.0-0.0,voc_e2,12257,"[{""event"":""fullscreenenter"",""trial"":1,""time"":2522}]",NA,NA,NA,NA,NA,2,#FA92F8,#1CD855,10,0,0,38,1,504.0999999642372,37,1,926,10,0,experiment,NA,NA,1,0.3,0.7,3,2,290,7,NA
fcp-trial,326,1210448,0.0-301.0-0.0,voc_e2,12257,"[{""event"":""fullscreenenter"",""trial"":1,""time"":2522}]",NA,NA,NA,NA,NA,3,#741CD8,#D8271C,0,10,0,38,1,500.2999999523163,39,0,445.5,10,1,experiment,NA,NA,0,0.1,0.9,1,0,291,7,NA
fcp-trial,327,1212827,0.0-302.0-0.0,voc_e2,12257,"[{""event"":""fullscreenenter"",""trial"":1,""time"":2522}]",NA,NA,NA,NA,NA,0,#D8271C,#741CD8,10,0,1,38,1,456.80000001192093,37,1,416.4000000357628,10,1,experiment,NA,NA,0,0.9,0.1,0,1,292,7,NA
fcp-trial,328,1215283,0.0-303.0-0.0,voc_e2,12257,"[{""event"":""fullscreenenter"",""trial"":1,""time"":2522}]",NA,NA,NA,NA,NA,2,#D89F1C,#3386FF,10,10,1,38,1,443,39,0,507.199999988079,10,0,experiment,NA,NA,2,0.5,0.5,4,5,293,7,NA
fcp-trial,329,1217614,0.0-304.0-0.0,voc_e2,12257,"[{""event"":""fullscreenenter"",""trial"":1,""time"":2522}]",NA,NA,NA,NA,NA,1,#3386FF,#D89F1C,0,0,0,38,1,386.69999998807907,37,1,438.800000011921,0,0,experiment,NA,NA,2,0.5,0.5,5,4,294,7,NA
fcp-trial,330,1219892,0.0-305.0-0.0,voc_e2,12257,"[{""event"":""fullscreenenter"",""trial"":1,""time"":2522}]",NA,NA,NA,NA,NA,2,#FA92F8,#1CD855,10,10,0,38,1,441.9000000357628,37,1,332.30000001192093,10,0,experiment,NA,NA,1,0.3,0.7,3,2,295,7,NA
fcp-trial,331,1222128,0.0-306.0-0.0,voc_e2,12257,"[{""event"":""fullscreenenter"",""trial"":1,""time"":2522}]",NA,NA,NA,NA,NA,5,#741CD8,#D8271C,0,10,0,38,1,388.4000000357628,39,0,340.80000001192093,10,1,experiment,NA,NA,0,0.1,0.9,1,0,296,7,NA
fcp-trial,332,1224363,0.0-307.0-0.0,voc_e2,12257,"[{""event"":""fullscreenenter"",""trial"":1,""time"":2522}]",NA,NA,NA,NA,NA,2,#741CD8,#D8271C,0,10,0,38,1,396.19999998807907,39,0,334.39999997615814,10,1,experiment,NA,NA,0,0.1,0.9,1,0,297,7,NA
fcp-trial,333,1226552,0.0-308.0-0.0,voc_e2,12257,"[{""event"":""fullscreenenter"",""trial"":1,""time"":2522}]",NA,NA,NA,NA,NA,4,#3386FF,#D89F1C,0,0,0,38,1,345.2999999523163,37,1,338.89999997615814,0,0,experiment,NA,NA,2,0.5,0.5,5,4,298,7,NA
fcp-trial,334,1228690,0.0-309.0-0.0,voc_e2,12257,"[{""event"":""fullscreenenter"",""trial"":1,""time"":2522}]",NA,NA,NA,NA,NA,5,#3386FF,#D89F1C,10,10,0,38,1,361.4000000357628,39,0,270.80000001192093,10,1,experiment,NA,NA,2,0.5,0.5,5,4,299,7,NA
fcp-trial,335,1231046,0.0-310.0-0.0,voc_e2,12257,"[{""event"":""fullscreenenter"",""trial"":1,""time"":2522}]",NA,NA,NA,NA,NA,5,#1CD855,#FA92F8,10,0,1,38,1,526.1000000238419,39,0,324.89999997615814,0,0,experiment,NA,NA,1,0.7,0.3,2,3,300,7,NA
fcp-trial,336,1233277,0.0-311.0-0.0,voc_e2,12257,"[{""event"":""fullscreenenter"",""trial"":1,""time"":2522}]",NA,NA,NA,NA,NA,1,#D89F1C,#3386FF,0,10,1,38,1,408.5,37,1,317.89999997615814,0,1,experiment,NA,NA,2,0.5,0.5,4,5,301,7,NA
fcp-trial,337,1235639,0.0-312.0-0.0,voc_e2,12257,"[{""event"":""fullscreenenter"",""trial"":1,""time"":2522}]",NA,NA,NA,NA,NA,6,#741CD8,#D8271C,0,10,0,38,1,384.80000001192093,37,1,473.5,0,0,experiment,NA,NA,0,0.1,0.9,1,0,302,7,NA
fcp-trial,338,1238048,0.0-313.0-0.0,voc_e2,12257,"[{""event"":""fullscreenenter"",""trial"":1,""time"":2522}]",NA,NA,NA,NA,NA,1,#FA92F8,#1CD855,0,10,0,38,1,300.80000001192093,37,1,602.5,0,0,experiment,NA,NA,1,0.3,0.7,3,2,303,7,NA
fcp-trial,339,1240428,0.0-314.0-0.0,voc_e2,12257,"[{""event"":""fullscreenenter"",""trial"":1,""time"":2522}]",NA,NA,NA,NA,NA,2,#D89F1C,#3386FF,10,0,1,38,1,357.10000002384186,37,1,517.6000000238419,10,1,experiment,NA,NA,2,0.5,0.5,4,5,304,7,NA
fcp-trial,340,1242709,0.0-315.0-0.0,voc_e2,12257,"[{""event"":""fullscreenenter"",""trial"":1,""time"":2522}]",NA,NA,NA,NA,NA,6,#3386FF,#D89F1C,10,0,0,38,1,411.2000000476837,39,0,364.199999988079,0,1,experiment,NA,NA,2,0.5,0.5,5,4,305,7,NA
fcp-trial,341,1245159,0.0-316.0-0.0,voc_e2,12257,"[{""event"":""fullscreenenter"",""trial"":1,""time"":2522}]",NA,NA,NA,NA,NA,4,#741CD8,#D8271C,0,10,0,38,1,435.19999998807907,39,0,510.39999997615814,10,1,experiment,NA,NA,0,0.1,0.9,1,0,306,7,NA
fcp-trial,342,1247537,0.0-317.0-0.0,voc_e2,12257,"[{""event"":""fullscreenenter"",""trial"":1,""time"":2522}]",NA,NA,NA,NA,NA,0,#D8271C,#741CD8,10,0,1,38,1,504.5,37,1,368.9000000357628,10,1,experiment,NA,NA,0,0.9,0.1,0,1,307,7,NA
fcp-trial,343,1249877,0.0-318.0-0.0,voc_e2,12257,"[{""event"":""fullscreenenter"",""trial"":1,""time"":2522}]",NA,NA,NA,NA,NA,0,#FA92F8,#1CD855,0,0,0,38,1,452.39999997615814,37,1,383.2999999523163,0,0,experiment,NA,NA,1,0.3,0.7,3,2,308,7,NA
fcp-trial,344,1252167,0.0-319.0-0.0,voc_e2,12257,"[{""event"":""fullscreenenter"",""trial"":1,""time"":2522}]",NA,NA,NA,NA,NA,3,#D8271C,#741CD8,10,0,1,38,1,323.0999999642372,37,1,461,10,1,experiment,NA,NA,0,0.9,0.1,0,1,309,7,NA
fcp-trial,345,1254414,0.0-320.0-0.0,voc_e2,12257,"[{""event"":""fullscreenenter"",""trial"":1,""time"":2522}]",NA,NA,NA,NA,NA,3,#3386FF,#D89F1C,0,0,0,38,1,469,39,0,272.39999997615814,0,1,experiment,NA,NA,2,0.5,0.5,5,4,310,7,NA
fcp-trial,346,1256542,0.0-321.0-0.0,voc_e2,12257,"[{""event"":""fullscreenenter"",""trial"":1,""time"":2522}]",NA,NA,NA,NA,NA,4,#1CD855,#FA92F8,10,0,1,38,1,338.60000002384186,39,0,284.2999999523163,0,0,experiment,NA,NA,1,0.7,0.3,2,3,311,7,NA
fcp-trial,347,1259244,0.0-322.0-0.0,voc_e2,12257,"[{""event"":""fullscreenenter"",""trial"":1,""time"":2522}]",NA,NA,NA,NA,NA,3,#FA92F8,#1CD855,10,10,0,38,1,888.5999999642372,39,0,309.30000001192093,10,1,experiment,NA,NA,1,0.3,0.7,3,2,312,7,NA
fcp-trial,348,1261483,0.0-323.0-0.0,voc_e2,12257,"[{""event"":""fullscreenenter"",""trial"":1,""time"":2522}]",NA,NA,NA,NA,NA,1,#741CD8,#D8271C,0,10,0,38,1,451.80000001192093,39,0,279.19999998807907,10,1,experiment,NA,NA,0,0.1,0.9,1,0,313,7,NA
fcp-trial,349,1263786,0.0-324.0-0.0,voc_e2,12257,"[{""event"":""fullscreenenter"",""trial"":1,""time"":2522}]",NA,NA,NA,NA,NA,6,#FA92F8,#1CD855,10,0,0,38,1,453,39,0,343,0,1,experiment,NA,NA,1,0.3,0.7,3,2,314,7,NA
fcp-trial,350,1266595,0.0-325.0-0.0,voc_e2,12257,"[{""event"":""fullscreenenter"",""trial"":1,""time"":2522}]",NA,NA,NA,NA,NA,0,#D89F1C,#3386FF,10,0,1,38,1,433.89999997615814,37,1,866.6000000238419,10,1,experiment,NA,NA,2,0.5,0.5,4,5,315,7,NA
audio-instructions,351,1272676,0.0-326.0,voc_e2,12257,"[{""event"":""fullscreenenter"",""trial"":1,""time"":2522}]",NA,435.10000002384186,static/audio/finished.wav,NA,0,NA,NA,NA,NA,NA,NA,NA,NA,NA,NA,NA,NA,NA,NA,NA,NA,NA,NA,NA,NA,NA,NA,NA,NA,NA
audio-instructions,352,1284108,0.0-327.0-0.0,voc_e2,12257,"[{""event"":""fullscreenenter"",""trial"":1,""time"":2522}]",NA,594.1000000238419,static/audio/explicit1.wav,NA,0,NA,NA,NA,NA,NA,NA,NA,NA,NA,NA,NA,NA,NA,NA,NA,NA,NA,NA,NA,NA,NA,NA,NA,NA,NA
audio-instructions,353,1292542,0.0-327.0-1.0,voc_e2,12257,"[{""event"":""fullscreenenter"",""trial"":1,""time"":2522}]",NA,837.1000000238419,static/audio/explicit2.wav,NA,0,NA,NA,NA,NA,NA,NA,NA,NA,NA,NA,NA,NA,NA,NA,NA,NA,NA,NA,NA,NA,NA,NA,NA,NA,NA
image-slider-response,354,1299458,0.0-328.0,voc_e2,12257,"[{""event"":""fullscreenenter"",""trial"":1,""time"":2522}]",NA,6912.699999988079,static/img/machines/machine1.png,NA,NA,NA,NA,NA,NA,NA,NA,NA,NA,NA,NA,NA,NA,NA,NA,explicit,NA,NA,NA,NA,NA,NA,NA,NA,NA,6
image-slider-response,355,1308858,0.0-329.0,voc_e2,12257,"[{""event"":""fullscreenenter"",""trial"":1,""time"":2522}]",NA,9397.19999998808,static/img/machines/machine6.png,NA,NA,NA,NA,NA,NA,NA,NA,NA,NA,NA,NA,NA,NA,NA,NA,explicit,NA,NA,NA,NA,NA,NA,NA,NA,NA,7
image-slider-response,356,1311708,0.0-330.0,voc_e2,12257,"[{""event"":""fullscreenenter"",""trial"":1,""time"":2522}]",NA,2847.399999976158,static/img/machines/machine2.png,NA,NA,NA,NA,NA,NA,NA,NA,NA,NA,NA,NA,NA,NA,NA,NA,explicit,NA,NA,NA,NA,NA,NA,NA,NA,NA,3
image-slider-response,357,1314774,0.0-331.0,voc_e2,12257,"[{""event"":""fullscreenenter"",""trial"":1,""time"":2522}]",NA,3064.2000000476837,static/img/machines/machine5.png,NA,NA,NA,NA,NA,NA,NA,NA,NA,NA,NA,NA,NA,NA,NA,NA,explicit,NA,NA,NA,NA,NA,NA,NA,NA,NA,3
image-slider-response,358,1318374,0.0-332.0,voc_e2,12257,"[{""event"":""fullscreenenter"",""trial"":1,""time"":2522}]",NA,3597.800000011921,static/img/machines/machine3.png,NA,NA,NA,NA,NA,NA,NA,NA,NA,NA,NA,NA,NA,NA,NA,NA,explicit,NA,NA,NA,NA,NA,NA,NA,NA,NA,2
image-slider-response,359,1322658,0.0-333.0,voc_e2,12257,"[{""event"":""fullscreenenter"",""trial"":1,""time"":2522}]",NA,4281.399999976158,static/img/machines/machine4.png,NA,NA,NA,NA,NA,NA,NA,NA,NA,NA,NA,NA,NA,NA,NA,NA,explicit,NA,NA,NA,NA,NA,NA,NA,NA,NA,7
