trial_type,trial_index,time_elapsed,internal_node_id,task_version,subject_id,interactions,success,rt,stimulus,key_press,button_pressed,offer,arcade_color_L,arcade_color_R,arcade_outcome_L,arcade_outcome_R,correct,stage_1_key,stage_1_choice,stage_1_rt,stage_2_key,stage_2_choice,stage_2_rt,stage_3_outcome,accuracy,phase,responses,num_errors,context,reward_prob_L,reward_prob_R,arcade_id_L,arcade_id_R,trial,block,response
pavlovia,0,12,0.0-0.0,voc_e2,12195,[],NA,NA,NA,NA,NA,NA,NA,NA,NA,NA,NA,NA,NA,NA,NA,NA,NA,NA,NA,NA,NA,NA,NA,NA,NA,NA,NA,NA,NA,NA
fullscreen,1,4711,0.0-1.0,voc_e2,12195,"[{""event"":""fullscreenenter"",""trial"":1,""time"":3714}]",TRUE,NA,NA,NA,NA,NA,NA,NA,NA,NA,NA,NA,NA,NA,NA,NA,NA,NA,NA,NA,NA,NA,NA,NA,NA,NA,NA,NA,NA,NA
audio-keyboard-response,2,8923,0.0-2.0,voc_e2,12195,"[{""event"":""fullscreenenter"",""trial"":1,""time"":3714}]",NA,4149,static/audio/beep_loop.wav,32,NA,NA,NA,NA,NA,NA,NA,NA,NA,NA,NA,NA,NA,NA,NA,NA,NA,NA,NA,NA,NA,NA,NA,NA,NA,NA
audio-test,3,10892,0.0-3.0,voc_e2,12195,"[{""event"":""fullscreenenter"",""trial"":1,""time"":3714}]",NA,NA,static/audio/turtle.wav,NA,3,NA,NA,NA,NA,NA,NA,NA,NA,NA,NA,NA,NA,NA,NA,NA,NA,NA,NA,NA,NA,NA,NA,NA,NA,NA
audio-test,4,14896,0.0-4.0,voc_e2,12195,"[{""event"":""fullscreenenter"",""trial"":1,""time"":3714}]",NA,NA,static/audio/shark.wav,NA,2,NA,NA,NA,NA,NA,NA,NA,NA,NA,NA,NA,NA,NA,NA,NA,NA,NA,NA,NA,NA,NA,NA,NA,NA,NA
audio-instructions,5,22443,0.0-5.0-0.0,voc_e2,12195,"[{""event"":""fullscreenenter"",""trial"":1,""time"":3714}]",NA,1761.5999999940395,static/audio/instructions1.wav,NA,0,NA,NA,NA,NA,NA,NA,NA,NA,NA,NA,NA,NA,NA,NA,NA,NA,NA,NA,NA,NA,NA,NA,NA,NA,NA
audio-instructions,6,36211,0.0-5.0-1.0,voc_e2,12195,"[{""event"":""fullscreenenter"",""trial"":1,""time"":3714}]",NA,7023.699999988079,static/audio/instructions2.wav,NA,0,NA,NA,NA,NA,NA,NA,NA,NA,NA,NA,NA,NA,NA,NA,NA,NA,NA,NA,NA,NA,NA,NA,NA,NA,NA
audio-instructions,7,42422,0.0-5.0-2.0,voc_e2,12195,"[{""event"":""fullscreenenter"",""trial"":1,""time"":3714}]",NA,407.59999999403954,static/audio/instructions3.wav,NA,0,NA,NA,NA,NA,NA,NA,NA,NA,NA,NA,NA,NA,NA,NA,NA,NA,NA,NA,NA,NA,NA,NA,NA,NA,NA
audio-instructions,8,56192,0.0-5.0-3.0,voc_e2,12195,"[{""event"":""fullscreenenter"",""trial"":1,""time"":3714}]",NA,540.0999999940395,static/audio/instructions4.wav,NA,0,NA,NA,NA,NA,NA,NA,NA,NA,NA,NA,NA,NA,NA,NA,NA,NA,NA,NA,NA,NA,NA,NA,NA,NA,NA
audio-instructions,9,66136,0.0-5.0-4.0,voc_e2,12195,"[{""event"":""fullscreenenter"",""trial"":1,""time"":3714}]",NA,559,static/audio/instructions5.wav,NA,0,NA,NA,NA,NA,NA,NA,NA,NA,NA,NA,NA,NA,NA,NA,NA,NA,NA,NA,NA,NA,NA,NA,NA,NA,NA
fcp-practice,10,68709,0.0-5.0-5.0-0.0,voc_e2,12195,"[{""event"":""fullscreenenter"",""trial"":1,""time"":3714}]",NA,NA,NA,NA,NA,NA,#EDC948,#46d3c8,10,0,1,null,null,null,37,1,1056.7000000178814,10,1,practice,NA,NA,NA,NA,NA,NA,NA,NA,NA,NA
fcp-practice,11,71458,0.0-5.0-5.0-1.0,voc_e2,12195,"[{""event"":""fullscreenenter"",""trial"":1,""time"":3714}]",NA,NA,NA,NA,NA,NA,#EDC948,#46d3c8,10,0,1,null,null,null,37,1,1242.699999988079,10,1,practice,NA,NA,NA,NA,NA,NA,NA,NA,NA,NA
fcp-practice,12,73414,0.0-5.0-5.0-2.0,voc_e2,12195,"[{""event"":""fullscreenenter"",""trial"":1,""time"":3714}]",NA,NA,NA,NA,NA,NA,#EDC948,#46d3c8,0,10,1,null,null,null,37,1,449.7000000178814,0,1,practice,NA,NA,NA,NA,NA,NA,NA,NA,NA,NA
fcp-practice,13,75695,0.0-5.0-5.0-3.0,voc_e2,12195,"[{""event"":""fullscreenenter"",""trial"":1,""time"":3714}]",NA,NA,NA,NA,NA,NA,#EDC948,#46d3c8,10,0,1,null,null,null,37,1,775,10,1,practice,NA,NA,NA,NA,NA,NA,NA,NA,NA,NA
fcp-practice,14,77626,0.0-5.0-5.0-4.0,voc_e2,12195,"[{""event"":""fullscreenenter"",""trial"":1,""time"":3714}]",NA,NA,NA,NA,NA,NA,#EDC948,#46d3c8,10,0,1,null,null,null,37,1,424.59999999403954,10,1,practice,NA,NA,NA,NA,NA,NA,NA,NA,NA,NA
audio-instructions,15,99755,0.0-5.0-6.0,voc_e2,12195,"[{""event"":""fullscreenenter"",""trial"":1,""time"":3714}]",NA,4125.200000017881,static/audio/instructions6.wav,NA,0,NA,NA,NA,NA,NA,NA,NA,NA,NA,NA,NA,NA,NA,NA,NA,NA,NA,NA,NA,NA,NA,NA,NA,NA,NA
audio-instructions,16,120602,0.0-5.0-7.0,voc_e2,12195,"[{""event"":""fullscreenenter"",""trial"":1,""time"":3714}]",NA,1648.5,static/audio/instructions7.wav,NA,0,NA,NA,NA,NA,NA,NA,NA,NA,NA,NA,NA,NA,NA,NA,NA,NA,NA,NA,NA,NA,NA,NA,NA,NA,NA
audio-instructions,17,131042,0.0-5.0-8.0,voc_e2,12195,"[{""event"":""fullscreenenter"",""trial"":1,""time"":3714}]",NA,968.1999999880792,static/audio/instructions8.wav,NA,0,NA,NA,NA,NA,NA,NA,NA,NA,NA,NA,NA,NA,NA,NA,NA,NA,NA,NA,NA,NA,NA,NA,NA,NA,NA
fcp-comprehension,18,138635,0.0-5.0-9.0,voc_e2,12195,"[{""event"":""fullscreenenter"",""trial"":1,""time"":3714}]",NA,7589.5,NA,NA,NA,NA,NA,NA,NA,NA,NA,NA,NA,NA,NA,NA,NA,NA,NA,NA,"true,true",0,NA,NA,NA,NA,NA,NA,NA,NA
audio-instructions,19,145879,0.0-6.0-0.0,voc_e2,12195,"[{""event"":""fullscreenenter"",""trial"":1,""time"":3714}]",NA,1693.5999999940395,static/audio/instructions9.wav,NA,0,NA,NA,NA,NA,NA,NA,NA,NA,NA,NA,NA,NA,NA,NA,NA,NA,NA,NA,NA,NA,NA,NA,NA,NA,NA
audio-instructions,20,158956,0.0-6.0-1.0,voc_e2,12195,"[{""event"":""fullscreenenter"",""trial"":1,""time"":3714}]",NA,957.3000000119208,static/audio/instructions10.wav,NA,0,NA,NA,NA,NA,NA,NA,NA,NA,NA,NA,NA,NA,NA,NA,NA,NA,NA,NA,NA,NA,NA,NA,NA,NA,NA
fcp-trial,21,165058,0.0-6.0-2.0,voc_e2,12195,"[{""event"":""fullscreenenter"",""trial"":1,""time"":3714}]",NA,NA,NA,NA,NA,0,#EDC948,#46d3c8,10,10,1,38,1,3771.7999999821186,37,1,817.8000000119209,10,1,practice,NA,NA,NA,NA,NA,NA,NA,NA,NA,NA
audio-instructions,22,178292,0.0-6.0-3.0,voc_e2,12195,"[{""event"":""fullscreenenter"",""trial"":1,""time"":3714}]",NA,2223.5,static/audio/instructions11.wav,NA,0,NA,NA,NA,NA,NA,NA,NA,NA,NA,NA,NA,NA,NA,NA,NA,NA,NA,NA,NA,NA,NA,NA,NA,NA,NA
fcp-trial,23,182202,0.0-6.0-4.0,voc_e2,12195,"[{""event"":""fullscreenenter"",""trial"":1,""time"":3714}]",NA,NA,NA,NA,NA,6,#EDC948,#46d3c8,10,10,1,40,0,1494.300000011921,37,1,906.3000000119208,10,1,practice,NA,NA,NA,NA,NA,NA,NA,NA,NA,NA
audio-instructions,24,202235,0.0-6.0-5.0,voc_e2,12195,"[{""event"":""fullscreenenter"",""trial"":1,""time"":3714}]",NA,1344.2999999821186,static/audio/instructions12.wav,NA,0,NA,NA,NA,NA,NA,NA,NA,NA,NA,NA,NA,NA,NA,NA,NA,NA,NA,NA,NA,NA,NA,NA,NA,NA,NA
audio-instructions,25,210753,0.0-6.0-6.0,voc_e2,12195,"[{""event"":""fullscreenenter"",""trial"":1,""time"":3714}]",NA,924.7000000178814,static/audio/instructions13.wav,NA,0,NA,NA,NA,NA,NA,NA,NA,NA,NA,NA,NA,NA,NA,NA,NA,NA,NA,NA,NA,NA,NA,NA,NA,NA,NA
audio-instructions,26,219770,0.0-6.0-7.0,voc_e2,12195,"[{""event"":""fullscreenenter"",""trial"":1,""time"":3714}]",NA,570,static/audio/instructions14.wav,NA,0,NA,NA,NA,NA,NA,NA,NA,NA,NA,NA,NA,NA,NA,NA,NA,NA,NA,NA,NA,NA,NA,NA,NA,NA,NA
audio-instructions,27,227568,0.0-7.0-0.0,voc_e2,12195,"[{""event"":""fullscreenenter"",""trial"":1,""time"":3714}]",NA,885.8000000119209,static/audio/instructions15.wav,NA,0,NA,NA,NA,NA,NA,NA,NA,NA,NA,NA,NA,NA,NA,NA,NA,NA,NA,NA,NA,NA,NA,NA,NA,NA,NA
audio-instructions,28,234948,0.0-7.0-1.0,voc_e2,12195,"[{""event"":""fullscreenenter"",""trial"":1,""time"":3714}]",NA,553.1999999880791,static/audio/instructions16.wav,NA,0,NA,NA,NA,NA,NA,NA,NA,NA,NA,NA,NA,NA,NA,NA,NA,NA,NA,NA,NA,NA,NA,NA,NA,NA,NA
audio-instructions,29,243032,0.0-7.0-2.0,voc_e2,12195,"[{""event"":""fullscreenenter"",""trial"":1,""time"":3714}]",NA,403.2999999821186,static/audio/instructions17.wav,NA,0,NA,NA,NA,NA,NA,NA,NA,NA,NA,NA,NA,NA,NA,NA,NA,NA,NA,NA,NA,NA,NA,NA,NA,NA,NA
audio-instructions,30,251568,0.0-7.0-3.0,voc_e2,12195,"[{""event"":""fullscreenenter"",""trial"":1,""time"":3714}]",NA,768.5999999940395,static/audio/instructions18.wav,NA,0,NA,NA,NA,NA,NA,NA,NA,NA,NA,NA,NA,NA,NA,NA,NA,NA,NA,NA,NA,NA,NA,NA,NA,NA,NA
audio-instructions,31,259158,0.0-7.0-4.0,voc_e2,12195,"[{""event"":""fullscreenenter"",""trial"":1,""time"":3714}]",NA,848.1999999880791,static/audio/instructions19.wav,NA,0,NA,NA,NA,NA,NA,NA,NA,NA,NA,NA,NA,NA,NA,NA,NA,NA,NA,NA,NA,NA,NA,NA,NA,NA,NA
fcp-comprehension,32,269916,0.0-7.0-5.0,voc_e2,12195,"[{""event"":""fullscreenenter"",""trial"":1,""time"":3714}]",NA,10755.29999998212,NA,NA,NA,NA,NA,NA,NA,NA,NA,NA,NA,NA,NA,NA,NA,NA,NA,NA,"false,false,false,true",0,NA,NA,NA,NA,NA,NA,NA,NA
audio-instructions,33,280038,0.0-8.0,voc_e2,12195,"[{""event"":""fullscreenenter"",""trial"":1,""time"":3714}]",NA,902,static/audio/ready.wav,NA,0,NA,NA,NA,NA,NA,NA,NA,NA,NA,NA,NA,NA,NA,NA,NA,NA,NA,NA,NA,NA,NA,NA,NA,NA,NA
fcp-trial,34,285115,0.0-9.0-0.0,voc_e2,12195,"[{""event"":""fullscreenenter"",""trial"":1,""time"":3714}]",NA,NA,NA,NA,NA,3,#D8271C,#741CD8,10,0,0,40,0,2679.5,39,0,887.9000000059605,0,1,experiment,NA,NA,2,0.5,0.5,5,4,1,1,NA
fcp-trial,35,288747,0.0-10.0-0.0,voc_e2,12195,"[{""event"":""fullscreenenter"",""trial"":1,""time"":3714}]",NA,NA,NA,NA,NA,2,#741CD8,#D8271C,0,0,1,40,0,1395.0999999940395,39,0,727.5999999940395,0,0,experiment,NA,NA,2,0.5,0.5,4,5,2,1,NA
fcp-trial,36,293836,0.0-11.0-0.0,voc_e2,12195,"[{""event"":""fullscreenenter"",""trial"":1,""time"":3714}]",NA,NA,NA,NA,NA,5,#3386FF,#D89F1C,0,10,0,40,0,2706.5999999940395,37,1,875.7000000178814,0,0,experiment,NA,NA,0,0.1,0.9,1,0,3,1,NA
fcp-trial,37,296988,0.0-12.0-0.0,voc_e2,12195,"[{""event"":""fullscreenenter"",""trial"":1,""time"":3714}]",NA,NA,NA,NA,NA,1,#D89F1C,#3386FF,10,0,1,40,0,653.7999999821186,37,1,989,10,1,experiment,NA,NA,0,0.9,0.1,0,1,4,1,NA
fcp-trial,38,300510,0.0-13.0-0.0,voc_e2,12195,"[{""event"":""fullscreenenter"",""trial"":1,""time"":3714}]",NA,NA,NA,NA,NA,0,#1CD855,#FA92F8,10,0,0,40,0,1183.0999999940395,37,1,831.6999999880791,10,0,experiment,NA,NA,1,0.3,0.7,3,2,5,1,NA
fcp-trial,39,304174,0.0-14.0-0.0,voc_e2,12195,"[{""event"":""fullscreenenter"",""trial"":1,""time"":3714}]",NA,NA,NA,NA,NA,6,#3386FF,#D89F1C,0,10,0,40,0,1479.4000000059605,39,0,679.2999999821186,10,1,experiment,NA,NA,0,0.1,0.9,1,0,6,1,NA
fcp-trial,40,308176,0.0-15.0-0.0,voc_e2,12195,"[{""event"":""fullscreenenter"",""trial"":1,""time"":3714}]",NA,NA,NA,NA,NA,5,#D8271C,#741CD8,0,10,0,38,1,1922.2000000178814,37,1,573.9000000059605,0,0,experiment,NA,NA,2,0.5,0.5,5,4,7,1,NA
fcp-trial,41,312426,0.0-16.0-0.0,voc_e2,12195,"[{""event"":""fullscreenenter"",""trial"":1,""time"":3714}]",NA,NA,NA,NA,NA,6,#FA92F8,#1CD855,10,10,1,40,0,2062.4000000059605,37,1,681.9000000059605,10,1,experiment,NA,NA,1,0.7,0.3,2,3,8,1,NA
fcp-trial,42,316918,0.0-17.0-0.0,voc_e2,12195,"[{""event"":""fullscreenenter"",""trial"":1,""time"":3714}]",NA,NA,NA,NA,NA,4,#D8271C,#741CD8,10,0,0,38,1,1061.300000011921,39,0,1923.199999988079,0,1,experiment,NA,NA,2,0.5,0.5,5,4,9,1,NA
fcp-trial,43,320338,0.0-18.0-0.0,voc_e2,12195,"[{""event"":""fullscreenenter"",""trial"":1,""time"":3714}]",NA,NA,NA,NA,NA,1,#FA92F8,#1CD855,10,0,1,40,0,1127.5,39,0,783.1999999880791,0,0,experiment,NA,NA,1,0.7,0.3,2,3,10,1,NA
fcp-trial,44,323593,0.0-19.0-0.0,voc_e2,12195,"[{""event"":""fullscreenenter"",""trial"":1,""time"":3714}]",NA,NA,NA,NA,NA,3,#D89F1C,#3386FF,10,0,1,40,0,1149.9000000059605,37,1,598.8999999761581,10,1,experiment,NA,NA,0,0.9,0.1,0,1,11,1,NA
fcp-trial,45,327491,0.0-20.0-0.0,voc_e2,12195,"[{""event"":""fullscreenenter"",""trial"":1,""time"":3714}]",NA,NA,NA,NA,NA,4,#D89F1C,#3386FF,10,0,1,40,0,1603.9000000059605,39,0,788.5999999940395,0,0,experiment,NA,NA,0,0.9,0.1,0,1,12,1,NA
fcp-trial,46,331604,0.0-21.0-0.0,voc_e2,12195,"[{""event"":""fullscreenenter"",""trial"":1,""time"":3714}]",NA,NA,NA,NA,NA,1,#741CD8,#D8271C,10,10,1,40,0,1957.6000000238419,37,1,648.8999999761581,10,1,experiment,NA,NA,2,0.5,0.5,4,5,13,1,NA
fcp-trial,47,336203,0.0-22.0-0.0,voc_e2,12195,"[{""event"":""fullscreenenter"",""trial"":1,""time"":3714}]",NA,NA,NA,NA,NA,2,#FA92F8,#1CD855,10,0,1,40,0,2456.7000000178814,37,1,631.3000000119209,10,1,experiment,NA,NA,1,0.7,0.3,2,3,14,1,NA
fcp-trial,48,340975,0.0-23.0-0.0,voc_e2,12195,"[{""event"":""fullscreenenter"",""trial"":1,""time"":3714}]",NA,NA,NA,NA,NA,3,#1CD855,#FA92F8,10,0,0,38,1,2655,39,0,609.7999999821186,0,1,experiment,NA,NA,1,0.3,0.7,3,2,15,1,NA
fcp-trial,49,344594,0.0-24.0-0.0,voc_e2,12195,"[{""event"":""fullscreenenter"",""trial"":1,""time"":3714}]",NA,NA,NA,NA,NA,0,#D89F1C,#3386FF,10,0,1,38,1,1564.2000000178814,37,1,549.7999999821186,10,1,experiment,NA,NA,0,0.9,0.1,0,1,16,1,NA
fcp-trial,50,348633,0.0-25.0-0.0,voc_e2,12195,"[{""event"":""fullscreenenter"",""trial"":1,""time"":3714}]",NA,NA,NA,NA,NA,2,#3386FF,#D89F1C,0,10,0,38,1,2054.7999999821186,39,0,477.199999988079,10,1,experiment,NA,NA,0,0.1,0.9,1,0,17,1,NA
fcp-trial,51,354370,0.0-26.0-0.0,voc_e2,12195,"[{""event"":""fullscreenenter"",""trial"":1,""time"":3714}]",NA,NA,NA,NA,NA,6,#D8271C,#741CD8,0,10,0,40,0,3677.5,39,0,548.8999999761581,10,1,experiment,NA,NA,2,0.5,0.5,5,4,18,1,NA
fcp-trial,52,358328,0.0-27.0-0.0,voc_e2,12195,"[{""event"":""fullscreenenter"",""trial"":1,""time"":3714}]",NA,NA,NA,NA,NA,4,#1CD855,#FA92F8,0,0,0,38,1,1957.5,39,0,490.7999999821186,0,1,experiment,NA,NA,1,0.3,0.7,3,2,19,1,NA
fcp-trial,53,362037,0.0-28.0-0.0,voc_e2,12195,"[{""event"":""fullscreenenter"",""trial"":1,""time"":3714}]",NA,NA,NA,NA,NA,0,#741CD8,#D8271C,10,10,1,38,1,1777.5,37,1,423.5,10,1,experiment,NA,NA,2,0.5,0.5,4,5,20,1,NA
fcp-trial,54,366485,0.0-29.0-0.0,voc_e2,12195,"[{""event"":""fullscreenenter"",""trial"":1,""time"":3714}]",NA,NA,NA,NA,NA,5,#1CD855,#FA92F8,0,0,0,40,0,2350.100000023842,39,0,586.3999999761581,0,1,experiment,NA,NA,1,0.3,0.7,3,2,21,1,NA
fcp-trial,55,370110,0.0-30.0-0.0,voc_e2,12195,"[{""event"":""fullscreenenter"",""trial"":1,""time"":3714}]",NA,NA,NA,NA,NA,2,#D8271C,#741CD8,0,0,0,38,1,1602.9000000059605,39,0,514.7999999821186,0,1,experiment,NA,NA,2,0.5,0.5,5,4,22,1,NA
fcp-trial,56,373477,0.0-31.0-0.0,voc_e2,12195,"[{""event"":""fullscreenenter"",""trial"":1,""time"":3714}]",NA,NA,NA,NA,NA,4,#3386FF,#D89F1C,0,10,0,38,1,1344.7000000178814,39,0,514.4000000059605,10,1,experiment,NA,NA,0,0.1,0.9,1,0,23,1,NA
fcp-trial,57,376680,0.0-32.0-0.0,voc_e2,12195,"[{""event"":""fullscreenenter"",""trial"":1,""time"":3714}]",NA,NA,NA,NA,NA,6,#3386FF,#D89F1C,0,10,0,38,1,1127.5999999940395,39,0,568.5,10,1,experiment,NA,NA,0,0.1,0.9,1,0,24,1,NA
fcp-trial,58,381031,0.0-33.0-0.0,voc_e2,12195,"[{""event"":""fullscreenenter"",""trial"":1,""time"":3714}]",NA,NA,NA,NA,NA,0,#741CD8,#D8271C,0,0,1,40,0,2375.300000011921,37,1,468.59999999403954,0,1,experiment,NA,NA,2,0.5,0.5,4,5,25,1,NA
fcp-trial,59,386544,0.0-34.0-0.0,voc_e2,12195,"[{""event"":""fullscreenenter"",""trial"":1,""time"":3714}]",NA,NA,NA,NA,NA,2,#FA92F8,#1CD855,10,0,1,38,1,3368.4000000059605,37,1,639.0999999940395,10,1,experiment,NA,NA,1,0.7,0.3,2,3,26,1,NA
fcp-trial,60,391202,0.0-35.0-0.0,voc_e2,12195,"[{""event"":""fullscreenenter"",""trial"":1,""time"":3714}]",NA,NA,NA,NA,NA,6,#D8271C,#741CD8,0,0,0,40,0,2509.2999999821186,37,1,641.3999999761581,0,0,experiment,NA,NA,2,0.5,0.5,5,4,27,1,NA
fcp-trial,61,394266,0.0-36.0-0.0,voc_e2,12195,"[{""event"":""fullscreenenter"",""trial"":1,""time"":3714}]",NA,NA,NA,NA,NA,5,#FA92F8,#1CD855,10,0,1,38,1,1073.300000011921,37,1,481.60000002384186,10,1,experiment,NA,NA,1,0.7,0.3,2,3,28,1,NA
fcp-trial,62,398493,0.0-37.0-0.0,voc_e2,12195,"[{""event"":""fullscreenenter"",""trial"":1,""time"":3714}]",NA,NA,NA,NA,NA,3,#3386FF,#D89F1C,0,10,0,38,1,2108.5,39,0,610.5999999940395,10,1,experiment,NA,NA,0,0.1,0.9,1,0,29,1,NA
fcp-trial,63,401898,0.0-38.0-0.0,voc_e2,12195,"[{""event"":""fullscreenenter"",""trial"":1,""time"":3714}]",NA,NA,NA,NA,NA,3,#741CD8,#D8271C,10,10,1,38,1,1282.5,37,1,613.5,10,1,experiment,NA,NA,2,0.5,0.5,4,5,30,1,NA
fcp-trial,64,405697,0.0-39.0-0.0,voc_e2,12195,"[{""event"":""fullscreenenter"",""trial"":1,""time"":3714}]",NA,NA,NA,NA,NA,5,#D89F1C,#3386FF,10,0,1,40,0,1652.5,39,0,638.9000000059605,0,0,experiment,NA,NA,0,0.9,0.1,0,1,31,1,NA
fcp-trial,65,408604,0.0-40.0-0.0,voc_e2,12195,"[{""event"":""fullscreenenter"",""trial"":1,""time"":3714}]",NA,NA,NA,NA,NA,4,#1CD855,#FA92F8,0,0,0,38,1,1040.4000000059605,39,0,357.2999999821186,0,1,experiment,NA,NA,1,0.3,0.7,3,2,32,1,NA
fcp-trial,66,411730,0.0-41.0-0.0,voc_e2,12195,"[{""event"":""fullscreenenter"",""trial"":1,""time"":3714}]",NA,NA,NA,NA,NA,1,#741CD8,#D8271C,0,0,1,38,1,1189,37,1,426.5,0,1,experiment,NA,NA,2,0.5,0.5,4,5,33,1,NA
fcp-trial,67,414682,0.0-42.0-0.0,voc_e2,12195,"[{""event"":""fullscreenenter"",""trial"":1,""time"":3714}]",NA,NA,NA,NA,NA,1,#3386FF,#D89F1C,0,10,0,38,1,1112.9000000059605,39,0,330.90000000596046,10,1,experiment,NA,NA,0,0.1,0.9,1,0,34,1,NA
fcp-trial,68,417455,0.0-43.0-0.0,voc_e2,12195,"[{""event"":""fullscreenenter"",""trial"":1,""time"":3714}]",NA,NA,NA,NA,NA,0,#FA92F8,#1CD855,0,10,1,38,1,961.3999999761581,37,1,304.7999999821186,0,1,experiment,NA,NA,1,0.7,0.3,2,3,35,1,NA
fcp-trial,69,420494,0.0-44.0-0.0,voc_e2,12195,"[{""event"":""fullscreenenter"",""trial"":1,""time"":3714}]",NA,NA,NA,NA,NA,1,#1CD855,#FA92F8,0,0,0,38,1,1159.2000000178814,39,0,371.5,0,1,experiment,NA,NA,1,0.3,0.7,3,2,36,1,NA
fcp-trial,70,423539,0.0-45.0-0.0,voc_e2,12195,"[{""event"":""fullscreenenter"",""trial"":1,""time"":3714}]",NA,NA,NA,NA,NA,4,#741CD8,#D8271C,10,0,1,38,1,1185.9000000059605,37,1,348.40000000596046,10,1,experiment,NA,NA,2,0.5,0.5,4,5,37,1,NA
fcp-trial,71,426361,0.0-46.0-0.0,voc_e2,12195,"[{""event"":""fullscreenenter"",""trial"":1,""time"":3714}]",NA,NA,NA,NA,NA,2,#D89F1C,#3386FF,10,0,1,38,1,1055.699999988079,37,1,256.5,10,1,experiment,NA,NA,0,0.9,0.1,0,1,38,1,NA
fcp-trial,72,429817,0.0-47.0-0.0,voc_e2,12195,"[{""event"":""fullscreenenter"",""trial"":1,""time"":3714}]",NA,NA,NA,NA,NA,0,#3386FF,#D89F1C,0,10,0,38,1,1648.5999999940395,39,0,298,10,1,experiment,NA,NA,0,0.1,0.9,1,0,39,1,NA
fcp-trial,73,433326,0.0-48.0-0.0,voc_e2,12195,"[{""event"":""fullscreenenter"",""trial"":1,""time"":3714}]",NA,NA,NA,NA,NA,6,#1CD855,#FA92F8,10,10,0,40,0,1430.5,39,0,572.3000000119209,10,1,experiment,NA,NA,1,0.3,0.7,3,2,40,1,NA
fcp-trial,74,437744,0.0-49.0-0.0,voc_e2,12195,"[{""event"":""fullscreenenter"",""trial"":1,""time"":3714}]",NA,NA,NA,NA,NA,3,#FA92F8,#1CD855,10,0,1,38,1,2621.699999988079,37,1,289,10,1,experiment,NA,NA,1,0.7,0.3,2,3,41,1,NA
fcp-trial,75,441652,0.0-50.0-0.0,voc_e2,12195,"[{""event"":""fullscreenenter"",""trial"":1,""time"":3714}]",NA,NA,NA,NA,NA,5,#741CD8,#D8271C,0,0,1,40,0,2001.5,37,1,395.699999988079,0,1,experiment,NA,NA,2,0.5,0.5,4,5,42,1,NA
fcp-trial,76,445436,0.0-51.0-0.0,voc_e2,12195,"[{""event"":""fullscreenenter"",""trial"":1,""time"":3714}]",NA,NA,NA,NA,NA,3,#FA92F8,#1CD855,10,10,1,38,1,1997.9000000059605,37,1,278,10,1,experiment,NA,NA,1,0.7,0.3,2,3,43,1,NA
fcp-trial,77,448850,0.0-52.0-0.0,voc_e2,12195,"[{""event"":""fullscreenenter"",""trial"":1,""time"":3714}]",NA,NA,NA,NA,NA,0,#3386FF,#D89F1C,0,10,0,38,1,1269.0999999940395,39,0,635.2999999821186,10,1,experiment,NA,NA,0,0.1,0.9,1,0,44,1,NA
fcp-trial,78,453281,0.0-53.0-0.0,voc_e2,12195,"[{""event"":""fullscreenenter"",""trial"":1,""time"":3714}]",NA,NA,NA,NA,NA,1,#1CD855,#FA92F8,0,10,0,38,1,1428.2000000178814,39,0,1492.2999999821186,10,1,experiment,NA,NA,1,0.3,0.7,3,2,45,1,NA
fcp-trial,79,456195,0.0-54.0-0.0,voc_e2,12195,"[{""event"":""fullscreenenter"",""trial"":1,""time"":3714}]",NA,NA,NA,NA,NA,3,#741CD8,#D8271C,10,0,1,38,1,1107.5999999940395,37,1,301.30000001192093,10,1,experiment,NA,NA,2,0.5,0.5,4,5,46,2,NA
fcp-trial,80,459245,0.0-55.0-0.0,voc_e2,12195,"[{""event"":""fullscreenenter"",""trial"":1,""time"":3714}]",NA,NA,NA,NA,NA,4,#1CD855,#FA92F8,10,10,0,38,1,1199.0999999940395,39,0,343.90000000596046,10,1,experiment,NA,NA,1,0.3,0.7,3,2,47,2,NA
fcp-trial,81,462512,0.0-56.0-0.0,voc_e2,12195,"[{""event"":""fullscreenenter"",""trial"":1,""time"":3714}]",NA,NA,NA,NA,NA,6,#3386FF,#D89F1C,0,10,0,40,0,1230.4000000059605,37,1,529.5,0,0,experiment,NA,NA,0,0.1,0.9,1,0,48,2,NA
fcp-trial,82,465548,0.0-57.0-0.0,voc_e2,12195,"[{""event"":""fullscreenenter"",""trial"":1,""time"":3714}]",NA,NA,NA,NA,NA,2,#D8271C,#741CD8,10,0,0,38,1,1012.7999999821186,39,0,514.7999999821186,0,1,experiment,NA,NA,2,0.5,0.5,5,4,49,2,NA
fcp-trial,83,468912,0.0-58.0-0.0,voc_e2,12195,"[{""event"":""fullscreenenter"",""trial"":1,""time"":3714}]",NA,NA,NA,NA,NA,5,#1CD855,#FA92F8,10,10,0,40,0,1450.7999999821186,39,0,405,10,1,experiment,NA,NA,1,0.3,0.7,3,2,50,2,NA
fcp-trial,84,472272,0.0-59.0-0.0,voc_e2,12195,"[{""event"":""fullscreenenter"",""trial"":1,""time"":3714}]",NA,NA,NA,NA,NA,0,#741CD8,#D8271C,10,0,1,38,1,1510.800000011921,37,1,343.09999999403954,10,1,experiment,NA,NA,2,0.5,0.5,4,5,51,2,NA
fcp-trial,85,475812,0.0-60.0-0.0,voc_e2,12195,"[{""event"":""fullscreenenter"",""trial"":1,""time"":3714}]",NA,NA,NA,NA,NA,6,#D8271C,#741CD8,10,0,0,40,0,1554.5,37,1,477.199999988079,10,0,experiment,NA,NA,2,0.5,0.5,5,4,52,2,NA
fcp-trial,86,478664,0.0-61.0-0.0,voc_e2,12195,"[{""event"":""fullscreenenter"",""trial"":1,""time"":3714}]",NA,NA,NA,NA,NA,3,#3386FF,#D89F1C,0,10,0,38,1,1070,39,0,273.7999999821186,10,1,experiment,NA,NA,0,0.1,0.9,1,0,53,2,NA
fcp-trial,87,481314,0.0-62.0-0.0,voc_e2,12195,"[{""event"":""fullscreenenter"",""trial"":1,""time"":3714}]",NA,NA,NA,NA,NA,2,#3386FF,#D89F1C,0,10,0,38,1,875.9000000059605,39,0,266.40000000596046,10,1,experiment,NA,NA,0,0.1,0.9,1,0,54,2,NA
fcp-trial,88,484504,0.0-63.0-0.0,voc_e2,12195,"[{""event"":""fullscreenenter"",""trial"":1,""time"":3714}]",NA,NA,NA,NA,NA,6,#FA92F8,#1CD855,10,10,1,40,0,1127,39,0,552.7999999821186,10,0,experiment,NA,NA,1,0.7,0.3,2,3,55,2,NA
fcp-trial,89,487362,0.0-64.0-0.0,voc_e2,12195,"[{""event"":""fullscreenenter"",""trial"":1,""time"":3714}]",NA,NA,NA,NA,NA,4,#741CD8,#D8271C,0,0,1,38,1,981.4000000059605,37,1,368.5,0,1,experiment,NA,NA,2,0.5,0.5,4,5,56,2,NA
fcp-trial,90,490455,0.0-65.0-0.0,voc_e2,12195,"[{""event"":""fullscreenenter"",""trial"":1,""time"":3714}]",NA,NA,NA,NA,NA,0,#FA92F8,#1CD855,10,0,1,38,1,1169.4000000059605,37,1,418,10,1,experiment,NA,NA,1,0.7,0.3,2,3,57,2,NA
fcp-trial,91,493695,0.0-66.0-0.0,voc_e2,12195,"[{""event"":""fullscreenenter"",""trial"":1,""time"":3714}]",NA,NA,NA,NA,NA,5,#D89F1C,#3386FF,10,0,1,38,1,1073.5,37,1,658.9000000059605,10,1,experiment,NA,NA,0,0.9,0.1,0,1,58,2,NA
fcp-trial,92,497612,0.0-67.0-0.0,voc_e2,12195,"[{""event"":""fullscreenenter"",""trial"":1,""time"":3714}]",NA,NA,NA,NA,NA,1,#741CD8,#D8271C,10,10,1,38,1,1019.5999999940395,37,1,1391.800000011921,10,1,experiment,NA,NA,2,0.5,0.5,4,5,59,2,NA
fcp-trial,93,500603,0.0-68.0-0.0,voc_e2,12195,"[{""event"":""fullscreenenter"",""trial"":1,""time"":3714}]",NA,NA,NA,NA,NA,5,#D8271C,#741CD8,10,10,0,38,1,1187.7000000178814,39,0,296.69999998807907,10,1,experiment,NA,NA,2,0.5,0.5,5,4,60,2,NA
fcp-trial,94,503663,0.0-69.0-0.0,voc_e2,12195,"[{""event"":""fullscreenenter"",""trial"":1,""time"":3714}]",NA,NA,NA,NA,NA,2,#1CD855,#FA92F8,10,10,0,38,1,1003.4000000059605,39,0,550.0999999940395,10,1,experiment,NA,NA,1,0.3,0.7,3,2,61,2,NA
fcp-trial,95,506399,0.0-70.0-0.0,voc_e2,12195,"[{""event"":""fullscreenenter"",""trial"":1,""time"":3714}]",NA,NA,NA,NA,NA,1,#3386FF,#D89F1C,0,10,0,38,1,911.2999999821186,39,0,315.89999997615814,10,1,experiment,NA,NA,0,0.1,0.9,1,0,62,2,NA
fcp-trial,96,509234,0.0-71.0-0.0,voc_e2,12195,"[{""event"":""fullscreenenter"",""trial"":1,""time"":3714}]",NA,NA,NA,NA,NA,4,#D89F1C,#3386FF,0,0,1,38,1,1031.0999999940395,37,1,294.5,0,1,experiment,NA,NA,0,0.9,0.1,0,1,63,2,NA
fcp-trial,97,512331,0.0-72.0-0.0,voc_e2,12195,"[{""event"":""fullscreenenter"",""trial"":1,""time"":3714}]",NA,NA,NA,NA,NA,3,#1CD855,#FA92F8,0,10,0,38,1,1257,39,0,331.90000000596046,10,1,experiment,NA,NA,1,0.3,0.7,3,2,64,2,NA
fcp-trial,98,515362,0.0-73.0-0.0,voc_e2,12195,"[{""event"":""fullscreenenter"",""trial"":1,""time"":3714}]",NA,NA,NA,NA,NA,2,#D8271C,#741CD8,0,0,0,38,1,1056.699999988079,39,0,467.59999999403954,0,1,experiment,NA,NA,2,0.5,0.5,5,4,65,2,NA
fcp-trial,99,518483,0.0-74.0-0.0,voc_e2,12195,"[{""event"":""fullscreenenter"",""trial"":1,""time"":3714}]",NA,NA,NA,NA,NA,4,#D89F1C,#3386FF,10,0,1,38,1,1179.5,37,1,433.199999988079,10,1,experiment,NA,NA,0,0.9,0.1,0,1,66,2,NA
fcp-trial,100,522088,0.0-75.0-0.0,voc_e2,12195,"[{""event"":""fullscreenenter"",""trial"":1,""time"":3714}]",NA,NA,NA,NA,NA,6,#D8271C,#741CD8,0,10,0,38,1,984.0999999940395,39,0,1113.5999999940395,10,1,experiment,NA,NA,2,0.5,0.5,5,4,67,2,NA
fcp-trial,101,525103,0.0-76.0-0.0,voc_e2,12195,"[{""event"":""fullscreenenter"",""trial"":1,""time"":3714}]",NA,NA,NA,NA,NA,0,#D89F1C,#3386FF,10,0,1,38,1,1244.7999999821186,37,1,261.90000000596046,10,1,experiment,NA,NA,0,0.9,0.1,0,1,68,2,NA
fcp-trial,102,528063,0.0-77.0-0.0,voc_e2,12195,"[{""event"":""fullscreenenter"",""trial"":1,""time"":3714}]",NA,NA,NA,NA,NA,2,#FA92F8,#1CD855,10,0,1,38,1,1153.9000000059605,37,1,298.90000000596046,10,1,experiment,NA,NA,1,0.7,0.3,2,3,69,2,NA
fcp-trial,103,531030,0.0-78.0-0.0,voc_e2,12195,"[{""event"":""fullscreenenter"",""trial"":1,""time"":3714}]",NA,NA,NA,NA,NA,1,#3386FF,#D89F1C,0,10,0,38,1,1147.9000000059605,39,0,312,10,1,experiment,NA,NA,0,0.1,0.9,1,0,70,2,NA
fcp-trial,104,534144,0.0-79.0-0.0,voc_e2,12195,"[{""event"":""fullscreenenter"",""trial"":1,""time"":3714}]",NA,NA,NA,NA,NA,5,#741CD8,#D8271C,0,10,1,40,0,1178.300000011921,37,1,429,0,1,experiment,NA,NA,2,0.5,0.5,4,5,71,2,NA
fcp-trial,105,537272,0.0-80.0-0.0,voc_e2,12195,"[{""event"":""fullscreenenter"",""trial"":1,""time"":3714}]",NA,NA,NA,NA,NA,5,#1CD855,#FA92F8,10,10,0,40,0,1156.7000000178814,37,1,464.59999999403954,10,0,experiment,NA,NA,1,0.3,0.7,3,2,72,2,NA
fcp-trial,106,540479,0.0-81.0-0.0,voc_e2,12195,"[{""event"":""fullscreenenter"",""trial"":1,""time"":3714}]",NA,NA,NA,NA,NA,6,#3386FF,#D89F1C,0,10,0,40,0,1242.300000011921,37,1,455.2999999821186,0,0,experiment,NA,NA,0,0.1,0.9,1,0,73,2,NA
fcp-trial,107,543548,0.0-82.0-0.0,voc_e2,12195,"[{""event"":""fullscreenenter"",""trial"":1,""time"":3714}]",NA,NA,NA,NA,NA,0,#D8271C,#741CD8,0,0,0,38,1,1262.7000000178814,39,0,299.2000000178814,0,1,experiment,NA,NA,2,0.5,0.5,5,4,74,2,NA
fcp-trial,108,546699,0.0-83.0-0.0,voc_e2,12195,"[{""event"":""fullscreenenter"",""trial"":1,""time"":3714}]",NA,NA,NA,NA,NA,2,#3386FF,#D89F1C,0,0,0,38,1,1255.2000000178814,39,0,388.59999999403954,0,1,experiment,NA,NA,0,0.1,0.9,1,0,75,2,NA
fcp-trial,109,549407,0.0-84.0-0.0,voc_e2,12195,"[{""event"":""fullscreenenter"",""trial"":1,""time"":3714}]",NA,NA,NA,NA,NA,1,#741CD8,#D8271C,10,0,1,38,1,920.9000000059605,37,1,280.5,10,1,experiment,NA,NA,2,0.5,0.5,4,5,76,2,NA
fcp-trial,110,552590,0.0-85.0-0.0,voc_e2,12195,"[{""event"":""fullscreenenter"",""trial"":1,""time"":3714}]",NA,NA,NA,NA,NA,4,#1CD855,#FA92F8,10,0,0,38,1,1320.5999999940395,39,0,351.80000001192093,0,1,experiment,NA,NA,1,0.3,0.7,3,2,77,2,NA
fcp-trial,111,555996,0.0-86.0-0.0,voc_e2,12195,"[{""event"":""fullscreenenter"",""trial"":1,""time"":3714}]",NA,NA,NA,NA,NA,1,#FA92F8,#1CD855,0,0,1,38,1,1533.4000000059605,37,1,366.40000000596046,0,1,experiment,NA,NA,1,0.7,0.3,2,3,78,2,NA
fcp-trial,112,559921,0.0-87.0-0.0,voc_e2,12195,"[{""event"":""fullscreenenter"",""trial"":1,""time"":3714}]",NA,NA,NA,NA,NA,4,#741CD8,#D8271C,0,10,1,38,1,2128.5999999940395,37,1,288.10000002384186,0,1,experiment,NA,NA,2,0.5,0.5,4,5,79,2,NA
fcp-trial,113,562934,0.0-88.0-0.0,voc_e2,12195,"[{""event"":""fullscreenenter"",""trial"":1,""time"":3714}]",NA,NA,NA,NA,NA,3,#D89F1C,#3386FF,10,0,1,38,1,1106.2000000178814,37,1,400,10,1,experiment,NA,NA,0,0.9,0.1,0,1,80,2,NA
fcp-trial,114,565941,0.0-89.0-0.0,voc_e2,12195,"[{""event"":""fullscreenenter"",""trial"":1,""time"":3714}]",NA,NA,NA,NA,NA,0,#FA92F8,#1CD855,0,10,1,38,1,1056.8999999761581,37,1,440.300000011921,0,1,experiment,NA,NA,1,0.7,0.3,2,3,81,2,NA
fcp-trial,115,569114,0.0-90.0-0.0,voc_e2,12195,"[{""event"":""fullscreenenter"",""trial"":1,""time"":3714}]",NA,NA,NA,NA,NA,3,#D8271C,#741CD8,10,0,0,38,1,1332.300000011921,39,0,332.60000002384186,0,1,experiment,NA,NA,2,0.5,0.5,5,4,82,2,NA
fcp-trial,116,572276,0.0-91.0-0.0,voc_e2,12195,"[{""event"":""fullscreenenter"",""trial"":1,""time"":3714}]",NA,NA,NA,NA,NA,6,#1CD855,#FA92F8,0,10,0,40,0,1144.5,37,1,511.40000000596046,0,0,experiment,NA,NA,1,0.3,0.7,3,2,83,2,NA
fcp-trial,117,575541,0.0-92.0-0.0,voc_e2,12195,"[{""event"":""fullscreenenter"",""trial"":1,""time"":3714}]",NA,NA,NA,NA,NA,5,#3386FF,#D89F1C,0,10,0,40,0,1404.800000011921,39,0,349.40000000596046,10,1,experiment,NA,NA,0,0.1,0.9,1,0,84,2,NA
fcp-trial,118,578350,0.0-93.0-0.0,voc_e2,12195,"[{""event"":""fullscreenenter"",""trial"":1,""time"":3714}]",NA,NA,NA,NA,NA,1,#FA92F8,#1CD855,0,10,1,38,1,964.4000000059605,37,1,336.5,0,1,experiment,NA,NA,1,0.7,0.3,2,3,85,2,NA
fcp-trial,119,581430,0.0-94.0-0.0,voc_e2,12195,"[{""event"":""fullscreenenter"",""trial"":1,""time"":3714}]",NA,NA,NA,NA,NA,1,#3386FF,#D89F1C,0,10,0,38,1,1194.5999999940395,39,0,378.40000000596046,10,1,experiment,NA,NA,0,0.1,0.9,1,0,86,2,NA
fcp-trial,120,584256,0.0-95.0-0.0,voc_e2,12195,"[{""event"":""fullscreenenter"",""trial"":1,""time"":3714}]",NA,NA,NA,NA,NA,3,#741CD8,#D8271C,0,0,1,38,1,1061.9000000059605,37,1,258.40000000596046,0,1,experiment,NA,NA,2,0.5,0.5,4,5,87,2,NA
fcp-trial,121,586973,0.0-96.0-0.0,voc_e2,12195,"[{""event"":""fullscreenenter"",""trial"":1,""time"":3714}]",NA,NA,NA,NA,NA,5,#1CD855,#FA92F8,10,10,0,38,1,917.7999999821186,39,0,290.90000000596046,10,1,experiment,NA,NA,1,0.3,0.7,3,2,88,2,NA
fcp-trial,122,589674,0.0-97.0-0.0,voc_e2,12195,"[{""event"":""fullscreenenter"",""trial"":1,""time"":3714}]",NA,NA,NA,NA,NA,2,#D8271C,#741CD8,0,10,0,38,1,874.7999999821186,37,1,315.30000001192093,0,0,experiment,NA,NA,2,0.5,0.5,5,4,89,2,NA
fcp-trial,123,592524,0.0-98.0-0.0,voc_e2,12195,"[{""event"":""fullscreenenter"",""trial"":1,""time"":3714}]",NA,NA,NA,NA,NA,3,#D89F1C,#3386FF,10,0,1,38,1,1023.7000000178814,37,1,317.5,10,1,experiment,NA,NA,0,0.9,0.1,0,1,90,2,NA
fcp-trial,124,595213,0.0-99.0-0.0,voc_e2,12195,"[{""event"":""fullscreenenter"",""trial"":1,""time"":3714}]",NA,NA,NA,NA,NA,4,#D89F1C,#3386FF,10,10,1,38,1,888.2000000178814,37,1,290.7000000178814,10,1,experiment,NA,NA,0,0.9,0.1,0,1,91,3,NA
fcp-trial,125,597968,0.0-100.0-0.0,voc_e2,12195,"[{""event"":""fullscreenenter"",""trial"":1,""time"":3714}]",NA,NA,NA,NA,NA,4,#1CD855,#FA92F8,0,10,0,38,1,711.8999999761581,39,0,535.1999999880791,10,1,experiment,NA,NA,1,0.3,0.7,3,2,92,3,NA
fcp-trial,126,600798,0.0-101.0-0.0,voc_e2,12195,"[{""event"":""fullscreenenter"",""trial"":1,""time"":3714}]",NA,NA,NA,NA,NA,2,#3386FF,#D89F1C,0,10,0,38,1,988.5,39,0,334.2999999821186,10,1,experiment,NA,NA,0,0.1,0.9,1,0,93,3,NA
fcp-trial,127,603414,0.0-102.0-0.0,voc_e2,12195,"[{""event"":""fullscreenenter"",""trial"":1,""time"":3714}]",NA,NA,NA,NA,NA,0,#D8271C,#741CD8,10,0,0,38,1,759.9000000059605,39,0,348.19999998807907,0,1,experiment,NA,NA,2,0.5,0.5,5,4,94,3,NA
fcp-trial,128,605957,0.0-103.0-0.0,voc_e2,12195,"[{""event"":""fullscreenenter"",""trial"":1,""time"":3714}]",NA,NA,NA,NA,NA,5,#D89F1C,#3386FF,10,0,1,38,1,670,37,1,366.2000000178814,10,1,experiment,NA,NA,0,0.9,0.1,0,1,95,3,NA
fcp-trial,129,608921,0.0-104.0-0.0,voc_e2,12195,"[{""event"":""fullscreenenter"",""trial"":1,""time"":3714}]",NA,NA,NA,NA,NA,5,#D8271C,#741CD8,10,0,0,38,1,903.5,39,0,548.7000000178814,0,1,experiment,NA,NA,2,0.5,0.5,5,4,96,3,NA
fcp-trial,130,611580,0.0-105.0-0.0,voc_e2,12195,"[{""event"":""fullscreenenter"",""trial"":1,""time"":3714}]",NA,NA,NA,NA,NA,3,#1CD855,#FA92F8,0,0,0,38,1,504.5,39,0,648.9000000059605,0,1,experiment,NA,NA,1,0.3,0.7,3,2,97,3,NA
fcp-trial,131,614229,0.0-106.0-0.0,voc_e2,12195,"[{""event"":""fullscreenenter"",""trial"":1,""time"":3714}]",NA,NA,NA,NA,NA,6,#1CD855,#FA92F8,0,10,0,38,1,628.5999999940395,39,0,514.3999999761581,10,1,experiment,NA,NA,1,0.3,0.7,3,2,98,3,NA
fcp-trial,132,616580,0.0-107.0-0.0,voc_e2,12195,"[{""event"":""fullscreenenter"",""trial"":1,""time"":3714}]",NA,NA,NA,NA,NA,6,#D8271C,#741CD8,0,10,0,38,1,479.40000000596046,37,1,364.90000000596046,0,0,experiment,NA,NA,2,0.5,0.5,5,4,99,3,NA
fcp-trial,133,618831,0.0-108.0-0.0,voc_e2,12195,"[{""event"":""fullscreenenter"",""trial"":1,""time"":3714}]",NA,NA,NA,NA,NA,0,#3386FF,#D89F1C,0,10,0,38,1,445.5,39,0,297.19999998807907,10,1,experiment,NA,NA,0,0.1,0.9,1,0,100,3,NA
fcp-trial,134,621220,0.0-109.0-0.0,voc_e2,12195,"[{""event"":""fullscreenenter"",""trial"":1,""time"":3714}]",NA,NA,NA,NA,NA,0,#1CD855,#FA92F8,0,0,0,38,1,553.8000000119209,39,0,326.7999999821186,0,1,experiment,NA,NA,1,0.3,0.7,3,2,101,3,NA
fcp-trial,135,623450,0.0-110.0-0.0,voc_e2,12195,"[{""event"":""fullscreenenter"",""trial"":1,""time"":3714}]",NA,NA,NA,NA,NA,6,#3386FF,#D89F1C,0,10,0,38,1,391.5,39,0,328.40000000596046,10,1,experiment,NA,NA,0,0.1,0.9,1,0,102,3,NA
fcp-trial,136,626190,0.0-111.0-0.0,voc_e2,12195,"[{""event"":""fullscreenenter"",""trial"":1,""time"":3714}]",NA,NA,NA,NA,NA,4,#D8271C,#741CD8,10,10,0,38,1,697.0999999940395,37,1,535.9000000059605,10,0,experiment,NA,NA,2,0.5,0.5,5,4,103,3,NA
fcp-trial,137,628525,0.0-112.0-0.0,voc_e2,12195,"[{""event"":""fullscreenenter"",""trial"":1,""time"":3714}]",NA,NA,NA,NA,NA,1,#D8271C,#741CD8,0,10,0,38,1,440.40000000596046,37,1,384.40000000596046,0,0,experiment,NA,NA,2,0.5,0.5,5,4,104,3,NA
fcp-trial,138,630882,0.0-113.0-0.0,voc_e2,12195,"[{""event"":""fullscreenenter"",""trial"":1,""time"":3714}]",NA,NA,NA,NA,NA,2,#1CD855,#FA92F8,10,10,0,38,1,497.09999999403954,39,0,351.90000000596046,10,1,experiment,NA,NA,1,0.3,0.7,3,2,105,3,NA
audio-instructions,139,636230,0.0-114.0,voc_e2,12195,"[{""event"":""fullscreenenter"",""trial"":1,""time"":3714}]",NA,873.4000000059605,static/audio/pause.wav,NA,0,NA,NA,NA,NA,NA,NA,NA,NA,NA,NA,NA,NA,NA,NA,NA,NA,NA,NA,NA,NA,NA,NA,NA,NA,NA
fcp-trial,140,639596,0.0-115.0-0.0,voc_e2,12195,"[{""event"":""fullscreenenter"",""trial"":1,""time"":3714}]",NA,NA,NA,NA,NA,5,#3386FF,#D89F1C,0,10,0,40,0,1449,37,1,407.90000000596046,0,0,experiment,NA,NA,0,0.1,0.9,1,0,106,3,NA
fcp-trial,141,642647,0.0-116.0-0.0,voc_e2,12195,"[{""event"":""fullscreenenter"",""trial"":1,""time"":3714}]",NA,NA,NA,NA,NA,0,#741CD8,#D8271C,10,10,1,38,1,1167.3999999761581,37,1,377.40000000596046,10,1,experiment,NA,NA,2,0.5,0.5,4,5,107,3,NA
fcp-trial,142,645252,0.0-117.0-0.0,voc_e2,12195,"[{""event"":""fullscreenenter"",""trial"":1,""time"":3714}]",NA,NA,NA,NA,NA,2,#D89F1C,#3386FF,10,10,1,38,1,845.7999999821186,37,1,253.5,10,1,experiment,NA,NA,0,0.9,0.1,0,1,108,3,NA
fcp-trial,143,648616,0.0-118.0-0.0,voc_e2,12195,"[{""event"":""fullscreenenter"",""trial"":1,""time"":3714}]",NA,NA,NA,NA,NA,5,#FA92F8,#1CD855,10,0,1,38,1,1039.300000011921,37,1,817.2999999821186,10,1,experiment,NA,NA,1,0.7,0.3,2,3,109,3,NA
fcp-trial,144,651714,0.0-119.0-0.0,voc_e2,12195,"[{""event"":""fullscreenenter"",""trial"":1,""time"":3714}]",NA,NA,NA,NA,NA,3,#3386FF,#D89F1C,0,10,0,38,1,983.5999999940395,39,0,609.3000000119209,10,1,experiment,NA,NA,0,0.1,0.9,1,0,110,3,NA
fcp-trial,145,654224,0.0-120.0-0.0,voc_e2,12195,"[{""event"":""fullscreenenter"",""trial"":1,""time"":3714}]",NA,NA,NA,NA,NA,2,#D8271C,#741CD8,0,0,0,38,1,679.5,37,1,322.30000001192093,0,0,experiment,NA,NA,2,0.5,0.5,5,4,111,3,NA
fcp-trial,146,656647,0.0-121.0-0.0,voc_e2,12195,"[{""event"":""fullscreenenter"",""trial"":1,""time"":3714}]",NA,NA,NA,NA,NA,1,#D89F1C,#3386FF,10,0,1,38,1,603.7999999821186,37,1,312.09999999403954,10,1,experiment,NA,NA,0,0.9,0.1,0,1,112,3,NA
fcp-trial,147,659546,0.0-122.0-0.0,voc_e2,12195,"[{""event"":""fullscreenenter"",""trial"":1,""time"":3714}]",NA,NA,NA,NA,NA,3,#741CD8,#D8271C,0,10,1,38,1,1018,37,1,376.199999988079,0,1,experiment,NA,NA,2,0.5,0.5,4,5,113,3,NA
fcp-trial,148,662307,0.0-123.0-0.0,voc_e2,12195,"[{""event"":""fullscreenenter"",""trial"":1,""time"":3714}]",NA,NA,NA,NA,NA,0,#FA92F8,#1CD855,0,10,1,38,1,726.8000000119209,37,1,526.9000000059605,0,1,experiment,NA,NA,1,0.7,0.3,2,3,114,3,NA
fcp-trial,149,665215,0.0-124.0-0.0,voc_e2,12195,"[{""event"":""fullscreenenter"",""trial"":1,""time"":3714}]",NA,NA,NA,NA,NA,3,#1CD855,#FA92F8,0,10,0,38,1,950.8000000119209,39,0,447.199999988079,10,1,experiment,NA,NA,1,0.3,0.7,3,2,115,3,NA
fcp-trial,150,667902,0.0-125.0-0.0,voc_e2,12195,"[{""event"":""fullscreenenter"",""trial"":1,""time"":3714}]",NA,NA,NA,NA,NA,6,#FA92F8,#1CD855,10,0,1,38,1,721.9000000059605,37,1,458,10,1,experiment,NA,NA,1,0.7,0.3,2,3,116,3,NA
fcp-trial,151,670566,0.0-126.0-0.0,voc_e2,12195,"[{""event"":""fullscreenenter"",""trial"":1,""time"":3714}]",NA,NA,NA,NA,NA,4,#D89F1C,#3386FF,10,0,1,38,1,850.9000000059605,37,1,306.30000001192093,10,1,experiment,NA,NA,0,0.9,0.1,0,1,117,3,NA
fcp-trial,152,673851,0.0-127.0-0.0,voc_e2,12195,"[{""event"":""fullscreenenter"",""trial"":1,""time"":3714}]",NA,NA,NA,NA,NA,6,#741CD8,#D8271C,0,0,1,40,0,1080.5,39,0,694.5999999940395,0,0,experiment,NA,NA,2,0.5,0.5,4,5,118,3,NA
fcp-trial,153,676714,0.0-128.0-0.0,voc_e2,12195,"[{""event"":""fullscreenenter"",""trial"":1,""time"":3714}]",NA,NA,NA,NA,NA,1,#1CD855,#FA92F8,10,10,0,38,1,767.4000000059605,39,0,588.2999999821186,10,1,experiment,NA,NA,1,0.3,0.7,3,2,119,3,NA
fcp-trial,154,679514,0.0-129.0-0.0,voc_e2,12195,"[{""event"":""fullscreenenter"",""trial"":1,""time"":3714}]",NA,NA,NA,NA,NA,4,#1CD855,#FA92F8,0,10,0,38,1,898.4000000059605,39,0,394.800000011921,10,1,experiment,NA,NA,1,0.3,0.7,3,2,120,3,NA
fcp-trial,155,682089,0.0-130.0-0.0,voc_e2,12195,"[{""event"":""fullscreenenter"",""trial"":1,""time"":3714}]",NA,NA,NA,NA,NA,0,#D89F1C,#3386FF,10,0,1,38,1,785.5,37,1,280.69999998807907,10,1,experiment,NA,NA,0,0.9,0.1,0,1,121,3,NA
fcp-trial,156,684864,0.0-131.0-0.0,voc_e2,12195,"[{""event"":""fullscreenenter"",""trial"":1,""time"":3714}]",NA,NA,NA,NA,NA,4,#D8271C,#741CD8,0,10,0,40,0,684.5,37,1,582.7999999821186,0,0,experiment,NA,NA,2,0.5,0.5,5,4,122,3,NA
fcp-trial,157,687556,0.0-132.0-0.0,voc_e2,12195,"[{""event"":""fullscreenenter"",""trial"":1,""time"":3714}]",NA,NA,NA,NA,NA,5,#741CD8,#D8271C,10,10,1,40,0,683.2999999821186,39,0,502,10,0,experiment,NA,NA,2,0.5,0.5,4,5,123,3,NA
fcp-trial,158,690181,0.0-133.0-0.0,voc_e2,12195,"[{""event"":""fullscreenenter"",""trial"":1,""time"":3714}]",NA,NA,NA,NA,NA,2,#1CD855,#FA92F8,10,10,0,38,1,718.4000000059605,39,0,399.2999999821186,10,1,experiment,NA,NA,1,0.3,0.7,3,2,124,3,NA
fcp-trial,159,693206,0.0-134.0-0.0,voc_e2,12195,"[{""event"":""fullscreenenter"",""trial"":1,""time"":3714}]",NA,NA,NA,NA,NA,1,#741CD8,#D8271C,0,0,1,40,0,1121.199999988079,37,1,394.300000011921,0,1,experiment,NA,NA,2,0.5,0.5,4,5,125,3,NA
fcp-trial,160,696320,0.0-135.0-0.0,voc_e2,12195,"[{""event"":""fullscreenenter"",""trial"":1,""time"":3714}]",NA,NA,NA,NA,NA,6,#3386FF,#D89F1C,10,10,0,40,0,1221.0999999940395,37,1,381.2999999821186,10,0,experiment,NA,NA,0,0.1,0.9,1,0,126,3,NA
fcp-trial,161,699200,0.0-136.0-0.0,voc_e2,12195,"[{""event"":""fullscreenenter"",""trial"":1,""time"":3714}]",NA,NA,NA,NA,NA,5,#D89F1C,#3386FF,10,0,1,38,1,1088.9000000059605,37,1,284,10,1,experiment,NA,NA,0,0.9,0.1,0,1,127,3,NA
fcp-trial,162,702016,0.0-137.0-0.0,voc_e2,12195,"[{""event"":""fullscreenenter"",""trial"":1,""time"":3714}]",NA,NA,NA,NA,NA,0,#D8271C,#741CD8,0,0,0,40,0,813.4000000059605,39,0,494.2000000178814,0,1,experiment,NA,NA,2,0.5,0.5,5,4,128,3,NA
fcp-trial,163,705134,0.0-138.0-0.0,voc_e2,12195,"[{""event"":""fullscreenenter"",""trial"":1,""time"":3714}]",NA,NA,NA,NA,NA,6,#FA92F8,#1CD855,10,10,1,40,0,1216,37,1,394.300000011921,10,1,experiment,NA,NA,1,0.7,0.3,2,3,129,3,NA
fcp-trial,164,707854,0.0-139.0-0.0,voc_e2,12195,"[{""event"":""fullscreenenter"",""trial"":1,""time"":3714}]",NA,NA,NA,NA,NA,5,#1CD855,#FA92F8,0,10,0,40,0,842.4000000059605,39,0,369.7999999821186,10,1,experiment,NA,NA,1,0.3,0.7,3,2,130,3,NA
fcp-trial,165,710819,0.0-140.0-0.0,voc_e2,12195,"[{""event"":""fullscreenenter"",""trial"":1,""time"":3714}]",NA,NA,NA,NA,NA,3,#3386FF,#D89F1C,10,10,0,38,1,1070,39,0,388.300000011921,10,1,experiment,NA,NA,0,0.1,0.9,1,0,131,3,NA
fcp-trial,166,713684,0.0-141.0-0.0,voc_e2,12195,"[{""event"":""fullscreenenter"",""trial"":1,""time"":3714}]",NA,NA,NA,NA,NA,6,#D8271C,#741CD8,0,0,0,40,0,979.8000000119209,37,1,376.2999999821186,0,0,experiment,NA,NA,2,0.5,0.5,5,4,132,3,NA
fcp-trial,167,716217,0.0-142.0-0.0,voc_e2,12195,"[{""event"":""fullscreenenter"",""trial"":1,""time"":3714}]",NA,NA,NA,NA,NA,2,#D89F1C,#3386FF,10,0,1,38,1,770.7999999821186,37,1,256.40000000596046,10,1,experiment,NA,NA,0,0.9,0.1,0,1,133,3,NA
fcp-trial,168,719009,0.0-143.0-0.0,voc_e2,12195,"[{""event"":""fullscreenenter"",""trial"":1,""time"":3714}]",NA,NA,NA,NA,NA,5,#741CD8,#D8271C,10,10,1,40,0,910.6999999880791,37,1,373.40000000596046,10,1,experiment,NA,NA,2,0.5,0.5,4,5,134,3,NA
fcp-trial,169,722000,0.0-144.0-0.0,voc_e2,12195,"[{""event"":""fullscreenenter"",""trial"":1,""time"":3714}]",NA,NA,NA,NA,NA,3,#FA92F8,#1CD855,10,10,1,40,0,1100.5,39,0,382,10,0,experiment,NA,NA,1,0.7,0.3,2,3,135,3,NA
fcp-trial,170,724752,0.0-145.0-0.0,voc_e2,12195,"[{""event"":""fullscreenenter"",""trial"":1,""time"":3714}]",NA,NA,NA,NA,NA,4,#D8271C,#741CD8,0,0,0,40,0,796.7000000178814,39,0,444.90000000596046,0,1,experiment,NA,NA,2,0.5,0.5,5,4,136,4,NA
fcp-trial,171,727516,0.0-146.0-0.0,voc_e2,12195,"[{""event"":""fullscreenenter"",""trial"":1,""time"":3714}]",NA,NA,NA,NA,NA,4,#3386FF,#D89F1C,0,10,0,38,1,989.9000000059605,39,0,266.90000000596046,10,1,experiment,NA,NA,0,0.1,0.9,1,0,137,4,NA
fcp-trial,172,730097,0.0-147.0-0.0,voc_e2,12195,"[{""event"":""fullscreenenter"",""trial"":1,""time"":3714}]",NA,NA,NA,NA,NA,1,#3386FF,#D89F1C,0,10,0,38,1,622.6999999880791,39,0,454.2999999821186,10,1,experiment,NA,NA,0,0.1,0.9,1,0,138,4,NA
fcp-trial,173,732909,0.0-148.0-0.0,voc_e2,12195,"[{""event"":""fullscreenenter"",""trial"":1,""time"":3714}]",NA,NA,NA,NA,NA,1,#FA92F8,#1CD855,10,0,1,40,0,844.1999999880791,39,0,459.90000000596046,0,0,experiment,NA,NA,1,0.7,0.3,2,3,139,4,NA
fcp-trial,174,735357,0.0-149.0-0.0,voc_e2,12195,"[{""event"":""fullscreenenter"",""trial"":1,""time"":3714}]",NA,NA,NA,NA,NA,0,#D89F1C,#3386FF,0,0,1,38,1,677.2000000178814,37,1,264.19999998807907,0,1,experiment,NA,NA,0,0.9,0.1,0,1,140,4,NA
fcp-trial,175,738064,0.0-150.0-0.0,voc_e2,12195,"[{""event"":""fullscreenenter"",""trial"":1,""time"":3714}]",NA,NA,NA,NA,NA,3,#741CD8,#D8271C,10,10,1,40,0,772.0999999940395,37,1,425,10,1,experiment,NA,NA,2,0.5,0.5,4,5,141,4,NA
fcp-trial,176,740690,0.0-151.0-0.0,voc_e2,12195,"[{""event"":""fullscreenenter"",""trial"":1,""time"":3714}]",NA,NA,NA,NA,NA,2,#1CD855,#FA92F8,0,10,0,38,1,862.8999999761581,39,0,256.80000001192093,10,1,experiment,NA,NA,1,0.3,0.7,3,2,142,4,NA
fcp-trial,177,744198,0.0-152.0-0.0,voc_e2,12195,"[{""event"":""fullscreenenter"",""trial"":1,""time"":3714}]",NA,NA,NA,NA,NA,6,#3386FF,#D89F1C,0,10,0,38,1,1739.6000000238419,39,0,259.59999999403954,10,1,experiment,NA,NA,0,0.1,0.9,1,0,143,4,NA
fcp-trial,178,747032,0.0-153.0-0.0,voc_e2,12195,"[{""event"":""fullscreenenter"",""trial"":1,""time"":3714}]",NA,NA,NA,NA,NA,0,#FA92F8,#1CD855,10,0,1,40,0,979.5,37,1,347.30000001192093,10,1,experiment,NA,NA,1,0.7,0.3,2,3,144,4,NA
fcp-trial,179,749701,0.0-154.0-0.0,voc_e2,12195,"[{""event"":""fullscreenenter"",""trial"":1,""time"":3714}]",NA,NA,NA,NA,NA,4,#1CD855,#FA92F8,0,0,0,40,0,874.5,39,0,288.80000001192093,0,1,experiment,NA,NA,1,0.3,0.7,3,2,145,4,NA
fcp-trial,180,753110,0.0-155.0-0.0,voc_e2,12195,"[{""event"":""fullscreenenter"",""trial"":1,""time"":3714}]",NA,NA,NA,NA,NA,1,#D8271C,#741CD8,10,10,0,40,0,1503.199999988079,39,0,399.699999988079,10,1,experiment,NA,NA,2,0.5,0.5,5,4,146,4,NA
fcp-trial,181,755717,0.0-156.0-0.0,voc_e2,12195,"[{""event"":""fullscreenenter"",""trial"":1,""time"":3714}]",NA,NA,NA,NA,NA,2,#D8271C,#741CD8,10,10,0,40,0,784.5999999940395,37,1,316.09999999403954,10,0,experiment,NA,NA,2,0.5,0.5,5,4,147,4,NA
fcp-trial,182,758440,0.0-157.0-0.0,voc_e2,12195,"[{""event"":""fullscreenenter"",""trial"":1,""time"":3714}]",NA,NA,NA,NA,NA,2,#D8271C,#741CD8,10,10,0,40,0,753.8000000119209,37,1,461.2000000178814,10,0,experiment,NA,NA,2,0.5,0.5,5,4,148,4,NA
fcp-trial,183,760899,0.0-158.0-0.0,voc_e2,12195,"[{""event"":""fullscreenenter"",""trial"":1,""time"":3714}]",NA,NA,NA,NA,NA,1,#D8271C,#741CD8,10,10,0,40,0,563,39,0,388.40000000596046,10,1,experiment,NA,NA,2,0.5,0.5,5,4,149,4,NA
fcp-trial,184,763815,0.0-159.0-0.0,voc_e2,12195,"[{""event"":""fullscreenenter"",""trial"":1,""time"":3714}]",NA,NA,NA,NA,NA,3,#1CD855,#FA92F8,0,10,0,38,1,1080.3999999761581,39,0,329.10000002384186,10,1,experiment,NA,NA,1,0.3,0.7,3,2,150,4,NA
fcp-trial,185,766531,0.0-160.0-0.0,voc_e2,12195,"[{""event"":""fullscreenenter"",""trial"":1,""time"":3714}]",NA,NA,NA,NA,NA,4,#FA92F8,#1CD855,10,0,1,38,1,935.9000000059605,37,1,273.89999997615814,10,1,experiment,NA,NA,1,0.7,0.3,2,3,151,4,NA
fcp-trial,186,769315,0.0-161.0-0.0,voc_e2,12195,"[{""event"":""fullscreenenter"",""trial"":1,""time"":3714}]",NA,NA,NA,NA,NA,4,#3386FF,#D89F1C,0,10,0,38,1,1012.6000000238419,39,0,265.10000002384186,10,1,experiment,NA,NA,0,0.1,0.9,1,0,152,4,NA
fcp-trial,187,772783,0.0-162.0-0.0,voc_e2,12195,"[{""event"":""fullscreenenter"",""trial"":1,""time"":3714}]",NA,NA,NA,NA,NA,3,#741CD8,#D8271C,0,0,1,40,0,1554.1000000238419,37,1,407.7000000178814,0,1,experiment,NA,NA,2,0.5,0.5,4,5,153,4,NA
fcp-trial,188,775967,0.0-163.0-0.0,voc_e2,12195,"[{""event"":""fullscreenenter"",""trial"":1,""time"":3714}]",NA,NA,NA,NA,NA,2,#D89F1C,#3386FF,10,0,1,38,1,1317.800000011921,37,1,359.59999999403954,10,1,experiment,NA,NA,0,0.9,0.1,0,1,154,4,NA
fcp-trial,189,779201,0.0-164.0-0.0,voc_e2,12195,"[{""event"":""fullscreenenter"",""trial"":1,""time"":3714}]",NA,NA,NA,NA,NA,5,#FA92F8,#1CD855,10,10,1,40,0,1360,39,0,366.800000011921,10,0,experiment,NA,NA,1,0.7,0.3,2,3,155,4,NA
fcp-trial,190,781964,0.0-165.0-0.0,voc_e2,12195,"[{""event"":""fullscreenenter"",""trial"":1,""time"":3714}]",NA,NA,NA,NA,NA,2,#1CD855,#FA92F8,0,10,0,40,0,776.8000000119209,37,1,479.5,0,0,experiment,NA,NA,1,0.3,0.7,3,2,156,4,NA
fcp-trial,191,784798,0.0-166.0-0.0,voc_e2,12195,"[{""event"":""fullscreenenter"",""trial"":1,""time"":3714}]",NA,NA,NA,NA,NA,0,#D8271C,#741CD8,0,10,0,40,0,923.9000000059605,37,1,406.09999999403954,0,0,experiment,NA,NA,2,0.5,0.5,5,4,157,4,NA
fcp-trial,192,788117,0.0-167.0-0.0,voc_e2,12195,"[{""event"":""fullscreenenter"",""trial"":1,""time"":3714}]",NA,NA,NA,NA,NA,0,#3386FF,#D89F1C,0,10,0,38,1,1267.3999999761581,39,0,543.0999999940395,10,1,experiment,NA,NA,0,0.1,0.9,1,0,158,4,NA
fcp-trial,193,791524,0.0-168.0-0.0,voc_e2,12195,"[{""event"":""fullscreenenter"",""trial"":1,""time"":3714}]",NA,NA,NA,NA,NA,6,#1CD855,#FA92F8,0,0,0,40,0,1538.199999988079,37,1,360.5,0,0,experiment,NA,NA,1,0.3,0.7,3,2,159,4,NA
fcp-trial,194,794583,0.0-169.0-0.0,voc_e2,12195,"[{""event"":""fullscreenenter"",""trial"":1,""time"":3714}]",NA,NA,NA,NA,NA,5,#D8271C,#741CD8,10,0,0,40,0,1202.699999988079,39,0,349,0,1,experiment,NA,NA,2,0.5,0.5,5,4,160,4,NA
fcp-trial,195,798003,0.0-170.0-0.0,voc_e2,12195,"[{""event"":""fullscreenenter"",""trial"":1,""time"":3714}]",NA,NA,NA,NA,NA,4,#741CD8,#D8271C,0,0,1,40,0,1461.2999999821186,39,0,450.2999999821186,0,0,experiment,NA,NA,2,0.5,0.5,4,5,161,4,NA
fcp-trial,196,800491,0.0-171.0-0.0,voc_e2,12195,"[{""event"":""fullscreenenter"",""trial"":1,""time"":3714}]",NA,NA,NA,NA,NA,1,#3386FF,#D89F1C,0,10,0,38,1,703.2999999821186,39,0,277,10,1,experiment,NA,NA,0,0.1,0.9,1,0,162,4,NA
fcp-trial,197,803597,0.0-172.0-0.0,voc_e2,12195,"[{""event"":""fullscreenenter"",""trial"":1,""time"":3714}]",NA,NA,NA,NA,NA,1,#1CD855,#FA92F8,10,0,0,38,1,977.7999999821186,39,0,620.5,0,1,experiment,NA,NA,1,0.3,0.7,3,2,163,4,NA
fcp-trial,198,806251,0.0-173.0-0.0,voc_e2,12195,"[{""event"":""fullscreenenter"",""trial"":1,""time"":3714}]",NA,NA,NA,NA,NA,6,#3386FF,#D89F1C,10,10,0,38,1,863.7999999821186,39,0,282.80000001192093,10,1,experiment,NA,NA,0,0.1,0.9,1,0,164,4,NA
fcp-trial,199,809286,0.0-174.0-0.0,voc_e2,12195,"[{""event"":""fullscreenenter"",""trial"":1,""time"":3714}]",NA,NA,NA,NA,NA,0,#1CD855,#FA92F8,0,10,0,38,1,997.5,39,0,529.2000000178814,10,1,experiment,NA,NA,1,0.3,0.7,3,2,165,4,NA
fcp-trial,200,812099,0.0-175.0-0.0,voc_e2,12195,"[{""event"":""fullscreenenter"",""trial"":1,""time"":3714}]",NA,NA,NA,NA,NA,6,#741CD8,#D8271C,0,0,1,40,0,925.6999999880791,39,0,381.5,0,0,experiment,NA,NA,2,0.5,0.5,4,5,166,4,NA
fcp-trial,201,814782,0.0-176.0-0.0,voc_e2,12195,"[{""event"":""fullscreenenter"",""trial"":1,""time"":3714}]",NA,NA,NA,NA,NA,5,#3386FF,#D89F1C,0,10,0,38,1,871.5,39,0,305,10,1,experiment,NA,NA,0,0.1,0.9,1,0,167,4,NA
fcp-trial,202,817398,0.0-177.0-0.0,voc_e2,12195,"[{""event"":""fullscreenenter"",""trial"":1,""time"":3714}]",NA,NA,NA,NA,NA,3,#3386FF,#D89F1C,0,10,0,38,1,785.7000000178814,39,0,324.89999997615814,10,1,experiment,NA,NA,0,0.1,0.9,1,0,168,4,NA
fcp-trial,203,819906,0.0-178.0-0.0,voc_e2,12195,"[{""event"":""fullscreenenter"",""trial"":1,""time"":3714}]",NA,NA,NA,NA,NA,0,#3386FF,#D89F1C,0,10,0,38,1,647.7000000178814,39,0,353.39999997615814,10,1,experiment,NA,NA,0,0.1,0.9,1,0,169,4,NA
fcp-trial,204,822866,0.0-179.0-0.0,voc_e2,12195,"[{""event"":""fullscreenenter"",""trial"":1,""time"":3714}]",NA,NA,NA,NA,NA,6,#1CD855,#FA92F8,10,0,0,40,0,1111.2999999821186,39,0,341.69999998807907,0,1,experiment,NA,NA,1,0.3,0.7,3,2,170,4,NA
fcp-trial,205,826484,0.0-180.0-0.0,voc_e2,12195,"[{""event"":""fullscreenenter"",""trial"":1,""time"":3714}]",NA,NA,NA,NA,NA,6,#3386FF,#D89F1C,0,10,0,38,1,1829.5999999940395,39,0,282.40000000596046,10,1,experiment,NA,NA,0,0.1,0.9,1,0,171,4,NA
fcp-trial,206,829300,0.0-181.0-0.0,voc_e2,12195,"[{""event"":""fullscreenenter"",""trial"":1,""time"":3714}]",NA,NA,NA,NA,NA,0,#D8271C,#741CD8,0,0,0,40,0,833.5999999940395,37,1,474.7000000178814,0,0,experiment,NA,NA,2,0.5,0.5,5,4,172,4,NA
fcp-trial,207,832165,0.0-182.0-0.0,voc_e2,12195,"[{""event"":""fullscreenenter"",""trial"":1,""time"":3714}]",NA,NA,NA,NA,NA,4,#3386FF,#D89F1C,0,10,0,38,1,1068.699999988079,39,0,287.7999999821186,10,1,experiment,NA,NA,0,0.1,0.9,1,0,173,4,NA
fcp-trial,208,835167,0.0-183.0-0.0,voc_e2,12195,"[{""event"":""fullscreenenter"",""trial"":1,""time"":3714}]",NA,NA,NA,NA,NA,1,#FA92F8,#1CD855,0,0,1,38,1,1086.0999999940395,37,1,408.300000011921,0,1,experiment,NA,NA,1,0.7,0.3,2,3,174,4,NA
fcp-trial,209,838159,0.0-184.0-0.0,voc_e2,12195,"[{""event"":""fullscreenenter"",""trial"":1,""time"":3714}]",NA,NA,NA,NA,NA,2,#FA92F8,#1CD855,10,0,1,38,1,1133.2000000178814,37,1,351.5,10,1,experiment,NA,NA,1,0.7,0.3,2,3,175,4,NA
fcp-trial,210,841133,0.0-185.0-0.0,voc_e2,12195,"[{""event"":""fullscreenenter"",""trial"":1,""time"":3714}]",NA,NA,NA,NA,NA,4,#D8271C,#741CD8,10,10,0,40,0,1091,39,0,376.39999997615814,10,1,experiment,NA,NA,2,0.5,0.5,5,4,176,4,NA
fcp-trial,211,843934,0.0-186.0-0.0,voc_e2,12195,"[{""event"":""fullscreenenter"",""trial"":1,""time"":3714}]",NA,NA,NA,NA,NA,0,#1CD855,#FA92F8,0,10,0,38,1,840.1999999880791,39,0,454.09999999403954,10,1,experiment,NA,NA,1,0.3,0.7,3,2,177,4,NA
fcp-trial,212,846427,0.0-187.0-0.0,voc_e2,12195,"[{""event"":""fullscreenenter"",""trial"":1,""time"":3714}]",NA,NA,NA,NA,NA,1,#3386FF,#D89F1C,0,10,0,38,1,694.3999999761581,39,0,291.2999999821186,10,1,experiment,NA,NA,0,0.1,0.9,1,0,178,4,NA
fcp-trial,213,849691,0.0-188.0-0.0,voc_e2,12195,"[{""event"":""fullscreenenter"",""trial"":1,""time"":3714}]",NA,NA,NA,NA,NA,3,#1CD855,#FA92F8,0,10,0,38,1,1401.800000011921,39,0,353,10,1,experiment,NA,NA,1,0.3,0.7,3,2,179,4,NA
fcp-trial,214,853151,0.0-189.0-0.0,voc_e2,12195,"[{""event"":""fullscreenenter"",""trial"":1,""time"":3714}]",NA,NA,NA,NA,NA,5,#3386FF,#D89F1C,0,10,0,38,1,1657,39,0,293.7000000178814,10,1,experiment,NA,NA,0,0.1,0.9,1,0,180,4,NA
fcp-trial,215,855850,0.0-190.0-0.0,voc_e2,12195,"[{""event"":""fullscreenenter"",""trial"":1,""time"":3714}]",NA,NA,NA,NA,NA,5,#741CD8,#D8271C,0,10,1,40,0,789.3000000119209,37,1,402.90000000596046,0,1,experiment,NA,NA,2,0.5,0.5,4,5,181,5,NA
fcp-trial,216,858995,0.0-191.0-0.0,voc_e2,12195,"[{""event"":""fullscreenenter"",""trial"":1,""time"":3714}]",NA,NA,NA,NA,NA,2,#D89F1C,#3386FF,10,0,1,38,1,1069.5,37,1,567.5,10,1,experiment,NA,NA,0,0.9,0.1,0,1,182,5,NA
fcp-trial,217,862035,0.0-192.0-0.0,voc_e2,12195,"[{""event"":""fullscreenenter"",""trial"":1,""time"":3714}]",NA,NA,NA,NA,NA,1,#741CD8,#D8271C,10,10,1,40,0,1142.800000011921,37,1,388.90000000596046,10,1,experiment,NA,NA,2,0.5,0.5,4,5,183,5,NA
fcp-trial,218,865134,0.0-193.0-0.0,voc_e2,12195,"[{""event"":""fullscreenenter"",""trial"":1,""time"":3714}]",NA,NA,NA,NA,NA,4,#FA92F8,#1CD855,0,0,1,38,1,1275.300000011921,37,1,316.19999998807907,0,1,experiment,NA,NA,1,0.7,0.3,2,3,184,5,NA
fcp-trial,219,867971,0.0-194.0-0.0,voc_e2,12195,"[{""event"":""fullscreenenter"",""trial"":1,""time"":3714}]",NA,NA,NA,NA,NA,5,#FA92F8,#1CD855,0,0,1,40,0,986.5,37,1,341.2000000178814,0,1,experiment,NA,NA,1,0.7,0.3,2,3,185,5,NA
fcp-trial,220,871778,0.0-195.0-0.0,voc_e2,12195,"[{""event"":""fullscreenenter"",""trial"":1,""time"":3714}]",NA,NA,NA,NA,NA,6,#741CD8,#D8271C,10,10,1,40,0,1824,37,1,476.199999988079,10,1,experiment,NA,NA,2,0.5,0.5,4,5,186,5,NA
fcp-trial,221,874502,0.0-196.0-0.0,voc_e2,12195,"[{""event"":""fullscreenenter"",""trial"":1,""time"":3714}]",NA,NA,NA,NA,NA,3,#3386FF,#D89F1C,0,10,0,38,1,902.0999999940395,39,0,311.40000000596046,10,1,experiment,NA,NA,0,0.1,0.9,1,0,187,5,NA
fcp-trial,222,877252,0.0-197.0-0.0,voc_e2,12195,"[{""event"":""fullscreenenter"",""trial"":1,""time"":3714}]",NA,NA,NA,NA,NA,3,#D8271C,#741CD8,10,0,0,40,0,891.7000000178814,39,0,350.39999997615814,0,1,experiment,NA,NA,2,0.5,0.5,5,4,188,5,NA
fcp-trial,223,880067,0.0-198.0-0.0,voc_e2,12195,"[{""event"":""fullscreenenter"",""trial"":1,""time"":3714}]",NA,NA,NA,NA,NA,2,#D8271C,#741CD8,0,0,0,40,0,1009.8000000119209,39,0,300.5,0,1,experiment,NA,NA,2,0.5,0.5,5,4,189,5,NA
fcp-trial,224,882768,0.0-199.0-0.0,voc_e2,12195,"[{""event"":""fullscreenenter"",""trial"":1,""time"":3714}]",NA,NA,NA,NA,NA,4,#D8271C,#741CD8,10,10,0,40,0,697.7000000178814,37,1,495.90000000596046,10,0,experiment,NA,NA,2,0.5,0.5,5,4,190,5,NA
fcp-trial,225,885710,0.0-200.0-0.0,voc_e2,12195,"[{""event"":""fullscreenenter"",""trial"":1,""time"":3714}]",NA,NA,NA,NA,NA,3,#D89F1C,#3386FF,10,0,1,38,1,1102.4000000059605,37,1,332.19999998807907,10,1,experiment,NA,NA,0,0.9,0.1,0,1,191,5,NA
fcp-trial,226,888878,0.0-201.0-0.0,voc_e2,12195,"[{""event"":""fullscreenenter"",""trial"":1,""time"":3714}]",NA,NA,NA,NA,NA,6,#1CD855,#FA92F8,0,10,0,40,0,1303.5,39,0,355.40000000596046,10,1,experiment,NA,NA,1,0.3,0.7,3,2,192,5,NA
fcp-trial,227,892742,0.0-202.0-0.0,voc_e2,12195,"[{""event"":""fullscreenenter"",""trial"":1,""time"":3714}]",NA,NA,NA,NA,NA,1,#3386FF,#D89F1C,0,10,0,38,1,1939.699999988079,39,0,413.40000000596046,10,1,experiment,NA,NA,0,0.1,0.9,1,0,193,5,NA
fcp-trial,228,896553,0.0-203.0-0.0,voc_e2,12195,"[{""event"":""fullscreenenter"",""trial"":1,""time"":3714}]",NA,NA,NA,NA,NA,0,#741CD8,#D8271C,10,10,1,38,1,1956.199999988079,37,1,346.40000000596046,10,1,experiment,NA,NA,2,0.5,0.5,4,5,194,5,NA
fcp-trial,229,899835,0.0-204.0-0.0,voc_e2,12195,"[{""event"":""fullscreenenter"",""trial"":1,""time"":3714}]",NA,NA,NA,NA,NA,0,#1CD855,#FA92F8,0,10,0,38,1,1482.800000011921,39,0,291.59999999403954,10,1,experiment,NA,NA,1,0.3,0.7,3,2,195,5,NA
fcp-trial,230,902658,0.0-205.0-0.0,voc_e2,12195,"[{""event"":""fullscreenenter"",""trial"":1,""time"":3714}]",NA,NA,NA,NA,NA,6,#D8271C,#741CD8,0,10,0,40,0,1027.5,39,0,287.69999998807907,10,1,experiment,NA,NA,2,0.5,0.5,5,4,196,5,NA
fcp-trial,231,906371,0.0-206.0-0.0,voc_e2,12195,"[{""event"":""fullscreenenter"",""trial"":1,""time"":3714}]",NA,NA,NA,NA,NA,1,#D8271C,#741CD8,0,0,0,40,0,1901.5,39,0,303.80000001192093,0,1,experiment,NA,NA,2,0.5,0.5,5,4,197,5,NA
fcp-trial,232,909801,0.0-207.0-0.0,voc_e2,12195,"[{""event"":""fullscreenenter"",""trial"":1,""time"":3714}]",NA,NA,NA,NA,NA,5,#3386FF,#D89F1C,0,10,0,38,1,1640.800000011921,39,0,282.09999999403954,10,1,experiment,NA,NA,0,0.1,0.9,1,0,198,5,NA
fcp-trial,233,914326,0.0-208.0-0.0,voc_e2,12195,"[{""event"":""fullscreenenter"",""trial"":1,""time"":3714}]",NA,NA,NA,NA,NA,1,#1CD855,#FA92F8,10,10,0,38,1,2426.699999988079,39,0,590.5999999940395,10,1,experiment,NA,NA,1,0.3,0.7,3,2,199,5,NA
fcp-trial,234,917703,0.0-209.0-0.0,voc_e2,12195,"[{""event"":""fullscreenenter"",""trial"":1,""time"":3714}]",NA,NA,NA,NA,NA,2,#FA92F8,#1CD855,0,0,1,38,1,1567.699999988079,37,1,300.59999999403954,0,1,experiment,NA,NA,1,0.7,0.3,2,3,200,5,NA
fcp-trial,235,920618,0.0-210.0-0.0,voc_e2,12195,"[{""event"":""fullscreenenter"",""trial"":1,""time"":3714}]",NA,NA,NA,NA,NA,5,#741CD8,#D8271C,10,0,1,40,0,1085.7000000178814,37,1,322.30000001192093,10,1,experiment,NA,NA,2,0.5,0.5,4,5,201,5,NA
fcp-trial,236,923720,0.0-211.0-0.0,voc_e2,12195,"[{""event"":""fullscreenenter"",""trial"":1,""time"":3714}]",NA,NA,NA,NA,NA,5,#1CD855,#FA92F8,10,10,0,40,0,1145.2000000178814,37,1,451,10,0,experiment,NA,NA,1,0.3,0.7,3,2,202,5,NA
fcp-trial,237,927735,0.0-212.0-0.0,voc_e2,12195,"[{""event"":""fullscreenenter"",""trial"":1,""time"":3714}]",NA,NA,NA,NA,NA,0,#3386FF,#D89F1C,0,0,0,38,1,2209.800000011921,39,0,297.2999999821186,0,1,experiment,NA,NA,0,0.1,0.9,1,0,203,5,NA
fcp-trial,238,930653,0.0-213.0-0.0,voc_e2,12195,"[{""event"":""fullscreenenter"",""trial"":1,""time"":3714}]",NA,NA,NA,NA,NA,4,#3386FF,#D89F1C,0,10,0,38,1,1088.9000000059605,39,0,323.09999999403954,10,1,experiment,NA,NA,0,0.1,0.9,1,0,204,5,NA
fcp-trial,239,933475,0.0-214.0-0.0,voc_e2,12195,"[{""event"":""fullscreenenter"",""trial"":1,""time"":3714}]",NA,NA,NA,NA,NA,3,#741CD8,#D8271C,10,10,1,40,0,1003.8999999761581,37,1,310.09999999403954,10,1,experiment,NA,NA,2,0.5,0.5,4,5,205,5,NA
fcp-trial,240,937154,0.0-215.0-0.0,voc_e2,12195,"[{""event"":""fullscreenenter"",""trial"":1,""time"":3714}]",NA,NA,NA,NA,NA,3,#FA92F8,#1CD855,10,10,1,40,0,1752.199999988079,39,0,420.39999997615814,10,0,experiment,NA,NA,1,0.7,0.3,2,3,206,5,NA
fcp-trial,241,940119,0.0-216.0-0.0,voc_e2,12195,"[{""event"":""fullscreenenter"",""trial"":1,""time"":3714}]",NA,NA,NA,NA,NA,2,#741CD8,#D8271C,10,10,1,40,0,941,37,1,515.5999999940395,10,1,experiment,NA,NA,2,0.5,0.5,4,5,207,5,NA
fcp-trial,242,943117,0.0-217.0-0.0,voc_e2,12195,"[{""event"":""fullscreenenter"",""trial"":1,""time"":3714}]",NA,NA,NA,NA,NA,4,#FA92F8,#1CD855,0,10,1,40,0,1125,37,1,368.5,0,1,experiment,NA,NA,1,0.7,0.3,2,3,208,5,NA
fcp-trial,243,945873,0.0-218.0-0.0,voc_e2,12195,"[{""event"":""fullscreenenter"",""trial"":1,""time"":3714}]",NA,NA,NA,NA,NA,2,#D89F1C,#3386FF,10,0,1,38,1,912.0999999940395,37,1,337.2000000178814,10,1,experiment,NA,NA,0,0.9,0.1,0,1,209,5,NA
fcp-trial,244,948983,0.0-219.0-0.0,voc_e2,12195,"[{""event"":""fullscreenenter"",""trial"":1,""time"":3714}]",NA,NA,NA,NA,NA,6,#3386FF,#D89F1C,0,10,0,40,0,1248.4000000059605,39,0,354.59999999403954,10,1,experiment,NA,NA,0,0.1,0.9,1,0,210,5,NA
audio-instructions,245,956946,0.0-220.0,voc_e2,12195,"[{""event"":""fullscreenenter"",""trial"":1,""time"":3714}]",NA,3490.4000000059605,static/audio/pause.wav,NA,0,NA,NA,NA,NA,NA,NA,NA,NA,NA,NA,NA,NA,NA,NA,NA,NA,NA,NA,NA,NA,NA,NA,NA,NA,NA
fcp-trial,246,960506,0.0-221.0-0.0,voc_e2,12195,"[{""event"":""fullscreenenter"",""trial"":1,""time"":3714}]",NA,NA,NA,NA,NA,4,#3386FF,#D89F1C,0,10,0,38,1,1476.0999999940395,39,0,574.1999999880791,10,1,experiment,NA,NA,0,0.1,0.9,1,0,211,5,NA
fcp-trial,247,963492,0.0-222.0-0.0,voc_e2,12195,"[{""event"":""fullscreenenter"",""trial"":1,""time"":3714}]",NA,NA,NA,NA,NA,6,#1CD855,#FA92F8,0,0,0,40,0,1076.2000000178814,39,0,401.10000002384186,0,1,experiment,NA,NA,1,0.3,0.7,3,2,212,5,NA
fcp-trial,248,966118,0.0-223.0-0.0,voc_e2,12195,"[{""event"":""fullscreenenter"",""trial"":1,""time"":3714}]",NA,NA,NA,NA,NA,0,#3386FF,#D89F1C,0,10,0,38,1,854.9000000059605,39,0,264,10,1,experiment,NA,NA,0,0.1,0.9,1,0,213,5,NA
fcp-trial,249,968904,0.0-224.0-0.0,voc_e2,12195,"[{""event"":""fullscreenenter"",""trial"":1,""time"":3714}]",NA,NA,NA,NA,NA,5,#741CD8,#D8271C,0,0,1,40,0,888.4000000059605,39,0,390.89999997615814,0,0,experiment,NA,NA,2,0.5,0.5,4,5,214,5,NA
fcp-trial,250,971468,0.0-225.0-0.0,voc_e2,12195,"[{""event"":""fullscreenenter"",""trial"":1,""time"":3714}]",NA,NA,NA,NA,NA,1,#1CD855,#FA92F8,0,0,0,38,1,808.2000000178814,39,0,250.9000000059605,0,1,experiment,NA,NA,1,0.3,0.7,3,2,215,5,NA
fcp-trial,251,974583,0.0-226.0-0.0,voc_e2,12195,"[{""event"":""fullscreenenter"",""trial"":1,""time"":3714}]",NA,NA,NA,NA,NA,2,#3386FF,#D89F1C,0,10,0,38,1,1051.0999999940395,39,0,558.1999999880791,10,1,experiment,NA,NA,0,0.1,0.9,1,0,216,5,NA
fcp-trial,252,977333,0.0-227.0-0.0,voc_e2,12195,"[{""event"":""fullscreenenter"",""trial"":1,""time"":3714}]",NA,NA,NA,NA,NA,6,#D8271C,#741CD8,0,0,0,40,0,845.5,37,1,399.09999999403954,0,0,experiment,NA,NA,2,0.5,0.5,5,4,217,5,NA
fcp-trial,253,980086,0.0-228.0-0.0,voc_e2,12195,"[{""event"":""fullscreenenter"",""trial"":1,""time"":3714}]",NA,NA,NA,NA,NA,0,#1CD855,#FA92F8,0,0,0,40,0,813.4000000059605,37,1,434.7000000178814,0,0,experiment,NA,NA,1,0.3,0.7,3,2,218,5,NA
fcp-trial,254,982799,0.0-229.0-0.0,voc_e2,12195,"[{""event"":""fullscreenenter"",""trial"":1,""time"":3714}]",NA,NA,NA,NA,NA,1,#D89F1C,#3386FF,10,0,1,38,1,845.6000000238419,37,1,362.40000000596046,10,1,experiment,NA,NA,0,0.9,0.1,0,1,219,5,NA
fcp-trial,255,985819,0.0-230.0-0.0,voc_e2,12195,"[{""event"":""fullscreenenter"",""trial"":1,""time"":3714}]",NA,NA,NA,NA,NA,5,#FA92F8,#1CD855,10,0,1,40,0,1113.300000011921,39,0,401.2999999821186,0,0,experiment,NA,NA,1,0.7,0.3,2,3,220,5,NA
fcp-trial,256,988807,0.0-231.0-0.0,voc_e2,12195,"[{""event"":""fullscreenenter"",""trial"":1,""time"":3714}]",NA,NA,NA,NA,NA,2,#741CD8,#D8271C,10,0,1,40,0,1144.8999999761581,37,1,335.2999999821186,10,1,experiment,NA,NA,2,0.5,0.5,4,5,221,5,NA
fcp-trial,257,991524,0.0-232.0-0.0,voc_e2,12195,"[{""event"":""fullscreenenter"",""trial"":1,""time"":3714}]",NA,NA,NA,NA,NA,1,#741CD8,#D8271C,10,0,1,40,0,789.5,39,0,419.09999999403954,0,0,experiment,NA,NA,2,0.5,0.5,4,5,222,5,NA
fcp-trial,258,994600,0.0-233.0-0.0,voc_e2,12195,"[{""event"":""fullscreenenter"",""trial"":1,""time"":3714}]",NA,NA,NA,NA,NA,6,#3386FF,#D89F1C,0,0,0,38,1,1111.800000011921,39,0,458.7000000178814,0,1,experiment,NA,NA,0,0.1,0.9,1,0,223,5,NA
fcp-trial,259,998569,0.0-234.0-0.0,voc_e2,12195,"[{""event"":""fullscreenenter"",""trial"":1,""time"":3714}]",NA,NA,NA,NA,NA,4,#1CD855,#FA92F8,0,10,0,38,1,2111.699999988079,39,0,350.69999998807907,10,1,experiment,NA,NA,1,0.3,0.7,3,2,224,5,NA
fcp-trial,260,1001185,0.0-235.0-0.0,voc_e2,12195,"[{""event"":""fullscreenenter"",""trial"":1,""time"":3714}]",NA,NA,NA,NA,NA,2,#FA92F8,#1CD855,10,0,1,38,1,842.5,37,1,266.2999999821186,10,1,experiment,NA,NA,1,0.7,0.3,2,3,225,5,NA
fcp-trial,261,1003750,0.0-236.0-0.0,voc_e2,12195,"[{""event"":""fullscreenenter"",""trial"":1,""time"":3714}]",NA,NA,NA,NA,NA,5,#3386FF,#D89F1C,0,10,0,38,1,744.6000000238419,39,0,314.2000000178814,10,1,experiment,NA,NA,0,0.1,0.9,1,0,226,6,NA
fcp-trial,262,1006718,0.0-237.0-0.0,voc_e2,12195,"[{""event"":""fullscreenenter"",""trial"":1,""time"":3714}]",NA,NA,NA,NA,NA,0,#741CD8,#D8271C,0,10,1,38,1,1107.7000000178814,37,1,354.69999998807907,0,1,experiment,NA,NA,2,0.5,0.5,4,5,227,6,NA
fcp-trial,263,1009486,0.0-238.0-0.0,voc_e2,12195,"[{""event"":""fullscreenenter"",""trial"":1,""time"":3714}]",NA,NA,NA,NA,NA,3,#741CD8,#D8271C,10,0,1,40,0,885.0999999940395,37,1,375.800000011921,10,1,experiment,NA,NA,2,0.5,0.5,4,5,228,6,NA
fcp-trial,264,1012269,0.0-239.0-0.0,voc_e2,12195,"[{""event"":""fullscreenenter"",""trial"":1,""time"":3714}]",NA,NA,NA,NA,NA,3,#D89F1C,#3386FF,10,0,1,38,1,977.0999999940395,37,1,298.2000000178814,10,1,experiment,NA,NA,0,0.9,0.1,0,1,229,6,NA
fcp-trial,265,1014993,0.0-240.0-0.0,voc_e2,12195,"[{""event"":""fullscreenenter"",""trial"":1,""time"":3714}]",NA,NA,NA,NA,NA,3,#FA92F8,#1CD855,0,10,1,38,1,878.8000000119209,37,1,337.69999998807907,0,1,experiment,NA,NA,1,0.7,0.3,2,3,230,6,NA
fcp-trial,266,1017754,0.0-241.0-0.0,voc_e2,12195,"[{""event"":""fullscreenenter"",""trial"":1,""time"":3714}]",NA,NA,NA,NA,NA,4,#741CD8,#D8271C,0,0,1,38,1,918.0999999940395,37,1,334.2999999821186,0,1,experiment,NA,NA,2,0.5,0.5,4,5,231,6,NA
fcp-trial,267,1020570,0.0-242.0-0.0,voc_e2,12195,"[{""event"":""fullscreenenter"",""trial"":1,""time"":3714}]",NA,NA,NA,NA,NA,2,#D8271C,#741CD8,10,10,0,40,0,809.0999999940395,37,1,499.89999997615814,10,0,experiment,NA,NA,2,0.5,0.5,5,4,232,6,NA
fcp-trial,268,1023687,0.0-243.0-0.0,voc_e2,12195,"[{""event"":""fullscreenenter"",""trial"":1,""time"":3714}]",NA,NA,NA,NA,NA,6,#3386FF,#D89F1C,0,10,0,40,0,1293.699999988079,39,0,314.30000001192093,10,1,experiment,NA,NA,0,0.1,0.9,1,0,233,6,NA
fcp-trial,269,1026420,0.0-244.0-0.0,voc_e2,12195,"[{""event"":""fullscreenenter"",""trial"":1,""time"":3714}]",NA,NA,NA,NA,NA,1,#D89F1C,#3386FF,10,0,1,38,1,943.5999999940395,37,1,284.30000001192093,10,1,experiment,NA,NA,0,0.9,0.1,0,1,234,6,NA
fcp-trial,270,1031170,0.0-245.0-0.0,voc_e2,12195,"[{""event"":""fullscreenenter"",""trial"":1,""time"":3714}]",NA,NA,NA,NA,NA,0,#1CD855,#FA92F8,10,10,0,38,1,2951.7999999821186,39,0,288.39999997615814,10,1,experiment,NA,NA,1,0.3,0.7,3,2,235,6,NA
fcp-trial,271,1034451,0.0-246.0-0.0,voc_e2,12195,"[{""event"":""fullscreenenter"",""trial"":1,""time"":3714}]",NA,NA,NA,NA,NA,5,#D8271C,#741CD8,0,0,0,40,0,1343.1000000238419,37,1,432.90000000596046,0,0,experiment,NA,NA,2,0.5,0.5,5,4,236,6,NA
fcp-trial,272,1037319,0.0-247.0-0.0,voc_e2,12195,"[{""event"":""fullscreenenter"",""trial"":1,""time"":3714}]",NA,NA,NA,NA,NA,3,#1CD855,#FA92F8,0,10,0,38,1,1028.5,39,0,332.80000001192093,10,1,experiment,NA,NA,1,0.3,0.7,3,2,237,6,NA
fcp-trial,273,1040270,0.0-248.0-0.0,voc_e2,12195,"[{""event"":""fullscreenenter"",""trial"":1,""time"":3714}]",NA,NA,NA,NA,NA,4,#3386FF,#D89F1C,0,10,0,38,1,883.0999999940395,39,0,558.6999999880791,10,1,experiment,NA,NA,0,0.1,0.9,1,0,238,6,NA
fcp-trial,274,1043005,0.0-249.0-0.0,voc_e2,12195,"[{""event"":""fullscreenenter"",""trial"":1,""time"":3714}]",NA,NA,NA,NA,NA,6,#D8271C,#741CD8,10,0,0,40,0,849.5,39,0,376.40000000596046,0,1,experiment,NA,NA,2,0.5,0.5,5,4,239,6,NA
fcp-trial,275,1045770,0.0-250.0-0.0,voc_e2,12195,"[{""event"":""fullscreenenter"",""trial"":1,""time"":3714}]",NA,NA,NA,NA,NA,6,#1CD855,#FA92F8,0,0,0,40,0,897.7000000178814,37,1,360.800000011921,0,0,experiment,NA,NA,1,0.3,0.7,3,2,240,6,NA
fcp-trial,276,1048544,0.0-251.0-0.0,voc_e2,12195,"[{""event"":""fullscreenenter"",""trial"":1,""time"":3714}]",NA,NA,NA,NA,NA,5,#FA92F8,#1CD855,0,0,1,40,0,876,37,1,389.7000000178814,0,1,experiment,NA,NA,1,0.7,0.3,2,3,241,6,NA
fcp-trial,277,1051181,0.0-252.0-0.0,voc_e2,12195,"[{""event"":""fullscreenenter"",""trial"":1,""time"":3714}]",NA,NA,NA,NA,NA,5,#D89F1C,#3386FF,10,0,1,38,1,800.6999999880791,37,1,327,10,1,experiment,NA,NA,0,0.9,0.1,0,1,242,6,NA
fcp-trial,278,1053977,0.0-253.0-0.0,voc_e2,12195,"[{""event"":""fullscreenenter"",""trial"":1,""time"":3714}]",NA,NA,NA,NA,NA,0,#741CD8,#D8271C,10,0,1,40,0,846.8999999761581,39,0,440.5,0,0,experiment,NA,NA,2,0.5,0.5,4,5,243,6,NA
fcp-trial,279,1057070,0.0-254.0-0.0,voc_e2,12195,"[{""event"":""fullscreenenter"",""trial"":1,""time"":3714}]",NA,NA,NA,NA,NA,4,#741CD8,#D8271C,0,0,1,40,0,1094.9000000059605,39,0,490.300000011921,0,0,experiment,NA,NA,2,0.5,0.5,4,5,244,6,NA
fcp-trial,280,1061376,0.0-255.0-0.0,voc_e2,12195,"[{""event"":""fullscreenenter"",""trial"":1,""time"":3714}]",NA,NA,NA,NA,NA,2,#3386FF,#D89F1C,0,10,0,38,1,2266.300000011921,39,0,533,10,1,experiment,NA,NA,0,0.1,0.9,1,0,245,6,NA
fcp-trial,281,1064251,0.0-256.0-0.0,voc_e2,12195,"[{""event"":""fullscreenenter"",""trial"":1,""time"":3714}]",NA,NA,NA,NA,NA,4,#FA92F8,#1CD855,10,0,1,38,1,954.2000000178814,37,1,415.2000000178814,10,1,experiment,NA,NA,1,0.7,0.3,2,3,246,6,NA
fcp-trial,282,1067372,0.0-257.0-0.0,voc_e2,12195,"[{""event"":""fullscreenenter"",""trial"":1,""time"":3714}]",NA,NA,NA,NA,NA,3,#3386FF,#D89F1C,0,10,0,38,1,1330.199999988079,39,0,283.5,10,1,experiment,NA,NA,0,0.1,0.9,1,0,247,6,NA
fcp-trial,283,1070412,0.0-258.0-0.0,voc_e2,12195,"[{""event"":""fullscreenenter"",""trial"":1,""time"":3714}]",NA,NA,NA,NA,NA,1,#741CD8,#D8271C,0,0,1,40,0,1195.7000000178814,37,1,338,0,1,experiment,NA,NA,2,0.5,0.5,4,5,248,6,NA
fcp-trial,284,1073330,0.0-259.0-0.0,voc_e2,12195,"[{""event"":""fullscreenenter"",""trial"":1,""time"":3714}]",NA,NA,NA,NA,NA,3,#741CD8,#D8271C,0,10,1,40,0,773.6999999880791,39,0,634.8999999761581,10,0,experiment,NA,NA,2,0.5,0.5,4,5,249,6,NA
fcp-trial,285,1076552,0.0-260.0-0.0,voc_e2,12195,"[{""event"":""fullscreenenter"",""trial"":1,""time"":3714}]",NA,NA,NA,NA,NA,2,#1CD855,#FA92F8,10,0,0,38,1,1040.2999999821186,39,0,673.8999999761581,0,1,experiment,NA,NA,1,0.3,0.7,3,2,250,6,NA
fcp-trial,286,1079487,0.0-261.0-0.0,voc_e2,12195,"[{""event"":""fullscreenenter"",""trial"":1,""time"":3714}]",NA,NA,NA,NA,NA,1,#FA92F8,#1CD855,10,0,1,40,0,1062.7999999821186,37,1,365.5,10,1,experiment,NA,NA,1,0.7,0.3,2,3,251,6,NA
fcp-trial,287,1082834,0.0-262.0-0.0,voc_e2,12195,"[{""event"":""fullscreenenter"",""trial"":1,""time"":3714}]",NA,NA,NA,NA,NA,0,#3386FF,#D89F1C,0,10,0,38,1,1192.2999999821186,39,0,648.1999999880791,10,1,experiment,NA,NA,0,0.1,0.9,1,0,252,6,NA
fcp-trial,288,1085613,0.0-263.0-0.0,voc_e2,12195,"[{""event"":""fullscreenenter"",""trial"":1,""time"":3714}]",NA,NA,NA,NA,NA,1,#1CD855,#FA92F8,10,10,0,40,0,906.2999999821186,39,0,366,10,1,experiment,NA,NA,1,0.3,0.7,3,2,253,6,NA
fcp-trial,289,1088572,0.0-264.0-0.0,voc_e2,12195,"[{""event"":""fullscreenenter"",""trial"":1,""time"":3714}]",NA,NA,NA,NA,NA,6,#D89F1C,#3386FF,10,0,1,40,0,1092.800000011921,37,1,356.09999999403954,10,1,experiment,NA,NA,0,0.9,0.1,0,1,254,6,NA
fcp-trial,290,1091511,0.0-265.0-0.0,voc_e2,12195,"[{""event"":""fullscreenenter"",""trial"":1,""time"":3714}]",NA,NA,NA,NA,NA,3,#D89F1C,#3386FF,10,0,1,38,1,1059.5,37,1,374,10,1,experiment,NA,NA,0,0.9,0.1,0,1,255,6,NA
fcp-trial,291,1094251,0.0-266.0-0.0,voc_e2,12195,"[{""event"":""fullscreenenter"",""trial"":1,""time"":3714}]",NA,NA,NA,NA,NA,5,#741CD8,#D8271C,0,0,1,40,0,930.6999999880791,37,1,303.09999999403954,0,1,experiment,NA,NA,2,0.5,0.5,4,5,256,6,NA
fcp-trial,292,1097387,0.0-267.0-0.0,voc_e2,12195,"[{""event"":""fullscreenenter"",""trial"":1,""time"":3714}]",NA,NA,NA,NA,NA,5,#FA92F8,#1CD855,10,0,1,40,0,1224.800000011921,39,0,406.09999999403954,0,0,experiment,NA,NA,1,0.7,0.3,2,3,257,6,NA
fcp-trial,293,1100119,0.0-268.0-0.0,voc_e2,12195,"[{""event"":""fullscreenenter"",""trial"":1,""time"":3714}]",NA,NA,NA,NA,NA,2,#D89F1C,#3386FF,10,0,1,38,1,887.5999999940395,37,1,338.09999999403954,10,1,experiment,NA,NA,0,0.9,0.1,0,1,258,6,NA
fcp-trial,294,1102778,0.0-269.0-0.0,voc_e2,12195,"[{""event"":""fullscreenenter"",""trial"":1,""time"":3714}]",NA,NA,NA,NA,NA,3,#741CD8,#D8271C,10,10,1,40,0,834,37,1,313.69999998807907,10,1,experiment,NA,NA,2,0.5,0.5,4,5,259,6,NA
fcp-trial,295,1105690,0.0-270.0-0.0,voc_e2,12195,"[{""event"":""fullscreenenter"",""trial"":1,""time"":3714}]",NA,NA,NA,NA,NA,0,#741CD8,#D8271C,10,0,1,38,1,1018.4000000059605,37,1,384.7000000178814,10,1,experiment,NA,NA,2,0.5,0.5,4,5,260,6,NA
fcp-trial,296,1108788,0.0-271.0-0.0,voc_e2,12195,"[{""event"":""fullscreenenter"",""trial"":1,""time"":3714}]",NA,NA,NA,NA,NA,4,#1CD855,#FA92F8,0,10,0,40,0,1256.5999999940395,39,0,335.2000000178814,10,1,experiment,NA,NA,1,0.3,0.7,3,2,261,6,NA
fcp-trial,297,1111814,0.0-272.0-0.0,voc_e2,12195,"[{""event"":""fullscreenenter"",""trial"":1,""time"":3714}]",NA,NA,NA,NA,NA,5,#3386FF,#D89F1C,0,10,0,40,0,1138.199999988079,37,1,379.199999988079,0,0,experiment,NA,NA,0,0.1,0.9,1,0,262,6,NA
fcp-trial,298,1115104,0.0-273.0-0.0,voc_e2,12195,"[{""event"":""fullscreenenter"",""trial"":1,""time"":3714}]",NA,NA,NA,NA,NA,3,#1CD855,#FA92F8,0,10,0,40,0,1399.5999999940395,37,1,382.5,0,0,experiment,NA,NA,1,0.3,0.7,3,2,263,6,NA
fcp-trial,299,1118008,0.0-274.0-0.0,voc_e2,12195,"[{""event"":""fullscreenenter"",""trial"":1,""time"":3714}]",NA,NA,NA,NA,NA,0,#FA92F8,#1CD855,10,10,1,38,1,1003.8000000119209,37,1,392.5,10,1,experiment,NA,NA,1,0.7,0.3,2,3,264,6,NA
fcp-trial,300,1121019,0.0-275.0-0.0,voc_e2,12195,"[{""event"":""fullscreenenter"",""trial"":1,""time"":3714}]",NA,NA,NA,NA,NA,2,#D8271C,#741CD8,0,10,0,40,0,1138.9000000059605,37,1,365.5,0,0,experiment,NA,NA,2,0.5,0.5,5,4,265,6,NA
fcp-trial,301,1123826,0.0-276.0-0.0,voc_e2,12195,"[{""event"":""fullscreenenter"",""trial"":1,""time"":3714}]",NA,NA,NA,NA,NA,1,#D8271C,#741CD8,0,10,0,40,0,834.0999999940395,37,1,463.7999999821186,0,0,experiment,NA,NA,2,0.5,0.5,5,4,266,6,NA
fcp-trial,302,1126904,0.0-277.0-0.0,voc_e2,12195,"[{""event"":""fullscreenenter"",""trial"":1,""time"":3714}]",NA,NA,NA,NA,NA,0,#D89F1C,#3386FF,10,10,1,38,1,971.5,37,1,598,10,1,experiment,NA,NA,0,0.9,0.1,0,1,267,6,NA
fcp-trial,303,1129975,0.0-278.0-0.0,voc_e2,12195,"[{""event"":""fullscreenenter"",""trial"":1,""time"":3714}]",NA,NA,NA,NA,NA,2,#1CD855,#FA92F8,0,10,0,40,0,1162.5,39,0,400.5,10,1,experiment,NA,NA,1,0.3,0.7,3,2,268,6,NA
fcp-trial,304,1133254,0.0-279.0-0.0,voc_e2,12195,"[{""event"":""fullscreenenter"",""trial"":1,""time"":3714}]",NA,NA,NA,NA,NA,4,#D89F1C,#3386FF,10,10,1,38,1,1440,37,1,332.7999999821186,10,1,experiment,NA,NA,0,0.9,0.1,0,1,269,6,NA
fcp-trial,305,1135904,0.0-280.0-0.0,voc_e2,12195,"[{""event"":""fullscreenenter"",""trial"":1,""time"":3714}]",NA,NA,NA,NA,NA,4,#D8271C,#741CD8,10,0,0,40,0,776.3000000119209,37,1,367.59999999403954,10,0,experiment,NA,NA,2,0.5,0.5,5,4,270,6,NA
fcp-trial,306,1138619,0.0-281.0-0.0,voc_e2,12195,"[{""event"":""fullscreenenter"",""trial"":1,""time"":3714}]",NA,NA,NA,NA,NA,6,#1CD855,#FA92F8,10,0,0,40,0,862.5,39,0,345.69999998807907,0,1,experiment,NA,NA,1,0.3,0.7,3,2,271,7,NA
fcp-trial,307,1141319,0.0-282.0-0.0,voc_e2,12195,"[{""event"":""fullscreenenter"",""trial"":1,""time"":3714}]",NA,NA,NA,NA,NA,6,#D8271C,#741CD8,0,10,0,40,0,850.3000000119209,37,1,341.80000001192093,0,0,experiment,NA,NA,2,0.5,0.5,5,4,272,7,NA
fcp-trial,308,1144012,0.0-283.0-0.0,voc_e2,12195,"[{""event"":""fullscreenenter"",""trial"":1,""time"":3714}]",NA,NA,NA,NA,NA,1,#3386FF,#D89F1C,0,10,0,38,1,882.7000000178814,39,0,303.5,10,1,experiment,NA,NA,0,0.1,0.9,1,0,273,7,NA
fcp-trial,309,1146619,0.0-284.0-0.0,voc_e2,12195,"[{""event"":""fullscreenenter"",""trial"":1,""time"":3714}]",NA,NA,NA,NA,NA,6,#1CD855,#FA92F8,10,10,0,40,0,779.8000000119209,37,1,318.7000000178814,10,0,experiment,NA,NA,1,0.3,0.7,3,2,274,7,NA
fcp-trial,310,1149581,0.0-285.0-0.0,voc_e2,12195,"[{""event"":""fullscreenenter"",""trial"":1,""time"":3714}]",NA,NA,NA,NA,NA,4,#D89F1C,#3386FF,10,0,1,38,1,1114.4000000059605,37,1,340.40000000596046,10,1,experiment,NA,NA,0,0.9,0.1,0,1,275,7,NA
fcp-trial,311,1152124,0.0-286.0-0.0,voc_e2,12195,"[{""event"":""fullscreenenter"",""trial"":1,""time"":3714}]",NA,NA,NA,NA,NA,3,#D8271C,#741CD8,10,10,0,40,0,722.5,39,0,309,10,1,experiment,NA,NA,2,0.5,0.5,5,4,276,7,NA
fcp-trial,312,1155071,0.0-287.0-0.0,voc_e2,12195,"[{""event"":""fullscreenenter"",""trial"":1,""time"":3714}]",NA,NA,NA,NA,NA,6,#D89F1C,#3386FF,10,0,1,40,0,988.6999999880791,39,0,450,0,0,experiment,NA,NA,0,0.9,0.1,0,1,277,7,NA
fcp-trial,313,1157769,0.0-288.0-0.0,voc_e2,12195,"[{""event"":""fullscreenenter"",""trial"":1,""time"":3714}]",NA,NA,NA,NA,NA,5,#FA92F8,#1CD855,10,0,1,40,0,799.5999999940395,39,0,392.2000000178814,0,0,experiment,NA,NA,1,0.7,0.3,2,3,278,7,NA
fcp-trial,314,1160454,0.0-289.0-0.0,voc_e2,12195,"[{""event"":""fullscreenenter"",""trial"":1,""time"":3714}]",NA,NA,NA,NA,NA,3,#3386FF,#D89F1C,10,10,0,38,1,889.3999999761581,39,0,291.09999999403954,10,1,experiment,NA,NA,0,0.1,0.9,1,0,279,7,NA
fcp-trial,315,1163186,0.0-290.0-0.0,voc_e2,12195,"[{""event"":""fullscreenenter"",""trial"":1,""time"":3714}]",NA,NA,NA,NA,NA,0,#1CD855,#FA92F8,0,0,0,40,0,793,39,0,432.800000011921,0,1,experiment,NA,NA,1,0.3,0.7,3,2,280,7,NA
fcp-trial,316,1165897,0.0-291.0-0.0,voc_e2,12195,"[{""event"":""fullscreenenter"",""trial"":1,""time"":3714}]",NA,NA,NA,NA,NA,5,#D8271C,#741CD8,0,0,0,40,0,879.0999999940395,39,0,323.5,0,1,experiment,NA,NA,2,0.5,0.5,5,4,281,7,NA
fcp-trial,317,1168536,0.0-292.0-0.0,voc_e2,12195,"[{""event"":""fullscreenenter"",""trial"":1,""time"":3714}]",NA,NA,NA,NA,NA,4,#FA92F8,#1CD855,10,10,1,40,0,772,39,0,359.40000000596046,10,0,experiment,NA,NA,1,0.7,0.3,2,3,282,7,NA
fcp-trial,318,1171148,0.0-293.0-0.0,voc_e2,12195,"[{""event"":""fullscreenenter"",""trial"":1,""time"":3714}]",NA,NA,NA,NA,NA,4,#D8271C,#741CD8,0,0,0,40,0,764,37,1,343.40000000596046,0,0,experiment,NA,NA,2,0.5,0.5,5,4,283,7,NA
fcp-trial,319,1174298,0.0-294.0-0.0,voc_e2,12195,"[{""event"":""fullscreenenter"",""trial"":1,""time"":3714}]",NA,NA,NA,NA,NA,5,#D89F1C,#3386FF,10,0,1,38,1,1272,37,1,368.7000000178814,10,1,experiment,NA,NA,0,0.9,0.1,0,1,284,7,NA
fcp-trial,320,1176858,0.0-295.0-0.0,voc_e2,12195,"[{""event"":""fullscreenenter"",""trial"":1,""time"":3714}]",NA,NA,NA,NA,NA,6,#D8271C,#741CD8,0,10,0,40,0,731.3000000119209,39,0,319.90000000596046,10,1,experiment,NA,NA,2,0.5,0.5,5,4,285,7,NA
fcp-trial,321,1179932,0.0-296.0-0.0,voc_e2,12195,"[{""event"":""fullscreenenter"",""trial"":1,""time"":3714}]",NA,NA,NA,NA,NA,1,#D89F1C,#3386FF,10,0,1,38,1,1257.5999999940395,37,1,308.5,10,1,experiment,NA,NA,0,0.9,0.1,0,1,286,7,NA
fcp-trial,322,1182956,0.0-297.0-0.0,voc_e2,12195,"[{""event"":""fullscreenenter"",""trial"":1,""time"":3714}]",NA,NA,NA,NA,NA,3,#1CD855,#FA92F8,0,10,0,40,0,1065.5999999940395,37,1,449.699999988079,0,0,experiment,NA,NA,1,0.3,0.7,3,2,287,7,NA
fcp-trial,323,1185455,0.0-298.0-0.0,voc_e2,12195,"[{""event"":""fullscreenenter"",""trial"":1,""time"":3714}]",NA,NA,NA,NA,NA,2,#1CD855,#FA92F8,0,10,0,40,0,658.5999999940395,39,0,332.5,10,1,experiment,NA,NA,1,0.3,0.7,3,2,288,7,NA
fcp-trial,324,1188288,0.0-299.0-0.0,voc_e2,12195,"[{""event"":""fullscreenenter"",""trial"":1,""time"":3714}]",NA,NA,NA,NA,NA,2,#D89F1C,#3386FF,0,0,1,38,1,1022.0999999940395,37,1,305.7000000178814,0,1,experiment,NA,NA,0,0.9,0.1,0,1,289,7,NA
fcp-trial,325,1190806,0.0-300.0-0.0,voc_e2,12195,"[{""event"":""fullscreenenter"",""trial"":1,""time"":3714}]",NA,NA,NA,NA,NA,2,#D8271C,#741CD8,0,10,0,40,0,686.4000000059605,39,0,323.30000001192093,10,1,experiment,NA,NA,2,0.5,0.5,5,4,290,7,NA
fcp-trial,326,1193969,0.0-301.0-0.0,voc_e2,12195,"[{""event"":""fullscreenenter"",""trial"":1,""time"":3714}]",NA,NA,NA,NA,NA,1,#1CD855,#FA92F8,0,10,0,38,1,991.5999999940395,39,0,666.1999999880791,10,1,experiment,NA,NA,1,0.3,0.7,3,2,291,7,NA
fcp-trial,327,1196932,0.0-302.0-0.0,voc_e2,12195,"[{""event"":""fullscreenenter"",""trial"":1,""time"":3714}]",NA,NA,NA,NA,NA,0,#3386FF,#D89F1C,0,10,0,38,1,1164.7999999821186,39,0,292.30000001192093,10,1,experiment,NA,NA,0,0.1,0.9,1,0,292,7,NA
fcp-trial,328,1199998,0.0-303.0-0.0,voc_e2,12195,"[{""event"":""fullscreenenter"",""trial"":1,""time"":3714}]",NA,NA,NA,NA,NA,0,#741CD8,#D8271C,0,0,1,38,1,1280.4000000059605,37,1,275.59999999403954,0,1,experiment,NA,NA,2,0.5,0.5,4,5,293,7,NA
fcp-trial,329,1203516,0.0-304.0-0.0,voc_e2,12195,"[{""event"":""fullscreenenter"",""trial"":1,""time"":3714}]",NA,NA,NA,NA,NA,1,#741CD8,#D8271C,0,0,1,40,0,1300,39,0,709.5,0,0,experiment,NA,NA,2,0.5,0.5,4,5,294,7,NA
fcp-trial,330,1206288,0.0-305.0-0.0,voc_e2,12195,"[{""event"":""fullscreenenter"",""trial"":1,""time"":3714}]",NA,NA,NA,NA,NA,1,#FA92F8,#1CD855,0,10,1,38,1,970.3999999761581,37,1,295,0,1,experiment,NA,NA,1,0.7,0.3,2,3,295,7,NA
fcp-trial,331,1208988,0.0-306.0-0.0,voc_e2,12195,"[{""event"":""fullscreenenter"",""trial"":1,""time"":3714}]",NA,NA,NA,NA,NA,3,#D8271C,#741CD8,10,10,0,40,0,847.5999999940395,39,0,344.80000001192093,10,1,experiment,NA,NA,2,0.5,0.5,5,4,296,7,NA
fcp-trial,332,1211897,0.0-307.0-0.0,voc_e2,12195,"[{""event"":""fullscreenenter"",""trial"":1,""time"":3714}]",NA,NA,NA,NA,NA,0,#1CD855,#FA92F8,0,10,0,38,1,1076.2999999821186,39,0,324.09999999403954,10,1,experiment,NA,NA,1,0.3,0.7,3,2,297,7,NA
fcp-trial,333,1214815,0.0-308.0-0.0,voc_e2,12195,"[{""event"":""fullscreenenter"",""trial"":1,""time"":3714}]",NA,NA,NA,NA,NA,4,#D8271C,#741CD8,0,10,0,40,0,1054.2999999821186,37,1,353.69999998807907,0,0,experiment,NA,NA,2,0.5,0.5,5,4,298,7,NA
fcp-trial,334,1217454,0.0-309.0-0.0,voc_e2,12195,"[{""event"":""fullscreenenter"",""trial"":1,""time"":3714}]",NA,NA,NA,NA,NA,6,#3386FF,#D89F1C,0,10,0,38,1,747.5,39,0,383.699999988079,10,1,experiment,NA,NA,0,0.1,0.9,1,0,299,7,NA
fcp-trial,335,1220249,0.0-310.0-0.0,voc_e2,12195,"[{""event"":""fullscreenenter"",""trial"":1,""time"":3714}]",NA,NA,NA,NA,NA,2,#D89F1C,#3386FF,10,0,1,38,1,906.2000000178814,37,1,382.90000000596046,10,1,experiment,NA,NA,0,0.9,0.1,0,1,300,7,NA
fcp-trial,336,1222799,0.0-311.0-0.0,voc_e2,12195,"[{""event"":""fullscreenenter"",""trial"":1,""time"":3714}]",NA,NA,NA,NA,NA,0,#3386FF,#D89F1C,10,10,0,38,1,741.3000000119209,39,0,298.7999999821186,10,1,experiment,NA,NA,0,0.1,0.9,1,0,301,7,NA
fcp-trial,337,1225655,0.0-312.0-0.0,voc_e2,12195,"[{""event"":""fullscreenenter"",""trial"":1,""time"":3714}]",NA,NA,NA,NA,NA,6,#1CD855,#FA92F8,10,10,0,40,0,982.8000000119209,39,0,365.7999999821186,10,1,experiment,NA,NA,1,0.3,0.7,3,2,302,7,NA
fcp-trial,338,1228469,0.0-313.0-0.0,voc_e2,12195,"[{""event"":""fullscreenenter"",""trial"":1,""time"":3714}]",NA,NA,NA,NA,NA,5,#D8271C,#741CD8,0,0,0,40,0,811.6999999880791,37,1,495.5,0,0,experiment,NA,NA,2,0.5,0.5,5,4,303,7,NA
fcp-trial,339,1231604,0.0-314.0-0.0,voc_e2,12195,"[{""event"":""fullscreenenter"",""trial"":1,""time"":3714}]",NA,NA,NA,NA,NA,4,#1CD855,#FA92F8,0,0,0,40,0,1257.5,39,0,371.699999988079,0,1,experiment,NA,NA,1,0.3,0.7,3,2,304,7,NA
fcp-trial,340,1234187,0.0-315.0-0.0,voc_e2,12195,"[{""event"":""fullscreenenter"",""trial"":1,""time"":3714}]",NA,NA,NA,NA,NA,4,#D89F1C,#3386FF,10,0,1,38,1,779.1999999880791,37,1,297.10000002384186,10,1,experiment,NA,NA,0,0.9,0.1,0,1,305,7,NA
fcp-trial,341,1236910,0.0-316.0-0.0,voc_e2,12195,"[{""event"":""fullscreenenter"",""trial"":1,""time"":3714}]",NA,NA,NA,NA,NA,0,#741CD8,#D8271C,0,0,1,38,1,914.5,37,1,300.39999997615814,0,1,experiment,NA,NA,2,0.5,0.5,4,5,306,7,NA
fcp-trial,342,1239822,0.0-317.0-0.0,voc_e2,12195,"[{""event"":""fullscreenenter"",""trial"":1,""time"":3714}]",NA,NA,NA,NA,NA,2,#FA92F8,#1CD855,10,0,1,38,1,991.7999999821186,37,1,412.10000002384186,10,1,experiment,NA,NA,1,0.7,0.3,2,3,307,7,NA
fcp-trial,343,1242388,0.0-318.0-0.0,voc_e2,12195,"[{""event"":""fullscreenenter"",""trial"":1,""time"":3714}]",NA,NA,NA,NA,NA,1,#3386FF,#D89F1C,0,10,0,38,1,760.2000000178814,39,0,299.60000002384186,10,1,experiment,NA,NA,0,0.1,0.9,1,0,308,7,NA
fcp-trial,344,1245488,0.0-319.0-0.0,voc_e2,12195,"[{""event"":""fullscreenenter"",""trial"":1,""time"":3714}]",NA,NA,NA,NA,NA,3,#3386FF,#D89F1C,0,10,0,38,1,1339.5999999940395,39,0,254.30000001192093,10,1,experiment,NA,NA,0,0.1,0.9,1,0,309,7,NA
fcp-trial,345,1248465,0.0-320.0-0.0,voc_e2,12195,"[{""event"":""fullscreenenter"",""trial"":1,""time"":3714}]",NA,NA,NA,NA,NA,2,#741CD8,#D8271C,0,0,1,40,0,1133.699999988079,37,1,333.09999999403954,0,1,experiment,NA,NA,2,0.5,0.5,4,5,310,7,NA
fcp-trial,346,1251123,0.0-321.0-0.0,voc_e2,12195,"[{""event"":""fullscreenenter"",""trial"":1,""time"":3714}]",NA,NA,NA,NA,NA,6,#741CD8,#D8271C,0,0,1,40,0,808.1999999880791,37,1,339.19999998807907,0,1,experiment,NA,NA,2,0.5,0.5,4,5,311,7,NA
fcp-trial,347,1253748,0.0-322.0-0.0,voc_e2,12195,"[{""event"":""fullscreenenter"",""trial"":1,""time"":3714}]",NA,NA,NA,NA,NA,3,#FA92F8,#1CD855,10,0,1,38,1,861.9000000059605,37,1,254.0999999940395,10,1,experiment,NA,NA,1,0.7,0.3,2,3,312,7,NA
fcp-trial,348,1256803,0.0-323.0-0.0,voc_e2,12195,"[{""event"":""fullscreenenter"",""trial"":1,""time"":3714}]",NA,NA,NA,NA,NA,5,#3386FF,#D89F1C,0,10,0,38,1,934.2999999821186,39,0,612.8000000119209,10,1,experiment,NA,NA,0,0.1,0.9,1,0,313,7,NA
fcp-trial,349,1259308,0.0-324.0-0.0,voc_e2,12195,"[{""event"":""fullscreenenter"",""trial"":1,""time"":3714}]",NA,NA,NA,NA,NA,1,#741CD8,#D8271C,10,10,1,38,1,729.8999999761581,37,1,267.40000000596046,10,1,experiment,NA,NA,2,0.5,0.5,4,5,314,7,NA
fcp-trial,350,1262425,0.0-325.0-0.0,voc_e2,12195,"[{""event"":""fullscreenenter"",""trial"":1,""time"":3714}]",NA,NA,NA,NA,NA,5,#FA92F8,#1CD855,0,10,1,40,0,1174.0999999940395,39,0,435.39999997615814,10,0,experiment,NA,NA,1,0.7,0.3,2,3,315,7,NA
audio-instructions,351,1269712,0.0-326.0,voc_e2,12195,"[{""event"":""fullscreenenter"",""trial"":1,""time"":3714}]",NA,1618.5999999940395,static/audio/finished.wav,NA,0,NA,NA,NA,NA,NA,NA,NA,NA,NA,NA,NA,NA,NA,NA,NA,NA,NA,NA,NA,NA,NA,NA,NA,NA,NA
audio-instructions,352,1282087,0.0-327.0-0.0,voc_e2,12195,"[{""event"":""fullscreenenter"",""trial"":1,""time"":3714}]",NA,1535.300000011921,static/audio/explicit1.wav,NA,0,NA,NA,NA,NA,NA,NA,NA,NA,NA,NA,NA,NA,NA,NA,NA,NA,NA,NA,NA,NA,NA,NA,NA,NA,NA
audio-instructions,353,1290233,0.0-327.0-1.0,voc_e2,12195,"[{""event"":""fullscreenenter"",""trial"":1,""time"":3714}]",NA,549.8999999761581,static/audio/explicit2.wav,NA,0,NA,NA,NA,NA,NA,NA,NA,NA,NA,NA,NA,NA,NA,NA,NA,NA,NA,NA,NA,NA,NA,NA,NA,NA,NA
image-slider-response,354,1297149,0.0-328.0,voc_e2,12195,"[{""event"":""fullscreenenter"",""trial"":1,""time"":3714}]",NA,6912.199999988079,static/img/machines/machine6.png,NA,NA,NA,NA,NA,NA,NA,NA,NA,NA,NA,NA,NA,NA,NA,NA,explicit,NA,NA,NA,NA,NA,NA,NA,NA,NA,2
image-slider-response,355,1299698,0.0-329.0,voc_e2,12195,"[{""event"":""fullscreenenter"",""trial"":1,""time"":3714}]",NA,2546.9000000059605,static/img/machines/machine2.png,NA,NA,NA,NA,NA,NA,NA,NA,NA,NA,NA,NA,NA,NA,NA,NA,explicit,NA,NA,NA,NA,NA,NA,NA,NA,NA,5
image-slider-response,356,1303703,0.0-330.0,voc_e2,12195,"[{""event"":""fullscreenenter"",""trial"":1,""time"":3714}]",NA,4001.600000023842,static/img/machines/machine1.png,NA,NA,NA,NA,NA,NA,NA,NA,NA,NA,NA,NA,NA,NA,NA,NA,explicit,NA,NA,NA,NA,NA,NA,NA,NA,NA,5
image-slider-response,357,1307199,0.0-331.0,voc_e2,12195,"[{""event"":""fullscreenenter"",""trial"":1,""time"":3714}]",NA,3492.800000011921,static/img/machines/machine3.png,NA,NA,NA,NA,NA,NA,NA,NA,NA,NA,NA,NA,NA,NA,NA,NA,explicit,NA,NA,NA,NA,NA,NA,NA,NA,NA,3
image-slider-response,358,1311638,0.0-332.0,voc_e2,12195,"[{""event"":""fullscreenenter"",""trial"":1,""time"":3714}]",NA,4436.799999982119,static/img/machines/machine4.png,NA,NA,NA,NA,NA,NA,NA,NA,NA,NA,NA,NA,NA,NA,NA,NA,explicit,NA,NA,NA,NA,NA,NA,NA,NA,NA,7
image-slider-response,359,1314685,0.0-333.0,voc_e2,12195,"[{""event"":""fullscreenenter"",""trial"":1,""time"":3714}]",NA,3043.0999999940395,static/img/machines/machine5.png,NA,NA,NA,NA,NA,NA,NA,NA,NA,NA,NA,NA,NA,NA,NA,NA,explicit,NA,NA,NA,NA,NA,NA,NA,NA,NA,6
