trial_type,trial_index,time_elapsed,internal_node_id,task_version,subject_id,interactions,success,rt,stimulus,key_press,button_pressed,offer,arcade_color_L,arcade_color_R,arcade_outcome_L,arcade_outcome_R,correct,stage_1_key,stage_1_choice,stage_1_rt,stage_2_key,stage_2_choice,stage_2_rt,stage_3_outcome,accuracy,phase,responses,num_errors,context,reward_prob_L,reward_prob_R,arcade_id_L,arcade_id_R,trial,block,response
pavlovia,0,10,0.0-0.0,voc_e2,11985,[],NA,NA,NA,NA,NA,NA,NA,NA,NA,NA,NA,NA,NA,NA,NA,NA,NA,NA,NA,NA,NA,NA,NA,NA,NA,NA,NA,NA,NA,NA
fullscreen,1,29043,0.0-1.0,voc_e2,11985,"[{""event"":""fullscreenenter"",""trial"":1,""time"":28051}]",TRUE,NA,NA,NA,NA,NA,NA,NA,NA,NA,NA,NA,NA,NA,NA,NA,NA,NA,NA,NA,NA,NA,NA,NA,NA,NA,NA,NA,NA,NA
audio-keyboard-response,2,30927,0.0-2.0,voc_e2,11985,"[{""event"":""fullscreenenter"",""trial"":1,""time"":28051}]",NA,1808,static/audio/beep_loop.wav,32,NA,NA,NA,NA,NA,NA,NA,NA,NA,NA,NA,NA,NA,NA,NA,NA,NA,NA,NA,NA,NA,NA,NA,NA,NA,NA
audio-test,3,32489,0.0-3.0,voc_e2,11985,"[{""event"":""fullscreenenter"",""trial"":1,""time"":28051}]",NA,NA,static/audio/turtle.wav,NA,3,NA,NA,NA,NA,NA,NA,NA,NA,NA,NA,NA,NA,NA,NA,NA,NA,NA,NA,NA,NA,NA,NA,NA,NA,NA
audio-test,4,36656,0.0-4.0,voc_e2,11985,"[{""event"":""fullscreenenter"",""trial"":1,""time"":28051}]",NA,NA,static/audio/shark.wav,NA,2,NA,NA,NA,NA,NA,NA,NA,NA,NA,NA,NA,NA,NA,NA,NA,NA,NA,NA,NA,NA,NA,NA,NA,NA,NA
audio-instructions,5,44206,0.0-5.0-0.0,voc_e2,11985,"[{""event"":""fullscreenenter"",""trial"":1,""time"":28051}]",NA,1766.2000000476835,static/audio/instructions1.wav,NA,0,NA,NA,NA,NA,NA,NA,NA,NA,NA,NA,NA,NA,NA,NA,NA,NA,NA,NA,NA,NA,NA,NA,NA,NA,NA
audio-instructions,6,53908,0.0-5.0-1.0,voc_e2,11985,"[{""event"":""fullscreenenter"",""trial"":1,""time"":28051}]",NA,2962,static/audio/instructions2.wav,NA,0,NA,NA,NA,NA,NA,NA,NA,NA,NA,NA,NA,NA,NA,NA,NA,NA,NA,NA,NA,NA,NA,NA,NA,NA,NA
audio-instructions,7,64239,0.0-5.0-2.0,voc_e2,11985,"[{""event"":""fullscreenenter"",""trial"":1,""time"":28051}]",NA,4530.899999856949,static/audio/instructions3.wav,NA,0,NA,NA,NA,NA,NA,NA,NA,NA,NA,NA,NA,NA,NA,NA,NA,NA,NA,NA,NA,NA,NA,NA,NA,NA,NA
audio-instructions,8,112406,0.0-5.0-3.0,voc_e2,11985,"[{""event"":""fullscreenenter"",""trial"":1,""time"":28051}]",NA,34944,static/audio/instructions4.wav,NA,0,NA,NA,NA,NA,NA,NA,NA,NA,NA,NA,NA,NA,NA,NA,NA,NA,NA,NA,NA,NA,NA,NA,NA,NA,NA
audio-instructions,9,138159,0.0-5.0-4.0,voc_e2,11985,"[{""event"":""fullscreenenter"",""trial"":1,""time"":28051}]",NA,16331.699999809263,static/audio/instructions5.wav,NA,0,NA,NA,NA,NA,NA,NA,NA,NA,NA,NA,NA,NA,NA,NA,NA,NA,NA,NA,NA,NA,NA,NA,NA,NA,NA
fcp-practice,10,140930,0.0-5.0-5.0-0.0,voc_e2,11985,"[{""event"":""fullscreenenter"",""trial"":1,""time"":28051}]",NA,NA,NA,NA,NA,NA,#EDC948,#46d3c8,10,0,1,null,null,null,37,1,1256.2000000476835,10,1,practice,NA,NA,NA,NA,NA,NA,NA,NA,NA,NA
fcp-practice,11,143093,0.0-5.0-5.0-1.0,voc_e2,11985,"[{""event"":""fullscreenenter"",""trial"":1,""time"":28051}]",NA,NA,NA,NA,NA,NA,#EDC948,#46d3c8,10,0,1,null,null,null,37,1,658,10,1,practice,NA,NA,NA,NA,NA,NA,NA,NA,NA,NA
fcp-practice,12,145354,0.0-5.0-5.0-2.0,voc_e2,11985,"[{""event"":""fullscreenenter"",""trial"":1,""time"":28051}]",NA,NA,NA,NA,NA,NA,#EDC948,#46d3c8,0,10,1,null,null,null,37,1,753.9000000953674,0,1,practice,NA,NA,NA,NA,NA,NA,NA,NA,NA,NA
fcp-practice,13,147307,0.0-5.0-5.0-3.0,voc_e2,11985,"[{""event"":""fullscreenenter"",""trial"":1,""time"":28051}]",NA,NA,NA,NA,NA,NA,#EDC948,#46d3c8,10,0,1,null,null,null,37,1,448,10,1,practice,NA,NA,NA,NA,NA,NA,NA,NA,NA,NA
fcp-practice,14,149409,0.0-5.0-5.0-4.0,voc_e2,11985,"[{""event"":""fullscreenenter"",""trial"":1,""time"":28051}]",NA,NA,NA,NA,NA,NA,#EDC948,#46d3c8,10,0,1,null,null,null,37,1,597.7999999523163,10,1,practice,NA,NA,NA,NA,NA,NA,NA,NA,NA,NA
audio-instructions,15,168641,0.0-5.0-6.0,voc_e2,11985,"[{""event"":""fullscreenenter"",""trial"":1,""time"":28051}]",NA,1229.5999999046326,static/audio/instructions6.wav,NA,0,NA,NA,NA,NA,NA,NA,NA,NA,NA,NA,NA,NA,NA,NA,NA,NA,NA,NA,NA,NA,NA,NA,NA,NA,NA
audio-instructions,16,188574,0.0-5.0-7.0,voc_e2,11985,"[{""event"":""fullscreenenter"",""trial"":1,""time"":28051}]",NA,735.8999998569489,static/audio/instructions7.wav,NA,0,NA,NA,NA,NA,NA,NA,NA,NA,NA,NA,NA,NA,NA,NA,NA,NA,NA,NA,NA,NA,NA,NA,NA,NA,NA
audio-instructions,17,198624,0.0-5.0-8.0,voc_e2,11985,"[{""event"":""fullscreenenter"",""trial"":1,""time"":28051}]",NA,579.2000000476837,static/audio/instructions8.wav,NA,0,NA,NA,NA,NA,NA,NA,NA,NA,NA,NA,NA,NA,NA,NA,NA,NA,NA,NA,NA,NA,NA,NA,NA,NA,NA
fcp-comprehension,18,207457,0.0-5.0-9.0,voc_e2,11985,"[{""event"":""fullscreenenter"",""trial"":1,""time"":28051}]",NA,8831.5,NA,NA,NA,NA,NA,NA,NA,NA,NA,NA,NA,NA,NA,NA,NA,NA,NA,NA,"false,true",1,NA,NA,NA,NA,NA,NA,NA,NA
audio-instructions,19,212706,0.0-5.1-0.1,voc_e2,11985,"[{""event"":""fullscreenenter"",""trial"":1,""time"":28051}]",NA,468.30000019073486,static/audio/instructions1.wav,NA,0,NA,NA,NA,NA,NA,NA,NA,NA,NA,NA,NA,NA,NA,NA,NA,NA,NA,NA,NA,NA,NA,NA,NA,NA,NA
audio-instructions,20,219925,0.0-5.1-1.1,voc_e2,11985,"[{""event"":""fullscreenenter"",""trial"":1,""time"":28051}]",NA,476.7999999523163,static/audio/instructions2.wav,NA,0,NA,NA,NA,NA,NA,NA,NA,NA,NA,NA,NA,NA,NA,NA,NA,NA,NA,NA,NA,NA,NA,NA,NA,NA,NA
audio-instructions,21,225975,0.0-5.1-2.1,voc_e2,11985,"[{""event"":""fullscreenenter"",""trial"":1,""time"":28051}]",NA,249.59999990463257,static/audio/instructions3.wav,NA,0,NA,NA,NA,NA,NA,NA,NA,NA,NA,NA,NA,NA,NA,NA,NA,NA,NA,NA,NA,NA,NA,NA,NA,NA,NA
audio-instructions,22,239774,0.0-5.1-3.1,voc_e2,11985,"[{""event"":""fullscreenenter"",""trial"":1,""time"":28051}]",NA,571.2999999523163,static/audio/instructions4.wav,NA,0,NA,NA,NA,NA,NA,NA,NA,NA,NA,NA,NA,NA,NA,NA,NA,NA,NA,NA,NA,NA,NA,NA,NA,NA,NA
audio-instructions,23,249524,0.0-5.1-4.1,voc_e2,11985,"[{""event"":""fullscreenenter"",""trial"":1,""time"":28051}]",NA,363.2999999523163,static/audio/instructions5.wav,NA,0,NA,NA,NA,NA,NA,NA,NA,NA,NA,NA,NA,NA,NA,NA,NA,NA,NA,NA,NA,NA,NA,NA,NA,NA,NA
fcp-practice,24,251526,0.0-5.1-5.1-0.1,voc_e2,11985,"[{""event"":""fullscreenenter"",""trial"":1,""time"":28051}]",NA,NA,NA,NA,NA,NA,#EDC948,#46d3c8,10,0,1,null,null,null,37,1,497.2999999523163,10,1,practice,NA,NA,NA,NA,NA,NA,NA,NA,NA,NA
fcp-practice,25,253147,0.0-5.1-5.1-1.1,voc_e2,11985,"[{""event"":""fullscreenenter"",""trial"":1,""time"":28051}]",NA,NA,NA,NA,NA,NA,#EDC948,#46d3c8,10,0,1,null,null,null,37,1,115,10,1,practice,NA,NA,NA,NA,NA,NA,NA,NA,NA,NA
fcp-practice,26,254941,0.0-5.1-5.1-2.1,voc_e2,11985,"[{""event"":""fullscreenenter"",""trial"":1,""time"":28051}]",NA,NA,NA,NA,NA,NA,#EDC948,#46d3c8,0,10,1,null,null,null,37,1,289.40000009536743,0,1,practice,NA,NA,NA,NA,NA,NA,NA,NA,NA,NA
fcp-practice,27,256856,0.0-5.1-5.1-3.1,voc_e2,11985,"[{""event"":""fullscreenenter"",""trial"":1,""time"":28051}]",NA,NA,NA,NA,NA,NA,#EDC948,#46d3c8,10,0,1,null,null,null,37,1,412.7000000476837,10,1,practice,NA,NA,NA,NA,NA,NA,NA,NA,NA,NA
fcp-practice,28,258707,0.0-5.1-5.1-4.1,voc_e2,11985,"[{""event"":""fullscreenenter"",""trial"":1,""time"":28051}]",NA,NA,NA,NA,NA,NA,#EDC948,#46d3c8,10,0,1,null,null,null,37,1,347.5,10,1,practice,NA,NA,NA,NA,NA,NA,NA,NA,NA,NA
audio-instructions,29,277558,0.0-5.1-6.1,voc_e2,11985,"[{""event"":""fullscreenenter"",""trial"":1,""time"":28051}]",NA,845.5,static/audio/instructions6.wav,NA,0,NA,NA,NA,NA,NA,NA,NA,NA,NA,NA,NA,NA,NA,NA,NA,NA,NA,NA,NA,NA,NA,NA,NA,NA,NA
audio-instructions,30,297606,0.0-5.1-7.1,voc_e2,11985,"[{""event"":""fullscreenenter"",""trial"":1,""time"":28051}]",NA,850.8000001907349,static/audio/instructions7.wav,NA,0,NA,NA,NA,NA,NA,NA,NA,NA,NA,NA,NA,NA,NA,NA,NA,NA,NA,NA,NA,NA,NA,NA,NA,NA,NA
audio-instructions,31,307573,0.0-5.1-8.1,voc_e2,11985,"[{""event"":""fullscreenenter"",""trial"":1,""time"":28051}]",NA,497.7999999523163,static/audio/instructions8.wav,NA,0,NA,NA,NA,NA,NA,NA,NA,NA,NA,NA,NA,NA,NA,NA,NA,NA,NA,NA,NA,NA,NA,NA,NA,NA,NA
fcp-comprehension,32,312459,0.0-5.1-9.1,voc_e2,11985,"[{""event"":""fullscreenenter"",""trial"":1,""time"":28051}]",NA,4884.900000095367,NA,NA,NA,NA,NA,NA,NA,NA,NA,NA,NA,NA,NA,NA,NA,NA,NA,NA,"true,true",0,NA,NA,NA,NA,NA,NA,NA,NA
audio-instructions,33,319175,0.0-6.0-0.0,voc_e2,11985,"[{""event"":""fullscreenenter"",""trial"":1,""time"":28051}]",NA,1172,static/audio/instructions9.wav,NA,0,NA,NA,NA,NA,NA,NA,NA,NA,NA,NA,NA,NA,NA,NA,NA,NA,NA,NA,NA,NA,NA,NA,NA,NA,NA
audio-instructions,34,331758,0.0-6.0-1.0,voc_e2,11985,"[{""event"":""fullscreenenter"",""trial"":1,""time"":28051}]",NA,464.5,static/audio/instructions10.wav,NA,0,NA,NA,NA,NA,NA,NA,NA,NA,NA,NA,NA,NA,NA,NA,NA,NA,NA,NA,NA,NA,NA,NA,NA,NA,NA
fcp-trial,35,342344,0.0-6.0-2.0,voc_e2,11985,"[{""event"":""fullscreenenter"",""trial"":1,""time"":28051}]",NA,NA,NA,NA,NA,0,#EDC948,#46d3c8,10,10,1,38,1,5899.799999952316,37,1,3172.5,10,1,practice,NA,NA,NA,NA,NA,NA,NA,NA,NA,NA
audio-instructions,36,354474,0.0-6.0-3.0,voc_e2,11985,"[{""event"":""fullscreenenter"",""trial"":1,""time"":28051}]",NA,1121.7000000476835,static/audio/instructions11.wav,NA,0,NA,NA,NA,NA,NA,NA,NA,NA,NA,NA,NA,NA,NA,NA,NA,NA,NA,NA,NA,NA,NA,NA,NA,NA,NA
fcp-trial,37,358226,0.0-6.0-4.0,voc_e2,11985,"[{""event"":""fullscreenenter"",""trial"":1,""time"":28051}]",NA,NA,NA,NA,NA,6,#EDC948,#46d3c8,10,10,1,40,0,1269.5,39,0,974.1999998092653,10,0,practice,NA,NA,NA,NA,NA,NA,NA,NA,NA,NA
audio-instructions,38,377756,0.0-6.0-5.0,voc_e2,11985,"[{""event"":""fullscreenenter"",""trial"":1,""time"":28051}]",NA,841.0999999046326,static/audio/instructions12.wav,NA,0,NA,NA,NA,NA,NA,NA,NA,NA,NA,NA,NA,NA,NA,NA,NA,NA,NA,NA,NA,NA,NA,NA,NA,NA,NA
audio-instructions,39,385990,0.0-6.0-6.0,voc_e2,11985,"[{""event"":""fullscreenenter"",""trial"":1,""time"":28051}]",NA,637.2999999523163,static/audio/instructions13.wav,NA,0,NA,NA,NA,NA,NA,NA,NA,NA,NA,NA,NA,NA,NA,NA,NA,NA,NA,NA,NA,NA,NA,NA,NA,NA,NA
audio-instructions,40,394791,0.0-6.0-7.0,voc_e2,11985,"[{""event"":""fullscreenenter"",""trial"":1,""time"":28051}]",NA,357.19999980926514,static/audio/instructions14.wav,NA,0,NA,NA,NA,NA,NA,NA,NA,NA,NA,NA,NA,NA,NA,NA,NA,NA,NA,NA,NA,NA,NA,NA,NA,NA,NA
audio-instructions,41,402006,0.0-7.0-0.0,voc_e2,11985,"[{""event"":""fullscreenenter"",""trial"":1,""time"":28051}]",NA,302.2000000476837,static/audio/instructions15.wav,NA,0,NA,NA,NA,NA,NA,NA,NA,NA,NA,NA,NA,NA,NA,NA,NA,NA,NA,NA,NA,NA,NA,NA,NA,NA,NA
audio-instructions,42,409223,0.0-7.0-1.0,voc_e2,11985,"[{""event"":""fullscreenenter"",""trial"":1,""time"":28051}]",NA,387.90000009536743,static/audio/instructions16.wav,NA,0,NA,NA,NA,NA,NA,NA,NA,NA,NA,NA,NA,NA,NA,NA,NA,NA,NA,NA,NA,NA,NA,NA,NA,NA,NA
audio-instructions,43,417292,0.0-7.0-2.0,voc_e2,11985,"[{""event"":""fullscreenenter"",""trial"":1,""time"":28051}]",NA,387.59999990463257,static/audio/instructions17.wav,NA,0,NA,NA,NA,NA,NA,NA,NA,NA,NA,NA,NA,NA,NA,NA,NA,NA,NA,NA,NA,NA,NA,NA,NA,NA,NA
audio-instructions,44,425940,0.0-7.0-3.0,voc_e2,11985,"[{""event"":""fullscreenenter"",""trial"":1,""time"":28051}]",NA,880.8999998569489,static/audio/instructions18.wav,NA,0,NA,NA,NA,NA,NA,NA,NA,NA,NA,NA,NA,NA,NA,NA,NA,NA,NA,NA,NA,NA,NA,NA,NA,NA,NA
audio-instructions,45,433373,0.0-7.0-4.0,voc_e2,11985,"[{""event"":""fullscreenenter"",""trial"":1,""time"":28051}]",NA,692.7000000476837,static/audio/instructions19.wav,NA,0,NA,NA,NA,NA,NA,NA,NA,NA,NA,NA,NA,NA,NA,NA,NA,NA,NA,NA,NA,NA,NA,NA,NA,NA,NA
fcp-comprehension,46,448324,0.0-7.0-5.0,voc_e2,11985,"[{""event"":""fullscreenenter"",""trial"":1,""time"":28051}]",NA,14949.599999904633,NA,NA,NA,NA,NA,NA,NA,NA,NA,NA,NA,NA,NA,NA,NA,NA,NA,NA,"false,false,false,true",0,NA,NA,NA,NA,NA,NA,NA,NA
audio-instructions,47,459407,0.0-8.0,voc_e2,11985,"[{""event"":""fullscreenenter"",""trial"":1,""time"":28051}]",NA,1868.1000001430511,static/audio/ready.wav,NA,0,NA,NA,NA,NA,NA,NA,NA,NA,NA,NA,NA,NA,NA,NA,NA,NA,NA,NA,NA,NA,NA,NA,NA,NA,NA
fcp-trial,48,466393,0.0-9.0-0.0,voc_e2,11985,"[{""event"":""fullscreenenter"",""trial"":1,""time"":28051}]",NA,NA,NA,NA,NA,2,#1CD855,#FA92F8,10,10,0,38,1,3932.0999999046326,37,1,1546,10,0,experiment,NA,NA,1,0.3,0.7,3,2,1,1,NA
fcp-trial,49,472327,0.0-10.0-0.0,voc_e2,11985,"[{""event"":""fullscreenenter"",""trial"":1,""time"":28051}]",NA,NA,NA,NA,NA,4,#D89F1C,#3386FF,0,0,1,38,1,3322.2999999523163,39,0,1105,0,0,experiment,NA,NA,2,0.5,0.5,4,5,2,1,NA
fcp-trial,50,477789,0.0-11.0-0.0,voc_e2,11985,"[{""event"":""fullscreenenter"",""trial"":1,""time"":28051}]",NA,NA,NA,NA,NA,2,#741CD8,#D8271C,0,10,0,38,1,3436.7000000476837,37,1,519.6999998092651,0,0,experiment,NA,NA,0,0.1,0.9,1,0,3,1,NA
fcp-trial,51,481213,0.0-12.0-0.0,voc_e2,11985,"[{""event"":""fullscreenenter"",""trial"":1,""time"":28051}]",NA,NA,NA,NA,NA,0,#1CD855,#FA92F8,0,10,0,38,1,1437.5999999046326,37,1,479.2000000476837,0,0,experiment,NA,NA,1,0.3,0.7,3,2,4,1,NA
fcp-trial,52,484838,0.0-13.0-0.0,voc_e2,11985,"[{""event"":""fullscreenenter"",""trial"":1,""time"":28051}]",NA,NA,NA,NA,NA,1,#1CD855,#FA92F8,0,10,0,38,1,1448.3999998569489,37,1,668.3000001907349,0,0,experiment,NA,NA,1,0.3,0.7,3,2,5,1,NA
fcp-trial,53,487820,0.0-14.0-0.0,voc_e2,11985,"[{""event"":""fullscreenenter"",""trial"":1,""time"":28051}]",NA,NA,NA,NA,NA,0,#D8271C,#741CD8,10,0,1,38,1,798.2999999523163,39,0,675.8999998569489,0,0,experiment,NA,NA,0,0.9,0.1,0,1,6,1,NA
fcp-trial,54,491070,0.0-15.0-0.0,voc_e2,11985,"[{""event"":""fullscreenenter"",""trial"":1,""time"":28051}]",NA,NA,NA,NA,NA,6,#D89F1C,#3386FF,10,0,1,38,1,773.8999998569489,39,0,964.7999999523164,0,0,experiment,NA,NA,2,0.5,0.5,4,5,7,1,NA
fcp-trial,55,494510,0.0-16.0-0.0,voc_e2,11985,"[{""event"":""fullscreenenter"",""trial"":1,""time"":28051}]",NA,NA,NA,NA,NA,1,#741CD8,#D8271C,0,10,0,38,1,906.2000000476837,39,0,1027.8999998569489,10,1,experiment,NA,NA,0,0.1,0.9,1,0,8,1,NA
fcp-trial,56,497219,0.0-17.0-0.0,voc_e2,11985,"[{""event"":""fullscreenenter"",""trial"":1,""time"":28051}]",NA,NA,NA,NA,NA,5,#FA92F8,#1CD855,0,0,1,38,1,526.9000000953674,37,1,672.7000000476837,0,1,experiment,NA,NA,1,0.7,0.3,2,3,9,1,NA
fcp-trial,57,501302,0.0-18.0-0.0,voc_e2,11985,"[{""event"":""fullscreenenter"",""trial"":1,""time"":28051}]",NA,NA,NA,NA,NA,3,#741CD8,#D8271C,0,0,0,38,1,1305.7999999523163,39,0,1267.2000000476835,0,1,experiment,NA,NA,0,0.1,0.9,1,0,10,1,NA
fcp-trial,58,507241,0.0-19.0-0.0,voc_e2,11985,"[{""event"":""fullscreenenter"",""trial"":1,""time"":28051}]",NA,NA,NA,NA,NA,4,#741CD8,#D8271C,0,10,0,40,0,3169.0999999046326,37,1,1260.8000001907349,0,0,experiment,NA,NA,0,0.1,0.9,1,0,11,1,NA
fcp-trial,59,513125,0.0-20.0-0.0,voc_e2,11985,"[{""event"":""fullscreenenter"",""trial"":1,""time"":28051}]",NA,NA,NA,NA,NA,1,#3386FF,#D89F1C,0,10,0,38,1,2314.2000000476837,37,1,2064.2999999523163,0,0,experiment,NA,NA,2,0.5,0.5,5,4,12,1,NA
fcp-trial,60,517671,0.0-21.0-0.0,voc_e2,11985,"[{""event"":""fullscreenenter"",""trial"":1,""time"":28051}]",NA,NA,NA,NA,NA,4,#1CD855,#FA92F8,0,10,0,38,1,2618,39,0,418.5,10,1,experiment,NA,NA,1,0.3,0.7,3,2,13,1,NA
fcp-trial,61,522511,0.0-22.0-0.0,voc_e2,11985,"[{""event"":""fullscreenenter"",""trial"":1,""time"":28051}]",NA,NA,NA,NA,NA,5,#741CD8,#D8271C,10,10,0,38,1,2880.9000000953674,39,0,451.2999999523163,10,1,experiment,NA,NA,0,0.1,0.9,1,0,14,1,NA
fcp-trial,62,526161,0.0-23.0-0.0,voc_e2,11985,"[{""event"":""fullscreenenter"",""trial"":1,""time"":28051}]",NA,NA,NA,NA,NA,2,#D89F1C,#3386FF,0,10,1,38,1,1748.6999998092651,37,1,394.5,0,1,experiment,NA,NA,2,0.5,0.5,4,5,15,1,NA
fcp-trial,63,528911,0.0-24.0-0.0,voc_e2,11985,"[{""event"":""fullscreenenter"",""trial"":1,""time"":28051}]",NA,NA,NA,NA,NA,6,#FA92F8,#1CD855,10,0,1,38,1,951,37,1,291.7000000476837,10,1,experiment,NA,NA,1,0.7,0.3,2,3,16,1,NA
fcp-trial,64,531954,0.0-25.0-0.0,voc_e2,11985,"[{""event"":""fullscreenenter"",""trial"":1,""time"":28051}]",NA,NA,NA,NA,NA,3,#3386FF,#D89F1C,0,0,0,38,1,559.5999999046326,39,0,976.0999999046326,0,1,experiment,NA,NA,2,0.5,0.5,5,4,17,1,NA
fcp-trial,65,534362,0.0-26.0-0.0,voc_e2,11985,"[{""event"":""fullscreenenter"",""trial"":1,""time"":28051}]",NA,NA,NA,NA,NA,6,#D8271C,#741CD8,10,0,1,38,1,486.59999990463257,37,1,413.19999980926514,10,1,experiment,NA,NA,0,0.9,0.1,0,1,18,1,NA
fcp-trial,66,536738,0.0-27.0-0.0,voc_e2,11985,"[{""event"":""fullscreenenter"",""trial"":1,""time"":28051}]",NA,NA,NA,NA,NA,5,#D89F1C,#3386FF,0,10,1,38,1,410.7999999523163,39,0,456.2000000476837,10,0,experiment,NA,NA,2,0.5,0.5,4,5,19,1,NA
fcp-trial,67,542804,0.0-28.0-0.0,voc_e2,11985,"[{""event"":""fullscreenenter"",""trial"":1,""time"":28051}]",NA,NA,NA,NA,NA,0,#3386FF,#D89F1C,0,0,0,38,1,4103.800000190735,37,1,451.90000009536743,0,0,experiment,NA,NA,2,0.5,0.5,5,4,20,1,NA
fcp-trial,68,545095,0.0-29.0-0.0,voc_e2,11985,"[{""event"":""fullscreenenter"",""trial"":1,""time"":28051}]",NA,NA,NA,NA,NA,3,#1CD855,#FA92F8,0,0,0,38,1,450,39,0,332.7000000476837,0,1,experiment,NA,NA,1,0.3,0.7,3,2,21,1,NA
fcp-trial,69,547778,0.0-30.0-0.0,voc_e2,11985,"[{""event"":""fullscreenenter"",""trial"":1,""time"":28051}]",NA,NA,NA,NA,NA,5,#D8271C,#741CD8,10,0,1,38,1,724.5999999046326,37,1,451.2000000476837,10,1,experiment,NA,NA,0,0.9,0.1,0,1,22,1,NA
fcp-trial,70,551637,0.0-31.0-0.0,voc_e2,11985,"[{""event"":""fullscreenenter"",""trial"":1,""time"":28051}]",NA,NA,NA,NA,NA,3,#FA92F8,#1CD855,10,0,1,40,0,1081.5,37,1,1271.2999999523165,10,1,experiment,NA,NA,1,0.7,0.3,2,3,23,1,NA
fcp-trial,71,555481,0.0-32.0-0.0,voc_e2,11985,"[{""event"":""fullscreenenter"",""trial"":1,""time"":28051}]",NA,NA,NA,NA,NA,1,#1CD855,#FA92F8,10,10,0,40,0,1302.0999999046326,37,1,1032.6000001430511,10,0,experiment,NA,NA,1,0.3,0.7,3,2,24,1,NA
fcp-trial,72,558611,0.0-33.0-0.0,voc_e2,11985,"[{""event"":""fullscreenenter"",""trial"":1,""time"":28051}]",NA,NA,NA,NA,NA,1,#D89F1C,#3386FF,0,10,1,38,1,736.4000000953674,39,0,889.1000001430511,10,0,experiment,NA,NA,2,0.5,0.5,4,5,25,1,NA
fcp-trial,73,562437,0.0-34.0-0.0,voc_e2,11985,"[{""event"":""fullscreenenter"",""trial"":1,""time"":28051}]",NA,NA,NA,NA,NA,0,#D8271C,#741CD8,10,0,1,38,1,1060.2999999523163,37,1,1256.0999999046326,10,1,experiment,NA,NA,0,0.9,0.1,0,1,26,1,NA
fcp-trial,74,565187,0.0-35.0-0.0,voc_e2,11985,"[{""event"":""fullscreenenter"",""trial"":1,""time"":28051}]",NA,NA,NA,NA,NA,3,#741CD8,#D8271C,0,10,0,38,1,660.9000000953674,39,0,579.9000000953674,10,1,experiment,NA,NA,0,0.1,0.9,1,0,27,1,NA
fcp-trial,75,568115,0.0-36.0-0.0,voc_e2,11985,"[{""event"":""fullscreenenter"",""trial"":1,""time"":28051}]",NA,NA,NA,NA,NA,0,#3386FF,#D89F1C,0,0,0,38,1,430.89999985694885,37,1,988.0999999046326,0,0,experiment,NA,NA,2,0.5,0.5,5,4,28,1,NA
fcp-trial,76,570393,0.0-37.0-0.0,voc_e2,11985,"[{""event"":""fullscreenenter"",""trial"":1,""time"":28051}]",NA,NA,NA,NA,NA,0,#1CD855,#FA92F8,0,10,0,38,1,458.2999999523163,39,0,313.7999999523163,10,1,experiment,NA,NA,1,0.3,0.7,3,2,29,1,NA
fcp-trial,77,572699,0.0-38.0-0.0,voc_e2,11985,"[{""event"":""fullscreenenter"",""trial"":1,""time"":28051}]",NA,NA,NA,NA,NA,4,#FA92F8,#1CD855,0,10,1,38,1,509.40000009536743,37,1,289.90000009536743,0,1,experiment,NA,NA,1,0.7,0.3,2,3,30,1,NA
fcp-trial,78,575657,0.0-39.0-0.0,voc_e2,11985,"[{""event"":""fullscreenenter"",""trial"":1,""time"":28051}]",NA,NA,NA,NA,NA,1,#741CD8,#D8271C,0,10,0,38,1,500.30000019073486,39,0,953.0999999046326,10,1,experiment,NA,NA,0,0.1,0.9,1,0,31,1,NA
fcp-trial,79,579032,0.0-40.0-0.0,voc_e2,11985,"[{""event"":""fullscreenenter"",""trial"":1,""time"":28051}]",NA,NA,NA,NA,NA,6,#D89F1C,#3386FF,0,10,1,40,0,1407.9000000953674,37,1,460.39999985694885,0,1,experiment,NA,NA,2,0.5,0.5,4,5,32,1,NA
fcp-trial,80,583075,0.0-41.0-0.0,voc_e2,11985,"[{""event"":""fullscreenenter"",""trial"":1,""time"":28051}]",NA,NA,NA,NA,NA,3,#D89F1C,#3386FF,10,10,1,40,0,971,37,1,1565.3999998569489,10,1,experiment,NA,NA,2,0.5,0.5,4,5,33,1,NA
fcp-trial,81,586753,0.0-42.0-0.0,voc_e2,11985,"[{""event"":""fullscreenenter"",""trial"":1,""time"":28051}]",NA,NA,NA,NA,NA,2,#1CD855,#FA92F8,0,10,0,40,0,1004.3999998569489,37,1,1165.7000000476835,0,0,experiment,NA,NA,1,0.3,0.7,3,2,34,1,NA
fcp-trial,82,590778,0.0-43.0-0.0,voc_e2,11985,"[{""event"":""fullscreenenter"",""trial"":1,""time"":28051}]",NA,NA,NA,NA,NA,2,#741CD8,#D8271C,0,10,0,38,1,1300.0999999046326,39,0,1215.6000001430511,10,1,experiment,NA,NA,0,0.1,0.9,1,0,35,1,NA
fcp-trial,83,594853,0.0-44.0-0.0,voc_e2,11985,"[{""event"":""fullscreenenter"",""trial"":1,""time"":28051}]",NA,NA,NA,NA,NA,4,#3386FF,#D89F1C,0,0,0,38,1,801.3000001907349,37,1,1763.6999998092651,0,0,experiment,NA,NA,2,0.5,0.5,5,4,36,1,NA
fcp-trial,84,598545,0.0-45.0-0.0,voc_e2,11985,"[{""event"":""fullscreenenter"",""trial"":1,""time"":28051}]",NA,NA,NA,NA,NA,4,#D8271C,#741CD8,10,0,1,40,0,1216.9000000953674,37,1,965,10,1,experiment,NA,NA,0,0.9,0.1,0,1,37,1,NA
fcp-trial,85,601709,0.0-46.0-0.0,voc_e2,11985,"[{""event"":""fullscreenenter"",""trial"":1,""time"":28051}]",NA,NA,NA,NA,NA,5,#3386FF,#D89F1C,0,0,0,38,1,808.6999998092651,37,1,850.3000001907349,0,0,experiment,NA,NA,2,0.5,0.5,5,4,38,1,NA
fcp-trial,86,603937,0.0-47.0-0.0,voc_e2,11985,"[{""event"":""fullscreenenter"",""trial"":1,""time"":28051}]",NA,NA,NA,NA,NA,5,#1CD855,#FA92F8,0,10,0,38,1,409.89999985694885,39,0,310.60000014305115,10,1,experiment,NA,NA,1,0.3,0.7,3,2,39,1,NA
fcp-trial,87,606414,0.0-48.0-0.0,voc_e2,11985,"[{""event"":""fullscreenenter"",""trial"":1,""time"":28051}]",NA,NA,NA,NA,NA,6,#FA92F8,#1CD855,10,0,1,40,0,67.29999995231628,37,1,902.2999999523164,10,1,experiment,NA,NA,1,0.7,0.3,2,3,40,1,NA
fcp-trial,88,609512,0.0-49.0-0.0,voc_e2,11985,"[{""event"":""fullscreenenter"",""trial"":1,""time"":28051}]",NA,NA,NA,NA,NA,2,#3386FF,#D89F1C,10,10,0,40,0,493.89999985694885,39,0,1098,10,1,experiment,NA,NA,2,0.5,0.5,5,4,41,1,NA
fcp-trial,89,612793,0.0-50.0-0.0,voc_e2,11985,"[{""event"":""fullscreenenter"",""trial"":1,""time"":28051}]",NA,NA,NA,NA,NA,6,#D8271C,#741CD8,10,0,1,40,0,1107.9000000953674,37,1,665.0999999046326,10,1,experiment,NA,NA,0,0.9,0.1,0,1,42,1,NA
fcp-trial,90,615913,0.0-51.0-0.0,voc_e2,11985,"[{""event"":""fullscreenenter"",""trial"":1,""time"":28051}]",NA,NA,NA,NA,NA,2,#1CD855,#FA92F8,0,10,0,40,0,594.7000000476837,37,1,1018.2000000476836,0,0,experiment,NA,NA,1,0.3,0.7,3,2,43,1,NA
fcp-trial,91,619062,0.0-52.0-0.0,voc_e2,11985,"[{""event"":""fullscreenenter"",""trial"":1,""time"":28051}]",NA,NA,NA,NA,NA,3,#FA92F8,#1CD855,10,0,1,40,0,856.7000000476837,39,0,786.0999999046326,0,0,experiment,NA,NA,1,0.7,0.3,2,3,44,1,NA
fcp-trial,92,623593,0.0-53.0-0.0,voc_e2,11985,"[{""event"":""fullscreenenter"",""trial"":1,""time"":28051}]",NA,NA,NA,NA,NA,5,#741CD8,#D8271C,10,10,0,38,1,2693.100000143051,39,0,332.2000000476837,10,1,experiment,NA,NA,0,0.1,0.9,1,0,45,1,NA
fcp-trial,93,626161,0.0-54.0-0.0,voc_e2,11985,"[{""event"":""fullscreenenter"",""trial"":1,""time"":28051}]",NA,NA,NA,NA,NA,4,#741CD8,#D8271C,0,10,0,38,1,644.4000000953674,39,0,416.7999999523163,10,1,experiment,NA,NA,0,0.1,0.9,1,0,46,2,NA
fcp-trial,94,628805,0.0-55.0-0.0,voc_e2,11985,"[{""event"":""fullscreenenter"",""trial"":1,""time"":28051}]",NA,NA,NA,NA,NA,0,#1CD855,#FA92F8,0,0,0,38,1,776.2999999523163,39,0,358.90000009536743,0,1,experiment,NA,NA,1,0.3,0.7,3,2,47,2,NA
fcp-trial,95,631271,0.0-56.0-0.0,voc_e2,11985,"[{""event"":""fullscreenenter"",""trial"":1,""time"":28051}]",NA,NA,NA,NA,NA,1,#3386FF,#D89F1C,0,10,0,38,1,691,37,1,266.40000009536743,0,0,experiment,NA,NA,2,0.5,0.5,5,4,48,2,NA
fcp-trial,96,634041,0.0-57.0-0.0,voc_e2,11985,"[{""event"":""fullscreenenter"",""trial"":1,""time"":28051}]",NA,NA,NA,NA,NA,4,#D89F1C,#3386FF,10,0,1,40,0,838.7000000476837,39,0,423.40000009536743,0,0,experiment,NA,NA,2,0.5,0.5,4,5,49,2,NA
fcp-trial,97,636795,0.0-58.0-0.0,voc_e2,11985,"[{""event"":""fullscreenenter"",""trial"":1,""time"":28051}]",NA,NA,NA,NA,NA,6,#D8271C,#741CD8,0,0,1,40,0,640,39,0,607.2999999523163,0,0,experiment,NA,NA,0,0.9,0.1,0,1,50,2,NA
fcp-trial,98,639643,0.0-59.0-0.0,voc_e2,11985,"[{""event"":""fullscreenenter"",""trial"":1,""time"":28051}]",NA,NA,NA,NA,NA,5,#3386FF,#D89F1C,10,10,0,38,1,843.5,37,1,497,10,0,experiment,NA,NA,2,0.5,0.5,5,4,51,2,NA
fcp-trial,99,642427,0.0-60.0-0.0,voc_e2,11985,"[{""event"":""fullscreenenter"",""trial"":1,""time"":28051}]",NA,NA,NA,NA,NA,6,#1CD855,#FA92F8,0,10,0,38,1,920.7999999523163,39,0,355.7999999523163,10,1,experiment,NA,NA,1,0.3,0.7,3,2,52,2,NA
fcp-trial,100,644849,0.0-61.0-0.0,voc_e2,11985,"[{""event"":""fullscreenenter"",""trial"":1,""time"":28051}]",NA,NA,NA,NA,NA,4,#1CD855,#FA92F8,0,10,0,38,1,411.60000014305115,39,0,504.09999990463257,10,1,experiment,NA,NA,1,0.3,0.7,3,2,53,2,NA
fcp-trial,101,648144,0.0-62.0-0.0,voc_e2,11985,"[{""event"":""fullscreenenter"",""trial"":1,""time"":28051}]",NA,NA,NA,NA,NA,2,#741CD8,#D8271C,0,10,0,38,1,1295.4000000953674,39,0,493.7000000476837,10,1,experiment,NA,NA,0,0.1,0.9,1,0,54,2,NA
fcp-trial,102,650413,0.0-63.0-0.0,voc_e2,11985,"[{""event"":""fullscreenenter"",""trial"":1,""time"":28051}]",NA,NA,NA,NA,NA,0,#3386FF,#D89F1C,0,0,0,38,1,420.40000009536743,37,1,341.19999980926514,0,0,experiment,NA,NA,2,0.5,0.5,5,4,55,2,NA
fcp-trial,103,653143,0.0-64.0-0.0,voc_e2,11985,"[{""event"":""fullscreenenter"",""trial"":1,""time"":28051}]",NA,NA,NA,NA,NA,3,#3386FF,#D89F1C,0,0,0,40,0,825,37,1,397.7000000476837,0,0,experiment,NA,NA,2,0.5,0.5,5,4,56,2,NA
fcp-trial,104,655827,0.0-65.0-0.0,voc_e2,11985,"[{""event"":""fullscreenenter"",""trial"":1,""time"":28051}]",NA,NA,NA,NA,NA,5,#FA92F8,#1CD855,10,0,1,38,1,848,37,1,327.7000000476837,10,1,experiment,NA,NA,1,0.7,0.3,2,3,57,2,NA
fcp-trial,105,658160,0.0-66.0-0.0,voc_e2,11985,"[{""event"":""fullscreenenter"",""trial"":1,""time"":28051}]",NA,NA,NA,NA,NA,3,#D8271C,#741CD8,10,0,1,40,0,388.89999985694885,37,1,439.10000014305115,10,1,experiment,NA,NA,0,0.9,0.1,0,1,58,2,NA
fcp-trial,106,660784,0.0-67.0-0.0,voc_e2,11985,"[{""event"":""fullscreenenter"",""trial"":1,""time"":28051}]",NA,NA,NA,NA,NA,0,#D8271C,#741CD8,10,0,1,40,0,437.7999999523163,39,0,678.2999999523163,0,0,experiment,NA,NA,0,0.9,0.1,0,1,59,2,NA
fcp-trial,107,664675,0.0-68.0-0.0,voc_e2,11985,"[{""event"":""fullscreenenter"",""trial"":1,""time"":28051}]",NA,NA,NA,NA,NA,6,#3386FF,#D89F1C,0,10,0,40,0,1847.0999999046326,39,0,536.6999998092651,10,1,experiment,NA,NA,2,0.5,0.5,5,4,60,2,NA
fcp-trial,108,667430,0.0-69.0-0.0,voc_e2,11985,"[{""event"":""fullscreenenter"",""trial"":1,""time"":28051}]",NA,NA,NA,NA,NA,1,#741CD8,#D8271C,0,10,0,38,1,836.2000000476837,39,0,409.2000000476837,10,1,experiment,NA,NA,0,0.1,0.9,1,0,61,2,NA
fcp-trial,109,669868,0.0-70.0-0.0,voc_e2,11985,"[{""event"":""fullscreenenter"",""trial"":1,""time"":28051}]",NA,NA,NA,NA,NA,1,#1CD855,#FA92F8,0,0,0,40,0,491.7999999523163,39,0,438.7999999523163,0,1,experiment,NA,NA,1,0.3,0.7,3,2,62,2,NA
fcp-trial,110,672741,0.0-71.0-0.0,voc_e2,11985,"[{""event"":""fullscreenenter"",""trial"":1,""time"":28051}]",NA,NA,NA,NA,NA,2,#D89F1C,#3386FF,0,0,1,40,0,586.1999998092651,39,0,779.7999999523163,0,0,experiment,NA,NA,2,0.5,0.5,4,5,63,2,NA
fcp-trial,111,675392,0.0-72.0-0.0,voc_e2,11985,"[{""event"":""fullscreenenter"",""trial"":1,""time"":28051}]",NA,NA,NA,NA,NA,5,#3386FF,#D89F1C,10,10,0,40,0,730.5,37,1,413,10,0,experiment,NA,NA,2,0.5,0.5,5,4,64,2,NA
fcp-trial,112,678494,0.0-73.0-0.0,voc_e2,11985,"[{""event"":""fullscreenenter"",""trial"":1,""time"":28051}]",NA,NA,NA,NA,NA,1,#1CD855,#FA92F8,10,10,0,38,1,997.8000001907349,39,0,597.0999999046326,10,1,experiment,NA,NA,1,0.3,0.7,3,2,65,2,NA
fcp-trial,113,681667,0.0-74.0-0.0,voc_e2,11985,"[{""event"":""fullscreenenter"",""trial"":1,""time"":28051}]",NA,NA,NA,NA,NA,4,#D8271C,#741CD8,10,0,1,38,1,735.2999999523163,37,1,926.3999998569489,10,1,experiment,NA,NA,0,0.9,0.1,0,1,66,2,NA
fcp-trial,114,684187,0.0-75.0-0.0,voc_e2,11985,"[{""event"":""fullscreenenter"",""trial"":1,""time"":28051}]",NA,NA,NA,NA,NA,4,#FA92F8,#1CD855,0,0,1,40,0,539.9000000953674,37,1,473.09999990463257,0,1,experiment,NA,NA,1,0.7,0.3,2,3,67,2,NA
fcp-trial,115,687104,0.0-76.0-0.0,voc_e2,11985,"[{""event"":""fullscreenenter"",""trial"":1,""time"":28051}]",NA,NA,NA,NA,NA,3,#741CD8,#D8271C,0,10,0,40,0,757.3000001907349,37,1,648.7000000476837,0,0,experiment,NA,NA,0,0.1,0.9,1,0,68,2,NA
fcp-trial,116,689678,0.0-77.0-0.0,voc_e2,11985,"[{""event"":""fullscreenenter"",""trial"":1,""time"":28051}]",NA,NA,NA,NA,NA,2,#D89F1C,#3386FF,0,0,1,38,1,733,39,0,331.09999990463257,0,0,experiment,NA,NA,2,0.5,0.5,4,5,69,2,NA
fcp-trial,117,692078,0.0-78.0-0.0,voc_e2,11985,"[{""event"":""fullscreenenter"",""trial"":1,""time"":28051}]",NA,NA,NA,NA,NA,5,#1CD855,#FA92F8,0,10,0,38,1,604.5,39,0,287.89999985694885,10,1,experiment,NA,NA,1,0.3,0.7,3,2,70,2,NA
fcp-trial,118,704230,0.0-79.0-0.0,voc_e2,11985,"[{""event"":""fullscreenenter"",""trial"":1,""time"":28051}]",NA,NA,NA,NA,NA,5,#741CD8,#D8271C,0,10,0,38,1,9452,39,0,1190.9000000953674,10,1,experiment,NA,NA,0,0.1,0.9,1,0,71,2,NA
fcp-trial,119,706911,0.0-80.0-0.0,voc_e2,11985,"[{""event"":""fullscreenenter"",""trial"":1,""time"":28051}]",NA,NA,NA,NA,NA,3,#D89F1C,#3386FF,10,10,1,38,1,732.3999998569489,39,0,440.2999999523163,10,0,experiment,NA,NA,2,0.5,0.5,4,5,72,2,NA
fcp-trial,120,709548,0.0-81.0-0.0,voc_e2,11985,"[{""event"":""fullscreenenter"",""trial"":1,""time"":28051}]",NA,NA,NA,NA,NA,3,#FA92F8,#1CD855,10,0,1,38,1,559.7000000476837,37,1,570.1000001430511,10,1,experiment,NA,NA,1,0.7,0.3,2,3,73,2,NA
fcp-trial,121,714442,0.0-82.0-0.0,voc_e2,11985,"[{""event"":""fullscreenenter"",""trial"":1,""time"":28051}]",NA,NA,NA,NA,NA,0,#D8271C,#741CD8,10,0,1,38,1,2874.7999999523163,37,1,511.7000000476837,10,1,experiment,NA,NA,0,0.9,0.1,0,1,74,2,NA
fcp-trial,122,716814,0.0-83.0-0.0,voc_e2,11985,"[{""event"":""fullscreenenter"",""trial"":1,""time"":28051}]",NA,NA,NA,NA,NA,6,#D8271C,#741CD8,10,0,1,40,0,481.2999999523163,37,1,383.30000019073486,10,1,experiment,NA,NA,0,0.9,0.1,0,1,75,2,NA
fcp-trial,123,719088,0.0-84.0-0.0,voc_e2,11985,"[{""event"":""fullscreenenter"",""trial"":1,""time"":28051}]",NA,NA,NA,NA,NA,6,#3386FF,#D89F1C,0,10,0,40,0,367.60000014305115,37,1,396.90000009536743,0,0,experiment,NA,NA,2,0.5,0.5,5,4,76,2,NA
fcp-trial,124,721811,0.0-85.0-0.0,voc_e2,11985,"[{""event"":""fullscreenenter"",""trial"":1,""time"":28051}]",NA,NA,NA,NA,NA,6,#1CD855,#FA92F8,0,10,0,40,0,532.2999999523163,37,1,682.5999999046326,0,0,experiment,NA,NA,1,0.3,0.7,3,2,77,2,NA
fcp-trial,125,724154,0.0-86.0-0.0,voc_e2,11985,"[{""event"":""fullscreenenter"",""trial"":1,""time"":28051}]",NA,NA,NA,NA,NA,1,#3386FF,#D89F1C,10,0,0,38,1,574.8999998569489,37,1,262.09999990463257,10,0,experiment,NA,NA,2,0.5,0.5,5,4,78,2,NA
fcp-trial,126,726943,0.0-87.0-0.0,voc_e2,11985,"[{""event"":""fullscreenenter"",""trial"":1,""time"":28051}]",NA,NA,NA,NA,NA,2,#D8271C,#741CD8,10,0,1,40,0,901.7999999523163,37,1,376.7999999523163,10,1,experiment,NA,NA,0,0.9,0.1,0,1,79,2,NA
fcp-trial,127,729492,0.0-88.0-0.0,voc_e2,11985,"[{""event"":""fullscreenenter"",""trial"":1,""time"":28051}]",NA,NA,NA,NA,NA,2,#FA92F8,#1CD855,10,0,1,40,0,629.3000001907349,37,1,412.5,10,1,experiment,NA,NA,1,0.7,0.3,2,3,80,2,NA
fcp-trial,128,731792,0.0-89.0-0.0,voc_e2,11985,"[{""event"":""fullscreenenter"",""trial"":1,""time"":28051}]",NA,NA,NA,NA,NA,0,#3386FF,#D89F1C,10,0,0,38,1,431,37,1,362.5,10,0,experiment,NA,NA,2,0.5,0.5,5,4,81,2,NA
fcp-trial,129,734353,0.0-90.0-0.0,voc_e2,11985,"[{""event"":""fullscreenenter"",""trial"":1,""time"":28051}]",NA,NA,NA,NA,NA,4,#3386FF,#D89F1C,10,10,0,40,0,662.5999999046326,37,1,389.90000009536743,10,0,experiment,NA,NA,2,0.5,0.5,5,4,82,2,NA
fcp-trial,130,736921,0.0-91.0-0.0,voc_e2,11985,"[{""event"":""fullscreenenter"",""trial"":1,""time"":28051}]",NA,NA,NA,NA,NA,0,#FA92F8,#1CD855,10,0,1,38,1,643.7999999523163,37,1,414.5,10,1,experiment,NA,NA,1,0.7,0.3,2,3,83,2,NA
fcp-trial,131,739403,0.0-92.0-0.0,voc_e2,11985,"[{""event"":""fullscreenenter"",""trial"":1,""time"":28051}]",NA,NA,NA,NA,NA,1,#D8271C,#741CD8,10,10,1,38,1,583.2999999523163,37,1,389.5,10,1,experiment,NA,NA,0,0.9,0.1,0,1,84,2,NA
fcp-trial,132,742222,0.0-93.0-0.0,voc_e2,11985,"[{""event"":""fullscreenenter"",""trial"":1,""time"":28051}]",NA,NA,NA,NA,NA,4,#FA92F8,#1CD855,10,0,1,40,0,818.7000000476837,39,0,488.40000009536743,0,0,experiment,NA,NA,1,0.7,0.3,2,3,85,2,NA
fcp-trial,133,745298,0.0-94.0-0.0,voc_e2,11985,"[{""event"":""fullscreenenter"",""trial"":1,""time"":28051}]",NA,NA,NA,NA,NA,1,#741CD8,#D8271C,0,10,0,40,0,799.5999999046326,39,0,767.1999998092651,10,1,experiment,NA,NA,0,0.1,0.9,1,0,86,2,NA
fcp-trial,134,747868,0.0-95.0-0.0,voc_e2,11985,"[{""event"":""fullscreenenter"",""trial"":1,""time"":28051}]",NA,NA,NA,NA,NA,0,#FA92F8,#1CD855,10,0,1,38,1,591.8000001907349,37,1,469.10000014305115,10,1,experiment,NA,NA,1,0.7,0.3,2,3,87,2,NA
fcp-trial,135,750148,0.0-96.0-0.0,voc_e2,11985,"[{""event"":""fullscreenenter"",""trial"":1,""time"":28051}]",NA,NA,NA,NA,NA,5,#D8271C,#741CD8,0,0,1,38,1,428.7000000476837,37,1,340.5,0,1,experiment,NA,NA,0,0.9,0.1,0,1,88,2,NA
fcp-trial,136,752579,0.0-97.0-0.0,voc_e2,11985,"[{""event"":""fullscreenenter"",""trial"":1,""time"":28051}]",NA,NA,NA,NA,NA,5,#D89F1C,#3386FF,10,10,1,38,1,375.5,39,0,548.9000000953674,10,0,experiment,NA,NA,2,0.5,0.5,4,5,89,2,NA
fcp-trial,137,754737,0.0-98.0-0.0,voc_e2,11985,"[{""event"":""fullscreenenter"",""trial"":1,""time"":28051}]",NA,NA,NA,NA,NA,2,#3386FF,#D89F1C,10,0,0,40,0,290.2999999523163,37,1,360,10,0,experiment,NA,NA,2,0.5,0.5,5,4,90,2,NA
fcp-trial,138,756920,0.0-99.0-0.0,voc_e2,11985,"[{""event"":""fullscreenenter"",""trial"":1,""time"":28051}]",NA,NA,NA,NA,NA,3,#741CD8,#D8271C,0,10,0,38,1,198.90000009536743,39,0,475.5,10,1,experiment,NA,NA,0,0.1,0.9,1,0,91,3,NA
fcp-trial,139,759478,0.0-100.0-0.0,voc_e2,11985,"[{""event"":""fullscreenenter"",""trial"":1,""time"":28051}]",NA,NA,NA,NA,NA,6,#FA92F8,#1CD855,10,10,1,40,0,234.60000014305115,39,0,814.2999999523163,10,0,experiment,NA,NA,1,0.7,0.3,2,3,92,3,NA
fcp-trial,140,761928,0.0-101.0-0.0,voc_e2,11985,"[{""event"":""fullscreenenter"",""trial"":1,""time"":28051}]",NA,NA,NA,NA,NA,3,#1CD855,#FA92F8,0,10,0,40,0,466.7999999523163,39,0,472.90000009536743,10,1,experiment,NA,NA,1,0.3,0.7,3,2,93,3,NA
fcp-trial,141,764196,0.0-102.0-0.0,voc_e2,11985,"[{""event"":""fullscreenenter"",""trial"":1,""time"":28051}]",NA,NA,NA,NA,NA,1,#3386FF,#D89F1C,10,10,0,38,1,426.2999999523163,37,1,333,10,0,experiment,NA,NA,2,0.5,0.5,5,4,94,3,NA
fcp-trial,142,766345,0.0-103.0-0.0,voc_e2,11985,"[{""event"":""fullscreenenter"",""trial"":1,""time"":28051}]",NA,NA,NA,NA,NA,2,#FA92F8,#1CD855,10,0,1,40,0,228.70000004768372,37,1,412,10,1,experiment,NA,NA,1,0.7,0.3,2,3,95,3,NA
fcp-trial,143,768919,0.0-104.0-0.0,voc_e2,11985,"[{""event"":""fullscreenenter"",""trial"":1,""time"":28051}]",NA,NA,NA,NA,NA,2,#D8271C,#741CD8,10,0,1,40,0,413.2999999523163,39,0,648.7000000476837,0,0,experiment,NA,NA,0,0.9,0.1,0,1,96,3,NA
fcp-trial,144,771760,0.0-105.0-0.0,voc_e2,11985,"[{""event"":""fullscreenenter"",""trial"":1,""time"":28051}]",NA,NA,NA,NA,NA,0,#D8271C,#741CD8,10,0,1,38,1,1035,37,1,300.7000000476837,10,1,experiment,NA,NA,0,0.9,0.1,0,1,97,3,NA
fcp-trial,145,774871,0.0-106.0-0.0,voc_e2,11985,"[{""event"":""fullscreenenter"",""trial"":1,""time"":28051}]",NA,NA,NA,NA,NA,3,#3386FF,#D89F1C,10,10,0,40,0,901.8000001907349,39,0,700.5,10,1,experiment,NA,NA,2,0.5,0.5,5,4,98,3,NA
fcp-trial,146,777494,0.0-107.0-0.0,voc_e2,11985,"[{""event"":""fullscreenenter"",""trial"":1,""time"":28051}]",NA,NA,NA,NA,NA,4,#741CD8,#D8271C,0,10,0,38,1,451.2999999523163,39,0,663.2999999523163,10,1,experiment,NA,NA,0,0.1,0.9,1,0,99,3,NA
fcp-trial,147,780769,0.0-108.0-0.0,voc_e2,11985,"[{""event"":""fullscreenenter"",""trial"":1,""time"":28051}]",NA,NA,NA,NA,NA,5,#1CD855,#FA92F8,0,10,0,38,1,368.89999985694885,39,0,1395.3000001907349,10,1,experiment,NA,NA,1,0.3,0.7,3,2,100,3,NA
fcp-trial,148,783111,0.0-109.0-0.0,voc_e2,11985,"[{""event"":""fullscreenenter"",""trial"":1,""time"":28051}]",NA,NA,NA,NA,NA,6,#741CD8,#D8271C,10,10,0,40,0,428.89999985694885,37,1,405.09999990463257,10,0,experiment,NA,NA,0,0.1,0.9,1,0,101,3,NA
fcp-trial,149,785485,0.0-110.0-0.0,voc_e2,11985,"[{""event"":""fullscreenenter"",""trial"":1,""time"":28051}]",NA,NA,NA,NA,NA,0,#3386FF,#D89F1C,0,10,0,40,0,92.69999980926514,39,0,771.3999998569489,10,1,experiment,NA,NA,2,0.5,0.5,5,4,102,3,NA
fcp-trial,150,787810,0.0-111.0-0.0,voc_e2,11985,"[{""event"":""fullscreenenter"",""trial"":1,""time"":28051}]",NA,NA,NA,NA,NA,4,#D89F1C,#3386FF,10,10,1,40,0,237.79999995231628,37,1,578,10,1,experiment,NA,NA,2,0.5,0.5,4,5,103,3,NA
fcp-trial,151,790642,0.0-112.0-0.0,voc_e2,11985,"[{""event"":""fullscreenenter"",""trial"":1,""time"":28051}]",NA,NA,NA,NA,NA,6,#3386FF,#D89F1C,10,10,0,40,0,720.9000000953674,37,1,603.2000000476837,10,0,experiment,NA,NA,2,0.5,0.5,5,4,104,3,NA
fcp-trial,152,792854,0.0-113.0-0.0,voc_e2,11985,"[{""event"":""fullscreenenter"",""trial"":1,""time"":28051}]",NA,NA,NA,NA,NA,1,#FA92F8,#1CD855,0,0,1,38,1,306.2000000476837,37,1,397.89999985694885,0,1,experiment,NA,NA,1,0.7,0.3,2,3,105,3,NA
audio-instructions,153,844376,0.0-114.0,voc_e2,11985,"[{""event"":""fullscreenenter"",""trial"":1,""time"":28051}]",NA,47044.39999985695,static/audio/pause.wav,NA,0,NA,NA,NA,NA,NA,NA,NA,NA,NA,NA,NA,NA,NA,NA,NA,NA,NA,NA,NA,NA,NA,NA,NA,NA,NA
fcp-trial,154,847762,0.0-115.0-0.0,voc_e2,11985,"[{""event"":""fullscreenenter"",""trial"":1,""time"":28051}]",NA,NA,NA,NA,NA,1,#D89F1C,#3386FF,10,0,1,38,1,1357,39,0,521.2999999523163,0,0,experiment,NA,NA,2,0.5,0.5,4,5,106,3,NA
fcp-trial,155,850178,0.0-116.0-0.0,voc_e2,11985,"[{""event"":""fullscreenenter"",""trial"":1,""time"":28051}]",NA,NA,NA,NA,NA,0,#D8271C,#741CD8,10,10,1,38,1,606.5,37,1,300.7000000476837,10,1,experiment,NA,NA,0,0.9,0.1,0,1,107,3,NA
fcp-trial,156,853444,0.0-117.0-0.0,voc_e2,11985,"[{""event"":""fullscreenenter"",""trial"":1,""time"":28051}]",NA,NA,NA,NA,NA,6,#D89F1C,#3386FF,0,10,1,38,1,1377.7999999523163,39,0,382.19999980926514,10,0,experiment,NA,NA,2,0.5,0.5,4,5,108,3,NA
fcp-trial,157,855687,0.0-118.0-0.0,voc_e2,11985,"[{""event"":""fullscreenenter"",""trial"":1,""time"":28051}]",NA,NA,NA,NA,NA,2,#FA92F8,#1CD855,10,10,1,40,0,395.39999985694885,37,1,341.2000000476837,10,1,experiment,NA,NA,1,0.7,0.3,2,3,109,3,NA
fcp-trial,158,858130,0.0-119.0-0.0,voc_e2,11985,"[{""event"":""fullscreenenter"",""trial"":1,""time"":28051}]",NA,NA,NA,NA,NA,2,#741CD8,#D8271C,0,10,0,38,1,344.7000000476837,39,0,590.2999999523163,10,1,experiment,NA,NA,0,0.1,0.9,1,0,110,3,NA
fcp-trial,159,860895,0.0-120.0-0.0,voc_e2,11985,"[{""event"":""fullscreenenter"",""trial"":1,""time"":28051}]",NA,NA,NA,NA,NA,0,#3386FF,#D89F1C,0,10,0,38,1,970.1000001430511,37,1,289.80000019073486,0,0,experiment,NA,NA,2,0.5,0.5,5,4,111,3,NA
fcp-trial,160,863046,0.0-121.0-0.0,voc_e2,11985,"[{""event"":""fullscreenenter"",""trial"":1,""time"":28051}]",NA,NA,NA,NA,NA,3,#1CD855,#FA92F8,10,10,0,40,0,226.79999995231628,39,0,415.5,10,1,experiment,NA,NA,1,0.3,0.7,3,2,112,3,NA
fcp-trial,161,865195,0.0-122.0-0.0,voc_e2,11985,"[{""event"":""fullscreenenter"",""trial"":1,""time"":28051}]",NA,NA,NA,NA,NA,4,#FA92F8,#1CD855,10,10,1,40,0,231.60000014305115,37,1,410.59999990463257,10,1,experiment,NA,NA,1,0.7,0.3,2,3,113,3,NA
fcp-trial,162,867311,0.0-123.0-0.0,voc_e2,11985,"[{""event"":""fullscreenenter"",""trial"":1,""time"":28051}]",NA,NA,NA,NA,NA,6,#741CD8,#D8271C,0,10,0,38,1,211.70000004768372,39,0,397.7999999523163,10,1,experiment,NA,NA,0,0.1,0.9,1,0,114,3,NA
fcp-trial,163,869745,0.0-124.0-0.0,voc_e2,11985,"[{""event"":""fullscreenenter"",""trial"":1,""time"":28051}]",NA,NA,NA,NA,NA,4,#D89F1C,#3386FF,0,0,1,40,0,384.7999999523163,37,1,541.1000001430511,0,1,experiment,NA,NA,2,0.5,0.5,4,5,115,3,NA
fcp-trial,164,872011,0.0-125.0-0.0,voc_e2,11985,"[{""event"":""fullscreenenter"",""trial"":1,""time"":28051}]",NA,NA,NA,NA,NA,3,#3386FF,#D89F1C,0,10,0,38,1,198.09999990463257,37,1,561.5999999046326,0,0,experiment,NA,NA,2,0.5,0.5,5,4,116,3,NA
fcp-trial,165,874793,0.0-126.0-0.0,voc_e2,11985,"[{""event"":""fullscreenenter"",""trial"":1,""time"":28051}]",NA,NA,NA,NA,NA,5,#D8271C,#741CD8,10,0,1,38,1,432.40000009536743,37,1,842.5,10,1,experiment,NA,NA,0,0.9,0.1,0,1,117,3,NA
fcp-trial,166,876965,0.0-127.0-0.0,voc_e2,11985,"[{""event"":""fullscreenenter"",""trial"":1,""time"":28051}]",NA,NA,NA,NA,NA,5,#FA92F8,#1CD855,10,0,1,40,0,301.5,37,1,360.5,10,1,experiment,NA,NA,1,0.7,0.3,2,3,118,3,NA
fcp-trial,167,879192,0.0-128.0-0.0,voc_e2,11985,"[{""event"":""fullscreenenter"",""trial"":1,""time"":28051}]",NA,NA,NA,NA,NA,6,#FA92F8,#1CD855,10,0,1,38,1,417.10000014305115,37,1,304,10,1,experiment,NA,NA,1,0.7,0.3,2,3,119,3,NA
fcp-trial,168,881562,0.0-129.0-0.0,voc_e2,11985,"[{""event"":""fullscreenenter"",""trial"":1,""time"":28051}]",NA,NA,NA,NA,NA,0,#FA92F8,#1CD855,0,0,1,40,0,417.59999990463257,37,1,446.5,0,1,experiment,NA,NA,1,0.7,0.3,2,3,120,3,NA
fcp-trial,169,884288,0.0-130.0-0.0,voc_e2,11985,"[{""event"":""fullscreenenter"",""trial"":1,""time"":28051}]",NA,NA,NA,NA,NA,5,#3386FF,#D89F1C,0,0,0,40,0,626.2000000476837,37,1,590.0999999046326,0,0,experiment,NA,NA,2,0.5,0.5,5,4,121,3,NA
fcp-trial,170,887878,0.0-131.0-0.0,voc_e2,11985,"[{""event"":""fullscreenenter"",""trial"":1,""time"":28051}]",NA,NA,NA,NA,NA,1,#741CD8,#D8271C,0,10,0,38,1,593.7999999523163,39,0,1487.9000000953674,10,1,experiment,NA,NA,0,0.1,0.9,1,0,122,3,NA
fcp-trial,171,890161,0.0-132.0-0.0,voc_e2,11985,"[{""event"":""fullscreenenter"",""trial"":1,""time"":28051}]",NA,NA,NA,NA,NA,2,#3386FF,#D89F1C,0,0,0,38,1,432.09999990463257,39,0,345.10000014305115,0,1,experiment,NA,NA,2,0.5,0.5,5,4,123,3,NA
fcp-trial,172,892415,0.0-133.0-0.0,voc_e2,11985,"[{""event"":""fullscreenenter"",""trial"":1,""time"":28051}]",NA,NA,NA,NA,NA,4,#D8271C,#741CD8,10,0,1,38,1,427.2000000476837,37,1,317.5,10,1,experiment,NA,NA,0,0.9,0.1,0,1,124,3,NA
fcp-trial,173,894621,0.0-134.0-0.0,voc_e2,11985,"[{""event"":""fullscreenenter"",""trial"":1,""time"":28051}]",NA,NA,NA,NA,NA,1,#1CD855,#FA92F8,10,10,0,38,1,423.69999980926514,39,0,276.2000000476837,10,1,experiment,NA,NA,1,0.3,0.7,3,2,125,3,NA
fcp-trial,174,897228,0.0-135.0-0.0,voc_e2,11985,"[{""event"":""fullscreenenter"",""trial"":1,""time"":28051}]",NA,NA,NA,NA,NA,3,#D8271C,#741CD8,10,0,1,38,1,532.9000000953674,37,1,565.6999998092651,10,1,experiment,NA,NA,0,0.9,0.1,0,1,126,3,NA
fcp-trial,175,899830,0.0-136.0-0.0,voc_e2,11985,"[{""event"":""fullscreenenter"",""trial"":1,""time"":28051}]",NA,NA,NA,NA,NA,3,#D8271C,#741CD8,10,0,1,40,0,733.3000001907349,37,1,359.09999990463257,10,1,experiment,NA,NA,0,0.9,0.1,0,1,127,3,NA
fcp-trial,176,902505,0.0-137.0-0.0,voc_e2,11985,"[{""event"":""fullscreenenter"",""trial"":1,""time"":28051}]",NA,NA,NA,NA,NA,4,#D8271C,#741CD8,10,0,1,40,0,758.2000000476837,39,0,410.40000009536743,0,0,experiment,NA,NA,0,0.9,0.1,0,1,128,3,NA
fcp-trial,177,904909,0.0-138.0-0.0,voc_e2,11985,"[{""event"":""fullscreenenter"",""trial"":1,""time"":28051}]",NA,NA,NA,NA,NA,1,#741CD8,#D8271C,0,10,0,40,0,569.5,39,0,327.39999985694885,10,1,experiment,NA,NA,0,0.1,0.9,1,0,129,3,NA
fcp-trial,178,907835,0.0-139.0-0.0,voc_e2,11985,"[{""event"":""fullscreenenter"",""trial"":1,""time"":28051}]",NA,NA,NA,NA,NA,6,#D89F1C,#3386FF,10,10,1,40,0,714.0999999046326,39,0,704.9000000953674,10,0,experiment,NA,NA,2,0.5,0.5,4,5,130,3,NA
fcp-trial,179,910096,0.0-140.0-0.0,voc_e2,11985,"[{""event"":""fullscreenenter"",""trial"":1,""time"":28051}]",NA,NA,NA,NA,NA,5,#FA92F8,#1CD855,0,10,1,38,1,446.09999990463257,37,1,305.5,0,1,experiment,NA,NA,1,0.7,0.3,2,3,131,3,NA
fcp-trial,180,912612,0.0-141.0-0.0,voc_e2,11985,"[{""event"":""fullscreenenter"",""trial"":1,""time"":28051}]",NA,NA,NA,NA,NA,1,#1CD855,#FA92F8,0,10,0,38,1,725.2999999523163,39,0,283.7000000476837,10,1,experiment,NA,NA,1,0.3,0.7,3,2,132,3,NA
fcp-trial,181,915210,0.0-142.0-0.0,voc_e2,11985,"[{""event"":""fullscreenenter"",""trial"":1,""time"":28051}]",NA,NA,NA,NA,NA,5,#D89F1C,#3386FF,0,10,1,40,0,775.5,39,0,316.2000000476837,10,0,experiment,NA,NA,2,0.5,0.5,4,5,133,3,NA
fcp-trial,182,917596,0.0-143.0-0.0,voc_e2,11985,"[{""event"":""fullscreenenter"",""trial"":1,""time"":28051}]",NA,NA,NA,NA,NA,2,#D8271C,#741CD8,10,0,1,38,1,587,37,1,292.2000000476837,10,1,experiment,NA,NA,0,0.9,0.1,0,1,134,3,NA
fcp-trial,183,920125,0.0-144.0-0.0,voc_e2,11985,"[{""event"":""fullscreenenter"",""trial"":1,""time"":28051}]",NA,NA,NA,NA,NA,4,#1CD855,#FA92F8,10,10,0,40,0,580.5,39,0,441.59999990463257,10,1,experiment,NA,NA,1,0.3,0.7,3,2,135,3,NA
fcp-trial,184,922913,0.0-145.0-0.0,voc_e2,11985,"[{""event"":""fullscreenenter"",""trial"":1,""time"":28051}]",NA,NA,NA,NA,NA,5,#741CD8,#D8271C,0,10,0,38,1,798.5999999046326,39,0,482.5,10,1,experiment,NA,NA,0,0.1,0.9,1,0,136,4,NA
fcp-trial,185,925621,0.0-146.0-0.0,voc_e2,11985,"[{""event"":""fullscreenenter"",""trial"":1,""time"":28051}]",NA,NA,NA,NA,NA,0,#D89F1C,#3386FF,0,0,1,40,0,818.7999999523163,37,1,382.19999980926514,0,1,experiment,NA,NA,2,0.5,0.5,4,5,137,4,NA
fcp-trial,186,927859,0.0-147.0-0.0,voc_e2,11985,"[{""event"":""fullscreenenter"",""trial"":1,""time"":28051}]",NA,NA,NA,NA,NA,0,#1CD855,#FA92F8,10,10,0,38,1,472.89999985694885,39,0,257,10,1,experiment,NA,NA,1,0.3,0.7,3,2,138,4,NA
fcp-trial,187,929877,0.0-148.0-0.0,voc_e2,11985,"[{""event"":""fullscreenenter"",""trial"":1,""time"":28051}]",NA,NA,NA,NA,NA,2,#FA92F8,#1CD855,10,10,1,38,1,246.69999980926514,37,1,264.59999990463257,10,1,experiment,NA,NA,1,0.7,0.3,2,3,139,4,NA
fcp-trial,188,932055,0.0-149.0-0.0,voc_e2,11985,"[{""event"":""fullscreenenter"",""trial"":1,""time"":28051}]",NA,NA,NA,NA,NA,2,#D89F1C,#3386FF,0,0,1,38,1,361.19999980926514,39,0,306.2000000476837,0,0,experiment,NA,NA,2,0.5,0.5,4,5,140,4,NA
fcp-trial,189,934099,0.0-150.0-0.0,voc_e2,11985,"[{""event"":""fullscreenenter"",""trial"":1,""time"":28051}]",NA,NA,NA,NA,NA,0,#741CD8,#D8271C,0,10,0,38,1,199.80000019073486,39,0,334.5,10,1,experiment,NA,NA,0,0.1,0.9,1,0,141,4,NA
fcp-trial,190,936615,0.0-151.0-0.0,voc_e2,11985,"[{""event"":""fullscreenenter"",""trial"":1,""time"":28051}]",NA,NA,NA,NA,NA,6,#FA92F8,#1CD855,10,10,1,38,1,420.7999999523163,37,1,587.2000000476837,10,1,experiment,NA,NA,1,0.7,0.3,2,3,142,4,NA
fcp-trial,191,938787,0.0-152.0-0.0,voc_e2,11985,"[{""event"":""fullscreenenter"",""trial"":1,""time"":28051}]",NA,NA,NA,NA,NA,1,#3386FF,#D89F1C,10,10,0,38,1,299,37,1,365.59999990463257,10,0,experiment,NA,NA,2,0.5,0.5,5,4,143,4,NA
fcp-trial,192,940844,0.0-153.0-0.0,voc_e2,11985,"[{""event"":""fullscreenenter"",""trial"":1,""time"":28051}]",NA,NA,NA,NA,NA,3,#FA92F8,#1CD855,10,0,1,38,1,227.5,37,1,322.7999999523163,10,1,experiment,NA,NA,1,0.7,0.3,2,3,144,4,NA
fcp-trial,193,943018,0.0-154.0-0.0,voc_e2,11985,"[{""event"":""fullscreenenter"",""trial"":1,""time"":28051}]",NA,NA,NA,NA,NA,4,#3386FF,#D89F1C,0,10,0,38,1,376.5,37,1,290.09999990463257,0,0,experiment,NA,NA,2,0.5,0.5,5,4,145,4,NA
fcp-trial,194,945304,0.0-155.0-0.0,voc_e2,11985,"[{""event"":""fullscreenenter"",""trial"":1,""time"":28051}]",NA,NA,NA,NA,NA,6,#D8271C,#741CD8,10,0,1,38,1,391.7000000476837,37,1,384.2000000476837,10,1,experiment,NA,NA,0,0.9,0.1,0,1,146,4,NA
fcp-trial,195,947669,0.0-156.0-0.0,voc_e2,11985,"[{""event"":""fullscreenenter"",""trial"":1,""time"":28051}]",NA,NA,NA,NA,NA,3,#3386FF,#D89F1C,0,10,0,38,1,361,39,0,494.7999999523163,10,1,experiment,NA,NA,2,0.5,0.5,5,4,147,4,NA
fcp-trial,196,949864,0.0-157.0-0.0,voc_e2,11985,"[{""event"":""fullscreenenter"",""trial"":1,""time"":28051}]",NA,NA,NA,NA,NA,6,#D8271C,#741CD8,10,0,1,38,1,317.7000000476837,37,1,366.7000000476837,10,1,experiment,NA,NA,0,0.9,0.1,0,1,148,4,NA
fcp-trial,197,952835,0.0-158.0-0.0,voc_e2,11985,"[{""event"":""fullscreenenter"",""trial"":1,""time"":28051}]",NA,NA,NA,NA,NA,4,#741CD8,#D8271C,0,10,0,40,0,925.1000001430511,37,1,539,0,0,experiment,NA,NA,0,0.1,0.9,1,0,149,4,NA
fcp-trial,198,955256,0.0-159.0-0.0,voc_e2,11985,"[{""event"":""fullscreenenter"",""trial"":1,""time"":28051}]",NA,NA,NA,NA,NA,5,#741CD8,#D8271C,0,10,0,40,0,588.7000000476837,39,0,321.39999985694885,10,1,experiment,NA,NA,0,0.1,0.9,1,0,150,4,NA
fcp-trial,199,957959,0.0-160.0-0.0,voc_e2,11985,"[{""event"":""fullscreenenter"",""trial"":1,""time"":28051}]",NA,NA,NA,NA,NA,1,#FA92F8,#1CD855,10,0,1,40,0,730.5,39,0,465.09999990463257,0,0,experiment,NA,NA,1,0.7,0.3,2,3,151,4,NA
fcp-trial,200,960269,0.0-161.0-0.0,voc_e2,11985,"[{""event"":""fullscreenenter"",""trial"":1,""time"":28051}]",NA,NA,NA,NA,NA,5,#3386FF,#D89F1C,10,10,0,38,1,486.10000014305115,39,0,316.40000009536743,10,1,experiment,NA,NA,2,0.5,0.5,5,4,152,4,NA
fcp-trial,201,962545,0.0-162.0-0.0,voc_e2,11985,"[{""event"":""fullscreenenter"",""trial"":1,""time"":28051}]",NA,NA,NA,NA,NA,1,#D8271C,#741CD8,10,0,1,38,1,487.40000009536743,37,1,278.89999985694885,10,1,experiment,NA,NA,0,0.9,0.1,0,1,153,4,NA
fcp-trial,202,965054,0.0-163.0-0.0,voc_e2,11985,"[{""event"":""fullscreenenter"",""trial"":1,""time"":28051}]",NA,NA,NA,NA,NA,5,#1CD855,#FA92F8,0,10,0,38,1,741.6000001430511,39,0,259,10,1,experiment,NA,NA,1,0.3,0.7,3,2,154,4,NA
fcp-trial,203,967499,0.0-164.0-0.0,voc_e2,11985,"[{""event"":""fullscreenenter"",""trial"":1,""time"":28051}]",NA,NA,NA,NA,NA,4,#3386FF,#D89F1C,0,0,0,38,1,672.5,39,0,261.59999990463257,0,1,experiment,NA,NA,2,0.5,0.5,5,4,155,4,NA
fcp-trial,204,970161,0.0-165.0-0.0,voc_e2,11985,"[{""event"":""fullscreenenter"",""trial"":1,""time"":28051}]",NA,NA,NA,NA,NA,2,#1CD855,#FA92F8,0,10,0,38,1,873.4000000953674,39,0,281.60000014305115,10,1,experiment,NA,NA,1,0.3,0.7,3,2,156,4,NA
fcp-trial,205,972711,0.0-166.0-0.0,voc_e2,11985,"[{""event"":""fullscreenenter"",""trial"":1,""time"":28051}]",NA,NA,NA,NA,NA,6,#1CD855,#FA92F8,0,10,0,38,1,412.40000009536743,39,0,629.5999999046326,10,1,experiment,NA,NA,1,0.3,0.7,3,2,157,4,NA
fcp-trial,206,976286,0.0-167.0-0.0,voc_e2,11985,"[{""event"":""fullscreenenter"",""trial"":1,""time"":28051}]",NA,NA,NA,NA,NA,2,#741CD8,#D8271C,0,10,0,38,1,530.5999999046326,39,0,1536.3999998569489,10,1,experiment,NA,NA,0,0.1,0.9,1,0,158,4,NA
fcp-trial,207,978464,0.0-168.0-0.0,voc_e2,11985,"[{""event"":""fullscreenenter"",""trial"":1,""time"":28051}]",NA,NA,NA,NA,NA,6,#D89F1C,#3386FF,0,0,1,38,1,405.09999990463257,37,1,262.2999999523163,0,1,experiment,NA,NA,2,0.5,0.5,4,5,159,4,NA
fcp-trial,208,980702,0.0-169.0-0.0,voc_e2,11985,"[{""event"":""fullscreenenter"",""trial"":1,""time"":28051}]",NA,NA,NA,NA,NA,0,#D8271C,#741CD8,10,0,1,38,1,306.7000000476837,37,1,421.2000000476837,10,1,experiment,NA,NA,0,0.9,0.1,0,1,160,4,NA
fcp-trial,209,982918,0.0-170.0-0.0,voc_e2,11985,"[{""event"":""fullscreenenter"",""trial"":1,""time"":28051}]",NA,NA,NA,NA,NA,2,#3386FF,#D89F1C,10,0,0,38,1,387.2000000476837,37,1,319.2000000476837,10,0,experiment,NA,NA,2,0.5,0.5,5,4,161,4,NA
fcp-trial,210,985060,0.0-171.0-0.0,voc_e2,11985,"[{""event"":""fullscreenenter"",""trial"":1,""time"":28051}]",NA,NA,NA,NA,NA,4,#1CD855,#FA92F8,10,10,0,38,1,314.60000014305115,39,0,321.10000014305115,10,1,experiment,NA,NA,1,0.3,0.7,3,2,162,4,NA
fcp-trial,211,987162,0.0-172.0-0.0,voc_e2,11985,"[{""event"":""fullscreenenter"",""trial"":1,""time"":28051}]",NA,NA,NA,NA,NA,1,#3386FF,#D89F1C,0,0,0,38,1,329.7999999523163,37,1,264.7000000476837,0,0,experiment,NA,NA,2,0.5,0.5,5,4,163,4,NA
fcp-trial,212,989345,0.0-173.0-0.0,voc_e2,11985,"[{""event"":""fullscreenenter"",""trial"":1,""time"":28051}]",NA,NA,NA,NA,NA,3,#741CD8,#D8271C,0,10,0,38,1,384.2999999523163,39,0,289.40000009536743,10,1,experiment,NA,NA,0,0.1,0.9,1,0,164,4,NA
fcp-trial,213,991875,0.0-174.0-0.0,voc_e2,11985,"[{""event"":""fullscreenenter"",""trial"":1,""time"":28051}]",NA,NA,NA,NA,NA,0,#1CD855,#FA92F8,10,10,0,38,1,416.5,39,0,604.8999998569489,10,1,experiment,NA,NA,1,0.3,0.7,3,2,165,4,NA
fcp-trial,214,994217,0.0-175.0-0.0,voc_e2,11985,"[{""event"":""fullscreenenter"",""trial"":1,""time"":28051}]",NA,NA,NA,NA,NA,0,#3386FF,#D89F1C,10,0,0,38,1,512.6000001430511,37,1,318.5,10,0,experiment,NA,NA,2,0.5,0.5,5,4,166,4,NA
fcp-trial,215,996446,0.0-176.0-0.0,voc_e2,11985,"[{""event"":""fullscreenenter"",""trial"":1,""time"":28051}]",NA,NA,NA,NA,NA,3,#1CD855,#FA92F8,10,10,0,38,1,405.89999985694885,39,0,312.7999999523163,10,1,experiment,NA,NA,1,0.3,0.7,3,2,167,4,NA
fcp-trial,216,998524,0.0-177.0-0.0,voc_e2,11985,"[{""event"":""fullscreenenter"",""trial"":1,""time"":28051}]",NA,NA,NA,NA,NA,3,#3386FF,#D89F1C,10,10,0,38,1,257.90000009536743,37,1,314.10000014305115,10,0,experiment,NA,NA,2,0.5,0.5,5,4,168,4,NA
fcp-trial,217,1000594,0.0-178.0-0.0,voc_e2,11985,"[{""event"":""fullscreenenter"",""trial"":1,""time"":28051}]",NA,NA,NA,NA,NA,2,#D89F1C,#3386FF,0,10,1,38,1,258.2000000476837,39,0,305.89999985694885,10,0,experiment,NA,NA,2,0.5,0.5,4,5,169,4,NA
fcp-trial,218,1002644,0.0-179.0-0.0,voc_e2,11985,"[{""event"":""fullscreenenter"",""trial"":1,""time"":28051}]",NA,NA,NA,NA,NA,3,#D89F1C,#3386FF,10,0,1,38,1,247.10000014305115,39,0,297,0,0,experiment,NA,NA,2,0.5,0.5,4,5,170,4,NA
fcp-trial,219,1004694,0.0-180.0-0.0,voc_e2,11985,"[{""event"":""fullscreenenter"",""trial"":1,""time"":28051}]",NA,NA,NA,NA,NA,5,#FA92F8,#1CD855,10,0,1,38,1,262.59999990463257,37,1,281,10,1,experiment,NA,NA,1,0.7,0.3,2,3,171,4,NA
fcp-trial,220,1008379,0.0-181.0-0.0,voc_e2,11985,"[{""event"":""fullscreenenter"",""trial"":1,""time"":28051}]",NA,NA,NA,NA,NA,5,#741CD8,#D8271C,0,10,0,40,0,1761.4000000953674,37,1,416.2999999523163,0,0,experiment,NA,NA,0,0.1,0.9,1,0,172,4,NA
fcp-trial,221,1010660,0.0-182.0-0.0,voc_e2,11985,"[{""event"":""fullscreenenter"",""trial"":1,""time"":28051}]",NA,NA,NA,NA,NA,6,#3386FF,#D89F1C,10,10,0,40,0,196.89999985694885,37,1,576.4000000953674,10,0,experiment,NA,NA,2,0.5,0.5,5,4,173,4,NA
fcp-trial,222,1012662,0.0-183.0-0.0,voc_e2,11985,"[{""event"":""fullscreenenter"",""trial"":1,""time"":28051}]",NA,NA,NA,NA,NA,4,#1CD855,#FA92F8,0,10,0,38,1,227,39,0,266.2999999523163,10,1,experiment,NA,NA,1,0.3,0.7,3,2,174,4,NA
fcp-trial,223,1014738,0.0-184.0-0.0,voc_e2,11985,"[{""event"":""fullscreenenter"",""trial"":1,""time"":28051}]",NA,NA,NA,NA,NA,6,#741CD8,#D8271C,0,10,0,40,0,267.2000000476837,39,0,300.2000000476837,10,1,experiment,NA,NA,0,0.1,0.9,1,0,175,4,NA
fcp-trial,224,1017215,0.0-185.0-0.0,voc_e2,11985,"[{""event"":""fullscreenenter"",""trial"":1,""time"":28051}]",NA,NA,NA,NA,NA,3,#1CD855,#FA92F8,0,0,0,40,0,217.09999990463257,39,0,748.7000000476837,0,1,experiment,NA,NA,1,0.3,0.7,3,2,176,4,NA
fcp-trial,225,1019709,0.0-186.0-0.0,voc_e2,11985,"[{""event"":""fullscreenenter"",""trial"":1,""time"":28051}]",NA,NA,NA,NA,NA,0,#D89F1C,#3386FF,10,0,1,40,0,456.2999999523163,37,1,529.0999999046326,10,1,experiment,NA,NA,2,0.5,0.5,4,5,177,4,NA
fcp-trial,226,1022013,0.0-187.0-0.0,voc_e2,11985,"[{""event"":""fullscreenenter"",""trial"":1,""time"":28051}]",NA,NA,NA,NA,NA,6,#1CD855,#FA92F8,0,10,0,40,0,439.7000000476837,39,0,356.2000000476837,10,1,experiment,NA,NA,1,0.3,0.7,3,2,178,4,NA
fcp-trial,227,1024213,0.0-188.0-0.0,voc_e2,11985,"[{""event"":""fullscreenenter"",""trial"":1,""time"":28051}]",NA,NA,NA,NA,NA,4,#741CD8,#D8271C,0,10,0,38,1,303.19999980926514,39,0,387.59999990463257,10,1,experiment,NA,NA,0,0.1,0.9,1,0,179,4,NA
fcp-trial,228,1026309,0.0-189.0-0.0,voc_e2,11985,"[{""event"":""fullscreenenter"",""trial"":1,""time"":28051}]",NA,NA,NA,NA,NA,0,#741CD8,#D8271C,0,10,0,38,1,221.5,39,0,367.10000014305115,10,1,experiment,NA,NA,0,0.1,0.9,1,0,180,4,NA
fcp-trial,229,1028478,0.0-190.0-0.0,voc_e2,11985,"[{""event"":""fullscreenenter"",""trial"":1,""time"":28051}]",NA,NA,NA,NA,NA,0,#1CD855,#FA92F8,10,10,0,38,1,406,39,0,255.8000001907349,10,1,experiment,NA,NA,1,0.3,0.7,3,2,181,5,NA
fcp-trial,230,1030543,0.0-191.0-0.0,voc_e2,11985,"[{""event"":""fullscreenenter"",""trial"":1,""time"":28051}]",NA,NA,NA,NA,NA,4,#D89F1C,#3386FF,10,10,1,40,0,255.5,39,0,302.39999985694885,10,0,experiment,NA,NA,2,0.5,0.5,4,5,182,5,NA
fcp-trial,231,1032897,0.0-192.0-0.0,voc_e2,11985,"[{""event"":""fullscreenenter"",""trial"":1,""time"":28051}]",NA,NA,NA,NA,NA,1,#D89F1C,#3386FF,0,10,1,40,0,427.2999999523163,37,1,416.2000000476837,0,1,experiment,NA,NA,2,0.5,0.5,4,5,183,5,NA
fcp-trial,232,1036494,0.0-193.0-0.0,voc_e2,11985,"[{""event"":""fullscreenenter"",""trial"":1,""time"":28051}]",NA,NA,NA,NA,NA,2,#D8271C,#741CD8,10,0,1,38,1,1674.2999999523163,37,1,415.7000000476837,10,1,experiment,NA,NA,0,0.9,0.1,0,1,184,5,NA
fcp-trial,233,1038666,0.0-194.0-0.0,voc_e2,11985,"[{""event"":""fullscreenenter"",""trial"":1,""time"":28051}]",NA,NA,NA,NA,NA,2,#1CD855,#FA92F8,0,0,0,40,0,281.2000000476837,39,0,382.60000014305115,0,1,experiment,NA,NA,1,0.3,0.7,3,2,185,5,NA
fcp-trial,234,1041010,0.0-195.0-0.0,voc_e2,11985,"[{""event"":""fullscreenenter"",""trial"":1,""time"":28051}]",NA,NA,NA,NA,NA,5,#D89F1C,#3386FF,10,0,1,38,1,540.7000000476837,39,0,297.40000009536743,0,0,experiment,NA,NA,2,0.5,0.5,4,5,186,5,NA
fcp-trial,235,1043144,0.0-196.0-0.0,voc_e2,11985,"[{""event"":""fullscreenenter"",""trial"":1,""time"":28051}]",NA,NA,NA,NA,NA,3,#741CD8,#D8271C,10,10,0,38,1,226.19999980926514,39,0,400.10000014305115,10,1,experiment,NA,NA,0,0.1,0.9,1,0,187,5,NA
fcp-trial,236,1045268,0.0-197.0-0.0,voc_e2,11985,"[{""event"":""fullscreenenter"",""trial"":1,""time"":28051}]",NA,NA,NA,NA,NA,1,#1CD855,#FA92F8,0,10,0,38,1,273.5,39,0,341.2000000476837,10,1,experiment,NA,NA,1,0.3,0.7,3,2,188,5,NA
fcp-trial,237,1047531,0.0-198.0-0.0,voc_e2,11985,"[{""event"":""fullscreenenter"",""trial"":1,""time"":28051}]",NA,NA,NA,NA,NA,1,#D8271C,#741CD8,0,0,1,38,1,421.90000009536743,37,1,332.09999990463257,0,1,experiment,NA,NA,0,0.9,0.1,0,1,189,5,NA
fcp-trial,238,1049579,0.0-199.0-0.0,voc_e2,11985,"[{""event"":""fullscreenenter"",""trial"":1,""time"":28051}]",NA,NA,NA,NA,NA,0,#FA92F8,#1CD855,0,0,1,38,1,116.20000004768372,37,1,423.90000009536743,0,1,experiment,NA,NA,1,0.7,0.3,2,3,190,5,NA
fcp-trial,239,1051627,0.0-200.0-0.0,voc_e2,11985,"[{""event"":""fullscreenenter"",""trial"":1,""time"":28051}]",NA,NA,NA,NA,NA,5,#741CD8,#D8271C,0,10,0,40,0,1.1000001430511475,39,0,540.2999999523163,10,1,experiment,NA,NA,0,0.1,0.9,1,0,191,5,NA
fcp-trial,240,1053944,0.0-201.0-0.0,voc_e2,11985,"[{""event"":""fullscreenenter"",""trial"":1,""time"":28051}]",NA,NA,NA,NA,NA,6,#D89F1C,#3386FF,0,10,1,40,0,243.29999995231628,39,0,565.9000000953674,10,0,experiment,NA,NA,2,0.5,0.5,4,5,192,5,NA
fcp-trial,241,1056098,0.0-202.0-0.0,voc_e2,11985,"[{""event"":""fullscreenenter"",""trial"":1,""time"":28051}]",NA,NA,NA,NA,NA,0,#741CD8,#D8271C,0,10,0,40,0,210.79999995231628,39,0,435.2999999523163,10,1,experiment,NA,NA,0,0.1,0.9,1,0,193,5,NA
fcp-trial,242,1058260,0.0-203.0-0.0,voc_e2,11985,"[{""event"":""fullscreenenter"",""trial"":1,""time"":28051}]",NA,NA,NA,NA,NA,2,#D8271C,#741CD8,10,0,1,38,1,240.09999990463257,37,1,414.2000000476837,10,1,experiment,NA,NA,0,0.9,0.1,0,1,194,5,NA
fcp-trial,243,1060309,0.0-204.0-0.0,voc_e2,11985,"[{""event"":""fullscreenenter"",""trial"":1,""time"":28051}]",NA,NA,NA,NA,NA,2,#1CD855,#FA92F8,0,0,0,38,1,236.60000014305115,39,0,303.2999999523163,0,1,experiment,NA,NA,1,0.3,0.7,3,2,195,5,NA
fcp-trial,244,1062554,0.0-205.0-0.0,voc_e2,11985,"[{""event"":""fullscreenenter"",""trial"":1,""time"":28051}]",NA,NA,NA,NA,NA,1,#1CD855,#FA92F8,0,10,0,38,1,464.7999999523163,39,0,269.90000009536743,10,1,experiment,NA,NA,1,0.3,0.7,3,2,196,5,NA
fcp-trial,245,1064688,0.0-206.0-0.0,voc_e2,11985,"[{""event"":""fullscreenenter"",""trial"":1,""time"":28051}]",NA,NA,NA,NA,NA,3,#3386FF,#D89F1C,10,10,0,38,1,285.2000000476837,37,1,337.7000000476837,10,0,experiment,NA,NA,2,0.5,0.5,5,4,197,5,NA
fcp-trial,246,1066851,0.0-207.0-0.0,voc_e2,11985,"[{""event"":""fullscreenenter"",""trial"":1,""time"":28051}]",NA,NA,NA,NA,NA,0,#D89F1C,#3386FF,0,10,1,38,1,329.7000000476837,39,0,322.60000014305115,10,0,experiment,NA,NA,2,0.5,0.5,4,5,198,5,NA
fcp-trial,247,1069096,0.0-208.0-0.0,voc_e2,11985,"[{""event"":""fullscreenenter"",""trial"":1,""time"":28051}]",NA,NA,NA,NA,NA,4,#D8271C,#741CD8,0,0,1,40,0,240.79999995231628,37,1,495.5,0,1,experiment,NA,NA,0,0.9,0.1,0,1,199,5,NA
fcp-trial,248,1071261,0.0-209.0-0.0,voc_e2,11985,"[{""event"":""fullscreenenter"",""trial"":1,""time"":28051}]",NA,NA,NA,NA,NA,1,#D8271C,#741CD8,10,0,1,40,0,115.5,37,1,538.5,10,1,experiment,NA,NA,0,0.9,0.1,0,1,200,5,NA
fcp-trial,249,1073628,0.0-210.0-0.0,voc_e2,11985,"[{""event"":""fullscreenenter"",""trial"":1,""time"":28051}]",NA,NA,NA,NA,NA,4,#1CD855,#FA92F8,10,0,0,40,0,402.10000014305115,39,0,455.2999999523163,0,1,experiment,NA,NA,1,0.3,0.7,3,2,201,5,NA
fcp-trial,250,1075971,0.0-211.0-0.0,voc_e2,11985,"[{""event"":""fullscreenenter"",""trial"":1,""time"":28051}]",NA,NA,NA,NA,NA,2,#D89F1C,#3386FF,10,0,1,40,0,460.7000000476837,39,0,375,0,0,experiment,NA,NA,2,0.5,0.5,4,5,202,5,NA
fcp-trial,251,1078721,0.0-212.0-0.0,voc_e2,11985,"[{""event"":""fullscreenenter"",""trial"":1,""time"":28051}]",NA,NA,NA,NA,NA,5,#FA92F8,#1CD855,0,0,1,40,0,501.7999999523163,39,0,738.7999999523163,0,0,experiment,NA,NA,1,0.7,0.3,2,3,203,5,NA
fcp-trial,252,1080877,0.0-213.0-0.0,voc_e2,11985,"[{""event"":""fullscreenenter"",""trial"":1,""time"":28051}]",NA,NA,NA,NA,NA,3,#D8271C,#741CD8,10,0,1,38,1,239.29999995231628,37,1,406.5,10,1,experiment,NA,NA,0,0.9,0.1,0,1,204,5,NA
fcp-trial,253,1083112,0.0-214.0-0.0,voc_e2,11985,"[{""event"":""fullscreenenter"",""trial"":1,""time"":28051}]",NA,NA,NA,NA,NA,5,#D89F1C,#3386FF,0,0,1,38,1,408.5,39,0,318.7999999523163,0,0,experiment,NA,NA,2,0.5,0.5,4,5,205,5,NA
fcp-trial,254,1085840,0.0-215.0-0.0,voc_e2,11985,"[{""event"":""fullscreenenter"",""trial"":1,""time"":28051}]",NA,NA,NA,NA,NA,6,#FA92F8,#1CD855,10,0,1,38,1,262.09999990463257,37,1,958,10,1,experiment,NA,NA,1,0.7,0.3,2,3,206,5,NA
fcp-trial,255,1088084,0.0-216.0-0.0,voc_e2,11985,"[{""event"":""fullscreenenter"",""trial"":1,""time"":28051}]",NA,NA,NA,NA,NA,6,#D8271C,#741CD8,10,10,1,38,1,267.7999999523163,37,1,466.90000009536743,10,1,experiment,NA,NA,0,0.9,0.1,0,1,207,5,NA
fcp-trial,256,1090478,0.0-217.0-0.0,voc_e2,11985,"[{""event"":""fullscreenenter"",""trial"":1,""time"":28051}]",NA,NA,NA,NA,NA,1,#D89F1C,#3386FF,10,10,1,38,1,522.7999999523163,39,0,363.09999990463257,10,0,experiment,NA,NA,2,0.5,0.5,4,5,208,5,NA
fcp-trial,257,1094461,0.0-218.0-0.0,voc_e2,11985,"[{""event"":""fullscreenenter"",""trial"":1,""time"":28051}]",NA,NA,NA,NA,NA,3,#FA92F8,#1CD855,0,0,1,38,1,541.5,37,1,1933,0,1,experiment,NA,NA,1,0.7,0.3,2,3,209,5,NA
fcp-trial,258,1097579,0.0-219.0-0.0,voc_e2,11985,"[{""event"":""fullscreenenter"",""trial"":1,""time"":28051}]",NA,NA,NA,NA,NA,4,#D89F1C,#3386FF,10,0,1,38,1,1201.7999999523163,39,0,407.89999985694885,0,0,experiment,NA,NA,2,0.5,0.5,4,5,210,5,NA
audio-instructions,259,1102507,0.0-220.0,voc_e2,11985,"[{""event"":""fullscreenenter"",""trial"":1,""time"":28051}]",NA,442.7000000476837,static/audio/pause.wav,NA,0,NA,NA,NA,NA,NA,NA,NA,NA,NA,NA,NA,NA,NA,NA,NA,NA,NA,NA,NA,NA,NA,NA,NA,NA,NA
fcp-trial,260,1104897,0.0-221.0-0.0,voc_e2,11985,"[{""event"":""fullscreenenter"",""trial"":1,""time"":28051}]",NA,NA,NA,NA,NA,4,#3386FF,#D89F1C,10,0,0,38,1,606.7000000476837,37,1,275.39999985694885,10,0,experiment,NA,NA,2,0.5,0.5,5,4,211,5,NA
fcp-trial,261,1106808,0.0-222.0-0.0,voc_e2,11985,"[{""event"":""fullscreenenter"",""trial"":1,""time"":28051}]",NA,NA,NA,NA,NA,5,#1CD855,#FA92F8,0,0,0,38,1,57.89999985694885,39,0,347.90000009536743,0,1,experiment,NA,NA,1,0.3,0.7,3,2,212,5,NA
fcp-trial,262,1108859,0.0-223.0-0.0,voc_e2,11985,"[{""event"":""fullscreenenter"",""trial"":1,""time"":28051}]",NA,NA,NA,NA,NA,0,#3386FF,#D89F1C,10,0,0,38,1,81.60000014305115,37,1,465.5,10,0,experiment,NA,NA,2,0.5,0.5,5,4,213,5,NA
fcp-trial,263,1111428,0.0-224.0-0.0,voc_e2,11985,"[{""event"":""fullscreenenter"",""trial"":1,""time"":28051}]",NA,NA,NA,NA,NA,0,#D8271C,#741CD8,0,0,1,38,1,772.4000000953674,37,1,288,0,1,experiment,NA,NA,0,0.9,0.1,0,1,214,5,NA
fcp-trial,264,1113627,0.0-225.0-0.0,voc_e2,11985,"[{""event"":""fullscreenenter"",""trial"":1,""time"":28051}]",NA,NA,NA,NA,NA,5,#3386FF,#D89F1C,0,10,0,40,0,194.79999995231628,39,0,497.2000000476837,10,1,experiment,NA,NA,2,0.5,0.5,5,4,215,5,NA
fcp-trial,265,1115680,0.0-226.0-0.0,voc_e2,11985,"[{""event"":""fullscreenenter"",""trial"":1,""time"":28051}]",NA,NA,NA,NA,NA,4,#741CD8,#D8271C,0,10,0,40,0,43.40000009536743,37,1,503.7000000476837,0,0,experiment,NA,NA,0,0.1,0.9,1,0,216,5,NA
fcp-trial,266,1117728,0.0-227.0-0.0,voc_e2,11985,"[{""event"":""fullscreenenter"",""trial"":1,""time"":28051}]",NA,NA,NA,NA,NA,1,#FA92F8,#1CD855,10,0,1,40,0,64.70000004768372,39,0,477,0,0,experiment,NA,NA,1,0.7,0.3,2,3,217,5,NA
fcp-trial,267,1119760,0.0-228.0-0.0,voc_e2,11985,"[{""event"":""fullscreenenter"",""trial"":1,""time"":28051}]",NA,NA,NA,NA,NA,2,#FA92F8,#1CD855,10,10,1,38,1,180.09999990463257,37,1,346.40000009536743,10,1,experiment,NA,NA,1,0.7,0.3,2,3,218,5,NA
fcp-trial,268,1121994,0.0-229.0-0.0,voc_e2,11985,"[{""event"":""fullscreenenter"",""trial"":1,""time"":28051}]",NA,NA,NA,NA,NA,0,#1CD855,#FA92F8,10,10,0,38,1,434.40000009536743,39,0,292,10,1,experiment,NA,NA,1,0.3,0.7,3,2,219,5,NA
fcp-trial,269,1124078,0.0-230.0-0.0,voc_e2,11985,"[{""event"":""fullscreenenter"",""trial"":1,""time"":28051}]",NA,NA,NA,NA,NA,3,#3386FF,#D89F1C,10,10,0,38,1,248.39999985694885,37,1,329.7000000476837,10,0,experiment,NA,NA,2,0.5,0.5,5,4,220,5,NA
fcp-trial,270,1126044,0.0-231.0-0.0,voc_e2,11985,"[{""event"":""fullscreenenter"",""trial"":1,""time"":28051}]",NA,NA,NA,NA,NA,3,#D8271C,#741CD8,10,0,1,38,1,30,37,1,431.2000000476837,10,1,experiment,NA,NA,0,0.9,0.1,0,1,221,5,NA
fcp-trial,271,1128111,0.0-232.0-0.0,voc_e2,11985,"[{""event"":""fullscreenenter"",""trial"":1,""time"":28051}]",NA,NA,NA,NA,NA,2,#D89F1C,#3386FF,0,10,1,38,1,245.40000009536743,39,0,316.89999985694885,10,0,experiment,NA,NA,2,0.5,0.5,4,5,222,5,NA
fcp-trial,272,1130360,0.0-233.0-0.0,voc_e2,11985,"[{""event"":""fullscreenenter"",""trial"":1,""time"":28051}]",NA,NA,NA,NA,NA,2,#D8271C,#741CD8,10,10,1,40,0,236.30000019073486,37,1,507.2999999523163,10,1,experiment,NA,NA,0,0.9,0.1,0,1,223,5,NA
fcp-trial,273,1132712,0.0-234.0-0.0,voc_e2,11985,"[{""event"":""fullscreenenter"",""trial"":1,""time"":28051}]",NA,NA,NA,NA,NA,6,#1CD855,#FA92F8,10,10,0,40,0,308.2000000476837,37,1,539.1999998092651,10,0,experiment,NA,NA,1,0.3,0.7,3,2,224,5,NA
fcp-trial,274,1135128,0.0-235.0-0.0,voc_e2,11985,"[{""event"":""fullscreenenter"",""trial"":1,""time"":28051}]",NA,NA,NA,NA,NA,6,#3386FF,#D89F1C,10,0,0,38,1,652.0999999046326,37,1,258.09999990463257,10,0,experiment,NA,NA,2,0.5,0.5,5,4,225,5,NA
fcp-trial,275,1137754,0.0-236.0-0.0,voc_e2,11985,"[{""event"":""fullscreenenter"",""trial"":1,""time"":28051}]",NA,NA,NA,NA,NA,6,#D8271C,#741CD8,10,0,1,38,1,252.79999995231628,37,1,862.8999998569489,10,1,experiment,NA,NA,0,0.9,0.1,0,1,226,6,NA
fcp-trial,276,1140049,0.0-237.0-0.0,voc_e2,11985,"[{""event"":""fullscreenenter"",""trial"":1,""time"":28051}]",NA,NA,NA,NA,NA,3,#FA92F8,#1CD855,10,10,1,40,0,194.5,39,0,590.2000000476837,10,0,experiment,NA,NA,1,0.7,0.3,2,3,227,6,NA
fcp-trial,277,1142428,0.0-238.0-0.0,voc_e2,11985,"[{""event"":""fullscreenenter"",""trial"":1,""time"":28051}]",NA,NA,NA,NA,NA,1,#D89F1C,#3386FF,10,0,1,38,1,565.5,39,0,305.7000000476837,0,0,experiment,NA,NA,2,0.5,0.5,4,5,228,6,NA
fcp-trial,278,1144404,0.0-239.0-0.0,voc_e2,11985,"[{""event"":""fullscreenenter"",""trial"":1,""time"":28051}]",NA,NA,NA,NA,NA,4,#1CD855,#FA92F8,0,0,0,38,1,176.20000004768372,37,1,294,0,0,experiment,NA,NA,1,0.3,0.7,3,2,229,6,NA
fcp-trial,279,1147843,0.0-240.0-0.0,voc_e2,11985,"[{""event"":""fullscreenenter"",""trial"":1,""time"":28051}]",NA,NA,NA,NA,NA,5,#741CD8,#D8271C,0,10,0,38,1,1067.2999999523163,39,0,864.4000000953674,10,1,experiment,NA,NA,0,0.1,0.9,1,0,230,6,NA
fcp-trial,280,1150048,0.0-241.0-0.0,voc_e2,11985,"[{""event"":""fullscreenenter"",""trial"":1,""time"":28051}]",NA,NA,NA,NA,NA,1,#D8271C,#741CD8,10,0,1,38,1,173.59999990463257,37,1,522.5,10,1,experiment,NA,NA,0,0.9,0.1,0,1,231,6,NA
fcp-trial,281,1152837,0.0-242.0-0.0,voc_e2,11985,"[{""event"":""fullscreenenter"",""trial"":1,""time"":28051}]",NA,NA,NA,NA,NA,1,#3386FF,#D89F1C,0,0,0,40,0,889.2000000476837,37,1,391.7999999523163,0,0,experiment,NA,NA,2,0.5,0.5,5,4,232,6,NA
fcp-trial,282,1155262,0.0-243.0-0.0,voc_e2,11985,"[{""event"":""fullscreenenter"",""trial"":1,""time"":28051}]",NA,NA,NA,NA,NA,6,#FA92F8,#1CD855,10,0,1,38,1,457.2000000476837,37,1,457.7999999523163,10,1,experiment,NA,NA,1,0.7,0.3,2,3,233,6,NA
fcp-trial,283,1157678,0.0-244.0-0.0,voc_e2,11985,"[{""event"":""fullscreenenter"",""trial"":1,""time"":28051}]",NA,NA,NA,NA,NA,1,#1CD855,#FA92F8,0,0,0,40,0,377.40000009536743,37,1,531.3999998569489,0,0,experiment,NA,NA,1,0.3,0.7,3,2,234,6,NA
fcp-trial,284,1160165,0.0-245.0-0.0,voc_e2,11985,"[{""event"":""fullscreenenter"",""trial"":1,""time"":28051}]",NA,NA,NA,NA,NA,3,#D8271C,#741CD8,10,0,1,40,0,166.20000004768372,39,0,813.2000000476837,0,0,experiment,NA,NA,0,0.9,0.1,0,1,235,6,NA
fcp-trial,285,1162295,0.0-246.0-0.0,voc_e2,11985,"[{""event"":""fullscreenenter"",""trial"":1,""time"":28051}]",NA,NA,NA,NA,NA,5,#3386FF,#D89F1C,10,10,0,40,0,175,37,1,448,10,0,experiment,NA,NA,2,0.5,0.5,5,4,236,6,NA
fcp-trial,286,1164790,0.0-247.0-0.0,voc_e2,11985,"[{""event"":""fullscreenenter"",""trial"":1,""time"":28051}]",NA,NA,NA,NA,NA,2,#D89F1C,#3386FF,0,0,1,40,0,527.3999998569489,39,0,460.7000000476837,0,0,experiment,NA,NA,2,0.5,0.5,4,5,237,6,NA
fcp-trial,287,1167034,0.0-248.0-0.0,voc_e2,11985,"[{""event"":""fullscreenenter"",""trial"":1,""time"":28051}]",NA,NA,NA,NA,NA,4,#3386FF,#D89F1C,10,10,0,40,0,199,39,0,536.7999999523163,10,1,experiment,NA,NA,2,0.5,0.5,5,4,238,6,NA
fcp-trial,288,1169071,0.0-249.0-0.0,voc_e2,11985,"[{""event"":""fullscreenenter"",""trial"":1,""time"":28051}]",NA,NA,NA,NA,NA,5,#FA92F8,#1CD855,10,10,1,38,1,195.20000004768372,37,1,332.60000014305115,10,1,experiment,NA,NA,1,0.7,0.3,2,3,239,6,NA
fcp-trial,289,1171335,0.0-250.0-0.0,voc_e2,11985,"[{""event"":""fullscreenenter"",""trial"":1,""time"":28051}]",NA,NA,NA,NA,NA,4,#D8271C,#741CD8,10,0,1,38,1,207.10000014305115,37,1,549.3000001907349,10,1,experiment,NA,NA,0,0.9,0.1,0,1,240,6,NA
fcp-trial,290,1173461,0.0-251.0-0.0,voc_e2,11985,"[{""event"":""fullscreenenter"",""trial"":1,""time"":28051}]",NA,NA,NA,NA,NA,0,#FA92F8,#1CD855,10,10,1,38,1,305.59999990463257,37,1,314,10,1,experiment,NA,NA,1,0.7,0.3,2,3,241,6,NA
fcp-trial,291,1175864,0.0-252.0-0.0,voc_e2,11985,"[{""event"":""fullscreenenter"",""trial"":1,""time"":28051}]",NA,NA,NA,NA,NA,0,#D8271C,#741CD8,10,0,1,38,1,529.6000001430511,37,1,366.10000014305115,10,1,experiment,NA,NA,0,0.9,0.1,0,1,242,6,NA
fcp-trial,292,1178305,0.0-253.0-0.0,voc_e2,11985,"[{""event"":""fullscreenenter"",""trial"":1,""time"":28051}]",NA,NA,NA,NA,NA,0,#3386FF,#D89F1C,0,0,0,38,1,608.1999998092651,37,1,324.19999980926514,0,0,experiment,NA,NA,2,0.5,0.5,5,4,243,6,NA
fcp-trial,293,1180671,0.0-254.0-0.0,voc_e2,11985,"[{""event"":""fullscreenenter"",""trial"":1,""time"":28051}]",NA,NA,NA,NA,NA,3,#1CD855,#FA92F8,0,10,0,38,1,197.70000004768372,39,0,658.5,10,1,experiment,NA,NA,1,0.3,0.7,3,2,244,6,NA
fcp-trial,294,1183196,0.0-255.0-0.0,voc_e2,11985,"[{""event"":""fullscreenenter"",""trial"":1,""time"":28051}]",NA,NA,NA,NA,NA,3,#D89F1C,#3386FF,10,10,1,38,1,406.2999999523163,39,0,608.0999999046326,10,0,experiment,NA,NA,2,0.5,0.5,4,5,245,6,NA
fcp-trial,295,1185375,0.0-256.0-0.0,voc_e2,11985,"[{""event"":""fullscreenenter"",""trial"":1,""time"":28051}]",NA,NA,NA,NA,NA,6,#D8271C,#741CD8,10,0,1,38,1,191.89999985694885,37,1,481.7000000476837,10,1,experiment,NA,NA,0,0.9,0.1,0,1,246,6,NA
fcp-trial,296,1187972,0.0-257.0-0.0,voc_e2,11985,"[{""event"":""fullscreenenter"",""trial"":1,""time"":28051}]",NA,NA,NA,NA,NA,4,#FA92F8,#1CD855,10,0,1,38,1,682.7999999523163,37,1,408,10,1,experiment,NA,NA,1,0.7,0.3,2,3,247,6,NA
fcp-trial,297,1190561,0.0-258.0-0.0,voc_e2,11985,"[{""event"":""fullscreenenter"",""trial"":1,""time"":28051}]",NA,NA,NA,NA,NA,2,#FA92F8,#1CD855,10,0,1,40,0,474.09999990463257,39,0,605.3999998569489,0,0,experiment,NA,NA,1,0.7,0.3,2,3,248,6,NA
fcp-trial,298,1192729,0.0-259.0-0.0,voc_e2,11985,"[{""event"":""fullscreenenter"",""trial"":1,""time"":28051}]",NA,NA,NA,NA,NA,2,#741CD8,#D8271C,0,10,0,40,0,112,37,1,550,0,0,experiment,NA,NA,0,0.1,0.9,1,0,249,6,NA
fcp-trial,299,1195380,0.0-260.0-0.0,voc_e2,11985,"[{""event"":""fullscreenenter"",""trial"":1,""time"":28051}]",NA,NA,NA,NA,NA,6,#3386FF,#D89F1C,10,0,0,40,0,618.2999999523163,37,1,522.6000001430511,10,0,experiment,NA,NA,2,0.5,0.5,5,4,250,6,NA
fcp-trial,300,1197469,0.0-261.0-0.0,voc_e2,11985,"[{""event"":""fullscreenenter"",""trial"":1,""time"":28051}]",NA,NA,NA,NA,NA,1,#741CD8,#D8271C,0,10,0,38,1,209,39,0,371.09999990463257,10,1,experiment,NA,NA,0,0.1,0.9,1,0,251,6,NA
fcp-trial,301,1199738,0.0-262.0-0.0,voc_e2,11985,"[{""event"":""fullscreenenter"",""trial"":1,""time"":28051}]",NA,NA,NA,NA,NA,5,#D8271C,#741CD8,10,0,1,38,1,386.90000009536743,37,1,374.59999990463257,10,1,experiment,NA,NA,0,0.9,0.1,0,1,252,6,NA
fcp-trial,302,1201944,0.0-263.0-0.0,voc_e2,11985,"[{""event"":""fullscreenenter"",""trial"":1,""time"":28051}]",NA,NA,NA,NA,NA,2,#741CD8,#D8271C,0,10,0,38,1,261.80000019073486,39,0,438.39999985694885,10,1,experiment,NA,NA,0,0.1,0.9,1,0,253,6,NA
fcp-trial,303,1204283,0.0-264.0-0.0,voc_e2,11985,"[{""event"":""fullscreenenter"",""trial"":1,""time"":28051}]",NA,NA,NA,NA,NA,6,#D89F1C,#3386FF,0,10,1,38,1,377.2999999523163,37,1,455.2999999523163,0,1,experiment,NA,NA,2,0.5,0.5,4,5,254,6,NA
fcp-trial,304,1206346,0.0-265.0-0.0,voc_e2,11985,"[{""event"":""fullscreenenter"",""trial"":1,""time"":28051}]",NA,NA,NA,NA,NA,5,#D89F1C,#3386FF,0,0,1,38,1,82.19999980926514,39,0,473.89999985694885,0,0,experiment,NA,NA,2,0.5,0.5,4,5,255,6,NA
fcp-trial,305,1208444,0.0-266.0-0.0,voc_e2,11985,"[{""event"":""fullscreenenter"",""trial"":1,""time"":28051}]",NA,NA,NA,NA,NA,5,#741CD8,#D8271C,0,10,0,38,1,210.90000009536743,39,0,379.5,10,1,experiment,NA,NA,0,0.1,0.9,1,0,256,6,NA
fcp-trial,306,1210827,0.0-267.0-0.0,voc_e2,11985,"[{""event"":""fullscreenenter"",""trial"":1,""time"":28051}]",NA,NA,NA,NA,NA,3,#FA92F8,#1CD855,0,10,1,40,0,193.70000004768372,39,0,682.5,10,0,experiment,NA,NA,1,0.7,0.3,2,3,257,6,NA
fcp-trial,307,1212888,0.0-268.0-0.0,voc_e2,11985,"[{""event"":""fullscreenenter"",""trial"":1,""time"":28051}]",NA,NA,NA,NA,NA,0,#741CD8,#D8271C,0,10,0,38,1,200.59999990463257,39,0,352.69999980926514,10,1,experiment,NA,NA,0,0.1,0.9,1,0,258,6,NA
fcp-trial,308,1214930,0.0-269.0-0.0,voc_e2,11985,"[{""event"":""fullscreenenter"",""trial"":1,""time"":28051}]",NA,NA,NA,NA,NA,3,#3386FF,#D89F1C,0,10,0,38,1,216.90000009536743,37,1,317.7000000476837,0,0,experiment,NA,NA,2,0.5,0.5,5,4,259,6,NA
fcp-trial,309,1217044,0.0-270.0-0.0,voc_e2,11985,"[{""event"":""fullscreenenter"",""trial"":1,""time"":28051}]",NA,NA,NA,NA,NA,1,#1CD855,#FA92F8,0,10,0,38,1,274,39,0,333.89999985694885,10,1,experiment,NA,NA,1,0.3,0.7,3,2,260,6,NA
fcp-trial,310,1219389,0.0-271.0-0.0,voc_e2,11985,"[{""event"":""fullscreenenter"",""trial"":1,""time"":28051}]",NA,NA,NA,NA,NA,0,#1CD855,#FA92F8,10,0,0,38,1,394.2999999523163,39,0,443.7000000476837,0,1,experiment,NA,NA,1,0.3,0.7,3,2,261,6,NA
fcp-trial,311,1221480,0.0-272.0-0.0,voc_e2,11985,"[{""event"":""fullscreenenter"",""trial"":1,""time"":28051}]",NA,NA,NA,NA,NA,2,#FA92F8,#1CD855,10,10,1,38,1,243.79999995231628,37,1,339.2999999523163,10,1,experiment,NA,NA,1,0.7,0.3,2,3,262,6,NA
fcp-trial,312,1223710,0.0-273.0-0.0,voc_e2,11985,"[{""event"":""fullscreenenter"",""trial"":1,""time"":28051}]",NA,NA,NA,NA,NA,3,#741CD8,#D8271C,0,10,0,38,1,373.2000000476837,39,0,350.60000014305115,10,1,experiment,NA,NA,0,0.1,0.9,1,0,263,6,NA
fcp-trial,313,1226078,0.0-274.0-0.0,voc_e2,11985,"[{""event"":""fullscreenenter"",""trial"":1,""time"":28051}]",NA,NA,NA,NA,NA,4,#D89F1C,#3386FF,10,10,1,38,1,329.59999990463257,39,0,531.5,10,0,experiment,NA,NA,2,0.5,0.5,4,5,264,6,NA
fcp-trial,314,1228228,0.0-275.0-0.0,voc_e2,11985,"[{""event"":""fullscreenenter"",""trial"":1,""time"":28051}]",NA,NA,NA,NA,NA,1,#D8271C,#741CD8,0,0,1,40,0,246.5,39,0,397.5,0,0,experiment,NA,NA,0,0.9,0.1,0,1,265,6,NA
fcp-trial,315,1230394,0.0-276.0-0.0,voc_e2,11985,"[{""event"":""fullscreenenter"",""trial"":1,""time"":28051}]",NA,NA,NA,NA,NA,6,#D8271C,#741CD8,0,0,1,40,0,177.10000014305115,39,0,481.90000009536743,0,0,experiment,NA,NA,0,0.9,0.1,0,1,266,6,NA
fcp-trial,316,1232572,0.0-277.0-0.0,voc_e2,11985,"[{""event"":""fullscreenenter"",""trial"":1,""time"":28051}]",NA,NA,NA,NA,NA,5,#FA92F8,#1CD855,0,0,1,40,0,199.40000009536743,37,1,468.5,0,1,experiment,NA,NA,1,0.7,0.3,2,3,267,6,NA
fcp-trial,317,1235329,0.0-278.0-0.0,voc_e2,11985,"[{""event"":""fullscreenenter"",""trial"":1,""time"":28051}]",NA,NA,NA,NA,NA,6,#FA92F8,#1CD855,10,0,1,40,0,783.7000000476837,39,0,464.2999999523163,0,0,experiment,NA,NA,1,0.7,0.3,2,3,268,6,NA
fcp-trial,318,1237549,0.0-279.0-0.0,voc_e2,11985,"[{""event"":""fullscreenenter"",""trial"":1,""time"":28051}]",NA,NA,NA,NA,NA,0,#3386FF,#D89F1C,10,10,0,40,0,337.7999999523163,37,1,375,10,0,experiment,NA,NA,2,0.5,0.5,5,4,269,6,NA
fcp-trial,319,1239722,0.0-280.0-0.0,voc_e2,11985,"[{""event"":""fullscreenenter"",""trial"":1,""time"":28051}]",NA,NA,NA,NA,NA,4,#1CD855,#FA92F8,0,10,0,38,1,261.2999999523163,39,0,402.09999990463257,10,1,experiment,NA,NA,1,0.3,0.7,3,2,270,6,NA
fcp-trial,320,1242644,0.0-281.0-0.0,voc_e2,11985,"[{""event"":""fullscreenenter"",""trial"":1,""time"":28051}]",NA,NA,NA,NA,NA,4,#741CD8,#D8271C,0,10,0,38,1,882.5,39,0,531.9000000953674,10,1,experiment,NA,NA,0,0.1,0.9,1,0,271,7,NA
fcp-trial,321,1244746,0.0-282.0-0.0,voc_e2,11985,"[{""event"":""fullscreenenter"",""trial"":1,""time"":28051}]",NA,NA,NA,NA,NA,1,#3386FF,#D89F1C,0,0,0,38,1,226.70000004768372,37,1,367.39999985694885,0,0,experiment,NA,NA,2,0.5,0.5,5,4,272,7,NA
fcp-trial,322,1246762,0.0-283.0-0.0,voc_e2,11985,"[{""event"":""fullscreenenter"",""trial"":1,""time"":28051}]",NA,NA,NA,NA,NA,2,#3386FF,#D89F1C,10,10,0,38,1,44.09999990463257,37,1,463.5,10,0,experiment,NA,NA,2,0.5,0.5,5,4,273,7,NA
fcp-trial,323,1248929,0.0-284.0-0.0,voc_e2,11985,"[{""event"":""fullscreenenter"",""trial"":1,""time"":28051}]",NA,NA,NA,NA,NA,3,#741CD8,#D8271C,0,10,0,38,1,327.7000000476837,39,0,332.90000009536743,10,1,experiment,NA,NA,0,0.1,0.9,1,0,274,7,NA
fcp-trial,324,1250910,0.0-285.0-0.0,voc_e2,11985,"[{""event"":""fullscreenenter"",""trial"":1,""time"":28051}]",NA,NA,NA,NA,NA,3,#3386FF,#D89F1C,10,10,0,38,1,30.899999856948853,37,1,443.5,10,0,experiment,NA,NA,2,0.5,0.5,5,4,275,7,NA
fcp-trial,325,1254904,0.0-286.0-0.0,voc_e2,11985,"[{""event"":""fullscreenenter"",""trial"":1,""time"":28051}]",NA,NA,NA,NA,NA,6,#FA92F8,#1CD855,10,0,1,38,1,741.7999999523163,37,1,1747.3999998569489,10,1,experiment,NA,NA,1,0.7,0.3,2,3,276,7,NA
fcp-trial,326,1257167,0.0-287.0-0.0,voc_e2,11985,"[{""event"":""fullscreenenter"",""trial"":1,""time"":28051}]",NA,NA,NA,NA,NA,0,#D8271C,#741CD8,10,0,1,38,1,416.40000009536743,39,0,336.60000014305115,0,0,experiment,NA,NA,0,0.9,0.1,0,1,277,7,NA
fcp-trial,327,1259539,0.0-288.0-0.0,voc_e2,11985,"[{""event"":""fullscreenenter"",""trial"":1,""time"":28051}]",NA,NA,NA,NA,NA,6,#3386FF,#D89F1C,10,10,0,38,1,482.60000014305115,37,1,381.2999999523163,10,0,experiment,NA,NA,2,0.5,0.5,5,4,278,7,NA
fcp-trial,328,1261812,0.0-289.0-0.0,voc_e2,11985,"[{""event"":""fullscreenenter"",""trial"":1,""time"":28051}]",NA,NA,NA,NA,NA,4,#1CD855,#FA92F8,0,0,0,38,1,398.7999999523163,39,0,365.30000019073486,0,1,experiment,NA,NA,1,0.3,0.7,3,2,279,7,NA
fcp-trial,329,1264129,0.0-290.0-0.0,voc_e2,11985,"[{""event"":""fullscreenenter"",""trial"":1,""time"":28051}]",NA,NA,NA,NA,NA,1,#3386FF,#D89F1C,0,0,0,38,1,376.89999985694885,37,1,432.69999980926514,0,0,experiment,NA,NA,2,0.5,0.5,5,4,280,7,NA
fcp-trial,330,1267004,0.0-291.0-0.0,voc_e2,11985,"[{""event"":""fullscreenenter"",""trial"":1,""time"":28051}]",NA,NA,NA,NA,NA,1,#741CD8,#D8271C,0,10,0,38,1,329.90000009536743,39,0,1036.5,10,1,experiment,NA,NA,0,0.1,0.9,1,0,281,7,NA
fcp-trial,331,1269229,0.0-292.0-0.0,voc_e2,11985,"[{""event"":""fullscreenenter"",""trial"":1,""time"":28051}]",NA,NA,NA,NA,NA,4,#D89F1C,#3386FF,0,10,1,40,0,267.39999985694885,39,0,448.2000000476837,10,0,experiment,NA,NA,2,0.5,0.5,4,5,282,7,NA
fcp-trial,332,1271279,0.0-293.0-0.0,voc_e2,11985,"[{""event"":""fullscreenenter"",""trial"":1,""time"":28051}]",NA,NA,NA,NA,NA,1,#1CD855,#FA92F8,0,10,0,38,1,224.39999985694885,39,0,316.2999999523163,10,1,experiment,NA,NA,1,0.3,0.7,3,2,283,7,NA
fcp-trial,333,1273598,0.0-294.0-0.0,voc_e2,11985,"[{""event"":""fullscreenenter"",""trial"":1,""time"":28051}]",NA,NA,NA,NA,NA,6,#D8271C,#741CD8,10,0,1,40,0,143.39999985694885,39,0,667.5,0,0,experiment,NA,NA,0,0.9,0.1,0,1,284,7,NA
fcp-trial,334,1275611,0.0-295.0-0.0,voc_e2,11985,"[{""event"":""fullscreenenter"",""trial"":1,""time"":28051}]",NA,NA,NA,NA,NA,5,#3386FF,#D89F1C,10,10,0,38,1,73.70000004768372,37,1,434.19999980926514,10,0,experiment,NA,NA,2,0.5,0.5,5,4,285,7,NA
fcp-trial,335,1277933,0.0-296.0-0.0,voc_e2,11985,"[{""event"":""fullscreenenter"",""trial"":1,""time"":28051}]",NA,NA,NA,NA,NA,3,#FA92F8,#1CD855,10,10,1,40,0,217.70000004768372,39,0,592.2000000476837,10,0,experiment,NA,NA,1,0.7,0.3,2,3,286,7,NA
fcp-trial,336,1280380,0.0-297.0-0.0,voc_e2,11985,"[{""event"":""fullscreenenter"",""trial"":1,""time"":28051}]",NA,NA,NA,NA,NA,2,#D8271C,#741CD8,10,0,1,38,1,193.70000004768372,37,1,745.2999999523163,10,1,experiment,NA,NA,0,0.9,0.1,0,1,287,7,NA
fcp-trial,337,1282528,0.0-298.0-0.0,voc_e2,11985,"[{""event"":""fullscreenenter"",""trial"":1,""time"":28051}]",NA,NA,NA,NA,NA,2,#1CD855,#FA92F8,10,10,0,38,1,309.5,39,0,330.40000009536743,10,1,experiment,NA,NA,1,0.3,0.7,3,2,288,7,NA
fcp-trial,338,1285896,0.0-299.0-0.0,voc_e2,11985,"[{""event"":""fullscreenenter"",""trial"":1,""time"":28051}]",NA,NA,NA,NA,NA,2,#D89F1C,#3386FF,10,10,1,38,1,1106.1000001430511,39,0,755.1000001430511,10,0,experiment,NA,NA,2,0.5,0.5,4,5,289,7,NA
fcp-trial,339,1290121,0.0-300.0-0.0,voc_e2,11985,"[{""event"":""fullscreenenter"",""trial"":1,""time"":28051}]",NA,NA,NA,NA,NA,0,#FA92F8,#1CD855,10,0,1,38,1,2431.7999999523163,37,1,283.59999990463257,10,1,experiment,NA,NA,1,0.7,0.3,2,3,290,7,NA
fcp-trial,340,1292328,0.0-301.0-0.0,voc_e2,11985,"[{""event"":""fullscreenenter"",""trial"":1,""time"":28051}]",NA,NA,NA,NA,NA,4,#741CD8,#D8271C,0,10,0,40,0,83.70000004768372,37,1,614,0,0,experiment,NA,NA,0,0.1,0.9,1,0,291,7,NA
fcp-trial,341,1294788,0.0-302.0-0.0,voc_e2,11985,"[{""event"":""fullscreenenter"",""trial"":1,""time"":28051}]",NA,NA,NA,NA,NA,5,#1CD855,#FA92F8,0,10,0,40,0,536.5999999046326,39,0,418,10,1,experiment,NA,NA,1,0.3,0.7,3,2,292,7,NA
fcp-trial,342,1296893,0.0-303.0-0.0,voc_e2,11985,"[{""event"":""fullscreenenter"",""trial"":1,""time"":28051}]",NA,NA,NA,NA,NA,5,#741CD8,#D8271C,10,10,0,38,1,277.7999999523163,37,1,320,10,0,experiment,NA,NA,0,0.1,0.9,1,0,293,7,NA
fcp-trial,343,1299195,0.0-304.0-0.0,voc_e2,11985,"[{""event"":""fullscreenenter"",""trial"":1,""time"":28051}]",NA,NA,NA,NA,NA,0,#D89F1C,#3386FF,0,10,1,38,1,260.7999999523163,39,0,533.2000000476837,10,0,experiment,NA,NA,2,0.5,0.5,4,5,294,7,NA
fcp-trial,344,1301428,0.0-305.0-0.0,voc_e2,11985,"[{""event"":""fullscreenenter"",""trial"":1,""time"":28051}]",NA,NA,NA,NA,NA,0,#FA92F8,#1CD855,10,0,1,38,1,385.40000009536743,37,1,339,10,1,experiment,NA,NA,1,0.7,0.3,2,3,295,7,NA
fcp-trial,345,1303459,0.0-306.0-0.0,voc_e2,11985,"[{""event"":""fullscreenenter"",""trial"":1,""time"":28051}]",NA,NA,NA,NA,NA,6,#FA92F8,#1CD855,10,10,1,38,1,126.20000004768372,37,1,398.39999985694885,10,1,experiment,NA,NA,1,0.7,0.3,2,3,296,7,NA
fcp-trial,346,1306018,0.0-307.0-0.0,voc_e2,11985,"[{""event"":""fullscreenenter"",""trial"":1,""time"":28051}]",NA,NA,NA,NA,NA,2,#D89F1C,#3386FF,10,10,1,38,1,687.3999998569489,39,0,363,10,0,experiment,NA,NA,2,0.5,0.5,4,5,297,7,NA
fcp-trial,347,1308362,0.0-308.0-0.0,voc_e2,11985,"[{""event"":""fullscreenenter"",""trial"":1,""time"":28051}]",NA,NA,NA,NA,NA,5,#FA92F8,#1CD855,10,10,1,38,1,489.39999985694885,37,1,347.90000009536743,10,1,experiment,NA,NA,1,0.7,0.3,2,3,298,7,NA
fcp-trial,348,1310583,0.0-309.0-0.0,voc_e2,11985,"[{""event"":""fullscreenenter"",""trial"":1,""time"":28051}]",NA,NA,NA,NA,NA,0,#741CD8,#D8271C,0,10,0,38,1,278.09999990463257,39,0,434.5,10,1,experiment,NA,NA,0,0.1,0.9,1,0,299,7,NA
fcp-trial,349,1313562,0.0-310.0-0.0,voc_e2,11985,"[{""event"":""fullscreenenter"",""trial"":1,""time"":28051}]",NA,NA,NA,NA,NA,5,#3386FF,#D89F1C,10,10,0,38,1,991.7999999523163,37,1,478.7999999523163,10,0,experiment,NA,NA,2,0.5,0.5,5,4,300,7,NA
fcp-trial,350,1315879,0.0-311.0-0.0,voc_e2,11985,"[{""event"":""fullscreenenter"",""trial"":1,""time"":28051}]",NA,NA,NA,NA,NA,1,#FA92F8,#1CD855,10,0,1,40,0,400.2000000476837,39,0,407.5,0,0,experiment,NA,NA,1,0.7,0.3,2,3,301,7,NA
fcp-trial,351,1318081,0.0-312.0-0.0,voc_e2,11985,"[{""event"":""fullscreenenter"",""trial"":1,""time"":28051}]",NA,NA,NA,NA,NA,6,#741CD8,#D8271C,0,10,0,38,1,235.70000004768372,39,0,456.7000000476837,10,1,experiment,NA,NA,0,0.1,0.9,1,0,302,7,NA
fcp-trial,352,1320296,0.0-313.0-0.0,voc_e2,11985,"[{""event"":""fullscreenenter"",""trial"":1,""time"":28051}]",NA,NA,NA,NA,NA,2,#1CD855,#FA92F8,0,10,0,38,1,306.2000000476837,37,1,399.2999999523163,0,0,experiment,NA,NA,1,0.3,0.7,3,2,303,7,NA
fcp-trial,353,1322572,0.0-314.0-0.0,voc_e2,11985,"[{""event"":""fullscreenenter"",""trial"":1,""time"":28051}]",NA,NA,NA,NA,NA,2,#741CD8,#D8271C,0,10,0,38,1,208.70000004768372,39,0,558.2000000476837,10,1,experiment,NA,NA,0,0.1,0.9,1,0,304,7,NA
fcp-trial,354,1324796,0.0-315.0-0.0,voc_e2,11985,"[{""event"":""fullscreenenter"",""trial"":1,""time"":28051}]",NA,NA,NA,NA,NA,0,#3386FF,#D89F1C,0,10,0,38,1,422.2999999523163,37,1,289.89999985694885,0,0,experiment,NA,NA,2,0.5,0.5,5,4,305,7,NA
fcp-trial,355,1327445,0.0-316.0-0.0,voc_e2,11985,"[{""event"":""fullscreenenter"",""trial"":1,""time"":28051}]",NA,NA,NA,NA,NA,4,#3386FF,#D89F1C,10,0,0,38,1,278.7000000476837,37,1,864.9000000953674,10,0,experiment,NA,NA,2,0.5,0.5,5,4,306,7,NA
fcp-trial,356,1329628,0.0-317.0-0.0,voc_e2,11985,"[{""event"":""fullscreenenter"",""trial"":1,""time"":28051}]",NA,NA,NA,NA,NA,3,#1CD855,#FA92F8,0,10,0,38,1,338.5,39,0,337.90000009536743,10,1,experiment,NA,NA,1,0.3,0.7,3,2,307,7,NA
fcp-trial,357,1332302,0.0-318.0-0.0,voc_e2,11985,"[{""event"":""fullscreenenter"",""trial"":1,""time"":28051}]",NA,NA,NA,NA,NA,1,#741CD8,#D8271C,0,10,0,38,1,379.2000000476837,39,0,785.2999999523163,10,1,experiment,NA,NA,0,0.1,0.9,1,0,308,7,NA
fcp-trial,358,1334811,0.0-319.0-0.0,voc_e2,11985,"[{""event"":""fullscreenenter"",""trial"":1,""time"":28051}]",NA,NA,NA,NA,NA,5,#741CD8,#D8271C,0,10,0,38,1,310.2000000476837,39,0,689.5999999046326,10,1,experiment,NA,NA,0,0.1,0.9,1,0,309,7,NA
fcp-trial,359,1337379,0.0-320.0-0.0,voc_e2,11985,"[{""event"":""fullscreenenter"",""trial"":1,""time"":28051}]",NA,NA,NA,NA,NA,6,#3386FF,#D89F1C,0,0,0,40,0,300.2999999523163,39,0,757.8000001907349,0,1,experiment,NA,NA,2,0.5,0.5,5,4,310,7,NA
fcp-trial,360,1339655,0.0-321.0-0.0,voc_e2,11985,"[{""event"":""fullscreenenter"",""trial"":1,""time"":28051}]",NA,NA,NA,NA,NA,3,#741CD8,#D8271C,0,10,0,40,0,242.60000014305115,39,0,525.5,10,1,experiment,NA,NA,0,0.1,0.9,1,0,311,7,NA
fcp-trial,361,1341929,0.0-322.0-0.0,voc_e2,11985,"[{""event"":""fullscreenenter"",""trial"":1,""time"":28051}]",NA,NA,NA,NA,NA,4,#FA92F8,#1CD855,10,0,1,40,0,302.59999990463257,37,1,464.10000014305115,10,1,experiment,NA,NA,1,0.7,0.3,2,3,312,7,NA
fcp-trial,362,1344295,0.0-323.0-0.0,voc_e2,11985,"[{""event"":""fullscreenenter"",""trial"":1,""time"":28051}]",NA,NA,NA,NA,NA,1,#3386FF,#D89F1C,10,0,0,40,0,284.09999990463257,39,0,572.6000001430511,0,1,experiment,NA,NA,2,0.5,0.5,5,4,313,7,NA
fcp-trial,363,1346546,0.0-324.0-0.0,voc_e2,11985,"[{""event"":""fullscreenenter"",""trial"":1,""time"":28051}]",NA,NA,NA,NA,NA,3,#D89F1C,#3386FF,0,0,1,40,0,294.2999999523163,39,0,446.5,0,0,experiment,NA,NA,2,0.5,0.5,4,5,314,7,NA
fcp-trial,364,1348762,0.0-325.0-0.0,voc_e2,11985,"[{""event"":""fullscreenenter"",""trial"":1,""time"":28051}]",NA,NA,NA,NA,NA,4,#741CD8,#D8271C,0,0,0,38,1,182.39999985694885,39,0,525,0,1,experiment,NA,NA,0,0.1,0.9,1,0,315,7,NA
audio-instructions,365,1355277,0.0-326.0,voc_e2,11985,"[{""event"":""fullscreenenter"",""trial"":1,""time"":28051}]",NA,841.1000001430511,static/audio/finished.wav,NA,0,NA,NA,NA,NA,NA,NA,NA,NA,NA,NA,NA,NA,NA,NA,NA,NA,NA,NA,NA,NA,NA,NA,NA,NA,NA
audio-instructions,366,1366908,0.0-327.0-0.0,voc_e2,11985,"[{""event"":""fullscreenenter"",""trial"":1,""time"":28051}]",NA,792.3999998569489,static/audio/explicit1.wav,NA,0,NA,NA,NA,NA,NA,NA,NA,NA,NA,NA,NA,NA,NA,NA,NA,NA,NA,NA,NA,NA,NA,NA,NA,NA,NA
audio-instructions,367,1375126,0.0-327.0-1.0,voc_e2,11985,"[{""event"":""fullscreenenter"",""trial"":1,""time"":28051}]",NA,626.5,static/audio/explicit2.wav,NA,0,NA,NA,NA,NA,NA,NA,NA,NA,NA,NA,NA,NA,NA,NA,NA,NA,NA,NA,NA,NA,NA,NA,NA,NA,NA
image-slider-response,368,1381025,0.0-328.0,voc_e2,11985,"[{""event"":""fullscreenenter"",""trial"":1,""time"":28051}]",NA,5896.5,static/img/machines/machine1.png,NA,NA,NA,NA,NA,NA,NA,NA,NA,NA,NA,NA,NA,NA,NA,NA,explicit,NA,NA,NA,NA,NA,NA,NA,NA,NA,7
image-slider-response,369,1383775,0.0-329.0,voc_e2,11985,"[{""event"":""fullscreenenter"",""trial"":1,""time"":28051}]",NA,2749.100000143051,static/img/machines/machine3.png,NA,NA,NA,NA,NA,NA,NA,NA,NA,NA,NA,NA,NA,NA,NA,NA,explicit,NA,NA,NA,NA,NA,NA,NA,NA,NA,7
image-slider-response,370,1389759,0.0-330.0,voc_e2,11985,"[{""event"":""fullscreenenter"",""trial"":1,""time"":28051}]",NA,5982.800000190735,static/img/machines/machine6.png,NA,NA,NA,NA,NA,NA,NA,NA,NA,NA,NA,NA,NA,NA,NA,NA,explicit,NA,NA,NA,NA,NA,NA,NA,NA,NA,3
image-slider-response,371,1391895,0.0-331.0,voc_e2,11985,"[{""event"":""fullscreenenter"",""trial"":1,""time"":28051}]",NA,2135.7000000476837,static/img/machines/machine4.png,NA,NA,NA,NA,NA,NA,NA,NA,NA,NA,NA,NA,NA,NA,NA,NA,explicit,NA,NA,NA,NA,NA,NA,NA,NA,NA,3
image-slider-response,372,1393993,0.0-332.0,voc_e2,11985,"[{""event"":""fullscreenenter"",""trial"":1,""time"":28051}]",NA,2096.599999904633,static/img/machines/machine2.png,NA,NA,NA,NA,NA,NA,NA,NA,NA,NA,NA,NA,NA,NA,NA,NA,explicit,NA,NA,NA,NA,NA,NA,NA,NA,NA,3
image-slider-response,373,1395877,0.0-333.0,voc_e2,11985,"[{""event"":""fullscreenenter"",""trial"":1,""time"":28051}]",NA,1882.7999999523165,static/img/machines/machine5.png,NA,NA,NA,NA,NA,NA,NA,NA,NA,NA,NA,NA,NA,NA,NA,NA,explicit,NA,NA,NA,NA,NA,NA,NA,NA,NA,7
