trial_type,trial_index,time_elapsed,internal_node_id,task_version,subject_id,interactions,success,rt,stimulus,key_press,button_pressed,offer,arcade_color_L,arcade_color_R,arcade_outcome_L,arcade_outcome_R,correct,stage_1_key,stage_1_choice,stage_1_rt,stage_2_key,stage_2_choice,stage_2_rt,stage_3_outcome,accuracy,phase,responses,num_errors,context,reward_prob_L,reward_prob_R,arcade_id_L,arcade_id_R,trial,block,response
pavlovia,0,8,0.0-0.0,voc_e2,12190,[],NA,NA,NA,NA,NA,NA,NA,NA,NA,NA,NA,NA,NA,NA,NA,NA,NA,NA,NA,NA,NA,NA,NA,NA,NA,NA,NA,NA,NA,NA
fullscreen,1,2131,0.0-1.0,voc_e2,12190,"[{""event"":""fullscreenenter"",""trial"":1,""time"":1176}]",TRUE,NA,NA,NA,NA,NA,NA,NA,NA,NA,NA,NA,NA,NA,NA,NA,NA,NA,NA,NA,NA,NA,NA,NA,NA,NA,NA,NA,NA,NA
audio-keyboard-response,2,3671,0.0-2.0,voc_e2,12190,"[{""event"":""fullscreenenter"",""trial"":1,""time"":1176}]",NA,840,static/audio/beep_loop.wav,32,NA,NA,NA,NA,NA,NA,NA,NA,NA,NA,NA,NA,NA,NA,NA,NA,NA,NA,NA,NA,NA,NA,NA,NA,NA,NA
audio-test,3,5077,0.0-3.0,voc_e2,12190,"[{""event"":""fullscreenenter"",""trial"":1,""time"":1176}]",NA,NA,static/audio/turtle.wav,NA,3,NA,NA,NA,NA,NA,NA,NA,NA,NA,NA,NA,NA,NA,NA,NA,NA,NA,NA,NA,NA,NA,NA,NA,NA,NA
audio-test,4,7373,0.0-4.0,voc_e2,12190,"[{""event"":""fullscreenenter"",""trial"":1,""time"":1176}]",NA,NA,static/audio/shark.wav,NA,2,NA,NA,NA,NA,NA,NA,NA,NA,NA,NA,NA,NA,NA,NA,NA,NA,NA,NA,NA,NA,NA,NA,NA,NA,NA
audio-instructions,5,14517,0.0-5.0-0.0,voc_e2,12190,"[{""event"":""fullscreenenter"",""trial"":1,""time"":1176}]",NA,1349.199999988079,static/audio/instructions1.wav,NA,0,NA,NA,NA,NA,NA,NA,NA,NA,NA,NA,NA,NA,NA,NA,NA,NA,NA,NA,NA,NA,NA,NA,NA,NA,NA
audio-instructions,6,21992,0.0-5.0-1.0,voc_e2,12190,"[{""event"":""fullscreenenter"",""trial"":1,""time"":1176}]",NA,724.0999999642372,static/audio/instructions2.wav,NA,0,NA,NA,NA,NA,NA,NA,NA,NA,NA,NA,NA,NA,NA,NA,NA,NA,NA,NA,NA,NA,NA,NA,NA,NA,NA
audio-instructions,7,30904,0.0-5.0-2.0,voc_e2,12190,"[{""event"":""fullscreenenter"",""trial"":1,""time"":1176}]",NA,3106.7999999523163,static/audio/instructions3.wav,NA,0,NA,NA,NA,NA,NA,NA,NA,NA,NA,NA,NA,NA,NA,NA,NA,NA,NA,NA,NA,NA,NA,NA,NA,NA,NA
audio-instructions,8,51345,0.0-5.0-3.0,voc_e2,12190,"[{""event"":""fullscreenenter"",""trial"":1,""time"":1176}]",NA,7218,static/audio/instructions4.wav,NA,0,NA,NA,NA,NA,NA,NA,NA,NA,NA,NA,NA,NA,NA,NA,NA,NA,NA,NA,NA,NA,NA,NA,NA,NA,NA
audio-instructions,9,61144,0.0-5.0-4.0,voc_e2,12190,"[{""event"":""fullscreenenter"",""trial"":1,""time"":1176}]",NA,406.0999999642372,static/audio/instructions5.wav,NA,0,NA,NA,NA,NA,NA,NA,NA,NA,NA,NA,NA,NA,NA,NA,NA,NA,NA,NA,NA,NA,NA,NA,NA,NA,NA
fcp-practice,10,63508,0.0-5.0-5.0-0.0,voc_e2,12190,"[{""event"":""fullscreenenter"",""trial"":1,""time"":1176}]",NA,NA,NA,NA,NA,NA,#EDC948,#46d3c8,10,0,1,null,null,null,37,1,839.4000000357628,10,1,practice,NA,NA,NA,NA,NA,NA,NA,NA,NA,NA
fcp-practice,11,65457,0.0-5.0-5.0-1.0,voc_e2,12190,"[{""event"":""fullscreenenter"",""trial"":1,""time"":1176}]",NA,NA,NA,NA,NA,NA,#EDC948,#46d3c8,10,0,1,null,null,null,37,1,430.800000011921,10,1,practice,NA,NA,NA,NA,NA,NA,NA,NA,NA,NA
fcp-practice,12,67256,0.0-5.0-5.0-2.0,voc_e2,12190,"[{""event"":""fullscreenenter"",""trial"":1,""time"":1176}]",NA,NA,NA,NA,NA,NA,#EDC948,#46d3c8,0,10,1,null,null,null,37,1,284.7999999523163,0,1,practice,NA,NA,NA,NA,NA,NA,NA,NA,NA,NA
fcp-practice,13,69140,0.0-5.0-5.0-3.0,voc_e2,12190,"[{""event"":""fullscreenenter"",""trial"":1,""time"":1176}]",NA,NA,NA,NA,NA,NA,#EDC948,#46d3c8,10,0,1,null,null,null,37,1,365.89999997615814,10,1,practice,NA,NA,NA,NA,NA,NA,NA,NA,NA,NA
fcp-practice,14,71039,0.0-5.0-5.0-4.0,voc_e2,12190,"[{""event"":""fullscreenenter"",""trial"":1,""time"":1176}]",NA,NA,NA,NA,NA,NA,#EDC948,#46d3c8,10,0,1,null,null,null,37,1,382.5,10,1,practice,NA,NA,NA,NA,NA,NA,NA,NA,NA,NA
audio-instructions,15,90319,0.0-5.0-6.0,voc_e2,12190,"[{""event"":""fullscreenenter"",""trial"":1,""time"":1176}]",NA,1271.5,static/audio/instructions6.wav,NA,0,NA,NA,NA,NA,NA,NA,NA,NA,NA,NA,NA,NA,NA,NA,NA,NA,NA,NA,NA,NA,NA,NA,NA,NA,NA
audio-instructions,16,113624,0.0-5.0-7.0,voc_e2,12190,"[{""event"":""fullscreenenter"",""trial"":1,""time"":1176}]",NA,4106,static/audio/instructions7.wav,NA,0,NA,NA,NA,NA,NA,NA,NA,NA,NA,NA,NA,NA,NA,NA,NA,NA,NA,NA,NA,NA,NA,NA,NA,NA,NA
audio-instructions,17,129214,0.0-5.0-8.0,voc_e2,12190,"[{""event"":""fullscreenenter"",""trial"":1,""time"":1176}]",NA,6126.099999964237,static/audio/instructions8.wav,NA,0,NA,NA,NA,NA,NA,NA,NA,NA,NA,NA,NA,NA,NA,NA,NA,NA,NA,NA,NA,NA,NA,NA,NA,NA,NA
fcp-comprehension,18,135081,0.0-5.0-9.0,voc_e2,12190,"[{""event"":""fullscreenenter"",""trial"":1,""time"":1176}]",NA,5864.100000023842,NA,NA,NA,NA,NA,NA,NA,NA,NA,NA,NA,NA,NA,NA,NA,NA,NA,NA,"false,true",1,NA,NA,NA,NA,NA,NA,NA,NA
audio-instructions,19,143236,0.0-5.1-0.1,voc_e2,12190,"[{""event"":""fullscreenenter"",""trial"":1,""time"":1176}]",NA,3378.900000035763,static/audio/instructions1.wav,NA,0,NA,NA,NA,NA,NA,NA,NA,NA,NA,NA,NA,NA,NA,NA,NA,NA,NA,NA,NA,NA,NA,NA,NA,NA,NA
audio-instructions,20,152717,0.0-5.1-1.1,voc_e2,12190,"[{""event"":""fullscreenenter"",""trial"":1,""time"":1176}]",NA,2729.5,static/audio/instructions2.wav,NA,0,NA,NA,NA,NA,NA,NA,NA,NA,NA,NA,NA,NA,NA,NA,NA,NA,NA,NA,NA,NA,NA,NA,NA,NA,NA
audio-instructions,21,158950,0.0-5.1-2.1,voc_e2,12190,"[{""event"":""fullscreenenter"",""trial"":1,""time"":1176}]",NA,423.199999988079,static/audio/instructions3.wav,NA,0,NA,NA,NA,NA,NA,NA,NA,NA,NA,NA,NA,NA,NA,NA,NA,NA,NA,NA,NA,NA,NA,NA,NA,NA,NA
audio-instructions,22,172587,0.0-5.1-3.1,voc_e2,12190,"[{""event"":""fullscreenenter"",""trial"":1,""time"":1176}]",NA,410.5,static/audio/instructions4.wav,NA,0,NA,NA,NA,NA,NA,NA,NA,NA,NA,NA,NA,NA,NA,NA,NA,NA,NA,NA,NA,NA,NA,NA,NA,NA,NA
audio-instructions,23,182229,0.0-5.1-4.1,voc_e2,12190,"[{""event"":""fullscreenenter"",""trial"":1,""time"":1176}]",NA,251.89999997615817,static/audio/instructions5.wav,NA,0,NA,NA,NA,NA,NA,NA,NA,NA,NA,NA,NA,NA,NA,NA,NA,NA,NA,NA,NA,NA,NA,NA,NA,NA,NA
fcp-practice,24,184244,0.0-5.1-5.1-0.1,voc_e2,12190,"[{""event"":""fullscreenenter"",""trial"":1,""time"":1176}]",NA,NA,NA,NA,NA,NA,#EDC948,#46d3c8,10,0,1,null,null,null,37,1,511.199999988079,10,1,practice,NA,NA,NA,NA,NA,NA,NA,NA,NA,NA
fcp-practice,25,185990,0.0-5.1-5.1-1.1,voc_e2,12190,"[{""event"":""fullscreenenter"",""trial"":1,""time"":1176}]",NA,NA,NA,NA,NA,NA,#EDC948,#46d3c8,10,0,1,null,null,null,37,1,240.30000001192093,10,1,practice,NA,NA,NA,NA,NA,NA,NA,NA,NA,NA
fcp-practice,26,187571,0.0-5.1-5.1-2.1,voc_e2,12190,"[{""event"":""fullscreenenter"",""trial"":1,""time"":1176}]",NA,NA,NA,NA,NA,NA,#EDC948,#46d3c8,0,10,1,null,null,null,37,1,71.19999998807907,0,1,practice,NA,NA,NA,NA,NA,NA,NA,NA,NA,NA
fcp-practice,27,189507,0.0-5.1-5.1-3.1,voc_e2,12190,"[{""event"":""fullscreenenter"",""trial"":1,""time"":1176}]",NA,NA,NA,NA,NA,NA,#EDC948,#46d3c8,10,0,1,null,null,null,37,1,420.5,10,1,practice,NA,NA,NA,NA,NA,NA,NA,NA,NA,NA
fcp-practice,28,191306,0.0-5.1-5.1-4.1,voc_e2,12190,"[{""event"":""fullscreenenter"",""trial"":1,""time"":1176}]",NA,NA,NA,NA,NA,NA,#EDC948,#46d3c8,10,0,1,null,null,null,37,1,286.10000002384186,10,1,practice,NA,NA,NA,NA,NA,NA,NA,NA,NA,NA
audio-instructions,29,209509,0.0-5.1-6.1,voc_e2,12190,"[{""event"":""fullscreenenter"",""trial"":1,""time"":1176}]",NA,191.69999998807907,static/audio/instructions6.wav,NA,0,NA,NA,NA,NA,NA,NA,NA,NA,NA,NA,NA,NA,NA,NA,NA,NA,NA,NA,NA,NA,NA,NA,NA,NA,NA
audio-instructions,30,228896,0.0-5.1-7.1,voc_e2,12190,"[{""event"":""fullscreenenter"",""trial"":1,""time"":1176}]",NA,189.30000001192093,static/audio/instructions7.wav,NA,0,NA,NA,NA,NA,NA,NA,NA,NA,NA,NA,NA,NA,NA,NA,NA,NA,NA,NA,NA,NA,NA,NA,NA,NA,NA
audio-instructions,31,238586,0.0-5.1-8.1,voc_e2,12190,"[{""event"":""fullscreenenter"",""trial"":1,""time"":1176}]",NA,218.69999998807907,static/audio/instructions8.wav,NA,0,NA,NA,NA,NA,NA,NA,NA,NA,NA,NA,NA,NA,NA,NA,NA,NA,NA,NA,NA,NA,NA,NA,NA,NA,NA
fcp-comprehension,32,245925,0.0-5.1-9.1,voc_e2,12190,"[{""event"":""fullscreenenter"",""trial"":1,""time"":1176}]",NA,7337.300000011921,NA,NA,NA,NA,NA,NA,NA,NA,NA,NA,NA,NA,NA,NA,NA,NA,NA,NA,"false,true",1,NA,NA,NA,NA,NA,NA,NA,NA
audio-instructions,33,251601,0.0-5.2-0.2,voc_e2,12190,"[{""event"":""fullscreenenter"",""trial"":1,""time"":1176}]",NA,903.600000023842,static/audio/instructions1.wav,NA,0,NA,NA,NA,NA,NA,NA,NA,NA,NA,NA,NA,NA,NA,NA,NA,NA,NA,NA,NA,NA,NA,NA,NA,NA,NA
audio-instructions,34,258813,0.0-5.2-1.2,voc_e2,12190,"[{""event"":""fullscreenenter"",""trial"":1,""time"":1176}]",NA,464.9000000357628,static/audio/instructions2.wav,NA,0,NA,NA,NA,NA,NA,NA,NA,NA,NA,NA,NA,NA,NA,NA,NA,NA,NA,NA,NA,NA,NA,NA,NA,NA,NA
audio-instructions,35,268846,0.0-5.2-2.2,voc_e2,12190,"[{""event"":""fullscreenenter"",""trial"":1,""time"":1176},{""event"":""blur"",""trial"":35,""time"":263370},{""event"":""focus"",""trial"":35,""time"":267670}]",NA,4228,static/audio/instructions3.wav,NA,0,NA,NA,NA,NA,NA,NA,NA,NA,NA,NA,NA,NA,NA,NA,NA,NA,NA,NA,NA,NA,NA,NA,NA,NA,NA
audio-instructions,36,283870,0.0-5.2-3.2,voc_e2,12190,"[{""event"":""fullscreenenter"",""trial"":1,""time"":1176},{""event"":""blur"",""trial"":35,""time"":263370},{""event"":""focus"",""trial"":35,""time"":267670}]",NA,1801.399999976158,static/audio/instructions4.wav,NA,0,NA,NA,NA,NA,NA,NA,NA,NA,NA,NA,NA,NA,NA,NA,NA,NA,NA,NA,NA,NA,NA,NA,NA,NA,NA
audio-instructions,37,294118,0.0-5.2-4.2,voc_e2,12190,"[{""event"":""fullscreenenter"",""trial"":1,""time"":1176},{""event"":""blur"",""trial"":35,""time"":263370},{""event"":""focus"",""trial"":35,""time"":267670}]",NA,860.6000000238419,static/audio/instructions5.wav,NA,0,NA,NA,NA,NA,NA,NA,NA,NA,NA,NA,NA,NA,NA,NA,NA,NA,NA,NA,NA,NA,NA,NA,NA,NA,NA
fcp-practice,38,296522,0.0-5.2-5.2-0.2,voc_e2,12190,"[{""event"":""fullscreenenter"",""trial"":1,""time"":1176},{""event"":""blur"",""trial"":35,""time"":263370},{""event"":""focus"",""trial"":35,""time"":267670}]",NA,NA,NA,NA,NA,NA,#EDC948,#46d3c8,10,0,1,null,null,null,37,1,882.6000000238419,10,1,practice,NA,NA,NA,NA,NA,NA,NA,NA,NA,NA
fcp-practice,39,298307,0.0-5.2-5.2-1.2,voc_e2,12190,"[{""event"":""fullscreenenter"",""trial"":1,""time"":1176},{""event"":""blur"",""trial"":35,""time"":263370},{""event"":""focus"",""trial"":35,""time"":267670}]",NA,NA,NA,NA,NA,NA,#EDC948,#46d3c8,10,0,1,null,null,null,37,1,271,10,1,practice,NA,NA,NA,NA,NA,NA,NA,NA,NA,NA
fcp-practice,40,299972,0.0-5.2-5.2-2.2,voc_e2,12190,"[{""event"":""fullscreenenter"",""trial"":1,""time"":1176},{""event"":""blur"",""trial"":35,""time"":263370},{""event"":""focus"",""trial"":35,""time"":267670}]",NA,NA,NA,NA,NA,NA,#EDC948,#46d3c8,0,10,1,null,null,null,37,1,148.4000000357628,0,1,practice,NA,NA,NA,NA,NA,NA,NA,NA,NA,NA
fcp-practice,41,301587,0.0-5.2-5.2-3.2,voc_e2,12190,"[{""event"":""fullscreenenter"",""trial"":1,""time"":1176},{""event"":""blur"",""trial"":35,""time"":263370},{""event"":""focus"",""trial"":35,""time"":267670}]",NA,NA,NA,NA,NA,NA,#EDC948,#46d3c8,10,0,1,null,null,null,37,1,108.69999998807909,10,1,practice,NA,NA,NA,NA,NA,NA,NA,NA,NA,NA
fcp-practice,42,303104,0.0-5.2-5.2-4.2,voc_e2,12190,"[{""event"":""fullscreenenter"",""trial"":1,""time"":1176},{""event"":""blur"",""trial"":35,""time"":263370},{""event"":""focus"",""trial"":35,""time"":267670}]",NA,NA,NA,NA,NA,NA,#EDC948,#46d3c8,10,0,1,null,null,null,37,1,6.099999964237213,10,1,practice,NA,NA,NA,NA,NA,NA,NA,NA,NA,NA
audio-instructions,43,321443,0.0-5.2-6.2,voc_e2,12190,"[{""event"":""fullscreenenter"",""trial"":1,""time"":1176},{""event"":""blur"",""trial"":35,""time"":263370},{""event"":""focus"",""trial"":35,""time"":267670}]",NA,335.9000000357628,static/audio/instructions6.wav,NA,0,NA,NA,NA,NA,NA,NA,NA,NA,NA,NA,NA,NA,NA,NA,NA,NA,NA,NA,NA,NA,NA,NA,NA,NA,NA
audio-instructions,44,341887,0.0-5.2-7.2,voc_e2,12190,"[{""event"":""fullscreenenter"",""trial"":1,""time"":1176},{""event"":""blur"",""trial"":35,""time"":263370},{""event"":""focus"",""trial"":35,""time"":267670}]",NA,1246.899999976158,static/audio/instructions7.wav,NA,0,NA,NA,NA,NA,NA,NA,NA,NA,NA,NA,NA,NA,NA,NA,NA,NA,NA,NA,NA,NA,NA,NA,NA,NA,NA
audio-instructions,45,352532,0.0-5.2-8.2,voc_e2,12190,"[{""event"":""fullscreenenter"",""trial"":1,""time"":1176},{""event"":""blur"",""trial"":35,""time"":263370},{""event"":""focus"",""trial"":35,""time"":267670}]",NA,1163.699999988079,static/audio/instructions8.wav,NA,0,NA,NA,NA,NA,NA,NA,NA,NA,NA,NA,NA,NA,NA,NA,NA,NA,NA,NA,NA,NA,NA,NA,NA,NA,NA
fcp-comprehension,46,371233,0.0-5.2-9.2,voc_e2,12190,"[{""event"":""fullscreenenter"",""trial"":1,""time"":1176},{""event"":""blur"",""trial"":35,""time"":263370},{""event"":""focus"",""trial"":35,""time"":267670}]",NA,18699.60000002384,NA,NA,NA,NA,NA,NA,NA,NA,NA,NA,NA,NA,NA,NA,NA,NA,NA,NA,"false,true",1,NA,NA,NA,NA,NA,NA,NA,NA
audio-instructions,47,376697,0.0-5.3-0.3,voc_e2,12190,"[{""event"":""fullscreenenter"",""trial"":1,""time"":1176},{""event"":""blur"",""trial"":35,""time"":263370},{""event"":""focus"",""trial"":35,""time"":267670}]",NA,689.8999999761581,static/audio/instructions1.wav,NA,0,NA,NA,NA,NA,NA,NA,NA,NA,NA,NA,NA,NA,NA,NA,NA,NA,NA,NA,NA,NA,NA,NA,NA,NA,NA
audio-instructions,48,393868,0.0-5.3-1.3,voc_e2,12190,"[{""event"":""fullscreenenter"",""trial"":1,""time"":1176},{""event"":""blur"",""trial"":35,""time"":263370},{""event"":""focus"",""trial"":35,""time"":267670}]",NA,10429.900000035765,static/audio/instructions2.wav,NA,0,NA,NA,NA,NA,NA,NA,NA,NA,NA,NA,NA,NA,NA,NA,NA,NA,NA,NA,NA,NA,NA,NA,NA,NA,NA
audio-instructions,49,401171,0.0-5.3-2.3,voc_e2,12190,"[{""event"":""fullscreenenter"",""trial"":1,""time"":1176},{""event"":""blur"",""trial"":35,""time"":263370},{""event"":""focus"",""trial"":35,""time"":267670}]",NA,1493.800000011921,static/audio/instructions3.wav,NA,0,NA,NA,NA,NA,NA,NA,NA,NA,NA,NA,NA,NA,NA,NA,NA,NA,NA,NA,NA,NA,NA,NA,NA,NA,NA
audio-instructions,50,414843,0.0-5.3-3.3,voc_e2,12190,"[{""event"":""fullscreenenter"",""trial"":1,""time"":1176},{""event"":""blur"",""trial"":35,""time"":263370},{""event"":""focus"",""trial"":35,""time"":267670}]",NA,445.5,static/audio/instructions4.wav,NA,0,NA,NA,NA,NA,NA,NA,NA,NA,NA,NA,NA,NA,NA,NA,NA,NA,NA,NA,NA,NA,NA,NA,NA,NA,NA
audio-instructions,51,424729,0.0-5.3-4.3,voc_e2,12190,"[{""event"":""fullscreenenter"",""trial"":1,""time"":1176},{""event"":""blur"",""trial"":35,""time"":263370},{""event"":""focus"",""trial"":35,""time"":267670}]",NA,501.0999999642372,static/audio/instructions5.wav,NA,0,NA,NA,NA,NA,NA,NA,NA,NA,NA,NA,NA,NA,NA,NA,NA,NA,NA,NA,NA,NA,NA,NA,NA,NA,NA
fcp-practice,52,429087,0.0-5.3-5.3-0.3,voc_e2,12190,"[{""event"":""fullscreenenter"",""trial"":1,""time"":1176},{""event"":""blur"",""trial"":35,""time"":263370},{""event"":""focus"",""trial"":35,""time"":267670}]",NA,NA,NA,NA,NA,NA,#EDC948,#46d3c8,10,0,1,null,null,null,37,1,2841,10,1,practice,NA,NA,NA,NA,NA,NA,NA,NA,NA,NA
fcp-practice,53,431556,0.0-5.3-5.3-1.3,voc_e2,12190,"[{""event"":""fullscreenenter"",""trial"":1,""time"":1176},{""event"":""blur"",""trial"":35,""time"":263370},{""event"":""focus"",""trial"":35,""time"":267670}]",NA,NA,NA,NA,NA,NA,#EDC948,#46d3c8,10,0,1,null,null,null,37,1,964.5999999642372,10,1,practice,NA,NA,NA,NA,NA,NA,NA,NA,NA,NA
fcp-practice,54,434204,0.0-5.3-5.3-2.3,voc_e2,12190,"[{""event"":""fullscreenenter"",""trial"":1,""time"":1176},{""event"":""blur"",""trial"":35,""time"":263370},{""event"":""focus"",""trial"":35,""time"":267670}]",NA,NA,NA,NA,NA,NA,#EDC948,#46d3c8,0,10,1,null,null,null,37,1,1132.0999999642372,0,1,practice,NA,NA,NA,NA,NA,NA,NA,NA,NA,NA
fcp-practice,55,436322,0.0-5.3-5.3-3.3,voc_e2,12190,"[{""event"":""fullscreenenter"",""trial"":1,""time"":1176},{""event"":""blur"",""trial"":35,""time"":263370},{""event"":""focus"",""trial"":35,""time"":267670}]",NA,NA,NA,NA,NA,NA,#EDC948,#46d3c8,10,0,1,null,null,null,37,1,612.2999999523163,10,1,practice,NA,NA,NA,NA,NA,NA,NA,NA,NA,NA
fcp-practice,56,438954,0.0-5.3-5.3-4.3,voc_e2,12190,"[{""event"":""fullscreenenter"",""trial"":1,""time"":1176},{""event"":""blur"",""trial"":35,""time"":263370},{""event"":""focus"",""trial"":35,""time"":267670}]",NA,NA,NA,NA,NA,NA,#EDC948,#46d3c8,10,0,1,null,null,null,37,1,1126.800000011921,10,1,practice,NA,NA,NA,NA,NA,NA,NA,NA,NA,NA
audio-instructions,57,458860,0.0-5.3-6.3,voc_e2,12190,"[{""event"":""fullscreenenter"",""trial"":1,""time"":1176},{""event"":""blur"",""trial"":35,""time"":263370},{""event"":""focus"",""trial"":35,""time"":267670}]",NA,1902.5,static/audio/instructions6.wav,NA,0,NA,NA,NA,NA,NA,NA,NA,NA,NA,NA,NA,NA,NA,NA,NA,NA,NA,NA,NA,NA,NA,NA,NA,NA,NA
audio-instructions,58,479744,0.0-5.3-7.3,voc_e2,12190,"[{""event"":""fullscreenenter"",""trial"":1,""time"":1176},{""event"":""blur"",""trial"":35,""time"":263370},{""event"":""focus"",""trial"":35,""time"":267670}]",NA,1686.300000011921,static/audio/instructions7.wav,NA,0,NA,NA,NA,NA,NA,NA,NA,NA,NA,NA,NA,NA,NA,NA,NA,NA,NA,NA,NA,NA,NA,NA,NA,NA,NA
audio-instructions,59,496853,0.0-5.3-8.3,voc_e2,12190,"[{""event"":""fullscreenenter"",""trial"":1,""time"":1176},{""event"":""blur"",""trial"":35,""time"":263370},{""event"":""focus"",""trial"":35,""time"":267670}]",NA,7644.699999988079,static/audio/instructions8.wav,NA,0,NA,NA,NA,NA,NA,NA,NA,NA,NA,NA,NA,NA,NA,NA,NA,NA,NA,NA,NA,NA,NA,NA,NA,NA,NA
fcp-comprehension,60,510041,0.0-5.3-9.3,voc_e2,12190,"[{""event"":""fullscreenenter"",""trial"":1,""time"":1176},{""event"":""blur"",""trial"":35,""time"":263370},{""event"":""focus"",""trial"":35,""time"":267670}]",NA,13186.900000035765,NA,NA,NA,NA,NA,NA,NA,NA,NA,NA,NA,NA,NA,NA,NA,NA,NA,NA,"true,true",0,NA,NA,NA,NA,NA,NA,NA,NA
audio-instructions,61,517753,0.0-6.0-0.0,voc_e2,12190,"[{""event"":""fullscreenenter"",""trial"":1,""time"":1176},{""event"":""blur"",""trial"":35,""time"":263370},{""event"":""focus"",""trial"":35,""time"":267670}]",NA,2165.300000011921,static/audio/instructions9.wav,NA,0,NA,NA,NA,NA,NA,NA,NA,NA,NA,NA,NA,NA,NA,NA,NA,NA,NA,NA,NA,NA,NA,NA,NA,NA,NA
audio-instructions,62,531029,0.0-6.0-1.0,voc_e2,12190,"[{""event"":""fullscreenenter"",""trial"":1,""time"":1176},{""event"":""blur"",""trial"":35,""time"":263370},{""event"":""focus"",""trial"":35,""time"":267670}]",NA,1162,static/audio/instructions10.wav,NA,0,NA,NA,NA,NA,NA,NA,NA,NA,NA,NA,NA,NA,NA,NA,NA,NA,NA,NA,NA,NA,NA,NA,NA,NA,NA
fcp-trial,63,536403,0.0-6.0-2.0,voc_e2,12190,"[{""event"":""fullscreenenter"",""trial"":1,""time"":1176},{""event"":""blur"",""trial"":35,""time"":263370},{""event"":""focus"",""trial"":35,""time"":267670}]",NA,NA,NA,NA,NA,0,#EDC948,#46d3c8,10,10,1,38,1,1272,37,1,2566.900000035763,10,1,practice,NA,NA,NA,NA,NA,NA,NA,NA,NA,NA
audio-instructions,64,548020,0.0-6.0-3.0,voc_e2,12190,"[{""event"":""fullscreenenter"",""trial"":1,""time"":1176},{""event"":""blur"",""trial"":35,""time"":263370},{""event"":""focus"",""trial"":35,""time"":267670}]",NA,613,static/audio/instructions11.wav,NA,0,NA,NA,NA,NA,NA,NA,NA,NA,NA,NA,NA,NA,NA,NA,NA,NA,NA,NA,NA,NA,NA,NA,NA,NA,NA
fcp-trial,65,555354,0.0-6.0-4.0,voc_e2,12190,"[{""event"":""fullscreenenter"",""trial"":1,""time"":1176},{""event"":""blur"",""trial"":35,""time"":263370},{""event"":""focus"",""trial"":35,""time"":267670}]",NA,NA,NA,NA,NA,6,#EDC948,#46d3c8,10,10,1,40,0,5072.800000011921,39,0,750.1999999880791,10,0,practice,NA,NA,NA,NA,NA,NA,NA,NA,NA,NA
audio-instructions,66,576914,0.0-6.0-5.0,voc_e2,12190,"[{""event"":""fullscreenenter"",""trial"":1,""time"":1176},{""event"":""blur"",""trial"":35,""time"":263370},{""event"":""focus"",""trial"":35,""time"":267670}]",NA,2876.100000023842,static/audio/instructions12.wav,NA,0,NA,NA,NA,NA,NA,NA,NA,NA,NA,NA,NA,NA,NA,NA,NA,NA,NA,NA,NA,NA,NA,NA,NA,NA,NA
audio-instructions,67,585935,0.0-6.0-6.0,voc_e2,12190,"[{""event"":""fullscreenenter"",""trial"":1,""time"":1176},{""event"":""blur"",""trial"":35,""time"":263370},{""event"":""focus"",""trial"":35,""time"":267670}]",NA,1427.399999976158,static/audio/instructions13.wav,NA,0,NA,NA,NA,NA,NA,NA,NA,NA,NA,NA,NA,NA,NA,NA,NA,NA,NA,NA,NA,NA,NA,NA,NA,NA,NA
audio-instructions,68,595745,0.0-6.0-7.0,voc_e2,12190,"[{""event"":""fullscreenenter"",""trial"":1,""time"":1176},{""event"":""blur"",""trial"":35,""time"":263370},{""event"":""focus"",""trial"":35,""time"":267670}]",NA,1366.800000011921,static/audio/instructions14.wav,NA,0,NA,NA,NA,NA,NA,NA,NA,NA,NA,NA,NA,NA,NA,NA,NA,NA,NA,NA,NA,NA,NA,NA,NA,NA,NA
audio-instructions,69,603033,0.0-7.0-0.0,voc_e2,12190,"[{""event"":""fullscreenenter"",""trial"":1,""time"":1176},{""event"":""blur"",""trial"":35,""time"":263370},{""event"":""focus"",""trial"":35,""time"":267670}]",NA,385.60000002384186,static/audio/instructions15.wav,NA,0,NA,NA,NA,NA,NA,NA,NA,NA,NA,NA,NA,NA,NA,NA,NA,NA,NA,NA,NA,NA,NA,NA,NA,NA,NA
audio-instructions,70,610180,0.0-7.0-1.0,voc_e2,12190,"[{""event"":""fullscreenenter"",""trial"":1,""time"":1176},{""event"":""blur"",""trial"":35,""time"":263370},{""event"":""focus"",""trial"":35,""time"":267670}]",NA,322.19999998807907,static/audio/instructions16.wav,NA,0,NA,NA,NA,NA,NA,NA,NA,NA,NA,NA,NA,NA,NA,NA,NA,NA,NA,NA,NA,NA,NA,NA,NA,NA,NA
audio-instructions,71,621298,0.0-7.0-2.0,voc_e2,12190,"[{""event"":""fullscreenenter"",""trial"":1,""time"":1176},{""event"":""blur"",""trial"":35,""time"":263370},{""event"":""focus"",""trial"":35,""time"":267670}]",NA,3440.300000011921,static/audio/instructions17.wav,NA,0,NA,NA,NA,NA,NA,NA,NA,NA,NA,NA,NA,NA,NA,NA,NA,NA,NA,NA,NA,NA,NA,NA,NA,NA,NA
audio-instructions,72,629579,0.0-7.0-3.0,voc_e2,12190,"[{""event"":""fullscreenenter"",""trial"":1,""time"":1176},{""event"":""blur"",""trial"":35,""time"":263370},{""event"":""focus"",""trial"":35,""time"":267670}]",NA,511.800000011921,static/audio/instructions18.wav,NA,0,NA,NA,NA,NA,NA,NA,NA,NA,NA,NA,NA,NA,NA,NA,NA,NA,NA,NA,NA,NA,NA,NA,NA,NA,NA
audio-instructions,73,636521,0.0-7.0-4.0,voc_e2,12190,"[{""event"":""fullscreenenter"",""trial"":1,""time"":1176},{""event"":""blur"",""trial"":35,""time"":263370},{""event"":""focus"",""trial"":35,""time"":267670}]",NA,203.4000000357628,static/audio/instructions19.wav,NA,0,NA,NA,NA,NA,NA,NA,NA,NA,NA,NA,NA,NA,NA,NA,NA,NA,NA,NA,NA,NA,NA,NA,NA,NA,NA
fcp-comprehension,74,646081,0.0-7.0-5.0,voc_e2,12190,"[{""event"":""fullscreenenter"",""trial"":1,""time"":1176},{""event"":""blur"",""trial"":35,""time"":263370},{""event"":""focus"",""trial"":35,""time"":267670}]",NA,9557.099999964235,NA,NA,NA,NA,NA,NA,NA,NA,NA,NA,NA,NA,NA,NA,NA,NA,NA,NA,"true,false,false,true",1,NA,NA,NA,NA,NA,NA,NA,NA
audio-instructions,75,653888,0.0-7.1-0.1,voc_e2,12190,"[{""event"":""fullscreenenter"",""trial"":1,""time"":1176},{""event"":""blur"",""trial"":35,""time"":263370},{""event"":""focus"",""trial"":35,""time"":267670}]",NA,890.3999999761581,static/audio/instructions15.wav,NA,0,NA,NA,NA,NA,NA,NA,NA,NA,NA,NA,NA,NA,NA,NA,NA,NA,NA,NA,NA,NA,NA,NA,NA,NA,NA
audio-instructions,76,660865,0.0-7.1-1.1,voc_e2,12190,"[{""event"":""fullscreenenter"",""trial"":1,""time"":1176},{""event"":""blur"",""trial"":35,""time"":263370},{""event"":""focus"",""trial"":35,""time"":267670}]",NA,147.19999998807907,static/audio/instructions16.wav,NA,0,NA,NA,NA,NA,NA,NA,NA,NA,NA,NA,NA,NA,NA,NA,NA,NA,NA,NA,NA,NA,NA,NA,NA,NA,NA
audio-instructions,77,669412,0.0-7.1-2.1,voc_e2,12190,"[{""event"":""fullscreenenter"",""trial"":1,""time"":1176},{""event"":""blur"",""trial"":35,""time"":263370},{""event"":""focus"",""trial"":35,""time"":267670}]",NA,874,static/audio/instructions17.wav,NA,0,NA,NA,NA,NA,NA,NA,NA,NA,NA,NA,NA,NA,NA,NA,NA,NA,NA,NA,NA,NA,NA,NA,NA,NA,NA
audio-instructions,78,677424,0.0-7.1-3.1,voc_e2,12190,"[{""event"":""fullscreenenter"",""trial"":1,""time"":1176},{""event"":""blur"",""trial"":35,""time"":263370},{""event"":""focus"",""trial"":35,""time"":267670}]",NA,246.80000001192093,static/audio/instructions18.wav,NA,0,NA,NA,NA,NA,NA,NA,NA,NA,NA,NA,NA,NA,NA,NA,NA,NA,NA,NA,NA,NA,NA,NA,NA,NA,NA
audio-instructions,79,685287,0.0-7.1-4.1,voc_e2,12190,"[{""event"":""fullscreenenter"",""trial"":1,""time"":1176},{""event"":""blur"",""trial"":35,""time"":263370},{""event"":""focus"",""trial"":35,""time"":267670}]",NA,1129.7999999523165,static/audio/instructions19.wav,NA,0,NA,NA,NA,NA,NA,NA,NA,NA,NA,NA,NA,NA,NA,NA,NA,NA,NA,NA,NA,NA,NA,NA,NA,NA,NA
fcp-comprehension,80,689941,0.0-7.1-5.1,voc_e2,12190,"[{""event"":""fullscreenenter"",""trial"":1,""time"":1176},{""event"":""blur"",""trial"":35,""time"":263370},{""event"":""focus"",""trial"":35,""time"":267670}]",NA,4651.099999964237,NA,NA,NA,NA,NA,NA,NA,NA,NA,NA,NA,NA,NA,NA,NA,NA,NA,NA,"false,false,false,true",0,NA,NA,NA,NA,NA,NA,NA,NA
audio-instructions,81,699868,0.0-8.0,voc_e2,12190,"[{""event"":""fullscreenenter"",""trial"":1,""time"":1176},{""event"":""blur"",""trial"":35,""time"":263370},{""event"":""focus"",""trial"":35,""time"":267670}]",NA,711.4000000357628,static/audio/ready.wav,NA,0,NA,NA,NA,NA,NA,NA,NA,NA,NA,NA,NA,NA,NA,NA,NA,NA,NA,NA,NA,NA,NA,NA,NA,NA,NA
fcp-trial,82,706320,0.0-9.0-0.0,voc_e2,12190,"[{""event"":""fullscreenenter"",""trial"":1,""time"":1176},{""event"":""blur"",""trial"":35,""time"":263370},{""event"":""focus"",""trial"":35,""time"":267670}]",NA,NA,NA,NA,NA,0,#FA92F8,#1CD855,0,10,0,38,1,4247.400000035763,37,1,683.3000000119209,0,0,experiment,NA,NA,0,0.1,0.9,1,0,1,1,NA
fcp-trial,83,711969,0.0-10.0-0.0,voc_e2,12190,"[{""event"":""fullscreenenter"",""trial"":1,""time"":1176},{""event"":""blur"",""trial"":35,""time"":263370},{""event"":""focus"",""trial"":35,""time"":267670}]",NA,NA,NA,NA,NA,3,#D8271C,#741CD8,0,0,1,40,0,3015,37,1,1104.5,0,1,experiment,NA,NA,1,0.7,0.3,2,3,2,1,NA
fcp-trial,84,716470,0.0-11.0-0.0,voc_e2,12190,"[{""event"":""fullscreenenter"",""trial"":1,""time"":1176},{""event"":""blur"",""trial"":35,""time"":263370},{""event"":""focus"",""trial"":35,""time"":267670}]",NA,NA,NA,NA,NA,2,#D89F1C,#3386FF,10,10,0,40,0,1976.3999999761581,37,1,1010,10,0,experiment,NA,NA,2,0.5,0.5,5,4,3,1,NA
fcp-trial,85,720696,0.0-12.0-0.0,voc_e2,12190,"[{""event"":""fullscreenenter"",""trial"":1,""time"":1176},{""event"":""blur"",""trial"":35,""time"":263370},{""event"":""focus"",""trial"":35,""time"":267670}]",NA,NA,NA,NA,NA,3,#1CD855,#FA92F8,10,0,1,40,0,2075.399999976158,37,1,633.6999999880791,10,1,experiment,NA,NA,0,0.9,0.1,0,1,4,1,NA
fcp-trial,86,724369,0.0-13.0-0.0,voc_e2,12190,"[{""event"":""fullscreenenter"",""trial"":1,""time"":1176},{""event"":""blur"",""trial"":35,""time"":263370},{""event"":""focus"",""trial"":35,""time"":267670}]",NA,NA,NA,NA,NA,1,#D89F1C,#3386FF,0,0,0,38,1,1699.5,37,1,461.699999988079,0,0,experiment,NA,NA,2,0.5,0.5,5,4,5,1,NA
fcp-trial,87,727818,0.0-14.0-0.0,voc_e2,12190,"[{""event"":""fullscreenenter"",""trial"":1,""time"":1176},{""event"":""blur"",""trial"":35,""time"":263370},{""event"":""focus"",""trial"":35,""time"":267670}]",NA,NA,NA,NA,NA,4,#D89F1C,#3386FF,0,0,0,40,0,1231.1000000238419,37,1,709.3999999761581,0,0,experiment,NA,NA,2,0.5,0.5,5,4,6,1,NA
fcp-trial,88,732140,0.0-15.0-0.0,voc_e2,12190,"[{""event"":""fullscreenenter"",""trial"":1,""time"":1176},{""event"":""blur"",""trial"":35,""time"":263370},{""event"":""focus"",""trial"":35,""time"":267670}]",NA,NA,NA,NA,NA,1,#741CD8,#D8271C,0,10,0,40,0,2239.699999988079,37,1,576,0,0,experiment,NA,NA,1,0.3,0.7,3,2,7,1,NA
fcp-trial,89,735406,0.0-16.0-0.0,voc_e2,12190,"[{""event"":""fullscreenenter"",""trial"":1,""time"":1176},{""event"":""blur"",""trial"":35,""time"":263370},{""event"":""focus"",""trial"":35,""time"":267670}]",NA,NA,NA,NA,NA,5,#1CD855,#FA92F8,10,0,1,40,0,1312,37,1,448.9000000357628,10,1,experiment,NA,NA,0,0.9,0.1,0,1,8,1,NA
fcp-trial,90,739086,0.0-17.0-0.0,voc_e2,12190,"[{""event"":""fullscreenenter"",""trial"":1,""time"":1176},{""event"":""blur"",""trial"":35,""time"":263370},{""event"":""focus"",""trial"":35,""time"":267670}]",NA,NA,NA,NA,NA,5,#D8271C,#741CD8,10,0,1,40,0,1744.300000011921,37,1,430.5,10,1,experiment,NA,NA,1,0.7,0.3,2,3,9,1,NA
fcp-trial,91,743963,0.0-18.0-0.0,voc_e2,12190,"[{""event"":""fullscreenenter"",""trial"":1,""time"":1176},{""event"":""blur"",""trial"":35,""time"":263370},{""event"":""focus"",""trial"":35,""time"":267670}]",NA,NA,NA,NA,NA,5,#D89F1C,#3386FF,10,10,0,38,1,2979.5,39,0,389.699999988079,10,1,experiment,NA,NA,2,0.5,0.5,5,4,10,1,NA
fcp-trial,92,747848,0.0-19.0-0.0,voc_e2,12190,"[{""event"":""fullscreenenter"",""trial"":1,""time"":1176},{""event"":""blur"",""trial"":35,""time"":263370},{""event"":""focus"",""trial"":35,""time"":267670}]",NA,NA,NA,NA,NA,3,#3386FF,#D89F1C,0,10,1,40,0,1924.7999999523163,37,1,456.2000000476837,0,1,experiment,NA,NA,2,0.5,0.5,4,5,11,1,NA
fcp-trial,93,752679,0.0-20.0-0.0,voc_e2,12190,"[{""event"":""fullscreenenter"",""trial"":1,""time"":1176},{""event"":""blur"",""trial"":35,""time"":263370},{""event"":""focus"",""trial"":35,""time"":267670}]",NA,NA,NA,NA,NA,4,#741CD8,#D8271C,0,10,0,38,1,2708.600000023842,37,1,615.7000000476837,0,0,experiment,NA,NA,1,0.3,0.7,3,2,12,1,NA
fcp-trial,94,756554,0.0-21.0-0.0,voc_e2,12190,"[{""event"":""fullscreenenter"",""trial"":1,""time"":1176},{""event"":""blur"",""trial"":35,""time"":263370},{""event"":""focus"",""trial"":35,""time"":267670}]",NA,NA,NA,NA,NA,6,#FA92F8,#1CD855,0,10,0,40,0,1945.300000011921,37,1,424.199999988079,0,0,experiment,NA,NA,0,0.1,0.9,1,0,13,1,NA
fcp-trial,95,761921,0.0-22.0-0.0,voc_e2,12190,"[{""event"":""fullscreenenter"",""trial"":1,""time"":1176},{""event"":""blur"",""trial"":35,""time"":263370},{""event"":""focus"",""trial"":35,""time"":267670}]",NA,NA,NA,NA,NA,6,#3386FF,#D89F1C,10,0,1,40,0,3282.800000011921,39,0,576.5,0,0,experiment,NA,NA,2,0.5,0.5,4,5,14,1,NA
fcp-trial,96,767216,0.0-23.0-0.0,voc_e2,12190,"[{""event"":""fullscreenenter"",""trial"":1,""time"":1176},{""event"":""blur"",""trial"":35,""time"":263370},{""event"":""focus"",""trial"":35,""time"":267670}]",NA,NA,NA,NA,NA,0,#741CD8,#D8271C,0,10,0,38,1,1943.199999988079,39,0,1849.399999976158,10,1,experiment,NA,NA,1,0.3,0.7,3,2,15,1,NA
fcp-trial,97,771768,0.0-24.0-0.0,voc_e2,12190,"[{""event"":""fullscreenenter"",""trial"":1,""time"":1176},{""event"":""blur"",""trial"":35,""time"":263370},{""event"":""focus"",""trial"":35,""time"":267670}]",NA,NA,NA,NA,NA,1,#1CD855,#FA92F8,10,0,1,38,1,2582,37,1,461.699999988079,10,1,experiment,NA,NA,0,0.9,0.1,0,1,16,1,NA
fcp-trial,98,774853,0.0-25.0-0.0,voc_e2,12190,"[{""event"":""fullscreenenter"",""trial"":1,""time"":1176},{""event"":""blur"",""trial"":35,""time"":263370},{""event"":""focus"",""trial"":35,""time"":267670}]",NA,NA,NA,NA,NA,2,#741CD8,#D8271C,10,0,0,38,1,1223.5,39,0,355.19999998807907,0,1,experiment,NA,NA,1,0.3,0.7,3,2,17,1,NA
fcp-trial,99,779117,0.0-26.0-0.0,voc_e2,12190,"[{""event"":""fullscreenenter"",""trial"":1,""time"":1176},{""event"":""blur"",""trial"":35,""time"":263370},{""event"":""focus"",""trial"":35,""time"":267670}]",NA,NA,NA,NA,NA,4,#FA92F8,#1CD855,0,10,0,38,1,2445.199999988079,39,0,313.60000002384186,10,1,experiment,NA,NA,0,0.1,0.9,1,0,18,1,NA
fcp-trial,100,786778,0.0-27.0-0.0,voc_e2,12190,"[{""event"":""fullscreenenter"",""trial"":1,""time"":1176},{""event"":""blur"",""trial"":35,""time"":263370},{""event"":""focus"",""trial"":35,""time"":267670}]",NA,NA,NA,NA,NA,0,#3386FF,#D89F1C,0,10,1,38,1,1938.4000000357628,37,1,4212.599999964237,0,1,experiment,NA,NA,2,0.5,0.5,4,5,19,1,NA
fcp-trial,101,791288,0.0-28.0-0.0,voc_e2,12190,"[{""event"":""fullscreenenter"",""trial"":1,""time"":1176},{""event"":""blur"",""trial"":35,""time"":263370},{""event"":""focus"",""trial"":35,""time"":267670}]",NA,NA,NA,NA,NA,2,#FA92F8,#1CD855,0,10,0,38,1,2748.199999988079,39,0,256.9000000357628,10,1,experiment,NA,NA,0,0.1,0.9,1,0,20,1,NA
fcp-trial,102,796436,0.0-29.0-0.0,voc_e2,12190,"[{""event"":""fullscreenenter"",""trial"":1,""time"":1176},{""event"":""blur"",""trial"":35,""time"":263370},{""event"":""focus"",""trial"":35,""time"":267670}]",NA,NA,NA,NA,NA,6,#D8271C,#741CD8,10,0,1,38,1,2962.899999976158,37,1,679,10,1,experiment,NA,NA,1,0.7,0.3,2,3,21,1,NA
fcp-trial,103,799196,0.0-30.0-0.0,voc_e2,12190,"[{""event"":""fullscreenenter"",""trial"":1,""time"":1176},{""event"":""blur"",""trial"":35,""time"":263370},{""event"":""focus"",""trial"":35,""time"":267670}]",NA,NA,NA,NA,NA,4,#D8271C,#741CD8,10,0,1,38,1,897.4000000357628,37,1,360.699999988079,10,1,experiment,NA,NA,1,0.7,0.3,2,3,22,1,NA
fcp-trial,104,802341,0.0-31.0-0.0,voc_e2,12190,"[{""event"":""fullscreenenter"",""trial"":1,""time"":1176},{""event"":""blur"",""trial"":35,""time"":263370},{""event"":""focus"",""trial"":35,""time"":267670}]",NA,NA,NA,NA,NA,1,#FA92F8,#1CD855,0,10,0,38,1,1301.7000000476837,39,0,338.30000001192093,10,1,experiment,NA,NA,0,0.1,0.9,1,0,23,1,NA
fcp-trial,105,805109,0.0-32.0-0.0,voc_e2,12190,"[{""event"":""fullscreenenter"",""trial"":1,""time"":1176},{""event"":""blur"",""trial"":35,""time"":263370},{""event"":""focus"",""trial"":35,""time"":267670}]",NA,NA,NA,NA,NA,0,#1CD855,#FA92F8,0,10,1,38,1,940.4000000357628,37,1,320.89999997615814,0,1,experiment,NA,NA,0,0.9,0.1,0,1,24,1,NA
fcp-trial,106,808353,0.0-33.0-0.0,voc_e2,12190,"[{""event"":""fullscreenenter"",""trial"":1,""time"":1176},{""event"":""blur"",""trial"":35,""time"":263370},{""event"":""focus"",""trial"":35,""time"":267670}]",NA,NA,NA,NA,NA,3,#3386FF,#D89F1C,0,0,1,40,0,1311.7000000476837,37,1,420.5,0,1,experiment,NA,NA,2,0.5,0.5,4,5,25,1,NA
fcp-trial,107,812827,0.0-34.0-0.0,voc_e2,12190,"[{""event"":""fullscreenenter"",""trial"":1,""time"":1176},{""event"":""blur"",""trial"":35,""time"":263370},{""event"":""focus"",""trial"":35,""time"":267670}]",NA,NA,NA,NA,NA,3,#1CD855,#FA92F8,10,10,1,38,1,2344.399999976158,37,1,625.5,10,1,experiment,NA,NA,0,0.9,0.1,0,1,26,1,NA
fcp-trial,108,815720,0.0-35.0-0.0,voc_e2,12190,"[{""event"":""fullscreenenter"",""trial"":1,""time"":1176},{""event"":""blur"",""trial"":35,""time"":263370},{""event"":""focus"",""trial"":35,""time"":267670}]",NA,NA,NA,NA,NA,0,#D8271C,#741CD8,10,0,1,38,1,935.8000000119209,37,1,450.60000002384186,10,1,experiment,NA,NA,1,0.7,0.3,2,3,27,1,NA
fcp-trial,109,820527,0.0-36.0-0.0,voc_e2,12190,"[{""event"":""fullscreenenter"",""trial"":1,""time"":1176},{""event"":""blur"",""trial"":35,""time"":263370},{""event"":""focus"",""trial"":35,""time"":267670}]",NA,NA,NA,NA,NA,0,#3386FF,#D89F1C,0,10,1,38,1,1701.8999999761581,39,0,1600.600000023842,10,0,experiment,NA,NA,2,0.5,0.5,4,5,28,1,NA
fcp-trial,110,825640,0.0-37.0-0.0,voc_e2,12190,"[{""event"":""fullscreenenter"",""trial"":1,""time"":1176},{""event"":""blur"",""trial"":35,""time"":263370},{""event"":""focus"",""trial"":35,""time"":267670}]",NA,NA,NA,NA,NA,4,#3386FF,#D89F1C,0,0,1,38,1,3029.100000023842,39,0,579.6000000238419,0,0,experiment,NA,NA,2,0.5,0.5,4,5,29,1,NA
fcp-trial,111,830188,0.0-38.0-0.0,voc_e2,12190,"[{""event"":""fullscreenenter"",""trial"":1,""time"":1176},{""event"":""blur"",""trial"":35,""time"":263370},{""event"":""focus"",""trial"":35,""time"":267670}]",NA,NA,NA,NA,NA,1,#741CD8,#D8271C,10,10,0,38,1,2510.5,39,0,530.5999999642372,10,1,experiment,NA,NA,1,0.3,0.7,3,2,30,1,NA
fcp-trial,112,833488,0.0-39.0-0.0,voc_e2,12190,"[{""event"":""fullscreenenter"",""trial"":1,""time"":1176},{""event"":""blur"",""trial"":35,""time"":263370},{""event"":""focus"",""trial"":35,""time"":267670}]",NA,NA,NA,NA,NA,5,#1CD855,#FA92F8,10,0,1,38,1,1287.0999999642372,37,1,508.199999988079,10,1,experiment,NA,NA,0,0.9,0.1,0,1,31,1,NA
fcp-trial,113,836215,0.0-40.0-0.0,voc_e2,12190,"[{""event"":""fullscreenenter"",""trial"":1,""time"":1176},{""event"":""blur"",""trial"":35,""time"":263370},{""event"":""focus"",""trial"":35,""time"":267670}]",NA,NA,NA,NA,NA,4,#FA92F8,#1CD855,10,10,0,38,1,884.8000000119209,39,0,336.69999998807907,10,1,experiment,NA,NA,0,0.1,0.9,1,0,32,1,NA
fcp-trial,114,839751,0.0-41.0-0.0,voc_e2,12190,"[{""event"":""fullscreenenter"",""trial"":1,""time"":1176},{""event"":""blur"",""trial"":35,""time"":263370},{""event"":""focus"",""trial"":35,""time"":267670}]",NA,NA,NA,NA,NA,5,#3386FF,#D89F1C,10,0,1,40,0,1567.0999999642372,37,1,462.199999988079,10,1,experiment,NA,NA,2,0.5,0.5,4,5,33,1,NA
fcp-trial,115,842918,0.0-42.0-0.0,voc_e2,12190,"[{""event"":""fullscreenenter"",""trial"":1,""time"":1176},{""event"":""blur"",""trial"":35,""time"":263370},{""event"":""focus"",""trial"":35,""time"":267670}]",NA,NA,NA,NA,NA,6,#3386FF,#D89F1C,10,0,1,40,0,1261.699999988079,39,0,398.39999997615814,0,0,experiment,NA,NA,2,0.5,0.5,4,5,34,1,NA
fcp-trial,116,846602,0.0-43.0-0.0,voc_e2,12190,"[{""event"":""fullscreenenter"",""trial"":1,""time"":1176},{""event"":""blur"",""trial"":35,""time"":263370},{""event"":""focus"",""trial"":35,""time"":267670}]",NA,NA,NA,NA,NA,3,#D8271C,#741CD8,10,0,1,38,1,1777.0999999642372,37,1,401.199999988079,10,1,experiment,NA,NA,1,0.7,0.3,2,3,35,1,NA
fcp-trial,117,851561,0.0-44.0-0.0,voc_e2,12190,"[{""event"":""fullscreenenter"",""trial"":1,""time"":1176},{""event"":""blur"",""trial"":35,""time"":263370},{""event"":""focus"",""trial"":35,""time"":267670}]",NA,NA,NA,NA,NA,2,#3386FF,#D89F1C,0,10,1,38,1,3076.600000023842,37,1,378.5,0,1,experiment,NA,NA,2,0.5,0.5,4,5,36,1,NA
fcp-trial,118,854649,0.0-45.0-0.0,voc_e2,12190,"[{""event"":""fullscreenenter"",""trial"":1,""time"":1176},{""event"":""blur"",""trial"":35,""time"":263370},{""event"":""focus"",""trial"":35,""time"":267670}]",NA,NA,NA,NA,NA,6,#1CD855,#FA92F8,10,0,1,38,1,1150,37,1,427,10,1,experiment,NA,NA,0,0.9,0.1,0,1,37,1,NA
fcp-trial,119,857702,0.0-46.0-0.0,voc_e2,12190,"[{""event"":""fullscreenenter"",""trial"":1,""time"":1176},{""event"":""blur"",""trial"":35,""time"":263370},{""event"":""focus"",""trial"":35,""time"":267670}]",NA,NA,NA,NA,NA,2,#FA92F8,#1CD855,0,10,0,38,1,1187.9000000357628,39,0,357.2000000476837,10,1,experiment,NA,NA,0,0.1,0.9,1,0,38,1,NA
fcp-trial,120,862558,0.0-47.0-0.0,voc_e2,12190,"[{""event"":""fullscreenenter"",""trial"":1,""time"":1176},{""event"":""blur"",""trial"":35,""time"":263370},{""event"":""focus"",""trial"":35,""time"":267670}]",NA,NA,NA,NA,NA,6,#741CD8,#D8271C,10,10,0,40,0,2937.600000023842,37,1,414.2000000476837,10,0,experiment,NA,NA,1,0.3,0.7,3,2,39,1,NA
fcp-trial,121,865740,0.0-48.0-0.0,voc_e2,12190,"[{""event"":""fullscreenenter"",""trial"":1,""time"":1176},{""event"":""blur"",""trial"":35,""time"":263370},{""event"":""focus"",""trial"":35,""time"":267670}]",NA,NA,NA,NA,NA,2,#741CD8,#D8271C,0,10,0,38,1,1169.199999988079,37,1,506.10000002384186,0,0,experiment,NA,NA,1,0.3,0.7,3,2,40,1,NA
fcp-trial,122,870600,0.0-49.0-0.0,voc_e2,12190,"[{""event"":""fullscreenenter"",""trial"":1,""time"":1176},{""event"":""blur"",""trial"":35,""time"":263370},{""event"":""focus"",""trial"":35,""time"":267670}]",NA,NA,NA,NA,NA,1,#D89F1C,#3386FF,0,0,0,38,1,3022.399999976158,39,0,334,0,1,experiment,NA,NA,2,0.5,0.5,5,4,41,1,NA
fcp-trial,123,874570,0.0-50.0-0.0,voc_e2,12190,"[{""event"":""fullscreenenter"",""trial"":1,""time"":1176},{""event"":""blur"",""trial"":35,""time"":263370},{""event"":""focus"",""trial"":35,""time"":267670}]",NA,NA,NA,NA,NA,5,#741CD8,#D8271C,0,10,0,38,1,2128.199999988079,37,1,334.39999997615814,0,0,experiment,NA,NA,1,0.3,0.7,3,2,42,1,NA
fcp-trial,124,878930,0.0-51.0-0.0,voc_e2,12190,"[{""event"":""fullscreenenter"",""trial"":1,""time"":1176},{""event"":""blur"",""trial"":35,""time"":263370},{""event"":""focus"",""trial"":35,""time"":267670}]",NA,NA,NA,NA,NA,3,#D8271C,#741CD8,10,0,1,38,1,2499,37,1,357.10000002384186,10,1,experiment,NA,NA,1,0.7,0.3,2,3,43,1,NA
fcp-trial,125,881713,0.0-52.0-0.0,voc_e2,12190,"[{""event"":""fullscreenenter"",""trial"":1,""time"":1176},{""event"":""blur"",""trial"":35,""time"":263370},{""event"":""focus"",""trial"":35,""time"":267670}]",NA,NA,NA,NA,NA,1,#FA92F8,#1CD855,0,10,0,38,1,991.4000000357628,39,0,287.60000002384186,10,1,experiment,NA,NA,0,0.1,0.9,1,0,44,1,NA
fcp-trial,126,884340,0.0-53.0-0.0,voc_e2,12190,"[{""event"":""fullscreenenter"",""trial"":1,""time"":1176},{""event"":""blur"",""trial"":35,""time"":263370},{""event"":""focus"",""trial"":35,""time"":267670}]",NA,NA,NA,NA,NA,4,#D8271C,#741CD8,10,0,1,38,1,699.3000000119209,37,1,422,10,1,experiment,NA,NA,1,0.7,0.3,2,3,45,1,NA
fcp-trial,127,890707,0.0-54.0-0.0,voc_e2,12190,"[{""event"":""fullscreenenter"",""trial"":1,""time"":1176},{""event"":""blur"",""trial"":35,""time"":263370},{""event"":""focus"",""trial"":35,""time"":267670}]",NA,NA,NA,NA,NA,3,#D89F1C,#3386FF,10,0,0,38,1,3440.300000011921,37,1,1422,10,0,experiment,NA,NA,2,0.5,0.5,5,4,46,2,NA
fcp-trial,128,893537,0.0-55.0-0.0,voc_e2,12190,"[{""event"":""fullscreenenter"",""trial"":1,""time"":1176},{""event"":""blur"",""trial"":35,""time"":263370},{""event"":""focus"",""trial"":35,""time"":267670}]",NA,NA,NA,NA,NA,0,#1CD855,#FA92F8,10,0,1,38,1,927.0999999642372,37,1,397.0999999642372,10,1,experiment,NA,NA,0,0.9,0.1,0,1,47,2,NA
fcp-trial,129,896567,0.0-56.0-0.0,voc_e2,12190,"[{""event"":""fullscreenenter"",""trial"":1,""time"":1176},{""event"":""blur"",""trial"":35,""time"":263370},{""event"":""focus"",""trial"":35,""time"":267670}]",NA,NA,NA,NA,NA,0,#D89F1C,#3386FF,10,0,0,38,1,876.1999999880791,37,1,649.4000000357628,10,0,experiment,NA,NA,2,0.5,0.5,5,4,48,2,NA
fcp-trial,130,900221,0.0-57.0-0.0,voc_e2,12190,"[{""event"":""fullscreenenter"",""trial"":1,""time"":1176},{""event"":""blur"",""trial"":35,""time"":263370},{""event"":""focus"",""trial"":35,""time"":267670}]",NA,NA,NA,NA,NA,5,#D8271C,#741CD8,10,0,1,38,1,503.9000000357628,37,1,1643.199999988079,10,1,experiment,NA,NA,1,0.7,0.3,2,3,49,2,NA
fcp-trial,131,902724,0.0-58.0-0.0,voc_e2,12190,"[{""event"":""fullscreenenter"",""trial"":1,""time"":1176},{""event"":""blur"",""trial"":35,""time"":263370},{""event"":""focus"",""trial"":35,""time"":267670}]",NA,NA,NA,NA,NA,6,#FA92F8,#1CD855,0,10,0,38,1,705.1999999880791,39,0,290.89999997615814,10,1,experiment,NA,NA,0,0.1,0.9,1,0,50,2,NA
fcp-trial,132,905819,0.0-59.0-0.0,voc_e2,12190,"[{""event"":""fullscreenenter"",""trial"":1,""time"":1176},{""event"":""blur"",""trial"":35,""time"":263370},{""event"":""focus"",""trial"":35,""time"":267670}]",NA,NA,NA,NA,NA,4,#D89F1C,#3386FF,10,0,0,38,1,482.39999997615814,37,1,1104.800000011921,10,0,experiment,NA,NA,2,0.5,0.5,5,4,51,2,NA
fcp-trial,133,909712,0.0-60.0-0.0,voc_e2,12190,"[{""event"":""fullscreenenter"",""trial"":1,""time"":1176},{""event"":""blur"",""trial"":35,""time"":263370},{""event"":""focus"",""trial"":35,""time"":267670}]",NA,NA,NA,NA,NA,6,#D8271C,#741CD8,10,0,1,38,1,383.5,37,1,2006,10,1,experiment,NA,NA,1,0.7,0.3,2,3,52,2,NA
fcp-trial,134,912137,0.0-61.0-0.0,voc_e2,12190,"[{""event"":""fullscreenenter"",""trial"":1,""time"":1176},{""event"":""blur"",""trial"":35,""time"":263370},{""event"":""focus"",""trial"":35,""time"":267670}]",NA,NA,NA,NA,NA,1,#741CD8,#D8271C,10,10,0,38,1,582.3000000119209,39,0,335.9000000357628,10,1,experiment,NA,NA,1,0.3,0.7,3,2,53,2,NA
fcp-trial,135,916257,0.0-62.0-0.0,voc_e2,12190,"[{""event"":""fullscreenenter"",""trial"":1,""time"":1176},{""event"":""blur"",""trial"":35,""time"":263370},{""event"":""focus"",""trial"":35,""time"":267670}]",NA,NA,NA,NA,NA,2,#FA92F8,#1CD855,0,10,0,38,1,631.3999999761581,39,0,1985.399999976158,10,1,experiment,NA,NA,0,0.1,0.9,1,0,54,2,NA
fcp-trial,136,920937,0.0-63.0-0.0,voc_e2,12190,"[{""event"":""fullscreenenter"",""trial"":1,""time"":1176},{""event"":""blur"",""trial"":35,""time"":263370},{""event"":""focus"",""trial"":35,""time"":267670}]",NA,NA,NA,NA,NA,6,#3386FF,#D89F1C,0,0,1,38,1,1365.800000011921,39,0,1810.100000023842,0,0,experiment,NA,NA,2,0.5,0.5,4,5,55,2,NA
fcp-trial,137,923912,0.0-64.0-0.0,voc_e2,12190,"[{""event"":""fullscreenenter"",""trial"":1,""time"":1176},{""event"":""blur"",""trial"":35,""time"":263370},{""event"":""focus"",""trial"":35,""time"":267670}]",NA,NA,NA,NA,NA,0,#741CD8,#D8271C,0,10,0,38,1,1068.800000011921,37,1,402.2000000476837,0,0,experiment,NA,NA,1,0.3,0.7,3,2,56,2,NA
fcp-trial,138,928269,0.0-65.0-0.0,voc_e2,12190,"[{""event"":""fullscreenenter"",""trial"":1,""time"":1176},{""event"":""blur"",""trial"":35,""time"":263370},{""event"":""focus"",""trial"":35,""time"":267670}]",NA,NA,NA,NA,NA,1,#D89F1C,#3386FF,0,0,0,38,1,1055,37,1,1797.800000011921,0,0,experiment,NA,NA,2,0.5,0.5,5,4,57,2,NA
fcp-trial,139,930923,0.0-66.0-0.0,voc_e2,12190,"[{""event"":""fullscreenenter"",""trial"":1,""time"":1176},{""event"":""blur"",""trial"":35,""time"":263370},{""event"":""focus"",""trial"":35,""time"":267670}]",NA,NA,NA,NA,NA,4,#FA92F8,#1CD855,0,10,0,38,1,717.8000000119209,39,0,429.199999988079,10,1,experiment,NA,NA,0,0.1,0.9,1,0,58,2,NA
fcp-trial,140,934546,0.0-67.0-0.0,voc_e2,12190,"[{""event"":""fullscreenenter"",""trial"":1,""time"":1176},{""event"":""blur"",""trial"":35,""time"":263370},{""event"":""focus"",""trial"":35,""time"":267670}]",NA,NA,NA,NA,NA,2,#D89F1C,#3386FF,0,0,0,40,0,1507.6000000238419,37,1,611.8000000119209,0,0,experiment,NA,NA,2,0.5,0.5,5,4,59,2,NA
fcp-trial,141,937670,0.0-68.0-0.0,voc_e2,12190,"[{""event"":""fullscreenenter"",""trial"":1,""time"":1176},{""event"":""blur"",""trial"":35,""time"":263370},{""event"":""focus"",""trial"":35,""time"":267670}]",NA,NA,NA,NA,NA,2,#D8271C,#741CD8,0,10,1,38,1,1275.1000000238419,37,1,341,0,1,experiment,NA,NA,1,0.7,0.3,2,3,60,2,NA
fcp-trial,142,940543,0.0-69.0-0.0,voc_e2,12190,"[{""event"":""fullscreenenter"",""trial"":1,""time"":1176},{""event"":""blur"",""trial"":35,""time"":263370},{""event"":""focus"",""trial"":35,""time"":267670}]",NA,NA,NA,NA,NA,5,#D89F1C,#3386FF,10,0,0,38,1,778.9000000357628,39,0,589.6000000238419,0,1,experiment,NA,NA,2,0.5,0.5,5,4,61,2,NA
fcp-trial,143,943024,0.0-70.0-0.0,voc_e2,12190,"[{""event"":""fullscreenenter"",""trial"":1,""time"":1176},{""event"":""blur"",""trial"":35,""time"":263370},{""event"":""focus"",""trial"":35,""time"":267670}]",NA,NA,NA,NA,NA,3,#1CD855,#FA92F8,10,0,1,38,1,667,37,1,308.5,10,1,experiment,NA,NA,0,0.9,0.1,0,1,62,2,NA
fcp-trial,144,946303,0.0-71.0-0.0,voc_e2,12190,"[{""event"":""fullscreenenter"",""trial"":1,""time"":1176},{""event"":""blur"",""trial"":35,""time"":263370},{""event"":""focus"",""trial"":35,""time"":267670}]",NA,NA,NA,NA,NA,5,#1CD855,#FA92F8,10,10,1,38,1,1226.300000011921,37,1,547.8000000119209,10,1,experiment,NA,NA,0,0.9,0.1,0,1,63,2,NA
fcp-trial,145,949147,0.0-72.0-0.0,voc_e2,12190,"[{""event"":""fullscreenenter"",""trial"":1,""time"":1176},{""event"":""blur"",""trial"":35,""time"":263370},{""event"":""focus"",""trial"":35,""time"":267670}]",NA,NA,NA,NA,NA,3,#FA92F8,#1CD855,10,10,0,38,1,921.2000000476837,39,0,415.4000000357628,10,1,experiment,NA,NA,0,0.1,0.9,1,0,64,2,NA
fcp-trial,146,951777,0.0-73.0-0.0,voc_e2,12190,"[{""event"":""fullscreenenter"",""trial"":1,""time"":1176},{""event"":""blur"",""trial"":35,""time"":263370},{""event"":""focus"",""trial"":35,""time"":267670}]",NA,NA,NA,NA,NA,6,#FA92F8,#1CD855,0,10,0,38,1,604,39,0,517.6000000238419,10,1,experiment,NA,NA,0,0.1,0.9,1,0,65,2,NA
fcp-trial,147,954057,0.0-74.0-0.0,voc_e2,12190,"[{""event"":""fullscreenenter"",""trial"":1,""time"":1176},{""event"":""blur"",""trial"":35,""time"":263370},{""event"":""focus"",""trial"":35,""time"":267670}]",NA,NA,NA,NA,NA,3,#D8271C,#741CD8,10,0,1,38,1,429.0999999642372,37,1,345.5,10,1,experiment,NA,NA,1,0.7,0.3,2,3,66,2,NA
fcp-trial,148,956848,0.0-75.0-0.0,voc_e2,12190,"[{""event"":""fullscreenenter"",""trial"":1,""time"":1176},{""event"":""blur"",""trial"":35,""time"":263370},{""event"":""focus"",""trial"":35,""time"":267670}]",NA,NA,NA,NA,NA,2,#D8271C,#741CD8,0,10,1,38,1,757.8000000119209,37,1,527,0,1,experiment,NA,NA,1,0.7,0.3,2,3,67,2,NA
fcp-trial,149,959781,0.0-76.0-0.0,voc_e2,12190,"[{""event"":""fullscreenenter"",""trial"":1,""time"":1176},{""event"":""blur"",""trial"":35,""time"":263370},{""event"":""focus"",""trial"":35,""time"":267670}]",NA,NA,NA,NA,NA,0,#FA92F8,#1CD855,0,0,0,38,1,1173.5,39,0,254,0,1,experiment,NA,NA,0,0.1,0.9,1,0,68,2,NA
fcp-trial,150,964984,0.0-77.0-0.0,voc_e2,12190,"[{""event"":""fullscreenenter"",""trial"":1,""time"":1176},{""event"":""blur"",""trial"":35,""time"":263370},{""event"":""focus"",""trial"":35,""time"":267670}]",NA,NA,NA,NA,NA,5,#D8271C,#741CD8,10,0,1,38,1,769.5,37,1,2918,10,1,experiment,NA,NA,1,0.7,0.3,2,3,69,2,NA
fcp-trial,151,967597,0.0-78.0-0.0,voc_e2,12190,"[{""event"":""fullscreenenter"",""trial"":1,""time"":1176},{""event"":""blur"",""trial"":35,""time"":263370},{""event"":""focus"",""trial"":35,""time"":267670}]",NA,NA,NA,NA,NA,5,#FA92F8,#1CD855,10,10,0,38,1,678.6999999880791,39,0,430.300000011921,10,1,experiment,NA,NA,0,0.1,0.9,1,0,70,2,NA
fcp-trial,152,970724,0.0-79.0-0.0,voc_e2,12190,"[{""event"":""fullscreenenter"",""trial"":1,""time"":1176},{""event"":""blur"",""trial"":35,""time"":263370},{""event"":""focus"",""trial"":35,""time"":267670}]",NA,NA,NA,NA,NA,4,#D89F1C,#3386FF,0,0,0,40,0,1164.6000000238419,39,0,455.4000000357628,0,1,experiment,NA,NA,2,0.5,0.5,5,4,71,2,NA
fcp-trial,153,974132,0.0-80.0-0.0,voc_e2,12190,"[{""event"":""fullscreenenter"",""trial"":1,""time"":1176},{""event"":""blur"",""trial"":35,""time"":263370},{""event"":""focus"",""trial"":35,""time"":267670}]",NA,NA,NA,NA,NA,1,#741CD8,#D8271C,10,10,0,38,1,1413.300000011921,39,0,489.5999999642372,10,1,experiment,NA,NA,1,0.3,0.7,3,2,72,2,NA
fcp-trial,154,976694,0.0-81.0-0.0,voc_e2,12190,"[{""event"":""fullscreenenter"",""trial"":1,""time"":1176},{""event"":""blur"",""trial"":35,""time"":263370},{""event"":""focus"",""trial"":35,""time"":267670}]",NA,NA,NA,NA,NA,1,#FA92F8,#1CD855,0,10,0,38,1,652.5,39,0,403.2999999523163,10,1,experiment,NA,NA,0,0.1,0.9,1,0,73,2,NA
fcp-trial,155,979724,0.0-82.0-0.0,voc_e2,12190,"[{""event"":""fullscreenenter"",""trial"":1,""time"":1176},{""event"":""blur"",""trial"":35,""time"":263370},{""event"":""focus"",""trial"":35,""time"":267670}]",NA,NA,NA,NA,NA,5,#3386FF,#D89F1C,10,10,1,40,0,1136.5,37,1,386.5,10,1,experiment,NA,NA,2,0.5,0.5,4,5,74,2,NA
fcp-trial,156,983623,0.0-83.0-0.0,voc_e2,12190,"[{""event"":""fullscreenenter"",""trial"":1,""time"":1176},{""event"":""blur"",""trial"":35,""time"":263370},{""event"":""focus"",""trial"":35,""time"":267670}]",NA,NA,NA,NA,NA,6,#D8271C,#741CD8,0,0,1,38,1,1920.800000011921,37,1,474,0,1,experiment,NA,NA,1,0.7,0.3,2,3,75,2,NA
fcp-trial,157,987663,0.0-84.0-0.0,voc_e2,12190,"[{""event"":""fullscreenenter"",""trial"":1,""time"":1176},{""event"":""blur"",""trial"":35,""time"":263370},{""event"":""focus"",""trial"":35,""time"":267670}]",NA,NA,NA,NA,NA,2,#D89F1C,#3386FF,10,0,0,38,1,2221.899999976158,39,0,310.30000001192093,0,1,experiment,NA,NA,2,0.5,0.5,5,4,76,2,NA
fcp-trial,158,991270,0.0-85.0-0.0,voc_e2,12190,"[{""event"":""fullscreenenter"",""trial"":1,""time"":1176},{""event"":""blur"",""trial"":35,""time"":263370},{""event"":""focus"",""trial"":35,""time"":267670}]",NA,NA,NA,NA,NA,4,#1CD855,#FA92F8,10,0,1,38,1,947.1000000238419,37,1,1153.399999976158,10,1,experiment,NA,NA,0,0.9,0.1,0,1,77,2,NA
fcp-trial,159,994529,0.0-86.0-0.0,voc_e2,12190,"[{""event"":""fullscreenenter"",""trial"":1,""time"":1176},{""event"":""blur"",""trial"":35,""time"":263370},{""event"":""focus"",""trial"":35,""time"":267670}]",NA,NA,NA,NA,NA,3,#3386FF,#D89F1C,10,10,1,40,0,1312.699999988079,37,1,442.699999988079,10,1,experiment,NA,NA,2,0.5,0.5,4,5,78,2,NA
fcp-trial,160,997584,0.0-87.0-0.0,voc_e2,12190,"[{""event"":""fullscreenenter"",""trial"":1,""time"":1176},{""event"":""blur"",""trial"":35,""time"":263370},{""event"":""focus"",""trial"":35,""time"":267670}]",NA,NA,NA,NA,NA,0,#D89F1C,#3386FF,0,0,0,38,1,1232,39,0,318.5999999642372,0,1,experiment,NA,NA,2,0.5,0.5,5,4,79,2,NA
fcp-trial,161,1002624,0.0-88.0-0.0,voc_e2,12190,"[{""event"":""fullscreenenter"",""trial"":1,""time"":1176},{""event"":""blur"",""trial"":35,""time"":263370},{""event"":""focus"",""trial"":35,""time"":267670}]",NA,NA,NA,NA,NA,0,#D8271C,#741CD8,10,10,1,38,1,1123.199999988079,37,1,2413.2000000476837,10,1,experiment,NA,NA,1,0.7,0.3,2,3,80,2,NA
fcp-trial,162,1007473,0.0-89.0-0.0,voc_e2,12190,"[{""event"":""fullscreenenter"",""trial"":1,""time"":1176},{""event"":""blur"",""trial"":35,""time"":263370},{""event"":""focus"",""trial"":35,""time"":267670}]",NA,NA,NA,NA,NA,1,#D89F1C,#3386FF,10,0,0,40,0,2920.5,39,0,424.89999997615814,0,1,experiment,NA,NA,2,0.5,0.5,5,4,81,2,NA
fcp-trial,163,1010267,0.0-90.0-0.0,voc_e2,12190,"[{""event"":""fullscreenenter"",""trial"":1,""time"":1176},{""event"":""blur"",""trial"":35,""time"":263370},{""event"":""focus"",""trial"":35,""time"":267670}]",NA,NA,NA,NA,NA,2,#1CD855,#FA92F8,10,0,1,38,1,833.1000000238419,37,1,451.199999988079,10,1,experiment,NA,NA,0,0.9,0.1,0,1,82,2,NA
fcp-trial,164,1013063,0.0-91.0-0.0,voc_e2,12190,"[{""event"":""fullscreenenter"",""trial"":1,""time"":1176},{""event"":""blur"",""trial"":35,""time"":263370},{""event"":""focus"",""trial"":35,""time"":267670}]",NA,NA,NA,NA,NA,6,#D89F1C,#3386FF,0,10,0,40,0,927.6999999880791,39,0,362.9000000357628,10,1,experiment,NA,NA,2,0.5,0.5,5,4,83,2,NA
fcp-trial,165,1017722,0.0-92.0-0.0,voc_e2,12190,"[{""event"":""fullscreenenter"",""trial"":1,""time"":1176},{""event"":""blur"",""trial"":35,""time"":263370},{""event"":""focus"",""trial"":35,""time"":267670}]",NA,NA,NA,NA,NA,4,#741CD8,#D8271C,0,10,0,38,1,1310.7999999523163,39,0,1836.5,10,1,experiment,NA,NA,1,0.3,0.7,3,2,84,2,NA
fcp-trial,166,1020721,0.0-93.0-0.0,voc_e2,12190,"[{""event"":""fullscreenenter"",""trial"":1,""time"":1176},{""event"":""blur"",""trial"":35,""time"":263370},{""event"":""focus"",""trial"":35,""time"":267670}]",NA,NA,NA,NA,NA,4,#D8271C,#741CD8,0,0,1,38,1,1180.699999988079,37,1,315.10000002384186,0,1,experiment,NA,NA,1,0.7,0.3,2,3,85,2,NA
fcp-trial,167,1023488,0.0-94.0-0.0,voc_e2,12190,"[{""event"":""fullscreenenter"",""trial"":1,""time"":1176},{""event"":""blur"",""trial"":35,""time"":263370},{""event"":""focus"",""trial"":35,""time"":267670}]",NA,NA,NA,NA,NA,0,#D8271C,#741CD8,10,10,1,38,1,878.8000000119209,37,1,385.10000002384186,10,1,experiment,NA,NA,1,0.7,0.3,2,3,86,2,NA
fcp-trial,168,1026452,0.0-95.0-0.0,voc_e2,12190,"[{""event"":""fullscreenenter"",""trial"":1,""time"":1176},{""event"":""blur"",""trial"":35,""time"":263370},{""event"":""focus"",""trial"":35,""time"":267670}]",NA,NA,NA,NA,NA,5,#3386FF,#D89F1C,10,0,1,40,0,1069.9000000357628,37,1,390.2999999523163,10,1,experiment,NA,NA,2,0.5,0.5,4,5,87,2,NA
fcp-trial,169,1029153,0.0-96.0-0.0,voc_e2,12190,"[{""event"":""fullscreenenter"",""trial"":1,""time"":1176},{""event"":""blur"",""trial"":35,""time"":263370},{""event"":""focus"",""trial"":35,""time"":267670}]",NA,NA,NA,NA,NA,6,#D89F1C,#3386FF,10,0,0,40,0,831.5,39,0,363.7999999523163,0,1,experiment,NA,NA,2,0.5,0.5,5,4,88,2,NA
fcp-trial,170,1033094,0.0-97.0-0.0,voc_e2,12190,"[{""event"":""fullscreenenter"",""trial"":1,""time"":1176},{""event"":""blur"",""trial"":35,""time"":263370},{""event"":""focus"",""trial"":35,""time"":267670}]",NA,NA,NA,NA,NA,2,#FA92F8,#1CD855,0,10,0,38,1,2145.699999988079,39,0,291.2999999523163,10,1,experiment,NA,NA,0,0.1,0.9,1,0,89,2,NA
fcp-trial,171,1036378,0.0-98.0-0.0,voc_e2,12190,"[{""event"":""fullscreenenter"",""trial"":1,""time"":1176},{""event"":""blur"",""trial"":35,""time"":263370},{""event"":""focus"",""trial"":35,""time"":267670}]",NA,NA,NA,NA,NA,4,#FA92F8,#1CD855,0,10,0,38,1,1445.4000000357628,39,0,334.4000000357628,10,1,experiment,NA,NA,0,0.1,0.9,1,0,90,2,NA
fcp-trial,172,1039806,0.0-99.0-0.0,voc_e2,12190,"[{""event"":""fullscreenenter"",""trial"":1,""time"":1176},{""event"":""blur"",""trial"":35,""time"":263370},{""event"":""focus"",""trial"":35,""time"":267670}]",NA,NA,NA,NA,NA,3,#D8271C,#741CD8,10,0,1,38,1,1497.1000000238419,37,1,426.699999988079,10,1,experiment,NA,NA,1,0.7,0.3,2,3,91,3,NA
fcp-trial,173,1043381,0.0-100.0-0.0,voc_e2,12190,"[{""event"":""fullscreenenter"",""trial"":1,""time"":1176},{""event"":""blur"",""trial"":35,""time"":263370},{""event"":""focus"",""trial"":35,""time"":267670}]",NA,NA,NA,NA,NA,2,#D89F1C,#3386FF,0,0,0,40,0,1659.300000011921,37,1,409.4000000357628,0,0,experiment,NA,NA,2,0.5,0.5,5,4,92,3,NA
fcp-trial,174,1047612,0.0-101.0-0.0,voc_e2,12190,"[{""event"":""fullscreenenter"",""trial"":1,""time"":1176},{""event"":""blur"",""trial"":35,""time"":263370},{""event"":""focus"",""trial"":35,""time"":267670}]",NA,NA,NA,NA,NA,2,#D8271C,#741CD8,10,0,1,38,1,1927.5999999642372,37,1,796.3000000119209,10,1,experiment,NA,NA,1,0.7,0.3,2,3,93,3,NA
fcp-trial,175,1051396,0.0-102.0-0.0,voc_e2,12190,"[{""event"":""fullscreenenter"",""trial"":1,""time"":1176},{""event"":""blur"",""trial"":35,""time"":263370},{""event"":""focus"",""trial"":35,""time"":267670}]",NA,NA,NA,NA,NA,6,#1CD855,#FA92F8,10,0,1,40,0,1906,39,0,373.89999997615814,0,0,experiment,NA,NA,0,0.9,0.1,0,1,94,3,NA
fcp-trial,176,1055747,0.0-103.0-0.0,voc_e2,12190,"[{""event"":""fullscreenenter"",""trial"":1,""time"":1176},{""event"":""blur"",""trial"":35,""time"":263370},{""event"":""focus"",""trial"":35,""time"":267670}]",NA,NA,NA,NA,NA,6,#D8271C,#741CD8,10,0,1,38,1,1898.1000000238419,37,1,944.5,10,1,experiment,NA,NA,1,0.7,0.3,2,3,95,3,NA
fcp-trial,177,1058521,0.0-104.0-0.0,voc_e2,12190,"[{""event"":""fullscreenenter"",""trial"":1,""time"":1176},{""event"":""blur"",""trial"":35,""time"":263370},{""event"":""focus"",""trial"":35,""time"":267670}]",NA,NA,NA,NA,NA,4,#3386FF,#D89F1C,10,0,1,40,0,833.8999999761581,37,1,434.89999997615814,10,1,experiment,NA,NA,2,0.5,0.5,4,5,96,3,NA
fcp-trial,178,1062420,0.0-105.0-0.0,voc_e2,12190,"[{""event"":""fullscreenenter"",""trial"":1,""time"":1176},{""event"":""blur"",""trial"":35,""time"":263370},{""event"":""focus"",""trial"":35,""time"":267670}]",NA,NA,NA,NA,NA,1,#D8271C,#741CD8,10,0,1,38,1,1241.5999999642372,37,1,1152.5,10,1,experiment,NA,NA,1,0.7,0.3,2,3,97,3,NA
fcp-trial,179,1065668,0.0-106.0-0.0,voc_e2,12190,"[{""event"":""fullscreenenter"",""trial"":1,""time"":1176},{""event"":""blur"",""trial"":35,""time"":263370},{""event"":""focus"",""trial"":35,""time"":267670}]",NA,NA,NA,NA,NA,5,#FA92F8,#1CD855,0,10,0,38,1,1203,39,0,540.3999999761581,10,1,experiment,NA,NA,0,0.1,0.9,1,0,98,3,NA
fcp-trial,180,1068384,0.0-107.0-0.0,voc_e2,12190,"[{""event"":""fullscreenenter"",""trial"":1,""time"":1176},{""event"":""blur"",""trial"":35,""time"":263370},{""event"":""focus"",""trial"":35,""time"":267670}]",NA,NA,NA,NA,NA,1,#FA92F8,#1CD855,0,10,0,38,1,807.6999999880791,39,0,399.699999988079,10,1,experiment,NA,NA,0,0.1,0.9,1,0,99,3,NA
fcp-trial,181,1071144,0.0-108.0-0.0,voc_e2,12190,"[{""event"":""fullscreenenter"",""trial"":1,""time"":1176},{""event"":""blur"",""trial"":35,""time"":263370},{""event"":""focus"",""trial"":35,""time"":267670}]",NA,NA,NA,NA,NA,0,#3386FF,#D89F1C,0,0,1,38,1,947.6999999880791,37,1,308.19999998807907,0,1,experiment,NA,NA,2,0.5,0.5,4,5,100,3,NA
fcp-trial,182,1073949,0.0-109.0-0.0,voc_e2,12190,"[{""event"":""fullscreenenter"",""trial"":1,""time"":1176},{""event"":""blur"",""trial"":35,""time"":263370},{""event"":""focus"",""trial"":35,""time"":267670}]",NA,NA,NA,NA,NA,5,#D8271C,#741CD8,10,0,1,38,1,1006.6000000238419,37,1,293.30000001192093,10,1,experiment,NA,NA,1,0.7,0.3,2,3,101,3,NA
fcp-trial,183,1077658,0.0-110.0-0.0,voc_e2,12190,"[{""event"":""fullscreenenter"",""trial"":1,""time"":1176},{""event"":""blur"",""trial"":35,""time"":263370},{""event"":""focus"",""trial"":35,""time"":267670}]",NA,NA,NA,NA,NA,3,#1CD855,#FA92F8,10,0,1,38,1,1809.699999988079,37,1,395.4000000357628,10,1,experiment,NA,NA,0,0.9,0.1,0,1,102,3,NA
fcp-trial,184,1081050,0.0-111.0-0.0,voc_e2,12190,"[{""event"":""fullscreenenter"",""trial"":1,""time"":1176},{""event"":""blur"",""trial"":35,""time"":263370},{""event"":""focus"",""trial"":35,""time"":267670}]",NA,NA,NA,NA,NA,3,#D89F1C,#3386FF,10,10,0,38,1,1479.3999999761581,39,0,408.60000002384186,10,1,experiment,NA,NA,2,0.5,0.5,5,4,103,3,NA
fcp-trial,185,1083747,0.0-112.0-0.0,voc_e2,12190,"[{""event"":""fullscreenenter"",""trial"":1,""time"":1176},{""event"":""blur"",""trial"":35,""time"":263370},{""event"":""focus"",""trial"":35,""time"":267670}]",NA,NA,NA,NA,NA,0,#1CD855,#FA92F8,10,0,1,38,1,731.4000000357628,37,1,460.800000011921,10,1,experiment,NA,NA,0,0.9,0.1,0,1,104,3,NA
fcp-trial,186,1086409,0.0-113.0-0.0,voc_e2,12190,"[{""event"":""fullscreenenter"",""trial"":1,""time"":1176},{""event"":""blur"",""trial"":35,""time"":263370},{""event"":""focus"",""trial"":35,""time"":267670}]",NA,NA,NA,NA,NA,1,#D89F1C,#3386FF,0,0,0,38,1,801.3000000119209,39,0,344.80000001192093,0,1,experiment,NA,NA,2,0.5,0.5,5,4,105,3,NA
audio-instructions,187,1092527,0.0-114.0,voc_e2,12190,"[{""event"":""fullscreenenter"",""trial"":1,""time"":1176},{""event"":""blur"",""trial"":35,""time"":263370},{""event"":""focus"",""trial"":35,""time"":267670}]",NA,1023.600000023842,static/audio/pause.wav,NA,0,NA,NA,NA,NA,NA,NA,NA,NA,NA,NA,NA,NA,NA,NA,NA,NA,NA,NA,NA,NA,NA,NA,NA,NA,NA
fcp-trial,188,1099079,0.0-115.0-0.0,voc_e2,12190,"[{""event"":""fullscreenenter"",""trial"":1,""time"":1176},{""event"":""blur"",""trial"":35,""time"":263370},{""event"":""focus"",""trial"":35,""time"":267670}]",NA,NA,NA,NA,NA,4,#741CD8,#D8271C,0,10,0,38,1,3700.800000011921,39,0,1339,10,1,experiment,NA,NA,1,0.3,0.7,3,2,106,3,NA
fcp-trial,189,1101465,0.0-116.0-0.0,voc_e2,12190,"[{""event"":""fullscreenenter"",""trial"":1,""time"":1176},{""event"":""blur"",""trial"":35,""time"":263370},{""event"":""focus"",""trial"":35,""time"":267670}]",NA,NA,NA,NA,NA,0,#741CD8,#D8271C,0,10,0,38,1,482.7999999523163,39,0,374.199999988079,10,1,experiment,NA,NA,1,0.3,0.7,3,2,107,3,NA
fcp-trial,190,1103666,0.0-117.0-0.0,voc_e2,12190,"[{""event"":""fullscreenenter"",""trial"":1,""time"":1176},{""event"":""blur"",""trial"":35,""time"":263370},{""event"":""focus"",""trial"":35,""time"":267670}]",NA,NA,NA,NA,NA,1,#741CD8,#D8271C,10,0,0,38,1,329.19999998807907,39,0,358,0,1,experiment,NA,NA,1,0.3,0.7,3,2,108,3,NA
fcp-trial,191,1106099,0.0-118.0-0.0,voc_e2,12190,"[{""event"":""fullscreenenter"",""trial"":1,""time"":1176},{""event"":""blur"",""trial"":35,""time"":263370},{""event"":""focus"",""trial"":35,""time"":267670}]",NA,NA,NA,NA,NA,4,#D89F1C,#3386FF,0,10,0,38,1,483.5,39,0,434,10,1,experiment,NA,NA,2,0.5,0.5,5,4,109,3,NA
fcp-trial,192,1108533,0.0-119.0-0.0,voc_e2,12190,"[{""event"":""fullscreenenter"",""trial"":1,""time"":1176},{""event"":""blur"",""trial"":35,""time"":263370},{""event"":""focus"",""trial"":35,""time"":267670}]",NA,NA,NA,NA,NA,1,#1CD855,#FA92F8,10,0,1,38,1,546,37,1,384.2999999523163,10,1,experiment,NA,NA,0,0.9,0.1,0,1,110,3,NA
fcp-trial,193,1111647,0.0-120.0-0.0,voc_e2,12190,"[{""event"":""fullscreenenter"",""trial"":1,""time"":1176},{""event"":""blur"",""trial"":35,""time"":263370},{""event"":""focus"",""trial"":35,""time"":267670}]",NA,NA,NA,NA,NA,6,#D89F1C,#3386FF,10,0,0,40,0,1214.0999999642372,39,0,375.699999988079,0,1,experiment,NA,NA,2,0.5,0.5,5,4,111,3,NA
fcp-trial,194,1114446,0.0-121.0-0.0,voc_e2,12190,"[{""event"":""fullscreenenter"",""trial"":1,""time"":1176},{""event"":""blur"",""trial"":35,""time"":263370},{""event"":""focus"",""trial"":35,""time"":267670}]",NA,NA,NA,NA,NA,2,#1CD855,#FA92F8,0,0,1,38,1,772,37,1,512.6999999880791,0,1,experiment,NA,NA,0,0.9,0.1,0,1,112,3,NA
fcp-trial,195,1116882,0.0-122.0-0.0,voc_e2,12190,"[{""event"":""fullscreenenter"",""trial"":1,""time"":1176},{""event"":""blur"",""trial"":35,""time"":263370},{""event"":""focus"",""trial"":35,""time"":267670}]",NA,NA,NA,NA,NA,2,#741CD8,#D8271C,0,10,0,38,1,621.5999999642372,39,0,299.19999998807907,10,1,experiment,NA,NA,1,0.3,0.7,3,2,113,3,NA
fcp-trial,196,1120164,0.0-123.0-0.0,voc_e2,12190,"[{""event"":""fullscreenenter"",""trial"":1,""time"":1176},{""event"":""blur"",""trial"":35,""time"":263370},{""event"":""focus"",""trial"":35,""time"":267670}]",NA,NA,NA,NA,NA,6,#FA92F8,#1CD855,0,10,0,38,1,1424.2000000476837,39,0,346.10000002384186,10,1,experiment,NA,NA,0,0.1,0.9,1,0,114,3,NA
fcp-trial,197,1122906,0.0-124.0-0.0,voc_e2,12190,"[{""event"":""fullscreenenter"",""trial"":1,""time"":1176},{""event"":""blur"",""trial"":35,""time"":263370},{""event"":""focus"",""trial"":35,""time"":267670}]",NA,NA,NA,NA,NA,2,#3386FF,#D89F1C,0,0,1,38,1,845.0999999642372,37,1,392.4000000357628,0,1,experiment,NA,NA,2,0.5,0.5,4,5,115,3,NA
fcp-trial,198,1125817,0.0-125.0-0.0,voc_e2,12190,"[{""event"":""fullscreenenter"",""trial"":1,""time"":1176},{""event"":""blur"",""trial"":35,""time"":263370},{""event"":""focus"",""trial"":35,""time"":267670}]",NA,NA,NA,NA,NA,3,#D89F1C,#3386FF,10,10,0,40,0,941.3999999761581,37,1,465,10,0,experiment,NA,NA,2,0.5,0.5,5,4,116,3,NA
fcp-trial,199,1128547,0.0-126.0-0.0,voc_e2,12190,"[{""event"":""fullscreenenter"",""trial"":1,""time"":1176},{""event"":""blur"",""trial"":35,""time"":263370},{""event"":""focus"",""trial"":35,""time"":267670}]",NA,NA,NA,NA,NA,4,#FA92F8,#1CD855,0,10,0,38,1,880,39,0,344.5,10,1,experiment,NA,NA,0,0.1,0.9,1,0,117,3,NA
fcp-trial,200,1130837,0.0-127.0-0.0,voc_e2,12190,"[{""event"":""fullscreenenter"",""trial"":1,""time"":1176},{""event"":""blur"",""trial"":35,""time"":263370},{""event"":""focus"",""trial"":35,""time"":267670}]",NA,NA,NA,NA,NA,3,#D8271C,#741CD8,10,10,1,38,1,497.30000001192093,37,1,285.19999998807907,10,1,experiment,NA,NA,1,0.7,0.3,2,3,118,3,NA
fcp-trial,201,1133634,0.0-128.0-0.0,voc_e2,12190,"[{""event"":""fullscreenenter"",""trial"":1,""time"":1176},{""event"":""blur"",""trial"":35,""time"":263370},{""event"":""focus"",""trial"":35,""time"":267670}]",NA,NA,NA,NA,NA,5,#D89F1C,#3386FF,0,0,0,40,0,913.6999999880791,37,1,377,0,0,experiment,NA,NA,2,0.5,0.5,5,4,119,3,NA
fcp-trial,202,1136189,0.0-129.0-0.0,voc_e2,12190,"[{""event"":""fullscreenenter"",""trial"":1,""time"":1176},{""event"":""blur"",""trial"":35,""time"":263370},{""event"":""focus"",""trial"":35,""time"":267670}]",NA,NA,NA,NA,NA,3,#1CD855,#FA92F8,0,0,1,38,1,720.6000000238419,37,1,329.60000002384186,0,1,experiment,NA,NA,0,0.9,0.1,0,1,120,3,NA
fcp-trial,203,1139034,0.0-130.0-0.0,voc_e2,12190,"[{""event"":""fullscreenenter"",""trial"":1,""time"":1176},{""event"":""blur"",""trial"":35,""time"":263370},{""event"":""focus"",""trial"":35,""time"":267670}]",NA,NA,NA,NA,NA,1,#3386FF,#D89F1C,10,0,1,38,1,932.8000000119209,37,1,408.60000002384186,10,1,experiment,NA,NA,2,0.5,0.5,4,5,121,3,NA
fcp-trial,204,1142177,0.0-131.0-0.0,voc_e2,12190,"[{""event"":""fullscreenenter"",""trial"":1,""time"":1176},{""event"":""blur"",""trial"":35,""time"":263370},{""event"":""focus"",""trial"":35,""time"":267670}]",NA,NA,NA,NA,NA,5,#1CD855,#FA92F8,10,10,1,38,1,1299.7000000476837,37,1,339.19999998807907,10,1,experiment,NA,NA,0,0.9,0.1,0,1,122,3,NA
fcp-trial,205,1144932,0.0-132.0-0.0,voc_e2,12190,"[{""event"":""fullscreenenter"",""trial"":1,""time"":1176},{""event"":""blur"",""trial"":35,""time"":263370},{""event"":""focus"",""trial"":35,""time"":267670}]",NA,NA,NA,NA,NA,5,#741CD8,#D8271C,10,0,0,38,1,925.1000000238419,39,0,322.5999999642372,0,1,experiment,NA,NA,1,0.3,0.7,3,2,123,3,NA
fcp-trial,206,1148870,0.0-133.0-0.0,voc_e2,12190,"[{""event"":""fullscreenenter"",""trial"":1,""time"":1176},{""event"":""blur"",""trial"":35,""time"":263370},{""event"":""focus"",""trial"":35,""time"":267670}]",NA,NA,NA,NA,NA,0,#D89F1C,#3386FF,10,0,0,38,1,2111.900000035763,39,0,319.5,0,1,experiment,NA,NA,2,0.5,0.5,5,4,124,3,NA
fcp-trial,207,1152975,0.0-134.0-0.0,voc_e2,12190,"[{""event"":""fullscreenenter"",""trial"":1,""time"":1176},{""event"":""blur"",""trial"":35,""time"":263370},{""event"":""focus"",""trial"":35,""time"":267670}]",NA,NA,NA,NA,NA,6,#D8271C,#741CD8,10,0,1,38,1,1560.3999999761581,37,1,1039.399999976158,10,1,experiment,NA,NA,1,0.7,0.3,2,3,125,3,NA
fcp-trial,208,1155545,0.0-135.0-0.0,voc_e2,12190,"[{""event"":""fullscreenenter"",""trial"":1,""time"":1176},{""event"":""blur"",""trial"":35,""time"":263370},{""event"":""focus"",""trial"":35,""time"":267670}]",NA,NA,NA,NA,NA,0,#1CD855,#FA92F8,10,0,1,38,1,626.6999999880791,37,1,433,10,1,experiment,NA,NA,0,0.9,0.1,0,1,126,3,NA
fcp-trial,209,1158240,0.0-136.0-0.0,voc_e2,12190,"[{""event"":""fullscreenenter"",""trial"":1,""time"":1176},{""event"":""blur"",""trial"":35,""time"":263370},{""event"":""focus"",""trial"":35,""time"":267670}]",NA,NA,NA,NA,NA,3,#1CD855,#FA92F8,10,0,1,38,1,665,37,1,522.5,10,1,experiment,NA,NA,0,0.9,0.1,0,1,127,3,NA
fcp-trial,210,1161306,0.0-137.0-0.0,voc_e2,12190,"[{""event"":""fullscreenenter"",""trial"":1,""time"":1176},{""event"":""blur"",""trial"":35,""time"":263370},{""event"":""focus"",""trial"":35,""time"":267670}]",NA,NA,NA,NA,NA,3,#D89F1C,#3386FF,10,0,0,40,0,995.1999999880791,37,1,566.5,10,0,experiment,NA,NA,2,0.5,0.5,5,4,128,3,NA
fcp-trial,211,1164145,0.0-138.0-0.0,voc_e2,12190,"[{""event"":""fullscreenenter"",""trial"":1,""time"":1176},{""event"":""blur"",""trial"":35,""time"":263370},{""event"":""focus"",""trial"":35,""time"":267670}]",NA,NA,NA,NA,NA,6,#D8271C,#741CD8,10,10,1,38,1,859.5,37,1,475.39999997615814,10,1,experiment,NA,NA,1,0.7,0.3,2,3,129,3,NA
fcp-trial,212,1166768,0.0-139.0-0.0,voc_e2,12190,"[{""event"":""fullscreenenter"",""trial"":1,""time"":1176},{""event"":""blur"",""trial"":35,""time"":263370},{""event"":""focus"",""trial"":35,""time"":267670}]",NA,NA,NA,NA,NA,1,#D89F1C,#3386FF,0,0,0,38,1,650.7999999523163,39,0,465.300000011921,0,1,experiment,NA,NA,2,0.5,0.5,5,4,130,3,NA
fcp-trial,213,1170552,0.0-140.0-0.0,voc_e2,12190,"[{""event"":""fullscreenenter"",""trial"":1,""time"":1176},{""event"":""blur"",""trial"":35,""time"":263370},{""event"":""focus"",""trial"":35,""time"":267670}]",NA,NA,NA,NA,NA,2,#FA92F8,#1CD855,0,10,0,38,1,785.1999999880791,39,0,1492.0999999642372,10,1,experiment,NA,NA,0,0.1,0.9,1,0,131,3,NA
fcp-trial,214,1173455,0.0-141.0-0.0,voc_e2,12190,"[{""event"":""fullscreenenter"",""trial"":1,""time"":1176},{""event"":""blur"",""trial"":35,""time"":263370},{""event"":""focus"",""trial"":35,""time"":267670}]",NA,NA,NA,NA,NA,5,#D8271C,#741CD8,10,0,1,38,1,886.5,37,1,513.3000000119209,10,1,experiment,NA,NA,1,0.7,0.3,2,3,132,3,NA
fcp-trial,215,1176253,0.0-142.0-0.0,voc_e2,12190,"[{""event"":""fullscreenenter"",""trial"":1,""time"":1176},{""event"":""blur"",""trial"":35,""time"":263370},{""event"":""focus"",""trial"":35,""time"":267670}]",NA,NA,NA,NA,NA,1,#FA92F8,#1CD855,0,10,0,38,1,832.8000000119209,39,0,459.2999999523163,10,1,experiment,NA,NA,0,0.1,0.9,1,0,133,3,NA
fcp-trial,216,1179720,0.0-143.0-0.0,voc_e2,12190,"[{""event"":""fullscreenenter"",""trial"":1,""time"":1176},{""event"":""blur"",""trial"":35,""time"":263370},{""event"":""focus"",""trial"":35,""time"":267670}]",NA,NA,NA,NA,NA,0,#D89F1C,#3386FF,10,10,0,38,1,890.7999999523163,39,0,1071.399999976158,10,1,experiment,NA,NA,2,0.5,0.5,5,4,134,3,NA
fcp-trial,217,1182850,0.0-144.0-0.0,voc_e2,12190,"[{""event"":""fullscreenenter"",""trial"":1,""time"":1176},{""event"":""blur"",""trial"":35,""time"":263370},{""event"":""focus"",""trial"":35,""time"":267670}]",NA,NA,NA,NA,NA,1,#741CD8,#D8271C,10,10,0,38,1,1044.5,39,0,579.1999999880791,10,1,experiment,NA,NA,1,0.3,0.7,3,2,135,3,NA
fcp-trial,218,1185665,0.0-145.0-0.0,voc_e2,12190,"[{""event"":""fullscreenenter"",""trial"":1,""time"":1176},{""event"":""blur"",""trial"":35,""time"":263370},{""event"":""focus"",""trial"":35,""time"":267670}]",NA,NA,NA,NA,NA,6,#FA92F8,#1CD855,0,10,0,38,1,814,39,0,497.10000002384186,10,1,experiment,NA,NA,0,0.1,0.9,1,0,136,4,NA
fcp-trial,219,1188219,0.0-146.0-0.0,voc_e2,12190,"[{""event"":""fullscreenenter"",""trial"":1,""time"":1176},{""event"":""blur"",""trial"":35,""time"":263370},{""event"":""focus"",""trial"":35,""time"":267670}]",NA,NA,NA,NA,NA,6,#3386FF,#D89F1C,0,0,1,38,1,561.3999999761581,37,1,489,0,1,experiment,NA,NA,2,0.5,0.5,4,5,137,4,NA
fcp-trial,220,1190737,0.0-147.0-0.0,voc_e2,12190,"[{""event"":""fullscreenenter"",""trial"":1,""time"":1176},{""event"":""blur"",""trial"":35,""time"":263370},{""event"":""focus"",""trial"":35,""time"":267670}]",NA,NA,NA,NA,NA,3,#D8271C,#741CD8,10,10,1,38,1,539.6999999880791,37,1,474.39999997615814,10,1,experiment,NA,NA,1,0.7,0.3,2,3,138,4,NA
fcp-trial,221,1193104,0.0-148.0-0.0,voc_e2,12190,"[{""event"":""fullscreenenter"",""trial"":1,""time"":1176},{""event"":""blur"",""trial"":35,""time"":263370},{""event"":""focus"",""trial"":35,""time"":267670}]",NA,NA,NA,NA,NA,4,#D89F1C,#3386FF,0,10,0,38,1,451.30000001192093,39,0,409.60000002384186,10,1,experiment,NA,NA,2,0.5,0.5,5,4,139,4,NA
fcp-trial,222,1195680,0.0-149.0-0.0,voc_e2,12190,"[{""event"":""fullscreenenter"",""trial"":1,""time"":1176},{""event"":""blur"",""trial"":35,""time"":263370},{""event"":""focus"",""trial"":35,""time"":267670}]",NA,NA,NA,NA,NA,2,#D8271C,#741CD8,10,0,1,38,1,553.8000000119209,37,1,517.3000000119209,10,1,experiment,NA,NA,1,0.7,0.3,2,3,140,4,NA
fcp-trial,223,1198836,0.0-150.0-0.0,voc_e2,12190,"[{""event"":""fullscreenenter"",""trial"":1,""time"":1176},{""event"":""blur"",""trial"":35,""time"":263370},{""event"":""focus"",""trial"":35,""time"":267670}]",NA,NA,NA,NA,NA,0,#1CD855,#FA92F8,10,10,1,38,1,1155.300000011921,37,1,494.699999988079,10,1,experiment,NA,NA,0,0.9,0.1,0,1,141,4,NA
fcp-trial,224,1201382,0.0-151.0-0.0,voc_e2,12190,"[{""event"":""fullscreenenter"",""trial"":1,""time"":1176},{""event"":""blur"",""trial"":35,""time"":263370},{""event"":""focus"",""trial"":35,""time"":267670}]",NA,NA,NA,NA,NA,5,#D89F1C,#3386FF,0,0,0,38,1,611.3999999761581,39,0,430.5999999642372,0,1,experiment,NA,NA,2,0.5,0.5,5,4,142,4,NA
fcp-trial,225,1203983,0.0-152.0-0.0,voc_e2,12190,"[{""event"":""fullscreenenter"",""trial"":1,""time"":1176},{""event"":""blur"",""trial"":35,""time"":263370},{""event"":""focus"",""trial"":35,""time"":267670}]",NA,NA,NA,NA,NA,5,#FA92F8,#1CD855,0,10,0,38,1,570,39,0,524,10,1,experiment,NA,NA,0,0.1,0.9,1,0,143,4,NA
fcp-trial,226,1207141,0.0-153.0-0.0,voc_e2,12190,"[{""event"":""fullscreenenter"",""trial"":1,""time"":1176},{""event"":""blur"",""trial"":35,""time"":263370},{""event"":""focus"",""trial"":35,""time"":267670}]",NA,NA,NA,NA,NA,4,#1CD855,#FA92F8,10,0,1,38,1,909,37,1,744.6999999880791,10,1,experiment,NA,NA,0,0.9,0.1,0,1,144,4,NA
fcp-trial,227,1209917,0.0-154.0-0.0,voc_e2,12190,"[{""event"":""fullscreenenter"",""trial"":1,""time"":1176},{""event"":""blur"",""trial"":35,""time"":263370},{""event"":""focus"",""trial"":35,""time"":267670}]",NA,NA,NA,NA,NA,0,#D8271C,#741CD8,0,0,1,38,1,770.6000000238419,37,1,499.5,0,1,experiment,NA,NA,1,0.7,0.3,2,3,145,4,NA
fcp-trial,228,1212620,0.0-155.0-0.0,voc_e2,12190,"[{""event"":""fullscreenenter"",""trial"":1,""time"":1176},{""event"":""blur"",""trial"":35,""time"":263370},{""event"":""focus"",""trial"":35,""time"":267670}]",NA,NA,NA,NA,NA,2,#3386FF,#D89F1C,10,0,1,40,0,834.1999999880791,37,1,365.0999999642372,10,1,experiment,NA,NA,2,0.5,0.5,4,5,146,4,NA
fcp-trial,229,1215288,0.0-156.0-0.0,voc_e2,12190,"[{""event"":""fullscreenenter"",""trial"":1,""time"":1176},{""event"":""blur"",""trial"":35,""time"":263370},{""event"":""focus"",""trial"":35,""time"":267670}]",NA,NA,NA,NA,NA,4,#D8271C,#741CD8,0,0,1,38,1,679.1999999880791,37,1,483.199999988079,0,1,experiment,NA,NA,1,0.7,0.3,2,3,147,4,NA
fcp-trial,230,1217757,0.0-157.0-0.0,voc_e2,12190,"[{""event"":""fullscreenenter"",""trial"":1,""time"":1176},{""event"":""blur"",""trial"":35,""time"":263370},{""event"":""focus"",""trial"":35,""time"":267670}]",NA,NA,NA,NA,NA,4,#FA92F8,#1CD855,10,10,0,38,1,550.4000000357628,39,0,414.300000011921,10,1,experiment,NA,NA,0,0.1,0.9,1,0,148,4,NA
fcp-trial,231,1221225,0.0-158.0-0.0,voc_e2,12190,"[{""event"":""fullscreenenter"",""trial"":1,""time"":1176},{""event"":""blur"",""trial"":35,""time"":263370},{""event"":""focus"",""trial"":35,""time"":267670}]",NA,NA,NA,NA,NA,2,#D89F1C,#3386FF,0,0,0,40,0,1478.2000000476837,37,1,486.0999999642372,0,0,experiment,NA,NA,2,0.5,0.5,5,4,149,4,NA
fcp-trial,232,1223983,0.0-159.0-0.0,voc_e2,12190,"[{""event"":""fullscreenenter"",""trial"":1,""time"":1176},{""event"":""blur"",""trial"":35,""time"":263370},{""event"":""focus"",""trial"":35,""time"":267670}]",NA,NA,NA,NA,NA,6,#3386FF,#D89F1C,0,0,1,40,0,785.3999999761581,39,0,468.7999999523163,0,0,experiment,NA,NA,2,0.5,0.5,4,5,150,4,NA
fcp-trial,233,1226766,0.0-160.0-0.0,voc_e2,12190,"[{""event"":""fullscreenenter"",""trial"":1,""time"":1176},{""event"":""blur"",""trial"":35,""time"":263370},{""event"":""focus"",""trial"":35,""time"":267670}]",NA,NA,NA,NA,NA,0,#3386FF,#D89F1C,0,0,1,38,1,858.1000000238419,37,1,420,0,1,experiment,NA,NA,2,0.5,0.5,4,5,151,4,NA
fcp-trial,234,1229681,0.0-161.0-0.0,voc_e2,12190,"[{""event"":""fullscreenenter"",""trial"":1,""time"":1176},{""event"":""blur"",""trial"":35,""time"":263370},{""event"":""focus"",""trial"":35,""time"":267670}]",NA,NA,NA,NA,NA,5,#D8271C,#741CD8,10,0,1,38,1,922.8000000119209,37,1,488.39999997615814,10,1,experiment,NA,NA,1,0.7,0.3,2,3,152,4,NA
fcp-trial,235,1232622,0.0-162.0-0.0,voc_e2,12190,"[{""event"":""fullscreenenter"",""trial"":1,""time"":1176},{""event"":""blur"",""trial"":35,""time"":263370},{""event"":""focus"",""trial"":35,""time"":267670}]",NA,NA,NA,NA,NA,1,#FA92F8,#1CD855,0,10,0,38,1,992.1000000238419,39,0,444.5999999642372,10,1,experiment,NA,NA,0,0.1,0.9,1,0,153,4,NA
fcp-trial,236,1235202,0.0-163.0-0.0,voc_e2,12190,"[{""event"":""fullscreenenter"",""trial"":1,""time"":1176},{""event"":""blur"",""trial"":35,""time"":263370},{""event"":""focus"",""trial"":35,""time"":267670}]",NA,NA,NA,NA,NA,0,#D8271C,#741CD8,10,0,1,38,1,592.5999999642372,37,1,483.5,10,1,experiment,NA,NA,1,0.7,0.3,2,3,154,4,NA
fcp-trial,237,1238259,0.0-164.0-0.0,voc_e2,12190,"[{""event"":""fullscreenenter"",""trial"":1,""time"":1176},{""event"":""blur"",""trial"":35,""time"":263370},{""event"":""focus"",""trial"":35,""time"":267670}]",NA,NA,NA,NA,NA,1,#D89F1C,#3386FF,0,0,0,38,1,1227.199999988079,39,0,326.30000001192093,0,1,experiment,NA,NA,2,0.5,0.5,5,4,155,4,NA
fcp-trial,238,1242025,0.0-165.0-0.0,voc_e2,12190,"[{""event"":""fullscreenenter"",""trial"":1,""time"":1176},{""event"":""blur"",""trial"":35,""time"":263370},{""event"":""focus"",""trial"":35,""time"":267670}]",NA,NA,NA,NA,NA,6,#1CD855,#FA92F8,10,0,1,38,1,1788.300000011921,37,1,474,10,1,experiment,NA,NA,0,0.9,0.1,0,1,156,4,NA
fcp-trial,239,1245065,0.0-166.0-0.0,voc_e2,12190,"[{""event"":""fullscreenenter"",""trial"":1,""time"":1176},{""event"":""blur"",""trial"":35,""time"":263370},{""event"":""focus"",""trial"":35,""time"":267670}]",NA,NA,NA,NA,NA,5,#FA92F8,#1CD855,0,10,0,40,0,911.5999999642372,37,1,623.5,0,0,experiment,NA,NA,0,0.1,0.9,1,0,157,4,NA
fcp-trial,240,1248684,0.0-167.0-0.0,voc_e2,12190,"[{""event"":""fullscreenenter"",""trial"":1,""time"":1176},{""event"":""blur"",""trial"":35,""time"":263370},{""event"":""focus"",""trial"":35,""time"":267670}]",NA,NA,NA,NA,NA,2,#741CD8,#D8271C,0,10,0,38,1,1300.3999999761581,39,0,813.6999999880791,10,1,experiment,NA,NA,1,0.3,0.7,3,2,158,4,NA
fcp-trial,241,1253217,0.0-168.0-0.0,voc_e2,12190,"[{""event"":""fullscreenenter"",""trial"":1,""time"":1176},{""event"":""blur"",""trial"":35,""time"":263370},{""event"":""focus"",""trial"":35,""time"":267670}]",NA,NA,NA,NA,NA,3,#3386FF,#D89F1C,0,10,1,40,0,2576.2000000476837,39,0,449.9000000357628,10,0,experiment,NA,NA,2,0.5,0.5,4,5,159,4,NA
fcp-trial,242,1256012,0.0-169.0-0.0,voc_e2,12190,"[{""event"":""fullscreenenter"",""trial"":1,""time"":1176},{""event"":""blur"",""trial"":35,""time"":263370},{""event"":""focus"",""trial"":35,""time"":267670}]",NA,NA,NA,NA,NA,3,#1CD855,#FA92F8,10,0,1,38,1,825.1999999880791,37,1,466.10000002384186,10,1,experiment,NA,NA,0,0.9,0.1,0,1,160,4,NA
fcp-trial,243,1259342,0.0-170.0-0.0,voc_e2,12190,"[{""event"":""fullscreenenter"",""trial"":1,""time"":1176},{""event"":""blur"",""trial"":35,""time"":263370},{""event"":""focus"",""trial"":35,""time"":267670}]",NA,NA,NA,NA,NA,1,#741CD8,#D8271C,10,10,0,38,1,1217.1000000238419,39,0,606.3999999761581,10,1,experiment,NA,NA,1,0.3,0.7,3,2,161,4,NA
fcp-trial,244,1262140,0.0-171.0-0.0,voc_e2,12190,"[{""event"":""fullscreenenter"",""trial"":1,""time"":1176},{""event"":""blur"",""trial"":35,""time"":263370},{""event"":""focus"",""trial"":35,""time"":267670}]",NA,NA,NA,NA,NA,0,#1CD855,#FA92F8,0,0,1,38,1,879.6000000238419,37,1,415,0,1,experiment,NA,NA,0,0.9,0.1,0,1,162,4,NA
fcp-trial,245,1264800,0.0-172.0-0.0,voc_e2,12190,"[{""event"":""fullscreenenter"",""trial"":1,""time"":1176},{""event"":""blur"",""trial"":35,""time"":263370},{""event"":""focus"",""trial"":35,""time"":267670}]",NA,NA,NA,NA,NA,5,#D89F1C,#3386FF,10,10,0,40,0,761.5999999642372,37,1,392.10000002384186,10,0,experiment,NA,NA,2,0.5,0.5,5,4,163,4,NA
fcp-trial,246,1268135,0.0-173.0-0.0,voc_e2,12190,"[{""event"":""fullscreenenter"",""trial"":1,""time"":1176},{""event"":""blur"",""trial"":35,""time"":263370},{""event"":""focus"",""trial"":35,""time"":267670}]",NA,NA,NA,NA,NA,3,#741CD8,#D8271C,10,10,0,38,1,592,39,0,1240,10,1,experiment,NA,NA,1,0.3,0.7,3,2,164,4,NA
fcp-trial,247,1271717,0.0-174.0-0.0,voc_e2,12190,"[{""event"":""fullscreenenter"",""trial"":1,""time"":1176},{""event"":""blur"",""trial"":35,""time"":263370},{""event"":""focus"",""trial"":35,""time"":267670}]",NA,NA,NA,NA,NA,6,#741CD8,#D8271C,0,10,0,38,1,1140.300000011921,39,0,937.5,10,1,experiment,NA,NA,1,0.3,0.7,3,2,165,4,NA
fcp-trial,248,1274947,0.0-175.0-0.0,voc_e2,12190,"[{""event"":""fullscreenenter"",""trial"":1,""time"":1176},{""event"":""blur"",""trial"":35,""time"":263370},{""event"":""focus"",""trial"":35,""time"":267670}]",NA,NA,NA,NA,NA,2,#1CD855,#FA92F8,10,0,1,38,1,1253.5,37,1,468.0999999642372,10,1,experiment,NA,NA,0,0.9,0.1,0,1,166,4,NA
fcp-trial,249,1278501,0.0-176.0-0.0,voc_e2,12190,"[{""event"":""fullscreenenter"",""trial"":1,""time"":1176},{""event"":""blur"",""trial"":35,""time"":263370},{""event"":""focus"",""trial"":35,""time"":267670}]",NA,NA,NA,NA,NA,4,#741CD8,#D8271C,10,0,0,38,1,1632.1000000238419,39,0,418.5999999642372,0,1,experiment,NA,NA,1,0.3,0.7,3,2,167,4,NA
fcp-trial,250,1281177,0.0-177.0-0.0,voc_e2,12190,"[{""event"":""fullscreenenter"",""trial"":1,""time"":1176},{""event"":""blur"",""trial"":35,""time"":263370},{""event"":""focus"",""trial"":35,""time"":267670}]",NA,NA,NA,NA,NA,4,#D89F1C,#3386FF,10,0,0,40,0,805.0999999642372,39,0,365,0,1,experiment,NA,NA,2,0.5,0.5,5,4,168,4,NA
fcp-trial,251,1283773,0.0-178.0-0.0,voc_e2,12190,"[{""event"":""fullscreenenter"",""trial"":1,""time"":1176},{""event"":""blur"",""trial"":35,""time"":263370},{""event"":""focus"",""trial"":35,""time"":267670}]",NA,NA,NA,NA,NA,4,#3386FF,#D89F1C,0,0,1,40,0,688.4000000357628,37,1,400.199999988079,0,1,experiment,NA,NA,2,0.5,0.5,4,5,169,4,NA
fcp-trial,252,1286658,0.0-179.0-0.0,voc_e2,12190,"[{""event"":""fullscreenenter"",""trial"":1,""time"":1176},{""event"":""blur"",""trial"":35,""time"":263370},{""event"":""focus"",""trial"":35,""time"":267670}]",NA,NA,NA,NA,NA,3,#1CD855,#FA92F8,10,0,1,38,1,964.1999999880791,37,1,413,10,1,experiment,NA,NA,0,0.9,0.1,0,1,170,4,NA
fcp-trial,253,1289316,0.0-180.0-0.0,voc_e2,12190,"[{""event"":""fullscreenenter"",""trial"":1,""time"":1176},{""event"":""blur"",""trial"":35,""time"":263370},{""event"":""focus"",""trial"":35,""time"":267670}]",NA,NA,NA,NA,NA,4,#741CD8,#D8271C,0,10,0,38,1,672.7999999523163,39,0,481.5,10,1,experiment,NA,NA,1,0.3,0.7,3,2,171,4,NA
fcp-trial,254,1292094,0.0-181.0-0.0,voc_e2,12190,"[{""event"":""fullscreenenter"",""trial"":1,""time"":1176},{""event"":""blur"",""trial"":35,""time"":263370},{""event"":""focus"",""trial"":35,""time"":267670}]",NA,NA,NA,NA,NA,1,#1CD855,#FA92F8,10,0,1,38,1,721.6000000238419,37,1,551.1999999880791,10,1,experiment,NA,NA,0,0.9,0.1,0,1,172,4,NA
fcp-trial,255,1294910,0.0-182.0-0.0,voc_e2,12190,"[{""event"":""fullscreenenter"",""trial"":1,""time"":1176},{""event"":""blur"",""trial"":35,""time"":263370},{""event"":""focus"",""trial"":35,""time"":267670}]",NA,NA,NA,NA,NA,6,#3386FF,#D89F1C,0,0,1,40,0,768.1999999880791,37,1,540.8999999761581,0,1,experiment,NA,NA,2,0.5,0.5,4,5,173,4,NA
fcp-trial,256,1297725,0.0-183.0-0.0,voc_e2,12190,"[{""event"":""fullscreenenter"",""trial"":1,""time"":1176},{""event"":""blur"",""trial"":35,""time"":263370},{""event"":""focus"",""trial"":35,""time"":267670}]",NA,NA,NA,NA,NA,3,#3386FF,#D89F1C,10,10,1,40,0,677.1999999880791,37,1,627,10,1,experiment,NA,NA,2,0.5,0.5,4,5,174,4,NA
fcp-trial,257,1300351,0.0-184.0-0.0,voc_e2,12190,"[{""event"":""fullscreenenter"",""trial"":1,""time"":1176},{""event"":""blur"",""trial"":35,""time"":263370},{""event"":""focus"",""trial"":35,""time"":267670}]",NA,NA,NA,NA,NA,5,#3386FF,#D89F1C,10,10,1,40,0,639.3000000119209,37,1,482.89999997615814,10,1,experiment,NA,NA,2,0.5,0.5,4,5,175,4,NA
fcp-trial,258,1302981,0.0-185.0-0.0,voc_e2,12190,"[{""event"":""fullscreenenter"",""trial"":1,""time"":1176},{""event"":""blur"",""trial"":35,""time"":263370},{""event"":""focus"",""trial"":35,""time"":267670}]",NA,NA,NA,NA,NA,0,#D8271C,#741CD8,0,0,1,38,1,595.3999999761581,37,1,531.1000000238419,0,1,experiment,NA,NA,1,0.7,0.3,2,3,176,4,NA
fcp-trial,259,1305704,0.0-186.0-0.0,voc_e2,12190,"[{""event"":""fullscreenenter"",""trial"":1,""time"":1176},{""event"":""blur"",""trial"":35,""time"":263370},{""event"":""focus"",""trial"":35,""time"":267670}]",NA,NA,NA,NA,NA,2,#1CD855,#FA92F8,0,0,1,38,1,579.2999999523163,37,1,640,0,1,experiment,NA,NA,0,0.9,0.1,0,1,177,4,NA
fcp-trial,260,1308795,0.0-187.0-0.0,voc_e2,12190,"[{""event"":""fullscreenenter"",""trial"":1,""time"":1176},{""event"":""blur"",""trial"":35,""time"":263370},{""event"":""focus"",""trial"":35,""time"":267670}]",NA,NA,NA,NA,NA,0,#3386FF,#D89F1C,10,10,1,38,1,553.5999999642372,37,1,1031.300000011921,10,1,experiment,NA,NA,2,0.5,0.5,4,5,178,4,NA
fcp-trial,261,1311440,0.0-188.0-0.0,voc_e2,12190,"[{""event"":""fullscreenenter"",""trial"":1,""time"":1176},{""event"":""blur"",""trial"":35,""time"":263370},{""event"":""focus"",""trial"":35,""time"":267670}]",NA,NA,NA,NA,NA,0,#FA92F8,#1CD855,0,10,0,38,1,580.1000000238419,39,0,556.1999999880791,10,1,experiment,NA,NA,0,0.1,0.9,1,0,179,4,NA
fcp-trial,262,1313981,0.0-189.0-0.0,voc_e2,12190,"[{""event"":""fullscreenenter"",""trial"":1,""time"":1176},{""event"":""blur"",""trial"":35,""time"":263370},{""event"":""focus"",""trial"":35,""time"":267670}]",NA,NA,NA,NA,NA,1,#D8271C,#741CD8,10,0,1,38,1,474.39999997615814,37,1,561.6999999880791,10,1,experiment,NA,NA,1,0.7,0.3,2,3,180,4,NA
fcp-trial,263,1316757,0.0-190.0-0.0,voc_e2,12190,"[{""event"":""fullscreenenter"",""trial"":1,""time"":1176},{""event"":""blur"",""trial"":35,""time"":263370},{""event"":""focus"",""trial"":35,""time"":267670}]",NA,NA,NA,NA,NA,3,#741CD8,#D8271C,10,10,0,38,1,616.6999999880791,39,0,654.5,10,1,experiment,NA,NA,1,0.3,0.7,3,2,181,5,NA
fcp-trial,264,1319794,0.0-191.0-0.0,voc_e2,12190,"[{""event"":""fullscreenenter"",""trial"":1,""time"":1176},{""event"":""blur"",""trial"":35,""time"":263370},{""event"":""focus"",""trial"":35,""time"":267670}]",NA,NA,NA,NA,NA,6,#1CD855,#FA92F8,10,0,1,38,1,1015.1999999880791,37,1,518.9000000357628,10,1,experiment,NA,NA,0,0.9,0.1,0,1,182,5,NA
fcp-trial,265,1322682,0.0-192.0-0.0,voc_e2,12190,"[{""event"":""fullscreenenter"",""trial"":1,""time"":1176},{""event"":""blur"",""trial"":35,""time"":263370},{""event"":""focus"",""trial"":35,""time"":267670}]",NA,NA,NA,NA,NA,2,#D89F1C,#3386FF,10,10,0,40,0,977.7999999523163,39,0,403.5,10,1,experiment,NA,NA,2,0.5,0.5,5,4,183,5,NA
fcp-trial,266,1325493,0.0-193.0-0.0,voc_e2,12190,"[{""event"":""fullscreenenter"",""trial"":1,""time"":1176},{""event"":""blur"",""trial"":35,""time"":263370},{""event"":""focus"",""trial"":35,""time"":267670}]",NA,NA,NA,NA,NA,5,#D8271C,#741CD8,10,0,1,38,1,744.5,37,1,558,10,1,experiment,NA,NA,1,0.7,0.3,2,3,184,5,NA
fcp-trial,267,1328418,0.0-194.0-0.0,voc_e2,12190,"[{""event"":""fullscreenenter"",""trial"":1,""time"":1176},{""event"":""blur"",""trial"":35,""time"":263370},{""event"":""focus"",""trial"":35,""time"":267670}]",NA,NA,NA,NA,NA,5,#FA92F8,#1CD855,10,10,0,38,1,930.5999999642372,39,0,483.699999988079,10,1,experiment,NA,NA,0,0.1,0.9,1,0,185,5,NA
fcp-trial,268,1331146,0.0-195.0-0.0,voc_e2,12190,"[{""event"":""fullscreenenter"",""trial"":1,""time"":1176},{""event"":""blur"",""trial"":35,""time"":263370},{""event"":""focus"",""trial"":35,""time"":267670}]",NA,NA,NA,NA,NA,2,#D8271C,#741CD8,10,0,1,38,1,631,37,1,589,10,1,experiment,NA,NA,1,0.7,0.3,2,3,186,5,NA
fcp-trial,269,1334233,0.0-196.0-0.0,voc_e2,12190,"[{""event"":""fullscreenenter"",""trial"":1,""time"":1176},{""event"":""blur"",""trial"":35,""time"":263370},{""event"":""focus"",""trial"":35,""time"":267670}]",NA,NA,NA,NA,NA,4,#1CD855,#FA92F8,10,0,1,38,1,1108.199999988079,37,1,465.9000000357628,10,1,experiment,NA,NA,0,0.9,0.1,0,1,187,5,NA
fcp-trial,270,1337174,0.0-197.0-0.0,voc_e2,12190,"[{""event"":""fullscreenenter"",""trial"":1,""time"":1176},{""event"":""blur"",""trial"":35,""time"":263370},{""event"":""focus"",""trial"":35,""time"":267670}]",NA,NA,NA,NA,NA,1,#3386FF,#D89F1C,10,0,1,38,1,979.6999999880791,37,1,453.4000000357628,10,1,experiment,NA,NA,2,0.5,0.5,4,5,188,5,NA
fcp-trial,271,1339852,0.0-198.0-0.0,voc_e2,12190,"[{""event"":""fullscreenenter"",""trial"":1,""time"":1176},{""event"":""blur"",""trial"":35,""time"":263370},{""event"":""focus"",""trial"":35,""time"":267670}]",NA,NA,NA,NA,NA,6,#741CD8,#D8271C,10,0,0,38,1,768.5,39,0,403.300000011921,0,1,experiment,NA,NA,1,0.3,0.7,3,2,189,5,NA
fcp-trial,272,1342375,0.0-199.0-0.0,voc_e2,12190,"[{""event"":""fullscreenenter"",""trial"":1,""time"":1176},{""event"":""blur"",""trial"":35,""time"":263370},{""event"":""focus"",""trial"":35,""time"":267670}]",NA,NA,NA,NA,NA,3,#741CD8,#D8271C,0,10,0,38,1,507.0999999642372,39,0,509.5999999642372,10,1,experiment,NA,NA,1,0.3,0.7,3,2,190,5,NA
fcp-trial,273,1344791,0.0-200.0-0.0,voc_e2,12190,"[{""event"":""fullscreenenter"",""trial"":1,""time"":1176},{""event"":""blur"",""trial"":35,""time"":263370},{""event"":""focus"",""trial"":35,""time"":267670}]",NA,NA,NA,NA,NA,4,#D89F1C,#3386FF,0,0,0,38,1,399.80000001192093,39,0,507.699999988079,0,1,experiment,NA,NA,2,0.5,0.5,5,4,191,5,NA
fcp-trial,274,1347480,0.0-201.0-0.0,voc_e2,12190,"[{""event"":""fullscreenenter"",""trial"":1,""time"":1176},{""event"":""blur"",""trial"":35,""time"":263370},{""event"":""focus"",""trial"":35,""time"":267670}]",NA,NA,NA,NA,NA,3,#3386FF,#D89F1C,0,0,1,40,0,725.3999999761581,37,1,455.800000011921,0,1,experiment,NA,NA,2,0.5,0.5,4,5,192,5,NA
fcp-trial,275,1350725,0.0-202.0-0.0,voc_e2,12190,"[{""event"":""fullscreenenter"",""trial"":1,""time"":1176},{""event"":""blur"",""trial"":35,""time"":263370},{""event"":""focus"",""trial"":35,""time"":267670}]",NA,NA,NA,NA,NA,0,#FA92F8,#1CD855,0,10,0,38,1,1210.0999999642372,39,0,528.9000000357628,10,1,experiment,NA,NA,0,0.1,0.9,1,0,193,5,NA
fcp-trial,276,1353374,0.0-203.0-0.0,voc_e2,12190,"[{""event"":""fullscreenenter"",""trial"":1,""time"":1176},{""event"":""blur"",""trial"":35,""time"":263370},{""event"":""focus"",""trial"":35,""time"":267670}]",NA,NA,NA,NA,NA,5,#1CD855,#FA92F8,10,0,1,38,1,651.9000000357628,37,1,487.5999999642372,10,1,experiment,NA,NA,0,0.9,0.1,0,1,194,5,NA
fcp-trial,277,1356286,0.0-204.0-0.0,voc_e2,12190,"[{""event"":""fullscreenenter"",""trial"":1,""time"":1176},{""event"":""blur"",""trial"":35,""time"":263370},{""event"":""focus"",""trial"":35,""time"":267670}]",NA,NA,NA,NA,NA,2,#D8271C,#741CD8,0,0,1,38,1,803.3000000119209,37,1,602,0,1,experiment,NA,NA,1,0.7,0.3,2,3,195,5,NA
fcp-trial,278,1359436,0.0-205.0-0.0,voc_e2,12190,"[{""event"":""fullscreenenter"",""trial"":1,""time"":1176},{""event"":""blur"",""trial"":35,""time"":263370},{""event"":""focus"",""trial"":35,""time"":267670}]",NA,NA,NA,NA,NA,5,#741CD8,#D8271C,0,10,0,38,1,1134.0999999642372,39,0,509.199999988079,10,1,experiment,NA,NA,1,0.3,0.7,3,2,196,5,NA
fcp-trial,279,1362302,0.0-206.0-0.0,voc_e2,12190,"[{""event"":""fullscreenenter"",""trial"":1,""time"":1176},{""event"":""blur"",""trial"":35,""time"":263370},{""event"":""focus"",""trial"":35,""time"":267670}]",NA,NA,NA,NA,NA,0,#3386FF,#D89F1C,0,10,1,38,1,802.6000000238419,37,1,557.1999999880791,0,1,experiment,NA,NA,2,0.5,0.5,4,5,197,5,NA
fcp-trial,280,1365126,0.0-207.0-0.0,voc_e2,12190,"[{""event"":""fullscreenenter"",""trial"":1,""time"":1176},{""event"":""blur"",""trial"":35,""time"":263370},{""event"":""focus"",""trial"":35,""time"":267670}]",NA,NA,NA,NA,NA,6,#FA92F8,#1CD855,0,10,0,38,1,757,39,0,551.1999999880791,10,1,experiment,NA,NA,0,0.1,0.9,1,0,198,5,NA
fcp-trial,281,1367576,0.0-208.0-0.0,voc_e2,12190,"[{""event"":""fullscreenenter"",""trial"":1,""time"":1176},{""event"":""blur"",""trial"":35,""time"":263370},{""event"":""focus"",""trial"":35,""time"":267670}]",NA,NA,NA,NA,NA,3,#FA92F8,#1CD855,0,10,0,38,1,471.9000000357628,39,0,467.5999999642372,10,1,experiment,NA,NA,0,0.1,0.9,1,0,199,5,NA
fcp-trial,282,1370734,0.0-209.0-0.0,voc_e2,12190,"[{""event"":""fullscreenenter"",""trial"":1,""time"":1176},{""event"":""blur"",""trial"":35,""time"":263370},{""event"":""focus"",""trial"":35,""time"":267670}]",NA,NA,NA,NA,NA,2,#D89F1C,#3386FF,10,10,0,40,0,1084,37,1,563.8999999761581,10,0,experiment,NA,NA,2,0.5,0.5,5,4,200,5,NA
fcp-trial,283,1373420,0.0-210.0-0.0,voc_e2,12190,"[{""event"":""fullscreenenter"",""trial"":1,""time"":1176},{""event"":""blur"",""trial"":35,""time"":263370},{""event"":""focus"",""trial"":35,""time"":267670}]",NA,NA,NA,NA,NA,6,#D8271C,#741CD8,0,0,1,38,1,652.6999999880791,37,1,526.5,0,1,experiment,NA,NA,1,0.7,0.3,2,3,201,5,NA
fcp-trial,284,1376482,0.0-211.0-0.0,voc_e2,12190,"[{""event"":""fullscreenenter"",""trial"":1,""time"":1176},{""event"":""blur"",""trial"":35,""time"":263370},{""event"":""focus"",""trial"":35,""time"":267670}]",NA,NA,NA,NA,NA,2,#1CD855,#FA92F8,10,0,1,38,1,952.5,37,1,599.6999999880791,10,1,experiment,NA,NA,0,0.9,0.1,0,1,202,5,NA
fcp-trial,285,1379409,0.0-212.0-0.0,voc_e2,12190,"[{""event"":""fullscreenenter"",""trial"":1,""time"":1176},{""event"":""blur"",""trial"":35,""time"":263370},{""event"":""focus"",""trial"":35,""time"":267670}]",NA,NA,NA,NA,NA,6,#D89F1C,#3386FF,0,10,0,40,0,877.3000000119209,37,1,542.6000000238419,0,0,experiment,NA,NA,2,0.5,0.5,5,4,203,5,NA
fcp-trial,286,1381993,0.0-213.0-0.0,voc_e2,12190,"[{""event"":""fullscreenenter"",""trial"":1,""time"":1176},{""event"":""blur"",""trial"":35,""time"":263370},{""event"":""focus"",""trial"":35,""time"":267670}]",NA,NA,NA,NA,NA,0,#741CD8,#D8271C,0,0,0,38,1,563.6999999880791,39,0,510.9000000357628,0,1,experiment,NA,NA,1,0.3,0.7,3,2,204,5,NA
fcp-trial,287,1385184,0.0-214.0-0.0,voc_e2,12190,"[{""event"":""fullscreenenter"",""trial"":1,""time"":1176},{""event"":""blur"",""trial"":35,""time"":263370},{""event"":""focus"",""trial"":35,""time"":267670}]",NA,NA,NA,NA,NA,5,#3386FF,#D89F1C,0,0,1,40,0,1029.4000000357628,39,0,651.8000000119209,0,0,experiment,NA,NA,2,0.5,0.5,4,5,205,5,NA
fcp-trial,288,1388095,0.0-215.0-0.0,voc_e2,12190,"[{""event"":""fullscreenenter"",""trial"":1,""time"":1176},{""event"":""blur"",""trial"":35,""time"":263370},{""event"":""focus"",""trial"":35,""time"":267670}]",NA,NA,NA,NA,NA,4,#FA92F8,#1CD855,0,10,0,38,1,864.1999999880791,39,0,538.5999999642372,10,1,experiment,NA,NA,0,0.1,0.9,1,0,206,5,NA
fcp-trial,289,1391439,0.0-216.0-0.0,voc_e2,12190,"[{""event"":""fullscreenenter"",""trial"":1,""time"":1176},{""event"":""blur"",""trial"":35,""time"":263370},{""event"":""focus"",""trial"":35,""time"":267670}]",NA,NA,NA,NA,NA,1,#3386FF,#D89F1C,10,10,1,38,1,986.5999999642372,37,1,851.9000000357628,10,1,experiment,NA,NA,2,0.5,0.5,4,5,207,5,NA
fcp-trial,290,1394405,0.0-217.0-0.0,voc_e2,12190,"[{""event"":""fullscreenenter"",""trial"":1,""time"":1176},{""event"":""blur"",""trial"":35,""time"":263370},{""event"":""focus"",""trial"":35,""time"":267670}]",NA,NA,NA,NA,NA,1,#D8271C,#741CD8,0,0,1,38,1,973.1000000238419,37,1,484,0,1,experiment,NA,NA,1,0.7,0.3,2,3,208,5,NA
fcp-trial,291,1397363,0.0-218.0-0.0,voc_e2,12190,"[{""event"":""fullscreenenter"",""trial"":1,""time"":1176},{""event"":""blur"",""trial"":35,""time"":263370},{""event"":""focus"",""trial"":35,""time"":267670}]",NA,NA,NA,NA,NA,4,#D8271C,#741CD8,0,0,1,40,0,1028.0999999642372,39,0,423.800000011921,0,0,experiment,NA,NA,1,0.7,0.3,2,3,209,5,NA
fcp-trial,292,1400334,0.0-219.0-0.0,voc_e2,12190,"[{""event"":""fullscreenenter"",""trial"":1,""time"":1176},{""event"":""blur"",""trial"":35,""time"":263370},{""event"":""focus"",""trial"":35,""time"":267670}]",NA,NA,NA,NA,NA,1,#FA92F8,#1CD855,0,10,0,38,1,906.1999999880791,39,0,559.2999999523163,10,1,experiment,NA,NA,0,0.1,0.9,1,0,210,5,NA
audio-instructions,293,1406162,0.0-220.0,voc_e2,12190,"[{""event"":""fullscreenenter"",""trial"":1,""time"":1176},{""event"":""blur"",""trial"":35,""time"":263370},{""event"":""focus"",""trial"":35,""time"":267670}]",NA,733.3000000119209,static/audio/pause.wav,NA,0,NA,NA,NA,NA,NA,NA,NA,NA,NA,NA,NA,NA,NA,NA,NA,NA,NA,NA,NA,NA,NA,NA,NA,NA,NA
fcp-trial,294,1409277,0.0-221.0-0.0,voc_e2,12190,"[{""event"":""fullscreenenter"",""trial"":1,""time"":1176},{""event"":""blur"",""trial"":35,""time"":263370},{""event"":""focus"",""trial"":35,""time"":267670}]",NA,NA,NA,NA,NA,0,#D89F1C,#3386FF,0,0,0,38,1,1065.0999999642372,39,0,521.8000000119209,0,1,experiment,NA,NA,2,0.5,0.5,5,4,211,5,NA
fcp-trial,295,1412328,0.0-222.0-0.0,voc_e2,12190,"[{""event"":""fullscreenenter"",""trial"":1,""time"":1176},{""event"":""blur"",""trial"":35,""time"":263370},{""event"":""focus"",""trial"":35,""time"":267670}]",NA,NA,NA,NA,NA,2,#D89F1C,#3386FF,10,0,0,40,0,948.9000000357628,39,0,578.8999999761581,0,1,experiment,NA,NA,2,0.5,0.5,5,4,212,5,NA
fcp-trial,296,1415280,0.0-223.0-0.0,voc_e2,12190,"[{""event"":""fullscreenenter"",""trial"":1,""time"":1176},{""event"":""blur"",""trial"":35,""time"":263370},{""event"":""focus"",""trial"":35,""time"":267670}]",NA,NA,NA,NA,NA,4,#FA92F8,#1CD855,0,10,0,38,1,983.4000000357628,39,0,441.300000011921,10,1,experiment,NA,NA,0,0.1,0.9,1,0,213,5,NA
fcp-trial,297,1418898,0.0-224.0-0.0,voc_e2,12190,"[{""event"":""fullscreenenter"",""trial"":1,""time"":1176},{""event"":""blur"",""trial"":35,""time"":263370},{""event"":""focus"",""trial"":35,""time"":267670}]",NA,NA,NA,NA,NA,3,#FA92F8,#1CD855,0,10,0,38,1,1678.300000011921,39,0,420.300000011921,10,1,experiment,NA,NA,0,0.1,0.9,1,0,214,5,NA
fcp-trial,298,1422728,0.0-225.0-0.0,voc_e2,12190,"[{""event"":""fullscreenenter"",""trial"":1,""time"":1176},{""event"":""blur"",""trial"":35,""time"":263370},{""event"":""focus"",""trial"":35,""time"":267670}]",NA,NA,NA,NA,NA,1,#D8271C,#741CD8,10,0,1,38,1,1030.699999988079,37,1,1272.300000011921,10,1,experiment,NA,NA,1,0.7,0.3,2,3,215,5,NA
fcp-trial,299,1425663,0.0-226.0-0.0,voc_e2,12190,"[{""event"":""fullscreenenter"",""trial"":1,""time"":1176},{""event"":""blur"",""trial"":35,""time"":263370},{""event"":""focus"",""trial"":35,""time"":267670}]",NA,NA,NA,NA,NA,6,#D89F1C,#3386FF,10,10,0,40,0,806.7000000476837,39,0,610.5999999642372,10,1,experiment,NA,NA,2,0.5,0.5,5,4,216,5,NA
fcp-trial,300,1428510,0.0-227.0-0.0,voc_e2,12190,"[{""event"":""fullscreenenter"",""trial"":1,""time"":1176},{""event"":""blur"",""trial"":35,""time"":263370},{""event"":""focus"",""trial"":35,""time"":267670}]",NA,NA,NA,NA,NA,3,#741CD8,#D8271C,10,10,0,38,1,828.1000000238419,39,0,500,10,1,experiment,NA,NA,1,0.3,0.7,3,2,217,5,NA
fcp-trial,301,1432034,0.0-228.0-0.0,voc_e2,12190,"[{""event"":""fullscreenenter"",""trial"":1,""time"":1176},{""event"":""blur"",""trial"":35,""time"":263370},{""event"":""focus"",""trial"":35,""time"":267670}]",NA,NA,NA,NA,NA,4,#3386FF,#D89F1C,0,10,1,40,0,1366.199999988079,37,1,639.3999999761581,0,1,experiment,NA,NA,2,0.5,0.5,4,5,218,5,NA
fcp-trial,302,1434746,0.0-229.0-0.0,voc_e2,12190,"[{""event"":""fullscreenenter"",""trial"":1,""time"":1176},{""event"":""blur"",""trial"":35,""time"":263370},{""event"":""focus"",""trial"":35,""time"":267670}]",NA,NA,NA,NA,NA,0,#FA92F8,#1CD855,0,10,0,38,1,697.6000000238419,39,0,496,10,1,experiment,NA,NA,0,0.1,0.9,1,0,219,5,NA
fcp-trial,303,1437802,0.0-230.0-0.0,voc_e2,12190,"[{""event"":""fullscreenenter"",""trial"":1,""time"":1176},{""event"":""blur"",""trial"":35,""time"":263370},{""event"":""focus"",""trial"":35,""time"":267670}]",NA,NA,NA,NA,NA,5,#3386FF,#D89F1C,10,10,1,40,0,988.3999999761581,39,0,558.3000000119209,10,0,experiment,NA,NA,2,0.5,0.5,4,5,220,5,NA
fcp-trial,304,1440739,0.0-231.0-0.0,voc_e2,12190,"[{""event"":""fullscreenenter"",""trial"":1,""time"":1176},{""event"":""blur"",""trial"":35,""time"":263370},{""event"":""focus"",""trial"":35,""time"":267670}]",NA,NA,NA,NA,NA,1,#1CD855,#FA92F8,0,0,1,38,1,858.6000000238419,37,1,573,0,1,experiment,NA,NA,0,0.9,0.1,0,1,221,5,NA
fcp-trial,305,1443707,0.0-232.0-0.0,voc_e2,12190,"[{""event"":""fullscreenenter"",""trial"":1,""time"":1176},{""event"":""blur"",""trial"":35,""time"":263370},{""event"":""focus"",""trial"":35,""time"":267670}]",NA,NA,NA,NA,NA,4,#741CD8,#D8271C,0,10,0,38,1,937.0999999642372,39,0,526.0999999642372,10,1,experiment,NA,NA,1,0.3,0.7,3,2,222,5,NA
