trial_type,trial_index,time_elapsed,internal_node_id,task_version,subject_id,interactions,success,rt,stimulus,key_press,button_pressed,offer,arcade_color_L,arcade_color_R,arcade_outcome_L,arcade_outcome_R,correct,stage_1_key,stage_1_choice,stage_1_rt,stage_2_key,stage_2_choice,stage_2_rt,stage_3_outcome,accuracy,phase,responses,num_errors,context,reward_prob_L,reward_prob_R,arcade_id_L,arcade_id_R,trial,block,response
pavlovia,0,22,0.0-0.0,voc_e2,12147,[],NA,NA,NA,NA,NA,NA,NA,NA,NA,NA,NA,NA,NA,NA,NA,NA,NA,NA,NA,NA,NA,NA,NA,NA,NA,NA,NA,NA,NA,NA
fullscreen,1,5225,0.0-1.0,voc_e2,12147,"[{""event"":""fullscreenenter"",""trial"":1,""time"":4242}]",TRUE,NA,NA,NA,NA,NA,NA,NA,NA,NA,NA,NA,NA,NA,NA,NA,NA,NA,NA,NA,NA,NA,NA,NA,NA,NA,NA,NA,NA,NA
audio-keyboard-response,2,9649,0.0-2.0,voc_e2,12147,"[{""event"":""fullscreenenter"",""trial"":1,""time"":4242}]",NA,4171,static/audio/beep_loop.wav,32,NA,NA,NA,NA,NA,NA,NA,NA,NA,NA,NA,NA,NA,NA,NA,NA,NA,NA,NA,NA,NA,NA,NA,NA,NA,NA
audio-test,3,11921,0.0-3.0,voc_e2,12147,"[{""event"":""fullscreenenter"",""trial"":1,""time"":4242}]",NA,NA,static/audio/turtle.wav,NA,3,NA,NA,NA,NA,NA,NA,NA,NA,NA,NA,NA,NA,NA,NA,NA,NA,NA,NA,NA,NA,NA,NA,NA,NA,NA
audio-test,4,14193,0.0-4.0,voc_e2,12147,"[{""event"":""fullscreenenter"",""trial"":1,""time"":4242}]",NA,NA,static/audio/shark.wav,NA,2,NA,NA,NA,NA,NA,NA,NA,NA,NA,NA,NA,NA,NA,NA,NA,NA,NA,NA,NA,NA,NA,NA,NA,NA,NA
audio-instructions,5,21738,0.0-5.0-0.0,voc_e2,12147,"[{""event"":""fullscreenenter"",""trial"":1,""time"":4242}]",NA,1761.9000000059605,static/audio/instructions1.wav,NA,0,NA,NA,NA,NA,NA,NA,NA,NA,NA,NA,NA,NA,NA,NA,NA,NA,NA,NA,NA,NA,NA,NA,NA,NA,NA
audio-instructions,6,30472,0.0-5.0-1.0,voc_e2,12147,"[{""event"":""fullscreenenter"",""trial"":1,""time"":4242}]",NA,1987.20000000298,static/audio/instructions2.wav,NA,0,NA,NA,NA,NA,NA,NA,NA,NA,NA,NA,NA,NA,NA,NA,NA,NA,NA,NA,NA,NA,NA,NA,NA,NA,NA
audio-instructions,7,38900,0.0-5.0-2.0,voc_e2,12147,"[{""event"":""fullscreenenter"",""trial"":1,""time"":4242}]",NA,2624.29999999702,static/audio/instructions3.wav,NA,0,NA,NA,NA,NA,NA,NA,NA,NA,NA,NA,NA,NA,NA,NA,NA,NA,NA,NA,NA,NA,NA,NA,NA,NA,NA
audio-instructions,8,52622,0.0-5.0-3.0,voc_e2,12147,"[{""event"":""fullscreenenter"",""trial"":1,""time"":4242}]",NA,496.70000000298023,static/audio/instructions4.wav,NA,0,NA,NA,NA,NA,NA,NA,NA,NA,NA,NA,NA,NA,NA,NA,NA,NA,NA,NA,NA,NA,NA,NA,NA,NA,NA
audio-instructions,9,62742,0.0-5.0-4.0,voc_e2,12147,"[{""event"":""fullscreenenter"",""trial"":1,""time"":4242}]",NA,735.9000000059605,static/audio/instructions5.wav,NA,0,NA,NA,NA,NA,NA,NA,NA,NA,NA,NA,NA,NA,NA,NA,NA,NA,NA,NA,NA,NA,NA,NA,NA,NA,NA
fcp-practice,10,66316,0.0-5.0-5.0-0.0,voc_e2,12147,"[{""event"":""fullscreenenter"",""trial"":1,""time"":4242}]",NA,NA,NA,NA,NA,NA,#EDC948,#46d3c8,10,0,1,null,null,null,37,1,2059.5999999940395,10,1,practice,NA,NA,NA,NA,NA,NA,NA,NA,NA,NA
fcp-practice,11,68584,0.0-5.0-5.0-1.0,voc_e2,12147,"[{""event"":""fullscreenenter"",""trial"":1,""time"":4242}]",NA,NA,NA,NA,NA,NA,#EDC948,#46d3c8,10,0,1,null,null,null,37,1,756.3999999910593,10,1,practice,NA,NA,NA,NA,NA,NA,NA,NA,NA,NA
fcp-practice,12,70662,0.0-5.0-5.0-2.0,voc_e2,12147,"[{""event"":""fullscreenenter"",""trial"":1,""time"":4242}]",NA,NA,NA,NA,NA,NA,#EDC948,#46d3c8,0,10,1,null,null,null,37,1,571.5,0,1,practice,NA,NA,NA,NA,NA,NA,NA,NA,NA,NA
fcp-practice,13,72704,0.0-5.0-5.0-3.0,voc_e2,12147,"[{""event"":""fullscreenenter"",""trial"":1,""time"":4242}]",NA,NA,NA,NA,NA,NA,#EDC948,#46d3c8,10,0,1,null,null,null,37,1,524.6000000089407,10,1,practice,NA,NA,NA,NA,NA,NA,NA,NA,NA,NA
fcp-practice,14,74597,0.0-5.0-5.0-4.0,voc_e2,12147,"[{""event"":""fullscreenenter"",""trial"":1,""time"":4242}]",NA,NA,NA,NA,NA,NA,#EDC948,#46d3c8,10,0,1,null,null,null,37,1,388.8999999910593,10,1,practice,NA,NA,NA,NA,NA,NA,NA,NA,NA,NA
audio-instructions,15,93410,0.0-5.0-6.0,voc_e2,12147,"[{""event"":""fullscreenenter"",""trial"":1,""time"":4242}]",NA,806.2000000029802,static/audio/instructions6.wav,NA,0,NA,NA,NA,NA,NA,NA,NA,NA,NA,NA,NA,NA,NA,NA,NA,NA,NA,NA,NA,NA,NA,NA,NA,NA,NA
audio-instructions,16,124259,0.0-5.0-7.0,voc_e2,12147,"[{""event"":""fullscreenenter"",""trial"":1,""time"":4242}]",NA,11653.79999999702,static/audio/instructions7.wav,NA,0,NA,NA,NA,NA,NA,NA,NA,NA,NA,NA,NA,NA,NA,NA,NA,NA,NA,NA,NA,NA,NA,NA,NA,NA,NA
audio-instructions,17,134563,0.0-5.0-8.0,voc_e2,12147,"[{""event"":""fullscreenenter"",""trial"":1,""time"":4242}]",NA,828.6000000089407,static/audio/instructions8.wav,NA,0,NA,NA,NA,NA,NA,NA,NA,NA,NA,NA,NA,NA,NA,NA,NA,NA,NA,NA,NA,NA,NA,NA,NA,NA,NA
fcp-comprehension,18,150532,0.0-5.0-9.0,voc_e2,12147,"[{""event"":""fullscreenenter"",""trial"":1,""time"":4242}]",NA,15967.40000000596,NA,NA,NA,NA,NA,NA,NA,NA,NA,NA,NA,NA,NA,NA,NA,NA,NA,NA,"true,true",0,NA,NA,NA,NA,NA,NA,NA,NA
audio-instructions,19,158164,0.0-6.0-0.0,voc_e2,12147,"[{""event"":""fullscreenenter"",""trial"":1,""time"":4242}]",NA,2088.199999988079,static/audio/instructions9.wav,NA,0,NA,NA,NA,NA,NA,NA,NA,NA,NA,NA,NA,NA,NA,NA,NA,NA,NA,NA,NA,NA,NA,NA,NA,NA,NA
audio-instructions,20,171532,0.0-6.0-1.0,voc_e2,12147,"[{""event"":""fullscreenenter"",""trial"":1,""time"":4242}]",NA,1247,static/audio/instructions10.wav,NA,0,NA,NA,NA,NA,NA,NA,NA,NA,NA,NA,NA,NA,NA,NA,NA,NA,NA,NA,NA,NA,NA,NA,NA,NA,NA
fcp-trial,21,179932,0.0-6.0-2.0,voc_e2,12147,"[{""event"":""fullscreenenter"",""trial"":1,""time"":4242}]",NA,NA,NA,NA,NA,0,#EDC948,#46d3c8,10,10,1,38,1,4887.199999988079,39,0,1986.7000000029802,10,0,practice,NA,NA,NA,NA,NA,NA,NA,NA,NA,NA
audio-instructions,22,193211,0.0-6.0-3.0,voc_e2,12147,"[{""event"":""fullscreenenter"",""trial"":1,""time"":4242}]",NA,2274.29999999702,static/audio/instructions11.wav,NA,0,NA,NA,NA,NA,NA,NA,NA,NA,NA,NA,NA,NA,NA,NA,NA,NA,NA,NA,NA,NA,NA,NA,NA,NA,NA
fcp-trial,23,198115,0.0-6.0-4.0,voc_e2,12147,"[{""event"":""fullscreenenter"",""trial"":1,""time"":4242}]",NA,NA,NA,NA,NA,6,#EDC948,#46d3c8,10,10,1,40,0,2089.2000000029802,37,1,1292.4000000059605,10,1,practice,NA,NA,NA,NA,NA,NA,NA,NA,NA,NA
audio-instructions,24,218279,0.0-6.0-5.0,voc_e2,12147,"[{""event"":""fullscreenenter"",""trial"":1,""time"":4242}]",NA,1473.7000000029802,static/audio/instructions12.wav,NA,0,NA,NA,NA,NA,NA,NA,NA,NA,NA,NA,NA,NA,NA,NA,NA,NA,NA,NA,NA,NA,NA,NA,NA,NA,NA
audio-instructions,25,226320,0.0-6.0-6.0,voc_e2,12147,"[{""event"":""fullscreenenter"",""trial"":1,""time"":4242}]",NA,444.79999999701977,static/audio/instructions13.wav,NA,0,NA,NA,NA,NA,NA,NA,NA,NA,NA,NA,NA,NA,NA,NA,NA,NA,NA,NA,NA,NA,NA,NA,NA,NA,NA
audio-instructions,26,238993,0.0-6.0-7.0,voc_e2,12147,"[{""event"":""fullscreenenter"",""trial"":1,""time"":4242}]",NA,4226.70000000298,static/audio/instructions14.wav,NA,0,NA,NA,NA,NA,NA,NA,NA,NA,NA,NA,NA,NA,NA,NA,NA,NA,NA,NA,NA,NA,NA,NA,NA,NA,NA
audio-instructions,27,246356,0.0-7.0-0.0,voc_e2,12147,"[{""event"":""fullscreenenter"",""trial"":1,""time"":4242}]",NA,461.5,static/audio/instructions15.wav,NA,0,NA,NA,NA,NA,NA,NA,NA,NA,NA,NA,NA,NA,NA,NA,NA,NA,NA,NA,NA,NA,NA,NA,NA,NA,NA
audio-instructions,28,254253,0.0-7.0-1.0,voc_e2,12147,"[{""event"":""fullscreenenter"",""trial"":1,""time"":4242}]",NA,1069.2000000029802,static/audio/instructions16.wav,NA,0,NA,NA,NA,NA,NA,NA,NA,NA,NA,NA,NA,NA,NA,NA,NA,NA,NA,NA,NA,NA,NA,NA,NA,NA,NA
audio-instructions,29,263045,0.0-7.0-2.0,voc_e2,12147,"[{""event"":""fullscreenenter"",""trial"":1,""time"":4242}]",NA,1119.800000011921,static/audio/instructions17.wav,NA,0,NA,NA,NA,NA,NA,NA,NA,NA,NA,NA,NA,NA,NA,NA,NA,NA,NA,NA,NA,NA,NA,NA,NA,NA,NA
audio-instructions,30,271263,0.0-7.0-3.0,voc_e2,12147,"[{""event"":""fullscreenenter"",""trial"":1,""time"":4242}]",NA,447.20000000298023,static/audio/instructions18.wav,NA,0,NA,NA,NA,NA,NA,NA,NA,NA,NA,NA,NA,NA,NA,NA,NA,NA,NA,NA,NA,NA,NA,NA,NA,NA,NA
audio-instructions,31,278479,0.0-7.0-4.0,voc_e2,12147,"[{""event"":""fullscreenenter"",""trial"":1,""time"":4242}]",NA,474.90000000596046,static/audio/instructions19.wav,NA,0,NA,NA,NA,NA,NA,NA,NA,NA,NA,NA,NA,NA,NA,NA,NA,NA,NA,NA,NA,NA,NA,NA,NA,NA,NA
fcp-comprehension,32,294609,0.0-7.0-5.0,voc_e2,12147,"[{""event"":""fullscreenenter"",""trial"":1,""time"":4242}]",NA,16129.5,NA,NA,NA,NA,NA,NA,NA,NA,NA,NA,NA,NA,NA,NA,NA,NA,NA,NA,"false,false,false,true",0,NA,NA,NA,NA,NA,NA,NA,NA
audio-instructions,33,306090,0.0-8.0,voc_e2,12147,"[{""event"":""fullscreenenter"",""trial"":1,""time"":4242}]",NA,2264.6000000089407,static/audio/ready.wav,NA,0,NA,NA,NA,NA,NA,NA,NA,NA,NA,NA,NA,NA,NA,NA,NA,NA,NA,NA,NA,NA,NA,NA,NA,NA,NA
fcp-trial,34,315086,0.0-9.0-0.0,voc_e2,12147,"[{""event"":""fullscreenenter"",""trial"":1,""time"":4242}]",NA,NA,NA,NA,NA,6,#FA92F8,#1CD855,0,10,0,38,1,6122,39,0,1354.9000000059605,10,1,experiment,NA,NA,2,0.5,0.5,5,4,1,1,NA
fcp-trial,35,321277,0.0-10.0-0.0,voc_e2,12147,"[{""event"":""fullscreenenter"",""trial"":1,""time"":4242}]",NA,NA,NA,NA,NA,0,#3386FF,#D89F1C,0,10,0,38,1,3582.7000000029802,37,1,1102,0,0,experiment,NA,NA,1,0.3,0.7,3,2,2,1,NA
fcp-trial,36,327564,0.0-11.0-0.0,voc_e2,12147,"[{""event"":""fullscreenenter"",""trial"":1,""time"":4242}]",NA,NA,NA,NA,NA,3,#D8271C,#741CD8,0,10,0,40,0,3098.2999999970198,39,0,1653.800000011921,10,1,experiment,NA,NA,0,0.1,0.9,1,0,3,1,NA
fcp-trial,37,334894,0.0-12.0-0.0,voc_e2,12147,"[{""event"":""fullscreenenter"",""trial"":1,""time"":4242}]",NA,NA,NA,NA,NA,1,#D89F1C,#3386FF,10,0,1,38,1,4219.300000011921,37,1,1594.5,10,1,experiment,NA,NA,1,0.7,0.3,2,3,4,1,NA
fcp-trial,38,341998,0.0-13.0-0.0,voc_e2,12147,"[{""event"":""fullscreenenter"",""trial"":1,""time"":4242}]",NA,NA,NA,NA,NA,2,#FA92F8,#1CD855,10,0,0,40,0,3790.7000000029802,39,0,1796.8999999910593,0,1,experiment,NA,NA,2,0.5,0.5,5,4,5,1,NA
fcp-trial,39,348526,0.0-14.0-0.0,voc_e2,12147,"[{""event"":""fullscreenenter"",""trial"":1,""time"":4242}]",NA,NA,NA,NA,NA,1,#741CD8,#D8271C,10,0,1,38,1,4153.199999988079,37,1,864.2000000029802,10,1,experiment,NA,NA,0,0.9,0.1,0,1,6,1,NA
fcp-trial,40,352773,0.0-15.0-0.0,voc_e2,12147,"[{""event"":""fullscreenenter"",""trial"":1,""time"":4242}]",NA,NA,NA,NA,NA,4,#D89F1C,#3386FF,10,0,1,38,1,1934.3999999910593,37,1,799,10,1,experiment,NA,NA,1,0.7,0.3,2,3,7,1,NA
fcp-trial,41,357333,0.0-16.0-0.0,voc_e2,12147,"[{""event"":""fullscreenenter"",""trial"":1,""time"":4242}]",NA,NA,NA,NA,NA,5,#3386FF,#D89F1C,0,0,0,38,1,1661.4000000059605,39,0,1390.9000000059605,0,1,experiment,NA,NA,1,0.3,0.7,3,2,8,1,NA
fcp-trial,42,362486,0.0-17.0-0.0,voc_e2,12147,"[{""event"":""fullscreenenter"",""trial"":1,""time"":4242}]",NA,NA,NA,NA,NA,4,#D8271C,#741CD8,0,10,0,40,0,1994.3999999910593,37,1,1649,0,0,experiment,NA,NA,0,0.1,0.9,1,0,9,1,NA
fcp-trial,43,367749,0.0-18.0-0.0,voc_e2,12147,"[{""event"":""fullscreenenter"",""trial"":1,""time"":4242}]",NA,NA,NA,NA,NA,0,#FA92F8,#1CD855,0,10,0,38,1,2989.2000000029802,39,0,759.8999999910593,10,1,experiment,NA,NA,2,0.5,0.5,5,4,10,1,NA
fcp-trial,44,372021,0.0-19.0-0.0,voc_e2,12147,"[{""event"":""fullscreenenter"",""trial"":1,""time"":4242}]",NA,NA,NA,NA,NA,2,#741CD8,#D8271C,10,0,1,38,1,1831.5,39,0,934.2000000029802,0,0,experiment,NA,NA,0,0.9,0.1,0,1,11,1,NA
fcp-trial,45,377086,0.0-20.0-0.0,voc_e2,12147,"[{""event"":""fullscreenenter"",""trial"":1,""time"":4242}]",NA,NA,NA,NA,NA,2,#3386FF,#D89F1C,10,10,0,40,0,2174.8999999910593,37,1,1383.5,10,0,experiment,NA,NA,1,0.3,0.7,3,2,12,1,NA
fcp-trial,46,381324,0.0-21.0-0.0,voc_e2,12147,"[{""event"":""fullscreenenter"",""trial"":1,""time"":4242}]",NA,NA,NA,NA,NA,6,#3386FF,#D89F1C,0,10,0,40,0,1875.6000000089407,37,1,853.5999999940395,0,0,experiment,NA,NA,1,0.3,0.7,3,2,13,1,NA
fcp-trial,47,386613,0.0-22.0-0.0,voc_e2,12147,"[{""event"":""fullscreenenter"",""trial"":1,""time"":4242}]",NA,NA,NA,NA,NA,0,#741CD8,#D8271C,10,0,1,40,0,2557,37,1,1220,10,1,experiment,NA,NA,0,0.9,0.1,0,1,14,1,NA
fcp-trial,48,391935,0.0-23.0-0.0,voc_e2,12147,"[{""event"":""fullscreenenter"",""trial"":1,""time"":4242}]",NA,NA,NA,NA,NA,3,#FA92F8,#1CD855,10,0,0,40,0,2716.7999999970198,37,1,1097,10,0,experiment,NA,NA,2,0.5,0.5,5,4,15,1,NA
fcp-trial,49,396596,0.0-24.0-0.0,voc_e2,12147,"[{""event"":""fullscreenenter"",""trial"":1,""time"":4242}]",NA,NA,NA,NA,NA,5,#D8271C,#741CD8,0,10,0,38,1,1656.7000000029802,37,1,1494.7999999970198,0,0,experiment,NA,NA,0,0.1,0.9,1,0,16,1,NA
fcp-trial,50,400109,0.0-25.0-0.0,voc_e2,12147,"[{""event"":""fullscreenenter"",""trial"":1,""time"":4242}]",NA,NA,NA,NA,NA,4,#FA92F8,#1CD855,10,10,0,38,1,1213.0999999940395,39,0,790.5999999940395,10,1,experiment,NA,NA,2,0.5,0.5,5,4,17,1,NA
fcp-trial,51,403812,0.0-26.0-0.0,voc_e2,12147,"[{""event"":""fullscreenenter"",""trial"":1,""time"":4242}]",NA,NA,NA,NA,NA,3,#D89F1C,#3386FF,10,0,1,38,1,1160,37,1,1038.2999999970198,10,1,experiment,NA,NA,1,0.7,0.3,2,3,18,1,NA
fcp-trial,52,407708,0.0-27.0-0.0,voc_e2,12147,"[{""event"":""fullscreenenter"",""trial"":1,""time"":4242}]",NA,NA,NA,NA,NA,1,#FA92F8,#1CD855,10,10,0,38,1,1644.2000000029802,39,0,741.1000000089407,10,1,experiment,NA,NA,2,0.5,0.5,5,4,19,1,NA
fcp-trial,53,411253,0.0-28.0-0.0,voc_e2,12147,"[{""event"":""fullscreenenter"",""trial"":1,""time"":4242}]",NA,NA,NA,NA,NA,5,#FA92F8,#1CD855,10,10,0,38,1,1325.2000000029802,39,0,712.2000000029802,10,1,experiment,NA,NA,2,0.5,0.5,5,4,20,1,NA
fcp-trial,54,416247,0.0-29.0-0.0,voc_e2,12147,"[{""event"":""fullscreenenter"",""trial"":1,""time"":4242}]",NA,NA,NA,NA,NA,6,#741CD8,#D8271C,0,0,1,38,1,2335.5999999940395,37,1,1150.9000000059605,0,1,experiment,NA,NA,0,0.9,0.1,0,1,21,1,NA
fcp-trial,55,419612,0.0-30.0-0.0,voc_e2,12147,"[{""event"":""fullscreenenter"",""trial"":1,""time"":4242}]",NA,NA,NA,NA,NA,3,#741CD8,#D8271C,10,0,1,38,1,1197.800000011921,39,0,660.4000000059605,0,0,experiment,NA,NA,0,0.9,0.1,0,1,22,1,NA
fcp-trial,56,422773,0.0-31.0-0.0,voc_e2,12147,"[{""event"":""fullscreenenter"",""trial"":1,""time"":4242}]",NA,NA,NA,NA,NA,2,#D89F1C,#3386FF,10,10,1,38,1,1145.800000011921,37,1,509.20000000298023,10,1,experiment,NA,NA,1,0.7,0.3,2,3,23,1,NA
fcp-trial,57,425760,0.0-32.0-0.0,voc_e2,12147,"[{""event"":""fullscreenenter"",""trial"":1,""time"":4242}]",NA,NA,NA,NA,NA,0,#FA92F8,#1CD855,10,0,0,38,1,1054.3999999910593,39,0,420.3999999910593,0,1,experiment,NA,NA,2,0.5,0.5,5,4,24,1,NA
fcp-trial,58,429247,0.0-33.0-0.0,voc_e2,12147,"[{""event"":""fullscreenenter"",""trial"":1,""time"":4242}]",NA,NA,NA,NA,NA,6,#741CD8,#D8271C,10,0,1,40,0,891.5,39,0,1088.5,0,0,experiment,NA,NA,0,0.9,0.1,0,1,25,1,NA
fcp-trial,59,435693,0.0-34.0-0.0,voc_e2,12147,"[{""event"":""fullscreenenter"",""trial"":1,""time"":4242}]",NA,NA,NA,NA,NA,0,#D8271C,#741CD8,0,10,0,38,1,3565.6000000089407,37,1,1374,0,0,experiment,NA,NA,0,0.1,0.9,1,0,26,1,NA
fcp-trial,60,440679,0.0-35.0-0.0,voc_e2,12147,"[{""event"":""fullscreenenter"",""trial"":1,""time"":4242}]",NA,NA,NA,NA,NA,4,#3386FF,#D89F1C,10,10,0,38,1,1494.2999999970198,39,0,1984.4000000059605,10,1,experiment,NA,NA,1,0.3,0.7,3,2,27,1,NA
fcp-trial,61,443556,0.0-36.0-0.0,voc_e2,12147,"[{""event"":""fullscreenenter"",""trial"":1,""time"":4242}]",NA,NA,NA,NA,NA,6,#D89F1C,#3386FF,10,0,1,38,1,919.7999999970198,37,1,447.19999998807907,10,1,experiment,NA,NA,1,0.7,0.3,2,3,28,1,NA
fcp-trial,62,447655,0.0-37.0-0.0,voc_e2,12147,"[{""event"":""fullscreenenter"",""trial"":1,""time"":4242}]",NA,NA,NA,NA,NA,2,#FA92F8,#1CD855,0,10,0,40,0,1554.7999999970198,39,0,1032.7999999970198,10,1,experiment,NA,NA,2,0.5,0.5,5,4,29,1,NA
fcp-trial,63,452677,0.0-38.0-0.0,voc_e2,12147,"[{""event"":""fullscreenenter"",""trial"":1,""time"":4242}]",NA,NA,NA,NA,NA,2,#741CD8,#D8271C,10,0,1,40,0,2708.6000000089407,37,1,806.0999999940395,10,1,experiment,NA,NA,0,0.9,0.1,0,1,30,1,NA
fcp-trial,64,456524,0.0-39.0-0.0,voc_e2,12147,"[{""event"":""fullscreenenter"",""trial"":1,""time"":4242}]",NA,NA,NA,NA,NA,3,#3386FF,#D89F1C,0,10,0,38,1,1805.7999999970198,39,0,532.5,10,1,experiment,NA,NA,1,0.3,0.7,3,2,31,1,NA
fcp-trial,65,459438,0.0-40.0-0.0,voc_e2,12147,"[{""event"":""fullscreenenter"",""trial"":1,""time"":4242}]",NA,NA,NA,NA,NA,5,#3386FF,#D89F1C,0,10,0,38,1,817.7999999970198,39,0,589.7999999970198,10,1,experiment,NA,NA,1,0.3,0.7,3,2,32,1,NA
fcp-trial,66,463382,0.0-41.0-0.0,voc_e2,12147,"[{""event"":""fullscreenenter"",""trial"":1,""time"":4242}]",NA,NA,NA,NA,NA,1,#1CD855,#FA92F8,10,10,1,40,0,1565.4000000059605,39,0,870.0999999940395,10,0,experiment,NA,NA,2,0.5,0.5,4,5,33,1,NA
fcp-trial,67,467693,0.0-42.0-0.0,voc_e2,12147,"[{""event"":""fullscreenenter"",""trial"":1,""time"":4242}]",NA,NA,NA,NA,NA,0,#D89F1C,#3386FF,10,0,1,38,1,2073.5999999940395,37,1,726.7000000029802,10,1,experiment,NA,NA,1,0.7,0.3,2,3,34,1,NA
fcp-trial,68,473012,0.0-43.0-0.0,voc_e2,12147,"[{""event"":""fullscreenenter"",""trial"":1,""time"":4242}]",NA,NA,NA,NA,NA,1,#741CD8,#D8271C,0,0,1,40,0,3247.2999999970198,39,0,565.8999999910593,0,0,experiment,NA,NA,0,0.9,0.1,0,1,35,1,NA
fcp-trial,69,479591,0.0-44.0-0.0,voc_e2,12147,"[{""event"":""fullscreenenter"",""trial"":1,""time"":4242}]",NA,NA,NA,NA,NA,4,#FA92F8,#1CD855,10,10,0,38,1,4469.70000000298,39,0,597,10,1,experiment,NA,NA,2,0.5,0.5,5,4,36,1,NA
fcp-trial,70,484286,0.0-45.0-0.0,voc_e2,12147,"[{""event"":""fullscreenenter"",""trial"":1,""time"":4242}]",NA,NA,NA,NA,NA,5,#1CD855,#FA92F8,0,0,1,40,0,2594.5,39,0,593.7999999970198,0,0,experiment,NA,NA,2,0.5,0.5,4,5,37,1,NA
fcp-trial,71,489988,0.0-46.0-0.0,voc_e2,12147,"[{""event"":""fullscreenenter"",""trial"":1,""time"":4242}]",NA,NA,NA,NA,NA,1,#D89F1C,#3386FF,10,0,1,38,1,2225.5999999940395,37,1,1964.4000000059605,10,1,experiment,NA,NA,1,0.7,0.3,2,3,38,1,NA
fcp-trial,72,499067,0.0-47.0-0.0,voc_e2,12147,"[{""event"":""fullscreenenter"",""trial"":1,""time"":4242}]",NA,NA,NA,NA,NA,4,#D8271C,#741CD8,0,10,0,38,1,3821.5,39,0,3748.5999999940395,10,1,experiment,NA,NA,0,0.1,0.9,1,0,39,1,NA
fcp-trial,73,503039,0.0-48.0-0.0,voc_e2,12147,"[{""event"":""fullscreenenter"",""trial"":1,""time"":4242}]",NA,NA,NA,NA,NA,5,#D8271C,#741CD8,0,10,0,40,0,1592.3999999910593,37,1,871.1999999880791,0,0,experiment,NA,NA,0,0.1,0.9,1,0,40,1,NA
fcp-trial,74,506926,0.0-49.0-0.0,voc_e2,12147,"[{""event"":""fullscreenenter"",""trial"":1,""time"":4242}]",NA,NA,NA,NA,NA,3,#FA92F8,#1CD855,0,10,0,38,1,986.5,39,0,1385.5999999940395,10,1,experiment,NA,NA,2,0.5,0.5,5,4,41,1,NA
fcp-trial,75,510782,0.0-50.0-0.0,voc_e2,12147,"[{""event"":""fullscreenenter"",""trial"":1,""time"":4242}]",NA,NA,NA,NA,NA,6,#FA92F8,#1CD855,10,0,0,38,1,1459.8999999910593,39,0,879.7000000029802,0,1,experiment,NA,NA,2,0.5,0.5,5,4,42,1,NA
fcp-trial,76,513589,0.0-51.0-0.0,voc_e2,12147,"[{""event"":""fullscreenenter"",""trial"":1,""time"":4242}]",NA,NA,NA,NA,NA,4,#D89F1C,#3386FF,10,0,1,38,1,891.3000000119209,39,0,404,0,0,experiment,NA,NA,1,0.7,0.3,2,3,43,1,NA
fcp-trial,77,517661,0.0-52.0-0.0,voc_e2,12147,"[{""event"":""fullscreenenter"",""trial"":1,""time"":4242}]",NA,NA,NA,NA,NA,6,#741CD8,#D8271C,10,0,1,38,1,1047.0999999940395,37,1,1519.5,10,1,experiment,NA,NA,0,0.9,0.1,0,1,44,1,NA
fcp-trial,78,520253,0.0-53.0-0.0,voc_e2,12147,"[{""event"":""fullscreenenter"",""trial"":1,""time"":4242}]",NA,NA,NA,NA,NA,1,#3386FF,#D89F1C,10,10,0,38,1,682.6999999880791,39,0,398.70000000298023,10,1,experiment,NA,NA,1,0.3,0.7,3,2,45,1,NA
fcp-trial,79,523867,0.0-54.0-0.0,voc_e2,12147,"[{""event"":""fullscreenenter"",""trial"":1,""time"":4242}]",NA,NA,NA,NA,NA,1,#741CD8,#D8271C,10,0,1,40,0,1467.1000000089407,39,0,638.2000000029802,0,0,experiment,NA,NA,0,0.9,0.1,0,1,46,2,NA
fcp-trial,80,527660,0.0-55.0-0.0,voc_e2,12147,"[{""event"":""fullscreenenter"",""trial"":1,""time"":4242}]",NA,NA,NA,NA,NA,2,#D89F1C,#3386FF,10,0,1,38,1,1734.2999999970198,37,1,543.5999999940395,10,1,experiment,NA,NA,1,0.7,0.3,2,3,47,2,NA
fcp-trial,81,530837,0.0-56.0-0.0,voc_e2,12147,"[{""event"":""fullscreenenter"",""trial"":1,""time"":4242}]",NA,NA,NA,NA,NA,2,#741CD8,#D8271C,10,0,1,40,0,1064.1000000089407,37,1,606.5999999940395,10,1,experiment,NA,NA,0,0.9,0.1,0,1,48,2,NA
fcp-trial,82,534166,0.0-57.0-0.0,voc_e2,12147,"[{""event"":""fullscreenenter"",""trial"":1,""time"":4242}]",NA,NA,NA,NA,NA,3,#741CD8,#D8271C,10,0,1,40,0,939.1000000089407,37,1,870.8999999910593,10,1,experiment,NA,NA,0,0.9,0.1,0,1,49,2,NA
fcp-trial,83,537652,0.0-58.0-0.0,voc_e2,12147,"[{""event"":""fullscreenenter"",""trial"":1,""time"":4242}]",NA,NA,NA,NA,NA,2,#1CD855,#FA92F8,10,0,1,38,1,1525.4000000059605,37,1,447.29999999701977,10,1,experiment,NA,NA,2,0.5,0.5,4,5,50,2,NA
fcp-trial,84,541380,0.0-59.0-0.0,voc_e2,12147,"[{""event"":""fullscreenenter"",""trial"":1,""time"":4242}]",NA,NA,NA,NA,NA,3,#FA92F8,#1CD855,10,0,0,40,0,1414.4000000059605,39,0,805.5999999940395,0,1,experiment,NA,NA,2,0.5,0.5,5,4,51,2,NA
fcp-trial,85,545167,0.0-60.0-0.0,voc_e2,12147,"[{""event"":""fullscreenenter"",""trial"":1,""time"":4242}]",NA,NA,NA,NA,NA,5,#3386FF,#D89F1C,10,0,0,38,1,1510,39,0,770.4000000059605,0,1,experiment,NA,NA,1,0.3,0.7,3,2,52,2,NA
fcp-trial,86,548524,0.0-61.0-0.0,voc_e2,12147,"[{""event"":""fullscreenenter"",""trial"":1,""time"":4242}]",NA,NA,NA,NA,NA,4,#741CD8,#D8271C,0,0,1,38,1,1407.0999999940395,37,1,444.20000000298023,0,1,experiment,NA,NA,0,0.9,0.1,0,1,53,2,NA
fcp-trial,87,553022,0.0-62.0-0.0,voc_e2,12147,"[{""event"":""fullscreenenter"",""trial"":1,""time"":4242}]",NA,NA,NA,NA,NA,5,#1CD855,#FA92F8,10,0,1,38,1,2237.3999999910593,39,0,745.2999999970198,0,0,experiment,NA,NA,2,0.5,0.5,4,5,54,2,NA
fcp-trial,88,557922,0.0-63.0-0.0,voc_e2,12147,"[{""event"":""fullscreenenter"",""trial"":1,""time"":4242}]",NA,NA,NA,NA,NA,0,#D8271C,#741CD8,0,10,0,38,1,1119.1000000089407,37,1,2264.9000000059605,0,0,experiment,NA,NA,0,0.1,0.9,1,0,55,2,NA
fcp-trial,89,562864,0.0-64.0-0.0,voc_e2,12147,"[{""event"":""fullscreenenter"",""trial"":1,""time"":4242}]",NA,NA,NA,NA,NA,6,#D89F1C,#3386FF,0,0,1,38,1,2506.1000000089407,37,1,925.2999999970198,0,1,experiment,NA,NA,1,0.7,0.3,2,3,56,2,NA
fcp-trial,90,567022,0.0-65.0-0.0,voc_e2,12147,"[{""event"":""fullscreenenter"",""trial"":1,""time"":4242}]",NA,NA,NA,NA,NA,6,#FA92F8,#1CD855,0,10,0,40,0,1871.8999999910593,37,1,780,0,0,experiment,NA,NA,2,0.5,0.5,5,4,57,2,NA
fcp-trial,91,570301,0.0-66.0-0.0,voc_e2,12147,"[{""event"":""fullscreenenter"",""trial"":1,""time"":4242}]",NA,NA,NA,NA,NA,0,#FA92F8,#1CD855,0,10,0,38,1,1372.2000000029802,39,0,398.30000001192093,10,1,experiment,NA,NA,2,0.5,0.5,5,4,58,2,NA
fcp-trial,92,573644,0.0-67.0-0.0,voc_e2,12147,"[{""event"":""fullscreenenter"",""trial"":1,""time"":4242}]",NA,NA,NA,NA,NA,0,#D89F1C,#3386FF,0,10,1,38,1,1301.7999999970198,37,1,534.4000000059605,0,1,experiment,NA,NA,1,0.7,0.3,2,3,59,2,NA
fcp-trial,93,577767,0.0-68.0-0.0,voc_e2,12147,"[{""event"":""fullscreenenter"",""trial"":1,""time"":4242}]",NA,NA,NA,NA,NA,5,#D8271C,#741CD8,0,10,0,40,0,1919.1000000089407,37,1,689.3000000119209,0,0,experiment,NA,NA,0,0.1,0.9,1,0,60,2,NA
fcp-trial,94,581261,0.0-69.0-0.0,voc_e2,12147,"[{""event"":""fullscreenenter"",""trial"":1,""time"":4242}]",NA,NA,NA,NA,NA,4,#1CD855,#FA92F8,0,10,1,38,1,1530.2000000029802,37,1,454,0,1,experiment,NA,NA,2,0.5,0.5,4,5,61,2,NA
fcp-trial,95,584132,0.0-70.0-0.0,voc_e2,12147,"[{""event"":""fullscreenenter"",""trial"":1,""time"":4242}]",NA,NA,NA,NA,NA,3,#3386FF,#D89F1C,0,10,0,38,1,1000.4000000059605,39,0,358.70000000298023,10,1,experiment,NA,NA,1,0.3,0.7,3,2,62,2,NA
fcp-trial,96,587469,0.0-71.0-0.0,voc_e2,12147,"[{""event"":""fullscreenenter"",""trial"":1,""time"":4242}]",NA,NA,NA,NA,NA,1,#FA92F8,#1CD855,0,0,0,38,1,1542.199999988079,39,0,288.20000000298023,0,1,experiment,NA,NA,2,0.5,0.5,5,4,63,2,NA
fcp-trial,97,590588,0.0-72.0-0.0,voc_e2,12147,"[{""event"":""fullscreenenter"",""trial"":1,""time"":4242}]",NA,NA,NA,NA,NA,2,#FA92F8,#1CD855,0,0,0,38,1,1230.2000000029802,39,0,382,0,1,experiment,NA,NA,2,0.5,0.5,5,4,64,2,NA
fcp-trial,98,593806,0.0-73.0-0.0,voc_e2,12147,"[{""event"":""fullscreenenter"",""trial"":1,""time"":4242}]",NA,NA,NA,NA,NA,3,#3386FF,#D89F1C,10,10,0,38,1,829.3999999910593,39,0,878.0999999940395,10,1,experiment,NA,NA,1,0.3,0.7,3,2,65,2,NA
fcp-trial,99,597668,0.0-74.0-0.0,voc_e2,12147,"[{""event"":""fullscreenenter"",""trial"":1,""time"":4242}]",NA,NA,NA,NA,NA,5,#FA92F8,#1CD855,0,10,0,38,1,1622.7000000029802,39,0,725,10,1,experiment,NA,NA,2,0.5,0.5,5,4,66,2,NA
fcp-trial,100,603149,0.0-75.0-0.0,voc_e2,12147,"[{""event"":""fullscreenenter"",""trial"":1,""time"":4242}]",NA,NA,NA,NA,NA,2,#741CD8,#D8271C,10,0,1,38,1,1242.5999999940395,37,1,2728.2999999970198,10,1,experiment,NA,NA,0,0.9,0.1,0,1,67,2,NA
fcp-trial,101,607036,0.0-76.0-0.0,voc_e2,12147,"[{""event"":""fullscreenenter"",""trial"":1,""time"":4242}]",NA,NA,NA,NA,NA,1,#D89F1C,#3386FF,10,10,1,38,1,1561.5,37,1,814.5,10,1,experiment,NA,NA,1,0.7,0.3,2,3,68,2,NA
fcp-trial,102,610854,0.0-77.0-0.0,voc_e2,12147,"[{""event"":""fullscreenenter"",""trial"":1,""time"":4242}]",NA,NA,NA,NA,NA,0,#FA92F8,#1CD855,0,0,0,38,1,1848.5,39,0,463.79999999701977,0,1,experiment,NA,NA,2,0.5,0.5,5,4,69,2,NA
fcp-trial,103,615171,0.0-78.0-0.0,voc_e2,12147,"[{""event"":""fullscreenenter"",""trial"":1,""time"":4242}]",NA,NA,NA,NA,NA,4,#FA92F8,#1CD855,10,0,0,38,1,2482.5,39,0,325,0,1,experiment,NA,NA,2,0.5,0.5,5,4,70,2,NA
fcp-trial,104,618798,0.0-79.0-0.0,voc_e2,12147,"[{""event"":""fullscreenenter"",""trial"":1,""time"":4242}]",NA,NA,NA,NA,NA,6,#3386FF,#D89F1C,0,10,0,38,1,1828.199999988079,39,0,285.59999999403954,10,1,experiment,NA,NA,1,0.3,0.7,3,2,71,2,NA
fcp-trial,105,622573,0.0-80.0-0.0,voc_e2,12147,"[{""event"":""fullscreenenter"",""trial"":1,""time"":4242}]",NA,NA,NA,NA,NA,0,#741CD8,#D8271C,10,0,1,40,0,1363,37,1,902.3000000119209,10,1,experiment,NA,NA,0,0.9,0.1,0,1,72,2,NA
fcp-trial,106,626597,0.0-81.0-0.0,voc_e2,12147,"[{""event"":""fullscreenenter"",""trial"":1,""time"":4242}]",NA,NA,NA,NA,NA,5,#D89F1C,#3386FF,10,0,1,38,1,2038.2999999970198,37,1,479.79999999701977,10,1,experiment,NA,NA,1,0.7,0.3,2,3,73,2,NA
fcp-trial,107,629605,0.0-82.0-0.0,voc_e2,12147,"[{""event"":""fullscreenenter"",""trial"":1,""time"":4242}]",NA,NA,NA,NA,NA,6,#1CD855,#FA92F8,0,10,1,38,1,1082.9000000059605,37,1,414.29999999701977,0,1,experiment,NA,NA,2,0.5,0.5,4,5,74,2,NA
fcp-trial,108,633203,0.0-83.0-0.0,voc_e2,12147,"[{""event"":""fullscreenenter"",""trial"":1,""time"":4242}]",NA,NA,NA,NA,NA,5,#741CD8,#D8271C,10,0,1,40,0,1573.5999999940395,39,0,517.5,0,0,experiment,NA,NA,0,0.9,0.1,0,1,75,2,NA
fcp-trial,109,636323,0.0-84.0-0.0,voc_e2,12147,"[{""event"":""fullscreenenter"",""trial"":1,""time"":4242}]",NA,NA,NA,NA,NA,2,#D89F1C,#3386FF,10,0,1,38,1,1178.0999999940395,37,1,437.09999999403954,10,1,experiment,NA,NA,1,0.7,0.3,2,3,76,2,NA
fcp-trial,110,641501,0.0-85.0-0.0,voc_e2,12147,"[{""event"":""fullscreenenter"",""trial"":1,""time"":4242}]",NA,NA,NA,NA,NA,1,#D8271C,#741CD8,0,10,0,40,0,3167.7000000029802,37,1,504.20000000298023,0,0,experiment,NA,NA,0,0.1,0.9,1,0,77,2,NA
fcp-trial,111,644724,0.0-86.0-0.0,voc_e2,12147,"[{""event"":""fullscreenenter"",""trial"":1,""time"":4242}]",NA,NA,NA,NA,NA,3,#1CD855,#FA92F8,0,10,1,38,1,1408.699999988079,37,1,309,0,1,experiment,NA,NA,2,0.5,0.5,4,5,78,2,NA
fcp-trial,112,647487,0.0-87.0-0.0,voc_e2,12147,"[{""event"":""fullscreenenter"",""trial"":1,""time"":4242}]",NA,NA,NA,NA,NA,4,#D89F1C,#3386FF,10,0,1,38,1,825.9000000059605,37,1,425.09999999403954,10,1,experiment,NA,NA,1,0.7,0.3,2,3,79,2,NA
fcp-trial,113,651140,0.0-88.0-0.0,voc_e2,12147,"[{""event"":""fullscreenenter"",""trial"":1,""time"":4242}]",NA,NA,NA,NA,NA,3,#741CD8,#D8271C,0,0,1,40,0,1477.2000000029802,39,0,663.6000000089407,0,0,experiment,NA,NA,0,0.9,0.1,0,1,80,2,NA
fcp-trial,114,654324,0.0-89.0-0.0,voc_e2,12147,"[{""event"":""fullscreenenter"",""trial"":1,""time"":4242}]",NA,NA,NA,NA,NA,0,#3386FF,#D89F1C,0,0,0,38,1,1265.1000000089407,39,0,413.5,0,1,experiment,NA,NA,1,0.3,0.7,3,2,81,2,NA
fcp-trial,115,659181,0.0-90.0-0.0,voc_e2,12147,"[{""event"":""fullscreenenter"",""trial"":1,""time"":4242}]",NA,NA,NA,NA,NA,4,#D8271C,#741CD8,0,10,0,38,1,1213.5999999940395,39,0,2136.5,10,1,experiment,NA,NA,0,0.1,0.9,1,0,82,2,NA
fcp-trial,116,661989,0.0-91.0-0.0,voc_e2,12147,"[{""event"":""fullscreenenter"",""trial"":1,""time"":4242}]",NA,NA,NA,NA,NA,1,#1CD855,#FA92F8,0,0,1,38,1,898,37,1,399.5,0,1,experiment,NA,NA,2,0.5,0.5,4,5,83,2,NA
fcp-trial,117,665124,0.0-92.0-0.0,voc_e2,12147,"[{""event"":""fullscreenenter"",""trial"":1,""time"":4242}]",NA,NA,NA,NA,NA,6,#741CD8,#D8271C,10,0,1,38,1,958,37,1,670.5,10,1,experiment,NA,NA,0,0.9,0.1,0,1,84,2,NA
fcp-trial,118,667750,0.0-93.0-0.0,voc_e2,12147,"[{""event"":""fullscreenenter"",""trial"":1,""time"":4242}]",NA,NA,NA,NA,NA,0,#D89F1C,#3386FF,0,10,1,38,1,769.7999999970198,37,1,343.09999999403954,0,1,experiment,NA,NA,1,0.7,0.3,2,3,85,2,NA
fcp-trial,119,671037,0.0-94.0-0.0,voc_e2,12147,"[{""event"":""fullscreenenter"",""trial"":1,""time"":4242}]",NA,NA,NA,NA,NA,3,#FA92F8,#1CD855,0,10,0,38,1,1272.9000000059605,39,0,501.30000001192093,10,1,experiment,NA,NA,2,0.5,0.5,5,4,86,2,NA
fcp-trial,120,673794,0.0-95.0-0.0,voc_e2,12147,"[{""event"":""fullscreenenter"",""trial"":1,""time"":4242}]",NA,NA,NA,NA,NA,5,#D89F1C,#3386FF,10,0,1,38,1,945.6000000089407,37,1,300.8999999910593,10,1,experiment,NA,NA,1,0.7,0.3,2,3,87,2,NA
fcp-trial,121,677461,0.0-96.0-0.0,voc_e2,12147,"[{""event"":""fullscreenenter"",""trial"":1,""time"":4242}]",NA,NA,NA,NA,NA,3,#D8271C,#741CD8,10,10,0,38,1,1336.7999999970198,39,0,814.5,10,1,experiment,NA,NA,0,0.1,0.9,1,0,88,2,NA
fcp-trial,122,685300,0.0-97.0-0.0,voc_e2,12147,"[{""event"":""fullscreenenter"",""trial"":1,""time"":4242}]",NA,NA,NA,NA,NA,0,#D8271C,#741CD8,0,10,0,38,1,6059.29999999702,39,0,262.90000000596046,10,1,experiment,NA,NA,0,0.1,0.9,1,0,89,2,NA
fcp-trial,123,688948,0.0-98.0-0.0,voc_e2,12147,"[{""event"":""fullscreenenter"",""trial"":1,""time"":4242}]",NA,NA,NA,NA,NA,5,#D8271C,#741CD8,0,10,0,38,1,1821,39,0,315.1000000089407,10,1,experiment,NA,NA,0,0.1,0.9,1,0,90,2,NA
fcp-trial,124,691644,0.0-99.0-0.0,voc_e2,12147,"[{""event"":""fullscreenenter"",""trial"":1,""time"":4242}]",NA,NA,NA,NA,NA,1,#1CD855,#FA92F8,10,10,1,38,1,858.7999999970198,37,1,325.5,10,1,experiment,NA,NA,2,0.5,0.5,4,5,91,3,NA
fcp-trial,125,694270,0.0-100.0-0.0,voc_e2,12147,"[{""event"":""fullscreenenter"",""trial"":1,""time"":4242}]",NA,NA,NA,NA,NA,1,#D89F1C,#3386FF,0,0,1,38,1,788.0999999940395,37,1,323.1000000089407,0,1,experiment,NA,NA,1,0.7,0.3,2,3,92,3,NA
fcp-trial,126,697168,0.0-101.0-0.0,voc_e2,12147,"[{""event"":""fullscreenenter"",""trial"":1,""time"":4242}]",NA,NA,NA,NA,NA,0,#FA92F8,#1CD855,10,0,0,38,1,712,39,0,673.0999999940395,0,1,experiment,NA,NA,2,0.5,0.5,5,4,93,3,NA
fcp-trial,127,702620,0.0-102.0-0.0,voc_e2,12147,"[{""event"":""fullscreenenter"",""trial"":1,""time"":4242}]",NA,NA,NA,NA,NA,1,#741CD8,#D8271C,10,0,1,38,1,1253.2000000029802,37,1,2686.5,10,1,experiment,NA,NA,0,0.9,0.1,0,1,94,3,NA
fcp-trial,128,707165,0.0-103.0-0.0,voc_e2,12147,"[{""event"":""fullscreenenter"",""trial"":1,""time"":4242}]",NA,NA,NA,NA,NA,4,#FA92F8,#1CD855,10,10,0,38,1,2703,39,0,334.79999999701977,10,1,experiment,NA,NA,2,0.5,0.5,5,4,95,3,NA
fcp-trial,129,709771,0.0-104.0-0.0,voc_e2,12147,"[{""event"":""fullscreenenter"",""trial"":1,""time"":4242}]",NA,NA,NA,NA,NA,3,#3386FF,#D89F1C,0,10,0,38,1,816.2999999970198,39,0,284.1000000089407,10,1,experiment,NA,NA,1,0.3,0.7,3,2,96,3,NA
fcp-trial,130,714163,0.0-105.0-0.0,voc_e2,12147,"[{""event"":""fullscreenenter"",""trial"":1,""time"":4242}]",NA,NA,NA,NA,NA,6,#741CD8,#D8271C,0,0,1,38,1,1836.300000011921,37,1,1047,0,1,experiment,NA,NA,0,0.9,0.1,0,1,97,3,NA
fcp-trial,131,718325,0.0-106.0-0.0,voc_e2,12147,"[{""event"":""fullscreenenter"",""trial"":1,""time"":4242}]",NA,NA,NA,NA,NA,5,#FA92F8,#1CD855,0,0,0,38,1,2150,39,0,501.80000001192093,0,1,experiment,NA,NA,2,0.5,0.5,5,4,98,3,NA
fcp-trial,132,720724,0.0-107.0-0.0,voc_e2,12147,"[{""event"":""fullscreenenter"",""trial"":1,""time"":4242}]",NA,NA,NA,NA,NA,2,#D89F1C,#3386FF,10,10,1,38,1,571.2000000029802,37,1,310,10,1,experiment,NA,NA,1,0.7,0.3,2,3,99,3,NA
fcp-trial,133,723708,0.0-108.0-0.0,voc_e2,12147,"[{""event"":""fullscreenenter"",""trial"":1,""time"":4242}]",NA,NA,NA,NA,NA,6,#D89F1C,#3386FF,10,0,1,38,1,1203.7000000029802,37,1,271.5,10,1,experiment,NA,NA,1,0.7,0.3,2,3,100,3,NA
fcp-trial,134,726931,0.0-109.0-0.0,voc_e2,12147,"[{""event"":""fullscreenenter"",""trial"":1,""time"":4242}]",NA,NA,NA,NA,NA,4,#D8271C,#741CD8,0,10,0,38,1,1391,39,0,325.5,10,1,experiment,NA,NA,0,0.1,0.9,1,0,101,3,NA
fcp-trial,135,730132,0.0-110.0-0.0,voc_e2,12147,"[{""event"":""fullscreenenter"",""trial"":1,""time"":4242}]",NA,NA,NA,NA,NA,6,#1CD855,#FA92F8,0,10,1,38,1,1342.9000000059605,39,0,348.20000000298023,10,0,experiment,NA,NA,2,0.5,0.5,4,5,102,3,NA
fcp-trial,136,732923,0.0-111.0-0.0,voc_e2,12147,"[{""event"":""fullscreenenter"",""trial"":1,""time"":4242}]",NA,NA,NA,NA,NA,4,#3386FF,#D89F1C,0,10,0,38,1,768.3000000119209,39,0,509.30000001192093,10,1,experiment,NA,NA,1,0.3,0.7,3,2,103,3,NA
fcp-trial,137,735885,0.0-112.0-0.0,voc_e2,12147,"[{""event"":""fullscreenenter"",""trial"":1,""time"":4242}]",NA,NA,NA,NA,NA,2,#1CD855,#FA92F8,10,10,1,38,1,1149.6000000089407,37,1,303.70000000298023,10,1,experiment,NA,NA,2,0.5,0.5,4,5,104,3,NA
fcp-trial,138,740332,0.0-113.0-0.0,voc_e2,12147,"[{""event"":""fullscreenenter"",""trial"":1,""time"":4242}]",NA,NA,NA,NA,NA,2,#D8271C,#741CD8,0,10,0,38,1,902.3999999910593,39,0,2038.6000000089407,10,1,experiment,NA,NA,0,0.1,0.9,1,0,105,3,NA
audio-instructions,139,746537,0.0-114.0,voc_e2,12147,"[{""event"":""fullscreenenter"",""trial"":1,""time"":4242}]",NA,1310,static/audio/pause.wav,NA,0,NA,NA,NA,NA,NA,NA,NA,NA,NA,NA,NA,NA,NA,NA,NA,NA,NA,NA,NA,NA,NA,NA,NA,NA,NA
fcp-trial,140,751671,0.0-115.0-0.0,voc_e2,12147,"[{""event"":""fullscreenenter"",""trial"":1,""time"":4242}]",NA,NA,NA,NA,NA,4,#D89F1C,#3386FF,10,10,1,40,0,3126.7999999970198,37,1,498.3999999910593,10,1,experiment,NA,NA,1,0.7,0.3,2,3,106,3,NA
fcp-trial,141,755369,0.0-116.0-0.0,voc_e2,12147,"[{""event"":""fullscreenenter"",""trial"":1,""time"":4242}]",NA,NA,NA,NA,NA,3,#D89F1C,#3386FF,0,0,1,40,0,1614.2999999970198,39,0,555.7999999970198,0,0,experiment,NA,NA,1,0.7,0.3,2,3,107,3,NA
fcp-trial,142,758952,0.0-117.0-0.0,voc_e2,12147,"[{""event"":""fullscreenenter"",""trial"":1,""time"":4242}]",NA,NA,NA,NA,NA,0,#741CD8,#D8271C,10,0,1,38,1,1191,37,1,872.6000000089407,10,1,experiment,NA,NA,0,0.9,0.1,0,1,108,3,NA
fcp-trial,143,762213,0.0-118.0-0.0,voc_e2,12147,"[{""event"":""fullscreenenter"",""trial"":1,""time"":4242}]",NA,NA,NA,NA,NA,3,#1CD855,#FA92F8,0,10,1,38,1,1315.4000000059605,37,1,424.70000000298023,0,1,experiment,NA,NA,2,0.5,0.5,4,5,109,3,NA
fcp-trial,144,766806,0.0-119.0-0.0,voc_e2,12147,"[{""event"":""fullscreenenter"",""trial"":1,""time"":4242}]",NA,NA,NA,NA,NA,4,#FA92F8,#1CD855,0,10,0,40,0,2478.300000011921,39,0,604.9000000059605,10,1,experiment,NA,NA,2,0.5,0.5,5,4,110,3,NA
fcp-trial,145,770225,0.0-120.0-0.0,voc_e2,12147,"[{""event"":""fullscreenenter"",""trial"":1,""time"":4242}]",NA,NA,NA,NA,NA,6,#FA92F8,#1CD855,10,0,0,40,0,1285.2000000029802,39,0,614.7000000029802,0,1,experiment,NA,NA,2,0.5,0.5,5,4,111,3,NA
fcp-trial,146,774838,0.0-121.0-0.0,voc_e2,12147,"[{""event"":""fullscreenenter"",""trial"":1,""time"":4242}]",NA,NA,NA,NA,NA,0,#3386FF,#D89F1C,10,0,0,38,1,1755,39,0,1339.7000000029802,0,1,experiment,NA,NA,1,0.3,0.7,3,2,112,3,NA
fcp-trial,147,778541,0.0-122.0-0.0,voc_e2,12147,"[{""event"":""fullscreenenter"",""trial"":1,""time"":4242}]",NA,NA,NA,NA,NA,3,#D8271C,#741CD8,0,10,0,40,0,1733.7999999970198,39,0,461.70000000298023,10,1,experiment,NA,NA,0,0.1,0.9,1,0,113,3,NA
fcp-trial,148,782963,0.0-123.0-0.0,voc_e2,12147,"[{""event"":""fullscreenenter"",""trial"":1,""time"":4242}]",NA,NA,NA,NA,NA,1,#1CD855,#FA92F8,0,10,1,40,0,2503.699999988079,39,0,406.79999999701977,10,0,experiment,NA,NA,2,0.5,0.5,4,5,114,3,NA
fcp-trial,149,787263,0.0-124.0-0.0,voc_e2,12147,"[{""event"":""fullscreenenter"",""trial"":1,""time"":4242}]",NA,NA,NA,NA,NA,6,#741CD8,#D8271C,10,0,1,40,0,2131.4000000059605,37,1,656.7999999970198,10,1,experiment,NA,NA,0,0.9,0.1,0,1,115,3,NA
fcp-trial,150,792485,0.0-125.0-0.0,voc_e2,12147,"[{""event"":""fullscreenenter"",""trial"":1,""time"":4242}]",NA,NA,NA,NA,NA,6,#3386FF,#D89F1C,0,0,0,40,0,3035.699999988079,37,1,677.3999999910593,0,0,experiment,NA,NA,1,0.3,0.7,3,2,116,3,NA
fcp-trial,151,796229,0.0-126.0-0.0,voc_e2,12147,"[{""event"":""fullscreenenter"",""trial"":1,""time"":4242}]",NA,NA,NA,NA,NA,1,#D8271C,#741CD8,0,10,0,38,1,1848,39,0,383.70000000298023,10,1,experiment,NA,NA,0,0.1,0.9,1,0,117,3,NA
fcp-trial,152,801892,0.0-127.0-0.0,voc_e2,12147,"[{""event"":""fullscreenenter"",""trial"":1,""time"":4242}]",NA,NA,NA,NA,NA,0,#FA92F8,#1CD855,10,0,0,38,1,3760.5,39,0,396.09999999403954,0,1,experiment,NA,NA,2,0.5,0.5,5,4,118,3,NA
fcp-trial,153,806973,0.0-128.0-0.0,voc_e2,12147,"[{""event"":""fullscreenenter"",""trial"":1,""time"":4242}]",NA,NA,NA,NA,NA,1,#D89F1C,#3386FF,10,0,1,38,1,2766.5999999940395,37,1,809.0999999940395,10,1,experiment,NA,NA,1,0.7,0.3,2,3,119,3,NA
fcp-trial,154,810292,0.0-129.0-0.0,voc_e2,12147,"[{""event"":""fullscreenenter"",""trial"":1,""time"":4242}]",NA,NA,NA,NA,NA,2,#1CD855,#FA92F8,0,10,1,38,1,1552.4000000059605,39,0,262.5,10,0,experiment,NA,NA,2,0.5,0.5,4,5,120,3,NA
fcp-trial,155,813819,0.0-130.0-0.0,voc_e2,12147,"[{""event"":""fullscreenenter"",""trial"":1,""time"":4242}]",NA,NA,NA,NA,NA,2,#D89F1C,#3386FF,10,0,1,38,1,1639.8999999910593,37,1,382.6000000089407,10,1,experiment,NA,NA,1,0.7,0.3,2,3,121,3,NA
fcp-trial,156,817863,0.0-131.0-0.0,voc_e2,12147,"[{""event"":""fullscreenenter"",""trial"":1,""time"":4242}]",NA,NA,NA,NA,NA,4,#741CD8,#D8271C,10,0,1,38,1,1425,37,1,1113.5,10,1,experiment,NA,NA,0,0.9,0.1,0,1,122,3,NA
fcp-trial,157,821933,0.0-132.0-0.0,voc_e2,12147,"[{""event"":""fullscreenenter"",""trial"":1,""time"":4242}]",NA,NA,NA,NA,NA,5,#FA92F8,#1CD855,0,0,0,40,0,1888.2000000029802,37,1,675.2999999970198,0,0,experiment,NA,NA,2,0.5,0.5,5,4,123,3,NA
fcp-trial,158,825243,0.0-133.0-0.0,voc_e2,12147,"[{""event"":""fullscreenenter"",""trial"":1,""time"":4242}]",NA,NA,NA,NA,NA,2,#741CD8,#D8271C,10,0,1,38,1,1448.7000000029802,37,1,356.5,10,1,experiment,NA,NA,0,0.9,0.1,0,1,124,3,NA
fcp-trial,159,830100,0.0-134.0-0.0,voc_e2,12147,"[{""event"":""fullscreenenter"",""trial"":1,""time"":4242}]",NA,NA,NA,NA,NA,5,#741CD8,#D8271C,10,0,1,38,1,3065,37,1,286.70000000298023,10,1,experiment,NA,NA,0,0.9,0.1,0,1,125,3,NA
fcp-trial,160,835838,0.0-135.0-0.0,voc_e2,12147,"[{""event"":""fullscreenenter"",""trial"":1,""time"":4242}]",NA,NA,NA,NA,NA,5,#3386FF,#D89F1C,10,10,0,40,0,2318.800000011921,39,0,1910.9000000059605,10,1,experiment,NA,NA,1,0.3,0.7,3,2,126,3,NA
fcp-trial,161,839485,0.0-136.0-0.0,voc_e2,12147,"[{""event"":""fullscreenenter"",""trial"":1,""time"":4242}]",NA,NA,NA,NA,NA,4,#1CD855,#FA92F8,10,10,1,40,0,1358.8999999910593,37,1,783.2999999970198,10,1,experiment,NA,NA,2,0.5,0.5,4,5,127,3,NA
fcp-trial,162,842852,0.0-137.0-0.0,voc_e2,12147,"[{""event"":""fullscreenenter"",""trial"":1,""time"":4242}]",NA,NA,NA,NA,NA,1,#741CD8,#D8271C,10,0,1,40,0,1268.5,37,1,590.7999999970198,10,1,experiment,NA,NA,0,0.9,0.1,0,1,128,3,NA
fcp-trial,163,846382,0.0-138.0-0.0,voc_e2,12147,"[{""event"":""fullscreenenter"",""trial"":1,""time"":4242}]",NA,NA,NA,NA,NA,1,#3386FF,#D89F1C,0,10,0,40,0,1449.4000000059605,39,0,576,10,1,experiment,NA,NA,1,0.3,0.7,3,2,129,3,NA
fcp-trial,164,849333,0.0-139.0-0.0,voc_e2,12147,"[{""event"":""fullscreenenter"",""trial"":1,""time"":4242}]",NA,NA,NA,NA,NA,2,#741CD8,#D8271C,10,0,1,40,0,859.1000000089407,39,0,583.2000000029802,0,0,experiment,NA,NA,0,0.9,0.1,0,1,130,3,NA
fcp-trial,165,852629,0.0-140.0-0.0,voc_e2,12147,"[{""event"":""fullscreenenter"",""trial"":1,""time"":4242}]",NA,NA,NA,NA,NA,6,#FA92F8,#1CD855,10,10,0,40,0,1215.2999999970198,39,0,573.9000000059605,10,1,experiment,NA,NA,2,0.5,0.5,5,4,131,3,NA
fcp-trial,166,856077,0.0-141.0-0.0,voc_e2,12147,"[{""event"":""fullscreenenter"",""trial"":1,""time"":4242}]",NA,NA,NA,NA,NA,5,#FA92F8,#1CD855,10,0,0,38,1,1422.6000000089407,39,0,516.7999999970198,0,1,experiment,NA,NA,2,0.5,0.5,5,4,132,3,NA
fcp-trial,167,860931,0.0-142.0-0.0,voc_e2,12147,"[{""event"":""fullscreenenter"",""trial"":1,""time"":4242}]",NA,NA,NA,NA,NA,2,#D89F1C,#3386FF,0,10,1,38,1,2216.7999999970198,37,1,1123.7999999970198,0,1,experiment,NA,NA,1,0.7,0.3,2,3,133,3,NA
fcp-trial,168,864141,0.0-143.0-0.0,voc_e2,12147,"[{""event"":""fullscreenenter"",""trial"":1,""time"":4242}]",NA,NA,NA,NA,NA,5,#D8271C,#741CD8,0,10,0,40,0,1026,37,1,672.2000000029802,0,0,experiment,NA,NA,0,0.1,0.9,1,0,134,3,NA
fcp-trial,169,868014,0.0-144.0-0.0,voc_e2,12147,"[{""event"":""fullscreenenter"",""trial"":1,""time"":4242}]",NA,NA,NA,NA,NA,3,#D89F1C,#3386FF,0,0,1,40,0,1822.6000000089407,37,1,544.1000000089407,0,1,experiment,NA,NA,1,0.7,0.3,2,3,135,3,NA
fcp-trial,170,871526,0.0-145.0-0.0,voc_e2,12147,"[{""event"":""fullscreenenter"",""trial"":1,""time"":4242}]",NA,NA,NA,NA,NA,4,#741CD8,#D8271C,10,0,1,38,1,1216.0999999940395,39,0,791.5,0,0,experiment,NA,NA,0,0.9,0.1,0,1,136,4,NA
fcp-trial,171,875276,0.0-146.0-0.0,voc_e2,12147,"[{""event"":""fullscreenenter"",""trial"":1,""time"":4242}]",NA,NA,NA,NA,NA,1,#1CD855,#FA92F8,10,10,1,40,0,1831.5,37,1,414.09999999403954,10,1,experiment,NA,NA,2,0.5,0.5,4,5,137,4,NA
fcp-trial,172,878724,0.0-147.0-0.0,voc_e2,12147,"[{""event"":""fullscreenenter"",""trial"":1,""time"":4242}]",NA,NA,NA,NA,NA,5,#D89F1C,#3386FF,0,10,1,40,0,1367,37,1,574.4000000059605,0,1,experiment,NA,NA,1,0.7,0.3,2,3,138,4,NA
fcp-trial,173,882380,0.0-148.0-0.0,voc_e2,12147,"[{""event"":""fullscreenenter"",""trial"":1,""time"":4242}]",NA,NA,NA,NA,NA,6,#D89F1C,#3386FF,10,10,1,40,0,1535.800000011921,37,1,605,10,1,experiment,NA,NA,1,0.7,0.3,2,3,139,4,NA
fcp-trial,174,887501,0.0-149.0-0.0,voc_e2,12147,"[{""event"":""fullscreenenter"",""trial"":1,""time"":4242}]",NA,NA,NA,NA,NA,3,#741CD8,#D8271C,10,0,1,40,0,2973.0999999940395,39,0,632.2000000029802,0,0,experiment,NA,NA,0,0.9,0.1,0,1,140,4,NA
fcp-trial,175,890812,0.0-150.0-0.0,voc_e2,12147,"[{""event"":""fullscreenenter"",""trial"":1,""time"":4242}]",NA,NA,NA,NA,NA,0,#FA92F8,#1CD855,10,10,0,38,1,1448.7999999970198,39,0,351.20000000298023,10,1,experiment,NA,NA,2,0.5,0.5,5,4,141,4,NA
fcp-trial,176,905820,0.0-151.0-0.0,voc_e2,12147,"[{""event"":""fullscreenenter"",""trial"":1,""time"":4242}]",NA,NA,NA,NA,NA,4,#3386FF,#D89F1C,10,10,0,null,null,null,null,null,null,NA,0,experiment,NA,NA,1,0.3,0.7,3,2,142,4,NA
fcp-trial,177,910061,0.0-152.0-0.0,voc_e2,12147,"[{""event"":""fullscreenenter"",""trial"":1,""time"":4242}]",NA,NA,NA,NA,NA,6,#D8271C,#741CD8,0,10,0,40,0,2191.5,37,1,540.2000000029802,0,0,experiment,NA,NA,0,0.1,0.9,1,0,143,4,NA
fcp-trial,178,914268,0.0-153.0-0.0,voc_e2,12147,"[{""event"":""fullscreenenter"",""trial"":1,""time"":4242}]",NA,NA,NA,NA,NA,3,#FA92F8,#1CD855,10,0,0,38,1,2194.7999999970198,39,0,508,0,1,experiment,NA,NA,2,0.5,0.5,5,4,144,4,NA
fcp-trial,179,917622,0.0-154.0-0.0,voc_e2,12147,"[{""event"":""fullscreenenter"",""trial"":1,""time"":4242}]",NA,NA,NA,NA,NA,2,#1CD855,#FA92F8,0,0,1,40,0,1217.0999999940395,39,0,631.9000000059605,0,0,experiment,NA,NA,2,0.5,0.5,4,5,145,4,NA
fcp-trial,180,920741,0.0-155.0-0.0,voc_e2,12147,"[{""event"":""fullscreenenter"",""trial"":1,""time"":4242}]",NA,NA,NA,NA,NA,0,#D89F1C,#3386FF,0,0,1,38,1,927.2999999970198,37,1,687.5,0,1,experiment,NA,NA,1,0.7,0.3,2,3,146,4,NA
fcp-trial,181,924582,0.0-156.0-0.0,voc_e2,12147,"[{""event"":""fullscreenenter"",""trial"":1,""time"":4242}]",NA,NA,NA,NA,NA,0,#741CD8,#D8271C,0,0,1,38,1,1463.7000000029802,37,1,873.7000000029802,0,1,experiment,NA,NA,0,0.9,0.1,0,1,147,4,NA
fcp-trial,182,927741,0.0-157.0-0.0,voc_e2,12147,"[{""event"":""fullscreenenter"",""trial"":1,""time"":4242}]",NA,NA,NA,NA,NA,4,#D8271C,#741CD8,0,10,0,40,0,1180.5,39,0,471.29999999701977,10,1,experiment,NA,NA,0,0.1,0.9,1,0,148,4,NA
fcp-trial,183,933006,0.0-158.0-0.0,voc_e2,12147,"[{""event"":""fullscreenenter"",""trial"":1,""time"":4242}]",NA,NA,NA,NA,NA,6,#3386FF,#D89F1C,0,0,0,38,1,1902.4000000059605,39,0,1856.2999999970198,0,1,experiment,NA,NA,1,0.3,0.7,3,2,149,4,NA
fcp-trial,184,936156,0.0-159.0-0.0,voc_e2,12147,"[{""event"":""fullscreenenter"",""trial"":1,""time"":4242}]",NA,NA,NA,NA,NA,3,#3386FF,#D89F1C,0,0,0,38,1,1252.2999999970198,39,0,390.5,0,1,experiment,NA,NA,1,0.3,0.7,3,2,150,4,NA
fcp-trial,185,940445,0.0-160.0-0.0,voc_e2,12147,"[{""event"":""fullscreenenter"",""trial"":1,""time"":4242}]",NA,NA,NA,NA,NA,2,#FA92F8,#1CD855,10,10,0,38,1,1930,37,1,848.0999999940395,10,0,experiment,NA,NA,2,0.5,0.5,5,4,151,4,NA
fcp-trial,186,943965,0.0-161.0-0.0,voc_e2,12147,"[{""event"":""fullscreenenter"",""trial"":1,""time"":4242}]",NA,NA,NA,NA,NA,4,#3386FF,#D89F1C,0,10,0,38,1,1534.3999999910593,39,0,478.5,10,1,experiment,NA,NA,1,0.3,0.7,3,2,152,4,NA
fcp-trial,187,946999,0.0-162.0-0.0,voc_e2,12147,"[{""event"":""fullscreenenter"",""trial"":1,""time"":4242}]",NA,NA,NA,NA,NA,5,#741CD8,#D8271C,10,0,1,40,0,999.8000000119209,37,1,529.7999999970198,10,1,experiment,NA,NA,0,0.9,0.1,0,1,153,4,NA
fcp-trial,188,950133,0.0-163.0-0.0,voc_e2,12147,"[{""event"":""fullscreenenter"",""trial"":1,""time"":4242}]",NA,NA,NA,NA,NA,4,#1CD855,#FA92F8,0,10,1,40,0,1145.7000000029802,39,0,479.40000000596046,10,0,experiment,NA,NA,2,0.5,0.5,4,5,154,4,NA
fcp-trial,189,954267,0.0-164.0-0.0,voc_e2,12147,"[{""event"":""fullscreenenter"",""trial"":1,""time"":4242}]",NA,NA,NA,NA,NA,0,#741CD8,#D8271C,0,0,1,38,1,2135.5999999940395,37,1,492.59999999403954,0,1,experiment,NA,NA,0,0.9,0.1,0,1,155,4,NA
fcp-trial,190,957812,0.0-165.0-0.0,voc_e2,12147,"[{""event"":""fullscreenenter"",""trial"":1,""time"":4242}]",NA,NA,NA,NA,NA,0,#1CD855,#FA92F8,0,0,1,38,1,1439.6000000089407,39,0,589.7000000029802,0,0,experiment,NA,NA,2,0.5,0.5,4,5,156,4,NA
fcp-trial,191,961083,0.0-166.0-0.0,voc_e2,12147,"[{""event"":""fullscreenenter"",""trial"":1,""time"":4242}]",NA,NA,NA,NA,NA,5,#D89F1C,#3386FF,10,10,1,38,1,1251.300000011921,37,1,516.2000000029802,10,1,experiment,NA,NA,1,0.7,0.3,2,3,157,4,NA
fcp-trial,192,966876,0.0-167.0-0.0,voc_e2,12147,"[{""event"":""fullscreenenter"",""trial"":1,""time"":4242}]",NA,NA,NA,NA,NA,2,#741CD8,#D8271C,10,0,1,38,1,1240.2999999970198,37,1,3047.5,10,1,experiment,NA,NA,0,0.9,0.1,0,1,158,4,NA
fcp-trial,193,969519,0.0-168.0-0.0,voc_e2,12147,"[{""event"":""fullscreenenter"",""trial"":1,""time"":4242}]",NA,NA,NA,NA,NA,0,#D89F1C,#3386FF,10,0,1,38,1,814.5999999940395,37,1,317.70000000298023,10,1,experiment,NA,NA,1,0.7,0.3,2,3,159,4,NA
fcp-trial,194,972332,0.0-169.0-0.0,voc_e2,12147,"[{""event"":""fullscreenenter"",""trial"":1,""time"":4242}]",NA,NA,NA,NA,NA,2,#3386FF,#D89F1C,10,10,0,38,1,931,39,0,373,10,1,experiment,NA,NA,1,0.3,0.7,3,2,160,4,NA
fcp-trial,195,975701,0.0-170.0-0.0,voc_e2,12147,"[{""event"":""fullscreenenter"",""trial"":1,""time"":4242}]",NA,NA,NA,NA,NA,6,#1CD855,#FA92F8,10,0,1,38,1,957.5,37,1,895.6000000089407,10,1,experiment,NA,NA,2,0.5,0.5,4,5,161,4,NA
fcp-trial,196,980115,0.0-171.0-0.0,voc_e2,12147,"[{""event"":""fullscreenenter"",""trial"":1,""time"":4242}]",NA,NA,NA,NA,NA,3,#FA92F8,#1CD855,0,0,0,40,0,2199.7000000029802,39,0,702.3000000119209,0,1,experiment,NA,NA,2,0.5,0.5,5,4,162,4,NA
fcp-trial,197,983683,0.0-172.0-0.0,voc_e2,12147,"[{""event"":""fullscreenenter"",""trial"":1,""time"":4242}]",NA,NA,NA,NA,NA,1,#D8271C,#741CD8,0,10,0,38,1,1614.800000011921,39,0,437.3999999910593,10,1,experiment,NA,NA,0,0.1,0.9,1,0,163,4,NA
fcp-trial,198,986995,0.0-173.0-0.0,voc_e2,12147,"[{""event"":""fullscreenenter"",""trial"":1,""time"":4242}]",NA,NA,NA,NA,NA,1,#3386FF,#D89F1C,10,0,0,40,0,1144.2000000029802,37,1,662.6999999880791,10,0,experiment,NA,NA,1,0.3,0.7,3,2,164,4,NA
fcp-trial,199,990638,0.0-174.0-0.0,voc_e2,12147,"[{""event"":""fullscreenenter"",""trial"":1,""time"":4242}]",NA,NA,NA,NA,NA,6,#D8271C,#741CD8,0,10,0,38,1,1326.300000011921,39,0,804.2999999970198,10,1,experiment,NA,NA,0,0.1,0.9,1,0,165,4,NA
fcp-trial,200,994013,0.0-175.0-0.0,voc_e2,12147,"[{""event"":""fullscreenenter"",""trial"":1,""time"":4242}]",NA,NA,NA,NA,NA,3,#D8271C,#741CD8,0,10,0,38,1,1359,39,0,509.20000000298023,10,1,experiment,NA,NA,0,0.1,0.9,1,0,166,4,NA
fcp-trial,201,999299,0.0-176.0-0.0,voc_e2,12147,"[{""event"":""fullscreenenter"",""trial"":1,""time"":4242}]",NA,NA,NA,NA,NA,5,#FA92F8,#1CD855,10,10,0,38,1,2330.2000000029802,39,0,1445.9000000059605,10,1,experiment,NA,NA,2,0.5,0.5,5,4,167,4,NA
fcp-trial,202,1002771,0.0-177.0-0.0,voc_e2,12147,"[{""event"":""fullscreenenter"",""trial"":1,""time"":4242}]",NA,NA,NA,NA,NA,1,#1CD855,#FA92F8,10,10,1,38,1,1118.2999999970198,37,1,847.7999999970198,10,1,experiment,NA,NA,2,0.5,0.5,4,5,168,4,NA
fcp-trial,203,1006099,0.0-178.0-0.0,voc_e2,12147,"[{""event"":""fullscreenenter"",""trial"":1,""time"":4242}]",NA,NA,NA,NA,NA,4,#3386FF,#D89F1C,0,10,0,40,0,1129.2000000029802,37,1,686.4000000059605,0,0,experiment,NA,NA,1,0.3,0.7,3,2,169,4,NA
fcp-trial,204,1009228,0.0-179.0-0.0,voc_e2,12147,"[{""event"":""fullscreenenter"",""trial"":1,""time"":4242}]",NA,NA,NA,NA,NA,2,#FA92F8,#1CD855,10,0,0,38,1,1195,39,0,429.70000000298023,0,1,experiment,NA,NA,2,0.5,0.5,5,4,170,4,NA
fcp-trial,205,1012147,0.0-180.0-0.0,voc_e2,12147,"[{""event"":""fullscreenenter"",""trial"":1,""time"":4242}]",NA,NA,NA,NA,NA,2,#741CD8,#D8271C,10,0,1,38,1,950.2999999970198,37,1,459.29999999701977,10,1,experiment,NA,NA,0,0.9,0.1,0,1,171,4,NA
fcp-trial,206,1015436,0.0-181.0-0.0,voc_e2,12147,"[{""event"":""fullscreenenter"",""trial"":1,""time"":4242}]",NA,NA,NA,NA,NA,6,#D8271C,#741CD8,0,10,0,40,0,1032.5999999940395,37,1,750.7999999970198,0,0,experiment,NA,NA,0,0.1,0.9,1,0,172,4,NA
fcp-trial,207,1018564,0.0-182.0-0.0,voc_e2,12147,"[{""event"":""fullscreenenter"",""trial"":1,""time"":4242}]",NA,NA,NA,NA,NA,1,#D89F1C,#3386FF,10,0,1,40,0,1108.2999999970198,37,1,512.5999999940395,10,1,experiment,NA,NA,1,0.7,0.3,2,3,173,4,NA
fcp-trial,208,1021836,0.0-183.0-0.0,voc_e2,12147,"[{""event"":""fullscreenenter"",""trial"":1,""time"":4242}]",NA,NA,NA,NA,NA,6,#1CD855,#FA92F8,10,0,1,40,0,979.7999999970198,37,1,781.5,10,1,experiment,NA,NA,2,0.5,0.5,4,5,174,4,NA
fcp-trial,209,1025734,0.0-184.0-0.0,voc_e2,12147,"[{""event"":""fullscreenenter"",""trial"":1,""time"":4242}]",NA,NA,NA,NA,NA,3,#741CD8,#D8271C,10,0,1,38,1,1521.300000011921,37,1,871.5,10,1,experiment,NA,NA,0,0.9,0.1,0,1,175,4,NA
fcp-trial,210,1030494,0.0-185.0-0.0,voc_e2,12147,"[{""event"":""fullscreenenter"",""trial"":1,""time"":4242}]",NA,NA,NA,NA,NA,4,#1CD855,#FA92F8,0,0,1,38,1,2252.5,37,1,991.5999999940395,0,1,experiment,NA,NA,2,0.5,0.5,4,5,176,4,NA
fcp-trial,211,1033565,0.0-186.0-0.0,voc_e2,12147,"[{""event"":""fullscreenenter"",""trial"":1,""time"":4242}]",NA,NA,NA,NA,NA,6,#D89F1C,#3386FF,10,10,1,40,0,1023.0999999940395,37,1,543.4000000059605,10,1,experiment,NA,NA,1,0.7,0.3,2,3,177,4,NA
fcp-trial,212,1036654,0.0-187.0-0.0,voc_e2,12147,"[{""event"":""fullscreenenter"",""trial"":1,""time"":4242}]",NA,NA,NA,NA,NA,2,#3386FF,#D89F1C,0,10,0,40,0,912.0999999940395,37,1,670.8999999910593,0,0,experiment,NA,NA,1,0.3,0.7,3,2,178,4,NA
fcp-trial,213,1039500,0.0-188.0-0.0,voc_e2,12147,"[{""event"":""fullscreenenter"",""trial"":1,""time"":4242}]",NA,NA,NA,NA,NA,4,#D8271C,#741CD8,0,10,0,38,1,848.8999999910593,39,0,491.5,10,1,experiment,NA,NA,0,0.1,0.9,1,0,179,4,NA
fcp-trial,214,1042660,0.0-189.0-0.0,voc_e2,12147,"[{""event"":""fullscreenenter"",""trial"":1,""time"":4242}]",NA,NA,NA,NA,NA,5,#D8271C,#741CD8,0,10,0,40,0,1061.2000000029802,37,1,591.9000000059605,0,0,experiment,NA,NA,0,0.1,0.9,1,0,180,4,NA
fcp-trial,215,1048332,0.0-190.0-0.0,voc_e2,12147,"[{""event"":""fullscreenenter"",""trial"":1,""time"":4242}]",NA,NA,NA,NA,NA,1,#1CD855,#FA92F8,0,0,1,38,1,3272.4000000059605,37,1,893.6000000089407,0,1,experiment,NA,NA,2,0.5,0.5,4,5,181,5,NA
fcp-trial,216,1051340,0.0-191.0-0.0,voc_e2,12147,"[{""event"":""fullscreenenter"",""trial"":1,""time"":4242}]",NA,NA,NA,NA,NA,5,#D89F1C,#3386FF,0,0,1,40,0,935.2000000029802,37,1,555.7999999970198,0,1,experiment,NA,NA,1,0.7,0.3,2,3,182,5,NA
fcp-trial,217,1055468,0.0-192.0-0.0,voc_e2,12147,"[{""event"":""fullscreenenter"",""trial"":1,""time"":4242}]",NA,NA,NA,NA,NA,5,#FA92F8,#1CD855,0,10,0,40,0,2032.5999999940395,37,1,583.0999999940395,0,0,experiment,NA,NA,2,0.5,0.5,5,4,183,5,NA
fcp-trial,218,1058923,0.0-193.0-0.0,voc_e2,12147,"[{""event"":""fullscreenenter"",""trial"":1,""time"":4242}]",NA,NA,NA,NA,NA,0,#1CD855,#FA92F8,10,0,1,38,1,1030.8999999910593,37,1,918,10,1,experiment,NA,NA,2,0.5,0.5,4,5,184,5,NA
fcp-trial,219,1063942,0.0-194.0-0.0,voc_e2,12147,"[{""event"":""fullscreenenter"",""trial"":1,""time"":4242}]",NA,NA,NA,NA,NA,0,#D8271C,#741CD8,0,10,0,38,1,2851.7000000029802,37,1,661.5,0,0,experiment,NA,NA,0,0.1,0.9,1,0,185,5,NA
fcp-trial,220,1066933,0.0-195.0-0.0,voc_e2,12147,"[{""event"":""fullscreenenter"",""trial"":1,""time"":4242}]",NA,NA,NA,NA,NA,3,#D89F1C,#3386FF,0,10,1,38,1,1012.3999999910593,37,1,461.5,0,1,experiment,NA,NA,1,0.7,0.3,2,3,186,5,NA
fcp-trial,221,1070668,0.0-196.0-0.0,voc_e2,12147,"[{""event"":""fullscreenenter"",""trial"":1,""time"":4242}]",NA,NA,NA,NA,NA,1,#D8271C,#741CD8,0,10,0,38,1,1879.6000000089407,39,0,346.09999999403954,10,1,experiment,NA,NA,0,0.1,0.9,1,0,187,5,NA
fcp-trial,222,1074379,0.0-197.0-0.0,voc_e2,12147,"[{""event"":""fullscreenenter"",""trial"":1,""time"":4242}]",NA,NA,NA,NA,NA,3,#1CD855,#FA92F8,0,10,1,38,1,1457.2000000029802,39,0,750.5,10,0,experiment,NA,NA,2,0.5,0.5,4,5,188,5,NA
fcp-trial,223,1077011,0.0-198.0-0.0,voc_e2,12147,"[{""event"":""fullscreenenter"",""trial"":1,""time"":4242}]",NA,NA,NA,NA,NA,0,#D89F1C,#3386FF,10,0,1,38,1,738.0999999940395,37,1,387,10,1,experiment,NA,NA,1,0.7,0.3,2,3,189,5,NA
fcp-trial,224,1082663,0.0-199.0-0.0,voc_e2,12147,"[{""event"":""fullscreenenter"",""trial"":1,""time"":4242}]",NA,NA,NA,NA,NA,2,#FA92F8,#1CD855,0,10,0,38,1,2651.5,39,0,1490.5,10,1,experiment,NA,NA,2,0.5,0.5,5,4,190,5,NA
fcp-trial,225,1086124,0.0-200.0-0.0,voc_e2,12147,"[{""event"":""fullscreenenter"",""trial"":1,""time"":4242}]",NA,NA,NA,NA,NA,0,#FA92F8,#1CD855,10,0,0,38,1,1346.2000000029802,39,0,606.2000000029802,0,1,experiment,NA,NA,2,0.5,0.5,5,4,191,5,NA
fcp-trial,226,1089750,0.0-201.0-0.0,voc_e2,12147,"[{""event"":""fullscreenenter"",""trial"":1,""time"":4242}]",NA,NA,NA,NA,NA,3,#741CD8,#D8271C,10,0,1,38,1,996.2000000029802,37,1,1119.0999999940395,10,1,experiment,NA,NA,0,0.9,0.1,0,1,192,5,NA
fcp-trial,227,1095511,0.0-202.0-0.0,voc_e2,12147,"[{""event"":""fullscreenenter"",""trial"":1,""time"":4242}]",NA,NA,NA,NA,NA,6,#FA92F8,#1CD855,0,0,0,38,1,2700.3999999910593,37,1,1547.1000000089407,0,0,experiment,NA,NA,2,0.5,0.5,5,4,193,5,NA
fcp-trial,228,1100529,0.0-203.0-0.0,voc_e2,12147,"[{""event"":""fullscreenenter"",""trial"":1,""time"":4242}]",NA,NA,NA,NA,NA,0,#D89F1C,#3386FF,10,0,1,38,1,2958,37,1,544,10,1,experiment,NA,NA,1,0.7,0.3,2,3,194,5,NA
fcp-trial,229,1104060,0.0-204.0-0.0,voc_e2,12147,"[{""event"":""fullscreenenter"",""trial"":1,""time"":4242}]",NA,NA,NA,NA,NA,3,#1CD855,#FA92F8,10,10,1,38,1,1526.2000000029802,39,0,492.09999999403954,10,0,experiment,NA,NA,2,0.5,0.5,4,5,195,5,NA
fcp-trial,230,1107462,0.0-205.0-0.0,voc_e2,12147,"[{""event"":""fullscreenenter"",""trial"":1,""time"":4242}]",NA,NA,NA,NA,NA,3,#3386FF,#D89F1C,0,10,0,40,0,1375.7999999970198,39,0,518.3999999910593,10,1,experiment,NA,NA,1,0.3,0.7,3,2,196,5,NA
fcp-trial,231,1112180,0.0-206.0-0.0,voc_e2,12147,"[{""event"":""fullscreenenter"",""trial"":1,""time"":4242}]",NA,NA,NA,NA,NA,6,#D8271C,#741CD8,0,10,0,38,1,1988,39,0,1213.699999988079,10,1,experiment,NA,NA,0,0.1,0.9,1,0,197,5,NA
fcp-trial,232,1116092,0.0-207.0-0.0,voc_e2,12147,"[{""event"":""fullscreenenter"",""trial"":1,""time"":4242}]",NA,NA,NA,NA,NA,2,#741CD8,#D8271C,10,0,1,38,1,1321.0999999940395,37,1,1076.3999999910593,10,1,experiment,NA,NA,0,0.9,0.1,0,1,198,5,NA
fcp-trial,233,1119148,0.0-208.0-0.0,voc_e2,12147,"[{""event"":""fullscreenenter"",""trial"":1,""time"":4242}]",NA,NA,NA,NA,NA,4,#3386FF,#D89F1C,0,10,0,40,0,1078.5,39,0,473,10,1,experiment,NA,NA,1,0.3,0.7,3,2,199,5,NA
fcp-trial,234,1122630,0.0-209.0-0.0,voc_e2,12147,"[{""event"":""fullscreenenter"",""trial"":1,""time"":4242}]",NA,NA,NA,NA,NA,4,#1CD855,#FA92F8,10,0,1,40,0,1049.3999999910593,37,1,922.7000000029802,10,1,experiment,NA,NA,2,0.5,0.5,4,5,200,5,NA
fcp-trial,235,1125755,0.0-210.0-0.0,voc_e2,12147,"[{""event"":""fullscreenenter"",""trial"":1,""time"":4242}]",NA,NA,NA,NA,NA,5,#741CD8,#D8271C,10,0,1,40,0,1161.9000000059605,37,1,458,10,1,experiment,NA,NA,0,0.9,0.1,0,1,201,5,NA
fcp-trial,236,1128799,0.0-211.0-0.0,voc_e2,12147,"[{""event"":""fullscreenenter"",""trial"":1,""time"":4242}]",NA,NA,NA,NA,NA,1,#741CD8,#D8271C,10,0,1,40,0,1062,39,0,471.3999999910593,0,0,experiment,NA,NA,0,0.9,0.1,0,1,202,5,NA
fcp-trial,237,1131678,0.0-212.0-0.0,voc_e2,12147,"[{""event"":""fullscreenenter"",""trial"":1,""time"":4242}]",NA,NA,NA,NA,NA,5,#3386FF,#D89F1C,0,0,0,40,0,710.7000000029802,37,1,653.7000000029802,0,0,experiment,NA,NA,1,0.3,0.7,3,2,203,5,NA
fcp-trial,238,1135253,0.0-213.0-0.0,voc_e2,12147,"[{""event"":""fullscreenenter"",""trial"":1,""time"":4242}]",NA,NA,NA,NA,NA,2,#3386FF,#D89F1C,0,10,0,38,1,949.4000000059605,39,0,1113.5,10,1,experiment,NA,NA,1,0.3,0.7,3,2,204,5,NA
fcp-trial,239,1138811,0.0-214.0-0.0,voc_e2,12147,"[{""event"":""fullscreenenter"",""trial"":1,""time"":4242}]",NA,NA,NA,NA,NA,5,#1CD855,#FA92F8,0,10,1,40,0,1524.0999999940395,39,0,523.9000000059605,10,0,experiment,NA,NA,2,0.5,0.5,4,5,205,5,NA
fcp-trial,240,1141742,0.0-215.0-0.0,voc_e2,12147,"[{""event"":""fullscreenenter"",""trial"":1,""time"":4242}]",NA,NA,NA,NA,NA,6,#3386FF,#D89F1C,10,10,0,40,0,812.3999999910593,37,1,607.3999999910593,10,0,experiment,NA,NA,1,0.3,0.7,3,2,206,5,NA
fcp-trial,241,1144822,0.0-216.0-0.0,voc_e2,12147,"[{""event"":""fullscreenenter"",""trial"":1,""time"":4242}]",NA,NA,NA,NA,NA,4,#D8271C,#741CD8,0,10,0,40,0,1117.5999999940395,39,0,449,10,1,experiment,NA,NA,0,0.1,0.9,1,0,207,5,NA
fcp-trial,242,1148453,0.0-217.0-0.0,voc_e2,12147,"[{""event"":""fullscreenenter"",""trial"":1,""time"":4242}]",NA,NA,NA,NA,NA,0,#741CD8,#D8271C,10,0,1,38,1,1244,37,1,881.2999999970198,10,1,experiment,NA,NA,0,0.9,0.1,0,1,208,5,NA
fcp-trial,243,1152420,0.0-218.0-0.0,voc_e2,12147,"[{""event"":""fullscreenenter"",""trial"":1,""time"":4242}]",NA,NA,NA,NA,NA,1,#3386FF,#D89F1C,0,10,0,38,1,1959.4000000059605,39,0,493.3999999910593,10,1,experiment,NA,NA,1,0.3,0.7,3,2,209,5,NA
fcp-trial,244,1156510,0.0-219.0-0.0,voc_e2,12147,"[{""event"":""fullscreenenter"",""trial"":1,""time"":4242}]",NA,NA,NA,NA,NA,1,#FA92F8,#1CD855,0,10,0,40,0,2112.0999999940395,39,0,462.6000000089407,10,1,experiment,NA,NA,2,0.5,0.5,5,4,210,5,NA
audio-instructions,245,1283847,0.0-220.0,voc_e2,12147,"[{""event"":""fullscreenenter"",""trial"":1,""time"":4242}]",NA,122443.10000000894,static/audio/pause.wav,NA,0,NA,NA,NA,NA,NA,NA,NA,NA,NA,NA,NA,NA,NA,NA,NA,NA,NA,NA,NA,NA,NA,NA,NA,NA,NA
fcp-trial,246,1288739,0.0-221.0-0.0,voc_e2,12147,"[{""event"":""fullscreenenter"",""trial"":1,""time"":4242}]",NA,NA,NA,NA,NA,3,#D8271C,#741CD8,0,0,0,38,1,2725.7000000029802,39,0,661.3000000119209,0,1,experiment,NA,NA,0,0.1,0.9,1,0,211,5,NA
fcp-trial,247,1291819,0.0-222.0-0.0,voc_e2,12147,"[{""event"":""fullscreenenter"",""trial"":1,""time"":4242}]",NA,NA,NA,NA,NA,1,#D8271C,#741CD8,0,10,0,40,0,1078.1000000089407,39,0,486.1000000089407,10,1,experiment,NA,NA,0,0.1,0.9,1,0,212,5,NA
fcp-trial,248,1294428,0.0-223.0-0.0,voc_e2,12147,"[{""event"":""fullscreenenter"",""trial"":1,""time"":4242}]",NA,NA,NA,NA,NA,3,#FA92F8,#1CD855,10,10,0,40,0,661.2999999970198,37,1,427.80000001192093,10,0,experiment,NA,NA,2,0.5,0.5,5,4,213,5,NA
fcp-trial,249,1297037,0.0-224.0-0.0,voc_e2,12147,"[{""event"":""fullscreenenter"",""trial"":1,""time"":4242}]",NA,NA,NA,NA,NA,3,#3386FF,#D89F1C,10,10,0,40,0,707,39,0,387.70000000298023,10,1,experiment,NA,NA,1,0.3,0.7,3,2,214,5,NA
fcp-trial,250,1300180,0.0-225.0-0.0,voc_e2,12147,"[{""event"":""fullscreenenter"",""trial"":1,""time"":4242}]",NA,NA,NA,NA,NA,4,#D89F1C,#3386FF,10,10,1,40,0,1197.7000000029802,37,1,431.6000000089407,10,1,experiment,NA,NA,1,0.7,0.3,2,3,215,5,NA
fcp-trial,251,1303106,0.0-226.0-0.0,voc_e2,12147,"[{""event"":""fullscreenenter"",""trial"":1,""time"":4242}]",NA,NA,NA,NA,NA,2,#D8271C,#741CD8,0,0,0,40,0,919.7999999970198,37,1,501.59999999403954,0,0,experiment,NA,NA,0,0.1,0.9,1,0,216,5,NA
fcp-trial,252,1305845,0.0-227.0-0.0,voc_e2,12147,"[{""event"":""fullscreenenter"",""trial"":1,""time"":4242}]",NA,NA,NA,NA,NA,6,#741CD8,#D8271C,10,0,1,40,0,785.0999999940395,39,0,448,0,0,experiment,NA,NA,0,0.9,0.1,0,1,217,5,NA
fcp-trial,253,1309419,0.0-228.0-0.0,voc_e2,12147,"[{""event"":""fullscreenenter"",""trial"":1,""time"":4242}]",NA,NA,NA,NA,NA,6,#1CD855,#FA92F8,0,0,1,38,1,709.2999999970198,39,0,1357.199999988079,0,0,experiment,NA,NA,2,0.5,0.5,4,5,218,5,NA
fcp-trial,254,1312371,0.0-229.0-0.0,voc_e2,12147,"[{""event"":""fullscreenenter"",""trial"":1,""time"":4242}]",NA,NA,NA,NA,NA,5,#741CD8,#D8271C,10,0,1,40,0,963.0999999940395,39,0,478.19999998807907,0,0,experiment,NA,NA,0,0.9,0.1,0,1,219,5,NA
fcp-trial,255,1315308,0.0-230.0-0.0,voc_e2,12147,"[{""event"":""fullscreenenter"",""trial"":1,""time"":4242}]",NA,NA,NA,NA,NA,2,#D89F1C,#3386FF,10,0,1,40,0,961.9000000059605,37,1,461.3999999910593,10,1,experiment,NA,NA,1,0.7,0.3,2,3,220,5,NA
fcp-trial,256,1318603,0.0-231.0-0.0,voc_e2,12147,"[{""event"":""fullscreenenter"",""trial"":1,""time"":4242}]",NA,NA,NA,NA,NA,0,#D89F1C,#3386FF,10,0,1,38,1,1398.7999999970198,37,1,387,10,1,experiment,NA,NA,1,0.7,0.3,2,3,221,5,NA
fcp-trial,257,1321268,0.0-232.0-0.0,voc_e2,12147,"[{""event"":""fullscreenenter"",""trial"":1,""time"":4242}]",NA,NA,NA,NA,NA,1,#D89F1C,#3386FF,0,10,1,38,1,748.2000000029802,37,1,412.29999999701977,0,1,experiment,NA,NA,1,0.7,0.3,2,3,222,5,NA
fcp-trial,258,1324598,0.0-233.0-0.0,voc_e2,12147,"[{""event"":""fullscreenenter"",""trial"":1,""time"":4242}]",NA,NA,NA,NA,NA,4,#1CD855,#FA92F8,10,10,1,40,0,1327.2000000029802,37,1,494.29999999701977,10,1,experiment,NA,NA,2,0.5,0.5,4,5,223,5,NA
fcp-trial,259,1328356,0.0-234.0-0.0,voc_e2,12147,"[{""event"":""fullscreenenter"",""trial"":1,""time"":4242}]",NA,NA,NA,NA,NA,0,#741CD8,#D8271C,10,0,1,38,1,1415.2999999970198,39,0,836,0,0,experiment,NA,NA,0,0.9,0.1,0,1,224,5,NA
fcp-trial,260,1331173,0.0-235.0-0.0,voc_e2,12147,"[{""event"":""fullscreenenter"",""trial"":1,""time"":4242}]",NA,NA,NA,NA,NA,5,#D89F1C,#3386FF,10,10,1,38,1,807.2000000029802,37,1,493.8999999910593,10,1,experiment,NA,NA,1,0.7,0.3,2,3,225,5,NA
fcp-trial,261,1334396,0.0-236.0-0.0,voc_e2,12147,"[{""event"":""fullscreenenter"",""trial"":1,""time"":4242}]",NA,NA,NA,NA,NA,2,#FA92F8,#1CD855,0,0,0,38,1,934.0999999940395,39,0,774.7999999970198,0,1,experiment,NA,NA,2,0.5,0.5,5,4,226,6,NA
fcp-trial,262,1337637,0.0-237.0-0.0,voc_e2,12147,"[{""event"":""fullscreenenter"",""trial"":1,""time"":4242}]",NA,NA,NA,NA,NA,4,#D8271C,#741CD8,0,0,0,40,0,1176.6000000089407,39,0,549.7999999970198,0,1,experiment,NA,NA,0,0.1,0.9,1,0,227,6,NA
fcp-trial,263,1341004,0.0-238.0-0.0,voc_e2,12147,"[{""event"":""fullscreenenter"",""trial"":1,""time"":4242}]",NA,NA,NA,NA,NA,0,#FA92F8,#1CD855,0,10,0,38,1,1324.6000000089407,37,1,534.5,0,0,experiment,NA,NA,2,0.5,0.5,5,4,228,6,NA
fcp-trial,264,1343828,0.0-239.0-0.0,voc_e2,12147,"[{""event"":""fullscreenenter"",""trial"":1,""time"":4242}]",NA,NA,NA,NA,NA,5,#FA92F8,#1CD855,0,10,0,38,1,1025.7000000029802,39,0,286.6000000089407,10,1,experiment,NA,NA,2,0.5,0.5,5,4,229,6,NA
fcp-trial,265,1346660,0.0-240.0-0.0,voc_e2,12147,"[{""event"":""fullscreenenter"",""trial"":1,""time"":4242}]",NA,NA,NA,NA,NA,6,#D89F1C,#3386FF,0,0,1,40,0,871.2999999970198,37,1,453.09999999403954,0,1,experiment,NA,NA,1,0.7,0.3,2,3,230,6,NA
fcp-trial,266,1350141,0.0-241.0-0.0,voc_e2,12147,"[{""event"":""fullscreenenter"",""trial"":1,""time"":4242}]",NA,NA,NA,NA,NA,1,#1CD855,#FA92F8,10,10,1,40,0,1527.5999999940395,39,0,446.8999999910593,10,0,experiment,NA,NA,2,0.5,0.5,4,5,231,6,NA
fcp-trial,267,1353075,0.0-242.0-0.0,voc_e2,12147,"[{""event"":""fullscreenenter"",""trial"":1,""time"":4242}]",NA,NA,NA,NA,NA,2,#D89F1C,#3386FF,10,0,1,40,0,925.8000000119209,39,0,500.6000000089407,0,0,experiment,NA,NA,1,0.7,0.3,2,3,232,6,NA
fcp-trial,268,1355677,0.0-243.0-0.0,voc_e2,12147,"[{""event"":""fullscreenenter"",""trial"":1,""time"":4242}]",NA,NA,NA,NA,NA,1,#D89F1C,#3386FF,10,10,1,38,1,729.4000000059605,37,1,365.90000000596046,10,1,experiment,NA,NA,1,0.7,0.3,2,3,233,6,NA
fcp-trial,269,1359093,0.0-244.0-0.0,voc_e2,12147,"[{""event"":""fullscreenenter"",""trial"":1,""time"":4242}]",NA,NA,NA,NA,NA,3,#D8271C,#741CD8,0,0,0,38,1,1407.6000000089407,37,1,492.6000000089407,0,0,experiment,NA,NA,0,0.1,0.9,1,0,234,6,NA
fcp-trial,270,1361813,0.0-245.0-0.0,voc_e2,12147,"[{""event"":""fullscreenenter"",""trial"":1,""time"":4242}]",NA,NA,NA,NA,NA,3,#1CD855,#FA92F8,10,0,1,38,1,896.2999999970198,39,0,311.79999999701977,0,0,experiment,NA,NA,2,0.5,0.5,4,5,235,6,NA
fcp-trial,271,1364677,0.0-246.0-0.0,voc_e2,12147,"[{""event"":""fullscreenenter"",""trial"":1,""time"":4242}]",NA,NA,NA,NA,NA,0,#741CD8,#D8271C,0,0,1,38,1,717.9000000059605,37,1,631.0999999940395,0,1,experiment,NA,NA,0,0.9,0.1,0,1,236,6,NA
fcp-trial,272,1367531,0.0-247.0-0.0,voc_e2,12147,"[{""event"":""fullscreenenter"",""trial"":1,""time"":4242}]",NA,NA,NA,NA,NA,5,#D89F1C,#3386FF,10,0,1,38,1,1003.5,37,1,340.29999999701977,10,1,experiment,NA,NA,1,0.7,0.3,2,3,237,6,NA
fcp-trial,273,1370564,0.0-248.0-0.0,voc_e2,12147,"[{""event"":""fullscreenenter"",""trial"":1,""time"":4242}]",NA,NA,NA,NA,NA,6,#741CD8,#D8271C,10,0,1,38,1,757.7000000029802,37,1,764.5,10,1,experiment,NA,NA,0,0.9,0.1,0,1,238,6,NA
fcp-trial,274,1373470,0.0-249.0-0.0,voc_e2,12147,"[{""event"":""fullscreenenter"",""trial"":1,""time"":4242}]",NA,NA,NA,NA,NA,2,#1CD855,#FA92F8,10,10,1,38,1,914.9000000059605,39,0,480.6000000089407,10,0,experiment,NA,NA,2,0.5,0.5,4,5,239,6,NA
fcp-trial,275,1376407,0.0-250.0-0.0,voc_e2,12147,"[{""event"":""fullscreenenter"",""trial"":1,""time"":4242}]",NA,NA,NA,NA,NA,5,#FA92F8,#1CD855,10,0,0,38,1,932.9000000059605,37,1,497.69999998807907,10,0,experiment,NA,NA,2,0.5,0.5,5,4,240,6,NA
fcp-trial,276,1379236,0.0-251.0-0.0,voc_e2,12147,"[{""event"":""fullscreenenter"",""trial"":1,""time"":4242}]",NA,NA,NA,NA,NA,2,#D8271C,#741CD8,0,10,0,38,1,946.5,39,0,376,10,1,experiment,NA,NA,0,0.1,0.9,1,0,241,6,NA
fcp-trial,277,1381868,0.0-252.0-0.0,voc_e2,12147,"[{""event"":""fullscreenenter"",""trial"":1,""time"":4242}]",NA,NA,NA,NA,NA,0,#D89F1C,#3386FF,0,0,1,38,1,825.5,37,1,301,0,1,experiment,NA,NA,1,0.7,0.3,2,3,242,6,NA
fcp-trial,278,1384575,0.0-253.0-0.0,voc_e2,12147,"[{""event"":""fullscreenenter"",""trial"":1,""time"":4242}]",NA,NA,NA,NA,NA,3,#3386FF,#D89F1C,0,10,0,40,0,659.6000000089407,37,1,536.2000000029802,0,0,experiment,NA,NA,1,0.3,0.7,3,2,243,6,NA
fcp-trial,279,1387379,0.0-254.0-0.0,voc_e2,12147,"[{""event"":""fullscreenenter"",""trial"":1,""time"":4242}]",NA,NA,NA,NA,NA,5,#741CD8,#D8271C,10,0,1,40,0,748.7000000029802,37,1,548.4000000059605,10,1,experiment,NA,NA,0,0.9,0.1,0,1,244,6,NA
fcp-trial,280,1390172,0.0-255.0-0.0,voc_e2,12147,"[{""event"":""fullscreenenter"",""trial"":1,""time"":4242}]",NA,NA,NA,NA,NA,6,#1CD855,#FA92F8,10,10,1,40,0,777.7000000029802,37,1,503.1000000089407,10,1,experiment,NA,NA,2,0.5,0.5,4,5,245,6,NA
fcp-trial,281,1393084,0.0-256.0-0.0,voc_e2,12147,"[{""event"":""fullscreenenter"",""trial"":1,""time"":4242}]",NA,NA,NA,NA,NA,4,#D8271C,#741CD8,0,10,0,40,0,917.2000000029802,39,0,485.40000000596046,10,1,experiment,NA,NA,0,0.1,0.9,1,0,246,6,NA
fcp-trial,282,1395900,0.0-257.0-0.0,voc_e2,12147,"[{""event"":""fullscreenenter"",""trial"":1,""time"":4242}]",NA,NA,NA,NA,NA,4,#D89F1C,#3386FF,10,0,1,38,1,860.7000000029802,37,1,444.19999998807907,10,1,experiment,NA,NA,1,0.7,0.3,2,3,247,6,NA
fcp-trial,283,1399692,0.0-258.0-0.0,voc_e2,12147,"[{""event"":""fullscreenenter"",""trial"":1,""time"":4242}]",NA,NA,NA,NA,NA,6,#3386FF,#D89F1C,0,10,0,40,0,1709.6000000089407,37,1,574.6000000089407,0,0,experiment,NA,NA,1,0.3,0.7,3,2,248,6,NA
fcp-trial,284,1403251,0.0-259.0-0.0,voc_e2,12147,"[{""event"":""fullscreenenter"",""trial"":1,""time"":4242}]",NA,NA,NA,NA,NA,1,#FA92F8,#1CD855,10,10,0,38,1,1670.7999999970198,39,0,380.79999999701977,10,1,experiment,NA,NA,2,0.5,0.5,5,4,249,6,NA
fcp-trial,285,1406298,0.0-260.0-0.0,voc_e2,12147,"[{""event"":""fullscreenenter"",""trial"":1,""time"":4242}]",NA,NA,NA,NA,NA,0,#1CD855,#FA92F8,0,10,1,38,1,1055,37,1,487,0,1,experiment,NA,NA,2,0.5,0.5,4,5,250,6,NA
fcp-trial,286,1409470,0.0-261.0-0.0,voc_e2,12147,"[{""event"":""fullscreenenter"",""trial"":1,""time"":4242}]",NA,NA,NA,NA,NA,1,#D8271C,#741CD8,0,10,0,38,1,1345.0999999940395,39,0,320.69999998807907,10,1,experiment,NA,NA,0,0.1,0.9,1,0,251,6,NA
fcp-trial,287,1412411,0.0-262.0-0.0,voc_e2,12147,"[{""event"":""fullscreenenter"",""trial"":1,""time"":4242}]",NA,NA,NA,NA,NA,4,#FA92F8,#1CD855,0,0,0,40,0,1035.699999988079,37,1,392.30000001192093,0,0,experiment,NA,NA,2,0.5,0.5,5,4,252,6,NA
fcp-trial,288,1416501,0.0-263.0-0.0,voc_e2,12147,"[{""event"":""fullscreenenter"",""trial"":1,""time"":4242}]",NA,NA,NA,NA,NA,4,#3386FF,#D89F1C,10,10,0,38,1,2273.5,39,0,301.79999999701977,10,1,experiment,NA,NA,1,0.3,0.7,3,2,253,6,NA
fcp-trial,289,1420252,0.0-264.0-0.0,voc_e2,12147,"[{""event"":""fullscreenenter"",""trial"":1,""time"":4242}]",NA,NA,NA,NA,NA,3,#D8271C,#741CD8,0,10,0,38,1,1563.2000000029802,39,0,680.6000000089407,10,1,experiment,NA,NA,0,0.1,0.9,1,0,254,6,NA
fcp-trial,290,1423245,0.0-265.0-0.0,voc_e2,12147,"[{""event"":""fullscreenenter"",""trial"":1,""time"":4242}]",NA,NA,NA,NA,NA,1,#1CD855,#FA92F8,10,0,1,38,1,1155.800000011921,39,0,328.70000000298023,0,0,experiment,NA,NA,2,0.5,0.5,4,5,255,6,NA
fcp-trial,291,1427549,0.0-266.0-0.0,voc_e2,12147,"[{""event"":""fullscreenenter"",""trial"":1,""time"":4242}]",NA,NA,NA,NA,NA,6,#3386FF,#D89F1C,10,10,0,40,0,2257.3999999910593,37,1,534.6999999880791,10,0,experiment,NA,NA,1,0.3,0.7,3,2,256,6,NA
fcp-trial,292,1431563,0.0-267.0-0.0,voc_e2,12147,"[{""event"":""fullscreenenter"",""trial"":1,""time"":4242}]",NA,NA,NA,NA,NA,1,#741CD8,#D8271C,10,10,1,38,1,2163.7999999970198,37,1,340.20000000298023,10,1,experiment,NA,NA,0,0.9,0.1,0,1,257,6,NA
fcp-trial,293,1434910,0.0-268.0-0.0,voc_e2,12147,"[{""event"":""fullscreenenter"",""trial"":1,""time"":4242}]",NA,NA,NA,NA,NA,5,#D89F1C,#3386FF,0,10,1,38,1,1504.2000000029802,37,1,330.5,0,1,experiment,NA,NA,1,0.7,0.3,2,3,258,6,NA
fcp-trial,294,1438491,0.0-269.0-0.0,voc_e2,12147,"[{""event"":""fullscreenenter"",""trial"":1,""time"":4242}]",NA,NA,NA,NA,NA,4,#FA92F8,#1CD855,10,0,0,40,0,1573.199999988079,37,1,493.20000000298023,10,0,experiment,NA,NA,2,0.5,0.5,5,4,259,6,NA
fcp-trial,295,1441875,0.0-270.0-0.0,voc_e2,12147,"[{""event"":""fullscreenenter"",""trial"":1,""time"":4242}]",NA,NA,NA,NA,NA,2,#D8271C,#741CD8,0,10,0,38,1,1593.6000000089407,39,0,279.5,10,1,experiment,NA,NA,0,0.1,0.9,1,0,260,6,NA
fcp-trial,296,1444603,0.0-271.0-0.0,voc_e2,12147,"[{""event"":""fullscreenenter"",""trial"":1,""time"":4242}]",NA,NA,NA,NA,NA,2,#3386FF,#D89F1C,0,10,0,38,1,914.5999999940395,39,0,302.70000000298023,10,1,experiment,NA,NA,1,0.3,0.7,3,2,261,6,NA
fcp-trial,297,1448013,0.0-272.0-0.0,voc_e2,12147,"[{""event"":""fullscreenenter"",""trial"":1,""time"":4242}]",NA,NA,NA,NA,NA,3,#FA92F8,#1CD855,0,0,0,40,0,1478.2999999970198,37,1,423.79999999701977,0,0,experiment,NA,NA,2,0.5,0.5,5,4,262,6,NA
fcp-trial,298,1453422,0.0-273.0-0.0,voc_e2,12147,"[{""event"":""fullscreenenter"",""trial"":1,""time"":4242}]",NA,NA,NA,NA,NA,3,#3386FF,#D89F1C,10,10,0,38,1,3490,39,0,406.1000000089407,10,1,experiment,NA,NA,1,0.3,0.7,3,2,263,6,NA
fcp-trial,299,1456533,0.0-274.0-0.0,voc_e2,12147,"[{""event"":""fullscreenenter"",""trial"":1,""time"":4242}]",NA,NA,NA,NA,NA,5,#741CD8,#D8271C,10,0,1,38,1,1201.7999999970198,39,0,401.30000001192093,0,0,experiment,NA,NA,0,0.9,0.1,0,1,264,6,NA
fcp-trial,300,1459541,0.0-275.0-0.0,voc_e2,12147,"[{""event"":""fullscreenenter"",""trial"":1,""time"":4242}]",NA,NA,NA,NA,NA,6,#D8271C,#741CD8,0,10,0,38,1,991,39,0,502.40000000596046,10,1,experiment,NA,NA,0,0.1,0.9,1,0,265,6,NA
fcp-trial,301,1463208,0.0-276.0-0.0,voc_e2,12147,"[{""event"":""fullscreenenter"",""trial"":1,""time"":4242}]",NA,NA,NA,NA,NA,2,#FA92F8,#1CD855,10,0,0,40,0,1046.2000000029802,37,1,1107.0999999940395,10,0,experiment,NA,NA,2,0.5,0.5,5,4,266,6,NA
fcp-trial,302,1466643,0.0-277.0-0.0,voc_e2,12147,"[{""event"":""fullscreenenter"",""trial"":1,""time"":4242}]",NA,NA,NA,NA,NA,0,#D8271C,#741CD8,10,10,0,38,1,1566.3999999910593,39,0,356.29999999701977,10,1,experiment,NA,NA,0,0.1,0.9,1,0,267,6,NA
fcp-trial,303,1469333,0.0-278.0-0.0,voc_e2,12147,"[{""event"":""fullscreenenter"",""trial"":1,""time"":4242}]",NA,NA,NA,NA,NA,0,#D89F1C,#3386FF,10,0,1,38,1,794,37,1,388.79999999701977,10,1,experiment,NA,NA,1,0.7,0.3,2,3,268,6,NA
fcp-trial,304,1472451,0.0-279.0-0.0,voc_e2,12147,"[{""event"":""fullscreenenter"",""trial"":1,""time"":4242}]",NA,NA,NA,NA,NA,6,#1CD855,#FA92F8,0,0,1,40,0,1171.800000011921,39,0,437.8999999910593,0,0,experiment,NA,NA,2,0.5,0.5,4,5,269,6,NA
fcp-trial,305,1475572,0.0-280.0-0.0,voc_e2,12147,"[{""event"":""fullscreenenter"",""trial"":1,""time"":4242}]",NA,NA,NA,NA,NA,4,#741CD8,#D8271C,0,0,1,38,1,1263.3999999910593,37,1,349.5,0,1,experiment,NA,NA,0,0.9,0.1,0,1,270,6,NA
fcp-trial,306,1479055,0.0-281.0-0.0,voc_e2,12147,"[{""event"":""fullscreenenter"",""trial"":1,""time"":4242}]",NA,NA,NA,NA,NA,1,#3386FF,#D89F1C,0,10,0,38,1,1503.0999999940395,39,0,466.6000000089407,10,1,experiment,NA,NA,1,0.3,0.7,3,2,271,7,NA
fcp-trial,307,1482486,0.0-282.0-0.0,voc_e2,12147,"[{""event"":""fullscreenenter"",""trial"":1,""time"":4242}]",NA,NA,NA,NA,NA,5,#1CD855,#FA92F8,10,0,1,40,0,1430.9000000059605,37,1,487.90000000596046,10,1,experiment,NA,NA,2,0.5,0.5,4,5,272,7,NA
fcp-trial,308,1485997,0.0-283.0-0.0,voc_e2,12147,"[{""event"":""fullscreenenter"",""trial"":1,""time"":4242}]",NA,NA,NA,NA,NA,0,#1CD855,#FA92F8,0,10,1,38,1,1346.5,39,0,649.2999999970198,10,0,experiment,NA,NA,2,0.5,0.5,4,5,273,7,NA
fcp-trial,309,1489660,0.0-284.0-0.0,voc_e2,12147,"[{""event"":""fullscreenenter"",""trial"":1,""time"":4242}]",NA,NA,NA,NA,NA,3,#FA92F8,#1CD855,10,0,0,40,0,1328,39,0,830.2999999970198,0,1,experiment,NA,NA,2,0.5,0.5,5,4,274,7,NA
fcp-trial,310,1493995,0.0-285.0-0.0,voc_e2,12147,"[{""event"":""fullscreenenter"",""trial"":1,""time"":4242}]",NA,NA,NA,NA,NA,0,#741CD8,#D8271C,10,0,1,38,1,1983,37,1,847.6000000089407,10,1,experiment,NA,NA,0,0.9,0.1,0,1,275,7,NA
fcp-trial,311,1509001,0.0-286.0-0.0,voc_e2,12147,"[{""event"":""fullscreenenter"",""trial"":1,""time"":4242},{""event"":""blur"",""trial"":311,""time"":1495145},{""event"":""fullscreenexit"",""trial"":311,""time"":1501891},{""event"":""focus"",""trial"":311,""time"":1501893}]",NA,NA,NA,NA,NA,5,#1CD855,#FA92F8,10,10,1,null,null,null,null,null,null,NA,0,experiment,NA,NA,2,0.5,0.5,4,5,276,7,NA
fcp-trial,312,1514243,0.0-287.0-0.0,voc_e2,12147,"[{""event"":""fullscreenenter"",""trial"":1,""time"":4242},{""event"":""blur"",""trial"":311,""time"":1495145},{""event"":""fullscreenexit"",""trial"":311,""time"":1501891},{""event"":""focus"",""trial"":311,""time"":1501893}]",NA,NA,NA,NA,NA,0,#3386FF,#D89F1C,0,10,0,38,1,3256.4000000059605,39,0,476.8999999910593,10,1,experiment,NA,NA,1,0.3,0.7,3,2,277,7,NA
fcp-trial,313,1517445,0.0-288.0-0.0,voc_e2,12147,"[{""event"":""fullscreenenter"",""trial"":1,""time"":4242},{""event"":""blur"",""trial"":311,""time"":1495145},{""event"":""fullscreenexit"",""trial"":311,""time"":1501891},{""event"":""focus"",""trial"":311,""time"":1501893}]",NA,NA,NA,NA,NA,5,#741CD8,#D8271C,10,0,1,38,1,1350.5999999940395,37,1,344.29999999701977,10,1,experiment,NA,NA,0,0.9,0.1,0,1,278,7,NA
fcp-trial,314,1520374,0.0-289.0-0.0,voc_e2,12147,"[{""event"":""fullscreenenter"",""trial"":1,""time"":4242},{""event"":""blur"",""trial"":311,""time"":1495145},{""event"":""fullscreenexit"",""trial"":311,""time"":1501891},{""event"":""focus"",""trial"":311,""time"":1501893}]",NA,NA,NA,NA,NA,3,#3386FF,#D89F1C,0,10,0,38,1,1026,39,0,392.5,10,1,experiment,NA,NA,1,0.3,0.7,3,2,279,7,NA
fcp-trial,315,1522972,0.0-290.0-0.0,voc_e2,12147,"[{""event"":""fullscreenenter"",""trial"":1,""time"":4242},{""event"":""blur"",""trial"":311,""time"":1495145},{""event"":""fullscreenexit"",""trial"":311,""time"":1501891},{""event"":""focus"",""trial"":311,""time"":1501893}]",NA,NA,NA,NA,NA,4,#FA92F8,#1CD855,10,10,0,40,0,659.6000000089407,37,1,424.1000000089407,10,0,experiment,NA,NA,2,0.5,0.5,5,4,280,7,NA
fcp-trial,316,1526550,0.0-291.0-0.0,voc_e2,12147,"[{""event"":""fullscreenenter"",""trial"":1,""time"":4242},{""event"":""blur"",""trial"":311,""time"":1495145},{""event"":""fullscreenexit"",""trial"":311,""time"":1501891},{""event"":""focus"",""trial"":311,""time"":1501893}]",NA,NA,NA,NA,NA,0,#FA92F8,#1CD855,0,10,0,38,1,1472.0999999940395,37,1,599.9000000059605,0,0,experiment,NA,NA,2,0.5,0.5,5,4,281,7,NA
fcp-trial,317,1529610,0.0-292.0-0.0,voc_e2,12147,"[{""event"":""fullscreenenter"",""trial"":1,""time"":4242},{""event"":""blur"",""trial"":311,""time"":1495145},{""event"":""fullscreenexit"",""trial"":311,""time"":1501891},{""event"":""focus"",""trial"":311,""time"":1501893}]",NA,NA,NA,NA,NA,4,#D8271C,#741CD8,0,10,0,38,1,1068.300000011921,39,0,486.20000000298023,10,1,experiment,NA,NA,0,0.1,0.9,1,0,282,7,NA
fcp-trial,318,1533148,0.0-293.0-0.0,voc_e2,12147,"[{""event"":""fullscreenenter"",""trial"":1,""time"":4242},{""event"":""blur"",""trial"":311,""time"":1495145},{""event"":""fullscreenexit"",""trial"":311,""time"":1501891},{""event"":""focus"",""trial"":311,""time"":1501893}]",NA,NA,NA,NA,NA,2,#FA92F8,#1CD855,0,0,0,38,1,1269.699999988079,37,1,758.2000000029802,0,0,experiment,NA,NA,2,0.5,0.5,5,4,283,7,NA
fcp-trial,319,1535934,0.0-294.0-0.0,voc_e2,12147,"[{""event"":""fullscreenenter"",""trial"":1,""time"":4242},{""event"":""blur"",""trial"":311,""time"":1495145},{""event"":""fullscreenexit"",""trial"":311,""time"":1501891},{""event"":""focus"",""trial"":311,""time"":1501893}]",NA,NA,NA,NA,NA,1,#3386FF,#D89F1C,0,10,0,38,1,904.8000000119209,39,0,375.69999998807907,10,1,experiment,NA,NA,1,0.3,0.7,3,2,284,7,NA
fcp-trial,320,1539051,0.0-295.0-0.0,voc_e2,12147,"[{""event"":""fullscreenenter"",""trial"":1,""time"":4242},{""event"":""blur"",""trial"":311,""time"":1495145},{""event"":""fullscreenexit"",""trial"":311,""time"":1501891},{""event"":""focus"",""trial"":311,""time"":1501893}]",NA,NA,NA,NA,NA,2,#D8271C,#741CD8,0,0,0,40,0,1171.5,37,1,438.30000001192093,0,0,experiment,NA,NA,0,0.1,0.9,1,0,285,7,NA
fcp-trial,321,1541950,0.0-296.0-0.0,voc_e2,12147,"[{""event"":""fullscreenenter"",""trial"":1,""time"":4242},{""event"":""blur"",""trial"":311,""time"":1495145},{""event"":""fullscreenexit"",""trial"":311,""time"":1501891},{""event"":""focus"",""trial"":311,""time"":1501893}]",NA,NA,NA,NA,NA,6,#D89F1C,#3386FF,0,0,1,38,1,745.2000000029802,37,1,646,0,1,experiment,NA,NA,1,0.7,0.3,2,3,286,7,NA
fcp-trial,322,1545314,0.0-297.0-0.0,voc_e2,12147,"[{""event"":""fullscreenenter"",""trial"":1,""time"":4242},{""event"":""blur"",""trial"":311,""time"":1495145},{""event"":""fullscreenexit"",""trial"":311,""time"":1501891},{""event"":""focus"",""trial"":311,""time"":1501893}]",NA,NA,NA,NA,NA,3,#D8271C,#741CD8,0,10,0,38,1,1463,39,0,395.40000000596046,10,1,experiment,NA,NA,0,0.1,0.9,1,0,287,7,NA
fcp-trial,323,1548308,0.0-298.0-0.0,voc_e2,12147,"[{""event"":""fullscreenenter"",""trial"":1,""time"":4242},{""event"":""blur"",""trial"":311,""time"":1495145},{""event"":""fullscreenexit"",""trial"":311,""time"":1501891},{""event"":""focus"",""trial"":311,""time"":1501893}]",NA,NA,NA,NA,NA,1,#1CD855,#FA92F8,10,10,1,40,0,956.7000000029802,39,0,527.1999999880791,10,0,experiment,NA,NA,2,0.5,0.5,4,5,288,7,NA
fcp-trial,324,1555829,0.0-299.0-0.0,voc_e2,12147,"[{""event"":""fullscreenenter"",""trial"":1,""time"":4242},{""event"":""blur"",""trial"":311,""time"":1495145},{""event"":""fullscreenexit"",""trial"":311,""time"":1501891},{""event"":""focus"",""trial"":311,""time"":1501893}]",NA,NA,NA,NA,NA,6,#741CD8,#D8271C,10,10,1,38,1,4366,37,1,1639.300000011921,10,1,experiment,NA,NA,0,0.9,0.1,0,1,289,7,NA
fcp-trial,325,1558739,0.0-300.0-0.0,voc_e2,12147,"[{""event"":""fullscreenenter"",""trial"":1,""time"":4242},{""event"":""blur"",""trial"":311,""time"":1495145},{""event"":""fullscreenexit"",""trial"":311,""time"":1501891},{""event"":""focus"",""trial"":311,""time"":1501893}]",NA,NA,NA,NA,NA,5,#D89F1C,#3386FF,10,0,1,38,1,944.5,37,1,452.59999999403954,10,1,experiment,NA,NA,1,0.7,0.3,2,3,290,7,NA
fcp-trial,326,1561708,0.0-301.0-0.0,voc_e2,12147,"[{""event"":""fullscreenenter"",""trial"":1,""time"":4242},{""event"":""blur"",""trial"":311,""time"":1495145},{""event"":""fullscreenexit"",""trial"":311,""time"":1501891},{""event"":""focus"",""trial"":311,""time"":1501893}]",NA,NA,NA,NA,NA,1,#D8271C,#741CD8,0,10,0,38,1,960.9000000059605,37,1,501.59999999403954,0,0,experiment,NA,NA,0,0.1,0.9,1,0,291,7,NA
fcp-trial,327,1564301,0.0-302.0-0.0,voc_e2,12147,"[{""event"":""fullscreenenter"",""trial"":1,""time"":4242},{""event"":""blur"",""trial"":311,""time"":1495145},{""event"":""fullscreenexit"",""trial"":311,""time"":1501891},{""event"":""focus"",""trial"":311,""time"":1501893}]",NA,NA,NA,NA,NA,6,#FA92F8,#1CD855,0,0,0,40,0,587,39,0,500.59999999403954,0,1,experiment,NA,NA,2,0.5,0.5,5,4,292,7,NA
fcp-trial,328,1567642,0.0-303.0-0.0,voc_e2,12147,"[{""event"":""fullscreenenter"",""trial"":1,""time"":4242},{""event"":""blur"",""trial"":311,""time"":1495145},{""event"":""fullscreenexit"",""trial"":311,""time"":1501891},{""event"":""focus"",""trial"":311,""time"":1501893}]",NA,NA,NA,NA,NA,4,#3386FF,#D89F1C,10,0,0,38,1,1479.2999999970198,39,0,358.20000000298023,0,1,experiment,NA,NA,1,0.3,0.7,3,2,293,7,NA
fcp-trial,329,1571172,0.0-304.0-0.0,voc_e2,12147,"[{""event"":""fullscreenenter"",""trial"":1,""time"":4242},{""event"":""blur"",""trial"":311,""time"":1495145},{""event"":""fullscreenexit"",""trial"":311,""time"":1501891},{""event"":""focus"",""trial"":311,""time"":1501893}]",NA,NA,NA,NA,NA,2,#D89F1C,#3386FF,0,10,1,38,1,1680.300000011921,37,1,343.1000000089407,0,1,experiment,NA,NA,1,0.7,0.3,2,3,294,7,NA
fcp-trial,330,1574181,0.0-305.0-0.0,voc_e2,12147,"[{""event"":""fullscreenenter"",""trial"":1,""time"":4242},{""event"":""blur"",""trial"":311,""time"":1495145},{""event"":""fullscreenexit"",""trial"":311,""time"":1501891},{""event"":""focus"",""trial"":311,""time"":1501893}]",NA,NA,NA,NA,NA,5,#D8271C,#741CD8,0,10,0,38,1,1111.2999999970198,39,0,392.20000000298023,10,1,experiment,NA,NA,0,0.1,0.9,1,0,295,7,NA
fcp-trial,331,1577980,0.0-306.0-0.0,voc_e2,12147,"[{""event"":""fullscreenenter"",""trial"":1,""time"":4242},{""event"":""blur"",""trial"":311,""time"":1495145},{""event"":""fullscreenexit"",""trial"":311,""time"":1501891},{""event"":""focus"",""trial"":311,""time"":1501893}]",NA,NA,NA,NA,NA,3,#D89F1C,#3386FF,10,0,1,38,1,1390.9000000059605,37,1,902.6000000089407,10,1,experiment,NA,NA,1,0.7,0.3,2,3,296,7,NA
fcp-trial,332,1580947,0.0-307.0-0.0,voc_e2,12147,"[{""event"":""fullscreenenter"",""trial"":1,""time"":4242},{""event"":""blur"",""trial"":311,""time"":1495145},{""event"":""fullscreenexit"",""trial"":311,""time"":1501891},{""event"":""focus"",""trial"":311,""time"":1501893}]",NA,NA,NA,NA,NA,0,#FA92F8,#1CD855,0,10,0,40,0,1014.3999999910593,39,0,444.5,10,1,experiment,NA,NA,2,0.5,0.5,5,4,297,7,NA
fcp-trial,333,1584556,0.0-308.0-0.0,voc_e2,12147,"[{""event"":""fullscreenenter"",""trial"":1,""time"":4242},{""event"":""blur"",""trial"":311,""time"":1495145},{""event"":""fullscreenexit"",""trial"":311,""time"":1501891},{""event"":""focus"",""trial"":311,""time"":1501893}]",NA,NA,NA,NA,NA,0,#D8271C,#741CD8,10,0,0,38,1,1799.2999999970198,39,0,302.70000000298023,0,1,experiment,NA,NA,0,0.1,0.9,1,0,298,7,NA
fcp-trial,334,1588091,0.0-309.0-0.0,voc_e2,12147,"[{""event"":""fullscreenenter"",""trial"":1,""time"":4242},{""event"":""blur"",""trial"":311,""time"":1495145},{""event"":""fullscreenexit"",""trial"":311,""time"":1501891},{""event"":""focus"",""trial"":311,""time"":1501893}]",NA,NA,NA,NA,NA,1,#1CD855,#FA92F8,0,0,1,40,0,1301.5,39,0,728.5,0,0,experiment,NA,NA,2,0.5,0.5,4,5,299,7,NA
fcp-trial,335,1591764,0.0-310.0-0.0,voc_e2,12147,"[{""event"":""fullscreenenter"",""trial"":1,""time"":4242},{""event"":""blur"",""trial"":311,""time"":1495145},{""event"":""fullscreenexit"",""trial"":311,""time"":1501891},{""event"":""focus"",""trial"":311,""time"":1501893}]",NA,NA,NA,NA,NA,0,#3386FF,#D89F1C,0,10,0,38,1,1454.8999999910593,39,0,712.0999999940395,10,1,experiment,NA,NA,1,0.3,0.7,3,2,300,7,NA
fcp-trial,336,1594876,0.0-311.0-0.0,voc_e2,12147,"[{""event"":""fullscreenenter"",""trial"":1,""time"":4242},{""event"":""blur"",""trial"":311,""time"":1495145},{""event"":""fullscreenexit"",""trial"":311,""time"":1501891},{""event"":""focus"",""trial"":311,""time"":1501893}]",NA,NA,NA,NA,NA,3,#1CD855,#FA92F8,0,0,1,40,0,1069.4000000059605,39,0,533.2000000029802,0,0,experiment,NA,NA,2,0.5,0.5,4,5,301,7,NA
fcp-trial,337,1597788,0.0-312.0-0.0,voc_e2,12147,"[{""event"":""fullscreenenter"",""trial"":1,""time"":4242},{""event"":""blur"",""trial"":311,""time"":1495145},{""event"":""fullscreenexit"",""trial"":311,""time"":1501891},{""event"":""focus"",""trial"":311,""time"":1501893}]",NA,NA,NA,NA,NA,5,#1CD855,#FA92F8,10,0,1,40,0,903,37,1,501.70000000298023,10,1,experiment,NA,NA,2,0.5,0.5,4,5,302,7,NA
fcp-trial,338,1603292,0.0-313.0-0.0,voc_e2,12147,"[{""event"":""fullscreenenter"",""trial"":1,""time"":4242},{""event"":""blur"",""trial"":311,""time"":1495145},{""event"":""fullscreenexit"",""trial"":311,""time"":1501891},{""event"":""focus"",""trial"":311,""time"":1501893}]",NA,NA,NA,NA,NA,2,#741CD8,#D8271C,10,10,1,38,1,3237,39,0,759.1999999880791,10,0,experiment,NA,NA,0,0.9,0.1,0,1,303,7,NA
fcp-trial,339,1606452,0.0-314.0-0.0,voc_e2,12147,"[{""event"":""fullscreenenter"",""trial"":1,""time"":4242},{""event"":""blur"",""trial"":311,""time"":1495145},{""event"":""fullscreenexit"",""trial"":311,""time"":1501891},{""event"":""focus"",""trial"":311,""time"":1501893}]",NA,NA,NA,NA,NA,5,#3386FF,#D89F1C,0,10,0,38,1,1334.3999999910593,39,0,319.40000000596046,10,1,experiment,NA,NA,1,0.3,0.7,3,2,304,7,NA
fcp-trial,340,1609838,0.0-315.0-0.0,voc_e2,12147,"[{""event"":""fullscreenenter"",""trial"":1,""time"":4242},{""event"":""blur"",""trial"":311,""time"":1495145},{""event"":""fullscreenexit"",""trial"":311,""time"":1501891},{""event"":""focus"",""trial"":311,""time"":1501893}]",NA,NA,NA,NA,NA,2,#1CD855,#FA92F8,10,0,1,38,1,1449,37,1,432.29999999701977,10,1,experiment,NA,NA,2,0.5,0.5,4,5,305,7,NA
fcp-trial,341,1613869,0.0-316.0-0.0,voc_e2,12147,"[{""event"":""fullscreenenter"",""trial"":1,""time"":4242},{""event"":""blur"",""trial"":311,""time"":1495145},{""event"":""fullscreenexit"",""trial"":311,""time"":1501891},{""event"":""focus"",""trial"":311,""time"":1501893}]",NA,NA,NA,NA,NA,6,#741CD8,#D8271C,10,0,1,38,1,2012.2999999970198,37,1,509.5,10,1,experiment,NA,NA,0,0.9,0.1,0,1,306,7,NA
fcp-trial,342,1617004,0.0-317.0-0.0,voc_e2,12147,"[{""event"":""fullscreenenter"",""trial"":1,""time"":4242},{""event"":""blur"",""trial"":311,""time"":1495145},{""event"":""fullscreenexit"",""trial"":311,""time"":1501891},{""event"":""focus"",""trial"":311,""time"":1501893}]",NA,NA,NA,NA,NA,2,#3386FF,#D89F1C,0,0,0,38,1,1174.7000000029802,39,0,453,0,1,experiment,NA,NA,1,0.3,0.7,3,2,307,7,NA
fcp-trial,343,1620029,0.0-318.0-0.0,voc_e2,12147,"[{""event"":""fullscreenenter"",""trial"":1,""time"":4242},{""event"":""blur"",""trial"":311,""time"":1495145},{""event"":""fullscreenexit"",""trial"":311,""time"":1501891},{""event"":""focus"",""trial"":311,""time"":1501893}]",NA,NA,NA,NA,NA,6,#1CD855,#FA92F8,10,10,1,40,0,944.8999999910593,39,0,572.5,10,0,experiment,NA,NA,2,0.5,0.5,4,5,308,7,NA
fcp-trial,344,1623323,0.0-319.0-0.0,voc_e2,12147,"[{""event"":""fullscreenenter"",""trial"":1,""time"":4242},{""event"":""blur"",""trial"":311,""time"":1495145},{""event"":""fullscreenexit"",""trial"":311,""time"":1501891},{""event"":""focus"",""trial"":311,""time"":1501893}]",NA,NA,NA,NA,NA,6,#3386FF,#D89F1C,0,10,0,40,0,1345.7000000029802,39,0,432.5,10,1,experiment,NA,NA,1,0.3,0.7,3,2,309,7,NA
fcp-trial,345,1626509,0.0-320.0-0.0,voc_e2,12147,"[{""event"":""fullscreenenter"",""trial"":1,""time"":4242},{""event"":""blur"",""trial"":311,""time"":1495145},{""event"":""fullscreenexit"",""trial"":311,""time"":1501891},{""event"":""focus"",""trial"":311,""time"":1501893}]",NA,NA,NA,NA,NA,1,#741CD8,#D8271C,10,0,1,40,0,1236.6000000089407,39,0,438,0,0,experiment,NA,NA,0,0.9,0.1,0,1,310,7,NA
fcp-trial,346,1629292,0.0-321.0-0.0,voc_e2,12147,"[{""event"":""fullscreenenter"",""trial"":1,""time"":4242},{""event"":""blur"",""trial"":311,""time"":1495145},{""event"":""fullscreenexit"",""trial"":311,""time"":1501891},{""event"":""focus"",""trial"":311,""time"":1501893}]",NA,NA,NA,NA,NA,1,#D89F1C,#3386FF,10,10,1,38,1,936.2000000029802,37,1,335.1000000089407,10,1,experiment,NA,NA,1,0.7,0.3,2,3,311,7,NA
fcp-trial,347,1632036,0.0-322.0-0.0,voc_e2,12147,"[{""event"":""fullscreenenter"",""trial"":1,""time"":4242},{""event"":""blur"",""trial"":311,""time"":1495145},{""event"":""fullscreenexit"",""trial"":311,""time"":1501891},{""event"":""focus"",""trial"":311,""time"":1501893}]",NA,NA,NA,NA,NA,4,#1CD855,#FA92F8,10,10,1,40,0,787.5,39,0,449.59999999403954,10,0,experiment,NA,NA,2,0.5,0.5,4,5,312,7,NA
fcp-trial,348,1635154,0.0-323.0-0.0,voc_e2,12147,"[{""event"":""fullscreenenter"",""trial"":1,""time"":4242},{""event"":""blur"",""trial"":311,""time"":1495145},{""event"":""fullscreenexit"",""trial"":311,""time"":1501891},{""event"":""focus"",""trial"":311,""time"":1501893}]",NA,NA,NA,NA,NA,4,#D89F1C,#3386FF,10,0,1,38,1,1179.2999999970198,37,1,431.30000001192093,10,1,experiment,NA,NA,1,0.7,0.3,2,3,313,7,NA
fcp-trial,349,1638987,0.0-324.0-0.0,voc_e2,12147,"[{""event"":""fullscreenenter"",""trial"":1,""time"":4242},{""event"":""blur"",""trial"":311,""time"":1495145},{""event"":""fullscreenexit"",""trial"":311,""time"":1501891},{""event"":""focus"",""trial"":311,""time"":1501893}]",NA,NA,NA,NA,NA,4,#D8271C,#741CD8,0,10,0,38,1,1735.1000000089407,39,0,589.7000000029802,10,1,experiment,NA,NA,0,0.1,0.9,1,0,314,7,NA
fcp-trial,350,1642131,0.0-325.0-0.0,voc_e2,12147,"[{""event"":""fullscreenenter"",""trial"":1,""time"":4242},{""event"":""blur"",""trial"":311,""time"":1495145},{""event"":""fullscreenexit"",""trial"":311,""time"":1501891},{""event"":""focus"",""trial"":311,""time"":1501893}]",NA,NA,NA,NA,NA,3,#741CD8,#D8271C,10,0,1,38,1,1263.5,37,1,373.1000000089407,10,1,experiment,NA,NA,0,0.9,0.1,0,1,315,7,NA
audio-instructions,351,1650612,0.0-326.0,voc_e2,12147,"[{""event"":""fullscreenenter"",""trial"":1,""time"":4242},{""event"":""blur"",""trial"":311,""time"":1495145},{""event"":""fullscreenexit"",""trial"":311,""time"":1501891},{""event"":""focus"",""trial"":311,""time"":1501893}]",NA,2462,static/audio/finished.wav,NA,0,NA,NA,NA,NA,NA,NA,NA,NA,NA,NA,NA,NA,NA,NA,NA,NA,NA,NA,NA,NA,NA,NA,NA,NA,NA
audio-instructions,352,1661965,0.0-327.0-0.0,voc_e2,12147,"[{""event"":""fullscreenenter"",""trial"":1,""time"":4242},{""event"":""blur"",""trial"":311,""time"":1495145},{""event"":""fullscreenexit"",""trial"":311,""time"":1501891},{""event"":""focus"",""trial"":311,""time"":1501893}]",NA,515.9000000059605,static/audio/explicit1.wav,NA,0,NA,NA,NA,NA,NA,NA,NA,NA,NA,NA,NA,NA,NA,NA,NA,NA,NA,NA,NA,NA,NA,NA,NA,NA,NA
audio-instructions,353,1670038,0.0-327.0-1.0,voc_e2,12147,"[{""event"":""fullscreenenter"",""trial"":1,""time"":4242},{""event"":""blur"",""trial"":311,""time"":1495145},{""event"":""fullscreenexit"",""trial"":311,""time"":1501891},{""event"":""focus"",""trial"":311,""time"":1501893}]",NA,477.5,static/audio/explicit2.wav,NA,0,NA,NA,NA,NA,NA,NA,NA,NA,NA,NA,NA,NA,NA,NA,NA,NA,NA,NA,NA,NA,NA,NA,NA,NA,NA
image-slider-response,354,1677079,0.0-328.0,voc_e2,12147,"[{""event"":""fullscreenenter"",""trial"":1,""time"":4242},{""event"":""blur"",""trial"":311,""time"":1495145},{""event"":""fullscreenexit"",""trial"":311,""time"":1501891},{""event"":""focus"",""trial"":311,""time"":1501893}]",NA,7039.899999991059,static/img/machines/machine3.png,NA,NA,NA,NA,NA,NA,NA,NA,NA,NA,NA,NA,NA,NA,NA,NA,explicit,NA,NA,NA,NA,NA,NA,NA,NA,NA,2
image-slider-response,355,1680023,0.0-329.0,voc_e2,12147,"[{""event"":""fullscreenenter"",""trial"":1,""time"":4242},{""event"":""blur"",""trial"":311,""time"":1495145},{""event"":""fullscreenexit"",""trial"":311,""time"":1501891},{""event"":""focus"",""trial"":311,""time"":1501893}]",NA,2941.9000000059605,static/img/machines/machine5.png,NA,NA,NA,NA,NA,NA,NA,NA,NA,NA,NA,NA,NA,NA,NA,NA,explicit,NA,NA,NA,NA,NA,NA,NA,NA,NA,5
image-slider-response,356,1686337,0.0-330.0,voc_e2,12147,"[{""event"":""fullscreenenter"",""trial"":1,""time"":4242},{""event"":""blur"",""trial"":311,""time"":1495145},{""event"":""fullscreenexit"",""trial"":311,""time"":1501891},{""event"":""focus"",""trial"":311,""time"":1501893}]",NA,6312.399999991059,static/img/machines/machine2.png,NA,NA,NA,NA,NA,NA,NA,NA,NA,NA,NA,NA,NA,NA,NA,NA,explicit,NA,NA,NA,NA,NA,NA,NA,NA,NA,7
image-slider-response,357,1689809,0.0-331.0,voc_e2,12147,"[{""event"":""fullscreenenter"",""trial"":1,""time"":4242},{""event"":""blur"",""trial"":311,""time"":1495145},{""event"":""fullscreenexit"",""trial"":311,""time"":1501891},{""event"":""focus"",""trial"":311,""time"":1501893}]",NA,3470.9000000059605,static/img/machines/machine1.png,NA,NA,NA,NA,NA,NA,NA,NA,NA,NA,NA,NA,NA,NA,NA,NA,explicit,NA,NA,NA,NA,NA,NA,NA,NA,NA,3
image-slider-response,358,1695754,0.0-332.0,voc_e2,12147,"[{""event"":""fullscreenenter"",""trial"":1,""time"":4242},{""event"":""blur"",""trial"":311,""time"":1495145},{""event"":""fullscreenexit"",""trial"":311,""time"":1501891},{""event"":""focus"",""trial"":311,""time"":1501893}]",NA,5943.70000000298,static/img/machines/machine4.png,NA,NA,NA,NA,NA,NA,NA,NA,NA,NA,NA,NA,NA,NA,NA,NA,explicit,NA,NA,NA,NA,NA,NA,NA,NA,NA,8
image-slider-response,359,1701282,0.0-333.0,voc_e2,12147,"[{""event"":""fullscreenenter"",""trial"":1,""time"":4242},{""event"":""blur"",""trial"":311,""time"":1495145},{""event"":""fullscreenexit"",""trial"":311,""time"":1501891},{""event"":""focus"",""trial"":311,""time"":1501893}]",NA,5527.199999988079,static/img/machines/machine6.png,NA,NA,NA,NA,NA,NA,NA,NA,NA,NA,NA,NA,NA,NA,NA,NA,explicit,NA,NA,NA,NA,NA,NA,NA,NA,NA,5
