trial_type,trial_index,time_elapsed,internal_node_id,task_version,subject_id,interactions,success,rt,stimulus,key_press,button_pressed,offer,arcade_color_L,arcade_color_R,arcade_outcome_L,arcade_outcome_R,correct,stage_1_key,stage_1_choice,stage_1_rt,stage_2_key,stage_2_choice,stage_2_rt,stage_3_outcome,accuracy,phase,responses,num_errors,context,reward_prob_L,reward_prob_R,arcade_id_L,arcade_id_R,trial,block,response
pavlovia,0,6,0.0-0.0,voc_e2,12275,[],NA,NA,NA,NA,NA,NA,NA,NA,NA,NA,NA,NA,NA,NA,NA,NA,NA,NA,NA,NA,NA,NA,NA,NA,NA,NA,NA,NA,NA,NA
fullscreen,1,4349,0.0-1.0,voc_e2,12275,"[{""event"":""fullscreenenter"",""trial"":1,""time"":3354}]",TRUE,NA,NA,NA,NA,NA,NA,NA,NA,NA,NA,NA,NA,NA,NA,NA,NA,NA,NA,NA,NA,NA,NA,NA,NA,NA,NA,NA,NA,NA
audio-keyboard-response,2,8060,0.0-2.0,voc_e2,12275,"[{""event"":""fullscreenenter"",""trial"":1,""time"":3354}]",NA,2763,static/audio/beep_loop.wav,32,NA,NA,NA,NA,NA,NA,NA,NA,NA,NA,NA,NA,NA,NA,NA,NA,NA,NA,NA,NA,NA,NA,NA,NA,NA,NA
audio-test,3,10671,0.0-3.0,voc_e2,12275,"[{""event"":""fullscreenenter"",""trial"":1,""time"":3354}]",NA,NA,static/audio/turtle.wav,NA,3,NA,NA,NA,NA,NA,NA,NA,NA,NA,NA,NA,NA,NA,NA,NA,NA,NA,NA,NA,NA,NA,NA,NA,NA,NA
audio-test,4,13256,0.0-4.0,voc_e2,12275,"[{""event"":""fullscreenenter"",""trial"":1,""time"":3354}]",NA,NA,static/audio/shark.wav,NA,2,NA,NA,NA,NA,NA,NA,NA,NA,NA,NA,NA,NA,NA,NA,NA,NA,NA,NA,NA,NA,NA,NA,NA,NA,NA
audio-instructions,5,20700,0.0-5.0-0.0,voc_e2,12275,"[{""event"":""fullscreenenter"",""trial"":1,""time"":3354}]",NA,1660.300000011921,static/audio/instructions1.wav,NA,0,NA,NA,NA,NA,NA,NA,NA,NA,NA,NA,NA,NA,NA,NA,NA,NA,NA,NA,NA,NA,NA,NA,NA,NA,NA
audio-instructions,6,31144,0.0-5.0-1.0,voc_e2,12275,"[{""event"":""fullscreenenter"",""trial"":1,""time"":3354}]",NA,3694.900000035763,static/audio/instructions2.wav,NA,0,NA,NA,NA,NA,NA,NA,NA,NA,NA,NA,NA,NA,NA,NA,NA,NA,NA,NA,NA,NA,NA,NA,NA,NA,NA
audio-instructions,7,38251,0.0-5.0-2.0,voc_e2,12275,"[{""event"":""fullscreenenter"",""trial"":1,""time"":3354}]",NA,1302.7999999523165,static/audio/instructions3.wav,NA,0,NA,NA,NA,NA,NA,NA,NA,NA,NA,NA,NA,NA,NA,NA,NA,NA,NA,NA,NA,NA,NA,NA,NA,NA,NA
audio-instructions,8,52588,0.0-5.0-3.0,voc_e2,12275,"[{""event"":""fullscreenenter"",""trial"":1,""time"":3354}]",NA,1109,static/audio/instructions4.wav,NA,0,NA,NA,NA,NA,NA,NA,NA,NA,NA,NA,NA,NA,NA,NA,NA,NA,NA,NA,NA,NA,NA,NA,NA,NA,NA
audio-instructions,9,63067,0.0-5.0-4.0,voc_e2,12275,"[{""event"":""fullscreenenter"",""trial"":1,""time"":3354}]",NA,1089.5,static/audio/instructions5.wav,NA,0,NA,NA,NA,NA,NA,NA,NA,NA,NA,NA,NA,NA,NA,NA,NA,NA,NA,NA,NA,NA,NA,NA,NA,NA,NA
fcp-practice,10,69172,0.0-5.0-5.0-0.0,voc_e2,12275,"[{""event"":""fullscreenenter"",""trial"":1,""time"":3354}]",NA,NA,NA,NA,NA,NA,#EDC948,#46d3c8,10,0,1,null,null,null,37,1,4554.5,10,1,practice,NA,NA,NA,NA,NA,NA,NA,NA,NA,NA
fcp-practice,11,71375,0.0-5.0-5.0-1.0,voc_e2,12275,"[{""event"":""fullscreenenter"",""trial"":1,""time"":3354}]",NA,NA,NA,NA,NA,NA,#EDC948,#46d3c8,10,0,1,null,null,null,37,1,699.0999999642372,10,1,practice,NA,NA,NA,NA,NA,NA,NA,NA,NA,NA
fcp-practice,12,73445,0.0-5.0-5.0-2.0,voc_e2,12275,"[{""event"":""fullscreenenter"",""trial"":1,""time"":3354}]",NA,NA,NA,NA,NA,NA,#EDC948,#46d3c8,0,10,1,null,null,null,37,1,566.4000000357628,0,1,practice,NA,NA,NA,NA,NA,NA,NA,NA,NA,NA
fcp-practice,13,75786,0.0-5.0-5.0-3.0,voc_e2,12275,"[{""event"":""fullscreenenter"",""trial"":1,""time"":3354}]",NA,NA,NA,NA,NA,NA,#EDC948,#46d3c8,10,0,1,null,null,null,37,1,837.7000000476837,10,1,practice,NA,NA,NA,NA,NA,NA,NA,NA,NA,NA
fcp-practice,14,78014,0.0-5.0-5.0-4.0,voc_e2,12275,"[{""event"":""fullscreenenter"",""trial"":1,""time"":3354}]",NA,NA,NA,NA,NA,NA,#EDC948,#46d3c8,10,0,1,null,null,null,37,1,721.8999999761581,10,1,practice,NA,NA,NA,NA,NA,NA,NA,NA,NA,NA
audio-instructions,15,98310,0.0-5.0-6.0,voc_e2,12275,"[{""event"":""fullscreenenter"",""trial"":1,""time"":3354}]",NA,2286.2999999523163,static/audio/instructions6.wav,NA,0,NA,NA,NA,NA,NA,NA,NA,NA,NA,NA,NA,NA,NA,NA,NA,NA,NA,NA,NA,NA,NA,NA,NA,NA,NA
audio-instructions,16,118995,0.0-5.0-7.0,voc_e2,12275,"[{""event"":""fullscreenenter"",""trial"":1,""time"":3354}]",NA,1479.7000000476835,static/audio/instructions7.wav,NA,0,NA,NA,NA,NA,NA,NA,NA,NA,NA,NA,NA,NA,NA,NA,NA,NA,NA,NA,NA,NA,NA,NA,NA,NA,NA
audio-instructions,17,129873,0.0-5.0-8.0,voc_e2,12275,"[{""event"":""fullscreenenter"",""trial"":1,""time"":3354}]",NA,1405.899999976158,static/audio/instructions8.wav,NA,0,NA,NA,NA,NA,NA,NA,NA,NA,NA,NA,NA,NA,NA,NA,NA,NA,NA,NA,NA,NA,NA,NA,NA,NA,NA
fcp-comprehension,18,143539,0.0-5.0-9.0,voc_e2,12275,"[{""event"":""fullscreenenter"",""trial"":1,""time"":3354}]",NA,13663.900000035765,NA,NA,NA,NA,NA,NA,NA,NA,NA,NA,NA,NA,NA,NA,NA,NA,NA,NA,"false,false",2,NA,NA,NA,NA,NA,NA,NA,NA
audio-instructions,19,149494,0.0-5.1-0.1,voc_e2,12275,"[{""event"":""fullscreenenter"",""trial"":1,""time"":3354}]",NA,1173.800000011921,static/audio/instructions1.wav,NA,0,NA,NA,NA,NA,NA,NA,NA,NA,NA,NA,NA,NA,NA,NA,NA,NA,NA,NA,NA,NA,NA,NA,NA,NA,NA
audio-instructions,20,159172,0.0-5.1-1.1,voc_e2,12275,"[{""event"":""fullscreenenter"",""trial"":1,""time"":3354}]",NA,2933.599999964237,static/audio/instructions2.wav,NA,0,NA,NA,NA,NA,NA,NA,NA,NA,NA,NA,NA,NA,NA,NA,NA,NA,NA,NA,NA,NA,NA,NA,NA,NA,NA
audio-instructions,21,165697,0.0-5.1-2.1,voc_e2,12275,"[{""event"":""fullscreenenter"",""trial"":1,""time"":3354}]",NA,722.1999999880791,static/audio/instructions3.wav,NA,0,NA,NA,NA,NA,NA,NA,NA,NA,NA,NA,NA,NA,NA,NA,NA,NA,NA,NA,NA,NA,NA,NA,NA,NA,NA
audio-instructions,22,179611,0.0-5.1-3.1,voc_e2,12275,"[{""event"":""fullscreenenter"",""trial"":1,""time"":3354}]",NA,685.4000000357628,static/audio/instructions4.wav,NA,0,NA,NA,NA,NA,NA,NA,NA,NA,NA,NA,NA,NA,NA,NA,NA,NA,NA,NA,NA,NA,NA,NA,NA,NA,NA
audio-instructions,23,190657,0.0-5.1-4.1,voc_e2,12275,"[{""event"":""fullscreenenter"",""trial"":1,""time"":3354}]",NA,1658.800000011921,static/audio/instructions5.wav,NA,0,NA,NA,NA,NA,NA,NA,NA,NA,NA,NA,NA,NA,NA,NA,NA,NA,NA,NA,NA,NA,NA,NA,NA,NA,NA
fcp-practice,24,192801,0.0-5.1-5.1-0.1,voc_e2,12275,"[{""event"":""fullscreenenter"",""trial"":1,""time"":3354}]",NA,NA,NA,NA,NA,NA,#EDC948,#46d3c8,10,0,1,null,null,null,37,1,640.5,10,1,practice,NA,NA,NA,NA,NA,NA,NA,NA,NA,NA
fcp-practice,25,194432,0.0-5.1-5.1-1.1,voc_e2,12275,"[{""event"":""fullscreenenter"",""trial"":1,""time"":3354}]",NA,NA,NA,NA,NA,NA,#EDC948,#46d3c8,10,0,1,null,null,null,37,1,123.90000003576279,10,1,practice,NA,NA,NA,NA,NA,NA,NA,NA,NA,NA
fcp-practice,26,196367,0.0-5.1-5.1-2.1,voc_e2,12275,"[{""event"":""fullscreenenter"",""trial"":1,""time"":3354}]",NA,NA,NA,NA,NA,NA,#EDC948,#46d3c8,0,10,1,null,null,null,37,1,431.4000000357628,0,1,practice,NA,NA,NA,NA,NA,NA,NA,NA,NA,NA
fcp-practice,27,198337,0.0-5.1-5.1-3.1,voc_e2,12275,"[{""event"":""fullscreenenter"",""trial"":1,""time"":3354}]",NA,NA,NA,NA,NA,NA,#EDC948,#46d3c8,10,0,1,null,null,null,37,1,464.89999997615814,10,1,practice,NA,NA,NA,NA,NA,NA,NA,NA,NA,NA
fcp-practice,28,200473,0.0-5.1-5.1-4.1,voc_e2,12275,"[{""event"":""fullscreenenter"",""trial"":1,""time"":3354}]",NA,NA,NA,NA,NA,NA,#EDC948,#46d3c8,10,0,1,null,null,null,37,1,633.1999999880791,10,1,practice,NA,NA,NA,NA,NA,NA,NA,NA,NA,NA
audio-instructions,29,219311,0.0-5.1-6.1,voc_e2,12275,"[{""event"":""fullscreenenter"",""trial"":1,""time"":3354}]",NA,829.3000000119209,static/audio/instructions6.wav,NA,0,NA,NA,NA,NA,NA,NA,NA,NA,NA,NA,NA,NA,NA,NA,NA,NA,NA,NA,NA,NA,NA,NA,NA,NA,NA
audio-instructions,30,239212,0.0-5.1-7.1,voc_e2,12275,"[{""event"":""fullscreenenter"",""trial"":1,""time"":3354}]",NA,693.5999999642372,static/audio/instructions7.wav,NA,0,NA,NA,NA,NA,NA,NA,NA,NA,NA,NA,NA,NA,NA,NA,NA,NA,NA,NA,NA,NA,NA,NA,NA,NA,NA
audio-instructions,31,250226,0.0-5.1-8.1,voc_e2,12275,"[{""event"":""fullscreenenter"",""trial"":1,""time"":3354}]",NA,1540.0999999642372,static/audio/instructions8.wav,NA,0,NA,NA,NA,NA,NA,NA,NA,NA,NA,NA,NA,NA,NA,NA,NA,NA,NA,NA,NA,NA,NA,NA,NA,NA,NA
fcp-comprehension,32,253696,0.0-5.1-9.1,voc_e2,12275,"[{""event"":""fullscreenenter"",""trial"":1,""time"":3354}]",NA,3468.800000011921,NA,NA,NA,NA,NA,NA,NA,NA,NA,NA,NA,NA,NA,NA,NA,NA,NA,NA,"true,true",0,NA,NA,NA,NA,NA,NA,NA,NA
audio-instructions,33,260874,0.0-6.0-0.0,voc_e2,12275,"[{""event"":""fullscreenenter"",""trial"":1,""time"":3354}]",NA,1626.699999988079,static/audio/instructions9.wav,NA,0,NA,NA,NA,NA,NA,NA,NA,NA,NA,NA,NA,NA,NA,NA,NA,NA,NA,NA,NA,NA,NA,NA,NA,NA,NA
audio-instructions,34,273770,0.0-6.0-1.0,voc_e2,12275,"[{""event"":""fullscreenenter"",""trial"":1,""time"":3354}]",NA,777.6999999880791,static/audio/instructions10.wav,NA,0,NA,NA,NA,NA,NA,NA,NA,NA,NA,NA,NA,NA,NA,NA,NA,NA,NA,NA,NA,NA,NA,NA,NA,NA,NA
fcp-trial,35,277189,0.0-6.0-2.0,voc_e2,12275,"[{""event"":""fullscreenenter"",""trial"":1,""time"":3354}]",NA,NA,NA,NA,NA,0,#EDC948,#46d3c8,10,10,1,38,1,908.1999999880791,37,1,999.6999999880791,10,1,practice,NA,NA,NA,NA,NA,NA,NA,NA,NA,NA
audio-instructions,36,289203,0.0-6.0-3.0,voc_e2,12275,"[{""event"":""fullscreenenter"",""trial"":1,""time"":3354}]",NA,1001.600000023842,static/audio/instructions11.wav,NA,0,NA,NA,NA,NA,NA,NA,NA,NA,NA,NA,NA,NA,NA,NA,NA,NA,NA,NA,NA,NA,NA,NA,NA,NA,NA
fcp-trial,37,292726,0.0-6.0-4.0,voc_e2,12275,"[{""event"":""fullscreenenter"",""trial"":1,""time"":3354}]",NA,NA,NA,NA,NA,6,#EDC948,#46d3c8,10,10,1,40,0,768.1999999880791,37,1,1248.699999988079,10,1,practice,NA,NA,NA,NA,NA,NA,NA,NA,NA,NA
audio-instructions,38,313633,0.0-6.0-5.0,voc_e2,12275,"[{""event"":""fullscreenenter"",""trial"":1,""time"":3354}]",NA,2213.400000035763,static/audio/instructions12.wav,NA,0,NA,NA,NA,NA,NA,NA,NA,NA,NA,NA,NA,NA,NA,NA,NA,NA,NA,NA,NA,NA,NA,NA,NA,NA,NA
audio-instructions,39,322443,0.0-6.0-6.0,voc_e2,12275,"[{""event"":""fullscreenenter"",""trial"":1,""time"":3354}]",NA,1210.2999999523165,static/audio/instructions13.wav,NA,0,NA,NA,NA,NA,NA,NA,NA,NA,NA,NA,NA,NA,NA,NA,NA,NA,NA,NA,NA,NA,NA,NA,NA,NA,NA
audio-instructions,40,331792,0.0-6.0-7.0,voc_e2,12275,"[{""event"":""fullscreenenter"",""trial"":1,""time"":3354}]",NA,893.6999999880791,static/audio/instructions14.wav,NA,0,NA,NA,NA,NA,NA,NA,NA,NA,NA,NA,NA,NA,NA,NA,NA,NA,NA,NA,NA,NA,NA,NA,NA,NA,NA
audio-instructions,41,339459,0.0-7.0-0.0,voc_e2,12275,"[{""event"":""fullscreenenter"",""trial"":1,""time"":3354}]",NA,750.0999999642372,static/audio/instructions15.wav,NA,0,NA,NA,NA,NA,NA,NA,NA,NA,NA,NA,NA,NA,NA,NA,NA,NA,NA,NA,NA,NA,NA,NA,NA,NA,NA
audio-instructions,42,346701,0.0-7.0-1.0,voc_e2,12275,"[{""event"":""fullscreenenter"",""trial"":1,""time"":3354}]",NA,418.7999999523163,static/audio/instructions16.wav,NA,0,NA,NA,NA,NA,NA,NA,NA,NA,NA,NA,NA,NA,NA,NA,NA,NA,NA,NA,NA,NA,NA,NA,NA,NA,NA
audio-instructions,43,354776,0.0-7.0-2.0,voc_e2,12275,"[{""event"":""fullscreenenter"",""trial"":1,""time"":3354}]",NA,395.89999997615814,static/audio/instructions17.wav,NA,0,NA,NA,NA,NA,NA,NA,NA,NA,NA,NA,NA,NA,NA,NA,NA,NA,NA,NA,NA,NA,NA,NA,NA,NA,NA
audio-instructions,44,363103,0.0-7.0-3.0,voc_e2,12275,"[{""event"":""fullscreenenter"",""trial"":1,""time"":3354}]",NA,560.3000000119209,static/audio/instructions18.wav,NA,0,NA,NA,NA,NA,NA,NA,NA,NA,NA,NA,NA,NA,NA,NA,NA,NA,NA,NA,NA,NA,NA,NA,NA,NA,NA
audio-instructions,45,370344,0.0-7.0-4.0,voc_e2,12275,"[{""event"":""fullscreenenter"",""trial"":1,""time"":3354}]",NA,498.5999999642372,static/audio/instructions19.wav,NA,0,NA,NA,NA,NA,NA,NA,NA,NA,NA,NA,NA,NA,NA,NA,NA,NA,NA,NA,NA,NA,NA,NA,NA,NA,NA
fcp-comprehension,46,390251,0.0-7.0-5.0,voc_e2,12275,"[{""event"":""fullscreenenter"",""trial"":1,""time"":3354}]",NA,19904.799999952316,NA,NA,NA,NA,NA,NA,NA,NA,NA,NA,NA,NA,NA,NA,NA,NA,NA,NA,"false,false,false,true",0,NA,NA,NA,NA,NA,NA,NA,NA
audio-instructions,47,401565,0.0-8.0,voc_e2,12275,"[{""event"":""fullscreenenter"",""trial"":1,""time"":3354}]",NA,2095.800000011921,static/audio/ready.wav,NA,0,NA,NA,NA,NA,NA,NA,NA,NA,NA,NA,NA,NA,NA,NA,NA,NA,NA,NA,NA,NA,NA,NA,NA,NA,NA
fcp-trial,48,409054,0.0-9.0-0.0,voc_e2,12275,"[{""event"":""fullscreenenter"",""trial"":1,""time"":3354}]",NA,NA,NA,NA,NA,3,#3386FF,#D89F1C,10,0,1,40,0,5059.5,39,0,922.5,0,0,experiment,NA,NA,0,0.9,0.1,0,1,1,1,NA
fcp-trial,49,413893,0.0-10.0-0.0,voc_e2,12275,"[{""event"":""fullscreenenter"",""trial"":1,""time"":3354}]",NA,NA,NA,NA,NA,4,#3386FF,#D89F1C,10,10,1,38,1,2138.699999988079,37,1,1193.5,10,1,experiment,NA,NA,0,0.9,0.1,0,1,2,1,NA
fcp-trial,50,417435,0.0-11.0-0.0,voc_e2,12275,"[{""event"":""fullscreenenter"",""trial"":1,""time"":3354}]",NA,NA,NA,NA,NA,6,#741CD8,#D8271C,0,10,1,38,1,1700.8999999761581,37,1,334.39999997615814,0,1,experiment,NA,NA,2,0.5,0.5,4,5,3,1,NA
fcp-trial,51,422536,0.0-12.0-0.0,voc_e2,12275,"[{""event"":""fullscreenenter"",""trial"":1,""time"":3354}]",NA,NA,NA,NA,NA,5,#D8271C,#741CD8,10,10,0,40,0,2512.699999988079,37,1,1081.7000000476837,10,0,experiment,NA,NA,2,0.5,0.5,5,4,4,1,NA
fcp-trial,52,427090,0.0-13.0-0.0,voc_e2,12275,"[{""event"":""fullscreenenter"",""trial"":1,""time"":3354}]",NA,NA,NA,NA,NA,1,#FA92F8,#1CD855,0,10,0,38,1,2373.199999988079,39,0,676.5999999642372,10,1,experiment,NA,NA,1,0.3,0.7,3,2,5,1,NA
fcp-trial,53,431063,0.0-14.0-0.0,voc_e2,12275,"[{""event"":""fullscreenenter"",""trial"":1,""time"":3354}]",NA,NA,NA,NA,NA,0,#1CD855,#FA92F8,10,0,1,38,1,1735.7999999523163,39,0,731.1000000238419,0,0,experiment,NA,NA,1,0.7,0.3,2,3,6,1,NA
fcp-trial,54,438210,0.0-15.0-0.0,voc_e2,12275,"[{""event"":""fullscreenenter"",""trial"":1,""time"":3354}]",NA,NA,NA,NA,NA,1,#3386FF,#D89F1C,0,0,1,40,0,5021.100000023842,39,0,619.6000000238419,0,0,experiment,NA,NA,0,0.9,0.1,0,1,7,1,NA
fcp-trial,55,442537,0.0-16.0-0.0,voc_e2,12275,"[{""event"":""fullscreenenter"",""trial"":1,""time"":3354}]",NA,NA,NA,NA,NA,5,#FA92F8,#1CD855,0,0,0,38,1,1990.2999999523163,37,1,830.8999999761581,0,0,experiment,NA,NA,1,0.3,0.7,3,2,8,1,NA
fcp-trial,56,446568,0.0-17.0-0.0,voc_e2,12275,"[{""event"":""fullscreenenter"",""trial"":1,""time"":3354}]",NA,NA,NA,NA,NA,3,#741CD8,#D8271C,0,10,1,38,1,2109.899999976158,37,1,413.60000002384186,0,1,experiment,NA,NA,2,0.5,0.5,4,5,9,1,NA
fcp-trial,57,450492,0.0-18.0-0.0,voc_e2,12275,"[{""event"":""fullscreenenter"",""trial"":1,""time"":3354}]",NA,NA,NA,NA,NA,6,#3386FF,#D89F1C,10,0,1,38,1,2037,39,0,381.60000002384186,0,0,experiment,NA,NA,0,0.9,0.1,0,1,10,1,NA
fcp-trial,58,454590,0.0-19.0-0.0,voc_e2,12275,"[{""event"":""fullscreenenter"",""trial"":1,""time"":3354}]",NA,NA,NA,NA,NA,5,#3386FF,#D89F1C,10,0,1,40,0,1894.2000000476837,37,1,699.3000000119209,10,1,experiment,NA,NA,0,0.9,0.1,0,1,11,1,NA
fcp-trial,59,458361,0.0-20.0-0.0,voc_e2,12275,"[{""event"":""fullscreenenter"",""trial"":1,""time"":3354}]",NA,NA,NA,NA,NA,6,#1CD855,#FA92F8,10,10,1,38,1,1891.800000011921,37,1,369.4000000357628,10,1,experiment,NA,NA,1,0.7,0.3,2,3,12,1,NA
fcp-trial,60,462300,0.0-21.0-0.0,voc_e2,12275,"[{""event"":""fullscreenenter"",""trial"":1,""time"":3354}]",NA,NA,NA,NA,NA,2,#741CD8,#D8271C,10,0,1,38,1,2169.899999976158,39,0,263.5,0,0,experiment,NA,NA,2,0.5,0.5,4,5,13,1,NA
fcp-trial,61,466402,0.0-22.0-0.0,voc_e2,12275,"[{""event"":""fullscreenenter"",""trial"":1,""time"":3354}]",NA,NA,NA,NA,NA,3,#1CD855,#FA92F8,10,10,1,38,1,1799,37,1,797.6000000238419,10,1,experiment,NA,NA,1,0.7,0.3,2,3,14,1,NA
fcp-trial,62,469690,0.0-23.0-0.0,voc_e2,12275,"[{""event"":""fullscreenenter"",""trial"":1,""time"":3354}]",NA,NA,NA,NA,NA,4,#741CD8,#D8271C,10,0,1,38,1,1306.7000000476837,39,0,474.69999998807907,0,0,experiment,NA,NA,2,0.5,0.5,4,5,15,1,NA
fcp-trial,63,473596,0.0-24.0-0.0,voc_e2,12275,"[{""event"":""fullscreenenter"",""trial"":1,""time"":3354}]",NA,NA,NA,NA,NA,2,#D89F1C,#3386FF,0,10,0,38,1,1991.699999988079,39,0,409.4000000357628,10,1,experiment,NA,NA,0,0.1,0.9,1,0,16,1,NA
fcp-trial,64,479340,0.0-25.0-0.0,voc_e2,12275,"[{""event"":""fullscreenenter"",""trial"":1,""time"":3354}]",NA,NA,NA,NA,NA,1,#D8271C,#741CD8,0,10,0,38,1,3935.300000011921,37,1,301.19999998807907,0,0,experiment,NA,NA,2,0.5,0.5,5,4,17,1,NA
fcp-trial,65,483931,0.0-26.0-0.0,voc_e2,12275,"[{""event"":""fullscreenenter"",""trial"":1,""time"":3354}]",NA,NA,NA,NA,NA,2,#FA92F8,#1CD855,0,0,0,38,1,2680.899999976158,39,0,405,0,1,experiment,NA,NA,1,0.3,0.7,3,2,18,1,NA
fcp-trial,66,487410,0.0-27.0-0.0,voc_e2,12275,"[{""event"":""fullscreenenter"",""trial"":1,""time"":3354}]",NA,NA,NA,NA,NA,0,#3386FF,#D89F1C,10,0,1,38,1,1597.699999988079,37,1,372.80000001192093,10,1,experiment,NA,NA,0,0.9,0.1,0,1,19,1,NA
fcp-trial,67,490617,0.0-28.0-0.0,voc_e2,12275,"[{""event"":""fullscreenenter"",""trial"":1,""time"":3354}]",NA,NA,NA,NA,NA,4,#FA92F8,#1CD855,0,10,0,38,1,1407.800000011921,39,0,293.0999999642372,10,1,experiment,NA,NA,1,0.3,0.7,3,2,20,1,NA
fcp-trial,68,493753,0.0-29.0-0.0,voc_e2,12275,"[{""event"":""fullscreenenter"",""trial"":1,""time"":3354}]",NA,NA,NA,NA,NA,0,#D8271C,#741CD8,10,10,0,38,1,1204.5,39,0,424.30000001192093,10,1,experiment,NA,NA,2,0.5,0.5,5,4,21,1,NA
fcp-trial,69,497365,0.0-30.0-0.0,voc_e2,12275,"[{""event"":""fullscreenenter"",""trial"":1,""time"":3354}]",NA,NA,NA,NA,NA,3,#FA92F8,#1CD855,0,10,0,38,1,1761.2999999523163,39,0,346.39999997615814,10,1,experiment,NA,NA,1,0.3,0.7,3,2,22,1,NA
fcp-trial,70,500441,0.0-31.0-0.0,voc_e2,12275,"[{""event"":""fullscreenenter"",""trial"":1,""time"":3354}]",NA,NA,NA,NA,NA,3,#D8271C,#741CD8,0,10,0,38,1,1251.300000011921,39,0,317.5,10,1,experiment,NA,NA,2,0.5,0.5,5,4,23,1,NA
fcp-trial,71,503182,0.0-32.0-0.0,voc_e2,12275,"[{""event"":""fullscreenenter"",""trial"":1,""time"":3354}]",NA,NA,NA,NA,NA,0,#3386FF,#D89F1C,10,0,1,38,1,947,37,1,289,10,1,experiment,NA,NA,0,0.9,0.1,0,1,24,1,NA
fcp-trial,72,506117,0.0-33.0-0.0,voc_e2,12275,"[{""event"":""fullscreenenter"",""trial"":1,""time"":3354}]",NA,NA,NA,NA,NA,5,#1CD855,#FA92F8,0,0,1,38,1,734.4000000357628,37,1,695,0,1,experiment,NA,NA,1,0.7,0.3,2,3,25,1,NA
fcp-trial,73,508687,0.0-34.0-0.0,voc_e2,12275,"[{""event"":""fullscreenenter"",""trial"":1,""time"":3354}]",NA,NA,NA,NA,NA,2,#D8271C,#741CD8,0,10,0,38,1,713.3999999761581,39,0,350.19999998807907,10,1,experiment,NA,NA,2,0.5,0.5,5,4,26,1,NA
fcp-trial,74,511273,0.0-35.0-0.0,voc_e2,12275,"[{""event"":""fullscreenenter"",""trial"":1,""time"":3354}]",NA,NA,NA,NA,NA,4,#741CD8,#D8271C,10,0,1,38,1,754.5,37,1,327.5,10,1,experiment,NA,NA,2,0.5,0.5,4,5,27,1,NA
fcp-trial,75,513915,0.0-36.0-0.0,voc_e2,12275,"[{""event"":""fullscreenenter"",""trial"":1,""time"":3354}]",NA,NA,NA,NA,NA,2,#1CD855,#FA92F8,10,0,1,38,1,884.3000000119209,37,1,252.89999997615814,10,1,experiment,NA,NA,1,0.7,0.3,2,3,28,1,NA
fcp-trial,76,517710,0.0-37.0-0.0,voc_e2,12275,"[{""event"":""fullscreenenter"",""trial"":1,""time"":3354}]",NA,NA,NA,NA,NA,3,#3386FF,#D89F1C,10,0,1,38,1,1285.6000000238419,37,1,1000.1999999880791,10,1,experiment,NA,NA,0,0.9,0.1,0,1,29,1,NA
fcp-trial,77,520237,0.0-38.0-0.0,voc_e2,12275,"[{""event"":""fullscreenenter"",""trial"":1,""time"":3354}]",NA,NA,NA,NA,NA,5,#3386FF,#D89F1C,10,0,1,38,1,699.1999999880791,37,1,323.19999998807907,10,1,experiment,NA,NA,0,0.9,0.1,0,1,30,1,NA
fcp-trial,78,522987,0.0-39.0-0.0,voc_e2,12275,"[{""event"":""fullscreenenter"",""trial"":1,""time"":3354}]",NA,NA,NA,NA,NA,6,#741CD8,#D8271C,10,10,1,38,1,905.3000000119209,39,0,336.5,10,0,experiment,NA,NA,2,0.5,0.5,4,5,31,1,NA
fcp-trial,79,525732,0.0-40.0-0.0,voc_e2,12275,"[{""event"":""fullscreenenter"",""trial"":1,""time"":3354}]",NA,NA,NA,NA,NA,0,#D8271C,#741CD8,10,10,0,38,1,857.7000000476837,39,0,382.30000001192093,10,1,experiment,NA,NA,2,0.5,0.5,5,4,32,1,NA
fcp-trial,80,528409,0.0-41.0-0.0,voc_e2,12275,"[{""event"":""fullscreenenter"",""trial"":1,""time"":3354}]",NA,NA,NA,NA,NA,0,#FA92F8,#1CD855,10,0,0,38,1,843.3000000119209,39,0,324.19999998807907,0,1,experiment,NA,NA,1,0.3,0.7,3,2,33,1,NA
fcp-trial,81,531705,0.0-42.0-0.0,voc_e2,12275,"[{""event"":""fullscreenenter"",""trial"":1,""time"":3354}]",NA,NA,NA,NA,NA,2,#3386FF,#D89F1C,10,0,1,38,1,968.8999999761581,39,0,821.6999999880791,0,0,experiment,NA,NA,0,0.9,0.1,0,1,34,1,NA
fcp-trial,82,534516,0.0-43.0-0.0,voc_e2,12275,"[{""event"":""fullscreenenter"",""trial"":1,""time"":3354}]",NA,NA,NA,NA,NA,6,#3386FF,#D89F1C,10,0,1,38,1,551.7999999523163,37,1,752.6999999880791,10,1,experiment,NA,NA,0,0.9,0.1,0,1,35,1,NA
fcp-trial,83,537036,0.0-44.0-0.0,voc_e2,12275,"[{""event"":""fullscreenenter"",""trial"":1,""time"":3354}]",NA,NA,NA,NA,NA,5,#D8271C,#741CD8,10,10,0,38,1,662.4000000357628,39,0,352.9000000357628,10,1,experiment,NA,NA,2,0.5,0.5,5,4,36,1,NA
fcp-trial,84,539323,0.0-45.0-0.0,voc_e2,12275,"[{""event"":""fullscreenenter"",""trial"":1,""time"":3354}]",NA,NA,NA,NA,NA,1,#D89F1C,#3386FF,10,10,0,38,1,387.19999998807907,39,0,393.4000000357628,10,1,experiment,NA,NA,0,0.1,0.9,1,0,37,1,NA
fcp-trial,85,542043,0.0-46.0-0.0,voc_e2,12275,"[{""event"":""fullscreenenter"",""trial"":1,""time"":3354}]",NA,NA,NA,NA,NA,1,#FA92F8,#1CD855,0,10,0,38,1,860,39,0,356.10000002384186,10,1,experiment,NA,NA,1,0.3,0.7,3,2,38,1,NA
fcp-trial,86,544662,0.0-47.0-0.0,voc_e2,12275,"[{""event"":""fullscreenenter"",""trial"":1,""time"":3354}]",NA,NA,NA,NA,NA,1,#741CD8,#D8271C,10,0,1,38,1,736.5,37,1,369.80000001192093,10,1,experiment,NA,NA,2,0.5,0.5,4,5,39,1,NA
fcp-trial,87,547562,0.0-48.0-0.0,voc_e2,12275,"[{""event"":""fullscreenenter"",""trial"":1,""time"":3354}]",NA,NA,NA,NA,NA,4,#1CD855,#FA92F8,10,0,1,38,1,1145.2999999523163,37,1,250.69999998807907,10,1,experiment,NA,NA,1,0.7,0.3,2,3,40,1,NA
fcp-trial,88,550452,0.0-49.0-0.0,voc_e2,12275,"[{""event"":""fullscreenenter"",""trial"":1,""time"":3354}]",NA,NA,NA,NA,NA,4,#3386FF,#D89F1C,10,0,1,38,1,999.9000000357628,37,1,385.5999999642372,10,1,experiment,NA,NA,0,0.9,0.1,0,1,41,1,NA
fcp-trial,89,553165,0.0-50.0-0.0,voc_e2,12275,"[{""event"":""fullscreenenter"",""trial"":1,""time"":3354}]",NA,NA,NA,NA,NA,6,#FA92F8,#1CD855,10,0,0,38,1,755.3999999761581,39,0,447.30000001192093,0,1,experiment,NA,NA,1,0.3,0.7,3,2,42,1,NA
fcp-trial,90,556089,0.0-51.0-0.0,voc_e2,12275,"[{""event"":""fullscreenenter"",""trial"":1,""time"":3354}]",NA,NA,NA,NA,NA,2,#1CD855,#FA92F8,0,0,1,38,1,934.5,37,1,484.2000000476837,0,1,experiment,NA,NA,1,0.7,0.3,2,3,43,1,NA
fcp-trial,91,559093,0.0-52.0-0.0,voc_e2,12275,"[{""event"":""fullscreenenter"",""trial"":1,""time"":3354}]",NA,NA,NA,NA,NA,3,#3386FF,#D89F1C,10,0,1,38,1,1214.7999999523163,37,1,283,10,1,experiment,NA,NA,0,0.9,0.1,0,1,44,1,NA
fcp-trial,92,561411,0.0-53.0-0.0,voc_e2,12275,"[{""event"":""fullscreenenter"",""trial"":1,""time"":3354}]",NA,NA,NA,NA,NA,3,#FA92F8,#1CD855,0,10,0,38,1,529.5,39,0,281.80000001192093,10,1,experiment,NA,NA,1,0.3,0.7,3,2,45,1,NA
fcp-trial,93,563973,0.0-54.0-0.0,voc_e2,12275,"[{""event"":""fullscreenenter"",""trial"":1,""time"":3354}]",NA,NA,NA,NA,NA,1,#741CD8,#D8271C,0,0,1,38,1,710.8999999761581,37,1,346.5,0,1,experiment,NA,NA,2,0.5,0.5,4,5,46,2,NA
fcp-trial,94,567047,0.0-55.0-0.0,voc_e2,12275,"[{""event"":""fullscreenenter"",""trial"":1,""time"":3354}]",NA,NA,NA,NA,NA,2,#D8271C,#741CD8,10,10,0,38,1,983.5,39,0,580.3999999761581,10,1,experiment,NA,NA,2,0.5,0.5,5,4,47,2,NA
fcp-trial,95,569608,0.0-56.0-0.0,voc_e2,12275,"[{""event"":""fullscreenenter"",""trial"":1,""time"":3354}]",NA,NA,NA,NA,NA,0,#FA92F8,#1CD855,10,10,0,38,1,700.3999999761581,39,0,356.30000001192093,10,1,experiment,NA,NA,1,0.3,0.7,3,2,48,2,NA
fcp-trial,96,572075,0.0-57.0-0.0,voc_e2,12275,"[{""event"":""fullscreenenter"",""trial"":1,""time"":3354}]",NA,NA,NA,NA,NA,5,#D89F1C,#3386FF,0,10,0,38,1,679.6999999880791,39,0,281.60000002384186,10,1,experiment,NA,NA,0,0.1,0.9,1,0,49,2,NA
fcp-trial,97,574495,0.0-58.0-0.0,voc_e2,12275,"[{""event"":""fullscreenenter"",""trial"":1,""time"":3354}]",NA,NA,NA,NA,NA,5,#FA92F8,#1CD855,0,0,0,38,1,485.30000001192093,37,1,427.69999998807907,0,0,experiment,NA,NA,1,0.3,0.7,3,2,50,2,NA
fcp-trial,98,576947,0.0-59.0-0.0,voc_e2,12275,"[{""event"":""fullscreenenter"",""trial"":1,""time"":3354}]",NA,NA,NA,NA,NA,4,#D89F1C,#3386FF,0,10,0,38,1,646.1000000238419,39,0,301.69999998807907,10,1,experiment,NA,NA,0,0.1,0.9,1,0,51,2,NA
fcp-trial,99,579433,0.0-60.0-0.0,voc_e2,12275,"[{""event"":""fullscreenenter"",""trial"":1,""time"":3354}]",NA,NA,NA,NA,NA,3,#741CD8,#D8271C,0,0,1,38,1,544,37,1,436.80000001192093,0,1,experiment,NA,NA,2,0.5,0.5,4,5,52,2,NA
fcp-trial,100,581636,0.0-61.0-0.0,voc_e2,12275,"[{""event"":""fullscreenenter"",""trial"":1,""time"":3354}]",NA,NA,NA,NA,NA,4,#FA92F8,#1CD855,0,0,0,38,1,363.60000002384186,39,0,334.80000001192093,0,1,experiment,NA,NA,1,0.3,0.7,3,2,53,2,NA
fcp-trial,101,584157,0.0-62.0-0.0,voc_e2,12275,"[{""event"":""fullscreenenter"",""trial"":1,""time"":3354}]",NA,NA,NA,NA,NA,0,#D89F1C,#3386FF,0,0,0,38,1,713.5,39,0,302.39999997615814,0,1,experiment,NA,NA,0,0.1,0.9,1,0,54,2,NA
fcp-trial,102,587186,0.0-63.0-0.0,voc_e2,12275,"[{""event"":""fullscreenenter"",""trial"":1,""time"":3354}]",NA,NA,NA,NA,NA,5,#741CD8,#D8271C,10,0,1,38,1,692.6999999880791,37,1,830.5,10,1,experiment,NA,NA,2,0.5,0.5,4,5,55,2,NA
fcp-trial,103,589775,0.0-64.0-0.0,voc_e2,12275,"[{""event"":""fullscreenenter"",""trial"":1,""time"":3354}]",NA,NA,NA,NA,NA,4,#741CD8,#D8271C,10,10,1,38,1,609.5,37,1,475.30000001192093,10,1,experiment,NA,NA,2,0.5,0.5,4,5,56,2,NA
fcp-trial,104,592215,0.0-65.0-0.0,voc_e2,12275,"[{""event"":""fullscreenenter"",""trial"":1,""time"":3354}]",NA,NA,NA,NA,NA,1,#3386FF,#D89F1C,10,0,1,38,1,562.9000000357628,37,1,371,10,1,experiment,NA,NA,0,0.9,0.1,0,1,57,2,NA
fcp-trial,105,594813,0.0-66.0-0.0,voc_e2,12275,"[{""event"":""fullscreenenter"",""trial"":1,""time"":3354}]",NA,NA,NA,NA,NA,6,#1CD855,#FA92F8,10,0,1,38,1,510.0999999642372,37,1,583.6999999880791,10,1,experiment,NA,NA,1,0.7,0.3,2,3,58,2,NA
fcp-trial,106,597101,0.0-67.0-0.0,voc_e2,12275,"[{""event"":""fullscreenenter"",""trial"":1,""time"":3354}]",NA,NA,NA,NA,NA,6,#D8271C,#741CD8,10,10,0,38,1,464.5,39,0,318.30000001192093,10,1,experiment,NA,NA,2,0.5,0.5,5,4,59,2,NA
fcp-trial,107,599888,0.0-68.0-0.0,voc_e2,12275,"[{""event"":""fullscreenenter"",""trial"":1,""time"":3354}]",NA,NA,NA,NA,NA,0,#D8271C,#741CD8,0,0,0,38,1,732.3999999761581,39,0,548.8999999761581,0,1,experiment,NA,NA,2,0.5,0.5,5,4,60,2,NA
fcp-trial,108,602492,0.0-69.0-0.0,voc_e2,12275,"[{""event"":""fullscreenenter"",""trial"":1,""time"":3354}]",NA,NA,NA,NA,NA,6,#3386FF,#D89F1C,10,0,1,38,1,680.1999999880791,37,1,418.39999997615814,10,1,experiment,NA,NA,0,0.9,0.1,0,1,61,2,NA
fcp-trial,109,606053,0.0-70.0-0.0,voc_e2,12275,"[{""event"":""fullscreenenter"",""trial"":1,""time"":3354}]",NA,NA,NA,NA,NA,1,#FA92F8,#1CD855,10,10,0,40,0,414.2999999523163,39,0,1642.199999988079,10,1,experiment,NA,NA,1,0.3,0.7,3,2,62,2,NA
fcp-trial,110,611735,0.0-71.0-0.0,voc_e2,12275,"[{""event"":""fullscreenenter"",""trial"":1,""time"":3354}]",NA,NA,NA,NA,NA,2,#3386FF,#D89F1C,10,0,1,40,0,3127.300000011921,39,0,1045.5999999642372,0,0,experiment,NA,NA,0,0.9,0.1,0,1,63,2,NA
fcp-trial,111,616595,0.0-72.0-0.0,voc_e2,12275,"[{""event"":""fullscreenenter"",""trial"":1,""time"":3354}]",NA,NA,NA,NA,NA,1,#FA92F8,#1CD855,0,10,0,38,1,1883,37,1,1472.7000000476837,0,0,experiment,NA,NA,1,0.3,0.7,3,2,64,2,NA
fcp-trial,112,619762,0.0-73.0-0.0,voc_e2,12275,"[{""event"":""fullscreenenter"",""trial"":1,""time"":3354}]",NA,NA,NA,NA,NA,6,#1CD855,#FA92F8,0,0,1,38,1,1185.199999988079,39,0,473,0,0,experiment,NA,NA,1,0.7,0.3,2,3,65,2,NA
fcp-trial,113,622267,0.0-74.0-0.0,voc_e2,12275,"[{""event"":""fullscreenenter"",""trial"":1,""time"":3354}]",NA,NA,NA,NA,NA,4,#FA92F8,#1CD855,10,10,0,38,1,550.1000000238419,39,0,448.9000000357628,10,1,experiment,NA,NA,1,0.3,0.7,3,2,66,2,NA
fcp-trial,114,625601,0.0-75.0-0.0,voc_e2,12275,"[{""event"":""fullscreenenter"",""trial"":1,""time"":3354}]",NA,NA,NA,NA,NA,3,#D8271C,#741CD8,10,10,0,38,1,1285.5,39,0,544.5999999642372,10,1,experiment,NA,NA,2,0.5,0.5,5,4,67,2,NA
fcp-trial,115,629073,0.0-76.0-0.0,voc_e2,12275,"[{""event"":""fullscreenenter"",""trial"":1,""time"":3354}]",NA,NA,NA,NA,NA,2,#D89F1C,#3386FF,0,10,0,38,1,1113.699999988079,39,0,853.7000000476837,10,1,experiment,NA,NA,0,0.1,0.9,1,0,68,2,NA
fcp-trial,116,631874,0.0-77.0-0.0,voc_e2,12275,"[{""event"":""fullscreenenter"",""trial"":1,""time"":3354}]",NA,NA,NA,NA,NA,5,#1CD855,#FA92F8,0,0,1,38,1,701.1999999880791,39,0,596,0,0,experiment,NA,NA,1,0.7,0.3,2,3,69,2,NA
fcp-trial,117,634980,0.0-78.0-0.0,voc_e2,12275,"[{""event"":""fullscreenenter"",""trial"":1,""time"":3354}]",NA,NA,NA,NA,NA,4,#741CD8,#D8271C,10,0,1,38,1,1107.8999999761581,37,1,491.80000001192093,10,1,experiment,NA,NA,2,0.5,0.5,4,5,70,2,NA
fcp-trial,118,637650,0.0-79.0-0.0,voc_e2,12275,"[{""event"":""fullscreenenter"",""trial"":1,""time"":3354}]",NA,NA,NA,NA,NA,1,#D8271C,#741CD8,0,10,0,38,1,860.6000000238419,39,0,302.9000000357628,10,1,experiment,NA,NA,2,0.5,0.5,5,4,71,2,NA
fcp-trial,119,640843,0.0-80.0-0.0,voc_e2,12275,"[{""event"":""fullscreenenter"",""trial"":1,""time"":3354}]",NA,NA,NA,NA,NA,3,#FA92F8,#1CD855,0,0,0,38,1,609.5,39,0,1078.1000000238419,0,1,experiment,NA,NA,1,0.3,0.7,3,2,72,2,NA
fcp-trial,120,643374,0.0-81.0-0.0,voc_e2,12275,"[{""event"":""fullscreenenter"",""trial"":1,""time"":3354}]",NA,NA,NA,NA,NA,4,#D89F1C,#3386FF,0,0,0,38,1,641.5,39,0,381.30000001192093,0,1,experiment,NA,NA,0,0.1,0.9,1,0,73,2,NA
fcp-trial,121,645918,0.0-82.0-0.0,voc_e2,12275,"[{""event"":""fullscreenenter"",""trial"":1,""time"":3354}]",NA,NA,NA,NA,NA,5,#D8271C,#741CD8,10,10,0,38,1,700.0999999642372,37,1,337.2999999523163,10,0,experiment,NA,NA,2,0.5,0.5,5,4,74,2,NA
fcp-trial,122,648889,0.0-83.0-0.0,voc_e2,12275,"[{""event"":""fullscreenenter"",""trial"":1,""time"":3354}]",NA,NA,NA,NA,NA,6,#741CD8,#D8271C,10,10,1,38,1,618.2000000476837,37,1,843.6000000238419,10,1,experiment,NA,NA,2,0.5,0.5,4,5,75,2,NA
fcp-trial,123,651264,0.0-84.0-0.0,voc_e2,12275,"[{""event"":""fullscreenenter"",""trial"":1,""time"":3354}]",NA,NA,NA,NA,NA,0,#3386FF,#D89F1C,10,0,1,38,1,551.1000000238419,37,1,316.7999999523163,10,1,experiment,NA,NA,0,0.9,0.1,0,1,76,2,NA
fcp-trial,124,654101,0.0-85.0-0.0,voc_e2,12275,"[{""event"":""fullscreenenter"",""trial"":1,""time"":3354}]",NA,NA,NA,NA,NA,2,#1CD855,#FA92F8,10,0,1,38,1,914,37,1,417.39999997615814,10,1,experiment,NA,NA,1,0.7,0.3,2,3,77,2,NA
fcp-trial,125,656555,0.0-86.0-0.0,voc_e2,12275,"[{""event"":""fullscreenenter"",""trial"":1,""time"":3354}]",NA,NA,NA,NA,NA,5,#3386FF,#D89F1C,10,0,1,38,1,663.1000000238419,37,1,285.30000001192093,10,1,experiment,NA,NA,0,0.9,0.1,0,1,78,2,NA
fcp-trial,126,658957,0.0-87.0-0.0,voc_e2,12275,"[{""event"":""fullscreenenter"",""trial"":1,""time"":3354}]",NA,NA,NA,NA,NA,1,#3386FF,#D89F1C,10,0,1,38,1,583.3000000119209,37,1,312.7999999523163,10,1,experiment,NA,NA,0,0.9,0.1,0,1,79,2,NA
fcp-trial,127,661466,0.0-88.0-0.0,voc_e2,12275,"[{""event"":""fullscreenenter"",""trial"":1,""time"":3354}]",NA,NA,NA,NA,NA,2,#741CD8,#D8271C,10,0,1,38,1,747.1999999880791,37,1,256.80000001192093,10,1,experiment,NA,NA,2,0.5,0.5,4,5,80,2,NA
fcp-trial,128,663683,0.0-89.0-0.0,voc_e2,12275,"[{""event"":""fullscreenenter"",""trial"":1,""time"":3354}]",NA,NA,NA,NA,NA,3,#D89F1C,#3386FF,0,10,0,38,1,405.5999999642372,39,0,301.60000002384186,10,1,experiment,NA,NA,0,0.1,0.9,1,0,81,2,NA
fcp-trial,129,666815,0.0-90.0-0.0,voc_e2,12275,"[{""event"":""fullscreenenter"",""trial"":1,""time"":3354}]",NA,NA,NA,NA,NA,0,#1CD855,#FA92F8,0,0,1,38,1,1228.1000000238419,37,1,397.30000001192093,0,1,experiment,NA,NA,1,0.7,0.3,2,3,82,2,NA
fcp-trial,130,669403,0.0-91.0-0.0,voc_e2,12275,"[{""event"":""fullscreenenter"",""trial"":1,""time"":3354}]",NA,NA,NA,NA,NA,0,#D8271C,#741CD8,0,10,0,38,1,651.6999999880791,37,1,429.60000002384186,0,0,experiment,NA,NA,2,0.5,0.5,5,4,83,2,NA
fcp-trial,131,671955,0.0-92.0-0.0,voc_e2,12275,"[{""event"":""fullscreenenter"",""trial"":1,""time"":3354}]",NA,NA,NA,NA,NA,6,#3386FF,#D89F1C,10,0,1,38,1,777.5999999642372,39,0,267.7000000476837,0,0,experiment,NA,NA,0,0.9,0.1,0,1,84,2,NA
fcp-trial,132,674937,0.0-93.0-0.0,voc_e2,12275,"[{""event"":""fullscreenenter"",""trial"":1,""time"":3354}]",NA,NA,NA,NA,NA,6,#D89F1C,#3386FF,0,10,0,38,1,746.4000000357628,39,0,731.6000000238419,10,1,experiment,NA,NA,0,0.1,0.9,1,0,85,2,NA
fcp-trial,133,677558,0.0-94.0-0.0,voc_e2,12275,"[{""event"":""fullscreenenter"",""trial"":1,""time"":3354}]",NA,NA,NA,NA,NA,1,#D89F1C,#3386FF,0,10,0,38,1,618.5,39,0,496.0999999642372,10,1,experiment,NA,NA,0,0.1,0.9,1,0,86,2,NA
fcp-trial,134,680830,0.0-95.0-0.0,voc_e2,12275,"[{""event"":""fullscreenenter"",""trial"":1,""time"":3354}]",NA,NA,NA,NA,NA,6,#1CD855,#FA92F8,10,0,1,38,1,766.8000000119209,37,1,1000.7999999523163,10,1,experiment,NA,NA,1,0.7,0.3,2,3,87,2,NA
fcp-trial,135,683398,0.0-96.0-0.0,voc_e2,12275,"[{""event"":""fullscreenenter"",""trial"":1,""time"":3354}]",NA,NA,NA,NA,NA,1,#1CD855,#FA92F8,10,10,1,38,1,544.9000000357628,39,0,518.8000000119209,10,0,experiment,NA,NA,1,0.7,0.3,2,3,88,2,NA
fcp-trial,136,685920,0.0-97.0-0.0,voc_e2,12275,"[{""event"":""fullscreenenter"",""trial"":1,""time"":3354}]",NA,NA,NA,NA,NA,1,#741CD8,#D8271C,0,10,1,38,1,566.0999999642372,37,1,449.9000000357628,0,1,experiment,NA,NA,2,0.5,0.5,4,5,89,2,NA
fcp-trial,137,688306,0.0-98.0-0.0,voc_e2,12275,"[{""event"":""fullscreenenter"",""trial"":1,""time"":3354}]",NA,NA,NA,NA,NA,0,#FA92F8,#1CD855,0,0,0,38,1,472.2000000476837,39,0,407.4000000357628,0,1,experiment,NA,NA,1,0.3,0.7,3,2,90,2,NA
fcp-trial,138,690765,0.0-99.0-0.0,voc_e2,12275,"[{""event"":""fullscreenenter"",""trial"":1,""time"":3354}]",NA,NA,NA,NA,NA,4,#3386FF,#D89F1C,10,0,1,38,1,494.5999999642372,39,0,458.80000001192093,0,0,experiment,NA,NA,0,0.9,0.1,0,1,91,3,NA
fcp-trial,139,693667,0.0-100.0-0.0,voc_e2,12275,"[{""event"":""fullscreenenter"",""trial"":1,""time"":3354}]",NA,NA,NA,NA,NA,0,#D89F1C,#3386FF,10,0,0,38,1,914.5,39,0,482.39999997615814,0,1,experiment,NA,NA,0,0.1,0.9,1,0,92,3,NA
fcp-trial,140,696368,0.0-101.0-0.0,voc_e2,12275,"[{""event"":""fullscreenenter"",""trial"":1,""time"":3354}]",NA,NA,NA,NA,NA,3,#D89F1C,#3386FF,0,10,0,40,0,506.7999999523163,37,1,685,0,0,experiment,NA,NA,0,0.1,0.9,1,0,93,3,NA
fcp-trial,141,699159,0.0-102.0-0.0,voc_e2,12275,"[{""event"":""fullscreenenter"",""trial"":1,""time"":3354}]",NA,NA,NA,NA,NA,6,#D8271C,#741CD8,0,10,0,40,0,611.6999999880791,39,0,673.3000000119209,10,1,experiment,NA,NA,2,0.5,0.5,5,4,94,3,NA
fcp-trial,142,701919,0.0-103.0-0.0,voc_e2,12275,"[{""event"":""fullscreenenter"",""trial"":1,""time"":3354}]",NA,NA,NA,NA,NA,5,#1CD855,#FA92F8,0,10,1,40,0,517.1999999880791,37,1,734.4000000357628,0,1,experiment,NA,NA,1,0.7,0.3,2,3,95,3,NA
fcp-trial,143,704346,0.0-104.0-0.0,voc_e2,12275,"[{""event"":""fullscreenenter"",""trial"":1,""time"":3354}]",NA,NA,NA,NA,NA,4,#1CD855,#FA92F8,10,10,1,38,1,596.8999999761581,39,0,322.9000000357628,10,0,experiment,NA,NA,1,0.7,0.3,2,3,96,3,NA
fcp-trial,144,706812,0.0-105.0-0.0,voc_e2,12275,"[{""event"":""fullscreenenter"",""trial"":1,""time"":3354}]",NA,NA,NA,NA,NA,2,#3386FF,#D89F1C,10,0,1,38,1,610.8000000119209,39,0,349.5,0,0,experiment,NA,NA,0,0.9,0.1,0,1,97,3,NA
fcp-trial,145,709498,0.0-106.0-0.0,voc_e2,12275,"[{""event"":""fullscreenenter"",""trial"":1,""time"":3354}]",NA,NA,NA,NA,NA,2,#741CD8,#D8271C,0,0,1,38,1,484,37,1,696.5,0,1,experiment,NA,NA,2,0.5,0.5,4,5,98,3,NA
fcp-trial,146,714359,0.0-107.0-0.0,voc_e2,12275,"[{""event"":""fullscreenenter"",""trial"":1,""time"":3354}]",NA,NA,NA,NA,NA,0,#741CD8,#D8271C,0,0,1,38,1,1062.5999999642372,37,1,2294.199999988079,0,1,experiment,NA,NA,2,0.5,0.5,4,5,99,3,NA
fcp-trial,147,718207,0.0-108.0-0.0,voc_e2,12275,"[{""event"":""fullscreenenter"",""trial"":1,""time"":3354}]",NA,NA,NA,NA,NA,3,#FA92F8,#1CD855,0,10,0,38,1,944.8000000119209,39,0,1392.800000011921,10,1,experiment,NA,NA,1,0.3,0.7,3,2,100,3,NA
fcp-trial,148,721177,0.0-109.0-0.0,voc_e2,12275,"[{""event"":""fullscreenenter"",""trial"":1,""time"":3354}]",NA,NA,NA,NA,NA,5,#D8271C,#741CD8,0,10,0,38,1,696.6999999880791,39,0,767,10,1,experiment,NA,NA,2,0.5,0.5,5,4,101,3,NA
fcp-trial,149,724127,0.0-110.0-0.0,voc_e2,12275,"[{""event"":""fullscreenenter"",""trial"":1,""time"":3354}]",NA,NA,NA,NA,NA,5,#3386FF,#D89F1C,10,0,1,38,1,828.0999999642372,37,1,617.1999999880791,10,1,experiment,NA,NA,0,0.9,0.1,0,1,102,3,NA
fcp-trial,150,726467,0.0-111.0-0.0,voc_e2,12275,"[{""event"":""fullscreenenter"",""trial"":1,""time"":3354}]",NA,NA,NA,NA,NA,2,#1CD855,#FA92F8,10,0,1,38,1,451.2000000476837,37,1,383.19999998807907,10,1,experiment,NA,NA,1,0.7,0.3,2,3,103,3,NA
fcp-trial,151,728772,0.0-112.0-0.0,voc_e2,12275,"[{""event"":""fullscreenenter"",""trial"":1,""time"":3354}]",NA,NA,NA,NA,NA,3,#D8271C,#741CD8,10,0,0,38,1,418,39,0,381.60000002384186,0,1,experiment,NA,NA,2,0.5,0.5,5,4,104,3,NA
fcp-trial,152,731473,0.0-113.0-0.0,voc_e2,12275,"[{""event"":""fullscreenenter"",""trial"":1,""time"":3354}]",NA,NA,NA,NA,NA,4,#741CD8,#D8271C,0,0,1,38,1,419.69999998807907,37,1,774.0999999642372,0,1,experiment,NA,NA,2,0.5,0.5,4,5,105,3,NA
audio-instructions,153,737277,0.0-114.0,voc_e2,12275,"[{""event"":""fullscreenenter"",""trial"":1,""time"":3354}]",NA,639.4000000357628,static/audio/pause.wav,NA,0,NA,NA,NA,NA,NA,NA,NA,NA,NA,NA,NA,NA,NA,NA,NA,NA,NA,NA,NA,NA,NA,NA,NA,NA,NA
fcp-trial,154,740958,0.0-115.0-0.0,voc_e2,12275,"[{""event"":""fullscreenenter"",""trial"":1,""time"":3354}]",NA,NA,NA,NA,NA,4,#D89F1C,#3386FF,0,10,0,38,1,1737.5999999642372,39,0,438.69999998807907,10,1,experiment,NA,NA,0,0.1,0.9,1,0,106,3,NA
fcp-trial,155,743470,0.0-116.0-0.0,voc_e2,12275,"[{""event"":""fullscreenenter"",""trial"":1,""time"":3354}]",NA,NA,NA,NA,NA,1,#1CD855,#FA92F8,10,0,1,38,1,599.8999999761581,39,0,403.2999999523163,0,0,experiment,NA,NA,1,0.7,0.3,2,3,107,3,NA
fcp-trial,156,745773,0.0-117.0-0.0,voc_e2,12275,"[{""event"":""fullscreenenter"",""trial"":1,""time"":3354}]",NA,NA,NA,NA,NA,3,#1CD855,#FA92F8,0,0,1,38,1,440.60000002384186,37,1,358.19999998807907,0,1,experiment,NA,NA,1,0.7,0.3,2,3,108,3,NA
fcp-trial,157,748698,0.0-118.0-0.0,voc_e2,12275,"[{""event"":""fullscreenenter"",""trial"":1,""time"":3354}]",NA,NA,NA,NA,NA,3,#3386FF,#D89F1C,10,0,1,38,1,454,39,0,965.3999999761581,0,0,experiment,NA,NA,0,0.9,0.1,0,1,109,3,NA
fcp-trial,158,751219,0.0-119.0-0.0,voc_e2,12275,"[{""event"":""fullscreenenter"",""trial"":1,""time"":3354}]",NA,NA,NA,NA,NA,2,#FA92F8,#1CD855,0,0,0,38,1,292.69999998807907,39,0,719.8000000119209,0,1,experiment,NA,NA,1,0.3,0.7,3,2,110,3,NA
fcp-trial,159,753570,0.0-120.0-0.0,voc_e2,12275,"[{""event"":""fullscreenenter"",""trial"":1,""time"":3354}]",NA,NA,NA,NA,NA,1,#D89F1C,#3386FF,0,10,0,38,1,394.5,39,0,448.2000000476837,10,1,experiment,NA,NA,0,0.1,0.9,1,0,111,3,NA
fcp-trial,160,756102,0.0-121.0-0.0,voc_e2,12275,"[{""event"":""fullscreenenter"",""trial"":1,""time"":3354}]",NA,NA,NA,NA,NA,0,#FA92F8,#1CD855,0,0,0,38,1,371.60000002384186,37,1,652.5,0,0,experiment,NA,NA,1,0.3,0.7,3,2,112,3,NA
fcp-trial,161,758517,0.0-122.0-0.0,voc_e2,12275,"[{""event"":""fullscreenenter"",""trial"":1,""time"":3354}]",NA,NA,NA,NA,NA,5,#741CD8,#D8271C,0,10,1,38,1,488,37,1,420.0999999642372,0,1,experiment,NA,NA,2,0.5,0.5,4,5,113,3,NA
fcp-trial,162,761075,0.0-123.0-0.0,voc_e2,12275,"[{""event"":""fullscreenenter"",""trial"":1,""time"":3354}]",NA,NA,NA,NA,NA,4,#FA92F8,#1CD855,10,10,0,38,1,629.6999999880791,39,0,422.19999998807907,10,1,experiment,NA,NA,1,0.3,0.7,3,2,114,3,NA
fcp-trial,163,763708,0.0-124.0-0.0,voc_e2,12275,"[{""event"":""fullscreenenter"",""trial"":1,""time"":3354}]",NA,NA,NA,NA,NA,6,#D8271C,#741CD8,0,0,0,38,1,599.8000000119209,39,0,528.0999999642372,0,1,experiment,NA,NA,2,0.5,0.5,5,4,115,3,NA
fcp-trial,164,766497,0.0-125.0-0.0,voc_e2,12275,"[{""event"":""fullscreenenter"",""trial"":1,""time"":3354}]",NA,NA,NA,NA,NA,2,#3386FF,#D89F1C,10,10,1,38,1,646.3000000119209,37,1,638.3999999761581,10,1,experiment,NA,NA,0,0.9,0.1,0,1,116,3,NA
fcp-trial,165,769220,0.0-126.0-0.0,voc_e2,12275,"[{""event"":""fullscreenenter"",""trial"":1,""time"":3354}]",NA,NA,NA,NA,NA,4,#741CD8,#D8271C,0,0,1,38,1,871.0999999642372,39,0,345.69999998807907,0,0,experiment,NA,NA,2,0.5,0.5,4,5,117,3,NA
fcp-trial,166,771810,0.0-127.0-0.0,voc_e2,12275,"[{""event"":""fullscreenenter"",""trial"":1,""time"":3354}]",NA,NA,NA,NA,NA,0,#D8271C,#741CD8,10,10,0,38,1,668.7000000476837,37,1,413.19999998807907,10,0,experiment,NA,NA,2,0.5,0.5,5,4,118,3,NA
fcp-trial,167,774274,0.0-128.0-0.0,voc_e2,12275,"[{""event"":""fullscreenenter"",""trial"":1,""time"":3354}]",NA,NA,NA,NA,NA,6,#1CD855,#FA92F8,0,0,1,38,1,608.3000000119209,39,0,347.39999997615814,0,0,experiment,NA,NA,1,0.7,0.3,2,3,119,3,NA
fcp-trial,168,776826,0.0-129.0-0.0,voc_e2,12275,"[{""event"":""fullscreenenter"",""trial"":1,""time"":3354}]",NA,NA,NA,NA,NA,6,#3386FF,#D89F1C,10,0,1,38,1,632.5,37,1,414.7999999523163,10,1,experiment,NA,NA,0,0.9,0.1,0,1,120,3,NA
fcp-trial,169,779313,0.0-130.0-0.0,voc_e2,12275,"[{""event"":""fullscreenenter"",""trial"":1,""time"":3354}]",NA,NA,NA,NA,NA,0,#D89F1C,#3386FF,0,10,0,38,1,633.1000000238419,39,0,346.69999998807907,10,1,experiment,NA,NA,0,0.1,0.9,1,0,121,3,NA
fcp-trial,170,781553,0.0-131.0-0.0,voc_e2,12275,"[{""event"":""fullscreenenter"",""trial"":1,""time"":3354}]",NA,NA,NA,NA,NA,5,#1CD855,#FA92F8,10,10,1,38,1,409.9000000357628,37,1,325.19999998807907,10,1,experiment,NA,NA,1,0.7,0.3,2,3,122,3,NA
fcp-trial,171,784366,0.0-132.0-0.0,voc_e2,12275,"[{""event"":""fullscreenenter"",""trial"":1,""time"":3354}]",NA,NA,NA,NA,NA,2,#D8271C,#741CD8,0,0,0,38,1,1022.8000000119209,37,1,281.5,0,0,experiment,NA,NA,2,0.5,0.5,5,4,123,3,NA
fcp-trial,172,786671,0.0-133.0-0.0,voc_e2,12275,"[{""event"":""fullscreenenter"",""trial"":1,""time"":3354}]",NA,NA,NA,NA,NA,1,#741CD8,#D8271C,0,0,1,38,1,329.69999998807907,39,0,470.5999999642372,0,0,experiment,NA,NA,2,0.5,0.5,4,5,124,3,NA
fcp-trial,173,789170,0.0-134.0-0.0,voc_e2,12275,"[{""event"":""fullscreenenter"",""trial"":1,""time"":3354}]",NA,NA,NA,NA,NA,5,#D89F1C,#3386FF,10,10,0,38,1,645.6000000238419,39,0,348.80000001192093,10,1,experiment,NA,NA,0,0.1,0.9,1,0,125,3,NA
fcp-trial,174,791657,0.0-135.0-0.0,voc_e2,12275,"[{""event"":""fullscreenenter"",""trial"":1,""time"":3354}]",NA,NA,NA,NA,NA,3,#741CD8,#D8271C,10,0,1,38,1,452.89999997615814,37,1,528.3000000119209,10,1,experiment,NA,NA,2,0.5,0.5,4,5,126,3,NA
fcp-trial,175,795294,0.0-136.0-0.0,voc_e2,12275,"[{""event"":""fullscreenenter"",""trial"":1,""time"":3354}]",NA,NA,NA,NA,NA,4,#D8271C,#741CD8,10,10,0,38,1,1734.9000000357628,39,0,396.9000000357628,10,1,experiment,NA,NA,2,0.5,0.5,5,4,127,3,NA
fcp-trial,176,800501,0.0-137.0-0.0,voc_e2,12275,"[{""event"":""fullscreenenter"",""trial"":1,""time"":3354}]",NA,NA,NA,NA,NA,6,#FA92F8,#1CD855,0,10,0,38,1,1203.5999999642372,39,0,2496.800000011921,10,1,experiment,NA,NA,1,0.3,0.7,3,2,128,3,NA
fcp-trial,177,803102,0.0-138.0-0.0,voc_e2,12275,"[{""event"":""fullscreenenter"",""trial"":1,""time"":3354}]",NA,NA,NA,NA,NA,5,#FA92F8,#1CD855,0,10,0,38,1,733.8000000119209,39,0,363.30000001192093,10,1,experiment,NA,NA,1,0.3,0.7,3,2,129,3,NA
fcp-trial,178,805871,0.0-139.0-0.0,voc_e2,12275,"[{""event"":""fullscreenenter"",""trial"":1,""time"":3354}]",NA,NA,NA,NA,NA,1,#D89F1C,#3386FF,0,10,0,38,1,745.5,39,0,516.2999999523163,10,1,experiment,NA,NA,0,0.1,0.9,1,0,130,3,NA
fcp-trial,179,808591,0.0-140.0-0.0,voc_e2,12275,"[{""event"":""fullscreenenter"",""trial"":1,""time"":3354}]",NA,NA,NA,NA,NA,3,#FA92F8,#1CD855,0,10,0,38,1,449.19999998807907,37,1,766.1999999880791,0,0,experiment,NA,NA,1,0.3,0.7,3,2,131,3,NA
fcp-trial,180,811762,0.0-141.0-0.0,voc_e2,12275,"[{""event"":""fullscreenenter"",""trial"":1,""time"":3354}]",NA,NA,NA,NA,NA,6,#741CD8,#D8271C,0,0,1,38,1,914.4000000357628,39,0,751.8000000119209,0,0,experiment,NA,NA,2,0.5,0.5,4,5,132,3,NA
fcp-trial,181,814789,0.0-142.0-0.0,voc_e2,12275,"[{""event"":""fullscreenenter"",""trial"":1,""time"":3354}]",NA,NA,NA,NA,NA,4,#1CD855,#FA92F8,10,10,1,38,1,511.9000000357628,39,0,1009.8000000119209,10,0,experiment,NA,NA,1,0.7,0.3,2,3,133,3,NA
fcp-trial,182,817624,0.0-143.0-0.0,voc_e2,12275,"[{""event"":""fullscreenenter"",""trial"":1,""time"":3354}]",NA,NA,NA,NA,NA,2,#3386FF,#D89F1C,10,0,1,38,1,958.5,37,1,369.80000001192093,10,1,experiment,NA,NA,0,0.9,0.1,0,1,134,3,NA
fcp-trial,183,820304,0.0-144.0-0.0,voc_e2,12275,"[{""event"":""fullscreenenter"",""trial"":1,""time"":3354}]",NA,NA,NA,NA,NA,2,#741CD8,#D8271C,10,0,1,38,1,634.3999999761581,37,1,541.1999999880791,10,1,experiment,NA,NA,2,0.5,0.5,4,5,135,3,NA
fcp-trial,184,822791,0.0-145.0-0.0,voc_e2,12275,"[{""event"":""fullscreenenter"",""trial"":1,""time"":3354}]",NA,NA,NA,NA,NA,0,#D89F1C,#3386FF,0,10,0,38,1,350.0999999642372,39,0,630.6999999880791,10,1,experiment,NA,NA,0,0.1,0.9,1,0,136,4,NA
fcp-trial,185,825051,0.0-146.0-0.0,voc_e2,12275,"[{""event"":""fullscreenenter"",""trial"":1,""time"":3354}]",NA,NA,NA,NA,NA,3,#D89F1C,#3386FF,0,10,0,38,1,384.0999999642372,39,0,371.4000000357628,10,1,experiment,NA,NA,0,0.1,0.9,1,0,137,4,NA
fcp-trial,186,828179,0.0-147.0-0.0,voc_e2,12275,"[{""event"":""fullscreenenter"",""trial"":1,""time"":3354}]",NA,NA,NA,NA,NA,0,#1CD855,#FA92F8,0,10,1,38,1,403.4000000357628,39,0,1216.0999999642372,10,0,experiment,NA,NA,1,0.7,0.3,2,3,138,4,NA
fcp-trial,187,830553,0.0-148.0-0.0,voc_e2,12275,"[{""event"":""fullscreenenter"",""trial"":1,""time"":3354}]",NA,NA,NA,NA,NA,1,#741CD8,#D8271C,10,10,1,38,1,485.80000001192093,37,1,381.89999997615814,10,1,experiment,NA,NA,2,0.5,0.5,4,5,139,4,NA
fcp-trial,188,832770,0.0-149.0-0.0,voc_e2,12275,"[{""event"":""fullscreenenter"",""trial"":1,""time"":3354}]",NA,NA,NA,NA,NA,0,#741CD8,#D8271C,0,10,1,38,1,362.10000002384186,39,0,350,10,0,experiment,NA,NA,2,0.5,0.5,4,5,140,4,NA
fcp-trial,189,835605,0.0-150.0-0.0,voc_e2,12275,"[{""event"":""fullscreenenter"",""trial"":1,""time"":3354}]",NA,NA,NA,NA,NA,4,#D89F1C,#3386FF,0,10,0,38,1,588.4000000357628,39,0,743.0999999642372,10,1,experiment,NA,NA,0,0.1,0.9,1,0,141,4,NA
fcp-trial,190,837911,0.0-151.0-0.0,voc_e2,12275,"[{""event"":""fullscreenenter"",""trial"":1,""time"":3354}]",NA,NA,NA,NA,NA,2,#FA92F8,#1CD855,0,0,0,38,1,452.19999998807907,37,1,349.30000001192093,0,0,experiment,NA,NA,1,0.3,0.7,3,2,142,4,NA
fcp-trial,191,840667,0.0-152.0-0.0,voc_e2,12275,"[{""event"":""fullscreenenter"",""trial"":1,""time"":3354}]",NA,NA,NA,NA,NA,1,#FA92F8,#1CD855,0,0,0,38,1,925.3000000119209,39,0,324.30000001192093,0,1,experiment,NA,NA,1,0.3,0.7,3,2,143,4,NA
fcp-trial,192,842966,0.0-153.0-0.0,voc_e2,12275,"[{""event"":""fullscreenenter"",""trial"":1,""time"":3354}]",NA,NA,NA,NA,NA,5,#741CD8,#D8271C,10,0,1,38,1,422.4000000357628,37,1,369.69999998807907,10,1,experiment,NA,NA,2,0.5,0.5,4,5,144,4,NA
fcp-trial,193,845429,0.0-154.0-0.0,voc_e2,12275,"[{""event"":""fullscreenenter"",""trial"":1,""time"":3354}]",NA,NA,NA,NA,NA,5,#D89F1C,#3386FF,0,0,0,38,1,610.6999999880791,39,0,346.0999999642372,0,1,experiment,NA,NA,0,0.1,0.9,1,0,145,4,NA
fcp-trial,194,848038,0.0-155.0-0.0,voc_e2,12275,"[{""event"":""fullscreenenter"",""trial"":1,""time"":3354}]",NA,NA,NA,NA,NA,6,#D89F1C,#3386FF,0,10,0,38,1,632,37,1,470.30000001192093,0,0,experiment,NA,NA,0,0.1,0.9,1,0,146,4,NA
fcp-trial,195,850590,0.0-156.0-0.0,voc_e2,12275,"[{""event"":""fullscreenenter"",""trial"":1,""time"":3354}]",NA,NA,NA,NA,NA,3,#741CD8,#D8271C,10,0,1,38,1,451.69999998807907,37,1,595.1999999880791,10,1,experiment,NA,NA,2,0.5,0.5,4,5,147,4,NA
fcp-trial,196,853185,0.0-157.0-0.0,voc_e2,12275,"[{""event"":""fullscreenenter"",""trial"":1,""time"":3354}]",NA,NA,NA,NA,NA,2,#3386FF,#D89F1C,10,0,1,38,1,296.80000001192093,37,1,793.8000000119209,10,1,experiment,NA,NA,0,0.9,0.1,0,1,148,4,NA
fcp-trial,197,855498,0.0-158.0-0.0,voc_e2,12275,"[{""event"":""fullscreenenter"",""trial"":1,""time"":3354}]",NA,NA,NA,NA,NA,2,#1CD855,#FA92F8,10,10,1,38,1,422.2999999523163,39,0,381.5,10,0,experiment,NA,NA,1,0.7,0.3,2,3,149,4,NA
fcp-trial,198,857937,0.0-159.0-0.0,voc_e2,12275,"[{""event"":""fullscreenenter"",""trial"":1,""time"":3354}]",NA,NA,NA,NA,NA,6,#FA92F8,#1CD855,0,10,0,38,1,567.6999999880791,37,1,365.7000000476837,0,0,experiment,NA,NA,1,0.3,0.7,3,2,150,4,NA
fcp-trial,199,860784,0.0-160.0-0.0,voc_e2,12275,"[{""event"":""fullscreenenter"",""trial"":1,""time"":3354}]",NA,NA,NA,NA,NA,1,#3386FF,#D89F1C,10,0,1,38,1,438.69999998807907,37,1,898.6999999880791,10,1,experiment,NA,NA,0,0.9,0.1,0,1,151,4,NA
fcp-trial,200,863609,0.0-161.0-0.0,voc_e2,12275,"[{""event"":""fullscreenenter"",""trial"":1,""time"":3354}]",NA,NA,NA,NA,NA,5,#FA92F8,#1CD855,0,10,0,38,1,241.5,37,1,1076.699999988079,0,0,experiment,NA,NA,1,0.3,0.7,3,2,152,4,NA
fcp-trial,201,865918,0.0-162.0-0.0,voc_e2,12275,"[{""event"":""fullscreenenter"",""trial"":1,""time"":3354}]",NA,NA,NA,NA,NA,6,#D89F1C,#3386FF,0,10,0,38,1,488.5,39,0,314.19999998807907,10,1,experiment,NA,NA,0,0.1,0.9,1,0,153,4,NA
fcp-trial,202,868641,0.0-163.0-0.0,voc_e2,12275,"[{""event"":""fullscreenenter"",""trial"":1,""time"":3354}]",NA,NA,NA,NA,NA,0,#741CD8,#D8271C,10,0,1,38,1,461.5,37,1,754.3000000119209,10,1,experiment,NA,NA,2,0.5,0.5,4,5,154,4,NA
fcp-trial,203,870880,0.0-164.0-0.0,voc_e2,12275,"[{""event"":""fullscreenenter"",""trial"":1,""time"":3354}]",NA,NA,NA,NA,NA,4,#D8271C,#741CD8,0,0,0,38,1,329.10000002384186,39,0,405.80000001192093,0,1,experiment,NA,NA,2,0.5,0.5,5,4,155,4,NA
fcp-trial,204,873828,0.0-165.0-0.0,voc_e2,12275,"[{""event"":""fullscreenenter"",""trial"":1,""time"":3354}]",NA,NA,NA,NA,NA,2,#741CD8,#D8271C,10,0,1,40,0,618.8000000119209,37,1,822.9000000357628,10,1,experiment,NA,NA,2,0.5,0.5,4,5,156,4,NA
fcp-trial,205,876211,0.0-166.0-0.0,voc_e2,12275,"[{""event"":""fullscreenenter"",""trial"":1,""time"":3354}]",NA,NA,NA,NA,NA,4,#1CD855,#FA92F8,10,10,1,40,0,484.10000002384186,37,1,391.89999997615814,10,1,experiment,NA,NA,1,0.7,0.3,2,3,157,4,NA
fcp-trial,206,878697,0.0-167.0-0.0,voc_e2,12275,"[{""event"":""fullscreenenter"",""trial"":1,""time"":3354}]",NA,NA,NA,NA,NA,0,#3386FF,#D89F1C,10,0,1,40,0,450.89999997615814,37,1,527.2999999523163,10,1,experiment,NA,NA,0,0.9,0.1,0,1,158,4,NA
fcp-trial,207,880940,0.0-168.0-0.0,voc_e2,12275,"[{""event"":""fullscreenenter"",""trial"":1,""time"":3354}]",NA,NA,NA,NA,NA,1,#1CD855,#FA92F8,10,0,1,40,0,360.69999998807907,37,1,374,10,1,experiment,NA,NA,1,0.7,0.3,2,3,159,4,NA
fcp-trial,208,883794,0.0-169.0-0.0,voc_e2,12275,"[{""event"":""fullscreenenter"",""trial"":1,""time"":3354}]",NA,NA,NA,NA,NA,6,#741CD8,#D8271C,10,0,1,40,0,597.4000000357628,39,0,750.5999999642372,0,0,experiment,NA,NA,2,0.5,0.5,4,5,160,4,NA
fcp-trial,209,886438,0.0-170.0-0.0,voc_e2,12275,"[{""event"":""fullscreenenter"",""trial"":1,""time"":3354}]",NA,NA,NA,NA,NA,3,#3386FF,#D89F1C,10,0,1,40,0,464.4000000357628,39,0,674.1999999880791,0,0,experiment,NA,NA,0,0.9,0.1,0,1,161,4,NA
fcp-trial,210,889783,0.0-171.0-0.0,voc_e2,12275,"[{""event"":""fullscreenenter"",""trial"":1,""time"":3354}]",NA,NA,NA,NA,NA,3,#741CD8,#D8271C,0,0,1,40,0,922.7000000476837,39,0,911.1999999880791,0,0,experiment,NA,NA,2,0.5,0.5,4,5,162,4,NA
fcp-trial,211,892705,0.0-172.0-0.0,voc_e2,12275,"[{""event"":""fullscreenenter"",""trial"":1,""time"":3354}]",NA,NA,NA,NA,NA,0,#FA92F8,#1CD855,0,0,0,40,0,697.7000000476837,37,1,718.6999999880791,0,0,experiment,NA,NA,1,0.3,0.7,3,2,163,4,NA
fcp-trial,212,895191,0.0-173.0-0.0,voc_e2,12275,"[{""event"":""fullscreenenter"",""trial"":1,""time"":3354}]",NA,NA,NA,NA,NA,5,#D89F1C,#3386FF,0,10,0,40,0,397.30000001192093,39,0,584.6999999880791,10,1,experiment,NA,NA,0,0.1,0.9,1,0,164,4,NA
fcp-trial,213,897509,0.0-174.0-0.0,voc_e2,12275,"[{""event"":""fullscreenenter"",""trial"":1,""time"":3354}]",NA,NA,NA,NA,NA,3,#FA92F8,#1CD855,0,10,0,40,0,330.5,37,1,483.19999998807907,0,0,experiment,NA,NA,1,0.3,0.7,3,2,165,4,NA
fcp-trial,214,899883,0.0-175.0-0.0,voc_e2,12275,"[{""event"":""fullscreenenter"",""trial"":1,""time"":3354}]",NA,NA,NA,NA,NA,5,#741CD8,#D8271C,10,10,1,40,0,297.19999998807907,39,0,571.3999999761581,10,0,experiment,NA,NA,2,0.5,0.5,4,5,166,4,NA
fcp-trial,215,902268,0.0-176.0-0.0,voc_e2,12275,"[{""event"":""fullscreenenter"",""trial"":1,""time"":3354}]",NA,NA,NA,NA,NA,4,#D89F1C,#3386FF,0,10,0,40,0,241.69999998807907,37,1,638.8000000119209,0,0,experiment,NA,NA,0,0.1,0.9,1,0,167,4,NA
fcp-trial,216,904610,0.0-177.0-0.0,voc_e2,12275,"[{""event"":""fullscreenenter"",""trial"":1,""time"":3354}]",NA,NA,NA,NA,NA,1,#D8271C,#741CD8,0,10,0,40,0,285.7000000476837,39,0,550.4000000357628,10,1,experiment,NA,NA,2,0.5,0.5,5,4,168,4,NA
fcp-trial,217,907254,0.0-178.0-0.0,voc_e2,12275,"[{""event"":""fullscreenenter"",""trial"":1,""time"":3354}]",NA,NA,NA,NA,NA,2,#741CD8,#D8271C,0,0,1,40,0,236.69999998807907,39,0,900,0,0,experiment,NA,NA,2,0.5,0.5,4,5,169,4,NA
fcp-trial,218,909640,0.0-179.0-0.0,voc_e2,12275,"[{""event"":""fullscreenenter"",""trial"":1,""time"":3354}]",NA,NA,NA,NA,NA,6,#1CD855,#FA92F8,0,0,1,38,1,430.5,39,0,450.2000000476837,0,0,experiment,NA,NA,1,0.7,0.3,2,3,170,4,NA
fcp-trial,219,911826,0.0-180.0-0.0,voc_e2,12275,"[{""event"":""fullscreenenter"",""trial"":1,""time"":3354}]",NA,NA,NA,NA,NA,3,#741CD8,#D8271C,0,0,1,38,1,316.5,37,1,364.89999997615814,0,1,experiment,NA,NA,2,0.5,0.5,4,5,171,4,NA
fcp-trial,220,914444,0.0-181.0-0.0,voc_e2,12275,"[{""event"":""fullscreenenter"",""trial"":1,""time"":3354}]",NA,NA,NA,NA,NA,1,#3386FF,#D89F1C,10,0,1,38,1,471.39999997615814,39,0,640.8000000119209,0,0,experiment,NA,NA,0,0.9,0.1,0,1,172,4,NA
fcp-trial,221,916805,0.0-182.0-0.0,voc_e2,12275,"[{""event"":""fullscreenenter"",""trial"":1,""time"":3354}]",NA,NA,NA,NA,NA,2,#FA92F8,#1CD855,10,10,0,38,1,249.10000002384186,37,1,606.6999999880791,10,0,experiment,NA,NA,1,0.3,0.7,3,2,173,4,NA
fcp-trial,222,919054,0.0-183.0-0.0,voc_e2,12275,"[{""event"":""fullscreenenter"",""trial"":1,""time"":3354}]",NA,NA,NA,NA,NA,3,#1CD855,#FA92F8,10,10,1,38,1,339.60000002384186,39,0,404.30000001192093,10,0,experiment,NA,NA,1,0.7,0.3,2,3,174,4,NA
fcp-trial,223,921542,0.0-184.0-0.0,voc_e2,12275,"[{""event"":""fullscreenenter"",""trial"":1,""time"":3354}]",NA,NA,NA,NA,NA,0,#741CD8,#D8271C,10,10,1,38,1,626.1999999880791,37,1,355.39999997615814,10,1,experiment,NA,NA,2,0.5,0.5,4,5,175,4,NA
fcp-trial,224,924075,0.0-185.0-0.0,voc_e2,12275,"[{""event"":""fullscreenenter"",""trial"":1,""time"":3354}]",NA,NA,NA,NA,NA,4,#3386FF,#D89F1C,10,10,1,38,1,611.1000000238419,37,1,414.5999999642372,10,1,experiment,NA,NA,0,0.9,0.1,0,1,176,4,NA
fcp-trial,225,926326,0.0-186.0-0.0,voc_e2,12275,"[{""event"":""fullscreenenter"",""trial"":1,""time"":3354}]",NA,NA,NA,NA,NA,0,#3386FF,#D89F1C,10,0,1,38,1,442.30000001192093,37,1,303.30000001192093,10,1,experiment,NA,NA,0,0.9,0.1,0,1,177,4,NA
fcp-trial,226,928631,0.0-187.0-0.0,voc_e2,12275,"[{""event"":""fullscreenenter"",""trial"":1,""time"":3354}]",NA,NA,NA,NA,NA,5,#D89F1C,#3386FF,0,10,0,38,1,463.19999998807907,39,0,335.2000000476837,10,1,experiment,NA,NA,0,0.1,0.9,1,0,178,4,NA
fcp-trial,227,930971,0.0-188.0-0.0,voc_e2,12275,"[{""event"":""fullscreenenter"",""trial"":1,""time"":3354}]",NA,NA,NA,NA,NA,1,#FA92F8,#1CD855,10,10,0,38,1,308.10000002384186,37,1,526.3000000119209,10,0,experiment,NA,NA,1,0.3,0.7,3,2,179,4,NA
fcp-trial,228,933435,0.0-189.0-0.0,voc_e2,12275,"[{""event"":""fullscreenenter"",""trial"":1,""time"":3354}]",NA,NA,NA,NA,NA,1,#741CD8,#D8271C,10,0,1,38,1,484.69999998807907,37,1,471.5,10,1,experiment,NA,NA,2,0.5,0.5,4,5,180,4,NA
fcp-trial,229,935869,0.0-190.0-0.0,voc_e2,12275,"[{""event"":""fullscreenenter"",""trial"":1,""time"":3354}]",NA,NA,NA,NA,NA,4,#1CD855,#FA92F8,0,0,1,38,1,488.2000000476837,39,0,440,0,0,experiment,NA,NA,1,0.7,0.3,2,3,181,5,NA
fcp-trial,230,938364,0.0-191.0-0.0,voc_e2,12275,"[{""event"":""fullscreenenter"",""trial"":1,""time"":3354}]",NA,NA,NA,NA,NA,2,#3386FF,#D89F1C,10,0,1,38,1,618.3000000119209,37,1,370.5,10,1,experiment,NA,NA,0,0.9,0.1,0,1,182,5,NA
fcp-trial,231,940760,0.0-192.0-0.0,voc_e2,12275,"[{""event"":""fullscreenenter"",""trial"":1,""time"":3354}]",NA,NA,NA,NA,NA,5,#FA92F8,#1CD855,0,0,0,38,1,531.1000000238419,37,1,359.5999999642372,0,0,experiment,NA,NA,1,0.3,0.7,3,2,183,5,NA
fcp-trial,232,943347,0.0-193.0-0.0,voc_e2,12275,"[{""event"":""fullscreenenter"",""trial"":1,""time"":3354}]",NA,NA,NA,NA,NA,5,#D8271C,#741CD8,0,0,0,38,1,656.2000000476837,39,0,425,0,1,experiment,NA,NA,2,0.5,0.5,5,4,184,5,NA
fcp-trial,233,945619,0.0-194.0-0.0,voc_e2,12275,"[{""event"":""fullscreenenter"",""trial"":1,""time"":3354}]",NA,NA,NA,NA,NA,4,#741CD8,#D8271C,10,10,1,38,1,430.80000001192093,39,0,335.0999999642372,10,0,experiment,NA,NA,2,0.5,0.5,4,5,185,5,NA
fcp-trial,234,947949,0.0-195.0-0.0,voc_e2,12275,"[{""event"":""fullscreenenter"",""trial"":1,""time"":3354}]",NA,NA,NA,NA,NA,6,#D8271C,#741CD8,0,0,0,38,1,467.5,37,1,357.30000001192093,0,0,experiment,NA,NA,2,0.5,0.5,5,4,186,5,NA
fcp-trial,235,950469,0.0-196.0-0.0,voc_e2,12275,"[{""event"":""fullscreenenter"",""trial"":1,""time"":3354}]",NA,NA,NA,NA,NA,3,#3386FF,#D89F1C,10,0,1,38,1,566.3999999761581,37,1,449.69999998807907,10,1,experiment,NA,NA,0,0.9,0.1,0,1,187,5,NA
fcp-trial,236,952809,0.0-197.0-0.0,voc_e2,12275,"[{""event"":""fullscreenenter"",""trial"":1,""time"":3354}]",NA,NA,NA,NA,NA,0,#1CD855,#FA92F8,10,10,1,38,1,430.9000000357628,39,0,403.69999998807907,10,0,experiment,NA,NA,1,0.7,0.3,2,3,188,5,NA
fcp-trial,237,955041,0.0-198.0-0.0,voc_e2,12275,"[{""event"":""fullscreenenter"",""trial"":1,""time"":3354}]",NA,NA,NA,NA,NA,6,#3386FF,#D89F1C,10,0,1,38,1,422.7999999523163,37,1,304.4000000357628,10,1,experiment,NA,NA,0,0.9,0.1,0,1,189,5,NA
fcp-trial,238,957390,0.0-199.0-0.0,voc_e2,12275,"[{""event"":""fullscreenenter"",""trial"":1,""time"":3354}]",NA,NA,NA,NA,NA,1,#FA92F8,#1CD855,10,10,0,38,1,484.0999999642372,37,1,360.7000000476837,10,0,experiment,NA,NA,1,0.3,0.7,3,2,190,5,NA
fcp-trial,239,959741,0.0-200.0-0.0,voc_e2,12275,"[{""event"":""fullscreenenter"",""trial"":1,""time"":3354}]",NA,NA,NA,NA,NA,4,#FA92F8,#1CD855,10,10,0,38,1,466.19999998807907,37,1,380.10000002384186,10,0,experiment,NA,NA,1,0.3,0.7,3,2,191,5,NA
fcp-trial,240,962442,0.0-201.0-0.0,voc_e2,12275,"[{""event"":""fullscreenenter"",""trial"":1,""time"":3354}]",NA,NA,NA,NA,NA,0,#741CD8,#D8271C,0,0,1,38,1,823.6999999880791,37,1,371.0999999642372,0,1,experiment,NA,NA,2,0.5,0.5,4,5,192,5,NA
fcp-trial,241,964705,0.0-202.0-0.0,voc_e2,12275,"[{""event"":""fullscreenenter"",""trial"":1,""time"":3354}]",NA,NA,NA,NA,NA,6,#FA92F8,#1CD855,0,10,0,38,1,384.30000001192093,39,0,371.0999999642372,10,1,experiment,NA,NA,1,0.3,0.7,3,2,193,5,NA
fcp-trial,242,966976,0.0-203.0-0.0,voc_e2,12275,"[{""event"":""fullscreenenter"",""trial"":1,""time"":3354}]",NA,NA,NA,NA,NA,1,#D89F1C,#3386FF,10,10,0,38,1,341.69999998807907,37,1,423,10,0,experiment,NA,NA,0,0.1,0.9,1,0,194,5,NA
fcp-trial,243,969275,0.0-204.0-0.0,voc_e2,12275,"[{""event"":""fullscreenenter"",""trial"":1,""time"":3354}]",NA,NA,NA,NA,NA,6,#741CD8,#D8271C,0,0,1,38,1,430.5,39,0,363.19999998807907,0,0,experiment,NA,NA,2,0.5,0.5,4,5,195,5,NA
fcp-trial,244,971559,0.0-205.0-0.0,voc_e2,12275,"[{""event"":""fullscreenenter"",""trial"":1,""time"":3354}]",NA,NA,NA,NA,NA,0,#1CD855,#FA92F8,10,0,1,38,1,338.0999999642372,37,1,441.10000002384186,10,1,experiment,NA,NA,1,0.7,0.3,2,3,196,5,NA
fcp-trial,245,974648,0.0-206.0-0.0,voc_e2,12275,"[{""event"":""fullscreenenter"",""trial"":1,""time"":3354}]",NA,NA,NA,NA,NA,2,#D8271C,#741CD8,0,0,0,38,1,529,37,1,1054.1000000238419,0,0,experiment,NA,NA,2,0.5,0.5,5,4,197,5,NA
fcp-trial,246,977608,0.0-207.0-0.0,voc_e2,12275,"[{""event"":""fullscreenenter"",""trial"":1,""time"":3354}]",NA,NA,NA,NA,NA,5,#3386FF,#D89F1C,0,0,1,40,0,659.1000000238419,37,1,796.1999999880791,0,1,experiment,NA,NA,0,0.9,0.1,0,1,198,5,NA
fcp-trial,247,980680,0.0-208.0-0.0,voc_e2,12275,"[{""event"":""fullscreenenter"",""trial"":1,""time"":3354}]",NA,NA,NA,NA,NA,3,#FA92F8,#1CD855,10,0,0,38,1,1172.1000000238419,39,0,392.89999997615814,0,1,experiment,NA,NA,1,0.3,0.7,3,2,199,5,NA
fcp-trial,248,982795,0.0-209.0-0.0,voc_e2,12275,"[{""event"":""fullscreenenter"",""trial"":1,""time"":3354}]",NA,NA,NA,NA,NA,1,#D8271C,#741CD8,0,0,0,38,1,294.39999997615814,37,1,313.30000001192093,0,0,experiment,NA,NA,2,0.5,0.5,5,4,200,5,NA
fcp-trial,249,985663,0.0-210.0-0.0,voc_e2,12275,"[{""event"":""fullscreenenter"",""trial"":1,""time"":3354}]",NA,NA,NA,NA,NA,6,#D89F1C,#3386FF,0,10,0,38,1,438,39,0,920.8000000119209,10,1,experiment,NA,NA,0,0.1,0.9,1,0,201,5,NA
fcp-trial,250,987861,0.0-211.0-0.0,voc_e2,12275,"[{""event"":""fullscreenenter"",""trial"":1,""time"":3354}]",NA,NA,NA,NA,NA,4,#741CD8,#D8271C,10,0,1,40,0,319.89999997615814,37,1,373.10000002384186,10,1,experiment,NA,NA,2,0.5,0.5,4,5,202,5,NA
fcp-trial,251,990390,0.0-212.0-0.0,voc_e2,12275,"[{""event"":""fullscreenenter"",""trial"":1,""time"":3354}]",NA,NA,NA,NA,NA,3,#D89F1C,#3386FF,10,10,0,40,0,474,39,0,550.3000000119209,10,1,experiment,NA,NA,0,0.1,0.9,1,0,203,5,NA
fcp-trial,252,992618,0.0-213.0-0.0,voc_e2,12275,"[{""event"":""fullscreenenter"",""trial"":1,""time"":3354}]",NA,NA,NA,NA,NA,2,#1CD855,#FA92F8,10,0,1,40,0,294.60000002384186,37,1,427.80000001192093,10,1,experiment,NA,NA,1,0.7,0.3,2,3,204,5,NA
fcp-trial,253,995587,0.0-214.0-0.0,voc_e2,12275,"[{""event"":""fullscreenenter"",""trial"":1,""time"":3354}]",NA,NA,NA,NA,NA,5,#741CD8,#D8271C,10,10,1,40,0,666.8999999761581,37,1,797.1000000238419,10,1,experiment,NA,NA,2,0.5,0.5,4,5,205,5,NA
fcp-trial,254,998029,0.0-215.0-0.0,voc_e2,12275,"[{""event"":""fullscreenenter"",""trial"":1,""time"":3354}]",NA,NA,NA,NA,NA,3,#D8271C,#741CD8,10,0,0,40,0,420.5999999642372,37,1,515.1999999880791,10,0,experiment,NA,NA,2,0.5,0.5,5,4,206,5,NA
fcp-trial,255,1000540,0.0-216.0-0.0,voc_e2,12275,"[{""event"":""fullscreenenter"",""trial"":1,""time"":3354}]",NA,NA,NA,NA,NA,5,#1CD855,#FA92F8,10,10,1,40,0,463.30000001192093,37,1,541.3000000119209,10,1,experiment,NA,NA,1,0.7,0.3,2,3,207,5,NA
fcp-trial,256,1003103,0.0-217.0-0.0,voc_e2,12275,"[{""event"":""fullscreenenter"",""trial"":1,""time"":3354}]",NA,NA,NA,NA,NA,4,#3386FF,#D89F1C,10,0,1,40,0,305.60000002384186,39,0,753.6000000238419,0,0,experiment,NA,NA,0,0.9,0.1,0,1,208,5,NA
fcp-trial,257,1007347,0.0-218.0-0.0,voc_e2,12275,"[{""event"":""fullscreenenter"",""trial"":1,""time"":3354}]",NA,NA,NA,NA,NA,2,#D89F1C,#3386FF,0,10,0,38,1,1882.199999988079,37,1,855.0999999642372,0,0,experiment,NA,NA,0,0.1,0.9,1,0,209,5,NA
fcp-trial,258,1010123,0.0-219.0-0.0,voc_e2,12275,"[{""event"":""fullscreenenter"",""trial"":1,""time"":3354}]",NA,NA,NA,NA,NA,0,#3386FF,#D89F1C,10,0,1,38,1,587,39,0,685.5999999642372,0,0,experiment,NA,NA,0,0.9,0.1,0,1,210,5,NA
audio-instructions,259,1016128,0.0-220.0,voc_e2,12275,"[{""event"":""fullscreenenter"",""trial"":1,""time"":3354}]",NA,844.5,static/audio/pause.wav,NA,0,NA,NA,NA,NA,NA,NA,NA,NA,NA,NA,NA,NA,NA,NA,NA,NA,NA,NA,NA,NA,NA,NA,NA,NA,NA
fcp-trial,260,1020746,0.0-221.0-0.0,voc_e2,12275,"[{""event"":""fullscreenenter"",""trial"":1,""time"":3354}]",NA,NA,NA,NA,NA,1,#D89F1C,#3386FF,0,10,0,38,1,2336.699999988079,39,0,776.1000000238419,10,1,experiment,NA,NA,0,0.1,0.9,1,0,211,5,NA
fcp-trial,261,1023221,0.0-222.0-0.0,voc_e2,12275,"[{""event"":""fullscreenenter"",""trial"":1,""time"":3354}]",NA,NA,NA,NA,NA,6,#741CD8,#D8271C,0,10,1,38,1,566.5,37,1,402.5,0,1,experiment,NA,NA,2,0.5,0.5,4,5,212,5,NA
fcp-trial,262,1025421,0.0-223.0-0.0,voc_e2,12275,"[{""event"":""fullscreenenter"",""trial"":1,""time"":3354}]",NA,NA,NA,NA,NA,1,#1CD855,#FA92F8,10,0,1,38,1,309.60000002384186,39,0,384.2999999523163,0,0,experiment,NA,NA,1,0.7,0.3,2,3,213,5,NA
fcp-trial,263,1028126,0.0-224.0-0.0,voc_e2,12275,"[{""event"":""fullscreenenter"",""trial"":1,""time"":3354}]",NA,NA,NA,NA,NA,1,#741CD8,#D8271C,10,10,1,38,1,775.3999999761581,37,1,424.39999997615814,10,1,experiment,NA,NA,2,0.5,0.5,4,5,214,5,NA
fcp-trial,264,1030949,0.0-225.0-0.0,voc_e2,12275,"[{""event"":""fullscreenenter"",""trial"":1,""time"":3354}]",NA,NA,NA,NA,NA,5,#3386FF,#D89F1C,10,0,1,38,1,727.2000000476837,37,1,590.3999999761581,10,1,experiment,NA,NA,0,0.9,0.1,0,1,215,5,NA
fcp-trial,265,1033314,0.0-226.0-0.0,voc_e2,12275,"[{""event"":""fullscreenenter"",""trial"":1,""time"":3354}]",NA,NA,NA,NA,NA,2,#1CD855,#FA92F8,0,0,1,38,1,535.1999999880791,39,0,325.69999998807907,0,0,experiment,NA,NA,1,0.7,0.3,2,3,216,5,NA
fcp-trial,266,1035857,0.0-227.0-0.0,voc_e2,12275,"[{""event"":""fullscreenenter"",""trial"":1,""time"":3354}]",NA,NA,NA,NA,NA,4,#D8271C,#741CD8,0,0,0,38,1,531.0999999642372,37,1,505.10000002384186,0,0,experiment,NA,NA,2,0.5,0.5,5,4,217,5,NA
fcp-trial,267,1038247,0.0-228.0-0.0,voc_e2,12275,"[{""event"":""fullscreenenter"",""trial"":1,""time"":3354}]",NA,NA,NA,NA,NA,3,#1CD855,#FA92F8,0,0,1,38,1,529.6999999880791,39,0,350.9000000357628,0,0,experiment,NA,NA,1,0.7,0.3,2,3,218,5,NA
fcp-trial,268,1040942,0.0-229.0-0.0,voc_e2,12275,"[{""event"":""fullscreenenter"",""trial"":1,""time"":3354}]",NA,NA,NA,NA,NA,2,#741CD8,#D8271C,10,10,1,38,1,786.4000000357628,37,1,402.5,10,1,experiment,NA,NA,2,0.5,0.5,4,5,219,5,NA
fcp-trial,269,1043758,0.0-230.0-0.0,voc_e2,12275,"[{""event"":""fullscreenenter"",""trial"":1,""time"":3354}]",NA,NA,NA,NA,NA,3,#3386FF,#D89F1C,10,10,1,40,0,860.3999999761581,37,1,450.2999999523163,10,1,experiment,NA,NA,0,0.9,0.1,0,1,220,5,NA
fcp-trial,270,1046511,0.0-231.0-0.0,voc_e2,12275,"[{""event"":""fullscreenenter"",""trial"":1,""time"":3354}]",NA,NA,NA,NA,NA,2,#3386FF,#D89F1C,10,0,1,40,0,630.9000000357628,39,0,617.1999999880791,0,0,experiment,NA,NA,0,0.9,0.1,0,1,221,5,NA
fcp-trial,271,1061516,0.0-232.0-0.0,voc_e2,12275,"[{""event"":""fullscreenenter"",""trial"":1,""time"":3354}]",NA,NA,NA,NA,NA,4,#1CD855,#FA92F8,0,0,1,null,null,null,null,null,null,NA,0,experiment,NA,NA,1,0.7,0.3,2,3,222,5,NA
fcp-trial,272,1064414,0.0-233.0-0.0,voc_e2,12275,"[{""event"":""fullscreenenter"",""trial"":1,""time"":3354}]",NA,NA,NA,NA,NA,3,#D8271C,#741CD8,0,0,0,40,0,185.70000004768372,39,0,1210.9000000357628,0,1,experiment,NA,NA,2,0.5,0.5,5,4,223,5,NA
fcp-trial,273,1066955,0.0-234.0-0.0,voc_e2,12275,"[{""event"":""fullscreenenter"",""trial"":1,""time"":3354}]",NA,NA,NA,NA,NA,5,#D8271C,#741CD8,10,0,0,40,0,611,37,1,424.60000002384186,10,0,experiment,NA,NA,2,0.5,0.5,5,4,224,5,NA
fcp-trial,274,1069882,0.0-235.0-0.0,voc_e2,12275,"[{""event"":""fullscreenenter"",""trial"":1,""time"":3354}]",NA,NA,NA,NA,NA,6,#D89F1C,#3386FF,0,10,0,40,0,745.1000000238419,37,1,674.9000000357628,0,0,experiment,NA,NA,0,0.1,0.9,1,0,225,5,NA
fcp-trial,275,1072391,0.0-236.0-0.0,voc_e2,12275,"[{""event"":""fullscreenenter"",""trial"":1,""time"":3354}]",NA,NA,NA,NA,NA,6,#1CD855,#FA92F8,0,10,1,38,1,451.60000002384186,39,0,549.8000000119209,10,0,experiment,NA,NA,1,0.7,0.3,2,3,226,6,NA
fcp-trial,276,1074696,0.0-237.0-0.0,voc_e2,12275,"[{""event"":""fullscreenenter"",""trial"":1,""time"":3354}]",NA,NA,NA,NA,NA,0,#D89F1C,#3386FF,0,10,0,38,1,418.60000002384186,39,0,382,10,1,experiment,NA,NA,0,0.1,0.9,1,0,227,6,NA
fcp-trial,277,1076901,0.0-238.0-0.0,voc_e2,12275,"[{""event"":""fullscreenenter"",""trial"":1,""time"":3354}]",NA,NA,NA,NA,NA,4,#3386FF,#D89F1C,10,0,1,38,1,431.2999999523163,37,1,269.19999998807907,10,1,experiment,NA,NA,0,0.9,0.1,0,1,228,6,NA
fcp-trial,278,1079175,0.0-239.0-0.0,voc_e2,12275,"[{""event"":""fullscreenenter"",""trial"":1,""time"":3354}]",NA,NA,NA,NA,NA,0,#D8271C,#741CD8,0,0,0,38,1,474.39999997615814,39,0,291.80000001192093,0,1,experiment,NA,NA,2,0.5,0.5,5,4,229,6,NA
fcp-trial,279,1081485,0.0-240.0-0.0,voc_e2,12275,"[{""event"":""fullscreenenter"",""trial"":1,""time"":3354}]",NA,NA,NA,NA,NA,5,#1CD855,#FA92F8,10,0,1,38,1,394.19999998807907,39,0,407.5999999642372,0,0,experiment,NA,NA,1,0.7,0.3,2,3,230,6,NA
fcp-trial,280,1083755,0.0-241.0-0.0,voc_e2,12275,"[{""event"":""fullscreenenter"",""trial"":1,""time"":3354}]",NA,NA,NA,NA,NA,0,#FA92F8,#1CD855,0,10,0,38,1,415.80000001192093,37,1,349.80000001192093,0,0,experiment,NA,NA,1,0.3,0.7,3,2,231,6,NA
fcp-trial,281,1085973,0.0-242.0-0.0,voc_e2,12275,"[{""event"":""fullscreenenter"",""trial"":1,""time"":3354}]",NA,NA,NA,NA,NA,3,#1CD855,#FA92F8,0,0,1,38,1,409.39999997615814,37,1,304.30000001192093,0,1,experiment,NA,NA,1,0.7,0.3,2,3,232,6,NA
fcp-trial,282,1088367,0.0-243.0-0.0,voc_e2,12275,"[{""event"":""fullscreenenter"",""trial"":1,""time"":3354}]",NA,NA,NA,NA,NA,4,#3386FF,#D89F1C,10,0,1,38,1,463.30000001192093,37,1,425,10,1,experiment,NA,NA,0,0.9,0.1,0,1,233,6,NA
fcp-trial,283,1091259,0.0-244.0-0.0,voc_e2,12275,"[{""event"":""fullscreenenter"",""trial"":1,""time"":3354}]",NA,NA,NA,NA,NA,4,#D8271C,#741CD8,0,10,0,38,1,802,39,0,584.1000000238419,10,1,experiment,NA,NA,2,0.5,0.5,5,4,234,6,NA
fcp-trial,284,1093647,0.0-245.0-0.0,voc_e2,12275,"[{""event"":""fullscreenenter"",""trial"":1,""time"":3354}]",NA,NA,NA,NA,NA,6,#1CD855,#FA92F8,10,10,1,38,1,305.69999998807907,39,0,575.8999999761581,10,0,experiment,NA,NA,1,0.7,0.3,2,3,235,6,NA
fcp-trial,285,1095965,0.0-246.0-0.0,voc_e2,12275,"[{""event"":""fullscreenenter"",""trial"":1,""time"":3354}]",NA,NA,NA,NA,NA,5,#D89F1C,#3386FF,0,10,0,38,1,439.19999998807907,39,0,372.2999999523163,10,1,experiment,NA,NA,0,0.1,0.9,1,0,236,6,NA
fcp-trial,286,1098250,0.0-247.0-0.0,voc_e2,12275,"[{""event"":""fullscreenenter"",""trial"":1,""time"":3354}]",NA,NA,NA,NA,NA,5,#741CD8,#D8271C,10,0,1,38,1,303.39999997615814,39,0,475,0,0,experiment,NA,NA,2,0.5,0.5,4,5,237,6,NA
fcp-trial,287,1100456,0.0-248.0-0.0,voc_e2,12275,"[{""event"":""fullscreenenter"",""trial"":1,""time"":3354}]",NA,NA,NA,NA,NA,3,#D89F1C,#3386FF,0,0,0,38,1,282.0999999642372,39,0,418.30000001192093,0,1,experiment,NA,NA,0,0.1,0.9,1,0,238,6,NA
fcp-trial,288,1102409,0.0-249.0-0.0,voc_e2,12275,"[{""event"":""fullscreenenter"",""trial"":1,""time"":3354}]",NA,NA,NA,NA,NA,5,#FA92F8,#1CD855,10,10,0,38,1,21.099999964237213,37,1,427.19999998807907,10,0,experiment,NA,NA,1,0.3,0.7,3,2,239,6,NA
fcp-trial,289,1104312,0.0-250.0-0.0,voc_e2,12275,"[{""event"":""fullscreenenter"",""trial"":1,""time"":3354}]",NA,NA,NA,NA,NA,6,#3386FF,#D89F1C,10,0,1,38,1,29.5,37,1,366.19999998807907,10,1,experiment,NA,NA,0,0.9,0.1,0,1,240,6,NA
fcp-trial,290,1106414,0.0-251.0-0.0,voc_e2,12275,"[{""event"":""fullscreenenter"",""trial"":1,""time"":3354}]",NA,NA,NA,NA,NA,2,#D89F1C,#3386FF,0,10,0,38,1,248.69999998807907,37,1,349,0,0,experiment,NA,NA,0,0.1,0.9,1,0,241,6,NA
fcp-trial,291,1108567,0.0-252.0-0.0,voc_e2,12275,"[{""event"":""fullscreenenter"",""trial"":1,""time"":3354}]",NA,NA,NA,NA,NA,2,#D8271C,#741CD8,10,10,0,38,1,283.69999998807907,39,0,362.39999997615814,10,1,experiment,NA,NA,2,0.5,0.5,5,4,242,6,NA
fcp-trial,292,1111287,0.0-253.0-0.0,voc_e2,12275,"[{""event"":""fullscreenenter"",""trial"":1,""time"":3354}]",NA,NA,NA,NA,NA,6,#D8271C,#741CD8,10,10,0,38,1,865.3000000119209,37,1,348.39999997615814,10,0,experiment,NA,NA,2,0.5,0.5,5,4,243,6,NA
fcp-trial,293,1113524,0.0-254.0-0.0,voc_e2,12275,"[{""event"":""fullscreenenter"",""trial"":1,""time"":3354}]",NA,NA,NA,NA,NA,2,#FA92F8,#1CD855,10,0,0,38,1,308.89999997615814,39,0,422.80000001192093,0,1,experiment,NA,NA,1,0.3,0.7,3,2,244,6,NA
fcp-trial,294,1115635,0.0-255.0-0.0,voc_e2,12275,"[{""event"":""fullscreenenter"",""trial"":1,""time"":3354}]",NA,NA,NA,NA,NA,0,#3386FF,#D89F1C,10,0,1,38,1,329.80000001192093,37,1,275.69999998807907,10,1,experiment,NA,NA,0,0.9,0.1,0,1,245,6,NA
fcp-trial,295,1117869,0.0-256.0-0.0,voc_e2,12275,"[{""event"":""fullscreenenter"",""trial"":1,""time"":3354}]",NA,NA,NA,NA,NA,4,#1CD855,#FA92F8,10,0,1,38,1,166,39,0,559.6000000238419,0,0,experiment,NA,NA,1,0.7,0.3,2,3,246,6,NA
fcp-trial,296,1121434,0.0-257.0-0.0,voc_e2,12275,"[{""event"":""fullscreenenter"",""trial"":1,""time"":3354}]",NA,NA,NA,NA,NA,3,#741CD8,#D8271C,0,0,1,40,0,1372.300000011921,39,0,685.5999999642372,0,0,experiment,NA,NA,2,0.5,0.5,4,5,247,6,NA
fcp-trial,297,1124046,0.0-258.0-0.0,voc_e2,12275,"[{""event"":""fullscreenenter"",""trial"":1,""time"":3354}]",NA,NA,NA,NA,NA,1,#D8271C,#741CD8,0,10,0,40,0,376.60000002384186,39,0,729.5,10,1,experiment,NA,NA,2,0.5,0.5,5,4,248,6,NA
fcp-trial,298,1126950,0.0-259.0-0.0,voc_e2,12275,"[{""event"":""fullscreenenter"",""trial"":1,""time"":3354}]",NA,NA,NA,NA,NA,1,#D89F1C,#3386FF,0,10,0,40,0,408.5,39,0,990.5,10,1,experiment,NA,NA,0,0.1,0.9,1,0,249,6,NA
fcp-trial,299,1129401,0.0-260.0-0.0,voc_e2,12275,"[{""event"":""fullscreenenter"",""trial"":1,""time"":3354}]",NA,NA,NA,NA,NA,0,#741CD8,#D8271C,10,0,1,40,0,315.69999998807907,37,1,629.6999999880791,10,1,experiment,NA,NA,2,0.5,0.5,4,5,250,6,NA
fcp-trial,300,1132102,0.0-261.0-0.0,voc_e2,12275,"[{""event"":""fullscreenenter"",""trial"":1,""time"":3354}]",NA,NA,NA,NA,NA,1,#1CD855,#FA92F8,10,10,1,40,0,306.19999998807907,37,1,890.5,10,1,experiment,NA,NA,1,0.7,0.3,2,3,251,6,NA
fcp-trial,301,1134658,0.0-262.0-0.0,voc_e2,12275,"[{""event"":""fullscreenenter"",""trial"":1,""time"":3354}]",NA,NA,NA,NA,NA,0,#1CD855,#FA92F8,0,0,1,40,0,338.39999997615814,39,0,710.5999999642372,0,0,experiment,NA,NA,1,0.7,0.3,2,3,252,6,NA
fcp-trial,302,1136905,0.0-263.0-0.0,voc_e2,12275,"[{""event"":""fullscreenenter"",""trial"":1,""time"":3354}]",NA,NA,NA,NA,NA,6,#FA92F8,#1CD855,10,0,0,40,0,293.69999998807907,37,1,447.4000000357628,10,0,experiment,NA,NA,1,0.3,0.7,3,2,253,6,NA
fcp-trial,303,1139101,0.0-264.0-0.0,voc_e2,12275,"[{""event"":""fullscreenenter"",""trial"":1,""time"":3354}]",NA,NA,NA,NA,NA,1,#1CD855,#FA92F8,10,0,1,38,1,327.19999998807907,39,0,357.89999997615814,0,0,experiment,NA,NA,1,0.7,0.3,2,3,254,6,NA
fcp-trial,304,1141328,0.0-265.0-0.0,voc_e2,12275,"[{""event"":""fullscreenenter"",""trial"":1,""time"":3354}]",NA,NA,NA,NA,NA,2,#FA92F8,#1CD855,0,10,0,38,1,350.0999999642372,37,1,371.19999998807907,0,0,experiment,NA,NA,1,0.3,0.7,3,2,255,6,NA
fcp-trial,305,1143612,0.0-266.0-0.0,voc_e2,12275,"[{""event"":""fullscreenenter"",""trial"":1,""time"":3354}]",NA,NA,NA,NA,NA,2,#D89F1C,#3386FF,10,10,0,38,1,370.10000002384186,39,0,405.4000000357628,10,1,experiment,NA,NA,0,0.1,0.9,1,0,256,6,NA
fcp-trial,306,1146064,0.0-267.0-0.0,voc_e2,12275,"[{""event"":""fullscreenenter"",""trial"":1,""time"":3354}]",NA,NA,NA,NA,NA,6,#D89F1C,#3386FF,0,10,0,38,1,503.89999997615814,39,0,438.4000000357628,10,1,experiment,NA,NA,0,0.1,0.9,1,0,257,6,NA
fcp-trial,307,1148428,0.0-268.0-0.0,voc_e2,12275,"[{""event"":""fullscreenenter"",""trial"":1,""time"":3354}]",NA,NA,NA,NA,NA,0,#741CD8,#D8271C,10,0,1,38,1,437.60000002384186,37,1,417.5999999642372,10,1,experiment,NA,NA,2,0.5,0.5,4,5,258,6,NA
fcp-trial,308,1150868,0.0-269.0-0.0,voc_e2,12275,"[{""event"":""fullscreenenter"",""trial"":1,""time"":3354}]",NA,NA,NA,NA,NA,3,#1CD855,#FA92F8,10,10,1,38,1,597.8000000119209,37,1,335.9000000357628,10,1,experiment,NA,NA,1,0.7,0.3,2,3,259,6,NA
fcp-trial,309,1153052,0.0-270.0-0.0,voc_e2,12275,"[{""event"":""fullscreenenter"",""trial"":1,""time"":3354}]",NA,NA,NA,NA,NA,4,#D89F1C,#3386FF,0,0,0,38,1,285.4000000357628,39,0,392.5,0,1,experiment,NA,NA,0,0.1,0.9,1,0,260,6,NA
fcp-trial,310,1155594,0.0-271.0-0.0,voc_e2,12275,"[{""event"":""fullscreenenter"",""trial"":1,""time"":3354}]",NA,NA,NA,NA,NA,0,#D89F1C,#3386FF,0,10,0,38,1,677.5,39,0,359,10,1,experiment,NA,NA,0,0.1,0.9,1,0,261,6,NA
fcp-trial,311,1158081,0.0-272.0-0.0,voc_e2,12275,"[{""event"":""fullscreenenter"",""trial"":1,""time"":3354}]",NA,NA,NA,NA,NA,4,#D8271C,#741CD8,10,10,0,38,1,667.1999999880791,39,0,312.69999998807907,10,1,experiment,NA,NA,2,0.5,0.5,5,4,262,6,NA
fcp-trial,312,1160459,0.0-273.0-0.0,voc_e2,12275,"[{""event"":""fullscreenenter"",""trial"":1,""time"":3354}]",NA,NA,NA,NA,NA,6,#741CD8,#D8271C,0,0,1,38,1,496.5,37,1,372.5,0,1,experiment,NA,NA,2,0.5,0.5,4,5,263,6,NA
fcp-trial,313,1162920,0.0-274.0-0.0,voc_e2,12275,"[{""event"":""fullscreenenter"",""trial"":1,""time"":3354}]",NA,NA,NA,NA,NA,4,#FA92F8,#1CD855,0,10,0,38,1,575.0999999642372,39,0,381.0999999642372,10,1,experiment,NA,NA,1,0.3,0.7,3,2,264,6,NA
fcp-trial,314,1165363,0.0-275.0-0.0,voc_e2,12275,"[{""event"":""fullscreenenter"",""trial"":1,""time"":3354}]",NA,NA,NA,NA,NA,1,#D89F1C,#3386FF,0,10,0,38,1,598.0999999642372,39,0,336.69999998807907,10,1,experiment,NA,NA,0,0.1,0.9,1,0,265,6,NA
fcp-trial,315,1167735,0.0-276.0-0.0,voc_e2,12275,"[{""event"":""fullscreenenter"",""trial"":1,""time"":3354}]",NA,NA,NA,NA,NA,2,#741CD8,#D8271C,0,10,1,38,1,449.7000000476837,37,1,415.19999998807907,0,1,experiment,NA,NA,2,0.5,0.5,4,5,266,6,NA
fcp-trial,316,1170254,0.0-277.0-0.0,voc_e2,12275,"[{""event"":""fullscreenenter"",""trial"":1,""time"":3354}]",NA,NA,NA,NA,NA,0,#FA92F8,#1CD855,10,10,0,38,1,610.6000000238419,39,0,402.89999997615814,10,1,experiment,NA,NA,1,0.3,0.7,3,2,267,6,NA
fcp-trial,317,1172425,0.0-278.0-0.0,voc_e2,12275,"[{""event"":""fullscreenenter"",""trial"":1,""time"":3354}]",NA,NA,NA,NA,NA,1,#741CD8,#D8271C,10,10,1,38,1,386.5,37,1,279.5,10,1,experiment,NA,NA,2,0.5,0.5,4,5,268,6,NA
fcp-trial,318,1174699,0.0-279.0-0.0,voc_e2,12275,"[{""event"":""fullscreenenter"",""trial"":1,""time"":3354}]",NA,NA,NA,NA,NA,5,#3386FF,#D89F1C,10,0,1,38,1,329.60000002384186,37,1,438.30000001192093,10,1,experiment,NA,NA,0,0.9,0.1,0,1,269,6,NA
fcp-trial,319,1177012,0.0-280.0-0.0,voc_e2,12275,"[{""event"":""fullscreenenter"",""trial"":1,""time"":3354}]",NA,NA,NA,NA,NA,5,#741CD8,#D8271C,0,10,1,38,1,202.5,37,1,597,0,1,experiment,NA,NA,2,0.5,0.5,4,5,270,6,NA
fcp-trial,320,1179246,0.0-281.0-0.0,voc_e2,12275,"[{""event"":""fullscreenenter"",""trial"":1,""time"":3354}]",NA,NA,NA,NA,NA,5,#FA92F8,#1CD855,0,10,0,38,1,232.5999999642372,39,0,495.89999997615814,10,1,experiment,NA,NA,1,0.3,0.7,3,2,271,7,NA
fcp-trial,321,1181598,0.0-282.0-0.0,voc_e2,12275,"[{""event"":""fullscreenenter"",""trial"":1,""time"":3354}]",NA,NA,NA,NA,NA,3,#D8271C,#741CD8,10,10,0,38,1,429.30000001192093,39,0,417.69999998807907,10,1,experiment,NA,NA,2,0.5,0.5,5,4,272,7,NA
fcp-trial,322,1183824,0.0-283.0-0.0,voc_e2,12275,"[{""event"":""fullscreenenter"",""trial"":1,""time"":3354}]",NA,NA,NA,NA,NA,3,#3386FF,#D89F1C,10,0,1,38,1,373.2999999523163,37,1,346.60000002384186,10,1,experiment,NA,NA,0,0.9,0.1,0,1,273,7,NA
fcp-trial,323,1186658,0.0-284.0-0.0,voc_e2,12275,"[{""event"":""fullscreenenter"",""trial"":1,""time"":3354}]",NA,NA,NA,NA,NA,5,#741CD8,#D8271C,0,10,1,38,1,932.9000000357628,37,1,391.4000000357628,0,1,experiment,NA,NA,2,0.5,0.5,4,5,274,7,NA
fcp-trial,324,1188959,0.0-285.0-0.0,voc_e2,12275,"[{""event"":""fullscreenenter"",""trial"":1,""time"":3354}]",NA,NA,NA,NA,NA,6,#FA92F8,#1CD855,0,10,0,38,1,409.39999997615814,39,0,386.39999997615814,10,1,experiment,NA,NA,1,0.3,0.7,3,2,275,7,NA
fcp-trial,325,1191419,0.0-286.0-0.0,voc_e2,12275,"[{""event"":""fullscreenenter"",""trial"":1,""time"":3354}]",NA,NA,NA,NA,NA,0,#1CD855,#FA92F8,10,0,1,38,1,594.8999999761581,37,1,360.80000001192093,10,1,experiment,NA,NA,1,0.7,0.3,2,3,276,7,NA
fcp-trial,326,1193746,0.0-287.0-0.0,voc_e2,12275,"[{""event"":""fullscreenenter"",""trial"":1,""time"":3354}]",NA,NA,NA,NA,NA,3,#D89F1C,#3386FF,0,10,0,38,1,384.60000002384186,39,0,436.5,10,1,experiment,NA,NA,0,0.1,0.9,1,0,277,7,NA
fcp-trial,327,1196300,0.0-288.0-0.0,voc_e2,12275,"[{""event"":""fullscreenenter"",""trial"":1,""time"":3354}]",NA,NA,NA,NA,NA,1,#741CD8,#D8271C,0,0,1,38,1,727.8000000119209,37,1,322,0,1,experiment,NA,NA,2,0.5,0.5,4,5,278,7,NA
fcp-trial,328,1198735,0.0-289.0-0.0,voc_e2,12275,"[{""event"":""fullscreenenter"",""trial"":1,""time"":3354}]",NA,NA,NA,NA,NA,5,#1CD855,#FA92F8,10,10,1,38,1,600.6999999880791,37,1,328.80000001192093,10,1,experiment,NA,NA,1,0.7,0.3,2,3,279,7,NA
fcp-trial,329,1201254,0.0-290.0-0.0,voc_e2,12275,"[{""event"":""fullscreenenter"",""trial"":1,""time"":3354}]",NA,NA,NA,NA,NA,3,#741CD8,#D8271C,0,10,1,38,1,610.2999999523163,39,0,404.80000001192093,10,0,experiment,NA,NA,2,0.5,0.5,4,5,280,7,NA
fcp-trial,330,1204371,0.0-291.0-0.0,voc_e2,12275,"[{""event"":""fullscreenenter"",""trial"":1,""time"":3354}]",NA,NA,NA,NA,NA,0,#D89F1C,#3386FF,0,10,0,38,1,676.6000000238419,39,0,935,10,1,experiment,NA,NA,0,0.1,0.9,1,0,281,7,NA
fcp-trial,331,1206872,0.0-292.0-0.0,voc_e2,12275,"[{""event"":""fullscreenenter"",""trial"":1,""time"":3354}]",NA,NA,NA,NA,NA,4,#741CD8,#D8271C,10,0,1,38,1,541.5,37,1,448.60000002384186,10,1,experiment,NA,NA,2,0.5,0.5,4,5,282,7,NA
fcp-trial,332,1209319,0.0-293.0-0.0,voc_e2,12275,"[{""event"":""fullscreenenter"",""trial"":1,""time"":3354}]",NA,NA,NA,NA,NA,1,#FA92F8,#1CD855,0,10,0,38,1,594.3000000119209,39,0,348.2000000476837,10,1,experiment,NA,NA,1,0.3,0.7,3,2,283,7,NA
fcp-trial,333,1211883,0.0-294.0-0.0,voc_e2,12275,"[{""event"":""fullscreenenter"",""trial"":1,""time"":3354}]",NA,NA,NA,NA,NA,2,#741CD8,#D8271C,10,0,1,38,1,463.10000002384186,37,1,594.3999999761581,10,1,experiment,NA,NA,2,0.5,0.5,4,5,284,7,NA
fcp-trial,334,1215305,0.0-295.0-0.0,voc_e2,12275,"[{""event"":""fullscreenenter"",""trial"":1,""time"":3354}]",NA,NA,NA,NA,NA,2,#D89F1C,#3386FF,0,10,0,38,1,713.8000000119209,39,0,1202.300000011921,10,1,experiment,NA,NA,0,0.1,0.9,1,0,285,7,NA
fcp-trial,335,1218072,0.0-296.0-0.0,voc_e2,12275,"[{""event"":""fullscreenenter"",""trial"":1,""time"":3354}]",NA,NA,NA,NA,NA,3,#FA92F8,#1CD855,10,10,0,38,1,657.1000000238419,39,0,605.8000000119209,10,1,experiment,NA,NA,1,0.3,0.7,3,2,286,7,NA
fcp-trial,336,1220853,0.0-297.0-0.0,voc_e2,12275,"[{""event"":""fullscreenenter"",""trial"":1,""time"":3354}]",NA,NA,NA,NA,NA,5,#D89F1C,#3386FF,0,10,0,38,1,836.1999999880791,39,0,440,10,1,experiment,NA,NA,0,0.1,0.9,1,0,287,7,NA
fcp-trial,337,1223544,0.0-298.0-0.0,voc_e2,12275,"[{""event"":""fullscreenenter"",""trial"":1,""time"":3354}]",NA,NA,NA,NA,NA,0,#741CD8,#D8271C,0,10,1,38,1,710.2999999523163,37,1,474.60000002384186,0,1,experiment,NA,NA,2,0.5,0.5,4,5,288,7,NA
fcp-trial,338,1226065,0.0-299.0-0.0,voc_e2,12275,"[{""event"":""fullscreenenter"",""trial"":1,""time"":3354}]",NA,NA,NA,NA,NA,4,#1CD855,#FA92F8,0,0,1,38,1,631.6999999880791,37,1,384.39999997615814,0,1,experiment,NA,NA,1,0.7,0.3,2,3,289,7,NA
fcp-trial,339,1228630,0.0-300.0-0.0,voc_e2,12275,"[{""event"":""fullscreenenter"",""trial"":1,""time"":3354}]",NA,NA,NA,NA,NA,2,#FA92F8,#1CD855,0,10,0,38,1,651.8000000119209,39,0,407.10000002384186,10,1,experiment,NA,NA,1,0.3,0.7,3,2,290,7,NA
fcp-trial,340,1231191,0.0-301.0-0.0,voc_e2,12275,"[{""event"":""fullscreenenter"",""trial"":1,""time"":3354}]",NA,NA,NA,NA,NA,1,#3386FF,#D89F1C,0,10,1,38,1,583.7999999523163,37,1,471.2999999523163,0,1,experiment,NA,NA,0,0.9,0.1,0,1,291,7,NA
fcp-trial,341,1234273,0.0-302.0-0.0,voc_e2,12275,"[{""event"":""fullscreenenter"",""trial"":1,""time"":3354}]",NA,NA,NA,NA,NA,6,#D89F1C,#3386FF,0,10,0,38,1,906.1000000238419,39,0,672,10,1,experiment,NA,NA,0,0.1,0.9,1,0,292,7,NA
fcp-trial,342,1236774,0.0-303.0-0.0,voc_e2,12275,"[{""event"":""fullscreenenter"",""trial"":1,""time"":3354}]",NA,NA,NA,NA,NA,6,#D8271C,#741CD8,10,10,0,38,1,387.19999998807907,39,0,608.6000000238419,10,1,experiment,NA,NA,2,0.5,0.5,5,4,293,7,NA
fcp-trial,343,1239374,0.0-304.0-0.0,voc_e2,12275,"[{""event"":""fullscreenenter"",""trial"":1,""time"":3354}]",NA,NA,NA,NA,NA,4,#D89F1C,#3386FF,0,0,0,38,1,553.1999999880791,39,0,540.8000000119209,0,1,experiment,NA,NA,0,0.1,0.9,1,0,294,7,NA
fcp-trial,344,1241725,0.0-305.0-0.0,voc_e2,12275,"[{""event"":""fullscreenenter"",""trial"":1,""time"":3354}]",NA,NA,NA,NA,NA,2,#741CD8,#D8271C,10,0,1,38,1,370.60000002384186,37,1,472.5999999642372,10,1,experiment,NA,NA,2,0.5,0.5,4,5,295,7,NA
fcp-trial,345,1244356,0.0-306.0-0.0,voc_e2,12275,"[{""event"":""fullscreenenter"",""trial"":1,""time"":3354}]",NA,NA,NA,NA,NA,4,#D89F1C,#3386FF,0,10,0,38,1,753.7000000476837,37,1,369.60000002384186,0,0,experiment,NA,NA,0,0.1,0.9,1,0,296,7,NA
fcp-trial,346,1246823,0.0-307.0-0.0,voc_e2,12275,"[{""event"":""fullscreenenter"",""trial"":1,""time"":3354}]",NA,NA,NA,NA,NA,4,#1CD855,#FA92F8,10,0,1,38,1,409.30000001192093,37,1,551.8999999761581,10,1,experiment,NA,NA,1,0.7,0.3,2,3,297,7,NA
fcp-trial,347,1249175,0.0-308.0-0.0,voc_e2,12275,"[{""event"":""fullscreenenter"",""trial"":1,""time"":3354}]",NA,NA,NA,NA,NA,0,#FA92F8,#1CD855,10,10,0,38,1,475.5999999642372,39,0,371.80000001192093,10,1,experiment,NA,NA,1,0.3,0.7,3,2,298,7,NA
fcp-trial,348,1251782,0.0-309.0-0.0,voc_e2,12275,"[{""event"":""fullscreenenter"",""trial"":1,""time"":3354}]",NA,NA,NA,NA,NA,1,#741CD8,#D8271C,10,0,1,38,1,516.9000000357628,37,1,582.6999999880791,10,1,experiment,NA,NA,2,0.5,0.5,4,5,299,7,NA
fcp-trial,349,1254080,0.0-310.0-0.0,voc_e2,12275,"[{""event"":""fullscreenenter"",""trial"":1,""time"":3354}]",NA,NA,NA,NA,NA,2,#3386FF,#D89F1C,10,0,1,38,1,454.39999997615814,37,1,336.4000000357628,10,1,experiment,NA,NA,0,0.9,0.1,0,1,300,7,NA
fcp-trial,350,1256265,0.0-311.0-0.0,voc_e2,12275,"[{""event"":""fullscreenenter"",""trial"":1,""time"":3354}]",NA,NA,NA,NA,NA,2,#FA92F8,#1CD855,0,10,0,38,1,305.5,39,0,374.19999998807907,10,1,experiment,NA,NA,1,0.3,0.7,3,2,301,7,NA
fcp-trial,351,1258368,0.0-312.0-0.0,voc_e2,12275,"[{""event"":""fullscreenenter"",""trial"":1,""time"":3354}]",NA,NA,NA,NA,NA,6,#741CD8,#D8271C,10,0,1,38,1,268.39999997615814,37,1,329.80000001192093,10,1,experiment,NA,NA,2,0.5,0.5,4,5,302,7,NA
fcp-trial,352,1261065,0.0-313.0-0.0,voc_e2,12275,"[{""event"":""fullscreenenter"",""trial"":1,""time"":3354}]",NA,NA,NA,NA,NA,5,#3386FF,#D89F1C,10,0,1,38,1,562.5,37,1,628.5999999642372,10,1,experiment,NA,NA,0,0.9,0.1,0,1,303,7,NA
fcp-trial,353,1263260,0.0-314.0-0.0,voc_e2,12275,"[{""event"":""fullscreenenter"",""trial"":1,""time"":3354}]",NA,NA,NA,NA,NA,1,#D89F1C,#3386FF,0,0,0,38,1,328,39,0,360.30000001192093,0,1,experiment,NA,NA,0,0.1,0.9,1,0,304,7,NA
fcp-trial,354,1265363,0.0-315.0-0.0,voc_e2,12275,"[{""event"":""fullscreenenter"",""trial"":1,""time"":3354}]",NA,NA,NA,NA,NA,0,#741CD8,#D8271C,10,0,1,38,1,316.2000000476837,37,1,280.39999997615814,10,1,experiment,NA,NA,2,0.5,0.5,4,5,305,7,NA
fcp-trial,355,1267963,0.0-316.0-0.0,voc_e2,12275,"[{""event"":""fullscreenenter"",""trial"":1,""time"":3354}]",NA,NA,NA,NA,NA,5,#1CD855,#FA92F8,10,10,1,38,1,759.1999999880791,37,1,336.30000001192093,10,1,experiment,NA,NA,1,0.7,0.3,2,3,306,7,NA
fcp-trial,356,1270167,0.0-317.0-0.0,voc_e2,12275,"[{""event"":""fullscreenenter"",""trial"":1,""time"":3354}]",NA,NA,NA,NA,NA,6,#D89F1C,#3386FF,0,10,0,38,1,362.0999999642372,39,0,335.5999999642372,10,1,experiment,NA,NA,0,0.1,0.9,1,0,307,7,NA
fcp-trial,357,1272551,0.0-318.0-0.0,voc_e2,12275,"[{""event"":""fullscreenenter"",""trial"":1,""time"":3354}]",NA,NA,NA,NA,NA,1,#FA92F8,#1CD855,0,0,0,38,1,363.30000001192093,39,0,516.5,0,1,experiment,NA,NA,1,0.3,0.7,3,2,308,7,NA
fcp-trial,358,1274937,0.0-319.0-0.0,voc_e2,12275,"[{""event"":""fullscreenenter"",""trial"":1,""time"":3354}]",NA,NA,NA,NA,NA,6,#1CD855,#FA92F8,0,0,1,38,1,465.89999997615814,37,1,415.5,0,1,experiment,NA,NA,1,0.7,0.3,2,3,309,7,NA
fcp-trial,359,1277787,0.0-320.0-0.0,voc_e2,12275,"[{""event"":""fullscreenenter"",""trial"":1,""time"":3354}]",NA,NA,NA,NA,NA,3,#D8271C,#741CD8,10,0,0,38,1,512.1999999880791,39,0,831.7999999523163,0,1,experiment,NA,NA,2,0.5,0.5,5,4,310,7,NA
fcp-trial,360,1280698,0.0-321.0-0.0,voc_e2,12275,"[{""event"":""fullscreenenter"",""trial"":1,""time"":3354}]",NA,NA,NA,NA,NA,0,#D89F1C,#3386FF,0,10,0,38,1,396.0999999642372,39,0,1008.3999999761581,10,1,experiment,NA,NA,0,0.1,0.9,1,0,311,7,NA
fcp-trial,361,1283006,0.0-322.0-0.0,voc_e2,12275,"[{""event"":""fullscreenenter"",""trial"":1,""time"":3354}]",NA,NA,NA,NA,NA,4,#741CD8,#D8271C,0,10,1,38,1,442.5999999642372,37,1,359.5999999642372,0,1,experiment,NA,NA,2,0.5,0.5,4,5,312,7,NA
fcp-trial,362,1285334,0.0-323.0-0.0,voc_e2,12275,"[{""event"":""fullscreenenter"",""trial"":1,""time"":3354}]",NA,NA,NA,NA,NA,5,#741CD8,#D8271C,0,0,1,38,1,463,37,1,358.39999997615814,0,1,experiment,NA,NA,2,0.5,0.5,4,5,313,7,NA
fcp-trial,363,1287867,0.0-324.0-0.0,voc_e2,12275,"[{""event"":""fullscreenenter"",""trial"":1,""time"":3354}]",NA,NA,NA,NA,NA,3,#1CD855,#FA92F8,10,10,1,38,1,317.69999998807907,37,1,711.3000000119209,10,1,experiment,NA,NA,1,0.7,0.3,2,3,314,7,NA
fcp-trial,364,1290262,0.0-325.0-0.0,voc_e2,12275,"[{""event"":""fullscreenenter"",""trial"":1,""time"":3354}]",NA,NA,NA,NA,NA,3,#D89F1C,#3386FF,0,10,0,38,1,113.39999997615814,39,0,775.6999999880791,10,1,experiment,NA,NA,0,0.1,0.9,1,0,315,7,NA
audio-instructions,365,1296945,0.0-326.0,voc_e2,12275,"[{""event"":""fullscreenenter"",""trial"":1,""time"":3354}]",NA,328.5,static/audio/finished.wav,NA,0,NA,NA,NA,NA,NA,NA,NA,NA,NA,NA,NA,NA,NA,NA,NA,NA,NA,NA,NA,NA,NA,NA,NA,NA,NA
audio-instructions,366,1308724,0.0-327.0-0.0,voc_e2,12275,"[{""event"":""fullscreenenter"",""trial"":1,""time"":3354}]",NA,943,static/audio/explicit1.wav,NA,0,NA,NA,NA,NA,NA,NA,NA,NA,NA,NA,NA,NA,NA,NA,NA,NA,NA,NA,NA,NA,NA,NA,NA,NA,NA
audio-instructions,367,1317202,0.0-327.0-1.0,voc_e2,12275,"[{""event"":""fullscreenenter"",""trial"":1,""time"":3354}]",NA,876.8999999761581,static/audio/explicit2.wav,NA,0,NA,NA,NA,NA,NA,NA,NA,NA,NA,NA,NA,NA,NA,NA,NA,NA,NA,NA,NA,NA,NA,NA,NA,NA,NA
image-slider-response,368,1323108,0.0-328.0,voc_e2,12275,"[{""event"":""fullscreenenter"",""trial"":1,""time"":3354}]",NA,5902.799999952316,static/img/machines/machine4.png,NA,NA,NA,NA,NA,NA,NA,NA,NA,NA,NA,NA,NA,NA,NA,NA,explicit,NA,NA,NA,NA,NA,NA,NA,NA,NA,4
image-slider-response,369,1329815,0.0-329.0,voc_e2,12275,"[{""event"":""fullscreenenter"",""trial"":1,""time"":3354}]",NA,6705.5,static/img/machines/machine3.png,NA,NA,NA,NA,NA,NA,NA,NA,NA,NA,NA,NA,NA,NA,NA,NA,explicit,NA,NA,NA,NA,NA,NA,NA,NA,NA,6
image-slider-response,370,1331951,0.0-330.0,voc_e2,12275,"[{""event"":""fullscreenenter"",""trial"":1,""time"":3354}]",NA,2134.199999988079,static/img/machines/machine2.png,NA,NA,NA,NA,NA,NA,NA,NA,NA,NA,NA,NA,NA,NA,NA,NA,explicit,NA,NA,NA,NA,NA,NA,NA,NA,NA,5
image-slider-response,371,1338358,0.0-331.0,voc_e2,12275,"[{""event"":""fullscreenenter"",""trial"":1,""time"":3354}]",NA,6405.699999988079,static/img/machines/machine5.png,NA,NA,NA,NA,NA,NA,NA,NA,NA,NA,NA,NA,NA,NA,NA,NA,explicit,NA,NA,NA,NA,NA,NA,NA,NA,NA,8
image-slider-response,372,1341095,0.0-332.0,voc_e2,12275,"[{""event"":""fullscreenenter"",""trial"":1,""time"":3354}]",NA,2734.099999964237,static/img/machines/machine6.png,NA,NA,NA,NA,NA,NA,NA,NA,NA,NA,NA,NA,NA,NA,NA,NA,explicit,NA,NA,NA,NA,NA,NA,NA,NA,NA,8
image-slider-response,373,1344415,0.0-333.0,voc_e2,12275,"[{""event"":""fullscreenenter"",""trial"":1,""time"":3354}]",NA,3318.800000011921,static/img/machines/machine1.png,NA,NA,NA,NA,NA,NA,NA,NA,NA,NA,NA,NA,NA,NA,NA,NA,explicit,NA,NA,NA,NA,NA,NA,NA,NA,NA,2
