trial_type,trial_index,time_elapsed,internal_node_id,task_version,subject_id,interactions,success,rt,stimulus,key_press,button_pressed,offer,arcade_color_L,arcade_color_R,arcade_outcome_L,arcade_outcome_R,correct,stage_1_key,stage_1_choice,stage_1_rt,stage_2_key,stage_2_choice,stage_2_rt,stage_3_outcome,accuracy,phase,responses,num_errors,context,reward_prob_L,reward_prob_R,arcade_id_L,arcade_id_R,trial,block,response
pavlovia,0,15,0.0-0.0,voc_e2,11758,[],NA,NA,NA,NA,NA,NA,NA,NA,NA,NA,NA,NA,NA,NA,NA,NA,NA,NA,NA,NA,NA,NA,NA,NA,NA,NA,NA,NA,NA,NA
fullscreen,1,3801,0.0-1.0,voc_e2,11758,"[{""event"":""fullscreenenter"",""trial"":1,""time"":2818}]",TRUE,NA,NA,NA,NA,NA,NA,NA,NA,NA,NA,NA,NA,NA,NA,NA,NA,NA,NA,NA,NA,NA,NA,NA,NA,NA,NA,NA,NA,NA
audio-keyboard-response,2,7643,0.0-2.0,voc_e2,11758,"[{""event"":""fullscreenenter"",""trial"":1,""time"":2818}]",NA,2771,static/audio/beep_loop.wav,32,NA,NA,NA,NA,NA,NA,NA,NA,NA,NA,NA,NA,NA,NA,NA,NA,NA,NA,NA,NA,NA,NA,NA,NA,NA,NA
audio-test,3,9083,0.0-3.0,voc_e2,11758,"[{""event"":""fullscreenenter"",""trial"":1,""time"":2818}]",NA,NA,static/audio/turtle.wav,NA,3,NA,NA,NA,NA,NA,NA,NA,NA,NA,NA,NA,NA,NA,NA,NA,NA,NA,NA,NA,NA,NA,NA,NA,NA,NA
audio-test,4,11335,0.0-4.0,voc_e2,11758,"[{""event"":""fullscreenenter"",""trial"":1,""time"":2818}]",NA,NA,static/audio/shark.wav,NA,2,NA,NA,NA,NA,NA,NA,NA,NA,NA,NA,NA,NA,NA,NA,NA,NA,NA,NA,NA,NA,NA,NA,NA,NA,NA
audio-instructions,5,18473,0.0-5.0-0.0,voc_e2,11758,"[{""event"":""fullscreenenter"",""trial"":1,""time"":2818}]",NA,1346.800000011921,static/audio/instructions1.wav,NA,0,NA,NA,NA,NA,NA,NA,NA,NA,NA,NA,NA,NA,NA,NA,NA,NA,NA,NA,NA,NA,NA,NA,NA,NA,NA
audio-instructions,6,32827,0.0-5.0-1.0,voc_e2,11758,"[{""event"":""fullscreenenter"",""trial"":1,""time"":2818}]",NA,7620.699999988079,static/audio/instructions2.wav,NA,0,NA,NA,NA,NA,NA,NA,NA,NA,NA,NA,NA,NA,NA,NA,NA,NA,NA,NA,NA,NA,NA,NA,NA,NA,NA
audio-instructions,7,39929,0.0-5.0-2.0,voc_e2,11758,"[{""event"":""fullscreenenter"",""trial"":1,""time"":2818}]",NA,1293.0999999642372,static/audio/instructions3.wav,NA,0,NA,NA,NA,NA,NA,NA,NA,NA,NA,NA,NA,NA,NA,NA,NA,NA,NA,NA,NA,NA,NA,NA,NA,NA,NA
audio-instructions,8,55708,0.0-5.0-3.0,voc_e2,11758,"[{""event"":""fullscreenenter"",""trial"":1,""time"":2818}]",NA,2552,static/audio/instructions4.wav,NA,0,NA,NA,NA,NA,NA,NA,NA,NA,NA,NA,NA,NA,NA,NA,NA,NA,NA,NA,NA,NA,NA,NA,NA,NA,NA
audio-instructions,9,66365,0.0-5.0-4.0,voc_e2,11758,"[{""event"":""fullscreenenter"",""trial"":1,""time"":2818}]",NA,1268.5,static/audio/instructions5.wav,NA,0,NA,NA,NA,NA,NA,NA,NA,NA,NA,NA,NA,NA,NA,NA,NA,NA,NA,NA,NA,NA,NA,NA,NA,NA,NA
fcp-practice,10,69195,0.0-5.0-5.0-0.0,voc_e2,11758,"[{""event"":""fullscreenenter"",""trial"":1,""time"":2818}]",NA,NA,NA,NA,NA,NA,#EDC948,#46d3c8,10,0,1,null,null,null,37,1,1312.9000000357628,10,1,practice,NA,NA,NA,NA,NA,NA,NA,NA,NA,NA
fcp-practice,11,71186,0.0-5.0-5.0-1.0,voc_e2,11758,"[{""event"":""fullscreenenter"",""trial"":1,""time"":2818}]",NA,NA,NA,NA,NA,NA,#EDC948,#46d3c8,10,0,1,null,null,null,37,1,478.199999988079,10,1,practice,NA,NA,NA,NA,NA,NA,NA,NA,NA,NA
fcp-practice,12,72792,0.0-5.0-5.0-2.0,voc_e2,11758,"[{""event"":""fullscreenenter"",""trial"":1,""time"":2818}]",NA,NA,NA,NA,NA,NA,#EDC948,#46d3c8,0,10,1,null,null,null,37,1,93.30000001192091,0,1,practice,NA,NA,NA,NA,NA,NA,NA,NA,NA,NA
fcp-practice,13,74326,0.0-5.0-5.0-3.0,voc_e2,11758,"[{""event"":""fullscreenenter"",""trial"":1,""time"":2818}]",NA,NA,NA,NA,NA,NA,#EDC948,#46d3c8,10,0,1,null,null,null,37,1,22.700000047683716,10,1,practice,NA,NA,NA,NA,NA,NA,NA,NA,NA,NA
fcp-practice,14,76532,0.0-5.0-5.0-4.0,voc_e2,11758,"[{""event"":""fullscreenenter"",""trial"":1,""time"":2818}]",NA,NA,NA,NA,NA,NA,#EDC948,#46d3c8,10,0,1,null,null,null,37,1,687.2000000476837,10,1,practice,NA,NA,NA,NA,NA,NA,NA,NA,NA,NA
audio-instructions,15,96833,0.0-5.0-6.0,voc_e2,11758,"[{""event"":""fullscreenenter"",""trial"":1,""time"":2818}]",NA,2295.5,static/audio/instructions6.wav,NA,0,NA,NA,NA,NA,NA,NA,NA,NA,NA,NA,NA,NA,NA,NA,NA,NA,NA,NA,NA,NA,NA,NA,NA,NA,NA
audio-instructions,16,117062,0.0-5.0-7.0,voc_e2,11758,"[{""event"":""fullscreenenter"",""trial"":1,""time"":2818}]",NA,1035.399999976158,static/audio/instructions7.wav,NA,0,NA,NA,NA,NA,NA,NA,NA,NA,NA,NA,NA,NA,NA,NA,NA,NA,NA,NA,NA,NA,NA,NA,NA,NA,NA
audio-instructions,17,128183,0.0-5.0-8.0,voc_e2,11758,"[{""event"":""fullscreenenter"",""trial"":1,""time"":2818}]",NA,1655.7000000476835,static/audio/instructions8.wav,NA,0,NA,NA,NA,NA,NA,NA,NA,NA,NA,NA,NA,NA,NA,NA,NA,NA,NA,NA,NA,NA,NA,NA,NA,NA,NA
fcp-comprehension,18,139570,0.0-5.0-9.0,voc_e2,11758,"[{""event"":""fullscreenenter"",""trial"":1,""time"":2818}]",NA,11384.899999976158,NA,NA,NA,NA,NA,NA,NA,NA,NA,NA,NA,NA,NA,NA,NA,NA,NA,NA,"true,true",0,NA,NA,NA,NA,NA,NA,NA,NA
audio-instructions,19,146770,0.0-6.0-0.0,voc_e2,11758,"[{""event"":""fullscreenenter"",""trial"":1,""time"":2818}]",NA,1653,static/audio/instructions9.wav,NA,0,NA,NA,NA,NA,NA,NA,NA,NA,NA,NA,NA,NA,NA,NA,NA,NA,NA,NA,NA,NA,NA,NA,NA,NA,NA
audio-instructions,20,160306,0.0-6.0-1.0,voc_e2,11758,"[{""event"":""fullscreenenter"",""trial"":1,""time"":2818}]",NA,1418.9000000357628,static/audio/instructions10.wav,NA,0,NA,NA,NA,NA,NA,NA,NA,NA,NA,NA,NA,NA,NA,NA,NA,NA,NA,NA,NA,NA,NA,NA,NA,NA,NA
fcp-trial,21,164648,0.0-6.0-2.0,voc_e2,11758,"[{""event"":""fullscreenenter"",""trial"":1,""time"":2818}]",NA,NA,NA,NA,NA,0,#EDC948,#46d3c8,10,10,1,38,1,1852.199999988079,37,1,942.100000023842,10,1,practice,NA,NA,NA,NA,NA,NA,NA,NA,NA,NA
audio-instructions,22,178783,0.0-6.0-3.0,voc_e2,11758,"[{""event"":""fullscreenenter"",""trial"":1,""time"":2818}]",NA,3126.399999976158,static/audio/instructions11.wav,NA,0,NA,NA,NA,NA,NA,NA,NA,NA,NA,NA,NA,NA,NA,NA,NA,NA,NA,NA,NA,NA,NA,NA,NA,NA,NA
fcp-trial,23,190084,0.0-6.0-4.0,voc_e2,11758,"[{""event"":""fullscreenenter"",""trial"":1,""time"":2818}]",NA,NA,NA,NA,NA,6,#EDC948,#46d3c8,10,10,1,40,0,5546.899999976158,39,0,4242,10,0,practice,NA,NA,NA,NA,NA,NA,NA,NA,NA,NA
audio-instructions,24,209637,0.0-6.0-5.0,voc_e2,11758,"[{""event"":""fullscreenenter"",""trial"":1,""time"":2818}]",NA,861.6999999880791,static/audio/instructions12.wav,NA,0,NA,NA,NA,NA,NA,NA,NA,NA,NA,NA,NA,NA,NA,NA,NA,NA,NA,NA,NA,NA,NA,NA,NA,NA,NA
audio-instructions,25,218633,0.0-6.0-6.0,voc_e2,11758,"[{""event"":""fullscreenenter"",""trial"":1,""time"":2818}]",NA,1396.600000023842,static/audio/instructions13.wav,NA,0,NA,NA,NA,NA,NA,NA,NA,NA,NA,NA,NA,NA,NA,NA,NA,NA,NA,NA,NA,NA,NA,NA,NA,NA,NA
audio-instructions,26,228257,0.0-6.0-7.0,voc_e2,11758,"[{""event"":""fullscreenenter"",""trial"":1,""time"":2818}]",NA,1181,static/audio/instructions14.wav,NA,0,NA,NA,NA,NA,NA,NA,NA,NA,NA,NA,NA,NA,NA,NA,NA,NA,NA,NA,NA,NA,NA,NA,NA,NA,NA
audio-instructions,27,235590,0.0-7.0-0.0,voc_e2,11758,"[{""event"":""fullscreenenter"",""trial"":1,""time"":2818}]",NA,423.89999997615814,static/audio/instructions15.wav,NA,0,NA,NA,NA,NA,NA,NA,NA,NA,NA,NA,NA,NA,NA,NA,NA,NA,NA,NA,NA,NA,NA,NA,NA,NA,NA
audio-instructions,28,243193,0.0-7.0-1.0,voc_e2,11758,"[{""event"":""fullscreenenter"",""trial"":1,""time"":2818}]",NA,776.7000000476837,static/audio/instructions16.wav,NA,0,NA,NA,NA,NA,NA,NA,NA,NA,NA,NA,NA,NA,NA,NA,NA,NA,NA,NA,NA,NA,NA,NA,NA,NA,NA
audio-instructions,29,251284,0.0-7.0-2.0,voc_e2,11758,"[{""event"":""fullscreenenter"",""trial"":1,""time"":2818}]",NA,418,static/audio/instructions17.wav,NA,0,NA,NA,NA,NA,NA,NA,NA,NA,NA,NA,NA,NA,NA,NA,NA,NA,NA,NA,NA,NA,NA,NA,NA,NA,NA
audio-instructions,30,259792,0.0-7.0-3.0,voc_e2,11758,"[{""event"":""fullscreenenter"",""trial"":1,""time"":2818}]",NA,746.2999999523163,static/audio/instructions18.wav,NA,0,NA,NA,NA,NA,NA,NA,NA,NA,NA,NA,NA,NA,NA,NA,NA,NA,NA,NA,NA,NA,NA,NA,NA,NA,NA
audio-instructions,31,267309,0.0-7.0-4.0,voc_e2,11758,"[{""event"":""fullscreenenter"",""trial"":1,""time"":2818}]",NA,782.9000000357628,static/audio/instructions19.wav,NA,0,NA,NA,NA,NA,NA,NA,NA,NA,NA,NA,NA,NA,NA,NA,NA,NA,NA,NA,NA,NA,NA,NA,NA,NA,NA
fcp-comprehension,32,279863,0.0-7.0-5.0,voc_e2,11758,"[{""event"":""fullscreenenter"",""trial"":1,""time"":2818}]",NA,12552.399999976158,NA,NA,NA,NA,NA,NA,NA,NA,NA,NA,NA,NA,NA,NA,NA,NA,NA,NA,"false,false,false,true",0,NA,NA,NA,NA,NA,NA,NA,NA
audio-instructions,33,290372,0.0-8.0,voc_e2,11758,"[{""event"":""fullscreenenter"",""trial"":1,""time"":2818}]",NA,1285.9000000357628,static/audio/ready.wav,NA,0,NA,NA,NA,NA,NA,NA,NA,NA,NA,NA,NA,NA,NA,NA,NA,NA,NA,NA,NA,NA,NA,NA,NA,NA,NA
fcp-trial,34,294699,0.0-9.0-0.0,voc_e2,11758,"[{""event"":""fullscreenenter"",""trial"":1,""time"":2818}]",NA,NA,NA,NA,NA,6,#FA92F8,#1CD855,0,10,0,40,0,1760,37,1,1042.2000000476835,0,0,experiment,NA,NA,2,0.5,0.5,5,4,1,1,NA
fcp-trial,35,298181,0.0-10.0-0.0,voc_e2,11758,"[{""event"":""fullscreenenter"",""trial"":1,""time"":2818}]",NA,NA,NA,NA,NA,3,#1CD855,#FA92F8,0,0,1,40,0,1026.5,37,1,924.2999999523164,0,1,experiment,NA,NA,2,0.5,0.5,4,5,2,1,NA
fcp-trial,36,302312,0.0-11.0-0.0,voc_e2,11758,"[{""event"":""fullscreenenter"",""trial"":1,""time"":2818}]",NA,NA,NA,NA,NA,2,#FA92F8,#1CD855,0,0,0,40,0,2063,37,1,542.1999999880791,0,0,experiment,NA,NA,2,0.5,0.5,5,4,3,1,NA
fcp-trial,37,305972,0.0-12.0-0.0,voc_e2,11758,"[{""event"":""fullscreenenter"",""trial"":1,""time"":2818}]",NA,NA,NA,NA,NA,1,#D8271C,#741CD8,10,0,1,38,1,1199.300000011921,39,0,941,0,0,experiment,NA,NA,0,0.9,0.1,0,1,4,1,NA
fcp-trial,38,309077,0.0-13.0-0.0,voc_e2,11758,"[{""event"":""fullscreenenter"",""trial"":1,""time"":2818}]",NA,NA,NA,NA,NA,0,#3386FF,#D89F1C,10,0,1,40,0,796.0999999642372,37,1,797.8999999761581,10,1,experiment,NA,NA,1,0.7,0.3,2,3,5,1,NA
fcp-trial,39,312187,0.0-14.0-0.0,voc_e2,11758,"[{""event"":""fullscreenenter"",""trial"":1,""time"":2818}]",NA,NA,NA,NA,NA,6,#D89F1C,#3386FF,0,10,0,40,0,864.8000000119209,37,1,721.5,0,0,experiment,NA,NA,1,0.3,0.7,3,2,6,1,NA
fcp-trial,40,315088,0.0-15.0-0.0,voc_e2,11758,"[{""event"":""fullscreenenter"",""trial"":1,""time"":2818}]",NA,NA,NA,NA,NA,0,#741CD8,#D8271C,0,10,0,38,1,373.80000001192093,39,0,1009.399999976158,10,1,experiment,NA,NA,0,0.1,0.9,1,0,7,1,NA
fcp-trial,41,318683,0.0-16.0-0.0,voc_e2,11758,"[{""event"":""fullscreenenter"",""trial"":1,""time"":2818}]",NA,NA,NA,NA,NA,1,#FA92F8,#1CD855,0,10,0,38,1,1411.699999988079,37,1,665.6000000238419,0,0,experiment,NA,NA,2,0.5,0.5,5,4,8,1,NA
fcp-trial,42,321707,0.0-17.0-0.0,voc_e2,11758,"[{""event"":""fullscreenenter"",""trial"":1,""time"":2818}]",NA,NA,NA,NA,NA,4,#D89F1C,#3386FF,0,0,0,40,0,729,39,0,783,0,1,experiment,NA,NA,1,0.3,0.7,3,2,9,1,NA
fcp-trial,43,325165,0.0-18.0-0.0,voc_e2,11758,"[{""event"":""fullscreenenter"",""trial"":1,""time"":2818}]",NA,NA,NA,NA,NA,6,#741CD8,#D8271C,0,10,0,40,0,1097.699999988079,39,0,844.6000000238419,10,1,experiment,NA,NA,0,0.1,0.9,1,0,10,1,NA
fcp-trial,44,328531,0.0-19.0-0.0,voc_e2,11758,"[{""event"":""fullscreenenter"",""trial"":1,""time"":2818}]",NA,NA,NA,NA,NA,5,#1CD855,#FA92F8,0,10,1,40,0,1044.8999999761581,37,1,803.1000000238419,0,1,experiment,NA,NA,2,0.5,0.5,4,5,11,1,NA
fcp-trial,45,331850,0.0-20.0-0.0,voc_e2,11758,"[{""event"":""fullscreenenter"",""trial"":1,""time"":2818}]",NA,NA,NA,NA,NA,2,#3386FF,#D89F1C,10,0,1,38,1,1200.199999988079,39,0,607,0,0,experiment,NA,NA,1,0.7,0.3,2,3,12,1,NA
fcp-trial,46,334810,0.0-21.0-0.0,voc_e2,11758,"[{""event"":""fullscreenenter"",""trial"":1,""time"":2818}]",NA,NA,NA,NA,NA,3,#D89F1C,#3386FF,0,10,0,38,1,798.4000000357628,39,0,653.9000000357628,10,1,experiment,NA,NA,1,0.3,0.7,3,2,13,1,NA
fcp-trial,47,337839,0.0-22.0-0.0,voc_e2,11758,"[{""event"":""fullscreenenter"",""trial"":1,""time"":2818}]",NA,NA,NA,NA,NA,2,#D8271C,#741CD8,0,0,1,38,1,1180.800000011921,37,1,337.80000001192093,0,1,experiment,NA,NA,0,0.9,0.1,0,1,14,1,NA
fcp-trial,48,340651,0.0-23.0-0.0,voc_e2,11758,"[{""event"":""fullscreenenter"",""trial"":1,""time"":2818}]",NA,NA,NA,NA,NA,4,#D8271C,#741CD8,10,0,1,38,1,754.6000000238419,37,1,543.8999999761581,10,1,experiment,NA,NA,0,0.9,0.1,0,1,15,1,NA
fcp-trial,49,343793,0.0-24.0-0.0,voc_e2,11758,"[{""event"":""fullscreenenter"",""trial"":1,""time"":2818}]",NA,NA,NA,NA,NA,4,#1CD855,#FA92F8,0,0,1,40,0,466,37,1,1164.300000011921,0,1,experiment,NA,NA,2,0.5,0.5,4,5,16,1,NA
fcp-trial,50,346521,0.0-25.0-0.0,voc_e2,11758,"[{""event"":""fullscreenenter"",""trial"":1,""time"":2818}]",NA,NA,NA,NA,NA,5,#3386FF,#D89F1C,10,0,1,40,0,510.10000002384186,37,1,703.6000000238419,10,1,experiment,NA,NA,1,0.7,0.3,2,3,17,1,NA
fcp-trial,51,350202,0.0-26.0-0.0,voc_e2,11758,"[{""event"":""fullscreenenter"",""trial"":1,""time"":2818}]",NA,NA,NA,NA,NA,1,#3386FF,#D89F1C,10,0,1,38,1,1249.4000000357628,37,1,910.399999976158,10,1,experiment,NA,NA,1,0.7,0.3,2,3,18,1,NA
fcp-trial,52,353527,0.0-27.0-0.0,voc_e2,11758,"[{""event"":""fullscreenenter"",""trial"":1,""time"":2818}]",NA,NA,NA,NA,NA,0,#1CD855,#FA92F8,10,10,1,38,1,947.4000000357628,37,1,865.4000000357628,10,1,experiment,NA,NA,2,0.5,0.5,4,5,19,1,NA
fcp-trial,53,357589,0.0-28.0-0.0,voc_e2,11758,"[{""event"":""fullscreenenter"",""trial"":1,""time"":2818}]",NA,NA,NA,NA,NA,3,#741CD8,#D8271C,0,0,0,40,0,1775.800000011921,37,1,774.5,0,0,experiment,NA,NA,0,0.1,0.9,1,0,20,1,NA
fcp-trial,54,360834,0.0-29.0-0.0,voc_e2,11758,"[{""event"":""fullscreenenter"",""trial"":1,""time"":2818}]",NA,NA,NA,NA,NA,5,#741CD8,#D8271C,0,10,0,38,1,591.4000000357628,39,0,1140,10,1,experiment,NA,NA,0,0.1,0.9,1,0,21,1,NA
fcp-trial,55,365074,0.0-30.0-0.0,voc_e2,11758,"[{""event"":""fullscreenenter"",""trial"":1,""time"":2818}]",NA,NA,NA,NA,NA,0,#741CD8,#D8271C,0,10,0,40,0,903.3999999761581,37,1,1825.7999999523165,0,0,experiment,NA,NA,0,0.1,0.9,1,0,22,1,NA
fcp-trial,56,368335,0.0-31.0-0.0,voc_e2,11758,"[{""event"":""fullscreenenter"",""trial"":1,""time"":2818}]",NA,NA,NA,NA,NA,2,#3386FF,#D89F1C,10,0,1,40,0,1225.0999999642372,37,1,525.1000000238419,10,1,experiment,NA,NA,1,0.7,0.3,2,3,23,1,NA
fcp-trial,57,371393,0.0-32.0-0.0,voc_e2,11758,"[{""event"":""fullscreenenter"",""trial"":1,""time"":2818}]",NA,NA,NA,NA,NA,1,#D89F1C,#3386FF,0,0,0,38,1,1157.2000000476837,39,0,389.300000011921,0,1,experiment,NA,NA,1,0.3,0.7,3,2,24,1,NA
fcp-trial,58,376549,0.0-33.0-0.0,voc_e2,11758,"[{""event"":""fullscreenenter"",""trial"":1,""time"":2818}]",NA,NA,NA,NA,NA,2,#FA92F8,#1CD855,10,0,0,40,0,3061.199999988079,37,1,583,10,0,experiment,NA,NA,2,0.5,0.5,5,4,25,1,NA
fcp-trial,59,380727,0.0-34.0-0.0,voc_e2,11758,"[{""event"":""fullscreenenter"",""trial"":1,""time"":2818}]",NA,NA,NA,NA,NA,3,#741CD8,#D8271C,0,10,0,38,1,2262.2999999523163,39,0,406.2999999523163,10,1,experiment,NA,NA,0,0.1,0.9,1,0,26,1,NA
fcp-trial,60,384461,0.0-35.0-0.0,voc_e2,11758,"[{""event"":""fullscreenenter"",""trial"":1,""time"":2818}]",NA,NA,NA,NA,NA,1,#741CD8,#D8271C,0,10,0,38,1,1716.199999988079,39,0,506.4000000357628,10,1,experiment,NA,NA,0,0.1,0.9,1,0,27,1,NA
fcp-trial,61,388759,0.0-36.0-0.0,voc_e2,11758,"[{""event"":""fullscreenenter"",""trial"":1,""time"":2818}]",NA,NA,NA,NA,NA,3,#FA92F8,#1CD855,10,10,0,40,0,2124.400000035763,37,1,658.6000000238419,10,0,experiment,NA,NA,2,0.5,0.5,5,4,28,1,NA
fcp-trial,62,392883,0.0-37.0-0.0,voc_e2,11758,"[{""event"":""fullscreenenter"",""trial"":1,""time"":2818}]",NA,NA,NA,NA,NA,5,#D89F1C,#3386FF,0,10,0,40,0,1912.199999988079,39,0,702.3000000119209,10,1,experiment,NA,NA,1,0.3,0.7,3,2,29,1,NA
fcp-trial,63,396377,0.0-38.0-0.0,voc_e2,11758,"[{""event"":""fullscreenenter"",""trial"":1,""time"":2818}]",NA,NA,NA,NA,NA,4,#3386FF,#D89F1C,10,0,1,40,0,1165.6000000238419,39,0,813.9000000357628,0,0,experiment,NA,NA,1,0.7,0.3,2,3,30,1,NA
fcp-trial,64,400441,0.0-39.0-0.0,voc_e2,11758,"[{""event"":""fullscreenenter"",""trial"":1,""time"":2818}]",NA,NA,NA,NA,NA,5,#D8271C,#741CD8,10,0,1,40,0,1881.1000000238419,37,1,671.6000000238419,10,1,experiment,NA,NA,0,0.9,0.1,0,1,31,1,NA
fcp-trial,65,404307,0.0-40.0-0.0,voc_e2,11758,"[{""event"":""fullscreenenter"",""trial"":1,""time"":2818}]",NA,NA,NA,NA,NA,0,#FA92F8,#1CD855,10,10,0,38,1,939.5999999642372,37,1,1416.300000011921,10,0,experiment,NA,NA,2,0.5,0.5,5,4,32,1,NA
fcp-trial,66,408164,0.0-41.0-0.0,voc_e2,11758,"[{""event"":""fullscreenenter"",""trial"":1,""time"":2818}]",NA,NA,NA,NA,NA,6,#D8271C,#741CD8,10,0,1,40,0,1522.5999999642372,37,1,821.0999999642372,10,1,experiment,NA,NA,0,0.9,0.1,0,1,33,1,NA
fcp-trial,67,411846,0.0-42.0-0.0,voc_e2,11758,"[{""event"":""fullscreenenter"",""trial"":1,""time"":2818}]",NA,NA,NA,NA,NA,3,#D89F1C,#3386FF,0,10,0,38,1,1689.1000000238419,39,0,480,10,1,experiment,NA,NA,1,0.3,0.7,3,2,34,1,NA
fcp-trial,68,415505,0.0-43.0-0.0,voc_e2,11758,"[{""event"":""fullscreenenter"",""trial"":1,""time"":2818}]",NA,NA,NA,NA,NA,5,#1CD855,#FA92F8,10,10,1,40,0,1655.300000011921,37,1,491.60000002384186,10,1,experiment,NA,NA,2,0.5,0.5,4,5,35,1,NA
fcp-trial,69,418153,0.0-44.0-0.0,voc_e2,11758,"[{""event"":""fullscreenenter"",""trial"":1,""time"":2818}]",NA,NA,NA,NA,NA,2,#D8271C,#741CD8,10,0,1,38,1,748.6000000238419,37,1,381.699999988079,10,1,experiment,NA,NA,0,0.9,0.1,0,1,36,1,NA
fcp-trial,70,422783,0.0-45.0-0.0,voc_e2,11758,"[{""event"":""fullscreenenter"",""trial"":1,""time"":2818}]",NA,NA,NA,NA,NA,0,#3386FF,#D89F1C,10,0,1,38,1,1709.2000000476837,37,1,1406.600000023842,10,1,experiment,NA,NA,1,0.7,0.3,2,3,37,1,NA
fcp-trial,71,426748,0.0-46.0-0.0,voc_e2,11758,"[{""event"":""fullscreenenter"",""trial"":1,""time"":2818}]",NA,NA,NA,NA,NA,4,#FA92F8,#1CD855,0,0,0,40,0,1482.300000011921,37,1,958.600000023842,0,0,experiment,NA,NA,2,0.5,0.5,5,4,38,1,NA
fcp-trial,72,430330,0.0-47.0-0.0,voc_e2,11758,"[{""event"":""fullscreenenter"",""trial"":1,""time"":2818}]",NA,NA,NA,NA,NA,1,#1CD855,#FA92F8,0,10,1,40,0,1358.5,39,0,706.6999999880791,10,0,experiment,NA,NA,2,0.5,0.5,4,5,39,1,NA
fcp-trial,73,433452,0.0-48.0-0.0,voc_e2,11758,"[{""event"":""fullscreenenter"",""trial"":1,""time"":2818}]",NA,NA,NA,NA,NA,6,#D89F1C,#3386FF,10,0,0,40,0,993.0999999642372,37,1,613.8000000119209,10,0,experiment,NA,NA,1,0.3,0.7,3,2,40,1,NA
fcp-trial,74,436701,0.0-49.0-0.0,voc_e2,11758,"[{""event"":""fullscreenenter"",""trial"":1,""time"":2818}]",NA,NA,NA,NA,NA,4,#741CD8,#D8271C,0,10,0,40,0,989.1000000238419,37,1,747.5,0,0,experiment,NA,NA,0,0.1,0.9,1,0,41,1,NA
fcp-trial,75,439923,0.0-50.0-0.0,voc_e2,11758,"[{""event"":""fullscreenenter"",""trial"":1,""time"":2818}]",NA,NA,NA,NA,NA,6,#1CD855,#FA92F8,0,10,1,40,0,803.7999999523163,39,0,903.6999999880792,10,0,experiment,NA,NA,2,0.5,0.5,4,5,42,1,NA
fcp-trial,76,443226,0.0-51.0-0.0,voc_e2,11758,"[{""event"":""fullscreenenter"",""trial"":1,""time"":2818}]",NA,NA,NA,NA,NA,3,#FA92F8,#1CD855,0,0,0,38,1,1229.9000000357628,39,0,554.1999999880791,0,1,experiment,NA,NA,2,0.5,0.5,5,4,43,1,NA
fcp-trial,77,446649,0.0-52.0-0.0,voc_e2,11758,"[{""event"":""fullscreenenter"",""trial"":1,""time"":2818}]",NA,NA,NA,NA,NA,1,#741CD8,#D8271C,0,0,0,40,0,1194.300000011921,39,0,717,0,1,experiment,NA,NA,0,0.1,0.9,1,0,44,1,NA
fcp-trial,78,450520,0.0-53.0-0.0,voc_e2,11758,"[{""event"":""fullscreenenter"",""trial"":1,""time"":2818}]",NA,NA,NA,NA,NA,1,#3386FF,#D89F1C,0,0,1,38,1,1399.7000000476837,37,1,955.3000000119208,0,1,experiment,NA,NA,1,0.7,0.3,2,3,45,1,NA
fcp-trial,79,453868,0.0-54.0-0.0,voc_e2,11758,"[{""event"":""fullscreenenter"",""trial"":1,""time"":2818}]",NA,NA,NA,NA,NA,6,#3386FF,#D89F1C,10,10,1,40,0,1135.5,39,0,696.6999999880791,10,0,experiment,NA,NA,1,0.7,0.3,2,3,46,2,NA
fcp-trial,80,457524,0.0-55.0-0.0,voc_e2,11758,"[{""event"":""fullscreenenter"",""trial"":1,""time"":2818}]",NA,NA,NA,NA,NA,2,#741CD8,#D8271C,0,10,0,38,1,1500.5,39,0,639.8000000119209,10,1,experiment,NA,NA,0,0.1,0.9,1,0,47,2,NA
fcp-trial,81,461306,0.0-56.0-0.0,voc_e2,11758,"[{""event"":""fullscreenenter"",""trial"":1,""time"":2818}]",NA,NA,NA,NA,NA,6,#FA92F8,#1CD855,0,10,0,40,0,1654.699999988079,37,1,614.2999999523163,0,0,experiment,NA,NA,2,0.5,0.5,5,4,48,2,NA
fcp-trial,82,464690,0.0-57.0-0.0,voc_e2,11758,"[{""event"":""fullscreenenter"",""trial"":1,""time"":2818}]",NA,NA,NA,NA,NA,4,#3386FF,#D89F1C,10,0,1,38,1,1307.199999988079,37,1,566.3999999761581,10,1,experiment,NA,NA,1,0.7,0.3,2,3,49,2,NA
fcp-trial,83,468026,0.0-58.0-0.0,voc_e2,11758,"[{""event"":""fullscreenenter"",""trial"":1,""time"":2818}]",NA,NA,NA,NA,NA,4,#1CD855,#FA92F8,0,0,1,38,1,1363.0999999642372,37,1,460.699999988079,0,1,experiment,NA,NA,2,0.5,0.5,4,5,50,2,NA
fcp-trial,84,470994,0.0-59.0-0.0,voc_e2,11758,"[{""event"":""fullscreenenter"",""trial"":1,""time"":2818}]",NA,NA,NA,NA,NA,1,#FA92F8,#1CD855,10,10,0,38,1,1034.300000011921,39,0,416.300000011921,10,1,experiment,NA,NA,2,0.5,0.5,5,4,51,2,NA
fcp-trial,85,474440,0.0-60.0-0.0,voc_e2,11758,"[{""event"":""fullscreenenter"",""trial"":1,""time"":2818}]",NA,NA,NA,NA,NA,6,#741CD8,#D8271C,0,10,0,40,0,1292.3999999761581,37,1,644.6999999880791,0,0,experiment,NA,NA,0,0.1,0.9,1,0,52,2,NA
fcp-trial,86,478073,0.0-61.0-0.0,voc_e2,11758,"[{""event"":""fullscreenenter"",""trial"":1,""time"":2818}]",NA,NA,NA,NA,NA,2,#D89F1C,#3386FF,0,10,0,38,1,1056.699999988079,37,1,1059.899999976158,0,0,experiment,NA,NA,1,0.3,0.7,3,2,53,2,NA
fcp-trial,87,482076,0.0-62.0-0.0,voc_e2,11758,"[{""event"":""fullscreenenter"",""trial"":1,""time"":2818}]",NA,NA,NA,NA,NA,2,#FA92F8,#1CD855,0,10,0,40,0,1221.1000000238419,37,1,1268.699999988079,0,0,experiment,NA,NA,2,0.5,0.5,5,4,54,2,NA
fcp-trial,88,485652,0.0-63.0-0.0,voc_e2,11758,"[{""event"":""fullscreenenter"",""trial"":1,""time"":2818}]",NA,NA,NA,NA,NA,0,#D89F1C,#3386FF,0,0,0,38,1,1298.3999999761581,39,0,760.1000000238419,0,1,experiment,NA,NA,1,0.3,0.7,3,2,55,2,NA
fcp-trial,89,490244,0.0-64.0-0.0,voc_e2,11758,"[{""event"":""fullscreenenter"",""trial"":1,""time"":2818}]",NA,NA,NA,NA,NA,5,#D89F1C,#3386FF,0,10,0,40,0,1047.9000000357628,39,0,2035.5,10,1,experiment,NA,NA,1,0.3,0.7,3,2,56,2,NA
fcp-trial,90,494158,0.0-65.0-0.0,voc_e2,11758,"[{""event"":""fullscreenenter"",""trial"":1,""time"":2818}]",NA,NA,NA,NA,NA,5,#741CD8,#D8271C,0,0,0,40,0,1805.0999999642372,39,0,594.3000000119209,0,1,experiment,NA,NA,0,0.1,0.9,1,0,57,2,NA
fcp-trial,91,499824,0.0-66.0-0.0,voc_e2,11758,"[{""event"":""fullscreenenter"",""trial"":1,""time"":2818}]",NA,NA,NA,NA,NA,0,#1CD855,#FA92F8,10,0,1,38,1,1537.5,37,1,2615,10,1,experiment,NA,NA,2,0.5,0.5,4,5,58,2,NA
fcp-trial,92,503359,0.0-67.0-0.0,voc_e2,11758,"[{""event"":""fullscreenenter"",""trial"":1,""time"":2818}]",NA,NA,NA,NA,NA,0,#741CD8,#D8271C,10,10,0,38,1,1728.1000000238419,39,0,294.5,10,1,experiment,NA,NA,0,0.1,0.9,1,0,59,2,NA
fcp-trial,93,507340,0.0-68.0-0.0,voc_e2,11758,"[{""event"":""fullscreenenter"",""trial"":1,""time"":2818}]",NA,NA,NA,NA,NA,4,#D8271C,#741CD8,10,0,1,40,0,1567.2999999523163,39,0,901.2999999523164,0,0,experiment,NA,NA,0,0.9,0.1,0,1,60,2,NA
fcp-trial,94,511988,0.0-69.0-0.0,voc_e2,11758,"[{""event"":""fullscreenenter"",""trial"":1,""time"":2818}]",NA,NA,NA,NA,NA,3,#3386FF,#D89F1C,0,10,1,38,1,1522.4000000357628,37,1,1613.899999976158,0,1,experiment,NA,NA,1,0.7,0.3,2,3,61,2,NA
fcp-trial,95,515835,0.0-70.0-0.0,voc_e2,11758,"[{""event"":""fullscreenenter"",""trial"":1,""time"":2818}]",NA,NA,NA,NA,NA,5,#FA92F8,#1CD855,10,0,0,40,0,1497.5,39,0,834.6000000238419,0,1,experiment,NA,NA,2,0.5,0.5,5,4,62,2,NA
fcp-trial,96,519496,0.0-71.0-0.0,voc_e2,11758,"[{""event"":""fullscreenenter"",""trial"":1,""time"":2818}]",NA,NA,NA,NA,NA,3,#D8271C,#741CD8,10,0,1,38,1,1633.7000000476837,37,1,517.3000000119209,10,1,experiment,NA,NA,0,0.9,0.1,0,1,63,2,NA
fcp-trial,97,525685,0.0-72.0-0.0,voc_e2,11758,"[{""event"":""fullscreenenter"",""trial"":1,""time"":2818}]",NA,NA,NA,NA,NA,2,#D89F1C,#3386FF,0,10,0,38,1,3977.699999988079,39,0,695.2999999523163,10,1,experiment,NA,NA,1,0.3,0.7,3,2,64,2,NA
fcp-trial,98,529456,0.0-73.0-0.0,voc_e2,11758,"[{""event"":""fullscreenenter"",""trial"":1,""time"":2818}]",NA,NA,NA,NA,NA,4,#1CD855,#FA92F8,10,0,1,40,0,1819.5,37,1,437.199999988079,10,1,experiment,NA,NA,2,0.5,0.5,4,5,65,2,NA
fcp-trial,99,533114,0.0-74.0-0.0,voc_e2,11758,"[{""event"":""fullscreenenter"",""trial"":1,""time"":2818}]",NA,NA,NA,NA,NA,1,#D89F1C,#3386FF,10,10,0,38,1,1640.1000000238419,39,0,508.10000002384186,10,1,experiment,NA,NA,1,0.3,0.7,3,2,66,2,NA
fcp-trial,100,537189,0.0-75.0-0.0,voc_e2,11758,"[{""event"":""fullscreenenter"",""trial"":1,""time"":2818}]",NA,NA,NA,NA,NA,3,#FA92F8,#1CD855,0,0,0,38,1,1539.4000000357628,39,0,1023.3000000119208,0,1,experiment,NA,NA,2,0.5,0.5,5,4,67,2,NA
fcp-trial,101,540923,0.0-76.0-0.0,voc_e2,11758,"[{""event"":""fullscreenenter"",""trial"":1,""time"":2818}]",NA,NA,NA,NA,NA,4,#741CD8,#D8271C,0,10,0,40,0,1459.5,39,0,761,10,1,experiment,NA,NA,0,0.1,0.9,1,0,68,2,NA
fcp-trial,102,544501,0.0-77.0-0.0,voc_e2,11758,"[{""event"":""fullscreenenter"",""trial"":1,""time"":2818}]",NA,NA,NA,NA,NA,6,#3386FF,#D89F1C,0,10,1,40,0,1178.1000000238419,37,1,889.7000000476837,0,1,experiment,NA,NA,1,0.7,0.3,2,3,69,2,NA
fcp-trial,103,547892,0.0-78.0-0.0,voc_e2,11758,"[{""event"":""fullscreenenter"",""trial"":1,""time"":2818}]",NA,NA,NA,NA,NA,6,#741CD8,#D8271C,0,10,0,40,0,1105.800000011921,37,1,773.0999999642372,0,0,experiment,NA,NA,0,0.1,0.9,1,0,70,2,NA
fcp-trial,104,551117,0.0-79.0-0.0,voc_e2,11758,"[{""event"":""fullscreenenter"",""trial"":1,""time"":2818}]",NA,NA,NA,NA,NA,5,#1CD855,#FA92F8,10,10,1,40,0,951.7999999523163,39,0,760.6999999880791,10,0,experiment,NA,NA,2,0.5,0.5,4,5,71,2,NA
fcp-trial,105,556576,0.0-80.0-0.0,voc_e2,11758,"[{""event"":""fullscreenenter"",""trial"":1,""time"":2818}]",NA,NA,NA,NA,NA,3,#3386FF,#D89F1C,10,0,1,38,1,2331.900000035763,37,1,1614.399999976158,10,1,experiment,NA,NA,1,0.7,0.3,2,3,72,2,NA
fcp-trial,106,559520,0.0-81.0-0.0,voc_e2,11758,"[{""event"":""fullscreenenter"",""trial"":1,""time"":2818}]",NA,NA,NA,NA,NA,0,#FA92F8,#1CD855,0,0,0,38,1,942,39,0,487.699999988079,0,1,experiment,NA,NA,2,0.5,0.5,5,4,73,2,NA
fcp-trial,107,563679,0.0-82.0-0.0,voc_e2,11758,"[{""event"":""fullscreenenter"",""trial"":1,""time"":2818}]",NA,NA,NA,NA,NA,1,#1CD855,#FA92F8,10,10,1,38,1,1916.5,39,0,728.0999999642372,10,0,experiment,NA,NA,2,0.5,0.5,4,5,74,2,NA
fcp-trial,108,567249,0.0-83.0-0.0,voc_e2,11758,"[{""event"":""fullscreenenter"",""trial"":1,""time"":2818}]",NA,NA,NA,NA,NA,0,#741CD8,#D8271C,0,10,0,38,1,1655.199999988079,39,0,401.5,10,1,experiment,NA,NA,0,0.1,0.9,1,0,75,2,NA
fcp-trial,109,571398,0.0-84.0-0.0,voc_e2,11758,"[{""event"":""fullscreenenter"",""trial"":1,""time"":2818}]",NA,NA,NA,NA,NA,5,#3386FF,#D89F1C,10,0,1,40,0,1994,37,1,642.5,10,1,experiment,NA,NA,1,0.7,0.3,2,3,76,2,NA
fcp-trial,110,576421,0.0-85.0-0.0,voc_e2,11758,"[{""event"":""fullscreenenter"",""trial"":1,""time"":2818}]",NA,NA,NA,NA,NA,6,#1CD855,#FA92F8,0,0,1,40,0,2691.300000011921,37,1,819,0,1,experiment,NA,NA,2,0.5,0.5,4,5,77,2,NA
fcp-trial,111,579523,0.0-86.0-0.0,voc_e2,11758,"[{""event"":""fullscreenenter"",""trial"":1,""time"":2818}]",NA,NA,NA,NA,NA,2,#D8271C,#741CD8,10,0,1,38,1,1044.8999999761581,37,1,540.1999999880791,10,1,experiment,NA,NA,0,0.9,0.1,0,1,78,2,NA
fcp-trial,112,583178,0.0-87.0-0.0,voc_e2,11758,"[{""event"":""fullscreenenter"",""trial"":1,""time"":2818}]",NA,NA,NA,NA,NA,5,#741CD8,#D8271C,0,10,0,40,0,1397.199999988079,37,1,743.8000000119209,0,0,experiment,NA,NA,0,0.1,0.9,1,0,79,2,NA
fcp-trial,113,586749,0.0-88.0-0.0,voc_e2,11758,"[{""event"":""fullscreenenter"",""trial"":1,""time"":2818}]",NA,NA,NA,NA,NA,0,#3386FF,#D89F1C,10,10,1,38,1,908.8000000119209,37,1,1148.5,10,1,experiment,NA,NA,1,0.7,0.3,2,3,80,2,NA
fcp-trial,114,590275,0.0-89.0-0.0,voc_e2,11758,"[{""event"":""fullscreenenter"",""trial"":1,""time"":2818}]",NA,NA,NA,NA,NA,1,#D8271C,#741CD8,10,0,1,38,1,1540.800000011921,37,1,471.300000011921,10,1,experiment,NA,NA,0,0.9,0.1,0,1,81,2,NA
fcp-trial,115,594067,0.0-90.0-0.0,voc_e2,11758,"[{""event"":""fullscreenenter"",""trial"":1,""time"":2818}]",NA,NA,NA,NA,NA,2,#FA92F8,#1CD855,0,10,0,40,0,1792.800000011921,37,1,486.800000011921,0,0,experiment,NA,NA,2,0.5,0.5,5,4,82,2,NA
fcp-trial,116,602044,0.0-91.0-0.0,voc_e2,11758,"[{""event"":""fullscreenenter"",""trial"":1,""time"":2818}]",NA,NA,NA,NA,NA,3,#741CD8,#D8271C,0,10,0,38,1,3110.800000011921,39,0,3354.7999999523163,10,1,experiment,NA,NA,0,0.1,0.9,1,0,83,2,NA
fcp-trial,117,606448,0.0-92.0-0.0,voc_e2,11758,"[{""event"":""fullscreenenter"",""trial"":1,""time"":2818}]",NA,NA,NA,NA,NA,4,#3386FF,#D89F1C,10,0,1,40,0,2122.300000011921,39,0,766.1000000238419,0,0,experiment,NA,NA,1,0.7,0.3,2,3,84,2,NA
fcp-trial,118,611416,0.0-93.0-0.0,voc_e2,11758,"[{""event"":""fullscreenenter"",""trial"":1,""time"":2818}]",NA,NA,NA,NA,NA,1,#FA92F8,#1CD855,0,0,0,38,1,1025.300000011921,39,0,2429.5,0,1,experiment,NA,NA,2,0.5,0.5,5,4,85,2,NA
fcp-trial,119,614923,0.0-94.0-0.0,voc_e2,11758,"[{""event"":""fullscreenenter"",""trial"":1,""time"":2818}]",NA,NA,NA,NA,NA,6,#D89F1C,#3386FF,0,10,0,40,0,1458,39,0,537.6000000238419,10,1,experiment,NA,NA,1,0.3,0.7,3,2,86,2,NA
fcp-trial,120,619382,0.0-95.0-0.0,voc_e2,11758,"[{""event"":""fullscreenenter"",""trial"":1,""time"":2818}]",NA,NA,NA,NA,NA,3,#FA92F8,#1CD855,10,0,0,38,1,2218,37,1,725.3000000119209,10,0,experiment,NA,NA,2,0.5,0.5,5,4,87,2,NA
fcp-trial,121,622478,0.0-96.0-0.0,voc_e2,11758,"[{""event"":""fullscreenenter"",""trial"":1,""time"":2818}]",NA,NA,NA,NA,NA,0,#D89F1C,#3386FF,0,10,0,38,1,1159.3999999761581,39,0,425.5999999642372,10,1,experiment,NA,NA,1,0.3,0.7,3,2,88,2,NA
fcp-trial,122,625852,0.0-97.0-0.0,voc_e2,11758,"[{""event"":""fullscreenenter"",""trial"":1,""time"":2818}]",NA,NA,NA,NA,NA,2,#D8271C,#741CD8,10,0,1,38,1,1338.199999988079,37,1,522.5,10,1,experiment,NA,NA,0,0.9,0.1,0,1,89,2,NA
fcp-trial,123,629274,0.0-98.0-0.0,voc_e2,11758,"[{""event"":""fullscreenenter"",""trial"":1,""time"":2818}]",NA,NA,NA,NA,NA,4,#FA92F8,#1CD855,0,0,0,40,0,1332.7999999523163,37,1,573.8000000119209,0,0,experiment,NA,NA,2,0.5,0.5,5,4,90,2,NA
fcp-trial,124,632878,0.0-99.0-0.0,voc_e2,11758,"[{""event"":""fullscreenenter"",""trial"":1,""time"":2818}]",NA,NA,NA,NA,NA,4,#D89F1C,#3386FF,0,0,0,40,0,1346.8999999761581,37,1,743.6000000238419,0,0,experiment,NA,NA,1,0.3,0.7,3,2,91,3,NA
fcp-trial,125,636028,0.0-100.0-0.0,voc_e2,11758,"[{""event"":""fullscreenenter"",""trial"":1,""time"":2818}]",NA,NA,NA,NA,NA,4,#D8271C,#741CD8,10,0,1,40,0,856.5,39,0,778.5,0,0,experiment,NA,NA,0,0.9,0.1,0,1,92,3,NA
fcp-trial,126,639474,0.0-101.0-0.0,voc_e2,11758,"[{""event"":""fullscreenenter"",""trial"":1,""time"":2818}]",NA,NA,NA,NA,NA,0,#1CD855,#FA92F8,0,10,1,38,1,989.3999999761581,39,0,941.6999999880792,10,0,experiment,NA,NA,2,0.5,0.5,4,5,93,3,NA
fcp-trial,127,642633,0.0-102.0-0.0,voc_e2,11758,"[{""event"":""fullscreenenter"",""trial"":1,""time"":2818}]",NA,NA,NA,NA,NA,6,#1CD855,#FA92F8,10,10,1,40,0,1030.5999999642372,39,0,617.4000000357628,10,0,experiment,NA,NA,2,0.5,0.5,4,5,94,3,NA
fcp-trial,128,645898,0.0-103.0-0.0,voc_e2,11758,"[{""event"":""fullscreenenter"",""trial"":1,""time"":2818}]",NA,NA,NA,NA,NA,6,#741CD8,#D8271C,0,10,0,40,0,1089.5,37,1,662.6000000238419,0,0,experiment,NA,NA,0,0.1,0.9,1,0,95,3,NA
fcp-trial,129,649456,0.0-104.0-0.0,voc_e2,11758,"[{""event"":""fullscreenenter"",""trial"":1,""time"":2818}]",NA,NA,NA,NA,NA,1,#3386FF,#D89F1C,10,10,1,38,1,973.3000000119209,37,1,1076,10,1,experiment,NA,NA,1,0.7,0.3,2,3,96,3,NA
fcp-trial,130,653556,0.0-105.0-0.0,voc_e2,11758,"[{""event"":""fullscreenenter"",""trial"":1,""time"":2818}]",NA,NA,NA,NA,NA,5,#741CD8,#D8271C,0,10,0,40,0,1520,37,1,1062.300000011921,0,0,experiment,NA,NA,0,0.1,0.9,1,0,97,3,NA
fcp-trial,131,657378,0.0-106.0-0.0,voc_e2,11758,"[{""event"":""fullscreenenter"",""trial"":1,""time"":2818}]",NA,NA,NA,NA,NA,5,#FA92F8,#1CD855,0,0,0,40,0,992.1999999880791,39,0,1313.2000000476835,0,1,experiment,NA,NA,2,0.5,0.5,5,4,98,3,NA
fcp-trial,132,660963,0.0-107.0-0.0,voc_e2,11758,"[{""event"":""fullscreenenter"",""trial"":1,""time"":2818}]",NA,NA,NA,NA,NA,3,#3386FF,#D89F1C,0,0,1,38,1,1025,37,1,1046.699999988079,0,1,experiment,NA,NA,1,0.7,0.3,2,3,99,3,NA
fcp-trial,133,664647,0.0-108.0-0.0,voc_e2,11758,"[{""event"":""fullscreenenter"",""trial"":1,""time"":2818}]",NA,NA,NA,NA,NA,1,#741CD8,#D8271C,0,10,0,38,1,1710.199999988079,39,0,461.10000002384186,10,1,experiment,NA,NA,0,0.1,0.9,1,0,100,3,NA
fcp-trial,134,667776,0.0-109.0-0.0,voc_e2,11758,"[{""event"":""fullscreenenter"",""trial"":1,""time"":2818}]",NA,NA,NA,NA,NA,2,#FA92F8,#1CD855,0,0,0,38,1,1166.300000011921,39,0,447.39999997615814,0,1,experiment,NA,NA,2,0.5,0.5,5,4,101,3,NA
fcp-trial,135,671865,0.0-110.0-0.0,voc_e2,11758,"[{""event"":""fullscreenenter"",""trial"":1,""time"":2818}]",NA,NA,NA,NA,NA,5,#3386FF,#D89F1C,10,0,1,40,0,1281.5999999642372,39,0,1291.4000000357628,0,0,experiment,NA,NA,1,0.7,0.3,2,3,102,3,NA
fcp-trial,136,674795,0.0-111.0-0.0,voc_e2,11758,"[{""event"":""fullscreenenter"",""trial"":1,""time"":2818}]",NA,NA,NA,NA,NA,2,#D89F1C,#3386FF,0,10,0,38,1,1056.800000011921,39,0,359.69999998807907,10,1,experiment,NA,NA,1,0.3,0.7,3,2,103,3,NA
fcp-trial,137,679951,0.0-112.0-0.0,voc_e2,11758,"[{""event"":""fullscreenenter"",""trial"":1,""time"":2818}]",NA,NA,NA,NA,NA,3,#741CD8,#D8271C,0,10,0,38,1,3365.099999964237,39,0,282.4000000357628,10,1,experiment,NA,NA,0,0.1,0.9,1,0,104,3,NA
fcp-trial,138,682750,0.0-113.0-0.0,voc_e2,11758,"[{""event"":""fullscreenenter"",""trial"":1,""time"":2818}]",NA,NA,NA,NA,NA,0,#741CD8,#D8271C,0,10,0,38,1,897.3000000119209,39,0,391.10000002384186,10,1,experiment,NA,NA,0,0.1,0.9,1,0,105,3,NA
audio-instructions,139,725188,0.0-114.0,voc_e2,11758,"[{""event"":""fullscreenenter"",""trial"":1,""time"":2818}]",NA,36782.09999996424,static/audio/pause.wav,NA,0,NA,NA,NA,NA,NA,NA,NA,NA,NA,NA,NA,NA,NA,NA,NA,NA,NA,NA,NA,NA,NA,NA,NA,NA,NA
fcp-trial,140,729275,0.0-115.0-0.0,voc_e2,11758,"[{""event"":""fullscreenenter"",""trial"":1,""time"":2818}]",NA,NA,NA,NA,NA,2,#1CD855,#FA92F8,10,0,1,38,1,1642.699999988079,39,0,936.600000023842,0,0,experiment,NA,NA,2,0.5,0.5,4,5,106,3,NA
fcp-trial,141,732299,0.0-116.0-0.0,voc_e2,11758,"[{""event"":""fullscreenenter"",""trial"":1,""time"":2818}]",NA,NA,NA,NA,NA,3,#741CD8,#D8271C,0,10,0,38,1,1117.6000000238419,39,0,389.39999997615814,10,1,experiment,NA,NA,0,0.1,0.9,1,0,107,3,NA
fcp-trial,142,735400,0.0-117.0-0.0,voc_e2,11758,"[{""event"":""fullscreenenter"",""trial"":1,""time"":2818}]",NA,NA,NA,NA,NA,4,#FA92F8,#1CD855,0,0,0,40,0,897.8999999761581,37,1,688.6000000238419,0,0,experiment,NA,NA,2,0.5,0.5,5,4,108,3,NA
fcp-trial,143,738914,0.0-118.0-0.0,voc_e2,11758,"[{""event"":""fullscreenenter"",""trial"":1,""time"":2818}]",NA,NA,NA,NA,NA,2,#D89F1C,#3386FF,0,0,0,38,1,1686.1000000238419,39,0,311.39999997615814,0,1,experiment,NA,NA,1,0.3,0.7,3,2,109,3,NA
fcp-trial,144,744138,0.0-119.0-0.0,voc_e2,11758,"[{""event"":""fullscreenenter"",""trial"":1,""time"":2818}]",NA,NA,NA,NA,NA,2,#741CD8,#D8271C,0,10,0,38,1,3238.699999988079,39,0,471.199999988079,10,1,experiment,NA,NA,0,0.1,0.9,1,0,110,3,NA
fcp-trial,145,747811,0.0-120.0-0.0,voc_e2,11758,"[{""event"":""fullscreenenter"",""trial"":1,""time"":2818}]",NA,NA,NA,NA,NA,5,#1CD855,#FA92F8,10,10,1,40,0,1488.3999999761581,39,0,674.6999999880791,10,0,experiment,NA,NA,2,0.5,0.5,4,5,111,3,NA
fcp-trial,146,751470,0.0-121.0-0.0,voc_e2,11758,"[{""event"":""fullscreenenter"",""trial"":1,""time"":2818}]",NA,NA,NA,NA,NA,0,#3386FF,#D89F1C,0,0,1,38,1,1330.4000000357628,37,1,812.6000000238419,0,1,experiment,NA,NA,1,0.7,0.3,2,3,112,3,NA
fcp-trial,147,754760,0.0-122.0-0.0,voc_e2,11758,"[{""event"":""fullscreenenter"",""trial"":1,""time"":2818}]",NA,NA,NA,NA,NA,3,#D89F1C,#3386FF,0,10,0,38,1,1223.300000011921,39,0,551.5,10,1,experiment,NA,NA,1,0.3,0.7,3,2,113,3,NA
fcp-trial,148,758132,0.0-123.0-0.0,voc_e2,11758,"[{""event"":""fullscreenenter"",""trial"":1,""time"":2818}]",NA,NA,NA,NA,NA,4,#741CD8,#D8271C,0,10,0,40,0,1017.8999999761581,39,0,843.3000000119209,10,1,experiment,NA,NA,0,0.1,0.9,1,0,114,3,NA
fcp-trial,149,761204,0.0-124.0-0.0,voc_e2,11758,"[{""event"":""fullscreenenter"",""trial"":1,""time"":2818}]",NA,NA,NA,NA,NA,5,#741CD8,#D8271C,0,10,0,40,0,878,39,0,681.4000000357628,10,1,experiment,NA,NA,0,0.1,0.9,1,0,115,3,NA
fcp-trial,150,765495,0.0-125.0-0.0,voc_e2,11758,"[{""event"":""fullscreenenter"",""trial"":1,""time"":2818}]",NA,NA,NA,NA,NA,1,#FA92F8,#1CD855,10,10,0,38,1,956.1000000238419,37,1,1818,10,0,experiment,NA,NA,2,0.5,0.5,5,4,116,3,NA
fcp-trial,151,768420,0.0-126.0-0.0,voc_e2,11758,"[{""event"":""fullscreenenter"",""trial"":1,""time"":2818}]",NA,NA,NA,NA,NA,5,#D89F1C,#3386FF,0,0,0,40,0,946.3000000119209,39,0,466.7000000476837,0,1,experiment,NA,NA,1,0.3,0.7,3,2,117,3,NA
fcp-trial,152,773439,0.0-127.0-0.0,voc_e2,11758,"[{""event"":""fullscreenenter"",""trial"":1,""time"":2818}]",NA,NA,NA,NA,NA,3,#FA92F8,#1CD855,0,10,0,38,1,2375.399999976158,37,1,1132.600000023842,0,0,experiment,NA,NA,2,0.5,0.5,5,4,118,3,NA
fcp-trial,153,777090,0.0-128.0-0.0,voc_e2,11758,"[{""event"":""fullscreenenter"",""trial"":1,""time"":2818}]",NA,NA,NA,NA,NA,6,#D89F1C,#3386FF,0,10,0,40,0,1246.4000000357628,37,1,890.8000000119209,0,0,experiment,NA,NA,1,0.3,0.7,3,2,119,3,NA
fcp-trial,154,779812,0.0-129.0-0.0,voc_e2,11758,"[{""event"":""fullscreenenter"",""trial"":1,""time"":2818}]",NA,NA,NA,NA,NA,6,#741CD8,#D8271C,0,10,0,40,0,740.2000000476837,39,0,470.89999997615814,10,1,experiment,NA,NA,0,0.1,0.9,1,0,120,3,NA
fcp-trial,155,784026,0.0-130.0-0.0,voc_e2,11758,"[{""event"":""fullscreenenter"",""trial"":1,""time"":2818}]",NA,NA,NA,NA,NA,0,#FA92F8,#1CD855,0,0,0,38,1,810.1999999880791,37,1,1894.800000011921,0,0,experiment,NA,NA,2,0.5,0.5,5,4,121,3,NA
fcp-trial,156,788737,0.0-131.0-0.0,voc_e2,11758,"[{""event"":""fullscreenenter"",""trial"":1,""time"":2818}]",NA,NA,NA,NA,NA,1,#3386FF,#D89F1C,10,10,1,38,1,1816.1000000238419,37,1,1380.9000000357628,10,1,experiment,NA,NA,1,0.7,0.3,2,3,122,3,NA
fcp-trial,157,795596,0.0-132.0-0.0,voc_e2,11758,"[{""event"":""fullscreenenter"",""trial"":1,""time"":2818}]",NA,NA,NA,NA,NA,0,#741CD8,#D8271C,0,0,0,38,1,3159.899999976158,39,0,2179.199999988079,0,1,experiment,NA,NA,0,0.1,0.9,1,0,123,3,NA
fcp-trial,158,798787,0.0-133.0-0.0,voc_e2,11758,"[{""event"":""fullscreenenter"",""trial"":1,""time"":2818}]",NA,NA,NA,NA,NA,6,#FA92F8,#1CD855,0,0,0,40,0,954.6000000238419,39,0,725.3000000119209,0,1,experiment,NA,NA,2,0.5,0.5,5,4,124,3,NA
fcp-trial,159,802141,0.0-134.0-0.0,voc_e2,11758,"[{""event"":""fullscreenenter"",""trial"":1,""time"":2818}]",NA,NA,NA,NA,NA,4,#3386FF,#D89F1C,10,10,1,40,0,1015,39,0,825.1999999880791,10,0,experiment,NA,NA,1,0.7,0.3,2,3,125,3,NA
fcp-trial,160,805254,0.0-135.0-0.0,voc_e2,11758,"[{""event"":""fullscreenenter"",""trial"":1,""time"":2818}]",NA,NA,NA,NA,NA,1,#741CD8,#D8271C,0,10,0,38,1,1087,39,0,511.4000000357628,10,1,experiment,NA,NA,0,0.1,0.9,1,0,126,3,NA
fcp-trial,161,808470,0.0-136.0-0.0,voc_e2,11758,"[{""event"":""fullscreenenter"",""trial"":1,""time"":2818}]",NA,NA,NA,NA,NA,4,#1CD855,#FA92F8,0,10,1,40,0,1229.9000000357628,37,1,472.5,0,1,experiment,NA,NA,2,0.5,0.5,4,5,127,3,NA
fcp-trial,162,812588,0.0-137.0-0.0,voc_e2,11758,"[{""event"":""fullscreenenter"",""trial"":1,""time"":2818}]",NA,NA,NA,NA,NA,1,#D89F1C,#3386FF,0,10,0,38,1,1194.800000011921,39,0,1409.4000000357628,10,1,experiment,NA,NA,1,0.3,0.7,3,2,128,3,NA
fcp-trial,163,819105,0.0-138.0-0.0,voc_e2,11758,"[{""event"":""fullscreenenter"",""trial"":1,""time"":2818}]",NA,NA,NA,NA,NA,3,#D8271C,#741CD8,10,0,1,38,1,3513.599999964237,37,1,1486.7999999523165,10,1,experiment,NA,NA,0,0.9,0.1,0,1,129,3,NA
fcp-trial,164,822462,0.0-139.0-0.0,voc_e2,11758,"[{""event"":""fullscreenenter"",""trial"":1,""time"":2818}]",NA,NA,NA,NA,NA,3,#D89F1C,#3386FF,0,10,0,38,1,1501,39,0,340.39999997615814,10,1,experiment,NA,NA,1,0.3,0.7,3,2,130,3,NA
fcp-trial,165,826905,0.0-140.0-0.0,voc_e2,11758,"[{""event"":""fullscreenenter"",""trial"":1,""time"":2818}]",NA,NA,NA,NA,NA,6,#FA92F8,#1CD855,0,0,0,40,0,1008,39,0,1922.2000000476835,0,1,experiment,NA,NA,2,0.5,0.5,5,4,131,3,NA
fcp-trial,166,830261,0.0-141.0-0.0,voc_e2,11758,"[{""event"":""fullscreenenter"",""trial"":1,""time"":2818}]",NA,NA,NA,NA,NA,1,#1CD855,#FA92F8,10,10,1,38,1,1513.300000011921,39,0,329.30000001192093,10,0,experiment,NA,NA,2,0.5,0.5,4,5,132,3,NA
fcp-trial,167,833127,0.0-142.0-0.0,voc_e2,11758,"[{""event"":""fullscreenenter"",""trial"":1,""time"":2818}]",NA,NA,NA,NA,NA,1,#741CD8,#D8271C,10,10,0,38,1,911.3000000119209,39,0,443.89999997615814,10,1,experiment,NA,NA,0,0.1,0.9,1,0,133,3,NA
fcp-trial,168,836721,0.0-143.0-0.0,voc_e2,11758,"[{""event"":""fullscreenenter"",""trial"":1,""time"":2818}]",NA,NA,NA,NA,NA,5,#D89F1C,#3386FF,10,0,0,40,0,1038.3999999761581,37,1,1042,10,0,experiment,NA,NA,1,0.3,0.7,3,2,134,3,NA
fcp-trial,169,841811,0.0-144.0-0.0,voc_e2,11758,"[{""event"":""fullscreenenter"",""trial"":1,""time"":2818}]",NA,NA,NA,NA,NA,2,#FA92F8,#1CD855,10,10,0,38,1,1878.699999988079,37,1,1699.100000023842,10,0,experiment,NA,NA,2,0.5,0.5,5,4,135,3,NA
fcp-trial,170,846409,0.0-145.0-0.0,voc_e2,11758,"[{""event"":""fullscreenenter"",""trial"":1,""time"":2818}]",NA,NA,NA,NA,NA,4,#3386FF,#D89F1C,0,10,1,40,0,1363.1000000238419,37,1,1720.800000011921,0,1,experiment,NA,NA,1,0.7,0.3,2,3,136,4,NA
fcp-trial,171,852226,0.0-146.0-0.0,voc_e2,11758,"[{""event"":""fullscreenenter"",""trial"":1,""time"":2818}]",NA,NA,NA,NA,NA,2,#D8271C,#741CD8,10,0,1,38,1,1149.3999999761581,37,1,3152.5,10,1,experiment,NA,NA,0,0.9,0.1,0,1,137,4,NA
fcp-trial,172,857812,0.0-147.0-0.0,voc_e2,11758,"[{""event"":""fullscreenenter"",""trial"":1,""time"":2818}]",NA,NA,NA,NA,NA,3,#FA92F8,#1CD855,10,10,0,38,1,2437.5,37,1,1634.0999999642372,10,0,experiment,NA,NA,2,0.5,0.5,5,4,138,4,NA
fcp-trial,173,861545,0.0-148.0-0.0,voc_e2,11758,"[{""event"":""fullscreenenter"",""trial"":1,""time"":2818}]",NA,NA,NA,NA,NA,2,#D89F1C,#3386FF,10,0,0,38,1,1795.0999999642372,39,0,429,0,1,experiment,NA,NA,1,0.3,0.7,3,2,139,4,NA
fcp-trial,174,865120,0.0-149.0-0.0,voc_e2,11758,"[{""event"":""fullscreenenter"",""trial"":1,""time"":2818}]",NA,NA,NA,NA,NA,5,#D8271C,#741CD8,0,0,1,40,0,824.5,39,0,1239.100000023842,0,0,experiment,NA,NA,0,0.9,0.1,0,1,140,4,NA
fcp-trial,175,868806,0.0-150.0-0.0,voc_e2,11758,"[{""event"":""fullscreenenter"",""trial"":1,""time"":2818}]",NA,NA,NA,NA,NA,0,#1CD855,#FA92F8,0,10,1,38,1,736,39,0,1438,10,0,experiment,NA,NA,2,0.5,0.5,4,5,141,4,NA
fcp-trial,176,872575,0.0-151.0-0.0,voc_e2,11758,"[{""event"":""fullscreenenter"",""trial"":1,""time"":2818}]",NA,NA,NA,NA,NA,4,#D8271C,#741CD8,10,0,1,40,0,1359.9000000357628,39,0,896,0,0,experiment,NA,NA,0,0.9,0.1,0,1,142,4,NA
fcp-trial,177,875595,0.0-152.0-0.0,voc_e2,11758,"[{""event"":""fullscreenenter"",""trial"":1,""time"":2818}]",NA,NA,NA,NA,NA,6,#D89F1C,#3386FF,10,10,0,40,0,852.2999999523163,39,0,654.1000000238419,10,1,experiment,NA,NA,1,0.3,0.7,3,2,143,4,NA
fcp-trial,178,878764,0.0-153.0-0.0,voc_e2,11758,"[{""event"":""fullscreenenter"",""trial"":1,""time"":2818}]",NA,NA,NA,NA,NA,0,#D89F1C,#3386FF,0,10,0,38,1,1026.3999999761581,39,0,628,10,1,experiment,NA,NA,1,0.3,0.7,3,2,144,4,NA
fcp-trial,179,884291,0.0-154.0-0.0,voc_e2,11758,"[{""event"":""fullscreenenter"",""trial"":1,""time"":2818}]",NA,NA,NA,NA,NA,6,#741CD8,#D8271C,0,10,0,40,0,2320.399999976158,37,1,1697.5,0,0,experiment,NA,NA,0,0.1,0.9,1,0,145,4,NA
fcp-trial,180,887767,0.0-155.0-0.0,voc_e2,11758,"[{""event"":""fullscreenenter"",""trial"":1,""time"":2818}]",NA,NA,NA,NA,NA,5,#1CD855,#FA92F8,0,0,1,40,0,1290.2000000476837,39,0,672.5,0,0,experiment,NA,NA,2,0.5,0.5,4,5,146,4,NA
fcp-trial,181,892024,0.0-156.0-0.0,voc_e2,11758,"[{""event"":""fullscreenenter"",""trial"":1,""time"":2818}]",NA,NA,NA,NA,NA,0,#D8271C,#741CD8,10,0,1,38,1,1376,37,1,1368.199999988079,10,1,experiment,NA,NA,0,0.9,0.1,0,1,147,4,NA
fcp-trial,182,895832,0.0-157.0-0.0,voc_e2,11758,"[{""event"":""fullscreenenter"",""trial"":1,""time"":2818}]",NA,NA,NA,NA,NA,6,#D89F1C,#3386FF,10,10,0,40,0,1541.9000000357628,39,0,754.1999999880791,10,1,experiment,NA,NA,1,0.3,0.7,3,2,148,4,NA
fcp-trial,183,899849,0.0-158.0-0.0,voc_e2,11758,"[{""event"":""fullscreenenter"",""trial"":1,""time"":2818}]",NA,NA,NA,NA,NA,4,#D8271C,#741CD8,10,0,1,40,0,1663.8999999761581,39,0,835.3000000119209,0,0,experiment,NA,NA,0,0.9,0.1,0,1,149,4,NA
fcp-trial,184,906140,0.0-159.0-0.0,voc_e2,11758,"[{""event"":""fullscreenenter"",""trial"":1,""time"":2818}]",NA,NA,NA,NA,NA,2,#3386FF,#D89F1C,10,0,1,38,1,3935.399999976158,37,1,839.0999999642372,10,1,experiment,NA,NA,1,0.7,0.3,2,3,150,4,NA
fcp-trial,185,910316,0.0-160.0-0.0,voc_e2,11758,"[{""event"":""fullscreenenter"",""trial"":1,""time"":2818}]",NA,NA,NA,NA,NA,1,#D89F1C,#3386FF,0,0,0,38,1,1300.3999999761581,39,0,1364.600000023842,0,1,experiment,NA,NA,1,0.3,0.7,3,2,151,4,NA
fcp-trial,186,915756,0.0-161.0-0.0,voc_e2,11758,"[{""event"":""fullscreenenter"",""trial"":1,""time"":2818}]",NA,NA,NA,NA,NA,1,#FA92F8,#1CD855,0,0,0,38,1,3509.5,37,1,415.9000000357628,0,0,experiment,NA,NA,2,0.5,0.5,5,4,152,4,NA
fcp-trial,187,919598,0.0-162.0-0.0,voc_e2,11758,"[{""event"":""fullscreenenter"",""trial"":1,""time"":2818}]",NA,NA,NA,NA,NA,2,#741CD8,#D8271C,0,10,0,38,1,1400.800000011921,39,0,924.6999999880792,10,1,experiment,NA,NA,0,0.1,0.9,1,0,153,4,NA
fcp-trial,188,923350,0.0-163.0-0.0,voc_e2,11758,"[{""event"":""fullscreenenter"",""trial"":1,""time"":2818}]",NA,NA,NA,NA,NA,5,#3386FF,#D89F1C,10,0,1,40,0,897.3000000119209,39,0,1339.300000011921,0,0,experiment,NA,NA,1,0.7,0.3,2,3,154,4,NA
fcp-trial,189,926066,0.0-164.0-0.0,voc_e2,11758,"[{""event"":""fullscreenenter"",""trial"":1,""time"":2818}]",NA,NA,NA,NA,NA,5,#741CD8,#D8271C,10,10,0,40,0,711.1999999880791,39,0,491.300000011921,10,1,experiment,NA,NA,0,0.1,0.9,1,0,155,4,NA
fcp-trial,190,929171,0.0-165.0-0.0,voc_e2,11758,"[{""event"":""fullscreenenter"",""trial"":1,""time"":2818}]",NA,NA,NA,NA,NA,2,#FA92F8,#1CD855,0,0,0,38,1,1016.6999999880791,37,1,575,0,0,experiment,NA,NA,2,0.5,0.5,5,4,156,4,NA
fcp-trial,191,932530,0.0-166.0-0.0,voc_e2,11758,"[{""event"":""fullscreenenter"",""trial"":1,""time"":2818}]",NA,NA,NA,NA,NA,6,#D8271C,#741CD8,0,0,1,40,0,1080.3999999761581,39,0,767.8000000119209,0,0,experiment,NA,NA,0,0.9,0.1,0,1,157,4,NA
fcp-trial,192,936514,0.0-167.0-0.0,voc_e2,11758,"[{""event"":""fullscreenenter"",""trial"":1,""time"":2818}]",NA,NA,NA,NA,NA,4,#1CD855,#FA92F8,0,10,1,40,0,1526,37,1,946.399999976158,0,1,experiment,NA,NA,2,0.5,0.5,4,5,158,4,NA
fcp-trial,193,940096,0.0-168.0-0.0,voc_e2,11758,"[{""event"":""fullscreenenter"",""trial"":1,""time"":2818}]",NA,NA,NA,NA,NA,4,#D89F1C,#3386FF,10,10,0,40,0,1554.699999988079,39,0,512.5,10,1,experiment,NA,NA,1,0.3,0.7,3,2,159,4,NA
fcp-trial,194,943768,0.0-169.0-0.0,voc_e2,11758,"[{""event"":""fullscreenenter"",""trial"":1,""time"":2818}]",NA,NA,NA,NA,NA,6,#1CD855,#FA92F8,10,0,1,40,0,879.6000000238419,37,1,1285.300000011921,10,1,experiment,NA,NA,2,0.5,0.5,4,5,160,4,NA
fcp-trial,195,947907,0.0-170.0-0.0,voc_e2,11758,"[{""event"":""fullscreenenter"",""trial"":1,""time"":2818}]",NA,NA,NA,NA,NA,1,#741CD8,#D8271C,0,10,0,38,1,1425.8999999761581,39,0,1200,10,1,experiment,NA,NA,0,0.1,0.9,1,0,161,4,NA
fcp-trial,196,951501,0.0-171.0-0.0,voc_e2,11758,"[{""event"":""fullscreenenter"",""trial"":1,""time"":2818}]",NA,NA,NA,NA,NA,3,#FA92F8,#1CD855,0,10,0,38,1,997.8000000119209,37,1,1078.4000000357628,0,0,experiment,NA,NA,2,0.5,0.5,5,4,162,4,NA
fcp-trial,197,955017,0.0-172.0-0.0,voc_e2,11758,"[{""event"":""fullscreenenter"",""trial"":1,""time"":2818}]",NA,NA,NA,NA,NA,3,#3386FF,#D89F1C,10,0,1,38,1,1632.199999988079,37,1,370.800000011921,10,1,experiment,NA,NA,1,0.7,0.3,2,3,163,4,NA
fcp-trial,198,958877,0.0-173.0-0.0,voc_e2,11758,"[{""event"":""fullscreenenter"",""trial"":1,""time"":2818}]",NA,NA,NA,NA,NA,3,#741CD8,#D8271C,0,10,0,38,1,1912.199999988079,39,0,434.60000002384186,10,1,experiment,NA,NA,0,0.1,0.9,1,0,164,4,NA
fcp-trial,199,964079,0.0-174.0-0.0,voc_e2,11758,"[{""event"":""fullscreenenter"",""trial"":1,""time"":2818}]",NA,NA,NA,NA,NA,0,#3386FF,#D89F1C,10,10,1,38,1,1288.8999999761581,37,1,2403.199999988079,10,1,experiment,NA,NA,1,0.7,0.3,2,3,165,4,NA
fcp-trial,200,967303,0.0-175.0-0.0,voc_e2,11758,"[{""event"":""fullscreenenter"",""trial"":1,""time"":2818}]",NA,NA,NA,NA,NA,0,#D8271C,#741CD8,10,0,1,38,1,1251.800000011921,37,1,461.2000000476837,10,1,experiment,NA,NA,0,0.9,0.1,0,1,166,4,NA
fcp-trial,201,971087,0.0-176.0-0.0,voc_e2,11758,"[{""event"":""fullscreenenter"",""trial"":1,""time"":2818}]",NA,NA,NA,NA,NA,5,#1CD855,#FA92F8,0,10,1,40,0,1120.5,39,0,1148.800000011921,10,0,experiment,NA,NA,2,0.5,0.5,4,5,167,4,NA
fcp-trial,202,975854,0.0-177.0-0.0,voc_e2,11758,"[{""event"":""fullscreenenter"",""trial"":1,""time"":2818}]",NA,NA,NA,NA,NA,0,#1CD855,#FA92F8,0,0,1,38,1,2250.7999999523163,39,0,1006.0999999642372,0,0,experiment,NA,NA,2,0.5,0.5,4,5,168,4,NA
fcp-trial,203,980560,0.0-178.0-0.0,voc_e2,11758,"[{""event"":""fullscreenenter"",""trial"":1,""time"":2818}]",NA,NA,NA,NA,NA,0,#FA92F8,#1CD855,0,0,0,38,1,1452.0999999642372,37,1,1741.300000011921,0,0,experiment,NA,NA,2,0.5,0.5,5,4,169,4,NA
fcp-trial,204,984410,0.0-179.0-0.0,voc_e2,11758,"[{""event"":""fullscreenenter"",""trial"":1,""time"":2818}]",NA,NA,NA,NA,NA,1,#D8271C,#741CD8,10,0,1,38,1,1701.7000000476837,37,1,634.5,10,1,experiment,NA,NA,0,0.9,0.1,0,1,170,4,NA
fcp-trial,205,989818,0.0-180.0-0.0,voc_e2,11758,"[{""event"":""fullscreenenter"",""trial"":1,""time"":2818}]",NA,NA,NA,NA,NA,1,#D89F1C,#3386FF,0,0,0,38,1,1697.699999988079,39,0,2197.199999988079,0,1,experiment,NA,NA,1,0.3,0.7,3,2,171,4,NA
fcp-trial,206,994106,0.0-181.0-0.0,voc_e2,11758,"[{""event"":""fullscreenenter"",""trial"":1,""time"":2818}]",NA,NA,NA,NA,NA,6,#1CD855,#FA92F8,0,0,1,40,0,1681.2999999523163,39,0,1096.4000000357628,0,0,experiment,NA,NA,2,0.5,0.5,4,5,172,4,NA
fcp-trial,207,1000455,0.0-182.0-0.0,voc_e2,11758,"[{""event"":""fullscreenenter"",""trial"":1,""time"":2818}]",NA,NA,NA,NA,NA,6,#741CD8,#D8271C,0,0,0,40,0,1342.5,37,1,3492.399999976158,0,0,experiment,NA,NA,0,0.1,0.9,1,0,173,4,NA
fcp-trial,208,1003917,0.0-183.0-0.0,voc_e2,11758,"[{""event"":""fullscreenenter"",""trial"":1,""time"":2818}]",NA,NA,NA,NA,NA,5,#3386FF,#D89F1C,0,10,1,40,0,1337.699999988079,39,0,614.2999999523163,10,0,experiment,NA,NA,1,0.7,0.3,2,3,174,4,NA
fcp-trial,209,1007066,0.0-184.0-0.0,voc_e2,11758,"[{""event"":""fullscreenenter"",""trial"":1,""time"":2818}]",NA,NA,NA,NA,NA,5,#D8271C,#741CD8,10,0,1,40,0,1175.5,37,1,462,10,1,experiment,NA,NA,0,0.9,0.1,0,1,175,4,NA
fcp-trial,210,1010303,0.0-185.0-0.0,voc_e2,11758,"[{""event"":""fullscreenenter"",""trial"":1,""time"":2818}]",NA,NA,NA,NA,NA,5,#FA92F8,#1CD855,10,10,0,40,0,987.3000000119209,37,1,736.1000000238419,10,0,experiment,NA,NA,2,0.5,0.5,5,4,176,4,NA
fcp-trial,211,1013427,0.0-186.0-0.0,voc_e2,11758,"[{""event"":""fullscreenenter"",""trial"":1,""time"":2818}]",NA,NA,NA,NA,NA,2,#FA92F8,#1CD855,10,10,0,38,1,909.6999999880791,37,1,701.5,10,0,experiment,NA,NA,2,0.5,0.5,5,4,177,4,NA
fcp-trial,212,1018840,0.0-187.0-0.0,voc_e2,11758,"[{""event"":""fullscreenenter"",""trial"":1,""time"":2818}]",NA,NA,NA,NA,NA,2,#D8271C,#741CD8,10,0,1,38,1,3531.699999988079,37,1,366.5,10,1,experiment,NA,NA,0,0.9,0.1,0,1,178,4,NA
fcp-trial,213,1023206,0.0-188.0-0.0,voc_e2,11758,"[{""event"":""fullscreenenter"",""trial"":1,""time"":2818}]",NA,NA,NA,NA,NA,2,#3386FF,#D89F1C,0,10,1,38,1,1897.800000011921,37,1,953.8000000119208,0,1,experiment,NA,NA,1,0.7,0.3,2,3,179,4,NA
fcp-trial,214,1026895,0.0-189.0-0.0,voc_e2,11758,"[{""event"":""fullscreenenter"",""trial"":1,""time"":2818}]",NA,NA,NA,NA,NA,3,#3386FF,#D89F1C,10,10,1,38,1,1684.199999988079,37,1,487.10000002384186,10,1,experiment,NA,NA,1,0.7,0.3,2,3,180,4,NA
fcp-trial,215,1029782,0.0-190.0-0.0,voc_e2,11758,"[{""event"":""fullscreenenter"",""trial"":1,""time"":2818}]",NA,NA,NA,NA,NA,0,#3386FF,#D89F1C,0,0,1,38,1,990,37,1,384.89999997615814,0,1,experiment,NA,NA,1,0.7,0.3,2,3,181,5,NA
fcp-trial,216,1033733,0.0-191.0-0.0,voc_e2,11758,"[{""event"":""fullscreenenter"",""trial"":1,""time"":2818}]",NA,NA,NA,NA,NA,1,#1CD855,#FA92F8,0,10,1,38,1,1138.8999999761581,37,1,1298.899999976158,0,1,experiment,NA,NA,2,0.5,0.5,4,5,182,5,NA
fcp-trial,217,1037286,0.0-192.0-0.0,voc_e2,11758,"[{""event"":""fullscreenenter"",""trial"":1,""time"":2818}]",NA,NA,NA,NA,NA,0,#D8271C,#741CD8,10,0,1,38,1,1129.9000000357628,37,1,908.6999999880792,10,1,experiment,NA,NA,0,0.9,0.1,0,1,183,5,NA
fcp-trial,218,1040821,0.0-193.0-0.0,voc_e2,11758,"[{""event"":""fullscreenenter"",""trial"":1,""time"":2818}]",NA,NA,NA,NA,NA,6,#D89F1C,#3386FF,0,10,0,40,0,957.1000000238419,39,0,1064.800000011921,10,1,experiment,NA,NA,1,0.3,0.7,3,2,184,5,NA
fcp-trial,219,1044387,0.0-194.0-0.0,voc_e2,11758,"[{""event"":""fullscreenenter"",""trial"":1,""time"":2818}]",NA,NA,NA,NA,NA,3,#D8271C,#741CD8,10,0,1,38,1,1074.5,37,1,977.0999999642372,10,1,experiment,NA,NA,0,0.9,0.1,0,1,185,5,NA
fcp-trial,220,1048276,0.0-195.0-0.0,voc_e2,11758,"[{""event"":""fullscreenenter"",""trial"":1,""time"":2818}]",NA,NA,NA,NA,NA,4,#1CD855,#FA92F8,10,0,1,40,0,1819.800000011921,39,0,553.8999999761581,0,0,experiment,NA,NA,2,0.5,0.5,4,5,186,5,NA
fcp-trial,221,1051465,0.0-196.0-0.0,voc_e2,11758,"[{""event"":""fullscreenenter"",""trial"":1,""time"":2818}]",NA,NA,NA,NA,NA,4,#D89F1C,#3386FF,0,0,0,40,0,1103.5999999642372,37,1,570.4000000357628,0,0,experiment,NA,NA,1,0.3,0.7,3,2,187,5,NA
fcp-trial,222,1054355,0.0-197.0-0.0,voc_e2,11758,"[{""event"":""fullscreenenter"",""trial"":1,""time"":2818}]",NA,NA,NA,NA,NA,4,#D8271C,#741CD8,10,0,1,40,0,753.3000000119209,39,0,622.8000000119209,0,0,experiment,NA,NA,0,0.9,0.1,0,1,188,5,NA
fcp-trial,223,1057296,0.0-198.0-0.0,voc_e2,11758,"[{""event"":""fullscreenenter"",""trial"":1,""time"":2818}]",NA,NA,NA,NA,NA,3,#1CD855,#FA92F8,0,10,1,38,1,1000.3999999761581,39,0,426.60000002384186,10,0,experiment,NA,NA,2,0.5,0.5,4,5,189,5,NA
fcp-trial,224,1060595,0.0-199.0-0.0,voc_e2,11758,"[{""event"":""fullscreenenter"",""trial"":1,""time"":2818}]",NA,NA,NA,NA,NA,6,#741CD8,#D8271C,10,10,0,40,0,1117.2000000476837,37,1,667.3999999761581,10,0,experiment,NA,NA,0,0.1,0.9,1,0,190,5,NA
fcp-trial,225,1064129,0.0-200.0-0.0,voc_e2,11758,"[{""event"":""fullscreenenter"",""trial"":1,""time"":2818}]",NA,NA,NA,NA,NA,4,#3386FF,#D89F1C,10,0,1,40,0,1171.3999999761581,39,0,850.6000000238419,0,0,experiment,NA,NA,1,0.7,0.3,2,3,191,5,NA
fcp-trial,226,1067364,0.0-201.0-0.0,voc_e2,11758,"[{""event"":""fullscreenenter"",""trial"":1,""time"":2818}]",NA,NA,NA,NA,NA,0,#D89F1C,#3386FF,10,0,0,38,1,1132.8999999761581,37,1,589.3000000119209,10,0,experiment,NA,NA,1,0.3,0.7,3,2,192,5,NA
fcp-trial,227,1071459,0.0-202.0-0.0,voc_e2,11758,"[{""event"":""fullscreenenter"",""trial"":1,""time"":2818}]",NA,NA,NA,NA,NA,2,#1CD855,#FA92F8,0,0,1,38,1,2105.199999988079,39,0,478.39999997615814,0,0,experiment,NA,NA,2,0.5,0.5,4,5,193,5,NA
fcp-trial,228,1074979,0.0-203.0-0.0,voc_e2,11758,"[{""event"":""fullscreenenter"",""trial"":1,""time"":2818}]",NA,NA,NA,NA,NA,3,#FA92F8,#1CD855,10,0,0,38,1,1520.5,39,0,485.699999988079,0,1,experiment,NA,NA,2,0.5,0.5,5,4,194,5,NA
fcp-trial,229,1078194,0.0-204.0-0.0,voc_e2,11758,"[{""event"":""fullscreenenter"",""trial"":1,""time"":2818}]",NA,NA,NA,NA,NA,2,#741CD8,#D8271C,0,10,0,38,1,1327.300000011921,39,0,367.10000002384186,10,1,experiment,NA,NA,0,0.1,0.9,1,0,195,5,NA
fcp-trial,230,1082251,0.0-205.0-0.0,voc_e2,11758,"[{""event"":""fullscreenenter"",""trial"":1,""time"":2818}]",NA,NA,NA,NA,NA,2,#3386FF,#D89F1C,0,0,1,38,1,1358.8999999761581,39,0,1184,0,0,experiment,NA,NA,1,0.7,0.3,2,3,196,5,NA
fcp-trial,231,1085363,0.0-206.0-0.0,voc_e2,11758,"[{""event"":""fullscreenenter"",""trial"":1,""time"":2818}]",NA,NA,NA,NA,NA,3,#D89F1C,#3386FF,0,10,0,38,1,1126.2999999523163,39,0,473.699999988079,10,1,experiment,NA,NA,1,0.3,0.7,3,2,197,5,NA
fcp-trial,232,1088572,0.0-207.0-0.0,voc_e2,11758,"[{""event"":""fullscreenenter"",""trial"":1,""time"":2818}]",NA,NA,NA,NA,NA,4,#741CD8,#D8271C,0,10,0,40,0,1141.2000000476837,39,0,558.0999999642372,10,1,experiment,NA,NA,0,0.1,0.9,1,0,198,5,NA
fcp-trial,233,1092753,0.0-208.0-0.0,voc_e2,11758,"[{""event"":""fullscreenenter"",""trial"":1,""time"":2818}]",NA,NA,NA,NA,NA,0,#1CD855,#FA92F8,0,10,1,38,1,1816.300000011921,39,0,848.8000000119209,10,0,experiment,NA,NA,2,0.5,0.5,4,5,199,5,NA
fcp-trial,234,1096382,0.0-209.0-0.0,voc_e2,11758,"[{""event"":""fullscreenenter"",""trial"":1,""time"":2818}]",NA,NA,NA,NA,NA,1,#D89F1C,#3386FF,0,10,0,38,1,1568,37,1,542.1999999880791,0,0,experiment,NA,NA,1,0.3,0.7,3,2,200,5,NA
fcp-trial,235,1099819,0.0-210.0-0.0,voc_e2,11758,"[{""event"":""fullscreenenter"",""trial"":1,""time"":2818}]",NA,NA,NA,NA,NA,6,#FA92F8,#1CD855,0,10,0,40,0,1224.8999999761581,39,0,697.3999999761581,10,1,experiment,NA,NA,2,0.5,0.5,5,4,201,5,NA
fcp-trial,236,1103634,0.0-211.0-0.0,voc_e2,11758,"[{""event"":""fullscreenenter"",""trial"":1,""time"":2818}]",NA,NA,NA,NA,NA,3,#741CD8,#D8271C,0,10,0,38,1,1554.5,39,0,741.6999999880791,10,1,experiment,NA,NA,0,0.1,0.9,1,0,202,5,NA
fcp-trial,237,1107035,0.0-212.0-0.0,voc_e2,11758,"[{""event"":""fullscreenenter"",""trial"":1,""time"":2818}]",NA,NA,NA,NA,NA,6,#D89F1C,#3386FF,10,10,0,40,0,1160.300000011921,39,0,724.1999999880791,10,1,experiment,NA,NA,1,0.3,0.7,3,2,203,5,NA
fcp-trial,238,1110016,0.0-213.0-0.0,voc_e2,11758,"[{""event"":""fullscreenenter"",""trial"":1,""time"":2818}]",NA,NA,NA,NA,NA,1,#D8271C,#741CD8,10,0,1,38,1,974.3999999761581,37,1,495.39999997615814,10,1,experiment,NA,NA,0,0.9,0.1,0,1,204,5,NA
fcp-trial,239,1113319,0.0-214.0-0.0,voc_e2,11758,"[{""event"":""fullscreenenter"",""trial"":1,""time"":2818}]",NA,NA,NA,NA,NA,1,#1CD855,#FA92F8,10,0,1,38,1,1233.800000011921,39,0,557.6999999880791,0,0,experiment,NA,NA,2,0.5,0.5,4,5,205,5,NA
fcp-trial,240,1116444,0.0-215.0-0.0,voc_e2,11758,"[{""event"":""fullscreenenter"",""trial"":1,""time"":2818}]",NA,NA,NA,NA,NA,5,#D89F1C,#3386FF,0,10,0,40,0,1059.699999988079,37,1,552.8000000119209,0,0,experiment,NA,NA,1,0.3,0.7,3,2,206,5,NA
fcp-trial,241,1120761,0.0-216.0-0.0,voc_e2,11758,"[{""event"":""fullscreenenter"",""trial"":1,""time"":2818}]",NA,NA,NA,NA,NA,5,#FA92F8,#1CD855,0,10,0,40,0,2061.800000011921,37,1,738.0999999642372,0,0,experiment,NA,NA,2,0.5,0.5,5,4,207,5,NA
fcp-trial,242,1124431,0.0-217.0-0.0,voc_e2,11758,"[{""event"":""fullscreenenter"",""trial"":1,""time"":2818}]",NA,NA,NA,NA,NA,0,#D8271C,#741CD8,10,0,1,38,1,1066.199999988079,37,1,1088.300000011921,10,1,experiment,NA,NA,0,0.9,0.1,0,1,208,5,NA
fcp-trial,243,1128446,0.0-218.0-0.0,voc_e2,11758,"[{""event"":""fullscreenenter"",""trial"":1,""time"":2818}]",NA,NA,NA,NA,NA,4,#FA92F8,#1CD855,10,0,0,40,0,1084.800000011921,37,1,1419.0999999642372,10,0,experiment,NA,NA,2,0.5,0.5,5,4,209,5,NA
fcp-trial,244,1132023,0.0-219.0-0.0,voc_e2,11758,"[{""event"":""fullscreenenter"",""trial"":1,""time"":2818}]",NA,NA,NA,NA,NA,5,#D8271C,#741CD8,10,0,1,40,0,1437.8999999761581,39,0,627.1000000238419,0,0,experiment,NA,NA,0,0.9,0.1,0,1,210,5,NA
audio-instructions,245,1186853,0.0-220.0,voc_e2,11758,"[{""event"":""fullscreenenter"",""trial"":1,""time"":2818}]",NA,49247.40000003576,static/audio/pause.wav,NA,0,NA,NA,NA,NA,NA,NA,NA,NA,NA,NA,NA,NA,NA,NA,NA,NA,NA,NA,NA,NA,NA,NA,NA,NA,NA
fcp-trial,246,1191968,0.0-221.0-0.0,voc_e2,11758,"[{""event"":""fullscreenenter"",""trial"":1,""time"":2818}]",NA,NA,NA,NA,NA,4,#741CD8,#D8271C,0,0,0,40,0,2882.899999976158,39,0,728.2000000476837,0,1,experiment,NA,NA,0,0.1,0.9,1,0,211,5,NA
fcp-trial,247,1195126,0.0-222.0-0.0,voc_e2,11758,"[{""event"":""fullscreenenter"",""trial"":1,""time"":2818}]",NA,NA,NA,NA,NA,4,#1CD855,#FA92F8,10,0,1,40,0,1276.699999988079,37,1,378,10,1,experiment,NA,NA,2,0.5,0.5,4,5,212,5,NA
fcp-trial,248,1199073,0.0-223.0-0.0,voc_e2,11758,"[{""event"":""fullscreenenter"",""trial"":1,""time"":2818}]",NA,NA,NA,NA,NA,5,#D89F1C,#3386FF,0,0,0,40,0,1156,37,1,1285.5999999642372,0,0,experiment,NA,NA,1,0.3,0.7,3,2,213,5,NA
fcp-trial,249,1203316,0.0-224.0-0.0,voc_e2,11758,"[{""event"":""fullscreenenter"",""trial"":1,""time"":2818}]",NA,NA,NA,NA,NA,5,#D8271C,#741CD8,10,0,1,40,0,1792,39,0,946.399999976158,0,0,experiment,NA,NA,0,0.9,0.1,0,1,214,5,NA
fcp-trial,250,1211216,0.0-225.0-0.0,voc_e2,11758,"[{""event"":""fullscreenenter"",""trial"":1,""time"":2818}]",NA,NA,NA,NA,NA,0,#1CD855,#FA92F8,10,10,1,38,1,5184.699999988079,39,0,1211.100000023842,10,0,experiment,NA,NA,2,0.5,0.5,4,5,215,5,NA
fcp-trial,251,1216372,0.0-226.0-0.0,voc_e2,11758,"[{""event"":""fullscreenenter"",""trial"":1,""time"":2818}]",NA,NA,NA,NA,NA,1,#D89F1C,#3386FF,0,0,0,38,1,2392.400000035763,39,0,1258.699999988079,0,1,experiment,NA,NA,1,0.3,0.7,3,2,216,5,NA
fcp-trial,252,1219593,0.0-227.0-0.0,voc_e2,11758,"[{""event"":""fullscreenenter"",""trial"":1,""time"":2818}]",NA,NA,NA,NA,NA,6,#D8271C,#741CD8,10,0,1,40,0,873.6000000238419,39,0,843.3000000119209,0,0,experiment,NA,NA,0,0.9,0.1,0,1,217,5,NA
fcp-trial,253,1223269,0.0-228.0-0.0,voc_e2,11758,"[{""event"":""fullscreenenter"",""trial"":1,""time"":2818}]",NA,NA,NA,NA,NA,2,#1CD855,#FA92F8,10,0,1,38,1,1070.800000011921,39,0,1099.2999999523165,0,0,experiment,NA,NA,2,0.5,0.5,4,5,218,5,NA
fcp-trial,254,1226389,0.0-229.0-0.0,voc_e2,11758,"[{""event"":""fullscreenenter"",""trial"":1,""time"":2818}]",NA,NA,NA,NA,NA,0,#3386FF,#D89F1C,10,0,1,38,1,905.7999999523163,37,1,710.1999999880791,10,1,experiment,NA,NA,1,0.7,0.3,2,3,219,5,NA
fcp-trial,255,1229524,0.0-230.0-0.0,voc_e2,11758,"[{""event"":""fullscreenenter"",""trial"":1,""time"":2818}]",NA,NA,NA,NA,NA,6,#D89F1C,#3386FF,0,0,0,40,0,781.5999999642372,37,1,849,0,0,experiment,NA,NA,1,0.3,0.7,3,2,220,5,NA
fcp-trial,256,1232787,0.0-231.0-0.0,voc_e2,11758,"[{""event"":""fullscreenenter"",""trial"":1,""time"":2818}]",NA,NA,NA,NA,NA,0,#D8271C,#741CD8,10,0,1,38,1,1085.800000011921,37,1,672.5,10,1,experiment,NA,NA,0,0.9,0.1,0,1,221,5,NA
fcp-trial,257,1235664,0.0-232.0-0.0,voc_e2,11758,"[{""event"":""fullscreenenter"",""trial"":1,""time"":2818}]",NA,NA,NA,NA,NA,5,#FA92F8,#1CD855,10,0,0,40,0,833.7999999523163,39,0,538.7000000476837,0,1,experiment,NA,NA,2,0.5,0.5,5,4,222,5,NA
fcp-trial,258,1238966,0.0-233.0-0.0,voc_e2,11758,"[{""event"":""fullscreenenter"",""trial"":1,""time"":2818}]",NA,NA,NA,NA,NA,1,#741CD8,#D8271C,0,10,0,38,1,905.0999999642372,39,0,893.1999999880791,10,1,experiment,NA,NA,0,0.1,0.9,1,0,223,5,NA
fcp-trial,259,1241749,0.0-234.0-0.0,voc_e2,11758,"[{""event"":""fullscreenenter"",""trial"":1,""time"":2818}]",NA,NA,NA,NA,NA,2,#D8271C,#741CD8,10,10,1,38,1,857.1999999880791,37,1,420.699999988079,10,1,experiment,NA,NA,0,0.9,0.1,0,1,224,5,NA
fcp-trial,260,1245145,0.0-235.0-0.0,voc_e2,11758,"[{""event"":""fullscreenenter"",""trial"":1,""time"":2818}]",NA,NA,NA,NA,NA,4,#3386FF,#D89F1C,10,0,1,40,0,1226.5,39,0,664.9000000357628,0,0,experiment,NA,NA,1,0.7,0.3,2,3,225,5,NA
fcp-trial,261,1250293,0.0-236.0-0.0,voc_e2,11758,"[{""event"":""fullscreenenter"",""trial"":1,""time"":2818}]",NA,NA,NA,NA,NA,3,#FA92F8,#1CD855,0,0,0,38,1,2708.899999976158,37,1,934,0,0,experiment,NA,NA,2,0.5,0.5,5,4,226,6,NA
fcp-trial,262,1253931,0.0-237.0-0.0,voc_e2,11758,"[{""event"":""fullscreenenter"",""trial"":1,""time"":2818}]",NA,NA,NA,NA,NA,3,#3386FF,#D89F1C,10,0,1,38,1,1618.8999999761581,37,1,514.8000000119209,10,1,experiment,NA,NA,1,0.7,0.3,2,3,227,6,NA
fcp-trial,263,1257970,0.0-238.0-0.0,voc_e2,11758,"[{""event"":""fullscreenenter"",""trial"":1,""time"":2818}]",NA,NA,NA,NA,NA,2,#3386FF,#D89F1C,0,0,1,38,1,1642.4000000357628,37,1,892.1000000238419,0,1,experiment,NA,NA,1,0.7,0.3,2,3,228,6,NA
fcp-trial,264,1261993,0.0-239.0-0.0,voc_e2,11758,"[{""event"":""fullscreenenter"",""trial"":1,""time"":2818}]",NA,NA,NA,NA,NA,3,#741CD8,#D8271C,0,10,0,38,1,2064.900000035763,39,0,454.699999988079,10,1,experiment,NA,NA,0,0.1,0.9,1,0,229,6,NA
fcp-trial,265,1265218,0.0-240.0-0.0,voc_e2,11758,"[{""event"":""fullscreenenter"",""trial"":1,""time"":2818}]",NA,NA,NA,NA,NA,6,#FA92F8,#1CD855,10,0,0,40,0,1005.8999999761581,37,1,714.8000000119209,10,0,experiment,NA,NA,2,0.5,0.5,5,4,230,6,NA
fcp-trial,266,1268534,0.0-241.0-0.0,voc_e2,11758,"[{""event"":""fullscreenenter"",""trial"":1,""time"":2818}]",NA,NA,NA,NA,NA,1,#FA92F8,#1CD855,10,0,0,38,1,934.6999999880791,37,1,877.5,10,0,experiment,NA,NA,2,0.5,0.5,5,4,231,6,NA
fcp-trial,267,1271831,0.0-242.0-0.0,voc_e2,11758,"[{""event"":""fullscreenenter"",""trial"":1,""time"":2818}]",NA,NA,NA,NA,NA,6,#3386FF,#D89F1C,10,0,1,40,0,843.1999999880791,37,1,951.1999999880792,10,1,experiment,NA,NA,1,0.7,0.3,2,3,232,6,NA
fcp-trial,268,1274635,0.0-243.0-0.0,voc_e2,11758,"[{""event"":""fullscreenenter"",""trial"":1,""time"":2818}]",NA,NA,NA,NA,NA,0,#D8271C,#741CD8,10,10,1,38,1,952,37,1,347.7999999523163,10,1,experiment,NA,NA,0,0.9,0.1,0,1,233,6,NA
fcp-trial,269,1278347,0.0-244.0-0.0,voc_e2,11758,"[{""event"":""fullscreenenter"",""trial"":1,""time"":2818}]",NA,NA,NA,NA,NA,2,#D8271C,#741CD8,10,0,1,38,1,1150,37,1,1056.5,10,1,experiment,NA,NA,0,0.9,0.1,0,1,234,6,NA
fcp-trial,270,1282159,0.0-245.0-0.0,voc_e2,11758,"[{""event"":""fullscreenenter"",""trial"":1,""time"":2818}]",NA,NA,NA,NA,NA,0,#1CD855,#FA92F8,10,10,1,38,1,1294.3999999761581,39,0,1014,10,0,experiment,NA,NA,2,0.5,0.5,4,5,235,6,NA
fcp-trial,271,1285376,0.0-246.0-0.0,voc_e2,11758,"[{""event"":""fullscreenenter"",""trial"":1,""time"":2818}]",NA,NA,NA,NA,NA,6,#FA92F8,#1CD855,0,10,0,40,0,853.6999999880791,39,0,860.1999999880791,10,1,experiment,NA,NA,2,0.5,0.5,5,4,236,6,NA
fcp-trial,272,1289321,0.0-247.0-0.0,voc_e2,11758,"[{""event"":""fullscreenenter"",""trial"":1,""time"":2818}]",NA,NA,NA,NA,NA,2,#3386FF,#D89F1C,10,0,1,38,1,1514.1000000238419,37,1,926.2999999523164,10,1,experiment,NA,NA,1,0.7,0.3,2,3,237,6,NA
fcp-trial,273,1292389,0.0-248.0-0.0,voc_e2,11758,"[{""event"":""fullscreenenter"",""trial"":1,""time"":2818}]",NA,NA,NA,NA,NA,3,#FA92F8,#1CD855,0,0,0,38,1,798.4000000357628,37,1,764.9000000357628,0,0,experiment,NA,NA,2,0.5,0.5,5,4,238,6,NA
fcp-trial,274,1295912,0.0-249.0-0.0,voc_e2,11758,"[{""event"":""fullscreenenter"",""trial"":1,""time"":2818}]",NA,NA,NA,NA,NA,5,#741CD8,#D8271C,0,10,0,40,0,1091,37,1,927.8000000119208,0,0,experiment,NA,NA,0,0.1,0.9,1,0,239,6,NA
fcp-trial,275,1299140,0.0-250.0-0.0,voc_e2,11758,"[{""event"":""fullscreenenter"",""trial"":1,""time"":2818}]",NA,NA,NA,NA,NA,3,#D8271C,#741CD8,10,10,1,38,1,1135.199999988079,37,1,589.1000000238419,10,1,experiment,NA,NA,0,0.9,0.1,0,1,240,6,NA
fcp-trial,276,1302121,0.0-251.0-0.0,voc_e2,11758,"[{""event"":""fullscreenenter"",""trial"":1,""time"":2818}]",NA,NA,NA,NA,NA,6,#741CD8,#D8271C,0,10,0,40,0,1054.5,39,0,423,10,1,experiment,NA,NA,0,0.1,0.9,1,0,241,6,NA
fcp-trial,277,1309320,0.0-252.0-0.0,voc_e2,11758,"[{""event"":""fullscreenenter"",""trial"":1,""time"":2818}]",NA,NA,NA,NA,NA,4,#D89F1C,#3386FF,0,10,0,40,0,4612.199999988079,37,1,1081.800000011921,0,0,experiment,NA,NA,1,0.3,0.7,3,2,242,6,NA
fcp-trial,278,1312775,0.0-253.0-0.0,voc_e2,11758,"[{""event"":""fullscreenenter"",""trial"":1,""time"":2818}]",NA,NA,NA,NA,NA,1,#1CD855,#FA92F8,10,0,1,38,1,1195.3999999761581,39,0,755.8999999761581,0,0,experiment,NA,NA,2,0.5,0.5,4,5,243,6,NA
fcp-trial,279,1315908,0.0-254.0-0.0,voc_e2,11758,"[{""event"":""fullscreenenter"",""trial"":1,""time"":2818}]",NA,NA,NA,NA,NA,2,#FA92F8,#1CD855,10,0,0,38,1,1376.300000011921,37,1,253.9000000357628,10,0,experiment,NA,NA,2,0.5,0.5,5,4,244,6,NA
fcp-trial,280,1319973,0.0-255.0-0.0,voc_e2,11758,"[{""event"":""fullscreenenter"",""trial"":1,""time"":2818}]",NA,NA,NA,NA,NA,1,#D8271C,#741CD8,0,0,1,38,1,2082.899999976158,37,1,478,0,1,experiment,NA,NA,0,0.9,0.1,0,1,245,6,NA
fcp-trial,281,1323374,0.0-256.0-0.0,voc_e2,11758,"[{""event"":""fullscreenenter"",""trial"":1,""time"":2818}]",NA,NA,NA,NA,NA,0,#3386FF,#D89F1C,10,0,1,38,1,1341.6000000238419,39,0,555,0,0,experiment,NA,NA,1,0.7,0.3,2,3,246,6,NA
fcp-trial,282,1326286,0.0-257.0-0.0,voc_e2,11758,"[{""event"":""fullscreenenter"",""trial"":1,""time"":2818}]",NA,NA,NA,NA,NA,5,#D89F1C,#3386FF,0,10,0,38,1,741,39,0,666,10,1,experiment,NA,NA,1,0.3,0.7,3,2,247,6,NA
fcp-trial,283,1331847,0.0-258.0-0.0,voc_e2,11758,"[{""event"":""fullscreenenter"",""trial"":1,""time"":2818}]",NA,NA,NA,NA,NA,4,#741CD8,#D8271C,0,0,0,38,1,1762.199999988079,39,0,2294.399999976158,0,1,experiment,NA,NA,0,0.1,0.9,1,0,248,6,NA
fcp-trial,284,1334789,0.0-259.0-0.0,voc_e2,11758,"[{""event"":""fullscreenenter"",""trial"":1,""time"":2818}]",NA,NA,NA,NA,NA,5,#FA92F8,#1CD855,10,10,0,40,0,789.6000000238419,39,0,647.5,10,1,experiment,NA,NA,2,0.5,0.5,5,4,249,6,NA
fcp-trial,285,1337912,0.0-260.0-0.0,voc_e2,11758,"[{""event"":""fullscreenenter"",""trial"":1,""time"":2818}]",NA,NA,NA,NA,NA,4,#FA92F8,#1CD855,10,10,0,40,0,1046.199999988079,39,0,572.5999999642372,10,1,experiment,NA,NA,2,0.5,0.5,5,4,250,6,NA
fcp-trial,286,1340819,0.0-261.0-0.0,voc_e2,11758,"[{""event"":""fullscreenenter"",""trial"":1,""time"":2818}]",NA,NA,NA,NA,NA,1,#D89F1C,#3386FF,0,0,0,38,1,905.8000000119209,37,1,496.699999988079,0,0,experiment,NA,NA,1,0.3,0.7,3,2,251,6,NA
fcp-trial,287,1343567,0.0-262.0-0.0,voc_e2,11758,"[{""event"":""fullscreenenter"",""trial"":1,""time"":2818}]",NA,NA,NA,NA,NA,3,#D89F1C,#3386FF,0,10,0,38,1,839.9000000357628,39,0,405.5,10,1,experiment,NA,NA,1,0.3,0.7,3,2,252,6,NA
fcp-trial,288,1346887,0.0-263.0-0.0,voc_e2,11758,"[{""event"":""fullscreenenter"",""trial"":1,""time"":2818}]",NA,NA,NA,NA,NA,4,#FA92F8,#1CD855,0,0,0,40,0,1169.6000000238419,39,0,646.5,0,1,experiment,NA,NA,2,0.5,0.5,5,4,253,6,NA
fcp-trial,289,1349713,0.0-264.0-0.0,voc_e2,11758,"[{""event"":""fullscreenenter"",""trial"":1,""time"":2818}]",NA,NA,NA,NA,NA,0,#1CD855,#FA92F8,0,0,1,38,1,776.6999999880791,39,0,544.6000000238419,0,0,experiment,NA,NA,2,0.5,0.5,4,5,254,6,NA
fcp-trial,290,1352483,0.0-265.0-0.0,voc_e2,11758,"[{""event"":""fullscreenenter"",""trial"":1,""time"":2818}]",NA,NA,NA,NA,NA,1,#3386FF,#D89F1C,0,10,1,38,1,969.2999999523163,37,1,295.19999998807907,0,1,experiment,NA,NA,1,0.7,0.3,2,3,255,6,NA
fcp-trial,291,1356088,0.0-266.0-0.0,voc_e2,11758,"[{""event"":""fullscreenenter"",""trial"":1,""time"":2818}]",NA,NA,NA,NA,NA,3,#D8271C,#741CD8,10,0,1,40,0,1065.300000011921,37,1,1035,10,1,experiment,NA,NA,0,0.9,0.1,0,1,256,6,NA
fcp-trial,292,1359535,0.0-267.0-0.0,voc_e2,11758,"[{""event"":""fullscreenenter"",""trial"":1,""time"":2818}]",NA,NA,NA,NA,NA,5,#D89F1C,#3386FF,0,10,0,40,0,1143.4000000357628,39,0,798.9000000357628,10,1,experiment,NA,NA,1,0.3,0.7,3,2,257,6,NA
fcp-trial,293,1362546,0.0-268.0-0.0,voc_e2,11758,"[{""event"":""fullscreenenter"",""trial"":1,""time"":2818}]",NA,NA,NA,NA,NA,6,#1CD855,#FA92F8,0,10,1,40,0,815.1000000238419,39,0,691.8999999761581,10,0,experiment,NA,NA,2,0.5,0.5,4,5,258,6,NA
fcp-trial,294,1365351,0.0-269.0-0.0,voc_e2,11758,"[{""event"":""fullscreenenter"",""trial"":1,""time"":2818}]",NA,NA,NA,NA,NA,0,#D8271C,#741CD8,10,0,1,38,1,729.5,37,1,570.7000000476837,10,1,experiment,NA,NA,0,0.9,0.1,0,1,259,6,NA
fcp-trial,295,1367974,0.0-270.0-0.0,voc_e2,11758,"[{""event"":""fullscreenenter"",""trial"":1,""time"":2818}]",NA,NA,NA,NA,NA,0,#3386FF,#D89F1C,10,10,1,38,1,689.3000000119209,39,0,429.39999997615814,10,0,experiment,NA,NA,1,0.7,0.3,2,3,260,6,NA
fcp-trial,296,1370923,0.0-271.0-0.0,voc_e2,11758,"[{""event"":""fullscreenenter"",""trial"":1,""time"":2818}]",NA,NA,NA,NA,NA,4,#741CD8,#D8271C,0,10,0,40,0,984.3000000119209,39,0,460.5999999642372,10,1,experiment,NA,NA,0,0.1,0.9,1,0,261,6,NA
fcp-trial,297,1373827,0.0-272.0-0.0,voc_e2,11758,"[{""event"":""fullscreenenter"",""trial"":1,""time"":2818}]",NA,NA,NA,NA,NA,6,#D8271C,#741CD8,10,0,1,40,0,985.3000000119209,37,1,415,10,1,experiment,NA,NA,0,0.9,0.1,0,1,262,6,NA
fcp-trial,298,1377631,0.0-273.0-0.0,voc_e2,11758,"[{""event"":""fullscreenenter"",""trial"":1,""time"":2818}]",NA,NA,NA,NA,NA,1,#FA92F8,#1CD855,0,10,0,38,1,860.3000000119209,37,1,1440.699999988079,0,0,experiment,NA,NA,2,0.5,0.5,5,4,263,6,NA
fcp-trial,299,1380838,0.0-274.0-0.0,voc_e2,11758,"[{""event"":""fullscreenenter"",""trial"":1,""time"":2818}]",NA,NA,NA,NA,NA,2,#741CD8,#D8271C,10,10,0,38,1,1224.8999999761581,39,0,477.89999997615814,10,1,experiment,NA,NA,0,0.1,0.9,1,0,264,6,NA
fcp-trial,300,1384485,0.0-275.0-0.0,voc_e2,11758,"[{""event"":""fullscreenenter"",""trial"":1,""time"":2818}]",NA,NA,NA,NA,NA,2,#3386FF,#D89F1C,10,0,1,38,1,1196.8999999761581,37,1,944.3000000119208,10,1,experiment,NA,NA,1,0.7,0.3,2,3,265,6,NA
fcp-trial,301,1387202,0.0-276.0-0.0,voc_e2,11758,"[{""event"":""fullscreenenter"",""trial"":1,""time"":2818}]",NA,NA,NA,NA,NA,2,#FA92F8,#1CD855,10,10,0,38,1,813.7000000476837,37,1,400.800000011921,10,0,experiment,NA,NA,2,0.5,0.5,5,4,266,6,NA
fcp-trial,302,1390575,0.0-277.0-0.0,voc_e2,11758,"[{""event"":""fullscreenenter"",""trial"":1,""time"":2818}]",NA,NA,NA,NA,NA,5,#D8271C,#741CD8,0,0,1,40,0,974.8999999761581,39,0,894.0999999642372,0,0,experiment,NA,NA,0,0.9,0.1,0,1,267,6,NA
fcp-trial,303,1394404,0.0-278.0-0.0,voc_e2,11758,"[{""event"":""fullscreenenter"",""trial"":1,""time"":2818}]",NA,NA,NA,NA,NA,3,#D89F1C,#3386FF,10,0,0,38,1,1729.699999988079,37,1,595.3000000119209,10,0,experiment,NA,NA,1,0.3,0.7,3,2,268,6,NA
fcp-trial,304,1398651,0.0-279.0-0.0,voc_e2,11758,"[{""event"":""fullscreenenter"",""trial"":1,""time"":2818}]",NA,NA,NA,NA,NA,4,#D89F1C,#3386FF,0,10,0,40,0,1627.800000011921,37,1,1113.4000000357628,0,0,experiment,NA,NA,1,0.3,0.7,3,2,269,6,NA
fcp-trial,305,1402332,0.0-280.0-0.0,voc_e2,11758,"[{""event"":""fullscreenenter"",""trial"":1,""time"":2818}]",NA,NA,NA,NA,NA,3,#1CD855,#FA92F8,0,0,1,38,1,1134.5,39,0,1042.100000023842,0,0,experiment,NA,NA,2,0.5,0.5,4,5,270,6,NA
fcp-trial,306,1405477,0.0-281.0-0.0,voc_e2,11758,"[{""event"":""fullscreenenter"",""trial"":1,""time"":2818}]",NA,NA,NA,NA,NA,1,#D8271C,#741CD8,10,0,1,38,1,1178,37,1,464.2000000476837,10,1,experiment,NA,NA,0,0.9,0.1,0,1,271,7,NA
fcp-trial,307,1409474,0.0-282.0-0.0,voc_e2,11758,"[{""event"":""fullscreenenter"",""trial"":1,""time"":2818}]",NA,NA,NA,NA,NA,6,#3386FF,#D89F1C,10,0,1,40,0,1418.800000011921,39,0,1074,0,0,experiment,NA,NA,1,0.7,0.3,2,3,272,7,NA
fcp-trial,308,1414768,0.0-283.0-0.0,voc_e2,11758,"[{""event"":""fullscreenenter"",""trial"":1,""time"":2818}]",NA,NA,NA,NA,NA,5,#1CD855,#FA92F8,0,0,1,40,0,1323.800000011921,37,1,2465.300000011921,0,1,experiment,NA,NA,2,0.5,0.5,4,5,273,7,NA
fcp-trial,309,1418630,0.0-284.0-0.0,voc_e2,11758,"[{""event"":""fullscreenenter"",""trial"":1,""time"":2818}]",NA,NA,NA,NA,NA,4,#FA92F8,#1CD855,0,0,0,40,0,1321.9000000357628,37,1,1036.699999988079,0,0,experiment,NA,NA,2,0.5,0.5,5,4,274,7,NA
fcp-trial,310,1421708,0.0-285.0-0.0,voc_e2,11758,"[{""event"":""fullscreenenter"",""trial"":1,""time"":2818}]",NA,NA,NA,NA,NA,2,#741CD8,#D8271C,0,0,0,38,1,1129.199999988079,39,0,443.0999999642372,0,1,experiment,NA,NA,0,0.1,0.9,1,0,275,7,NA
fcp-trial,311,1427217,0.0-286.0-0.0,voc_e2,11758,"[{""event"":""fullscreenenter"",""trial"":1,""time"":2818}]",NA,NA,NA,NA,NA,2,#FA92F8,#1CD855,10,0,0,38,1,1047.800000011921,37,1,2957.699999988079,10,0,experiment,NA,NA,2,0.5,0.5,5,4,276,7,NA
fcp-trial,312,1432264,0.0-287.0-0.0,voc_e2,11758,"[{""event"":""fullscreenenter"",""trial"":1,""time"":2818}]",NA,NA,NA,NA,NA,0,#1CD855,#FA92F8,0,0,1,38,1,1686,39,0,1856.800000011921,0,0,experiment,NA,NA,2,0.5,0.5,4,5,277,7,NA
fcp-trial,313,1435376,0.0-288.0-0.0,voc_e2,11758,"[{""event"":""fullscreenenter"",""trial"":1,""time"":2818}]",NA,NA,NA,NA,NA,5,#D89F1C,#3386FF,0,0,0,40,0,1144.800000011921,37,1,461.800000011921,0,0,experiment,NA,NA,1,0.3,0.7,3,2,278,7,NA
fcp-trial,314,1439337,0.0-289.0-0.0,voc_e2,11758,"[{""event"":""fullscreenenter"",""trial"":1,""time"":2818}]",NA,NA,NA,NA,NA,4,#D8271C,#741CD8,10,0,1,40,0,1446.699999988079,39,0,1011.100000023842,0,0,experiment,NA,NA,0,0.9,0.1,0,1,279,7,NA
fcp-trial,315,1443289,0.0-290.0-0.0,voc_e2,11758,"[{""event"":""fullscreenenter"",""trial"":1,""time"":2818}]",NA,NA,NA,NA,NA,6,#D8271C,#741CD8,10,0,1,40,0,1024.699999988079,37,1,1423.5999999642372,10,1,experiment,NA,NA,0,0.9,0.1,0,1,280,7,NA
fcp-trial,316,1447774,0.0-291.0-0.0,voc_e2,11758,"[{""event"":""fullscreenenter"",""trial"":1,""time"":2818}]",NA,NA,NA,NA,NA,1,#FA92F8,#1CD855,0,10,0,38,1,1284.699999988079,37,1,1696.699999988079,0,0,experiment,NA,NA,2,0.5,0.5,5,4,281,7,NA
fcp-trial,317,1452118,0.0-292.0-0.0,voc_e2,11758,"[{""event"":""fullscreenenter"",""trial"":1,""time"":2818}]",NA,NA,NA,NA,NA,1,#D89F1C,#3386FF,0,10,0,38,1,1972.0999999642372,37,1,867.3000000119209,0,0,experiment,NA,NA,1,0.3,0.7,3,2,282,7,NA
fcp-trial,318,1454899,0.0-293.0-0.0,voc_e2,11758,"[{""event"":""fullscreenenter"",""trial"":1,""time"":2818}]",NA,NA,NA,NA,NA,0,#D89F1C,#3386FF,0,0,0,38,1,953.4000000357628,39,0,322.80000001192093,0,1,experiment,NA,NA,1,0.3,0.7,3,2,283,7,NA
fcp-trial,319,1458702,0.0-294.0-0.0,voc_e2,11758,"[{""event"":""fullscreenenter"",""trial"":1,""time"":2818}]",NA,NA,NA,NA,NA,5,#1CD855,#FA92F8,10,0,1,40,0,1206.9000000357628,37,1,1092.899999976158,10,1,experiment,NA,NA,2,0.5,0.5,4,5,284,7,NA
fcp-trial,320,1461883,0.0-295.0-0.0,voc_e2,11758,"[{""event"":""fullscreenenter"",""trial"":1,""time"":2818}]",NA,NA,NA,NA,NA,3,#D8271C,#741CD8,10,0,1,38,1,1344.199999988079,37,1,331.80000001192093,10,1,experiment,NA,NA,0,0.9,0.1,0,1,285,7,NA
fcp-trial,321,1465215,0.0-296.0-0.0,voc_e2,11758,"[{""event"":""fullscreenenter"",""trial"":1,""time"":2818}]",NA,NA,NA,NA,NA,3,#1CD855,#FA92F8,10,0,1,38,1,869,39,0,958.1999999880792,0,0,experiment,NA,NA,2,0.5,0.5,4,5,286,7,NA
fcp-trial,322,1467952,0.0-297.0-0.0,voc_e2,11758,"[{""event"":""fullscreenenter"",""trial"":1,""time"":2818}]",NA,NA,NA,NA,NA,0,#D8271C,#741CD8,10,0,1,38,1,713.3999999761581,37,1,519.9000000357628,10,1,experiment,NA,NA,0,0.9,0.1,0,1,287,7,NA
fcp-trial,323,1471675,0.0-298.0-0.0,voc_e2,11758,"[{""event"":""fullscreenenter"",""trial"":1,""time"":2818}]",NA,NA,NA,NA,NA,4,#3386FF,#D89F1C,10,0,1,40,0,1019.1999999880791,37,1,1200.300000011921,10,1,experiment,NA,NA,1,0.7,0.3,2,3,288,7,NA
fcp-trial,324,1474981,0.0-299.0-0.0,voc_e2,11758,"[{""event"":""fullscreenenter"",""trial"":1,""time"":2818}]",NA,NA,NA,NA,NA,1,#D8271C,#741CD8,10,0,1,38,1,1143.800000011921,37,1,657.8999999761581,10,1,experiment,NA,NA,0,0.9,0.1,0,1,289,7,NA
fcp-trial,325,1478382,0.0-300.0-0.0,voc_e2,11758,"[{""event"":""fullscreenenter"",""trial"":1,""time"":2818}]",NA,NA,NA,NA,NA,2,#D89F1C,#3386FF,0,10,0,38,1,1375.8999999761581,37,1,520.6000000238419,0,0,experiment,NA,NA,1,0.3,0.7,3,2,290,7,NA
fcp-trial,326,1481416,0.0-301.0-0.0,voc_e2,11758,"[{""event"":""fullscreenenter"",""trial"":1,""time"":2818}]",NA,NA,NA,NA,NA,6,#FA92F8,#1CD855,0,10,0,40,0,1027.699999988079,39,0,501.7000000476837,10,1,experiment,NA,NA,2,0.5,0.5,5,4,291,7,NA
fcp-trial,327,1484800,0.0-302.0-0.0,voc_e2,11758,"[{""event"":""fullscreenenter"",""trial"":1,""time"":2818}]",NA,NA,NA,NA,NA,6,#3386FF,#D89F1C,10,10,1,40,0,902.4000000357628,39,0,974.6999999880792,10,0,experiment,NA,NA,1,0.7,0.3,2,3,292,7,NA
fcp-trial,328,1487850,0.0-303.0-0.0,voc_e2,11758,"[{""event"":""fullscreenenter"",""trial"":1,""time"":2818}]",NA,NA,NA,NA,NA,3,#D89F1C,#3386FF,0,10,0,38,1,1193.199999988079,37,1,349.89999997615814,0,0,experiment,NA,NA,1,0.3,0.7,3,2,293,7,NA
fcp-trial,329,1491517,0.0-304.0-0.0,voc_e2,11758,"[{""event"":""fullscreenenter"",""trial"":1,""time"":2818}]",NA,NA,NA,NA,NA,5,#D8271C,#741CD8,10,0,1,40,0,1167.699999988079,39,0,994.2000000476836,0,0,experiment,NA,NA,0,0.9,0.1,0,1,294,7,NA
fcp-trial,330,1495153,0.0-305.0-0.0,voc_e2,11758,"[{""event"":""fullscreenenter"",""trial"":1,""time"":2818}]",NA,NA,NA,NA,NA,4,#1CD855,#FA92F8,0,0,1,38,1,834.2000000476837,39,0,1296.300000011921,0,0,experiment,NA,NA,2,0.5,0.5,4,5,295,7,NA
fcp-trial,331,1497984,0.0-306.0-0.0,voc_e2,11758,"[{""event"":""fullscreenenter"",""trial"":1,""time"":2818}]",NA,NA,NA,NA,NA,6,#1CD855,#FA92F8,0,10,1,40,0,717.6999999880791,37,1,609.9000000357628,0,1,experiment,NA,NA,2,0.5,0.5,4,5,296,7,NA
fcp-trial,332,1501097,0.0-307.0-0.0,voc_e2,11758,"[{""event"":""fullscreenenter"",""trial"":1,""time"":2818}]",NA,NA,NA,NA,NA,5,#3386FF,#D89F1C,0,0,1,40,0,941.8000000119209,39,0,666.8000000119209,0,0,experiment,NA,NA,1,0.7,0.3,2,3,297,7,NA
fcp-trial,333,1504223,0.0-308.0-0.0,voc_e2,11758,"[{""event"":""fullscreenenter"",""trial"":1,""time"":2818}]",NA,NA,NA,NA,NA,4,#D89F1C,#3386FF,0,0,0,40,0,1125.699999988079,39,0,495.0999999642372,0,1,experiment,NA,NA,1,0.3,0.7,3,2,298,7,NA
fcp-trial,334,1507419,0.0-309.0-0.0,voc_e2,11758,"[{""event"":""fullscreenenter"",""trial"":1,""time"":2818}]",NA,NA,NA,NA,NA,1,#D8271C,#741CD8,10,0,1,38,1,1374.300000011921,37,1,317.2000000476837,10,1,experiment,NA,NA,0,0.9,0.1,0,1,299,7,NA
fcp-trial,335,1510251,0.0-310.0-0.0,voc_e2,11758,"[{""event"":""fullscreenenter"",""trial"":1,""time"":2818}]",NA,NA,NA,NA,NA,5,#FA92F8,#1CD855,10,0,0,40,0,785.8000000119209,39,0,531.8000000119209,0,1,experiment,NA,NA,2,0.5,0.5,5,4,300,7,NA
fcp-trial,336,1513342,0.0-311.0-0.0,voc_e2,11758,"[{""event"":""fullscreenenter"",""trial"":1,""time"":2818}]",NA,NA,NA,NA,NA,2,#D89F1C,#3386FF,0,10,0,38,1,902.3000000119209,37,1,682.8999999761581,0,0,experiment,NA,NA,1,0.3,0.7,3,2,301,7,NA
fcp-trial,337,1516562,0.0-312.0-0.0,voc_e2,11758,"[{""event"":""fullscreenenter"",""trial"":1,""time"":2818}]",NA,NA,NA,NA,NA,5,#741CD8,#D8271C,0,10,0,40,0,776.8000000119209,37,1,938.2999999523164,0,0,experiment,NA,NA,0,0.1,0.9,1,0,302,7,NA
fcp-trial,338,1520048,0.0-313.0-0.0,voc_e2,11758,"[{""event"":""fullscreenenter"",""trial"":1,""time"":2818}]",NA,NA,NA,NA,NA,2,#D8271C,#741CD8,10,0,1,38,1,1136.199999988079,37,1,845.1999999880791,10,1,experiment,NA,NA,0,0.9,0.1,0,1,303,7,NA
fcp-trial,339,1523292,0.0-314.0-0.0,voc_e2,11758,"[{""event"":""fullscreenenter"",""trial"":1,""time"":2818}]",NA,NA,NA,NA,NA,0,#1CD855,#FA92F8,10,10,1,38,1,983.9000000357628,39,0,754.5,10,0,experiment,NA,NA,2,0.5,0.5,4,5,304,7,NA
fcp-trial,340,1526948,0.0-315.0-0.0,voc_e2,11758,"[{""event"":""fullscreenenter"",""trial"":1,""time"":2818}]",NA,NA,NA,NA,NA,1,#3386FF,#D89F1C,10,10,1,38,1,1474.699999988079,37,1,675.8999999761581,10,1,experiment,NA,NA,1,0.7,0.3,2,3,305,7,NA
fcp-trial,341,1530219,0.0-316.0-0.0,voc_e2,11758,"[{""event"":""fullscreenenter"",""trial"":1,""time"":2818}]",NA,NA,NA,NA,NA,3,#1CD855,#FA92F8,10,10,1,38,1,1345,37,1,419.800000011921,10,1,experiment,NA,NA,2,0.5,0.5,4,5,306,7,NA
fcp-trial,342,1533249,0.0-317.0-0.0,voc_e2,11758,"[{""event"":""fullscreenenter"",""trial"":1,""time"":2818}]",NA,NA,NA,NA,NA,3,#D8271C,#741CD8,10,0,1,38,1,1000.5,37,1,524.8999999761581,10,1,experiment,NA,NA,0,0.9,0.1,0,1,307,7,NA
fcp-trial,343,1536799,0.0-318.0-0.0,voc_e2,11758,"[{""event"":""fullscreenenter"",""trial"":1,""time"":2818}]",NA,NA,NA,NA,NA,0,#3386FF,#D89F1C,10,0,1,38,1,1643.8999999761581,37,1,400.10000002384186,10,1,experiment,NA,NA,1,0.7,0.3,2,3,308,7,NA
fcp-trial,344,1540901,0.0-319.0-0.0,voc_e2,11758,"[{""event"":""fullscreenenter"",""trial"":1,""time"":2818}]",NA,NA,NA,NA,NA,6,#741CD8,#D8271C,0,10,0,40,0,1348.0999999642372,37,1,1249.600000023842,0,0,experiment,NA,NA,0,0.1,0.9,1,0,309,7,NA
fcp-trial,345,1543773,0.0-320.0-0.0,voc_e2,11758,"[{""event"":""fullscreenenter"",""trial"":1,""time"":2818}]",NA,NA,NA,NA,NA,2,#1CD855,#FA92F8,0,0,1,38,1,1003.1000000238419,39,0,362.7999999523163,0,0,experiment,NA,NA,2,0.5,0.5,4,5,310,7,NA
fcp-trial,346,1546403,0.0-321.0-0.0,voc_e2,11758,"[{""event"":""fullscreenenter"",""trial"":1,""time"":2818}]",NA,NA,NA,NA,NA,0,#741CD8,#D8271C,0,10,0,38,1,826.6000000238419,39,0,298.89999997615814,10,1,experiment,NA,NA,0,0.1,0.9,1,0,311,7,NA
fcp-trial,347,1549562,0.0-322.0-0.0,voc_e2,11758,"[{""event"":""fullscreenenter"",""trial"":1,""time"":2818}]",NA,NA,NA,NA,NA,3,#3386FF,#D89F1C,10,0,1,38,1,919,37,1,736.3000000119209,10,1,experiment,NA,NA,1,0.7,0.3,2,3,312,7,NA
fcp-trial,348,1553329,0.0-323.0-0.0,voc_e2,11758,"[{""event"":""fullscreenenter"",""trial"":1,""time"":2818}]",NA,NA,NA,NA,NA,1,#1CD855,#FA92F8,0,0,1,38,1,1845.9000000357628,39,0,417.5999999642372,0,0,experiment,NA,NA,2,0.5,0.5,4,5,313,7,NA
fcp-trial,349,1556900,0.0-324.0-0.0,voc_e2,11758,"[{""event"":""fullscreenenter"",""trial"":1,""time"":2818}]",NA,NA,NA,NA,NA,4,#741CD8,#D8271C,0,10,0,40,0,1197.9000000357628,39,0,868.3000000119209,10,1,experiment,NA,NA,0,0.1,0.9,1,0,314,7,NA
fcp-trial,350,1560440,0.0-325.0-0.0,voc_e2,11758,"[{""event"":""fullscreenenter"",""trial"":1,""time"":2818}]",NA,NA,NA,NA,NA,6,#D89F1C,#3386FF,0,10,0,40,0,1336,39,0,699.2000000476837,10,1,experiment,NA,NA,1,0.3,0.7,3,2,315,7,NA
audio-instructions,351,1568760,0.0-326.0,voc_e2,11758,"[{""event"":""fullscreenenter"",""trial"":1,""time"":2818}]",NA,2115.400000035763,static/audio/finished.wav,NA,0,NA,NA,NA,NA,NA,NA,NA,NA,NA,NA,NA,NA,NA,NA,NA,NA,NA,NA,NA,NA,NA,NA,NA,NA,NA
audio-instructions,352,1580154,0.0-327.0-0.0,voc_e2,11758,"[{""event"":""fullscreenenter"",""trial"":1,""time"":2818}]",NA,560.1000000238419,static/audio/explicit1.wav,NA,0,NA,NA,NA,NA,NA,NA,NA,NA,NA,NA,NA,NA,NA,NA,NA,NA,NA,NA,NA,NA,NA,NA,NA,NA,NA
audio-instructions,353,1588350,0.0-327.0-1.0,voc_e2,11758,"[{""event"":""fullscreenenter"",""trial"":1,""time"":2818}]",NA,595.3000000119209,static/audio/explicit2.wav,NA,0,NA,NA,NA,NA,NA,NA,NA,NA,NA,NA,NA,NA,NA,NA,NA,NA,NA,NA,NA,NA,NA,NA,NA,NA,NA
image-slider-response,354,1593980,0.0-328.0,voc_e2,11758,"[{""event"":""fullscreenenter"",""trial"":1,""time"":2818}]",NA,5628.100000023842,static/img/machines/machine1.png,NA,NA,NA,NA,NA,NA,NA,NA,NA,NA,NA,NA,NA,NA,NA,NA,explicit,NA,NA,NA,NA,NA,NA,NA,NA,NA,7
image-slider-response,355,1599169,0.0-329.0,voc_e2,11758,"[{""event"":""fullscreenenter"",""trial"":1,""time"":2818}]",NA,5187.800000011921,static/img/machines/machine4.png,NA,NA,NA,NA,NA,NA,NA,NA,NA,NA,NA,NA,NA,NA,NA,NA,explicit,NA,NA,NA,NA,NA,NA,NA,NA,NA,3
image-slider-response,356,1603778,0.0-330.0,voc_e2,11758,"[{""event"":""fullscreenenter"",""trial"":1,""time"":2818}]",NA,4607.899999976158,static/img/machines/machine3.png,NA,NA,NA,NA,NA,NA,NA,NA,NA,NA,NA,NA,NA,NA,NA,NA,explicit,NA,NA,NA,NA,NA,NA,NA,NA,NA,7
image-slider-response,357,1606504,0.0-331.0,voc_e2,11758,"[{""event"":""fullscreenenter"",""trial"":1,""time"":2818}]",NA,2724.599999964237,static/img/machines/machine2.png,NA,NA,NA,NA,NA,NA,NA,NA,NA,NA,NA,NA,NA,NA,NA,NA,explicit,NA,NA,NA,NA,NA,NA,NA,NA,NA,3
image-slider-response,358,1609069,0.0-332.0,voc_e2,11758,"[{""event"":""fullscreenenter"",""trial"":1,""time"":2818}]",NA,2564,static/img/machines/machine6.png,NA,NA,NA,NA,NA,NA,NA,NA,NA,NA,NA,NA,NA,NA,NA,NA,explicit,NA,NA,NA,NA,NA,NA,NA,NA,NA,5
image-slider-response,359,1611827,0.0-333.0,voc_e2,11758,"[{""event"":""fullscreenenter"",""trial"":1,""time"":2818}]",NA,2755.900000035763,static/img/machines/machine5.png,NA,NA,NA,NA,NA,NA,NA,NA,NA,NA,NA,NA,NA,NA,NA,NA,explicit,NA,NA,NA,NA,NA,NA,NA,NA,NA,6
