trial_type,trial_index,time_elapsed,internal_node_id,task_version,subject_id,interactions,success,rt,stimulus,key_press,button_pressed,offer,arcade_color_L,arcade_color_R,arcade_outcome_L,arcade_outcome_R,correct,stage_1_key,stage_1_choice,stage_1_rt,stage_2_key,stage_2_choice,stage_2_rt,stage_3_outcome,accuracy,phase,responses,num_errors,context,reward_prob_L,reward_prob_R,arcade_id_L,arcade_id_R,trial,block,response
pavlovia,0,22,0.0-0.0,voc_e2,12130,[],NA,NA,NA,NA,NA,NA,NA,NA,NA,NA,NA,NA,NA,NA,NA,NA,NA,NA,NA,NA,NA,NA,NA,NA,NA,NA,NA,NA,NA,NA
fullscreen,1,7734,0.0-1.0,voc_e2,12130,"[{""event"":""fullscreenenter"",""trial"":1,""time"":6734}]",TRUE,NA,NA,NA,NA,NA,NA,NA,NA,NA,NA,NA,NA,NA,NA,NA,NA,NA,NA,NA,NA,NA,NA,NA,NA,NA,NA,NA,NA,NA
audio-keyboard-response,2,10808,0.0-2.0,voc_e2,12130,"[{""event"":""fullscreenenter"",""trial"":1,""time"":6734}]",NA,2976,static/audio/beep_loop.wav,32,NA,NA,NA,NA,NA,NA,NA,NA,NA,NA,NA,NA,NA,NA,NA,NA,NA,NA,NA,NA,NA,NA,NA,NA,NA,NA
audio-test,3,15078,0.0-3.0,voc_e2,12130,"[{""event"":""fullscreenenter"",""trial"":1,""time"":6734}]",NA,NA,static/audio/turtle.wav,NA,3,NA,NA,NA,NA,NA,NA,NA,NA,NA,NA,NA,NA,NA,NA,NA,NA,NA,NA,NA,NA,NA,NA,NA,NA,NA
audio-test,4,17123,0.0-4.0,voc_e2,12130,"[{""event"":""fullscreenenter"",""trial"":1,""time"":6734}]",NA,NA,static/audio/shark.wav,NA,2,NA,NA,NA,NA,NA,NA,NA,NA,NA,NA,NA,NA,NA,NA,NA,NA,NA,NA,NA,NA,NA,NA,NA,NA,NA
audio-instructions,5,24519,0.0-5.0-0.0,voc_e2,12130,"[{""event"":""fullscreenenter"",""trial"":1,""time"":6734}]",NA,1612.3999999999942,static/audio/instructions1.wav,NA,0,NA,NA,NA,NA,NA,NA,NA,NA,NA,NA,NA,NA,NA,NA,NA,NA,NA,NA,NA,NA,NA,NA,NA,NA,NA
audio-instructions,6,32514,0.0-5.0-1.0,voc_e2,12130,"[{""event"":""fullscreenenter"",""trial"":1,""time"":6734}]",NA,1256.2999999999884,static/audio/instructions2.wav,NA,0,NA,NA,NA,NA,NA,NA,NA,NA,NA,NA,NA,NA,NA,NA,NA,NA,NA,NA,NA,NA,NA,NA,NA,NA,NA
audio-instructions,7,39014,0.0-5.0-2.0,voc_e2,12130,"[{""event"":""fullscreenenter"",""trial"":1,""time"":6734}]",NA,701.2000000000116,static/audio/instructions3.wav,NA,0,NA,NA,NA,NA,NA,NA,NA,NA,NA,NA,NA,NA,NA,NA,NA,NA,NA,NA,NA,NA,NA,NA,NA,NA,NA
audio-instructions,8,52874,0.0-5.0-3.0,voc_e2,12130,"[{""event"":""fullscreenenter"",""trial"":1,""time"":6734}]",NA,634.4000000000233,static/audio/instructions4.wav,NA,0,NA,NA,NA,NA,NA,NA,NA,NA,NA,NA,NA,NA,NA,NA,NA,NA,NA,NA,NA,NA,NA,NA,NA,NA,NA
audio-instructions,9,63060,0.0-5.0-4.0,voc_e2,12130,"[{""event"":""fullscreenenter"",""trial"":1,""time"":6734}]",NA,800.8000000000175,static/audio/instructions5.wav,NA,0,NA,NA,NA,NA,NA,NA,NA,NA,NA,NA,NA,NA,NA,NA,NA,NA,NA,NA,NA,NA,NA,NA,NA,NA,NA
fcp-practice,10,77722,0.0-5.0-5.0-0.0,voc_e2,12130,"[{""event"":""fullscreenenter"",""trial"":1,""time"":6734}]",NA,NA,NA,NA,NA,NA,#EDC948,#46d3c8,10,0,1,null,null,null,37,1,13127.300000000016,10,1,practice,NA,NA,NA,NA,NA,NA,NA,NA,NA,NA
fcp-practice,11,79794,0.0-5.0-5.0-1.0,voc_e2,12130,"[{""event"":""fullscreenenter"",""trial"":1,""time"":6734}]",NA,NA,NA,NA,NA,NA,#EDC948,#46d3c8,10,0,1,null,null,null,37,1,564.8999999999942,10,1,practice,NA,NA,NA,NA,NA,NA,NA,NA,NA,NA
fcp-practice,12,81777,0.0-5.0-5.0-2.0,voc_e2,12130,"[{""event"":""fullscreenenter"",""trial"":1,""time"":6734}]",NA,NA,NA,NA,NA,NA,#EDC948,#46d3c8,0,10,1,null,null,null,37,1,477,0,1,practice,NA,NA,NA,NA,NA,NA,NA,NA,NA,NA
fcp-practice,13,83789,0.0-5.0-5.0-3.0,voc_e2,12130,"[{""event"":""fullscreenenter"",""trial"":1,""time"":6734}]",NA,NA,NA,NA,NA,NA,#EDC948,#46d3c8,10,0,1,null,null,null,37,1,505.3999999999942,10,1,practice,NA,NA,NA,NA,NA,NA,NA,NA,NA,NA
fcp-practice,14,85298,0.0-5.0-5.0-4.0,voc_e2,12130,"[{""event"":""fullscreenenter"",""trial"":1,""time"":6734}]",NA,NA,NA,NA,NA,NA,#EDC948,#46d3c8,10,0,1,null,null,null,37,1,0.6000000000058208,10,1,practice,NA,NA,NA,NA,NA,NA,NA,NA,NA,NA
audio-instructions,15,107923,0.0-5.0-6.0,voc_e2,12130,"[{""event"":""fullscreenenter"",""trial"":1,""time"":6734}]",NA,4619.899999999994,static/audio/instructions6.wav,NA,0,NA,NA,NA,NA,NA,NA,NA,NA,NA,NA,NA,NA,NA,NA,NA,NA,NA,NA,NA,NA,NA,NA,NA,NA,NA
audio-instructions,16,130934,0.0-5.0-7.0,voc_e2,12130,"[{""event"":""fullscreenenter"",""trial"":1,""time"":6734}]",NA,3814.6999999999825,static/audio/instructions7.wav,NA,0,NA,NA,NA,NA,NA,NA,NA,NA,NA,NA,NA,NA,NA,NA,NA,NA,NA,NA,NA,NA,NA,NA,NA,NA,NA
audio-instructions,17,141741,0.0-5.0-8.0,voc_e2,12130,"[{""event"":""fullscreenenter"",""trial"":1,""time"":6734}]",NA,1336.100000000035,static/audio/instructions8.wav,NA,0,NA,NA,NA,NA,NA,NA,NA,NA,NA,NA,NA,NA,NA,NA,NA,NA,NA,NA,NA,NA,NA,NA,NA,NA,NA
fcp-comprehension,18,148464,0.0-5.0-9.0,voc_e2,12130,"[{""event"":""fullscreenenter"",""trial"":1,""time"":6734}]",NA,6720.5,NA,NA,NA,NA,NA,NA,NA,NA,NA,NA,NA,NA,NA,NA,NA,NA,NA,NA,"true,true",0,NA,NA,NA,NA,NA,NA,NA,NA
audio-instructions,19,157510,0.0-6.0-0.0,voc_e2,12130,"[{""event"":""fullscreenenter"",""trial"":1,""time"":6734}]",NA,3501.0999999999767,static/audio/instructions9.wav,NA,0,NA,NA,NA,NA,NA,NA,NA,NA,NA,NA,NA,NA,NA,NA,NA,NA,NA,NA,NA,NA,NA,NA,NA,NA,NA
audio-instructions,20,181643,0.0-6.0-1.0,voc_e2,12130,"[{""event"":""fullscreenenter"",""trial"":1,""time"":6734}]",NA,12018.900000000023,static/audio/instructions10.wav,NA,0,NA,NA,NA,NA,NA,NA,NA,NA,NA,NA,NA,NA,NA,NA,NA,NA,NA,NA,NA,NA,NA,NA,NA,NA,NA
fcp-trial,21,187634,0.0-6.0-2.0,voc_e2,12130,"[{""event"":""fullscreenenter"",""trial"":1,""time"":6734}]",NA,NA,NA,NA,NA,0,#EDC948,#46d3c8,10,10,1,38,1,3004.2999999999884,39,0,1465.7000000000116,10,0,practice,NA,NA,NA,NA,NA,NA,NA,NA,NA,NA
audio-instructions,22,199256,0.0-6.0-3.0,voc_e2,12130,"[{""event"":""fullscreenenter"",""trial"":1,""time"":6734}]",NA,613.5999999999767,static/audio/instructions11.wav,NA,0,NA,NA,NA,NA,NA,NA,NA,NA,NA,NA,NA,NA,NA,NA,NA,NA,NA,NA,NA,NA,NA,NA,NA,NA,NA
fcp-trial,23,202737,0.0-6.0-4.0,voc_e2,12130,"[{""event"":""fullscreenenter"",""trial"":1,""time"":6734}]",NA,NA,NA,NA,NA,6,#EDC948,#46d3c8,10,10,1,40,0,568.2000000000116,39,0,1398.7000000000116,10,0,practice,NA,NA,NA,NA,NA,NA,NA,NA,NA,NA
audio-instructions,24,222794,0.0-6.0-5.0,voc_e2,12130,"[{""event"":""fullscreenenter"",""trial"":1,""time"":6734}]",NA,1369.2000000000116,static/audio/instructions12.wav,NA,0,NA,NA,NA,NA,NA,NA,NA,NA,NA,NA,NA,NA,NA,NA,NA,NA,NA,NA,NA,NA,NA,NA,NA,NA,NA
audio-instructions,25,231143,0.0-6.0-6.0,voc_e2,12130,"[{""event"":""fullscreenenter"",""trial"":1,""time"":6734}]",NA,753.4000000000233,static/audio/instructions13.wav,NA,0,NA,NA,NA,NA,NA,NA,NA,NA,NA,NA,NA,NA,NA,NA,NA,NA,NA,NA,NA,NA,NA,NA,NA,NA,NA
audio-instructions,26,240160,0.0-6.0-7.0,voc_e2,12130,"[{""event"":""fullscreenenter"",""trial"":1,""time"":6734}]",NA,570.7000000000116,static/audio/instructions14.wav,NA,0,NA,NA,NA,NA,NA,NA,NA,NA,NA,NA,NA,NA,NA,NA,NA,NA,NA,NA,NA,NA,NA,NA,NA,NA,NA
audio-instructions,27,247505,0.0-7.0-0.0,voc_e2,12130,"[{""event"":""fullscreenenter"",""trial"":1,""time"":6734}]",NA,433.9000000000233,static/audio/instructions15.wav,NA,0,NA,NA,NA,NA,NA,NA,NA,NA,NA,NA,NA,NA,NA,NA,NA,NA,NA,NA,NA,NA,NA,NA,NA,NA,NA
audio-instructions,28,255440,0.0-7.0-1.0,voc_e2,12130,"[{""event"":""fullscreenenter"",""trial"":1,""time"":6734}]",NA,1110.2000000000116,static/audio/instructions16.wav,NA,0,NA,NA,NA,NA,NA,NA,NA,NA,NA,NA,NA,NA,NA,NA,NA,NA,NA,NA,NA,NA,NA,NA,NA,NA,NA
audio-instructions,29,263622,0.0-7.0-2.0,voc_e2,12130,"[{""event"":""fullscreenenter"",""trial"":1,""time"":6734}]",NA,503.5999999999767,static/audio/instructions17.wav,NA,0,NA,NA,NA,NA,NA,NA,NA,NA,NA,NA,NA,NA,NA,NA,NA,NA,NA,NA,NA,NA,NA,NA,NA,NA,NA
audio-instructions,30,272249,0.0-7.0-3.0,voc_e2,12130,"[{""event"":""fullscreenenter"",""trial"":1,""time"":6734}]",NA,863.5,static/audio/instructions18.wav,NA,0,NA,NA,NA,NA,NA,NA,NA,NA,NA,NA,NA,NA,NA,NA,NA,NA,NA,NA,NA,NA,NA,NA,NA,NA,NA
audio-instructions,31,279796,0.0-7.0-4.0,voc_e2,12130,"[{""event"":""fullscreenenter"",""trial"":1,""time"":6734}]",NA,805.0999999999767,static/audio/instructions19.wav,NA,0,NA,NA,NA,NA,NA,NA,NA,NA,NA,NA,NA,NA,NA,NA,NA,NA,NA,NA,NA,NA,NA,NA,NA,NA,NA
fcp-comprehension,32,293975,0.0-7.0-5.0,voc_e2,12130,"[{""event"":""fullscreenenter"",""trial"":1,""time"":6734}]",NA,14177.300000000048,NA,NA,NA,NA,NA,NA,NA,NA,NA,NA,NA,NA,NA,NA,NA,NA,NA,NA,"false,false,false,true",0,NA,NA,NA,NA,NA,NA,NA,NA
audio-instructions,33,304428,0.0-8.0,voc_e2,12130,"[{""event"":""fullscreenenter"",""trial"":1,""time"":6734}]",NA,1236.0999999999767,static/audio/ready.wav,NA,0,NA,NA,NA,NA,NA,NA,NA,NA,NA,NA,NA,NA,NA,NA,NA,NA,NA,NA,NA,NA,NA,NA,NA,NA,NA
fcp-trial,34,308441,0.0-9.0-0.0,voc_e2,12130,"[{""event"":""fullscreenenter"",""trial"":1,""time"":6734}]",NA,NA,NA,NA,NA,1,#1CD855,#FA92F8,10,10,1,38,1,1667.7000000000116,37,1,831.5,10,1,experiment,NA,NA,0,0.9,0.1,0,1,1,1,NA
fcp-trial,35,313357,0.0-10.0-0.0,voc_e2,12130,"[{""event"":""fullscreenenter"",""trial"":1,""time"":6734}]",NA,NA,NA,NA,NA,6,#D8271C,#741CD8,10,0,1,40,0,2200,39,0,1205.8000000000466,0,0,experiment,NA,NA,1,0.7,0.3,2,3,2,1,NA
fcp-trial,36,317407,0.0-11.0-0.0,voc_e2,12130,"[{""event"":""fullscreenenter"",""trial"":1,""time"":6734}]",NA,NA,NA,NA,NA,2,#FA92F8,#1CD855,0,10,0,38,1,820.7999999999884,37,1,1719.7999999999884,0,0,experiment,NA,NA,0,0.1,0.9,1,0,3,1,NA
fcp-trial,37,320863,0.0-12.0-0.0,voc_e2,12130,"[{""event"":""fullscreenenter"",""trial"":1,""time"":6734}]",NA,NA,NA,NA,NA,3,#D89F1C,#3386FF,0,10,1,38,1,1262,39,0,687.4000000000233,10,0,experiment,NA,NA,2,0.5,0.5,4,5,4,1,NA
fcp-trial,38,324753,0.0-13.0-0.0,voc_e2,12130,"[{""event"":""fullscreenenter"",""trial"":1,""time"":6734}]",NA,NA,NA,NA,NA,1,#D89F1C,#3386FF,10,10,1,38,1,1721.7999999999884,39,0,654.5,10,0,experiment,NA,NA,2,0.5,0.5,4,5,5,1,NA
fcp-trial,39,329003,0.0-14.0-0.0,voc_e2,12130,"[{""event"":""fullscreenenter"",""trial"":1,""time"":6734}]",NA,NA,NA,NA,NA,5,#741CD8,#D8271C,10,10,0,38,1,1312.600000000035,37,1,1426.8000000000466,10,0,experiment,NA,NA,1,0.3,0.7,3,2,6,1,NA
fcp-trial,40,332098,0.0-15.0-0.0,voc_e2,12130,"[{""event"":""fullscreenenter"",""trial"":1,""time"":6734}]",NA,NA,NA,NA,NA,4,#741CD8,#D8271C,0,0,0,38,1,963,37,1,620.9000000000233,0,0,experiment,NA,NA,1,0.3,0.7,3,2,7,1,NA
fcp-trial,41,335347,0.0-16.0-0.0,voc_e2,12130,"[{""event"":""fullscreenenter"",""trial"":1,""time"":6734}]",NA,NA,NA,NA,NA,3,#FA92F8,#1CD855,0,10,0,38,1,1192.2000000000116,39,0,547.5,10,1,experiment,NA,NA,0,0.1,0.9,1,0,8,1,NA
fcp-trial,42,339121,0.0-17.0-0.0,voc_e2,12130,"[{""event"":""fullscreenenter"",""trial"":1,""time"":6734}]",NA,NA,NA,NA,NA,2,#D8271C,#741CD8,10,10,1,38,1,816.4000000000233,39,0,1447.2999999999884,10,0,experiment,NA,NA,1,0.7,0.3,2,3,9,1,NA
fcp-trial,43,341940,0.0-18.0-0.0,voc_e2,12130,"[{""event"":""fullscreenenter"",""trial"":1,""time"":6734}]",NA,NA,NA,NA,NA,4,#D89F1C,#3386FF,0,10,1,38,1,737,39,0,573.5,10,0,experiment,NA,NA,2,0.5,0.5,4,5,10,1,NA
fcp-trial,44,345217,0.0-19.0-0.0,voc_e2,12130,"[{""event"":""fullscreenenter"",""trial"":1,""time"":6734}]",NA,NA,NA,NA,NA,4,#FA92F8,#1CD855,0,10,0,38,1,693.9000000000233,37,1,1073,0,0,experiment,NA,NA,0,0.1,0.9,1,0,11,1,NA
fcp-trial,45,349132,0.0-20.0-0.0,voc_e2,12130,"[{""event"":""fullscreenenter"",""trial"":1,""time"":6734}]",NA,NA,NA,NA,NA,3,#741CD8,#D8271C,0,10,0,40,0,973,37,1,1435.9000000000233,0,0,experiment,NA,NA,1,0.3,0.7,3,2,12,1,NA
fcp-trial,46,352116,0.0-21.0-0.0,voc_e2,12130,"[{""event"":""fullscreenenter"",""trial"":1,""time"":6734}]",NA,NA,NA,NA,NA,2,#D89F1C,#3386FF,0,0,1,38,1,761.0999999999767,39,0,714.4000000000233,0,0,experiment,NA,NA,2,0.5,0.5,4,5,13,1,NA
fcp-trial,47,355372,0.0-22.0-0.0,voc_e2,12130,"[{""event"":""fullscreenenter"",""trial"":1,""time"":6734}]",NA,NA,NA,NA,NA,5,#D89F1C,#3386FF,0,0,1,38,1,731.8999999999651,39,0,1014.4000000000232,0,0,experiment,NA,NA,2,0.5,0.5,4,5,14,1,NA
fcp-trial,48,358104,0.0-23.0-0.0,voc_e2,12130,"[{""event"":""fullscreenenter"",""trial"":1,""time"":6734}]",NA,NA,NA,NA,NA,6,#FA92F8,#1CD855,0,10,0,38,1,623.7000000000116,37,1,596.5,0,0,experiment,NA,NA,0,0.1,0.9,1,0,15,1,NA
fcp-trial,49,360894,0.0-24.0-0.0,voc_e2,12130,"[{""event"":""fullscreenenter"",""trial"":1,""time"":6734}]",NA,NA,NA,NA,NA,5,#FA92F8,#1CD855,0,0,0,38,1,774,39,0,500.7000000000117,0,1,experiment,NA,NA,0,0.1,0.9,1,0,16,1,NA
fcp-trial,50,364234,0.0-25.0-0.0,voc_e2,12130,"[{""event"":""fullscreenenter"",""trial"":1,""time"":6734}]",NA,NA,NA,NA,NA,1,#741CD8,#D8271C,0,10,0,38,1,755,37,1,1075.0999999999767,0,0,experiment,NA,NA,1,0.3,0.7,3,2,17,1,NA
fcp-trial,51,367010,0.0-26.0-0.0,voc_e2,12130,"[{""event"":""fullscreenenter"",""trial"":1,""time"":6734}]",NA,NA,NA,NA,NA,0,#D8271C,#741CD8,10,10,1,38,1,601.8000000000466,37,1,667.8999999999651,10,1,experiment,NA,NA,1,0.7,0.3,2,3,18,1,NA
fcp-trial,52,371231,0.0-27.0-0.0,voc_e2,12130,"[{""event"":""fullscreenenter"",""trial"":1,""time"":6734}]",NA,NA,NA,NA,NA,6,#3386FF,#D89F1C,10,10,0,38,1,791.5999999999767,39,0,1921.7999999999884,10,1,experiment,NA,NA,2,0.5,0.5,5,4,19,1,NA
fcp-trial,53,373873,0.0-28.0-0.0,voc_e2,12130,"[{""event"":""fullscreenenter"",""trial"":1,""time"":6734}]",NA,NA,NA,NA,NA,0,#D89F1C,#3386FF,10,0,1,38,1,606.1000000000349,37,1,525.1999999999534,10,1,experiment,NA,NA,2,0.5,0.5,4,5,20,1,NA
fcp-trial,54,376542,0.0-29.0-0.0,voc_e2,12130,"[{""event"":""fullscreenenter"",""trial"":1,""time"":6734}]",NA,NA,NA,NA,NA,0,#1CD855,#FA92F8,10,0,1,38,1,601.9000000000233,37,1,557.3999999999651,10,1,experiment,NA,NA,0,0.9,0.1,0,1,21,1,NA
fcp-trial,55,379397,0.0-30.0-0.0,voc_e2,12130,"[{""event"":""fullscreenenter"",""trial"":1,""time"":6734}]",NA,NA,NA,NA,NA,3,#FA92F8,#1CD855,0,10,0,38,1,627,39,0,719.0999999999767,10,1,experiment,NA,NA,0,0.1,0.9,1,0,22,1,NA
fcp-trial,56,382654,0.0-31.0-0.0,voc_e2,12130,"[{""event"":""fullscreenenter"",""trial"":1,""time"":6734}]",NA,NA,NA,NA,NA,3,#741CD8,#D8271C,0,10,0,38,1,879.2000000000116,39,0,866.5999999999767,10,1,experiment,NA,NA,1,0.3,0.7,3,2,23,1,NA
fcp-trial,57,386480,0.0-32.0-0.0,voc_e2,12130,"[{""event"":""fullscreenenter"",""trial"":1,""time"":6734}]",NA,NA,NA,NA,NA,3,#3386FF,#D89F1C,10,10,0,38,1,649.8999999999651,37,1,1664.2000000000116,10,0,experiment,NA,NA,2,0.5,0.5,5,4,24,1,NA
fcp-trial,58,390244,0.0-33.0-0.0,voc_e2,12130,"[{""event"":""fullscreenenter"",""trial"":1,""time"":6734}]",NA,NA,NA,NA,NA,2,#D8271C,#741CD8,0,0,1,38,1,518,37,1,1732.9000000000233,0,1,experiment,NA,NA,1,0.7,0.3,2,3,25,1,NA
fcp-trial,59,393050,0.0-34.0-0.0,voc_e2,12130,"[{""event"":""fullscreenenter"",""trial"":1,""time"":6734}]",NA,NA,NA,NA,NA,2,#FA92F8,#1CD855,0,10,0,38,1,653.7000000000116,39,0,638.7999999999884,10,1,experiment,NA,NA,0,0.1,0.9,1,0,26,1,NA
fcp-trial,60,396378,0.0-35.0-0.0,voc_e2,12130,"[{""event"":""fullscreenenter"",""trial"":1,""time"":6734}]",NA,NA,NA,NA,NA,0,#D89F1C,#3386FF,0,0,1,40,0,499.3999999999651,37,1,1313.899999999965,0,1,experiment,NA,NA,2,0.5,0.5,4,5,27,1,NA
fcp-trial,61,399746,0.0-36.0-0.0,voc_e2,12130,"[{""event"":""fullscreenenter"",""trial"":1,""time"":6734}]",NA,NA,NA,NA,NA,0,#741CD8,#D8271C,0,10,0,38,1,665.8000000000466,39,0,1185.0999999999767,10,1,experiment,NA,NA,1,0.3,0.7,3,2,28,1,NA
fcp-trial,62,402712,0.0-37.0-0.0,voc_e2,12130,"[{""event"":""fullscreenenter"",""trial"":1,""time"":6734}]",NA,NA,NA,NA,NA,2,#3386FF,#D89F1C,10,10,0,38,1,572.6999999999534,37,1,883.2999999999302,10,0,experiment,NA,NA,2,0.5,0.5,5,4,29,1,NA
fcp-trial,63,406137,0.0-38.0-0.0,voc_e2,12130,"[{""event"":""fullscreenenter"",""trial"":1,""time"":6734}]",NA,NA,NA,NA,NA,0,#1CD855,#FA92F8,0,0,1,38,1,609.5999999999767,37,1,1305.2000000000698,0,1,experiment,NA,NA,0,0.9,0.1,0,1,30,1,NA
fcp-trial,64,408801,0.0-39.0-0.0,voc_e2,12130,"[{""event"":""fullscreenenter"",""trial"":1,""time"":6734}]",NA,NA,NA,NA,NA,5,#FA92F8,#1CD855,0,10,0,38,1,600.6999999999534,37,1,556.1000000000931,0,0,experiment,NA,NA,0,0.1,0.9,1,0,31,1,NA
fcp-trial,65,412414,0.0-40.0-0.0,voc_e2,12130,"[{""event"":""fullscreenenter"",""trial"":1,""time"":6734}]",NA,NA,NA,NA,NA,1,#D8271C,#741CD8,10,0,1,38,1,728.2000000000698,37,1,1375.3000000000466,10,1,experiment,NA,NA,1,0.7,0.3,2,3,32,1,NA
fcp-trial,66,415363,0.0-41.0-0.0,voc_e2,12130,"[{""event"":""fullscreenenter"",""trial"":1,""time"":6734}]",NA,NA,NA,NA,NA,6,#D8271C,#741CD8,0,0,1,38,1,697.4000000000233,37,1,740,0,1,experiment,NA,NA,1,0.7,0.3,2,3,33,1,NA
fcp-trial,67,418835,0.0-42.0-0.0,voc_e2,12130,"[{""event"":""fullscreenenter"",""trial"":1,""time"":6734}]",NA,NA,NA,NA,NA,1,#D89F1C,#3386FF,0,0,1,38,1,671,39,0,1290,0,0,experiment,NA,NA,2,0.5,0.5,4,5,34,1,NA
fcp-trial,68,421646,0.0-43.0-0.0,voc_e2,12130,"[{""event"":""fullscreenenter"",""trial"":1,""time"":6734}]",NA,NA,NA,NA,NA,4,#FA92F8,#1CD855,10,10,0,38,1,598.8000000000466,39,0,703.5999999999767,10,1,experiment,NA,NA,0,0.1,0.9,1,0,35,1,NA
fcp-trial,69,424192,0.0-44.0-0.0,voc_e2,12130,"[{""event"":""fullscreenenter"",""trial"":1,""time"":6734}]",NA,NA,NA,NA,NA,4,#D89F1C,#3386FF,0,10,1,38,1,538.4000000000233,39,0,495.0999999999767,10,0,experiment,NA,NA,2,0.5,0.5,4,5,36,1,NA
fcp-trial,70,427336,0.0-45.0-0.0,voc_e2,12130,"[{""event"":""fullscreenenter"",""trial"":1,""time"":6734}]",NA,NA,NA,NA,NA,4,#741CD8,#D8271C,10,10,0,38,1,647.5,39,0,985.3000000000466,10,1,experiment,NA,NA,1,0.3,0.7,3,2,37,1,NA
fcp-trial,71,429893,0.0-46.0-0.0,voc_e2,12130,"[{""event"":""fullscreenenter"",""trial"":1,""time"":6734}]",NA,NA,NA,NA,NA,1,#FA92F8,#1CD855,0,10,0,38,1,595.4000000000233,39,0,453.5999999999767,10,1,experiment,NA,NA,0,0.1,0.9,1,0,38,1,NA
fcp-trial,72,432903,0.0-47.0-0.0,voc_e2,12130,"[{""event"":""fullscreenenter"",""trial"":1,""time"":6734}]",NA,NA,NA,NA,NA,5,#D8271C,#741CD8,0,10,1,38,1,656.9000000000233,37,1,844.5,0,1,experiment,NA,NA,1,0.7,0.3,2,3,39,1,NA
fcp-trial,73,435874,0.0-48.0-0.0,voc_e2,12130,"[{""event"":""fullscreenenter"",""trial"":1,""time"":6734}]",NA,NA,NA,NA,NA,6,#3386FF,#D89F1C,0,0,0,38,1,1096.6000000000931,37,1,363.0999999999767,0,0,experiment,NA,NA,2,0.5,0.5,5,4,40,1,NA
fcp-trial,74,439537,0.0-49.0-0.0,voc_e2,12130,"[{""event"":""fullscreenenter"",""trial"":1,""time"":6734}]",NA,NA,NA,NA,NA,6,#1CD855,#FA92F8,10,0,1,38,1,684.5,37,1,1467.4000000000233,10,1,experiment,NA,NA,0,0.9,0.1,0,1,41,1,NA
fcp-trial,75,442231,0.0-50.0-0.0,voc_e2,12130,"[{""event"":""fullscreenenter"",""trial"":1,""time"":6734}]",NA,NA,NA,NA,NA,5,#3386FF,#D89F1C,0,10,0,38,1,636.5,37,1,548,0,0,experiment,NA,NA,2,0.5,0.5,5,4,42,1,NA
fcp-trial,76,444967,0.0-51.0-0.0,voc_e2,12130,"[{""event"":""fullscreenenter"",""trial"":1,""time"":6734}]",NA,NA,NA,NA,NA,2,#FA92F8,#1CD855,0,10,0,38,1,517.6000000000931,39,0,709.5999999999767,10,1,experiment,NA,NA,0,0.1,0.9,1,0,43,1,NA
fcp-trial,77,447804,0.0-52.0-0.0,voc_e2,12130,"[{""event"":""fullscreenenter"",""trial"":1,""time"":6734}]",NA,NA,NA,NA,NA,6,#FA92F8,#1CD855,0,0,0,38,1,875.6000000000931,39,0,454.60000000009313,0,1,experiment,NA,NA,0,0.1,0.9,1,0,44,1,NA
fcp-trial,78,450401,0.0-53.0-0.0,voc_e2,12130,"[{""event"":""fullscreenenter"",""trial"":1,""time"":6734}]",NA,NA,NA,NA,NA,2,#D89F1C,#3386FF,10,0,1,38,1,590.7999999999302,39,0,496.20000000006985,0,0,experiment,NA,NA,2,0.5,0.5,4,5,45,1,NA
fcp-trial,79,453021,0.0-54.0-0.0,voc_e2,12130,"[{""event"":""fullscreenenter"",""trial"":1,""time"":6734}]",NA,NA,NA,NA,NA,4,#FA92F8,#1CD855,0,10,0,38,1,577.5,39,0,524.4000000000233,10,1,experiment,NA,NA,0,0.1,0.9,1,0,46,2,NA
fcp-trial,80,455771,0.0-55.0-0.0,voc_e2,12130,"[{""event"":""fullscreenenter"",""trial"":1,""time"":6734}]",NA,NA,NA,NA,NA,3,#D8271C,#741CD8,10,10,1,38,1,656.1000000000931,39,0,581.3999999999069,10,0,experiment,NA,NA,1,0.7,0.3,2,3,47,2,NA
fcp-trial,81,458371,0.0-56.0-0.0,voc_e2,12130,"[{""event"":""fullscreenenter"",""trial"":1,""time"":6734}]",NA,NA,NA,NA,NA,2,#D8271C,#741CD8,10,0,1,38,1,615.1999999999534,39,0,471.79999999993015,0,0,experiment,NA,NA,1,0.7,0.3,2,3,48,2,NA
fcp-trial,82,460954,0.0-57.0-0.0,voc_e2,12130,"[{""event"":""fullscreenenter"",""trial"":1,""time"":6734}]",NA,NA,NA,NA,NA,0,#3386FF,#D89F1C,0,10,0,38,1,500.19999999995343,37,1,573.9000000000233,0,0,experiment,NA,NA,2,0.5,0.5,5,4,49,2,NA
fcp-trial,83,463552,0.0-58.0-0.0,voc_e2,12130,"[{""event"":""fullscreenenter"",""trial"":1,""time"":6734}]",NA,NA,NA,NA,NA,6,#741CD8,#D8271C,0,10,0,38,1,553.5,39,0,530.2000000000698,10,1,experiment,NA,NA,1,0.3,0.7,3,2,50,2,NA
fcp-trial,84,466978,0.0-59.0-0.0,voc_e2,12130,"[{""event"":""fullscreenenter"",""trial"":1,""time"":6734}]",NA,NA,NA,NA,NA,5,#1CD855,#FA92F8,10,0,1,38,1,715.6000000000931,37,1,1199.6000000000931,10,1,experiment,NA,NA,0,0.9,0.1,0,1,51,2,NA
fcp-trial,85,469763,0.0-60.0-0.0,voc_e2,12130,"[{""event"":""fullscreenenter"",""trial"":1,""time"":6734}]",NA,NA,NA,NA,NA,6,#D89F1C,#3386FF,0,0,1,38,1,820.8999999999069,37,1,448.19999999995343,0,1,experiment,NA,NA,2,0.5,0.5,4,5,52,2,NA
fcp-trial,86,472272,0.0-61.0-0.0,voc_e2,12130,"[{""event"":""fullscreenenter"",""trial"":1,""time"":6734}]",NA,NA,NA,NA,NA,1,#D8271C,#741CD8,10,10,1,38,1,468,39,0,530.3999999999069,10,0,experiment,NA,NA,1,0.7,0.3,2,3,53,2,NA
fcp-trial,87,474802,0.0-62.0-0.0,voc_e2,12130,"[{""event"":""fullscreenenter"",""trial"":1,""time"":6734}]",NA,NA,NA,NA,NA,4,#D89F1C,#3386FF,10,10,1,38,1,596.3000000000466,39,0,422.20000000006985,10,0,experiment,NA,NA,2,0.5,0.5,4,5,54,2,NA
fcp-trial,88,477842,0.0-63.0-0.0,voc_e2,12130,"[{""event"":""fullscreenenter"",""trial"":1,""time"":6734}]",NA,NA,NA,NA,NA,5,#741CD8,#D8271C,10,10,0,38,1,661,39,0,868,10,1,experiment,NA,NA,1,0.3,0.7,3,2,55,2,NA
fcp-trial,89,480998,0.0-64.0-0.0,voc_e2,12130,"[{""event"":""fullscreenenter"",""trial"":1,""time"":6734}]",NA,NA,NA,NA,NA,1,#FA92F8,#1CD855,0,10,0,38,1,604.6999999999534,39,0,1032.3000000000466,10,1,experiment,NA,NA,0,0.1,0.9,1,0,56,2,NA
fcp-trial,90,483412,0.0-65.0-0.0,voc_e2,12130,"[{""event"":""fullscreenenter"",""trial"":1,""time"":6734}]",NA,NA,NA,NA,NA,1,#D89F1C,#3386FF,10,10,1,38,1,422,39,0,479.0999999999767,10,0,experiment,NA,NA,2,0.5,0.5,4,5,57,2,NA
fcp-trial,91,486079,0.0-66.0-0.0,voc_e2,12130,"[{""event"":""fullscreenenter"",""trial"":1,""time"":6734}]",NA,NA,NA,NA,NA,4,#741CD8,#D8271C,0,10,0,38,1,525.5,37,1,630.0999999999767,0,0,experiment,NA,NA,1,0.3,0.7,3,2,58,2,NA
fcp-trial,92,488657,0.0-67.0-0.0,voc_e2,12130,"[{""event"":""fullscreenenter"",""trial"":1,""time"":6734}]",NA,NA,NA,NA,NA,3,#D89F1C,#3386FF,0,0,1,38,1,524.2999999999302,39,0,542.4000000000233,0,0,experiment,NA,NA,2,0.5,0.5,4,5,59,2,NA
fcp-trial,93,491407,0.0-68.0-0.0,voc_e2,12130,"[{""event"":""fullscreenenter"",""trial"":1,""time"":6734}]",NA,NA,NA,NA,NA,0,#1CD855,#FA92F8,10,0,1,38,1,523.0999999999767,37,1,719.3999999999069,10,1,experiment,NA,NA,0,0.9,0.1,0,1,60,2,NA
fcp-trial,94,494914,0.0-69.0-0.0,voc_e2,12130,"[{""event"":""fullscreenenter"",""trial"":1,""time"":6734}]",NA,NA,NA,NA,NA,5,#D89F1C,#3386FF,0,0,1,38,1,868.1000000000931,37,1,1129.6000000000931,0,1,experiment,NA,NA,2,0.5,0.5,4,5,61,2,NA
fcp-trial,95,497987,0.0-70.0-0.0,voc_e2,12130,"[{""event"":""fullscreenenter"",""trial"":1,""time"":6734}]",NA,NA,NA,NA,NA,0,#741CD8,#D8271C,0,10,0,38,1,441.4000000000233,39,0,1121.5,10,1,experiment,NA,NA,1,0.3,0.7,3,2,62,2,NA
fcp-trial,96,500604,0.0-71.0-0.0,voc_e2,12130,"[{""event"":""fullscreenenter"",""trial"":1,""time"":6734}]",NA,NA,NA,NA,NA,3,#FA92F8,#1CD855,0,10,0,38,1,674.8000000000466,39,0,429.30000000004657,10,1,experiment,NA,NA,0,0.1,0.9,1,0,63,2,NA
fcp-trial,97,503220,0.0-72.0-0.0,voc_e2,12130,"[{""event"":""fullscreenenter"",""trial"":1,""time"":6734}]",NA,NA,NA,NA,NA,6,#3386FF,#D89F1C,10,10,0,38,1,531.4000000000233,37,1,571.2000000000698,10,0,experiment,NA,NA,2,0.5,0.5,5,4,64,2,NA
fcp-trial,98,505780,0.0-73.0-0.0,voc_e2,12130,"[{""event"":""fullscreenenter"",""trial"":1,""time"":6734}]",NA,NA,NA,NA,NA,2,#D8271C,#741CD8,10,10,1,38,1,594.4000000000233,39,0,458.20000000006985,10,0,experiment,NA,NA,1,0.7,0.3,2,3,65,2,NA
fcp-trial,99,508454,0.0-74.0-0.0,voc_e2,12130,"[{""event"":""fullscreenenter"",""trial"":1,""time"":6734}]",NA,NA,NA,NA,NA,2,#1CD855,#FA92F8,10,0,1,38,1,750.7000000000698,37,1,416.5,10,1,experiment,NA,NA,0,0.9,0.1,0,1,66,2,NA
fcp-trial,100,510854,0.0-75.0-0.0,voc_e2,12130,"[{""event"":""fullscreenenter"",""trial"":1,""time"":6734}]",NA,NA,NA,NA,NA,1,#FA92F8,#1CD855,0,10,0,38,1,469.69999999995343,39,0,416.5,10,1,experiment,NA,NA,0,0.1,0.9,1,0,67,2,NA
fcp-trial,101,513358,0.0-76.0-0.0,voc_e2,12130,"[{""event"":""fullscreenenter"",""trial"":1,""time"":6734}]",NA,NA,NA,NA,NA,5,#D89F1C,#3386FF,0,0,1,38,1,488.20000000006985,39,0,505.69999999995343,0,0,experiment,NA,NA,2,0.5,0.5,4,5,68,2,NA
fcp-trial,102,516026,0.0-77.0-0.0,voc_e2,12130,"[{""event"":""fullscreenenter"",""trial"":1,""time"":6734}]",NA,NA,NA,NA,NA,6,#FA92F8,#1CD855,0,10,0,38,1,598.3000000000466,39,0,558.0999999999767,10,1,experiment,NA,NA,0,0.1,0.9,1,0,69,2,NA
fcp-trial,103,518473,0.0-78.0-0.0,voc_e2,12130,"[{""event"":""fullscreenenter"",""trial"":1,""time"":6734}]",NA,NA,NA,NA,NA,0,#D8271C,#741CD8,10,0,1,38,1,535.3000000000466,39,0,401.79999999993015,0,0,experiment,NA,NA,1,0.7,0.3,2,3,70,2,NA
fcp-trial,104,521103,0.0-79.0-0.0,voc_e2,12130,"[{""event"":""fullscreenenter"",""trial"":1,""time"":6734}]",NA,NA,NA,NA,NA,4,#741CD8,#D8271C,10,0,0,38,1,522.5999999999767,37,1,594.7999999999302,10,0,experiment,NA,NA,1,0.3,0.7,3,2,71,2,NA
fcp-trial,105,523596,0.0-80.0-0.0,voc_e2,12130,"[{""event"":""fullscreenenter"",""trial"":1,""time"":6734}]",NA,NA,NA,NA,NA,4,#D89F1C,#3386FF,0,0,1,38,1,521.5999999999767,39,0,458.69999999995343,0,0,experiment,NA,NA,2,0.5,0.5,4,5,72,2,NA
fcp-trial,106,526167,0.0-81.0-0.0,voc_e2,12130,"[{""event"":""fullscreenenter"",""trial"":1,""time"":6734}]",NA,NA,NA,NA,NA,3,#FA92F8,#1CD855,0,0,0,38,1,622,39,0,437.20000000006985,0,1,experiment,NA,NA,0,0.1,0.9,1,0,73,2,NA
fcp-trial,107,528600,0.0-82.0-0.0,voc_e2,12130,"[{""event"":""fullscreenenter"",""trial"":1,""time"":6734}]",NA,NA,NA,NA,NA,5,#741CD8,#D8271C,0,10,0,38,1,501.5,37,1,422,0,0,experiment,NA,NA,1,0.3,0.7,3,2,74,2,NA
fcp-trial,108,531619,0.0-83.0-0.0,voc_e2,12130,"[{""event"":""fullscreenenter"",""trial"":1,""time"":6734}]",NA,NA,NA,NA,NA,1,#3386FF,#D89F1C,0,0,0,38,1,1018.8000000000466,39,0,491.69999999995343,0,1,experiment,NA,NA,2,0.5,0.5,5,4,75,2,NA
fcp-trial,109,534466,0.0-84.0-0.0,voc_e2,12130,"[{""event"":""fullscreenenter"",""trial"":1,""time"":6734}]",NA,NA,NA,NA,NA,4,#1CD855,#FA92F8,0,0,1,38,1,761,37,1,573.8000000000466,0,1,experiment,NA,NA,0,0.9,0.1,0,1,76,2,NA
fcp-trial,110,537070,0.0-85.0-0.0,voc_e2,12130,"[{""event"":""fullscreenenter"",""trial"":1,""time"":6734}]",NA,NA,NA,NA,NA,0,#3386FF,#D89F1C,10,10,0,38,1,565.2999999999302,37,1,529.5,10,0,experiment,NA,NA,2,0.5,0.5,5,4,77,2,NA
fcp-trial,111,539857,0.0-86.0-0.0,voc_e2,12130,"[{""event"":""fullscreenenter"",""trial"":1,""time"":6734}]",NA,NA,NA,NA,NA,6,#741CD8,#D8271C,0,10,0,38,1,907.6000000000931,37,1,370.5,0,0,experiment,NA,NA,1,0.3,0.7,3,2,78,2,NA
fcp-trial,112,543545,0.0-87.0-0.0,voc_e2,12130,"[{""event"":""fullscreenenter"",""trial"":1,""time"":6734}]",NA,NA,NA,NA,NA,1,#741CD8,#D8271C,0,0,0,40,0,437.5,37,1,1739.3999999999069,0,0,experiment,NA,NA,1,0.3,0.7,3,2,79,2,NA
fcp-trial,113,547063,0.0-88.0-0.0,voc_e2,12130,"[{""event"":""fullscreenenter"",""trial"":1,""time"":6734}]",NA,NA,NA,NA,NA,5,#FA92F8,#1CD855,0,10,0,38,1,1454.5999999999767,39,0,554.0999999999767,10,1,experiment,NA,NA,0,0.1,0.9,1,0,80,2,NA
fcp-trial,114,549957,0.0-89.0-0.0,voc_e2,12130,"[{""event"":""fullscreenenter"",""trial"":1,""time"":6734}]",NA,NA,NA,NA,NA,3,#D8271C,#741CD8,0,0,1,38,1,980.4000000000233,39,0,403,0,0,experiment,NA,NA,1,0.7,0.3,2,3,81,2,NA
fcp-trial,115,552504,0.0-90.0-0.0,voc_e2,12130,"[{""event"":""fullscreenenter"",""trial"":1,""time"":6734}]",NA,NA,NA,NA,NA,2,#D89F1C,#3386FF,10,10,1,38,1,456.5,39,0,578.4000000000233,10,0,experiment,NA,NA,2,0.5,0.5,4,5,82,2,NA
fcp-trial,116,555006,0.0-91.0-0.0,voc_e2,12130,"[{""event"":""fullscreenenter"",""trial"":1,""time"":6734}]",NA,NA,NA,NA,NA,3,#D89F1C,#3386FF,0,10,1,38,1,601.9000000000233,39,0,388.9000000000233,10,0,experiment,NA,NA,2,0.5,0.5,4,5,83,2,NA
fcp-trial,117,557659,0.0-92.0-0.0,voc_e2,12130,"[{""event"":""fullscreenenter"",""trial"":1,""time"":6734}]",NA,NA,NA,NA,NA,0,#1CD855,#FA92F8,10,0,1,38,1,556.4000000000233,37,1,588.5,10,1,experiment,NA,NA,0,0.9,0.1,0,1,84,2,NA
fcp-trial,118,560060,0.0-93.0-0.0,voc_e2,12130,"[{""event"":""fullscreenenter"",""trial"":1,""time"":6734}]",NA,NA,NA,NA,NA,2,#FA92F8,#1CD855,0,10,0,38,1,456.80000000004657,39,0,434,10,1,experiment,NA,NA,0,0.1,0.9,1,0,85,2,NA
fcp-trial,119,562534,0.0-94.0-0.0,voc_e2,12130,"[{""event"":""fullscreenenter"",""trial"":1,""time"":6734}]",NA,NA,NA,NA,NA,6,#D8271C,#741CD8,10,0,1,38,1,433.69999999995343,37,1,530.2000000000698,10,1,experiment,NA,NA,1,0.7,0.3,2,3,86,2,NA
fcp-trial,120,565039,0.0-95.0-0.0,voc_e2,12130,"[{""event"":""fullscreenenter"",""trial"":1,""time"":6734}]",NA,NA,NA,NA,NA,0,#D89F1C,#3386FF,10,10,1,38,1,574.9000000000233,39,0,421.30000000004657,10,0,experiment,NA,NA,2,0.5,0.5,4,5,87,2,NA
fcp-trial,121,567785,0.0-96.0-0.0,voc_e2,12130,"[{""event"":""fullscreenenter"",""trial"":1,""time"":6734}]",NA,NA,NA,NA,NA,4,#FA92F8,#1CD855,0,10,0,38,1,691.9000000000233,37,1,544.2999999999302,0,0,experiment,NA,NA,0,0.1,0.9,1,0,88,2,NA
fcp-trial,122,570332,0.0-97.0-0.0,voc_e2,12130,"[{""event"":""fullscreenenter"",""trial"":1,""time"":6734}]",NA,NA,NA,NA,NA,5,#D89F1C,#3386FF,10,0,1,38,1,532.8000000000466,39,0,506.70000000006985,0,0,experiment,NA,NA,2,0.5,0.5,4,5,89,2,NA
fcp-trial,123,572809,0.0-98.0-0.0,voc_e2,12130,"[{""event"":""fullscreenenter"",""trial"":1,""time"":6734}]",NA,NA,NA,NA,NA,3,#3386FF,#D89F1C,10,10,0,38,1,544.4000000000233,37,1,420.9000000000233,10,0,experiment,NA,NA,2,0.5,0.5,5,4,90,2,NA
fcp-trial,124,575548,0.0-99.0-0.0,voc_e2,12130,"[{""event"":""fullscreenenter"",""trial"":1,""time"":6734}]",NA,NA,NA,NA,NA,5,#741CD8,#D8271C,0,10,0,38,1,721.8000000000466,37,1,508.69999999995343,0,0,experiment,NA,NA,1,0.3,0.7,3,2,91,3,NA
fcp-trial,125,577941,0.0-100.0-0.0,voc_e2,12130,"[{""event"":""fullscreenenter"",""trial"":1,""time"":6734}]",NA,NA,NA,NA,NA,5,#FA92F8,#1CD855,10,10,0,38,1,463,39,0,423.80000000004657,10,1,experiment,NA,NA,0,0.1,0.9,1,0,92,3,NA
fcp-trial,126,580584,0.0-101.0-0.0,voc_e2,12130,"[{""event"":""fullscreenenter"",""trial"":1,""time"":6734}]",NA,NA,NA,NA,NA,3,#D8271C,#741CD8,10,0,1,38,1,683.2999999999302,39,0,451.4000000000233,0,0,experiment,NA,NA,1,0.7,0.3,2,3,93,3,NA
fcp-trial,127,582933,0.0-102.0-0.0,voc_e2,12130,"[{""event"":""fullscreenenter"",""trial"":1,""time"":6734}]",NA,NA,NA,NA,NA,0,#D8271C,#741CD8,10,0,1,38,1,383.9000000000233,37,1,450,10,1,experiment,NA,NA,1,0.7,0.3,2,3,94,3,NA
fcp-trial,128,585405,0.0-103.0-0.0,voc_e2,12130,"[{""event"":""fullscreenenter"",""trial"":1,""time"":6734}]",NA,NA,NA,NA,NA,6,#3386FF,#D89F1C,10,0,0,38,1,576.5999999999767,37,1,387.9000000000233,10,0,experiment,NA,NA,2,0.5,0.5,5,4,95,3,NA
fcp-trial,129,587867,0.0-104.0-0.0,voc_e2,12130,"[{""event"":""fullscreenenter"",""trial"":1,""time"":6734}]",NA,NA,NA,NA,NA,4,#3386FF,#D89F1C,10,0,0,38,1,641,37,1,314.89999999990687,10,0,experiment,NA,NA,2,0.5,0.5,5,4,96,3,NA
fcp-trial,130,590282,0.0-105.0-0.0,voc_e2,12130,"[{""event"":""fullscreenenter"",""trial"":1,""time"":6734}]",NA,NA,NA,NA,NA,3,#1CD855,#FA92F8,10,0,1,38,1,551,39,0,350.29999999993015,0,0,experiment,NA,NA,0,0.9,0.1,0,1,97,3,NA
fcp-trial,131,592803,0.0-106.0-0.0,voc_e2,12130,"[{""event"":""fullscreenenter"",""trial"":1,""time"":6734}]",NA,NA,NA,NA,NA,1,#FA92F8,#1CD855,10,10,0,38,1,501.20000000006985,39,0,507.39999999990687,10,1,experiment,NA,NA,0,0.1,0.9,1,0,98,3,NA
fcp-trial,132,595530,0.0-107.0-0.0,voc_e2,12130,"[{""event"":""fullscreenenter"",""trial"":1,""time"":6734}]",NA,NA,NA,NA,NA,4,#741CD8,#D8271C,10,10,0,38,1,639,37,1,578.0999999999767,10,0,experiment,NA,NA,1,0.3,0.7,3,2,99,3,NA
fcp-trial,133,598452,0.0-108.0-0.0,voc_e2,12130,"[{""event"":""fullscreenenter"",""trial"":1,""time"":6734}]",NA,NA,NA,NA,NA,1,#3386FF,#D89F1C,10,10,0,38,1,1065.7999999999302,37,1,346.70000000006985,10,0,experiment,NA,NA,2,0.5,0.5,5,4,100,3,NA
fcp-trial,134,602034,0.0-109.0-0.0,voc_e2,12130,"[{""event"":""fullscreenenter"",""trial"":1,""time"":6734}]",NA,NA,NA,NA,NA,6,#FA92F8,#1CD855,0,0,0,38,1,917.2999999999302,39,0,1152.8000000000466,0,1,experiment,NA,NA,0,0.1,0.9,1,0,101,3,NA
fcp-trial,135,604568,0.0-110.0-0.0,voc_e2,12130,"[{""event"":""fullscreenenter"",""trial"":1,""time"":6734}]",NA,NA,NA,NA,NA,2,#3386FF,#D89F1C,10,10,0,38,1,626.9000000000233,37,1,400.20000000006985,10,0,experiment,NA,NA,2,0.5,0.5,5,4,102,3,NA
fcp-trial,136,607174,0.0-111.0-0.0,voc_e2,12130,"[{""event"":""fullscreenenter"",""trial"":1,""time"":6734}]",NA,NA,NA,NA,NA,2,#741CD8,#D8271C,10,0,0,38,1,657.8000000000466,37,1,439.29999999993015,10,0,experiment,NA,NA,1,0.3,0.7,3,2,103,3,NA
fcp-trial,137,609788,0.0-112.0-0.0,voc_e2,12130,"[{""event"":""fullscreenenter"",""trial"":1,""time"":6734}]",NA,NA,NA,NA,NA,0,#FA92F8,#1CD855,0,10,0,38,1,730.5999999999767,39,0,374.5,10,1,experiment,NA,NA,0,0.1,0.9,1,0,104,3,NA
fcp-trial,138,613794,0.0-113.0-0.0,voc_e2,12130,"[{""event"":""fullscreenenter"",""trial"":1,""time"":6734}]",NA,NA,NA,NA,NA,1,#D8271C,#741CD8,10,0,1,38,1,475.10000000009313,39,0,2023.4000000000233,0,0,experiment,NA,NA,1,0.7,0.3,2,3,105,3,NA
audio-instructions,139,678300,0.0-114.0,voc_e2,12130,"[{""event"":""fullscreenenter"",""trial"":1,""time"":6734}]",NA,60013.80000000005,static/audio/pause.wav,NA,0,NA,NA,NA,NA,NA,NA,NA,NA,NA,NA,NA,NA,NA,NA,NA,NA,NA,NA,NA,NA,NA,NA,NA,NA,NA
fcp-trial,140,681193,0.0-115.0-0.0,voc_e2,12130,"[{""event"":""fullscreenenter"",""trial"":1,""time"":6734}]",NA,NA,NA,NA,NA,2,#FA92F8,#1CD855,0,10,0,38,1,1001.9000000000233,39,0,382.19999999995343,10,1,experiment,NA,NA,0,0.1,0.9,1,0,106,3,NA
fcp-trial,141,683511,0.0-116.0-0.0,voc_e2,12130,"[{""event"":""fullscreenenter"",""trial"":1,""time"":6734}]",NA,NA,NA,NA,NA,2,#D89F1C,#3386FF,0,10,1,38,1,441.0999999999767,39,0,366.69999999995343,10,0,experiment,NA,NA,2,0.5,0.5,4,5,107,3,NA
fcp-trial,142,686082,0.0-117.0-0.0,voc_e2,12130,"[{""event"":""fullscreenenter"",""trial"":1,""time"":6734}]",NA,NA,NA,NA,NA,3,#1CD855,#FA92F8,10,0,1,38,1,570.2000000000698,37,1,489.69999999995343,10,1,experiment,NA,NA,0,0.9,0.1,0,1,108,3,NA
fcp-trial,143,688483,0.0-118.0-0.0,voc_e2,12130,"[{""event"":""fullscreenenter"",""trial"":1,""time"":6734}]",NA,NA,NA,NA,NA,6,#1CD855,#FA92F8,0,0,1,38,1,546,37,1,344.4000000000233,0,1,experiment,NA,NA,0,0.9,0.1,0,1,109,3,NA
fcp-trial,144,691404,0.0-119.0-0.0,voc_e2,12130,"[{""event"":""fullscreenenter"",""trial"":1,""time"":6734}]",NA,NA,NA,NA,NA,1,#D8271C,#741CD8,0,0,1,38,1,375.10000000009313,37,1,1037.7000000000698,0,1,experiment,NA,NA,1,0.7,0.3,2,3,110,3,NA
fcp-trial,145,693865,0.0-120.0-0.0,voc_e2,12130,"[{""event"":""fullscreenenter"",""trial"":1,""time"":6734}]",NA,NA,NA,NA,NA,1,#1CD855,#FA92F8,10,0,1,38,1,483.79999999993015,37,1,467.5999999999767,10,1,experiment,NA,NA,0,0.9,0.1,0,1,111,3,NA
fcp-trial,146,696976,0.0-121.0-0.0,voc_e2,12130,"[{""event"":""fullscreenenter"",""trial"":1,""time"":6734}]",NA,NA,NA,NA,NA,5,#3386FF,#D89F1C,0,0,0,38,1,1275.7999999999302,39,0,326.5,0,1,experiment,NA,NA,2,0.5,0.5,5,4,112,3,NA
fcp-trial,147,699241,0.0-122.0-0.0,voc_e2,12130,"[{""event"":""fullscreenenter"",""trial"":1,""time"":6734}]",NA,NA,NA,NA,NA,4,#D89F1C,#3386FF,10,0,1,38,1,376.89999999990687,39,0,379.60000000009313,0,0,experiment,NA,NA,2,0.5,0.5,4,5,113,3,NA
fcp-trial,148,701635,0.0-123.0-0.0,voc_e2,12130,"[{""event"":""fullscreenenter"",""trial"":1,""time"":6734}]",NA,NA,NA,NA,NA,2,#741CD8,#D8271C,10,10,0,38,1,508.20000000006985,37,1,377.9000000000233,10,0,experiment,NA,NA,1,0.3,0.7,3,2,114,3,NA
fcp-trial,149,704195,0.0-124.0-0.0,voc_e2,12130,"[{""event"":""fullscreenenter"",""trial"":1,""time"":6734}]",NA,NA,NA,NA,NA,5,#1CD855,#FA92F8,10,10,1,38,1,470.9000000000233,37,1,576.5,10,1,experiment,NA,NA,0,0.9,0.1,0,1,115,3,NA
fcp-trial,150,706674,0.0-125.0-0.0,voc_e2,12130,"[{""event"":""fullscreenenter"",""trial"":1,""time"":6734}]",NA,NA,NA,NA,NA,0,#741CD8,#D8271C,0,10,0,38,1,484.69999999995343,39,0,482.0999999999767,10,1,experiment,NA,NA,1,0.3,0.7,3,2,116,3,NA
fcp-trial,151,709673,0.0-126.0-0.0,voc_e2,12130,"[{""event"":""fullscreenenter"",""trial"":1,""time"":6734}]",NA,NA,NA,NA,NA,5,#D8271C,#741CD8,10,10,1,38,1,386.70000000006985,37,1,1102.5,10,1,experiment,NA,NA,1,0.7,0.3,2,3,117,3,NA
fcp-trial,152,712121,0.0-127.0-0.0,voc_e2,12130,"[{""event"":""fullscreenenter"",""trial"":1,""time"":6734}]",NA,NA,NA,NA,NA,1,#D89F1C,#3386FF,10,10,1,38,1,385.69999999995343,39,0,549,10,0,experiment,NA,NA,2,0.5,0.5,4,5,118,3,NA
fcp-trial,153,714600,0.0-128.0-0.0,voc_e2,12130,"[{""event"":""fullscreenenter"",""trial"":1,""time"":6734}]",NA,NA,NA,NA,NA,3,#3386FF,#D89F1C,0,0,0,38,1,436.70000000006985,37,1,533.4000000000233,0,0,experiment,NA,NA,2,0.5,0.5,5,4,119,3,NA
fcp-trial,154,717160,0.0-129.0-0.0,voc_e2,12130,"[{""event"":""fullscreenenter"",""trial"":1,""time"":6734}]",NA,NA,NA,NA,NA,4,#1CD855,#FA92F8,10,0,1,38,1,481.4000000000233,37,1,569.6999999999534,10,1,experiment,NA,NA,0,0.9,0.1,0,1,120,3,NA
fcp-trial,155,720451,0.0-130.0-0.0,voc_e2,12130,"[{""event"":""fullscreenenter"",""trial"":1,""time"":6734}]",NA,NA,NA,NA,NA,6,#741CD8,#D8271C,0,10,0,38,1,815,39,0,964.6999999999534,10,1,experiment,NA,NA,1,0.3,0.7,3,2,121,3,NA
fcp-trial,156,723326,0.0-131.0-0.0,voc_e2,12130,"[{""event"":""fullscreenenter"",""trial"":1,""time"":6734}]",NA,NA,NA,NA,NA,6,#D89F1C,#3386FF,0,10,1,38,1,944.7999999999302,39,0,422.69999999995343,10,0,experiment,NA,NA,2,0.5,0.5,4,5,122,3,NA
fcp-trial,157,726323,0.0-132.0-0.0,voc_e2,12130,"[{""event"":""fullscreenenter"",""trial"":1,""time"":6734}]",NA,NA,NA,NA,NA,0,#FA92F8,#1CD855,0,10,0,40,0,714.4000000000233,37,1,773.6999999999534,0,0,experiment,NA,NA,0,0.1,0.9,1,0,123,3,NA
fcp-trial,158,729016,0.0-133.0-0.0,voc_e2,12130,"[{""event"":""fullscreenenter"",""trial"":1,""time"":6734}]",NA,NA,NA,NA,NA,0,#3386FF,#D89F1C,10,0,0,38,1,591.3000000000466,37,1,592.3000000000466,10,0,experiment,NA,NA,2,0.5,0.5,5,4,124,3,NA
fcp-trial,159,732193,0.0-134.0-0.0,voc_e2,12130,"[{""event"":""fullscreenenter"",""trial"":1,""time"":6734}]",NA,NA,NA,NA,NA,4,#741CD8,#D8271C,0,10,0,38,1,661,39,0,1008.8000000000466,10,1,experiment,NA,NA,1,0.3,0.7,3,2,125,3,NA
fcp-trial,160,734584,0.0-135.0-0.0,voc_e2,12130,"[{""event"":""fullscreenenter"",""trial"":1,""time"":6734}]",NA,NA,NA,NA,NA,3,#D8271C,#741CD8,0,0,1,38,1,486.19999999995343,37,1,395.19999999995343,0,1,experiment,NA,NA,1,0.7,0.3,2,3,126,3,NA
fcp-trial,161,736866,0.0-136.0-0.0,voc_e2,12130,"[{""event"":""fullscreenenter"",""trial"":1,""time"":6734}]",NA,NA,NA,NA,NA,1,#D8271C,#741CD8,10,10,1,38,1,350.70000000006985,39,0,419,10,0,experiment,NA,NA,1,0.7,0.3,2,3,127,3,NA
fcp-trial,162,739499,0.0-137.0-0.0,voc_e2,12130,"[{""event"":""fullscreenenter"",""trial"":1,""time"":6734}]",NA,NA,NA,NA,NA,5,#1CD855,#FA92F8,10,0,1,38,1,740.3999999999069,37,1,379.29999999993015,10,1,experiment,NA,NA,0,0.9,0.1,0,1,128,3,NA
fcp-trial,163,741978,0.0-138.0-0.0,voc_e2,12130,"[{""event"":""fullscreenenter"",""trial"":1,""time"":6734}]",NA,NA,NA,NA,NA,2,#D89F1C,#3386FF,10,0,1,38,1,560.9000000000233,39,0,405.69999999995343,0,0,experiment,NA,NA,2,0.5,0.5,4,5,129,3,NA
fcp-trial,164,744272,0.0-139.0-0.0,voc_e2,12130,"[{""event"":""fullscreenenter"",""trial"":1,""time"":6734}]",NA,NA,NA,NA,NA,2,#D8271C,#741CD8,10,10,1,38,1,307.5,37,1,473.4000000000233,10,1,experiment,NA,NA,1,0.7,0.3,2,3,130,3,NA
fcp-trial,165,747229,0.0-140.0-0.0,voc_e2,12130,"[{""event"":""fullscreenenter"",""trial"":1,""time"":6734}]",NA,NA,NA,NA,NA,0,#3386FF,#D89F1C,10,0,0,38,1,998.8000000000466,37,1,450.39999999990687,10,0,experiment,NA,NA,2,0.5,0.5,5,4,131,3,NA
fcp-trial,166,749936,0.0-141.0-0.0,voc_e2,12130,"[{""event"":""fullscreenenter"",""trial"":1,""time"":6734}]",NA,NA,NA,NA,NA,3,#1CD855,#FA92F8,10,0,1,38,1,843.1999999999534,37,1,357.4000000000233,10,1,experiment,NA,NA,0,0.9,0.1,0,1,132,3,NA
fcp-trial,167,754555,0.0-142.0-0.0,voc_e2,12130,"[{""event"":""fullscreenenter"",""trial"":1,""time"":6734}]",NA,NA,NA,NA,NA,5,#D8271C,#741CD8,0,0,1,38,1,466,37,1,2644,0,1,experiment,NA,NA,1,0.7,0.3,2,3,133,3,NA
fcp-trial,168,756943,0.0-143.0-0.0,voc_e2,12130,"[{""event"":""fullscreenenter"",""trial"":1,""time"":6734}]",NA,NA,NA,NA,NA,0,#741CD8,#D8271C,0,10,0,38,1,412.9000000000233,39,0,464.30000000004657,10,1,experiment,NA,NA,1,0.3,0.7,3,2,134,3,NA
fcp-trial,169,759324,0.0-144.0-0.0,voc_e2,12130,"[{""event"":""fullscreenenter"",""trial"":1,""time"":6734}]",NA,NA,NA,NA,NA,4,#D89F1C,#3386FF,0,0,1,38,1,504,39,0,367.5999999999767,0,0,experiment,NA,NA,2,0.5,0.5,4,5,135,3,NA
fcp-trial,170,761569,0.0-145.0-0.0,voc_e2,12130,"[{""event"":""fullscreenenter"",""trial"":1,""time"":6734}]",NA,NA,NA,NA,NA,6,#3386FF,#D89F1C,0,10,0,38,1,332.0999999999767,37,1,399,0,0,experiment,NA,NA,2,0.5,0.5,5,4,136,4,NA
fcp-trial,171,765157,0.0-146.0-0.0,voc_e2,12130,"[{""event"":""fullscreenenter"",""trial"":1,""time"":6734}]",NA,NA,NA,NA,NA,4,#1CD855,#FA92F8,10,0,1,38,1,674,37,1,1401.8000000000466,10,1,experiment,NA,NA,0,0.9,0.1,0,1,137,4,NA
fcp-trial,172,767667,0.0-147.0-0.0,voc_e2,12130,"[{""event"":""fullscreenenter"",""trial"":1,""time"":6734}]",NA,NA,NA,NA,NA,3,#3386FF,#D89F1C,10,10,0,38,1,444.80000000004657,37,1,557.1999999999534,10,0,experiment,NA,NA,2,0.5,0.5,5,4,138,4,NA
fcp-trial,173,770438,0.0-148.0-0.0,voc_e2,12130,"[{""event"":""fullscreenenter"",""trial"":1,""time"":6734}]",NA,NA,NA,NA,NA,4,#D8271C,#741CD8,0,0,1,38,1,630,37,1,630.7999999999302,0,1,experiment,NA,NA,1,0.7,0.3,2,3,139,4,NA
fcp-trial,174,772970,0.0-149.0-0.0,voc_e2,12130,"[{""event"":""fullscreenenter"",""trial"":1,""time"":6734}]",NA,NA,NA,NA,NA,1,#3386FF,#D89F1C,0,10,0,38,1,434.80000000004657,37,1,583.7000000000698,0,0,experiment,NA,NA,2,0.5,0.5,5,4,140,4,NA
fcp-trial,175,775371,0.0-150.0-0.0,voc_e2,12130,"[{""event"":""fullscreenenter"",""trial"":1,""time"":6734}]",NA,NA,NA,NA,NA,6,#FA92F8,#1CD855,0,10,0,38,1,405.0999999999767,39,0,482.19999999995343,10,1,experiment,NA,NA,0,0.1,0.9,1,0,141,4,NA
fcp-trial,176,778019,0.0-151.0-0.0,voc_e2,12130,"[{""event"":""fullscreenenter"",""trial"":1,""time"":6734}]",NA,NA,NA,NA,NA,1,#1CD855,#FA92F8,10,10,1,38,1,219.5,39,0,917.7000000000698,10,0,experiment,NA,NA,0,0.9,0.1,0,1,142,4,NA
fcp-trial,177,780412,0.0-152.0-0.0,voc_e2,12130,"[{""event"":""fullscreenenter"",""trial"":1,""time"":6734}]",NA,NA,NA,NA,NA,3,#741CD8,#D8271C,10,10,0,38,1,445.5999999999767,37,1,437.4000000000233,10,0,experiment,NA,NA,1,0.3,0.7,3,2,143,4,NA
fcp-trial,178,782855,0.0-153.0-0.0,voc_e2,12130,"[{""event"":""fullscreenenter"",""trial"":1,""time"":6734}]",NA,NA,NA,NA,NA,5,#D89F1C,#3386FF,0,0,1,38,1,366,39,0,568.3999999999069,0,0,experiment,NA,NA,2,0.5,0.5,4,5,144,4,NA
fcp-trial,179,785229,0.0-154.0-0.0,voc_e2,12130,"[{""event"":""fullscreenenter"",""trial"":1,""time"":6734}]",NA,NA,NA,NA,NA,2,#1CD855,#FA92F8,10,10,1,38,1,398.5,37,1,462.39999999990687,10,1,experiment,NA,NA,0,0.9,0.1,0,1,145,4,NA
fcp-trial,180,787874,0.0-155.0-0.0,voc_e2,12130,"[{""event"":""fullscreenenter"",""trial"":1,""time"":6734}]",NA,NA,NA,NA,NA,6,#D8271C,#741CD8,10,10,1,38,1,379.29999999993015,39,0,755.7999999999302,10,0,experiment,NA,NA,1,0.7,0.3,2,3,146,4,NA
fcp-trial,181,790917,0.0-156.0-0.0,voc_e2,12130,"[{""event"":""fullscreenenter"",""trial"":1,""time"":6734}]",NA,NA,NA,NA,NA,0,#FA92F8,#1CD855,0,10,0,38,1,366.5999999999767,39,0,1163.3000000000466,10,1,experiment,NA,NA,0,0.1,0.9,1,0,147,4,NA
fcp-trial,182,794283,0.0-157.0-0.0,voc_e2,12130,"[{""event"":""fullscreenenter"",""trial"":1,""time"":6734}]",NA,NA,NA,NA,NA,6,#D8271C,#741CD8,0,0,1,38,1,461,37,1,1397.9000000000233,0,1,experiment,NA,NA,1,0.7,0.3,2,3,148,4,NA
fcp-trial,183,796663,0.0-158.0-0.0,voc_e2,12130,"[{""event"":""fullscreenenter"",""trial"":1,""time"":6734}]",NA,NA,NA,NA,NA,4,#D8271C,#741CD8,0,0,1,38,1,396.30000000004657,39,0,478.5999999999767,0,0,experiment,NA,NA,1,0.7,0.3,2,3,149,4,NA
fcp-trial,184,799088,0.0-159.0-0.0,voc_e2,12130,"[{""event"":""fullscreenenter"",""trial"":1,""time"":6734}]",NA,NA,NA,NA,NA,2,#FA92F8,#1CD855,0,10,0,38,1,458.0999999999767,37,1,457.9000000000233,0,0,experiment,NA,NA,0,0.1,0.9,1,0,150,4,NA
fcp-trial,185,801539,0.0-160.0-0.0,voc_e2,12130,"[{""event"":""fullscreenenter"",""trial"":1,""time"":6734}]",NA,NA,NA,NA,NA,3,#FA92F8,#1CD855,10,10,0,38,1,451.19999999995343,39,0,485.80000000004657,10,1,experiment,NA,NA,0,0.1,0.9,1,0,151,4,NA
fcp-trial,186,804049,0.0-161.0-0.0,voc_e2,12130,"[{""event"":""fullscreenenter"",""trial"":1,""time"":6734}]",NA,NA,NA,NA,NA,4,#D89F1C,#3386FF,10,10,1,38,1,535.5,39,0,463.4000000000233,10,0,experiment,NA,NA,2,0.5,0.5,4,5,152,4,NA
fcp-trial,187,806632,0.0-162.0-0.0,voc_e2,12130,"[{""event"":""fullscreenenter"",""trial"":1,""time"":6734}]",NA,NA,NA,NA,NA,1,#FA92F8,#1CD855,0,10,0,38,1,533.7999999999302,39,0,540.1999999999534,10,1,experiment,NA,NA,0,0.1,0.9,1,0,153,4,NA
fcp-trial,188,809164,0.0-163.0-0.0,voc_e2,12130,"[{""event"":""fullscreenenter"",""trial"":1,""time"":6734}]",NA,NA,NA,NA,NA,3,#741CD8,#D8271C,0,0,0,38,1,514.9000000000233,37,1,510.5999999999767,0,0,experiment,NA,NA,1,0.3,0.7,3,2,154,4,NA
fcp-trial,189,812221,0.0-164.0-0.0,voc_e2,12130,"[{""event"":""fullscreenenter"",""trial"":1,""time"":6734}]",NA,NA,NA,NA,NA,0,#D89F1C,#3386FF,10,0,1,38,1,979.4000000000233,39,0,569.7999999999302,0,0,experiment,NA,NA,2,0.5,0.5,4,5,155,4,NA
fcp-trial,190,815022,0.0-165.0-0.0,voc_e2,12130,"[{""event"":""fullscreenenter"",""trial"":1,""time"":6734}]",NA,NA,NA,NA,NA,1,#D8271C,#741CD8,10,0,1,38,1,652.5999999999767,37,1,634.1999999999534,10,1,experiment,NA,NA,1,0.7,0.3,2,3,156,4,NA
fcp-trial,191,817619,0.0-166.0-0.0,voc_e2,12130,"[{""event"":""fullscreenenter"",""trial"":1,""time"":6734}]",NA,NA,NA,NA,NA,4,#1CD855,#FA92F8,10,10,1,38,1,628,39,0,454.4000000000233,10,0,experiment,NA,NA,0,0.9,0.1,0,1,157,4,NA
fcp-trial,192,820172,0.0-167.0-0.0,voc_e2,12130,"[{""event"":""fullscreenenter"",""trial"":1,""time"":6734}]",NA,NA,NA,NA,NA,2,#741CD8,#D8271C,0,0,0,38,1,469.29999999993015,37,1,573.8000000000466,0,0,experiment,NA,NA,1,0.3,0.7,3,2,158,4,NA
fcp-trial,193,822733,0.0-168.0-0.0,voc_e2,12130,"[{""event"":""fullscreenenter"",""trial"":1,""time"":6734}]",NA,NA,NA,NA,NA,6,#3386FF,#D89F1C,0,0,0,38,1,70.70000000006985,37,1,978.4000000000232,0,0,experiment,NA,NA,2,0.5,0.5,5,4,159,4,NA
fcp-trial,194,825334,0.0-169.0-0.0,voc_e2,12130,"[{""event"":""fullscreenenter"",""trial"":1,""time"":6734}]",NA,NA,NA,NA,NA,5,#3386FF,#D89F1C,0,10,0,38,1,603.5,39,0,484.29999999993015,10,1,experiment,NA,NA,2,0.5,0.5,5,4,160,4,NA
fcp-trial,195,827684,0.0-170.0-0.0,voc_e2,12130,"[{""event"":""fullscreenenter"",""trial"":1,""time"":6734}]",NA,NA,NA,NA,NA,0,#1CD855,#FA92F8,10,0,1,38,1,445.9000000000233,37,1,398.4000000000233,10,1,experiment,NA,NA,0,0.9,0.1,0,1,161,4,NA
fcp-trial,196,830103,0.0-171.0-0.0,voc_e2,12130,"[{""event"":""fullscreenenter"",""trial"":1,""time"":6734}]",NA,NA,NA,NA,NA,5,#D8271C,#741CD8,10,0,1,38,1,417.0999999999767,37,1,496.30000000004657,10,1,experiment,NA,NA,1,0.7,0.3,2,3,162,4,NA
fcp-trial,197,832519,0.0-172.0-0.0,voc_e2,12130,"[{""event"":""fullscreenenter"",""trial"":1,""time"":6734}]",NA,NA,NA,NA,NA,2,#3386FF,#D89F1C,0,10,0,38,1,434.30000000004657,37,1,468.5,0,0,experiment,NA,NA,2,0.5,0.5,5,4,163,4,NA
fcp-trial,198,834867,0.0-173.0-0.0,voc_e2,12130,"[{""event"":""fullscreenenter"",""trial"":1,""time"":6734}]",NA,NA,NA,NA,NA,6,#FA92F8,#1CD855,0,0,0,38,1,381.29999999993015,39,0,460.29999999993015,0,1,experiment,NA,NA,0,0.1,0.9,1,0,164,4,NA
fcp-trial,199,837717,0.0-174.0-0.0,voc_e2,12130,"[{""event"":""fullscreenenter"",""trial"":1,""time"":6734}]",NA,NA,NA,NA,NA,0,#D8271C,#741CD8,0,0,1,38,1,406.4000000000233,37,1,934.5999999999768,0,1,experiment,NA,NA,1,0.7,0.3,2,3,165,4,NA
fcp-trial,200,840242,0.0-175.0-0.0,voc_e2,12130,"[{""event"":""fullscreenenter"",""trial"":1,""time"":6734}]",NA,NA,NA,NA,NA,3,#D89F1C,#3386FF,0,0,1,38,1,480.80000000004657,39,0,537.5,0,0,experiment,NA,NA,2,0.5,0.5,4,5,166,4,NA
fcp-trial,201,843071,0.0-176.0-0.0,voc_e2,12130,"[{""event"":""fullscreenenter"",""trial"":1,""time"":6734}]",NA,NA,NA,NA,NA,1,#D89F1C,#3386FF,10,10,1,38,1,424.60000000009313,37,1,893.3999999999069,10,1,experiment,NA,NA,2,0.5,0.5,4,5,167,4,NA
fcp-trial,202,845611,0.0-177.0-0.0,voc_e2,12130,"[{""event"":""fullscreenenter"",""trial"":1,""time"":6734}]",NA,NA,NA,NA,NA,5,#FA92F8,#1CD855,0,10,0,38,1,500.5,37,1,527.5999999999767,0,0,experiment,NA,NA,0,0.1,0.9,1,0,168,4,NA
fcp-trial,203,848538,0.0-178.0-0.0,voc_e2,12130,"[{""event"":""fullscreenenter"",""trial"":1,""time"":6734}]",NA,NA,NA,NA,NA,1,#1CD855,#FA92F8,10,0,1,38,1,959.1000000000931,39,0,460.29999999993015,0,0,experiment,NA,NA,0,0.9,0.1,0,1,169,4,NA
fcp-trial,204,850825,0.0-179.0-0.0,voc_e2,12130,"[{""event"":""fullscreenenter"",""trial"":1,""time"":6734}]",NA,NA,NA,NA,NA,3,#3386FF,#D89F1C,10,0,0,38,1,363.79999999993015,37,1,412.9000000000233,10,0,experiment,NA,NA,2,0.5,0.5,5,4,170,4,NA
fcp-trial,205,853277,0.0-180.0-0.0,voc_e2,12130,"[{""event"":""fullscreenenter"",""trial"":1,""time"":6734}]",NA,NA,NA,NA,NA,4,#D8271C,#741CD8,10,0,1,38,1,497.19999999995343,37,1,445,10,1,experiment,NA,NA,1,0.7,0.3,2,3,171,4,NA
fcp-trial,206,856288,0.0-181.0-0.0,voc_e2,12130,"[{""event"":""fullscreenenter"",""trial"":1,""time"":6734}]",NA,NA,NA,NA,NA,4,#D89F1C,#3386FF,0,10,1,38,1,499.5,39,0,999.3000000000466,10,0,experiment,NA,NA,2,0.5,0.5,4,5,172,4,NA
fcp-trial,207,859837,0.0-182.0-0.0,voc_e2,12130,"[{""event"":""fullscreenenter"",""trial"":1,""time"":6734}]",NA,NA,NA,NA,NA,3,#FA92F8,#1CD855,0,10,0,38,1,496.70000000006985,37,1,1546.0999999999767,0,0,experiment,NA,NA,0,0.1,0.9,1,0,173,4,NA
fcp-trial,208,862358,0.0-183.0-0.0,voc_e2,12130,"[{""event"":""fullscreenenter"",""trial"":1,""time"":6734}]",NA,NA,NA,NA,NA,3,#741CD8,#D8271C,0,10,0,38,1,220.59999999997672,37,1,792.1999999999534,0,0,experiment,NA,NA,1,0.3,0.7,3,2,174,4,NA
fcp-trial,209,864799,0.0-184.0-0.0,voc_e2,12130,"[{""event"":""fullscreenenter"",""trial"":1,""time"":6734}]",NA,NA,NA,NA,NA,0,#D8271C,#741CD8,10,0,1,38,1,454,39,0,476.19999999995343,0,0,experiment,NA,NA,1,0.7,0.3,2,3,175,4,NA
fcp-trial,210,867394,0.0-185.0-0.0,voc_e2,12130,"[{""event"":""fullscreenenter"",""trial"":1,""time"":6734}]",NA,NA,NA,NA,NA,6,#3386FF,#D89F1C,0,10,0,38,1,452.0999999999767,37,1,632.4000000000233,0,0,experiment,NA,NA,2,0.5,0.5,5,4,176,4,NA
fcp-trial,211,869991,0.0-186.0-0.0,voc_e2,12130,"[{""event"":""fullscreenenter"",""trial"":1,""time"":6734}]",NA,NA,NA,NA,NA,6,#FA92F8,#1CD855,0,10,0,38,1,348.69999999995343,39,0,735.0999999999767,10,1,experiment,NA,NA,0,0.1,0.9,1,0,177,4,NA
fcp-trial,212,872454,0.0-187.0-0.0,voc_e2,12130,"[{""event"":""fullscreenenter"",""trial"":1,""time"":6734}]",NA,NA,NA,NA,NA,0,#1CD855,#FA92F8,0,0,1,38,1,423.5,37,1,526.1000000000931,0,1,experiment,NA,NA,0,0.9,0.1,0,1,178,4,NA
fcp-trial,213,874907,0.0-188.0-0.0,voc_e2,12130,"[{""event"":""fullscreenenter"",""trial"":1,""time"":6734}]",NA,NA,NA,NA,NA,5,#FA92F8,#1CD855,0,10,0,38,1,477.89999999990687,39,0,464.5,10,1,experiment,NA,NA,0,0.1,0.9,1,0,179,4,NA
fcp-trial,214,877355,0.0-189.0-0.0,voc_e2,12130,"[{""event"":""fullscreenenter"",""trial"":1,""time"":6734}]",NA,NA,NA,NA,NA,5,#D8271C,#741CD8,10,10,1,38,1,511.80000000004657,37,1,427,10,1,experiment,NA,NA,1,0.7,0.3,2,3,180,4,NA
fcp-trial,215,880382,0.0-190.0-0.0,voc_e2,12130,"[{""event"":""fullscreenenter"",""trial"":1,""time"":6734}]",NA,NA,NA,NA,NA,0,#D89F1C,#3386FF,0,10,1,38,1,515,39,0,1003.9000000000232,10,0,experiment,NA,NA,2,0.5,0.5,4,5,181,5,NA
fcp-trial,216,882959,0.0-191.0-0.0,voc_e2,12130,"[{""event"":""fullscreenenter"",""trial"":1,""time"":6734}]",NA,NA,NA,NA,NA,1,#741CD8,#D8271C,10,10,0,38,1,511,37,1,556.3000000000466,10,0,experiment,NA,NA,1,0.3,0.7,3,2,182,5,NA
fcp-trial,217,885485,0.0-192.0-0.0,voc_e2,12130,"[{""event"":""fullscreenenter"",""trial"":1,""time"":6734}]",NA,NA,NA,NA,NA,4,#FA92F8,#1CD855,0,10,0,38,1,493.69999999995343,39,0,521.1999999999534,10,1,experiment,NA,NA,0,0.1,0.9,1,0,183,5,NA
fcp-trial,218,888544,0.0-193.0-0.0,voc_e2,12130,"[{""event"":""fullscreenenter"",""trial"":1,""time"":6734}]",NA,NA,NA,NA,NA,6,#D8271C,#741CD8,0,0,1,38,1,631.9000000000233,37,1,918.1999999999534,0,1,experiment,NA,NA,1,0.7,0.3,2,3,184,5,NA
fcp-trial,219,891984,0.0-194.0-0.0,voc_e2,12130,"[{""event"":""fullscreenenter"",""trial"":1,""time"":6734}]",NA,NA,NA,NA,NA,5,#D89F1C,#3386FF,10,0,1,38,1,1545.0999999999767,39,0,381.69999999995343,0,0,experiment,NA,NA,2,0.5,0.5,4,5,185,5,NA
fcp-trial,220,894622,0.0-195.0-0.0,voc_e2,12130,"[{""event"":""fullscreenenter"",""trial"":1,""time"":6734}]",NA,NA,NA,NA,NA,2,#741CD8,#D8271C,0,10,0,38,1,749.3000000000466,37,1,380.19999999995343,0,0,experiment,NA,NA,1,0.3,0.7,3,2,186,5,NA
fcp-trial,221,897024,0.0-196.0-0.0,voc_e2,12130,"[{""event"":""fullscreenenter"",""trial"":1,""time"":6734}]",NA,NA,NA,NA,NA,1,#D89F1C,#3386FF,0,10,1,38,1,413.39999999990687,39,0,479.0999999999767,10,0,experiment,NA,NA,2,0.5,0.5,4,5,187,5,NA
fcp-trial,222,899815,0.0-197.0-0.0,voc_e2,12130,"[{""event"":""fullscreenenter"",""trial"":1,""time"":6734}]",NA,NA,NA,NA,NA,2,#1CD855,#FA92F8,10,0,1,38,1,802.8999999999069,37,1,478.20000000006985,10,1,experiment,NA,NA,0,0.9,0.1,0,1,188,5,NA
fcp-trial,223,902661,0.0-198.0-0.0,voc_e2,12130,"[{""event"":""fullscreenenter"",""trial"":1,""time"":6734}]",NA,NA,NA,NA,NA,2,#3386FF,#D89F1C,0,0,0,38,1,762.5,39,0,574.5,0,1,experiment,NA,NA,2,0.5,0.5,5,4,189,5,NA
fcp-trial,224,905827,0.0-199.0-0.0,voc_e2,12130,"[{""event"":""fullscreenenter"",""trial"":1,""time"":6734}]",NA,NA,NA,NA,NA,4,#D89F1C,#3386FF,10,0,1,38,1,313.5,37,1,1344.6999999999534,10,1,experiment,NA,NA,2,0.5,0.5,4,5,190,5,NA
fcp-trial,225,908598,0.0-200.0-0.0,voc_e2,12130,"[{""event"":""fullscreenenter"",""trial"":1,""time"":6734}]",NA,NA,NA,NA,NA,5,#3386FF,#D89F1C,0,0,0,38,1,452.19999999995343,37,1,808.8000000000466,0,0,experiment,NA,NA,2,0.5,0.5,5,4,191,5,NA
fcp-trial,226,911504,0.0-201.0-0.0,voc_e2,12130,"[{""event"":""fullscreenenter"",""trial"":1,""time"":6734}]",NA,NA,NA,NA,NA,0,#741CD8,#D8271C,0,10,0,38,1,403.30000000004657,39,0,994.4000000000232,10,1,experiment,NA,NA,1,0.3,0.7,3,2,192,5,NA
fcp-trial,227,914522,0.0-202.0-0.0,voc_e2,12130,"[{""event"":""fullscreenenter"",""trial"":1,""time"":6734}]",NA,NA,NA,NA,NA,0,#FA92F8,#1CD855,0,10,0,38,1,708.5,39,0,798.4000000000233,10,1,experiment,NA,NA,0,0.1,0.9,1,0,193,5,NA
fcp-trial,228,917021,0.0-203.0-0.0,voc_e2,12130,"[{""event"":""fullscreenenter"",""trial"":1,""time"":6734}]",NA,NA,NA,NA,NA,6,#741CD8,#D8271C,10,0,0,38,1,458.19999999995343,37,1,530,10,0,experiment,NA,NA,1,0.3,0.7,3,2,194,5,NA
fcp-trial,229,919993,0.0-204.0-0.0,voc_e2,12130,"[{""event"":""fullscreenenter"",""trial"":1,""time"":6734}]",NA,NA,NA,NA,NA,1,#D89F1C,#3386FF,10,10,1,38,1,787.2999999999302,39,0,673.5,10,0,experiment,NA,NA,2,0.5,0.5,4,5,195,5,NA
fcp-trial,230,922441,0.0-205.0-0.0,voc_e2,12130,"[{""event"":""fullscreenenter"",""trial"":1,""time"":6734}]",NA,NA,NA,NA,NA,5,#FA92F8,#1CD855,0,10,0,38,1,500.10000000009313,39,0,438.30000000004657,10,1,experiment,NA,NA,0,0.1,0.9,1,0,196,5,NA
fcp-trial,231,924964,0.0-206.0-0.0,voc_e2,12130,"[{""event"":""fullscreenenter"",""trial"":1,""time"":6734}]",NA,NA,NA,NA,NA,1,#1CD855,#FA92F8,10,0,1,38,1,477.10000000009313,37,1,536.5,10,1,experiment,NA,NA,0,0.9,0.1,0,1,197,5,NA
fcp-trial,232,927486,0.0-207.0-0.0,voc_e2,12130,"[{""event"":""fullscreenenter"",""trial"":1,""time"":6734}]",NA,NA,NA,NA,NA,6,#3386FF,#D89F1C,0,0,0,38,1,467.5,37,1,543.6000000000931,0,0,experiment,NA,NA,2,0.5,0.5,5,4,198,5,NA
fcp-trial,233,932024,0.0-208.0-0.0,voc_e2,12130,"[{""event"":""fullscreenenter"",""trial"":1,""time"":6734}]",NA,NA,NA,NA,NA,4,#741CD8,#D8271C,10,10,0,40,0,1863,37,1,1166.1000000000931,10,0,experiment,NA,NA,1,0.3,0.7,3,2,199,5,NA
fcp-trial,234,935286,0.0-209.0-0.0,voc_e2,12130,"[{""event"":""fullscreenenter"",""trial"":1,""time"":6734}]",NA,NA,NA,NA,NA,6,#1CD855,#FA92F8,10,0,1,38,1,172.10000000009313,37,1,1580.5999999998603,10,1,experiment,NA,NA,0,0.9,0.1,0,1,200,5,NA
fcp-trial,235,939940,0.0-210.0-0.0,voc_e2,12130,"[{""event"":""fullscreenenter"",""trial"":1,""time"":6734}]",NA,NA,NA,NA,NA,2,#D89F1C,#3386FF,10,0,1,40,0,1202.1999999999534,37,1,1939.3000000000463,10,1,experiment,NA,NA,2,0.5,0.5,4,5,201,5,NA
fcp-trial,236,943441,0.0-211.0-0.0,voc_e2,12130,"[{""event"":""fullscreenenter"",""trial"":1,""time"":6734}]",NA,NA,NA,NA,NA,2,#1CD855,#FA92F8,10,0,1,40,0,1283.1000000000931,37,1,702.8000000000466,10,1,experiment,NA,NA,0,0.9,0.1,0,1,202,5,NA
fcp-trial,237,947620,0.0-212.0-0.0,voc_e2,12130,"[{""event"":""fullscreenenter"",""trial"":1,""time"":6734}]",NA,NA,NA,NA,NA,5,#741CD8,#D8271C,0,10,0,38,1,2101.5,37,1,565.8999999999069,0,0,experiment,NA,NA,1,0.3,0.7,3,2,203,5,NA
fcp-trial,238,950151,0.0-213.0-0.0,voc_e2,12130,"[{""event"":""fullscreenenter"",""trial"":1,""time"":6734}]",NA,NA,NA,NA,NA,3,#D8271C,#741CD8,10,10,1,40,0,178,37,1,843.5,10,1,experiment,NA,NA,1,0.7,0.3,2,3,204,5,NA
fcp-trial,239,952907,0.0-214.0-0.0,voc_e2,12130,"[{""event"":""fullscreenenter"",""trial"":1,""time"":6734}]",NA,NA,NA,NA,NA,4,#1CD855,#FA92F8,10,0,1,40,0,594.6999999999534,37,1,650.8999999999069,10,1,experiment,NA,NA,0,0.9,0.1,0,1,205,5,NA
fcp-trial,240,956840,0.0-215.0-0.0,voc_e2,12130,"[{""event"":""fullscreenenter"",""trial"":1,""time"":6734}]",NA,NA,NA,NA,NA,0,#3386FF,#D89F1C,10,0,0,40,0,1347,39,0,1072.8000000000466,0,1,experiment,NA,NA,2,0.5,0.5,5,4,206,5,NA
fcp-trial,241,959987,0.0-216.0-0.0,voc_e2,12130,"[{""event"":""fullscreenenter"",""trial"":1,""time"":6734}]",NA,NA,NA,NA,NA,3,#D89F1C,#3386FF,10,0,1,40,0,891.3999999999069,37,1,746,10,1,experiment,NA,NA,2,0.5,0.5,4,5,207,5,NA
fcp-trial,242,963227,0.0-217.0-0.0,voc_e2,12130,"[{""event"":""fullscreenenter"",""trial"":1,""time"":6734}]",NA,NA,NA,NA,NA,1,#D8271C,#741CD8,0,0,1,38,1,1066.5,37,1,659.5999999998603,0,1,experiment,NA,NA,1,0.7,0.3,2,3,208,5,NA
fcp-trial,243,966204,0.0-218.0-0.0,voc_e2,12130,"[{""event"":""fullscreenenter"",""trial"":1,""time"":6734}]",NA,NA,NA,NA,NA,2,#D8271C,#741CD8,0,0,1,40,0,725.5,39,0,739.5,0,0,experiment,NA,NA,1,0.7,0.3,2,3,209,5,NA
fcp-trial,244,970734,0.0-219.0-0.0,voc_e2,12130,"[{""event"":""fullscreenenter"",""trial"":1,""time"":6734}]",NA,NA,NA,NA,NA,3,#FA92F8,#1CD855,0,10,0,40,0,2163.6999999999534,39,0,857.6999999999534,10,1,experiment,NA,NA,0,0.1,0.9,1,0,210,5,NA
audio-instructions,245,996546,0.0-220.0,voc_e2,12130,"[{""event"":""fullscreenenter"",""trial"":1,""time"":6734}]",NA,21321.100000000093,static/audio/pause.wav,NA,0,NA,NA,NA,NA,NA,NA,NA,NA,NA,NA,NA,NA,NA,NA,NA,NA,NA,NA,NA,NA,NA,NA,NA,NA,NA
fcp-trial,246,1000030,0.0-221.0-0.0,voc_e2,12130,"[{""event"":""fullscreenenter"",""trial"":1,""time"":6734}]",NA,NA,NA,NA,NA,5,#D89F1C,#3386FF,10,10,1,40,0,1166.6000000000931,39,0,802.3000000000466,10,0,experiment,NA,NA,2,0.5,0.5,4,5,211,5,NA
fcp-trial,247,1003027,0.0-222.0-0.0,voc_e2,12130,"[{""event"":""fullscreenenter"",""trial"":1,""time"":6734}]",NA,NA,NA,NA,NA,6,#D8271C,#741CD8,10,0,1,40,0,890.3000000000466,39,0,596.3000000000466,0,0,experiment,NA,NA,1,0.7,0.3,2,3,212,5,NA
fcp-trial,248,1006206,0.0-223.0-0.0,voc_e2,12130,"[{""event"":""fullscreenenter"",""trial"":1,""time"":6734}]",NA,NA,NA,NA,NA,5,#1CD855,#FA92F8,10,0,1,40,0,777.6999999999534,37,1,889.6000000000931,10,1,experiment,NA,NA,0,0.9,0.1,0,1,213,5,NA
fcp-trial,249,1008815,0.0-224.0-0.0,voc_e2,12130,"[{""event"":""fullscreenenter"",""trial"":1,""time"":6734}]",NA,NA,NA,NA,NA,3,#741CD8,#D8271C,10,0,0,40,0,465.80000000004657,37,1,632.6000000000931,10,0,experiment,NA,NA,1,0.3,0.7,3,2,214,5,NA
fcp-trial,250,1011610,0.0-225.0-0.0,voc_e2,12130,"[{""event"":""fullscreenenter"",""trial"":1,""time"":6734}]",NA,NA,NA,NA,NA,2,#D89F1C,#3386FF,0,0,1,40,0,616.4000000001397,39,0,665.7000000001863,0,0,experiment,NA,NA,2,0.5,0.5,4,5,215,5,NA
fcp-trial,251,1014522,0.0-226.0-0.0,voc_e2,12130,"[{""event"":""fullscreenenter"",""trial"":1,""time"":6734}]",NA,NA,NA,NA,NA,0,#3386FF,#D89F1C,10,10,0,38,1,573.3000000000466,37,1,829.8000000000466,10,0,experiment,NA,NA,2,0.5,0.5,5,4,216,5,NA
fcp-trial,252,1017443,0.0-227.0-0.0,voc_e2,12130,"[{""event"":""fullscreenenter"",""trial"":1,""time"":6734}]",NA,NA,NA,NA,NA,3,#1CD855,#FA92F8,10,0,1,40,0,415.89999999990687,37,1,996.8000000000466,10,1,experiment,NA,NA,0,0.9,0.1,0,1,217,5,NA
fcp-trial,253,1020070,0.0-228.0-0.0,voc_e2,12130,"[{""event"":""fullscreenenter"",""trial"":1,""time"":6734}]",NA,NA,NA,NA,NA,4,#D8271C,#741CD8,0,10,1,40,0,402.89999999990687,37,1,711.8999999999069,0,1,experiment,NA,NA,1,0.7,0.3,2,3,218,5,NA
fcp-trial,254,1022711,0.0-229.0-0.0,voc_e2,12130,"[{""event"":""fullscreenenter"",""trial"":1,""time"":6734}]",NA,NA,NA,NA,NA,3,#D89F1C,#3386FF,0,0,1,40,0,432.19999999995343,39,0,700.5,0,0,experiment,NA,NA,2,0.5,0.5,4,5,219,5,NA
fcp-trial,255,1025901,0.0-230.0-0.0,voc_e2,12130,"[{""event"":""fullscreenenter"",""trial"":1,""time"":6734}]",NA,NA,NA,NA,NA,1,#FA92F8,#1CD855,0,10,0,40,0,838.8999999999069,37,1,839.8000000000466,0,0,experiment,NA,NA,0,0.1,0.9,1,0,220,5,NA
fcp-trial,256,1028574,0.0-231.0-0.0,voc_e2,12130,"[{""event"":""fullscreenenter"",""trial"":1,""time"":6734}]",NA,NA,NA,NA,NA,2,#1CD855,#FA92F8,10,0,1,40,0,566.8000000000466,39,0,597.5999999998603,0,0,experiment,NA,NA,0,0.9,0.1,0,1,221,5,NA
fcp-trial,257,1031460,0.0-232.0-0.0,voc_e2,12130,"[{""event"":""fullscreenenter"",""trial"":1,""time"":6734}]",NA,NA,NA,NA,NA,1,#741CD8,#D8271C,0,0,0,40,0,644.1000000000931,37,1,734,0,0,experiment,NA,NA,1,0.3,0.7,3,2,222,5,NA
fcp-trial,258,1034327,0.0-233.0-0.0,voc_e2,12130,"[{""event"":""fullscreenenter"",""trial"":1,""time"":6734}]",NA,NA,NA,NA,NA,4,#3386FF,#D89F1C,10,10,0,40,0,787.6999999999534,39,0,567.4000000001397,10,1,experiment,NA,NA,2,0.5,0.5,5,4,223,5,NA
fcp-trial,259,1037940,0.0-234.0-0.0,voc_e2,12130,"[{""event"":""fullscreenenter"",""trial"":1,""time"":6734}]",NA,NA,NA,NA,NA,1,#D89F1C,#3386FF,0,10,1,38,1,1614.8999999999069,39,0,490,10,0,experiment,NA,NA,2,0.5,0.5,4,5,224,5,NA
fcp-trial,260,1040597,0.0-235.0-0.0,voc_e2,12130,"[{""event"":""fullscreenenter"",""trial"":1,""time"":6734}]",NA,NA,NA,NA,NA,4,#FA92F8,#1CD855,0,10,0,40,0,437.29999999981374,39,0,709.6000000000931,10,1,experiment,NA,NA,0,0.1,0.9,1,0,225,5,NA
fcp-trial,261,1044563,0.0-236.0-0.0,voc_e2,12130,"[{""event"":""fullscreenenter"",""trial"":1,""time"":6734}]",NA,NA,NA,NA,NA,0,#FA92F8,#1CD855,0,10,0,38,1,1702.3999999999069,39,0,753.5,10,1,experiment,NA,NA,0,0.1,0.9,1,0,226,6,NA
fcp-trial,262,1047074,0.0-237.0-0.0,voc_e2,12130,"[{""event"":""fullscreenenter"",""trial"":1,""time"":6734}]",NA,NA,NA,NA,NA,2,#741CD8,#D8271C,0,10,0,40,0,400.19999999995343,39,0,595.5,10,1,experiment,NA,NA,1,0.3,0.7,3,2,227,6,NA
fcp-trial,263,1050112,0.0-238.0-0.0,voc_e2,12130,"[{""event"":""fullscreenenter"",""trial"":1,""time"":6734}]",NA,NA,NA,NA,NA,5,#D8271C,#741CD8,10,0,1,40,0,833.1000000000931,37,1,694.6000000000931,10,1,experiment,NA,NA,1,0.7,0.3,2,3,228,6,NA
fcp-trial,264,1053005,0.0-239.0-0.0,voc_e2,12130,"[{""event"":""fullscreenenter"",""trial"":1,""time"":6734}]",NA,NA,NA,NA,NA,6,#D89F1C,#3386FF,10,0,1,40,0,984.3000000000466,39,0,401.69999999995343,0,0,experiment,NA,NA,2,0.5,0.5,4,5,229,6,NA
fcp-trial,265,1056175,0.0-240.0-0.0,voc_e2,12130,"[{""event"":""fullscreenenter"",""trial"":1,""time"":6734}]",NA,NA,NA,NA,NA,0,#D8271C,#741CD8,0,0,1,40,0,741.5999999998603,39,0,918.8999999999068,0,0,experiment,NA,NA,1,0.7,0.3,2,3,230,6,NA
fcp-trial,266,1059756,0.0-241.0-0.0,voc_e2,12130,"[{""event"":""fullscreenenter"",""trial"":1,""time"":6734}]",NA,NA,NA,NA,NA,6,#1CD855,#FA92F8,10,0,1,40,0,1332.5,37,1,740.3999999999069,10,1,experiment,NA,NA,0,0.9,0.1,0,1,231,6,NA
fcp-trial,267,1064174,0.0-242.0-0.0,voc_e2,12130,"[{""event"":""fullscreenenter"",""trial"":1,""time"":6734}]",NA,NA,NA,NA,NA,4,#1CD855,#FA92F8,10,0,1,38,1,2208.899999999907,37,1,701.9000000001397,10,1,experiment,NA,NA,0,0.9,0.1,0,1,232,6,NA
fcp-trial,268,1067023,0.0-243.0-0.0,voc_e2,12130,"[{""event"":""fullscreenenter"",""trial"":1,""time"":6734}]",NA,NA,NA,NA,NA,0,#D89F1C,#3386FF,10,10,1,40,0,404.5999999998603,37,1,932.5,10,1,experiment,NA,NA,2,0.5,0.5,4,5,233,6,NA
fcp-trial,269,1070971,0.0-244.0-0.0,voc_e2,12130,"[{""event"":""fullscreenenter"",""trial"":1,""time"":6734}]",NA,NA,NA,NA,NA,6,#D8271C,#741CD8,10,0,1,40,0,1751.8999999999069,37,1,687.1000000000931,10,1,experiment,NA,NA,1,0.7,0.3,2,3,234,6,NA
fcp-trial,270,1074629,0.0-245.0-0.0,voc_e2,12130,"[{""event"":""fullscreenenter"",""trial"":1,""time"":6734}]",NA,NA,NA,NA,NA,0,#741CD8,#D8271C,0,0,0,38,1,1779.6000000000931,39,0,370,0,1,experiment,NA,NA,1,0.3,0.7,3,2,235,6,NA
fcp-trial,271,1079199,0.0-246.0-0.0,voc_e2,12130,"[{""event"":""fullscreenenter"",""trial"":1,""time"":6734}]",NA,NA,NA,NA,NA,3,#FA92F8,#1CD855,10,10,0,40,0,1618.8000000000466,37,1,1443.6999999999534,10,0,experiment,NA,NA,0,0.1,0.9,1,0,236,6,NA
fcp-trial,272,1083275,0.0-247.0-0.0,voc_e2,12130,"[{""event"":""fullscreenenter"",""trial"":1,""time"":6734}]",NA,NA,NA,NA,NA,1,#1CD855,#FA92F8,10,0,1,38,1,1696.1999999999534,37,1,869.5999999998603,10,1,experiment,NA,NA,0,0.9,0.1,0,1,237,6,NA
fcp-trial,273,1087165,0.0-248.0-0.0,voc_e2,12130,"[{""event"":""fullscreenenter"",""trial"":1,""time"":6734}]",NA,NA,NA,NA,NA,6,#D89F1C,#3386FF,10,0,1,40,0,1126.7999999998137,37,1,1252.3000000000466,10,1,experiment,NA,NA,2,0.5,0.5,4,5,238,6,NA
fcp-trial,274,1090215,0.0-249.0-0.0,voc_e2,12130,"[{""event"":""fullscreenenter"",""trial"":1,""time"":6734}]",NA,NA,NA,NA,NA,5,#3386FF,#D89F1C,10,10,0,40,0,1067.5,37,1,473.69999999995343,10,0,experiment,NA,NA,2,0.5,0.5,5,4,239,6,NA
fcp-trial,275,1093343,0.0-250.0-0.0,voc_e2,12130,"[{""event"":""fullscreenenter"",""trial"":1,""time"":6734}]",NA,NA,NA,NA,NA,5,#741CD8,#D8271C,0,10,0,40,0,1046.7999999998137,39,0,571.7000000001863,10,1,experiment,NA,NA,1,0.3,0.7,3,2,240,6,NA
fcp-trial,276,1096287,0.0-251.0-0.0,voc_e2,12130,"[{""event"":""fullscreenenter"",""trial"":1,""time"":6734}]",NA,NA,NA,NA,NA,4,#741CD8,#D8271C,0,10,0,40,0,967.6999999999534,37,1,469.5,0,0,experiment,NA,NA,1,0.3,0.7,3,2,241,6,NA
fcp-trial,277,1099628,0.0-252.0-0.0,voc_e2,12130,"[{""event"":""fullscreenenter"",""trial"":1,""time"":6734}]",NA,NA,NA,NA,NA,6,#FA92F8,#1CD855,0,10,0,40,0,1384.1999999999534,39,0,447.19999999995343,10,1,experiment,NA,NA,0,0.1,0.9,1,0,242,6,NA
fcp-trial,278,1103206,0.0-253.0-0.0,voc_e2,12130,"[{""event"":""fullscreenenter"",""trial"":1,""time"":6734}]",NA,NA,NA,NA,NA,2,#3386FF,#D89F1C,10,0,0,38,1,1721.6999999999534,37,1,346,10,0,experiment,NA,NA,2,0.5,0.5,5,4,243,6,NA
fcp-trial,279,1107008,0.0-254.0-0.0,voc_e2,12130,"[{""event"":""fullscreenenter"",""trial"":1,""time"":6734}]",NA,NA,NA,NA,NA,2,#FA92F8,#1CD855,0,10,0,38,1,1809.4000000001397,39,0,484.39999999990687,10,1,experiment,NA,NA,0,0.1,0.9,1,0,244,6,NA
fcp-trial,280,1109947,0.0-255.0-0.0,voc_e2,12130,"[{""event"":""fullscreenenter"",""trial"":1,""time"":6734}]",NA,NA,NA,NA,NA,1,#3386FF,#D89F1C,0,10,0,40,0,705.0999999998603,37,1,726.6999999999534,0,0,experiment,NA,NA,2,0.5,0.5,5,4,245,6,NA
fcp-trial,281,1112965,0.0-256.0-0.0,voc_e2,12130,"[{""event"":""fullscreenenter"",""trial"":1,""time"":6734}]",NA,NA,NA,NA,NA,1,#741CD8,#D8271C,0,10,0,38,1,854.4000000001397,39,0,653.1000000000931,10,1,experiment,NA,NA,1,0.3,0.7,3,2,246,6,NA
fcp-trial,282,1116544,0.0-257.0-0.0,voc_e2,12130,"[{""event"":""fullscreenenter"",""trial"":1,""time"":6734}]",NA,NA,NA,NA,NA,2,#741CD8,#D8271C,0,10,0,38,1,1312.5999999998603,37,1,755.6999999999534,0,0,experiment,NA,NA,1,0.3,0.7,3,2,247,6,NA
fcp-trial,283,1119544,0.0-258.0-0.0,voc_e2,12130,"[{""event"":""fullscreenenter"",""trial"":1,""time"":6734}]",NA,NA,NA,NA,NA,4,#D89F1C,#3386FF,0,0,1,38,1,1055.5,39,0,432.69999999995343,0,0,experiment,NA,NA,2,0.5,0.5,4,5,248,6,NA
fcp-trial,284,1122330,0.0-259.0-0.0,voc_e2,12130,"[{""event"":""fullscreenenter"",""trial"":1,""time"":6734}]",NA,NA,NA,NA,NA,5,#1CD855,#FA92F8,10,0,1,40,0,653.4000000001397,39,0,618.6999999999534,0,0,experiment,NA,NA,0,0.9,0.1,0,1,249,6,NA
fcp-trial,285,1125607,0.0-260.0-0.0,voc_e2,12130,"[{""event"":""fullscreenenter"",""trial"":1,""time"":6734}]",NA,NA,NA,NA,NA,3,#3386FF,#D89F1C,0,0,0,40,0,1232.8999999999069,39,0,533.3000000000466,0,1,experiment,NA,NA,2,0.5,0.5,5,4,250,6,NA
fcp-trial,286,1128658,0.0-261.0-0.0,voc_e2,12130,"[{""event"":""fullscreenenter"",""trial"":1,""time"":6734}]",NA,NA,NA,NA,NA,0,#1CD855,#FA92F8,10,0,1,38,1,943.2000000001863,37,1,596.1999999999534,10,1,experiment,NA,NA,0,0.9,0.1,0,1,251,6,NA
fcp-trial,287,1134146,0.0-262.0-0.0,voc_e2,12130,"[{""event"":""fullscreenenter"",""trial"":1,""time"":6734}]",NA,NA,NA,NA,NA,3,#D8271C,#741CD8,0,0,1,40,0,3307.5,39,0,667.2999999998137,0,0,experiment,NA,NA,1,0.7,0.3,2,3,252,6,NA
fcp-trial,288,1137434,0.0-263.0-0.0,voc_e2,12130,"[{""event"":""fullscreenenter"",""trial"":1,""time"":6734}]",NA,NA,NA,NA,NA,2,#D8271C,#741CD8,10,0,1,38,1,1124.5999999998603,37,1,654.2999999998137,10,1,experiment,NA,NA,1,0.7,0.3,2,3,253,6,NA
fcp-trial,289,1141183,0.0-264.0-0.0,voc_e2,12130,"[{""event"":""fullscreenenter"",""trial"":1,""time"":6734}]",NA,NA,NA,NA,NA,5,#D8271C,#741CD8,10,10,1,40,0,1527.6999999999534,39,0,712.2000000001863,10,0,experiment,NA,NA,1,0.7,0.3,2,3,254,6,NA
fcp-trial,290,1145239,0.0-265.0-0.0,voc_e2,12130,"[{""event"":""fullscreenenter"",""trial"":1,""time"":6734}]",NA,NA,NA,NA,NA,5,#FA92F8,#1CD855,0,10,0,40,0,1858.1999999999534,39,0,686.4000000001397,10,1,experiment,NA,NA,0,0.1,0.9,1,0,255,6,NA
fcp-trial,291,1148415,0.0-266.0-0.0,voc_e2,12130,"[{""event"":""fullscreenenter"",""trial"":1,""time"":6734}]",NA,NA,NA,NA,NA,3,#FA92F8,#1CD855,10,10,0,40,0,1006.6999999999534,37,1,657.1999999999534,10,0,experiment,NA,NA,0,0.1,0.9,1,0,256,6,NA
fcp-trial,292,1152003,0.0-267.0-0.0,voc_e2,12130,"[{""event"":""fullscreenenter"",""trial"":1,""time"":6734}]",NA,NA,NA,NA,NA,0,#D89F1C,#3386FF,10,10,1,38,1,1543.1999999999534,39,0,534.4000000001397,10,0,experiment,NA,NA,2,0.5,0.5,4,5,257,6,NA
fcp-trial,293,1155416,0.0-268.0-0.0,voc_e2,12130,"[{""event"":""fullscreenenter"",""trial"":1,""time"":6734}]",NA,NA,NA,NA,NA,1,#D8271C,#741CD8,10,0,1,40,0,1093.1000000000931,39,0,810,0,0,experiment,NA,NA,1,0.7,0.3,2,3,258,6,NA
fcp-trial,294,1158420,0.0-269.0-0.0,voc_e2,12130,"[{""event"":""fullscreenenter"",""trial"":1,""time"":6734}]",NA,NA,NA,NA,NA,4,#1CD855,#FA92F8,10,10,1,38,1,830.5,37,1,665.6999999999534,10,1,experiment,NA,NA,0,0.9,0.1,0,1,259,6,NA
fcp-trial,295,1162051,0.0-270.0-0.0,voc_e2,12130,"[{""event"":""fullscreenenter"",""trial"":1,""time"":6734}]",NA,NA,NA,NA,NA,3,#D89F1C,#3386FF,10,10,1,38,1,1797.3999999999069,39,0,321.5,10,0,experiment,NA,NA,2,0.5,0.5,4,5,260,6,NA
fcp-trial,296,1165262,0.0-271.0-0.0,voc_e2,12130,"[{""event"":""fullscreenenter"",""trial"":1,""time"":6734}]",NA,NA,NA,NA,NA,4,#741CD8,#D8271C,10,10,0,40,0,821.3000000000466,37,1,875.5,10,0,experiment,NA,NA,1,0.3,0.7,3,2,261,6,NA
fcp-trial,297,1168553,0.0-272.0-0.0,voc_e2,12130,"[{""event"":""fullscreenenter"",""trial"":1,""time"":6734}]",NA,NA,NA,NA,NA,2,#3386FF,#D89F1C,10,10,0,38,1,1301.2999999998137,37,1,479.5999999998603,10,0,experiment,NA,NA,2,0.5,0.5,5,4,262,6,NA
fcp-trial,298,1171822,0.0-273.0-0.0,voc_e2,12130,"[{""event"":""fullscreenenter"",""trial"":1,""time"":6734}]",NA,NA,NA,NA,NA,6,#FA92F8,#1CD855,10,10,0,40,0,1058.6000000000931,37,1,701.4000000001397,10,0,experiment,NA,NA,0,0.1,0.9,1,0,263,6,NA
fcp-trial,299,1174772,0.0-274.0-0.0,voc_e2,12130,"[{""event"":""fullscreenenter"",""trial"":1,""time"":6734}]",NA,NA,NA,NA,NA,6,#741CD8,#D8271C,0,10,0,40,0,870.6000000000931,39,0,566.3000000000466,10,1,experiment,NA,NA,1,0.3,0.7,3,2,264,6,NA
fcp-trial,300,1177986,0.0-275.0-0.0,voc_e2,12130,"[{""event"":""fullscreenenter"",""trial"":1,""time"":6734}]",NA,NA,NA,NA,NA,4,#3386FF,#D89F1C,0,10,0,38,1,1255.6000000000931,37,1,447,0,0,experiment,NA,NA,2,0.5,0.5,5,4,265,6,NA
fcp-trial,301,1181295,0.0-276.0-0.0,voc_e2,12130,"[{""event"":""fullscreenenter"",""trial"":1,""time"":6734}]",NA,NA,NA,NA,NA,0,#D8271C,#741CD8,0,0,1,38,1,1471.5,37,1,325.80000000004657,0,1,experiment,NA,NA,1,0.7,0.3,2,3,266,6,NA
fcp-trial,302,1185269,0.0-277.0-0.0,voc_e2,12130,"[{""event"":""fullscreenenter"",""trial"":1,""time"":6734}]",NA,NA,NA,NA,NA,1,#FA92F8,#1CD855,0,10,0,38,1,2163.3000000000466,39,0,302.80000000004657,10,1,experiment,NA,NA,0,0.1,0.9,1,0,267,6,NA
fcp-trial,303,1188451,0.0-278.0-0.0,voc_e2,12130,"[{""event"":""fullscreenenter"",""trial"":1,""time"":6734}]",NA,NA,NA,NA,NA,0,#FA92F8,#1CD855,0,10,0,38,1,1373.1999999999534,39,0,301.80000000004657,10,1,experiment,NA,NA,0,0.1,0.9,1,0,268,6,NA
fcp-trial,304,1191630,0.0-279.0-0.0,voc_e2,12130,"[{""event"":""fullscreenenter"",""trial"":1,""time"":6734}]",NA,NA,NA,NA,NA,6,#D89F1C,#3386FF,10,10,1,40,0,1071.3000000000466,37,1,597.3000000000466,10,1,experiment,NA,NA,2,0.5,0.5,4,5,269,6,NA
fcp-trial,305,1194581,0.0-280.0-0.0,voc_e2,12130,"[{""event"":""fullscreenenter"",""trial"":1,""time"":6734}]",NA,NA,NA,NA,NA,3,#D8271C,#741CD8,10,10,1,38,1,1049.3000000000466,37,1,389.9000000001397,10,1,experiment,NA,NA,1,0.7,0.3,2,3,270,6,NA
fcp-trial,306,1197472,0.0-281.0-0.0,voc_e2,12130,"[{""event"":""fullscreenenter"",""trial"":1,""time"":6734}]",NA,NA,NA,NA,NA,5,#D89F1C,#3386FF,0,0,1,40,0,1014.3999999999069,39,0,363.5,0,0,experiment,NA,NA,2,0.5,0.5,4,5,271,7,NA
fcp-trial,307,1202666,0.0-282.0-0.0,voc_e2,12130,"[{""event"":""fullscreenenter"",""trial"":1,""time"":6734}]",NA,NA,NA,NA,NA,2,#FA92F8,#1CD855,0,10,0,38,1,2868.5999999998603,39,0,816.2999999998137,10,1,experiment,NA,NA,0,0.1,0.9,1,0,272,7,NA
fcp-trial,308,1206841,0.0-283.0-0.0,voc_e2,12130,"[{""event"":""fullscreenenter"",""trial"":1,""time"":6734}]",NA,NA,NA,NA,NA,1,#D89F1C,#3386FF,10,10,1,38,1,2356.7999999998137,39,0,307.79999999981374,10,0,experiment,NA,NA,2,0.5,0.5,4,5,273,7,NA
fcp-trial,309,1210498,0.0-284.0-0.0,voc_e2,12130,"[{""event"":""fullscreenenter"",""trial"":1,""time"":6734}]",NA,NA,NA,NA,NA,5,#741CD8,#D8271C,0,0,0,40,0,1532.5,37,1,615.8000000000466,0,0,experiment,NA,NA,1,0.3,0.7,3,2,274,7,NA
fcp-trial,310,1214560,0.0-285.0-0.0,voc_e2,12130,"[{""event"":""fullscreenenter"",""trial"":1,""time"":6734}]",NA,NA,NA,NA,NA,3,#3386FF,#D89F1C,0,0,0,40,0,2023,39,0,526.4000000001397,0,1,experiment,NA,NA,2,0.5,0.5,5,4,275,7,NA
fcp-trial,311,1217450,0.0-286.0-0.0,voc_e2,12130,"[{""event"":""fullscreenenter"",""trial"":1,""time"":6734}]",NA,NA,NA,NA,NA,2,#FA92F8,#1CD855,0,10,0,38,1,1059.6999999999534,39,0,322,10,1,experiment,NA,NA,0,0.1,0.9,1,0,276,7,NA
fcp-trial,312,1220706,0.0-287.0-0.0,voc_e2,12130,"[{""event"":""fullscreenenter"",""trial"":1,""time"":6734}]",NA,NA,NA,NA,NA,6,#D8271C,#741CD8,0,0,1,38,1,988,39,0,755.1999999999534,0,0,experiment,NA,NA,1,0.7,0.3,2,3,277,7,NA
fcp-trial,313,1224572,0.0-288.0-0.0,voc_e2,12130,"[{""event"":""fullscreenenter"",""trial"":1,""time"":6734}]",NA,NA,NA,NA,NA,3,#1CD855,#FA92F8,10,0,1,40,0,1862.3999999999069,37,1,495.80000000004657,10,1,experiment,NA,NA,0,0.9,0.1,0,1,278,7,NA
fcp-trial,314,1227651,0.0-289.0-0.0,voc_e2,12130,"[{""event"":""fullscreenenter"",""trial"":1,""time"":6734}]",NA,NA,NA,NA,NA,0,#741CD8,#D8271C,10,10,0,38,1,1209.3000000000466,39,0,358.19999999995343,10,1,experiment,NA,NA,1,0.3,0.7,3,2,279,7,NA
fcp-trial,315,1231049,0.0-290.0-0.0,voc_e2,12130,"[{""event"":""fullscreenenter"",""trial"":1,""time"":6734}]",NA,NA,NA,NA,NA,6,#3386FF,#D89F1C,0,10,0,40,0,1313.6000000000931,39,0,573.3000000000466,10,1,experiment,NA,NA,2,0.5,0.5,5,4,280,7,NA
fcp-trial,316,1234025,0.0-291.0-0.0,voc_e2,12130,"[{""event"":""fullscreenenter"",""trial"":1,""time"":6734}]",NA,NA,NA,NA,NA,5,#1CD855,#FA92F8,10,0,1,40,0,1052,39,0,414.10000000009313,0,0,experiment,NA,NA,0,0.9,0.1,0,1,281,7,NA
fcp-trial,317,1236811,0.0-292.0-0.0,voc_e2,12130,"[{""event"":""fullscreenenter"",""trial"":1,""time"":6734}]",NA,NA,NA,NA,NA,4,#1CD855,#FA92F8,10,0,1,38,1,936.8999999999069,37,1,335.89999999990687,10,1,experiment,NA,NA,0,0.9,0.1,0,1,282,7,NA
fcp-trial,318,1240641,0.0-293.0-0.0,voc_e2,12130,"[{""event"":""fullscreenenter"",""trial"":1,""time"":6734}]",NA,NA,NA,NA,NA,1,#741CD8,#D8271C,10,0,0,38,1,1810,39,0,505.5,0,1,experiment,NA,NA,1,0.3,0.7,3,2,283,7,NA
fcp-trial,319,1243677,0.0-294.0-0.0,voc_e2,12130,"[{""event"":""fullscreenenter"",""trial"":1,""time"":6734}]",NA,NA,NA,NA,NA,4,#3386FF,#D89F1C,10,0,0,40,0,1151.5999999998603,37,1,362.70000000018626,10,0,experiment,NA,NA,2,0.5,0.5,5,4,284,7,NA
fcp-trial,320,1246988,0.0-295.0-0.0,voc_e2,12130,"[{""event"":""fullscreenenter"",""trial"":1,""time"":6734}]",NA,NA,NA,NA,NA,0,#FA92F8,#1CD855,0,0,0,38,1,1523.1000000000931,39,0,277.79999999981374,0,1,experiment,NA,NA,0,0.1,0.9,1,0,285,7,NA
fcp-trial,321,1250377,0.0-296.0-0.0,voc_e2,12130,"[{""event"":""fullscreenenter"",""trial"":1,""time"":6734}]",NA,NA,NA,NA,NA,2,#D89F1C,#3386FF,10,10,1,38,1,1560.2999999998137,39,0,317.89999999990687,10,0,experiment,NA,NA,2,0.5,0.5,4,5,286,7,NA
fcp-trial,322,1253265,0.0-297.0-0.0,voc_e2,12130,"[{""event"":""fullscreenenter"",""trial"":1,""time"":6734}]",NA,NA,NA,NA,NA,5,#D89F1C,#3386FF,10,10,1,38,1,849.8000000000466,39,0,527.1999999999534,10,0,experiment,NA,NA,2,0.5,0.5,4,5,287,7,NA
fcp-trial,323,1256436,0.0-298.0-0.0,voc_e2,12130,"[{""event"":""fullscreenenter"",""trial"":1,""time"":6734}]",NA,NA,NA,NA,NA,4,#741CD8,#D8271C,0,10,0,40,0,1031.1000000000931,37,1,632.8999999999069,0,0,experiment,NA,NA,1,0.3,0.7,3,2,288,7,NA
fcp-trial,324,1260002,0.0-299.0-0.0,voc_e2,12130,"[{""event"":""fullscreenenter"",""trial"":1,""time"":6734}]",NA,NA,NA,NA,NA,6,#FA92F8,#1CD855,0,10,0,40,0,1540.6999999999534,37,1,514.5,0,0,experiment,NA,NA,0,0.1,0.9,1,0,289,7,NA
fcp-trial,325,1263349,0.0-300.0-0.0,voc_e2,12130,"[{""event"":""fullscreenenter"",""trial"":1,""time"":6734}]",NA,NA,NA,NA,NA,1,#1CD855,#FA92F8,10,0,1,38,1,1507.1000000000931,39,0,331.30000000004657,0,0,experiment,NA,NA,0,0.9,0.1,0,1,290,7,NA
fcp-trial,326,1266354,0.0-301.0-0.0,voc_e2,12130,"[{""event"":""fullscreenenter"",""trial"":1,""time"":6734}]",NA,NA,NA,NA,NA,2,#D8271C,#741CD8,10,0,1,38,1,1161.5,37,1,335.30000000004657,10,1,experiment,NA,NA,1,0.7,0.3,2,3,291,7,NA
fcp-trial,327,1269774,0.0-302.0-0.0,voc_e2,12130,"[{""event"":""fullscreenenter"",""trial"":1,""time"":6734}]",NA,NA,NA,NA,NA,0,#3386FF,#D89F1C,0,0,0,38,1,1631.6000000000931,37,1,280.80000000004657,0,0,experiment,NA,NA,2,0.5,0.5,5,4,292,7,NA
fcp-trial,328,1273030,0.0-303.0-0.0,voc_e2,12130,"[{""event"":""fullscreenenter"",""trial"":1,""time"":6734}]",NA,NA,NA,NA,NA,1,#3386FF,#D89F1C,0,0,0,38,1,1476.6999999999534,39,0,272.19999999995343,0,1,experiment,NA,NA,2,0.5,0.5,5,4,293,7,NA
fcp-trial,329,1276563,0.0-304.0-0.0,voc_e2,12130,"[{""event"":""fullscreenenter"",""trial"":1,""time"":6734}]",NA,NA,NA,NA,NA,3,#741CD8,#D8271C,0,10,0,40,0,1445.3999999999069,39,0,577.5,10,1,experiment,NA,NA,1,0.3,0.7,3,2,294,7,NA
fcp-trial,330,1279997,0.0-305.0-0.0,voc_e2,12130,"[{""event"":""fullscreenenter"",""trial"":1,""time"":6734}]",NA,NA,NA,NA,NA,0,#D89F1C,#3386FF,0,0,1,38,1,1507.3000000000466,37,1,412.80000000004657,0,1,experiment,NA,NA,2,0.5,0.5,4,5,295,7,NA
fcp-trial,331,1283577,0.0-306.0-0.0,voc_e2,12130,"[{""event"":""fullscreenenter"",""trial"":1,""time"":6734}]",NA,NA,NA,NA,NA,4,#D8271C,#741CD8,10,0,1,40,0,1270.0999999998603,37,1,797,10,1,experiment,NA,NA,1,0.7,0.3,2,3,296,7,NA
fcp-trial,332,1286804,0.0-307.0-0.0,voc_e2,12130,"[{""event"":""fullscreenenter"",""trial"":1,""time"":6734}]",NA,NA,NA,NA,NA,2,#741CD8,#D8271C,10,10,0,38,1,1401,39,0,311.4000000001397,10,1,experiment,NA,NA,1,0.3,0.7,3,2,297,7,NA
fcp-trial,333,1290278,0.0-308.0-0.0,voc_e2,12130,"[{""event"":""fullscreenenter"",""trial"":1,""time"":6734}]",NA,NA,NA,NA,NA,2,#1CD855,#FA92F8,10,0,1,40,0,1381.5999999998603,39,0,582.8999999999069,0,0,experiment,NA,NA,0,0.9,0.1,0,1,298,7,NA
fcp-trial,334,1292722,0.0-309.0-0.0,voc_e2,12130,"[{""event"":""fullscreenenter"",""trial"":1,""time"":6734}]",NA,NA,NA,NA,NA,4,#D89F1C,#3386FF,10,10,1,38,1,585.8999999999069,39,0,346.30000000004657,10,0,experiment,NA,NA,2,0.5,0.5,4,5,299,7,NA
fcp-trial,335,1295807,0.0-310.0-0.0,voc_e2,12130,"[{""event"":""fullscreenenter"",""trial"":1,""time"":6734}]",NA,NA,NA,NA,NA,3,#FA92F8,#1CD855,0,10,0,40,0,927.5,37,1,650.3999999999069,0,0,experiment,NA,NA,0,0.1,0.9,1,0,300,7,NA
fcp-trial,336,1298755,0.0-311.0-0.0,voc_e2,12130,"[{""event"":""fullscreenenter"",""trial"":1,""time"":6734}]",NA,NA,NA,NA,NA,1,#D8271C,#741CD8,10,0,1,38,1,1048.5,39,0,386.9000000001397,0,0,experiment,NA,NA,1,0.7,0.3,2,3,301,7,NA
fcp-trial,337,1301832,0.0-312.0-0.0,voc_e2,12130,"[{""event"":""fullscreenenter"",""trial"":1,""time"":6734}]",NA,NA,NA,NA,NA,1,#1CD855,#FA92F8,10,0,1,38,1,1265,37,1,302.5999999998603,10,1,experiment,NA,NA,0,0.9,0.1,0,1,302,7,NA
fcp-trial,338,1304775,0.0-313.0-0.0,voc_e2,12130,"[{""event"":""fullscreenenter"",""trial"":1,""time"":6734}]",NA,NA,NA,NA,NA,5,#D8271C,#741CD8,10,0,1,38,1,1053,37,1,380.19999999995343,10,1,experiment,NA,NA,1,0.7,0.3,2,3,303,7,NA
fcp-trial,339,1308007,0.0-314.0-0.0,voc_e2,12130,"[{""event"":""fullscreenenter"",""trial"":1,""time"":6734}]",NA,NA,NA,NA,NA,6,#D89F1C,#3386FF,10,0,1,38,1,787.1000000000931,39,0,935.1000000000932,0,0,experiment,NA,NA,2,0.5,0.5,4,5,304,7,NA
fcp-trial,340,1310740,0.0-315.0-0.0,voc_e2,12130,"[{""event"":""fullscreenenter"",""trial"":1,""time"":6734}]",NA,NA,NA,NA,NA,4,#1CD855,#FA92F8,10,10,1,40,0,693.1000000000931,39,0,533.3000000000466,10,0,experiment,NA,NA,0,0.9,0.1,0,1,305,7,NA
fcp-trial,341,1314507,0.0-316.0-0.0,voc_e2,12130,"[{""event"":""fullscreenenter"",""trial"":1,""time"":6734}]",NA,NA,NA,NA,NA,2,#3386FF,#D89F1C,0,10,0,40,0,1529.3000000000466,39,0,724.5,10,1,experiment,NA,NA,2,0.5,0.5,5,4,306,7,NA
fcp-trial,342,1317507,0.0-317.0-0.0,voc_e2,12130,"[{""event"":""fullscreenenter"",""trial"":1,""time"":6734}]",NA,NA,NA,NA,NA,6,#FA92F8,#1CD855,0,0,0,40,0,1010.8999999999069,39,0,477.60000000009313,0,1,experiment,NA,NA,0,0.1,0.9,1,0,307,7,NA
fcp-trial,343,1320589,0.0-318.0-0.0,voc_e2,12130,"[{""event"":""fullscreenenter"",""trial"":1,""time"":6734}]",NA,NA,NA,NA,NA,6,#D8271C,#741CD8,10,0,1,40,0,942.8999999999069,37,1,627.5,10,1,experiment,NA,NA,1,0.7,0.3,2,3,308,7,NA
fcp-trial,344,1323724,0.0-319.0-0.0,voc_e2,12130,"[{""event"":""fullscreenenter"",""trial"":1,""time"":6734}]",NA,NA,NA,NA,NA,5,#D89F1C,#3386FF,0,0,1,40,0,959.9000000001397,37,1,663.8999999999069,0,1,experiment,NA,NA,2,0.5,0.5,4,5,309,7,NA
fcp-trial,345,1326786,0.0-320.0-0.0,voc_e2,12130,"[{""event"":""fullscreenenter"",""trial"":1,""time"":6734}]",NA,NA,NA,NA,NA,5,#1CD855,#FA92F8,0,0,1,40,0,901.3999999999069,37,1,646.5999999998603,0,1,experiment,NA,NA,0,0.9,0.1,0,1,310,7,NA
fcp-trial,346,1330024,0.0-321.0-0.0,voc_e2,12130,"[{""event"":""fullscreenenter"",""trial"":1,""time"":6734}]",NA,NA,NA,NA,NA,0,#FA92F8,#1CD855,0,10,0,38,1,1394.8999999999069,39,0,335.30000000004657,10,1,experiment,NA,NA,0,0.1,0.9,1,0,311,7,NA
fcp-trial,347,1332997,0.0-322.0-0.0,voc_e2,12130,"[{""event"":""fullscreenenter"",""trial"":1,""time"":6734}]",NA,NA,NA,NA,NA,3,#D8271C,#741CD8,0,0,1,40,0,927.3999999999069,37,1,532.3000000000466,0,1,experiment,NA,NA,1,0.7,0.3,2,3,312,7,NA
fcp-trial,348,1335606,0.0-323.0-0.0,voc_e2,12130,"[{""event"":""fullscreenenter"",""trial"":1,""time"":6734}]",NA,NA,NA,NA,NA,1,#D89F1C,#3386FF,0,10,1,38,1,732.6999999999534,39,0,365.70000000018626,10,0,experiment,NA,NA,2,0.5,0.5,4,5,313,7,NA
fcp-trial,349,1340423,0.0-324.0-0.0,voc_e2,12130,"[{""event"":""fullscreenenter"",""trial"":1,""time"":6734}]",NA,NA,NA,NA,NA,0,#741CD8,#D8271C,0,10,0,40,0,2578.3000000000466,37,1,729.6999999999534,0,0,experiment,NA,NA,1,0.3,0.7,3,2,314,7,NA
fcp-trial,350,1343768,0.0-325.0-0.0,voc_e2,12130,"[{""event"":""fullscreenenter"",""trial"":1,""time"":6734}]",NA,NA,NA,NA,NA,3,#3386FF,#D89F1C,10,0,0,38,1,1223.8000000000466,37,1,611.6999999999534,10,0,experiment,NA,NA,2,0.5,0.5,5,4,315,7,NA
audio-instructions,351,1350480,0.0-326.0,voc_e2,12130,"[{""event"":""fullscreenenter"",""trial"":1,""time"":6734}]",NA,1025.1000000000931,static/audio/finished.wav,NA,0,NA,NA,NA,NA,NA,NA,NA,NA,NA,NA,NA,NA,NA,NA,NA,NA,NA,NA,NA,NA,NA,NA,NA,NA,NA
audio-instructions,352,1362329,0.0-327.0-0.0,voc_e2,12130,"[{""event"":""fullscreenenter"",""trial"":1,""time"":6734}]",NA,1013.1999999999534,static/audio/explicit1.wav,NA,0,NA,NA,NA,NA,NA,NA,NA,NA,NA,NA,NA,NA,NA,NA,NA,NA,NA,NA,NA,NA,NA,NA,NA,NA,NA
audio-instructions,353,1370642,0.0-327.0-1.0,voc_e2,12130,"[{""event"":""fullscreenenter"",""trial"":1,""time"":6734}]",NA,719.5999999998603,static/audio/explicit2.wav,NA,0,NA,NA,NA,NA,NA,NA,NA,NA,NA,NA,NA,NA,NA,NA,NA,NA,NA,NA,NA,NA,NA,NA,NA,NA,NA
image-slider-response,354,1377825,0.0-328.0,voc_e2,12130,"[{""event"":""fullscreenenter"",""trial"":1,""time"":6734}]",NA,7176.200000000186,static/img/machines/machine4.png,NA,NA,NA,NA,NA,NA,NA,NA,NA,NA,NA,NA,NA,NA,NA,NA,explicit,NA,NA,NA,NA,NA,NA,NA,NA,NA,3
image-slider-response,355,1380352,0.0-329.0,voc_e2,12130,"[{""event"":""fullscreenenter"",""trial"":1,""time"":6734}]",NA,2524.3000000000466,static/img/machines/machine2.png,NA,NA,NA,NA,NA,NA,NA,NA,NA,NA,NA,NA,NA,NA,NA,NA,explicit,NA,NA,NA,NA,NA,NA,NA,NA,NA,6
image-slider-response,356,1387230,0.0-330.0,voc_e2,12130,"[{""event"":""fullscreenenter"",""trial"":1,""time"":6734}]",NA,6875.600000000093,static/img/machines/machine3.png,NA,NA,NA,NA,NA,NA,NA,NA,NA,NA,NA,NA,NA,NA,NA,NA,explicit,NA,NA,NA,NA,NA,NA,NA,NA,NA,9
image-slider-response,357,1389401,0.0-331.0,voc_e2,12130,"[{""event"":""fullscreenenter"",""trial"":1,""time"":6734}]",NA,2167.899999999907,static/img/machines/machine1.png,NA,NA,NA,NA,NA,NA,NA,NA,NA,NA,NA,NA,NA,NA,NA,NA,explicit,NA,NA,NA,NA,NA,NA,NA,NA,NA,6
image-slider-response,358,1393623,0.0-332.0,voc_e2,12130,"[{""event"":""fullscreenenter"",""trial"":1,""time"":6734}]",NA,4217.699999999953,static/img/machines/machine5.png,NA,NA,NA,NA,NA,NA,NA,NA,NA,NA,NA,NA,NA,NA,NA,NA,explicit,NA,NA,NA,NA,NA,NA,NA,NA,NA,2
image-slider-response,359,1396288,0.0-333.0,voc_e2,12130,"[{""event"":""fullscreenenter"",""trial"":1,""time"":6734}]",NA,2663,static/img/machines/machine6.png,NA,NA,NA,NA,NA,NA,NA,NA,NA,NA,NA,NA,NA,NA,NA,NA,explicit,NA,NA,NA,NA,NA,NA,NA,NA,NA,6
