trial_type,trial_index,time_elapsed,internal_node_id,task_version,subject_id,interactions,success,rt,stimulus,key_press,button_pressed,offer,arcade_color_L,arcade_color_R,arcade_outcome_L,arcade_outcome_R,correct,stage_1_key,stage_1_choice,stage_1_rt,stage_2_key,stage_2_choice,stage_2_rt,stage_3_outcome,accuracy,phase,responses,num_errors,context,reward_prob_L,reward_prob_R,arcade_id_L,arcade_id_R,trial,block,response
pavlovia,0,13,0.0-0.0,voc_e2,11907,[],NA,NA,NA,NA,NA,NA,NA,NA,NA,NA,NA,NA,NA,NA,NA,NA,NA,NA,NA,NA,NA,NA,NA,NA,NA,NA,NA,NA,NA,NA
fullscreen,1,3069,0.0-1.0,voc_e2,11907,"[{""event"":""fullscreenenter"",""trial"":1,""time"":2080}]",TRUE,NA,NA,NA,NA,NA,NA,NA,NA,NA,NA,NA,NA,NA,NA,NA,NA,NA,NA,NA,NA,NA,NA,NA,NA,NA,NA,NA,NA,NA
audio-keyboard-response,2,4921,0.0-2.0,voc_e2,11907,"[{""event"":""fullscreenenter"",""trial"":1,""time"":2080}]",NA,1845,static/audio/beep_loop.wav,32,NA,NA,NA,NA,NA,NA,NA,NA,NA,NA,NA,NA,NA,NA,NA,NA,NA,NA,NA,NA,NA,NA,NA,NA,NA,NA
audio-test,3,6483,0.0-3.0,voc_e2,11907,"[{""event"":""fullscreenenter"",""trial"":1,""time"":2080}]",NA,NA,static/audio/turtle.wav,NA,3,NA,NA,NA,NA,NA,NA,NA,NA,NA,NA,NA,NA,NA,NA,NA,NA,NA,NA,NA,NA,NA,NA,NA,NA,NA
audio-test,4,8868,0.0-4.0,voc_e2,11907,"[{""event"":""fullscreenenter"",""trial"":1,""time"":2080}]",NA,NA,static/audio/shark.wav,NA,2,NA,NA,NA,NA,NA,NA,NA,NA,NA,NA,NA,NA,NA,NA,NA,NA,NA,NA,NA,NA,NA,NA,NA,NA,NA
audio-instructions,5,15718,0.0-5.0-0.0,voc_e2,11907,"[{""event"":""fullscreenenter"",""trial"":1,""time"":2080}]",NA,1067.199999999255,static/audio/instructions1.wav,NA,0,NA,NA,NA,NA,NA,NA,NA,NA,NA,NA,NA,NA,NA,NA,NA,NA,NA,NA,NA,NA,NA,NA,NA,NA,NA
audio-instructions,6,23949,0.0-5.0-1.0,voc_e2,11907,"[{""event"":""fullscreenenter"",""trial"":1,""time"":2080}]",NA,1492.39999999851,static/audio/instructions2.wav,NA,0,NA,NA,NA,NA,NA,NA,NA,NA,NA,NA,NA,NA,NA,NA,NA,NA,NA,NA,NA,NA,NA,NA,NA,NA,NA
audio-instructions,7,31135,0.0-5.0-2.0,voc_e2,11907,"[{""event"":""fullscreenenter"",""trial"":1,""time"":2080}]",NA,1380.7999999970198,static/audio/instructions3.wav,NA,0,NA,NA,NA,NA,NA,NA,NA,NA,NA,NA,NA,NA,NA,NA,NA,NA,NA,NA,NA,NA,NA,NA,NA,NA,NA
audio-instructions,8,44983,0.0-5.0-3.0,voc_e2,11907,"[{""event"":""fullscreenenter"",""trial"":1,""time"":2080}]",NA,622.0999999977648,static/audio/instructions4.wav,NA,0,NA,NA,NA,NA,NA,NA,NA,NA,NA,NA,NA,NA,NA,NA,NA,NA,NA,NA,NA,NA,NA,NA,NA,NA,NA
audio-instructions,9,55334,0.0-5.0-4.0,voc_e2,11907,"[{""event"":""fullscreenenter"",""trial"":1,""time"":2080}]",NA,961.10000000149,static/audio/instructions5.wav,NA,0,NA,NA,NA,NA,NA,NA,NA,NA,NA,NA,NA,NA,NA,NA,NA,NA,NA,NA,NA,NA,NA,NA,NA,NA,NA
fcp-practice,10,57688,0.0-5.0-5.0-0.0,voc_e2,11907,"[{""event"":""fullscreenenter"",""trial"":1,""time"":2080}]",NA,NA,NA,NA,NA,NA,#EDC948,#46d3c8,10,0,1,null,null,null,37,1,839.4000000022352,10,1,practice,NA,NA,NA,NA,NA,NA,NA,NA,NA,NA
fcp-practice,11,60207,0.0-5.0-5.0-1.0,voc_e2,11907,"[{""event"":""fullscreenenter"",""trial"":1,""time"":2080}]",NA,NA,NA,NA,NA,NA,#EDC948,#46d3c8,10,0,1,null,null,null,37,1,1014.3000000007452,10,1,practice,NA,NA,NA,NA,NA,NA,NA,NA,NA,NA
fcp-practice,12,62752,0.0-5.0-5.0-2.0,voc_e2,11907,"[{""event"":""fullscreenenter"",""trial"":1,""time"":2080}]",NA,NA,NA,NA,NA,NA,#EDC948,#46d3c8,0,10,1,null,null,null,37,1,1040,0,1,practice,NA,NA,NA,NA,NA,NA,NA,NA,NA,NA
fcp-practice,13,66428,0.0-5.0-5.0-3.0,voc_e2,11907,"[{""event"":""fullscreenenter"",""trial"":1,""time"":2080}]",NA,NA,NA,NA,NA,NA,#EDC948,#46d3c8,10,0,1,null,null,null,37,1,2171.300000000745,10,1,practice,NA,NA,NA,NA,NA,NA,NA,NA,NA,NA
fcp-practice,14,69889,0.0-5.0-5.0-4.0,voc_e2,11907,"[{""event"":""fullscreenenter"",""trial"":1,""time"":2080}]",NA,NA,NA,NA,NA,NA,#EDC948,#46d3c8,10,0,1,null,null,null,37,1,1955.0999999977648,10,1,practice,NA,NA,NA,NA,NA,NA,NA,NA,NA,NA
audio-instructions,15,88767,0.0-5.0-6.0,voc_e2,11907,"[{""event"":""fullscreenenter"",""trial"":1,""time"":2080}]",NA,874.7999999970198,static/audio/instructions6.wav,NA,0,NA,NA,NA,NA,NA,NA,NA,NA,NA,NA,NA,NA,NA,NA,NA,NA,NA,NA,NA,NA,NA,NA,NA,NA,NA
audio-instructions,16,108917,0.0-5.0-7.0,voc_e2,11907,"[{""event"":""fullscreenenter"",""trial"":1,""time"":2080}]",NA,950.89999999851,static/audio/instructions7.wav,NA,0,NA,NA,NA,NA,NA,NA,NA,NA,NA,NA,NA,NA,NA,NA,NA,NA,NA,NA,NA,NA,NA,NA,NA,NA,NA
audio-instructions,17,120533,0.0-5.0-8.0,voc_e2,11907,"[{""event"":""fullscreenenter"",""trial"":1,""time"":2080}]",NA,2146,static/audio/instructions8.wav,NA,0,NA,NA,NA,NA,NA,NA,NA,NA,NA,NA,NA,NA,NA,NA,NA,NA,NA,NA,NA,NA,NA,NA,NA,NA,NA
fcp-comprehension,18,132518,0.0-5.0-9.0,voc_e2,11907,"[{""event"":""fullscreenenter"",""trial"":1,""time"":2080}]",NA,11980.89999999851,NA,NA,NA,NA,NA,NA,NA,NA,NA,NA,NA,NA,NA,NA,NA,NA,NA,NA,"true,true",0,NA,NA,NA,NA,NA,NA,NA,NA
audio-instructions,19,139349,0.0-6.0-0.0,voc_e2,11907,"[{""event"":""fullscreenenter"",""trial"":1,""time"":2080}]",NA,1282.0999999977648,static/audio/instructions9.wav,NA,0,NA,NA,NA,NA,NA,NA,NA,NA,NA,NA,NA,NA,NA,NA,NA,NA,NA,NA,NA,NA,NA,NA,NA,NA,NA
audio-instructions,20,151966,0.0-6.0-1.0,voc_e2,11907,"[{""event"":""fullscreenenter"",""trial"":1,""time"":2080}]",NA,496.8999999985099,static/audio/instructions10.wav,NA,0,NA,NA,NA,NA,NA,NA,NA,NA,NA,NA,NA,NA,NA,NA,NA,NA,NA,NA,NA,NA,NA,NA,NA,NA,NA
fcp-trial,21,158700,0.0-6.0-2.0,voc_e2,11907,"[{""event"":""fullscreenenter"",""trial"":1,""time"":2080}]",NA,NA,NA,NA,NA,0,#EDC948,#46d3c8,10,10,1,38,1,3719.400000002235,37,1,1502.60000000149,10,1,practice,NA,NA,NA,NA,NA,NA,NA,NA,NA,NA
audio-instructions,22,171532,0.0-6.0-3.0,voc_e2,11907,"[{""event"":""fullscreenenter"",""trial"":1,""time"":2080}]",NA,1823.4000000022352,static/audio/instructions11.wav,NA,0,NA,NA,NA,NA,NA,NA,NA,NA,NA,NA,NA,NA,NA,NA,NA,NA,NA,NA,NA,NA,NA,NA,NA,NA,NA
fcp-trial,23,175532,0.0-6.0-4.0,voc_e2,11907,"[{""event"":""fullscreenenter"",""trial"":1,""time"":2080}]",NA,NA,NA,NA,NA,6,#EDC948,#46d3c8,10,10,1,40,0,1346.3999999985099,37,1,1145.300000000745,10,1,practice,NA,NA,NA,NA,NA,NA,NA,NA,NA,NA
audio-instructions,24,195798,0.0-6.0-5.0,voc_e2,11907,"[{""event"":""fullscreenenter"",""trial"":1,""time"":2080}]",NA,1576.9000000022352,static/audio/instructions12.wav,NA,0,NA,NA,NA,NA,NA,NA,NA,NA,NA,NA,NA,NA,NA,NA,NA,NA,NA,NA,NA,NA,NA,NA,NA,NA,NA
audio-instructions,25,203915,0.0-6.0-6.0,voc_e2,11907,"[{""event"":""fullscreenenter"",""trial"":1,""time"":2080}]",NA,521.6999999992549,static/audio/instructions13.wav,NA,0,NA,NA,NA,NA,NA,NA,NA,NA,NA,NA,NA,NA,NA,NA,NA,NA,NA,NA,NA,NA,NA,NA,NA,NA,NA
audio-instructions,26,212848,0.0-6.0-7.0,voc_e2,11907,"[{""event"":""fullscreenenter"",""trial"":1,""time"":2080}]",NA,484,static/audio/instructions14.wav,NA,0,NA,NA,NA,NA,NA,NA,NA,NA,NA,NA,NA,NA,NA,NA,NA,NA,NA,NA,NA,NA,NA,NA,NA,NA,NA
audio-instructions,27,220631,0.0-7.0-0.0,voc_e2,11907,"[{""event"":""fullscreenenter"",""trial"":1,""time"":2080}]",NA,870.1000000014901,static/audio/instructions15.wav,NA,0,NA,NA,NA,NA,NA,NA,NA,NA,NA,NA,NA,NA,NA,NA,NA,NA,NA,NA,NA,NA,NA,NA,NA,NA,NA
audio-instructions,28,228649,0.0-7.0-1.0,voc_e2,11907,"[{""event"":""fullscreenenter"",""trial"":1,""time"":2080}]",NA,1191.4000000022352,static/audio/instructions16.wav,NA,0,NA,NA,NA,NA,NA,NA,NA,NA,NA,NA,NA,NA,NA,NA,NA,NA,NA,NA,NA,NA,NA,NA,NA,NA,NA
audio-instructions,29,237231,0.0-7.0-2.0,voc_e2,11907,"[{""event"":""fullscreenenter"",""trial"":1,""time"":2080}]",NA,899.1999999992549,static/audio/instructions17.wav,NA,0,NA,NA,NA,NA,NA,NA,NA,NA,NA,NA,NA,NA,NA,NA,NA,NA,NA,NA,NA,NA,NA,NA,NA,NA,NA
audio-instructions,30,246647,0.0-7.0-3.0,voc_e2,11907,"[{""event"":""fullscreenenter"",""trial"":1,""time"":2080}]",NA,1649.199999999255,static/audio/instructions18.wav,NA,0,NA,NA,NA,NA,NA,NA,NA,NA,NA,NA,NA,NA,NA,NA,NA,NA,NA,NA,NA,NA,NA,NA,NA,NA,NA
audio-instructions,31,254347,0.0-7.0-4.0,voc_e2,11907,"[{""event"":""fullscreenenter"",""trial"":1,""time"":2080}]",NA,959.7000000029802,static/audio/instructions19.wav,NA,0,NA,NA,NA,NA,NA,NA,NA,NA,NA,NA,NA,NA,NA,NA,NA,NA,NA,NA,NA,NA,NA,NA,NA,NA,NA
fcp-comprehension,32,265416,0.0-7.0-5.0,voc_e2,11907,"[{""event"":""fullscreenenter"",""trial"":1,""time"":2080}]",NA,11066.300000000743,NA,NA,NA,NA,NA,NA,NA,NA,NA,NA,NA,NA,NA,NA,NA,NA,NA,NA,"false,false,false,true",0,NA,NA,NA,NA,NA,NA,NA,NA
audio-instructions,33,276932,0.0-8.0,voc_e2,11907,"[{""event"":""fullscreenenter"",""trial"":1,""time"":2080}]",NA,2296.60000000149,static/audio/ready.wav,NA,0,NA,NA,NA,NA,NA,NA,NA,NA,NA,NA,NA,NA,NA,NA,NA,NA,NA,NA,NA,NA,NA,NA,NA,NA,NA
fcp-trial,34,283317,0.0-9.0-0.0,voc_e2,11907,"[{""event"":""fullscreenenter"",""trial"":1,""time"":2080}]",NA,NA,NA,NA,NA,6,#1CD855,#FA92F8,0,0,1,38,1,4180,37,1,696,0,1,experiment,NA,NA,0,0.9,0.1,0,1,1,1,NA
fcp-trial,35,286253,0.0-10.0-0.0,voc_e2,11907,"[{""event"":""fullscreenenter"",""trial"":1,""time"":2080}]",NA,NA,NA,NA,NA,5,#1CD855,#FA92F8,10,0,1,38,1,809.2999999970198,39,0,621.2999999970198,0,0,experiment,NA,NA,0,0.9,0.1,0,1,2,1,NA
fcp-trial,36,289881,0.0-11.0-0.0,voc_e2,11907,"[{""event"":""fullscreenenter"",""trial"":1,""time"":2080}]",NA,NA,NA,NA,NA,2,#741CD8,#D8271C,0,0,1,38,1,1390,37,1,732.4000000022352,0,1,experiment,NA,NA,2,0.5,0.5,4,5,3,1,NA
fcp-trial,37,293170,0.0-12.0-0.0,voc_e2,11907,"[{""event"":""fullscreenenter"",""trial"":1,""time"":2080}]",NA,NA,NA,NA,NA,2,#3386FF,#D89F1C,0,10,0,38,1,1147.1000000014901,39,0,637.1999999992549,10,1,experiment,NA,NA,1,0.3,0.7,3,2,4,1,NA
fcp-trial,38,296443,0.0-13.0-0.0,voc_e2,11907,"[{""event"":""fullscreenenter"",""trial"":1,""time"":2080}]",NA,NA,NA,NA,NA,3,#D89F1C,#3386FF,0,0,1,38,1,858.1000000014901,37,1,908.1999999992548,0,1,experiment,NA,NA,1,0.7,0.3,2,3,5,1,NA
fcp-trial,39,300631,0.0-14.0-0.0,voc_e2,11907,"[{""event"":""fullscreenenter"",""trial"":1,""time"":2080}]",NA,NA,NA,NA,NA,1,#D89F1C,#3386FF,10,0,1,38,1,1855.8999999985099,39,0,825.2999999970198,0,0,experiment,NA,NA,1,0.7,0.3,2,3,6,1,NA
fcp-trial,40,304100,0.0-15.0-0.0,voc_e2,11907,"[{""event"":""fullscreenenter"",""trial"":1,""time"":2080}]",NA,NA,NA,NA,NA,1,#1CD855,#FA92F8,10,0,1,38,1,988.1999999992549,37,1,974.89999999851,10,1,experiment,NA,NA,0,0.9,0.1,0,1,7,1,NA
fcp-trial,41,306959,0.0-16.0-0.0,voc_e2,11907,"[{""event"":""fullscreenenter"",""trial"":1,""time"":2080}]",NA,NA,NA,NA,NA,5,#741CD8,#D8271C,0,0,1,38,1,678.6999999992549,39,0,676.7000000029802,0,0,experiment,NA,NA,2,0.5,0.5,4,5,8,1,NA
fcp-trial,42,310057,0.0-17.0-0.0,voc_e2,11907,"[{""event"":""fullscreenenter"",""trial"":1,""time"":2080}]",NA,NA,NA,NA,NA,4,#D89F1C,#3386FF,10,0,1,38,1,856.5,37,1,732.6000000014901,10,1,experiment,NA,NA,1,0.7,0.3,2,3,9,1,NA
fcp-trial,43,313005,0.0-18.0-0.0,voc_e2,11907,"[{""event"":""fullscreenenter"",""trial"":1,""time"":2080}]",NA,NA,NA,NA,NA,0,#FA92F8,#1CD855,0,10,0,38,1,934.5,39,0,504.19999999925494,10,1,experiment,NA,NA,0,0.1,0.9,1,0,10,1,NA
fcp-trial,44,316058,0.0-19.0-0.0,voc_e2,11907,"[{""event"":""fullscreenenter"",""trial"":1,""time"":2080}]",NA,NA,NA,NA,NA,6,#D89F1C,#3386FF,0,0,1,38,1,628.6999999992549,37,1,914.5999999977648,0,1,experiment,NA,NA,1,0.7,0.3,2,3,11,1,NA
fcp-trial,45,319182,0.0-20.0-0.0,voc_e2,11907,"[{""event"":""fullscreenenter"",""trial"":1,""time"":2080}]",NA,NA,NA,NA,NA,6,#741CD8,#D8271C,0,10,1,38,1,667,39,0,948.89999999851,10,0,experiment,NA,NA,2,0.5,0.5,4,5,12,1,NA
fcp-trial,46,322451,0.0-21.0-0.0,voc_e2,11907,"[{""event"":""fullscreenenter"",""trial"":1,""time"":2080}]",NA,NA,NA,NA,NA,2,#1CD855,#FA92F8,10,10,1,38,1,684.1000000014901,37,1,1075.60000000149,10,1,experiment,NA,NA,0,0.9,0.1,0,1,13,1,NA
fcp-trial,47,325407,0.0-22.0-0.0,voc_e2,11907,"[{""event"":""fullscreenenter"",""trial"":1,""time"":2080}]",NA,NA,NA,NA,NA,0,#3386FF,#D89F1C,0,0,0,38,1,870.2000000029802,37,1,580,0,0,experiment,NA,NA,1,0.3,0.7,3,2,14,1,NA
fcp-trial,48,328457,0.0-23.0-0.0,voc_e2,11907,"[{""event"":""fullscreenenter"",""trial"":1,""time"":2080}]",NA,NA,NA,NA,NA,4,#1CD855,#FA92F8,10,0,1,38,1,819.5,37,1,721.3000000007451,10,1,experiment,NA,NA,0,0.9,0.1,0,1,15,1,NA
fcp-trial,49,331683,0.0-24.0-0.0,voc_e2,11907,"[{""event"":""fullscreenenter"",""trial"":1,""time"":2080}]",NA,NA,NA,NA,NA,4,#741CD8,#D8271C,0,0,1,38,1,1297.7999999970198,37,1,420.70000000298023,0,1,experiment,NA,NA,2,0.5,0.5,4,5,16,1,NA
fcp-trial,50,334692,0.0-25.0-0.0,voc_e2,11907,"[{""event"":""fullscreenenter"",""trial"":1,""time"":2080}]",NA,NA,NA,NA,NA,1,#741CD8,#D8271C,10,10,1,38,1,709.2999999970198,39,0,791.3999999985099,10,0,experiment,NA,NA,2,0.5,0.5,4,5,17,1,NA
fcp-trial,51,338725,0.0-26.0-0.0,voc_e2,11907,"[{""event"":""fullscreenenter"",""trial"":1,""time"":2080}]",NA,NA,NA,NA,NA,5,#3386FF,#D89F1C,10,10,0,38,1,854.5999999977648,37,1,1670.800000000745,10,0,experiment,NA,NA,1,0.3,0.7,3,2,18,1,NA
fcp-trial,52,341659,0.0-27.0-0.0,voc_e2,11907,"[{""event"":""fullscreenenter"",""trial"":1,""time"":2080}]",NA,NA,NA,NA,NA,3,#FA92F8,#1CD855,0,10,0,38,1,758.6000000014901,39,0,666.8999999985099,10,1,experiment,NA,NA,0,0.1,0.9,1,0,19,1,NA
fcp-trial,53,344941,0.0-28.0-0.0,voc_e2,11907,"[{""event"":""fullscreenenter"",""trial"":1,""time"":2080}]",NA,NA,NA,NA,NA,0,#741CD8,#D8271C,10,0,1,38,1,597.8999999985099,37,1,1177.7999999970198,10,1,experiment,NA,NA,2,0.5,0.5,4,5,20,1,NA
fcp-trial,54,348232,0.0-29.0-0.0,voc_e2,11907,"[{""event"":""fullscreenenter"",""trial"":1,""time"":2080}]",NA,NA,NA,NA,NA,3,#741CD8,#D8271C,0,10,1,38,1,1018.3000000007451,37,1,765.8000000007451,0,1,experiment,NA,NA,2,0.5,0.5,4,5,21,1,NA
fcp-trial,55,353036,0.0-30.0-0.0,voc_e2,11907,"[{""event"":""fullscreenenter"",""trial"":1,""time"":2080}]",NA,NA,NA,NA,NA,5,#D89F1C,#3386FF,0,10,1,38,1,680.8999999985099,39,0,2615.39999999851,10,0,experiment,NA,NA,1,0.7,0.3,2,3,22,1,NA
fcp-trial,56,355908,0.0-31.0-0.0,voc_e2,11907,"[{""event"":""fullscreenenter"",""trial"":1,""time"":2080}]",NA,NA,NA,NA,NA,4,#FA92F8,#1CD855,0,10,0,38,1,706.5999999977648,39,0,656.5,10,1,experiment,NA,NA,0,0.1,0.9,1,0,23,1,NA
fcp-trial,57,359198,0.0-32.0-0.0,voc_e2,11907,"[{""event"":""fullscreenenter"",""trial"":1,""time"":2080}]",NA,NA,NA,NA,NA,6,#D89F1C,#3386FF,10,0,1,38,1,682.3000000007451,39,0,1101.199999999255,0,0,experiment,NA,NA,1,0.7,0.3,2,3,24,1,NA
fcp-trial,58,362620,0.0-33.0-0.0,voc_e2,11907,"[{""event"":""fullscreenenter"",""trial"":1,""time"":2080}]",NA,NA,NA,NA,NA,1,#1CD855,#FA92F8,10,0,1,38,1,1188.5,37,1,726.3999999985099,10,1,experiment,NA,NA,0,0.9,0.1,0,1,25,1,NA
fcp-trial,59,365397,0.0-34.0-0.0,voc_e2,11907,"[{""event"":""fullscreenenter"",""trial"":1,""time"":2080}]",NA,NA,NA,NA,NA,1,#741CD8,#D8271C,0,0,1,38,1,664.3000000007451,39,0,605.5999999977648,0,0,experiment,NA,NA,2,0.5,0.5,4,5,26,1,NA
fcp-trial,60,368649,0.0-35.0-0.0,voc_e2,11907,"[{""event"":""fullscreenenter"",""trial"":1,""time"":2080}]",NA,NA,NA,NA,NA,5,#741CD8,#D8271C,0,0,1,38,1,954.1000000014901,39,0,790.6000000014901,0,0,experiment,NA,NA,2,0.5,0.5,4,5,27,1,NA
fcp-trial,61,373963,0.0-36.0-0.0,voc_e2,11907,"[{""event"":""fullscreenenter"",""trial"":1,""time"":2080}]",NA,NA,NA,NA,NA,1,#3386FF,#D89F1C,10,10,0,38,1,2893.7000000029802,37,1,915,10,0,experiment,NA,NA,1,0.3,0.7,3,2,28,1,NA
fcp-trial,62,378639,0.0-37.0-0.0,voc_e2,11907,"[{""event"":""fullscreenenter"",""trial"":1,""time"":2080}]",NA,NA,NA,NA,NA,0,#741CD8,#D8271C,0,0,1,38,1,2712.2999999970198,39,0,455.69999999925494,0,0,experiment,NA,NA,2,0.5,0.5,4,5,29,1,NA
fcp-trial,63,382882,0.0-38.0-0.0,voc_e2,11907,"[{""event"":""fullscreenenter"",""trial"":1,""time"":2080}]",NA,NA,NA,NA,NA,0,#1CD855,#FA92F8,10,0,1,38,1,2261.699999999255,37,1,472.30000000074506,10,1,experiment,NA,NA,0,0.9,0.1,0,1,30,1,NA
fcp-trial,64,386746,0.0-39.0-0.0,voc_e2,11907,"[{""event"":""fullscreenenter"",""trial"":1,""time"":2080}]",NA,NA,NA,NA,NA,0,#D89F1C,#3386FF,10,10,1,38,1,1760.5,37,1,598.1999999992549,10,1,experiment,NA,NA,1,0.7,0.3,2,3,31,1,NA
fcp-trial,65,389814,0.0-40.0-0.0,voc_e2,11907,"[{""event"":""fullscreenenter"",""trial"":1,""time"":2080}]",NA,NA,NA,NA,NA,5,#FA92F8,#1CD855,0,10,0,38,1,952.6000000014901,39,0,608.6000000014901,10,1,experiment,NA,NA,0,0.1,0.9,1,0,32,1,NA
fcp-trial,66,393052,0.0-41.0-0.0,voc_e2,11907,"[{""event"":""fullscreenenter"",""trial"":1,""time"":2080}]",NA,NA,NA,NA,NA,2,#D8271C,#741CD8,10,10,0,38,1,984.8999999985099,37,1,745.1999999992549,10,0,experiment,NA,NA,2,0.5,0.5,5,4,33,1,NA
fcp-trial,67,395701,0.0-42.0-0.0,voc_e2,11907,"[{""event"":""fullscreenenter"",""trial"":1,""time"":2080}]",NA,NA,NA,NA,NA,3,#1CD855,#FA92F8,10,0,1,38,1,681.8000000007451,37,1,458.80000000074506,10,1,experiment,NA,NA,0,0.9,0.1,0,1,34,1,NA
fcp-trial,68,398730,0.0-43.0-0.0,voc_e2,11907,"[{""event"":""fullscreenenter"",""trial"":1,""time"":2080}]",NA,NA,NA,NA,NA,3,#3386FF,#D89F1C,10,10,0,38,1,974.6000000014901,39,0,547.4000000022352,10,1,experiment,NA,NA,1,0.3,0.7,3,2,35,1,NA
fcp-trial,69,401663,0.0-44.0-0.0,voc_e2,11907,"[{""event"":""fullscreenenter"",""trial"":1,""time"":2080}]",NA,NA,NA,NA,NA,6,#741CD8,#D8271C,10,0,1,38,1,645.3000000007451,39,0,782.1999999992549,0,0,experiment,NA,NA,2,0.5,0.5,4,5,36,1,NA
fcp-trial,70,404385,0.0-45.0-0.0,voc_e2,11907,"[{""event"":""fullscreenenter"",""trial"":1,""time"":2080}]",NA,NA,NA,NA,NA,4,#D8271C,#741CD8,0,10,0,38,1,602,37,1,613.3000000007451,0,0,experiment,NA,NA,2,0.5,0.5,5,4,37,1,NA
fcp-trial,71,407247,0.0-46.0-0.0,voc_e2,11907,"[{""event"":""fullscreenenter"",""trial"":1,""time"":2080}]",NA,NA,NA,NA,NA,2,#FA92F8,#1CD855,0,10,0,38,1,913.4000000022352,39,0,442.5,10,1,experiment,NA,NA,0,0.1,0.9,1,0,38,1,NA
fcp-trial,72,411920,0.0-47.0-0.0,voc_e2,11907,"[{""event"":""fullscreenenter"",""trial"":1,""time"":2080}]",NA,NA,NA,NA,NA,2,#3386FF,#D89F1C,10,0,0,38,1,1785.5,37,1,1379.800000000745,10,0,experiment,NA,NA,1,0.3,0.7,3,2,39,1,NA
fcp-trial,73,416665,0.0-48.0-0.0,voc_e2,11907,"[{""event"":""fullscreenenter"",""trial"":1,""time"":2080}]",NA,NA,NA,NA,NA,3,#741CD8,#D8271C,10,10,1,38,1,2500.5,39,0,737.8000000007451,10,0,experiment,NA,NA,2,0.5,0.5,4,5,40,1,NA
fcp-trial,74,420981,0.0-49.0-0.0,voc_e2,11907,"[{""event"":""fullscreenenter"",""trial"":1,""time"":2080}]",NA,NA,NA,NA,NA,4,#D89F1C,#3386FF,10,0,1,38,1,813.6999999992549,39,0,1996.800000000745,0,0,experiment,NA,NA,1,0.7,0.3,2,3,41,1,NA
fcp-trial,75,423898,0.0-50.0-0.0,voc_e2,11907,"[{""event"":""fullscreenenter"",""trial"":1,""time"":2080}]",NA,NA,NA,NA,NA,6,#1CD855,#FA92F8,10,0,1,38,1,685.8000000007451,37,1,722.3999999985099,10,1,experiment,NA,NA,0,0.9,0.1,0,1,42,1,NA
fcp-trial,76,426989,0.0-51.0-0.0,voc_e2,11907,"[{""event"":""fullscreenenter"",""trial"":1,""time"":2080}]",NA,NA,NA,NA,NA,5,#D8271C,#741CD8,10,10,0,38,1,1212.8999999985099,37,1,370.69999999925494,10,0,experiment,NA,NA,2,0.5,0.5,5,4,43,1,NA
fcp-trial,77,430731,0.0-52.0-0.0,voc_e2,11907,"[{""event"":""fullscreenenter"",""trial"":1,""time"":2080}]",NA,NA,NA,NA,NA,2,#1CD855,#FA92F8,10,0,1,38,1,1766.6000000014901,37,1,467.69999999925494,10,1,experiment,NA,NA,0,0.9,0.1,0,1,44,1,NA
fcp-trial,78,434396,0.0-53.0-0.0,voc_e2,11907,"[{""event"":""fullscreenenter"",""trial"":1,""time"":2080}]",NA,NA,NA,NA,NA,6,#741CD8,#D8271C,0,10,1,38,1,1312.5,39,0,847,10,0,experiment,NA,NA,2,0.5,0.5,4,5,45,1,NA
fcp-trial,79,437267,0.0-54.0-0.0,voc_e2,11907,"[{""event"":""fullscreenenter"",""trial"":1,""time"":2080}]",NA,NA,NA,NA,NA,3,#D8271C,#741CD8,0,10,0,38,1,654.8000000007451,37,1,711,0,0,experiment,NA,NA,2,0.5,0.5,5,4,46,2,NA
fcp-trial,80,440563,0.0-55.0-0.0,voc_e2,11907,"[{""event"":""fullscreenenter"",""trial"":1,""time"":2080}]",NA,NA,NA,NA,NA,0,#D89F1C,#3386FF,0,10,1,38,1,1376.800000000745,39,0,411,10,0,experiment,NA,NA,1,0.7,0.3,2,3,47,2,NA
fcp-trial,81,445999,0.0-56.0-0.0,voc_e2,11907,"[{""event"":""fullscreenenter"",""trial"":1,""time"":2080}]",NA,NA,NA,NA,NA,6,#FA92F8,#1CD855,0,10,0,38,1,3421.800000000745,39,0,507.4000000022352,10,1,experiment,NA,NA,0,0.1,0.9,1,0,48,2,NA
fcp-trial,82,448624,0.0-57.0-0.0,voc_e2,11907,"[{""event"":""fullscreenenter"",""trial"":1,""time"":2080}]",NA,NA,NA,NA,NA,1,#D8271C,#741CD8,0,10,0,38,1,566,37,1,550.8000000007451,0,0,experiment,NA,NA,2,0.5,0.5,5,4,49,2,NA
fcp-trial,83,452258,0.0-58.0-0.0,voc_e2,11907,"[{""event"":""fullscreenenter"",""trial"":1,""time"":2080}]",NA,NA,NA,NA,NA,1,#3386FF,#D89F1C,10,0,0,38,1,1700.2000000029802,37,1,426,10,0,experiment,NA,NA,1,0.3,0.7,3,2,50,2,NA
fcp-trial,84,455045,0.0-59.0-0.0,voc_e2,11907,"[{""event"":""fullscreenenter"",""trial"":1,""time"":2080}]",NA,NA,NA,NA,NA,1,#FA92F8,#1CD855,0,10,0,38,1,717.0999999977648,39,0,562.5,10,1,experiment,NA,NA,0,0.1,0.9,1,0,51,2,NA
fcp-trial,85,457742,0.0-60.0-0.0,voc_e2,11907,"[{""event"":""fullscreenenter"",""trial"":1,""time"":2080}]",NA,NA,NA,NA,NA,3,#FA92F8,#1CD855,0,10,0,38,1,709.8000000007451,39,0,482,10,1,experiment,NA,NA,0,0.1,0.9,1,0,52,2,NA
fcp-trial,86,461803,0.0-61.0-0.0,voc_e2,11907,"[{""event"":""fullscreenenter"",""trial"":1,""time"":2080}]",NA,NA,NA,NA,NA,2,#3386FF,#D89F1C,0,10,0,38,1,1056.3999999985099,37,1,1496.0999999977648,0,0,experiment,NA,NA,1,0.3,0.7,3,2,53,2,NA
fcp-trial,87,465528,0.0-62.0-0.0,voc_e2,11907,"[{""event"":""fullscreenenter"",""trial"":1,""time"":2080}]",NA,NA,NA,NA,NA,0,#D8271C,#741CD8,0,0,0,38,1,1714,37,1,503.19999999925494,0,0,experiment,NA,NA,2,0.5,0.5,5,4,54,2,NA
fcp-trial,88,469621,0.0-63.0-0.0,voc_e2,11907,"[{""event"":""fullscreenenter"",""trial"":1,""time"":2080}]",NA,NA,NA,NA,NA,3,#3386FF,#D89F1C,10,0,0,38,1,2131.599999997765,37,1,452.8999999985099,10,0,experiment,NA,NA,1,0.3,0.7,3,2,55,2,NA
fcp-trial,89,473819,0.0-64.0-0.0,voc_e2,11907,"[{""event"":""fullscreenenter"",""trial"":1,""time"":2080}]",NA,NA,NA,NA,NA,5,#D89F1C,#3386FF,10,0,1,38,1,1994,39,0,696.0999999977648,0,0,experiment,NA,NA,1,0.7,0.3,2,3,56,2,NA
fcp-trial,90,477073,0.0-65.0-0.0,voc_e2,11907,"[{""event"":""fullscreenenter"",""trial"":1,""time"":2080}]",NA,NA,NA,NA,NA,5,#FA92F8,#1CD855,0,10,0,38,1,1242.1000000014901,39,0,500,10,1,experiment,NA,NA,0,0.1,0.9,1,0,57,2,NA
fcp-trial,91,480614,0.0-66.0-0.0,voc_e2,11907,"[{""event"":""fullscreenenter"",""trial"":1,""time"":2080}]",NA,NA,NA,NA,NA,4,#D8271C,#741CD8,0,10,0,38,1,1699.5,37,1,333.69999999925494,0,0,experiment,NA,NA,2,0.5,0.5,5,4,58,2,NA
fcp-trial,92,484207,0.0-67.0-0.0,voc_e2,11907,"[{""event"":""fullscreenenter"",""trial"":1,""time"":2080}]",NA,NA,NA,NA,NA,6,#D89F1C,#3386FF,10,10,1,38,1,1586.1000000014901,39,0,500.9000000022352,10,0,experiment,NA,NA,1,0.7,0.3,2,3,59,2,NA
fcp-trial,93,487524,0.0-68.0-0.0,voc_e2,11907,"[{""event"":""fullscreenenter"",""trial"":1,""time"":2080}]",NA,NA,NA,NA,NA,0,#FA92F8,#1CD855,0,10,0,38,1,1258.300000000745,39,0,550.1000000014901,10,1,experiment,NA,NA,0,0.1,0.9,1,0,60,2,NA
fcp-trial,94,490196,0.0-69.0-0.0,voc_e2,11907,"[{""event"":""fullscreenenter"",""trial"":1,""time"":2080}]",NA,NA,NA,NA,NA,4,#FA92F8,#1CD855,0,10,0,38,1,641.7999999970198,39,0,521.8999999985099,10,1,experiment,NA,NA,0,0.1,0.9,1,0,61,2,NA
fcp-trial,95,493296,0.0-70.0-0.0,voc_e2,11907,"[{""event"":""fullscreenenter"",""trial"":1,""time"":2080}]",NA,NA,NA,NA,NA,4,#3386FF,#D89F1C,0,0,0,38,1,681.1999999992549,37,1,913.60000000149,0,0,experiment,NA,NA,1,0.3,0.7,3,2,62,2,NA
fcp-trial,96,496307,0.0-71.0-0.0,voc_e2,11907,"[{""event"":""fullscreenenter"",""trial"":1,""time"":2080}]",NA,NA,NA,NA,NA,2,#D8271C,#741CD8,10,10,0,38,1,712.6999999992549,37,1,790.6000000014901,10,0,experiment,NA,NA,2,0.5,0.5,5,4,63,2,NA
fcp-trial,97,499122,0.0-72.0-0.0,voc_e2,11907,"[{""event"":""fullscreenenter"",""trial"":1,""time"":2080}]",NA,NA,NA,NA,NA,0,#FA92F8,#1CD855,0,10,0,38,1,768.3999999985099,39,0,535.5,10,1,experiment,NA,NA,0,0.1,0.9,1,0,64,2,NA
fcp-trial,98,502928,0.0-73.0-0.0,voc_e2,11907,"[{""event"":""fullscreenenter"",""trial"":1,""time"":2080}]",NA,NA,NA,NA,NA,5,#D89F1C,#3386FF,10,0,1,38,1,1616.5,39,0,680.9000000022352,0,0,experiment,NA,NA,1,0.7,0.3,2,3,65,2,NA
fcp-trial,99,506195,0.0-74.0-0.0,voc_e2,11907,"[{""event"":""fullscreenenter"",""trial"":1,""time"":2080}]",NA,NA,NA,NA,NA,0,#3386FF,#D89F1C,0,0,0,38,1,1028.800000000745,37,1,733.0999999977648,0,0,experiment,NA,NA,1,0.3,0.7,3,2,66,2,NA
fcp-trial,100,509555,0.0-75.0-0.0,voc_e2,11907,"[{""event"":""fullscreenenter"",""trial"":1,""time"":2080}]",NA,NA,NA,NA,NA,3,#3386FF,#D89F1C,0,0,0,38,1,1291,39,0,562.4000000022352,0,1,experiment,NA,NA,1,0.3,0.7,3,2,67,2,NA
fcp-trial,101,512520,0.0-76.0-0.0,voc_e2,11907,"[{""event"":""fullscreenenter"",""trial"":1,""time"":2080}]",NA,NA,NA,NA,NA,5,#FA92F8,#1CD855,0,10,0,38,1,834.2000000029802,39,0,621,10,1,experiment,NA,NA,0,0.1,0.9,1,0,68,2,NA
fcp-trial,102,515066,0.0-77.0-0.0,voc_e2,11907,"[{""event"":""fullscreenenter"",""trial"":1,""time"":2080}]",NA,NA,NA,NA,NA,4,#D8271C,#741CD8,10,10,0,38,1,539.5,37,1,499,10,0,experiment,NA,NA,2,0.5,0.5,5,4,69,2,NA
fcp-trial,103,517949,0.0-78.0-0.0,voc_e2,11907,"[{""event"":""fullscreenenter"",""trial"":1,""time"":2080}]",NA,NA,NA,NA,NA,6,#D8271C,#741CD8,10,10,0,38,1,718.2999999970198,37,1,658.3000000007451,10,0,experiment,NA,NA,2,0.5,0.5,5,4,70,2,NA
fcp-trial,104,520712,0.0-79.0-0.0,voc_e2,11907,"[{""event"":""fullscreenenter"",""trial"":1,""time"":2080}]",NA,NA,NA,NA,NA,4,#FA92F8,#1CD855,0,10,0,38,1,845.5,39,0,410.6000000014901,10,1,experiment,NA,NA,0,0.1,0.9,1,0,71,2,NA
fcp-trial,105,523882,0.0-80.0-0.0,voc_e2,11907,"[{""event"":""fullscreenenter"",""trial"":1,""time"":2080}]",NA,NA,NA,NA,NA,1,#D89F1C,#3386FF,0,0,1,38,1,811.8999999985099,39,0,852,0,0,experiment,NA,NA,1,0.7,0.3,2,3,72,2,NA
fcp-trial,106,527281,0.0-81.0-0.0,voc_e2,11907,"[{""event"":""fullscreenenter"",""trial"":1,""time"":2080}]",NA,NA,NA,NA,NA,4,#D89F1C,#3386FF,10,0,1,38,1,1457.5999999977648,37,1,431.69999999925494,10,1,experiment,NA,NA,1,0.7,0.3,2,3,73,2,NA
fcp-trial,107,531489,0.0-82.0-0.0,voc_e2,11907,"[{""event"":""fullscreenenter"",""trial"":1,""time"":2080}]",NA,NA,NA,NA,NA,6,#FA92F8,#1CD855,0,10,0,38,1,2196.800000000745,39,0,501.8999999985099,10,1,experiment,NA,NA,0,0.1,0.9,1,0,74,2,NA
fcp-trial,108,534279,0.0-83.0-0.0,voc_e2,11907,"[{""event"":""fullscreenenter"",""trial"":1,""time"":2080}]",NA,NA,NA,NA,NA,3,#741CD8,#D8271C,0,10,1,38,1,899.3999999985099,39,0,382.5999999977648,10,0,experiment,NA,NA,2,0.5,0.5,4,5,75,2,NA
fcp-trial,109,536880,0.0-84.0-0.0,voc_e2,11907,"[{""event"":""fullscreenenter"",""trial"":1,""time"":2080}]",NA,NA,NA,NA,NA,0,#741CD8,#D8271C,0,10,1,38,1,663.1000000014901,39,0,431.5,10,0,experiment,NA,NA,2,0.5,0.5,4,5,76,2,NA
fcp-trial,110,539513,0.0-85.0-0.0,voc_e2,11907,"[{""event"":""fullscreenenter"",""trial"":1,""time"":2080}]",NA,NA,NA,NA,NA,2,#FA92F8,#1CD855,0,10,0,38,1,744.4000000022352,39,0,382.1000000014901,10,1,experiment,NA,NA,0,0.1,0.9,1,0,77,2,NA
fcp-trial,111,542590,0.0-86.0-0.0,voc_e2,11907,"[{""event"":""fullscreenenter"",""trial"":1,""time"":2080}]",NA,NA,NA,NA,NA,6,#3386FF,#D89F1C,0,10,0,38,1,1160.3999999985099,39,0,410,10,1,experiment,NA,NA,1,0.3,0.7,3,2,78,2,NA
fcp-trial,112,545112,0.0-87.0-0.0,voc_e2,11907,"[{""event"":""fullscreenenter"",""trial"":1,""time"":2080}]",NA,NA,NA,NA,NA,1,#FA92F8,#1CD855,10,0,0,38,1,573.7000000029802,39,0,438.29999999701977,0,1,experiment,NA,NA,0,0.1,0.9,1,0,79,2,NA
fcp-trial,113,548145,0.0-88.0-0.0,voc_e2,11907,"[{""event"":""fullscreenenter"",""trial"":1,""time"":2080}]",NA,NA,NA,NA,NA,5,#741CD8,#D8271C,0,0,1,38,1,1000.8999999985099,39,0,524.3000000007451,0,0,experiment,NA,NA,2,0.5,0.5,4,5,80,2,NA
fcp-trial,114,551213,0.0-89.0-0.0,voc_e2,11907,"[{""event"":""fullscreenenter"",""trial"":1,""time"":2080}]",NA,NA,NA,NA,NA,3,#1CD855,#FA92F8,10,0,1,38,1,1053.0999999977648,37,1,506.30000000074506,10,1,experiment,NA,NA,0,0.9,0.1,0,1,81,2,NA
fcp-trial,115,554113,0.0-90.0-0.0,voc_e2,11907,"[{""event"":""fullscreenenter"",""trial"":1,""time"":2080}]",NA,NA,NA,NA,NA,1,#741CD8,#D8271C,10,0,1,38,1,871.4000000022352,39,0,521.7000000029802,0,0,experiment,NA,NA,2,0.5,0.5,4,5,82,2,NA
fcp-trial,116,557679,0.0-91.0-0.0,voc_e2,11907,"[{""event"":""fullscreenenter"",""trial"":1,""time"":2080}]",NA,NA,NA,NA,NA,2,#D89F1C,#3386FF,10,10,1,38,1,1183.300000000745,37,1,874.5999999977648,10,1,experiment,NA,NA,1,0.7,0.3,2,3,83,2,NA
fcp-trial,117,560755,0.0-92.0-0.0,voc_e2,11907,"[{""event"":""fullscreenenter"",""trial"":1,""time"":2080}]",NA,NA,NA,NA,NA,2,#D8271C,#741CD8,0,10,0,38,1,734.8999999985099,37,1,835.5,0,0,experiment,NA,NA,2,0.5,0.5,5,4,84,2,NA
fcp-trial,118,563829,0.0-93.0-0.0,voc_e2,11907,"[{""event"":""fullscreenenter"",""trial"":1,""time"":2080}]",NA,NA,NA,NA,NA,3,#3386FF,#D89F1C,10,10,0,38,1,1100,39,0,465.80000000074506,10,1,experiment,NA,NA,1,0.3,0.7,3,2,85,2,NA
fcp-trial,119,567868,0.0-94.0-0.0,voc_e2,11907,"[{""event"":""fullscreenenter"",""trial"":1,""time"":2080}]",NA,NA,NA,NA,NA,5,#FA92F8,#1CD855,0,10,0,38,1,1131.3999999985099,39,0,1400.300000000745,10,1,experiment,NA,NA,0,0.1,0.9,1,0,86,2,NA
fcp-trial,120,570572,0.0-95.0-0.0,voc_e2,11907,"[{""event"":""fullscreenenter"",""trial"":1,""time"":2080}]",NA,NA,NA,NA,NA,0,#FA92F8,#1CD855,0,10,0,38,1,758.9000000022352,39,0,438.1000000014901,10,1,experiment,NA,NA,0,0.1,0.9,1,0,87,2,NA
fcp-trial,121,574340,0.0-96.0-0.0,voc_e2,11907,"[{""event"":""fullscreenenter"",""trial"":1,""time"":2080}]",NA,NA,NA,NA,NA,0,#741CD8,#D8271C,0,10,1,38,1,1715.2000000029802,39,0,542.7999999970198,10,0,experiment,NA,NA,2,0.5,0.5,4,5,88,2,NA
fcp-trial,122,577561,0.0-97.0-0.0,voc_e2,11907,"[{""event"":""fullscreenenter"",""trial"":1,""time"":2080}]",NA,NA,NA,NA,NA,4,#1CD855,#FA92F8,10,0,1,38,1,757.6999999992549,37,1,954.3000000007452,10,1,experiment,NA,NA,0,0.9,0.1,0,1,89,2,NA
fcp-trial,123,581095,0.0-98.0-0.0,voc_e2,11907,"[{""event"":""fullscreenenter"",""trial"":1,""time"":2080}]",NA,NA,NA,NA,NA,0,#D89F1C,#3386FF,10,0,1,38,1,748.8000000007451,37,1,1279.300000000745,10,1,experiment,NA,NA,1,0.7,0.3,2,3,90,2,NA
fcp-trial,124,583821,0.0-99.0-0.0,voc_e2,11907,"[{""event"":""fullscreenenter"",""trial"":1,""time"":2080}]",NA,NA,NA,NA,NA,1,#D89F1C,#3386FF,10,0,1,38,1,546.1999999992549,37,1,671.4000000022352,10,1,experiment,NA,NA,1,0.7,0.3,2,3,91,3,NA
fcp-trial,125,586523,0.0-100.0-0.0,voc_e2,11907,"[{""event"":""fullscreenenter"",""trial"":1,""time"":2080}]",NA,NA,NA,NA,NA,6,#FA92F8,#1CD855,0,10,0,38,1,719.3999999985099,39,0,475.80000000074506,10,1,experiment,NA,NA,0,0.1,0.9,1,0,92,3,NA
fcp-trial,126,589249,0.0-101.0-0.0,voc_e2,11907,"[{""event"":""fullscreenenter"",""trial"":1,""time"":2080}]",NA,NA,NA,NA,NA,5,#D8271C,#741CD8,0,0,0,38,1,756.7000000029802,37,1,459,0,0,experiment,NA,NA,2,0.5,0.5,5,4,93,3,NA
fcp-trial,127,591794,0.0-102.0-0.0,voc_e2,11907,"[{""event"":""fullscreenenter"",""trial"":1,""time"":2080}]",NA,NA,NA,NA,NA,5,#D89F1C,#3386FF,10,10,1,38,1,517.8000000007451,37,1,520.1000000014901,10,1,experiment,NA,NA,1,0.7,0.3,2,3,94,3,NA
fcp-trial,128,594717,0.0-103.0-0.0,voc_e2,11907,"[{""event"":""fullscreenenter"",""trial"":1,""time"":2080}]",NA,NA,NA,NA,NA,1,#741CD8,#D8271C,10,0,1,38,1,564.4000000022352,39,0,850.8999999985099,0,0,experiment,NA,NA,2,0.5,0.5,4,5,95,3,NA
fcp-trial,129,597246,0.0-104.0-0.0,voc_e2,11907,"[{""event"":""fullscreenenter"",""trial"":1,""time"":2080}]",NA,NA,NA,NA,NA,2,#FA92F8,#1CD855,10,10,0,38,1,630.7999999970198,39,0,391.30000000074506,10,1,experiment,NA,NA,0,0.1,0.9,1,0,96,3,NA
fcp-trial,130,600761,0.0-105.0-0.0,voc_e2,11907,"[{""event"":""fullscreenenter"",""trial"":1,""time"":2080}]",NA,NA,NA,NA,NA,4,#741CD8,#D8271C,0,10,1,38,1,954.7999999970198,39,0,1055,10,0,experiment,NA,NA,2,0.5,0.5,4,5,97,3,NA
fcp-trial,131,603536,0.0-106.0-0.0,voc_e2,11907,"[{""event"":""fullscreenenter"",""trial"":1,""time"":2080}]",NA,NA,NA,NA,NA,6,#D89F1C,#3386FF,10,0,1,38,1,665.1999999992549,37,1,600.3000000007451,10,1,experiment,NA,NA,1,0.7,0.3,2,3,98,3,NA
fcp-trial,132,606149,0.0-107.0-0.0,voc_e2,11907,"[{""event"":""fullscreenenter"",""trial"":1,""time"":2080}]",NA,NA,NA,NA,NA,1,#FA92F8,#1CD855,10,10,0,38,1,624.3999999985099,39,0,481.4000000022352,10,1,experiment,NA,NA,0,0.1,0.9,1,0,99,3,NA
fcp-trial,133,608978,0.0-108.0-0.0,voc_e2,11907,"[{""event"":""fullscreenenter"",""trial"":1,""time"":2080}]",NA,NA,NA,NA,NA,2,#3386FF,#D89F1C,0,10,0,38,1,673.1999999992549,39,0,649.6000000014901,10,1,experiment,NA,NA,1,0.3,0.7,3,2,100,3,NA
fcp-trial,134,611776,0.0-109.0-0.0,voc_e2,11907,"[{""event"":""fullscreenenter"",""trial"":1,""time"":2080}]",NA,NA,NA,NA,NA,2,#D8271C,#741CD8,10,10,0,38,1,853.3999999985099,37,1,438.8999999985099,10,0,experiment,NA,NA,2,0.5,0.5,5,4,101,3,NA
fcp-trial,135,614345,0.0-110.0-0.0,voc_e2,11907,"[{""event"":""fullscreenenter"",""trial"":1,""time"":2080}]",NA,NA,NA,NA,NA,3,#D8271C,#741CD8,0,10,0,38,1,532.6999999992549,37,1,529.8999999985099,0,0,experiment,NA,NA,2,0.5,0.5,5,4,102,3,NA
fcp-trial,136,617188,0.0-111.0-0.0,voc_e2,11907,"[{""event"":""fullscreenenter"",""trial"":1,""time"":2080}]",NA,NA,NA,NA,NA,4,#D89F1C,#3386FF,0,0,1,38,1,638.1999999992549,37,1,697.5,0,1,experiment,NA,NA,1,0.7,0.3,2,3,103,3,NA
fcp-trial,137,619905,0.0-112.0-0.0,voc_e2,11907,"[{""event"":""fullscreenenter"",""trial"":1,""time"":2080}]",NA,NA,NA,NA,NA,3,#1CD855,#FA92F8,10,0,1,38,1,616,37,1,591.8000000007451,10,1,experiment,NA,NA,0,0.9,0.1,0,1,104,3,NA
fcp-trial,138,623022,0.0-113.0-0.0,voc_e2,11907,"[{""event"":""fullscreenenter"",""trial"":1,""time"":2080}]",NA,NA,NA,NA,NA,6,#741CD8,#D8271C,0,10,1,38,1,1182.800000000745,39,0,426.1000000014901,10,0,experiment,NA,NA,2,0.5,0.5,4,5,105,3,NA
audio-instructions,139,628042,0.0-114.0,voc_e2,11907,"[{""event"":""fullscreenenter"",""trial"":1,""time"":2080}]",NA,548,static/audio/pause.wav,NA,0,NA,NA,NA,NA,NA,NA,NA,NA,NA,NA,NA,NA,NA,NA,NA,NA,NA,NA,NA,NA,NA,NA,NA,NA,NA
fcp-trial,140,631472,0.0-115.0-0.0,voc_e2,11907,"[{""event"":""fullscreenenter"",""trial"":1,""time"":2080}]",NA,NA,NA,NA,NA,2,#D89F1C,#3386FF,10,0,1,38,1,1542.5,37,1,378.1000000014901,10,1,experiment,NA,NA,1,0.7,0.3,2,3,106,3,NA
fcp-trial,141,634069,0.0-116.0-0.0,voc_e2,11907,"[{""event"":""fullscreenenter"",""trial"":1,""time"":2080}]",NA,NA,NA,NA,NA,6,#741CD8,#D8271C,0,10,1,38,1,594.5999999977648,39,0,494,10,0,experiment,NA,NA,2,0.5,0.5,4,5,107,3,NA
fcp-trial,142,637267,0.0-117.0-0.0,voc_e2,11907,"[{""event"":""fullscreenenter"",""trial"":1,""time"":2080}]",NA,NA,NA,NA,NA,1,#1CD855,#FA92F8,0,0,1,38,1,1218.199999999255,37,1,469.5999999977648,0,1,experiment,NA,NA,0,0.9,0.1,0,1,108,3,NA
fcp-trial,143,639844,0.0-118.0-0.0,voc_e2,11907,"[{""event"":""fullscreenenter"",""trial"":1,""time"":2080}]",NA,NA,NA,NA,NA,0,#D89F1C,#3386FF,10,0,1,38,1,510.30000000074506,37,1,559.8000000007451,10,1,experiment,NA,NA,1,0.7,0.3,2,3,109,3,NA
fcp-trial,144,642352,0.0-119.0-0.0,voc_e2,11907,"[{""event"":""fullscreenenter"",""trial"":1,""time"":2080}]",NA,NA,NA,NA,NA,4,#FA92F8,#1CD855,10,10,0,38,1,522,39,0,480.79999999701977,10,1,experiment,NA,NA,0,0.1,0.9,1,0,110,3,NA
fcp-trial,145,644960,0.0-120.0-0.0,voc_e2,11907,"[{""event"":""fullscreenenter"",""trial"":1,""time"":2080}]",NA,NA,NA,NA,NA,6,#1CD855,#FA92F8,10,0,1,38,1,688,37,1,415.6000000014901,10,1,experiment,NA,NA,0,0.9,0.1,0,1,111,3,NA
fcp-trial,146,647370,0.0-121.0-0.0,voc_e2,11907,"[{""event"":""fullscreenenter"",""trial"":1,""time"":2080}]",NA,NA,NA,NA,NA,5,#741CD8,#D8271C,10,10,1,38,1,486.9000000022352,39,0,416.8999999985099,10,0,experiment,NA,NA,2,0.5,0.5,4,5,112,3,NA
fcp-trial,147,650559,0.0-122.0-0.0,voc_e2,11907,"[{""event"":""fullscreenenter"",""trial"":1,""time"":2080}]",NA,NA,NA,NA,NA,6,#3386FF,#D89F1C,0,10,0,38,1,776.2000000029802,39,0,905.9000000022352,10,1,experiment,NA,NA,1,0.3,0.7,3,2,113,3,NA
fcp-trial,148,653044,0.0-123.0-0.0,voc_e2,11907,"[{""event"":""fullscreenenter"",""trial"":1,""time"":2080}]",NA,NA,NA,NA,NA,3,#3386FF,#D89F1C,0,10,0,38,1,570,39,0,408.69999999925494,10,1,experiment,NA,NA,1,0.3,0.7,3,2,114,3,NA
fcp-trial,149,655522,0.0-124.0-0.0,voc_e2,11907,"[{""event"":""fullscreenenter"",""trial"":1,""time"":2080}]",NA,NA,NA,NA,NA,3,#FA92F8,#1CD855,0,10,0,38,1,528,39,0,444.5,10,1,experiment,NA,NA,0,0.1,0.9,1,0,115,3,NA
fcp-trial,150,657910,0.0-125.0-0.0,voc_e2,11907,"[{""event"":""fullscreenenter"",""trial"":1,""time"":2080}]",NA,NA,NA,NA,NA,2,#FA92F8,#1CD855,0,10,0,38,1,436.80000000074506,39,0,442.80000000074506,10,1,experiment,NA,NA,0,0.1,0.9,1,0,116,3,NA
fcp-trial,151,660435,0.0-126.0-0.0,voc_e2,11907,"[{""event"":""fullscreenenter"",""trial"":1,""time"":2080}]",NA,NA,NA,NA,NA,1,#741CD8,#D8271C,10,0,1,38,1,553.3000000007451,39,0,460.5,0,0,experiment,NA,NA,2,0.5,0.5,4,5,117,3,NA
fcp-trial,152,662879,0.0-127.0-0.0,voc_e2,11907,"[{""event"":""fullscreenenter"",""trial"":1,""time"":2080}]",NA,NA,NA,NA,NA,4,#D89F1C,#3386FF,0,0,1,38,1,501.6000000014901,37,1,434.6000000014901,0,1,experiment,NA,NA,1,0.7,0.3,2,3,118,3,NA
fcp-trial,153,665387,0.0-128.0-0.0,voc_e2,11907,"[{""event"":""fullscreenenter"",""trial"":1,""time"":2080}]",NA,NA,NA,NA,NA,4,#D8271C,#741CD8,10,0,0,38,1,471.4000000022352,37,1,529.1999999992549,10,0,experiment,NA,NA,2,0.5,0.5,5,4,119,3,NA
fcp-trial,154,668226,0.0-129.0-0.0,voc_e2,11907,"[{""event"":""fullscreenenter"",""trial"":1,""time"":2080}]",NA,NA,NA,NA,NA,5,#FA92F8,#1CD855,0,10,0,38,1,572.0999999977648,39,0,758.1999999992549,10,1,experiment,NA,NA,0,0.1,0.9,1,0,120,3,NA
fcp-trial,155,670694,0.0-130.0-0.0,voc_e2,11907,"[{""event"":""fullscreenenter"",""trial"":1,""time"":2080}]",NA,NA,NA,NA,NA,1,#3386FF,#D89F1C,0,10,0,38,1,483.79999999701977,39,0,476.6000000014901,10,1,experiment,NA,NA,1,0.3,0.7,3,2,121,3,NA
fcp-trial,156,673134,0.0-131.0-0.0,voc_e2,11907,"[{""event"":""fullscreenenter"",""trial"":1,""time"":2080}]",NA,NA,NA,NA,NA,0,#FA92F8,#1CD855,0,0,0,38,1,483.19999999925494,39,0,447.80000000074506,0,1,experiment,NA,NA,0,0.1,0.9,1,0,122,3,NA
fcp-trial,157,676010,0.0-132.0-0.0,voc_e2,11907,"[{""event"":""fullscreenenter"",""trial"":1,""time"":2080}]",NA,NA,NA,NA,NA,5,#D89F1C,#3386FF,0,0,1,38,1,560.3000000007451,37,1,806.8000000007451,0,1,experiment,NA,NA,1,0.7,0.3,2,3,123,3,NA
fcp-trial,158,678463,0.0-133.0-0.0,voc_e2,11907,"[{""event"":""fullscreenenter"",""trial"":1,""time"":2080}]",NA,NA,NA,NA,NA,2,#741CD8,#D8271C,0,10,1,38,1,500.0999999977648,39,0,444.8999999985099,10,0,experiment,NA,NA,2,0.5,0.5,4,5,124,3,NA
fcp-trial,159,681060,0.0-134.0-0.0,voc_e2,11907,"[{""event"":""fullscreenenter"",""trial"":1,""time"":2080}]",NA,NA,NA,NA,NA,0,#741CD8,#D8271C,0,0,1,38,1,535.3999999985099,39,0,555.3000000007451,0,0,experiment,NA,NA,2,0.5,0.5,4,5,125,3,NA
fcp-trial,160,683542,0.0-135.0-0.0,voc_e2,11907,"[{""event"":""fullscreenenter"",""trial"":1,""time"":2080}]",NA,NA,NA,NA,NA,3,#741CD8,#D8271C,0,0,1,38,1,479,39,0,496.5999999977648,0,0,experiment,NA,NA,2,0.5,0.5,4,5,126,3,NA
fcp-trial,161,686083,0.0-136.0-0.0,voc_e2,11907,"[{""event"":""fullscreenenter"",""trial"":1,""time"":2080}]",NA,NA,NA,NA,NA,4,#D89F1C,#3386FF,10,0,1,38,1,578.1000000014901,37,1,454.4000000022352,10,1,experiment,NA,NA,1,0.7,0.3,2,3,127,3,NA
fcp-trial,162,688554,0.0-137.0-0.0,voc_e2,11907,"[{""event"":""fullscreenenter"",""trial"":1,""time"":2080}]",NA,NA,NA,NA,NA,1,#FA92F8,#1CD855,0,0,0,38,1,440.1000000014901,39,0,525.3000000007451,0,1,experiment,NA,NA,0,0.1,0.9,1,0,128,3,NA
fcp-trial,163,691020,0.0-138.0-0.0,voc_e2,11907,"[{""event"":""fullscreenenter"",""trial"":1,""time"":2080}]",NA,NA,NA,NA,NA,0,#1CD855,#FA92F8,10,0,1,38,1,509.80000000074506,37,1,449.1000000014901,10,1,experiment,NA,NA,0,0.9,0.1,0,1,129,3,NA
fcp-trial,164,693608,0.0-139.0-0.0,voc_e2,11907,"[{""event"":""fullscreenenter"",""trial"":1,""time"":2080}]",NA,NA,NA,NA,NA,3,#D8271C,#741CD8,0,10,0,38,1,515.6999999992549,37,1,564.9000000022352,0,0,experiment,NA,NA,2,0.5,0.5,5,4,130,3,NA
fcp-trial,165,696120,0.0-140.0-0.0,voc_e2,11907,"[{""event"":""fullscreenenter"",""trial"":1,""time"":2080}]",NA,NA,NA,NA,NA,3,#3386FF,#D89F1C,0,10,0,38,1,596.6999999992549,39,0,408.8999999985099,10,1,experiment,NA,NA,1,0.3,0.7,3,2,131,3,NA
fcp-trial,166,699114,0.0-141.0-0.0,voc_e2,11907,"[{""event"":""fullscreenenter"",""trial"":1,""time"":2080}]",NA,NA,NA,NA,NA,5,#3386FF,#D89F1C,0,0,0,38,1,546.5,39,0,940.39999999851,0,1,experiment,NA,NA,1,0.3,0.7,3,2,132,3,NA
fcp-trial,167,701863,0.0-142.0-0.0,voc_e2,11907,"[{""event"":""fullscreenenter"",""trial"":1,""time"":2080}]",NA,NA,NA,NA,NA,2,#FA92F8,#1CD855,0,10,0,38,1,939.1000000014901,39,0,301.70000000298023,10,1,experiment,NA,NA,0,0.1,0.9,1,0,133,3,NA
fcp-trial,168,704412,0.0-143.0-0.0,voc_e2,11907,"[{""event"":""fullscreenenter"",""trial"":1,""time"":2080}]",NA,NA,NA,NA,NA,4,#FA92F8,#1CD855,0,10,0,38,1,566.8999999985099,39,0,476,10,1,experiment,NA,NA,0,0.1,0.9,1,0,134,3,NA
fcp-trial,169,706858,0.0-144.0-0.0,voc_e2,11907,"[{""event"":""fullscreenenter"",""trial"":1,""time"":2080}]",NA,NA,NA,NA,NA,1,#741CD8,#D8271C,10,0,1,38,1,545.3000000007451,39,0,394.5,0,0,experiment,NA,NA,2,0.5,0.5,4,5,135,3,NA
fcp-trial,170,709461,0.0-145.0-0.0,voc_e2,11907,"[{""event"":""fullscreenenter"",""trial"":1,""time"":2080}]",NA,NA,NA,NA,NA,6,#3386FF,#D89F1C,0,10,0,38,1,647.5,39,0,448.3999999985099,10,1,experiment,NA,NA,1,0.3,0.7,3,2,136,4,NA
fcp-trial,171,711969,0.0-146.0-0.0,voc_e2,11907,"[{""event"":""fullscreenenter"",""trial"":1,""time"":2080}]",NA,NA,NA,NA,NA,5,#FA92F8,#1CD855,0,10,0,38,1,597.5,39,0,400.3999999985099,10,1,experiment,NA,NA,0,0.1,0.9,1,0,137,4,NA
fcp-trial,172,714562,0.0-147.0-0.0,voc_e2,11907,"[{""event"":""fullscreenenter"",""trial"":1,""time"":2080}]",NA,NA,NA,NA,NA,0,#741CD8,#D8271C,10,10,1,38,1,582.1999999992549,39,0,502,10,0,experiment,NA,NA,2,0.5,0.5,4,5,138,4,NA
fcp-trial,173,717198,0.0-148.0-0.0,voc_e2,11907,"[{""event"":""fullscreenenter"",""trial"":1,""time"":2080}]",NA,NA,NA,NA,NA,6,#D8271C,#741CD8,0,10,0,38,1,627,37,1,501.3999999985099,0,0,experiment,NA,NA,2,0.5,0.5,5,4,139,4,NA
fcp-trial,174,719593,0.0-149.0-0.0,voc_e2,11907,"[{""event"":""fullscreenenter"",""trial"":1,""time"":2080}]",NA,NA,NA,NA,NA,6,#FA92F8,#1CD855,0,10,0,38,1,539.8999999985099,39,0,349.3999999985099,10,1,experiment,NA,NA,0,0.1,0.9,1,0,140,4,NA
fcp-trial,175,722813,0.0-150.0-0.0,voc_e2,11907,"[{""event"":""fullscreenenter"",""trial"":1,""time"":2080}]",NA,NA,NA,NA,NA,0,#3386FF,#D89F1C,0,10,0,38,1,721.8999999985099,39,0,990.39999999851,10,1,experiment,NA,NA,1,0.3,0.7,3,2,141,4,NA
fcp-trial,176,725228,0.0-151.0-0.0,voc_e2,11907,"[{""event"":""fullscreenenter"",""trial"":1,""time"":2080}]",NA,NA,NA,NA,NA,2,#D89F1C,#3386FF,10,0,1,38,1,483.1000000014901,37,1,424.69999999925494,10,1,experiment,NA,NA,1,0.7,0.3,2,3,142,4,NA
fcp-trial,177,728786,0.0-152.0-0.0,voc_e2,11907,"[{""event"":""fullscreenenter"",""trial"":1,""time"":2080}]",NA,NA,NA,NA,NA,2,#D8271C,#741CD8,10,0,0,38,1,1461.1000000014901,37,1,590.2000000029802,10,0,experiment,NA,NA,2,0.5,0.5,5,4,143,4,NA
fcp-trial,178,731560,0.0-153.0-0.0,voc_e2,11907,"[{""event"":""fullscreenenter"",""trial"":1,""time"":2080}]",NA,NA,NA,NA,NA,3,#FA92F8,#1CD855,0,10,0,38,1,523.5999999977648,39,0,742.3000000007451,10,1,experiment,NA,NA,0,0.1,0.9,1,0,144,4,NA
fcp-trial,179,734426,0.0-154.0-0.0,voc_e2,11907,"[{""event"":""fullscreenenter"",""trial"":1,""time"":2080}]",NA,NA,NA,NA,NA,4,#741CD8,#D8271C,10,10,1,38,1,963.2999999970198,39,0,397.3999999985099,10,0,experiment,NA,NA,2,0.5,0.5,4,5,145,4,NA
fcp-trial,180,737236,0.0-155.0-0.0,voc_e2,11907,"[{""event"":""fullscreenenter"",""trial"":1,""time"":2080}]",NA,NA,NA,NA,NA,5,#D8271C,#741CD8,0,10,0,38,1,844.7999999970198,37,1,458.69999999925494,0,0,experiment,NA,NA,2,0.5,0.5,5,4,146,4,NA
fcp-trial,181,739941,0.0-156.0-0.0,voc_e2,11907,"[{""event"":""fullscreenenter"",""trial"":1,""time"":2080}]",NA,NA,NA,NA,NA,1,#3386FF,#D89F1C,0,0,0,38,1,505.8999999985099,39,0,689.8000000007451,0,1,experiment,NA,NA,1,0.3,0.7,3,2,147,4,NA
fcp-trial,182,742327,0.0-157.0-0.0,voc_e2,11907,"[{""event"":""fullscreenenter"",""trial"":1,""time"":2080}]",NA,NA,NA,NA,NA,5,#D89F1C,#3386FF,10,10,1,38,1,451.19999999925494,37,1,427.70000000298023,10,1,experiment,NA,NA,1,0.7,0.3,2,3,148,4,NA
fcp-trial,183,745027,0.0-158.0-0.0,voc_e2,11907,"[{""event"":""fullscreenenter"",""trial"":1,""time"":2080}]",NA,NA,NA,NA,NA,5,#FA92F8,#1CD855,0,10,0,38,1,701.1999999992549,39,0,492.3999999985099,10,1,experiment,NA,NA,0,0.1,0.9,1,0,149,4,NA
fcp-trial,184,747577,0.0-159.0-0.0,voc_e2,11907,"[{""event"":""fullscreenenter"",""trial"":1,""time"":2080}]",NA,NA,NA,NA,NA,0,#D89F1C,#3386FF,0,10,1,38,1,633.3000000007451,37,1,409,0,1,experiment,NA,NA,1,0.7,0.3,2,3,150,4,NA
fcp-trial,185,750201,0.0-160.0-0.0,voc_e2,11907,"[{""event"":""fullscreenenter"",""trial"":1,""time"":2080}]",NA,NA,NA,NA,NA,0,#D8271C,#741CD8,0,0,0,38,1,655.5999999977648,37,1,461,0,0,experiment,NA,NA,2,0.5,0.5,5,4,151,4,NA
fcp-trial,186,753093,0.0-161.0-0.0,voc_e2,11907,"[{""event"":""fullscreenenter"",""trial"":1,""time"":2080}]",NA,NA,NA,NA,NA,4,#D89F1C,#3386FF,10,0,1,38,1,512.5,37,1,872.1000000014901,10,1,experiment,NA,NA,1,0.7,0.3,2,3,152,4,NA
fcp-trial,187,757026,0.0-162.0-0.0,voc_e2,11907,"[{""event"":""fullscreenenter"",""trial"":1,""time"":2080}]",NA,NA,NA,NA,NA,6,#D89F1C,#3386FF,0,0,1,38,1,1895.5,37,1,529.6999999992549,0,1,experiment,NA,NA,1,0.7,0.3,2,3,153,4,NA
fcp-trial,188,759386,0.0-163.0-0.0,voc_e2,11907,"[{""event"":""fullscreenenter"",""trial"":1,""time"":2080}]",NA,NA,NA,NA,NA,3,#FA92F8,#1CD855,0,0,0,38,1,524.1999999992549,39,0,331,0,1,experiment,NA,NA,0,0.1,0.9,1,0,154,4,NA
fcp-trial,189,761827,0.0-164.0-0.0,voc_e2,11907,"[{""event"":""fullscreenenter"",""trial"":1,""time"":2080}]",NA,NA,NA,NA,NA,4,#1CD855,#FA92F8,10,0,1,38,1,499.3999999985099,37,1,434,10,1,experiment,NA,NA,0,0.9,0.1,0,1,155,4,NA
fcp-trial,190,764610,0.0-165.0-0.0,voc_e2,11907,"[{""event"":""fullscreenenter"",""trial"":1,""time"":2080}]",NA,NA,NA,NA,NA,4,#741CD8,#D8271C,10,10,1,38,1,711.6999999992549,39,0,564.5,10,0,experiment,NA,NA,2,0.5,0.5,4,5,156,4,NA
fcp-trial,191,767053,0.0-166.0-0.0,voc_e2,11907,"[{""event"":""fullscreenenter"",""trial"":1,""time"":2080}]",NA,NA,NA,NA,NA,6,#741CD8,#D8271C,10,10,1,38,1,521.6000000014901,39,0,413.1000000014901,10,0,experiment,NA,NA,2,0.5,0.5,4,5,157,4,NA
fcp-trial,192,769992,0.0-167.0-0.0,voc_e2,11907,"[{""event"":""fullscreenenter"",""trial"":1,""time"":2080}]",NA,NA,NA,NA,NA,2,#D89F1C,#3386FF,0,10,1,38,1,683.5,37,1,748.1999999992549,0,1,experiment,NA,NA,1,0.7,0.3,2,3,158,4,NA
fcp-trial,193,772409,0.0-168.0-0.0,voc_e2,11907,"[{""event"":""fullscreenenter"",""trial"":1,""time"":2080}]",NA,NA,NA,NA,NA,6,#FA92F8,#1CD855,10,10,0,38,1,530.3999999985099,39,0,378.8999999985099,10,1,experiment,NA,NA,0,0.1,0.9,1,0,159,4,NA
fcp-trial,194,774867,0.0-169.0-0.0,voc_e2,11907,"[{""event"":""fullscreenenter"",""trial"":1,""time"":2080}]",NA,NA,NA,NA,NA,5,#D8271C,#741CD8,10,0,0,38,1,514.6000000014901,37,1,436.80000000074506,10,0,experiment,NA,NA,2,0.5,0.5,5,4,160,4,NA
fcp-trial,195,777268,0.0-170.0-0.0,voc_e2,11907,"[{""event"":""fullscreenenter"",""trial"":1,""time"":2080}]",NA,NA,NA,NA,NA,1,#1CD855,#FA92F8,10,0,1,38,1,486.30000000074506,37,1,404.5999999977648,10,1,experiment,NA,NA,0,0.9,0.1,0,1,161,4,NA
fcp-trial,196,780096,0.0-171.0-0.0,voc_e2,11907,"[{""event"":""fullscreenenter"",""trial"":1,""time"":2080}]",NA,NA,NA,NA,NA,1,#3386FF,#D89F1C,0,0,0,38,1,774.5,39,0,543.0999999977648,0,1,experiment,NA,NA,1,0.3,0.7,3,2,162,4,NA
fcp-trial,197,782944,0.0-172.0-0.0,voc_e2,11907,"[{""event"":""fullscreenenter"",""trial"":1,""time"":2080}]",NA,NA,NA,NA,NA,3,#D8271C,#741CD8,10,0,0,38,1,540.3000000007451,37,1,800.5,10,0,experiment,NA,NA,2,0.5,0.5,5,4,163,4,NA
fcp-trial,198,785424,0.0-173.0-0.0,voc_e2,11907,"[{""event"":""fullscreenenter"",""trial"":1,""time"":2080}]",NA,NA,NA,NA,NA,0,#FA92F8,#1CD855,0,10,0,38,1,617.6000000014901,39,0,355.9000000022352,10,1,experiment,NA,NA,0,0.1,0.9,1,0,164,4,NA
fcp-trial,199,788126,0.0-174.0-0.0,voc_e2,11907,"[{""event"":""fullscreenenter"",""trial"":1,""time"":2080}]",NA,NA,NA,NA,NA,2,#FA92F8,#1CD855,0,10,0,38,1,750.8000000007451,39,0,444.80000000074506,10,1,experiment,NA,NA,0,0.1,0.9,1,0,165,4,NA
fcp-trial,200,790646,0.0-175.0-0.0,voc_e2,11907,"[{""event"":""fullscreenenter"",""trial"":1,""time"":2080}]",NA,NA,NA,NA,NA,1,#741CD8,#D8271C,0,10,1,38,1,602.6000000014901,39,0,408.1000000014901,10,0,experiment,NA,NA,2,0.5,0.5,4,5,166,4,NA
fcp-trial,201,793611,0.0-176.0-0.0,voc_e2,11907,"[{""event"":""fullscreenenter"",""trial"":1,""time"":2080}]",NA,NA,NA,NA,NA,3,#3386FF,#D89F1C,10,0,0,38,1,1080.5999999977648,39,0,375.19999999925494,0,1,experiment,NA,NA,1,0.3,0.7,3,2,167,4,NA
fcp-trial,202,796540,0.0-177.0-0.0,voc_e2,11907,"[{""event"":""fullscreenenter"",""trial"":1,""time"":2080}]",NA,NA,NA,NA,NA,2,#D8271C,#741CD8,10,0,0,38,1,957.1999999992549,37,1,464.80000000074506,10,0,experiment,NA,NA,2,0.5,0.5,5,4,168,4,NA
fcp-trial,203,798942,0.0-178.0-0.0,voc_e2,11907,"[{""event"":""fullscreenenter"",""trial"":1,""time"":2080}]",NA,NA,NA,NA,NA,1,#FA92F8,#1CD855,0,10,0,38,1,455.3999999985099,39,0,440.19999999925494,10,1,experiment,NA,NA,0,0.1,0.9,1,0,169,4,NA
fcp-trial,204,801376,0.0-179.0-0.0,voc_e2,11907,"[{""event"":""fullscreenenter"",""trial"":1,""time"":2080}]",NA,NA,NA,NA,NA,5,#1CD855,#FA92F8,10,0,1,38,1,556.8999999985099,37,1,371.3999999985099,10,1,experiment,NA,NA,0,0.9,0.1,0,1,170,4,NA
fcp-trial,205,803718,0.0-180.0-0.0,voc_e2,11907,"[{""event"":""fullscreenenter"",""trial"":1,""time"":2080}]",NA,NA,NA,NA,NA,0,#3386FF,#D89F1C,10,10,0,38,1,496.0999999977648,39,0,339.6000000014901,10,1,experiment,NA,NA,1,0.3,0.7,3,2,171,4,NA
fcp-trial,206,806518,0.0-181.0-0.0,voc_e2,11907,"[{""event"":""fullscreenenter"",""trial"":1,""time"":2080}]",NA,NA,NA,NA,NA,1,#D89F1C,#3386FF,0,10,1,38,1,603.3000000007451,37,1,687.0999999977648,0,1,experiment,NA,NA,1,0.7,0.3,2,3,172,4,NA
fcp-trial,207,808742,0.0-182.0-0.0,voc_e2,11907,"[{""event"":""fullscreenenter"",""trial"":1,""time"":2080}]",NA,NA,NA,NA,NA,4,#FA92F8,#1CD855,0,10,0,38,1,331.4000000022352,39,0,384.5,10,1,experiment,NA,NA,0,0.1,0.9,1,0,173,4,NA
fcp-trial,208,811774,0.0-183.0-0.0,voc_e2,11907,"[{""event"":""fullscreenenter"",""trial"":1,""time"":2080}]",NA,NA,NA,NA,NA,1,#D8271C,#741CD8,0,0,0,38,1,1193.9000000022352,37,1,331.5,0,0,experiment,NA,NA,2,0.5,0.5,5,4,174,4,NA
fcp-trial,209,815352,0.0-184.0-0.0,voc_e2,11907,"[{""event"":""fullscreenenter"",""trial"":1,""time"":2080}]",NA,NA,NA,NA,NA,4,#3386FF,#D89F1C,10,0,0,38,1,1761.1000000014901,39,0,309.6000000014901,0,1,experiment,NA,NA,1,0.3,0.7,3,2,175,4,NA
fcp-trial,210,818545,0.0-185.0-0.0,voc_e2,11907,"[{""event"":""fullscreenenter"",""trial"":1,""time"":2080}]",NA,NA,NA,NA,NA,0,#1CD855,#FA92F8,10,0,1,38,1,915.8999999985099,37,1,768.3000000007451,10,1,experiment,NA,NA,0,0.9,0.1,0,1,176,4,NA
fcp-trial,211,822407,0.0-186.0-0.0,voc_e2,11907,"[{""event"":""fullscreenenter"",""trial"":1,""time"":2080}]",NA,NA,NA,NA,NA,2,#741CD8,#D8271C,0,10,1,38,1,1927,39,0,427,10,0,experiment,NA,NA,2,0.5,0.5,4,5,177,4,NA
fcp-trial,212,826625,0.0-187.0-0.0,voc_e2,11907,"[{""event"":""fullscreenenter"",""trial"":1,""time"":2080}]",NA,NA,NA,NA,NA,3,#3386FF,#D89F1C,0,0,0,40,0,1983.699999999255,37,1,728.3000000007451,0,0,experiment,NA,NA,1,0.3,0.7,3,2,178,4,NA
fcp-trial,213,829568,0.0-188.0-0.0,voc_e2,11907,"[{""event"":""fullscreenenter"",""trial"":1,""time"":2080}]",NA,NA,NA,NA,NA,2,#1CD855,#FA92F8,10,0,1,38,1,1135,37,1,302.30000000074506,10,1,experiment,NA,NA,0,0.9,0.1,0,1,179,4,NA
fcp-trial,214,832757,0.0-189.0-0.0,voc_e2,11907,"[{""event"":""fullscreenenter"",""trial"":1,""time"":2080}]",NA,NA,NA,NA,NA,6,#D8271C,#741CD8,10,10,0,38,1,1371.6000000014901,37,1,309.19999999925494,10,0,experiment,NA,NA,2,0.5,0.5,5,4,180,4,NA
fcp-trial,215,836551,0.0-190.0-0.0,voc_e2,11907,"[{""event"":""fullscreenenter"",""trial"":1,""time"":2080}]",NA,NA,NA,NA,NA,2,#D89F1C,#3386FF,10,0,1,38,1,1456.6000000014901,39,0,832.3999999985099,0,0,experiment,NA,NA,1,0.7,0.3,2,3,181,5,NA
fcp-trial,216,839234,0.0-191.0-0.0,voc_e2,11907,"[{""event"":""fullscreenenter"",""trial"":1,""time"":2080}]",NA,NA,NA,NA,NA,5,#D8271C,#741CD8,10,0,0,38,1,817.3000000007451,37,1,358.1000000014901,10,0,experiment,NA,NA,2,0.5,0.5,5,4,182,5,NA
fcp-trial,217,842851,0.0-192.0-0.0,voc_e2,11907,"[{""event"":""fullscreenenter"",""trial"":1,""time"":2080}]",NA,NA,NA,NA,NA,3,#FA92F8,#1CD855,0,10,0,38,1,1834,39,0,276.5,10,1,experiment,NA,NA,0,0.1,0.9,1,0,183,5,NA
fcp-trial,218,845632,0.0-193.0-0.0,voc_e2,11907,"[{""event"":""fullscreenenter"",""trial"":1,""time"":2080}]",NA,NA,NA,NA,NA,3,#D8271C,#741CD8,0,10,0,38,1,827,37,1,443.9000000022352,0,0,experiment,NA,NA,2,0.5,0.5,5,4,184,5,NA
fcp-trial,219,849007,0.0-194.0-0.0,voc_e2,11907,"[{""event"":""fullscreenenter"",""trial"":1,""time"":2080}]",NA,NA,NA,NA,NA,6,#3386FF,#D89F1C,0,0,0,40,0,1246.699999999255,39,0,621.7000000029802,0,1,experiment,NA,NA,1,0.3,0.7,3,2,185,5,NA
fcp-trial,220,852331,0.0-195.0-0.0,voc_e2,11907,"[{""event"":""fullscreenenter"",""trial"":1,""time"":2080}]",NA,NA,NA,NA,NA,0,#741CD8,#D8271C,10,10,1,38,1,1201.3999999985099,39,0,612.5,10,0,experiment,NA,NA,2,0.5,0.5,4,5,186,5,NA
fcp-trial,221,855242,0.0-196.0-0.0,voc_e2,11907,"[{""event"":""fullscreenenter"",""trial"":1,""time"":2080}]",NA,NA,NA,NA,NA,4,#D8271C,#741CD8,10,10,0,38,1,983.5,37,1,420.69999999925494,10,0,experiment,NA,NA,2,0.5,0.5,5,4,187,5,NA
fcp-trial,222,858963,0.0-197.0-0.0,voc_e2,11907,"[{""event"":""fullscreenenter"",""trial"":1,""time"":2080}]",NA,NA,NA,NA,NA,6,#FA92F8,#1CD855,0,0,0,38,1,1525.800000000745,39,0,687.0999999977648,0,1,experiment,NA,NA,0,0.1,0.9,1,0,188,5,NA
fcp-trial,223,862315,0.0-198.0-0.0,voc_e2,11907,"[{""event"":""fullscreenenter"",""trial"":1,""time"":2080}]",NA,NA,NA,NA,NA,5,#D89F1C,#3386FF,10,0,1,40,0,1261.4000000022352,39,0,580.5,0,0,experiment,NA,NA,1,0.7,0.3,2,3,189,5,NA
fcp-trial,224,865886,0.0-199.0-0.0,voc_e2,11907,"[{""event"":""fullscreenenter"",""trial"":1,""time"":2080}]",NA,NA,NA,NA,NA,4,#D89F1C,#3386FF,10,10,1,38,1,1736.199999999255,37,1,325,10,1,experiment,NA,NA,1,0.7,0.3,2,3,190,5,NA
fcp-trial,225,869607,0.0-200.0-0.0,voc_e2,11907,"[{""event"":""fullscreenenter"",""trial"":1,""time"":2080}]",NA,NA,NA,NA,NA,4,#741CD8,#D8271C,10,0,1,38,1,1591.1000000014901,39,0,622.1999999992549,0,0,experiment,NA,NA,2,0.5,0.5,4,5,191,5,NA
fcp-trial,226,873274,0.0-201.0-0.0,voc_e2,11907,"[{""event"":""fullscreenenter"",""trial"":1,""time"":2080}]",NA,NA,NA,NA,NA,5,#1CD855,#FA92F8,0,0,1,38,1,1861.0999999977648,37,1,299.69999999925494,0,1,experiment,NA,NA,0,0.9,0.1,0,1,192,5,NA
fcp-trial,227,877199,0.0-202.0-0.0,voc_e2,11907,"[{""event"":""fullscreenenter"",""trial"":1,""time"":2080}]",NA,NA,NA,NA,NA,5,#741CD8,#D8271C,0,0,1,38,1,2099.60000000149,39,0,317.5,0,0,experiment,NA,NA,2,0.5,0.5,4,5,193,5,NA
fcp-trial,228,880175,0.0-203.0-0.0,voc_e2,11907,"[{""event"":""fullscreenenter"",""trial"":1,""time"":2080}]",NA,NA,NA,NA,NA,6,#3386FF,#D89F1C,0,0,0,40,0,1024.3999999985099,39,0,442.19999999925494,0,1,experiment,NA,NA,1,0.3,0.7,3,2,194,5,NA
fcp-trial,229,884159,0.0-204.0-0.0,voc_e2,11907,"[{""event"":""fullscreenenter"",""trial"":1,""time"":2080}]",NA,NA,NA,NA,NA,1,#1CD855,#FA92F8,10,0,1,38,1,2030.699999999255,39,0,446.3999999985099,0,0,experiment,NA,NA,0,0.9,0.1,0,1,195,5,NA
fcp-trial,230,889346,0.0-205.0-0.0,voc_e2,11907,"[{""event"":""fullscreenenter"",""trial"":1,""time"":2080}]",NA,NA,NA,NA,NA,0,#3386FF,#D89F1C,0,10,0,38,1,2809.5,39,0,868,10,1,experiment,NA,NA,1,0.3,0.7,3,2,196,5,NA
fcp-trial,231,892624,0.0-206.0-0.0,voc_e2,11907,"[{""event"":""fullscreenenter"",""trial"":1,""time"":2080}]",NA,NA,NA,NA,NA,5,#3386FF,#D89F1C,0,10,0,40,0,1343.199999999255,39,0,428.1000000014901,10,1,experiment,NA,NA,1,0.3,0.7,3,2,197,5,NA
fcp-trial,232,896556,0.0-207.0-0.0,voc_e2,11907,"[{""event"":""fullscreenenter"",""trial"":1,""time"":2080}]",NA,NA,NA,NA,NA,0,#741CD8,#D8271C,10,10,1,38,1,1754,39,0,671.3000000007451,10,0,experiment,NA,NA,2,0.5,0.5,4,5,198,5,NA
fcp-trial,233,899746,0.0-208.0-0.0,voc_e2,11907,"[{""event"":""fullscreenenter"",""trial"":1,""time"":2080}]",NA,NA,NA,NA,NA,0,#1CD855,#FA92F8,10,0,1,38,1,1111.5,39,0,569.8000000007451,0,0,experiment,NA,NA,0,0.9,0.1,0,1,199,5,NA
fcp-trial,234,902450,0.0-209.0-0.0,voc_e2,11907,"[{""event"":""fullscreenenter"",""trial"":1,""time"":2080}]",NA,NA,NA,NA,NA,3,#741CD8,#D8271C,0,0,1,38,1,671.1999999992549,39,0,522.5,0,0,experiment,NA,NA,2,0.5,0.5,4,5,200,5,NA
fcp-trial,235,905815,0.0-210.0-0.0,voc_e2,11907,"[{""event"":""fullscreenenter"",""trial"":1,""time"":2080}]",NA,NA,NA,NA,NA,4,#FA92F8,#1CD855,0,10,0,38,1,1336.7999999970198,39,0,517,10,1,experiment,NA,NA,0,0.1,0.9,1,0,201,5,NA
fcp-trial,236,910440,0.0-211.0-0.0,voc_e2,11907,"[{""event"":""fullscreenenter"",""trial"":1,""time"":2080}]",NA,NA,NA,NA,NA,3,#3386FF,#D89F1C,10,10,0,38,1,2112.89999999851,39,0,1005.10000000149,10,1,experiment,NA,NA,1,0.3,0.7,3,2,202,5,NA
fcp-trial,237,913773,0.0-212.0-0.0,voc_e2,11907,"[{""event"":""fullscreenenter"",""trial"":1,""time"":2080}]",NA,NA,NA,NA,NA,2,#FA92F8,#1CD855,0,10,0,38,1,926.8000000007451,39,0,901.10000000149,10,1,experiment,NA,NA,0,0.1,0.9,1,0,203,5,NA
fcp-trial,238,917141,0.0-213.0-0.0,voc_e2,11907,"[{""event"":""fullscreenenter"",""trial"":1,""time"":2080}]",NA,NA,NA,NA,NA,2,#D8271C,#741CD8,10,10,0,38,1,1138.0999999977648,37,1,724.3999999985099,10,0,experiment,NA,NA,2,0.5,0.5,5,4,204,5,NA
fcp-trial,239,920471,0.0-214.0-0.0,voc_e2,11907,"[{""event"":""fullscreenenter"",""trial"":1,""time"":2080}]",NA,NA,NA,NA,NA,6,#D8271C,#741CD8,10,10,0,38,1,821.2999999970198,37,1,1003.3000000007452,10,0,experiment,NA,NA,2,0.5,0.5,5,4,205,5,NA
fcp-trial,240,924622,0.0-215.0-0.0,voc_e2,11907,"[{""event"":""fullscreenenter"",""trial"":1,""time"":2080}]",NA,NA,NA,NA,NA,2,#D89F1C,#3386FF,10,0,1,38,1,999,37,1,1647.10000000149,10,1,experiment,NA,NA,1,0.7,0.3,2,3,206,5,NA
fcp-trial,241,927891,0.0-216.0-0.0,voc_e2,11907,"[{""event"":""fullscreenenter"",""trial"":1,""time"":2080}]",NA,NA,NA,NA,NA,3,#FA92F8,#1CD855,0,10,0,38,1,1344.199999999255,39,0,418.4000000022352,10,1,experiment,NA,NA,0,0.1,0.9,1,0,207,5,NA
fcp-trial,242,930614,0.0-217.0-0.0,voc_e2,11907,"[{""event"":""fullscreenenter"",""trial"":1,""time"":2080}]",NA,NA,NA,NA,NA,1,#741CD8,#D8271C,0,0,1,38,1,814,39,0,400.80000000074506,0,0,experiment,NA,NA,2,0.5,0.5,4,5,208,5,NA
fcp-trial,243,934584,0.0-218.0-0.0,voc_e2,11907,"[{""event"":""fullscreenenter"",""trial"":1,""time"":2080}]",NA,NA,NA,NA,NA,1,#D89F1C,#3386FF,0,10,1,38,1,1729,37,1,734.3000000007451,0,1,experiment,NA,NA,1,0.7,0.3,2,3,209,5,NA
fcp-trial,244,937357,0.0-219.0-0.0,voc_e2,11907,"[{""event"":""fullscreenenter"",""trial"":1,""time"":2080}]",NA,NA,NA,NA,NA,6,#1CD855,#FA92F8,10,0,1,38,1,948.9000000022352,37,1,316.80000000074506,10,1,experiment,NA,NA,0,0.9,0.1,0,1,210,5,NA
audio-instructions,245,976303,0.0-220.0,voc_e2,11907,"[{""event"":""fullscreenenter"",""trial"":1,""time"":2080}]",NA,34477.199999999255,static/audio/pause.wav,NA,0,NA,NA,NA,NA,NA,NA,NA,NA,NA,NA,NA,NA,NA,NA,NA,NA,NA,NA,NA,NA,NA,NA,NA,NA,NA
fcp-trial,246,980240,0.0-221.0-0.0,voc_e2,11907,"[{""event"":""fullscreenenter"",""trial"":1,""time"":2080}]",NA,NA,NA,NA,NA,6,#D8271C,#741CD8,0,10,0,38,1,1955.5,37,1,472.9000000022352,0,0,experiment,NA,NA,2,0.5,0.5,5,4,211,5,NA
fcp-trial,247,983949,0.0-222.0-0.0,voc_e2,11907,"[{""event"":""fullscreenenter"",""trial"":1,""time"":2080}]",NA,NA,NA,NA,NA,5,#741CD8,#D8271C,10,10,1,40,0,1256.199999999255,37,1,946.89999999851,10,1,experiment,NA,NA,2,0.5,0.5,4,5,212,5,NA
fcp-trial,248,988756,0.0-223.0-0.0,voc_e2,11907,"[{""event"":""fullscreenenter"",""trial"":1,""time"":2080}]",NA,NA,NA,NA,NA,4,#3386FF,#D89F1C,10,10,0,40,0,2725.5,37,1,573.8999999985099,10,0,experiment,NA,NA,1,0.3,0.7,3,2,213,5,NA
fcp-trial,249,992517,0.0-224.0-0.0,voc_e2,11907,"[{""event"":""fullscreenenter"",""trial"":1,""time"":2080}]",NA,NA,NA,NA,NA,4,#D8271C,#741CD8,0,0,0,38,1,1840.5999999977648,37,1,413.3999999985099,0,0,experiment,NA,NA,2,0.5,0.5,5,4,214,5,NA
fcp-trial,250,996144,0.0-225.0-0.0,voc_e2,11907,"[{""event"":""fullscreenenter"",""trial"":1,""time"":2080}]",NA,NA,NA,NA,NA,6,#1CD855,#FA92F8,10,0,1,38,1,1775.6000000014901,37,1,343.70000000298023,10,1,experiment,NA,NA,0,0.9,0.1,0,1,215,5,NA
fcp-trial,251,1000029,0.0-226.0-0.0,voc_e2,11907,"[{""event"":""fullscreenenter"",""trial"":1,""time"":2080}]",NA,NA,NA,NA,NA,2,#D89F1C,#3386FF,0,0,1,38,1,1422.5,37,1,953.3000000007452,0,1,experiment,NA,NA,1,0.7,0.3,2,3,216,5,NA
fcp-trial,252,1003259,0.0-227.0-0.0,voc_e2,11907,"[{""event"":""fullscreenenter"",""trial"":1,""time"":2080}]",NA,NA,NA,NA,NA,5,#3386FF,#D89F1C,0,10,0,40,0,1221.8999999985099,39,0,500.80000000074506,10,1,experiment,NA,NA,1,0.3,0.7,3,2,217,5,NA
fcp-trial,253,1006373,0.0-228.0-0.0,voc_e2,11907,"[{""event"":""fullscreenenter"",""trial"":1,""time"":2080}]",NA,NA,NA,NA,NA,0,#1CD855,#FA92F8,10,0,1,38,1,1238.1000000014901,37,1,368.69999999925494,10,1,experiment,NA,NA,0,0.9,0.1,0,1,218,5,NA
fcp-trial,254,1009306,0.0-229.0-0.0,voc_e2,11907,"[{""event"":""fullscreenenter"",""trial"":1,""time"":2080}]",NA,NA,NA,NA,NA,3,#D8271C,#741CD8,10,10,0,38,1,1019.5,37,1,405.79999999701977,10,0,experiment,NA,NA,2,0.5,0.5,5,4,219,5,NA
fcp-trial,255,1013038,0.0-230.0-0.0,voc_e2,11907,"[{""event"":""fullscreenenter"",""trial"":1,""time"":2080}]",NA,NA,NA,NA,NA,0,#3386FF,#D89F1C,0,0,0,38,1,1722,39,0,504.80000000074506,0,1,experiment,NA,NA,1,0.3,0.7,3,2,220,5,NA
fcp-trial,256,1015974,0.0-231.0-0.0,voc_e2,11907,"[{""event"":""fullscreenenter"",""trial"":1,""time"":2080}]",NA,NA,NA,NA,NA,0,#741CD8,#D8271C,10,10,1,38,1,1003,39,0,425.1000000014901,10,0,experiment,NA,NA,2,0.5,0.5,4,5,221,5,NA
fcp-trial,257,1019120,0.0-232.0-0.0,voc_e2,11907,"[{""event"":""fullscreenenter"",""trial"":1,""time"":2080}]",NA,NA,NA,NA,NA,3,#1CD855,#FA92F8,10,0,1,38,1,1369,37,1,272,10,1,experiment,NA,NA,0,0.9,0.1,0,1,222,5,NA
fcp-trial,258,1023857,0.0-233.0-0.0,voc_e2,11907,"[{""event"":""fullscreenenter"",""trial"":1,""time"":2080}]",NA,NA,NA,NA,NA,3,#D89F1C,#3386FF,0,10,1,40,0,2684.60000000149,39,0,546,10,0,experiment,NA,NA,1,0.7,0.3,2,3,223,5,NA
fcp-trial,259,1027067,0.0-234.0-0.0,voc_e2,11907,"[{""event"":""fullscreenenter"",""trial"":1,""time"":2080}]",NA,NA,NA,NA,NA,1,#D8271C,#741CD8,10,0,0,38,1,1204.3999999985099,37,1,498,10,0,experiment,NA,NA,2,0.5,0.5,5,4,224,5,NA
fcp-trial,260,1030139,0.0-235.0-0.0,voc_e2,11907,"[{""event"":""fullscreenenter"",""trial"":1,""time"":2080}]",NA,NA,NA,NA,NA,2,#1CD855,#FA92F8,10,0,1,38,1,1063.699999999255,37,1,500.5,10,1,experiment,NA,NA,0,0.9,0.1,0,1,225,5,NA
fcp-trial,261,1033573,0.0-236.0-0.0,voc_e2,11907,"[{""event"":""fullscreenenter"",""trial"":1,""time"":2080}]",NA,NA,NA,NA,NA,4,#FA92F8,#1CD855,0,10,0,40,0,1308.800000000745,37,1,616.6000000014901,0,0,experiment,NA,NA,0,0.1,0.9,1,0,226,6,NA
fcp-trial,262,1039698,0.0-237.0-0.0,voc_e2,11907,"[{""event"":""fullscreenenter"",""trial"":1,""time"":2080}]",NA,NA,NA,NA,NA,1,#3386FF,#D89F1C,10,10,0,38,1,1080,39,0,3534.60000000149,10,1,experiment,NA,NA,1,0.3,0.7,3,2,227,6,NA
fcp-trial,263,1042840,0.0-238.0-0.0,voc_e2,11907,"[{""event"":""fullscreenenter"",""trial"":1,""time"":2080}]",NA,NA,NA,NA,NA,6,#3386FF,#D89F1C,10,0,0,40,0,1082.5999999977648,39,0,551.1000000014901,0,1,experiment,NA,NA,1,0.3,0.7,3,2,228,6,NA
fcp-trial,264,1045640,0.0-239.0-0.0,voc_e2,11907,"[{""event"":""fullscreenenter"",""trial"":1,""time"":2080}]",NA,NA,NA,NA,NA,2,#741CD8,#D8271C,10,0,1,38,1,844,39,0,449.19999999925494,0,0,experiment,NA,NA,2,0.5,0.5,4,5,229,6,NA
fcp-trial,265,1049807,0.0-240.0-0.0,voc_e2,11907,"[{""event"":""fullscreenenter"",""trial"":1,""time"":2080}]",NA,NA,NA,NA,NA,5,#1CD855,#FA92F8,10,0,1,38,1,2360,37,1,299.0999999977648,10,1,experiment,NA,NA,0,0.9,0.1,0,1,230,6,NA
fcp-trial,266,1053339,0.0-241.0-0.0,voc_e2,11907,"[{""event"":""fullscreenenter"",""trial"":1,""time"":2080}]",NA,NA,NA,NA,NA,1,#FA92F8,#1CD855,0,10,0,38,1,1537.699999999255,39,0,487.8999999985099,10,1,experiment,NA,NA,0,0.1,0.9,1,0,231,6,NA
fcp-trial,267,1056882,0.0-242.0-0.0,voc_e2,11907,"[{""event"":""fullscreenenter"",""trial"":1,""time"":2080}]",NA,NA,NA,NA,NA,2,#3386FF,#D89F1C,0,10,0,38,1,1152.1000000014901,39,0,884.7999999970198,10,1,experiment,NA,NA,1,0.3,0.7,3,2,232,6,NA
fcp-trial,268,1060170,0.0-243.0-0.0,voc_e2,11907,"[{""event"":""fullscreenenter"",""trial"":1,""time"":2080}]",NA,NA,NA,NA,NA,4,#1CD855,#FA92F8,10,0,1,38,1,974.5,37,1,805.3999999985099,10,1,experiment,NA,NA,0,0.9,0.1,0,1,233,6,NA
fcp-trial,269,1064205,0.0-244.0-0.0,voc_e2,11907,"[{""event"":""fullscreenenter"",""trial"":1,""time"":2080}]",NA,NA,NA,NA,NA,0,#741CD8,#D8271C,10,10,1,38,1,830.3000000007451,39,0,1697.7999999970198,10,0,experiment,NA,NA,2,0.5,0.5,4,5,234,6,NA
fcp-trial,270,1066672,0.0-245.0-0.0,voc_e2,11907,"[{""event"":""fullscreenenter"",""trial"":1,""time"":2080}]",NA,NA,NA,NA,NA,1,#1CD855,#FA92F8,10,0,1,38,1,517.6999999992549,37,1,440.3999999985099,10,1,experiment,NA,NA,0,0.9,0.1,0,1,235,6,NA
fcp-trial,271,1069761,0.0-246.0-0.0,voc_e2,11907,"[{""event"":""fullscreenenter"",""trial"":1,""time"":2080}]",NA,NA,NA,NA,NA,5,#D89F1C,#3386FF,10,0,1,38,1,512.2999999970198,37,1,1068.300000000745,10,1,experiment,NA,NA,1,0.7,0.3,2,3,236,6,NA
fcp-trial,272,1072682,0.0-247.0-0.0,voc_e2,11907,"[{""event"":""fullscreenenter"",""trial"":1,""time"":2080}]",NA,NA,NA,NA,NA,1,#D8271C,#741CD8,0,10,0,38,1,840.2000000029802,37,1,571.5,0,0,experiment,NA,NA,2,0.5,0.5,5,4,237,6,NA
fcp-trial,273,1075472,0.0-248.0-0.0,voc_e2,11907,"[{""event"":""fullscreenenter"",""trial"":1,""time"":2080}]",NA,NA,NA,NA,NA,3,#FA92F8,#1CD855,0,0,0,38,1,931.3000000007451,39,0,351.5,0,1,experiment,NA,NA,0,0.1,0.9,1,0,238,6,NA
fcp-trial,274,1078672,0.0-249.0-0.0,voc_e2,11907,"[{""event"":""fullscreenenter"",""trial"":1,""time"":2080}]",NA,NA,NA,NA,NA,6,#D8271C,#741CD8,10,10,0,40,0,1227.3999999985099,39,0,464.80000000074506,10,1,experiment,NA,NA,2,0.5,0.5,5,4,239,6,NA
fcp-trial,275,1082746,0.0-250.0-0.0,voc_e2,11907,"[{""event"":""fullscreenenter"",""trial"":1,""time"":2080}]",NA,NA,NA,NA,NA,3,#D89F1C,#3386FF,0,0,1,38,1,913.2000000029802,37,1,1655,0,1,experiment,NA,NA,1,0.7,0.3,2,3,240,6,NA
fcp-trial,276,1085440,0.0-251.0-0.0,voc_e2,11907,"[{""event"":""fullscreenenter"",""trial"":1,""time"":2080}]",NA,NA,NA,NA,NA,6,#D89F1C,#3386FF,10,0,1,38,1,704.3999999985099,39,0,482.5999999977648,0,0,experiment,NA,NA,1,0.7,0.3,2,3,241,6,NA
fcp-trial,277,1088888,0.0-252.0-0.0,voc_e2,11907,"[{""event"":""fullscreenenter"",""trial"":1,""time"":2080}]",NA,NA,NA,NA,NA,5,#FA92F8,#1CD855,0,10,0,40,0,1343.199999999255,37,1,597.5999999977648,0,0,experiment,NA,NA,0,0.1,0.9,1,0,242,6,NA
fcp-trial,278,1091972,0.0-253.0-0.0,voc_e2,11907,"[{""event"":""fullscreenenter"",""trial"":1,""time"":2080}]",NA,NA,NA,NA,NA,2,#741CD8,#D8271C,10,0,1,38,1,1322.699999999255,39,0,255.59999999776483,0,0,experiment,NA,NA,2,0.5,0.5,4,5,243,6,NA
fcp-trial,279,1095912,0.0-254.0-0.0,voc_e2,11907,"[{""event"":""fullscreenenter"",""trial"":1,""time"":2080}]",NA,NA,NA,NA,NA,4,#D89F1C,#3386FF,10,0,1,40,0,1992.699999999255,39,0,441.69999999925494,0,0,experiment,NA,NA,1,0.7,0.3,2,3,244,6,NA
fcp-trial,280,1099971,0.0-255.0-0.0,voc_e2,11907,"[{""event"":""fullscreenenter"",""trial"":1,""time"":2080}]",NA,NA,NA,NA,NA,6,#1CD855,#FA92F8,10,0,1,40,0,2015.5999999977648,39,0,536.0999999977648,0,0,experiment,NA,NA,0,0.9,0.1,0,1,245,6,NA
fcp-trial,281,1102978,0.0-256.0-0.0,voc_e2,11907,"[{""event"":""fullscreenenter"",""trial"":1,""time"":2080}]",NA,NA,NA,NA,NA,2,#FA92F8,#1CD855,0,10,0,38,1,1092.8999999985099,39,0,406.5,10,1,experiment,NA,NA,0,0.1,0.9,1,0,246,6,NA
fcp-trial,282,1107205,0.0-257.0-0.0,voc_e2,11907,"[{""event"":""fullscreenenter"",""trial"":1,""time"":2080}]",NA,NA,NA,NA,NA,0,#D89F1C,#3386FF,10,0,1,38,1,1556.699999999255,37,1,1159.89999999851,10,1,experiment,NA,NA,1,0.7,0.3,2,3,247,6,NA
fcp-trial,283,1110446,0.0-258.0-0.0,voc_e2,11907,"[{""event"":""fullscreenenter"",""trial"":1,""time"":2080}]",NA,NA,NA,NA,NA,4,#D8271C,#741CD8,10,0,0,38,1,1422.2000000029802,37,1,310.5,10,0,experiment,NA,NA,2,0.5,0.5,5,4,248,6,NA
fcp-trial,284,1114242,0.0-259.0-0.0,voc_e2,11907,"[{""event"":""fullscreenenter"",""trial"":1,""time"":2080}]",NA,NA,NA,NA,NA,5,#D8271C,#741CD8,0,10,0,38,1,1555.9000000022352,37,1,731.9000000022352,0,0,experiment,NA,NA,2,0.5,0.5,5,4,249,6,NA
fcp-trial,285,1117346,0.0-260.0-0.0,voc_e2,11907,"[{""event"":""fullscreenenter"",""trial"":1,""time"":2080}]",NA,NA,NA,NA,NA,0,#FA92F8,#1CD855,0,10,0,38,1,1134.699999999255,39,0,462.5999999977648,10,1,experiment,NA,NA,0,0.1,0.9,1,0,250,6,NA
fcp-trial,286,1120372,0.0-261.0-0.0,voc_e2,11907,"[{""event"":""fullscreenenter"",""trial"":1,""time"":2080}]",NA,NA,NA,NA,NA,3,#D8271C,#741CD8,0,0,0,38,1,1229.300000000745,37,1,289.5,0,0,experiment,NA,NA,2,0.5,0.5,5,4,251,6,NA
fcp-trial,287,1125471,0.0-262.0-0.0,voc_e2,11907,"[{""event"":""fullscreenenter"",""trial"":1,""time"":2080}]",NA,NA,NA,NA,NA,1,#D89F1C,#3386FF,10,10,1,38,1,1025.7999999970198,37,1,2564.800000000745,10,1,experiment,NA,NA,1,0.7,0.3,2,3,252,6,NA
fcp-trial,288,1128637,0.0-263.0-0.0,voc_e2,11907,"[{""event"":""fullscreenenter"",""trial"":1,""time"":2080}]",NA,NA,NA,NA,NA,3,#3386FF,#D89F1C,10,0,0,38,1,934.5,39,0,723.6999999992549,0,1,experiment,NA,NA,1,0.3,0.7,3,2,253,6,NA
fcp-trial,289,1131705,0.0-264.0-0.0,voc_e2,11907,"[{""event"":""fullscreenenter"",""trial"":1,""time"":2080}]",NA,NA,NA,NA,NA,0,#741CD8,#D8271C,0,0,1,38,1,1144.5999999977648,39,0,416.80000000074506,0,0,experiment,NA,NA,2,0.5,0.5,4,5,254,6,NA
fcp-trial,290,1134919,0.0-265.0-0.0,voc_e2,11907,"[{""event"":""fullscreenenter"",""trial"":1,""time"":2080}]",NA,NA,NA,NA,NA,6,#FA92F8,#1CD855,0,10,0,40,0,1088,37,1,621.0999999977648,0,0,experiment,NA,NA,0,0.1,0.9,1,0,255,6,NA
fcp-trial,291,1138068,0.0-266.0-0.0,voc_e2,11907,"[{""event"":""fullscreenenter"",""trial"":1,""time"":2080}]",NA,NA,NA,NA,NA,2,#741CD8,#D8271C,0,10,1,38,1,755.8999999985099,39,0,886.0999999977648,10,0,experiment,NA,NA,2,0.5,0.5,4,5,256,6,NA
fcp-trial,292,1141704,0.0-267.0-0.0,voc_e2,11907,"[{""event"":""fullscreenenter"",""trial"":1,""time"":2080}]",NA,NA,NA,NA,NA,1,#3386FF,#D89F1C,0,0,0,38,1,1772.9000000022352,39,0,355.69999999925494,0,1,experiment,NA,NA,1,0.3,0.7,3,2,257,6,NA
fcp-trial,293,1144314,0.0-268.0-0.0,voc_e2,11907,"[{""event"":""fullscreenenter"",""trial"":1,""time"":2080}]",NA,NA,NA,NA,NA,1,#741CD8,#D8271C,0,10,1,38,1,725,39,0,376.69999999925494,10,0,experiment,NA,NA,2,0.5,0.5,4,5,258,6,NA
fcp-trial,294,1147575,0.0-269.0-0.0,voc_e2,11907,"[{""event"":""fullscreenenter"",""trial"":1,""time"":2080}]",NA,NA,NA,NA,NA,5,#FA92F8,#1CD855,0,10,0,40,0,1197.800000000745,39,0,555.5,10,1,experiment,NA,NA,0,0.1,0.9,1,0,259,6,NA
fcp-trial,295,1150588,0.0-270.0-0.0,voc_e2,11907,"[{""event"":""fullscreenenter"",""trial"":1,""time"":2080}]",NA,NA,NA,NA,NA,4,#FA92F8,#1CD855,0,10,0,38,1,1133.699999999255,39,0,372.80000000074506,10,1,experiment,NA,NA,0,0.1,0.9,1,0,260,6,NA
fcp-trial,296,1155120,0.0-271.0-0.0,voc_e2,11907,"[{""event"":""fullscreenenter"",""trial"":1,""time"":2080}]",NA,NA,NA,NA,NA,6,#3386FF,#D89F1C,0,10,0,40,0,2533.099999997765,37,1,491.19999999925494,0,0,experiment,NA,NA,1,0.3,0.7,3,2,261,6,NA
fcp-trial,297,1158021,0.0-272.0-0.0,voc_e2,11907,"[{""event"":""fullscreenenter"",""trial"":1,""time"":2080}]",NA,NA,NA,NA,NA,4,#D89F1C,#3386FF,10,0,1,38,1,889.6000000014901,39,0,506.5999999977648,0,0,experiment,NA,NA,1,0.7,0.3,2,3,262,6,NA
fcp-trial,298,1161127,0.0-273.0-0.0,voc_e2,11907,"[{""event"":""fullscreenenter"",""trial"":1,""time"":2080}]",NA,NA,NA,NA,NA,5,#D8271C,#741CD8,10,0,0,40,0,1093,37,1,503.1000000014901,10,0,experiment,NA,NA,2,0.5,0.5,5,4,263,6,NA
fcp-trial,299,1164441,0.0-274.0-0.0,voc_e2,11907,"[{""event"":""fullscreenenter"",""trial"":1,""time"":2080}]",NA,NA,NA,NA,NA,3,#1CD855,#FA92F8,10,0,1,38,1,887.1000000014901,37,1,918,10,1,experiment,NA,NA,0,0.9,0.1,0,1,264,6,NA
fcp-trial,300,1168568,0.0-275.0-0.0,voc_e2,11907,"[{""event"":""fullscreenenter"",""trial"":1,""time"":2080}]",NA,NA,NA,NA,NA,2,#3386FF,#D89F1C,0,0,0,38,1,773.5,37,1,1844.699999999255,0,0,experiment,NA,NA,1,0.3,0.7,3,2,265,6,NA
fcp-trial,301,1171552,0.0-276.0-0.0,voc_e2,11907,"[{""event"":""fullscreenenter"",""trial"":1,""time"":2080}]",NA,NA,NA,NA,NA,6,#D8271C,#741CD8,0,0,0,40,0,995.8000000007451,37,1,482.3999999985099,0,0,experiment,NA,NA,2,0.5,0.5,5,4,266,6,NA
fcp-trial,302,1174501,0.0-277.0-0.0,voc_e2,11907,"[{""event"":""fullscreenenter"",""trial"":1,""time"":2080}]",NA,NA,NA,NA,NA,1,#FA92F8,#1CD855,10,0,0,38,1,931.6000000014901,39,0,513.3000000007451,0,1,experiment,NA,NA,0,0.1,0.9,1,0,267,6,NA
fcp-trial,303,1177473,0.0-278.0-0.0,voc_e2,11907,"[{""event"":""fullscreenenter"",""trial"":1,""time"":2080}]",NA,NA,NA,NA,NA,2,#FA92F8,#1CD855,0,10,0,38,1,841.4000000022352,39,0,623.8000000007451,10,1,experiment,NA,NA,0,0.1,0.9,1,0,268,6,NA
fcp-trial,304,1180207,0.0-279.0-0.0,voc_e2,11907,"[{""event"":""fullscreenenter"",""trial"":1,""time"":2080}]",NA,NA,NA,NA,NA,0,#FA92F8,#1CD855,0,10,0,38,1,866.6999999992549,39,0,358.8999999985099,10,1,experiment,NA,NA,0,0.1,0.9,1,0,269,6,NA
fcp-trial,305,1183939,0.0-280.0-0.0,voc_e2,11907,"[{""event"":""fullscreenenter"",""trial"":1,""time"":2080}]",NA,NA,NA,NA,NA,5,#3386FF,#D89F1C,10,10,0,40,0,1738.3999999985099,37,1,486.0999999977648,10,0,experiment,NA,NA,1,0.3,0.7,3,2,270,6,NA
fcp-trial,306,1186819,0.0-281.0-0.0,voc_e2,11907,"[{""event"":""fullscreenenter"",""trial"":1,""time"":2080}]",NA,NA,NA,NA,NA,3,#D8271C,#741CD8,10,10,0,38,1,947.1999999992549,37,1,424.69999999925494,10,0,experiment,NA,NA,2,0.5,0.5,5,4,271,7,NA
fcp-trial,307,1190035,0.0-282.0-0.0,voc_e2,11907,"[{""event"":""fullscreenenter"",""trial"":1,""time"":2080}]",NA,NA,NA,NA,NA,0,#D89F1C,#3386FF,0,0,1,38,1,996.8000000007451,39,0,712.3000000007451,0,0,experiment,NA,NA,1,0.7,0.3,2,3,272,7,NA
fcp-trial,308,1193088,0.0-283.0-0.0,voc_e2,11907,"[{""event"":""fullscreenenter"",""trial"":1,""time"":2080}]",NA,NA,NA,NA,NA,4,#D8271C,#741CD8,10,10,0,38,1,1140.9000000022352,37,1,406.1000000014901,10,0,experiment,NA,NA,2,0.5,0.5,5,4,273,7,NA
fcp-trial,309,1196647,0.0-284.0-0.0,voc_e2,11907,"[{""event"":""fullscreenenter"",""trial"":1,""time"":2080}]",NA,NA,NA,NA,NA,2,#D89F1C,#3386FF,10,10,1,38,1,1264.1000000014901,39,0,785.9000000022352,10,0,experiment,NA,NA,1,0.7,0.3,2,3,274,7,NA
fcp-trial,310,1200395,0.0-285.0-0.0,voc_e2,11907,"[{""event"":""fullscreenenter"",""trial"":1,""time"":2080}]",NA,NA,NA,NA,NA,6,#741CD8,#D8271C,0,10,1,40,0,1748,37,1,491.5999999977648,0,1,experiment,NA,NA,2,0.5,0.5,4,5,275,7,NA
fcp-trial,311,1203521,0.0-286.0-0.0,voc_e2,11907,"[{""event"":""fullscreenenter"",""trial"":1,""time"":2080}]",NA,NA,NA,NA,NA,2,#1CD855,#FA92F8,10,0,1,38,1,983.9000000022352,37,1,634.7000000029802,10,1,experiment,NA,NA,0,0.9,0.1,0,1,276,7,NA
fcp-trial,312,1206811,0.0-287.0-0.0,voc_e2,11907,"[{""event"":""fullscreenenter"",""trial"":1,""time"":2080}]",NA,NA,NA,NA,NA,1,#D89F1C,#3386FF,0,0,1,38,1,861.2000000029802,37,1,920.4000000022352,0,1,experiment,NA,NA,1,0.7,0.3,2,3,277,7,NA
fcp-trial,313,1210036,0.0-288.0-0.0,voc_e2,11907,"[{""event"":""fullscreenenter"",""trial"":1,""time"":2080}]",NA,NA,NA,NA,NA,3,#1CD855,#FA92F8,10,0,1,38,1,978.6999999992549,37,1,738.1000000014901,10,1,experiment,NA,NA,0,0.9,0.1,0,1,278,7,NA
fcp-trial,314,1213385,0.0-289.0-0.0,voc_e2,11907,"[{""event"":""fullscreenenter"",""trial"":1,""time"":2080}]",NA,NA,NA,NA,NA,5,#1CD855,#FA92F8,10,0,1,38,1,1205.6000000014901,37,1,637.5,10,1,experiment,NA,NA,0,0.9,0.1,0,1,279,7,NA
fcp-trial,315,1216270,0.0-290.0-0.0,voc_e2,11907,"[{""event"":""fullscreenenter"",""trial"":1,""time"":2080}]",NA,NA,NA,NA,NA,0,#741CD8,#D8271C,10,10,1,38,1,979.0999999977648,39,0,400,10,0,experiment,NA,NA,2,0.5,0.5,4,5,280,7,NA
fcp-trial,316,1219726,0.0-291.0-0.0,voc_e2,11907,"[{""event"":""fullscreenenter"",""trial"":1,""time"":2080}]",NA,NA,NA,NA,NA,0,#3386FF,#D89F1C,0,10,0,38,1,1103.199999999255,39,0,844.5999999977648,10,1,experiment,NA,NA,1,0.3,0.7,3,2,281,7,NA
fcp-trial,317,1222629,0.0-292.0-0.0,voc_e2,11907,"[{""event"":""fullscreenenter"",""trial"":1,""time"":2080}]",NA,NA,NA,NA,NA,1,#FA92F8,#1CD855,10,10,0,38,1,939.8999999985099,39,0,455.19999999925494,10,1,experiment,NA,NA,0,0.1,0.9,1,0,282,7,NA
fcp-trial,318,1225060,0.0-293.0-0.0,voc_e2,11907,"[{""event"":""fullscreenenter"",""trial"":1,""time"":2080}]",NA,NA,NA,NA,NA,0,#FA92F8,#1CD855,0,10,0,38,1,500,39,0,424.80000000074506,10,1,experiment,NA,NA,0,0.1,0.9,1,0,283,7,NA
fcp-trial,319,1227553,0.0-294.0-0.0,voc_e2,11907,"[{""event"":""fullscreenenter"",""trial"":1,""time"":2080}]",NA,NA,NA,NA,NA,2,#D8271C,#741CD8,10,10,0,38,1,642.1000000014901,37,1,341.4000000022352,10,0,experiment,NA,NA,2,0.5,0.5,5,4,284,7,NA
fcp-trial,320,1231751,0.0-295.0-0.0,voc_e2,11907,"[{""event"":""fullscreenenter"",""trial"":1,""time"":2080}]",NA,NA,NA,NA,NA,5,#3386FF,#D89F1C,10,0,0,40,0,2196.300000000745,39,0,495.80000000074506,0,1,experiment,NA,NA,1,0.3,0.7,3,2,285,7,NA
fcp-trial,321,1235227,0.0-296.0-0.0,voc_e2,11907,"[{""event"":""fullscreenenter"",""trial"":1,""time"":2080}]",NA,NA,NA,NA,NA,1,#741CD8,#D8271C,0,10,1,38,1,962.0999999977648,39,0,1006.2000000029802,10,0,experiment,NA,NA,2,0.5,0.5,4,5,286,7,NA
fcp-trial,322,1239101,0.0-297.0-0.0,voc_e2,11907,"[{""event"":""fullscreenenter"",""trial"":1,""time"":2080}]",NA,NA,NA,NA,NA,4,#3386FF,#D89F1C,10,10,0,38,1,1296.300000000745,39,0,1070.39999999851,10,1,experiment,NA,NA,1,0.3,0.7,3,2,287,7,NA
fcp-trial,323,1242770,0.0-298.0-0.0,voc_e2,11907,"[{""event"":""fullscreenenter"",""trial"":1,""time"":2080}]",NA,NA,NA,NA,NA,4,#FA92F8,#1CD855,0,10,0,38,1,1812.5999999977648,39,0,348.5,10,1,experiment,NA,NA,0,0.1,0.9,1,0,288,7,NA
fcp-trial,324,1246535,0.0-299.0-0.0,voc_e2,11907,"[{""event"":""fullscreenenter"",""trial"":1,""time"":2080}]",NA,NA,NA,NA,NA,5,#D8271C,#741CD8,0,0,0,38,1,1927.699999999255,37,1,329.9000000022352,0,0,experiment,NA,NA,2,0.5,0.5,5,4,289,7,NA
fcp-trial,325,1249352,0.0-300.0-0.0,voc_e2,11907,"[{""event"":""fullscreenenter"",""trial"":1,""time"":2080}]",NA,NA,NA,NA,NA,3,#741CD8,#D8271C,0,0,1,38,1,1002.2000000029802,39,0,307.5,0,0,experiment,NA,NA,2,0.5,0.5,4,5,290,7,NA
fcp-trial,326,1252400,0.0-301.0-0.0,voc_e2,11907,"[{""event"":""fullscreenenter"",""trial"":1,""time"":2080}]",NA,NA,NA,NA,NA,6,#D89F1C,#3386FF,10,0,1,40,0,1113.199999999255,37,1,427.69999999925494,10,1,experiment,NA,NA,1,0.7,0.3,2,3,291,7,NA
fcp-trial,327,1255479,0.0-302.0-0.0,voc_e2,11907,"[{""event"":""fullscreenenter"",""trial"":1,""time"":2080}]",NA,NA,NA,NA,NA,6,#1CD855,#FA92F8,10,0,1,40,0,1080,37,1,491.79999999701977,10,1,experiment,NA,NA,0,0.9,0.1,0,1,292,7,NA
fcp-trial,328,1258735,0.0-303.0-0.0,voc_e2,11907,"[{""event"":""fullscreenenter"",""trial"":1,""time"":2080}]",NA,NA,NA,NA,NA,4,#741CD8,#D8271C,0,10,1,38,1,1384.800000000745,39,0,362.9000000022352,10,0,experiment,NA,NA,2,0.5,0.5,4,5,293,7,NA
fcp-trial,329,1261744,0.0-304.0-0.0,voc_e2,11907,"[{""event"":""fullscreenenter"",""trial"":1,""time"":2080}]",NA,NA,NA,NA,NA,3,#3386FF,#D89F1C,10,0,0,38,1,995.3000000007451,39,0,504.8999999985099,0,1,experiment,NA,NA,1,0.3,0.7,3,2,294,7,NA
fcp-trial,330,1264929,0.0-305.0-0.0,voc_e2,11907,"[{""event"":""fullscreenenter"",""trial"":1,""time"":2080}]",NA,NA,NA,NA,NA,5,#D8271C,#741CD8,0,10,0,40,0,1123.7999999970198,39,0,551.8999999985099,10,1,experiment,NA,NA,2,0.5,0.5,5,4,295,7,NA
fcp-trial,331,1268219,0.0-306.0-0.0,voc_e2,11907,"[{""event"":""fullscreenenter"",""trial"":1,""time"":2080}]",NA,NA,NA,NA,NA,2,#D89F1C,#3386FF,10,0,1,38,1,910.1999999992549,37,1,871.5,10,1,experiment,NA,NA,1,0.7,0.3,2,3,296,7,NA
fcp-trial,332,1271301,0.0-307.0-0.0,voc_e2,11907,"[{""event"":""fullscreenenter"",""trial"":1,""time"":2080}]",NA,NA,NA,NA,NA,5,#FA92F8,#1CD855,0,10,0,40,0,1045.300000000745,37,1,531.1999999992549,0,0,experiment,NA,NA,0,0.1,0.9,1,0,297,7,NA
fcp-trial,333,1273885,0.0-308.0-0.0,voc_e2,11907,"[{""event"":""fullscreenenter"",""trial"":1,""time"":2080}]",NA,NA,NA,NA,NA,3,#741CD8,#D8271C,10,10,1,38,1,779.4000000022352,39,0,298.0999999977648,10,0,experiment,NA,NA,2,0.5,0.5,4,5,298,7,NA
fcp-trial,334,1276835,0.0-309.0-0.0,voc_e2,11907,"[{""event"":""fullscreenenter"",""trial"":1,""time"":2080}]",NA,NA,NA,NA,NA,6,#1CD855,#FA92F8,10,10,1,40,0,1038.300000000745,37,1,406,10,1,experiment,NA,NA,0,0.9,0.1,0,1,299,7,NA
fcp-trial,335,1279901,0.0-310.0-0.0,voc_e2,11907,"[{""event"":""fullscreenenter"",""trial"":1,""time"":2080}]",NA,NA,NA,NA,NA,3,#D89F1C,#3386FF,0,0,1,38,1,1171.7999999970198,37,1,387.5,0,1,experiment,NA,NA,1,0.7,0.3,2,3,300,7,NA
fcp-trial,336,1282611,0.0-311.0-0.0,voc_e2,11907,"[{""event"":""fullscreenenter"",""trial"":1,""time"":2080}]",NA,NA,NA,NA,NA,0,#D89F1C,#3386FF,10,0,1,38,1,829,37,1,373.8999999985099,10,1,experiment,NA,NA,1,0.7,0.3,2,3,301,7,NA
fcp-trial,337,1285601,0.0-312.0-0.0,voc_e2,11907,"[{""event"":""fullscreenenter"",""trial"":1,""time"":2080}]",NA,NA,NA,NA,NA,4,#FA92F8,#1CD855,0,10,0,38,1,1131.4000000022352,39,0,350.69999999925494,10,1,experiment,NA,NA,0,0.1,0.9,1,0,302,7,NA
fcp-trial,338,1288736,0.0-313.0-0.0,voc_e2,11907,"[{""event"":""fullscreenenter"",""trial"":1,""time"":2080}]",NA,NA,NA,NA,NA,4,#D8271C,#741CD8,0,10,0,38,1,1344.300000000745,37,1,285.8999999985099,0,0,experiment,NA,NA,2,0.5,0.5,5,4,303,7,NA
fcp-trial,339,1291812,0.0-314.0-0.0,voc_e2,11907,"[{""event"":""fullscreenenter"",""trial"":1,""time"":2080}]",NA,NA,NA,NA,NA,4,#D89F1C,#3386FF,10,0,1,38,1,1112,39,0,457,0,0,experiment,NA,NA,1,0.7,0.3,2,3,304,7,NA
fcp-trial,340,1294633,0.0-315.0-0.0,voc_e2,11907,"[{""event"":""fullscreenenter"",""trial"":1,""time"":2080}]",NA,NA,NA,NA,NA,0,#1CD855,#FA92F8,10,10,1,38,1,982.8000000007451,37,1,331.5,10,1,experiment,NA,NA,0,0.9,0.1,0,1,305,7,NA
fcp-trial,341,1297744,0.0-316.0-0.0,voc_e2,11907,"[{""event"":""fullscreenenter"",""trial"":1,""time"":2080}]",NA,NA,NA,NA,NA,5,#D89F1C,#3386FF,10,0,1,40,0,1111.699999999255,37,1,490.29999999701977,10,1,experiment,NA,NA,1,0.7,0.3,2,3,306,7,NA
fcp-trial,342,1300768,0.0-317.0-0.0,voc_e2,11907,"[{""event"":""fullscreenenter"",""trial"":1,""time"":2080}]",NA,NA,NA,NA,NA,2,#D8271C,#741CD8,0,10,0,38,1,1165.199999999255,37,1,350,0,0,experiment,NA,NA,2,0.5,0.5,5,4,307,7,NA
fcp-trial,343,1304919,0.0-318.0-0.0,voc_e2,11907,"[{""event"":""fullscreenenter"",""trial"":1,""time"":2080}]",NA,NA,NA,NA,NA,3,#1CD855,#FA92F8,10,0,1,38,1,2295.5,37,1,348,10,1,experiment,NA,NA,0,0.9,0.1,0,1,308,7,NA
fcp-trial,344,1308279,0.0-319.0-0.0,voc_e2,11907,"[{""event"":""fullscreenenter"",""trial"":1,""time"":2080}]",NA,NA,NA,NA,NA,6,#D89F1C,#3386FF,10,0,1,40,0,1259.5,37,1,591.6999999992549,10,1,experiment,NA,NA,1,0.7,0.3,2,3,309,7,NA
fcp-trial,345,1311250,0.0-320.0-0.0,voc_e2,11907,"[{""event"":""fullscreenenter"",""trial"":1,""time"":2080}]",NA,NA,NA,NA,NA,1,#741CD8,#D8271C,10,10,1,38,1,1065.5,37,1,398.5,10,1,experiment,NA,NA,2,0.5,0.5,4,5,310,7,NA
fcp-trial,346,1314452,0.0-321.0-0.0,voc_e2,11907,"[{""event"":""fullscreenenter"",""trial"":1,""time"":2080}]",NA,NA,NA,NA,NA,6,#741CD8,#D8271C,0,0,1,40,0,953.8000000007451,37,1,741.6999999992549,0,1,experiment,NA,NA,2,0.5,0.5,4,5,311,7,NA
fcp-trial,347,1317753,0.0-322.0-0.0,voc_e2,11907,"[{""event"":""fullscreenenter"",""trial"":1,""time"":2080}]",NA,NA,NA,NA,NA,0,#741CD8,#D8271C,10,0,1,38,1,1470.199999999255,39,0,325.4000000022352,0,0,experiment,NA,NA,2,0.5,0.5,4,5,312,7,NA
fcp-trial,348,1321654,0.0-323.0-0.0,voc_e2,11907,"[{""event"":""fullscreenenter"",""trial"":1,""time"":2080}]",NA,NA,NA,NA,NA,2,#1CD855,#FA92F8,10,0,1,38,1,1736.3999999985099,37,1,658.2999999970198,10,1,experiment,NA,NA,0,0.9,0.1,0,1,313,7,NA
fcp-trial,349,1324723,0.0-324.0-0.0,voc_e2,11907,"[{""event"":""fullscreenenter"",""trial"":1,""time"":2080}]",NA,NA,NA,NA,NA,1,#D89F1C,#3386FF,10,0,1,38,1,1164.7999999970198,39,0,394.30000000074506,0,0,experiment,NA,NA,1,0.7,0.3,2,3,314,7,NA
fcp-trial,350,1327402,0.0-325.0-0.0,voc_e2,11907,"[{""event"":""fullscreenenter"",""trial"":1,""time"":2080}]",NA,NA,NA,NA,NA,1,#1CD855,#FA92F8,10,10,1,38,1,885.8000000007451,37,1,286.69999999925494,10,1,experiment,NA,NA,0,0.9,0.1,0,1,315,7,NA
audio-instructions,351,1334515,0.0-326.0,voc_e2,11907,"[{""event"":""fullscreenenter"",""trial"":1,""time"":2080}]",NA,1445.800000000745,static/audio/finished.wav,NA,0,NA,NA,NA,NA,NA,NA,NA,NA,NA,NA,NA,NA,NA,NA,NA,NA,NA,NA,NA,NA,NA,NA,NA,NA,NA
audio-instructions,352,1346115,0.0-327.0-0.0,voc_e2,11907,"[{""event"":""fullscreenenter"",""trial"":1,""time"":2080}]",NA,763.5,static/audio/explicit1.wav,NA,0,NA,NA,NA,NA,NA,NA,NA,NA,NA,NA,NA,NA,NA,NA,NA,NA,NA,NA,NA,NA,NA,NA,NA,NA,NA
audio-instructions,353,1354165,0.0-327.0-1.0,voc_e2,11907,"[{""event"":""fullscreenenter"",""trial"":1,""time"":2080}]",NA,455.8999999985099,static/audio/explicit2.wav,NA,0,NA,NA,NA,NA,NA,NA,NA,NA,NA,NA,NA,NA,NA,NA,NA,NA,NA,NA,NA,NA,NA,NA,NA,NA,NA
image-slider-response,354,1358232,0.0-328.0,voc_e2,11907,"[{""event"":""fullscreenenter"",""trial"":1,""time"":2080}]",NA,4063.199999999255,static/img/machines/machine6.png,NA,NA,NA,NA,NA,NA,NA,NA,NA,NA,NA,NA,NA,NA,NA,NA,explicit,NA,NA,NA,NA,NA,NA,NA,NA,NA,7
image-slider-response,355,1361231,0.0-329.0,voc_e2,11907,"[{""event"":""fullscreenenter"",""trial"":1,""time"":2080}]",NA,2996.400000002235,static/img/machines/machine1.png,NA,NA,NA,NA,NA,NA,NA,NA,NA,NA,NA,NA,NA,NA,NA,NA,explicit,NA,NA,NA,NA,NA,NA,NA,NA,NA,6
image-slider-response,356,1363981,0.0-330.0,voc_e2,11907,"[{""event"":""fullscreenenter"",""trial"":1,""time"":2080}]",NA,2746.900000002235,static/img/machines/machine2.png,NA,NA,NA,NA,NA,NA,NA,NA,NA,NA,NA,NA,NA,NA,NA,NA,explicit,NA,NA,NA,NA,NA,NA,NA,NA,NA,3
image-slider-response,357,1366332,0.0-331.0,voc_e2,11907,"[{""event"":""fullscreenenter"",""trial"":1,""time"":2080}]",NA,2347.5,static/img/machines/machine5.png,NA,NA,NA,NA,NA,NA,NA,NA,NA,NA,NA,NA,NA,NA,NA,NA,explicit,NA,NA,NA,NA,NA,NA,NA,NA,NA,4
image-slider-response,358,1368765,0.0-332.0,voc_e2,11907,"[{""event"":""fullscreenenter"",""trial"":1,""time"":2080}]",NA,2429.800000000745,static/img/machines/machine3.png,NA,NA,NA,NA,NA,NA,NA,NA,NA,NA,NA,NA,NA,NA,NA,NA,explicit,NA,NA,NA,NA,NA,NA,NA,NA,NA,5
image-slider-response,359,1369731,0.0-333.0,voc_e2,11907,"[{""event"":""fullscreenenter"",""trial"":1,""time"":2080}]",NA,963.1999999992548,static/img/machines/machine4.png,NA,NA,NA,NA,NA,NA,NA,NA,NA,NA,NA,NA,NA,NA,NA,NA,explicit,NA,NA,NA,NA,NA,NA,NA,NA,NA,5
