trial_type,trial_index,time_elapsed,internal_node_id,task_version,subject_id,interactions,success,rt,stimulus,key_press,button_pressed,offer,arcade_color_L,arcade_color_R,arcade_outcome_L,arcade_outcome_R,correct,stage_1_key,stage_1_choice,stage_1_rt,stage_2_key,stage_2_choice,stage_2_rt,stage_3_outcome,accuracy,phase,responses,num_errors,context,reward_prob_L,reward_prob_R,arcade_id_L,arcade_id_R,trial,block,response
pavlovia,0,9,0.0-0.0,voc_e2,11764,[],NA,NA,NA,NA,NA,NA,NA,NA,NA,NA,NA,NA,NA,NA,NA,NA,NA,NA,NA,NA,NA,NA,NA,NA,NA,NA,NA,NA,NA,NA
fullscreen,1,4710,0.0-1.0,voc_e2,11764,"[{""event"":""fullscreenenter"",""trial"":1,""time"":3784}]",TRUE,NA,NA,NA,NA,NA,NA,NA,NA,NA,NA,NA,NA,NA,NA,NA,NA,NA,NA,NA,NA,NA,NA,NA,NA,NA,NA,NA,NA,NA
audio-keyboard-response,2,8747,0.0-2.0,voc_e2,11764,"[{""event"":""fullscreenenter"",""trial"":1,""time"":3784}]",NA,2411,static/audio/beep_loop.wav,32,NA,NA,NA,NA,NA,NA,NA,NA,NA,NA,NA,NA,NA,NA,NA,NA,NA,NA,NA,NA,NA,NA,NA,NA,NA,NA
audio-test,3,10794,0.0-3.0,voc_e2,11764,"[{""event"":""fullscreenenter"",""trial"":1,""time"":3784}]",NA,NA,static/audio/turtle.wav,NA,3,NA,NA,NA,NA,NA,NA,NA,NA,NA,NA,NA,NA,NA,NA,NA,NA,NA,NA,NA,NA,NA,NA,NA,NA,NA
audio-test,4,14746,0.0-4.0,voc_e2,11764,"[{""event"":""fullscreenenter"",""trial"":1,""time"":3784}]",NA,NA,static/audio/shark.wav,NA,2,NA,NA,NA,NA,NA,NA,NA,NA,NA,NA,NA,NA,NA,NA,NA,NA,NA,NA,NA,NA,NA,NA,NA,NA,NA
audio-instructions,5,25281,0.0-5.0-0.0,voc_e2,11764,"[{""event"":""fullscreenenter"",""trial"":1,""time"":3784}]",NA,4750.199999809265,static/audio/instructions1.wav,NA,0,NA,NA,NA,NA,NA,NA,NA,NA,NA,NA,NA,NA,NA,NA,NA,NA,NA,NA,NA,NA,NA,NA,NA,NA,NA
audio-instructions,6,39953,0.0-5.0-1.0,voc_e2,11764,"[{""event"":""fullscreenenter"",""trial"":1,""time"":3784}]",NA,7931.699999809265,static/audio/instructions2.wav,NA,0,NA,NA,NA,NA,NA,NA,NA,NA,NA,NA,NA,NA,NA,NA,NA,NA,NA,NA,NA,NA,NA,NA,NA,NA,NA
audio-instructions,7,50218,0.0-5.0-2.0,voc_e2,11764,"[{""event"":""fullscreenenter"",""trial"":1,""time"":3784}]",NA,4456.5,static/audio/instructions3.wav,NA,0,NA,NA,NA,NA,NA,NA,NA,NA,NA,NA,NA,NA,NA,NA,NA,NA,NA,NA,NA,NA,NA,NA,NA,NA,NA
audio-instructions,8,66741,0.0-5.0-3.0,voc_e2,11764,"[{""event"":""fullscreenenter"",""trial"":1,""time"":3784}]",NA,3300,static/audio/instructions4.wav,NA,0,NA,NA,NA,NA,NA,NA,NA,NA,NA,NA,NA,NA,NA,NA,NA,NA,NA,NA,NA,NA,NA,NA,NA,NA,NA
audio-instructions,9,76949,0.0-5.0-4.0,voc_e2,11764,"[{""event"":""fullscreenenter"",""trial"":1,""time"":3784}]",NA,818.1999998092651,static/audio/instructions5.wav,NA,0,NA,NA,NA,NA,NA,NA,NA,NA,NA,NA,NA,NA,NA,NA,NA,NA,NA,NA,NA,NA,NA,NA,NA,NA,NA
fcp-practice,10,86261,0.0-5.0-5.0-0.0,voc_e2,11764,"[{""event"":""fullscreenenter"",""trial"":1,""time"":3784}]",NA,NA,NA,NA,NA,NA,#EDC948,#46d3c8,10,0,1,null,null,null,37,1,7784.400000095367,10,1,practice,NA,NA,NA,NA,NA,NA,NA,NA,NA,NA
fcp-practice,11,88412,0.0-5.0-5.0-1.0,voc_e2,11764,"[{""event"":""fullscreenenter"",""trial"":1,""time"":3784}]",NA,NA,NA,NA,NA,NA,#EDC948,#46d3c8,10,0,1,null,null,null,37,1,642.9000000953674,10,1,practice,NA,NA,NA,NA,NA,NA,NA,NA,NA,NA
fcp-practice,12,90477,0.0-5.0-5.0-2.0,voc_e2,11764,"[{""event"":""fullscreenenter"",""trial"":1,""time"":3784}]",NA,NA,NA,NA,NA,NA,#EDC948,#46d3c8,0,10,1,null,null,null,37,1,557.6999998092651,0,1,practice,NA,NA,NA,NA,NA,NA,NA,NA,NA,NA
fcp-practice,13,93019,0.0-5.0-5.0-3.0,voc_e2,11764,"[{""event"":""fullscreenenter"",""trial"":1,""time"":3784}]",NA,NA,NA,NA,NA,NA,#EDC948,#46d3c8,10,0,1,null,null,null,37,1,1034.4000000953674,10,1,practice,NA,NA,NA,NA,NA,NA,NA,NA,NA,NA
fcp-practice,14,95410,0.0-5.0-5.0-4.0,voc_e2,11764,"[{""event"":""fullscreenenter"",""trial"":1,""time"":3784}]",NA,NA,NA,NA,NA,NA,#EDC948,#46d3c8,10,0,1,null,null,null,37,1,879.4000000953674,10,1,practice,NA,NA,NA,NA,NA,NA,NA,NA,NA,NA
audio-instructions,15,131129,0.0-5.0-6.0,voc_e2,11764,"[{""event"":""fullscreenenter"",""trial"":1,""time"":3784}]",NA,17708,static/audio/instructions6.wav,NA,0,NA,NA,NA,NA,NA,NA,NA,NA,NA,NA,NA,NA,NA,NA,NA,NA,NA,NA,NA,NA,NA,NA,NA,NA,NA
audio-instructions,16,157209,0.0-5.0-7.0,voc_e2,11764,"[{""event"":""fullscreenenter"",""trial"":1,""time"":3784}]",NA,6877.89999961853,static/audio/instructions7.wav,NA,0,NA,NA,NA,NA,NA,NA,NA,NA,NA,NA,NA,NA,NA,NA,NA,NA,NA,NA,NA,NA,NA,NA,NA,NA,NA
audio-instructions,17,167561,0.0-5.0-8.0,voc_e2,11764,"[{""event"":""fullscreenenter"",""trial"":1,""time"":3784}]",NA,890.5,static/audio/instructions8.wav,NA,0,NA,NA,NA,NA,NA,NA,NA,NA,NA,NA,NA,NA,NA,NA,NA,NA,NA,NA,NA,NA,NA,NA,NA,NA,NA
fcp-comprehension,18,177835,0.0-5.0-9.0,voc_e2,11764,"[{""event"":""fullscreenenter"",""trial"":1,""time"":3784}]",NA,10270.300000190737,NA,NA,NA,NA,NA,NA,NA,NA,NA,NA,NA,NA,NA,NA,NA,NA,NA,NA,"true,true",0,NA,NA,NA,NA,NA,NA,NA,NA
audio-instructions,19,185746,0.0-6.0-0.0,voc_e2,11764,"[{""event"":""fullscreenenter"",""trial"":1,""time"":3784}]",NA,2364.400000095367,static/audio/instructions9.wav,NA,0,NA,NA,NA,NA,NA,NA,NA,NA,NA,NA,NA,NA,NA,NA,NA,NA,NA,NA,NA,NA,NA,NA,NA,NA,NA
audio-instructions,20,200117,0.0-6.0-1.0,voc_e2,11764,"[{""event"":""fullscreenenter"",""trial"":1,""time"":3784}]",NA,2256,static/audio/instructions10.wav,NA,0,NA,NA,NA,NA,NA,NA,NA,NA,NA,NA,NA,NA,NA,NA,NA,NA,NA,NA,NA,NA,NA,NA,NA,NA,NA
fcp-trial,21,211612,0.0-6.0-2.0,voc_e2,11764,"[{""event"":""fullscreenenter"",""trial"":1,""time"":3784}]",NA,NA,NA,NA,NA,0,#EDC948,#46d3c8,10,10,1,38,1,4891.599999904633,39,0,4798.099999904633,10,0,practice,NA,NA,NA,NA,NA,NA,NA,NA,NA,NA
audio-instructions,22,225060,0.0-6.0-3.0,voc_e2,11764,"[{""event"":""fullscreenenter"",""trial"":1,""time"":3784}]",NA,2440,static/audio/instructions11.wav,NA,0,NA,NA,NA,NA,NA,NA,NA,NA,NA,NA,NA,NA,NA,NA,NA,NA,NA,NA,NA,NA,NA,NA,NA,NA,NA
fcp-trial,23,231180,0.0-6.0-4.0,voc_e2,11764,"[{""event"":""fullscreenenter"",""trial"":1,""time"":3784}]",NA,NA,NA,NA,NA,6,#EDC948,#46d3c8,10,10,1,40,0,1767.8000001907349,39,0,2830.699999809265,10,0,practice,NA,NA,NA,NA,NA,NA,NA,NA,NA,NA
audio-instructions,24,253333,0.0-6.0-5.0,voc_e2,11764,"[{""event"":""fullscreenenter"",""trial"":1,""time"":3784}]",NA,3462.3999996185303,static/audio/instructions12.wav,NA,0,NA,NA,NA,NA,NA,NA,NA,NA,NA,NA,NA,NA,NA,NA,NA,NA,NA,NA,NA,NA,NA,NA,NA,NA,NA
audio-instructions,25,262085,0.0-6.0-6.0,voc_e2,11764,"[{""event"":""fullscreenenter"",""trial"":1,""time"":3784}]",NA,1154.1999998092651,static/audio/instructions13.wav,NA,0,NA,NA,NA,NA,NA,NA,NA,NA,NA,NA,NA,NA,NA,NA,NA,NA,NA,NA,NA,NA,NA,NA,NA,NA,NA
audio-instructions,26,271621,0.0-6.0-7.0,voc_e2,11764,"[{""event"":""fullscreenenter"",""trial"":1,""time"":3784}]",NA,1090.5,static/audio/instructions14.wav,NA,0,NA,NA,NA,NA,NA,NA,NA,NA,NA,NA,NA,NA,NA,NA,NA,NA,NA,NA,NA,NA,NA,NA,NA,NA,NA
audio-instructions,27,279573,0.0-7.0-0.0,voc_e2,11764,"[{""event"":""fullscreenenter"",""trial"":1,""time"":3784}]",NA,1032.8000001907349,static/audio/instructions15.wav,NA,0,NA,NA,NA,NA,NA,NA,NA,NA,NA,NA,NA,NA,NA,NA,NA,NA,NA,NA,NA,NA,NA,NA,NA,NA,NA
audio-instructions,28,287608,0.0-7.0-1.0,voc_e2,11764,"[{""event"":""fullscreenenter"",""trial"":1,""time"":3784}]",NA,1208.3999996185305,static/audio/instructions16.wav,NA,0,NA,NA,NA,NA,NA,NA,NA,NA,NA,NA,NA,NA,NA,NA,NA,NA,NA,NA,NA,NA,NA,NA,NA,NA,NA
audio-instructions,29,297476,0.0-7.0-2.0,voc_e2,11764,"[{""event"":""fullscreenenter"",""trial"":1,""time"":3784}]",NA,2196.300000190735,static/audio/instructions17.wav,NA,0,NA,NA,NA,NA,NA,NA,NA,NA,NA,NA,NA,NA,NA,NA,NA,NA,NA,NA,NA,NA,NA,NA,NA,NA,NA
audio-instructions,30,307545,0.0-7.0-3.0,voc_e2,11764,"[{""event"":""fullscreenenter"",""trial"":1,""time"":3784}]",NA,2304.5,static/audio/instructions18.wav,NA,0,NA,NA,NA,NA,NA,NA,NA,NA,NA,NA,NA,NA,NA,NA,NA,NA,NA,NA,NA,NA,NA,NA,NA,NA,NA
audio-instructions,31,316979,0.0-7.0-4.0,voc_e2,11764,"[{""event"":""fullscreenenter"",""trial"":1,""time"":3784}]",NA,2688.7999997138977,static/audio/instructions19.wav,NA,0,NA,NA,NA,NA,NA,NA,NA,NA,NA,NA,NA,NA,NA,NA,NA,NA,NA,NA,NA,NA,NA,NA,NA,NA,NA
fcp-comprehension,32,331146,0.0-7.0-5.0,voc_e2,11764,"[{""event"":""fullscreenenter"",""trial"":1,""time"":3784}]",NA,14164.700000286102,NA,NA,NA,NA,NA,NA,NA,NA,NA,NA,NA,NA,NA,NA,NA,NA,NA,NA,"false,false,false,true",0,NA,NA,NA,NA,NA,NA,NA,NA
audio-instructions,33,343465,0.0-8.0,voc_e2,11764,"[{""event"":""fullscreenenter"",""trial"":1,""time"":3784}]",NA,3095.2999997138977,static/audio/ready.wav,NA,0,NA,NA,NA,NA,NA,NA,NA,NA,NA,NA,NA,NA,NA,NA,NA,NA,NA,NA,NA,NA,NA,NA,NA,NA,NA
fcp-trial,34,350018,0.0-9.0-0.0,voc_e2,11764,"[{""event"":""fullscreenenter"",""trial"":1,""time"":3784}]",NA,NA,NA,NA,NA,2,#741CD8,#D8271C,0,10,0,38,1,3780.2999997138977,37,1,1249.8000001907349,0,0,experiment,NA,NA,0,0.1,0.9,1,0,1,1,NA
fcp-trial,35,358934,0.0-10.0-0.0,voc_e2,11764,"[{""event"":""fullscreenenter"",""trial"":1,""time"":3784}]",NA,NA,NA,NA,NA,1,#3386FF,#D89F1C,10,0,0,38,1,6239.5,39,0,1162.5,0,1,experiment,NA,NA,2,0.5,0.5,5,4,2,1,NA
fcp-trial,36,364767,0.0-11.0-0.0,voc_e2,11764,"[{""event"":""fullscreenenter"",""trial"":1,""time"":3784}]",NA,NA,NA,NA,NA,6,#1CD855,#FA92F8,10,0,1,40,0,3435.2000002861023,39,0,876.5999999046326,0,0,experiment,NA,NA,1,0.7,0.3,2,3,3,1,NA
fcp-trial,37,373457,0.0-12.0-0.0,voc_e2,11764,"[{""event"":""fullscreenenter"",""trial"":1,""time"":3784}]",NA,NA,NA,NA,NA,6,#D8271C,#741CD8,10,0,1,40,0,6416.299999713898,39,0,767,0,0,experiment,NA,NA,0,0.9,0.1,0,1,4,1,NA
fcp-trial,38,382297,0.0-13.0-0.0,voc_e2,11764,"[{""event"":""fullscreenenter"",""trial"":1,""time"":3784}]",NA,NA,NA,NA,NA,4,#1CD855,#FA92F8,0,0,1,38,1,5544.799999713898,37,1,1791.0999999046326,0,1,experiment,NA,NA,1,0.7,0.3,2,3,5,1,NA
fcp-trial,39,387417,0.0-14.0-0.0,voc_e2,11764,"[{""event"":""fullscreenenter"",""trial"":1,""time"":3784}]",NA,NA,NA,NA,NA,4,#3386FF,#D89F1C,0,10,0,40,0,2848.5,37,1,766.5999999046326,0,0,experiment,NA,NA,2,0.5,0.5,5,4,6,1,NA
fcp-trial,40,392592,0.0-15.0-0.0,voc_e2,11764,"[{""event"":""fullscreenenter"",""trial"":1,""time"":3784}]",NA,NA,NA,NA,NA,5,#741CD8,#D8271C,0,10,0,40,0,3037.5999999046326,37,1,630.4000000953674,0,0,experiment,NA,NA,0,0.1,0.9,1,0,7,1,NA
fcp-trial,41,397714,0.0-16.0-0.0,voc_e2,11764,"[{""event"":""fullscreenenter"",""trial"":1,""time"":3784}]",NA,NA,NA,NA,NA,3,#741CD8,#D8271C,0,10,0,38,1,3048.5,39,0,567.5,10,1,experiment,NA,NA,0,0.1,0.9,1,0,8,1,NA
fcp-trial,42,403113,0.0-17.0-0.0,voc_e2,11764,"[{""event"":""fullscreenenter"",""trial"":1,""time"":3784}]",NA,NA,NA,NA,NA,5,#D89F1C,#3386FF,0,10,1,40,0,2918.9000000953674,39,0,975.4000000953674,10,0,experiment,NA,NA,2,0.5,0.5,4,5,9,1,NA
fcp-trial,43,411416,0.0-18.0-0.0,voc_e2,11764,"[{""event"":""fullscreenenter"",""trial"":1,""time"":3784}]",NA,NA,NA,NA,NA,1,#1CD855,#FA92F8,0,10,1,38,1,4632.799999713898,37,1,2166.9000000953674,0,1,experiment,NA,NA,1,0.7,0.3,2,3,10,1,NA
fcp-trial,44,426422,0.0-19.0-0.0,voc_e2,11764,"[{""event"":""fullscreenenter"",""trial"":1,""time"":3784}]",NA,NA,NA,NA,NA,4,#741CD8,#D8271C,0,10,0,null,null,null,null,null,null,NA,0,experiment,NA,NA,0,0.1,0.9,1,0,11,1,NA
fcp-trial,45,431441,0.0-20.0-0.0,voc_e2,11764,"[{""event"":""fullscreenenter"",""trial"":1,""time"":3784}]",NA,NA,NA,NA,NA,3,#FA92F8,#1CD855,0,10,0,38,1,1584.5999999046326,37,1,1926.4000000953674,0,0,experiment,NA,NA,1,0.3,0.7,3,2,12,1,NA
fcp-trial,46,437553,0.0-21.0-0.0,voc_e2,11764,"[{""event"":""fullscreenenter"",""trial"":1,""time"":3784}]",NA,NA,NA,NA,NA,0,#D8271C,#741CD8,10,10,1,38,1,2864.5,37,1,1743.7999997138977,10,1,experiment,NA,NA,0,0.9,0.1,0,1,13,1,NA
fcp-trial,47,444216,0.0-22.0-0.0,voc_e2,11764,"[{""event"":""fullscreenenter"",""trial"":1,""time"":3784}]",NA,NA,NA,NA,NA,3,#3386FF,#D89F1C,0,10,0,38,1,2622.0999999046326,37,1,2534.800000190735,0,0,experiment,NA,NA,2,0.5,0.5,5,4,14,1,NA
fcp-trial,48,449496,0.0-23.0-0.0,voc_e2,11764,"[{""event"":""fullscreenenter"",""trial"":1,""time"":3784}]",NA,NA,NA,NA,NA,6,#3386FF,#D89F1C,0,10,0,40,0,2632.300000190735,37,1,1142.9000000953674,0,0,experiment,NA,NA,2,0.5,0.5,5,4,15,1,NA
fcp-trial,49,453906,0.0-24.0-0.0,voc_e2,11764,"[{""event"":""fullscreenenter"",""trial"":1,""time"":3784}]",NA,NA,NA,NA,NA,5,#FA92F8,#1CD855,10,10,0,40,0,2232,37,1,671.7999997138977,10,0,experiment,NA,NA,1,0.3,0.7,3,2,16,1,NA
fcp-trial,50,458808,0.0-25.0-0.0,voc_e2,11764,"[{""event"":""fullscreenenter"",""trial"":1,""time"":3784}]",NA,NA,NA,NA,NA,2,#D89F1C,#3386FF,10,10,1,38,1,2487,37,1,911.1000003814697,10,1,experiment,NA,NA,2,0.5,0.5,4,5,17,1,NA
fcp-trial,51,465232,0.0-26.0-0.0,voc_e2,11764,"[{""event"":""fullscreenenter"",""trial"":1,""time"":3784}]",NA,NA,NA,NA,NA,1,#741CD8,#D8271C,0,10,0,38,1,1887.8999996185303,39,0,3030.800000190735,10,1,experiment,NA,NA,0,0.1,0.9,1,0,18,1,NA
fcp-trial,52,470231,0.0-27.0-0.0,voc_e2,11764,"[{""event"":""fullscreenenter"",""trial"":1,""time"":3784}]",NA,NA,NA,NA,NA,2,#1CD855,#FA92F8,0,0,1,38,1,2103.3999996185303,39,0,1391.1999998092651,0,0,experiment,NA,NA,1,0.7,0.3,2,3,19,1,NA
fcp-trial,53,475672,0.0-28.0-0.0,voc_e2,11764,"[{""event"":""fullscreenenter"",""trial"":1,""time"":3784}]",NA,NA,NA,NA,NA,0,#D89F1C,#3386FF,0,10,1,38,1,3371.699999809265,37,1,565.5,0,1,experiment,NA,NA,2,0.5,0.5,4,5,20,1,NA
fcp-trial,54,480208,0.0-29.0-0.0,voc_e2,11764,"[{""event"":""fullscreenenter"",""trial"":1,""time"":3784}]",NA,NA,NA,NA,NA,0,#FA92F8,#1CD855,0,0,0,38,1,1855.3999996185303,39,0,1175.5,0,1,experiment,NA,NA,1,0.3,0.7,3,2,21,1,NA
fcp-trial,55,486585,0.0-30.0-0.0,voc_e2,11764,"[{""event"":""fullscreenenter"",""trial"":1,""time"":3784}]",NA,NA,NA,NA,NA,0,#1CD855,#FA92F8,10,0,1,38,1,2742.5999999046326,39,0,2127,0,0,experiment,NA,NA,1,0.7,0.3,2,3,22,1,NA
fcp-trial,56,490665,0.0-31.0-0.0,voc_e2,11764,"[{""event"":""fullscreenenter"",""trial"":1,""time"":3784}]",NA,NA,NA,NA,NA,4,#3386FF,#D89F1C,10,10,0,40,0,1652.9000000953674,37,1,918.9000000953674,10,0,experiment,NA,NA,2,0.5,0.5,5,4,23,1,NA
fcp-trial,57,495543,0.0-32.0-0.0,voc_e2,11764,"[{""event"":""fullscreenenter"",""trial"":1,""time"":3784}]",NA,NA,NA,NA,NA,1,#1CD855,#FA92F8,10,0,1,38,1,2158.2999997138977,37,1,1214.5,10,1,experiment,NA,NA,1,0.7,0.3,2,3,24,1,NA
fcp-trial,58,501616,0.0-33.0-0.0,voc_e2,11764,"[{""event"":""fullscreenenter"",""trial"":1,""time"":3784}]",NA,NA,NA,NA,NA,3,#3386FF,#D89F1C,0,10,0,40,0,3984.5999999046326,39,0,583.1999998092651,10,1,experiment,NA,NA,2,0.5,0.5,5,4,25,1,NA
fcp-trial,59,507744,0.0-34.0-0.0,voc_e2,11764,"[{""event"":""fullscreenenter"",""trial"":1,""time"":3784}]",NA,NA,NA,NA,NA,1,#741CD8,#D8271C,0,10,0,38,1,2376.5999999046326,39,0,2246.5999999046326,10,1,experiment,NA,NA,0,0.1,0.9,1,0,26,1,NA
fcp-trial,60,512520,0.0-35.0-0.0,voc_e2,11764,"[{""event"":""fullscreenenter"",""trial"":1,""time"":3784}]",NA,NA,NA,NA,NA,2,#1CD855,#FA92F8,0,0,1,38,1,1551.7999997138977,39,0,1719.0999999046326,0,0,experiment,NA,NA,1,0.7,0.3,2,3,27,1,NA
fcp-trial,61,516551,0.0-36.0-0.0,voc_e2,11764,"[{""event"":""fullscreenenter"",""trial"":1,""time"":3784}]",NA,NA,NA,NA,NA,5,#1CD855,#FA92F8,10,0,1,40,0,1871.8999996185303,37,1,653.6999998092651,10,1,experiment,NA,NA,1,0.7,0.3,2,3,28,1,NA
fcp-trial,62,522384,0.0-37.0-0.0,voc_e2,11764,"[{""event"":""fullscreenenter"",""trial"":1,""time"":3784}]",NA,NA,NA,NA,NA,0,#3386FF,#D89F1C,0,10,0,38,1,2024.5999999046326,37,1,2302.300000190735,0,0,experiment,NA,NA,2,0.5,0.5,5,4,29,1,NA
fcp-trial,63,525839,0.0-38.0-0.0,voc_e2,11764,"[{""event"":""fullscreenenter"",""trial"":1,""time"":3784}]",NA,NA,NA,NA,NA,5,#3386FF,#D89F1C,10,10,0,40,0,1439.9000000953674,39,0,510.19999980926514,10,1,experiment,NA,NA,2,0.5,0.5,5,4,30,1,NA
fcp-trial,64,530329,0.0-39.0-0.0,voc_e2,11764,"[{""event"":""fullscreenenter"",""trial"":1,""time"":3784}]",NA,NA,NA,NA,NA,0,#741CD8,#D8271C,0,10,0,38,1,2185.1000003814697,39,0,798.2999997138977,10,1,experiment,NA,NA,0,0.1,0.9,1,0,31,1,NA
fcp-trial,65,534031,0.0-40.0-0.0,voc_e2,11764,"[{""event"":""fullscreenenter"",""trial"":1,""time"":3784}]",NA,NA,NA,NA,NA,6,#3386FF,#D89F1C,10,10,0,40,0,1422.8000001907349,39,0,774.1999998092651,10,1,experiment,NA,NA,2,0.5,0.5,5,4,32,1,NA
fcp-trial,66,538128,0.0-41.0-0.0,voc_e2,11764,"[{""event"":""fullscreenenter"",""trial"":1,""time"":3784}]",NA,NA,NA,NA,NA,6,#1CD855,#FA92F8,10,0,1,40,0,1834.0999999046326,39,0,759.5999999046326,0,0,experiment,NA,NA,1,0.7,0.3,2,3,33,1,NA
fcp-trial,67,541799,0.0-42.0-0.0,voc_e2,11764,"[{""event"":""fullscreenenter"",""trial"":1,""time"":3784}]",NA,NA,NA,NA,NA,4,#FA92F8,#1CD855,0,10,0,40,0,1559.5999999046326,37,1,607.4000000953674,0,0,experiment,NA,NA,1,0.3,0.7,3,2,34,1,NA
fcp-trial,68,545289,0.0-43.0-0.0,voc_e2,11764,"[{""event"":""fullscreenenter"",""trial"":1,""time"":3784}]",NA,NA,NA,NA,NA,2,#3386FF,#D89F1C,0,0,0,38,1,1321.8000001907349,39,0,663,0,1,experiment,NA,NA,2,0.5,0.5,5,4,35,1,NA
fcp-trial,69,548808,0.0-44.0-0.0,voc_e2,11764,"[{""event"":""fullscreenenter"",""trial"":1,""time"":3784}]",NA,NA,NA,NA,NA,2,#741CD8,#D8271C,0,10,0,38,1,1581.5999999046326,39,0,431.1000003814697,10,1,experiment,NA,NA,0,0.1,0.9,1,0,36,1,NA
fcp-trial,70,553024,0.0-45.0-0.0,voc_e2,11764,"[{""event"":""fullscreenenter"",""trial"":1,""time"":3784}]",NA,NA,NA,NA,NA,3,#D8271C,#741CD8,10,0,1,38,1,1918,37,1,790.4000000953674,10,1,experiment,NA,NA,0,0.9,0.1,0,1,37,1,NA
fcp-trial,71,556504,0.0-46.0-0.0,voc_e2,11764,"[{""event"":""fullscreenenter"",""trial"":1,""time"":3784}]",NA,NA,NA,NA,NA,4,#741CD8,#D8271C,0,10,0,40,0,1489.0999999046326,39,0,486.09999990463257,10,1,experiment,NA,NA,0,0.1,0.9,1,0,38,1,NA
fcp-trial,72,560447,0.0-47.0-0.0,voc_e2,11764,"[{""event"":""fullscreenenter"",""trial"":1,""time"":3784}]",NA,NA,NA,NA,NA,3,#FA92F8,#1CD855,10,0,0,38,1,1532.7999997138977,39,0,902.5,0,1,experiment,NA,NA,1,0.3,0.7,3,2,39,1,NA
fcp-trial,73,564767,0.0-48.0-0.0,voc_e2,11764,"[{""event"":""fullscreenenter"",""trial"":1,""time"":3784}]",NA,NA,NA,NA,NA,1,#3386FF,#D89F1C,0,10,0,38,1,1840.8000001907349,39,0,974.7999997138977,10,1,experiment,NA,NA,2,0.5,0.5,5,4,40,1,NA
fcp-trial,74,568160,0.0-49.0-0.0,voc_e2,11764,"[{""event"":""fullscreenenter"",""trial"":1,""time"":3784}]",NA,NA,NA,NA,NA,6,#741CD8,#D8271C,0,10,0,40,0,1408.8000001907349,39,0,477.6000003814697,10,1,experiment,NA,NA,0,0.1,0.9,1,0,41,1,NA
fcp-trial,75,571808,0.0-50.0-0.0,voc_e2,11764,"[{""event"":""fullscreenenter"",""trial"":1,""time"":3784}]",NA,NA,NA,NA,NA,5,#741CD8,#D8271C,0,0,0,40,0,1394.0999999046326,39,0,749.2000002861023,0,1,experiment,NA,NA,0,0.1,0.9,1,0,42,1,NA
fcp-trial,76,575847,0.0-51.0-0.0,voc_e2,11764,"[{""event"":""fullscreenenter"",""trial"":1,""time"":3784}]",NA,NA,NA,NA,NA,2,#D89F1C,#3386FF,10,10,1,38,1,2127,37,1,406,10,1,experiment,NA,NA,2,0.5,0.5,4,5,43,1,NA
fcp-trial,77,579143,0.0-52.0-0.0,voc_e2,11764,"[{""event"":""fullscreenenter"",""trial"":1,""time"":3784}]",NA,NA,NA,NA,NA,1,#D8271C,#741CD8,10,0,1,38,1,1375.0999999046326,37,1,414.09999990463257,10,1,experiment,NA,NA,0,0.9,0.1,0,1,44,1,NA
fcp-trial,78,582424,0.0-53.0-0.0,voc_e2,11764,"[{""event"":""fullscreenenter"",""trial"":1,""time"":3784}]",NA,NA,NA,NA,NA,4,#FA92F8,#1CD855,10,10,0,40,0,1320.9000000953674,39,0,454.69999980926514,10,1,experiment,NA,NA,1,0.3,0.7,3,2,45,1,NA
fcp-trial,79,587263,0.0-54.0-0.0,voc_e2,11764,"[{""event"":""fullscreenenter"",""trial"":1,""time"":3784}]",NA,NA,NA,NA,NA,5,#741CD8,#D8271C,0,10,0,40,0,1648.5999999046326,37,1,1687,0,0,experiment,NA,NA,0,0.1,0.9,1,0,46,2,NA
fcp-trial,80,591863,0.0-55.0-0.0,voc_e2,11764,"[{""event"":""fullscreenenter"",""trial"":1,""time"":3784}]",NA,NA,NA,NA,NA,1,#D89F1C,#3386FF,0,10,1,38,1,2346.2000002861023,37,1,750.2999997138977,0,1,experiment,NA,NA,2,0.5,0.5,4,5,47,2,NA
fcp-trial,81,596073,0.0-56.0-0.0,voc_e2,11764,"[{""event"":""fullscreenenter"",""trial"":1,""time"":3784}]",NA,NA,NA,NA,NA,0,#D89F1C,#3386FF,0,0,1,38,1,1969.5,37,1,734.5,0,1,experiment,NA,NA,2,0.5,0.5,4,5,48,2,NA
fcp-trial,82,601406,0.0-57.0-0.0,voc_e2,11764,"[{""event"":""fullscreenenter"",""trial"":1,""time"":3784}]",NA,NA,NA,NA,NA,1,#1CD855,#FA92F8,10,10,1,38,1,2774.5999999046326,37,1,1039.1000003814697,10,1,experiment,NA,NA,1,0.7,0.3,2,3,49,2,NA
fcp-trial,83,605007,0.0-58.0-0.0,voc_e2,11764,"[{""event"":""fullscreenenter"",""trial"":1,""time"":3784}]",NA,NA,NA,NA,NA,5,#1CD855,#FA92F8,10,0,1,40,0,1225.8999996185303,39,0,871.5,0,0,experiment,NA,NA,1,0.7,0.3,2,3,50,2,NA
fcp-trial,84,608399,0.0-59.0-0.0,voc_e2,11764,"[{""event"":""fullscreenenter"",""trial"":1,""time"":3784}]",NA,NA,NA,NA,NA,3,#741CD8,#D8271C,0,10,0,38,1,1352.2999997138977,39,0,534.6999998092651,10,1,experiment,NA,NA,0,0.1,0.9,1,0,51,2,NA
fcp-trial,85,612200,0.0-60.0-0.0,voc_e2,11764,"[{""event"":""fullscreenenter"",""trial"":1,""time"":3784}]",NA,NA,NA,NA,NA,4,#D89F1C,#3386FF,0,10,1,40,0,1720,39,0,574.2999997138977,10,0,experiment,NA,NA,2,0.5,0.5,4,5,52,2,NA
fcp-trial,86,616639,0.0-61.0-0.0,voc_e2,11764,"[{""event"":""fullscreenenter"",""trial"":1,""time"":3784}]",NA,NA,NA,NA,NA,0,#D8271C,#741CD8,0,0,1,38,1,2336.5,37,1,598.2999997138977,0,1,experiment,NA,NA,0,0.9,0.1,0,1,53,2,NA
fcp-trial,87,620072,0.0-62.0-0.0,voc_e2,11764,"[{""event"":""fullscreenenter"",""trial"":1,""time"":3784}]",NA,NA,NA,NA,NA,4,#741CD8,#D8271C,0,10,0,40,0,1319.2999997138977,37,1,607.2000002861023,0,0,experiment,NA,NA,0,0.1,0.9,1,0,54,2,NA
fcp-trial,88,624562,0.0-63.0-0.0,voc_e2,11764,"[{""event"":""fullscreenenter"",""trial"":1,""time"":3784}]",NA,NA,NA,NA,NA,3,#FA92F8,#1CD855,0,10,0,38,1,1350.7000002861023,39,0,1631.5,10,1,experiment,NA,NA,1,0.3,0.7,3,2,55,2,NA
fcp-trial,89,629431,0.0-64.0-0.0,voc_e2,11764,"[{""event"":""fullscreenenter"",""trial"":1,""time"":3784}]",NA,NA,NA,NA,NA,2,#D8271C,#741CD8,0,0,1,38,1,2813.7999997138977,37,1,550.3000001907349,0,1,experiment,NA,NA,0,0.9,0.1,0,1,56,2,NA
fcp-trial,90,632671,0.0-65.0-0.0,voc_e2,11764,"[{""event"":""fullscreenenter"",""trial"":1,""time"":3784}]",NA,NA,NA,NA,NA,5,#3386FF,#D89F1C,10,10,0,40,0,1290.4000000953674,39,0,444.6000003814697,10,1,experiment,NA,NA,2,0.5,0.5,5,4,57,2,NA
fcp-trial,91,637175,0.0-66.0-0.0,voc_e2,11764,"[{""event"":""fullscreenenter"",""trial"":1,""time"":3784}]",NA,NA,NA,NA,NA,2,#1CD855,#FA92F8,10,10,1,38,1,2472.6000003814697,37,1,526.0999999046326,10,1,experiment,NA,NA,1,0.7,0.3,2,3,58,2,NA
fcp-trial,92,640431,0.0-67.0-0.0,voc_e2,11764,"[{""event"":""fullscreenenter"",""trial"":1,""time"":3784}]",NA,NA,NA,NA,NA,6,#741CD8,#D8271C,0,10,0,40,0,1302.8999996185303,39,0,447.1000003814697,10,1,experiment,NA,NA,0,0.1,0.9,1,0,59,2,NA
fcp-trial,93,645415,0.0-68.0-0.0,voc_e2,11764,"[{""event"":""fullscreenenter"",""trial"":1,""time"":3784}]",NA,NA,NA,NA,NA,3,#D89F1C,#3386FF,0,0,1,38,1,2875.199999809265,37,1,606,0,1,experiment,NA,NA,2,0.5,0.5,4,5,60,2,NA
fcp-trial,94,648639,0.0-69.0-0.0,voc_e2,11764,"[{""event"":""fullscreenenter"",""trial"":1,""time"":3784}]",NA,NA,NA,NA,NA,6,#3386FF,#D89F1C,0,0,0,40,0,1170.0999999046326,39,0,542.8000001907349,0,1,experiment,NA,NA,2,0.5,0.5,5,4,61,2,NA
fcp-trial,95,652129,0.0-70.0-0.0,voc_e2,11764,"[{""event"":""fullscreenenter"",""trial"":1,""time"":3784}]",NA,NA,NA,NA,NA,6,#1CD855,#FA92F8,10,10,1,40,0,1391.3999996185303,39,0,591.0999999046326,10,0,experiment,NA,NA,1,0.7,0.3,2,3,62,2,NA
fcp-trial,96,656391,0.0-71.0-0.0,voc_e2,11764,"[{""event"":""fullscreenenter"",""trial"":1,""time"":3784}]",NA,NA,NA,NA,NA,0,#1CD855,#FA92F8,10,10,1,38,1,2038.5,37,1,719.4000000953674,10,1,experiment,NA,NA,1,0.7,0.3,2,3,63,2,NA
fcp-trial,97,659936,0.0-72.0-0.0,voc_e2,11764,"[{""event"":""fullscreenenter"",""trial"":1,""time"":3784}]",NA,NA,NA,NA,NA,3,#3386FF,#D89F1C,10,0,0,38,1,1648.0999999046326,39,0,391.30000019073486,0,1,experiment,NA,NA,2,0.5,0.5,5,4,64,2,NA
fcp-trial,98,665103,0.0-73.0-0.0,voc_e2,11764,"[{""event"":""fullscreenenter"",""trial"":1,""time"":3784}]",NA,NA,NA,NA,NA,1,#D89F1C,#3386FF,10,0,1,38,1,3021.2999997138977,37,1,639.5999999046326,10,1,experiment,NA,NA,2,0.5,0.5,4,5,65,2,NA
fcp-trial,99,668456,0.0-74.0-0.0,voc_e2,11764,"[{""event"":""fullscreenenter"",""trial"":1,""time"":3784}]",NA,NA,NA,NA,NA,0,#741CD8,#D8271C,0,10,0,38,1,1407.4000000953674,39,0,439.09999990463257,10,1,experiment,NA,NA,0,0.1,0.9,1,0,66,2,NA
fcp-trial,100,671695,0.0-75.0-0.0,voc_e2,11764,"[{""event"":""fullscreenenter"",""trial"":1,""time"":3784}]",NA,NA,NA,NA,NA,5,#D89F1C,#3386FF,10,10,1,38,1,886.8000001907349,37,1,846.5,10,1,experiment,NA,NA,2,0.5,0.5,4,5,67,2,NA
fcp-trial,101,675519,0.0-76.0-0.0,voc_e2,11764,"[{""event"":""fullscreenenter"",""trial"":1,""time"":3784}]",NA,NA,NA,NA,NA,0,#FA92F8,#1CD855,0,0,0,38,1,1296,39,0,1022.8000001907349,0,1,experiment,NA,NA,1,0.3,0.7,3,2,68,2,NA
fcp-trial,102,679039,0.0-77.0-0.0,voc_e2,11764,"[{""event"":""fullscreenenter"",""trial"":1,""time"":3784}]",NA,NA,NA,NA,NA,3,#D8271C,#741CD8,10,0,1,38,1,1665.4000000953674,37,1,350.7999997138977,10,1,experiment,NA,NA,0,0.9,0.1,0,1,69,2,NA
fcp-trial,103,682943,0.0-78.0-0.0,voc_e2,11764,"[{""event"":""fullscreenenter"",""trial"":1,""time"":3784}]",NA,NA,NA,NA,NA,0,#3386FF,#D89F1C,0,10,0,38,1,1918.7000002861023,39,0,479.90000009536743,10,1,experiment,NA,NA,2,0.5,0.5,5,4,70,2,NA
fcp-trial,104,686015,0.0-79.0-0.0,voc_e2,11764,"[{""event"":""fullscreenenter"",""trial"":1,""time"":3784}]",NA,NA,NA,NA,NA,2,#D8271C,#741CD8,10,0,1,38,1,1048.8000001907349,37,1,518.2000002861023,10,1,experiment,NA,NA,0,0.9,0.1,0,1,71,2,NA
fcp-trial,105,689312,0.0-80.0-0.0,voc_e2,11764,"[{""event"":""fullscreenenter"",""trial"":1,""time"":3784}]",NA,NA,NA,NA,NA,6,#1CD855,#FA92F8,10,0,1,40,0,1136.4000000953674,39,0,654.6999998092651,0,0,experiment,NA,NA,1,0.7,0.3,2,3,72,2,NA
fcp-trial,106,692520,0.0-81.0-0.0,voc_e2,11764,"[{""event"":""fullscreenenter"",""trial"":1,""time"":3784}]",NA,NA,NA,NA,NA,2,#3386FF,#D89F1C,0,10,0,38,1,958.5999999046326,39,0,743.8000001907349,10,1,experiment,NA,NA,2,0.5,0.5,5,4,73,2,NA
fcp-trial,107,696423,0.0-82.0-0.0,voc_e2,11764,"[{""event"":""fullscreenenter"",""trial"":1,""time"":3784}]",NA,NA,NA,NA,NA,1,#FA92F8,#1CD855,0,0,0,38,1,2021.7999997138977,39,0,374.90000009536743,0,1,experiment,NA,NA,1,0.3,0.7,3,2,74,2,NA
fcp-trial,108,699296,0.0-83.0-0.0,voc_e2,11764,"[{""event"":""fullscreenenter"",""trial"":1,""time"":3784}]",NA,NA,NA,NA,NA,1,#D8271C,#741CD8,10,0,1,38,1,1031,37,1,334,10,1,experiment,NA,NA,0,0.9,0.1,0,1,75,2,NA
fcp-trial,109,701959,0.0-84.0-0.0,voc_e2,11764,"[{""event"":""fullscreenenter"",""trial"":1,""time"":3784}]",NA,NA,NA,NA,NA,3,#FA92F8,#1CD855,0,10,0,38,1,703.1999998092651,39,0,454.80000019073486,10,1,experiment,NA,NA,1,0.3,0.7,3,2,76,2,NA
fcp-trial,110,704896,0.0-85.0-0.0,voc_e2,11764,"[{""event"":""fullscreenenter"",""trial"":1,""time"":3784}]",NA,NA,NA,NA,NA,2,#1CD855,#FA92F8,10,0,1,38,1,1016.5999999046326,37,1,415.90000009536743,10,1,experiment,NA,NA,1,0.7,0.3,2,3,77,2,NA
fcp-trial,111,707897,0.0-86.0-0.0,voc_e2,11764,"[{""event"":""fullscreenenter"",""trial"":1,""time"":3784}]",NA,NA,NA,NA,NA,4,#3386FF,#D89F1C,10,10,0,38,1,1009.3999996185303,39,0,488.30000019073486,10,1,experiment,NA,NA,2,0.5,0.5,5,4,78,2,NA
fcp-trial,112,712191,0.0-87.0-0.0,voc_e2,11764,"[{""event"":""fullscreenenter"",""trial"":1,""time"":3784}]",NA,NA,NA,NA,NA,4,#D8271C,#741CD8,10,0,1,38,1,2430.5,37,1,358.40000009536743,10,1,experiment,NA,NA,0,0.9,0.1,0,1,79,2,NA
fcp-trial,113,716151,0.0-88.0-0.0,voc_e2,11764,"[{""event"":""fullscreenenter"",""trial"":1,""time"":3784}]",NA,NA,NA,NA,NA,6,#D89F1C,#3386FF,0,0,1,40,0,1933.2000002861023,37,1,519,0,1,experiment,NA,NA,2,0.5,0.5,4,5,80,2,NA
fcp-trial,114,719327,0.0-89.0-0.0,voc_e2,11764,"[{""event"":""fullscreenenter"",""trial"":1,""time"":3784}]",NA,NA,NA,NA,NA,5,#FA92F8,#1CD855,0,10,0,40,0,1081,37,1,591.4000000953674,0,0,experiment,NA,NA,1,0.3,0.7,3,2,81,2,NA
fcp-trial,115,722887,0.0-90.0-0.0,voc_e2,11764,"[{""event"":""fullscreenenter"",""trial"":1,""time"":3784}]",NA,NA,NA,NA,NA,6,#741CD8,#D8271C,0,10,0,40,0,1624.9000000953674,39,0,431,10,1,experiment,NA,NA,0,0.1,0.9,1,0,82,2,NA
fcp-trial,116,725935,0.0-91.0-0.0,voc_e2,11764,"[{""event"":""fullscreenenter"",""trial"":1,""time"":3784}]",NA,NA,NA,NA,NA,5,#D8271C,#741CD8,10,0,1,40,0,1144.5,37,1,398.7000002861023,10,1,experiment,NA,NA,0,0.9,0.1,0,1,83,2,NA
fcp-trial,117,729519,0.0-92.0-0.0,voc_e2,11764,"[{""event"":""fullscreenenter"",""trial"":1,""time"":3784}]",NA,NA,NA,NA,NA,4,#1CD855,#FA92F8,10,10,1,40,0,1361.6999998092651,39,0,718.1999998092651,10,0,experiment,NA,NA,1,0.7,0.3,2,3,84,2,NA
fcp-trial,118,732535,0.0-93.0-0.0,voc_e2,11764,"[{""event"":""fullscreenenter"",""trial"":1,""time"":3784}]",NA,NA,NA,NA,NA,2,#D89F1C,#3386FF,0,10,1,38,1,1009.5999999046326,37,1,502.90000009536743,0,1,experiment,NA,NA,2,0.5,0.5,4,5,85,2,NA
fcp-trial,119,736064,0.0-94.0-0.0,voc_e2,11764,"[{""event"":""fullscreenenter"",""trial"":1,""time"":3784}]",NA,NA,NA,NA,NA,4,#FA92F8,#1CD855,10,10,0,38,1,1505,39,0,517.9000000953674,10,1,experiment,NA,NA,1,0.3,0.7,3,2,86,2,NA
fcp-trial,120,739455,0.0-95.0-0.0,voc_e2,11764,"[{""event"":""fullscreenenter"",""trial"":1,""time"":3784}]",NA,NA,NA,NA,NA,6,#D89F1C,#3386FF,0,0,1,40,0,1407.6999998092651,39,0,478.8999996185303,0,0,experiment,NA,NA,2,0.5,0.5,4,5,87,2,NA
fcp-trial,121,742888,0.0-96.0-0.0,voc_e2,11764,"[{""event"":""fullscreenenter"",""trial"":1,""time"":3784}]",NA,NA,NA,NA,NA,1,#741CD8,#D8271C,0,10,0,38,1,1587.1999998092651,39,0,341,10,1,experiment,NA,NA,0,0.1,0.9,1,0,88,2,NA
fcp-trial,122,745975,0.0-97.0-0.0,voc_e2,11764,"[{""event"":""fullscreenenter"",""trial"":1,""time"":3784}]",NA,NA,NA,NA,NA,3,#741CD8,#D8271C,0,10,0,38,1,1112.5,39,0,471.19999980926514,10,1,experiment,NA,NA,0,0.1,0.9,1,0,89,2,NA
fcp-trial,123,749280,0.0-98.0-0.0,voc_e2,11764,"[{""event"":""fullscreenenter"",""trial"":1,""time"":3784}]",NA,NA,NA,NA,NA,5,#741CD8,#D8271C,0,10,0,40,0,1293.9000000953674,37,1,503.69999980926514,0,0,experiment,NA,NA,0,0.1,0.9,1,0,90,2,NA
fcp-trial,124,752799,0.0-99.0-0.0,voc_e2,11764,"[{""event"":""fullscreenenter"",""trial"":1,""time"":3784}]",NA,NA,NA,NA,NA,6,#1CD855,#FA92F8,0,0,1,40,0,1399.5999999046326,37,1,616.5,0,1,experiment,NA,NA,1,0.7,0.3,2,3,91,3,NA
fcp-trial,125,756360,0.0-100.0-0.0,voc_e2,11764,"[{""event"":""fullscreenenter"",""trial"":1,""time"":3784}]",NA,NA,NA,NA,NA,3,#D89F1C,#3386FF,0,10,1,38,1,1065.1999998092651,37,1,989.9000000953674,0,1,experiment,NA,NA,2,0.5,0.5,4,5,92,3,NA
fcp-trial,126,759472,0.0-101.0-0.0,voc_e2,11764,"[{""event"":""fullscreenenter"",""trial"":1,""time"":3784}]",NA,NA,NA,NA,NA,2,#D8271C,#741CD8,0,0,1,38,1,951.2000002861023,37,1,655.5999999046326,0,1,experiment,NA,NA,0,0.9,0.1,0,1,93,3,NA
fcp-trial,127,762344,0.0-102.0-0.0,voc_e2,11764,"[{""event"":""fullscreenenter"",""trial"":1,""time"":3784}]",NA,NA,NA,NA,NA,1,#D89F1C,#3386FF,10,0,1,38,1,807.9000000953674,37,1,558.5999999046326,10,1,experiment,NA,NA,2,0.5,0.5,4,5,94,3,NA
fcp-trial,128,765808,0.0-103.0-0.0,voc_e2,11764,"[{""event"":""fullscreenenter"",""trial"":1,""time"":3784}]",NA,NA,NA,NA,NA,4,#D8271C,#741CD8,10,0,1,38,1,1350.2000002861023,37,1,607.6999998092651,10,1,experiment,NA,NA,0,0.9,0.1,0,1,95,3,NA
fcp-trial,129,769144,0.0-104.0-0.0,voc_e2,11764,"[{""event"":""fullscreenenter"",""trial"":1,""time"":3784}]",NA,NA,NA,NA,NA,0,#FA92F8,#1CD855,0,10,0,38,1,1007.5,39,0,822.5999999046326,10,1,experiment,NA,NA,1,0.3,0.7,3,2,96,3,NA
fcp-trial,130,772264,0.0-105.0-0.0,voc_e2,11764,"[{""event"":""fullscreenenter"",""trial"":1,""time"":3784}]",NA,NA,NA,NA,NA,3,#1CD855,#FA92F8,0,0,1,38,1,1023.5999999046326,37,1,592,0,1,experiment,NA,NA,1,0.7,0.3,2,3,97,3,NA
fcp-trial,131,775239,0.0-106.0-0.0,voc_e2,11764,"[{""event"":""fullscreenenter"",""trial"":1,""time"":3784}]",NA,NA,NA,NA,NA,4,#D89F1C,#3386FF,0,10,1,38,1,1065.1000003814697,37,1,406.7000002861023,0,1,experiment,NA,NA,2,0.5,0.5,4,5,98,3,NA
fcp-trial,132,778831,0.0-107.0-0.0,voc_e2,11764,"[{""event"":""fullscreenenter"",""trial"":1,""time"":3784}]",NA,NA,NA,NA,NA,6,#D8271C,#741CD8,10,0,1,40,0,1144.3000001907349,39,0,942.8000001907349,0,0,experiment,NA,NA,0,0.9,0.1,0,1,99,3,NA
fcp-trial,133,781720,0.0-108.0-0.0,voc_e2,11764,"[{""event"":""fullscreenenter"",""trial"":1,""time"":3784}]",NA,NA,NA,NA,NA,1,#1CD855,#FA92F8,10,10,1,38,1,849.3000001907349,37,1,535.5999999046326,10,1,experiment,NA,NA,1,0.7,0.3,2,3,100,3,NA
fcp-trial,134,784616,0.0-109.0-0.0,voc_e2,11764,"[{""event"":""fullscreenenter"",""trial"":1,""time"":3784}]",NA,NA,NA,NA,NA,2,#1CD855,#FA92F8,10,10,1,38,1,976.4000000953674,37,1,415.80000019073486,10,1,experiment,NA,NA,1,0.7,0.3,2,3,101,3,NA
fcp-trial,135,787951,0.0-110.0-0.0,voc_e2,11764,"[{""event"":""fullscreenenter"",""trial"":1,""time"":3784}]",NA,NA,NA,NA,NA,0,#741CD8,#D8271C,0,10,0,38,1,1423.5,39,0,406.80000019073486,10,1,experiment,NA,NA,0,0.1,0.9,1,0,102,3,NA
fcp-trial,136,791248,0.0-111.0-0.0,voc_e2,11764,"[{""event"":""fullscreenenter"",""trial"":1,""time"":3784}]",NA,NA,NA,NA,NA,5,#3386FF,#D89F1C,0,0,0,40,0,1295,39,0,494.80000019073486,0,1,experiment,NA,NA,2,0.5,0.5,5,4,103,3,NA
fcp-trial,137,794247,0.0-112.0-0.0,voc_e2,11764,"[{""event"":""fullscreenenter"",""trial"":1,""time"":3784}]",NA,NA,NA,NA,NA,5,#FA92F8,#1CD855,0,0,0,40,0,945.0999999046326,37,1,549.6000003814697,0,0,experiment,NA,NA,1,0.3,0.7,3,2,104,3,NA
fcp-trial,138,797472,0.0-113.0-0.0,voc_e2,11764,"[{""event"":""fullscreenenter"",""trial"":1,""time"":3784}]",NA,NA,NA,NA,NA,0,#D89F1C,#3386FF,0,0,1,38,1,1281.6999998092651,37,1,437,0,1,experiment,NA,NA,2,0.5,0.5,4,5,105,3,NA
audio-instructions,139,859649,0.0-114.0,voc_e2,11764,"[{""event"":""fullscreenenter"",""trial"":1,""time"":3784}]",NA,57065.199999809265,static/audio/pause.wav,NA,0,NA,NA,NA,NA,NA,NA,NA,NA,NA,NA,NA,NA,NA,NA,NA,NA,NA,NA,NA,NA,NA,NA,NA,NA,NA
fcp-trial,140,864120,0.0-115.0-0.0,voc_e2,11764,"[{""event"":""fullscreenenter"",""trial"":1,""time"":3784}]",NA,NA,NA,NA,NA,2,#1CD855,#FA92F8,10,0,1,38,1,2383.2999997138977,37,1,582,10,1,experiment,NA,NA,1,0.7,0.3,2,3,106,3,NA
fcp-trial,141,866823,0.0-116.0-0.0,voc_e2,11764,"[{""event"":""fullscreenenter"",""trial"":1,""time"":3784}]",NA,NA,NA,NA,NA,0,#D89F1C,#3386FF,0,10,1,38,1,847,37,1,351.1000003814697,0,1,experiment,NA,NA,2,0.5,0.5,4,5,107,3,NA
fcp-trial,142,870103,0.0-117.0-0.0,voc_e2,11764,"[{""event"":""fullscreenenter"",""trial"":1,""time"":3784}]",NA,NA,NA,NA,NA,4,#D8271C,#741CD8,10,0,1,38,1,1512.7000002861023,37,1,262.80000019073486,10,1,experiment,NA,NA,0,0.9,0.1,0,1,108,3,NA
fcp-trial,143,873151,0.0-118.0-0.0,voc_e2,11764,"[{""event"":""fullscreenenter"",""trial"":1,""time"":3784}]",NA,NA,NA,NA,NA,4,#1CD855,#FA92F8,10,0,1,38,1,1152,37,1,391.2000002861023,10,1,experiment,NA,NA,1,0.7,0.3,2,3,109,3,NA
fcp-trial,144,875912,0.0-119.0-0.0,voc_e2,11764,"[{""event"":""fullscreenenter"",""trial"":1,""time"":3784}]",NA,NA,NA,NA,NA,2,#D8271C,#741CD8,10,0,1,38,1,848.5,37,1,408.40000009536743,10,1,experiment,NA,NA,0,0.9,0.1,0,1,110,3,NA
fcp-trial,145,879510,0.0-120.0-0.0,voc_e2,11764,"[{""event"":""fullscreenenter"",""trial"":1,""time"":3784}]",NA,NA,NA,NA,NA,5,#3386FF,#D89F1C,10,10,0,40,0,1522.4000000953674,39,0,570.8000001907349,10,1,experiment,NA,NA,2,0.5,0.5,5,4,111,3,NA
fcp-trial,146,883383,0.0-121.0-0.0,voc_e2,11764,"[{""event"":""fullscreenenter"",""trial"":1,""time"":3784}]",NA,NA,NA,NA,NA,1,#1CD855,#FA92F8,10,0,1,38,1,1975.8000001907349,37,1,390,10,1,experiment,NA,NA,1,0.7,0.3,2,3,112,3,NA
fcp-trial,147,887382,0.0-122.0-0.0,voc_e2,11764,"[{""event"":""fullscreenenter"",""trial"":1,""time"":3784}]",NA,NA,NA,NA,NA,1,#741CD8,#D8271C,0,10,0,38,1,1584.6999998092651,39,0,910.2999997138977,10,1,experiment,NA,NA,0,0.1,0.9,1,0,113,3,NA
fcp-trial,148,890903,0.0-123.0-0.0,voc_e2,11764,"[{""event"":""fullscreenenter"",""trial"":1,""time"":3784}]",NA,NA,NA,NA,NA,6,#FA92F8,#1CD855,10,0,0,40,0,1249.9000000953674,39,0,766.0999999046326,0,1,experiment,NA,NA,1,0.3,0.7,3,2,114,3,NA
fcp-trial,149,894238,0.0-124.0-0.0,voc_e2,11764,"[{""event"":""fullscreenenter"",""trial"":1,""time"":3784}]",NA,NA,NA,NA,NA,5,#D8271C,#741CD8,10,0,1,40,0,1129,39,0,703.1999998092651,0,0,experiment,NA,NA,0,0.9,0.1,0,1,115,3,NA
fcp-trial,150,897111,0.0-125.0-0.0,voc_e2,11764,"[{""event"":""fullscreenenter"",""trial"":1,""time"":3784}]",NA,NA,NA,NA,NA,3,#D89F1C,#3386FF,0,0,1,38,1,959.4000000953674,37,1,407.59999990463257,0,1,experiment,NA,NA,2,0.5,0.5,4,5,116,3,NA
fcp-trial,151,900655,0.0-126.0-0.0,voc_e2,11764,"[{""event"":""fullscreenenter"",""trial"":1,""time"":3784}]",NA,NA,NA,NA,NA,6,#741CD8,#D8271C,0,10,0,40,0,1280.0999999046326,37,1,758.9000000953674,0,0,experiment,NA,NA,0,0.1,0.9,1,0,117,3,NA
fcp-trial,152,903927,0.0-127.0-0.0,voc_e2,11764,"[{""event"":""fullscreenenter"",""trial"":1,""time"":3784}]",NA,NA,NA,NA,NA,5,#FA92F8,#1CD855,0,10,0,40,0,1047.5,37,1,719.8000001907349,0,0,experiment,NA,NA,1,0.3,0.7,3,2,118,3,NA
fcp-trial,153,908071,0.0-128.0-0.0,voc_e2,11764,"[{""event"":""fullscreenenter"",""trial"":1,""time"":3784}]",NA,NA,NA,NA,NA,0,#D8271C,#741CD8,10,0,1,38,1,2000.6000003814697,37,1,637.4000000953674,10,1,experiment,NA,NA,0,0.9,0.1,0,1,119,3,NA
fcp-trial,154,911022,0.0-129.0-0.0,voc_e2,11764,"[{""event"":""fullscreenenter"",""trial"":1,""time"":3784}]",NA,NA,NA,NA,NA,6,#D89F1C,#3386FF,0,0,1,40,0,904.7000002861023,37,1,542.0999999046326,0,1,experiment,NA,NA,2,0.5,0.5,4,5,120,3,NA
fcp-trial,155,914342,0.0-130.0-0.0,voc_e2,11764,"[{""event"":""fullscreenenter"",""trial"":1,""time"":3784}]",NA,NA,NA,NA,NA,0,#1CD855,#FA92F8,10,0,1,38,1,833.2999997138977,37,1,983.9000000953674,10,1,experiment,NA,NA,1,0.7,0.3,2,3,121,3,NA
fcp-trial,156,917567,0.0-131.0-0.0,voc_e2,11764,"[{""event"":""fullscreenenter"",""trial"":1,""time"":3784}]",NA,NA,NA,NA,NA,4,#3386FF,#D89F1C,0,0,0,40,0,1255.7999997138977,39,0,462.2999997138977,0,1,experiment,NA,NA,2,0.5,0.5,5,4,122,3,NA
fcp-trial,157,920942,0.0-132.0-0.0,voc_e2,11764,"[{""event"":""fullscreenenter"",""trial"":1,""time"":3784}]",NA,NA,NA,NA,NA,3,#741CD8,#D8271C,0,10,0,38,1,1248.9000000953674,37,1,622.9000000953674,0,0,experiment,NA,NA,0,0.1,0.9,1,0,123,3,NA
fcp-trial,158,923855,0.0-133.0-0.0,voc_e2,11764,"[{""event"":""fullscreenenter"",""trial"":1,""time"":3784}]",NA,NA,NA,NA,NA,1,#3386FF,#D89F1C,0,10,0,38,1,1000.9000000953674,39,0,405.80000019073486,10,1,experiment,NA,NA,2,0.5,0.5,5,4,124,3,NA
fcp-trial,159,927632,0.0-134.0-0.0,voc_e2,11764,"[{""event"":""fullscreenenter"",""trial"":1,""time"":3784}]",NA,NA,NA,NA,NA,3,#1CD855,#FA92F8,10,0,1,38,1,1721.0999999046326,37,1,550.5,10,1,experiment,NA,NA,1,0.7,0.3,2,3,125,3,NA
fcp-trial,160,930952,0.0-135.0-0.0,voc_e2,11764,"[{""event"":""fullscreenenter"",""trial"":1,""time"":3784}]",NA,NA,NA,NA,NA,2,#3386FF,#D89F1C,0,0,0,38,1,1280.5999999046326,39,0,534.5,0,1,experiment,NA,NA,2,0.5,0.5,5,4,126,3,NA
fcp-trial,161,934089,0.0-136.0-0.0,voc_e2,11764,"[{""event"":""fullscreenenter"",""trial"":1,""time"":3784}]",NA,NA,NA,NA,NA,5,#3386FF,#D89F1C,0,0,0,40,0,1143.3000001907349,37,1,487.80000019073486,0,0,experiment,NA,NA,2,0.5,0.5,5,4,127,3,NA
fcp-trial,162,937239,0.0-137.0-0.0,voc_e2,11764,"[{""event"":""fullscreenenter"",""trial"":1,""time"":3784}]",NA,NA,NA,NA,NA,3,#3386FF,#D89F1C,0,0,0,38,1,973.9000000953674,39,0,670.5,0,1,experiment,NA,NA,2,0.5,0.5,5,4,128,3,NA
fcp-trial,163,940359,0.0-138.0-0.0,voc_e2,11764,"[{""event"":""fullscreenenter"",""trial"":1,""time"":3784}]",NA,NA,NA,NA,NA,4,#1CD855,#FA92F8,10,0,1,38,1,1257.3000001907349,37,1,358.19999980926514,10,1,experiment,NA,NA,1,0.7,0.3,2,3,129,3,NA
fcp-trial,164,943534,0.0-139.0-0.0,voc_e2,11764,"[{""event"":""fullscreenenter"",""trial"":1,""time"":3784}]",NA,NA,NA,NA,NA,5,#D8271C,#741CD8,0,0,1,40,0,1111.5,37,1,553.0999999046326,0,1,experiment,NA,NA,0,0.9,0.1,0,1,130,3,NA
fcp-trial,165,946686,0.0-140.0-0.0,voc_e2,11764,"[{""event"":""fullscreenenter"",""trial"":1,""time"":3784}]",NA,NA,NA,NA,NA,0,#D89F1C,#3386FF,10,10,1,38,1,1122.4000000953674,37,1,526.0999999046326,10,1,experiment,NA,NA,2,0.5,0.5,4,5,131,3,NA
fcp-trial,166,950687,0.0-141.0-0.0,voc_e2,11764,"[{""event"":""fullscreenenter"",""trial"":1,""time"":3784}]",NA,NA,NA,NA,NA,4,#3386FF,#D89F1C,10,10,0,40,0,2042,37,1,454.69999980926514,10,0,experiment,NA,NA,2,0.5,0.5,5,4,132,3,NA
fcp-trial,167,954039,0.0-142.0-0.0,voc_e2,11764,"[{""event"":""fullscreenenter"",""trial"":1,""time"":3784}]",NA,NA,NA,NA,NA,6,#D8271C,#741CD8,10,0,1,40,0,1209.8999996185303,39,0,636.9000000953674,0,0,experiment,NA,NA,0,0.9,0.1,0,1,133,3,NA
fcp-trial,168,961391,0.0-143.0-0.0,voc_e2,11764,"[{""event"":""fullscreenenter"",""trial"":1,""time"":3784}]",NA,NA,NA,NA,NA,2,#1CD855,#FA92F8,10,10,1,38,1,5335.700000286102,37,1,511,10,1,experiment,NA,NA,1,0.7,0.3,2,3,134,3,NA
fcp-trial,169,964240,0.0-144.0-0.0,voc_e2,11764,"[{""event"":""fullscreenenter"",""trial"":1,""time"":3784}]",NA,NA,NA,NA,NA,2,#D89F1C,#3386FF,0,10,1,38,1,888.4000000953674,37,1,454.19999980926514,0,1,experiment,NA,NA,2,0.5,0.5,4,5,135,3,NA
fcp-trial,170,967111,0.0-145.0-0.0,voc_e2,11764,"[{""event"":""fullscreenenter"",""trial"":1,""time"":3784}]",NA,NA,NA,NA,NA,3,#741CD8,#D8271C,0,10,0,38,1,776.5,37,1,590.5999999046326,0,0,experiment,NA,NA,0,0.1,0.9,1,0,136,4,NA
fcp-trial,171,970145,0.0-146.0-0.0,voc_e2,11764,"[{""event"":""fullscreenenter"",""trial"":1,""time"":3784}]",NA,NA,NA,NA,NA,0,#1CD855,#FA92F8,0,10,1,38,1,735.3000001907349,37,1,792.4000000953674,0,1,experiment,NA,NA,1,0.7,0.3,2,3,137,4,NA
fcp-trial,172,973256,0.0-147.0-0.0,voc_e2,11764,"[{""event"":""fullscreenenter"",""trial"":1,""time"":3784}]",NA,NA,NA,NA,NA,6,#D89F1C,#3386FF,0,10,1,40,0,1117.6999998092651,37,1,486.40000009536743,0,1,experiment,NA,NA,2,0.5,0.5,4,5,138,4,NA
fcp-trial,173,977102,0.0-148.0-0.0,voc_e2,11764,"[{""event"":""fullscreenenter"",""trial"":1,""time"":3784}]",NA,NA,NA,NA,NA,2,#741CD8,#D8271C,0,0,0,38,1,2031.2999997138977,39,0,311.09999990463257,0,1,experiment,NA,NA,0,0.1,0.9,1,0,139,4,NA
fcp-trial,174,980519,0.0-149.0-0.0,voc_e2,11764,"[{""event"":""fullscreenenter"",""trial"":1,""time"":3784}]",NA,NA,NA,NA,NA,1,#FA92F8,#1CD855,10,10,0,38,1,1096.1999998092651,39,0,814,10,1,experiment,NA,NA,1,0.3,0.7,3,2,140,4,NA
fcp-trial,175,983870,0.0-150.0-0.0,voc_e2,11764,"[{""event"":""fullscreenenter"",""trial"":1,""time"":3784}]",NA,NA,NA,NA,NA,4,#D8271C,#741CD8,10,0,1,40,0,1398.9000000953674,37,1,446.59999990463257,10,1,experiment,NA,NA,0,0.9,0.1,0,1,141,4,NA
fcp-trial,176,987183,0.0-151.0-0.0,voc_e2,11764,"[{""event"":""fullscreenenter"",""trial"":1,""time"":3784}]",NA,NA,NA,NA,NA,3,#FA92F8,#1CD855,10,10,0,38,1,1395.3000001907349,39,0,414.90000009536743,10,1,experiment,NA,NA,1,0.3,0.7,3,2,142,4,NA
fcp-trial,177,990846,0.0-152.0-0.0,voc_e2,11764,"[{""event"":""fullscreenenter"",""trial"":1,""time"":3784}]",NA,NA,NA,NA,NA,1,#3386FF,#D89F1C,10,10,0,38,1,1847.3999996185303,39,0,311.69999980926514,10,1,experiment,NA,NA,2,0.5,0.5,5,4,143,4,NA
fcp-trial,178,993742,0.0-153.0-0.0,voc_e2,11764,"[{""event"":""fullscreenenter"",""trial"":1,""time"":3784}]",NA,NA,NA,NA,NA,5,#1CD855,#FA92F8,10,0,1,40,0,912.2000002861023,39,0,480.3999996185303,0,0,experiment,NA,NA,1,0.7,0.3,2,3,144,4,NA
fcp-trial,179,996633,0.0-154.0-0.0,voc_e2,11764,"[{""event"":""fullscreenenter"",""trial"":1,""time"":3784}]",NA,NA,NA,NA,NA,1,#D8271C,#741CD8,0,0,1,38,1,913.1999998092651,37,1,473.2999997138977,0,1,experiment,NA,NA,0,0.9,0.1,0,1,145,4,NA
fcp-trial,180,999975,0.0-155.0-0.0,voc_e2,11764,"[{""event"":""fullscreenenter"",""trial"":1,""time"":3784}]",NA,NA,NA,NA,NA,6,#FA92F8,#1CD855,0,10,0,40,0,1012.6999998092651,37,1,821.2999997138977,0,0,experiment,NA,NA,1,0.3,0.7,3,2,146,4,NA
fcp-trial,181,1002766,0.0-156.0-0.0,voc_e2,11764,"[{""event"":""fullscreenenter"",""trial"":1,""time"":3784}]",NA,NA,NA,NA,NA,0,#741CD8,#D8271C,0,0,0,38,1,725.6999998092651,39,0,560.1999998092651,0,1,experiment,NA,NA,0,0.1,0.9,1,0,147,4,NA
fcp-trial,182,1006280,0.0-157.0-0.0,voc_e2,11764,"[{""event"":""fullscreenenter"",""trial"":1,""time"":3784}]",NA,NA,NA,NA,NA,2,#D8271C,#741CD8,10,0,1,38,1,1528.8000001907349,37,1,479.69999980926514,10,1,experiment,NA,NA,0,0.9,0.1,0,1,148,4,NA
fcp-trial,183,1010982,0.0-158.0-0.0,voc_e2,11764,"[{""event"":""fullscreenenter"",""trial"":1,""time"":3784}]",NA,NA,NA,NA,NA,4,#1CD855,#FA92F8,10,10,1,40,0,2110.9000000953674,37,1,1086.6999998092651,10,1,experiment,NA,NA,1,0.7,0.3,2,3,149,4,NA
fcp-trial,184,1014151,0.0-159.0-0.0,voc_e2,11764,"[{""event"":""fullscreenenter"",""trial"":1,""time"":3784}]",NA,NA,NA,NA,NA,5,#D89F1C,#3386FF,0,0,1,40,0,1126.6999998092651,39,0,536.1999998092651,0,0,experiment,NA,NA,2,0.5,0.5,4,5,150,4,NA
fcp-trial,185,1017342,0.0-160.0-0.0,voc_e2,11764,"[{""event"":""fullscreenenter"",""trial"":1,""time"":3784}]",NA,NA,NA,NA,NA,4,#741CD8,#D8271C,0,10,0,40,0,1039.0999999046326,37,1,648.3000001907349,0,0,experiment,NA,NA,0,0.1,0.9,1,0,151,4,NA
fcp-trial,186,1020319,0.0-161.0-0.0,voc_e2,11764,"[{""event"":""fullscreenenter"",""trial"":1,""time"":3784}]",NA,NA,NA,NA,NA,5,#FA92F8,#1CD855,0,0,0,40,0,968.6999998092651,39,0,503.1000003814697,0,1,experiment,NA,NA,1,0.3,0.7,3,2,152,4,NA
fcp-trial,187,1023377,0.0-162.0-0.0,voc_e2,11764,"[{""event"":""fullscreenenter"",""trial"":1,""time"":3784}]",NA,NA,NA,NA,NA,1,#D89F1C,#3386FF,0,10,1,38,1,1239.7000002861023,37,1,311.30000019073486,0,1,experiment,NA,NA,2,0.5,0.5,4,5,153,4,NA
fcp-trial,188,1029581,0.0-163.0-0.0,voc_e2,11764,"[{""event"":""fullscreenenter"",""trial"":1,""time"":3784}]",NA,NA,NA,NA,NA,3,#D8271C,#741CD8,10,0,1,38,1,4165.799999713898,37,1,534.8000001907349,10,1,experiment,NA,NA,0,0.9,0.1,0,1,154,4,NA
fcp-trial,189,1034445,0.0-164.0-0.0,voc_e2,11764,"[{""event"":""fullscreenenter"",""trial"":1,""time"":3784}]",NA,NA,NA,NA,NA,0,#FA92F8,#1CD855,0,10,0,38,1,2838.300000190735,39,0,519.5,10,1,experiment,NA,NA,1,0.3,0.7,3,2,155,4,NA
fcp-trial,190,1037565,0.0-165.0-0.0,voc_e2,11764,"[{""event"":""fullscreenenter"",""trial"":1,""time"":3784}]",NA,NA,NA,NA,NA,6,#D89F1C,#3386FF,10,0,1,40,0,1169.7000002861023,37,1,447.09999990463257,10,1,experiment,NA,NA,2,0.5,0.5,4,5,156,4,NA
fcp-trial,191,1040526,0.0-166.0-0.0,voc_e2,11764,"[{""event"":""fullscreenenter"",""trial"":1,""time"":3784}]",NA,NA,NA,NA,NA,6,#FA92F8,#1CD855,0,0,0,40,0,1007.7999997138977,39,0,447,0,1,experiment,NA,NA,1,0.3,0.7,3,2,157,4,NA
fcp-trial,192,1043432,0.0-167.0-0.0,voc_e2,11764,"[{""event"":""fullscreenenter"",""trial"":1,""time"":3784}]",NA,NA,NA,NA,NA,5,#D8271C,#741CD8,10,10,1,40,0,897.3000001907349,37,1,503.69999980926514,10,1,experiment,NA,NA,0,0.9,0.1,0,1,158,4,NA
fcp-trial,193,1046759,0.0-168.0-0.0,voc_e2,11764,"[{""event"":""fullscreenenter"",""trial"":1,""time"":3784}]",NA,NA,NA,NA,NA,2,#3386FF,#D89F1C,0,0,0,38,1,1381.7000002861023,39,0,437.90000009536743,0,1,experiment,NA,NA,2,0.5,0.5,5,4,159,4,NA
fcp-trial,194,1050104,0.0-169.0-0.0,voc_e2,11764,"[{""event"":""fullscreenenter"",""trial"":1,""time"":3784}]",NA,NA,NA,NA,NA,0,#741CD8,#D8271C,0,10,0,38,1,960.4000000953674,39,0,880.5999999046326,10,1,experiment,NA,NA,0,0.1,0.9,1,0,160,4,NA
fcp-trial,195,1052806,0.0-170.0-0.0,voc_e2,11764,"[{""event"":""fullscreenenter"",""trial"":1,""time"":3784}]",NA,NA,NA,NA,NA,1,#FA92F8,#1CD855,10,10,0,38,1,839.0999999046326,39,0,358.80000019073486,10,1,experiment,NA,NA,1,0.3,0.7,3,2,161,4,NA
fcp-trial,196,1057111,0.0-171.0-0.0,voc_e2,11764,"[{""event"":""fullscreenenter"",""trial"":1,""time"":3784}]",NA,NA,NA,NA,NA,2,#FA92F8,#1CD855,0,0,0,38,1,1080.9000000953674,39,0,1719,0,1,experiment,NA,NA,1,0.3,0.7,3,2,162,4,NA
fcp-trial,197,1060006,0.0-172.0-0.0,voc_e2,11764,"[{""event"":""fullscreenenter"",""trial"":1,""time"":3784}]",NA,NA,NA,NA,NA,6,#741CD8,#D8271C,0,10,0,40,0,863.7999997138977,39,0,526.5,10,1,experiment,NA,NA,0,0.1,0.9,1,0,163,4,NA
fcp-trial,198,1063294,0.0-173.0-0.0,voc_e2,11764,"[{""event"":""fullscreenenter"",""trial"":1,""time"":3784}]",NA,NA,NA,NA,NA,0,#3386FF,#D89F1C,0,10,0,38,1,753.0999999046326,39,0,1030.5,10,1,experiment,NA,NA,2,0.5,0.5,5,4,164,4,NA
fcp-trial,199,1068849,0.0-174.0-0.0,voc_e2,11764,"[{""event"":""fullscreenenter"",""trial"":1,""time"":3784}]",NA,NA,NA,NA,NA,3,#D89F1C,#3386FF,10,10,1,38,1,3648,37,1,400.5,10,1,experiment,NA,NA,2,0.5,0.5,4,5,165,4,NA
fcp-trial,200,1073405,0.0-175.0-0.0,voc_e2,11764,"[{""event"":""fullscreenenter"",""trial"":1,""time"":3784}]",NA,NA,NA,NA,NA,3,#FA92F8,#1CD855,0,10,0,38,1,2588.5,39,0,462,10,1,experiment,NA,NA,1,0.3,0.7,3,2,166,4,NA
fcp-trial,201,1076534,0.0-176.0-0.0,voc_e2,11764,"[{""event"":""fullscreenenter"",""trial"":1,""time"":3784}]",NA,NA,NA,NA,NA,4,#3386FF,#D89F1C,0,10,0,38,1,1202.0999999046326,39,0,422.59999990463257,10,1,experiment,NA,NA,2,0.5,0.5,5,4,167,4,NA
fcp-trial,202,1080591,0.0-177.0-0.0,voc_e2,11764,"[{""event"":""fullscreenenter"",""trial"":1,""time"":3784}]",NA,NA,NA,NA,NA,1,#741CD8,#D8271C,0,10,0,38,1,1159.5,39,0,1390.3999996185303,10,1,experiment,NA,NA,0,0.1,0.9,1,0,168,4,NA
fcp-trial,203,1085199,0.0-178.0-0.0,voc_e2,11764,"[{""event"":""fullscreenenter"",""trial"":1,""time"":3784}]",NA,NA,NA,NA,NA,4,#1CD855,#FA92F8,0,10,1,38,1,1256.7000002861023,37,1,1846.5,0,1,experiment,NA,NA,1,0.7,0.3,2,3,169,4,NA
fcp-trial,204,1088190,0.0-179.0-0.0,voc_e2,11764,"[{""event"":""fullscreenenter"",""trial"":1,""time"":3784}]",NA,NA,NA,NA,NA,2,#741CD8,#D8271C,0,10,0,38,1,984.8000001907349,39,0,500.09999990463257,10,1,experiment,NA,NA,0,0.1,0.9,1,0,170,4,NA
fcp-trial,205,1091816,0.0-180.0-0.0,voc_e2,11764,"[{""event"":""fullscreenenter"",""trial"":1,""time"":3784}]",NA,NA,NA,NA,NA,6,#1CD855,#FA92F8,10,10,1,40,0,1248.2999997138977,37,1,870.5999999046326,10,1,experiment,NA,NA,1,0.7,0.3,2,3,171,4,NA
fcp-trial,206,1095813,0.0-181.0-0.0,voc_e2,11764,"[{""event"":""fullscreenenter"",""trial"":1,""time"":3784}]",NA,NA,NA,NA,NA,0,#741CD8,#D8271C,0,10,0,38,1,958.5,39,0,1535.5,10,1,experiment,NA,NA,0,0.1,0.9,1,0,172,4,NA
fcp-trial,207,1098927,0.0-182.0-0.0,voc_e2,11764,"[{""event"":""fullscreenenter"",""trial"":1,""time"":3784}]",NA,NA,NA,NA,NA,1,#FA92F8,#1CD855,0,10,0,38,1,1249.0999999046326,39,0,359.59999990463257,10,1,experiment,NA,NA,1,0.3,0.7,3,2,173,4,NA
fcp-trial,208,1101757,0.0-183.0-0.0,voc_e2,11764,"[{""event"":""fullscreenenter"",""trial"":1,""time"":3784}]",NA,NA,NA,NA,NA,1,#741CD8,#D8271C,10,10,0,38,1,928.5999999046326,39,0,398.5,10,1,experiment,NA,NA,0,0.1,0.9,1,0,174,4,NA
fcp-trial,209,1105031,0.0-184.0-0.0,voc_e2,11764,"[{""event"":""fullscreenenter"",""trial"":1,""time"":3784}]",NA,NA,NA,NA,NA,0,#D89F1C,#3386FF,0,0,1,38,1,1410.7000002861023,37,1,356.90000009536743,0,1,experiment,NA,NA,2,0.5,0.5,4,5,175,4,NA
fcp-trial,210,1108014,0.0-185.0-0.0,voc_e2,11764,"[{""event"":""fullscreenenter"",""trial"":1,""time"":3784}]",NA,NA,NA,NA,NA,2,#3386FF,#D89F1C,10,0,0,38,1,1151.5999999046326,39,0,326.7999997138977,0,1,experiment,NA,NA,2,0.5,0.5,5,4,176,4,NA
fcp-trial,211,1111629,0.0-186.0-0.0,voc_e2,11764,"[{""event"":""fullscreenenter"",""trial"":1,""time"":3784}]",NA,NA,NA,NA,NA,3,#1CD855,#FA92F8,0,0,1,38,1,1600.9000000953674,37,1,511.2000002861023,0,1,experiment,NA,NA,1,0.7,0.3,2,3,177,4,NA
fcp-trial,212,1115287,0.0-187.0-0.0,voc_e2,11764,"[{""event"":""fullscreenenter"",""trial"":1,""time"":3784}]",NA,NA,NA,NA,NA,5,#3386FF,#D89F1C,0,0,0,40,0,1474.5999999046326,39,0,679,0,1,experiment,NA,NA,2,0.5,0.5,5,4,178,4,NA
fcp-trial,213,1118063,0.0-188.0-0.0,voc_e2,11764,"[{""event"":""fullscreenenter"",""trial"":1,""time"":3784}]",NA,NA,NA,NA,NA,3,#D8271C,#741CD8,10,0,1,38,1,960.3999996185303,37,1,311.80000019073486,10,1,experiment,NA,NA,0,0.9,0.1,0,1,179,4,NA
fcp-trial,214,1124087,0.0-189.0-0.0,voc_e2,11764,"[{""event"":""fullscreenenter"",""trial"":1,""time"":3784}]",NA,NA,NA,NA,NA,0,#FA92F8,#1CD855,0,10,0,38,1,3984.199999809265,39,0,535.6000003814697,10,1,experiment,NA,NA,1,0.3,0.7,3,2,180,4,NA
fcp-trial,215,1127072,0.0-190.0-0.0,voc_e2,11764,"[{""event"":""fullscreenenter"",""trial"":1,""time"":3784}]",NA,NA,NA,NA,NA,2,#FA92F8,#1CD855,0,10,0,38,1,1152.4000000953674,39,0,327.3999996185303,10,1,experiment,NA,NA,1,0.3,0.7,3,2,181,5,NA
fcp-trial,216,1130495,0.0-191.0-0.0,voc_e2,11764,"[{""event"":""fullscreenenter"",""trial"":1,""time"":3784}]",NA,NA,NA,NA,NA,6,#D89F1C,#3386FF,0,10,1,40,0,1301.9000000953674,39,0,615.3999996185303,10,0,experiment,NA,NA,2,0.5,0.5,4,5,182,5,NA
fcp-trial,217,1137991,0.0-192.0-0.0,voc_e2,11764,"[{""event"":""fullscreenenter"",""trial"":1,""time"":3784}]",NA,NA,NA,NA,NA,5,#741CD8,#D8271C,0,10,0,40,0,2719.9000000953674,39,0,3270.9000000953674,10,1,experiment,NA,NA,0,0.1,0.9,1,0,183,5,NA
fcp-trial,218,1143117,0.0-193.0-0.0,voc_e2,11764,"[{""event"":""fullscreenenter"",""trial"":1,""time"":3784}]",NA,NA,NA,NA,NA,1,#D89F1C,#3386FF,10,0,1,38,1,3176.8999996185303,37,1,445.30000019073486,10,1,experiment,NA,NA,2,0.5,0.5,4,5,184,5,NA
fcp-trial,219,1146311,0.0-194.0-0.0,voc_e2,11764,"[{""event"":""fullscreenenter"",""trial"":1,""time"":3784}]",NA,NA,NA,NA,NA,5,#1CD855,#FA92F8,0,0,1,40,0,1033.6000003814697,39,0,653.8000001907349,0,0,experiment,NA,NA,1,0.7,0.3,2,3,185,5,NA
fcp-trial,220,1151230,0.0-195.0-0.0,voc_e2,11764,"[{""event"":""fullscreenenter"",""trial"":1,""time"":3784}]",NA,NA,NA,NA,NA,6,#741CD8,#D8271C,0,0,0,40,0,1041,37,1,2374.5,0,0,experiment,NA,NA,0,0.1,0.9,1,0,186,5,NA
fcp-trial,221,1154606,0.0-196.0-0.0,voc_e2,11764,"[{""event"":""fullscreenenter"",""trial"":1,""time"":3784}]",NA,NA,NA,NA,NA,4,#3386FF,#D89F1C,10,0,0,40,0,1368.0999999046326,39,0,502.90000009536743,0,1,experiment,NA,NA,2,0.5,0.5,5,4,187,5,NA
fcp-trial,222,1158079,0.0-197.0-0.0,voc_e2,11764,"[{""event"":""fullscreenenter"",""trial"":1,""time"":3784}]",NA,NA,NA,NA,NA,4,#741CD8,#D8271C,0,10,0,40,0,1240.4000000953674,37,1,727.0999999046326,0,0,experiment,NA,NA,0,0.1,0.9,1,0,188,5,NA
fcp-trial,223,1161597,0.0-198.0-0.0,voc_e2,11764,"[{""event"":""fullscreenenter"",""trial"":1,""time"":3784}]",NA,NA,NA,NA,NA,3,#3386FF,#D89F1C,0,0,0,38,1,1536.5,39,0,476.59999990463257,0,1,experiment,NA,NA,2,0.5,0.5,5,4,189,5,NA
fcp-trial,224,1164549,0.0-199.0-0.0,voc_e2,11764,"[{""event"":""fullscreenenter"",""trial"":1,""time"":3784}]",NA,NA,NA,NA,NA,3,#FA92F8,#1CD855,0,0,0,38,1,825.7999997138977,37,1,621.4000000953674,0,0,experiment,NA,NA,1,0.3,0.7,3,2,190,5,NA
fcp-trial,225,1170542,0.0-200.0-0.0,voc_e2,11764,"[{""event"":""fullscreenenter"",""trial"":1,""time"":3784}]",NA,NA,NA,NA,NA,4,#1CD855,#FA92F8,10,0,1,38,1,1174.4000000953674,37,1,3311.3999996185303,10,1,experiment,NA,NA,1,0.7,0.3,2,3,191,5,NA
fcp-trial,226,1175565,0.0-201.0-0.0,voc_e2,11764,"[{""event"":""fullscreenenter"",""trial"":1,""time"":3784}]",NA,NA,NA,NA,NA,3,#D8271C,#741CD8,10,10,1,38,1,2735.6000003814697,37,1,782.9000000953674,10,1,experiment,NA,NA,0,0.9,0.1,0,1,192,5,NA
fcp-trial,227,1179229,0.0-202.0-0.0,voc_e2,11764,"[{""event"":""fullscreenenter"",""trial"":1,""time"":3784}]",NA,NA,NA,NA,NA,6,#1CD855,#FA92F8,10,0,1,40,0,1745.3000001907349,39,0,415.30000019073486,0,0,experiment,NA,NA,1,0.7,0.3,2,3,193,5,NA
fcp-trial,228,1182213,0.0-203.0-0.0,voc_e2,11764,"[{""event"":""fullscreenenter"",""trial"":1,""time"":3784}]",NA,NA,NA,NA,NA,5,#741CD8,#D8271C,10,10,0,40,0,969.8000001907349,37,1,510.7000002861023,10,0,experiment,NA,NA,0,0.1,0.9,1,0,194,5,NA
fcp-trial,229,1185357,0.0-204.0-0.0,voc_e2,11764,"[{""event"":""fullscreenenter"",""trial"":1,""time"":3784}]",NA,NA,NA,NA,NA,5,#FA92F8,#1CD855,0,10,0,40,0,1073.0999999046326,37,1,566.7999997138977,0,0,experiment,NA,NA,1,0.3,0.7,3,2,195,5,NA
fcp-trial,230,1188446,0.0-205.0-0.0,voc_e2,11764,"[{""event"":""fullscreenenter"",""trial"":1,""time"":3784}]",NA,NA,NA,NA,NA,2,#741CD8,#D8271C,0,10,0,38,1,1129.0999999046326,39,0,454.69999980926514,10,1,experiment,NA,NA,0,0.1,0.9,1,0,196,5,NA
fcp-trial,231,1191719,0.0-206.0-0.0,voc_e2,11764,"[{""event"":""fullscreenenter"",""trial"":1,""time"":3784}]",NA,NA,NA,NA,NA,1,#1CD855,#FA92F8,10,0,1,38,1,1432.9000000953674,37,1,334.90000009536743,10,1,experiment,NA,NA,1,0.7,0.3,2,3,197,5,NA
fcp-trial,232,1194773,0.0-207.0-0.0,voc_e2,11764,"[{""event"":""fullscreenenter"",""trial"":1,""time"":3784}]",NA,NA,NA,NA,NA,4,#D89F1C,#3386FF,10,0,1,40,0,1092.6000003814697,37,1,453.19999980926514,10,1,experiment,NA,NA,2,0.5,0.5,4,5,198,5,NA
fcp-trial,233,1198229,0.0-208.0-0.0,voc_e2,11764,"[{""event"":""fullscreenenter"",""trial"":1,""time"":3784}]",NA,NA,NA,NA,NA,3,#3386FF,#D89F1C,10,10,0,38,1,1400.6999998092651,39,0,550.4000000953674,10,1,experiment,NA,NA,2,0.5,0.5,5,4,199,5,NA
fcp-trial,234,1202502,0.0-209.0-0.0,voc_e2,11764,"[{""event"":""fullscreenenter"",""trial"":1,""time"":3784}]",NA,NA,NA,NA,NA,1,#3386FF,#D89F1C,10,10,0,38,1,2160.9000000953674,39,0,607.3999996185303,10,1,experiment,NA,NA,2,0.5,0.5,5,4,200,5,NA
fcp-trial,235,1208126,0.0-210.0-0.0,voc_e2,11764,"[{""event"":""fullscreenenter"",""trial"":1,""time"":3784}]",NA,NA,NA,NA,NA,0,#741CD8,#D8271C,0,10,0,38,1,3648.300000190735,39,0,470,10,1,experiment,NA,NA,0,0.1,0.9,1,0,201,5,NA
fcp-trial,236,1211358,0.0-211.0-0.0,voc_e2,11764,"[{""event"":""fullscreenenter"",""trial"":1,""time"":3784}]",NA,NA,NA,NA,NA,2,#1CD855,#FA92F8,0,0,1,38,1,1144.7000002861023,37,1,582.7999997138977,0,1,experiment,NA,NA,1,0.7,0.3,2,3,202,5,NA
fcp-trial,237,1214406,0.0-212.0-0.0,voc_e2,11764,"[{""event"":""fullscreenenter"",""trial"":1,""time"":3784}]",NA,NA,NA,NA,NA,4,#D8271C,#741CD8,10,0,1,40,0,1000.5,37,1,542.2999997138977,10,1,experiment,NA,NA,0,0.9,0.1,0,1,203,5,NA
fcp-trial,238,1218470,0.0-213.0-0.0,voc_e2,11764,"[{""event"":""fullscreenenter"",""trial"":1,""time"":3784}]",NA,NA,NA,NA,NA,2,#D89F1C,#3386FF,10,10,1,38,1,2222.5,37,1,334.7000002861023,10,1,experiment,NA,NA,2,0.5,0.5,4,5,204,5,NA
fcp-trial,239,1221489,0.0-214.0-0.0,voc_e2,11764,"[{""event"":""fullscreenenter"",""trial"":1,""time"":3784}]",NA,NA,NA,NA,NA,6,#D8271C,#741CD8,10,0,1,40,0,1085.7000002861023,37,1,422.19999980926514,10,1,experiment,NA,NA,0,0.9,0.1,0,1,205,5,NA
fcp-trial,240,1225743,0.0-215.0-0.0,voc_e2,11764,"[{""event"":""fullscreenenter"",""trial"":1,""time"":3784}]",NA,NA,NA,NA,NA,0,#1CD855,#FA92F8,0,10,1,38,1,1941,37,1,806,0,1,experiment,NA,NA,1,0.7,0.3,2,3,206,5,NA
fcp-trial,241,1229326,0.0-216.0-0.0,voc_e2,11764,"[{""event"":""fullscreenenter"",""trial"":1,""time"":3784}]",NA,NA,NA,NA,NA,5,#D89F1C,#3386FF,0,0,1,40,0,1255.5999999046326,39,0,823.6999998092651,0,0,experiment,NA,NA,2,0.5,0.5,4,5,207,5,NA
fcp-trial,242,1233271,0.0-217.0-0.0,voc_e2,11764,"[{""event"":""fullscreenenter"",""trial"":1,""time"":3784}]",NA,NA,NA,NA,NA,0,#3386FF,#D89F1C,0,10,0,38,1,1280.2999997138977,39,0,1159.2999997138977,10,1,experiment,NA,NA,2,0.5,0.5,5,4,208,5,NA
fcp-trial,243,1236150,0.0-218.0-0.0,voc_e2,11764,"[{""event"":""fullscreenenter"",""trial"":1,""time"":3784}]",NA,NA,NA,NA,NA,6,#3386FF,#D89F1C,0,10,0,40,0,781.8000001907349,39,0,591,10,1,experiment,NA,NA,2,0.5,0.5,5,4,209,5,NA
fcp-trial,244,1240175,0.0-219.0-0.0,voc_e2,11764,"[{""event"":""fullscreenenter"",""trial"":1,""time"":3784}]",NA,NA,NA,NA,NA,1,#D8271C,#741CD8,10,0,1,38,1,2193.4000000953674,37,1,326.80000019073486,10,1,experiment,NA,NA,0,0.9,0.1,0,1,210,5,NA
audio-instructions,245,1335180,0.0-220.0,voc_e2,11764,"[{""event"":""fullscreenenter"",""trial"":1,""time"":3784}]",NA,90056.69999980927,static/audio/pause.wav,NA,0,NA,NA,NA,NA,NA,NA,NA,NA,NA,NA,NA,NA,NA,NA,NA,NA,NA,NA,NA,NA,NA,NA,NA,NA,NA
fcp-trial,246,1338765,0.0-221.0-0.0,voc_e2,11764,"[{""event"":""fullscreenenter"",""trial"":1,""time"":3784}]",NA,NA,NA,NA,NA,6,#FA92F8,#1CD855,0,10,0,40,0,1519.5,39,0,557.3000001907349,10,1,experiment,NA,NA,1,0.3,0.7,3,2,211,5,NA
fcp-trial,247,1341836,0.0-222.0-0.0,voc_e2,11764,"[{""event"":""fullscreenenter"",""trial"":1,""time"":3784}]",NA,NA,NA,NA,NA,1,#741CD8,#D8271C,10,10,0,38,1,880.5999999046326,39,0,686.1999998092651,10,1,experiment,NA,NA,0,0.1,0.9,1,0,212,5,NA
fcp-trial,248,1345927,0.0-223.0-0.0,voc_e2,11764,"[{""event"":""fullscreenenter"",""trial"":1,""time"":3784}]",NA,NA,NA,NA,NA,4,#D8271C,#741CD8,0,0,1,38,1,2137.4000000953674,37,1,448.7000002861023,0,1,experiment,NA,NA,0,0.9,0.1,0,1,213,5,NA
fcp-trial,249,1349510,0.0-224.0-0.0,voc_e2,11764,"[{""event"":""fullscreenenter"",""trial"":1,""time"":3784}]",NA,NA,NA,NA,NA,4,#D89F1C,#3386FF,10,0,1,38,1,1559.0999999046326,37,1,519.9000000953674,10,1,experiment,NA,NA,2,0.5,0.5,4,5,214,5,NA
fcp-trial,250,1352628,0.0-225.0-0.0,voc_e2,11764,"[{""event"":""fullscreenenter"",""trial"":1,""time"":3784}]",NA,NA,NA,NA,NA,0,#1CD855,#FA92F8,10,10,1,38,1,990.4000000953674,37,1,623.3000001907349,10,1,experiment,NA,NA,1,0.7,0.3,2,3,215,5,NA
fcp-trial,251,1355972,0.0-226.0-0.0,voc_e2,11764,"[{""event"":""fullscreenenter"",""trial"":1,""time"":3784}]",NA,NA,NA,NA,NA,2,#FA92F8,#1CD855,10,0,0,38,1,1377.9000000953674,39,0,463.09999990463257,0,1,experiment,NA,NA,1,0.3,0.7,3,2,216,5,NA
fcp-trial,252,1359445,0.0-227.0-0.0,voc_e2,11764,"[{""event"":""fullscreenenter"",""trial"":1,""time"":3784}]",NA,NA,NA,NA,NA,3,#D8271C,#741CD8,10,10,1,38,1,1224.6999998092651,37,1,743.0999999046326,10,1,experiment,NA,NA,0,0.9,0.1,0,1,217,5,NA
fcp-trial,253,1362396,0.0-228.0-0.0,voc_e2,11764,"[{""event"":""fullscreenenter"",""trial"":1,""time"":3784}]",NA,NA,NA,NA,NA,6,#741CD8,#D8271C,0,10,0,40,0,961.0999999046326,39,0,485.59999990463257,10,1,experiment,NA,NA,0,0.1,0.9,1,0,218,5,NA
fcp-trial,254,1365829,0.0-229.0-0.0,voc_e2,11764,"[{""event"":""fullscreenenter"",""trial"":1,""time"":3784}]",NA,NA,NA,NA,NA,5,#D89F1C,#3386FF,0,10,1,40,0,1321,39,0,606.2999997138977,10,0,experiment,NA,NA,2,0.5,0.5,4,5,219,5,NA
fcp-trial,255,1368916,0.0-230.0-0.0,voc_e2,11764,"[{""event"":""fullscreenenter"",""trial"":1,""time"":3784}]",NA,NA,NA,NA,NA,4,#1CD855,#FA92F8,10,0,1,38,1,1168.5,37,1,415,10,1,experiment,NA,NA,1,0.7,0.3,2,3,220,5,NA
fcp-trial,256,1371860,0.0-231.0-0.0,voc_e2,11764,"[{""event"":""fullscreenenter"",""trial"":1,""time"":3784}]",NA,NA,NA,NA,NA,0,#D89F1C,#3386FF,10,0,1,38,1,1161.0999999046326,37,1,278.7999997138977,10,1,experiment,NA,NA,2,0.5,0.5,4,5,221,5,NA
fcp-trial,257,1374788,0.0-232.0-0.0,voc_e2,11764,"[{""event"":""fullscreenenter"",""trial"":1,""time"":3784}]",NA,NA,NA,NA,NA,5,#FA92F8,#1CD855,0,10,0,40,0,945.6999998092651,39,0,478.69999980926514,10,1,experiment,NA,NA,1,0.3,0.7,3,2,222,5,NA
fcp-trial,258,1377414,0.0-233.0-0.0,voc_e2,11764,"[{""event"":""fullscreenenter"",""trial"":1,""time"":3784}]",NA,NA,NA,NA,NA,0,#D8271C,#741CD8,10,0,1,38,1,807.3000001907349,37,1,310.5,10,1,experiment,NA,NA,0,0.9,0.1,0,1,223,5,NA
fcp-trial,259,1380981,0.0-234.0-0.0,voc_e2,11764,"[{""event"":""fullscreenenter"",""trial"":1,""time"":3784}]",NA,NA,NA,NA,NA,5,#741CD8,#D8271C,10,10,0,40,0,1622.9000000953674,39,0,439.5,10,1,experiment,NA,NA,0,0.1,0.9,1,0,224,5,NA
fcp-trial,260,1384125,0.0-235.0-0.0,voc_e2,11764,"[{""event"":""fullscreenenter"",""trial"":1,""time"":3784}]",NA,NA,NA,NA,NA,6,#D89F1C,#3386FF,0,0,1,40,0,959.9000000953674,39,0,679.5,0,0,experiment,NA,NA,2,0.5,0.5,4,5,225,5,NA
fcp-trial,261,1387549,0.0-236.0-0.0,voc_e2,11764,"[{""event"":""fullscreenenter"",""trial"":1,""time"":3784}]",NA,NA,NA,NA,NA,3,#FA92F8,#1CD855,0,0,0,38,1,1623.4000000953674,39,0,295.3999996185303,0,1,experiment,NA,NA,1,0.3,0.7,3,2,226,6,NA
fcp-trial,262,1391085,0.0-237.0-0.0,voc_e2,11764,"[{""event"":""fullscreenenter"",""trial"":1,""time"":3784}]",NA,NA,NA,NA,NA,2,#D8271C,#741CD8,0,0,1,38,1,1776.5999999046326,37,1,254.39999961853027,0,1,experiment,NA,NA,0,0.9,0.1,0,1,227,6,NA
fcp-trial,263,1395485,0.0-238.0-0.0,voc_e2,11764,"[{""event"":""fullscreenenter"",""trial"":1,""time"":3784}]",NA,NA,NA,NA,NA,3,#D89F1C,#3386FF,0,10,1,38,1,897,37,1,1999.1000003814697,0,1,experiment,NA,NA,2,0.5,0.5,4,5,228,6,NA
fcp-trial,264,1399005,0.0-239.0-0.0,voc_e2,11764,"[{""event"":""fullscreenenter"",""trial"":1,""time"":3784}]",NA,NA,NA,NA,NA,1,#3386FF,#D89F1C,10,10,0,38,1,1753.6999998092651,39,0,262.30000019073486,10,1,experiment,NA,NA,2,0.5,0.5,5,4,229,6,NA
fcp-trial,265,1402646,0.0-240.0-0.0,voc_e2,11764,"[{""event"":""fullscreenenter"",""trial"":1,""time"":3784}]",NA,NA,NA,NA,NA,2,#3386FF,#D89F1C,10,0,0,38,1,1776.3000001907349,39,0,350.59999990463257,0,1,experiment,NA,NA,2,0.5,0.5,5,4,230,6,NA
fcp-trial,266,1406870,0.0-241.0-0.0,voc_e2,11764,"[{""event"":""fullscreenenter"",""trial"":1,""time"":3784}]",NA,NA,NA,NA,NA,1,#1CD855,#FA92F8,0,0,1,38,1,1520.2999997138977,37,1,1199.4000000953674,0,1,experiment,NA,NA,1,0.7,0.3,2,3,231,6,NA
fcp-trial,267,1410790,0.0-242.0-0.0,voc_e2,11764,"[{""event"":""fullscreenenter"",""trial"":1,""time"":3784}]",NA,NA,NA,NA,NA,0,#1CD855,#FA92F8,10,0,1,38,1,1942.9000000953674,37,1,471.40000009536743,10,1,experiment,NA,NA,1,0.7,0.3,2,3,232,6,NA
fcp-trial,268,1415661,0.0-243.0-0.0,voc_e2,11764,"[{""event"":""fullscreenenter"",""trial"":1,""time"":3784}]",NA,NA,NA,NA,NA,6,#D89F1C,#3386FF,0,0,1,40,0,2183.0999999046326,37,1,1182.9000000953674,0,1,experiment,NA,NA,2,0.5,0.5,4,5,233,6,NA
fcp-trial,269,1419014,0.0-244.0-0.0,voc_e2,11764,"[{""event"":""fullscreenenter"",""trial"":1,""time"":3784}]",NA,NA,NA,NA,NA,3,#D8271C,#741CD8,10,0,1,38,1,1400.6999998092651,37,1,446.90000009536743,10,1,experiment,NA,NA,0,0.9,0.1,0,1,234,6,NA
fcp-trial,270,1422070,0.0-245.0-0.0,voc_e2,11764,"[{""event"":""fullscreenenter"",""trial"":1,""time"":3784}]",NA,NA,NA,NA,NA,0,#D8271C,#741CD8,10,0,1,38,1,1151.5999999046326,37,1,398.59999990463257,10,1,experiment,NA,NA,0,0.9,0.1,0,1,235,6,NA
fcp-trial,271,1425582,0.0-246.0-0.0,voc_e2,11764,"[{""event"":""fullscreenenter"",""trial"":1,""time"":3784}]",NA,NA,NA,NA,NA,4,#FA92F8,#1CD855,0,10,0,38,1,1352.0999999046326,39,0,655.3000001907349,10,1,experiment,NA,NA,1,0.3,0.7,3,2,236,6,NA
fcp-trial,272,1428879,0.0-247.0-0.0,voc_e2,11764,"[{""event"":""fullscreenenter"",""trial"":1,""time"":3784}]",NA,NA,NA,NA,NA,5,#3386FF,#D89F1C,10,10,0,40,0,1120.4000000953674,37,1,671.7999997138977,10,0,experiment,NA,NA,2,0.5,0.5,5,4,237,6,NA
fcp-trial,273,1431646,0.0-248.0-0.0,voc_e2,11764,"[{""event"":""fullscreenenter"",""trial"":1,""time"":3784}]",NA,NA,NA,NA,NA,1,#3386FF,#D89F1C,0,10,0,38,1,847.1999998092651,39,0,415.30000019073486,10,1,experiment,NA,NA,2,0.5,0.5,5,4,238,6,NA
fcp-trial,274,1434549,0.0-249.0-0.0,voc_e2,11764,"[{""event"":""fullscreenenter"",""trial"":1,""time"":3784}]",NA,NA,NA,NA,NA,3,#1CD855,#FA92F8,10,0,1,38,1,1032,37,1,367.40000009536743,10,1,experiment,NA,NA,1,0.7,0.3,2,3,239,6,NA
fcp-trial,275,1437622,0.0-250.0-0.0,voc_e2,11764,"[{""event"":""fullscreenenter"",""trial"":1,""time"":3784}]",NA,NA,NA,NA,NA,6,#741CD8,#D8271C,0,0,0,40,0,969.1999998092651,39,0,599.1000003814697,0,1,experiment,NA,NA,0,0.1,0.9,1,0,240,6,NA
fcp-trial,276,1440844,0.0-251.0-0.0,voc_e2,11764,"[{""event"":""fullscreenenter"",""trial"":1,""time"":3784}]",NA,NA,NA,NA,NA,0,#D89F1C,#3386FF,10,10,1,38,1,927.5999999046326,37,1,790.5999999046326,10,1,experiment,NA,NA,2,0.5,0.5,4,5,241,6,NA
fcp-trial,277,1444277,0.0-252.0-0.0,voc_e2,11764,"[{""event"":""fullscreenenter"",""trial"":1,""time"":3784}]",NA,NA,NA,NA,NA,4,#741CD8,#D8271C,0,10,0,38,1,1184.7999997138977,39,0,742,10,1,experiment,NA,NA,0,0.1,0.9,1,0,242,6,NA
fcp-trial,278,1448301,0.0-253.0-0.0,voc_e2,11764,"[{""event"":""fullscreenenter"",""trial"":1,""time"":3784}]",NA,NA,NA,NA,NA,4,#D89F1C,#3386FF,10,10,1,38,1,2000.8000001907349,37,1,519.4000000953674,10,1,experiment,NA,NA,2,0.5,0.5,4,5,243,6,NA
fcp-trial,279,1451341,0.0-254.0-0.0,voc_e2,11764,"[{""event"":""fullscreenenter"",""trial"":1,""time"":3784}]",NA,NA,NA,NA,NA,2,#FA92F8,#1CD855,0,10,0,38,1,1129.7999997138977,39,0,406.8999996185303,10,1,experiment,NA,NA,1,0.3,0.7,3,2,244,6,NA
fcp-trial,280,1455046,0.0-255.0-0.0,voc_e2,11764,"[{""event"":""fullscreenenter"",""trial"":1,""time"":3784}]",NA,NA,NA,NA,NA,6,#FA92F8,#1CD855,0,10,0,40,0,1203,37,1,997,0,0,experiment,NA,NA,1,0.3,0.7,3,2,245,6,NA
fcp-trial,281,1458637,0.0-256.0-0.0,voc_e2,11764,"[{""event"":""fullscreenenter"",""trial"":1,""time"":3784}]",NA,NA,NA,NA,NA,5,#741CD8,#D8271C,0,10,0,40,0,1096.4000000953674,37,1,984.3999996185303,0,0,experiment,NA,NA,0,0.1,0.9,1,0,246,6,NA
fcp-trial,282,1462150,0.0-257.0-0.0,voc_e2,11764,"[{""event"":""fullscreenenter"",""trial"":1,""time"":3784}]",NA,NA,NA,NA,NA,2,#3386FF,#D89F1C,10,10,0,38,1,1207.7000002861023,39,0,799.8000001907349,10,1,experiment,NA,NA,2,0.5,0.5,5,4,247,6,NA
fcp-trial,283,1465662,0.0-258.0-0.0,voc_e2,11764,"[{""event"":""fullscreenenter"",""trial"":1,""time"":3784}]",NA,NA,NA,NA,NA,2,#741CD8,#D8271C,0,10,0,38,1,1711.9000000953674,39,0,294.40000009536743,10,1,experiment,NA,NA,0,0.1,0.9,1,0,248,6,NA
fcp-trial,284,1469038,0.0-259.0-0.0,voc_e2,11764,"[{""event"":""fullscreenenter"",""trial"":1,""time"":3784}]",NA,NA,NA,NA,NA,1,#1CD855,#FA92F8,10,0,1,38,1,1486.7000002861023,37,1,382.59999990463257,10,1,experiment,NA,NA,1,0.7,0.3,2,3,249,6,NA
fcp-trial,285,1472293,0.0-260.0-0.0,voc_e2,11764,"[{""event"":""fullscreenenter"",""trial"":1,""time"":3784}]",NA,NA,NA,NA,NA,3,#D89F1C,#3386FF,10,10,1,38,1,1135.8000001907349,37,1,614.4000000953674,10,1,experiment,NA,NA,2,0.5,0.5,4,5,250,6,NA
fcp-trial,286,1476166,0.0-261.0-0.0,voc_e2,11764,"[{""event"":""fullscreenenter"",""trial"":1,""time"":3784}]",NA,NA,NA,NA,NA,5,#FA92F8,#1CD855,0,0,0,40,0,1551,37,1,814.2000002861023,0,0,experiment,NA,NA,1,0.3,0.7,3,2,251,6,NA
fcp-trial,287,1479381,0.0-262.0-0.0,voc_e2,11764,"[{""event"":""fullscreenenter"",""trial"":1,""time"":3784}]",NA,NA,NA,NA,NA,1,#741CD8,#D8271C,0,10,0,38,1,1128.4000000953674,39,0,583.1999998092651,10,1,experiment,NA,NA,0,0.1,0.9,1,0,252,6,NA
fcp-trial,288,1482829,0.0-263.0-0.0,voc_e2,11764,"[{""event"":""fullscreenenter"",""trial"":1,""time"":3784}]",NA,NA,NA,NA,NA,4,#D89F1C,#3386FF,0,0,1,38,1,1472.4000000953674,37,1,470.90000009536743,0,1,experiment,NA,NA,2,0.5,0.5,4,5,253,6,NA
fcp-trial,289,1486053,0.0-264.0-0.0,voc_e2,11764,"[{""event"":""fullscreenenter"",""trial"":1,""time"":3784}]",NA,NA,NA,NA,NA,1,#FA92F8,#1CD855,0,0,0,38,1,1224.5999999046326,39,0,491.59999990463257,0,1,experiment,NA,NA,1,0.3,0.7,3,2,254,6,NA
fcp-trial,290,1489317,0.0-265.0-0.0,voc_e2,11764,"[{""event"":""fullscreenenter"",""trial"":1,""time"":3784}]",NA,NA,NA,NA,NA,2,#D8271C,#741CD8,10,0,1,38,1,1263.0999999046326,37,1,495,10,1,experiment,NA,NA,0,0.9,0.1,0,1,255,6,NA
fcp-trial,291,1492373,0.0-266.0-0.0,voc_e2,11764,"[{""event"":""fullscreenenter"",""trial"":1,""time"":3784}]",NA,NA,NA,NA,NA,0,#D8271C,#741CD8,10,0,1,38,1,768.1999998092651,37,1,783.9000000953674,10,1,experiment,NA,NA,0,0.9,0.1,0,1,256,6,NA
fcp-trial,292,1495949,0.0-267.0-0.0,voc_e2,11764,"[{""event"":""fullscreenenter"",""trial"":1,""time"":3784}]",NA,NA,NA,NA,NA,2,#1CD855,#FA92F8,10,10,1,38,1,1647.5999999046326,37,1,422.69999980926514,10,1,experiment,NA,NA,1,0.7,0.3,2,3,257,6,NA
fcp-trial,293,1499597,0.0-268.0-0.0,voc_e2,11764,"[{""event"":""fullscreenenter"",""trial"":1,""time"":3784}]",NA,NA,NA,NA,NA,3,#D89F1C,#3386FF,0,10,1,38,1,1656.6000003814697,37,1,486.3999996185303,0,1,experiment,NA,NA,2,0.5,0.5,4,5,258,6,NA
fcp-trial,294,1503021,0.0-269.0-0.0,voc_e2,11764,"[{""event"":""fullscreenenter"",""trial"":1,""time"":3784}]",NA,NA,NA,NA,NA,6,#3386FF,#D89F1C,10,0,0,40,0,1216,37,1,703.6000003814697,10,0,experiment,NA,NA,2,0.5,0.5,5,4,259,6,NA
fcp-trial,295,1506165,0.0-270.0-0.0,voc_e2,11764,"[{""event"":""fullscreenenter"",""trial"":1,""time"":3784}]",NA,NA,NA,NA,NA,5,#D89F1C,#3386FF,10,0,1,40,0,1159,39,0,479.19999980926514,0,0,experiment,NA,NA,2,0.5,0.5,4,5,260,6,NA
fcp-trial,296,1510680,0.0-271.0-0.0,voc_e2,11764,"[{""event"":""fullscreenenter"",""trial"":1,""time"":3784}]",NA,NA,NA,NA,NA,3,#D8271C,#741CD8,10,0,1,38,1,1863.9000000953674,37,1,1142.7000002861023,10,1,experiment,NA,NA,0,0.9,0.1,0,1,261,6,NA
fcp-trial,297,1514430,0.0-272.0-0.0,voc_e2,11764,"[{""event"":""fullscreenenter"",""trial"":1,""time"":3784}]",NA,NA,NA,NA,NA,4,#FA92F8,#1CD855,0,0,0,38,1,1782,39,0,461.5,0,1,experiment,NA,NA,1,0.3,0.7,3,2,262,6,NA
fcp-trial,298,1517869,0.0-273.0-0.0,voc_e2,11764,"[{""event"":""fullscreenenter"",""trial"":1,""time"":3784}]",NA,NA,NA,NA,NA,6,#FA92F8,#1CD855,0,10,0,40,0,1150.2999997138977,37,1,771.9000000953674,0,0,experiment,NA,NA,1,0.3,0.7,3,2,263,6,NA
fcp-trial,299,1521549,0.0-274.0-0.0,voc_e2,11764,"[{""event"":""fullscreenenter"",""trial"":1,""time"":3784}]",NA,NA,NA,NA,NA,0,#D89F1C,#3386FF,10,10,1,38,1,1327.4000000953674,37,1,845.9000000953674,10,1,experiment,NA,NA,2,0.5,0.5,4,5,264,6,NA
fcp-trial,300,1524726,0.0-275.0-0.0,voc_e2,11764,"[{""event"":""fullscreenenter"",""trial"":1,""time"":3784}]",NA,NA,NA,NA,NA,4,#D8271C,#741CD8,10,10,1,38,1,1368.2999997138977,37,1,296.2000002861023,10,1,experiment,NA,NA,0,0.9,0.1,0,1,265,6,NA
fcp-trial,301,1528094,0.0-276.0-0.0,voc_e2,11764,"[{""event"":""fullscreenenter"",""trial"":1,""time"":3784}]",NA,NA,NA,NA,NA,6,#741CD8,#D8271C,0,10,0,40,0,1128.5,37,1,734.8000001907349,0,0,experiment,NA,NA,0,0.1,0.9,1,0,266,6,NA
fcp-trial,302,1531174,0.0-277.0-0.0,voc_e2,11764,"[{""event"":""fullscreenenter"",""trial"":1,""time"":3784}]",NA,NA,NA,NA,NA,0,#FA92F8,#1CD855,0,10,0,38,1,869.5999999046326,39,0,703,10,1,experiment,NA,NA,1,0.3,0.7,3,2,267,6,NA
fcp-trial,303,1533910,0.0-278.0-0.0,voc_e2,11764,"[{""event"":""fullscreenenter"",""trial"":1,""time"":3784}]",NA,NA,NA,NA,NA,1,#741CD8,#D8271C,10,10,0,38,1,902.4000000953674,39,0,327.5,10,1,experiment,NA,NA,0,0.1,0.9,1,0,268,6,NA
fcp-trial,304,1538685,0.0-279.0-0.0,voc_e2,11764,"[{""event"":""fullscreenenter"",""trial"":1,""time"":3784}]",NA,NA,NA,NA,NA,1,#3386FF,#D89F1C,0,0,0,38,1,1646.6999998092651,39,0,1622.7000002861023,0,1,experiment,NA,NA,2,0.5,0.5,5,4,269,6,NA
fcp-trial,305,1542332,0.0-280.0-0.0,voc_e2,11764,"[{""event"":""fullscreenenter"",""trial"":1,""time"":3784}]",NA,NA,NA,NA,NA,2,#3386FF,#D89F1C,0,0,0,38,1,1472.0999999046326,39,0,670.3000001907349,0,1,experiment,NA,NA,2,0.5,0.5,5,4,270,6,NA
fcp-trial,306,1546468,0.0-281.0-0.0,voc_e2,11764,"[{""event"":""fullscreenenter"",""trial"":1,""time"":3784}]",NA,NA,NA,NA,NA,3,#1CD855,#FA92F8,10,0,1,38,1,2151.9000000953674,37,1,479,10,1,experiment,NA,NA,1,0.7,0.3,2,3,271,7,NA
fcp-trial,307,1549389,0.0-282.0-0.0,voc_e2,11764,"[{""event"":""fullscreenenter"",""trial"":1,""time"":3784}]",NA,NA,NA,NA,NA,5,#741CD8,#D8271C,10,10,0,40,0,1001.5999999046326,39,0,415,10,1,experiment,NA,NA,0,0.1,0.9,1,0,272,7,NA
fcp-trial,308,1552550,0.0-283.0-0.0,voc_e2,11764,"[{""event"":""fullscreenenter"",""trial"":1,""time"":3784}]",NA,NA,NA,NA,NA,5,#FA92F8,#1CD855,10,0,0,40,0,1175.5,39,0,478.5,0,1,experiment,NA,NA,1,0.3,0.7,3,2,273,7,NA
fcp-trial,309,1555645,0.0-284.0-0.0,voc_e2,11764,"[{""event"":""fullscreenenter"",""trial"":1,""time"":3784}]",NA,NA,NA,NA,NA,0,#3386FF,#D89F1C,0,0,0,38,1,1103.8999996185303,39,0,486.5,0,1,experiment,NA,NA,2,0.5,0.5,5,4,274,7,NA
fcp-trial,310,1558318,0.0-285.0-0.0,voc_e2,11764,"[{""event"":""fullscreenenter"",""trial"":1,""time"":3784}]",NA,NA,NA,NA,NA,0,#D8271C,#741CD8,10,0,1,38,1,870.0999999046326,37,1,294.09999990463257,10,1,experiment,NA,NA,0,0.9,0.1,0,1,275,7,NA
fcp-trial,311,1561229,0.0-286.0-0.0,voc_e2,11764,"[{""event"":""fullscreenenter"",""trial"":1,""time"":3784}]",NA,NA,NA,NA,NA,5,#741CD8,#D8271C,0,10,0,40,0,879.5999999046326,39,0,527.6000003814697,10,1,experiment,NA,NA,0,0.1,0.9,1,0,276,7,NA
fcp-trial,312,1564382,0.0-287.0-0.0,voc_e2,11764,"[{""event"":""fullscreenenter"",""trial"":1,""time"":3784}]",NA,NA,NA,NA,NA,5,#FA92F8,#1CD855,10,10,0,40,0,1165.7000002861023,39,0,480.80000019073486,10,1,experiment,NA,NA,1,0.3,0.7,3,2,277,7,NA
fcp-trial,313,1567325,0.0-288.0-0.0,voc_e2,11764,"[{""event"":""fullscreenenter"",""trial"":1,""time"":3784}]",NA,NA,NA,NA,NA,6,#3386FF,#D89F1C,0,10,0,40,0,830.3000001907349,37,1,607,0,0,experiment,NA,NA,2,0.5,0.5,5,4,278,7,NA
fcp-trial,314,1571022,0.0-289.0-0.0,voc_e2,11764,"[{""event"":""fullscreenenter"",""trial"":1,""time"":3784}]",NA,NA,NA,NA,NA,6,#FA92F8,#1CD855,10,10,0,40,0,1439.3999996185303,37,1,753.2000002861023,10,0,experiment,NA,NA,1,0.3,0.7,3,2,279,7,NA
fcp-trial,315,1574438,0.0-290.0-0.0,voc_e2,11764,"[{""event"":""fullscreenenter"",""trial"":1,""time"":3784}]",NA,NA,NA,NA,NA,2,#D8271C,#741CD8,0,0,1,38,1,1399.5999999046326,37,1,512.2000002861023,0,1,experiment,NA,NA,0,0.9,0.1,0,1,280,7,NA
fcp-trial,316,1578020,0.0-291.0-0.0,voc_e2,11764,"[{""event"":""fullscreenenter"",""trial"":1,""time"":3784}]",NA,NA,NA,NA,NA,3,#D89F1C,#3386FF,10,10,1,38,1,1598.1000003814697,37,1,477,10,1,experiment,NA,NA,2,0.5,0.5,4,5,281,7,NA
fcp-trial,317,1582029,0.0-292.0-0.0,voc_e2,11764,"[{""event"":""fullscreenenter"",""trial"":1,""time"":3784}]",NA,NA,NA,NA,NA,2,#1CD855,#FA92F8,10,10,1,38,1,929.3000001907349,37,1,1574.9000000953674,10,1,experiment,NA,NA,1,0.7,0.3,2,3,282,7,NA
fcp-trial,318,1584788,0.0-293.0-0.0,voc_e2,11764,"[{""event"":""fullscreenenter"",""trial"":1,""time"":3784}]",NA,NA,NA,NA,NA,1,#D8271C,#741CD8,10,10,1,38,1,749,37,1,503.5,10,1,experiment,NA,NA,0,0.9,0.1,0,1,283,7,NA
fcp-trial,319,1587806,0.0-294.0-0.0,voc_e2,11764,"[{""event"":""fullscreenenter"",""trial"":1,""time"":3784}]",NA,NA,NA,NA,NA,3,#FA92F8,#1CD855,10,10,0,38,1,1040.5999999046326,39,0,470.09999990463257,10,1,experiment,NA,NA,1,0.3,0.7,3,2,284,7,NA
fcp-trial,320,1590733,0.0-295.0-0.0,voc_e2,11764,"[{""event"":""fullscreenenter"",""trial"":1,""time"":3784}]",NA,NA,NA,NA,NA,1,#FA92F8,#1CD855,10,10,0,38,1,733.8000001907349,39,0,687.9000000953674,10,1,experiment,NA,NA,1,0.3,0.7,3,2,285,7,NA
fcp-trial,321,1593613,0.0-296.0-0.0,voc_e2,11764,"[{""event"":""fullscreenenter"",""trial"":1,""time"":3784}]",NA,NA,NA,NA,NA,5,#D89F1C,#3386FF,10,0,1,38,1,752,37,1,623,10,1,experiment,NA,NA,2,0.5,0.5,4,5,286,7,NA
fcp-trial,322,1596860,0.0-297.0-0.0,voc_e2,11764,"[{""event"":""fullscreenenter"",""trial"":1,""time"":3784}]",NA,NA,NA,NA,NA,4,#741CD8,#D8271C,0,10,0,38,1,1271.5999999046326,39,0,469.40000009536743,10,1,experiment,NA,NA,0,0.1,0.9,1,0,287,7,NA
fcp-trial,323,1600533,0.0-298.0-0.0,voc_e2,11764,"[{""event"":""fullscreenenter"",""trial"":1,""time"":3784}]",NA,NA,NA,NA,NA,0,#FA92F8,#1CD855,0,0,0,38,1,1120.4000000953674,39,0,1047.8000001907349,0,1,experiment,NA,NA,1,0.3,0.7,3,2,288,7,NA
fcp-trial,324,1604043,0.0-299.0-0.0,voc_e2,11764,"[{""event"":""fullscreenenter"",""trial"":1,""time"":3784}]",NA,NA,NA,NA,NA,4,#D89F1C,#3386FF,0,0,1,40,0,1477.7000002861023,39,0,525.6999998092651,0,0,experiment,NA,NA,2,0.5,0.5,4,5,289,7,NA
fcp-trial,325,1606949,0.0-300.0-0.0,voc_e2,11764,"[{""event"":""fullscreenenter"",""trial"":1,""time"":3784}]",NA,NA,NA,NA,NA,3,#D8271C,#741CD8,10,0,1,38,1,1104.1999998092651,37,1,294.80000019073486,10,1,experiment,NA,NA,0,0.9,0.1,0,1,290,7,NA
fcp-trial,326,1609884,0.0-301.0-0.0,voc_e2,11764,"[{""event"":""fullscreenenter"",""trial"":1,""time"":3784}]",NA,NA,NA,NA,NA,2,#D89F1C,#3386FF,0,10,1,38,1,1047.0999999046326,37,1,382.59999990463257,0,1,experiment,NA,NA,2,0.5,0.5,4,5,291,7,NA
fcp-trial,327,1612965,0.0-302.0-0.0,voc_e2,11764,"[{""event"":""fullscreenenter"",""trial"":1,""time"":3784}]",NA,NA,NA,NA,NA,4,#FA92F8,#1CD855,0,10,0,38,1,1273.4000000953674,39,0,304.40000009536743,10,1,experiment,NA,NA,1,0.3,0.7,3,2,292,7,NA
fcp-trial,328,1617437,0.0-303.0-0.0,voc_e2,11764,"[{""event"":""fullscreenenter"",""trial"":1,""time"":3784}]",NA,NA,NA,NA,NA,6,#741CD8,#D8271C,0,10,0,40,0,2590,39,0,374.59999990463257,10,1,experiment,NA,NA,0,0.1,0.9,1,0,293,7,NA
fcp-trial,329,1621654,0.0-304.0-0.0,voc_e2,11764,"[{""event"":""fullscreenenter"",""trial"":1,""time"":3784}]",NA,NA,NA,NA,NA,1,#3386FF,#D89F1C,0,0,0,38,1,2303.199999809265,39,0,407.59999990463257,0,1,experiment,NA,NA,2,0.5,0.5,5,4,294,7,NA
fcp-trial,330,1624619,0.0-305.0-0.0,voc_e2,11764,"[{""event"":""fullscreenenter"",""trial"":1,""time"":3784}]",NA,NA,NA,NA,NA,1,#741CD8,#D8271C,0,0,0,38,1,1054.6000003814697,39,0,406.80000019073486,0,1,experiment,NA,NA,0,0.1,0.9,1,0,295,7,NA
fcp-trial,331,1627620,0.0-306.0-0.0,voc_e2,11764,"[{""event"":""fullscreenenter"",""trial"":1,""time"":3784}]",NA,NA,NA,NA,NA,1,#D89F1C,#3386FF,0,10,1,38,1,1129.3000001907349,37,1,365.09999990463257,0,1,experiment,NA,NA,2,0.5,0.5,4,5,296,7,NA
fcp-trial,332,1631060,0.0-307.0-0.0,voc_e2,11764,"[{""event"":""fullscreenenter"",""trial"":1,""time"":3784}]",NA,NA,NA,NA,NA,4,#FA92F8,#1CD855,0,10,0,38,1,1409.2999997138977,39,0,524.8999996185303,10,1,experiment,NA,NA,1,0.3,0.7,3,2,297,7,NA
fcp-trial,333,1634076,0.0-308.0-0.0,voc_e2,11764,"[{""event"":""fullscreenenter"",""trial"":1,""time"":3784}]",NA,NA,NA,NA,NA,5,#D89F1C,#3386FF,0,10,1,40,0,1056,37,1,455.30000019073486,0,1,experiment,NA,NA,2,0.5,0.5,4,5,298,7,NA
fcp-trial,334,1637051,0.0-309.0-0.0,voc_e2,11764,"[{""event"":""fullscreenenter"",""trial"":1,""time"":3784}]",NA,NA,NA,NA,NA,4,#D8271C,#741CD8,10,0,1,38,1,1104.3000001907349,37,1,366.80000019073486,10,1,experiment,NA,NA,0,0.9,0.1,0,1,299,7,NA
fcp-trial,335,1640716,0.0-310.0-0.0,voc_e2,11764,"[{""event"":""fullscreenenter"",""trial"":1,""time"":3784}]",NA,NA,NA,NA,NA,3,#741CD8,#D8271C,0,0,0,38,1,1864.7000002861023,39,0,294.5,0,1,experiment,NA,NA,0,0.1,0.9,1,0,300,7,NA
fcp-trial,336,1643684,0.0-311.0-0.0,voc_e2,11764,"[{""event"":""fullscreenenter"",""trial"":1,""time"":3784}]",NA,NA,NA,NA,NA,6,#D89F1C,#3386FF,10,10,1,40,0,968,39,0,495,10,0,experiment,NA,NA,2,0.5,0.5,4,5,301,7,NA
fcp-trial,337,1647236,0.0-312.0-0.0,voc_e2,11764,"[{""event"":""fullscreenenter"",""trial"":1,""time"":3784}]",NA,NA,NA,NA,NA,0,#FA92F8,#1CD855,0,0,0,38,1,1255.5,39,0,790.1999998092651,0,1,experiment,NA,NA,1,0.3,0.7,3,2,302,7,NA
fcp-trial,338,1650755,0.0-313.0-0.0,voc_e2,11764,"[{""event"":""fullscreenenter"",""trial"":1,""time"":3784}]",NA,NA,NA,NA,NA,2,#3386FF,#D89F1C,10,0,0,38,1,1446.5,39,0,567.1000003814697,0,1,experiment,NA,NA,2,0.5,0.5,5,4,303,7,NA
fcp-trial,339,1654516,0.0-314.0-0.0,voc_e2,11764,"[{""event"":""fullscreenenter"",""trial"":1,""time"":3784}]",NA,NA,NA,NA,NA,6,#D8271C,#741CD8,10,0,1,40,0,1841,37,1,413.80000019073486,10,1,experiment,NA,NA,0,0.9,0.1,0,1,304,7,NA
fcp-trial,340,1658060,0.0-315.0-0.0,voc_e2,11764,"[{""event"":""fullscreenenter"",""trial"":1,""time"":3784}]",NA,NA,NA,NA,NA,3,#3386FF,#D89F1C,10,0,0,38,1,1783.0999999046326,37,1,254,10,0,experiment,NA,NA,2,0.5,0.5,5,4,305,7,NA
fcp-trial,341,1663604,0.0-316.0-0.0,voc_e2,11764,"[{""event"":""fullscreenenter"",""trial"":1,""time"":3784}]",NA,NA,NA,NA,NA,3,#1CD855,#FA92F8,10,0,1,38,1,927.4000000953674,37,1,3110.4000000953674,10,1,experiment,NA,NA,1,0.7,0.3,2,3,306,7,NA
fcp-trial,342,1666747,0.0-317.0-0.0,voc_e2,11764,"[{""event"":""fullscreenenter"",""trial"":1,""time"":3784}]",NA,NA,NA,NA,NA,5,#D8271C,#741CD8,10,0,1,40,0,1125.9000000953674,37,1,511.90000009536743,10,1,experiment,NA,NA,0,0.9,0.1,0,1,307,7,NA
fcp-trial,343,1669916,0.0-318.0-0.0,voc_e2,11764,"[{""event"":""fullscreenenter"",""trial"":1,""time"":3784}]",NA,NA,NA,NA,NA,2,#741CD8,#D8271C,0,10,0,38,1,1287.8000001907349,39,0,375.80000019073486,10,1,experiment,NA,NA,0,0.1,0.9,1,0,308,7,NA
fcp-trial,344,1672733,0.0-319.0-0.0,voc_e2,11764,"[{""event"":""fullscreenenter"",""trial"":1,""time"":3784}]",NA,NA,NA,NA,NA,0,#D89F1C,#3386FF,0,0,1,38,1,823.8000001907349,39,0,487.5,0,0,experiment,NA,NA,2,0.5,0.5,4,5,309,7,NA
fcp-trial,345,1676635,0.0-320.0-0.0,voc_e2,11764,"[{""event"":""fullscreenenter"",""trial"":1,""time"":3784}]",NA,NA,NA,NA,NA,2,#FA92F8,#1CD855,10,0,0,38,1,2038.3999996185303,39,0,357.7000002861023,0,1,experiment,NA,NA,1,0.3,0.7,3,2,310,7,NA
fcp-trial,346,1679683,0.0-321.0-0.0,voc_e2,11764,"[{""event"":""fullscreenenter"",""trial"":1,""time"":3784}]",NA,NA,NA,NA,NA,5,#1CD855,#FA92F8,0,0,1,40,0,1048.5999999046326,37,1,495.7000002861023,0,1,experiment,NA,NA,1,0.7,0.3,2,3,311,7,NA
fcp-trial,347,1683260,0.0-322.0-0.0,voc_e2,11764,"[{""event"":""fullscreenenter"",""trial"":1,""time"":3784}]",NA,NA,NA,NA,NA,0,#741CD8,#D8271C,10,10,0,38,1,1159.9000000953674,39,0,911,10,1,experiment,NA,NA,0,0.1,0.9,1,0,312,7,NA
fcp-trial,348,1686475,0.0-323.0-0.0,voc_e2,11764,"[{""event"":""fullscreenenter"",""trial"":1,""time"":3784}]",NA,NA,NA,NA,NA,6,#FA92F8,#1CD855,0,0,0,40,0,1079.1999998092651,39,0,631,0,1,experiment,NA,NA,1,0.3,0.7,3,2,313,7,NA
fcp-trial,349,1691012,0.0-324.0-0.0,voc_e2,11764,"[{""event"":""fullscreenenter"",""trial"":1,""time"":3784}]",NA,NA,NA,NA,NA,4,#3386FF,#D89F1C,10,0,0,38,1,2111.5,39,0,918.5999999046326,0,1,experiment,NA,NA,2,0.5,0.5,5,4,314,7,NA
fcp-trial,350,1694397,0.0-325.0-0.0,voc_e2,11764,"[{""event"":""fullscreenenter"",""trial"":1,""time"":3784}]",NA,NA,NA,NA,NA,1,#FA92F8,#1CD855,10,0,0,38,1,1615.2000002861023,39,0,264.59999990463257,0,1,experiment,NA,NA,1,0.3,0.7,3,2,315,7,NA
audio-instructions,351,1708870,0.0-326.0,voc_e2,11764,"[{""event"":""fullscreenenter"",""trial"":1,""time"":3784}]",NA,8285.60000038147,static/audio/finished.wav,NA,0,NA,NA,NA,NA,NA,NA,NA,NA,NA,NA,NA,NA,NA,NA,NA,NA,NA,NA,NA,NA,NA,NA,NA,NA,NA
audio-instructions,352,1722804,0.0-327.0-0.0,voc_e2,11764,"[{""event"":""fullscreenenter"",""trial"":1,""time"":3784}]",NA,3098.400000095367,static/audio/explicit1.wav,NA,0,NA,NA,NA,NA,NA,NA,NA,NA,NA,NA,NA,NA,NA,NA,NA,NA,NA,NA,NA,NA,NA,NA,NA,NA,NA
audio-instructions,353,1731587,0.0-327.0-1.0,voc_e2,11764,"[{""event"":""fullscreenenter"",""trial"":1,""time"":3784}]",NA,1181.8000001907349,static/audio/explicit2.wav,NA,0,NA,NA,NA,NA,NA,NA,NA,NA,NA,NA,NA,NA,NA,NA,NA,NA,NA,NA,NA,NA,NA,NA,NA,NA,NA
image-slider-response,354,1737439,0.0-328.0,voc_e2,11764,"[{""event"":""fullscreenenter"",""trial"":1,""time"":3784}]",NA,5849.900000095367,static/img/machines/machine6.png,NA,NA,NA,NA,NA,NA,NA,NA,NA,NA,NA,NA,NA,NA,NA,NA,explicit,NA,NA,NA,NA,NA,NA,NA,NA,NA,5
image-slider-response,355,1742979,0.0-329.0,voc_e2,11764,"[{""event"":""fullscreenenter"",""trial"":1,""time"":3784}]",NA,5538.39999961853,static/img/machines/machine2.png,NA,NA,NA,NA,NA,NA,NA,NA,NA,NA,NA,NA,NA,NA,NA,NA,explicit,NA,NA,NA,NA,NA,NA,NA,NA,NA,3
image-slider-response,356,1745871,0.0-330.0,voc_e2,11764,"[{""event"":""fullscreenenter"",""trial"":1,""time"":3784}]",NA,2890,static/img/machines/machine3.png,NA,NA,NA,NA,NA,NA,NA,NA,NA,NA,NA,NA,NA,NA,NA,NA,explicit,NA,NA,NA,NA,NA,NA,NA,NA,NA,4
image-slider-response,357,1749143,0.0-331.0,voc_e2,11764,"[{""event"":""fullscreenenter"",""trial"":1,""time"":3784}]",NA,3269.900000095367,static/img/machines/machine1.png,NA,NA,NA,NA,NA,NA,NA,NA,NA,NA,NA,NA,NA,NA,NA,NA,explicit,NA,NA,NA,NA,NA,NA,NA,NA,NA,8
image-slider-response,358,1754191,0.0-332.0,voc_e2,11764,"[{""event"":""fullscreenenter"",""trial"":1,""time"":3784}]",NA,5045.099999904633,static/img/machines/machine5.png,NA,NA,NA,NA,NA,NA,NA,NA,NA,NA,NA,NA,NA,NA,NA,NA,explicit,NA,NA,NA,NA,NA,NA,NA,NA,NA,2
image-slider-response,359,1758064,0.0-333.0,voc_e2,11764,"[{""event"":""fullscreenenter"",""trial"":1,""time"":3784}]",NA,3869.900000095367,static/img/machines/machine4.png,NA,NA,NA,NA,NA,NA,NA,NA,NA,NA,NA,NA,NA,NA,NA,NA,explicit,NA,NA,NA,NA,NA,NA,NA,NA,NA,5
