trial_type,trial_index,time_elapsed,internal_node_id,task_version,subject_id,interactions,success,rt,stimulus,key_press,button_pressed,offer,arcade_color_L,arcade_color_R,arcade_outcome_L,arcade_outcome_R,correct,stage_1_key,stage_1_choice,stage_1_rt,stage_2_key,stage_2_choice,stage_2_rt,stage_3_outcome,accuracy,phase,responses,num_errors,context,reward_prob_L,reward_prob_R,arcade_id_L,arcade_id_R,trial,block,response
pavlovia,0,8,0.0-0.0,voc_e2,12079,[],NA,NA,NA,NA,NA,NA,NA,NA,NA,NA,NA,NA,NA,NA,NA,NA,NA,NA,NA,NA,NA,NA,NA,NA,NA,NA,NA,NA,NA,NA
fullscreen,1,3103,0.0-1.0,voc_e2,12079,"[{""event"":""fullscreenenter"",""trial"":1,""time"":2130}]",TRUE,NA,NA,NA,NA,NA,NA,NA,NA,NA,NA,NA,NA,NA,NA,NA,NA,NA,NA,NA,NA,NA,NA,NA,NA,NA,NA,NA,NA,NA
audio-keyboard-response,2,4757,0.0-2.0,voc_e2,12079,"[{""event"":""fullscreenenter"",""trial"":1,""time"":2130}]",NA,1605,static/audio/beep_loop.wav,32,NA,NA,NA,NA,NA,NA,NA,NA,NA,NA,NA,NA,NA,NA,NA,NA,NA,NA,NA,NA,NA,NA,NA,NA,NA,NA
audio-test,3,6153,0.0-3.0,voc_e2,12079,"[{""event"":""fullscreenenter"",""trial"":1,""time"":2130}]",NA,NA,static/audio/turtle.wav,NA,3,NA,NA,NA,NA,NA,NA,NA,NA,NA,NA,NA,NA,NA,NA,NA,NA,NA,NA,NA,NA,NA,NA,NA,NA,NA
audio-test,4,7930,0.0-4.0,voc_e2,12079,"[{""event"":""fullscreenenter"",""trial"":1,""time"":2130}]",NA,NA,static/audio/shark.wav,NA,2,NA,NA,NA,NA,NA,NA,NA,NA,NA,NA,NA,NA,NA,NA,NA,NA,NA,NA,NA,NA,NA,NA,NA,NA,NA
audio-instructions,5,18161,0.0-5.0-0.0,voc_e2,12079,"[{""event"":""fullscreenenter"",""trial"":1,""time"":2130}]",NA,4446.5999999940395,static/audio/instructions1.wav,NA,0,NA,NA,NA,NA,NA,NA,NA,NA,NA,NA,NA,NA,NA,NA,NA,NA,NA,NA,NA,NA,NA,NA,NA,NA,NA
audio-instructions,6,27176,0.0-5.0-1.0,voc_e2,12079,"[{""event"":""fullscreenenter"",""trial"":1,""time"":2130}]",NA,2273,static/audio/instructions2.wav,NA,0,NA,NA,NA,NA,NA,NA,NA,NA,NA,NA,NA,NA,NA,NA,NA,NA,NA,NA,NA,NA,NA,NA,NA,NA,NA
audio-instructions,7,34834,0.0-5.0-2.0,voc_e2,12079,"[{""event"":""fullscreenenter"",""trial"":1,""time"":2130}]",NA,1855.7999999821184,static/audio/instructions3.wav,NA,0,NA,NA,NA,NA,NA,NA,NA,NA,NA,NA,NA,NA,NA,NA,NA,NA,NA,NA,NA,NA,NA,NA,NA,NA,NA
audio-instructions,8,54867,0.0-5.0-3.0,voc_e2,12079,"[{""event"":""fullscreenenter"",""trial"":1,""time"":2130}]",NA,6805.5999999940395,static/audio/instructions4.wav,NA,0,NA,NA,NA,NA,NA,NA,NA,NA,NA,NA,NA,NA,NA,NA,NA,NA,NA,NA,NA,NA,NA,NA,NA,NA,NA
audio-instructions,9,64602,0.0-5.0-4.0,voc_e2,12079,"[{""event"":""fullscreenenter"",""trial"":1,""time"":2130}]",NA,349,static/audio/instructions5.wav,NA,0,NA,NA,NA,NA,NA,NA,NA,NA,NA,NA,NA,NA,NA,NA,NA,NA,NA,NA,NA,NA,NA,NA,NA,NA,NA
fcp-practice,10,67258,0.0-5.0-5.0-0.0,voc_e2,12079,"[{""event"":""fullscreenenter"",""trial"":1,""time"":2130}]",NA,NA,NA,NA,NA,NA,#EDC948,#46d3c8,10,0,1,null,null,null,37,1,1139,10,1,practice,NA,NA,NA,NA,NA,NA,NA,NA,NA,NA
fcp-practice,11,69207,0.0-5.0-5.0-1.0,voc_e2,12079,"[{""event"":""fullscreenenter"",""trial"":1,""time"":2130}]",NA,NA,NA,NA,NA,NA,#EDC948,#46d3c8,10,0,1,null,null,null,37,1,443.69999998807907,10,1,practice,NA,NA,NA,NA,NA,NA,NA,NA,NA,NA
fcp-practice,12,70903,0.0-5.0-5.0-2.0,voc_e2,12079,"[{""event"":""fullscreenenter"",""trial"":1,""time"":2130}]",NA,NA,NA,NA,NA,NA,#EDC948,#46d3c8,0,10,1,null,null,null,37,1,189.7999999821186,0,1,practice,NA,NA,NA,NA,NA,NA,NA,NA,NA,NA
fcp-practice,13,72528,0.0-5.0-5.0-3.0,voc_e2,12079,"[{""event"":""fullscreenenter"",""trial"":1,""time"":2130}]",NA,NA,NA,NA,NA,NA,#EDC948,#46d3c8,10,0,1,null,null,null,37,1,116.5,10,1,practice,NA,NA,NA,NA,NA,NA,NA,NA,NA,NA
fcp-practice,14,74162,0.0-5.0-5.0-4.0,voc_e2,12079,"[{""event"":""fullscreenenter"",""trial"":1,""time"":2130}]",NA,NA,NA,NA,NA,NA,#EDC948,#46d3c8,10,0,1,null,null,null,37,1,127.10000002384186,10,1,practice,NA,NA,NA,NA,NA,NA,NA,NA,NA,NA
audio-instructions,15,100468,0.0-5.0-6.0,voc_e2,12079,"[{""event"":""fullscreenenter"",""trial"":1,""time"":2130}]",NA,8299.90000000596,static/audio/instructions6.wav,NA,0,NA,NA,NA,NA,NA,NA,NA,NA,NA,NA,NA,NA,NA,NA,NA,NA,NA,NA,NA,NA,NA,NA,NA,NA,NA
audio-instructions,16,120604,0.0-5.0-7.0,voc_e2,12079,"[{""event"":""fullscreenenter"",""trial"":1,""time"":2130}]",NA,938,static/audio/instructions7.wav,NA,0,NA,NA,NA,NA,NA,NA,NA,NA,NA,NA,NA,NA,NA,NA,NA,NA,NA,NA,NA,NA,NA,NA,NA,NA,NA
audio-instructions,17,132584,0.0-5.0-8.0,voc_e2,12079,"[{""event"":""fullscreenenter"",""trial"":1,""time"":2130}]",NA,2505.7999999821186,static/audio/instructions8.wav,NA,0,NA,NA,NA,NA,NA,NA,NA,NA,NA,NA,NA,NA,NA,NA,NA,NA,NA,NA,NA,NA,NA,NA,NA,NA,NA
fcp-comprehension,18,138435,0.0-5.0-9.0,voc_e2,12079,"[{""event"":""fullscreenenter"",""trial"":1,""time"":2130}]",NA,5848.5,NA,NA,NA,NA,NA,NA,NA,NA,NA,NA,NA,NA,NA,NA,NA,NA,NA,NA,"true,true",0,NA,NA,NA,NA,NA,NA,NA,NA
audio-instructions,19,144944,0.0-6.0-0.0,voc_e2,12079,"[{""event"":""fullscreenenter"",""trial"":1,""time"":2130}]",NA,962.0999999940396,static/audio/instructions9.wav,NA,0,NA,NA,NA,NA,NA,NA,NA,NA,NA,NA,NA,NA,NA,NA,NA,NA,NA,NA,NA,NA,NA,NA,NA,NA,NA
audio-instructions,20,158542,0.0-6.0-1.0,voc_e2,12079,"[{""event"":""fullscreenenter"",""trial"":1,""time"":2130}]",NA,1482.600000023842,static/audio/instructions10.wav,NA,0,NA,NA,NA,NA,NA,NA,NA,NA,NA,NA,NA,NA,NA,NA,NA,NA,NA,NA,NA,NA,NA,NA,NA,NA,NA
fcp-trial,21,162907,0.0-6.0-2.0,voc_e2,12079,"[{""event"":""fullscreenenter"",""trial"":1,""time"":2130}]",NA,NA,NA,NA,NA,0,#EDC948,#46d3c8,10,10,1,38,1,1390.9000000059605,37,1,1455.7000000178814,10,1,practice,NA,NA,NA,NA,NA,NA,NA,NA,NA,NA
audio-instructions,22,175965,0.0-6.0-3.0,voc_e2,12079,"[{""event"":""fullscreenenter"",""trial"":1,""time"":2130}]",NA,2051.5,static/audio/instructions11.wav,NA,0,NA,NA,NA,NA,NA,NA,NA,NA,NA,NA,NA,NA,NA,NA,NA,NA,NA,NA,NA,NA,NA,NA,NA,NA,NA
fcp-trial,23,179663,0.0-6.0-4.0,voc_e2,12079,"[{""event"":""fullscreenenter"",""trial"":1,""time"":2130}]",NA,NA,NA,NA,NA,6,#EDC948,#46d3c8,10,10,1,40,0,694.0999999940395,37,1,1494.7000000178814,10,1,practice,NA,NA,NA,NA,NA,NA,NA,NA,NA,NA
audio-instructions,24,215206,0.0-6.0-5.0,voc_e2,12079,"[{""event"":""fullscreenenter"",""trial"":1,""time"":2130}]",NA,16854.90000000596,static/audio/instructions12.wav,NA,0,NA,NA,NA,NA,NA,NA,NA,NA,NA,NA,NA,NA,NA,NA,NA,NA,NA,NA,NA,NA,NA,NA,NA,NA,NA
audio-instructions,25,225256,0.0-6.0-6.0,voc_e2,12079,"[{""event"":""fullscreenenter"",""trial"":1,""time"":2130}]",NA,2456.800000011921,static/audio/instructions13.wav,NA,0,NA,NA,NA,NA,NA,NA,NA,NA,NA,NA,NA,NA,NA,NA,NA,NA,NA,NA,NA,NA,NA,NA,NA,NA,NA
audio-instructions,26,236491,0.0-6.0-7.0,voc_e2,12079,"[{""event"":""fullscreenenter"",""trial"":1,""time"":2130}]",NA,2785.5,static/audio/instructions14.wav,NA,0,NA,NA,NA,NA,NA,NA,NA,NA,NA,NA,NA,NA,NA,NA,NA,NA,NA,NA,NA,NA,NA,NA,NA,NA,NA
audio-instructions,27,243879,0.0-7.0-0.0,voc_e2,12079,"[{""event"":""fullscreenenter"",""trial"":1,""time"":2130}]",NA,476.89999997615814,static/audio/instructions15.wav,NA,0,NA,NA,NA,NA,NA,NA,NA,NA,NA,NA,NA,NA,NA,NA,NA,NA,NA,NA,NA,NA,NA,NA,NA,NA,NA
audio-instructions,28,251822,0.0-7.0-1.0,voc_e2,12079,"[{""event"":""fullscreenenter"",""trial"":1,""time"":2130}]",NA,1118.4000000059605,static/audio/instructions16.wav,NA,0,NA,NA,NA,NA,NA,NA,NA,NA,NA,NA,NA,NA,NA,NA,NA,NA,NA,NA,NA,NA,NA,NA,NA,NA,NA
audio-instructions,29,260560,0.0-7.0-2.0,voc_e2,12079,"[{""event"":""fullscreenenter"",""trial"":1,""time"":2130}]",NA,1056.0999999940395,static/audio/instructions17.wav,NA,0,NA,NA,NA,NA,NA,NA,NA,NA,NA,NA,NA,NA,NA,NA,NA,NA,NA,NA,NA,NA,NA,NA,NA,NA,NA
audio-instructions,30,268667,0.0-7.0-3.0,voc_e2,12079,"[{""event"":""fullscreenenter"",""trial"":1,""time"":2130}]",NA,342.39999997615814,static/audio/instructions18.wav,NA,0,NA,NA,NA,NA,NA,NA,NA,NA,NA,NA,NA,NA,NA,NA,NA,NA,NA,NA,NA,NA,NA,NA,NA,NA,NA
audio-instructions,31,279955,0.0-7.0-4.0,voc_e2,12079,"[{""event"":""fullscreenenter"",""trial"":1,""time"":2130}]",NA,4547.0999999940395,static/audio/instructions19.wav,NA,0,NA,NA,NA,NA,NA,NA,NA,NA,NA,NA,NA,NA,NA,NA,NA,NA,NA,NA,NA,NA,NA,NA,NA,NA,NA
fcp-comprehension,32,287584,0.0-7.0-5.0,voc_e2,12079,"[{""event"":""fullscreenenter"",""trial"":1,""time"":2130}]",NA,7626.200000017881,NA,NA,NA,NA,NA,NA,NA,NA,NA,NA,NA,NA,NA,NA,NA,NA,NA,NA,"false,false,false,true",0,NA,NA,NA,NA,NA,NA,NA,NA
audio-instructions,33,297738,0.0-8.0,voc_e2,12079,"[{""event"":""fullscreenenter"",""trial"":1,""time"":2130}]",NA,938.0999999940396,static/audio/ready.wav,NA,0,NA,NA,NA,NA,NA,NA,NA,NA,NA,NA,NA,NA,NA,NA,NA,NA,NA,NA,NA,NA,NA,NA,NA,NA,NA
fcp-trial,34,302002,0.0-9.0-0.0,voc_e2,12079,"[{""event"":""fullscreenenter"",""trial"":1,""time"":2130}]",NA,NA,NA,NA,NA,6,#D89F1C,#3386FF,10,0,1,40,0,1949.7000000178814,37,1,806.4000000059605,10,1,experiment,NA,NA,2,0.5,0.5,4,5,1,1,NA
fcp-trial,35,308997,0.0-10.0-0.0,voc_e2,12079,"[{""event"":""fullscreenenter"",""trial"":1,""time"":2130}]",NA,NA,NA,NA,NA,2,#3386FF,#D89F1C,10,0,0,40,0,4870.200000017881,39,0,618.2999999821186,0,1,experiment,NA,NA,2,0.5,0.5,5,4,2,1,NA
fcp-trial,36,312628,0.0-11.0-0.0,voc_e2,12079,"[{""event"":""fullscreenenter"",""trial"":1,""time"":2130}]",NA,NA,NA,NA,NA,3,#D8271C,#741CD8,10,0,1,40,0,937.7000000178814,39,0,1183,0,0,experiment,NA,NA,0,0.9,0.1,0,1,3,1,NA
fcp-trial,37,315681,0.0-12.0-0.0,voc_e2,12079,"[{""event"":""fullscreenenter"",""trial"":1,""time"":2130}]",NA,NA,NA,NA,NA,3,#1CD855,#FA92F8,10,0,1,40,0,855,39,0,690.0999999940395,0,0,experiment,NA,NA,1,0.7,0.3,2,3,4,1,NA
fcp-trial,38,319034,0.0-13.0-0.0,voc_e2,12079,"[{""event"":""fullscreenenter"",""trial"":1,""time"":2130}]",NA,NA,NA,NA,NA,5,#D89F1C,#3386FF,10,0,1,40,0,1240.7999999821186,39,0,604.5,0,0,experiment,NA,NA,2,0.5,0.5,4,5,5,1,NA
fcp-trial,39,322100,0.0-14.0-0.0,voc_e2,12079,"[{""event"":""fullscreenenter"",""trial"":1,""time"":2130}]",NA,NA,NA,NA,NA,6,#1CD855,#FA92F8,10,0,1,40,0,1064.300000011921,39,0,494.90000000596046,0,0,experiment,NA,NA,1,0.7,0.3,2,3,6,1,NA
fcp-trial,40,326013,0.0-15.0-0.0,voc_e2,12079,"[{""event"":""fullscreenenter"",""trial"":1,""time"":2130}]",NA,NA,NA,NA,NA,1,#D8271C,#741CD8,10,0,1,38,1,1320.4000000059605,37,1,1083.5999999940395,10,1,experiment,NA,NA,0,0.9,0.1,0,1,7,1,NA
fcp-trial,41,329119,0.0-16.0-0.0,voc_e2,12079,"[{""event"":""fullscreenenter"",""trial"":1,""time"":2130}]",NA,NA,NA,NA,NA,1,#FA92F8,#1CD855,10,0,0,38,1,1073,37,1,524.4000000059605,10,0,experiment,NA,NA,1,0.3,0.7,3,2,8,1,NA
fcp-trial,42,333623,0.0-17.0-0.0,voc_e2,12079,"[{""event"":""fullscreenenter"",""trial"":1,""time"":2130}]",NA,NA,NA,NA,NA,0,#741CD8,#D8271C,0,10,0,38,1,1480.7000000178814,39,0,1515.5,10,1,experiment,NA,NA,0,0.1,0.9,1,0,9,1,NA
fcp-trial,43,337461,0.0-18.0-0.0,voc_e2,12079,"[{""event"":""fullscreenenter"",""trial"":1,""time"":2130}]",NA,NA,NA,NA,NA,0,#3386FF,#D89F1C,10,10,0,38,1,1892.0999999940395,39,0,435.19999998807907,10,1,experiment,NA,NA,2,0.5,0.5,5,4,10,1,NA
fcp-trial,44,342729,0.0-19.0-0.0,voc_e2,12079,"[{""event"":""fullscreenenter"",""trial"":1,""time"":2130}]",NA,NA,NA,NA,NA,0,#FA92F8,#1CD855,0,10,0,38,1,2895.9000000059605,37,1,862.5999999940395,0,0,experiment,NA,NA,1,0.3,0.7,3,2,11,1,NA
fcp-trial,45,346572,0.0-20.0-0.0,voc_e2,12079,"[{""event"":""fullscreenenter"",""trial"":1,""time"":2130}]",NA,NA,NA,NA,NA,4,#741CD8,#D8271C,10,10,0,40,0,1700.9000000059605,37,1,633.4000000059605,10,0,experiment,NA,NA,0,0.1,0.9,1,0,12,1,NA
fcp-trial,46,350150,0.0-21.0-0.0,voc_e2,12079,"[{""event"":""fullscreenenter"",""trial"":1,""time"":2130}]",NA,NA,NA,NA,NA,1,#D89F1C,#3386FF,0,0,1,38,1,1650.9000000059605,37,1,419.40000000596046,0,1,experiment,NA,NA,2,0.5,0.5,4,5,13,1,NA
fcp-trial,47,355306,0.0-22.0-0.0,voc_e2,12079,"[{""event"":""fullscreenenter"",""trial"":1,""time"":2130}]",NA,NA,NA,NA,NA,4,#1CD855,#FA92F8,10,0,1,40,0,2166.7999999821186,37,1,1479.4000000059605,10,1,experiment,NA,NA,1,0.7,0.3,2,3,14,1,NA
fcp-trial,48,360673,0.0-23.0-0.0,voc_e2,12079,"[{""event"":""fullscreenenter"",""trial"":1,""time"":2130}]",NA,NA,NA,NA,NA,2,#1CD855,#FA92F8,0,0,1,38,1,2663,37,1,1197.7999999821186,0,1,experiment,NA,NA,1,0.7,0.3,2,3,15,1,NA
fcp-trial,49,366240,0.0-24.0-0.0,voc_e2,12079,"[{""event"":""fullscreenenter"",""trial"":1,""time"":2130}]",NA,NA,NA,NA,NA,5,#D8271C,#741CD8,10,0,1,40,0,3464.7999999821186,39,0,594.6999999880791,0,0,experiment,NA,NA,0,0.9,0.1,0,1,16,1,NA
fcp-trial,50,375409,0.0-25.0-0.0,voc_e2,12079,"[{""event"":""fullscreenenter"",""trial"":1,""time"":2130}]",NA,NA,NA,NA,NA,6,#741CD8,#D8271C,0,10,0,40,0,2249.100000023842,39,0,5413.9000000059605,10,1,experiment,NA,NA,0,0.1,0.9,1,0,17,1,NA
fcp-trial,51,379556,0.0-26.0-0.0,voc_e2,12079,"[{""event"":""fullscreenenter"",""trial"":1,""time"":2130}]",NA,NA,NA,NA,NA,3,#3386FF,#D89F1C,0,0,0,40,0,2223.5,37,1,417.80000001192093,0,0,experiment,NA,NA,2,0.5,0.5,5,4,18,1,NA
fcp-trial,52,383538,0.0-27.0-0.0,voc_e2,12079,"[{""event"":""fullscreenenter"",""trial"":1,""time"":2130}]",NA,NA,NA,NA,NA,2,#D8271C,#741CD8,10,0,1,38,1,1498.2000000178814,37,1,977.3000000119209,10,1,experiment,NA,NA,0,0.9,0.1,0,1,19,1,NA
fcp-trial,53,391560,0.0-28.0-0.0,voc_e2,12079,"[{""event"":""fullscreenenter"",""trial"":1,""time"":2130}]",NA,NA,NA,NA,NA,5,#1CD855,#FA92F8,10,0,1,40,0,3732.0999999940395,39,0,2783.0999999940395,0,0,experiment,NA,NA,1,0.7,0.3,2,3,20,1,NA
fcp-trial,54,394667,0.0-29.0-0.0,voc_e2,12079,"[{""event"":""fullscreenenter"",""trial"":1,""time"":2130}]",NA,NA,NA,NA,NA,4,#D89F1C,#3386FF,10,0,1,40,0,1142.300000011921,39,0,457.40000000596046,0,0,experiment,NA,NA,2,0.5,0.5,4,5,21,1,NA
fcp-trial,55,397623,0.0-30.0-0.0,voc_e2,12079,"[{""event"":""fullscreenenter"",""trial"":1,""time"":2130}]",NA,NA,NA,NA,NA,2,#D8271C,#741CD8,10,0,1,38,1,1016.5,37,1,431.09999999403954,10,1,experiment,NA,NA,0,0.9,0.1,0,1,22,1,NA
fcp-trial,56,401214,0.0-31.0-0.0,voc_e2,12079,"[{""event"":""fullscreenenter"",""trial"":1,""time"":2130}]",NA,NA,NA,NA,NA,5,#1CD855,#FA92F8,10,0,1,40,0,1681,37,1,402.59999999403954,10,1,experiment,NA,NA,1,0.7,0.3,2,3,23,1,NA
fcp-trial,57,414474,0.0-32.0-0.0,voc_e2,12079,"[{""event"":""fullscreenenter"",""trial"":1,""time"":2130}]",NA,NA,NA,NA,NA,4,#D8271C,#741CD8,10,0,1,40,0,5885.199999988079,37,1,5864.399999976158,10,1,experiment,NA,NA,0,0.9,0.1,0,1,24,1,NA
fcp-trial,58,418547,0.0-33.0-0.0,voc_e2,12079,"[{""event"":""fullscreenenter"",""trial"":1,""time"":2130}]",NA,NA,NA,NA,NA,3,#D89F1C,#3386FF,0,0,1,38,1,1995.8999999761581,37,1,569.2000000178814,0,1,experiment,NA,NA,2,0.5,0.5,4,5,25,1,NA
fcp-trial,59,421645,0.0-34.0-0.0,voc_e2,12079,"[{""event"":""fullscreenenter"",""trial"":1,""time"":2130}]",NA,NA,NA,NA,NA,6,#741CD8,#D8271C,0,10,0,40,0,1101.8999999761581,39,0,487.69999998807907,10,1,experiment,NA,NA,0,0.1,0.9,1,0,26,1,NA
fcp-trial,60,424826,0.0-35.0-0.0,voc_e2,12079,"[{""event"":""fullscreenenter"",""trial"":1,""time"":2130}]",NA,NA,NA,NA,NA,3,#FA92F8,#1CD855,10,10,0,38,1,1276.199999988079,37,1,398.5,10,0,experiment,NA,NA,1,0.3,0.7,3,2,27,1,NA
fcp-trial,61,427776,0.0-36.0-0.0,voc_e2,12079,"[{""event"":""fullscreenenter"",""trial"":1,""time"":2130}]",NA,NA,NA,NA,NA,5,#741CD8,#D8271C,0,10,0,40,0,835.7999999821186,39,0,607.8000000119209,10,1,experiment,NA,NA,0,0.1,0.9,1,0,28,1,NA
fcp-trial,62,430423,0.0-37.0-0.0,voc_e2,12079,"[{""event"":""fullscreenenter"",""trial"":1,""time"":2130}]",NA,NA,NA,NA,NA,6,#D89F1C,#3386FF,10,0,1,40,0,760.0999999940395,37,1,381.80000001192093,10,1,experiment,NA,NA,2,0.5,0.5,4,5,29,1,NA
fcp-trial,63,433342,0.0-38.0-0.0,voc_e2,12079,"[{""event"":""fullscreenenter"",""trial"":1,""time"":2130}]",NA,NA,NA,NA,NA,2,#3386FF,#D89F1C,0,10,0,38,1,881.5999999940395,39,0,529.6999999880791,10,1,experiment,NA,NA,2,0.5,0.5,5,4,30,1,NA
fcp-trial,64,436578,0.0-39.0-0.0,voc_e2,12079,"[{""event"":""fullscreenenter"",""trial"":1,""time"":2130}]",NA,NA,NA,NA,NA,1,#1CD855,#FA92F8,10,10,1,38,1,1313,37,1,414.5,10,1,experiment,NA,NA,1,0.7,0.3,2,3,31,1,NA
fcp-trial,65,439509,0.0-40.0-0.0,voc_e2,12079,"[{""event"":""fullscreenenter"",""trial"":1,""time"":2130}]",NA,NA,NA,NA,NA,2,#1CD855,#FA92F8,0,0,1,38,1,926.7999999821186,37,1,498,0,1,experiment,NA,NA,1,0.7,0.3,2,3,32,1,NA
fcp-trial,66,443180,0.0-41.0-0.0,voc_e2,12079,"[{""event"":""fullscreenenter"",""trial"":1,""time"":2130}]",NA,NA,NA,NA,NA,1,#D8271C,#741CD8,10,0,1,38,1,1664.8999999761581,37,1,499.09999999403954,10,1,experiment,NA,NA,0,0.9,0.1,0,1,33,1,NA
fcp-trial,67,446265,0.0-42.0-0.0,voc_e2,12079,"[{""event"":""fullscreenenter"",""trial"":1,""time"":2130}]",NA,NA,NA,NA,NA,4,#FA92F8,#1CD855,0,10,0,40,0,888.2999999821186,37,1,687.8000000119209,0,0,experiment,NA,NA,1,0.3,0.7,3,2,34,1,NA
fcp-trial,68,449574,0.0-43.0-0.0,voc_e2,12079,"[{""event"":""fullscreenenter"",""trial"":1,""time"":2130}]",NA,NA,NA,NA,NA,0,#D89F1C,#3386FF,10,10,1,38,1,1402.800000011921,37,1,396.40000000596046,10,1,experiment,NA,NA,2,0.5,0.5,4,5,35,1,NA
fcp-trial,69,452561,0.0-44.0-0.0,voc_e2,12079,"[{""event"":""fullscreenenter"",""trial"":1,""time"":2130}]",NA,NA,NA,NA,NA,0,#1CD855,#FA92F8,10,0,1,38,1,1121.199999988079,37,1,359.59999999403954,10,1,experiment,NA,NA,1,0.7,0.3,2,3,36,1,NA
fcp-trial,70,456423,0.0-45.0-0.0,voc_e2,12079,"[{""event"":""fullscreenenter"",""trial"":1,""time"":2130}]",NA,NA,NA,NA,NA,3,#D8271C,#741CD8,10,0,1,38,1,1941.699999988079,37,1,413.90000000596046,10,1,experiment,NA,NA,0,0.9,0.1,0,1,37,1,NA
fcp-trial,71,459597,0.0-46.0-0.0,voc_e2,12079,"[{""event"":""fullscreenenter"",""trial"":1,""time"":2130}]",NA,NA,NA,NA,NA,6,#FA92F8,#1CD855,10,10,0,40,0,1164,37,1,501.40000000596046,10,0,experiment,NA,NA,1,0.3,0.7,3,2,38,1,NA
fcp-trial,72,462589,0.0-47.0-0.0,voc_e2,12079,"[{""event"":""fullscreenenter"",""trial"":1,""time"":2130}]",NA,NA,NA,NA,NA,0,#D8271C,#741CD8,10,0,1,38,1,1005,37,1,478.7000000178814,10,1,experiment,NA,NA,0,0.9,0.1,0,1,39,1,NA
fcp-trial,73,465760,0.0-48.0-0.0,voc_e2,12079,"[{""event"":""fullscreenenter"",""trial"":1,""time"":2130}]",NA,NA,NA,NA,NA,1,#3386FF,#D89F1C,0,0,0,38,1,1313.2999999821186,39,0,350.09999999403954,0,1,experiment,NA,NA,2,0.5,0.5,5,4,40,1,NA
fcp-trial,74,472947,0.0-49.0-0.0,voc_e2,12079,"[{""event"":""fullscreenenter"",""trial"":1,""time"":2130}]",NA,NA,NA,NA,NA,5,#D89F1C,#3386FF,0,10,1,40,0,3465.5,37,1,2215.4000000059605,0,1,experiment,NA,NA,2,0.5,0.5,4,5,41,1,NA
fcp-trial,75,475966,0.0-50.0-0.0,voc_e2,12079,"[{""event"":""fullscreenenter"",""trial"":1,""time"":2130}]",NA,NA,NA,NA,NA,4,#3386FF,#D89F1C,10,0,0,40,0,1122.5999999940395,39,0,388.2999999821186,0,1,experiment,NA,NA,2,0.5,0.5,5,4,42,1,NA
fcp-trial,76,481156,0.0-51.0-0.0,voc_e2,12079,"[{""event"":""fullscreenenter"",""trial"":1,""time"":2130}]",NA,NA,NA,NA,NA,3,#1CD855,#FA92F8,0,0,1,38,1,2710.9000000059605,37,1,969.1000000238419,0,1,experiment,NA,NA,1,0.7,0.3,2,3,43,1,NA
fcp-trial,77,484132,0.0-52.0-0.0,voc_e2,12079,"[{""event"":""fullscreenenter"",""trial"":1,""time"":2130}]",NA,NA,NA,NA,NA,6,#D89F1C,#3386FF,0,0,1,40,0,970.2000000178814,37,1,498.2999999821186,0,1,experiment,NA,NA,2,0.5,0.5,4,5,44,1,NA
fcp-trial,78,487009,0.0-53.0-0.0,voc_e2,12079,"[{""event"":""fullscreenenter"",""trial"":1,""time"":2130}]",NA,NA,NA,NA,NA,5,#741CD8,#D8271C,0,10,0,40,0,952.5999999940395,39,0,416.2000000178814,10,1,experiment,NA,NA,0,0.1,0.9,1,0,45,1,NA
fcp-trial,79,489765,0.0-54.0-0.0,voc_e2,12079,"[{""event"":""fullscreenenter"",""trial"":1,""time"":2130}]",NA,NA,NA,NA,NA,5,#D89F1C,#3386FF,10,0,1,40,0,833.3999999761581,39,0,415.60000002384186,0,0,experiment,NA,NA,2,0.5,0.5,4,5,46,2,NA
fcp-trial,80,492593,0.0-55.0-0.0,voc_e2,12079,"[{""event"":""fullscreenenter"",""trial"":1,""time"":2130}]",NA,NA,NA,NA,NA,6,#1CD855,#FA92F8,10,0,1,40,0,671.0999999940395,39,0,647.8000000119209,0,0,experiment,NA,NA,1,0.7,0.3,2,3,47,2,NA
fcp-trial,81,495698,0.0-56.0-0.0,voc_e2,12079,"[{""event"":""fullscreenenter"",""trial"":1,""time"":2130}]",NA,NA,NA,NA,NA,6,#741CD8,#D8271C,0,10,0,40,0,1148.300000011921,37,1,449.30000001192093,0,0,experiment,NA,NA,0,0.1,0.9,1,0,48,2,NA
fcp-trial,82,499275,0.0-57.0-0.0,voc_e2,12079,"[{""event"":""fullscreenenter"",""trial"":1,""time"":2130}]",NA,NA,NA,NA,NA,5,#1CD855,#FA92F8,10,0,1,40,0,1689.0999999940395,37,1,379.69999998807907,10,1,experiment,NA,NA,1,0.7,0.3,2,3,49,2,NA
fcp-trial,83,503058,0.0-58.0-0.0,voc_e2,12079,"[{""event"":""fullscreenenter"",""trial"":1,""time"":2130}]",NA,NA,NA,NA,NA,1,#3386FF,#D89F1C,10,10,0,38,1,1910.5,39,0,365.5,10,1,experiment,NA,NA,2,0.5,0.5,5,4,50,2,NA
fcp-trial,84,514492,0.0-59.0-0.0,voc_e2,12079,"[{""event"":""fullscreenenter"",""trial"":1,""time"":2130}]",NA,NA,NA,NA,NA,3,#D8271C,#741CD8,10,0,1,38,1,9311.59999999404,37,1,615.8000000119209,10,1,experiment,NA,NA,0,0.9,0.1,0,1,51,2,NA
fcp-trial,85,517379,0.0-60.0-0.0,voc_e2,12079,"[{""event"":""fullscreenenter"",""trial"":1,""time"":2130}]",NA,NA,NA,NA,NA,2,#D89F1C,#3386FF,0,0,1,38,1,1064,37,1,317.30000001192093,0,1,experiment,NA,NA,2,0.5,0.5,4,5,52,2,NA
fcp-trial,86,520658,0.0-61.0-0.0,voc_e2,12079,"[{""event"":""fullscreenenter"",""trial"":1,""time"":2130}]",NA,NA,NA,NA,NA,4,#1CD855,#FA92F8,0,0,1,40,0,1403.300000011921,39,0,370.90000000596046,0,0,experiment,NA,NA,1,0.7,0.3,2,3,53,2,NA
fcp-trial,87,524127,0.0-62.0-0.0,voc_e2,12079,"[{""event"":""fullscreenenter"",""trial"":1,""time"":2130}]",NA,NA,NA,NA,NA,2,#1CD855,#FA92F8,10,0,1,38,1,1445.9000000059605,37,1,517.3999999761581,10,1,experiment,NA,NA,1,0.7,0.3,2,3,54,2,NA
fcp-trial,88,527090,0.0-63.0-0.0,voc_e2,12079,"[{""event"":""fullscreenenter"",""trial"":1,""time"":2130}]",NA,NA,NA,NA,NA,3,#D89F1C,#3386FF,0,0,1,38,1,1146.3999999761581,37,1,311.40000000596046,0,1,experiment,NA,NA,2,0.5,0.5,4,5,55,2,NA
fcp-trial,89,529993,0.0-64.0-0.0,voc_e2,12079,"[{""event"":""fullscreenenter"",""trial"":1,""time"":2130}]",NA,NA,NA,NA,NA,1,#741CD8,#D8271C,0,0,0,38,1,868.5999999940395,39,0,527.7000000178814,0,1,experiment,NA,NA,0,0.1,0.9,1,0,56,2,NA
fcp-trial,90,532501,0.0-65.0-0.0,voc_e2,12079,"[{""event"":""fullscreenenter"",""trial"":1,""time"":2130}]",NA,NA,NA,NA,NA,0,#741CD8,#D8271C,0,10,0,38,1,662.9000000059605,39,0,338.90000000596046,10,1,experiment,NA,NA,0,0.1,0.9,1,0,57,2,NA
fcp-trial,91,535694,0.0-66.0-0.0,voc_e2,12079,"[{""event"":""fullscreenenter"",""trial"":1,""time"":2130}]",NA,NA,NA,NA,NA,4,#3386FF,#D89F1C,10,0,0,40,0,1236.4000000059605,37,1,450.7000000178814,10,0,experiment,NA,NA,2,0.5,0.5,5,4,58,2,NA
fcp-trial,92,538700,0.0-67.0-0.0,voc_e2,12079,"[{""event"":""fullscreenenter"",""trial"":1,""time"":2130}]",NA,NA,NA,NA,NA,1,#1CD855,#FA92F8,10,0,1,38,1,1076.199999988079,37,1,422.90000000596046,10,1,experiment,NA,NA,1,0.7,0.3,2,3,59,2,NA
fcp-trial,93,541939,0.0-68.0-0.0,voc_e2,12079,"[{""event"":""fullscreenenter"",""trial"":1,""time"":2130}]",NA,NA,NA,NA,NA,0,#FA92F8,#1CD855,0,0,0,38,1,1142.2000000178814,39,0,591.8999999761581,0,1,experiment,NA,NA,1,0.3,0.7,3,2,60,2,NA
fcp-trial,94,545476,0.0-69.0-0.0,voc_e2,12079,"[{""event"":""fullscreenenter"",""trial"":1,""time"":2130}]",NA,NA,NA,NA,NA,2,#D8271C,#741CD8,10,0,1,38,1,1736.4000000059605,37,1,294.80000001192093,10,1,experiment,NA,NA,0,0.9,0.1,0,1,61,2,NA
fcp-trial,95,548113,0.0-70.0-0.0,voc_e2,12079,"[{""event"":""fullscreenenter"",""trial"":1,""time"":2130}]",NA,NA,NA,NA,NA,0,#3386FF,#D89F1C,10,0,0,38,1,812.8999999761581,39,0,317.30000001192093,0,1,experiment,NA,NA,2,0.5,0.5,5,4,62,2,NA
fcp-trial,96,551040,0.0-71.0-0.0,voc_e2,12079,"[{""event"":""fullscreenenter"",""trial"":1,""time"":2130}]",NA,NA,NA,NA,NA,4,#D8271C,#741CD8,10,0,1,40,0,1025,37,1,397,10,1,experiment,NA,NA,0,0.9,0.1,0,1,63,2,NA
fcp-trial,97,553775,0.0-72.0-0.0,voc_e2,12079,"[{""event"":""fullscreenenter"",""trial"":1,""time"":2130}]",NA,NA,NA,NA,NA,1,#FA92F8,#1CD855,0,10,0,38,1,911.4000000059605,39,0,315.69999998807907,10,1,experiment,NA,NA,1,0.3,0.7,3,2,64,2,NA
fcp-trial,98,556509,0.0-73.0-0.0,voc_e2,12079,"[{""event"":""fullscreenenter"",""trial"":1,""time"":2130}]",NA,NA,NA,NA,NA,6,#741CD8,#D8271C,0,10,0,40,0,846.3000000119209,39,0,381.19999998807907,10,1,experiment,NA,NA,0,0.1,0.9,1,0,65,2,NA
fcp-trial,99,559310,0.0-74.0-0.0,voc_e2,12079,"[{""event"":""fullscreenenter"",""trial"":1,""time"":2130}]",NA,NA,NA,NA,NA,6,#1CD855,#FA92F8,10,10,1,40,0,993.9000000059605,37,1,301.60000002384186,10,1,experiment,NA,NA,1,0.7,0.3,2,3,66,2,NA
fcp-trial,100,561929,0.0-75.0-0.0,voc_e2,12079,"[{""event"":""fullscreenenter"",""trial"":1,""time"":2130}]",NA,NA,NA,NA,NA,5,#D8271C,#741CD8,10,0,1,40,0,759.6999999880791,37,1,351.7999999821186,10,1,experiment,NA,NA,0,0.9,0.1,0,1,67,2,NA
fcp-trial,101,564806,0.0-76.0-0.0,voc_e2,12079,"[{""event"":""fullscreenenter"",""trial"":1,""time"":2130}]",NA,NA,NA,NA,NA,5,#D89F1C,#3386FF,10,0,1,40,0,697.2999999821186,39,0,673.5,0,0,experiment,NA,NA,2,0.5,0.5,4,5,68,2,NA
fcp-trial,102,568525,0.0-77.0-0.0,voc_e2,12079,"[{""event"":""fullscreenenter"",""trial"":1,""time"":2130}]",NA,NA,NA,NA,NA,3,#FA92F8,#1CD855,10,10,0,38,1,1882.2000000178814,39,0,330,10,1,experiment,NA,NA,1,0.3,0.7,3,2,69,2,NA
fcp-trial,103,571943,0.0-78.0-0.0,voc_e2,12079,"[{""event"":""fullscreenenter"",""trial"":1,""time"":2130}]",NA,NA,NA,NA,NA,0,#D8271C,#741CD8,10,0,1,38,1,1625.2999999821186,37,1,286.59999999403954,10,1,experiment,NA,NA,0,0.9,0.1,0,1,70,2,NA
fcp-trial,104,574574,0.0-79.0-0.0,voc_e2,12079,"[{""event"":""fullscreenenter"",""trial"":1,""time"":2130}]",NA,NA,NA,NA,NA,5,#FA92F8,#1CD855,0,10,0,40,0,767.6999999880791,39,0,357.40000000596046,10,1,experiment,NA,NA,1,0.3,0.7,3,2,71,2,NA
fcp-trial,105,577485,0.0-80.0-0.0,voc_e2,12079,"[{""event"":""fullscreenenter"",""trial"":1,""time"":2130}]",NA,NA,NA,NA,NA,3,#741CD8,#D8271C,0,10,0,38,1,1098.199999988079,39,0,305.39999997615814,10,1,experiment,NA,NA,0,0.1,0.9,1,0,72,2,NA
fcp-trial,106,580482,0.0-81.0-0.0,voc_e2,12079,"[{""event"":""fullscreenenter"",""trial"":1,""time"":2130}]",NA,NA,NA,NA,NA,0,#D89F1C,#3386FF,10,0,1,38,1,873.9000000059605,37,1,617.5999999940395,10,1,experiment,NA,NA,2,0.5,0.5,4,5,73,2,NA
fcp-trial,107,583563,0.0-82.0-0.0,voc_e2,12079,"[{""event"":""fullscreenenter"",""trial"":1,""time"":2130}]",NA,NA,NA,NA,NA,4,#D8271C,#741CD8,10,10,1,40,0,1054,39,0,520.8000000119209,10,0,experiment,NA,NA,0,0.9,0.1,0,1,74,2,NA
fcp-trial,108,586632,0.0-83.0-0.0,voc_e2,12079,"[{""event"":""fullscreenenter"",""trial"":1,""time"":2130}]",NA,NA,NA,NA,NA,6,#3386FF,#D89F1C,0,0,0,40,0,1025.7000000178814,37,1,537,0,0,experiment,NA,NA,2,0.5,0.5,5,4,75,2,NA
fcp-trial,109,590107,0.0-84.0-0.0,voc_e2,12079,"[{""event"":""fullscreenenter"",""trial"":1,""time"":2130}]",NA,NA,NA,NA,NA,4,#1CD855,#FA92F8,0,0,1,40,0,1541.5,37,1,426,0,1,experiment,NA,NA,1,0.7,0.3,2,3,76,2,NA
fcp-trial,110,605112,0.0-85.0-0.0,voc_e2,12079,"[{""event"":""fullscreenenter"",""trial"":1,""time"":2130}]",NA,NA,NA,NA,NA,4,#D89F1C,#3386FF,10,0,1,null,null,null,null,null,null,NA,0,experiment,NA,NA,2,0.5,0.5,4,5,77,2,NA
fcp-trial,111,608325,0.0-86.0-0.0,voc_e2,12079,"[{""event"":""fullscreenenter"",""trial"":1,""time"":2130}]",NA,NA,NA,NA,NA,1,#3386FF,#D89F1C,10,0,0,38,1,1315.5999999940395,39,0,388.7000000178814,0,1,experiment,NA,NA,2,0.5,0.5,5,4,78,2,NA
fcp-trial,112,612291,0.0-87.0-0.0,voc_e2,12079,"[{""event"":""fullscreenenter"",""trial"":1,""time"":2130}]",NA,NA,NA,NA,NA,1,#741CD8,#D8271C,0,10,0,38,1,1013.8999999761581,39,0,1444.2000000178814,10,1,experiment,NA,NA,0,0.1,0.9,1,0,79,2,NA
fcp-trial,113,616089,0.0-88.0-0.0,voc_e2,12079,"[{""event"":""fullscreenenter"",""trial"":1,""time"":2130}]",NA,NA,NA,NA,NA,3,#3386FF,#D89F1C,10,10,0,40,0,1876.5999999940395,37,1,412,10,0,experiment,NA,NA,2,0.5,0.5,5,4,80,2,NA
fcp-trial,114,619471,0.0-89.0-0.0,voc_e2,12079,"[{""event"":""fullscreenenter"",""trial"":1,""time"":2130}]",NA,NA,NA,NA,NA,2,#FA92F8,#1CD855,0,10,0,38,1,1501.9000000059605,39,0,374.69999998807907,10,1,experiment,NA,NA,1,0.3,0.7,3,2,81,2,NA
fcp-trial,115,622045,0.0-90.0-0.0,voc_e2,12079,"[{""event"":""fullscreenenter"",""trial"":1,""time"":2130}]",NA,NA,NA,NA,NA,2,#D8271C,#741CD8,10,10,1,38,1,730.9000000059605,37,1,337.40000000596046,10,1,experiment,NA,NA,0,0.9,0.1,0,1,82,2,NA
fcp-trial,116,625002,0.0-91.0-0.0,voc_e2,12079,"[{""event"":""fullscreenenter"",""trial"":1,""time"":2130}]",NA,NA,NA,NA,NA,2,#D89F1C,#3386FF,10,10,1,38,1,870.5999999940395,37,1,578.0999999940395,10,1,experiment,NA,NA,2,0.5,0.5,4,5,83,2,NA
fcp-trial,117,627544,0.0-92.0-0.0,voc_e2,12079,"[{""event"":""fullscreenenter"",""trial"":1,""time"":2130}]",NA,NA,NA,NA,NA,0,#1CD855,#FA92F8,10,10,1,38,1,726.8999999761581,37,1,307.10000002384186,10,1,experiment,NA,NA,1,0.7,0.3,2,3,84,2,NA
fcp-trial,118,630489,0.0-93.0-0.0,voc_e2,12079,"[{""event"":""fullscreenenter"",""trial"":1,""time"":2130}]",NA,NA,NA,NA,NA,3,#1CD855,#FA92F8,0,0,1,38,1,803.0999999940395,37,1,634,0,1,experiment,NA,NA,1,0.7,0.3,2,3,85,2,NA
fcp-trial,119,633047,0.0-94.0-0.0,voc_e2,12079,"[{""event"":""fullscreenenter"",""trial"":1,""time"":2130}]",NA,NA,NA,NA,NA,1,#FA92F8,#1CD855,0,10,0,38,1,745.6000000238419,39,0,306.89999997615814,10,1,experiment,NA,NA,1,0.3,0.7,3,2,86,2,NA
fcp-trial,120,637361,0.0-95.0-0.0,voc_e2,12079,"[{""event"":""fullscreenenter"",""trial"":1,""time"":2130}]",NA,NA,NA,NA,NA,6,#3386FF,#D89F1C,0,10,0,40,0,1817.300000011921,39,0,987.5999999940395,10,1,experiment,NA,NA,2,0.5,0.5,5,4,87,2,NA
fcp-trial,121,640377,0.0-96.0-0.0,voc_e2,12079,"[{""event"":""fullscreenenter"",""trial"":1,""time"":2130}]",NA,NA,NA,NA,NA,6,#D8271C,#741CD8,0,0,1,40,0,1004.0999999940395,37,1,503,0,1,experiment,NA,NA,0,0.9,0.1,0,1,88,2,NA
fcp-trial,122,644241,0.0-97.0-0.0,voc_e2,12079,"[{""event"":""fullscreenenter"",""trial"":1,""time"":2130}]",NA,NA,NA,NA,NA,3,#741CD8,#D8271C,0,10,0,38,1,1934.8999999761581,39,0,420.5,10,1,experiment,NA,NA,0,0.1,0.9,1,0,89,2,NA
fcp-trial,123,646743,0.0-98.0-0.0,voc_e2,12079,"[{""event"":""fullscreenenter"",""trial"":1,""time"":2130}]",NA,NA,NA,NA,NA,6,#1CD855,#FA92F8,10,0,1,40,0,596.5,39,0,400,0,0,experiment,NA,NA,1,0.7,0.3,2,3,90,2,NA
fcp-trial,124,649407,0.0-99.0-0.0,voc_e2,12079,"[{""event"":""fullscreenenter"",""trial"":1,""time"":2130}]",NA,NA,NA,NA,NA,3,#3386FF,#D89F1C,0,0,0,38,1,840.4000000059605,39,0,316.90000000596046,0,1,experiment,NA,NA,2,0.5,0.5,5,4,91,3,NA
fcp-trial,125,653019,0.0-100.0-0.0,voc_e2,12079,"[{""event"":""fullscreenenter"",""trial"":1,""time"":2130}]",NA,NA,NA,NA,NA,2,#1CD855,#FA92F8,10,0,1,38,1,1574.4000000059605,37,1,529.4000000059605,10,1,experiment,NA,NA,1,0.7,0.3,2,3,92,3,NA
fcp-trial,126,655774,0.0-101.0-0.0,voc_e2,12079,"[{""event"":""fullscreenenter"",""trial"":1,""time"":2130}]",NA,NA,NA,NA,NA,0,#741CD8,#D8271C,0,10,0,38,1,931.6999999880791,39,0,317,10,1,experiment,NA,NA,0,0.1,0.9,1,0,93,3,NA
fcp-trial,127,658395,0.0-102.0-0.0,voc_e2,12079,"[{""event"":""fullscreenenter"",""trial"":1,""time"":2130}]",NA,NA,NA,NA,NA,1,#741CD8,#D8271C,0,10,0,38,1,670.7000000178814,39,0,443.2000000178814,10,1,experiment,NA,NA,0,0.1,0.9,1,0,94,3,NA
fcp-trial,128,660926,0.0-103.0-0.0,voc_e2,12079,"[{""event"":""fullscreenenter"",""trial"":1,""time"":2130}]",NA,NA,NA,NA,NA,0,#FA92F8,#1CD855,0,10,0,38,1,572.4000000059605,39,0,449.80000001192093,10,1,experiment,NA,NA,1,0.3,0.7,3,2,95,3,NA
fcp-trial,129,663369,0.0-104.0-0.0,voc_e2,12079,"[{""event"":""fullscreenenter"",""trial"":1,""time"":2130}]",NA,NA,NA,NA,NA,0,#D89F1C,#3386FF,10,10,1,38,1,571.6999999880791,37,1,366,10,1,experiment,NA,NA,2,0.5,0.5,4,5,96,3,NA
fcp-trial,130,666677,0.0-105.0-0.0,voc_e2,12079,"[{""event"":""fullscreenenter"",""trial"":1,""time"":2130}]",NA,NA,NA,NA,NA,4,#3386FF,#D89F1C,10,10,0,40,0,1414,39,0,385.40000000596046,10,1,experiment,NA,NA,2,0.5,0.5,5,4,97,3,NA
fcp-trial,131,669852,0.0-106.0-0.0,voc_e2,12079,"[{""event"":""fullscreenenter"",""trial"":1,""time"":2130}]",NA,NA,NA,NA,NA,2,#741CD8,#D8271C,0,10,0,38,1,1309.800000011921,39,0,359.90000000596046,10,1,experiment,NA,NA,0,0.1,0.9,1,0,98,3,NA
fcp-trial,132,673969,0.0-107.0-0.0,voc_e2,12079,"[{""event"":""fullscreenenter"",""trial"":1,""time"":2130}]",NA,NA,NA,NA,NA,4,#FA92F8,#1CD855,10,10,0,40,0,2159.699999988079,39,0,450.10000002384186,10,1,experiment,NA,NA,1,0.3,0.7,3,2,99,3,NA
fcp-trial,133,676821,0.0-108.0-0.0,voc_e2,12079,"[{""event"":""fullscreenenter"",""trial"":1,""time"":2130}]",NA,NA,NA,NA,NA,1,#D89F1C,#3386FF,0,0,1,38,1,951.5,37,1,393.80000001192093,0,1,experiment,NA,NA,2,0.5,0.5,4,5,100,3,NA
fcp-trial,134,679581,0.0-109.0-0.0,voc_e2,12079,"[{""event"":""fullscreenenter"",""trial"":1,""time"":2130}]",NA,NA,NA,NA,NA,5,#FA92F8,#1CD855,0,10,0,40,0,879.5,37,1,373.90000000596046,0,0,experiment,NA,NA,1,0.3,0.7,3,2,101,3,NA
fcp-trial,135,682441,0.0-110.0-0.0,voc_e2,12079,"[{""event"":""fullscreenenter"",""trial"":1,""time"":2130}]",NA,NA,NA,NA,NA,4,#D8271C,#741CD8,0,0,1,40,0,965.3000000119209,39,0,385,0,0,experiment,NA,NA,0,0.9,0.1,0,1,102,3,NA
fcp-trial,136,685087,0.0-111.0-0.0,voc_e2,12079,"[{""event"":""fullscreenenter"",""trial"":1,""time"":2130}]",NA,NA,NA,NA,NA,2,#D89F1C,#3386FF,10,10,1,38,1,872.8000000119209,37,1,267.59999999403954,10,1,experiment,NA,NA,2,0.5,0.5,4,5,103,3,NA
fcp-trial,137,687701,0.0-112.0-0.0,voc_e2,12079,"[{""event"":""fullscreenenter"",""trial"":1,""time"":2130}]",NA,NA,NA,NA,NA,5,#741CD8,#D8271C,10,10,0,40,0,730.5999999940395,39,0,378.30000001192093,10,1,experiment,NA,NA,0,0.1,0.9,1,0,104,3,NA
fcp-trial,138,690420,0.0-113.0-0.0,voc_e2,12079,"[{""event"":""fullscreenenter"",""trial"":1,""time"":2130}]",NA,NA,NA,NA,NA,5,#3386FF,#D89F1C,0,0,0,40,0,715.5999999940395,37,1,497.60000002384186,0,0,experiment,NA,NA,2,0.5,0.5,5,4,105,3,NA
audio-instructions,139,735944,0.0-114.0,voc_e2,12079,"[{""event"":""fullscreenenter"",""trial"":1,""time"":2130}]",NA,41053.90000000596,static/audio/pause.wav,NA,0,NA,NA,NA,NA,NA,NA,NA,NA,NA,NA,NA,NA,NA,NA,NA,NA,NA,NA,NA,NA,NA,NA,NA,NA,NA
fcp-trial,140,739404,0.0-115.0-0.0,voc_e2,12079,"[{""event"":""fullscreenenter"",""trial"":1,""time"":2130}]",NA,NA,NA,NA,NA,1,#D89F1C,#3386FF,0,10,1,38,1,1453.5999999940395,37,1,498.90000000596046,0,1,experiment,NA,NA,2,0.5,0.5,4,5,106,3,NA
fcp-trial,141,742161,0.0-116.0-0.0,voc_e2,12079,"[{""event"":""fullscreenenter"",""trial"":1,""time"":2130}]",NA,NA,NA,NA,NA,4,#FA92F8,#1CD855,0,10,0,40,0,894.1999999880791,39,0,355.2000000178814,10,1,experiment,NA,NA,1,0.3,0.7,3,2,107,3,NA
fcp-trial,142,744828,0.0-117.0-0.0,voc_e2,12079,"[{""event"":""fullscreenenter"",""trial"":1,""time"":2130}]",NA,NA,NA,NA,NA,0,#D8271C,#741CD8,10,0,1,38,1,792.8000000119209,37,1,365.60000002384186,10,1,experiment,NA,NA,0,0.9,0.1,0,1,108,3,NA
fcp-trial,143,747455,0.0-118.0-0.0,voc_e2,12079,"[{""event"":""fullscreenenter"",""trial"":1,""time"":2130}]",NA,NA,NA,NA,NA,2,#1CD855,#FA92F8,0,0,1,38,1,815,37,1,303.59999999403954,0,1,experiment,NA,NA,1,0.7,0.3,2,3,109,3,NA
fcp-trial,144,750299,0.0-119.0-0.0,voc_e2,12079,"[{""event"":""fullscreenenter"",""trial"":1,""time"":2130}]",NA,NA,NA,NA,NA,5,#D89F1C,#3386FF,10,0,1,40,0,968.4000000059605,39,0,367.30000001192093,0,0,experiment,NA,NA,2,0.5,0.5,4,5,110,3,NA
fcp-trial,145,752859,0.0-120.0-0.0,voc_e2,12079,"[{""event"":""fullscreenenter"",""trial"":1,""time"":2130}]",NA,NA,NA,NA,NA,2,#D8271C,#741CD8,10,0,1,38,1,776.0999999940395,37,1,278.7999999821186,10,1,experiment,NA,NA,0,0.9,0.1,0,1,111,3,NA
fcp-trial,146,755449,0.0-121.0-0.0,voc_e2,12079,"[{""event"":""fullscreenenter"",""trial"":1,""time"":2130}]",NA,NA,NA,NA,NA,0,#3386FF,#D89F1C,0,10,0,38,1,732.5,39,0,349.30000001192093,10,1,experiment,NA,NA,2,0.5,0.5,5,4,112,3,NA
fcp-trial,147,758750,0.0-122.0-0.0,voc_e2,12079,"[{""event"":""fullscreenenter"",""trial"":1,""time"":2130}]",NA,NA,NA,NA,NA,3,#FA92F8,#1CD855,0,0,0,38,1,1066.4000000059605,39,0,727.0999999940395,0,1,experiment,NA,NA,1,0.3,0.7,3,2,113,3,NA
fcp-trial,148,761518,0.0-123.0-0.0,voc_e2,12079,"[{""event"":""fullscreenenter"",""trial"":1,""time"":2130}]",NA,NA,NA,NA,NA,5,#FA92F8,#1CD855,0,0,0,40,0,817.5,39,0,444.59999999403954,0,1,experiment,NA,NA,1,0.3,0.7,3,2,114,3,NA
fcp-trial,149,764368,0.0-124.0-0.0,voc_e2,12079,"[{""event"":""fullscreenenter"",""trial"":1,""time"":2130}]",NA,NA,NA,NA,NA,5,#D8271C,#741CD8,10,0,1,40,0,895.9000000059605,39,0,448.39999997615814,0,0,experiment,NA,NA,0,0.9,0.1,0,1,115,3,NA
fcp-trial,150,767237,0.0-125.0-0.0,voc_e2,12079,"[{""event"":""fullscreenenter"",""trial"":1,""time"":2130}]",NA,NA,NA,NA,NA,2,#D89F1C,#3386FF,0,0,1,38,1,794,37,1,569.2999999821186,0,1,experiment,NA,NA,2,0.5,0.5,4,5,116,3,NA
fcp-trial,151,769882,0.0-126.0-0.0,voc_e2,12079,"[{""event"":""fullscreenenter"",""trial"":1,""time"":2130}]",NA,NA,NA,NA,NA,6,#D8271C,#741CD8,10,0,1,40,0,746.7999999821186,37,1,392.30000001192093,10,1,experiment,NA,NA,0,0.9,0.1,0,1,117,3,NA
fcp-trial,152,772967,0.0-127.0-0.0,voc_e2,12079,"[{""event"":""fullscreenenter"",""trial"":1,""time"":2130}]",NA,NA,NA,NA,NA,3,#3386FF,#D89F1C,10,10,0,38,1,1268.0999999940395,39,0,309.30000001192093,10,1,experiment,NA,NA,2,0.5,0.5,5,4,118,3,NA
fcp-trial,153,775511,0.0-128.0-0.0,voc_e2,12079,"[{""event"":""fullscreenenter"",""trial"":1,""time"":2130}]",NA,NA,NA,NA,NA,1,#1CD855,#FA92F8,10,0,1,38,1,677.2999999821186,37,1,359.40000000596046,10,1,experiment,NA,NA,1,0.7,0.3,2,3,119,3,NA
fcp-trial,154,778367,0.0-129.0-0.0,voc_e2,12079,"[{""event"":""fullscreenenter"",""trial"":1,""time"":2130}]",NA,NA,NA,NA,NA,4,#741CD8,#D8271C,0,0,0,40,0,931.4000000059605,37,1,415.19999998807907,0,0,experiment,NA,NA,0,0.1,0.9,1,0,120,3,NA
fcp-trial,155,781610,0.0-130.0-0.0,voc_e2,12079,"[{""event"":""fullscreenenter"",""trial"":1,""time"":2130}]",NA,NA,NA,NA,NA,4,#3386FF,#D89F1C,0,0,0,40,0,1193.300000011921,37,1,541.5999999940395,0,0,experiment,NA,NA,2,0.5,0.5,5,4,121,3,NA
fcp-trial,156,784304,0.0-131.0-0.0,voc_e2,12079,"[{""event"":""fullscreenenter"",""trial"":1,""time"":2130}]",NA,NA,NA,NA,NA,6,#D89F1C,#3386FF,0,0,1,40,0,802.3000000119209,37,1,382.90000000596046,0,1,experiment,NA,NA,2,0.5,0.5,4,5,122,3,NA
fcp-trial,157,787071,0.0-132.0-0.0,voc_e2,12079,"[{""event"":""fullscreenenter"",""trial"":1,""time"":2130}]",NA,NA,NA,NA,NA,0,#1CD855,#FA92F8,10,10,1,38,1,878.1999999880791,37,1,382.09999999403954,10,1,experiment,NA,NA,1,0.7,0.3,2,3,123,3,NA
fcp-trial,158,790048,0.0-133.0-0.0,voc_e2,12079,"[{""event"":""fullscreenenter"",""trial"":1,""time"":2130}]",NA,NA,NA,NA,NA,3,#741CD8,#D8271C,0,10,0,38,1,1094.300000011921,39,0,377.09999999403954,10,1,experiment,NA,NA,0,0.1,0.9,1,0,124,3,NA
fcp-trial,159,793468,0.0-134.0-0.0,voc_e2,12079,"[{""event"":""fullscreenenter"",""trial"":1,""time"":2130}]",NA,NA,NA,NA,NA,1,#D8271C,#741CD8,10,0,1,38,1,1634.199999988079,37,1,278.59999999403954,10,1,experiment,NA,NA,0,0.9,0.1,0,1,125,3,NA
fcp-trial,160,796487,0.0-135.0-0.0,voc_e2,12079,"[{""event"":""fullscreenenter"",""trial"":1,""time"":2130}]",NA,NA,NA,NA,NA,6,#1CD855,#FA92F8,0,0,1,40,0,1177,37,1,334.59999999403954,0,1,experiment,NA,NA,1,0.7,0.3,2,3,126,3,NA
fcp-trial,161,799354,0.0-136.0-0.0,voc_e2,12079,"[{""event"":""fullscreenenter"",""trial"":1,""time"":2130}]",NA,NA,NA,NA,NA,6,#3386FF,#D89F1C,0,10,0,40,0,930.6999999880791,37,1,430.10000002384186,0,0,experiment,NA,NA,2,0.5,0.5,5,4,127,3,NA
fcp-trial,162,802205,0.0-137.0-0.0,voc_e2,12079,"[{""event"":""fullscreenenter"",""trial"":1,""time"":2130}]",NA,NA,NA,NA,NA,2,#1CD855,#FA92F8,10,0,1,38,1,1009.0999999940395,37,1,335.90000000596046,10,1,experiment,NA,NA,1,0.7,0.3,2,3,128,3,NA
fcp-trial,163,805392,0.0-138.0-0.0,voc_e2,12079,"[{""event"":""fullscreenenter"",""trial"":1,""time"":2130}]",NA,NA,NA,NA,NA,5,#741CD8,#D8271C,0,10,0,40,0,1097.7999999821186,37,1,582.9000000059605,0,0,experiment,NA,NA,0,0.1,0.9,1,0,129,3,NA
fcp-trial,164,808485,0.0-139.0-0.0,voc_e2,12079,"[{""event"":""fullscreenenter"",""trial"":1,""time"":2130}]",NA,NA,NA,NA,NA,0,#D89F1C,#3386FF,10,0,1,38,1,982.8000000119209,37,1,599.8000000119209,10,1,experiment,NA,NA,2,0.5,0.5,4,5,130,3,NA
fcp-trial,165,811259,0.0-140.0-0.0,voc_e2,12079,"[{""event"":""fullscreenenter"",""trial"":1,""time"":2130}]",NA,NA,NA,NA,NA,1,#741CD8,#D8271C,0,10,0,38,1,826.1999999880791,39,0,442.60000002384186,10,1,experiment,NA,NA,0,0.1,0.9,1,0,131,3,NA
fcp-trial,166,814119,0.0-141.0-0.0,voc_e2,12079,"[{""event"":""fullscreenenter"",""trial"":1,""time"":2130}]",NA,NA,NA,NA,NA,4,#741CD8,#D8271C,0,10,0,40,0,841.7999999821186,39,0,510.69999998807907,10,1,experiment,NA,NA,0,0.1,0.9,1,0,132,3,NA
fcp-trial,167,817213,0.0-142.0-0.0,voc_e2,12079,"[{""event"":""fullscreenenter"",""trial"":1,""time"":2130}]",NA,NA,NA,NA,NA,1,#FA92F8,#1CD855,10,10,0,38,1,734.3000000119209,39,0,852.3000000119209,10,1,experiment,NA,NA,1,0.3,0.7,3,2,133,3,NA
fcp-trial,168,820308,0.0-143.0-0.0,voc_e2,12079,"[{""event"":""fullscreenenter"",""trial"":1,""time"":2130}]",NA,NA,NA,NA,NA,4,#D89F1C,#3386FF,10,0,1,40,0,986,37,1,601.3999999761581,10,1,experiment,NA,NA,2,0.5,0.5,4,5,134,3,NA
fcp-trial,169,823105,0.0-144.0-0.0,voc_e2,12079,"[{""event"":""fullscreenenter"",""trial"":1,""time"":2130}]",NA,NA,NA,NA,NA,5,#1CD855,#FA92F8,10,10,1,40,0,852.5999999940395,39,0,435.59999999403954,10,0,experiment,NA,NA,1,0.7,0.3,2,3,135,3,NA
fcp-trial,170,826846,0.0-145.0-0.0,voc_e2,12079,"[{""event"":""fullscreenenter"",""trial"":1,""time"":2130}]",NA,NA,NA,NA,NA,0,#741CD8,#D8271C,0,10,0,38,1,1498.9000000059605,39,0,735.6999999880791,10,1,experiment,NA,NA,0,0.1,0.9,1,0,136,4,NA
fcp-trial,171,830289,0.0-146.0-0.0,voc_e2,12079,"[{""event"":""fullscreenenter"",""trial"":1,""time"":2130}]",NA,NA,NA,NA,NA,6,#1CD855,#FA92F8,0,0,1,40,0,1456.5,37,1,479.2999999821186,0,1,experiment,NA,NA,1,0.7,0.3,2,3,137,4,NA
fcp-trial,172,833476,0.0-147.0-0.0,voc_e2,12079,"[{""event"":""fullscreenenter"",""trial"":1,""time"":2130}]",NA,NA,NA,NA,NA,6,#D8271C,#741CD8,10,0,1,40,0,883.4000000059605,37,1,797.5,10,1,experiment,NA,NA,0,0.9,0.1,0,1,138,4,NA
fcp-trial,173,837000,0.0-148.0-0.0,voc_e2,12079,"[{""event"":""fullscreenenter"",""trial"":1,""time"":2130}]",NA,NA,NA,NA,NA,1,#3386FF,#D89F1C,0,10,0,38,1,1558.800000011921,39,0,456.7000000178814,10,1,experiment,NA,NA,2,0.5,0.5,5,4,139,4,NA
fcp-trial,174,840828,0.0-149.0-0.0,voc_e2,12079,"[{""event"":""fullscreenenter"",""trial"":1,""time"":2130}]",NA,NA,NA,NA,NA,5,#3386FF,#D89F1C,0,0,0,40,0,1600.5,37,1,720.3000000119209,0,0,experiment,NA,NA,2,0.5,0.5,5,4,140,4,NA
fcp-trial,175,843784,0.0-150.0-0.0,voc_e2,12079,"[{""event"":""fullscreenenter"",""trial"":1,""time"":2130}]",NA,NA,NA,NA,NA,3,#D89F1C,#3386FF,10,10,1,38,1,966,37,1,484.40000000596046,10,1,experiment,NA,NA,2,0.5,0.5,4,5,141,4,NA
fcp-trial,176,847800,0.0-151.0-0.0,voc_e2,12079,"[{""event"":""fullscreenenter"",""trial"":1,""time"":2130}]",NA,NA,NA,NA,NA,0,#FA92F8,#1CD855,0,10,0,38,1,1813.7999999821186,39,0,695,10,1,experiment,NA,NA,1,0.3,0.7,3,2,142,4,NA
fcp-trial,177,853452,0.0-152.0-0.0,voc_e2,12079,"[{""event"":""fullscreenenter"",""trial"":1,""time"":2130}]",NA,NA,NA,NA,NA,2,#D8271C,#741CD8,10,0,1,38,1,3215.5,37,1,930.0999999940395,10,1,experiment,NA,NA,0,0.9,0.1,0,1,143,4,NA
fcp-trial,178,856501,0.0-153.0-0.0,voc_e2,12079,"[{""event"":""fullscreenenter"",""trial"":1,""time"":2130}]",NA,NA,NA,NA,NA,3,#1CD855,#FA92F8,10,10,1,38,1,1193.5,37,1,347.40000000596046,10,1,experiment,NA,NA,1,0.7,0.3,2,3,144,4,NA
fcp-trial,179,865628,0.0-154.0-0.0,voc_e2,12079,"[{""event"":""fullscreenenter"",""trial"":1,""time"":2130}]",NA,NA,NA,NA,NA,4,#FA92F8,#1CD855,0,0,0,38,1,5559.4000000059605,39,0,2062.699999988079,0,1,experiment,NA,NA,1,0.3,0.7,3,2,145,4,NA
fcp-trial,180,868890,0.0-155.0-0.0,voc_e2,12079,"[{""event"":""fullscreenenter"",""trial"":1,""time"":2130}]",NA,NA,NA,NA,NA,2,#3386FF,#D89F1C,10,10,0,38,1,1427,39,0,327.90000000596046,10,1,experiment,NA,NA,2,0.5,0.5,5,4,146,4,NA
fcp-trial,181,872410,0.0-156.0-0.0,voc_e2,12079,"[{""event"":""fullscreenenter"",""trial"":1,""time"":2130}]",NA,NA,NA,NA,NA,3,#D8271C,#741CD8,10,0,1,38,1,1709.4000000059605,37,1,303.80000001192093,10,1,experiment,NA,NA,0,0.9,0.1,0,1,147,4,NA
fcp-trial,182,875661,0.0-157.0-0.0,voc_e2,12079,"[{""event"":""fullscreenenter"",""trial"":1,""time"":2130}]",NA,NA,NA,NA,NA,6,#3386FF,#D89F1C,0,0,0,40,0,1323.8999999761581,39,0,416.7000000178814,0,1,experiment,NA,NA,2,0.5,0.5,5,4,148,4,NA
fcp-trial,183,881735,0.0-158.0-0.0,voc_e2,12079,"[{""event"":""fullscreenenter"",""trial"":1,""time"":2130}]",NA,NA,NA,NA,NA,4,#D8271C,#741CD8,10,0,1,40,0,4033,39,0,531.5999999940395,0,0,experiment,NA,NA,0,0.9,0.1,0,1,149,4,NA
fcp-trial,184,889133,0.0-159.0-0.0,voc_e2,12079,"[{""event"":""fullscreenenter"",""trial"":1,""time"":2130}]",NA,NA,NA,NA,NA,3,#FA92F8,#1CD855,10,10,0,38,1,5314.799999982119,39,0,577.4000000059605,10,1,experiment,NA,NA,1,0.3,0.7,3,2,150,4,NA
fcp-trial,185,898928,0.0-160.0-0.0,voc_e2,12079,"[{""event"":""fullscreenenter"",""trial"":1,""time"":2130}]",NA,NA,NA,NA,NA,1,#D89F1C,#3386FF,0,10,1,38,1,7232,37,1,1055.6000000238419,0,1,experiment,NA,NA,2,0.5,0.5,4,5,151,4,NA
fcp-trial,186,903332,0.0-161.0-0.0,voc_e2,12079,"[{""event"":""fullscreenenter"",""trial"":1,""time"":2130}]",NA,NA,NA,NA,NA,4,#D89F1C,#3386FF,10,10,1,40,0,2353.5,39,0,541.3999999761581,10,0,experiment,NA,NA,2,0.5,0.5,4,5,152,4,NA
fcp-trial,187,908035,0.0-162.0-0.0,voc_e2,12079,"[{""event"":""fullscreenenter"",""trial"":1,""time"":2130}]",NA,NA,NA,NA,NA,0,#FA92F8,#1CD855,0,10,0,38,1,998.0999999940395,39,0,2197,10,1,experiment,NA,NA,1,0.3,0.7,3,2,153,4,NA
fcp-trial,188,912027,0.0-163.0-0.0,voc_e2,12079,"[{""event"":""fullscreenenter"",""trial"":1,""time"":2130}]",NA,NA,NA,NA,NA,0,#D8271C,#741CD8,10,0,1,38,1,2091.300000011921,37,1,391.69999998807907,10,1,experiment,NA,NA,0,0.9,0.1,0,1,154,4,NA
fcp-trial,189,916958,0.0-164.0-0.0,voc_e2,12079,"[{""event"":""fullscreenenter"",""trial"":1,""time"":2130}]",NA,NA,NA,NA,NA,2,#1CD855,#FA92F8,0,0,1,38,1,2585.800000011921,37,1,835.9000000059605,0,1,experiment,NA,NA,1,0.7,0.3,2,3,155,4,NA
fcp-trial,190,921301,0.0-165.0-0.0,voc_e2,12079,"[{""event"":""fullscreenenter"",""trial"":1,""time"":2130}]",NA,NA,NA,NA,NA,1,#741CD8,#D8271C,0,10,0,38,1,2432.7000000178814,39,0,403.7999999821186,10,1,experiment,NA,NA,0,0.1,0.9,1,0,156,4,NA
fcp-trial,191,924017,0.0-166.0-0.0,voc_e2,12079,"[{""event"":""fullscreenenter"",""trial"":1,""time"":2130}]",NA,NA,NA,NA,NA,2,#D89F1C,#3386FF,10,10,1,38,1,899,37,1,309.90000000596046,10,1,experiment,NA,NA,2,0.5,0.5,4,5,157,4,NA
fcp-trial,192,927241,0.0-167.0-0.0,voc_e2,12079,"[{""event"":""fullscreenenter"",""trial"":1,""time"":2130}]",NA,NA,NA,NA,NA,6,#FA92F8,#1CD855,0,10,0,40,0,1214.2999999821186,37,1,502,0,0,experiment,NA,NA,1,0.3,0.7,3,2,158,4,NA
fcp-trial,193,930236,0.0-168.0-0.0,voc_e2,12079,"[{""event"":""fullscreenenter"",""trial"":1,""time"":2130}]",NA,NA,NA,NA,NA,6,#D8271C,#741CD8,10,10,1,40,0,988.5,37,1,498.80000001192093,10,1,experiment,NA,NA,0,0.9,0.1,0,1,159,4,NA
fcp-trial,194,933188,0.0-169.0-0.0,voc_e2,12079,"[{""event"":""fullscreenenter"",""trial"":1,""time"":2130}]",NA,NA,NA,NA,NA,3,#3386FF,#D89F1C,0,0,0,40,0,927.9000000059605,39,0,517.6999999880791,0,1,experiment,NA,NA,2,0.5,0.5,5,4,160,4,NA
fcp-trial,195,936407,0.0-170.0-0.0,voc_e2,12079,"[{""event"":""fullscreenenter"",""trial"":1,""time"":2130}]",NA,NA,NA,NA,NA,3,#741CD8,#D8271C,0,0,0,40,0,1196.300000011921,37,1,517.5,0,0,experiment,NA,NA,0,0.1,0.9,1,0,161,4,NA
fcp-trial,196,941026,0.0-171.0-0.0,voc_e2,12079,"[{""event"":""fullscreenenter"",""trial"":1,""time"":2130}]",NA,NA,NA,NA,NA,0,#3386FF,#D89F1C,10,10,0,38,1,2610.899999976158,39,0,500.30000001192093,10,1,experiment,NA,NA,2,0.5,0.5,5,4,162,4,NA
fcp-trial,197,943909,0.0-172.0-0.0,voc_e2,12079,"[{""event"":""fullscreenenter"",""trial"":1,""time"":2130}]",NA,NA,NA,NA,NA,4,#1CD855,#FA92F8,10,0,1,40,0,988,37,1,386.09999999403954,10,1,experiment,NA,NA,1,0.7,0.3,2,3,163,4,NA
fcp-trial,198,947226,0.0-173.0-0.0,voc_e2,12079,"[{""event"":""fullscreenenter"",""trial"":1,""time"":2130}]",NA,NA,NA,NA,NA,2,#D8271C,#741CD8,10,0,1,38,1,1414,37,1,397.7999999821186,10,1,experiment,NA,NA,0,0.9,0.1,0,1,164,4,NA
fcp-trial,199,950225,0.0-174.0-0.0,voc_e2,12079,"[{""event"":""fullscreenenter"",""trial"":1,""time"":2130}]",NA,NA,NA,NA,NA,5,#D8271C,#741CD8,10,0,1,40,0,877.1999999880791,39,0,612.2999999821186,0,0,experiment,NA,NA,0,0.9,0.1,0,1,165,4,NA
fcp-trial,200,954379,0.0-175.0-0.0,voc_e2,12079,"[{""event"":""fullscreenenter"",""trial"":1,""time"":2130}]",NA,NA,NA,NA,NA,1,#1CD855,#FA92F8,0,0,1,38,1,1669.4000000059605,39,0,976,0,0,experiment,NA,NA,1,0.7,0.3,2,3,166,4,NA
fcp-trial,201,957271,0.0-176.0-0.0,voc_e2,12079,"[{""event"":""fullscreenenter"",""trial"":1,""time"":2130}]",NA,NA,NA,NA,NA,5,#D89F1C,#3386FF,0,10,1,40,0,842,37,1,539.5999999940395,0,1,experiment,NA,NA,2,0.5,0.5,4,5,167,4,NA
fcp-trial,202,960276,0.0-177.0-0.0,voc_e2,12079,"[{""event"":""fullscreenenter"",""trial"":1,""time"":2130}]",NA,NA,NA,NA,NA,5,#1CD855,#FA92F8,0,10,1,40,0,960.8000000119209,39,0,537.1999999880791,10,0,experiment,NA,NA,1,0.7,0.3,2,3,168,4,NA
fcp-trial,203,964676,0.0-178.0-0.0,voc_e2,12079,"[{""event"":""fullscreenenter"",""trial"":1,""time"":2130}]",NA,NA,NA,NA,NA,3,#FA92F8,#1CD855,10,0,0,40,0,2441.9000000059605,37,1,451.5,10,0,experiment,NA,NA,1,0.3,0.7,3,2,169,4,NA
fcp-trial,204,967674,0.0-179.0-0.0,voc_e2,12079,"[{""event"":""fullscreenenter"",""trial"":1,""time"":2130}]",NA,NA,NA,NA,NA,2,#1CD855,#FA92F8,10,0,1,38,1,772.8000000119209,37,1,716.1999999880791,10,1,experiment,NA,NA,1,0.7,0.3,2,3,170,4,NA
fcp-trial,205,973322,0.0-180.0-0.0,voc_e2,12079,"[{""event"":""fullscreenenter"",""trial"":1,""time"":2130}]",NA,NA,NA,NA,NA,1,#741CD8,#D8271C,0,0,0,38,1,3541.2000000178814,39,0,599,0,1,experiment,NA,NA,0,0.1,0.9,1,0,171,4,NA
fcp-trial,206,977873,0.0-181.0-0.0,voc_e2,12079,"[{""event"":""fullscreenenter"",""trial"":1,""time"":2130}]",NA,NA,NA,NA,NA,5,#D8271C,#741CD8,10,10,1,40,0,2458.2999999821186,39,0,585.8999999761581,10,0,experiment,NA,NA,0,0.9,0.1,0,1,172,4,NA
fcp-trial,207,980694,0.0-182.0-0.0,voc_e2,12079,"[{""event"":""fullscreenenter"",""trial"":1,""time"":2130}]",NA,NA,NA,NA,NA,2,#D89F1C,#3386FF,0,10,1,38,1,928.0999999940395,37,1,386.2000000178814,0,1,experiment,NA,NA,2,0.5,0.5,4,5,173,4,NA
fcp-trial,208,983778,0.0-183.0-0.0,voc_e2,12079,"[{""event"":""fullscreenenter"",""trial"":1,""time"":2130}]",NA,NA,NA,NA,NA,0,#1CD855,#FA92F8,0,0,1,38,1,1014.8000000119209,37,1,560.4000000059605,0,1,experiment,NA,NA,1,0.7,0.3,2,3,174,4,NA
fcp-trial,209,987286,0.0-184.0-0.0,voc_e2,12079,"[{""event"":""fullscreenenter"",""trial"":1,""time"":2130}]",NA,NA,NA,NA,NA,3,#3386FF,#D89F1C,10,0,0,38,1,1704.300000011921,39,0,298.59999999403954,0,1,experiment,NA,NA,2,0.5,0.5,5,4,175,4,NA
fcp-trial,210,990390,0.0-185.0-0.0,voc_e2,12079,"[{""event"":""fullscreenenter"",""trial"":1,""time"":2130}]",NA,NA,NA,NA,NA,6,#3386FF,#D89F1C,0,10,0,40,0,1080.9000000059605,39,0,516.0999999940395,10,1,experiment,NA,NA,2,0.5,0.5,5,4,176,4,NA
fcp-trial,211,993296,0.0-186.0-0.0,voc_e2,12079,"[{""event"":""fullscreenenter"",""trial"":1,""time"":2130}]",NA,NA,NA,NA,NA,3,#741CD8,#D8271C,0,10,0,38,1,1050.4000000059605,39,0,349.5,10,1,experiment,NA,NA,0,0.1,0.9,1,0,177,4,NA
fcp-trial,212,997642,0.0-187.0-0.0,voc_e2,12079,"[{""event"":""fullscreenenter"",""trial"":1,""time"":2130}]",NA,NA,NA,NA,NA,5,#D89F1C,#3386FF,10,10,1,40,0,2474.800000011921,37,1,363.90000000596046,10,1,experiment,NA,NA,2,0.5,0.5,4,5,178,4,NA
fcp-trial,213,1002028,0.0-188.0-0.0,voc_e2,12079,"[{""event"":""fullscreenenter"",""trial"":1,""time"":2130}]",NA,NA,NA,NA,NA,5,#FA92F8,#1CD855,0,10,0,40,0,2040.800000011921,39,0,835.8000000119209,10,1,experiment,NA,NA,1,0.3,0.7,3,2,179,4,NA
fcp-trial,214,1005820,0.0-189.0-0.0,voc_e2,12079,"[{""event"":""fullscreenenter"",""trial"":1,""time"":2130}]",NA,NA,NA,NA,NA,6,#741CD8,#D8271C,0,10,0,40,0,1752.699999988079,37,1,531.0999999940395,0,0,experiment,NA,NA,0,0.1,0.9,1,0,180,4,NA
fcp-trial,215,1012861,0.0-190.0-0.0,voc_e2,12079,"[{""event"":""fullscreenenter"",""trial"":1,""time"":2130}]",NA,NA,NA,NA,NA,4,#FA92F8,#1CD855,0,10,0,40,0,4962.199999988079,37,1,572.4000000059605,0,0,experiment,NA,NA,1,0.3,0.7,3,2,181,5,NA
fcp-trial,216,1016470,0.0-191.0-0.0,voc_e2,12079,"[{""event"":""fullscreenenter"",""trial"":1,""time"":2130}]",NA,NA,NA,NA,NA,1,#3386FF,#D89F1C,0,10,0,38,1,1653.7999999821186,39,0,446.40000000596046,10,1,experiment,NA,NA,2,0.5,0.5,5,4,182,5,NA
fcp-trial,217,1020017,0.0-192.0-0.0,voc_e2,12079,"[{""event"":""fullscreenenter"",""trial"":1,""time"":2130}]",NA,NA,NA,NA,NA,4,#3386FF,#D89F1C,10,10,0,40,0,1511.0999999940395,37,1,530,10,0,experiment,NA,NA,2,0.5,0.5,5,4,183,5,NA
fcp-trial,218,1026991,0.0-193.0-0.0,voc_e2,12079,"[{""event"":""fullscreenenter"",""trial"":1,""time"":2130}]",NA,NA,NA,NA,NA,0,#741CD8,#D8271C,0,10,0,38,1,1045.5999999940395,39,0,4421.5,10,1,experiment,NA,NA,0,0.1,0.9,1,0,184,5,NA
fcp-trial,219,1030276,0.0-194.0-0.0,voc_e2,12079,"[{""event"":""fullscreenenter"",""trial"":1,""time"":2130}]",NA,NA,NA,NA,NA,0,#3386FF,#D89F1C,10,0,0,38,1,1478.3999999761581,39,0,298.59999999403954,0,1,experiment,NA,NA,2,0.5,0.5,5,4,185,5,NA
fcp-trial,220,1034821,0.0-195.0-0.0,voc_e2,12079,"[{""event"":""fullscreenenter"",""trial"":1,""time"":2130}]",NA,NA,NA,NA,NA,1,#FA92F8,#1CD855,0,10,0,38,1,2571.5,39,0,465.5,10,1,experiment,NA,NA,1,0.3,0.7,3,2,186,5,NA
fcp-trial,221,1040039,0.0-196.0-0.0,voc_e2,12079,"[{""event"":""fullscreenenter"",""trial"":1,""time"":2130}]",NA,NA,NA,NA,NA,2,#741CD8,#D8271C,0,10,0,38,1,3225.9000000059605,39,0,486.5,10,1,experiment,NA,NA,0,0.1,0.9,1,0,187,5,NA
fcp-trial,222,1044926,0.0-197.0-0.0,voc_e2,12079,"[{""event"":""fullscreenenter"",""trial"":1,""time"":2130}]",NA,NA,NA,NA,NA,4,#741CD8,#D8271C,0,10,0,40,0,2879.699999988079,37,1,500.40000000596046,0,0,experiment,NA,NA,0,0.1,0.9,1,0,188,5,NA
fcp-trial,223,1049554,0.0-198.0-0.0,voc_e2,12079,"[{""event"":""fullscreenenter"",""trial"":1,""time"":2130}]",NA,NA,NA,NA,NA,6,#FA92F8,#1CD855,0,10,0,40,0,2466.7999999821186,37,1,650.5999999940395,0,0,experiment,NA,NA,1,0.3,0.7,3,2,189,5,NA
fcp-trial,224,1052660,0.0-199.0-0.0,voc_e2,12079,"[{""event"":""fullscreenenter"",""trial"":1,""time"":2130}]",NA,NA,NA,NA,NA,5,#D89F1C,#3386FF,10,10,1,40,0,1298.0999999940395,37,1,301.80000001192093,10,1,experiment,NA,NA,2,0.5,0.5,4,5,190,5,NA
fcp-trial,225,1057490,0.0-200.0-0.0,voc_e2,12079,"[{""event"":""fullscreenenter"",""trial"":1,""time"":2130}]",NA,NA,NA,NA,NA,0,#FA92F8,#1CD855,10,10,0,38,1,2955.0999999940395,39,0,366.80000001192093,10,1,experiment,NA,NA,1,0.3,0.7,3,2,191,5,NA
fcp-trial,226,1062448,0.0-201.0-0.0,voc_e2,12079,"[{""event"":""fullscreenenter"",""trial"":1,""time"":2130}]",NA,NA,NA,NA,NA,3,#3386FF,#D89F1C,0,10,0,38,1,3130.100000023842,39,0,321.5,10,1,experiment,NA,NA,2,0.5,0.5,5,4,192,5,NA
fcp-trial,227,1065600,0.0-202.0-0.0,voc_e2,12079,"[{""event"":""fullscreenenter"",""trial"":1,""time"":2130}]",NA,NA,NA,NA,NA,5,#D8271C,#741CD8,10,0,1,40,0,1321.199999988079,37,1,323.09999999403954,10,1,experiment,NA,NA,0,0.9,0.1,0,1,193,5,NA
fcp-trial,228,1068402,0.0-203.0-0.0,voc_e2,12079,"[{""event"":""fullscreenenter"",""trial"":1,""time"":2130}]",NA,NA,NA,NA,NA,1,#3386FF,#D89F1C,10,10,0,38,1,885,39,0,409.2000000178814,10,1,experiment,NA,NA,2,0.5,0.5,5,4,194,5,NA
fcp-trial,229,1071838,0.0-204.0-0.0,voc_e2,12079,"[{""event"":""fullscreenenter"",""trial"":1,""time"":2130}]",NA,NA,NA,NA,NA,1,#D8271C,#741CD8,10,0,1,38,1,1012.8000000119209,37,1,913.8000000119209,10,1,experiment,NA,NA,0,0.9,0.1,0,1,195,5,NA
fcp-trial,230,1074592,0.0-205.0-0.0,voc_e2,12079,"[{""event"":""fullscreenenter"",""trial"":1,""time"":2130}]",NA,NA,NA,NA,NA,4,#1CD855,#FA92F8,10,0,1,40,0,826.4000000059605,39,0,420.59999999403954,0,0,experiment,NA,NA,1,0.7,0.3,2,3,196,5,NA
fcp-trial,231,1077156,0.0-206.0-0.0,voc_e2,12079,"[{""event"":""fullscreenenter"",""trial"":1,""time"":2130}]",NA,NA,NA,NA,NA,4,#D8271C,#741CD8,0,0,1,40,0,757.7000000178814,37,1,298.69999998807907,0,1,experiment,NA,NA,0,0.9,0.1,0,1,197,5,NA
fcp-trial,232,1080028,0.0-207.0-0.0,voc_e2,12079,"[{""event"":""fullscreenenter"",""trial"":1,""time"":2130}]",NA,NA,NA,NA,NA,6,#D89F1C,#3386FF,0,0,1,40,0,731.7000000178814,39,0,636,0,0,experiment,NA,NA,2,0.5,0.5,4,5,198,5,NA
fcp-trial,233,1082563,0.0-208.0-0.0,voc_e2,12079,"[{""event"":""fullscreenenter"",""trial"":1,""time"":2130}]",NA,NA,NA,NA,NA,5,#FA92F8,#1CD855,0,10,0,40,0,603.2000000178814,39,0,426.19999998807907,10,1,experiment,NA,NA,1,0.3,0.7,3,2,199,5,NA
fcp-trial,234,1085256,0.0-209.0-0.0,voc_e2,12079,"[{""event"":""fullscreenenter"",""trial"":1,""time"":2130}]",NA,NA,NA,NA,NA,2,#FA92F8,#1CD855,0,10,0,38,1,800.5,39,0,382.40000000596046,10,1,experiment,NA,NA,1,0.3,0.7,3,2,200,5,NA
fcp-trial,235,1087929,0.0-210.0-0.0,voc_e2,12079,"[{""event"":""fullscreenenter"",""trial"":1,""time"":2130}]",NA,NA,NA,NA,NA,2,#741CD8,#D8271C,0,10,0,38,1,812.7999999821186,39,0,352,10,1,experiment,NA,NA,0,0.1,0.9,1,0,201,5,NA
fcp-trial,236,1091042,0.0-211.0-0.0,voc_e2,12079,"[{""event"":""fullscreenenter"",""trial"":1,""time"":2130}]",NA,NA,NA,NA,NA,0,#3386FF,#D89F1C,0,0,0,38,1,1112.5,39,0,495.2000000178814,0,1,experiment,NA,NA,2,0.5,0.5,5,4,202,5,NA
fcp-trial,237,1093731,0.0-212.0-0.0,voc_e2,12079,"[{""event"":""fullscreenenter"",""trial"":1,""time"":2130}]",NA,NA,NA,NA,NA,6,#1CD855,#FA92F8,10,0,1,40,0,809.0999999940395,37,1,373.7000000178814,10,1,experiment,NA,NA,1,0.7,0.3,2,3,203,5,NA
fcp-trial,238,1096258,0.0-213.0-0.0,voc_e2,12079,"[{""event"":""fullscreenenter"",""trial"":1,""time"":2130}]",NA,NA,NA,NA,NA,0,#741CD8,#D8271C,0,10,0,38,1,636.8000000119209,39,0,383.09999999403954,10,1,experiment,NA,NA,0,0.1,0.9,1,0,204,5,NA
fcp-trial,239,1099941,0.0-214.0-0.0,voc_e2,12079,"[{""event"":""fullscreenenter"",""trial"":1,""time"":2130}]",NA,NA,NA,NA,NA,3,#1CD855,#FA92F8,10,0,1,38,1,1677.2000000178814,37,1,497.7999999821186,10,1,experiment,NA,NA,1,0.7,0.3,2,3,205,5,NA
fcp-trial,240,1102596,0.0-215.0-0.0,voc_e2,12079,"[{""event"":""fullscreenenter"",""trial"":1,""time"":2130}]",NA,NA,NA,NA,NA,2,#D89F1C,#3386FF,10,10,1,38,1,707,37,1,441.59999999403954,10,1,experiment,NA,NA,2,0.5,0.5,4,5,206,5,NA
fcp-trial,241,1105407,0.0-216.0-0.0,voc_e2,12079,"[{""event"":""fullscreenenter"",""trial"":1,""time"":2130}]",NA,NA,NA,NA,NA,4,#3386FF,#D89F1C,0,10,0,40,0,819.5,37,1,482.5,0,0,experiment,NA,NA,2,0.5,0.5,5,4,207,5,NA
fcp-trial,242,1108184,0.0-217.0-0.0,voc_e2,12079,"[{""event"":""fullscreenenter"",""trial"":1,""time"":2130}]",NA,NA,NA,NA,NA,6,#741CD8,#D8271C,0,10,0,40,0,885,37,1,385.7000000178814,0,0,experiment,NA,NA,0,0.1,0.9,1,0,208,5,NA
fcp-trial,243,1110708,0.0-218.0-0.0,voc_e2,12079,"[{""event"":""fullscreenenter"",""trial"":1,""time"":2130}]",NA,NA,NA,NA,NA,1,#1CD855,#FA92F8,10,0,1,38,1,533.1999999880791,37,1,482.5,10,1,experiment,NA,NA,1,0.7,0.3,2,3,209,5,NA
fcp-trial,244,1113823,0.0-219.0-0.0,voc_e2,12079,"[{""event"":""fullscreenenter"",""trial"":1,""time"":2130}]",NA,NA,NA,NA,NA,3,#D8271C,#741CD8,10,0,1,38,1,1011.5999999940395,37,1,597.8999999761581,10,1,experiment,NA,NA,0,0.9,0.1,0,1,210,5,NA
audio-instructions,245,1148566,0.0-220.0,voc_e2,12079,"[{""event"":""fullscreenenter"",""trial"":1,""time"":2130}]",NA,30267.90000000596,static/audio/pause.wav,NA,0,NA,NA,NA,NA,NA,NA,NA,NA,NA,NA,NA,NA,NA,NA,NA,NA,NA,NA,NA,NA,NA,NA,NA,NA,NA
fcp-trial,246,1151758,0.0-221.0-0.0,voc_e2,12079,"[{""event"":""fullscreenenter"",""trial"":1,""time"":2130}]",NA,NA,NA,NA,NA,3,#3386FF,#D89F1C,0,0,0,38,1,1403,39,0,278.09999999403954,0,1,experiment,NA,NA,2,0.5,0.5,5,4,211,5,NA
fcp-trial,247,1154354,0.0-222.0-0.0,voc_e2,12079,"[{""event"":""fullscreenenter"",""trial"":1,""time"":2130}]",NA,NA,NA,NA,NA,6,#741CD8,#D8271C,0,0,0,40,0,630,39,0,456.09999999403954,0,1,experiment,NA,NA,0,0.1,0.9,1,0,212,5,NA
fcp-trial,248,1156987,0.0-223.0-0.0,voc_e2,12079,"[{""event"":""fullscreenenter"",""trial"":1,""time"":2130}]",NA,NA,NA,NA,NA,1,#741CD8,#D8271C,0,10,0,38,1,776.4000000059605,39,0,347.40000000596046,10,1,experiment,NA,NA,0,0.1,0.9,1,0,213,5,NA
fcp-trial,249,1160451,0.0-224.0-0.0,voc_e2,12079,"[{""event"":""fullscreenenter"",""trial"":1,""time"":2130}]",NA,NA,NA,NA,NA,0,#1CD855,#FA92F8,0,10,1,38,1,1354,37,1,601.2999999821186,0,1,experiment,NA,NA,1,0.7,0.3,2,3,214,5,NA
fcp-trial,250,1163219,0.0-225.0-0.0,voc_e2,12079,"[{""event"":""fullscreenenter"",""trial"":1,""time"":2130}]",NA,NA,NA,NA,NA,5,#D89F1C,#3386FF,10,10,1,40,0,884.6999999880791,37,1,373.40000000596046,10,1,experiment,NA,NA,2,0.5,0.5,4,5,215,5,NA
fcp-trial,251,1166045,0.0-226.0-0.0,voc_e2,12079,"[{""event"":""fullscreenenter"",""trial"":1,""time"":2130}]",NA,NA,NA,NA,NA,4,#FA92F8,#1CD855,10,0,0,40,0,924.4000000059605,39,0,391.2000000178814,0,1,experiment,NA,NA,1,0.3,0.7,3,2,216,5,NA
fcp-trial,252,1168492,0.0-227.0-0.0,voc_e2,12079,"[{""event"":""fullscreenenter"",""trial"":1,""time"":2130}]",NA,NA,NA,NA,NA,1,#1CD855,#FA92F8,10,0,1,38,1,626.1999999880791,37,1,315.2999999821186,10,1,experiment,NA,NA,1,0.7,0.3,2,3,217,5,NA
fcp-trial,253,1171275,0.0-228.0-0.0,voc_e2,12079,"[{""event"":""fullscreenenter"",""trial"":1,""time"":2130}]",NA,NA,NA,NA,NA,0,#741CD8,#D8271C,0,10,0,38,1,975.1999999880791,39,0,301,10,1,experiment,NA,NA,0,0.1,0.9,1,0,218,5,NA
fcp-trial,254,1174052,0.0-229.0-0.0,voc_e2,12079,"[{""event"":""fullscreenenter"",""trial"":1,""time"":2130}]",NA,NA,NA,NA,NA,4,#D89F1C,#3386FF,0,10,1,40,0,886.5999999940395,37,1,383,0,1,experiment,NA,NA,2,0.5,0.5,4,5,219,5,NA
fcp-trial,255,1178719,0.0-230.0-0.0,voc_e2,12079,"[{""event"":""fullscreenenter"",""trial"":1,""time"":2130}]",NA,NA,NA,NA,NA,0,#3386FF,#D89F1C,10,0,0,38,1,2219.100000023842,39,0,939.4000000059605,0,1,experiment,NA,NA,2,0.5,0.5,5,4,220,5,NA
fcp-trial,256,1183600,0.0-231.0-0.0,voc_e2,12079,"[{""event"":""fullscreenenter"",""trial"":1,""time"":2130}]",NA,NA,NA,NA,NA,5,#1CD855,#FA92F8,10,0,1,40,0,2923.5,39,0,448.5,0,0,experiment,NA,NA,1,0.7,0.3,2,3,221,5,NA
fcp-trial,257,1186678,0.0-232.0-0.0,voc_e2,12079,"[{""event"":""fullscreenenter"",""trial"":1,""time"":2130}]",NA,NA,NA,NA,NA,6,#D89F1C,#3386FF,10,0,1,40,0,997.1999999880791,39,0,571.0999999940395,0,0,experiment,NA,NA,2,0.5,0.5,4,5,222,5,NA
fcp-trial,258,1190673,0.0-233.0-0.0,voc_e2,12079,"[{""event"":""fullscreenenter"",""trial"":1,""time"":2130}]",NA,NA,NA,NA,NA,3,#741CD8,#D8271C,0,10,0,38,1,2013.300000011921,39,0,475,10,1,experiment,NA,NA,0,0.1,0.9,1,0,223,5,NA
fcp-trial,259,1193277,0.0-234.0-0.0,voc_e2,12079,"[{""event"":""fullscreenenter"",""trial"":1,""time"":2130}]",NA,NA,NA,NA,NA,3,#1CD855,#FA92F8,0,10,1,40,0,713.9000000059605,37,1,380,0,1,experiment,NA,NA,1,0.7,0.3,2,3,224,5,NA
fcp-trial,260,1195985,0.0-235.0-0.0,voc_e2,12079,"[{""event"":""fullscreenenter"",""trial"":1,""time"":2130}]",NA,NA,NA,NA,NA,4,#D8271C,#741CD8,10,0,1,40,0,780.5999999940395,39,0,420.5,0,0,experiment,NA,NA,0,0.9,0.1,0,1,225,5,NA
fcp-trial,261,1199558,0.0-236.0-0.0,voc_e2,12079,"[{""event"":""fullscreenenter"",""trial"":1,""time"":2130}]",NA,NA,NA,NA,NA,1,#3386FF,#D89F1C,10,0,0,38,1,1717.699999988079,39,0,347.7000000178814,0,1,experiment,NA,NA,2,0.5,0.5,5,4,226,6,NA
fcp-trial,262,1203210,0.0-237.0-0.0,voc_e2,12079,"[{""event"":""fullscreenenter"",""trial"":1,""time"":2130}]",NA,NA,NA,NA,NA,2,#1CD855,#FA92F8,10,10,1,38,1,1413.199999988079,37,1,732.9000000059605,10,1,experiment,NA,NA,1,0.7,0.3,2,3,227,6,NA
fcp-trial,263,1206613,0.0-238.0-0.0,voc_e2,12079,"[{""event"":""fullscreenenter"",""trial"":1,""time"":2130}]",NA,NA,NA,NA,NA,2,#D8271C,#741CD8,10,0,1,38,1,1181.5999999940395,37,1,714.5,10,1,experiment,NA,NA,0,0.9,0.1,0,1,228,6,NA
fcp-trial,264,1209395,0.0-239.0-0.0,voc_e2,12079,"[{""event"":""fullscreenenter"",""trial"":1,""time"":2130}]",NA,NA,NA,NA,NA,6,#1CD855,#FA92F8,10,10,1,40,0,825.5,37,1,450.40000000596046,10,1,experiment,NA,NA,1,0.7,0.3,2,3,229,6,NA
fcp-trial,265,1212219,0.0-240.0-0.0,voc_e2,12079,"[{""event"":""fullscreenenter"",""trial"":1,""time"":2130}]",NA,NA,NA,NA,NA,2,#D89F1C,#3386FF,10,0,1,38,1,959.7000000178814,37,1,357.10000002384186,10,1,experiment,NA,NA,2,0.5,0.5,4,5,230,6,NA
fcp-trial,266,1215055,0.0-241.0-0.0,voc_e2,12079,"[{""event"":""fullscreenenter"",""trial"":1,""time"":2130}]",NA,NA,NA,NA,NA,5,#D8271C,#741CD8,10,0,1,40,0,850,39,0,476.60000002384186,0,0,experiment,NA,NA,0,0.9,0.1,0,1,231,6,NA
fcp-trial,267,1217762,0.0-242.0-0.0,voc_e2,12079,"[{""event"":""fullscreenenter"",""trial"":1,""time"":2130}]",NA,NA,NA,NA,NA,4,#FA92F8,#1CD855,0,10,0,40,0,753.5,39,0,446,10,1,experiment,NA,NA,1,0.3,0.7,3,2,232,6,NA
fcp-trial,268,1220553,0.0-243.0-0.0,voc_e2,12079,"[{""event"":""fullscreenenter"",""trial"":1,""time"":2130}]",NA,NA,NA,NA,NA,4,#741CD8,#D8271C,0,0,0,40,0,846.6999999880791,37,1,436.09999999403954,0,0,experiment,NA,NA,0,0.1,0.9,1,0,233,6,NA
fcp-trial,269,1224522,0.0-244.0-0.0,voc_e2,12079,"[{""event"":""fullscreenenter"",""trial"":1,""time"":2130}]",NA,NA,NA,NA,NA,3,#1CD855,#FA92F8,10,0,1,38,1,2100.0999999940395,37,1,359.39999997615814,10,1,experiment,NA,NA,1,0.7,0.3,2,3,234,6,NA
fcp-trial,270,1228600,0.0-245.0-0.0,voc_e2,12079,"[{""event"":""fullscreenenter"",""trial"":1,""time"":2130}]",NA,NA,NA,NA,NA,0,#D8271C,#741CD8,10,0,1,38,1,1987.2000000178814,37,1,581.4000000059605,10,1,experiment,NA,NA,0,0.9,0.1,0,1,235,6,NA
fcp-trial,271,1231316,0.0-246.0-0.0,voc_e2,12079,"[{""event"":""fullscreenenter"",""trial"":1,""time"":2130}]",NA,NA,NA,NA,NA,6,#D8271C,#741CD8,0,0,1,40,0,761.0999999940395,39,0,445.69999998807907,0,0,experiment,NA,NA,0,0.9,0.1,0,1,236,6,NA
fcp-trial,272,1235361,0.0-247.0-0.0,voc_e2,12079,"[{""event"":""fullscreenenter"",""trial"":1,""time"":2130}]",NA,NA,NA,NA,NA,2,#D89F1C,#3386FF,0,0,1,38,1,2153.100000023842,37,1,384.19999998807907,0,1,experiment,NA,NA,2,0.5,0.5,4,5,237,6,NA
fcp-trial,273,1238627,0.0-248.0-0.0,voc_e2,12079,"[{""event"":""fullscreenenter"",""trial"":1,""time"":2130}]",NA,NA,NA,NA,NA,0,#FA92F8,#1CD855,0,0,0,38,1,1384.4000000059605,39,0,374.2000000178814,0,1,experiment,NA,NA,1,0.3,0.7,3,2,238,6,NA
fcp-trial,274,1242646,0.0-249.0-0.0,voc_e2,12079,"[{""event"":""fullscreenenter"",""trial"":1,""time"":2130}]",NA,NA,NA,NA,NA,3,#741CD8,#D8271C,0,10,0,40,0,2094.5,37,1,416.7000000178814,0,0,experiment,NA,NA,0,0.1,0.9,1,0,239,6,NA
fcp-trial,275,1246347,0.0-250.0-0.0,voc_e2,12079,"[{""event"":""fullscreenenter"",""trial"":1,""time"":2130}]",NA,NA,NA,NA,NA,2,#1CD855,#FA92F8,10,0,1,38,1,1775.5999999940395,37,1,419.5,10,1,experiment,NA,NA,1,0.7,0.3,2,3,240,6,NA
fcp-trial,276,1249345,0.0-251.0-0.0,voc_e2,12079,"[{""event"":""fullscreenenter"",""trial"":1,""time"":2130}]",NA,NA,NA,NA,NA,3,#D89F1C,#3386FF,10,0,1,40,0,1143.4000000059605,37,1,346.69999998807907,10,1,experiment,NA,NA,2,0.5,0.5,4,5,241,6,NA
fcp-trial,277,1251962,0.0-252.0-0.0,voc_e2,12079,"[{""event"":""fullscreenenter"",""trial"":1,""time"":2130}]",NA,NA,NA,NA,NA,5,#741CD8,#D8271C,0,10,0,40,0,747,39,0,362.80000001192093,10,1,experiment,NA,NA,0,0.1,0.9,1,0,242,6,NA
fcp-trial,278,1254600,0.0-253.0-0.0,voc_e2,12079,"[{""event"":""fullscreenenter"",""trial"":1,""time"":2130}]",NA,NA,NA,NA,NA,6,#3386FF,#D89F1C,0,0,0,40,0,645.0999999940395,39,0,485.7999999821186,0,1,experiment,NA,NA,2,0.5,0.5,5,4,243,6,NA
fcp-trial,279,1257007,0.0-254.0-0.0,voc_e2,12079,"[{""event"":""fullscreenenter"",""trial"":1,""time"":2130}]",NA,NA,NA,NA,NA,6,#1CD855,#FA92F8,10,0,1,40,0,584.2999999821186,37,1,317.5,10,1,experiment,NA,NA,1,0.7,0.3,2,3,244,6,NA
fcp-trial,280,1260095,0.0-255.0-0.0,voc_e2,12079,"[{""event"":""fullscreenenter"",""trial"":1,""time"":2130}]",NA,NA,NA,NA,NA,2,#D8271C,#741CD8,10,0,1,38,1,899.6999999880791,37,1,680.0999999940395,10,1,experiment,NA,NA,0,0.9,0.1,0,1,245,6,NA
fcp-trial,281,1269920,0.0-256.0-0.0,voc_e2,12079,"[{""event"":""fullscreenenter"",""trial"":1,""time"":2130}]",NA,NA,NA,NA,NA,5,#3386FF,#D89F1C,10,0,0,40,0,7648.100000023842,37,1,670.0999999940395,10,0,experiment,NA,NA,2,0.5,0.5,5,4,246,6,NA
fcp-trial,282,1274646,0.0-257.0-0.0,voc_e2,12079,"[{""event"":""fullscreenenter"",""trial"":1,""time"":2130}]",NA,NA,NA,NA,NA,1,#FA92F8,#1CD855,0,10,0,38,1,2001.7000000178814,39,0,1216.2999999821186,10,1,experiment,NA,NA,1,0.3,0.7,3,2,247,6,NA
fcp-trial,283,1281691,0.0-258.0-0.0,voc_e2,12079,"[{""event"":""fullscreenenter"",""trial"":1,""time"":2130}]",NA,NA,NA,NA,NA,0,#D89F1C,#3386FF,10,10,1,38,1,4646.0999999940395,37,1,892.5,10,1,experiment,NA,NA,2,0.5,0.5,4,5,248,6,NA
fcp-trial,284,1284432,0.0-259.0-0.0,voc_e2,12079,"[{""event"":""fullscreenenter"",""trial"":1,""time"":2130}]",NA,NA,NA,NA,NA,1,#3386FF,#D89F1C,10,10,0,38,1,924.9000000059605,39,0,309.09999999403954,10,1,experiment,NA,NA,2,0.5,0.5,5,4,249,6,NA
fcp-trial,285,1286879,0.0-260.0-0.0,voc_e2,12079,"[{""event"":""fullscreenenter"",""trial"":1,""time"":2130}]",NA,NA,NA,NA,NA,1,#D8271C,#741CD8,10,0,1,38,1,607,37,1,334.7999999821186,10,1,experiment,NA,NA,0,0.9,0.1,0,1,250,6,NA
fcp-trial,286,1289555,0.0-261.0-0.0,voc_e2,12079,"[{""event"":""fullscreenenter"",""trial"":1,""time"":2130}]",NA,NA,NA,NA,NA,4,#D89F1C,#3386FF,0,0,1,40,0,779.5999999940395,39,0,389.2999999821186,0,0,experiment,NA,NA,2,0.5,0.5,4,5,251,6,NA
fcp-trial,287,1292299,0.0-262.0-0.0,voc_e2,12079,"[{""event"":""fullscreenenter"",""trial"":1,""time"":2130}]",NA,NA,NA,NA,NA,5,#1CD855,#FA92F8,10,0,1,40,0,755.4000000059605,37,1,481.5,10,1,experiment,NA,NA,1,0.7,0.3,2,3,252,6,NA
fcp-trial,288,1297561,0.0-263.0-0.0,voc_e2,12079,"[{""event"":""fullscreenenter"",""trial"":1,""time"":2130}]",NA,NA,NA,NA,NA,0,#FA92F8,#1CD855,0,10,0,38,1,2924.4000000059605,39,0,832.1000000238419,10,1,experiment,NA,NA,1,0.3,0.7,3,2,253,6,NA
fcp-trial,289,1306196,0.0-264.0-0.0,voc_e2,12079,"[{""event"":""fullscreenenter"",""trial"":1,""time"":2130}]",NA,NA,NA,NA,NA,2,#D89F1C,#3386FF,0,0,1,38,1,6654.5999999940395,37,1,473.30000001192093,0,1,experiment,NA,NA,2,0.5,0.5,4,5,254,6,NA
fcp-trial,290,1314497,0.0-265.0-0.0,voc_e2,12079,"[{""event"":""fullscreenenter"",""trial"":1,""time"":2130}]",NA,NA,NA,NA,NA,2,#1CD855,#FA92F8,0,10,1,38,1,5783.9000000059605,37,1,1010.7000000178814,0,1,experiment,NA,NA,1,0.7,0.3,2,3,255,6,NA
fcp-trial,291,1320685,0.0-266.0-0.0,voc_e2,12079,"[{""event"":""fullscreenenter"",""trial"":1,""time"":2130}]",NA,NA,NA,NA,NA,1,#FA92F8,#1CD855,0,10,0,38,1,3671,39,0,1010.5,10,1,experiment,NA,NA,1,0.3,0.7,3,2,256,6,NA
fcp-trial,292,1326531,0.0-267.0-0.0,voc_e2,12079,"[{""event"":""fullscreenenter"",""trial"":1,""time"":2130}]",NA,NA,NA,NA,NA,6,#D8271C,#741CD8,10,0,1,40,0,3925.699999988079,37,1,413,10,1,experiment,NA,NA,0,0.9,0.1,0,1,257,6,NA
fcp-trial,293,1329489,0.0-268.0-0.0,voc_e2,12079,"[{""event"":""fullscreenenter"",""trial"":1,""time"":2130}]",NA,NA,NA,NA,NA,3,#D89F1C,#3386FF,0,0,1,40,0,1161.1000000238419,37,1,290.19999998807907,0,1,experiment,NA,NA,2,0.5,0.5,4,5,258,6,NA
fcp-trial,294,1332081,0.0-269.0-0.0,voc_e2,12079,"[{""event"":""fullscreenenter"",""trial"":1,""time"":2130}]",NA,NA,NA,NA,NA,6,#3386FF,#D89F1C,0,10,0,40,0,770.3000000119209,39,0,312.90000000596046,10,1,experiment,NA,NA,2,0.5,0.5,5,4,259,6,NA
fcp-trial,295,1335582,0.0-270.0-0.0,voc_e2,12079,"[{""event"":""fullscreenenter"",""trial"":1,""time"":2130}]",NA,NA,NA,NA,NA,4,#FA92F8,#1CD855,10,10,0,40,0,1633.0999999940395,37,1,361.40000000596046,10,0,experiment,NA,NA,1,0.3,0.7,3,2,260,6,NA
fcp-trial,296,1338319,0.0-271.0-0.0,voc_e2,12079,"[{""event"":""fullscreenenter"",""trial"":1,""time"":2130}]",NA,NA,NA,NA,NA,4,#D89F1C,#3386FF,0,10,1,40,0,773.2999999821186,39,0,457.30000001192093,10,0,experiment,NA,NA,2,0.5,0.5,4,5,261,6,NA
fcp-trial,297,1342369,0.0-272.0-0.0,voc_e2,12079,"[{""event"":""fullscreenenter"",""trial"":1,""time"":2130}]",NA,NA,NA,NA,NA,3,#741CD8,#D8271C,0,10,0,40,0,2083.5999999940395,39,0,460.19999998807907,10,1,experiment,NA,NA,0,0.1,0.9,1,0,262,6,NA
fcp-trial,298,1348394,0.0-273.0-0.0,voc_e2,12079,"[{""event"":""fullscreenenter"",""trial"":1,""time"":2130}]",NA,NA,NA,NA,NA,1,#3386FF,#D89F1C,0,0,0,38,1,3977,39,0,538.1999999880791,0,1,experiment,NA,NA,2,0.5,0.5,5,4,263,6,NA
fcp-trial,299,1355017,0.0-274.0-0.0,voc_e2,12079,"[{""event"":""fullscreenenter"",""trial"":1,""time"":2130}]",NA,NA,NA,NA,NA,3,#1CD855,#FA92F8,10,0,1,40,0,4676.9000000059605,39,0,437.59999999403954,0,0,experiment,NA,NA,1,0.7,0.3,2,3,264,6,NA
fcp-trial,300,1358898,0.0-275.0-0.0,voc_e2,12079,"[{""event"":""fullscreenenter"",""trial"":1,""time"":2130}]",NA,NA,NA,NA,NA,5,#D89F1C,#3386FF,0,10,1,40,0,1958.0999999940395,39,0,416.40000000596046,10,0,experiment,NA,NA,2,0.5,0.5,4,5,265,6,NA
fcp-trial,301,1362247,0.0-276.0-0.0,voc_e2,12079,"[{""event"":""fullscreenenter"",""trial"":1,""time"":2130}]",NA,NA,NA,NA,NA,4,#741CD8,#D8271C,0,0,0,40,0,1376.300000011921,37,1,462.5,0,0,experiment,NA,NA,0,0.1,0.9,1,0,266,6,NA
fcp-trial,302,1364712,0.0-277.0-0.0,voc_e2,12079,"[{""event"":""fullscreenenter"",""trial"":1,""time"":2130}]",NA,NA,NA,NA,NA,0,#741CD8,#D8271C,0,10,0,38,1,641.5999999940395,39,0,316.19999998807907,10,1,experiment,NA,NA,0,0.1,0.9,1,0,267,6,NA
fcp-trial,303,1367213,0.0-278.0-0.0,voc_e2,12079,"[{""event"":""fullscreenenter"",""trial"":1,""time"":2130}]",NA,NA,NA,NA,NA,6,#FA92F8,#1CD855,10,10,0,40,0,598.0999999940395,37,1,395.59999999403954,10,0,experiment,NA,NA,1,0.3,0.7,3,2,268,6,NA
fcp-trial,304,1371357,0.0-279.0-0.0,voc_e2,12079,"[{""event"":""fullscreenenter"",""trial"":1,""time"":2130}]",NA,NA,NA,NA,NA,1,#D8271C,#741CD8,10,10,1,38,1,1806.7000000178814,39,0,828,10,0,experiment,NA,NA,0,0.9,0.1,0,1,269,6,NA
fcp-trial,305,1374280,0.0-280.0-0.0,voc_e2,12079,"[{""event"":""fullscreenenter"",""trial"":1,""time"":2130}]",NA,NA,NA,NA,NA,0,#D89F1C,#3386FF,0,10,1,38,1,1022.2000000178814,37,1,391.59999999403954,0,1,experiment,NA,NA,2,0.5,0.5,4,5,270,6,NA
fcp-trial,306,1376995,0.0-281.0-0.0,voc_e2,12079,"[{""event"":""fullscreenenter"",""trial"":1,""time"":2130}]",NA,NA,NA,NA,NA,5,#FA92F8,#1CD855,10,0,0,40,0,848.9000000059605,39,0,360,0,1,experiment,NA,NA,1,0.3,0.7,3,2,271,7,NA
fcp-trial,307,1379633,0.0-282.0-0.0,voc_e2,12079,"[{""event"":""fullscreenenter"",""trial"":1,""time"":2130}]",NA,NA,NA,NA,NA,5,#D8271C,#741CD8,10,10,1,40,0,735.4000000059605,39,0,393.40000000596046,10,0,experiment,NA,NA,0,0.9,0.1,0,1,272,7,NA
fcp-trial,308,1383066,0.0-283.0-0.0,voc_e2,12079,"[{""event"":""fullscreenenter"",""trial"":1,""time"":2130}]",NA,NA,NA,NA,NA,2,#741CD8,#D8271C,0,10,0,38,1,1476.4000000059605,39,0,450,10,1,experiment,NA,NA,0,0.1,0.9,1,0,273,7,NA
fcp-trial,309,1388414,0.0-284.0-0.0,voc_e2,12079,"[{""event"":""fullscreenenter"",""trial"":1,""time"":2130}]",NA,NA,NA,NA,NA,2,#D89F1C,#3386FF,0,0,1,38,1,3360.7000000178814,37,1,481.40000000596046,0,1,experiment,NA,NA,2,0.5,0.5,4,5,274,7,NA
fcp-trial,310,1394221,0.0-285.0-0.0,voc_e2,12079,"[{""event"":""fullscreenenter"",""trial"":1,""time"":2130}]",NA,NA,NA,NA,NA,0,#741CD8,#D8271C,10,10,0,38,1,3578.800000011921,39,0,720.8000000119209,10,1,experiment,NA,NA,0,0.1,0.9,1,0,275,7,NA
fcp-trial,311,1399900,0.0-286.0-0.0,voc_e2,12079,"[{""event"":""fullscreenenter"",""trial"":1,""time"":2130}]",NA,NA,NA,NA,NA,5,#D89F1C,#3386FF,10,10,1,40,0,3699.2000000178814,37,1,469.89999997615814,10,1,experiment,NA,NA,2,0.5,0.5,4,5,276,7,NA
fcp-trial,312,1403952,0.0-287.0-0.0,voc_e2,12079,"[{""event"":""fullscreenenter"",""trial"":1,""time"":2130}]",NA,NA,NA,NA,NA,2,#FA92F8,#1CD855,0,10,0,38,1,2159.699999988079,39,0,386.09999999403954,10,1,experiment,NA,NA,1,0.3,0.7,3,2,277,7,NA
fcp-trial,313,1407431,0.0-288.0-0.0,voc_e2,12079,"[{""event"":""fullscreenenter"",""trial"":1,""time"":2130}]",NA,NA,NA,NA,NA,3,#D8271C,#741CD8,10,0,1,38,1,1573.2000000178814,37,1,397.7999999821186,10,1,experiment,NA,NA,0,0.9,0.1,0,1,278,7,NA
fcp-trial,314,1410630,0.0-289.0-0.0,voc_e2,12079,"[{""event"":""fullscreenenter"",""trial"":1,""time"":2130}]",NA,NA,NA,NA,NA,1,#3386FF,#D89F1C,10,0,0,38,1,1321.199999988079,39,0,371.5,0,1,experiment,NA,NA,2,0.5,0.5,5,4,279,7,NA
fcp-trial,315,1414049,0.0-290.0-0.0,voc_e2,12079,"[{""event"":""fullscreenenter"",""trial"":1,""time"":2130}]",NA,NA,NA,NA,NA,4,#D89F1C,#3386FF,10,0,1,40,0,1481.199999988079,39,0,433,0,0,experiment,NA,NA,2,0.5,0.5,4,5,280,7,NA
fcp-trial,316,1418616,0.0-291.0-0.0,voc_e2,12079,"[{""event"":""fullscreenenter"",""trial"":1,""time"":2130}]",NA,NA,NA,NA,NA,6,#1CD855,#FA92F8,10,0,1,40,0,2551.4000000059605,39,0,509.59999999403954,0,0,experiment,NA,NA,1,0.7,0.3,2,3,281,7,NA
fcp-trial,317,1427265,0.0-292.0-0.0,voc_e2,12079,"[{""event"":""fullscreenenter"",""trial"":1,""time"":2130}]",NA,NA,NA,NA,NA,0,#3386FF,#D89F1C,0,10,0,38,1,6728.299999982119,39,0,414.09999999403954,10,1,experiment,NA,NA,2,0.5,0.5,5,4,282,7,NA
fcp-trial,318,1432398,0.0-293.0-0.0,voc_e2,12079,"[{""event"":""fullscreenenter"",""trial"":1,""time"":2130}]",NA,NA,NA,NA,NA,2,#D8271C,#741CD8,0,0,1,38,1,3265.2999999821186,37,1,361.7000000178814,0,1,experiment,NA,NA,0,0.9,0.1,0,1,283,7,NA
fcp-trial,319,1435998,0.0-294.0-0.0,voc_e2,12079,"[{""event"":""fullscreenenter"",""trial"":1,""time"":2130}]",NA,NA,NA,NA,NA,5,#1CD855,#FA92F8,10,0,1,40,0,1675.9000000059605,39,0,417.80000001192093,0,0,experiment,NA,NA,1,0.7,0.3,2,3,284,7,NA
fcp-trial,320,1438904,0.0-295.0-0.0,voc_e2,12079,"[{""event"":""fullscreenenter"",""trial"":1,""time"":2130}]",NA,NA,NA,NA,NA,4,#D8271C,#741CD8,10,0,1,40,0,1059.0999999940395,37,1,339.90000000596046,10,1,experiment,NA,NA,0,0.9,0.1,0,1,285,7,NA
fcp-trial,321,1442114,0.0-296.0-0.0,voc_e2,12079,"[{""event"":""fullscreenenter"",""trial"":1,""time"":2130}]",NA,NA,NA,NA,NA,6,#D8271C,#741CD8,10,0,1,40,0,1292.5,37,1,408.59999999403954,10,1,experiment,NA,NA,0,0.9,0.1,0,1,286,7,NA
fcp-trial,322,1444963,0.0-297.0-0.0,voc_e2,12079,"[{""event"":""fullscreenenter"",""trial"":1,""time"":2130}]",NA,NA,NA,NA,NA,6,#D89F1C,#3386FF,0,0,1,40,0,916.4000000059605,39,0,426.7999999821186,0,0,experiment,NA,NA,2,0.5,0.5,4,5,287,7,NA
fcp-trial,323,1447730,0.0-298.0-0.0,voc_e2,12079,"[{""event"":""fullscreenenter"",""trial"":1,""time"":2130}]",NA,NA,NA,NA,NA,4,#1CD855,#FA92F8,0,0,1,40,0,903.3000000119209,37,1,356.69999998807907,0,1,experiment,NA,NA,1,0.7,0.3,2,3,288,7,NA
fcp-trial,324,1450337,0.0-299.0-0.0,voc_e2,12079,"[{""event"":""fullscreenenter"",""trial"":1,""time"":2130}]",NA,NA,NA,NA,NA,1,#FA92F8,#1CD855,10,10,0,38,1,679.5999999940395,39,0,418.69999998807907,10,1,experiment,NA,NA,1,0.3,0.7,3,2,289,7,NA
fcp-trial,325,1453933,0.0-300.0-0.0,voc_e2,12079,"[{""event"":""fullscreenenter"",""trial"":1,""time"":2130}]",NA,NA,NA,NA,NA,3,#1CD855,#FA92F8,0,10,1,38,1,1671.9000000059605,37,1,416.19999998807907,0,1,experiment,NA,NA,1,0.7,0.3,2,3,290,7,NA
fcp-trial,326,1456765,0.0-301.0-0.0,voc_e2,12079,"[{""event"":""fullscreenenter"",""trial"":1,""time"":2130}]",NA,NA,NA,NA,NA,5,#D8271C,#741CD8,10,0,1,40,0,977.7999999821186,39,0,346.19999998807907,0,0,experiment,NA,NA,0,0.9,0.1,0,1,291,7,NA
fcp-trial,327,1459901,0.0-302.0-0.0,voc_e2,12079,"[{""event"":""fullscreenenter"",""trial"":1,""time"":2130}]",NA,NA,NA,NA,NA,3,#D89F1C,#3386FF,10,0,1,38,1,1191.4000000059605,37,1,439,10,1,experiment,NA,NA,2,0.5,0.5,4,5,292,7,NA
fcp-trial,328,1464770,0.0-303.0-0.0,voc_e2,12079,"[{""event"":""fullscreenenter"",""trial"":1,""time"":2130}]",NA,NA,NA,NA,NA,1,#741CD8,#D8271C,10,0,0,38,1,2726,39,0,634.9000000059605,0,1,experiment,NA,NA,0,0.1,0.9,1,0,293,7,NA
fcp-trial,329,1467826,0.0-304.0-0.0,voc_e2,12079,"[{""event"":""fullscreenenter"",""trial"":1,""time"":2130}]",NA,NA,NA,NA,NA,0,#FA92F8,#1CD855,10,10,0,38,1,765.5999999940395,39,0,783.3000000119209,10,1,experiment,NA,NA,1,0.3,0.7,3,2,294,7,NA
fcp-trial,330,1474298,0.0-305.0-0.0,voc_e2,12079,"[{""event"":""fullscreenenter"",""trial"":1,""time"":2130}]",NA,NA,NA,NA,NA,1,#1CD855,#FA92F8,0,10,1,38,1,3890.4000000059605,37,1,1074.699999988079,0,1,experiment,NA,NA,1,0.7,0.3,2,3,295,7,NA
fcp-trial,331,1477276,0.0-306.0-0.0,voc_e2,12079,"[{""event"":""fullscreenenter"",""trial"":1,""time"":2130}]",NA,NA,NA,NA,NA,4,#1CD855,#FA92F8,10,0,1,40,0,1010.1000000238419,37,1,459.40000000596046,10,1,experiment,NA,NA,1,0.7,0.3,2,3,296,7,NA
fcp-trial,332,1480134,0.0-307.0-0.0,voc_e2,12079,"[{""event"":""fullscreenenter"",""trial"":1,""time"":2130}]",NA,NA,NA,NA,NA,3,#741CD8,#D8271C,0,10,0,40,0,938.2999999821186,37,1,412.5,0,0,experiment,NA,NA,0,0.1,0.9,1,0,297,7,NA
fcp-trial,333,1482651,0.0-308.0-0.0,voc_e2,12079,"[{""event"":""fullscreenenter"",""trial"":1,""time"":2130}]",NA,NA,NA,NA,NA,5,#D89F1C,#3386FF,0,0,1,40,0,699.4000000059605,37,1,310.40000000596046,0,1,experiment,NA,NA,2,0.5,0.5,4,5,298,7,NA
fcp-trial,334,1485250,0.0-309.0-0.0,voc_e2,12079,"[{""event"":""fullscreenenter"",""trial"":1,""time"":2130}]",NA,NA,NA,NA,NA,2,#FA92F8,#1CD855,10,0,0,38,1,712.5999999940395,39,0,381.80000001192093,0,1,experiment,NA,NA,1,0.3,0.7,3,2,299,7,NA
fcp-trial,335,1488348,0.0-310.0-0.0,voc_e2,12079,"[{""event"":""fullscreenenter"",""trial"":1,""time"":2130}]",NA,NA,NA,NA,NA,0,#741CD8,#D8271C,0,10,0,38,1,1195.5,39,0,395.5,10,1,experiment,NA,NA,0,0.1,0.9,1,0,300,7,NA
fcp-trial,336,1491140,0.0-311.0-0.0,voc_e2,12079,"[{""event"":""fullscreenenter"",""trial"":1,""time"":2130}]",NA,NA,NA,NA,NA,4,#D89F1C,#3386FF,10,0,1,40,0,711.1000000238419,39,0,571.5,0,0,experiment,NA,NA,2,0.5,0.5,4,5,301,7,NA
fcp-trial,337,1493699,0.0-312.0-0.0,voc_e2,12079,"[{""event"":""fullscreenenter"",""trial"":1,""time"":2130}]",NA,NA,NA,NA,NA,6,#D8271C,#741CD8,10,10,1,40,0,703.9000000059605,37,1,346.30000001192093,10,1,experiment,NA,NA,0,0.9,0.1,0,1,302,7,NA
fcp-trial,338,1496397,0.0-313.0-0.0,voc_e2,12079,"[{""event"":""fullscreenenter"",""trial"":1,""time"":2130}]",NA,NA,NA,NA,NA,5,#741CD8,#D8271C,10,10,0,40,0,711.3999999761581,37,1,480.2000000178814,10,0,experiment,NA,NA,0,0.1,0.9,1,0,303,7,NA
fcp-trial,339,1499001,0.0-314.0-0.0,voc_e2,12079,"[{""event"":""fullscreenenter"",""trial"":1,""time"":2130}]",NA,NA,NA,NA,NA,6,#FA92F8,#1CD855,0,0,0,40,0,664.5999999940395,37,1,432.30000001192093,0,0,experiment,NA,NA,1,0.3,0.7,3,2,304,7,NA
fcp-trial,340,1501584,0.0-315.0-0.0,voc_e2,12079,"[{""event"":""fullscreenenter"",""trial"":1,""time"":2130}]",NA,NA,NA,NA,NA,6,#D89F1C,#3386FF,10,0,1,40,0,600.8000000119209,39,0,477.60000002384186,0,0,experiment,NA,NA,2,0.5,0.5,4,5,305,7,NA
fcp-trial,341,1504149,0.0-316.0-0.0,voc_e2,12079,"[{""event"":""fullscreenenter"",""trial"":1,""time"":2130}]",NA,NA,NA,NA,NA,0,#1CD855,#FA92F8,10,0,1,38,1,685,37,1,373,10,1,experiment,NA,NA,1,0.7,0.3,2,3,306,7,NA
fcp-trial,342,1506837,0.0-317.0-0.0,voc_e2,12079,"[{""event"":""fullscreenenter"",""trial"":1,""time"":2130}]",NA,NA,NA,NA,NA,1,#D8271C,#741CD8,10,0,1,38,1,743.4000000059605,37,1,439.40000000596046,10,1,experiment,NA,NA,0,0.9,0.1,0,1,307,7,NA
fcp-trial,343,1509804,0.0-318.0-0.0,voc_e2,12079,"[{""event"":""fullscreenenter"",""trial"":1,""time"":2130}]",NA,NA,NA,NA,NA,0,#D89F1C,#3386FF,0,10,1,38,1,1081.8999999761581,37,1,378.59999999403954,0,1,experiment,NA,NA,2,0.5,0.5,4,5,308,7,NA
fcp-trial,344,1512411,0.0-319.0-0.0,voc_e2,12079,"[{""event"":""fullscreenenter"",""trial"":1,""time"":2130}]",NA,NA,NA,NA,NA,5,#FA92F8,#1CD855,0,10,0,40,0,682.1999999880791,37,1,420.40000000596046,0,0,experiment,NA,NA,1,0.3,0.7,3,2,309,7,NA
fcp-trial,345,1515106,0.0-320.0-0.0,voc_e2,12079,"[{""event"":""fullscreenenter"",""trial"":1,""time"":2130}]",NA,NA,NA,NA,NA,2,#741CD8,#D8271C,0,10,0,38,1,832.4000000059605,39,0,356.09999999403954,10,1,experiment,NA,NA,0,0.1,0.9,1,0,310,7,NA
fcp-trial,346,1517664,0.0-321.0-0.0,voc_e2,12079,"[{""event"":""fullscreenenter"",""trial"":1,""time"":2130}]",NA,NA,NA,NA,NA,1,#3386FF,#D89F1C,10,10,0,38,1,738.9000000059605,39,0,312.5,10,1,experiment,NA,NA,2,0.5,0.5,5,4,311,7,NA
fcp-trial,347,1521145,0.0-322.0-0.0,voc_e2,12079,"[{""event"":""fullscreenenter"",""trial"":1,""time"":2130}]",NA,NA,NA,NA,NA,3,#1CD855,#FA92F8,10,0,1,40,0,1602.5,39,0,371.80000001192093,0,0,experiment,NA,NA,1,0.7,0.3,2,3,312,7,NA
fcp-trial,348,1524994,0.0-323.0-0.0,voc_e2,12079,"[{""event"":""fullscreenenter"",""trial"":1,""time"":2130}]",NA,NA,NA,NA,NA,3,#3386FF,#D89F1C,0,10,0,38,1,1940,39,0,402.80000001192093,10,1,experiment,NA,NA,2,0.5,0.5,5,4,313,7,NA
fcp-trial,349,1527564,0.0-324.0-0.0,voc_e2,12079,"[{""event"":""fullscreenenter"",""trial"":1,""time"":2130}]",NA,NA,NA,NA,NA,2,#D89F1C,#3386FF,10,10,1,38,1,750.4000000059605,37,1,313.40000000596046,10,1,experiment,NA,NA,2,0.5,0.5,4,5,314,7,NA
fcp-trial,350,1530198,0.0-325.0-0.0,voc_e2,12079,"[{""event"":""fullscreenenter"",""trial"":1,""time"":2130}]",NA,NA,NA,NA,NA,4,#741CD8,#D8271C,0,10,0,40,0,681.2999999821186,37,1,445.7999999821186,0,0,experiment,NA,NA,0,0.1,0.9,1,0,315,7,NA
audio-instructions,351,1546917,0.0-326.0,voc_e2,12079,"[{""event"":""fullscreenenter"",""trial"":1,""time"":2130}]",NA,11056.40000000596,static/audio/finished.wav,NA,0,NA,NA,NA,NA,NA,NA,NA,NA,NA,NA,NA,NA,NA,NA,NA,NA,NA,NA,NA,NA,NA,NA,NA,NA,NA
audio-instructions,352,1558631,0.0-327.0-0.0,voc_e2,12079,"[{""event"":""fullscreenenter"",""trial"":1,""time"":2130}]",NA,877.3000000119209,static/audio/explicit1.wav,NA,0,NA,NA,NA,NA,NA,NA,NA,NA,NA,NA,NA,NA,NA,NA,NA,NA,NA,NA,NA,NA,NA,NA,NA,NA,NA
audio-instructions,353,1566725,0.0-327.0-1.0,voc_e2,12079,"[{""event"":""fullscreenenter"",""trial"":1,""time"":2130}]",NA,501.2000000178814,static/audio/explicit2.wav,NA,0,NA,NA,NA,NA,NA,NA,NA,NA,NA,NA,NA,NA,NA,NA,NA,NA,NA,NA,NA,NA,NA,NA,NA,NA,NA
image-slider-response,354,1573714,0.0-328.0,voc_e2,12079,"[{""event"":""fullscreenenter"",""trial"":1,""time"":2130}]",NA,6986,static/img/machines/machine3.png,NA,NA,NA,NA,NA,NA,NA,NA,NA,NA,NA,NA,NA,NA,NA,NA,explicit,NA,NA,NA,NA,NA,NA,NA,NA,NA,3
image-slider-response,355,1575852,0.0-329.0,voc_e2,12079,"[{""event"":""fullscreenenter"",""trial"":1,""time"":2130}]",NA,2135.0999999940395,static/img/machines/machine5.png,NA,NA,NA,NA,NA,NA,NA,NA,NA,NA,NA,NA,NA,NA,NA,NA,explicit,NA,NA,NA,NA,NA,NA,NA,NA,NA,4
image-slider-response,356,1577765,0.0-330.0,voc_e2,12079,"[{""event"":""fullscreenenter"",""trial"":1,""time"":2130}]",NA,1910.0999999940395,static/img/machines/machine2.png,NA,NA,NA,NA,NA,NA,NA,NA,NA,NA,NA,NA,NA,NA,NA,NA,explicit,NA,NA,NA,NA,NA,NA,NA,NA,NA,4
image-slider-response,357,1579714,0.0-331.0,voc_e2,12079,"[{""event"":""fullscreenenter"",""trial"":1,""time"":2130}]",NA,1947.5,static/img/machines/machine1.png,NA,NA,NA,NA,NA,NA,NA,NA,NA,NA,NA,NA,NA,NA,NA,NA,explicit,NA,NA,NA,NA,NA,NA,NA,NA,NA,6
image-slider-response,358,1581770,0.0-332.0,voc_e2,12079,"[{""event"":""fullscreenenter"",""trial"":1,""time"":2130}]",NA,2052.699999988079,static/img/machines/machine4.png,NA,NA,NA,NA,NA,NA,NA,NA,NA,NA,NA,NA,NA,NA,NA,NA,explicit,NA,NA,NA,NA,NA,NA,NA,NA,NA,7
image-slider-response,359,1584109,0.0-333.0,voc_e2,12079,"[{""event"":""fullscreenenter"",""trial"":1,""time"":2130}]",NA,2337.199999988079,static/img/machines/machine6.png,NA,NA,NA,NA,NA,NA,NA,NA,NA,NA,NA,NA,NA,NA,NA,NA,explicit,NA,NA,NA,NA,NA,NA,NA,NA,NA,6
