trial_type,trial_index,time_elapsed,internal_node_id,task_version,subject_id,interactions,success,rt,stimulus,key_press,button_pressed,offer,arcade_color_L,arcade_color_R,arcade_outcome_L,arcade_outcome_R,correct,stage_1_key,stage_1_choice,stage_1_rt,stage_2_key,stage_2_choice,stage_2_rt,stage_3_outcome,accuracy,phase,responses,num_errors,context,reward_prob_L,reward_prob_R,arcade_id_L,arcade_id_R,trial,block,response
pavlovia,0,7,0.0-0.0,voc_e2,12128,[],NA,NA,NA,NA,NA,NA,NA,NA,NA,NA,NA,NA,NA,NA,NA,NA,NA,NA,NA,NA,NA,NA,NA,NA,NA,NA,NA,NA,NA,NA
fullscreen,1,5513,0.0-1.0,voc_e2,12128,"[{""event"":""fullscreenenter"",""trial"":1,""time"":4509}]",TRUE,NA,NA,NA,NA,NA,NA,NA,NA,NA,NA,NA,NA,NA,NA,NA,NA,NA,NA,NA,NA,NA,NA,NA,NA,NA,NA,NA,NA,NA
audio-keyboard-response,2,8229,0.0-2.0,voc_e2,12128,"[{""event"":""fullscreenenter"",""trial"":1,""time"":4509}]",NA,2720,static/audio/beep_loop.wav,32,NA,NA,NA,NA,NA,NA,NA,NA,NA,NA,NA,NA,NA,NA,NA,NA,NA,NA,NA,NA,NA,NA,NA,NA,NA,NA
audio-test,3,10161,0.0-3.0,voc_e2,12128,"[{""event"":""fullscreenenter"",""trial"":1,""time"":4509}]",NA,NA,static/audio/turtle.wav,NA,3,NA,NA,NA,NA,NA,NA,NA,NA,NA,NA,NA,NA,NA,NA,NA,NA,NA,NA,NA,NA,NA,NA,NA,NA,NA
audio-test,4,11921,0.0-4.0,voc_e2,12128,"[{""event"":""fullscreenenter"",""trial"":1,""time"":4509}]",NA,NA,static/audio/shark.wav,NA,2,NA,NA,NA,NA,NA,NA,NA,NA,NA,NA,NA,NA,NA,NA,NA,NA,NA,NA,NA,NA,NA,NA,NA,NA,NA
audio-instructions,5,18354,0.0-5.0-0.0,voc_e2,12128,"[{""event"":""fullscreenenter"",""trial"":1,""time"":4509}]",NA,649,static/audio/instructions1.wav,NA,0,NA,NA,NA,NA,NA,NA,NA,NA,NA,NA,NA,NA,NA,NA,NA,NA,NA,NA,NA,NA,NA,NA,NA,NA,NA
audio-instructions,6,27461,0.0-5.0-1.0,voc_e2,12128,"[{""event"":""fullscreenenter"",""trial"":1,""time"":4509}]",NA,2356,static/audio/instructions2.wav,NA,0,NA,NA,NA,NA,NA,NA,NA,NA,NA,NA,NA,NA,NA,NA,NA,NA,NA,NA,NA,NA,NA,NA,NA,NA,NA
audio-instructions,7,34995,0.0-5.0-2.0,voc_e2,12128,"[{""event"":""fullscreenenter"",""trial"":1,""time"":4509}]",NA,1730,static/audio/instructions3.wav,NA,0,NA,NA,NA,NA,NA,NA,NA,NA,NA,NA,NA,NA,NA,NA,NA,NA,NA,NA,NA,NA,NA,NA,NA,NA,NA
audio-instructions,8,48979,0.0-5.0-3.0,voc_e2,12128,"[{""event"":""fullscreenenter"",""trial"":1,""time"":4509}]",NA,755,static/audio/instructions4.wav,NA,0,NA,NA,NA,NA,NA,NA,NA,NA,NA,NA,NA,NA,NA,NA,NA,NA,NA,NA,NA,NA,NA,NA,NA,NA,NA
audio-instructions,9,59119,0.0-5.0-4.0,voc_e2,12128,"[{""event"":""fullscreenenter"",""trial"":1,""time"":4509}]",NA,754,static/audio/instructions5.wav,NA,0,NA,NA,NA,NA,NA,NA,NA,NA,NA,NA,NA,NA,NA,NA,NA,NA,NA,NA,NA,NA,NA,NA,NA,NA,NA
fcp-practice,10,61518,0.0-5.0-5.0-0.0,voc_e2,12128,"[{""event"":""fullscreenenter"",""trial"":1,""time"":4509}]",NA,NA,NA,NA,NA,NA,#EDC948,#46d3c8,10,0,1,null,null,null,37,1,888,10,1,practice,NA,NA,NA,NA,NA,NA,NA,NA,NA,NA
fcp-practice,11,63471,0.0-5.0-5.0-1.0,voc_e2,12128,"[{""event"":""fullscreenenter"",""trial"":1,""time"":4509}]",NA,NA,NA,NA,NA,NA,#EDC948,#46d3c8,10,0,1,null,null,null,37,1,449,10,1,practice,NA,NA,NA,NA,NA,NA,NA,NA,NA,NA
fcp-practice,12,65221,0.0-5.0-5.0-2.0,voc_e2,12128,"[{""event"":""fullscreenenter"",""trial"":1,""time"":4509}]",NA,NA,NA,NA,NA,NA,#EDC948,#46d3c8,0,10,1,null,null,null,37,1,244,0,1,practice,NA,NA,NA,NA,NA,NA,NA,NA,NA,NA
fcp-practice,13,67166,0.0-5.0-5.0-3.0,voc_e2,12128,"[{""event"":""fullscreenenter"",""trial"":1,""time"":4509}]",NA,NA,NA,NA,NA,NA,#EDC948,#46d3c8,10,0,1,null,null,null,37,1,439,10,1,practice,NA,NA,NA,NA,NA,NA,NA,NA,NA,NA
fcp-practice,14,68913,0.0-5.0-5.0-4.0,voc_e2,12128,"[{""event"":""fullscreenenter"",""trial"":1,""time"":4509}]",NA,NA,NA,NA,NA,NA,#EDC948,#46d3c8,10,0,1,null,null,null,37,1,242,10,1,practice,NA,NA,NA,NA,NA,NA,NA,NA,NA,NA
audio-instructions,15,88461,0.0-5.0-6.0,voc_e2,12128,"[{""event"":""fullscreenenter"",""trial"":1,""time"":4509}]",NA,1546,static/audio/instructions6.wav,NA,0,NA,NA,NA,NA,NA,NA,NA,NA,NA,NA,NA,NA,NA,NA,NA,NA,NA,NA,NA,NA,NA,NA,NA,NA,NA
audio-instructions,16,108149,0.0-5.0-7.0,voc_e2,12128,"[{""event"":""fullscreenenter"",""trial"":1,""time"":4509}]",NA,494,static/audio/instructions7.wav,NA,0,NA,NA,NA,NA,NA,NA,NA,NA,NA,NA,NA,NA,NA,NA,NA,NA,NA,NA,NA,NA,NA,NA,NA,NA,NA
audio-instructions,17,117933,0.0-5.0-8.0,voc_e2,12128,"[{""event"":""fullscreenenter"",""trial"":1,""time"":4509}]",NA,308,static/audio/instructions8.wav,NA,0,NA,NA,NA,NA,NA,NA,NA,NA,NA,NA,NA,NA,NA,NA,NA,NA,NA,NA,NA,NA,NA,NA,NA,NA,NA
fcp-comprehension,18,122967,0.0-5.0-9.0,voc_e2,12128,"[{""event"":""fullscreenenter"",""trial"":1,""time"":4509}]",NA,5032,NA,NA,NA,NA,NA,NA,NA,NA,NA,NA,NA,NA,NA,NA,NA,NA,NA,NA,"true,true",0,NA,NA,NA,NA,NA,NA,NA,NA
audio-instructions,19,129265,0.0-6.0-0.0,voc_e2,12128,"[{""event"":""fullscreenenter"",""trial"":1,""time"":4509}]",NA,750,static/audio/instructions9.wav,NA,0,NA,NA,NA,NA,NA,NA,NA,NA,NA,NA,NA,NA,NA,NA,NA,NA,NA,NA,NA,NA,NA,NA,NA,NA,NA
audio-instructions,20,143241,0.0-6.0-1.0,voc_e2,12128,"[{""event"":""fullscreenenter"",""trial"":1,""time"":4509},{""event"":""blur"",""trial"":20,""time"":132057},{""event"":""focus"",""trial"":20,""time"":136005}]",NA,1856,static/audio/instructions10.wav,NA,0,NA,NA,NA,NA,NA,NA,NA,NA,NA,NA,NA,NA,NA,NA,NA,NA,NA,NA,NA,NA,NA,NA,NA,NA,NA
fcp-trial,21,147913,0.0-6.0-2.0,voc_e2,12128,"[{""event"":""fullscreenenter"",""trial"":1,""time"":4509},{""event"":""blur"",""trial"":20,""time"":132057},{""event"":""focus"",""trial"":20,""time"":136005}]",NA,NA,NA,NA,NA,0,#EDC948,#46d3c8,10,10,1,38,1,1978,37,1,1176,10,1,practice,NA,NA,NA,NA,NA,NA,NA,NA,NA,NA
audio-instructions,22,159413,0.0-6.0-3.0,voc_e2,12128,"[{""event"":""fullscreenenter"",""trial"":1,""time"":4509},{""event"":""blur"",""trial"":20,""time"":132057},{""event"":""focus"",""trial"":20,""time"":136005}]",NA,499,static/audio/instructions11.wav,NA,0,NA,NA,NA,NA,NA,NA,NA,NA,NA,NA,NA,NA,NA,NA,NA,NA,NA,NA,NA,NA,NA,NA,NA,NA,NA
fcp-trial,23,162446,0.0-6.0-4.0,voc_e2,12128,"[{""event"":""fullscreenenter"",""trial"":1,""time"":4509},{""event"":""blur"",""trial"":20,""time"":132057},{""event"":""focus"",""trial"":20,""time"":136005}]",NA,NA,NA,NA,NA,6,#EDC948,#46d3c8,10,10,1,40,0,932,39,0,591,10,0,practice,NA,NA,NA,NA,NA,NA,NA,NA,NA,NA
audio-instructions,24,182338,0.0-6.0-5.0,voc_e2,12128,"[{""event"":""fullscreenenter"",""trial"":1,""time"":4509},{""event"":""blur"",""trial"":20,""time"":132057},{""event"":""focus"",""trial"":20,""time"":136005}]",NA,1203,static/audio/instructions12.wav,NA,0,NA,NA,NA,NA,NA,NA,NA,NA,NA,NA,NA,NA,NA,NA,NA,NA,NA,NA,NA,NA,NA,NA,NA,NA,NA
audio-instructions,25,190243,0.0-6.0-6.0,voc_e2,12128,"[{""event"":""fullscreenenter"",""trial"":1,""time"":4509},{""event"":""blur"",""trial"":20,""time"":132057},{""event"":""focus"",""trial"":20,""time"":136005}]",NA,308,static/audio/instructions13.wav,NA,0,NA,NA,NA,NA,NA,NA,NA,NA,NA,NA,NA,NA,NA,NA,NA,NA,NA,NA,NA,NA,NA,NA,NA,NA,NA
audio-instructions,26,199154,0.0-6.0-7.0,voc_e2,12128,"[{""event"":""fullscreenenter"",""trial"":1,""time"":4509},{""event"":""blur"",""trial"":20,""time"":132057},{""event"":""focus"",""trial"":20,""time"":136005}]",NA,468,static/audio/instructions14.wav,NA,0,NA,NA,NA,NA,NA,NA,NA,NA,NA,NA,NA,NA,NA,NA,NA,NA,NA,NA,NA,NA,NA,NA,NA,NA,NA
audio-instructions,27,206509,0.0-7.0-0.0,voc_e2,12128,"[{""event"":""fullscreenenter"",""trial"":1,""time"":4509},{""event"":""blur"",""trial"":20,""time"":132057},{""event"":""focus"",""trial"":20,""time"":136005}]",NA,443,static/audio/instructions15.wav,NA,0,NA,NA,NA,NA,NA,NA,NA,NA,NA,NA,NA,NA,NA,NA,NA,NA,NA,NA,NA,NA,NA,NA,NA,NA,NA
audio-instructions,28,215140,0.0-7.0-1.0,voc_e2,12128,"[{""event"":""fullscreenenter"",""trial"":1,""time"":4509},{""event"":""blur"",""trial"":20,""time"":132057},{""event"":""focus"",""trial"":20,""time"":136005}]",NA,1806,static/audio/instructions16.wav,NA,0,NA,NA,NA,NA,NA,NA,NA,NA,NA,NA,NA,NA,NA,NA,NA,NA,NA,NA,NA,NA,NA,NA,NA,NA,NA
audio-instructions,29,223120,0.0-7.0-2.0,voc_e2,12128,"[{""event"":""fullscreenenter"",""trial"":1,""time"":4509},{""event"":""blur"",""trial"":20,""time"":132057},{""event"":""focus"",""trial"":20,""time"":136005}]",NA,305,static/audio/instructions17.wav,NA,0,NA,NA,NA,NA,NA,NA,NA,NA,NA,NA,NA,NA,NA,NA,NA,NA,NA,NA,NA,NA,NA,NA,NA,NA,NA
audio-instructions,30,231725,0.0-7.0-3.0,voc_e2,12128,"[{""event"":""fullscreenenter"",""trial"":1,""time"":4509},{""event"":""blur"",""trial"":20,""time"":132057},{""event"":""focus"",""trial"":20,""time"":136005}]",NA,840,static/audio/instructions18.wav,NA,0,NA,NA,NA,NA,NA,NA,NA,NA,NA,NA,NA,NA,NA,NA,NA,NA,NA,NA,NA,NA,NA,NA,NA,NA,NA
audio-instructions,31,238761,0.0-7.0-4.0,voc_e2,12128,"[{""event"":""fullscreenenter"",""trial"":1,""time"":4509},{""event"":""blur"",""trial"":20,""time"":132057},{""event"":""focus"",""trial"":20,""time"":136005}]",NA,296,static/audio/instructions19.wav,NA,0,NA,NA,NA,NA,NA,NA,NA,NA,NA,NA,NA,NA,NA,NA,NA,NA,NA,NA,NA,NA,NA,NA,NA,NA,NA
fcp-comprehension,32,249506,0.0-7.0-5.0,voc_e2,12128,"[{""event"":""fullscreenenter"",""trial"":1,""time"":4509},{""event"":""blur"",""trial"":20,""time"":132057},{""event"":""focus"",""trial"":20,""time"":136005}]",NA,10744,NA,NA,NA,NA,NA,NA,NA,NA,NA,NA,NA,NA,NA,NA,NA,NA,NA,NA,"false,false,false,true",0,NA,NA,NA,NA,NA,NA,NA,NA
audio-instructions,33,259494,0.0-8.0,voc_e2,12128,"[{""event"":""fullscreenenter"",""trial"":1,""time"":4509},{""event"":""blur"",""trial"":20,""time"":132057},{""event"":""focus"",""trial"":20,""time"":136005}]",NA,769,static/audio/ready.wav,NA,0,NA,NA,NA,NA,NA,NA,NA,NA,NA,NA,NA,NA,NA,NA,NA,NA,NA,NA,NA,NA,NA,NA,NA,NA,NA
fcp-trial,34,264391,0.0-9.0-0.0,voc_e2,12128,"[{""event"":""fullscreenenter"",""trial"":1,""time"":4509},{""event"":""blur"",""trial"":20,""time"":132057},{""event"":""focus"",""trial"":20,""time"":136005}]",NA,NA,NA,NA,NA,6,#1CD855,#FA92F8,10,10,1,38,1,2337,37,1,1049,10,1,experiment,NA,NA,1,0.7,0.3,2,3,1,1,NA
fcp-trial,35,267842,0.0-10.0-0.0,voc_e2,12128,"[{""event"":""fullscreenenter"",""trial"":1,""time"":4509},{""event"":""blur"",""trial"":20,""time"":132057},{""event"":""focus"",""trial"":20,""time"":136005}]",NA,NA,NA,NA,NA,5,#741CD8,#D8271C,0,10,0,38,1,1242,37,1,699,0,0,experiment,NA,NA,0,0.1,0.9,1,0,2,1,NA
fcp-trial,36,270559,0.0-11.0-0.0,voc_e2,12128,"[{""event"":""fullscreenenter"",""trial"":1,""time"":4509},{""event"":""blur"",""trial"":20,""time"":132057},{""event"":""focus"",""trial"":20,""time"":136005}]",NA,NA,NA,NA,NA,1,#D89F1C,#3386FF,0,10,1,38,1,377,37,1,831,0,1,experiment,NA,NA,2,0.5,0.5,4,5,3,1,NA
fcp-trial,37,273359,0.0-12.0-0.0,voc_e2,12128,"[{""event"":""fullscreenenter"",""trial"":1,""time"":4509},{""event"":""blur"",""trial"":20,""time"":132057},{""event"":""focus"",""trial"":20,""time"":136005}]",NA,NA,NA,NA,NA,2,#FA92F8,#1CD855,10,10,0,38,1,745,37,1,551,10,0,experiment,NA,NA,1,0.3,0.7,3,2,4,1,NA
fcp-trial,38,275976,0.0-13.0-0.0,voc_e2,12128,"[{""event"":""fullscreenenter"",""trial"":1,""time"":4509},{""event"":""blur"",""trial"":20,""time"":132057},{""event"":""focus"",""trial"":20,""time"":136005}]",NA,NA,NA,NA,NA,0,#D89F1C,#3386FF,10,10,1,38,1,466,39,0,636,10,0,experiment,NA,NA,2,0.5,0.5,4,5,5,1,NA
fcp-trial,39,279010,0.0-14.0-0.0,voc_e2,12128,"[{""event"":""fullscreenenter"",""trial"":1,""time"":4509},{""event"":""blur"",""trial"":20,""time"":132057},{""event"":""focus"",""trial"":20,""time"":136005}]",NA,NA,NA,NA,NA,4,#D8271C,#741CD8,10,0,1,38,1,849,37,1,682,10,1,experiment,NA,NA,0,0.9,0.1,0,1,6,1,NA
fcp-trial,40,281877,0.0-15.0-0.0,voc_e2,12128,"[{""event"":""fullscreenenter"",""trial"":1,""time"":4509},{""event"":""blur"",""trial"":20,""time"":132057},{""event"":""focus"",""trial"":20,""time"":136005}]",NA,NA,NA,NA,NA,3,#D89F1C,#3386FF,0,10,1,38,1,615,37,1,740,0,1,experiment,NA,NA,2,0.5,0.5,4,5,7,1,NA
fcp-trial,41,284878,0.0-16.0-0.0,voc_e2,12128,"[{""event"":""fullscreenenter"",""trial"":1,""time"":4509},{""event"":""blur"",""trial"":20,""time"":132057},{""event"":""focus"",""trial"":20,""time"":136005}]",NA,NA,NA,NA,NA,3,#741CD8,#D8271C,10,10,0,38,1,357,39,0,1135,10,1,experiment,NA,NA,0,0.1,0.9,1,0,8,1,NA
fcp-trial,42,288211,0.0-17.0-0.0,voc_e2,12128,"[{""event"":""fullscreenenter"",""trial"":1,""time"":4509},{""event"":""blur"",""trial"":20,""time"":132057},{""event"":""focus"",""trial"":20,""time"":136005}]",NA,NA,NA,NA,NA,0,#FA92F8,#1CD855,0,10,0,38,1,681,39,0,1134,10,1,experiment,NA,NA,1,0.3,0.7,3,2,9,1,NA
fcp-trial,43,290961,0.0-18.0-0.0,voc_e2,12128,"[{""event"":""fullscreenenter"",""trial"":1,""time"":4509},{""event"":""blur"",""trial"":20,""time"":132057},{""event"":""focus"",""trial"":20,""time"":136005}]",NA,NA,NA,NA,NA,0,#D8271C,#741CD8,10,0,1,38,1,629,37,1,617,10,1,experiment,NA,NA,0,0.9,0.1,0,1,10,1,NA
fcp-trial,44,293633,0.0-19.0-0.0,voc_e2,12128,"[{""event"":""fullscreenenter"",""trial"":1,""time"":4509},{""event"":""blur"",""trial"":20,""time"":132057},{""event"":""focus"",""trial"":20,""time"":136005}]",NA,NA,NA,NA,NA,5,#FA92F8,#1CD855,0,0,0,38,1,356,37,1,811,0,0,experiment,NA,NA,1,0.3,0.7,3,2,11,1,NA
fcp-trial,45,296240,0.0-20.0-0.0,voc_e2,12128,"[{""event"":""fullscreenenter"",""trial"":1,""time"":4509},{""event"":""blur"",""trial"":20,""time"":132057},{""event"":""focus"",""trial"":20,""time"":136005}]",NA,NA,NA,NA,NA,6,#3386FF,#D89F1C,10,10,0,38,1,378,37,1,724,10,0,experiment,NA,NA,2,0.5,0.5,5,4,12,1,NA
fcp-trial,46,298476,0.0-21.0-0.0,voc_e2,12128,"[{""event"":""fullscreenenter"",""trial"":1,""time"":4509},{""event"":""blur"",""trial"":20,""time"":132057},{""event"":""focus"",""trial"":20,""time"":136005}]",NA,NA,NA,NA,NA,3,#1CD855,#FA92F8,0,0,1,38,1,357,37,1,376,0,1,experiment,NA,NA,1,0.7,0.3,2,3,13,1,NA
fcp-trial,47,300960,0.0-22.0-0.0,voc_e2,12128,"[{""event"":""fullscreenenter"",""trial"":1,""time"":4509},{""event"":""blur"",""trial"":20,""time"":132057},{""event"":""focus"",""trial"":20,""time"":136005}]",NA,NA,NA,NA,NA,4,#1CD855,#FA92F8,0,0,1,38,1,313,37,1,667,0,1,experiment,NA,NA,1,0.7,0.3,2,3,14,1,NA
fcp-trial,48,303527,0.0-23.0-0.0,voc_e2,12128,"[{""event"":""fullscreenenter"",""trial"":1,""time"":4509},{""event"":""blur"",""trial"":20,""time"":132057},{""event"":""focus"",""trial"":20,""time"":136005}]",NA,NA,NA,NA,NA,6,#D8271C,#741CD8,10,0,1,38,1,228,39,0,834,0,0,experiment,NA,NA,0,0.9,0.1,0,1,15,1,NA
fcp-trial,49,305825,0.0-24.0-0.0,voc_e2,12128,"[{""event"":""fullscreenenter"",""trial"":1,""time"":4509},{""event"":""blur"",""trial"":20,""time"":132057},{""event"":""focus"",""trial"":20,""time"":136005}]",NA,NA,NA,NA,NA,2,#3386FF,#D89F1C,0,10,0,38,1,202,37,1,592,0,0,experiment,NA,NA,2,0.5,0.5,5,4,16,1,NA
fcp-trial,50,308063,0.0-25.0-0.0,voc_e2,12128,"[{""event"":""fullscreenenter"",""trial"":1,""time"":4509},{""event"":""blur"",""trial"":20,""time"":132057},{""event"":""focus"",""trial"":20,""time"":136005}]",NA,NA,NA,NA,NA,1,#1CD855,#FA92F8,0,0,1,38,1,249,37,1,485,0,1,experiment,NA,NA,1,0.7,0.3,2,3,17,1,NA
fcp-trial,51,310428,0.0-26.0-0.0,voc_e2,12128,"[{""event"":""fullscreenenter"",""trial"":1,""time"":4509},{""event"":""blur"",""trial"":20,""time"":132057},{""event"":""focus"",""trial"":20,""time"":136005}]",NA,NA,NA,NA,NA,4,#D89F1C,#3386FF,10,10,1,38,1,289,37,1,572,10,1,experiment,NA,NA,2,0.5,0.5,4,5,18,1,NA
fcp-trial,52,312686,0.0-27.0-0.0,voc_e2,12128,"[{""event"":""fullscreenenter"",""trial"":1,""time"":4509},{""event"":""blur"",""trial"":20,""time"":132057},{""event"":""focus"",""trial"":20,""time"":136005}]",NA,NA,NA,NA,NA,2,#D8271C,#741CD8,10,0,1,38,1,246,37,1,508,10,1,experiment,NA,NA,0,0.9,0.1,0,1,19,1,NA
fcp-trial,53,315163,0.0-28.0-0.0,voc_e2,12128,"[{""event"":""fullscreenenter"",""trial"":1,""time"":4509},{""event"":""blur"",""trial"":20,""time"":132057},{""event"":""focus"",""trial"":20,""time"":136005}]",NA,NA,NA,NA,NA,5,#D89F1C,#3386FF,10,10,1,38,1,290,39,0,683,10,0,experiment,NA,NA,2,0.5,0.5,4,5,20,1,NA
fcp-trial,54,318092,0.0-29.0-0.0,voc_e2,12128,"[{""event"":""fullscreenenter"",""trial"":1,""time"":4509},{""event"":""blur"",""trial"":20,""time"":132057},{""event"":""focus"",""trial"":20,""time"":136005}]",NA,NA,NA,NA,NA,1,#D8271C,#741CD8,10,0,1,38,1,287,37,1,1139,10,1,experiment,NA,NA,0,0.9,0.1,0,1,21,1,NA
fcp-trial,55,320557,0.0-30.0-0.0,voc_e2,12128,"[{""event"":""fullscreenenter"",""trial"":1,""time"":4509},{""event"":""blur"",""trial"":20,""time"":132057},{""event"":""focus"",""trial"":20,""time"":136005}]",NA,NA,NA,NA,NA,2,#FA92F8,#1CD855,0,0,0,38,1,343,39,0,618,0,1,experiment,NA,NA,1,0.3,0.7,3,2,22,1,NA
fcp-trial,56,323117,0.0-31.0-0.0,voc_e2,12128,"[{""event"":""fullscreenenter"",""trial"":1,""time"":4509},{""event"":""blur"",""trial"":20,""time"":132057},{""event"":""focus"",""trial"":20,""time"":136005}]",NA,NA,NA,NA,NA,2,#D8271C,#741CD8,10,10,1,38,1,266,37,1,791,10,1,experiment,NA,NA,0,0.9,0.1,0,1,23,1,NA
fcp-trial,57,325394,0.0-32.0-0.0,voc_e2,12128,"[{""event"":""fullscreenenter"",""trial"":1,""time"":4509},{""event"":""blur"",""trial"":20,""time"":132057},{""event"":""focus"",""trial"":20,""time"":136005}]",NA,NA,NA,NA,NA,3,#3386FF,#D89F1C,0,0,0,38,1,289,37,1,484,0,0,experiment,NA,NA,2,0.5,0.5,5,4,24,1,NA
fcp-trial,58,327786,0.0-33.0-0.0,voc_e2,12128,"[{""event"":""fullscreenenter"",""trial"":1,""time"":4509},{""event"":""blur"",""trial"":20,""time"":132057},{""event"":""focus"",""trial"":20,""time"":136005}]",NA,NA,NA,NA,NA,6,#741CD8,#D8271C,10,10,0,38,1,446,39,0,442,10,1,experiment,NA,NA,0,0.1,0.9,1,0,25,1,NA
fcp-trial,59,330282,0.0-34.0-0.0,voc_e2,12128,"[{""event"":""fullscreenenter"",""trial"":1,""time"":4509},{""event"":""blur"",""trial"":20,""time"":132057},{""event"":""focus"",""trial"":20,""time"":136005}]",NA,NA,NA,NA,NA,5,#FA92F8,#1CD855,0,10,0,38,1,289,37,1,697,0,0,experiment,NA,NA,1,0.3,0.7,3,2,26,1,NA
fcp-trial,60,332651,0.0-35.0-0.0,voc_e2,12128,"[{""event"":""fullscreenenter"",""trial"":1,""time"":4509},{""event"":""blur"",""trial"":20,""time"":132057},{""event"":""focus"",""trial"":20,""time"":136005}]",NA,NA,NA,NA,NA,0,#1CD855,#FA92F8,10,10,1,38,1,268,39,0,596,10,0,experiment,NA,NA,1,0.7,0.3,2,3,27,1,NA
fcp-trial,61,335058,0.0-36.0-0.0,voc_e2,12128,"[{""event"":""fullscreenenter"",""trial"":1,""time"":4509},{""event"":""blur"",""trial"":20,""time"":132057},{""event"":""focus"",""trial"":20,""time"":136005}]",NA,NA,NA,NA,NA,3,#D8271C,#741CD8,10,0,1,38,1,330,37,1,572,10,1,experiment,NA,NA,0,0.9,0.1,0,1,28,1,NA
fcp-trial,62,337382,0.0-37.0-0.0,voc_e2,12128,"[{""event"":""fullscreenenter"",""trial"":1,""time"":4509},{""event"":""blur"",""trial"":20,""time"":132057},{""event"":""focus"",""trial"":20,""time"":136005}]",NA,NA,NA,NA,NA,2,#D89F1C,#3386FF,10,0,1,38,1,377,37,1,443,10,1,experiment,NA,NA,2,0.5,0.5,4,5,29,1,NA
fcp-trial,63,340249,0.0-38.0-0.0,voc_e2,12128,"[{""event"":""fullscreenenter"",""trial"":1,""time"":4509},{""event"":""blur"",""trial"":20,""time"":132057},{""event"":""focus"",""trial"":20,""time"":136005}]",NA,NA,NA,NA,NA,6,#FA92F8,#1CD855,0,10,0,38,1,333,37,1,1029,0,0,experiment,NA,NA,1,0.3,0.7,3,2,30,1,NA
fcp-trial,64,342594,0.0-39.0-0.0,voc_e2,12128,"[{""event"":""fullscreenenter"",""trial"":1,""time"":4509},{""event"":""blur"",""trial"":20,""time"":132057},{""event"":""focus"",""trial"":20,""time"":136005}]",NA,NA,NA,NA,NA,1,#D89F1C,#3386FF,0,0,1,38,1,356,37,1,485,0,1,experiment,NA,NA,2,0.5,0.5,4,5,31,1,NA
fcp-trial,65,345048,0.0-40.0-0.0,voc_e2,12128,"[{""event"":""fullscreenenter"",""trial"":1,""time"":4509},{""event"":""blur"",""trial"":20,""time"":132057},{""event"":""focus"",""trial"":20,""time"":136005}]",NA,NA,NA,NA,NA,5,#D8271C,#741CD8,10,0,1,38,1,552,37,1,397,10,1,experiment,NA,NA,0,0.9,0.1,0,1,32,1,NA
fcp-trial,66,347330,0.0-41.0-0.0,voc_e2,12128,"[{""event"":""fullscreenenter"",""trial"":1,""time"":4509},{""event"":""blur"",""trial"":20,""time"":132057},{""event"":""focus"",""trial"":20,""time"":136005}]",NA,NA,NA,NA,NA,6,#3386FF,#D89F1C,10,10,0,38,1,421,39,0,357,10,1,experiment,NA,NA,2,0.5,0.5,5,4,33,1,NA
fcp-trial,67,349848,0.0-42.0-0.0,voc_e2,12128,"[{""event"":""fullscreenenter"",""trial"":1,""time"":4509},{""event"":""blur"",""trial"":20,""time"":132057},{""event"":""focus"",""trial"":20,""time"":136005}]",NA,NA,NA,NA,NA,4,#FA92F8,#1CD855,0,10,0,38,1,268,37,1,748,0,0,experiment,NA,NA,1,0.3,0.7,3,2,34,1,NA
fcp-trial,68,352503,0.0-43.0-0.0,voc_e2,12128,"[{""event"":""fullscreenenter"",""trial"":1,""time"":4509},{""event"":""blur"",""trial"":20,""time"":132057},{""event"":""focus"",""trial"":20,""time"":136005}]",NA,NA,NA,NA,NA,4,#741CD8,#D8271C,0,10,0,40,0,270,39,0,880,10,1,experiment,NA,NA,0,0.1,0.9,1,0,35,1,NA
fcp-trial,69,355727,0.0-44.0-0.0,voc_e2,12128,"[{""event"":""fullscreenenter"",""trial"":1,""time"":4509},{""event"":""blur"",""trial"":20,""time"":132057},{""event"":""focus"",""trial"":20,""time"":136005}]",NA,NA,NA,NA,NA,1,#D8271C,#741CD8,10,0,1,40,0,766,39,0,955,0,0,experiment,NA,NA,0,0.9,0.1,0,1,36,1,NA
fcp-trial,70,359463,0.0-45.0-0.0,voc_e2,12128,"[{""event"":""fullscreenenter"",""trial"":1,""time"":4509},{""event"":""blur"",""trial"":20,""time"":132057},{""event"":""focus"",""trial"":20,""time"":136005}]",NA,NA,NA,NA,NA,4,#D89F1C,#3386FF,10,0,1,40,0,1769,37,1,461,10,1,experiment,NA,NA,2,0.5,0.5,4,5,37,1,NA
fcp-trial,71,362681,0.0-46.0-0.0,voc_e2,12128,"[{""event"":""fullscreenenter"",""trial"":1,""time"":4509},{""event"":""blur"",""trial"":20,""time"":132057},{""event"":""focus"",""trial"":20,""time"":136005}]",NA,NA,NA,NA,NA,5,#3386FF,#D89F1C,10,10,0,38,1,1118,39,0,596,10,1,experiment,NA,NA,2,0.5,0.5,5,4,38,1,NA
fcp-trial,72,365590,0.0-47.0-0.0,voc_e2,12128,"[{""event"":""fullscreenenter"",""trial"":1,""time"":4509},{""event"":""blur"",""trial"":20,""time"":132057},{""event"":""focus"",""trial"":20,""time"":136005}]",NA,NA,NA,NA,NA,3,#FA92F8,#1CD855,0,10,0,40,0,941,37,1,462,0,0,experiment,NA,NA,1,0.3,0.7,3,2,39,1,NA
fcp-trial,73,368328,0.0-48.0-0.0,voc_e2,12128,"[{""event"":""fullscreenenter"",""trial"":1,""time"":4509},{""event"":""blur"",""trial"":20,""time"":132057},{""event"":""focus"",""trial"":20,""time"":136005}]",NA,NA,NA,NA,NA,0,#D8271C,#741CD8,10,10,1,38,1,923,37,1,310,10,1,experiment,NA,NA,0,0.9,0.1,0,1,40,1,NA
fcp-trial,74,371000,0.0-49.0-0.0,voc_e2,12128,"[{""event"":""fullscreenenter"",""trial"":1,""time"":4509},{""event"":""blur"",""trial"":20,""time"":132057},{""event"":""focus"",""trial"":20,""time"":136005}]",NA,NA,NA,NA,NA,0,#D89F1C,#3386FF,10,0,1,40,0,684,37,1,485,10,1,experiment,NA,NA,2,0.5,0.5,4,5,41,1,NA
fcp-trial,75,374325,0.0-50.0-0.0,voc_e2,12128,"[{""event"":""fullscreenenter"",""trial"":1,""time"":4509},{""event"":""blur"",""trial"":20,""time"":132057},{""event"":""focus"",""trial"":20,""time"":136005}]",NA,NA,NA,NA,NA,1,#FA92F8,#1CD855,0,10,0,40,0,1227,37,1,594,0,0,experiment,NA,NA,1,0.3,0.7,3,2,42,1,NA
fcp-trial,76,377236,0.0-51.0-0.0,voc_e2,12128,"[{""event"":""fullscreenenter"",""trial"":1,""time"":4509},{""event"":""blur"",""trial"":20,""time"":132057},{""event"":""focus"",""trial"":20,""time"":136005}]",NA,NA,NA,NA,NA,6,#D8271C,#741CD8,10,0,1,38,1,964,37,1,442,10,1,experiment,NA,NA,0,0.9,0.1,0,1,43,1,NA
fcp-trial,77,379646,0.0-52.0-0.0,voc_e2,12128,"[{""event"":""fullscreenenter"",""trial"":1,""time"":4509},{""event"":""blur"",""trial"":20,""time"":132057},{""event"":""focus"",""trial"":20,""time"":136005}]",NA,NA,NA,NA,NA,1,#3386FF,#D89F1C,0,10,0,40,0,509,37,1,398,0,0,experiment,NA,NA,2,0.5,0.5,5,4,44,1,NA
fcp-trial,78,382143,0.0-53.0-0.0,voc_e2,12128,"[{""event"":""fullscreenenter"",""trial"":1,""time"":4509},{""event"":""blur"",""trial"":20,""time"":132057},{""event"":""focus"",""trial"":20,""time"":136005}]",NA,NA,NA,NA,NA,1,#741CD8,#D8271C,0,10,0,38,1,701,39,0,292,10,1,experiment,NA,NA,0,0.1,0.9,1,0,45,1,NA
fcp-trial,79,384617,0.0-54.0-0.0,voc_e2,12128,"[{""event"":""fullscreenenter"",""trial"":1,""time"":4509},{""event"":""blur"",""trial"":20,""time"":132057},{""event"":""focus"",""trial"":20,""time"":136005}]",NA,NA,NA,NA,NA,5,#FA92F8,#1CD855,0,0,0,40,0,593,37,1,377,0,0,experiment,NA,NA,1,0.3,0.7,3,2,46,2,NA
fcp-trial,80,387397,0.0-55.0-0.0,voc_e2,12128,"[{""event"":""fullscreenenter"",""trial"":1,""time"":4509},{""event"":""blur"",""trial"":20,""time"":132057},{""event"":""focus"",""trial"":20,""time"":136005}]",NA,NA,NA,NA,NA,6,#3386FF,#D89F1C,0,10,0,40,0,923,37,1,354,0,0,experiment,NA,NA,2,0.5,0.5,5,4,47,2,NA
fcp-trial,81,390595,0.0-56.0-0.0,voc_e2,12128,"[{""event"":""fullscreenenter"",""trial"":1,""time"":4509},{""event"":""blur"",""trial"":20,""time"":132057},{""event"":""focus"",""trial"":20,""time"":136005}]",NA,NA,NA,NA,NA,0,#3386FF,#D89F1C,0,0,0,38,1,1206,39,0,489,0,1,experiment,NA,NA,2,0.5,0.5,5,4,48,2,NA
fcp-trial,82,393438,0.0-57.0-0.0,voc_e2,12128,"[{""event"":""fullscreenenter"",""trial"":1,""time"":4509},{""event"":""blur"",""trial"":20,""time"":132057},{""event"":""focus"",""trial"":20,""time"":136005}]",NA,NA,NA,NA,NA,1,#FA92F8,#1CD855,0,10,0,38,1,811,37,1,529,0,0,experiment,NA,NA,1,0.3,0.7,3,2,49,2,NA
fcp-trial,83,396087,0.0-58.0-0.0,voc_e2,12128,"[{""event"":""fullscreenenter"",""trial"":1,""time"":4509},{""event"":""blur"",""trial"":20,""time"":132057},{""event"":""focus"",""trial"":20,""time"":136005}]",NA,NA,NA,NA,NA,3,#D8271C,#741CD8,0,0,1,38,1,573,37,1,572,0,1,experiment,NA,NA,0,0.9,0.1,0,1,50,2,NA
fcp-trial,84,399759,0.0-59.0-0.0,voc_e2,12128,"[{""event"":""fullscreenenter"",""trial"":1,""time"":4509},{""event"":""blur"",""trial"":20,""time"":132057},{""event"":""focus"",""trial"":20,""time"":136005}]",NA,NA,NA,NA,NA,2,#D89F1C,#3386FF,10,0,1,40,0,1639,37,1,529,10,1,experiment,NA,NA,2,0.5,0.5,4,5,51,2,NA
fcp-trial,85,403020,0.0-60.0-0.0,voc_e2,12128,"[{""event"":""fullscreenenter"",""trial"":1,""time"":4509},{""event"":""blur"",""trial"":20,""time"":132057},{""event"":""focus"",""trial"":20,""time"":136005}]",NA,NA,NA,NA,NA,6,#1CD855,#FA92F8,10,0,1,40,0,1228,37,1,528,10,1,experiment,NA,NA,1,0.7,0.3,2,3,52,2,NA
fcp-trial,86,406039,0.0-61.0-0.0,voc_e2,12128,"[{""event"":""fullscreenenter"",""trial"":1,""time"":4509},{""event"":""blur"",""trial"":20,""time"":132057},{""event"":""focus"",""trial"":20,""time"":136005}]",NA,NA,NA,NA,NA,0,#D8271C,#741CD8,10,0,1,38,1,1011,37,1,506,10,1,experiment,NA,NA,0,0.9,0.1,0,1,53,2,NA
fcp-trial,87,409279,0.0-62.0-0.0,voc_e2,12128,"[{""event"":""fullscreenenter"",""trial"":1,""time"":4509},{""event"":""blur"",""trial"":20,""time"":132057},{""event"":""focus"",""trial"":20,""time"":136005}]",NA,NA,NA,NA,NA,3,#3386FF,#D89F1C,10,0,0,38,1,1292,39,0,444,0,1,experiment,NA,NA,2,0.5,0.5,5,4,54,2,NA
fcp-trial,88,412213,0.0-63.0-0.0,voc_e2,12128,"[{""event"":""fullscreenenter"",""trial"":1,""time"":4509},{""event"":""blur"",""trial"":20,""time"":132057},{""event"":""focus"",""trial"":20,""time"":136005}]",NA,NA,NA,NA,NA,5,#741CD8,#D8271C,10,10,0,38,1,920,39,0,510,10,1,experiment,NA,NA,0,0.1,0.9,1,0,55,2,NA
fcp-trial,89,415865,0.0-64.0-0.0,voc_e2,12128,"[{""event"":""fullscreenenter"",""trial"":1,""time"":4509},{""event"":""blur"",""trial"":20,""time"":132057},{""event"":""focus"",""trial"":20,""time"":136005}]",NA,NA,NA,NA,NA,0,#FA92F8,#1CD855,10,0,0,38,1,1660,39,0,487,0,1,experiment,NA,NA,1,0.3,0.7,3,2,56,2,NA
fcp-trial,90,418753,0.0-65.0-0.0,voc_e2,12128,"[{""event"":""fullscreenenter"",""trial"":1,""time"":4509},{""event"":""blur"",""trial"":20,""time"":132057},{""event"":""focus"",""trial"":20,""time"":136005}]",NA,NA,NA,NA,NA,2,#1CD855,#FA92F8,10,0,1,38,1,768,39,0,619,0,0,experiment,NA,NA,1,0.7,0.3,2,3,57,2,NA
fcp-trial,91,422292,0.0-66.0-0.0,voc_e2,12128,"[{""event"":""fullscreenenter"",""trial"":1,""time"":4509},{""event"":""blur"",""trial"":20,""time"":132057},{""event"":""focus"",""trial"":20,""time"":136005}]",NA,NA,NA,NA,NA,4,#3386FF,#D89F1C,10,10,0,40,0,1616,37,1,419,10,0,experiment,NA,NA,2,0.5,0.5,5,4,58,2,NA
fcp-trial,92,424986,0.0-67.0-0.0,voc_e2,12128,"[{""event"":""fullscreenenter"",""trial"":1,""time"":4509},{""event"":""blur"",""trial"":20,""time"":132057},{""event"":""focus"",""trial"":20,""time"":136005}]",NA,NA,NA,NA,NA,2,#D8271C,#741CD8,10,0,1,38,1,640,37,1,550,10,1,experiment,NA,NA,0,0.9,0.1,0,1,59,2,NA
fcp-trial,93,428094,0.0-68.0-0.0,voc_e2,12128,"[{""event"":""fullscreenenter"",""trial"":1,""time"":4509},{""event"":""blur"",""trial"":20,""time"":132057},{""event"":""focus"",""trial"":20,""time"":136005}]",NA,NA,NA,NA,NA,3,#1CD855,#FA92F8,10,0,1,38,1,857,37,1,746,10,1,experiment,NA,NA,1,0.7,0.3,2,3,60,2,NA
fcp-trial,94,431227,0.0-69.0-0.0,voc_e2,12128,"[{""event"":""fullscreenenter"",""trial"":1,""time"":4509},{""event"":""blur"",""trial"":20,""time"":132057},{""event"":""focus"",""trial"":20,""time"":136005}]",NA,NA,NA,NA,NA,5,#3386FF,#D89F1C,10,0,0,40,0,1184,39,0,444,0,1,experiment,NA,NA,2,0.5,0.5,5,4,61,2,NA
fcp-trial,95,434594,0.0-70.0-0.0,voc_e2,12128,"[{""event"":""fullscreenenter"",""trial"":1,""time"":4509},{""event"":""blur"",""trial"":20,""time"":132057},{""event"":""focus"",""trial"":20,""time"":136005}]",NA,NA,NA,NA,NA,4,#741CD8,#D8271C,0,10,0,38,1,1353,39,0,509,10,1,experiment,NA,NA,0,0.1,0.9,1,0,62,2,NA
fcp-trial,96,437262,0.0-71.0-0.0,voc_e2,12128,"[{""event"":""fullscreenenter"",""trial"":1,""time"":4509},{""event"":""blur"",""trial"":20,""time"":132057},{""event"":""focus"",""trial"":20,""time"":136005}]",NA,NA,NA,NA,NA,4,#1CD855,#FA92F8,10,0,1,38,1,507,37,1,659,10,1,experiment,NA,NA,1,0.7,0.3,2,3,63,2,NA
fcp-trial,97,440111,0.0-72.0-0.0,voc_e2,12128,"[{""event"":""fullscreenenter"",""trial"":1,""time"":4509},{""event"":""blur"",""trial"":20,""time"":132057},{""event"":""focus"",""trial"":20,""time"":136005}]",NA,NA,NA,NA,NA,4,#741CD8,#D8271C,0,10,0,38,1,792,39,0,552,10,1,experiment,NA,NA,0,0.1,0.9,1,0,64,2,NA
fcp-trial,98,444457,0.0-73.0-0.0,voc_e2,12128,"[{""event"":""fullscreenenter"",""trial"":1,""time"":4509},{""event"":""blur"",""trial"":20,""time"":132057},{""event"":""focus"",""trial"":20,""time"":136005}]",NA,NA,NA,NA,NA,0,#1CD855,#FA92F8,0,0,1,38,1,2378,37,1,464,0,1,experiment,NA,NA,1,0.7,0.3,2,3,65,2,NA
fcp-trial,99,447108,0.0-74.0-0.0,voc_e2,12128,"[{""event"":""fullscreenenter"",""trial"":1,""time"":4509},{""event"":""blur"",""trial"":20,""time"":132057},{""event"":""focus"",""trial"":20,""time"":136005}]",NA,NA,NA,NA,NA,1,#D8271C,#741CD8,10,0,1,38,1,684,37,1,464,10,1,experiment,NA,NA,0,0.9,0.1,0,1,66,2,NA
fcp-trial,100,450106,0.0-75.0-0.0,voc_e2,12128,"[{""event"":""fullscreenenter"",""trial"":1,""time"":4509},{""event"":""blur"",""trial"":20,""time"":132057},{""event"":""focus"",""trial"":20,""time"":136005}]",NA,NA,NA,NA,NA,1,#D89F1C,#3386FF,10,10,1,38,1,989,37,1,506,10,1,experiment,NA,NA,2,0.5,0.5,4,5,67,2,NA
fcp-trial,101,452736,0.0-76.0-0.0,voc_e2,12128,"[{""event"":""fullscreenenter"",""trial"":1,""time"":4509},{""event"":""blur"",""trial"":20,""time"":132057},{""event"":""focus"",""trial"":20,""time"":136005}]",NA,NA,NA,NA,NA,3,#D8271C,#741CD8,10,0,1,38,1,727,37,1,397,10,1,experiment,NA,NA,0,0.9,0.1,0,1,68,2,NA
fcp-trial,102,455887,0.0-77.0-0.0,voc_e2,12128,"[{""event"":""fullscreenenter"",""trial"":1,""time"":4509},{""event"":""blur"",""trial"":20,""time"":132057},{""event"":""focus"",""trial"":20,""time"":136005}]",NA,NA,NA,NA,NA,0,#D89F1C,#3386FF,10,10,1,38,1,1118,37,1,528,10,1,experiment,NA,NA,2,0.5,0.5,4,5,69,2,NA
fcp-trial,103,458690,0.0-78.0-0.0,voc_e2,12128,"[{""event"":""fullscreenenter"",""trial"":1,""time"":4509},{""event"":""blur"",""trial"":20,""time"":132057},{""event"":""focus"",""trial"":20,""time"":136005}]",NA,NA,NA,NA,NA,1,#FA92F8,#1CD855,10,10,0,40,0,835,37,1,463,10,0,experiment,NA,NA,1,0.3,0.7,3,2,70,2,NA
fcp-trial,104,461387,0.0-79.0-0.0,voc_e2,12128,"[{""event"":""fullscreenenter"",""trial"":1,""time"":4509},{""event"":""blur"",""trial"":20,""time"":132057},{""event"":""focus"",""trial"":20,""time"":136005}]",NA,NA,NA,NA,NA,4,#1CD855,#FA92F8,0,10,1,38,1,488,39,0,704,10,0,experiment,NA,NA,1,0.7,0.3,2,3,71,2,NA
fcp-trial,105,463968,0.0-80.0-0.0,voc_e2,12128,"[{""event"":""fullscreenenter"",""trial"":1,""time"":4509},{""event"":""blur"",""trial"":20,""time"":132057},{""event"":""focus"",""trial"":20,""time"":136005}]",NA,NA,NA,NA,NA,0,#D8271C,#741CD8,10,0,1,38,1,484,37,1,594,10,1,experiment,NA,NA,0,0.9,0.1,0,1,72,2,NA
fcp-trial,106,467164,0.0-81.0-0.0,voc_e2,12128,"[{""event"":""fullscreenenter"",""trial"":1,""time"":4509},{""event"":""blur"",""trial"":20,""time"":132057},{""event"":""focus"",""trial"":20,""time"":136005}]",NA,NA,NA,NA,NA,5,#3386FF,#D89F1C,0,10,0,38,1,944,39,0,748,10,1,experiment,NA,NA,2,0.5,0.5,5,4,73,2,NA
fcp-trial,107,470599,0.0-82.0-0.0,voc_e2,12128,"[{""event"":""fullscreenenter"",""trial"":1,""time"":4509},{""event"":""blur"",""trial"":20,""time"":132057},{""event"":""focus"",""trial"":20,""time"":136005}]",NA,NA,NA,NA,NA,6,#D8271C,#741CD8,10,0,1,40,0,1442,39,0,488,0,0,experiment,NA,NA,0,0.9,0.1,0,1,74,2,NA
fcp-trial,108,475486,0.0-83.0-0.0,voc_e2,12128,"[{""event"":""fullscreenenter"",""trial"":1,""time"":4509},{""event"":""blur"",""trial"":20,""time"":132057},{""event"":""focus"",""trial"":20,""time"":136005}]",NA,NA,NA,NA,NA,2,#1CD855,#FA92F8,0,0,1,38,1,1354,37,1,2031,0,1,experiment,NA,NA,1,0.7,0.3,2,3,75,2,NA
fcp-trial,109,478356,0.0-84.0-0.0,voc_e2,12128,"[{""event"":""fullscreenenter"",""trial"":1,""time"":4509},{""event"":""blur"",""trial"":20,""time"":132057},{""event"":""focus"",""trial"":20,""time"":136005}]",NA,NA,NA,NA,NA,4,#D89F1C,#3386FF,0,10,1,40,0,986,39,0,379,10,0,experiment,NA,NA,2,0.5,0.5,4,5,76,2,NA
fcp-trial,110,481486,0.0-85.0-0.0,voc_e2,12128,"[{""event"":""fullscreenenter"",""trial"":1,""time"":4509},{""event"":""blur"",""trial"":20,""time"":132057},{""event"":""focus"",""trial"":20,""time"":136005}]",NA,NA,NA,NA,NA,2,#3386FF,#D89F1C,0,10,0,40,0,1116,39,0,509,10,1,experiment,NA,NA,2,0.5,0.5,5,4,77,2,NA
fcp-trial,111,484134,0.0-86.0-0.0,voc_e2,12128,"[{""event"":""fullscreenenter"",""trial"":1,""time"":4509},{""event"":""blur"",""trial"":20,""time"":132057},{""event"":""focus"",""trial"":20,""time"":136005}]",NA,NA,NA,NA,NA,5,#741CD8,#D8271C,0,10,0,38,1,613,39,0,532,10,1,experiment,NA,NA,0,0.1,0.9,1,0,78,2,NA
fcp-trial,112,487848,0.0-87.0-0.0,voc_e2,12128,"[{""event"":""fullscreenenter"",""trial"":1,""time"":4509},{""event"":""blur"",""trial"":20,""time"":132057},{""event"":""focus"",""trial"":20,""time"":136005}]",NA,NA,NA,NA,NA,6,#1CD855,#FA92F8,10,10,1,40,0,1616,37,1,593,10,1,experiment,NA,NA,1,0.7,0.3,2,3,79,2,NA
fcp-trial,113,490956,0.0-88.0-0.0,voc_e2,12128,"[{""event"":""fullscreenenter"",""trial"":1,""time"":4509},{""event"":""blur"",""trial"":20,""time"":132057},{""event"":""focus"",""trial"":20,""time"":136005}]",NA,NA,NA,NA,NA,3,#3386FF,#D89F1C,10,0,0,38,1,1183,39,0,423,0,1,experiment,NA,NA,2,0.5,0.5,5,4,80,2,NA
fcp-trial,114,494181,0.0-89.0-0.0,voc_e2,12128,"[{""event"":""fullscreenenter"",""trial"":1,""time"":4509},{""event"":""blur"",""trial"":20,""time"":132057},{""event"":""focus"",""trial"":20,""time"":136005}]",NA,NA,NA,NA,NA,2,#741CD8,#D8271C,0,10,0,38,1,876,39,0,845,10,1,experiment,NA,NA,0,0.1,0.9,1,0,81,2,NA
fcp-trial,115,497154,0.0-90.0-0.0,voc_e2,12128,"[{""event"":""fullscreenenter"",""trial"":1,""time"":4509},{""event"":""blur"",""trial"":20,""time"":132057},{""event"":""focus"",""trial"":20,""time"":136005}]",NA,NA,NA,NA,NA,6,#D89F1C,#3386FF,0,0,1,40,0,986,37,1,485,0,1,experiment,NA,NA,2,0.5,0.5,4,5,82,2,NA
fcp-trial,116,500981,0.0-91.0-0.0,voc_e2,12128,"[{""event"":""fullscreenenter"",""trial"":1,""time"":4509},{""event"":""blur"",""trial"":20,""time"":132057},{""event"":""focus"",""trial"":20,""time"":136005}]",NA,NA,NA,NA,NA,3,#FA92F8,#1CD855,0,10,0,38,1,1770,39,0,555,10,1,experiment,NA,NA,1,0.3,0.7,3,2,83,2,NA
fcp-trial,117,504259,0.0-92.0-0.0,voc_e2,12128,"[{""event"":""fullscreenenter"",""trial"":1,""time"":4509},{""event"":""blur"",""trial"":20,""time"":132057},{""event"":""focus"",""trial"":20,""time"":136005}]",NA,NA,NA,NA,NA,5,#1CD855,#FA92F8,10,0,1,40,0,1398,37,1,375,10,1,experiment,NA,NA,1,0.7,0.3,2,3,84,2,NA
fcp-trial,118,507195,0.0-93.0-0.0,voc_e2,12128,"[{""event"":""fullscreenenter"",""trial"":1,""time"":4509},{""event"":""blur"",""trial"":20,""time"":132057},{""event"":""focus"",""trial"":20,""time"":136005}]",NA,NA,NA,NA,NA,5,#1CD855,#FA92F8,10,0,1,40,0,900,39,0,533,0,0,experiment,NA,NA,1,0.7,0.3,2,3,85,2,NA
fcp-trial,119,510298,0.0-94.0-0.0,voc_e2,12128,"[{""event"":""fullscreenenter"",""trial"":1,""time"":4509},{""event"":""blur"",""trial"":20,""time"":132057},{""event"":""focus"",""trial"":20,""time"":136005}]",NA,NA,NA,NA,NA,4,#1CD855,#FA92F8,10,0,1,40,0,1093,37,1,506,10,1,experiment,NA,NA,1,0.7,0.3,2,3,86,2,NA
fcp-trial,120,513059,0.0-95.0-0.0,voc_e2,12128,"[{""event"":""fullscreenenter"",""trial"":1,""time"":4509},{""event"":""blur"",""trial"":20,""time"":132057},{""event"":""focus"",""trial"":20,""time"":136005}]",NA,NA,NA,NA,NA,1,#741CD8,#D8271C,0,10,0,38,1,792,39,0,466,10,1,experiment,NA,NA,0,0.1,0.9,1,0,87,2,NA
fcp-trial,121,516532,0.0-96.0-0.0,voc_e2,12128,"[{""event"":""fullscreenenter"",""trial"":1,""time"":4509},{""event"":""blur"",""trial"":20,""time"":132057},{""event"":""focus"",""trial"":20,""time"":136005}]",NA,NA,NA,NA,NA,0,#D89F1C,#3386FF,0,0,1,38,1,1549,37,1,419,0,1,experiment,NA,NA,2,0.5,0.5,4,5,88,2,NA
fcp-trial,122,519336,0.0-97.0-0.0,voc_e2,12128,"[{""event"":""fullscreenenter"",""trial"":1,""time"":4509},{""event"":""blur"",""trial"":20,""time"":132057},{""event"":""focus"",""trial"":20,""time"":136005}]",NA,NA,NA,NA,NA,6,#741CD8,#D8271C,0,10,0,38,1,834,39,0,467,10,1,experiment,NA,NA,0,0.1,0.9,1,0,89,2,NA
fcp-trial,123,522615,0.0-98.0-0.0,voc_e2,12128,"[{""event"":""fullscreenenter"",""trial"":1,""time"":4509},{""event"":""blur"",""trial"":20,""time"":132057},{""event"":""focus"",""trial"":20,""time"":136005}]",NA,NA,NA,NA,NA,3,#741CD8,#D8271C,0,0,0,38,1,1331,39,0,444,0,1,experiment,NA,NA,0,0.1,0.9,1,0,90,2,NA
fcp-trial,124,525675,0.0-99.0-0.0,voc_e2,12128,"[{""event"":""fullscreenenter"",""trial"":1,""time"":4509},{""event"":""blur"",""trial"":20,""time"":132057},{""event"":""focus"",""trial"":20,""time"":136005}]",NA,NA,NA,NA,NA,1,#1CD855,#FA92F8,0,0,1,38,1,1027,37,1,529,0,1,experiment,NA,NA,1,0.7,0.3,2,3,91,3,NA
fcp-trial,125,528608,0.0-100.0-0.0,voc_e2,12128,"[{""event"":""fullscreenenter"",""trial"":1,""time"":4509},{""event"":""blur"",""trial"":20,""time"":132057},{""event"":""focus"",""trial"":20,""time"":136005}]",NA,NA,NA,NA,NA,6,#D89F1C,#3386FF,10,10,1,40,0,1009,37,1,421,10,1,experiment,NA,NA,2,0.5,0.5,4,5,92,3,NA
fcp-trial,126,531696,0.0-101.0-0.0,voc_e2,12128,"[{""event"":""fullscreenenter"",""trial"":1,""time"":4509},{""event"":""blur"",""trial"":20,""time"":132057},{""event"":""focus"",""trial"":20,""time"":136005}]",NA,NA,NA,NA,NA,1,#3386FF,#D89F1C,10,0,0,40,0,1227,39,0,357,0,1,experiment,NA,NA,2,0.5,0.5,5,4,93,3,NA
fcp-trial,127,534474,0.0-102.0-0.0,voc_e2,12128,"[{""event"":""fullscreenenter"",""trial"":1,""time"":4509},{""event"":""blur"",""trial"":20,""time"":132057},{""event"":""focus"",""trial"":20,""time"":136005}]",NA,NA,NA,NA,NA,5,#D8271C,#741CD8,10,0,1,38,1,831,37,1,442,10,1,experiment,NA,NA,0,0.9,0.1,0,1,94,3,NA
fcp-trial,128,537733,0.0-103.0-0.0,voc_e2,12128,"[{""event"":""fullscreenenter"",""trial"":1,""time"":4509},{""event"":""blur"",""trial"":20,""time"":132057},{""event"":""focus"",""trial"":20,""time"":136005}]",NA,NA,NA,NA,NA,6,#FA92F8,#1CD855,0,10,0,40,0,1357,37,1,399,0,0,experiment,NA,NA,1,0.3,0.7,3,2,95,3,NA
fcp-trial,129,540841,0.0-104.0-0.0,voc_e2,12128,"[{""event"":""fullscreenenter"",""trial"":1,""time"":4509},{""event"":""blur"",""trial"":20,""time"":132057},{""event"":""focus"",""trial"":20,""time"":136005}]",NA,NA,NA,NA,NA,4,#3386FF,#D89F1C,0,10,0,40,0,1228,37,1,376,0,0,experiment,NA,NA,2,0.5,0.5,5,4,96,3,NA
fcp-trial,130,543494,0.0-105.0-0.0,voc_e2,12128,"[{""event"":""fullscreenenter"",""trial"":1,""time"":4509},{""event"":""blur"",""trial"":20,""time"":132057},{""event"":""focus"",""trial"":20,""time"":136005}]",NA,NA,NA,NA,NA,2,#741CD8,#D8271C,0,10,0,38,1,704,39,0,443,10,1,experiment,NA,NA,0,0.1,0.9,1,0,97,3,NA
fcp-trial,131,546906,0.0-106.0-0.0,voc_e2,12128,"[{""event"":""fullscreenenter"",""trial"":1,""time"":4509},{""event"":""blur"",""trial"":20,""time"":132057},{""event"":""focus"",""trial"":20,""time"":136005}]",NA,NA,NA,NA,NA,5,#D89F1C,#3386FF,0,0,1,40,0,1573,39,0,335,0,0,experiment,NA,NA,2,0.5,0.5,4,5,98,3,NA
fcp-trial,132,549577,0.0-107.0-0.0,voc_e2,12128,"[{""event"":""fullscreenenter"",""trial"":1,""time"":4509},{""event"":""blur"",""trial"":20,""time"":132057},{""event"":""focus"",""trial"":20,""time"":136005}]",NA,NA,NA,NA,NA,2,#1CD855,#FA92F8,0,0,1,38,1,683,37,1,485,0,1,experiment,NA,NA,1,0.7,0.3,2,3,99,3,NA
fcp-trial,133,552358,0.0-108.0-0.0,voc_e2,12128,"[{""event"":""fullscreenenter"",""trial"":1,""time"":4509},{""event"":""blur"",""trial"":20,""time"":132057},{""event"":""focus"",""trial"":20,""time"":136005}]",NA,NA,NA,NA,NA,3,#1CD855,#FA92F8,10,0,1,40,0,834,39,0,444,0,0,experiment,NA,NA,1,0.7,0.3,2,3,100,3,NA
fcp-trial,134,555636,0.0-109.0-0.0,voc_e2,12128,"[{""event"":""fullscreenenter"",""trial"":1,""time"":4509},{""event"":""blur"",""trial"":20,""time"":132057},{""event"":""focus"",""trial"":20,""time"":136005}]",NA,NA,NA,NA,NA,3,#D89F1C,#3386FF,0,10,1,40,0,1442,37,1,333,0,1,experiment,NA,NA,2,0.5,0.5,4,5,101,3,NA
fcp-trial,135,559048,0.0-110.0-0.0,voc_e2,12128,"[{""event"":""fullscreenenter"",""trial"":1,""time"":4509},{""event"":""blur"",""trial"":20,""time"":132057},{""event"":""focus"",""trial"":20,""time"":136005}]",NA,NA,NA,NA,NA,4,#D8271C,#741CD8,10,0,1,38,1,1575,37,1,333,10,1,experiment,NA,NA,0,0.9,0.1,0,1,102,3,NA
fcp-trial,136,562330,0.0-111.0-0.0,voc_e2,12128,"[{""event"":""fullscreenenter"",""trial"":1,""time"":4509},{""event"":""blur"",""trial"":20,""time"":132057},{""event"":""focus"",""trial"":20,""time"":136005}]",NA,NA,NA,NA,NA,2,#3386FF,#D89F1C,0,10,0,38,1,1249,37,1,529,0,0,experiment,NA,NA,2,0.5,0.5,5,4,103,3,NA
fcp-trial,137,565090,0.0-112.0-0.0,voc_e2,12128,"[{""event"":""fullscreenenter"",""trial"":1,""time"":4509},{""event"":""blur"",""trial"":20,""time"":132057},{""event"":""focus"",""trial"":20,""time"":136005}]",NA,NA,NA,NA,NA,0,#D8271C,#741CD8,10,0,1,38,1,726,37,1,529,10,1,experiment,NA,NA,0,0.9,0.1,0,1,104,3,NA
fcp-trial,138,567830,0.0-113.0-0.0,voc_e2,12128,"[{""event"":""fullscreenenter"",""trial"":1,""time"":4509},{""event"":""blur"",""trial"":20,""time"":132057},{""event"":""focus"",""trial"":20,""time"":136005}]",NA,NA,NA,NA,NA,0,#FA92F8,#1CD855,0,10,0,40,0,726,39,0,511,10,1,experiment,NA,NA,1,0.3,0.7,3,2,105,3,NA
audio-instructions,139,572700,0.0-114.0,voc_e2,12128,"[{""event"":""fullscreenenter"",""trial"":1,""time"":4509},{""event"":""blur"",""trial"":20,""time"":132057},{""event"":""focus"",""trial"":20,""time"":136005}]",NA,424,static/audio/pause.wav,NA,0,NA,NA,NA,NA,NA,NA,NA,NA,NA,NA,NA,NA,NA,NA,NA,NA,NA,NA,NA,NA,NA,NA,NA,NA,NA
fcp-trial,140,575832,0.0-115.0-0.0,voc_e2,12128,"[{""event"":""fullscreenenter"",""trial"":1,""time"":4509},{""event"":""blur"",""trial"":20,""time"":132057},{""event"":""focus"",""trial"":20,""time"":136005}]",NA,NA,NA,NA,NA,2,#FA92F8,#1CD855,0,0,0,40,0,1315,39,0,310,0,1,experiment,NA,NA,1,0.3,0.7,3,2,106,3,NA
fcp-trial,141,578616,0.0-116.0-0.0,voc_e2,12128,"[{""event"":""fullscreenenter"",""trial"":1,""time"":4509},{""event"":""blur"",""trial"":20,""time"":132057},{""event"":""focus"",""trial"":20,""time"":136005}]",NA,NA,NA,NA,NA,6,#1CD855,#FA92F8,0,10,1,40,0,874,39,0,395,10,0,experiment,NA,NA,1,0.7,0.3,2,3,107,3,NA
fcp-trial,142,582042,0.0-117.0-0.0,voc_e2,12128,"[{""event"":""fullscreenenter"",""trial"":1,""time"":4509},{""event"":""blur"",""trial"":20,""time"":132057},{""event"":""focus"",""trial"":20,""time"":136005}]",NA,NA,NA,NA,NA,1,#3386FF,#D89F1C,10,10,0,40,0,1524,37,1,395,10,0,experiment,NA,NA,2,0.5,0.5,5,4,108,3,NA
fcp-trial,143,584758,0.0-118.0-0.0,voc_e2,12128,"[{""event"":""fullscreenenter"",""trial"":1,""time"":4509},{""event"":""blur"",""trial"":20,""time"":132057},{""event"":""focus"",""trial"":20,""time"":136005}]",NA,NA,NA,NA,NA,4,#D8271C,#741CD8,0,0,1,38,1,770,37,1,439,0,1,experiment,NA,NA,0,0.9,0.1,0,1,109,3,NA
fcp-trial,144,587392,0.0-119.0-0.0,voc_e2,12128,"[{""event"":""fullscreenenter"",""trial"":1,""time"":4509},{""event"":""blur"",""trial"":20,""time"":132057},{""event"":""focus"",""trial"":20,""time"":136005}]",NA,NA,NA,NA,NA,5,#D8271C,#741CD8,10,0,1,40,0,681,37,1,436,10,1,experiment,NA,NA,0,0.9,0.1,0,1,110,3,NA
fcp-trial,145,590326,0.0-120.0-0.0,voc_e2,12128,"[{""event"":""fullscreenenter"",""trial"":1,""time"":4509},{""event"":""blur"",""trial"":20,""time"":132057},{""event"":""focus"",""trial"":20,""time"":136005}]",NA,NA,NA,NA,NA,5,#D89F1C,#3386FF,10,0,1,40,0,1025,39,0,399,0,0,experiment,NA,NA,2,0.5,0.5,4,5,111,3,NA
fcp-trial,146,593218,0.0-121.0-0.0,voc_e2,12128,"[{""event"":""fullscreenenter"",""trial"":1,""time"":4509},{""event"":""blur"",""trial"":20,""time"":132057},{""event"":""focus"",""trial"":20,""time"":136005}]",NA,NA,NA,NA,NA,4,#FA92F8,#1CD855,10,10,0,40,0,895,39,0,487,10,1,experiment,NA,NA,1,0.3,0.7,3,2,112,3,NA
fcp-trial,147,595910,0.0-122.0-0.0,voc_e2,12128,"[{""event"":""fullscreenenter"",""trial"":1,""time"":4509},{""event"":""blur"",""trial"":20,""time"":132057},{""event"":""focus"",""trial"":20,""time"":136005}]",NA,NA,NA,NA,NA,3,#741CD8,#D8271C,0,10,0,38,1,782,39,0,399,10,1,experiment,NA,NA,0,0.1,0.9,1,0,113,3,NA
fcp-trial,148,599427,0.0-123.0-0.0,voc_e2,12128,"[{""event"":""fullscreenenter"",""trial"":1,""time"":4509},{""event"":""blur"",""trial"":20,""time"":132057},{""event"":""focus"",""trial"":20,""time"":136005}]",NA,NA,NA,NA,NA,2,#D89F1C,#3386FF,0,0,1,40,0,1655,39,0,356,0,0,experiment,NA,NA,2,0.5,0.5,4,5,114,3,NA
fcp-trial,149,602556,0.0-124.0-0.0,voc_e2,12128,"[{""event"":""fullscreenenter"",""trial"":1,""time"":4509},{""event"":""blur"",""trial"":20,""time"":132057},{""event"":""focus"",""trial"":20,""time"":136005}]",NA,NA,NA,NA,NA,5,#1CD855,#FA92F8,10,0,1,40,0,853,39,0,769,0,0,experiment,NA,NA,1,0.7,0.3,2,3,115,3,NA
fcp-trial,150,605727,0.0-125.0-0.0,voc_e2,12128,"[{""event"":""fullscreenenter"",""trial"":1,""time"":4509},{""event"":""blur"",""trial"":20,""time"":132057},{""event"":""focus"",""trial"":20,""time"":136005}]",NA,NA,NA,NA,NA,6,#D89F1C,#3386FF,0,0,1,40,0,1245,39,0,422,0,0,experiment,NA,NA,2,0.5,0.5,4,5,116,3,NA
fcp-trial,151,608225,0.0-126.0-0.0,voc_e2,12128,"[{""event"":""fullscreenenter"",""trial"":1,""time"":4509},{""event"":""blur"",""trial"":20,""time"":132057},{""event"":""focus"",""trial"":20,""time"":136005}]",NA,NA,NA,NA,NA,2,#741CD8,#D8271C,0,10,0,38,1,681,39,0,314,10,1,experiment,NA,NA,0,0.1,0.9,1,0,117,3,NA
fcp-trial,152,611263,0.0-127.0-0.0,voc_e2,12128,"[{""event"":""fullscreenenter"",""trial"":1,""time"":4509},{""event"":""blur"",""trial"":20,""time"":132057},{""event"":""focus"",""trial"":20,""time"":136005}]",NA,NA,NA,NA,NA,0,#D89F1C,#3386FF,10,0,1,38,1,1028,37,1,507,10,1,experiment,NA,NA,2,0.5,0.5,4,5,118,3,NA
fcp-trial,153,613761,0.0-128.0-0.0,voc_e2,12128,"[{""event"":""fullscreenenter"",""trial"":1,""time"":4509},{""event"":""blur"",""trial"":20,""time"":132057},{""event"":""focus"",""trial"":20,""time"":136005}]",NA,NA,NA,NA,NA,3,#D89F1C,#3386FF,0,10,1,38,1,467,37,1,528,0,1,experiment,NA,NA,2,0.5,0.5,4,5,119,3,NA
fcp-trial,154,618740,0.0-129.0-0.0,voc_e2,12128,"[{""event"":""fullscreenenter"",""trial"":1,""time"":4509},{""event"":""blur"",""trial"":20,""time"":132057},{""event"":""focus"",""trial"":20,""time"":136005}]",NA,NA,NA,NA,NA,1,#1CD855,#FA92F8,10,0,1,40,0,3144,37,1,331,10,1,experiment,NA,NA,1,0.7,0.3,2,3,120,3,NA
fcp-trial,155,621521,0.0-130.0-0.0,voc_e2,12128,"[{""event"":""fullscreenenter"",""trial"":1,""time"":4509},{""event"":""blur"",""trial"":20,""time"":132057},{""event"":""focus"",""trial"":20,""time"":136005}]",NA,NA,NA,NA,NA,0,#D8271C,#741CD8,10,10,1,38,1,726,37,1,550,10,1,experiment,NA,NA,0,0.9,0.1,0,1,121,3,NA
fcp-trial,156,624259,0.0-131.0-0.0,voc_e2,12128,"[{""event"":""fullscreenenter"",""trial"":1,""time"":4509},{""event"":""blur"",""trial"":20,""time"":132057},{""event"":""focus"",""trial"":20,""time"":136005}]",NA,NA,NA,NA,NA,1,#D8271C,#741CD8,0,0,1,38,1,749,37,1,486,0,1,experiment,NA,NA,0,0.9,0.1,0,1,122,3,NA
fcp-trial,157,626934,0.0-132.0-0.0,voc_e2,12128,"[{""event"":""fullscreenenter"",""trial"":1,""time"":4509},{""event"":""blur"",""trial"":20,""time"":132057},{""event"":""focus"",""trial"":20,""time"":136005}]",NA,NA,NA,NA,NA,0,#FA92F8,#1CD855,10,10,0,40,0,770,39,0,401,10,1,experiment,NA,NA,1,0.3,0.7,3,2,123,3,NA
fcp-trial,158,630390,0.0-133.0-0.0,voc_e2,12128,"[{""event"":""fullscreenenter"",""trial"":1,""time"":4509},{""event"":""blur"",""trial"":20,""time"":132057},{""event"":""focus"",""trial"":20,""time"":136005}]",NA,NA,NA,NA,NA,4,#3386FF,#D89F1C,0,0,0,40,0,1465,39,0,488,0,1,experiment,NA,NA,2,0.5,0.5,5,4,124,3,NA
fcp-trial,159,633845,0.0-134.0-0.0,voc_e2,12128,"[{""event"":""fullscreenenter"",""trial"":1,""time"":4509},{""event"":""blur"",""trial"":20,""time"":132057},{""event"":""focus"",""trial"":20,""time"":136005}]",NA,NA,NA,NA,NA,6,#741CD8,#D8271C,0,10,0,38,1,1421,39,0,532,10,1,experiment,NA,NA,0,0.1,0.9,1,0,125,3,NA
fcp-trial,160,637625,0.0-135.0-0.0,voc_e2,12128,"[{""event"":""fullscreenenter"",""trial"":1,""time"":4509},{""event"":""blur"",""trial"":20,""time"":132057},{""event"":""focus"",""trial"":20,""time"":136005}]",NA,NA,NA,NA,NA,3,#FA92F8,#1CD855,0,0,0,40,0,1856,37,1,420,0,0,experiment,NA,NA,1,0.3,0.7,3,2,126,3,NA
fcp-trial,161,640624,0.0-136.0-0.0,voc_e2,12128,"[{""event"":""fullscreenenter"",""trial"":1,""time"":4509},{""event"":""blur"",""trial"":20,""time"":132057},{""event"":""focus"",""trial"":20,""time"":136005}]",NA,NA,NA,NA,NA,1,#D8271C,#741CD8,10,10,1,38,1,989,37,1,506,10,1,experiment,NA,NA,0,0.9,0.1,0,1,127,3,NA
fcp-trial,162,643731,0.0-137.0-0.0,voc_e2,12128,"[{""event"":""fullscreenenter"",""trial"":1,""time"":4509},{""event"":""blur"",""trial"":20,""time"":132057},{""event"":""focus"",""trial"":20,""time"":136005}]",NA,NA,NA,NA,NA,0,#D89F1C,#3386FF,0,0,1,38,1,1206,37,1,397,0,1,experiment,NA,NA,2,0.5,0.5,4,5,128,3,NA
fcp-trial,163,646559,0.0-138.0-0.0,voc_e2,12128,"[{""event"":""fullscreenenter"",""trial"":1,""time"":4509},{""event"":""blur"",""trial"":20,""time"":132057},{""event"":""focus"",""trial"":20,""time"":136005}]",NA,NA,NA,NA,NA,2,#FA92F8,#1CD855,0,10,0,38,1,901,39,0,422,10,1,experiment,NA,NA,1,0.3,0.7,3,2,129,3,NA
fcp-trial,164,650080,0.0-139.0-0.0,voc_e2,12128,"[{""event"":""fullscreenenter"",""trial"":1,""time"":4509},{""event"":""blur"",""trial"":20,""time"":132057},{""event"":""focus"",""trial"":20,""time"":136005}]",NA,NA,NA,NA,NA,0,#1CD855,#FA92F8,10,0,1,38,1,1139,39,0,879,0,0,experiment,NA,NA,1,0.7,0.3,2,3,130,3,NA
fcp-trial,165,652818,0.0-140.0-0.0,voc_e2,12128,"[{""event"":""fullscreenenter"",""trial"":1,""time"":4509},{""event"":""blur"",""trial"":20,""time"":132057},{""event"":""focus"",""trial"":20,""time"":136005}]",NA,NA,NA,NA,NA,4,#D89F1C,#3386FF,0,10,1,38,1,768,39,0,466,10,0,experiment,NA,NA,2,0.5,0.5,4,5,131,3,NA
fcp-trial,166,655337,0.0-141.0-0.0,voc_e2,12128,"[{""event"":""fullscreenenter"",""trial"":1,""time"":4509},{""event"":""blur"",""trial"":20,""time"":132057},{""event"":""focus"",""trial"":20,""time"":136005}]",NA,NA,NA,NA,NA,2,#D8271C,#741CD8,10,0,1,38,1,507,37,1,507,10,1,experiment,NA,NA,0,0.9,0.1,0,1,132,3,NA
fcp-trial,167,658076,0.0-142.0-0.0,voc_e2,12128,"[{""event"":""fullscreenenter"",""trial"":1,""time"":4509},{""event"":""blur"",""trial"":20,""time"":132057},{""event"":""focus"",""trial"":20,""time"":136005}]",NA,NA,NA,NA,NA,5,#FA92F8,#1CD855,0,0,0,38,1,638,39,0,596,0,1,experiment,NA,NA,1,0.3,0.7,3,2,133,3,NA
fcp-trial,168,660615,0.0-143.0-0.0,voc_e2,12128,"[{""event"":""fullscreenenter"",""trial"":1,""time"":4509},{""event"":""blur"",""trial"":20,""time"":132057},{""event"":""focus"",""trial"":20,""time"":136005}]",NA,NA,NA,NA,NA,3,#D8271C,#741CD8,10,0,1,38,1,616,37,1,420,10,1,experiment,NA,NA,0,0.9,0.1,0,1,134,3,NA
fcp-trial,169,663202,0.0-144.0-0.0,voc_e2,12128,"[{""event"":""fullscreenenter"",""trial"":1,""time"":4509},{""event"":""blur"",""trial"":20,""time"":132057},{""event"":""focus"",""trial"":20,""time"":136005}]",NA,NA,NA,NA,NA,6,#D8271C,#741CD8,10,0,1,38,1,576,37,1,507,10,1,experiment,NA,NA,0,0.9,0.1,0,1,135,3,NA
fcp-trial,170,666025,0.0-145.0-0.0,voc_e2,12128,"[{""event"":""fullscreenenter"",""trial"":1,""time"":4509},{""event"":""blur"",""trial"":20,""time"":132057},{""event"":""focus"",""trial"":20,""time"":136005}]",NA,NA,NA,NA,NA,5,#D89F1C,#3386FF,0,10,1,40,0,900,37,1,418,0,1,experiment,NA,NA,2,0.5,0.5,4,5,136,4,NA
fcp-trial,171,668700,0.0-146.0-0.0,voc_e2,12128,"[{""event"":""fullscreenenter"",""trial"":1,""time"":4509},{""event"":""blur"",""trial"":20,""time"":132057},{""event"":""focus"",""trial"":20,""time"":136005}]",NA,NA,NA,NA,NA,3,#3386FF,#D89F1C,0,0,0,40,0,770,39,0,400,0,1,experiment,NA,NA,2,0.5,0.5,5,4,137,4,NA
fcp-trial,172,671284,0.0-147.0-0.0,voc_e2,12128,"[{""event"":""fullscreenenter"",""trial"":1,""time"":4509},{""event"":""blur"",""trial"":20,""time"":132057},{""event"":""focus"",""trial"":20,""time"":136005}]",NA,NA,NA,NA,NA,6,#1CD855,#FA92F8,10,0,1,40,0,616,37,1,462,10,1,experiment,NA,NA,1,0.7,0.3,2,3,138,4,NA
fcp-trial,173,673868,0.0-148.0-0.0,voc_e2,12128,"[{""event"":""fullscreenenter"",""trial"":1,""time"":4509},{""event"":""blur"",""trial"":20,""time"":132057},{""event"":""focus"",""trial"":20,""time"":136005}]",NA,NA,NA,NA,NA,4,#D8271C,#741CD8,10,0,1,38,1,704,37,1,375,10,1,experiment,NA,NA,0,0.9,0.1,0,1,139,4,NA
fcp-trial,174,677323,0.0-149.0-0.0,voc_e2,12128,"[{""event"":""fullscreenenter"",""trial"":1,""time"":4509},{""event"":""blur"",""trial"":20,""time"":132057},{""event"":""focus"",""trial"":20,""time"":136005}]",NA,NA,NA,NA,NA,6,#D89F1C,#3386FF,10,10,1,40,0,1596,37,1,354,10,1,experiment,NA,NA,2,0.5,0.5,4,5,140,4,NA
fcp-trial,175,679842,0.0-150.0-0.0,voc_e2,12128,"[{""event"":""fullscreenenter"",""trial"":1,""time"":4509},{""event"":""blur"",""trial"":20,""time"":132057},{""event"":""focus"",""trial"":20,""time"":136005}]",NA,NA,NA,NA,NA,0,#D8271C,#741CD8,10,0,1,38,1,573,37,1,441,10,1,experiment,NA,NA,0,0.9,0.1,0,1,141,4,NA
fcp-trial,176,682516,0.0-151.0-0.0,voc_e2,12128,"[{""event"":""fullscreenenter"",""trial"":1,""time"":4509},{""event"":""blur"",""trial"":20,""time"":132057},{""event"":""focus"",""trial"":20,""time"":136005}]",NA,NA,NA,NA,NA,3,#FA92F8,#1CD855,0,10,0,40,0,791,39,0,378,10,1,experiment,NA,NA,1,0.3,0.7,3,2,142,4,NA
fcp-trial,177,685058,0.0-152.0-0.0,voc_e2,12128,"[{""event"":""fullscreenenter"",""trial"":1,""time"":4509},{""event"":""blur"",""trial"":20,""time"":132057},{""event"":""focus"",""trial"":20,""time"":136005}]",NA,NA,NA,NA,NA,5,#741CD8,#D8271C,0,10,0,38,1,680,39,0,357,10,1,experiment,NA,NA,0,0.1,0.9,1,0,143,4,NA
fcp-trial,178,688075,0.0-153.0-0.0,voc_e2,12128,"[{""event"":""fullscreenenter"",""trial"":1,""time"":4509},{""event"":""blur"",""trial"":20,""time"":132057},{""event"":""focus"",""trial"":20,""time"":136005}]",NA,NA,NA,NA,NA,1,#1CD855,#FA92F8,10,0,1,38,1,983,37,1,530,10,1,experiment,NA,NA,1,0.7,0.3,2,3,144,4,NA
fcp-trial,179,691180,0.0-154.0-0.0,voc_e2,12128,"[{""event"":""fullscreenenter"",""trial"":1,""time"":4509},{""event"":""blur"",""trial"":20,""time"":132057},{""event"":""focus"",""trial"":20,""time"":136005}]",NA,NA,NA,NA,NA,2,#3386FF,#D89F1C,10,10,0,40,0,1269,37,1,332,10,0,experiment,NA,NA,2,0.5,0.5,5,4,145,4,NA
fcp-trial,180,694311,0.0-155.0-0.0,voc_e2,12128,"[{""event"":""fullscreenenter"",""trial"":1,""time"":4509},{""event"":""blur"",""trial"":20,""time"":132057},{""event"":""focus"",""trial"":20,""time"":136005}]",NA,NA,NA,NA,NA,1,#D89F1C,#3386FF,10,0,1,38,1,1226,39,0,401,0,0,experiment,NA,NA,2,0.5,0.5,4,5,146,4,NA
fcp-trial,181,697113,0.0-156.0-0.0,voc_e2,12128,"[{""event"":""fullscreenenter"",""trial"":1,""time"":4509},{""event"":""blur"",""trial"":20,""time"":132057},{""event"":""focus"",""trial"":20,""time"":136005}]",NA,NA,NA,NA,NA,4,#1CD855,#FA92F8,0,0,1,38,1,702,39,0,596,0,0,experiment,NA,NA,1,0.7,0.3,2,3,147,4,NA
fcp-trial,182,699741,0.0-157.0-0.0,voc_e2,12128,"[{""event"":""fullscreenenter"",""trial"":1,""time"":4509},{""event"":""blur"",""trial"":20,""time"":132057},{""event"":""focus"",""trial"":20,""time"":136005}]",NA,NA,NA,NA,NA,0,#1CD855,#FA92F8,0,0,1,40,0,615,39,0,510,0,0,experiment,NA,NA,1,0.7,0.3,2,3,148,4,NA
fcp-trial,183,702370,0.0-158.0-0.0,voc_e2,12128,"[{""event"":""fullscreenenter"",""trial"":1,""time"":4509},{""event"":""blur"",""trial"":20,""time"":132057},{""event"":""focus"",""trial"":20,""time"":136005}]",NA,NA,NA,NA,NA,3,#741CD8,#D8271C,0,10,0,38,1,702,39,0,422,10,1,experiment,NA,NA,0,0.1,0.9,1,0,149,4,NA
fcp-trial,184,705827,0.0-159.0-0.0,voc_e2,12128,"[{""event"":""fullscreenenter"",""trial"":1,""time"":4509},{""event"":""blur"",""trial"":20,""time"":132057},{""event"":""focus"",""trial"":20,""time"":136005}]",NA,NA,NA,NA,NA,6,#741CD8,#D8271C,0,10,0,38,1,1552,39,0,399,10,1,experiment,NA,NA,0,0.1,0.9,1,0,150,4,NA
fcp-trial,185,713458,0.0-160.0-0.0,voc_e2,12128,"[{""event"":""fullscreenenter"",""trial"":1,""time"":4509},{""event"":""blur"",""trial"":20,""time"":132057},{""event"":""focus"",""trial"":20,""time"":136005}]",NA,NA,NA,NA,NA,3,#1CD855,#FA92F8,10,10,1,38,1,1442,37,1,4684,10,1,experiment,NA,NA,1,0.7,0.3,2,3,151,4,NA
fcp-trial,186,716370,0.0-161.0-0.0,voc_e2,12128,"[{""event"":""fullscreenenter"",""trial"":1,""time"":4509},{""event"":""blur"",""trial"":20,""time"":132057},{""event"":""focus"",""trial"":20,""time"":136005}]",NA,NA,NA,NA,NA,1,#1CD855,#FA92F8,0,0,1,40,0,1075,37,1,332,0,1,experiment,NA,NA,1,0.7,0.3,2,3,152,4,NA
fcp-trial,187,719218,0.0-162.0-0.0,voc_e2,12128,"[{""event"":""fullscreenenter"",""trial"":1,""time"":4509},{""event"":""blur"",""trial"":20,""time"":132057},{""event"":""focus"",""trial"":20,""time"":136005}]",NA,NA,NA,NA,NA,6,#3386FF,#D89F1C,0,0,0,38,1,639,39,0,706,0,1,experiment,NA,NA,2,0.5,0.5,5,4,153,4,NA
fcp-trial,188,721931,0.0-163.0-0.0,voc_e2,12128,"[{""event"":""fullscreenenter"",""trial"":1,""time"":4509},{""event"":""blur"",""trial"":20,""time"":132057},{""event"":""focus"",""trial"":20,""time"":136005}]",NA,NA,NA,NA,NA,1,#D8271C,#741CD8,10,0,1,38,1,853,37,1,356,10,1,experiment,NA,NA,0,0.9,0.1,0,1,154,4,NA
fcp-trial,189,724929,0.0-164.0-0.0,voc_e2,12128,"[{""event"":""fullscreenenter"",""trial"":1,""time"":4509},{""event"":""blur"",""trial"":20,""time"":132057},{""event"":""focus"",""trial"":20,""time"":136005}]",NA,NA,NA,NA,NA,5,#D89F1C,#3386FF,10,10,1,40,0,1184,37,1,311,10,1,experiment,NA,NA,2,0.5,0.5,4,5,155,4,NA
fcp-trial,190,727798,0.0-165.0-0.0,voc_e2,12128,"[{""event"":""fullscreenenter"",""trial"":1,""time"":4509},{""event"":""blur"",""trial"":20,""time"":132057},{""event"":""focus"",""trial"":20,""time"":136005}]",NA,NA,NA,NA,NA,3,#D89F1C,#3386FF,10,0,1,40,0,988,37,1,375,10,1,experiment,NA,NA,2,0.5,0.5,4,5,156,4,NA
fcp-trial,191,730599,0.0-166.0-0.0,voc_e2,12128,"[{""event"":""fullscreenenter"",""trial"":1,""time"":4509},{""event"":""blur"",""trial"":20,""time"":132057},{""event"":""focus"",""trial"":20,""time"":136005}]",NA,NA,NA,NA,NA,2,#FA92F8,#1CD855,0,10,0,40,0,835,37,1,464,0,0,experiment,NA,NA,1,0.3,0.7,3,2,157,4,NA
fcp-trial,192,733666,0.0-167.0-0.0,voc_e2,12128,"[{""event"":""fullscreenenter"",""trial"":1,""time"":4509},{""event"":""blur"",""trial"":20,""time"":132057},{""event"":""focus"",""trial"":20,""time"":136005}]",NA,NA,NA,NA,NA,1,#3386FF,#D89F1C,0,10,0,40,0,1227,39,0,334,10,1,experiment,NA,NA,2,0.5,0.5,5,4,158,4,NA
fcp-trial,193,736229,0.0-168.0-0.0,voc_e2,12128,"[{""event"":""fullscreenenter"",""trial"":1,""time"":4509},{""event"":""blur"",""trial"":20,""time"":132057},{""event"":""focus"",""trial"":20,""time"":136005}]",NA,NA,NA,NA,NA,2,#741CD8,#D8271C,0,10,0,38,1,658,39,0,401,10,1,experiment,NA,NA,0,0.1,0.9,1,0,159,4,NA
fcp-trial,194,739640,0.0-169.0-0.0,voc_e2,12128,"[{""event"":""fullscreenenter"",""trial"":1,""time"":4509},{""event"":""blur"",""trial"":20,""time"":132057},{""event"":""focus"",""trial"":20,""time"":136005}]",NA,NA,NA,NA,NA,4,#FA92F8,#1CD855,0,10,0,40,0,1463,39,0,443,10,1,experiment,NA,NA,1,0.3,0.7,3,2,160,4,NA
fcp-trial,195,742113,0.0-170.0-0.0,voc_e2,12128,"[{""event"":""fullscreenenter"",""trial"":1,""time"":4509},{""event"":""blur"",""trial"":20,""time"":132057},{""event"":""focus"",""trial"":20,""time"":136005}]",NA,NA,NA,NA,NA,4,#D8271C,#741CD8,10,0,1,38,1,529,37,1,440,10,1,experiment,NA,NA,0,0.9,0.1,0,1,161,4,NA
fcp-trial,196,744941,0.0-171.0-0.0,voc_e2,12128,"[{""event"":""fullscreenenter"",""trial"":1,""time"":4509},{""event"":""blur"",""trial"":20,""time"":132057},{""event"":""focus"",""trial"":20,""time"":136005}]",NA,NA,NA,NA,NA,0,#3386FF,#D89F1C,10,0,0,38,1,923,39,0,401,0,1,experiment,NA,NA,2,0.5,0.5,5,4,162,4,NA
fcp-trial,197,747350,0.0-172.0-0.0,voc_e2,12128,"[{""event"":""fullscreenenter"",""trial"":1,""time"":4509},{""event"":""blur"",""trial"":20,""time"":132057},{""event"":""focus"",""trial"":20,""time"":136005}]",NA,NA,NA,NA,NA,5,#741CD8,#D8271C,0,10,0,38,1,526,39,0,380,10,1,experiment,NA,NA,0,0.1,0.9,1,0,163,4,NA
fcp-trial,198,749650,0.0-173.0-0.0,voc_e2,12128,"[{""event"":""fullscreenenter"",""trial"":1,""time"":4509},{""event"":""blur"",""trial"":20,""time"":132057},{""event"":""focus"",""trial"":20,""time"":136005}]",NA,NA,NA,NA,NA,2,#D89F1C,#3386FF,10,0,1,38,1,529,37,1,266,10,1,experiment,NA,NA,2,0.5,0.5,4,5,164,4,NA
fcp-trial,199,752303,0.0-174.0-0.0,voc_e2,12128,"[{""event"":""fullscreenenter"",""trial"":1,""time"":4509},{""event"":""blur"",""trial"":20,""time"":132057},{""event"":""focus"",""trial"":20,""time"":136005}]",NA,NA,NA,NA,NA,6,#1CD855,#FA92F8,10,0,1,40,0,749,39,0,401,0,0,experiment,NA,NA,1,0.7,0.3,2,3,165,4,NA
fcp-trial,200,754693,0.0-175.0-0.0,voc_e2,12128,"[{""event"":""fullscreenenter"",""trial"":1,""time"":4509},{""event"":""blur"",""trial"":20,""time"":132057},{""event"":""focus"",""trial"":20,""time"":136005}]",NA,NA,NA,NA,NA,0,#741CD8,#D8271C,10,0,0,38,1,549,39,0,336,0,1,experiment,NA,NA,0,0.1,0.9,1,0,166,4,NA
fcp-trial,201,757603,0.0-176.0-0.0,voc_e2,12128,"[{""event"":""fullscreenenter"",""trial"":1,""time"":4509},{""event"":""blur"",""trial"":20,""time"":132057},{""event"":""focus"",""trial"":20,""time"":136005}]",NA,NA,NA,NA,NA,5,#FA92F8,#1CD855,0,10,0,40,0,1028,39,0,380,10,1,experiment,NA,NA,1,0.3,0.7,3,2,167,4,NA
fcp-trial,202,760602,0.0-177.0-0.0,voc_e2,12128,"[{""event"":""fullscreenenter"",""trial"":1,""time"":4509},{""event"":""blur"",""trial"":20,""time"":132057},{""event"":""focus"",""trial"":20,""time"":136005}]",NA,NA,NA,NA,NA,4,#3386FF,#D89F1C,10,0,0,40,0,1049,39,0,444,0,1,experiment,NA,NA,2,0.5,0.5,5,4,168,4,NA
fcp-trial,203,763356,0.0-178.0-0.0,voc_e2,12128,"[{""event"":""fullscreenenter"",""trial"":1,""time"":4509},{""event"":""blur"",""trial"":20,""time"":132057},{""event"":""focus"",""trial"":20,""time"":136005}]",NA,NA,NA,NA,NA,6,#FA92F8,#1CD855,10,0,0,40,0,808,37,1,442,10,0,experiment,NA,NA,1,0.3,0.7,3,2,169,4,NA
fcp-trial,204,766181,0.0-179.0-0.0,voc_e2,12128,"[{""event"":""fullscreenenter"",""trial"":1,""time"":4509},{""event"":""blur"",""trial"":20,""time"":132057},{""event"":""focus"",""trial"":20,""time"":136005}]",NA,NA,NA,NA,NA,1,#D89F1C,#3386FF,0,10,1,40,0,879,37,1,440,0,1,experiment,NA,NA,2,0.5,0.5,4,5,170,4,NA
fcp-trial,205,769005,0.0-180.0-0.0,voc_e2,12128,"[{""event"":""fullscreenenter"",""trial"":1,""time"":4509},{""event"":""blur"",""trial"":20,""time"":132057},{""event"":""focus"",""trial"":20,""time"":136005}]",NA,NA,NA,NA,NA,6,#3386FF,#D89F1C,10,10,0,40,0,748,37,1,571,10,0,experiment,NA,NA,2,0.5,0.5,5,4,171,4,NA
fcp-trial,206,772635,0.0-181.0-0.0,voc_e2,12128,"[{""event"":""fullscreenenter"",""trial"":1,""time"":4509},{""event"":""blur"",""trial"":20,""time"":132057},{""event"":""focus"",""trial"":20,""time"":136005}]",NA,NA,NA,NA,NA,0,#FA92F8,#1CD855,0,0,0,38,1,1250,37,1,878,0,0,experiment,NA,NA,1,0.3,0.7,3,2,172,4,NA
fcp-trial,207,775401,0.0-182.0-0.0,voc_e2,12128,"[{""event"":""fullscreenenter"",""trial"":1,""time"":4509},{""event"":""blur"",""trial"":20,""time"":132057},{""event"":""focus"",""trial"":20,""time"":136005}]",NA,NA,NA,NA,NA,5,#741CD8,#D8271C,0,10,0,40,0,554,39,0,704,10,1,experiment,NA,NA,0,0.1,0.9,1,0,173,4,NA
fcp-trial,208,778549,0.0-183.0-0.0,voc_e2,12128,"[{""event"":""fullscreenenter"",""trial"":1,""time"":4509},{""event"":""blur"",""trial"":20,""time"":132057},{""event"":""focus"",""trial"":20,""time"":136005}]",NA,NA,NA,NA,NA,6,#741CD8,#D8271C,0,10,0,38,1,1265,39,0,379,10,1,experiment,NA,NA,0,0.1,0.9,1,0,174,4,NA
fcp-trial,209,781677,0.0-184.0-0.0,voc_e2,12128,"[{""event"":""fullscreenenter"",""trial"":1,""time"":4509},{""event"":""blur"",""trial"":20,""time"":132057},{""event"":""focus"",""trial"":20,""time"":136005}]",NA,NA,NA,NA,NA,3,#1CD855,#FA92F8,10,0,1,40,0,1269,39,0,358,0,0,experiment,NA,NA,1,0.7,0.3,2,3,175,4,NA
fcp-trial,210,784523,0.0-185.0-0.0,voc_e2,12128,"[{""event"":""fullscreenenter"",""trial"":1,""time"":4509},{""event"":""blur"",""trial"":20,""time"":132057},{""event"":""focus"",""trial"":20,""time"":136005}]",NA,NA,NA,NA,NA,2,#3386FF,#D89F1C,0,0,0,38,1,1028,39,0,314,0,1,experiment,NA,NA,2,0.5,0.5,5,4,176,4,NA
fcp-trial,211,786892,0.0-186.0-0.0,voc_e2,12128,"[{""event"":""fullscreenenter"",""trial"":1,""time"":4509},{""event"":""blur"",""trial"":20,""time"":132057},{""event"":""focus"",""trial"":20,""time"":136005}]",NA,NA,NA,NA,NA,4,#741CD8,#D8271C,0,10,0,38,1,595,39,0,271,10,1,experiment,NA,NA,0,0.1,0.9,1,0,177,4,NA
fcp-trial,212,789386,0.0-187.0-0.0,voc_e2,12128,"[{""event"":""fullscreenenter"",""trial"":1,""time"":4509},{""event"":""blur"",""trial"":20,""time"":132057},{""event"":""focus"",""trial"":20,""time"":136005}]",NA,NA,NA,NA,NA,5,#1CD855,#FA92F8,10,0,1,40,0,680,37,1,312,10,1,experiment,NA,NA,1,0.7,0.3,2,3,178,4,NA
fcp-trial,213,792114,0.0-188.0-0.0,voc_e2,12128,"[{""event"":""fullscreenenter"",""trial"":1,""time"":4509},{""event"":""blur"",""trial"":20,""time"":132057},{""event"":""focus"",""trial"":20,""time"":136005}]",NA,NA,NA,NA,NA,0,#741CD8,#D8271C,0,10,0,38,1,662,39,0,562,10,1,experiment,NA,NA,0,0.1,0.9,1,0,179,4,NA
fcp-trial,214,795043,0.0-189.0-0.0,voc_e2,12128,"[{""event"":""fullscreenenter"",""trial"":1,""time"":4509},{""event"":""blur"",""trial"":20,""time"":132057},{""event"":""focus"",""trial"":20,""time"":136005}]",NA,NA,NA,NA,NA,4,#D89F1C,#3386FF,10,0,1,40,0,1071,37,1,353,10,1,experiment,NA,NA,2,0.5,0.5,4,5,180,4,NA
fcp-trial,215,797869,0.0-190.0-0.0,voc_e2,12128,"[{""event"":""fullscreenenter"",""trial"":1,""time"":4509},{""event"":""blur"",""trial"":20,""time"":132057},{""event"":""focus"",""trial"":20,""time"":136005}]",NA,NA,NA,NA,NA,4,#1CD855,#FA92F8,10,0,1,38,1,835,39,0,486,0,0,experiment,NA,NA,1,0.7,0.3,2,3,181,5,NA
fcp-trial,216,800668,0.0-191.0-0.0,voc_e2,12128,"[{""event"":""fullscreenenter"",""trial"":1,""time"":4509},{""event"":""blur"",""trial"":20,""time"":132057},{""event"":""focus"",""trial"":20,""time"":136005}]",NA,NA,NA,NA,NA,2,#D8271C,#741CD8,10,10,1,38,1,986,37,1,310,10,1,experiment,NA,NA,0,0.9,0.1,0,1,182,5,NA
fcp-trial,217,803299,0.0-192.0-0.0,voc_e2,12128,"[{""event"":""fullscreenenter"",""trial"":1,""time"":4509},{""event"":""blur"",""trial"":20,""time"":132057},{""event"":""focus"",""trial"":20,""time"":136005}]",NA,NA,NA,NA,NA,3,#741CD8,#D8271C,0,10,0,38,1,682,39,0,446,10,1,experiment,NA,NA,0,0.1,0.9,1,0,183,5,NA
fcp-trial,218,806294,0.0-193.0-0.0,voc_e2,12128,"[{""event"":""fullscreenenter"",""trial"":1,""time"":4509},{""event"":""blur"",""trial"":20,""time"":132057},{""event"":""focus"",""trial"":20,""time"":136005}]",NA,NA,NA,NA,NA,5,#D89F1C,#3386FF,0,0,1,40,0,1114,37,1,376,0,1,experiment,NA,NA,2,0.5,0.5,4,5,184,5,NA
fcp-trial,219,809269,0.0-194.0-0.0,voc_e2,12128,"[{""event"":""fullscreenenter"",""trial"":1,""time"":4509},{""event"":""blur"",""trial"":20,""time"":132057},{""event"":""focus"",""trial"":20,""time"":136005}]",NA,NA,NA,NA,NA,2,#FA92F8,#1CD855,10,0,0,40,0,1095,37,1,376,10,0,experiment,NA,NA,1,0.3,0.7,3,2,185,5,NA
fcp-trial,220,812549,0.0-195.0-0.0,voc_e2,12128,"[{""event"":""fullscreenenter"",""trial"":1,""time"":4509},{""event"":""blur"",""trial"":20,""time"":132057},{""event"":""focus"",""trial"":20,""time"":136005}]",NA,NA,NA,NA,NA,0,#D89F1C,#3386FF,10,10,1,38,1,967,37,1,810,10,1,experiment,NA,NA,2,0.5,0.5,4,5,186,5,NA
fcp-trial,221,814942,0.0-196.0-0.0,voc_e2,12128,"[{""event"":""fullscreenenter"",""trial"":1,""time"":4509},{""event"":""blur"",""trial"":20,""time"":132057},{""event"":""focus"",""trial"":20,""time"":136005}]",NA,NA,NA,NA,NA,1,#741CD8,#D8271C,0,10,0,38,1,554,39,0,336,10,1,experiment,NA,NA,0,0.1,0.9,1,0,187,5,NA
fcp-trial,222,817829,0.0-197.0-0.0,voc_e2,12128,"[{""event"":""fullscreenenter"",""trial"":1,""time"":4509},{""event"":""blur"",""trial"":20,""time"":132057},{""event"":""focus"",""trial"":20,""time"":136005}]",NA,NA,NA,NA,NA,1,#1CD855,#FA92F8,10,0,1,40,0,1029,37,1,354,10,1,experiment,NA,NA,1,0.7,0.3,2,3,188,5,NA
fcp-trial,223,821133,0.0-198.0-0.0,voc_e2,12128,"[{""event"":""fullscreenenter"",""trial"":1,""time"":4509},{""event"":""blur"",""trial"":20,""time"":132057},{""event"":""focus"",""trial"":20,""time"":136005}]",NA,NA,NA,NA,NA,3,#3386FF,#D89F1C,0,0,0,40,0,966,37,1,834,0,0,experiment,NA,NA,2,0.5,0.5,5,4,189,5,NA
fcp-trial,224,823651,0.0-199.0-0.0,voc_e2,12128,"[{""event"":""fullscreenenter"",""trial"":1,""time"":4509},{""event"":""blur"",""trial"":20,""time"":132057},{""event"":""focus"",""trial"":20,""time"":136005}]",NA,NA,NA,NA,NA,4,#D8271C,#741CD8,10,0,1,38,1,660,37,1,354,10,1,experiment,NA,NA,0,0.9,0.1,0,1,190,5,NA
fcp-trial,225,826257,0.0-200.0-0.0,voc_e2,12128,"[{""event"":""fullscreenenter"",""trial"":1,""time"":4509},{""event"":""blur"",""trial"":20,""time"":132057},{""event"":""focus"",""trial"":20,""time"":136005}]",NA,NA,NA,NA,NA,2,#D8271C,#741CD8,0,0,1,38,1,706,37,1,397,0,1,experiment,NA,NA,0,0.9,0.1,0,1,191,5,NA
fcp-trial,226,828910,0.0-201.0-0.0,voc_e2,12128,"[{""event"":""fullscreenenter"",""trial"":1,""time"":4509},{""event"":""blur"",""trial"":20,""time"":132057},{""event"":""focus"",""trial"":20,""time"":136005}]",NA,NA,NA,NA,NA,1,#D89F1C,#3386FF,10,0,1,40,0,790,39,0,357,0,0,experiment,NA,NA,2,0.5,0.5,4,5,192,5,NA
fcp-trial,227,831712,0.0-202.0-0.0,voc_e2,12128,"[{""event"":""fullscreenenter"",""trial"":1,""time"":4509},{""event"":""blur"",""trial"":20,""time"":132057},{""event"":""focus"",""trial"":20,""time"":136005}]",NA,NA,NA,NA,NA,6,#D89F1C,#3386FF,0,10,1,40,0,962,39,0,336,10,0,experiment,NA,NA,2,0.5,0.5,4,5,193,5,NA
fcp-trial,228,834623,0.0-203.0-0.0,voc_e2,12128,"[{""event"":""fullscreenenter"",""trial"":1,""time"":4509},{""event"":""blur"",""trial"":20,""time"":132057},{""event"":""focus"",""trial"":20,""time"":136005}]",NA,NA,NA,NA,NA,5,#FA92F8,#1CD855,0,10,0,40,0,1030,39,0,379,10,1,experiment,NA,NA,1,0.3,0.7,3,2,194,5,NA
fcp-trial,229,837490,0.0-204.0-0.0,voc_e2,12128,"[{""event"":""fullscreenenter"",""trial"":1,""time"":4509},{""event"":""blur"",""trial"":20,""time"":132057},{""event"":""focus"",""trial"":20,""time"":136005}]",NA,NA,NA,NA,NA,5,#D89F1C,#3386FF,10,10,1,40,0,921,37,1,441,10,1,experiment,NA,NA,2,0.5,0.5,4,5,195,5,NA
fcp-trial,230,840188,0.0-205.0-0.0,voc_e2,12128,"[{""event"":""fullscreenenter"",""trial"":1,""time"":4509},{""event"":""blur"",""trial"":20,""time"":132057},{""event"":""focus"",""trial"":20,""time"":136005}]",NA,NA,NA,NA,NA,1,#741CD8,#D8271C,0,10,0,38,1,837,39,0,357,10,1,experiment,NA,NA,0,0.1,0.9,1,0,196,5,NA
fcp-trial,231,843053,0.0-206.0-0.0,voc_e2,12128,"[{""event"":""fullscreenenter"",""trial"":1,""time"":4509},{""event"":""blur"",""trial"":20,""time"":132057},{""event"":""focus"",""trial"":20,""time"":136005}]",NA,NA,NA,NA,NA,6,#D8271C,#741CD8,10,0,1,38,1,592,37,1,767,10,1,experiment,NA,NA,0,0.9,0.1,0,1,197,5,NA
fcp-trial,232,845837,0.0-207.0-0.0,voc_e2,12128,"[{""event"":""fullscreenenter"",""trial"":1,""time"":4509},{""event"":""blur"",""trial"":20,""time"":132057},{""event"":""focus"",""trial"":20,""time"":136005}]",NA,NA,NA,NA,NA,4,#3386FF,#D89F1C,10,10,0,40,0,858,39,0,423,10,1,experiment,NA,NA,2,0.5,0.5,5,4,198,5,NA
fcp-trial,233,848617,0.0-208.0-0.0,voc_e2,12128,"[{""event"":""fullscreenenter"",""trial"":1,""time"":4509},{""event"":""blur"",""trial"":20,""time"":132057},{""event"":""focus"",""trial"":20,""time"":136005}]",NA,NA,NA,NA,NA,2,#FA92F8,#1CD855,0,10,0,40,0,833,39,0,445,10,1,experiment,NA,NA,1,0.3,0.7,3,2,199,5,NA
fcp-trial,234,851460,0.0-209.0-0.0,voc_e2,12128,"[{""event"":""fullscreenenter"",""trial"":1,""time"":4509},{""event"":""blur"",""trial"":20,""time"":132057},{""event"":""focus"",""trial"":20,""time"":136005}]",NA,NA,NA,NA,NA,3,#D89F1C,#3386FF,0,10,1,40,0,789,37,1,550,0,1,experiment,NA,NA,2,0.5,0.5,4,5,200,5,NA
fcp-trial,235,855940,0.0-210.0-0.0,voc_e2,12128,"[{""event"":""fullscreenenter"",""trial"":1,""time"":4509},{""event"":""blur"",""trial"":20,""time"":132057},{""event"":""focus"",""trial"":20,""time"":136005}]",NA,NA,NA,NA,NA,1,#FA92F8,#1CD855,10,0,0,40,0,2575,37,1,398,10,0,experiment,NA,NA,1,0.3,0.7,3,2,201,5,NA
fcp-trial,236,858917,0.0-211.0-0.0,voc_e2,12128,"[{""event"":""fullscreenenter"",""trial"":1,""time"":4509},{""event"":""blur"",""trial"":20,""time"":132057},{""event"":""focus"",""trial"":20,""time"":136005}]",NA,NA,NA,NA,NA,3,#D8271C,#741CD8,10,0,1,38,1,1074,37,1,399,10,1,experiment,NA,NA,0,0.9,0.1,0,1,202,5,NA
fcp-trial,237,862960,0.0-212.0-0.0,voc_e2,12128,"[{""event"":""fullscreenenter"",""trial"":1,""time"":4509},{""event"":""blur"",""trial"":20,""time"":132057},{""event"":""focus"",""trial"":20,""time"":136005}]",NA,NA,NA,NA,NA,2,#3386FF,#D89F1C,10,10,0,40,0,2140,39,0,400,10,1,experiment,NA,NA,2,0.5,0.5,5,4,203,5,NA
fcp-trial,238,866042,0.0-213.0-0.0,voc_e2,12128,"[{""event"":""fullscreenenter"",""trial"":1,""time"":4509},{""event"":""blur"",""trial"":20,""time"":132057},{""event"":""focus"",""trial"":20,""time"":136005}]",NA,NA,NA,NA,NA,0,#1CD855,#FA92F8,0,0,1,38,1,1158,37,1,420,0,1,experiment,NA,NA,1,0.7,0.3,2,3,204,5,NA
fcp-trial,239,868847,0.0-214.0-0.0,voc_e2,12128,"[{""event"":""fullscreenenter"",""trial"":1,""time"":4509},{""event"":""blur"",""trial"":20,""time"":132057},{""event"":""focus"",""trial"":20,""time"":136005}]",NA,NA,NA,NA,NA,5,#741CD8,#D8271C,0,10,0,38,1,923,39,0,379,10,1,experiment,NA,NA,0,0.1,0.9,1,0,205,5,NA
fcp-trial,240,872042,0.0-215.0-0.0,voc_e2,12128,"[{""event"":""fullscreenenter"",""trial"":1,""time"":4509},{""event"":""blur"",""trial"":20,""time"":132057},{""event"":""focus"",""trial"":20,""time"":136005}]",NA,NA,NA,NA,NA,0,#3386FF,#D89F1C,10,10,0,38,1,1029,39,0,661,10,1,experiment,NA,NA,2,0.5,0.5,5,4,206,5,NA
fcp-trial,241,875104,0.0-216.0-0.0,voc_e2,12128,"[{""event"":""fullscreenenter"",""trial"":1,""time"":4509},{""event"":""blur"",""trial"":20,""time"":132057},{""event"":""focus"",""trial"":20,""time"":136005}]",NA,NA,NA,NA,NA,3,#1CD855,#FA92F8,10,0,1,40,0,1202,37,1,355,10,1,experiment,NA,NA,1,0.7,0.3,2,3,207,5,NA
fcp-trial,242,878345,0.0-217.0-0.0,voc_e2,12128,"[{""event"":""fullscreenenter"",""trial"":1,""time"":4509},{""event"":""blur"",""trial"":20,""time"":132057},{""event"":""focus"",""trial"":20,""time"":136005}]",NA,NA,NA,NA,NA,6,#1CD855,#FA92F8,0,0,1,40,0,1097,39,0,639,0,0,experiment,NA,NA,1,0.7,0.3,2,3,208,5,NA
fcp-trial,243,880775,0.0-218.0-0.0,voc_e2,12128,"[{""event"":""fullscreenenter"",""trial"":1,""time"":4509},{""event"":""blur"",""trial"":20,""time"":132057},{""event"":""focus"",""trial"":20,""time"":136005}]",NA,NA,NA,NA,NA,0,#D8271C,#741CD8,10,0,1,38,1,571,37,1,354,10,1,experiment,NA,NA,0,0.9,0.1,0,1,209,5,NA
fcp-trial,244,883429,0.0-219.0-0.0,voc_e2,12128,"[{""event"":""fullscreenenter"",""trial"":1,""time"":4509},{""event"":""blur"",""trial"":20,""time"":132057},{""event"":""focus"",""trial"":20,""time"":136005}]",NA,NA,NA,NA,NA,4,#FA92F8,#1CD855,0,0,0,40,0,771,39,0,379,0,1,experiment,NA,NA,1,0.3,0.7,3,2,210,5,NA
audio-instructions,245,937153,0.0-220.0,voc_e2,12128,"[{""event"":""fullscreenenter"",""trial"":1,""time"":4509},{""event"":""blur"",""trial"":20,""time"":132057},{""event"":""focus"",""trial"":20,""time"":136005},{""event"":""blur"",""trial"":245,""time"":886015},{""event"":""focus"",""trial"":245,""time"":935501}]",NA,49277,static/audio/pause.wav,NA,0,NA,NA,NA,NA,NA,NA,NA,NA,NA,NA,NA,NA,NA,NA,NA,NA,NA,NA,NA,NA,NA,NA,NA,NA,NA
fcp-trial,246,941561,0.0-221.0-0.0,voc_e2,12128,"[{""event"":""fullscreenenter"",""trial"":1,""time"":4509},{""event"":""blur"",""trial"":20,""time"":132057},{""event"":""focus"",""trial"":20,""time"":136005},{""event"":""blur"",""trial"":245,""time"":886015},{""event"":""focus"",""trial"":245,""time"":935501}]",NA,NA,NA,NA,NA,2,#D8271C,#741CD8,10,0,1,38,1,2322,37,1,581,10,1,experiment,NA,NA,0,0.9,0.1,0,1,211,5,NA
fcp-trial,247,944255,0.0-222.0-0.0,voc_e2,12128,"[{""event"":""fullscreenenter"",""trial"":1,""time"":4509},{""event"":""blur"",""trial"":20,""time"":132057},{""event"":""focus"",""trial"":20,""time"":136005},{""event"":""blur"",""trial"":245,""time"":886015},{""event"":""focus"",""trial"":245,""time"":935501}]",NA,NA,NA,NA,NA,5,#1CD855,#FA92F8,10,0,1,40,0,748,37,1,440,10,1,experiment,NA,NA,1,0.7,0.3,2,3,212,5,NA
fcp-trial,248,946816,0.0-223.0-0.0,voc_e2,12128,"[{""event"":""fullscreenenter"",""trial"":1,""time"":4509},{""event"":""blur"",""trial"":20,""time"":132057},{""event"":""focus"",""trial"":20,""time"":136005},{""event"":""blur"",""trial"":245,""time"":886015},{""event"":""focus"",""trial"":245,""time"":935501}]",NA,NA,NA,NA,NA,2,#1CD855,#FA92F8,10,10,1,40,0,572,37,1,485,10,1,experiment,NA,NA,1,0.7,0.3,2,3,213,5,NA
fcp-trial,249,949448,0.0-224.0-0.0,voc_e2,12128,"[{""event"":""fullscreenenter"",""trial"":1,""time"":4509},{""event"":""blur"",""trial"":20,""time"":132057},{""event"":""focus"",""trial"":20,""time"":136005},{""event"":""blur"",""trial"":245,""time"":886015},{""event"":""focus"",""trial"":245,""time"":935501}]",NA,NA,NA,NA,NA,0,#741CD8,#D8271C,0,10,0,38,1,750,39,0,378,10,1,experiment,NA,NA,0,0.1,0.9,1,0,214,5,NA
fcp-trial,250,952597,0.0-225.0-0.0,voc_e2,12128,"[{""event"":""fullscreenenter"",""trial"":1,""time"":4509},{""event"":""blur"",""trial"":20,""time"":132057},{""event"":""focus"",""trial"":20,""time"":136005},{""event"":""blur"",""trial"":245,""time"":886015},{""event"":""focus"",""trial"":245,""time"":935501}]",NA,NA,NA,NA,NA,1,#D89F1C,#3386FF,10,0,1,40,0,1335,37,1,311,10,1,experiment,NA,NA,2,0.5,0.5,4,5,215,5,NA
fcp-trial,251,955705,0.0-226.0-0.0,voc_e2,12128,"[{""event"":""fullscreenenter"",""trial"":1,""time"":4509},{""event"":""blur"",""trial"":20,""time"":132057},{""event"":""focus"",""trial"":20,""time"":136005},{""event"":""blur"",""trial"":245,""time"":886015},{""event"":""focus"",""trial"":245,""time"":935501}]",NA,NA,NA,NA,NA,2,#3386FF,#D89F1C,10,10,0,40,0,1205,37,1,398,10,0,experiment,NA,NA,2,0.5,0.5,5,4,216,5,NA
fcp-trial,252,958465,0.0-227.0-0.0,voc_e2,12128,"[{""event"":""fullscreenenter"",""trial"":1,""time"":4509},{""event"":""blur"",""trial"":20,""time"":132057},{""event"":""focus"",""trial"":20,""time"":136005},{""event"":""blur"",""trial"":245,""time"":886015},{""event"":""focus"",""trial"":245,""time"":935501}]",NA,NA,NA,NA,NA,3,#3386FF,#D89F1C,10,0,0,40,0,770,37,1,485,10,0,experiment,NA,NA,2,0.5,0.5,5,4,217,5,NA
fcp-trial,253,961179,0.0-228.0-0.0,voc_e2,12128,"[{""event"":""fullscreenenter"",""trial"":1,""time"":4509},{""event"":""blur"",""trial"":20,""time"":132057},{""event"":""focus"",""trial"":20,""time"":136005},{""event"":""blur"",""trial"":245,""time"":886015},{""event"":""focus"",""trial"":245,""time"":935501}]",NA,NA,NA,NA,NA,1,#FA92F8,#1CD855,0,0,0,40,0,857,37,1,354,0,0,experiment,NA,NA,1,0.3,0.7,3,2,218,5,NA
fcp-trial,254,964486,0.0-229.0-0.0,voc_e2,12128,"[{""event"":""fullscreenenter"",""trial"":1,""time"":4509},{""event"":""blur"",""trial"":20,""time"":132057},{""event"":""focus"",""trial"":20,""time"":136005},{""event"":""blur"",""trial"":245,""time"":886015},{""event"":""focus"",""trial"":245,""time"":935501}]",NA,NA,NA,NA,NA,6,#D8271C,#741CD8,10,0,1,40,0,1336,39,0,464,0,0,experiment,NA,NA,0,0.9,0.1,0,1,219,5,NA
fcp-trial,255,967134,0.0-230.0-0.0,voc_e2,12128,"[{""event"":""fullscreenenter"",""trial"":1,""time"":4509},{""event"":""blur"",""trial"":20,""time"":132057},{""event"":""focus"",""trial"":20,""time"":136005},{""event"":""blur"",""trial"":245,""time"":886015},{""event"":""focus"",""trial"":245,""time"":935501}]",NA,NA,NA,NA,NA,5,#D8271C,#741CD8,10,0,1,38,1,638,37,1,507,10,1,experiment,NA,NA,0,0.9,0.1,0,1,220,5,NA
fcp-trial,256,970178,0.0-231.0-0.0,voc_e2,12128,"[{""event"":""fullscreenenter"",""trial"":1,""time"":4509},{""event"":""blur"",""trial"":20,""time"":132057},{""event"":""focus"",""trial"":20,""time"":136005},{""event"":""blur"",""trial"":245,""time"":886015},{""event"":""focus"",""trial"":245,""time"":935501}]",NA,NA,NA,NA,NA,4,#3386FF,#D89F1C,0,10,0,40,0,1163,39,0,378,10,1,experiment,NA,NA,2,0.5,0.5,5,4,221,5,NA
fcp-trial,257,972939,0.0-232.0-0.0,voc_e2,12128,"[{""event"":""fullscreenenter"",""trial"":1,""time"":4509},{""event"":""blur"",""trial"":20,""time"":132057},{""event"":""focus"",""trial"":20,""time"":136005},{""event"":""blur"",""trial"":245,""time"":886015},{""event"":""focus"",""trial"":245,""time"":935501}]",NA,NA,NA,NA,NA,4,#741CD8,#D8271C,10,10,0,38,1,856,39,0,401,10,1,experiment,NA,NA,0,0.1,0.9,1,0,222,5,NA
fcp-trial,258,976501,0.0-233.0-0.0,voc_e2,12128,"[{""event"":""fullscreenenter"",""trial"":1,""time"":4509},{""event"":""blur"",""trial"":20,""time"":132057},{""event"":""focus"",""trial"":20,""time"":136005},{""event"":""blur"",""trial"":245,""time"":886015},{""event"":""focus"",""trial"":245,""time"":935501}]",NA,NA,NA,NA,NA,0,#FA92F8,#1CD855,0,10,0,38,1,1289,39,0,770,10,1,experiment,NA,NA,1,0.3,0.7,3,2,223,5,NA
fcp-trial,259,979458,0.0-234.0-0.0,voc_e2,12128,"[{""event"":""fullscreenenter"",""trial"":1,""time"":4509},{""event"":""blur"",""trial"":20,""time"":132057},{""event"":""focus"",""trial"":20,""time"":136005},{""event"":""blur"",""trial"":245,""time"":886015},{""event"":""focus"",""trial"":245,""time"":935501}]",NA,NA,NA,NA,NA,5,#3386FF,#D89F1C,10,10,0,40,0,767,39,0,683,10,1,experiment,NA,NA,2,0.5,0.5,5,4,224,5,NA
fcp-trial,260,982409,0.0-235.0-0.0,voc_e2,12128,"[{""event"":""fullscreenenter"",""trial"":1,""time"":4509},{""event"":""blur"",""trial"":20,""time"":132057},{""event"":""focus"",""trial"":20,""time"":136005},{""event"":""blur"",""trial"":245,""time"":886015},{""event"":""focus"",""trial"":245,""time"":935501}]",NA,NA,NA,NA,NA,3,#FA92F8,#1CD855,0,10,0,40,0,1071,37,1,375,0,0,experiment,NA,NA,1,0.3,0.7,3,2,225,5,NA
fcp-trial,261,985474,0.0-236.0-0.0,voc_e2,12128,"[{""event"":""fullscreenenter"",""trial"":1,""time"":4509},{""event"":""blur"",""trial"":20,""time"":132057},{""event"":""focus"",""trial"":20,""time"":136005},{""event"":""blur"",""trial"":245,""time"":886015},{""event"":""focus"",""trial"":245,""time"":935501}]",NA,NA,NA,NA,NA,0,#3386FF,#D89F1C,0,0,0,38,1,987,39,0,575,0,1,experiment,NA,NA,2,0.5,0.5,5,4,226,6,NA
fcp-trial,262,987950,0.0-237.0-0.0,voc_e2,12128,"[{""event"":""fullscreenenter"",""trial"":1,""time"":4509},{""event"":""blur"",""trial"":20,""time"":132057},{""event"":""focus"",""trial"":20,""time"":136005},{""event"":""blur"",""trial"":245,""time"":886015},{""event"":""focus"",""trial"":245,""time"":935501}]",NA,NA,NA,NA,NA,1,#741CD8,#D8271C,0,10,0,38,1,636,39,0,335,10,1,experiment,NA,NA,0,0.1,0.9,1,0,227,6,NA
fcp-trial,263,990705,0.0-238.0-0.0,voc_e2,12128,"[{""event"":""fullscreenenter"",""trial"":1,""time"":4509},{""event"":""blur"",""trial"":20,""time"":132057},{""event"":""focus"",""trial"":20,""time"":136005},{""event"":""blur"",""trial"":245,""time"":886015},{""event"":""focus"",""trial"":245,""time"":935501}]",NA,NA,NA,NA,NA,6,#1CD855,#FA92F8,10,0,1,40,0,919,37,1,332,10,1,experiment,NA,NA,1,0.7,0.3,2,3,228,6,NA
fcp-trial,264,993332,0.0-239.0-0.0,voc_e2,12128,"[{""event"":""fullscreenenter"",""trial"":1,""time"":4509},{""event"":""blur"",""trial"":20,""time"":132057},{""event"":""focus"",""trial"":20,""time"":136005},{""event"":""blur"",""trial"":245,""time"":886015},{""event"":""focus"",""trial"":245,""time"":935501}]",NA,NA,NA,NA,NA,3,#D8271C,#741CD8,10,0,1,38,1,771,37,1,353,10,1,experiment,NA,NA,0,0.9,0.1,0,1,229,6,NA
fcp-trial,265,996418,0.0-240.0-0.0,voc_e2,12128,"[{""event"":""fullscreenenter"",""trial"":1,""time"":4509},{""event"":""blur"",""trial"":20,""time"":132057},{""event"":""focus"",""trial"":20,""time"":136005},{""event"":""blur"",""trial"":245,""time"":886015},{""event"":""focus"",""trial"":245,""time"":935501}]",NA,NA,NA,NA,NA,6,#D89F1C,#3386FF,10,0,1,40,0,1162,37,1,418,10,1,experiment,NA,NA,2,0.5,0.5,4,5,230,6,NA
fcp-trial,266,999373,0.0-241.0-0.0,voc_e2,12128,"[{""event"":""fullscreenenter"",""trial"":1,""time"":4509},{""event"":""blur"",""trial"":20,""time"":132057},{""event"":""focus"",""trial"":20,""time"":136005},{""event"":""blur"",""trial"":245,""time"":886015},{""event"":""focus"",""trial"":245,""time"":935501}]",NA,NA,NA,NA,NA,4,#FA92F8,#1CD855,0,10,0,40,0,1009,37,1,442,0,0,experiment,NA,NA,1,0.3,0.7,3,2,231,6,NA
fcp-trial,267,1002873,0.0-242.0-0.0,voc_e2,12128,"[{""event"":""fullscreenenter"",""trial"":1,""time"":4509},{""event"":""blur"",""trial"":20,""time"":132057},{""event"":""focus"",""trial"":20,""time"":136005},{""event"":""blur"",""trial"":245,""time"":886015},{""event"":""focus"",""trial"":245,""time"":935501}]",NA,NA,NA,NA,NA,2,#D8271C,#741CD8,10,0,1,40,0,1487,37,1,508,10,1,experiment,NA,NA,0,0.9,0.1,0,1,232,6,NA
fcp-trial,268,1006199,0.0-243.0-0.0,voc_e2,12128,"[{""event"":""fullscreenenter"",""trial"":1,""time"":4509},{""event"":""blur"",""trial"":20,""time"":132057},{""event"":""focus"",""trial"":20,""time"":136005},{""event"":""blur"",""trial"":245,""time"":886015},{""event"":""focus"",""trial"":245,""time"":935501}]",NA,NA,NA,NA,NA,4,#1CD855,#FA92F8,10,0,1,40,0,1248,39,0,575,0,0,experiment,NA,NA,1,0.7,0.3,2,3,233,6,NA
fcp-trial,269,1009067,0.0-244.0-0.0,voc_e2,12128,"[{""event"":""fullscreenenter"",""trial"":1,""time"":4509},{""event"":""blur"",""trial"":20,""time"":132057},{""event"":""focus"",""trial"":20,""time"":136005},{""event"":""blur"",""trial"":245,""time"":886015},{""event"":""focus"",""trial"":245,""time"":935501}]",NA,NA,NA,NA,NA,4,#741CD8,#D8271C,0,10,0,38,1,898,39,0,468,10,1,experiment,NA,NA,0,0.1,0.9,1,0,234,6,NA
fcp-trial,270,1011672,0.0-245.0-0.0,voc_e2,12128,"[{""event"":""fullscreenenter"",""trial"":1,""time"":4509},{""event"":""blur"",""trial"":20,""time"":132057},{""event"":""focus"",""trial"":20,""time"":136005},{""event"":""blur"",""trial"":245,""time"":886015},{""event"":""focus"",""trial"":245,""time"":935501}]",NA,NA,NA,NA,NA,6,#1CD855,#FA92F8,0,0,1,38,1,638,37,1,465,0,1,experiment,NA,NA,1,0.7,0.3,2,3,235,6,NA
fcp-trial,271,1014605,0.0-246.0-0.0,voc_e2,12128,"[{""event"":""fullscreenenter"",""trial"":1,""time"":4509},{""event"":""blur"",""trial"":20,""time"":132057},{""event"":""focus"",""trial"":20,""time"":136005},{""event"":""blur"",""trial"":245,""time"":886015},{""event"":""focus"",""trial"":245,""time"":935501}]",NA,NA,NA,NA,NA,1,#D89F1C,#3386FF,10,10,1,40,0,1095,37,1,333,10,1,experiment,NA,NA,2,0.5,0.5,4,5,236,6,NA
fcp-trial,272,1017975,0.0-247.0-0.0,voc_e2,12128,"[{""event"":""fullscreenenter"",""trial"":1,""time"":4509},{""event"":""blur"",""trial"":20,""time"":132057},{""event"":""focus"",""trial"":20,""time"":136005},{""event"":""blur"",""trial"":245,""time"":886015},{""event"":""focus"",""trial"":245,""time"":935501}]",NA,NA,NA,NA,NA,0,#3386FF,#D89F1C,10,10,0,38,1,1356,37,1,507,10,0,experiment,NA,NA,2,0.5,0.5,5,4,237,6,NA
fcp-trial,273,1021102,0.0-248.0-0.0,voc_e2,12128,"[{""event"":""fullscreenenter"",""trial"":1,""time"":4509},{""event"":""blur"",""trial"":20,""time"":132057},{""event"":""focus"",""trial"":20,""time"":136005},{""event"":""blur"",""trial"":245,""time"":886015},{""event"":""focus"",""trial"":245,""time"":935501}]",NA,NA,NA,NA,NA,2,#FA92F8,#1CD855,0,0,0,40,0,1139,37,1,484,0,0,experiment,NA,NA,1,0.3,0.7,3,2,238,6,NA
fcp-trial,274,1024034,0.0-249.0-0.0,voc_e2,12128,"[{""event"":""fullscreenenter"",""trial"":1,""time"":4509},{""event"":""blur"",""trial"":20,""time"":132057},{""event"":""focus"",""trial"":20,""time"":136005},{""event"":""blur"",""trial"":245,""time"":886015},{""event"":""focus"",""trial"":245,""time"":935501}]",NA,NA,NA,NA,NA,5,#D8271C,#741CD8,10,0,1,38,1,1074,37,1,353,10,1,experiment,NA,NA,0,0.9,0.1,0,1,239,6,NA
fcp-trial,275,1026705,0.0-250.0-0.0,voc_e2,12128,"[{""event"":""fullscreenenter"",""trial"":1,""time"":4509},{""event"":""blur"",""trial"":20,""time"":132057},{""event"":""focus"",""trial"":20,""time"":136005},{""event"":""blur"",""trial"":245,""time"":886015},{""event"":""focus"",""trial"":245,""time"":935501}]",NA,NA,NA,NA,NA,5,#1CD855,#FA92F8,10,0,1,40,0,726,37,1,441,10,1,experiment,NA,NA,1,0.7,0.3,2,3,240,6,NA
fcp-trial,276,1029855,0.0-251.0-0.0,voc_e2,12128,"[{""event"":""fullscreenenter"",""trial"":1,""time"":4509},{""event"":""blur"",""trial"":20,""time"":132057},{""event"":""focus"",""trial"":20,""time"":136005},{""event"":""blur"",""trial"":245,""time"":886015},{""event"":""focus"",""trial"":245,""time"":935501}]",NA,NA,NA,NA,NA,2,#D89F1C,#3386FF,0,0,1,40,0,1270,37,1,376,0,1,experiment,NA,NA,2,0.5,0.5,4,5,241,6,NA
fcp-trial,277,1032550,0.0-252.0-0.0,voc_e2,12128,"[{""event"":""fullscreenenter"",""trial"":1,""time"":4509},{""event"":""blur"",""trial"":20,""time"":132057},{""event"":""focus"",""trial"":20,""time"":136005},{""event"":""blur"",""trial"":245,""time"":886015},{""event"":""focus"",""trial"":245,""time"":935501}]",NA,NA,NA,NA,NA,6,#3386FF,#D89F1C,10,10,0,40,0,703,39,0,487,10,1,experiment,NA,NA,2,0.5,0.5,5,4,242,6,NA
fcp-trial,278,1035177,0.0-253.0-0.0,voc_e2,12128,"[{""event"":""fullscreenenter"",""trial"":1,""time"":4509},{""event"":""blur"",""trial"":20,""time"":132057},{""event"":""focus"",""trial"":20,""time"":136005},{""event"":""blur"",""trial"":245,""time"":886015},{""event"":""focus"",""trial"":245,""time"":935501}]",NA,NA,NA,NA,NA,6,#741CD8,#D8271C,10,10,0,38,1,657,39,0,465,10,1,experiment,NA,NA,0,0.1,0.9,1,0,243,6,NA
fcp-trial,279,1037931,0.0-254.0-0.0,voc_e2,12128,"[{""event"":""fullscreenenter"",""trial"":1,""time"":4509},{""event"":""blur"",""trial"":20,""time"":132057},{""event"":""focus"",""trial"":20,""time"":136005},{""event"":""blur"",""trial"":245,""time"":886015},{""event"":""focus"",""trial"":245,""time"":935501}]",NA,NA,NA,NA,NA,1,#FA92F8,#1CD855,0,10,0,40,0,746,37,1,506,0,0,experiment,NA,NA,1,0.3,0.7,3,2,244,6,NA
fcp-trial,280,1040559,0.0-255.0-0.0,voc_e2,12128,"[{""event"":""fullscreenenter"",""trial"":1,""time"":4509},{""event"":""blur"",""trial"":20,""time"":132057},{""event"":""focus"",""trial"":20,""time"":136005},{""event"":""blur"",""trial"":245,""time"":886015},{""event"":""focus"",""trial"":245,""time"":935501}]",NA,NA,NA,NA,NA,3,#D8271C,#741CD8,10,10,1,38,1,769,37,1,355,10,1,experiment,NA,NA,0,0.9,0.1,0,1,245,6,NA
fcp-trial,281,1044428,0.0-256.0-0.0,voc_e2,12128,"[{""event"":""fullscreenenter"",""trial"":1,""time"":4509},{""event"":""blur"",""trial"":20,""time"":132057},{""event"":""focus"",""trial"":20,""time"":136005},{""event"":""blur"",""trial"":245,""time"":886015},{""event"":""focus"",""trial"":245,""time"":935501}]",NA,NA,NA,NA,NA,5,#3386FF,#D89F1C,0,10,0,40,0,1923,37,1,440,0,0,experiment,NA,NA,2,0.5,0.5,5,4,246,6,NA
fcp-trial,282,1047708,0.0-257.0-0.0,voc_e2,12128,"[{""event"":""fullscreenenter"",""trial"":1,""time"":4509},{""event"":""blur"",""trial"":20,""time"":132057},{""event"":""focus"",""trial"":20,""time"":136005},{""event"":""blur"",""trial"":245,""time"":886015},{""event"":""focus"",""trial"":245,""time"":935501}]",NA,NA,NA,NA,NA,0,#1CD855,#FA92F8,0,0,1,38,1,1422,37,1,355,0,1,experiment,NA,NA,1,0.7,0.3,2,3,247,6,NA
fcp-trial,283,1050967,0.0-258.0-0.0,voc_e2,12128,"[{""event"":""fullscreenenter"",""trial"":1,""time"":4509},{""event"":""blur"",""trial"":20,""time"":132057},{""event"":""focus"",""trial"":20,""time"":136005},{""event"":""blur"",""trial"":245,""time"":886015},{""event"":""focus"",""trial"":245,""time"":935501}]",NA,NA,NA,NA,NA,3,#1CD855,#FA92F8,0,10,1,40,0,1314,37,1,441,0,1,experiment,NA,NA,1,0.7,0.3,2,3,248,6,NA
fcp-trial,284,1054203,0.0-259.0-0.0,voc_e2,12128,"[{""event"":""fullscreenenter"",""trial"":1,""time"":4509},{""event"":""blur"",""trial"":20,""time"":132057},{""event"":""focus"",""trial"":20,""time"":136005},{""event"":""blur"",""trial"":245,""time"":886015},{""event"":""focus"",""trial"":245,""time"":935501}]",NA,NA,NA,NA,NA,4,#D89F1C,#3386FF,0,0,1,40,0,1377,37,1,354,0,1,experiment,NA,NA,2,0.5,0.5,4,5,249,6,NA
fcp-trial,285,1056700,0.0-260.0-0.0,voc_e2,12128,"[{""event"":""fullscreenenter"",""trial"":1,""time"":4509},{""event"":""blur"",""trial"":20,""time"":132057},{""event"":""focus"",""trial"":20,""time"":136005},{""event"":""blur"",""trial"":245,""time"":886015},{""event"":""focus"",""trial"":245,""time"":935501}]",NA,NA,NA,NA,NA,1,#D8271C,#741CD8,10,0,1,38,1,616,37,1,376,10,1,experiment,NA,NA,0,0.9,0.1,0,1,250,6,NA
fcp-trial,286,1059591,0.0-261.0-0.0,voc_e2,12128,"[{""event"":""fullscreenenter"",""trial"":1,""time"":4509},{""event"":""blur"",""trial"":20,""time"":132057},{""event"":""focus"",""trial"":20,""time"":136005},{""event"":""blur"",""trial"":245,""time"":886015},{""event"":""focus"",""trial"":245,""time"":935501}]",NA,NA,NA,NA,NA,0,#741CD8,#D8271C,0,10,0,40,0,466,39,0,923,10,1,experiment,NA,NA,0,0.1,0.9,1,0,251,6,NA
fcp-trial,287,1062634,0.0-262.0-0.0,voc_e2,12128,"[{""event"":""fullscreenenter"",""trial"":1,""time"":4509},{""event"":""blur"",""trial"":20,""time"":132057},{""event"":""focus"",""trial"":20,""time"":136005},{""event"":""blur"",""trial"":245,""time"":886015},{""event"":""focus"",""trial"":245,""time"":935501}]",NA,NA,NA,NA,NA,3,#D89F1C,#3386FF,0,0,1,40,0,1072,39,0,466,0,0,experiment,NA,NA,2,0.5,0.5,4,5,252,6,NA
fcp-trial,288,1065501,0.0-263.0-0.0,voc_e2,12128,"[{""event"":""fullscreenenter"",""trial"":1,""time"":4509},{""event"":""blur"",""trial"":20,""time"":132057},{""event"":""focus"",""trial"":20,""time"":136005},{""event"":""blur"",""trial"":245,""time"":886015},{""event"":""focus"",""trial"":245,""time"":935501}]",NA,NA,NA,NA,NA,3,#D89F1C,#3386FF,10,0,1,40,0,874,39,0,488,0,0,experiment,NA,NA,2,0.5,0.5,4,5,253,6,NA
fcp-trial,289,1068409,0.0-264.0-0.0,voc_e2,12128,"[{""event"":""fullscreenenter"",""trial"":1,""time"":4509},{""event"":""blur"",""trial"":20,""time"":132057},{""event"":""focus"",""trial"":20,""time"":136005},{""event"":""blur"",""trial"":245,""time"":886015},{""event"":""focus"",""trial"":245,""time"":935501}]",NA,NA,NA,NA,NA,2,#FA92F8,#1CD855,10,0,0,40,0,941,37,1,464,10,0,experiment,NA,NA,1,0.3,0.7,3,2,254,6,NA
fcp-trial,290,1071104,0.0-265.0-0.0,voc_e2,12128,"[{""event"":""fullscreenenter"",""trial"":1,""time"":4509},{""event"":""blur"",""trial"":20,""time"":132057},{""event"":""focus"",""trial"":20,""time"":136005},{""event"":""blur"",""trial"":245,""time"":886015},{""event"":""focus"",""trial"":245,""time"":935501}]",NA,NA,NA,NA,NA,5,#3386FF,#D89F1C,0,0,0,40,0,748,37,1,443,0,0,experiment,NA,NA,2,0.5,0.5,5,4,255,6,NA
fcp-trial,291,1073732,0.0-266.0-0.0,voc_e2,12128,"[{""event"":""fullscreenenter"",""trial"":1,""time"":4509},{""event"":""blur"",""trial"":20,""time"":132057},{""event"":""focus"",""trial"":20,""time"":136005},{""event"":""blur"",""trial"":245,""time"":886015},{""event"":""focus"",""trial"":245,""time"":935501}]",NA,NA,NA,NA,NA,5,#741CD8,#D8271C,0,10,0,38,1,637,39,0,488,10,1,experiment,NA,NA,0,0.1,0.9,1,0,256,6,NA
fcp-trial,292,1076601,0.0-267.0-0.0,voc_e2,12128,"[{""event"":""fullscreenenter"",""trial"":1,""time"":4509},{""event"":""blur"",""trial"":20,""time"":132057},{""event"":""focus"",""trial"":20,""time"":136005},{""event"":""blur"",""trial"":245,""time"":886015},{""event"":""focus"",""trial"":245,""time"":935501}]",NA,NA,NA,NA,NA,6,#1CD855,#FA92F8,10,0,1,40,0,876,39,0,489,0,0,experiment,NA,NA,1,0.7,0.3,2,3,257,6,NA
fcp-trial,293,1079073,0.0-268.0-0.0,voc_e2,12128,"[{""event"":""fullscreenenter"",""trial"":1,""time"":4509},{""event"":""blur"",""trial"":20,""time"":132057},{""event"":""focus"",""trial"":20,""time"":136005},{""event"":""blur"",""trial"":245,""time"":886015},{""event"":""focus"",""trial"":245,""time"":935501}]",NA,NA,NA,NA,NA,1,#D8271C,#741CD8,0,0,1,38,1,568,37,1,398,0,1,experiment,NA,NA,0,0.9,0.1,0,1,258,6,NA
fcp-trial,294,1081916,0.0-269.0-0.0,voc_e2,12128,"[{""event"":""fullscreenenter"",""trial"":1,""time"":4509},{""event"":""blur"",""trial"":20,""time"":132057},{""event"":""focus"",""trial"":20,""time"":136005},{""event"":""blur"",""trial"":245,""time"":886015},{""event"":""focus"",""trial"":245,""time"":935501}]",NA,NA,NA,NA,NA,0,#1CD855,#FA92F8,10,10,1,38,1,833,37,1,507,10,1,experiment,NA,NA,1,0.7,0.3,2,3,259,6,NA
fcp-trial,295,1084674,0.0-270.0-0.0,voc_e2,12128,"[{""event"":""fullscreenenter"",""trial"":1,""time"":4509},{""event"":""blur"",""trial"":20,""time"":132057},{""event"":""focus"",""trial"":20,""time"":136005},{""event"":""blur"",""trial"":245,""time"":886015},{""event"":""focus"",""trial"":245,""time"":935501}]",NA,NA,NA,NA,NA,2,#3386FF,#D89F1C,10,10,0,40,0,791,37,1,464,10,0,experiment,NA,NA,2,0.5,0.5,5,4,260,6,NA
fcp-trial,296,1087392,0.0-271.0-0.0,voc_e2,12128,"[{""event"":""fullscreenenter"",""trial"":1,""time"":4509},{""event"":""blur"",""trial"":20,""time"":132057},{""event"":""focus"",""trial"":20,""time"":136005},{""event"":""blur"",""trial"":245,""time"":886015},{""event"":""focus"",""trial"":245,""time"":935501}]",NA,NA,NA,NA,NA,3,#FA92F8,#1CD855,0,0,0,38,1,747,39,0,466,0,1,experiment,NA,NA,1,0.3,0.7,3,2,261,6,NA
fcp-trial,297,1089908,0.0-272.0-0.0,voc_e2,12128,"[{""event"":""fullscreenenter"",""trial"":1,""time"":4509},{""event"":""blur"",""trial"":20,""time"":132057},{""event"":""focus"",""trial"":20,""time"":136005},{""event"":""blur"",""trial"":245,""time"":886015},{""event"":""focus"",""trial"":245,""time"":935501}]",NA,NA,NA,NA,NA,2,#D8271C,#741CD8,10,0,1,38,1,548,37,1,464,10,1,experiment,NA,NA,0,0.9,0.1,0,1,262,6,NA
fcp-trial,298,1092819,0.0-273.0-0.0,voc_e2,12128,"[{""event"":""fullscreenenter"",""trial"":1,""time"":4509},{""event"":""blur"",""trial"":20,""time"":132057},{""event"":""focus"",""trial"":20,""time"":136005},{""event"":""blur"",""trial"":245,""time"":886015},{""event"":""focus"",""trial"":245,""time"":935501}]",NA,NA,NA,NA,NA,1,#1CD855,#FA92F8,0,0,1,40,0,943,37,1,464,0,1,experiment,NA,NA,1,0.7,0.3,2,3,263,6,NA
fcp-trial,299,1095990,0.0-274.0-0.0,voc_e2,12128,"[{""event"":""fullscreenenter"",""trial"":1,""time"":4509},{""event"":""blur"",""trial"":20,""time"":132057},{""event"":""focus"",""trial"":20,""time"":136005},{""event"":""blur"",""trial"":245,""time"":886015},{""event"":""focus"",""trial"":245,""time"":935501}]",NA,NA,NA,NA,NA,4,#D89F1C,#3386FF,0,10,1,40,0,1334,37,1,333,0,1,experiment,NA,NA,2,0.5,0.5,4,5,264,6,NA
fcp-trial,300,1098638,0.0-275.0-0.0,voc_e2,12128,"[{""event"":""fullscreenenter"",""trial"":1,""time"":4509},{""event"":""blur"",""trial"":20,""time"":132057},{""event"":""focus"",""trial"":20,""time"":136005},{""event"":""blur"",""trial"":245,""time"":886015},{""event"":""focus"",""trial"":245,""time"":935501}]",NA,NA,NA,NA,NA,3,#D8271C,#741CD8,10,0,1,38,1,768,37,1,376,10,1,experiment,NA,NA,0,0.9,0.1,0,1,265,6,NA
fcp-trial,301,1101376,0.0-276.0-0.0,voc_e2,12128,"[{""event"":""fullscreenenter"",""trial"":1,""time"":4509},{""event"":""blur"",""trial"":20,""time"":132057},{""event"":""focus"",""trial"":20,""time"":136005},{""event"":""blur"",""trial"":245,""time"":886015},{""event"":""focus"",""trial"":245,""time"":935501}]",NA,NA,NA,NA,NA,6,#D89F1C,#3386FF,10,0,1,40,0,878,37,1,355,10,1,experiment,NA,NA,2,0.5,0.5,4,5,266,6,NA
fcp-trial,302,1104355,0.0-277.0-0.0,voc_e2,12128,"[{""event"":""fullscreenenter"",""trial"":1,""time"":4509},{""event"":""blur"",""trial"":20,""time"":132057},{""event"":""focus"",""trial"":20,""time"":136005},{""event"":""blur"",""trial"":245,""time"":886015},{""event"":""focus"",""trial"":245,""time"":935501}]",NA,NA,NA,NA,NA,1,#D89F1C,#3386FF,0,10,1,40,0,987,39,0,489,10,0,experiment,NA,NA,2,0.5,0.5,4,5,267,6,NA
