trial_type,trial_index,time_elapsed,internal_node_id,task_version,subject_id,interactions,success,rt,stimulus,key_press,button_pressed,offer,arcade_color_L,arcade_color_R,arcade_outcome_L,arcade_outcome_R,correct,stage_1_key,stage_1_choice,stage_1_rt,stage_2_key,stage_2_choice,stage_2_rt,stage_3_outcome,accuracy,phase,responses,num_errors,context,reward_prob_L,reward_prob_R,arcade_id_L,arcade_id_R,trial,block,response
pavlovia,0,7,0.0-0.0,voc_e2,12279,[],NA,NA,NA,NA,NA,NA,NA,NA,NA,NA,NA,NA,NA,NA,NA,NA,NA,NA,NA,NA,NA,NA,NA,NA,NA,NA,NA,NA,NA,NA
fullscreen,1,2273,0.0-1.0,voc_e2,12279,"[{""event"":""fullscreenenter"",""trial"":1,""time"":1288}]",TRUE,NA,NA,NA,NA,NA,NA,NA,NA,NA,NA,NA,NA,NA,NA,NA,NA,NA,NA,NA,NA,NA,NA,NA,NA,NA,NA,NA,NA,NA
audio-keyboard-response,2,5134,0.0-2.0,voc_e2,12279,"[{""event"":""fullscreenenter"",""trial"":1,""time"":1288}]",NA,2829,static/audio/beep_loop.wav,32,NA,NA,NA,NA,NA,NA,NA,NA,NA,NA,NA,NA,NA,NA,NA,NA,NA,NA,NA,NA,NA,NA,NA,NA,NA,NA
audio-test,3,6523,0.0-3.0,voc_e2,12279,"[{""event"":""fullscreenenter"",""trial"":1,""time"":1288}]",NA,NA,static/audio/turtle.wav,NA,3,NA,NA,NA,NA,NA,NA,NA,NA,NA,NA,NA,NA,NA,NA,NA,NA,NA,NA,NA,NA,NA,NA,NA,NA,NA
audio-test,4,8566,0.0-4.0,voc_e2,12279,"[{""event"":""fullscreenenter"",""trial"":1,""time"":1288}]",NA,NA,static/audio/shark.wav,NA,2,NA,NA,NA,NA,NA,NA,NA,NA,NA,NA,NA,NA,NA,NA,NA,NA,NA,NA,NA,NA,NA,NA,NA,NA,NA
audio-instructions,5,16225,0.0-5.0-0.0,voc_e2,12279,"[{""event"":""fullscreenenter"",""trial"":1,""time"":1288}]",NA,1864,static/audio/instructions1.wav,NA,0,NA,NA,NA,NA,NA,NA,NA,NA,NA,NA,NA,NA,NA,NA,NA,NA,NA,NA,NA,NA,NA,NA,NA,NA,NA
audio-instructions,6,24654,0.0-5.0-1.0,voc_e2,12279,"[{""event"":""fullscreenenter"",""trial"":1,""time"":1288}]",NA,1692.9000000003723,static/audio/instructions2.wav,NA,0,NA,NA,NA,NA,NA,NA,NA,NA,NA,NA,NA,NA,NA,NA,NA,NA,NA,NA,NA,NA,NA,NA,NA,NA,NA
audio-instructions,7,32707,0.0-5.0-2.0,voc_e2,12279,"[{""event"":""fullscreenenter"",""trial"":1,""time"":1288}]",NA,2245.4000000003725,static/audio/instructions3.wav,NA,0,NA,NA,NA,NA,NA,NA,NA,NA,NA,NA,NA,NA,NA,NA,NA,NA,NA,NA,NA,NA,NA,NA,NA,NA,NA
audio-instructions,8,46723,0.0-5.0-3.0,voc_e2,12279,"[{""event"":""fullscreenenter"",""trial"":1,""time"":1288}]",NA,787.2000000011176,static/audio/instructions4.wav,NA,0,NA,NA,NA,NA,NA,NA,NA,NA,NA,NA,NA,NA,NA,NA,NA,NA,NA,NA,NA,NA,NA,NA,NA,NA,NA
audio-instructions,9,57228,0.0-5.0-4.0,voc_e2,12279,"[{""event"":""fullscreenenter"",""trial"":1,""time"":1288}]",NA,1114.0999999996277,static/audio/instructions5.wav,NA,0,NA,NA,NA,NA,NA,NA,NA,NA,NA,NA,NA,NA,NA,NA,NA,NA,NA,NA,NA,NA,NA,NA,NA,NA,NA
fcp-practice,10,59854,0.0-5.0-5.0-0.0,voc_e2,12279,"[{""event"":""fullscreenenter"",""trial"":1,""time"":1288}]",NA,NA,NA,NA,NA,NA,#EDC948,#46d3c8,10,0,1,null,null,null,37,1,1106.5,10,1,practice,NA,NA,NA,NA,NA,NA,NA,NA,NA,NA
fcp-practice,11,61673,0.0-5.0-5.0-1.0,voc_e2,12279,"[{""event"":""fullscreenenter"",""trial"":1,""time"":1288}]",NA,NA,NA,NA,NA,NA,#EDC948,#46d3c8,10,0,1,null,null,null,37,1,310.80000000074506,10,1,practice,NA,NA,NA,NA,NA,NA,NA,NA,NA,NA
fcp-practice,12,63695,0.0-5.0-5.0-2.0,voc_e2,12279,"[{""event"":""fullscreenenter"",""trial"":1,""time"":1288}]",NA,NA,NA,NA,NA,NA,#EDC948,#46d3c8,0,10,1,null,null,null,37,1,515.0999999996275,0,1,practice,NA,NA,NA,NA,NA,NA,NA,NA,NA,NA
fcp-practice,13,65503,0.0-5.0-5.0-3.0,voc_e2,12279,"[{""event"":""fullscreenenter"",""trial"":1,""time"":1288}]",NA,NA,NA,NA,NA,NA,#EDC948,#46d3c8,10,0,1,null,null,null,37,1,302.2999999988824,10,1,practice,NA,NA,NA,NA,NA,NA,NA,NA,NA,NA
fcp-practice,14,67395,0.0-5.0-5.0-4.0,voc_e2,12279,"[{""event"":""fullscreenenter"",""trial"":1,""time"":1288}]",NA,NA,NA,NA,NA,NA,#EDC948,#46d3c8,10,0,1,null,null,null,37,1,373.8999999985099,10,1,practice,NA,NA,NA,NA,NA,NA,NA,NA,NA,NA
audio-instructions,15,86245,0.0-5.0-6.0,voc_e2,12279,"[{""event"":""fullscreenenter"",""trial"":1,""time"":1288}]",NA,839.0999999996275,static/audio/instructions6.wav,NA,0,NA,NA,NA,NA,NA,NA,NA,NA,NA,NA,NA,NA,NA,NA,NA,NA,NA,NA,NA,NA,NA,NA,NA,NA,NA
audio-instructions,16,107726,0.0-5.0-7.0,voc_e2,12279,"[{""event"":""fullscreenenter"",""trial"":1,""time"":1288},{""event"":""blur"",""trial"":16,""time"":102737},{""event"":""focus"",""trial"":16,""time"":107590}]",NA,2280.5,static/audio/instructions7.wav,NA,0,NA,NA,NA,NA,NA,NA,NA,NA,NA,NA,NA,NA,NA,NA,NA,NA,NA,NA,NA,NA,NA,NA,NA,NA,NA
audio-instructions,17,118734,0.0-5.0-8.0,voc_e2,12279,"[{""event"":""fullscreenenter"",""trial"":1,""time"":1288},{""event"":""blur"",""trial"":16,""time"":102737},{""event"":""focus"",""trial"":16,""time"":107590}]",NA,1529.0999999996277,static/audio/instructions8.wav,NA,0,NA,NA,NA,NA,NA,NA,NA,NA,NA,NA,NA,NA,NA,NA,NA,NA,NA,NA,NA,NA,NA,NA,NA,NA,NA
fcp-comprehension,18,127881,0.0-5.0-9.0,voc_e2,12279,"[{""event"":""fullscreenenter"",""trial"":1,""time"":1288},{""event"":""blur"",""trial"":16,""time"":102737},{""event"":""focus"",""trial"":16,""time"":107590}]",NA,9145.200000001118,NA,NA,NA,NA,NA,NA,NA,NA,NA,NA,NA,NA,NA,NA,NA,NA,NA,NA,"true,true",0,NA,NA,NA,NA,NA,NA,NA,NA
audio-instructions,19,134747,0.0-6.0-0.0,voc_e2,12279,"[{""event"":""fullscreenenter"",""trial"":1,""time"":1288},{""event"":""blur"",""trial"":16,""time"":102737},{""event"":""focus"",""trial"":16,""time"":107590}]",NA,1310.9000000003723,static/audio/instructions9.wav,NA,0,NA,NA,NA,NA,NA,NA,NA,NA,NA,NA,NA,NA,NA,NA,NA,NA,NA,NA,NA,NA,NA,NA,NA,NA,NA
audio-instructions,20,149658,0.0-6.0-1.0,voc_e2,12279,"[{""event"":""fullscreenenter"",""trial"":1,""time"":1288},{""event"":""blur"",""trial"":16,""time"":102737},{""event"":""focus"",""trial"":16,""time"":107590}]",NA,2792.5,static/audio/instructions10.wav,NA,0,NA,NA,NA,NA,NA,NA,NA,NA,NA,NA,NA,NA,NA,NA,NA,NA,NA,NA,NA,NA,NA,NA,NA,NA,NA
fcp-trial,21,157775,0.0-6.0-2.0,voc_e2,12279,"[{""event"":""fullscreenenter"",""trial"":1,""time"":1288},{""event"":""blur"",""trial"":16,""time"":102737},{""event"":""focus"",""trial"":16,""time"":107590}]",NA,NA,NA,NA,NA,0,#EDC948,#46d3c8,10,10,1,38,1,4431.699999999255,37,1,2166.300000000745,10,1,practice,NA,NA,NA,NA,NA,NA,NA,NA,NA,NA
audio-instructions,22,175564,0.0-6.0-3.0,voc_e2,12279,"[{""event"":""fullscreenenter"",""trial"":1,""time"":1288},{""event"":""blur"",""trial"":16,""time"":102737},{""event"":""focus"",""trial"":16,""time"":107590}]",NA,6779.700000001118,static/audio/instructions11.wav,NA,0,NA,NA,NA,NA,NA,NA,NA,NA,NA,NA,NA,NA,NA,NA,NA,NA,NA,NA,NA,NA,NA,NA,NA,NA,NA
fcp-trial,23,179870,0.0-6.0-4.0,voc_e2,12279,"[{""event"":""fullscreenenter"",""trial"":1,""time"":1288},{""event"":""blur"",""trial"":16,""time"":102737},{""event"":""focus"",""trial"":16,""time"":107590}]",NA,NA,NA,NA,NA,6,#EDC948,#46d3c8,10,10,1,40,0,1480.4000000003725,37,1,1316.2999999988824,10,1,practice,NA,NA,NA,NA,NA,NA,NA,NA,NA,NA
audio-instructions,24,200516,0.0-6.0-5.0,voc_e2,12279,"[{""event"":""fullscreenenter"",""trial"":1,""time"":1288},{""event"":""blur"",""trial"":16,""time"":102737},{""event"":""focus"",""trial"":16,""time"":107590}]",NA,1961.800000000745,static/audio/instructions12.wav,NA,0,NA,NA,NA,NA,NA,NA,NA,NA,NA,NA,NA,NA,NA,NA,NA,NA,NA,NA,NA,NA,NA,NA,NA,NA,NA
audio-instructions,25,210848,0.0-6.0-6.0,voc_e2,12279,"[{""event"":""fullscreenenter"",""trial"":1,""time"":1288},{""event"":""blur"",""trial"":16,""time"":102737},{""event"":""focus"",""trial"":16,""time"":107590}]",NA,2733.5999999996275,static/audio/instructions13.wav,NA,0,NA,NA,NA,NA,NA,NA,NA,NA,NA,NA,NA,NA,NA,NA,NA,NA,NA,NA,NA,NA,NA,NA,NA,NA,NA
audio-instructions,26,221138,0.0-6.0-7.0,voc_e2,12279,"[{""event"":""fullscreenenter"",""trial"":1,""time"":1288},{""event"":""blur"",""trial"":16,""time"":102737},{""event"":""focus"",""trial"":16,""time"":107590}]",NA,1843.4000000003723,static/audio/instructions14.wav,NA,0,NA,NA,NA,NA,NA,NA,NA,NA,NA,NA,NA,NA,NA,NA,NA,NA,NA,NA,NA,NA,NA,NA,NA,NA,NA
audio-instructions,27,229040,0.0-7.0-0.0,voc_e2,12279,"[{""event"":""fullscreenenter"",""trial"":1,""time"":1288},{""event"":""blur"",""trial"":16,""time"":102737},{""event"":""focus"",""trial"":16,""time"":107590}]",NA,995.4000000003724,static/audio/instructions15.wav,NA,0,NA,NA,NA,NA,NA,NA,NA,NA,NA,NA,NA,NA,NA,NA,NA,NA,NA,NA,NA,NA,NA,NA,NA,NA,NA
audio-instructions,28,237252,0.0-7.0-1.0,voc_e2,12279,"[{""event"":""fullscreenenter"",""trial"":1,""time"":1288},{""event"":""blur"",""trial"":16,""time"":102737},{""event"":""focus"",""trial"":16,""time"":107590}]",NA,1387,static/audio/instructions16.wav,NA,0,NA,NA,NA,NA,NA,NA,NA,NA,NA,NA,NA,NA,NA,NA,NA,NA,NA,NA,NA,NA,NA,NA,NA,NA,NA
audio-instructions,29,245734,0.0-7.0-2.0,voc_e2,12279,"[{""event"":""fullscreenenter"",""trial"":1,""time"":1288},{""event"":""blur"",""trial"":16,""time"":102737},{""event"":""focus"",""trial"":16,""time"":107590}]",NA,799.5,static/audio/instructions17.wav,NA,0,NA,NA,NA,NA,NA,NA,NA,NA,NA,NA,NA,NA,NA,NA,NA,NA,NA,NA,NA,NA,NA,NA,NA,NA,NA
audio-instructions,30,254178,0.0-7.0-3.0,voc_e2,12279,"[{""event"":""fullscreenenter"",""trial"":1,""time"":1288},{""event"":""blur"",""trial"":16,""time"":102737},{""event"":""focus"",""trial"":16,""time"":107590}]",NA,674.4000000003725,static/audio/instructions18.wav,NA,0,NA,NA,NA,NA,NA,NA,NA,NA,NA,NA,NA,NA,NA,NA,NA,NA,NA,NA,NA,NA,NA,NA,NA,NA,NA
audio-instructions,31,261445,0.0-7.0-4.0,voc_e2,12279,"[{""event"":""fullscreenenter"",""trial"":1,""time"":1288},{""event"":""blur"",""trial"":16,""time"":102737},{""event"":""focus"",""trial"":16,""time"":107590}]",NA,530.7000000011176,static/audio/instructions19.wav,NA,0,NA,NA,NA,NA,NA,NA,NA,NA,NA,NA,NA,NA,NA,NA,NA,NA,NA,NA,NA,NA,NA,NA,NA,NA,NA
fcp-comprehension,32,272430,0.0-7.0-5.0,voc_e2,12279,"[{""event"":""fullscreenenter"",""trial"":1,""time"":1288},{""event"":""blur"",""trial"":16,""time"":102737},{""event"":""focus"",""trial"":16,""time"":107590}]",NA,10983.200000001118,NA,NA,NA,NA,NA,NA,NA,NA,NA,NA,NA,NA,NA,NA,NA,NA,NA,NA,"false,false,false,true",0,NA,NA,NA,NA,NA,NA,NA,NA
audio-instructions,33,283008,0.0-8.0,voc_e2,12279,"[{""event"":""fullscreenenter"",""trial"":1,""time"":1288},{""event"":""blur"",""trial"":16,""time"":102737},{""event"":""focus"",""trial"":16,""time"":107590}]",NA,1355.699999999255,static/audio/ready.wav,NA,0,NA,NA,NA,NA,NA,NA,NA,NA,NA,NA,NA,NA,NA,NA,NA,NA,NA,NA,NA,NA,NA,NA,NA,NA,NA
fcp-trial,34,287984,0.0-9.0-0.0,voc_e2,12279,"[{""event"":""fullscreenenter"",""trial"":1,""time"":1288},{""event"":""blur"",""trial"":16,""time"":102737},{""event"":""focus"",""trial"":16,""time"":107590}]",NA,NA,NA,NA,NA,1,#741CD8,#D8271C,10,0,1,40,0,1838.0999999996275,37,1,1631.2999999988824,10,1,experiment,NA,NA,2,0.5,0.5,4,5,1,1,NA
fcp-trial,35,290981,0.0-10.0-0.0,voc_e2,12279,"[{""event"":""fullscreenenter"",""trial"":1,""time"":1288},{""event"":""blur"",""trial"":16,""time"":102737},{""event"":""focus"",""trial"":16,""time"":107590}]",NA,NA,NA,NA,NA,2,#3386FF,#D89F1C,0,0,1,40,0,973.5999999996275,39,0,515.9000000003725,0,0,experiment,NA,NA,1,0.7,0.3,2,3,2,1,NA
fcp-trial,36,294479,0.0-11.0-0.0,voc_e2,12279,"[{""event"":""fullscreenenter"",""trial"":1,""time"":1288},{""event"":""blur"",""trial"":16,""time"":102737},{""event"":""focus"",""trial"":16,""time"":107590}]",NA,NA,NA,NA,NA,5,#1CD855,#FA92F8,0,10,0,40,0,794.4000000003725,37,1,1188.5,0,0,experiment,NA,NA,0,0.1,0.9,1,0,3,1,NA
fcp-trial,37,297364,0.0-12.0-0.0,voc_e2,12279,"[{""event"":""fullscreenenter"",""trial"":1,""time"":1288},{""event"":""blur"",""trial"":16,""time"":102737},{""event"":""focus"",""trial"":16,""time"":107590}]",NA,NA,NA,NA,NA,2,#D8271C,#741CD8,10,10,0,40,0,789.2000000011176,37,1,575.8000000007451,10,0,experiment,NA,NA,2,0.5,0.5,5,4,4,1,NA
fcp-trial,38,300014,0.0-13.0-0.0,voc_e2,12279,"[{""event"":""fullscreenenter"",""trial"":1,""time"":1288},{""event"":""blur"",""trial"":16,""time"":102737},{""event"":""focus"",""trial"":16,""time"":107590}]",NA,NA,NA,NA,NA,6,#3386FF,#D89F1C,10,0,1,40,0,689.6999999992549,39,0,447.0999999996274,0,0,experiment,NA,NA,1,0.7,0.3,2,3,5,1,NA
fcp-trial,39,302979,0.0-14.0-0.0,voc_e2,12279,"[{""event"":""fullscreenenter"",""trial"":1,""time"":1288},{""event"":""blur"",""trial"":16,""time"":102737},{""event"":""focus"",""trial"":16,""time"":107590}]",NA,NA,NA,NA,NA,0,#3386FF,#D89F1C,10,0,1,38,1,816.8000000007451,37,1,638.9000000003725,10,1,experiment,NA,NA,1,0.7,0.3,2,3,6,1,NA
fcp-trial,40,305565,0.0-15.0-0.0,voc_e2,12279,"[{""event"":""fullscreenenter"",""trial"":1,""time"":1288},{""event"":""blur"",""trial"":16,""time"":102737},{""event"":""focus"",""trial"":16,""time"":107590}]",NA,NA,NA,NA,NA,2,#FA92F8,#1CD855,10,0,1,40,0,639.4000000003725,37,1,434.9000000003726,10,1,experiment,NA,NA,0,0.9,0.1,0,1,7,1,NA
fcp-trial,41,308363,0.0-16.0-0.0,voc_e2,12279,"[{""event"":""fullscreenenter"",""trial"":1,""time"":1288},{""event"":""blur"",""trial"":16,""time"":102737},{""event"":""focus"",""trial"":16,""time"":107590}]",NA,NA,NA,NA,NA,4,#741CD8,#D8271C,10,0,1,40,0,666,39,0,609.8000000007451,0,0,experiment,NA,NA,2,0.5,0.5,4,5,8,1,NA
fcp-trial,42,311215,0.0-17.0-0.0,voc_e2,12279,"[{""event"":""fullscreenenter"",""trial"":1,""time"":1288},{""event"":""blur"",""trial"":16,""time"":102737},{""event"":""focus"",""trial"":16,""time"":107590}]",NA,NA,NA,NA,NA,1,#3386FF,#D89F1C,10,10,1,40,0,887.9000000003725,39,0,451.4000000003726,10,0,experiment,NA,NA,1,0.7,0.3,2,3,9,1,NA
fcp-trial,43,313869,0.0-18.0-0.0,voc_e2,12279,"[{""event"":""fullscreenenter"",""trial"":1,""time"":1288},{""event"":""blur"",""trial"":16,""time"":102737},{""event"":""focus"",""trial"":16,""time"":107590}]",NA,NA,NA,NA,NA,5,#741CD8,#D8271C,0,10,1,40,0,663,39,0,486.1000000014901,10,0,experiment,NA,NA,2,0.5,0.5,4,5,10,1,NA
fcp-trial,44,316973,0.0-19.0-0.0,voc_e2,12279,"[{""event"":""fullscreenenter"",""trial"":1,""time"":1288},{""event"":""blur"",""trial"":16,""time"":102737},{""event"":""focus"",""trial"":16,""time"":107590}]",NA,NA,NA,NA,NA,0,#D8271C,#741CD8,0,10,0,38,1,779.7999999988824,37,1,820.9000000003725,0,0,experiment,NA,NA,2,0.5,0.5,5,4,11,1,NA
fcp-trial,45,319557,0.0-20.0-0.0,voc_e2,12279,"[{""event"":""fullscreenenter"",""trial"":1,""time"":1288},{""event"":""blur"",""trial"":16,""time"":102737},{""event"":""focus"",""trial"":16,""time"":107590}]",NA,NA,NA,NA,NA,3,#FA92F8,#1CD855,10,0,1,40,0,656.6000000014901,39,0,423.1000000014901,0,0,experiment,NA,NA,0,0.9,0.1,0,1,12,1,NA
fcp-trial,46,322414,0.0-21.0-0.0,voc_e2,12279,"[{""event"":""fullscreenenter"",""trial"":1,""time"":1288},{""event"":""blur"",""trial"":16,""time"":102737},{""event"":""focus"",""trial"":16,""time"":107590}]",NA,NA,NA,NA,NA,1,#1CD855,#FA92F8,10,10,0,38,1,927.4000000003725,39,0,425,10,1,experiment,NA,NA,0,0.1,0.9,1,0,13,1,NA
fcp-trial,47,324925,0.0-22.0-0.0,voc_e2,12279,"[{""event"":""fullscreenenter"",""trial"":1,""time"":1288},{""event"":""blur"",""trial"":16,""time"":102737},{""event"":""focus"",""trial"":16,""time"":107590}]",NA,NA,NA,NA,NA,3,#3386FF,#D89F1C,10,0,1,40,0,632.0999999996275,39,0,375.6000000014901,0,0,experiment,NA,NA,1,0.7,0.3,2,3,14,1,NA
fcp-trial,48,327389,0.0-23.0-0.0,voc_e2,12279,"[{""event"":""fullscreenenter"",""trial"":1,""time"":1288},{""event"":""blur"",""trial"":16,""time"":102737},{""event"":""focus"",""trial"":16,""time"":107590}]",NA,NA,NA,NA,NA,3,#D8271C,#741CD8,10,10,0,40,0,535.3999999985099,37,1,423.19999999925494,10,0,experiment,NA,NA,2,0.5,0.5,5,4,15,1,NA
fcp-trial,49,330027,0.0-24.0-0.0,voc_e2,12279,"[{""event"":""fullscreenenter"",""trial"":1,""time"":1288},{""event"":""blur"",""trial"":16,""time"":102737},{""event"":""focus"",""trial"":16,""time"":107590}]",NA,NA,NA,NA,NA,4,#D89F1C,#3386FF,0,10,0,40,0,751.2000000011176,37,1,383.30000000074506,0,0,experiment,NA,NA,1,0.3,0.7,3,2,16,1,NA
fcp-trial,50,332862,0.0-25.0-0.0,voc_e2,12279,"[{""event"":""fullscreenenter"",""trial"":1,""time"":1288},{""event"":""blur"",""trial"":16,""time"":102737},{""event"":""focus"",""trial"":16,""time"":107590}]",NA,NA,NA,NA,NA,0,#FA92F8,#1CD855,0,0,1,38,1,809.8999999985099,39,0,519.9000000003725,0,0,experiment,NA,NA,0,0.9,0.1,0,1,17,1,NA
fcp-trial,51,336502,0.0-26.0-0.0,voc_e2,12279,"[{""event"":""fullscreenenter"",""trial"":1,""time"":1288},{""event"":""blur"",""trial"":16,""time"":102737},{""event"":""focus"",""trial"":16,""time"":107590}]",NA,NA,NA,NA,NA,4,#1CD855,#FA92F8,0,10,0,40,0,752.7999999988824,39,0,1376.300000000745,10,1,experiment,NA,NA,0,0.1,0.9,1,0,18,1,NA
fcp-trial,52,339128,0.0-27.0-0.0,voc_e2,12279,"[{""event"":""fullscreenenter"",""trial"":1,""time"":1288},{""event"":""blur"",""trial"":16,""time"":102737},{""event"":""focus"",""trial"":16,""time"":107590}]",NA,NA,NA,NA,NA,6,#D8271C,#741CD8,10,0,0,40,0,697.5,39,0,422.5,0,1,experiment,NA,NA,2,0.5,0.5,5,4,19,1,NA
fcp-trial,53,341622,0.0-28.0-0.0,voc_e2,12279,"[{""event"":""fullscreenenter"",""trial"":1,""time"":1288},{""event"":""blur"",""trial"":16,""time"":102737},{""event"":""focus"",""trial"":16,""time"":107590}]",NA,NA,NA,NA,NA,5,#3386FF,#D89F1C,0,10,1,40,0,605,37,1,383.7999999988824,0,1,experiment,NA,NA,1,0.7,0.3,2,3,20,1,NA
fcp-trial,54,343976,0.0-29.0-0.0,voc_e2,12279,"[{""event"":""fullscreenenter"",""trial"":1,""time"":1288},{""event"":""blur"",""trial"":16,""time"":102737},{""event"":""focus"",""trial"":16,""time"":107590}]",NA,NA,NA,NA,NA,6,#1CD855,#FA92F8,0,10,0,40,0,479.69999999925494,39,0,358.69999999925494,10,1,experiment,NA,NA,0,0.1,0.9,1,0,21,1,NA
fcp-trial,55,347525,0.0-30.0-0.0,voc_e2,12279,"[{""event"":""fullscreenenter"",""trial"":1,""time"":1288},{""event"":""blur"",""trial"":16,""time"":102737},{""event"":""focus"",""trial"":16,""time"":107590}]",NA,NA,NA,NA,NA,1,#741CD8,#D8271C,10,0,1,38,1,1514.5,39,0,526.9000000003725,0,0,experiment,NA,NA,2,0.5,0.5,4,5,22,1,NA
fcp-trial,56,350676,0.0-31.0-0.0,voc_e2,12279,"[{""event"":""fullscreenenter"",""trial"":1,""time"":1288},{""event"":""blur"",""trial"":16,""time"":102737},{""event"":""focus"",""trial"":16,""time"":107590}]",NA,NA,NA,NA,NA,1,#FA92F8,#1CD855,10,0,1,38,1,1219.5999999996275,37,1,423.5,10,1,experiment,NA,NA,0,0.9,0.1,0,1,23,1,NA
fcp-trial,57,353702,0.0-32.0-0.0,voc_e2,12279,"[{""event"":""fullscreenenter"",""trial"":1,""time"":1288},{""event"":""blur"",""trial"":16,""time"":102737},{""event"":""focus"",""trial"":16,""time"":107590}]",NA,NA,NA,NA,NA,0,#D89F1C,#3386FF,0,10,0,38,1,1062.199999999255,39,0,454,10,1,experiment,NA,NA,1,0.3,0.7,3,2,24,1,NA
fcp-trial,58,356325,0.0-33.0-0.0,voc_e2,12279,"[{""event"":""fullscreenenter"",""trial"":1,""time"":1288},{""event"":""blur"",""trial"":16,""time"":102737},{""event"":""focus"",""trial"":16,""time"":107590}]",NA,NA,NA,NA,NA,4,#741CD8,#D8271C,10,10,1,40,0,704.6000000014901,37,1,413.9000000003726,10,1,experiment,NA,NA,2,0.5,0.5,4,5,25,1,NA
fcp-trial,59,358815,0.0-34.0-0.0,voc_e2,12279,"[{""event"":""fullscreenenter"",""trial"":1,""time"":1288},{""event"":""blur"",""trial"":16,""time"":102737},{""event"":""focus"",""trial"":16,""time"":107590}]",NA,NA,NA,NA,NA,3,#D89F1C,#3386FF,0,10,0,40,0,604,37,1,377.19999999925494,0,0,experiment,NA,NA,1,0.3,0.7,3,2,26,1,NA
fcp-trial,60,361495,0.0-35.0-0.0,voc_e2,12279,"[{""event"":""fullscreenenter"",""trial"":1,""time"":1288},{""event"":""blur"",""trial"":16,""time"":102737},{""event"":""focus"",""trial"":16,""time"":107590}]",NA,NA,NA,NA,NA,4,#FA92F8,#1CD855,10,10,1,40,0,655.6999999992549,39,0,519.5999999996275,10,0,experiment,NA,NA,0,0.9,0.1,0,1,27,1,NA
fcp-trial,61,364117,0.0-36.0-0.0,voc_e2,12279,"[{""event"":""fullscreenenter"",""trial"":1,""time"":1288},{""event"":""blur"",""trial"":16,""time"":102737},{""event"":""focus"",""trial"":16,""time"":107590}]",NA,NA,NA,NA,NA,2,#D89F1C,#3386FF,10,0,0,40,0,647.1999999992549,39,0,470,0,1,experiment,NA,NA,1,0.3,0.7,3,2,28,1,NA
fcp-trial,62,366669,0.0-37.0-0.0,voc_e2,12279,"[{""event"":""fullscreenenter"",""trial"":1,""time"":1288},{""event"":""blur"",""trial"":16,""time"":102737},{""event"":""focus"",""trial"":16,""time"":107590}]",NA,NA,NA,NA,NA,6,#3386FF,#D89F1C,10,0,1,40,0,615.6999999992549,39,0,430.5999999996274,0,0,experiment,NA,NA,1,0.7,0.3,2,3,29,1,NA
fcp-trial,63,369653,0.0-38.0-0.0,voc_e2,12279,"[{""event"":""fullscreenenter"",""trial"":1,""time"":1288},{""event"":""blur"",""trial"":16,""time"":102737},{""event"":""focus"",""trial"":16,""time"":107590}]",NA,NA,NA,NA,NA,0,#D8271C,#741CD8,0,10,0,38,1,993.5999999996275,39,0,475,10,1,experiment,NA,NA,2,0.5,0.5,5,4,30,1,NA
fcp-trial,64,372253,0.0-39.0-0.0,voc_e2,12279,"[{""event"":""fullscreenenter"",""trial"":1,""time"":1288},{""event"":""blur"",""trial"":16,""time"":102737},{""event"":""focus"",""trial"":16,""time"":107590}]",NA,NA,NA,NA,NA,6,#1CD855,#FA92F8,0,10,0,40,0,697.0999999996275,37,1,398.5999999996274,0,0,experiment,NA,NA,0,0.1,0.9,1,0,31,1,NA
fcp-trial,65,375150,0.0-40.0-0.0,voc_e2,12279,"[{""event"":""fullscreenenter"",""trial"":1,""time"":1288},{""event"":""blur"",""trial"":16,""time"":102737},{""event"":""focus"",""trial"":16,""time"":107590}]",NA,NA,NA,NA,NA,5,#FA92F8,#1CD855,10,0,1,40,0,728.1999999992549,37,1,663.3000000007451,10,1,experiment,NA,NA,0,0.9,0.1,0,1,32,1,NA
fcp-trial,66,377853,0.0-41.0-0.0,voc_e2,12279,"[{""event"":""fullscreenenter"",""trial"":1,""time"":1288},{""event"":""blur"",""trial"":16,""time"":102737},{""event"":""focus"",""trial"":16,""time"":107590}]",NA,NA,NA,NA,NA,5,#D89F1C,#3386FF,10,0,0,40,0,728.0999999996275,39,0,470.69999999925494,0,1,experiment,NA,NA,1,0.3,0.7,3,2,33,1,NA
fcp-trial,67,380749,0.0-42.0-0.0,voc_e2,12279,"[{""event"":""fullscreenenter"",""trial"":1,""time"":1288},{""event"":""blur"",""trial"":16,""time"":102737},{""event"":""focus"",""trial"":16,""time"":107590}]",NA,NA,NA,NA,NA,5,#741CD8,#D8271C,0,10,1,40,0,712.2999999988824,37,1,679.8000000007451,0,1,experiment,NA,NA,2,0.5,0.5,4,5,34,1,NA
fcp-trial,68,383806,0.0-43.0-0.0,voc_e2,12279,"[{""event"":""fullscreenenter"",""trial"":1,""time"":1288},{""event"":""blur"",""trial"":16,""time"":102737},{""event"":""focus"",""trial"":16,""time"":107590}]",NA,NA,NA,NA,NA,2,#FA92F8,#1CD855,10,0,1,38,1,960.9000000003725,39,0,591.4000000003725,0,0,experiment,NA,NA,0,0.9,0.1,0,1,35,1,NA
fcp-trial,69,387446,0.0-44.0-0.0,voc_e2,12279,"[{""event"":""fullscreenenter"",""trial"":1,""time"":1288},{""event"":""blur"",""trial"":16,""time"":102737},{""event"":""focus"",""trial"":16,""time"":107590}]",NA,NA,NA,NA,NA,1,#D89F1C,#3386FF,10,0,0,38,1,1035.800000000745,37,1,1095.4000000003723,10,0,experiment,NA,NA,1,0.3,0.7,3,2,36,1,NA
fcp-trial,70,390208,0.0-45.0-0.0,voc_e2,12279,"[{""event"":""fullscreenenter"",""trial"":1,""time"":1288},{""event"":""blur"",""trial"":16,""time"":102737},{""event"":""focus"",""trial"":16,""time"":107590}]",NA,NA,NA,NA,NA,3,#FA92F8,#1CD855,10,0,1,40,0,776.9000000003725,37,1,477.30000000074506,10,1,experiment,NA,NA,0,0.9,0.1,0,1,37,1,NA
fcp-trial,71,392766,0.0-46.0-0.0,voc_e2,12279,"[{""event"":""fullscreenenter"",""trial"":1,""time"":1288},{""event"":""blur"",""trial"":16,""time"":102737},{""event"":""focus"",""trial"":16,""time"":107590}]",NA,NA,NA,NA,NA,4,#3386FF,#D89F1C,10,10,1,40,0,672.4000000003725,37,1,375.7000000011176,10,1,experiment,NA,NA,1,0.7,0.3,2,3,38,1,NA
fcp-trial,72,395237,0.0-47.0-0.0,voc_e2,12279,"[{""event"":""fullscreenenter"",""trial"":1,""time"":1288},{""event"":""blur"",""trial"":16,""time"":102737},{""event"":""focus"",""trial"":16,""time"":107590}]",NA,NA,NA,NA,NA,3,#741CD8,#D8271C,0,10,1,40,0,608.6999999992549,37,1,358,0,1,experiment,NA,NA,2,0.5,0.5,4,5,39,1,NA
fcp-trial,73,397764,0.0-48.0-0.0,voc_e2,12279,"[{""event"":""fullscreenenter"",""trial"":1,""time"":1288},{""event"":""blur"",""trial"":16,""time"":102737},{""event"":""focus"",""trial"":16,""time"":107590}]",NA,NA,NA,NA,NA,2,#741CD8,#D8271C,0,10,1,40,0,662.3000000007451,37,1,358.8999999985099,0,1,experiment,NA,NA,2,0.5,0.5,4,5,40,1,NA
fcp-trial,74,400300,0.0-49.0-0.0,voc_e2,12279,"[{""event"":""fullscreenenter"",""trial"":1,""time"":1288},{""event"":""blur"",""trial"":16,""time"":102737},{""event"":""focus"",""trial"":16,""time"":107590}]",NA,NA,NA,NA,NA,6,#741CD8,#D8271C,0,0,1,40,0,633.2999999988824,37,1,397.9000000003726,0,1,experiment,NA,NA,2,0.5,0.5,4,5,41,1,NA
fcp-trial,75,403563,0.0-50.0-0.0,voc_e2,12279,"[{""event"":""fullscreenenter"",""trial"":1,""time"":1288},{""event"":""blur"",""trial"":16,""time"":102737},{""event"":""focus"",""trial"":16,""time"":107590}]",NA,NA,NA,NA,NA,0,#1CD855,#FA92F8,0,10,0,38,1,953.4000000003725,39,0,803,10,1,experiment,NA,NA,0,0.1,0.9,1,0,42,1,NA
fcp-trial,76,406262,0.0-51.0-0.0,voc_e2,12279,"[{""event"":""fullscreenenter"",""trial"":1,""time"":1288},{""event"":""blur"",""trial"":16,""time"":102737},{""event"":""focus"",""trial"":16,""time"":107590}]",NA,NA,NA,NA,NA,2,#FA92F8,#1CD855,10,10,1,40,0,761.8000000007451,37,1,433.5,10,1,experiment,NA,NA,0,0.9,0.1,0,1,43,1,NA
fcp-trial,77,409012,0.0-52.0-0.0,voc_e2,12279,"[{""event"":""fullscreenenter"",""trial"":1,""time"":1288},{""event"":""blur"",""trial"":16,""time"":102737},{""event"":""focus"",""trial"":16,""time"":107590}]",NA,NA,NA,NA,NA,3,#D8271C,#741CD8,0,0,0,40,0,718.4000000003725,39,0,527.5,0,1,experiment,NA,NA,2,0.5,0.5,5,4,44,1,NA
fcp-trial,78,412004,0.0-53.0-0.0,voc_e2,12279,"[{""event"":""fullscreenenter"",""trial"":1,""time"":1288},{""event"":""blur"",""trial"":16,""time"":102737},{""event"":""focus"",""trial"":16,""time"":107590}]",NA,NA,NA,NA,NA,0,#D89F1C,#3386FF,0,10,0,38,1,1048.9000000003725,37,1,439.9000000003726,0,0,experiment,NA,NA,1,0.3,0.7,3,2,45,1,NA
fcp-trial,79,414853,0.0-54.0-0.0,voc_e2,12279,"[{""event"":""fullscreenenter"",""trial"":1,""time"":1288},{""event"":""blur"",""trial"":16,""time"":102737},{""event"":""focus"",""trial"":16,""time"":107590}]",NA,NA,NA,NA,NA,0,#1CD855,#FA92F8,0,10,0,38,1,900.0999999996275,39,0,438.9000000003726,10,1,experiment,NA,NA,0,0.1,0.9,1,0,46,2,NA
fcp-trial,80,417763,0.0-55.0-0.0,voc_e2,12279,"[{""event"":""fullscreenenter"",""trial"":1,""time"":1288},{""event"":""blur"",""trial"":16,""time"":102737},{""event"":""focus"",""trial"":16,""time"":107590}]",NA,NA,NA,NA,NA,2,#741CD8,#D8271C,0,10,1,40,0,887.5,39,0,518.4000000003725,10,0,experiment,NA,NA,2,0.5,0.5,4,5,47,2,NA
fcp-trial,81,420620,0.0-56.0-0.0,voc_e2,12279,"[{""event"":""fullscreenenter"",""trial"":1,""time"":1288},{""event"":""blur"",""trial"":16,""time"":102737},{""event"":""focus"",""trial"":16,""time"":107590}]",NA,NA,NA,NA,NA,1,#741CD8,#D8271C,0,0,1,40,0,866.2000000011176,39,0,487.5999999996274,0,0,experiment,NA,NA,2,0.5,0.5,4,5,48,2,NA
fcp-trial,82,423268,0.0-57.0-0.0,voc_e2,12279,"[{""event"":""fullscreenenter"",""trial"":1,""time"":1288},{""event"":""blur"",""trial"":16,""time"":102737},{""event"":""focus"",""trial"":16,""time"":107590}]",NA,NA,NA,NA,NA,3,#FA92F8,#1CD855,10,0,1,40,0,728.2999999988824,37,1,415.4000000003726,10,1,experiment,NA,NA,0,0.9,0.1,0,1,49,2,NA
fcp-trial,83,426180,0.0-58.0-0.0,voc_e2,12279,"[{""event"":""fullscreenenter"",""trial"":1,""time"":1288},{""event"":""blur"",""trial"":16,""time"":102737},{""event"":""focus"",""trial"":16,""time"":107590}]",NA,NA,NA,NA,NA,1,#3386FF,#D89F1C,10,0,1,40,0,928.8000000007451,39,0,479.7000000011176,0,0,experiment,NA,NA,1,0.7,0.3,2,3,50,2,NA
fcp-trial,84,428741,0.0-59.0-0.0,voc_e2,12279,"[{""event"":""fullscreenenter"",""trial"":1,""time"":1288},{""event"":""blur"",""trial"":16,""time"":102737},{""event"":""focus"",""trial"":16,""time"":107590}]",NA,NA,NA,NA,NA,4,#3386FF,#D89F1C,0,0,1,40,0,658.4000000003725,37,1,399,0,1,experiment,NA,NA,1,0.7,0.3,2,3,51,2,NA
fcp-trial,85,431436,0.0-60.0-0.0,voc_e2,12279,"[{""event"":""fullscreenenter"",""trial"":1,""time"":1288},{""event"":""blur"",""trial"":16,""time"":102737},{""event"":""focus"",""trial"":16,""time"":107590}]",NA,NA,NA,NA,NA,6,#D8271C,#741CD8,0,10,0,40,0,760.1999999992549,37,1,430.4000000003726,0,0,experiment,NA,NA,2,0.5,0.5,5,4,52,2,NA
fcp-trial,86,434564,0.0-61.0-0.0,voc_e2,12279,"[{""event"":""fullscreenenter"",""trial"":1,""time"":1288},{""event"":""blur"",""trial"":16,""time"":102737},{""event"":""focus"",""trial"":16,""time"":107590}]",NA,NA,NA,NA,NA,2,#3386FF,#D89F1C,10,10,1,40,0,664.5999999996275,37,1,959.4000000003724,10,1,experiment,NA,NA,1,0.7,0.3,2,3,53,2,NA
fcp-trial,87,437189,0.0-62.0-0.0,voc_e2,12279,"[{""event"":""fullscreenenter"",""trial"":1,""time"":1288},{""event"":""blur"",""trial"":16,""time"":102737},{""event"":""focus"",""trial"":16,""time"":107590}]",NA,NA,NA,NA,NA,4,#1CD855,#FA92F8,0,10,0,40,0,681.3000000007451,37,1,438.5999999996274,0,0,experiment,NA,NA,0,0.1,0.9,1,0,54,2,NA
fcp-trial,88,439841,0.0-63.0-0.0,voc_e2,12279,"[{""event"":""fullscreenenter"",""trial"":1,""time"":1288},{""event"":""blur"",""trial"":16,""time"":102737},{""event"":""focus"",""trial"":16,""time"":107590}]",NA,NA,NA,NA,NA,3,#D89F1C,#3386FF,0,10,0,40,0,643.9000000003725,39,0,494.5999999996274,10,1,experiment,NA,NA,1,0.3,0.7,3,2,55,2,NA
fcp-trial,89,442485,0.0-64.0-0.0,voc_e2,12279,"[{""event"":""fullscreenenter"",""trial"":1,""time"":1288},{""event"":""blur"",""trial"":16,""time"":102737},{""event"":""focus"",""trial"":16,""time"":107590}]",NA,NA,NA,NA,NA,4,#741CD8,#D8271C,0,0,1,40,0,627.8000000007451,39,0,511.7000000011176,0,0,experiment,NA,NA,2,0.5,0.5,4,5,56,2,NA
fcp-trial,90,444931,0.0-65.0-0.0,voc_e2,12279,"[{""event"":""fullscreenenter"",""trial"":1,""time"":1288},{""event"":""blur"",""trial"":16,""time"":102737},{""event"":""focus"",""trial"":16,""time"":107590}]",NA,NA,NA,NA,NA,5,#3386FF,#D89F1C,0,0,1,40,0,552.7999999988824,39,0,390,0,0,experiment,NA,NA,1,0.7,0.3,2,3,57,2,NA
fcp-trial,91,447668,0.0-66.0-0.0,voc_e2,12279,"[{""event"":""fullscreenenter"",""trial"":1,""time"":1288},{""event"":""blur"",""trial"":16,""time"":102737},{""event"":""focus"",""trial"":16,""time"":107590}]",NA,NA,NA,NA,NA,6,#1CD855,#FA92F8,0,0,0,40,0,760.7999999988824,39,0,472.4000000003726,0,1,experiment,NA,NA,0,0.1,0.9,1,0,58,2,NA
fcp-trial,92,450619,0.0-67.0-0.0,voc_e2,12279,"[{""event"":""fullscreenenter"",""trial"":1,""time"":1288},{""event"":""blur"",""trial"":16,""time"":102737},{""event"":""focus"",""trial"":16,""time"":107590}]",NA,NA,NA,NA,NA,0,#D8271C,#741CD8,10,0,0,38,1,792.7000000011176,37,1,654.7000000011176,10,0,experiment,NA,NA,2,0.5,0.5,5,4,59,2,NA
fcp-trial,93,453284,0.0-68.0-0.0,voc_e2,12279,"[{""event"":""fullscreenenter"",""trial"":1,""time"":1288},{""event"":""blur"",""trial"":16,""time"":102737},{""event"":""focus"",""trial"":16,""time"":107590}]",NA,NA,NA,NA,NA,6,#D89F1C,#3386FF,0,0,0,40,0,709.5,37,1,446.30000000074506,0,0,experiment,NA,NA,1,0.3,0.7,3,2,60,2,NA
fcp-trial,94,456108,0.0-69.0-0.0,voc_e2,12279,"[{""event"":""fullscreenenter"",""trial"":1,""time"":1288},{""event"":""blur"",""trial"":16,""time"":102737},{""event"":""focus"",""trial"":16,""time"":107590}]",NA,NA,NA,NA,NA,1,#1CD855,#FA92F8,0,10,0,38,1,879.8000000007451,39,0,440.5,10,1,experiment,NA,NA,0,0.1,0.9,1,0,61,2,NA
fcp-trial,95,458782,0.0-70.0-0.0,voc_e2,12279,"[{""event"":""fullscreenenter"",""trial"":1,""time"":1288},{""event"":""blur"",""trial"":16,""time"":102737},{""event"":""focus"",""trial"":16,""time"":107590}]",NA,NA,NA,NA,NA,5,#741CD8,#D8271C,0,10,1,40,0,698.0999999996275,39,0,469.19999999925494,10,0,experiment,NA,NA,2,0.5,0.5,4,5,62,2,NA
fcp-trial,96,461452,0.0-71.0-0.0,voc_e2,12279,"[{""event"":""fullscreenenter"",""trial"":1,""time"":1288},{""event"":""blur"",""trial"":16,""time"":102737},{""event"":""focus"",""trial"":16,""time"":107590}]",NA,NA,NA,NA,NA,5,#1CD855,#FA92F8,0,10,0,40,0,646.1999999992549,39,0,519.2999999988824,10,1,experiment,NA,NA,0,0.1,0.9,1,0,63,2,NA
fcp-trial,97,464340,0.0-72.0-0.0,voc_e2,12279,"[{""event"":""fullscreenenter"",""trial"":1,""time"":1288},{""event"":""blur"",""trial"":16,""time"":102737},{""event"":""focus"",""trial"":16,""time"":107590}]",NA,NA,NA,NA,NA,3,#D8271C,#741CD8,10,0,0,40,0,663.0999999996275,37,1,720.0999999996275,10,0,experiment,NA,NA,2,0.5,0.5,5,4,64,2,NA
fcp-trial,98,467181,0.0-73.0-0.0,voc_e2,12279,"[{""event"":""fullscreenenter"",""trial"":1,""time"":1288},{""event"":""blur"",""trial"":16,""time"":102737},{""event"":""focus"",""trial"":16,""time"":107590}]",NA,NA,NA,NA,NA,2,#741CD8,#D8271C,10,0,1,40,0,688.7999999988824,37,1,648.3000000007451,10,1,experiment,NA,NA,2,0.5,0.5,4,5,65,2,NA
fcp-trial,99,470411,0.0-74.0-0.0,voc_e2,12279,"[{""event"":""fullscreenenter"",""trial"":1,""time"":1288},{""event"":""blur"",""trial"":16,""time"":102737},{""event"":""focus"",""trial"":16,""time"":107590}]",NA,NA,NA,NA,NA,1,#D89F1C,#3386FF,0,10,0,38,1,1135.300000000745,39,0,590.8000000007451,10,1,experiment,NA,NA,1,0.3,0.7,3,2,66,2,NA
fcp-trial,100,473374,0.0-75.0-0.0,voc_e2,12279,"[{""event"":""fullscreenenter"",""trial"":1,""time"":1288},{""event"":""blur"",""trial"":16,""time"":102737},{""event"":""focus"",""trial"":16,""time"":107590}]",NA,NA,NA,NA,NA,0,#1CD855,#FA92F8,0,10,0,38,1,1008.8000000007451,39,0,450,10,1,experiment,NA,NA,0,0.1,0.9,1,0,67,2,NA
fcp-trial,101,477059,0.0-76.0-0.0,voc_e2,12279,"[{""event"":""fullscreenenter"",""trial"":1,""time"":1288},{""event"":""blur"",""trial"":16,""time"":102737},{""event"":""focus"",""trial"":16,""time"":107590}]",NA,NA,NA,NA,NA,1,#D8271C,#741CD8,10,0,0,38,1,1751.9000000003725,37,1,430.5999999996274,10,0,experiment,NA,NA,2,0.5,0.5,5,4,68,2,NA
fcp-trial,102,479774,0.0-77.0-0.0,voc_e2,12279,"[{""event"":""fullscreenenter"",""trial"":1,""time"":1288},{""event"":""blur"",""trial"":16,""time"":102737},{""event"":""focus"",""trial"":16,""time"":107590}]",NA,NA,NA,NA,NA,5,#D89F1C,#3386FF,0,10,0,40,0,779.7000000011176,39,0,430.4000000003726,10,1,experiment,NA,NA,1,0.3,0.7,3,2,69,2,NA
fcp-trial,103,482645,0.0-78.0-0.0,voc_e2,12279,"[{""event"":""fullscreenenter"",""trial"":1,""time"":1288},{""event"":""blur"",""trial"":16,""time"":102737},{""event"":""focus"",""trial"":16,""time"":107590}]",NA,NA,NA,NA,NA,5,#FA92F8,#1CD855,10,0,1,40,0,887.0999999996275,37,1,479,10,1,experiment,NA,NA,0,0.9,0.1,0,1,70,2,NA
fcp-trial,104,485286,0.0-79.0-0.0,voc_e2,12279,"[{""event"":""fullscreenenter"",""trial"":1,""time"":1288},{""event"":""blur"",""trial"":16,""time"":102737},{""event"":""focus"",""trial"":16,""time"":107590}]",NA,NA,NA,NA,NA,2,#3386FF,#D89F1C,10,0,1,40,0,689.2000000011176,37,1,448.19999999925494,10,1,experiment,NA,NA,1,0.7,0.3,2,3,71,2,NA
fcp-trial,105,488132,0.0-80.0-0.0,voc_e2,12279,"[{""event"":""fullscreenenter"",""trial"":1,""time"":1288},{""event"":""blur"",""trial"":16,""time"":102737},{""event"":""focus"",""trial"":16,""time"":107590}]",NA,NA,NA,NA,NA,4,#741CD8,#D8271C,10,10,1,40,0,817.6999999992549,39,0,519.0999999996275,10,0,experiment,NA,NA,2,0.5,0.5,4,5,72,2,NA
fcp-trial,106,491055,0.0-81.0-0.0,voc_e2,12279,"[{""event"":""fullscreenenter"",""trial"":1,""time"":1288},{""event"":""blur"",""trial"":16,""time"":102737},{""event"":""focus"",""trial"":16,""time"":107590}]",NA,NA,NA,NA,NA,0,#741CD8,#D8271C,0,10,1,38,1,970.7000000011176,39,0,445.80000000074506,10,0,experiment,NA,NA,2,0.5,0.5,4,5,73,2,NA
fcp-trial,107,494373,0.0-82.0-0.0,voc_e2,12279,"[{""event"":""fullscreenenter"",""trial"":1,""time"":1288},{""event"":""blur"",""trial"":16,""time"":102737},{""event"":""focus"",""trial"":16,""time"":107590}]",NA,NA,NA,NA,NA,4,#3386FF,#D89F1C,10,0,1,40,0,1220.5999999996275,37,1,588.7000000011176,10,1,experiment,NA,NA,1,0.7,0.3,2,3,74,2,NA
fcp-trial,108,497052,0.0-83.0-0.0,voc_e2,12279,"[{""event"":""fullscreenenter"",""trial"":1,""time"":1288},{""event"":""blur"",""trial"":16,""time"":102737},{""event"":""focus"",""trial"":16,""time"":107590}]",NA,NA,NA,NA,NA,3,#1CD855,#FA92F8,0,10,0,40,0,719.1000000014901,37,1,455.7999999988824,0,0,experiment,NA,NA,0,0.1,0.9,1,0,75,2,NA
fcp-trial,109,499758,0.0-84.0-0.0,voc_e2,12279,"[{""event"":""fullscreenenter"",""trial"":1,""time"":1288},{""event"":""blur"",""trial"":16,""time"":102737},{""event"":""focus"",""trial"":16,""time"":107590}]",NA,NA,NA,NA,NA,5,#741CD8,#D8271C,10,10,1,40,0,780.5999999996275,39,0,415.9000000003726,10,0,experiment,NA,NA,2,0.5,0.5,4,5,76,2,NA
fcp-trial,110,502349,0.0-85.0-0.0,voc_e2,12279,"[{""event"":""fullscreenenter"",""trial"":1,""time"":1288},{""event"":""blur"",""trial"":16,""time"":102737},{""event"":""focus"",""trial"":16,""time"":107590}]",NA,NA,NA,NA,NA,6,#D89F1C,#3386FF,0,0,0,40,0,648.2000000011176,39,0,438,0,1,experiment,NA,NA,1,0.3,0.7,3,2,77,2,NA
fcp-trial,111,505011,0.0-86.0-0.0,voc_e2,12279,"[{""event"":""fullscreenenter"",""trial"":1,""time"":1288},{""event"":""blur"",""trial"":16,""time"":102737},{""event"":""focus"",""trial"":16,""time"":107590}]",NA,NA,NA,NA,NA,6,#1CD855,#FA92F8,0,10,0,40,0,738.3999999985099,39,0,419.9000000003726,10,1,experiment,NA,NA,0,0.1,0.9,1,0,78,2,NA
fcp-trial,112,508092,0.0-87.0-0.0,voc_e2,12279,"[{""event"":""fullscreenenter"",""trial"":1,""time"":1288},{""event"":""blur"",""trial"":16,""time"":102737},{""event"":""focus"",""trial"":16,""time"":107590}]",NA,NA,NA,NA,NA,0,#3386FF,#D89F1C,0,0,1,38,1,1145.5999999996275,37,1,431.7000000011176,0,1,experiment,NA,NA,1,0.7,0.3,2,3,79,2,NA
fcp-trial,113,510700,0.0-88.0-0.0,voc_e2,12279,"[{""event"":""fullscreenenter"",""trial"":1,""time"":1288},{""event"":""blur"",""trial"":16,""time"":102737},{""event"":""focus"",""trial"":16,""time"":107590}]",NA,NA,NA,NA,NA,6,#D8271C,#741CD8,0,0,0,40,0,584.3999999985099,37,1,519.0999999996275,0,0,experiment,NA,NA,2,0.5,0.5,5,4,80,2,NA
fcp-trial,114,513301,0.0-89.0-0.0,voc_e2,12279,"[{""event"":""fullscreenenter"",""trial"":1,""time"":1288},{""event"":""blur"",""trial"":16,""time"":102737},{""event"":""focus"",""trial"":16,""time"":107590}]",NA,NA,NA,NA,NA,3,#3386FF,#D89F1C,0,0,1,40,0,700.2999999988824,39,0,391.30000000074506,0,0,experiment,NA,NA,1,0.7,0.3,2,3,81,2,NA
fcp-trial,115,516164,0.0-90.0-0.0,voc_e2,12279,"[{""event"":""fullscreenenter"",""trial"":1,""time"":1288},{""event"":""blur"",""trial"":16,""time"":102737},{""event"":""focus"",""trial"":16,""time"":107590}]",NA,NA,NA,NA,NA,4,#FA92F8,#1CD855,10,0,1,40,0,756,39,0,599.5,0,0,experiment,NA,NA,0,0.9,0.1,0,1,82,2,NA
fcp-trial,116,518783,0.0-91.0-0.0,voc_e2,12279,"[{""event"":""fullscreenenter"",""trial"":1,""time"":1288},{""event"":""blur"",""trial"":16,""time"":102737},{""event"":""focus"",""trial"":16,""time"":107590}]",NA,NA,NA,NA,NA,2,#1CD855,#FA92F8,0,10,0,40,0,641.3000000007451,39,0,472,10,1,experiment,NA,NA,0,0.1,0.9,1,0,83,2,NA
fcp-trial,117,521596,0.0-92.0-0.0,voc_e2,12279,"[{""event"":""fullscreenenter"",""trial"":1,""time"":1288},{""event"":""blur"",""trial"":16,""time"":102737},{""event"":""focus"",""trial"":16,""time"":107590}]",NA,NA,NA,NA,NA,1,#FA92F8,#1CD855,10,0,1,38,1,914.2000000011176,37,1,390.5,10,1,experiment,NA,NA,0,0.9,0.1,0,1,84,2,NA
fcp-trial,118,524325,0.0-93.0-0.0,voc_e2,12279,"[{""event"":""fullscreenenter"",""trial"":1,""time"":1288},{""event"":""blur"",""trial"":16,""time"":102737},{""event"":""focus"",""trial"":16,""time"":107590}]",NA,NA,NA,NA,NA,3,#D8271C,#741CD8,0,10,0,40,0,617.7999999988824,39,0,606.6999999992549,10,1,experiment,NA,NA,2,0.5,0.5,5,4,85,2,NA
fcp-trial,119,526893,0.0-94.0-0.0,voc_e2,12279,"[{""event"":""fullscreenenter"",""trial"":1,""time"":1288},{""event"":""blur"",""trial"":16,""time"":102737},{""event"":""focus"",""trial"":16,""time"":107590}]",NA,NA,NA,NA,NA,2,#1CD855,#FA92F8,0,10,0,40,0,657.4000000003725,39,0,407.2000000011176,10,1,experiment,NA,NA,0,0.1,0.9,1,0,86,2,NA
fcp-trial,120,529374,0.0-95.0-0.0,voc_e2,12279,"[{""event"":""fullscreenenter"",""trial"":1,""time"":1288},{""event"":""blur"",""trial"":16,""time"":102737},{""event"":""focus"",""trial"":16,""time"":107590}]",NA,NA,NA,NA,NA,6,#1CD855,#FA92F8,0,10,0,40,0,599.0999999996275,39,0,377.2999999988824,10,1,experiment,NA,NA,0,0.1,0.9,1,0,87,2,NA
fcp-trial,121,531924,0.0-96.0-0.0,voc_e2,12279,"[{""event"":""fullscreenenter"",""trial"":1,""time"":1288},{""event"":""blur"",""trial"":16,""time"":102737},{""event"":""focus"",""trial"":16,""time"":107590}]",NA,NA,NA,NA,NA,2,#3386FF,#D89F1C,10,0,1,40,0,639.3000000007451,37,1,407.7000000011176,10,1,experiment,NA,NA,1,0.7,0.3,2,3,88,2,NA
fcp-trial,122,534501,0.0-97.0-0.0,voc_e2,12279,"[{""event"":""fullscreenenter"",""trial"":1,""time"":1288},{""event"":""blur"",""trial"":16,""time"":102737},{""event"":""focus"",""trial"":16,""time"":107590}]",NA,NA,NA,NA,NA,6,#D8271C,#741CD8,0,0,0,40,0,626.5999999996275,39,0,445.9000000003726,0,1,experiment,NA,NA,2,0.5,0.5,5,4,89,2,NA
fcp-trial,123,537084,0.0-98.0-0.0,voc_e2,12279,"[{""event"":""fullscreenenter"",""trial"":1,""time"":1288},{""event"":""blur"",""trial"":16,""time"":102737},{""event"":""focus"",""trial"":16,""time"":107590}]",NA,NA,NA,NA,NA,4,#3386FF,#D89F1C,10,0,1,40,0,635,37,1,438.5,10,1,experiment,NA,NA,1,0.7,0.3,2,3,90,2,NA
fcp-trial,124,540660,0.0-99.0-0.0,voc_e2,12279,"[{""event"":""fullscreenenter"",""trial"":1,""time"":1288},{""event"":""blur"",""trial"":16,""time"":102737},{""event"":""focus"",""trial"":16,""time"":107590}]",NA,NA,NA,NA,NA,1,#D89F1C,#3386FF,0,10,0,38,1,868.5999999996275,39,0,1198.5999999996277,10,1,experiment,NA,NA,1,0.3,0.7,3,2,91,3,NA
fcp-trial,125,544012,0.0-100.0-0.0,voc_e2,12279,"[{""event"":""fullscreenenter"",""trial"":1,""time"":1288},{""event"":""blur"",""trial"":16,""time"":102737},{""event"":""focus"",""trial"":16,""time"":107590}]",NA,NA,NA,NA,NA,4,#FA92F8,#1CD855,10,0,1,40,0,1416.6000000014901,37,1,430.7999999988824,10,1,experiment,NA,NA,0,0.9,0.1,0,1,92,3,NA
fcp-trial,126,546597,0.0-101.0-0.0,voc_e2,12279,"[{""event"":""fullscreenenter"",""trial"":1,""time"":1288},{""event"":""blur"",""trial"":16,""time"":102737},{""event"":""focus"",""trial"":16,""time"":107590}]",NA,NA,NA,NA,NA,5,#D8271C,#741CD8,0,10,0,40,0,640.5,39,0,439.5999999996274,10,1,experiment,NA,NA,2,0.5,0.5,5,4,93,3,NA
fcp-trial,127,549222,0.0-102.0-0.0,voc_e2,12279,"[{""event"":""fullscreenenter"",""trial"":1,""time"":1288},{""event"":""blur"",""trial"":16,""time"":102737},{""event"":""focus"",""trial"":16,""time"":107590}]",NA,NA,NA,NA,NA,5,#1CD855,#FA92F8,0,10,0,40,0,671.3999999985099,39,0,448.80000000074506,10,1,experiment,NA,NA,0,0.1,0.9,1,0,94,3,NA
fcp-trial,128,552308,0.0-103.0-0.0,voc_e2,12279,"[{""event"":""fullscreenenter"",""trial"":1,""time"":1288},{""event"":""blur"",""trial"":16,""time"":102737},{""event"":""focus"",""trial"":16,""time"":107590}]",NA,NA,NA,NA,NA,0,#1CD855,#FA92F8,0,10,0,38,1,950.5,39,0,630.6999999992549,10,1,experiment,NA,NA,0,0.1,0.9,1,0,95,3,NA
fcp-trial,129,554797,0.0-104.0-0.0,voc_e2,12279,"[{""event"":""fullscreenenter"",""trial"":1,""time"":1288},{""event"":""blur"",""trial"":16,""time"":102737},{""event"":""focus"",""trial"":16,""time"":107590}]",NA,NA,NA,NA,NA,5,#D89F1C,#3386FF,10,0,0,40,0,513.3000000007451,37,1,472,10,0,experiment,NA,NA,1,0.3,0.7,3,2,96,3,NA
fcp-trial,130,557836,0.0-105.0-0.0,voc_e2,12279,"[{""event"":""fullscreenenter"",""trial"":1,""time"":1288},{""event"":""blur"",""trial"":16,""time"":102737},{""event"":""focus"",""trial"":16,""time"":107590}]",NA,NA,NA,NA,NA,1,#D8271C,#741CD8,0,0,0,38,1,999.5999999996275,37,1,536.2999999988824,0,0,experiment,NA,NA,2,0.5,0.5,5,4,97,3,NA
fcp-trial,131,560556,0.0-106.0-0.0,voc_e2,12279,"[{""event"":""fullscreenenter"",""trial"":1,""time"":1288},{""event"":""blur"",""trial"":16,""time"":102737},{""event"":""focus"",""trial"":16,""time"":107590}]",NA,NA,NA,NA,NA,4,#D8271C,#741CD8,10,0,0,40,0,707,39,0,508.80000000074506,0,1,experiment,NA,NA,2,0.5,0.5,5,4,98,3,NA
fcp-trial,132,563188,0.0-107.0-0.0,voc_e2,12279,"[{""event"":""fullscreenenter"",""trial"":1,""time"":1288},{""event"":""blur"",""trial"":16,""time"":102737},{""event"":""focus"",""trial"":16,""time"":107590}]",NA,NA,NA,NA,NA,3,#3386FF,#D89F1C,10,0,1,40,0,705,37,1,422.5,10,1,experiment,NA,NA,1,0.7,0.3,2,3,99,3,NA
fcp-trial,133,565772,0.0-108.0-0.0,voc_e2,12279,"[{""event"":""fullscreenenter"",""trial"":1,""time"":1288},{""event"":""blur"",""trial"":16,""time"":102737},{""event"":""focus"",""trial"":16,""time"":107590}]",NA,NA,NA,NA,NA,3,#1CD855,#FA92F8,0,10,0,40,0,689.2000000011176,39,0,391.5,10,1,experiment,NA,NA,0,0.1,0.9,1,0,100,3,NA
fcp-trial,134,568303,0.0-109.0-0.0,voc_e2,12279,"[{""event"":""fullscreenenter"",""trial"":1,""time"":1288},{""event"":""blur"",""trial"":16,""time"":102737},{""event"":""focus"",""trial"":16,""time"":107590}]",NA,NA,NA,NA,NA,2,#D8271C,#741CD8,10,0,0,40,0,648.4000000003725,37,1,376.6000000014901,10,0,experiment,NA,NA,2,0.5,0.5,5,4,101,3,NA
fcp-trial,135,570917,0.0-110.0-0.0,voc_e2,12279,"[{""event"":""fullscreenenter"",""trial"":1,""time"":1288},{""event"":""blur"",""trial"":16,""time"":102737},{""event"":""focus"",""trial"":16,""time"":107590}]",NA,NA,NA,NA,NA,6,#3386FF,#D89F1C,0,0,1,40,0,702.5,37,1,407.9000000003726,0,1,experiment,NA,NA,1,0.7,0.3,2,3,102,3,NA
fcp-trial,136,573781,0.0-111.0-0.0,voc_e2,12279,"[{""event"":""fullscreenenter"",""trial"":1,""time"":1288},{""event"":""blur"",""trial"":16,""time"":102737},{""event"":""focus"",""trial"":16,""time"":107590}]",NA,NA,NA,NA,NA,0,#D89F1C,#3386FF,10,10,0,38,1,800.2999999988824,39,0,560.0999999996275,10,1,experiment,NA,NA,1,0.3,0.7,3,2,103,3,NA
fcp-trial,137,576523,0.0-112.0-0.0,voc_e2,12279,"[{""event"":""fullscreenenter"",""trial"":1,""time"":1288},{""event"":""blur"",""trial"":16,""time"":102737},{""event"":""focus"",""trial"":16,""time"":107590}]",NA,NA,NA,NA,NA,0,#D8271C,#741CD8,0,10,0,38,1,877.0999999996275,37,1,359.30000000074506,0,0,experiment,NA,NA,2,0.5,0.5,5,4,104,3,NA
fcp-trial,138,579318,0.0-113.0-0.0,voc_e2,12279,"[{""event"":""fullscreenenter"",""trial"":1,""time"":1288},{""event"":""blur"",""trial"":16,""time"":102737},{""event"":""focus"",""trial"":16,""time"":107590}]",NA,NA,NA,NA,NA,1,#1CD855,#FA92F8,0,10,0,38,1,792.5,39,0,498.6000000014901,10,1,experiment,NA,NA,0,0.1,0.9,1,0,105,3,NA
audio-instructions,139,590256,0.0-114.0,voc_e2,12279,"[{""event"":""fullscreenenter"",""trial"":1,""time"":1288},{""event"":""blur"",""trial"":16,""time"":102737},{""event"":""focus"",""trial"":16,""time"":107590}]",NA,6467.0999999996275,static/audio/pause.wav,NA,0,NA,NA,NA,NA,NA,NA,NA,NA,NA,NA,NA,NA,NA,NA,NA,NA,NA,NA,NA,NA,NA,NA,NA,NA,NA
fcp-trial,140,593381,0.0-115.0-0.0,voc_e2,12279,"[{""event"":""fullscreenenter"",""trial"":1,""time"":1288},{""event"":""blur"",""trial"":16,""time"":102737},{""event"":""focus"",""trial"":16,""time"":107590}]",NA,NA,NA,NA,NA,4,#741CD8,#D8271C,10,10,1,40,0,1091.5,39,0,504.6000000014901,10,0,experiment,NA,NA,2,0.5,0.5,4,5,106,3,NA
fcp-trial,141,596450,0.0-116.0-0.0,voc_e2,12279,"[{""event"":""fullscreenenter"",""trial"":1,""time"":1288},{""event"":""blur"",""trial"":16,""time"":102737},{""event"":""focus"",""trial"":16,""time"":107590}]",NA,NA,NA,NA,NA,2,#3386FF,#D89F1C,10,0,1,38,1,980.5,39,0,559.2999999988824,0,0,experiment,NA,NA,1,0.7,0.3,2,3,107,3,NA
fcp-trial,142,599251,0.0-117.0-0.0,voc_e2,12279,"[{""event"":""fullscreenenter"",""trial"":1,""time"":1288},{""event"":""blur"",""trial"":16,""time"":102737},{""event"":""focus"",""trial"":16,""time"":107590}]",NA,NA,NA,NA,NA,1,#D8271C,#741CD8,10,10,0,38,1,802.5,37,1,483.7000000011176,10,0,experiment,NA,NA,2,0.5,0.5,5,4,108,3,NA
fcp-trial,143,601867,0.0-118.0-0.0,voc_e2,12279,"[{""event"":""fullscreenenter"",""trial"":1,""time"":1288},{""event"":""blur"",""trial"":16,""time"":102737},{""event"":""focus"",""trial"":16,""time"":107590}]",NA,NA,NA,NA,NA,0,#FA92F8,#1CD855,10,10,1,38,1,703.1000000014901,37,1,395.30000000074506,10,1,experiment,NA,NA,0,0.9,0.1,0,1,109,3,NA
fcp-trial,144,604817,0.0-119.0-0.0,voc_e2,12279,"[{""event"":""fullscreenenter"",""trial"":1,""time"":1288},{""event"":""blur"",""trial"":16,""time"":102737},{""event"":""focus"",""trial"":16,""time"":107590}]",NA,NA,NA,NA,NA,1,#D89F1C,#3386FF,10,0,0,38,1,903.7999999988824,39,0,535.1999999992549,0,1,experiment,NA,NA,1,0.3,0.7,3,2,110,3,NA
fcp-trial,145,607966,0.0-120.0-0.0,voc_e2,12279,"[{""event"":""fullscreenenter"",""trial"":1,""time"":1288},{""event"":""blur"",""trial"":16,""time"":102737},{""event"":""focus"",""trial"":16,""time"":107590}]",NA,NA,NA,NA,NA,4,#1CD855,#FA92F8,0,10,0,40,0,1129.5,39,0,497.80000000074506,10,1,experiment,NA,NA,0,0.1,0.9,1,0,111,3,NA
fcp-trial,146,610782,0.0-121.0-0.0,voc_e2,12279,"[{""event"":""fullscreenenter"",""trial"":1,""time"":1288},{""event"":""blur"",""trial"":16,""time"":102737},{""event"":""focus"",""trial"":16,""time"":107590}]",NA,NA,NA,NA,NA,3,#741CD8,#D8271C,10,10,1,40,0,814.3000000007451,37,1,482.3999999985099,10,1,experiment,NA,NA,2,0.5,0.5,4,5,112,3,NA
fcp-trial,147,613382,0.0-122.0-0.0,voc_e2,12279,"[{""event"":""fullscreenenter"",""trial"":1,""time"":1288},{""event"":""blur"",""trial"":16,""time"":102737},{""event"":""focus"",""trial"":16,""time"":107590}]",NA,NA,NA,NA,NA,3,#FA92F8,#1CD855,0,0,1,40,0,700.3999999985099,39,0,380,0,0,experiment,NA,NA,0,0.9,0.1,0,1,113,3,NA
fcp-trial,148,616101,0.0-123.0-0.0,voc_e2,12279,"[{""event"":""fullscreenenter"",""trial"":1,""time"":1288},{""event"":""blur"",""trial"":16,""time"":102737},{""event"":""focus"",""trial"":16,""time"":107590}]",NA,NA,NA,NA,NA,6,#741CD8,#D8271C,0,0,1,40,0,667.3000000007451,39,0,544.6000000014901,0,0,experiment,NA,NA,2,0.5,0.5,4,5,114,3,NA
fcp-trial,149,618691,0.0-124.0-0.0,voc_e2,12279,"[{""event"":""fullscreenenter"",""trial"":1,""time"":1288},{""event"":""blur"",""trial"":16,""time"":102737},{""event"":""focus"",""trial"":16,""time"":107590}]",NA,NA,NA,NA,NA,5,#D89F1C,#3386FF,0,10,0,40,0,712.2999999988824,39,0,373.0999999996274,10,1,experiment,NA,NA,1,0.3,0.7,3,2,115,3,NA
fcp-trial,150,621323,0.0-125.0-0.0,voc_e2,12279,"[{""event"":""fullscreenenter"",""trial"":1,""time"":1288},{""event"":""blur"",""trial"":16,""time"":102737},{""event"":""focus"",""trial"":16,""time"":107590}]",NA,NA,NA,NA,NA,0,#D89F1C,#3386FF,0,10,0,38,1,743.8000000007451,39,0,383.5,10,1,experiment,NA,NA,1,0.3,0.7,3,2,116,3,NA
fcp-trial,151,623901,0.0-126.0-0.0,voc_e2,12279,"[{""event"":""fullscreenenter"",""trial"":1,""time"":1288},{""event"":""blur"",""trial"":16,""time"":102737},{""event"":""focus"",""trial"":16,""time"":107590}]",NA,NA,NA,NA,NA,5,#1CD855,#FA92F8,10,10,0,40,0,695.8000000007451,37,1,377.0999999996274,10,0,experiment,NA,NA,0,0.1,0.9,1,0,117,3,NA
fcp-trial,152,626628,0.0-127.0-0.0,voc_e2,12279,"[{""event"":""fullscreenenter"",""trial"":1,""time"":1288},{""event"":""blur"",""trial"":16,""time"":102737},{""event"":""focus"",""trial"":16,""time"":107590}]",NA,NA,NA,NA,NA,1,#FA92F8,#1CD855,10,0,1,38,1,724.0999999996275,37,1,494.69999999925494,10,1,experiment,NA,NA,0,0.9,0.1,0,1,118,3,NA
fcp-trial,153,629548,0.0-128.0-0.0,voc_e2,12279,"[{""event"":""fullscreenenter"",""trial"":1,""time"":1288},{""event"":""blur"",""trial"":16,""time"":102737},{""event"":""focus"",""trial"":16,""time"":107590}]",NA,NA,NA,NA,NA,2,#D8271C,#741CD8,10,0,0,38,1,804.3999999985099,39,0,608.5,0,1,experiment,NA,NA,2,0.5,0.5,5,4,119,3,NA
fcp-trial,154,632299,0.0-129.0-0.0,voc_e2,12279,"[{""event"":""fullscreenenter"",""trial"":1,""time"":1288},{""event"":""blur"",""trial"":16,""time"":102737},{""event"":""focus"",""trial"":16,""time"":107590}]",NA,NA,NA,NA,NA,2,#1CD855,#FA92F8,0,10,0,38,1,799,39,0,446.19999999925494,10,1,experiment,NA,NA,0,0.1,0.9,1,0,120,3,NA
fcp-trial,155,635721,0.0-130.0-0.0,voc_e2,12279,"[{""event"":""fullscreenenter"",""trial"":1,""time"":1288},{""event"":""blur"",""trial"":16,""time"":102737},{""event"":""focus"",""trial"":16,""time"":107590}]",NA,NA,NA,NA,NA,3,#3386FF,#D89F1C,0,0,1,40,0,1527.9000000003725,39,0,390.2000000011176,0,0,experiment,NA,NA,1,0.7,0.3,2,3,121,3,NA
fcp-trial,156,638659,0.0-131.0-0.0,voc_e2,12279,"[{""event"":""fullscreenenter"",""trial"":1,""time"":1288},{""event"":""blur"",""trial"":16,""time"":102737},{""event"":""focus"",""trial"":16,""time"":107590}]",NA,NA,NA,NA,NA,6,#D89F1C,#3386FF,0,10,0,40,0,993.4000000003725,37,1,439.2000000011176,0,0,experiment,NA,NA,1,0.3,0.7,3,2,122,3,NA
fcp-trial,157,641100,0.0-132.0-0.0,voc_e2,12279,"[{""event"":""fullscreenenter"",""trial"":1,""time"":1288},{""event"":""blur"",""trial"":16,""time"":102737},{""event"":""focus"",""trial"":16,""time"":107590}]",NA,NA,NA,NA,NA,6,#FA92F8,#1CD855,10,0,1,40,0,572.2999999988824,37,1,359.90000000037253,10,1,experiment,NA,NA,0,0.9,0.1,0,1,123,3,NA
fcp-trial,158,644051,0.0-133.0-0.0,voc_e2,12279,"[{""event"":""fullscreenenter"",""trial"":1,""time"":1288},{""event"":""blur"",""trial"":16,""time"":102737},{""event"":""focus"",""trial"":16,""time"":107590}]",NA,NA,NA,NA,NA,0,#741CD8,#D8271C,10,0,1,38,1,791.1000000014901,39,0,652.5999999996275,0,0,experiment,NA,NA,2,0.5,0.5,4,5,124,3,NA
fcp-trial,159,646630,0.0-134.0-0.0,voc_e2,12279,"[{""event"":""fullscreenenter"",""trial"":1,""time"":1288},{""event"":""blur"",""trial"":16,""time"":102737},{""event"":""focus"",""trial"":16,""time"":107590}]",NA,NA,NA,NA,NA,4,#D89F1C,#3386FF,10,10,0,40,0,711.7000000011176,37,1,359.69999999925494,10,0,experiment,NA,NA,1,0.3,0.7,3,2,125,3,NA
fcp-trial,160,649277,0.0-135.0-0.0,voc_e2,12279,"[{""event"":""fullscreenenter"",""trial"":1,""time"":1288},{""event"":""blur"",""trial"":16,""time"":102737},{""event"":""focus"",""trial"":16,""time"":107590}]",NA,NA,NA,NA,NA,5,#D8271C,#741CD8,10,10,0,40,0,722.6999999992549,39,0,416,10,1,experiment,NA,NA,2,0.5,0.5,5,4,126,3,NA
fcp-trial,161,651860,0.0-136.0-0.0,voc_e2,12279,"[{""event"":""fullscreenenter"",""trial"":1,""time"":1288},{""event"":""blur"",""trial"":16,""time"":102737},{""event"":""focus"",""trial"":16,""time"":107590}]",NA,NA,NA,NA,NA,4,#D8271C,#741CD8,10,0,0,40,0,706.4000000003725,39,0,367.5,0,1,experiment,NA,NA,2,0.5,0.5,5,4,127,3,NA
fcp-trial,162,655046,0.0-137.0-0.0,voc_e2,12279,"[{""event"":""fullscreenenter"",""trial"":1,""time"":1288},{""event"":""blur"",""trial"":16,""time"":102737},{""event"":""focus"",""trial"":16,""time"":107590}]",NA,NA,NA,NA,NA,0,#3386FF,#D89F1C,10,0,1,38,1,1219.0999999996275,39,0,455.2000000011176,0,0,experiment,NA,NA,1,0.7,0.3,2,3,128,3,NA
fcp-trial,163,657763,0.0-138.0-0.0,voc_e2,12279,"[{""event"":""fullscreenenter"",""trial"":1,""time"":1288},{""event"":""blur"",""trial"":16,""time"":102737},{""event"":""focus"",""trial"":16,""time"":107590}]",NA,NA,NA,NA,NA,2,#D89F1C,#3386FF,0,10,0,38,1,707.5999999996275,39,0,503.30000000074506,10,1,experiment,NA,NA,1,0.3,0.7,3,2,129,3,NA
fcp-trial,164,660724,0.0-139.0-0.0,voc_e2,12279,"[{""event"":""fullscreenenter"",""trial"":1,""time"":1288},{""event"":""blur"",""trial"":16,""time"":102737},{""event"":""focus"",""trial"":16,""time"":107590}]",NA,NA,NA,NA,NA,5,#1CD855,#FA92F8,0,10,0,40,0,1080.4000000003725,39,0,373.5999999996274,10,1,experiment,NA,NA,0,0.1,0.9,1,0,130,3,NA
fcp-trial,165,664245,0.0-140.0-0.0,voc_e2,12279,"[{""event"":""fullscreenenter"",""trial"":1,""time"":1288},{""event"":""blur"",""trial"":16,""time"":102737},{""event"":""focus"",""trial"":16,""time"":107590}]",NA,NA,NA,NA,NA,3,#D8271C,#741CD8,10,10,0,40,0,1551.300000000745,39,0,462.2000000011176,10,1,experiment,NA,NA,2,0.5,0.5,5,4,131,3,NA
fcp-trial,166,667034,0.0-141.0-0.0,voc_e2,12279,"[{""event"":""fullscreenenter"",""trial"":1,""time"":1288},{""event"":""blur"",""trial"":16,""time"":102737},{""event"":""focus"",""trial"":16,""time"":107590}]",NA,NA,NA,NA,NA,4,#3386FF,#D89F1C,10,10,1,40,0,844.9000000003725,37,1,438.7000000011176,10,1,experiment,NA,NA,1,0.7,0.3,2,3,132,3,NA
fcp-trial,167,669764,0.0-142.0-0.0,voc_e2,12279,"[{""event"":""fullscreenenter"",""trial"":1,""time"":1288},{""event"":""blur"",""trial"":16,""time"":102737},{""event"":""focus"",""trial"":16,""time"":107590}]",NA,NA,NA,NA,NA,1,#FA92F8,#1CD855,10,0,1,38,1,727.7000000011176,37,1,495.7000000011176,10,1,experiment,NA,NA,0,0.9,0.1,0,1,133,3,NA
fcp-trial,168,672636,0.0-143.0-0.0,voc_e2,12279,"[{""event"":""fullscreenenter"",""trial"":1,""time"":1288},{""event"":""blur"",""trial"":16,""time"":102737},{""event"":""focus"",""trial"":16,""time"":107590}]",NA,NA,NA,NA,NA,5,#D89F1C,#3386FF,10,10,0,40,0,868.6999999992549,39,0,495.5,10,1,experiment,NA,NA,1,0.3,0.7,3,2,134,3,NA
fcp-trial,169,675549,0.0-144.0-0.0,voc_e2,12279,"[{""event"":""fullscreenenter"",""trial"":1,""time"":1288},{""event"":""blur"",""trial"":16,""time"":102737},{""event"":""focus"",""trial"":16,""time"":107590}]",NA,NA,NA,NA,NA,0,#741CD8,#D8271C,10,10,1,38,1,840.2999999988824,39,0,566.7000000011176,10,0,experiment,NA,NA,2,0.5,0.5,4,5,135,3,NA
fcp-trial,170,678277,0.0-145.0-0.0,voc_e2,12279,"[{""event"":""fullscreenenter"",""trial"":1,""time"":1288},{""event"":""blur"",""trial"":16,""time"":102737},{""event"":""focus"",""trial"":16,""time"":107590}]",NA,NA,NA,NA,NA,6,#D8271C,#741CD8,0,0,0,40,0,763.7000000011176,39,0,455.80000000074506,0,1,experiment,NA,NA,2,0.5,0.5,5,4,136,4,NA
fcp-trial,171,680923,0.0-146.0-0.0,voc_e2,12279,"[{""event"":""fullscreenenter"",""trial"":1,""time"":1288},{""event"":""blur"",""trial"":16,""time"":102737},{""event"":""focus"",""trial"":16,""time"":107590}]",NA,NA,NA,NA,NA,6,#D89F1C,#3386FF,10,0,0,40,0,741.2000000011176,37,1,398.2999999988824,10,0,experiment,NA,NA,1,0.3,0.7,3,2,137,4,NA
fcp-trial,172,683733,0.0-147.0-0.0,voc_e2,12279,"[{""event"":""fullscreenenter"",""trial"":1,""time"":1288},{""event"":""blur"",""trial"":16,""time"":102737},{""event"":""focus"",""trial"":16,""time"":107590}]",NA,NA,NA,NA,NA,4,#1CD855,#FA92F8,0,10,0,40,0,854.1999999992549,39,0,447.1000000014901,10,1,experiment,NA,NA,0,0.1,0.9,1,0,138,4,NA
fcp-trial,173,686581,0.0-148.0-0.0,voc_e2,12279,"[{""event"":""fullscreenenter"",""trial"":1,""time"":1288},{""event"":""blur"",""trial"":16,""time"":102737},{""event"":""focus"",""trial"":16,""time"":107590}]",NA,NA,NA,NA,NA,1,#D8271C,#741CD8,10,0,0,38,1,902,37,1,440.3999999985099,10,0,experiment,NA,NA,2,0.5,0.5,5,4,139,4,NA
fcp-trial,174,689245,0.0-149.0-0.0,voc_e2,12279,"[{""event"":""fullscreenenter"",""trial"":1,""time"":1288},{""event"":""blur"",""trial"":16,""time"":102737},{""event"":""focus"",""trial"":16,""time"":107590}]",NA,NA,NA,NA,NA,2,#1CD855,#FA92F8,0,10,0,38,1,788.6999999992549,39,0,363.9000000003726,10,1,experiment,NA,NA,0,0.1,0.9,1,0,140,4,NA
fcp-trial,175,691898,0.0-150.0-0.0,voc_e2,12279,"[{""event"":""fullscreenenter"",""trial"":1,""time"":1288},{""event"":""blur"",""trial"":16,""time"":102737},{""event"":""focus"",""trial"":16,""time"":107590}]",NA,NA,NA,NA,NA,1,#3386FF,#D89F1C,10,0,1,38,1,675.1999999992549,37,1,472,10,1,experiment,NA,NA,1,0.7,0.3,2,3,141,4,NA
fcp-trial,176,694628,0.0-151.0-0.0,voc_e2,12279,"[{""event"":""fullscreenenter"",""trial"":1,""time"":1288},{""event"":""blur"",""trial"":16,""time"":102737},{""event"":""focus"",""trial"":16,""time"":107590}]",NA,NA,NA,NA,NA,2,#D8271C,#741CD8,0,0,0,38,1,911.2999999988824,39,0,310.59999999962747,0,1,experiment,NA,NA,2,0.5,0.5,5,4,142,4,NA
fcp-trial,177,697475,0.0-152.0-0.0,voc_e2,12279,"[{""event"":""fullscreenenter"",""trial"":1,""time"":1288},{""event"":""blur"",""trial"":16,""time"":102737},{""event"":""focus"",""trial"":16,""time"":107590}]",NA,NA,NA,NA,NA,6,#FA92F8,#1CD855,10,0,1,40,0,862,39,0,478.69999999925494,0,0,experiment,NA,NA,0,0.9,0.1,0,1,143,4,NA
fcp-trial,178,700180,0.0-153.0-0.0,voc_e2,12279,"[{""event"":""fullscreenenter"",""trial"":1,""time"":1288},{""event"":""blur"",""trial"":16,""time"":102737},{""event"":""focus"",""trial"":16,""time"":107590}]",NA,NA,NA,NA,NA,5,#741CD8,#D8271C,0,10,1,40,0,756.9000000003725,37,1,438.8999999985099,0,1,experiment,NA,NA,2,0.5,0.5,4,5,144,4,NA
fcp-trial,179,702891,0.0-154.0-0.0,voc_e2,12279,"[{""event"":""fullscreenenter"",""trial"":1,""time"":1288},{""event"":""blur"",""trial"":16,""time"":102737},{""event"":""focus"",""trial"":16,""time"":107590}]",NA,NA,NA,NA,NA,3,#3386FF,#D89F1C,0,0,1,40,0,869.5,39,0,335,0,0,experiment,NA,NA,1,0.7,0.3,2,3,145,4,NA
fcp-trial,180,705676,0.0-155.0-0.0,voc_e2,12279,"[{""event"":""fullscreenenter"",""trial"":1,""time"":1288},{""event"":""blur"",""trial"":16,""time"":102737},{""event"":""focus"",""trial"":16,""time"":107590}]",NA,NA,NA,NA,NA,0,#FA92F8,#1CD855,10,0,1,38,1,867.3999999985099,37,1,407.5999999996274,10,1,experiment,NA,NA,0,0.9,0.1,0,1,146,4,NA
fcp-trial,181,709046,0.0-156.0-0.0,voc_e2,12279,"[{""event"":""fullscreenenter"",""trial"":1,""time"":1288},{""event"":""blur"",""trial"":16,""time"":102737},{""event"":""focus"",""trial"":16,""time"":107590}]",NA,NA,NA,NA,NA,3,#FA92F8,#1CD855,10,0,1,38,1,1550.300000000745,37,1,313.80000000074506,10,1,experiment,NA,NA,0,0.9,0.1,0,1,147,4,NA
fcp-trial,182,712044,0.0-157.0-0.0,voc_e2,12279,"[{""event"":""fullscreenenter"",""trial"":1,""time"":1288},{""event"":""blur"",""trial"":16,""time"":102737},{""event"":""focus"",""trial"":16,""time"":107590}]",NA,NA,NA,NA,NA,6,#D8271C,#741CD8,10,0,0,40,0,1061.5,37,1,430.5999999996274,10,0,experiment,NA,NA,2,0.5,0.5,5,4,148,4,NA
fcp-trial,183,714756,0.0-158.0-0.0,voc_e2,12279,"[{""event"":""fullscreenenter"",""trial"":1,""time"":1288},{""event"":""blur"",""trial"":16,""time"":102737},{""event"":""focus"",""trial"":16,""time"":107590}]",NA,NA,NA,NA,NA,3,#3386FF,#D89F1C,10,0,1,40,0,845.5999999996275,39,0,358.90000000037253,0,0,experiment,NA,NA,1,0.7,0.3,2,3,149,4,NA
fcp-trial,184,717494,0.0-159.0-0.0,voc_e2,12279,"[{""event"":""fullscreenenter"",""trial"":1,""time"":1288},{""event"":""blur"",""trial"":16,""time"":102737},{""event"":""focus"",""trial"":16,""time"":107590}]",NA,NA,NA,NA,NA,0,#1CD855,#FA92F8,0,10,0,38,1,923.7999999988824,39,0,304,10,1,experiment,NA,NA,0,0.1,0.9,1,0,150,4,NA
fcp-trial,185,720300,0.0-160.0-0.0,voc_e2,12279,"[{""event"":""fullscreenenter"",""trial"":1,""time"":1288},{""event"":""blur"",""trial"":16,""time"":102737},{""event"":""focus"",""trial"":16,""time"":107590}]",NA,NA,NA,NA,NA,0,#D89F1C,#3386FF,0,10,0,38,1,915.8999999985099,39,0,382,10,1,experiment,NA,NA,1,0.3,0.7,3,2,151,4,NA
fcp-trial,186,723195,0.0-161.0-0.0,voc_e2,12279,"[{""event"":""fullscreenenter"",""trial"":1,""time"":1288},{""event"":""blur"",""trial"":16,""time"":102737},{""event"":""focus"",""trial"":16,""time"":107590}]",NA,NA,NA,NA,NA,1,#741CD8,#D8271C,0,10,1,38,1,893.9000000003725,39,0,495.7000000011176,10,0,experiment,NA,NA,2,0.5,0.5,4,5,152,4,NA
fcp-trial,187,726013,0.0-162.0-0.0,voc_e2,12279,"[{""event"":""fullscreenenter"",""trial"":1,""time"":1288},{""event"":""blur"",""trial"":16,""time"":102737},{""event"":""focus"",""trial"":16,""time"":107590}]",NA,NA,NA,NA,NA,2,#1CD855,#FA92F8,0,10,0,38,1,977.3000000007451,39,0,334.90000000037253,10,1,experiment,NA,NA,0,0.1,0.9,1,0,153,4,NA
fcp-trial,188,728803,0.0-163.0-0.0,voc_e2,12279,"[{""event"":""fullscreenenter"",""trial"":1,""time"":1288},{""event"":""blur"",""trial"":16,""time"":102737},{""event"":""focus"",""trial"":16,""time"":107590}]",NA,NA,NA,NA,NA,0,#D8271C,#741CD8,0,0,0,38,1,949.5,37,1,333.90000000037253,0,0,experiment,NA,NA,2,0.5,0.5,5,4,154,4,NA
fcp-trial,189,731699,0.0-164.0-0.0,voc_e2,12279,"[{""event"":""fullscreenenter"",""trial"":1,""time"":1288},{""event"":""blur"",""trial"":16,""time"":102737},{""event"":""focus"",""trial"":16,""time"":107590}]",NA,NA,NA,NA,NA,4,#D89F1C,#3386FF,0,10,0,38,1,1006,39,0,382.9000000003726,10,1,experiment,NA,NA,1,0.3,0.7,3,2,155,4,NA
fcp-trial,190,734564,0.0-165.0-0.0,voc_e2,12279,"[{""event"":""fullscreenenter"",""trial"":1,""time"":1288},{""event"":""blur"",""trial"":16,""time"":102737},{""event"":""focus"",""trial"":16,""time"":107590}]",NA,NA,NA,NA,NA,6,#D89F1C,#3386FF,10,10,0,40,0,974.1999999992549,39,0,383.2999999988824,10,1,experiment,NA,NA,1,0.3,0.7,3,2,156,4,NA
fcp-trial,191,737725,0.0-166.0-0.0,voc_e2,12279,"[{""event"":""fullscreenenter"",""trial"":1,""time"":1288},{""event"":""blur"",""trial"":16,""time"":102737},{""event"":""focus"",""trial"":16,""time"":107590}]",NA,NA,NA,NA,NA,6,#FA92F8,#1CD855,10,0,1,40,0,1166.0999999996275,39,0,488,0,0,experiment,NA,NA,0,0.9,0.1,0,1,157,4,NA
fcp-trial,192,740420,0.0-167.0-0.0,voc_e2,12279,"[{""event"":""fullscreenenter"",""trial"":1,""time"":1288},{""event"":""blur"",""trial"":16,""time"":102737},{""event"":""focus"",""trial"":16,""time"":107590}]",NA,NA,NA,NA,NA,4,#D8271C,#741CD8,0,0,0,40,0,821.4000000003725,39,0,367.5999999996274,0,1,experiment,NA,NA,2,0.5,0.5,5,4,158,4,NA
fcp-trial,193,743539,0.0-168.0-0.0,voc_e2,12279,"[{""event"":""fullscreenenter"",""trial"":1,""time"":1288},{""event"":""blur"",""trial"":16,""time"":102737},{""event"":""focus"",""trial"":16,""time"":107590}]",NA,NA,NA,NA,NA,2,#D89F1C,#3386FF,0,10,0,38,1,1294.7000000011176,39,0,319.8999999985099,10,1,experiment,NA,NA,1,0.3,0.7,3,2,159,4,NA
fcp-trial,194,746159,0.0-169.0-0.0,voc_e2,12279,"[{""event"":""fullscreenenter"",""trial"":1,""time"":1288},{""event"":""blur"",""trial"":16,""time"":102737},{""event"":""focus"",""trial"":16,""time"":107590}]",NA,NA,NA,NA,NA,3,#FA92F8,#1CD855,10,0,1,40,0,716.4000000003725,39,0,391.5999999996274,0,0,experiment,NA,NA,0,0.9,0.1,0,1,160,4,NA
fcp-trial,195,748996,0.0-170.0-0.0,voc_e2,12279,"[{""event"":""fullscreenenter"",""trial"":1,""time"":1288},{""event"":""blur"",""trial"":16,""time"":102737},{""event"":""focus"",""trial"":16,""time"":107590}]",NA,NA,NA,NA,NA,1,#FA92F8,#1CD855,0,0,1,38,1,1002.4000000003725,37,1,327.90000000037253,0,1,experiment,NA,NA,0,0.9,0.1,0,1,161,4,NA
fcp-trial,196,751812,0.0-171.0-0.0,voc_e2,12279,"[{""event"":""fullscreenenter"",""trial"":1,""time"":1288},{""event"":""blur"",""trial"":16,""time"":102737},{""event"":""focus"",""trial"":16,""time"":107590}]",NA,NA,NA,NA,NA,1,#3386FF,#D89F1C,0,0,1,38,1,863.4000000003725,37,1,447.80000000074506,0,1,experiment,NA,NA,1,0.7,0.3,2,3,162,4,NA
fcp-trial,197,755035,0.0-172.0-0.0,voc_e2,12279,"[{""event"":""fullscreenenter"",""trial"":1,""time"":1288},{""event"":""blur"",""trial"":16,""time"":102737},{""event"":""focus"",""trial"":16,""time"":107590}]",NA,NA,NA,NA,NA,3,#D8271C,#741CD8,0,0,0,38,1,781.8000000007451,37,1,935.89999999851,0,0,experiment,NA,NA,2,0.5,0.5,5,4,163,4,NA
fcp-trial,198,758282,0.0-173.0-0.0,voc_e2,12279,"[{""event"":""fullscreenenter"",""trial"":1,""time"":1288},{""event"":""blur"",""trial"":16,""time"":102737},{""event"":""focus"",""trial"":16,""time"":107590}]",NA,NA,NA,NA,NA,5,#FA92F8,#1CD855,10,0,1,40,0,1351.6000000014901,39,0,390.5,0,0,experiment,NA,NA,0,0.9,0.1,0,1,164,4,NA
fcp-trial,199,761045,0.0-174.0-0.0,voc_e2,12279,"[{""event"":""fullscreenenter"",""trial"":1,""time"":1288},{""event"":""blur"",""trial"":16,""time"":102737},{""event"":""focus"",""trial"":16,""time"":107590}]",NA,NA,NA,NA,NA,5,#3386FF,#D89F1C,0,10,1,40,0,824.5999999996275,37,1,421.2999999988824,0,1,experiment,NA,NA,1,0.7,0.3,2,3,165,4,NA
fcp-trial,200,763834,0.0-175.0-0.0,voc_e2,12279,"[{""event"":""fullscreenenter"",""trial"":1,""time"":1288},{""event"":""blur"",""trial"":16,""time"":102737},{""event"":""focus"",""trial"":16,""time"":107590}]",NA,NA,NA,NA,NA,2,#741CD8,#D8271C,10,0,1,38,1,950.3999999985099,39,0,332.8999999985099,0,0,experiment,NA,NA,2,0.5,0.5,4,5,166,4,NA
fcp-trial,201,766626,0.0-176.0-0.0,voc_e2,12279,"[{""event"":""fullscreenenter"",""trial"":1,""time"":1288},{""event"":""blur"",""trial"":16,""time"":102737},{""event"":""focus"",""trial"":16,""time"":107590}]",NA,NA,NA,NA,NA,4,#FA92F8,#1CD855,10,0,1,40,0,856.2999999988824,37,1,429.5,10,1,experiment,NA,NA,0,0.9,0.1,0,1,167,4,NA
fcp-trial,202,769402,0.0-177.0-0.0,voc_e2,12279,"[{""event"":""fullscreenenter"",""trial"":1,""time"":1288},{""event"":""blur"",""trial"":16,""time"":102737},{""event"":""focus"",""trial"":16,""time"":107590}]",NA,NA,NA,NA,NA,5,#D8271C,#741CD8,10,0,0,40,0,889,37,1,382.9000000003726,10,0,experiment,NA,NA,2,0.5,0.5,5,4,168,4,NA
fcp-trial,203,772066,0.0-178.0-0.0,voc_e2,12279,"[{""event"":""fullscreenenter"",""trial"":1,""time"":1288},{""event"":""blur"",""trial"":16,""time"":102737},{""event"":""focus"",""trial"":16,""time"":107590}]",NA,NA,NA,NA,NA,6,#D89F1C,#3386FF,0,10,0,40,0,783.9000000003725,37,1,374.80000000074506,0,0,experiment,NA,NA,1,0.3,0.7,3,2,169,4,NA
fcp-trial,204,774730,0.0-179.0-0.0,voc_e2,12279,"[{""event"":""fullscreenenter"",""trial"":1,""time"":1288},{""event"":""blur"",""trial"":16,""time"":102737},{""event"":""focus"",""trial"":16,""time"":107590}]",NA,NA,NA,NA,NA,1,#FA92F8,#1CD855,10,0,1,38,1,839.3000000007451,37,1,318.5,10,1,experiment,NA,NA,0,0.9,0.1,0,1,170,4,NA
fcp-trial,205,777443,0.0-180.0-0.0,voc_e2,12279,"[{""event"":""fullscreenenter"",""trial"":1,""time"":1288},{""event"":""blur"",""trial"":16,""time"":102737},{""event"":""focus"",""trial"":16,""time"":107590}]",NA,NA,NA,NA,NA,1,#D8271C,#741CD8,0,0,0,38,1,888.0999999996275,37,1,318.69999999925494,0,0,experiment,NA,NA,2,0.5,0.5,5,4,171,4,NA
fcp-trial,206,780707,0.0-181.0-0.0,voc_e2,12279,"[{""event"":""fullscreenenter"",""trial"":1,""time"":1288},{""event"":""blur"",""trial"":16,""time"":102737},{""event"":""focus"",""trial"":16,""time"":107590}]",NA,NA,NA,NA,NA,6,#FA92F8,#1CD855,10,10,1,40,0,920,39,0,839.2999999988824,10,0,experiment,NA,NA,0,0.9,0.1,0,1,172,4,NA
fcp-trial,207,783795,0.0-182.0-0.0,voc_e2,12279,"[{""event"":""fullscreenenter"",""trial"":1,""time"":1288},{""event"":""blur"",""trial"":16,""time"":102737},{""event"":""focus"",""trial"":16,""time"":107590}]",NA,NA,NA,NA,NA,5,#741CD8,#D8271C,0,10,1,40,0,1190.2999999988824,39,0,391.5,10,0,experiment,NA,NA,2,0.5,0.5,4,5,173,4,NA
fcp-trial,208,786746,0.0-183.0-0.0,voc_e2,12279,"[{""event"":""fullscreenenter"",""trial"":1,""time"":1288},{""event"":""blur"",""trial"":16,""time"":102737},{""event"":""focus"",""trial"":16,""time"":107590}]",NA,NA,NA,NA,NA,0,#3386FF,#D89F1C,10,0,1,38,1,1046.800000000745,37,1,397.5,10,1,experiment,NA,NA,1,0.7,0.3,2,3,174,4,NA
fcp-trial,209,789604,0.0-184.0-0.0,voc_e2,12279,"[{""event"":""fullscreenenter"",""trial"":1,""time"":1288},{""event"":""blur"",""trial"":16,""time"":102737},{""event"":""focus"",""trial"":16,""time"":107590}]",NA,NA,NA,NA,NA,5,#FA92F8,#1CD855,10,0,1,40,0,967.5999999996275,37,1,379.2999999988824,10,1,experiment,NA,NA,0,0.9,0.1,0,1,175,4,NA
fcp-trial,210,792585,0.0-185.0-0.0,voc_e2,12279,"[{""event"":""fullscreenenter"",""trial"":1,""time"":1288},{""event"":""blur"",""trial"":16,""time"":102737},{""event"":""focus"",""trial"":16,""time"":107590}]",NA,NA,NA,NA,NA,0,#741CD8,#D8271C,10,10,1,38,1,1172.5,39,0,300.69999999925494,10,0,experiment,NA,NA,2,0.5,0.5,4,5,176,4,NA
fcp-trial,211,795341,0.0-186.0-0.0,voc_e2,12279,"[{""event"":""fullscreenenter"",""trial"":1,""time"":1288},{""event"":""blur"",""trial"":16,""time"":102737},{""event"":""focus"",""trial"":16,""time"":107590}]",NA,NA,NA,NA,NA,3,#D89F1C,#3386FF,10,10,0,40,0,831.6000000014901,37,1,416.30000000074506,10,0,experiment,NA,NA,1,0.3,0.7,3,2,177,4,NA
fcp-trial,212,798146,0.0-187.0-0.0,voc_e2,12279,"[{""event"":""fullscreenenter"",""trial"":1,""time"":1288},{""event"":""blur"",""trial"":16,""time"":102737},{""event"":""focus"",""trial"":16,""time"":107590}]",NA,NA,NA,NA,NA,4,#741CD8,#D8271C,10,10,1,40,0,869.4000000003725,37,1,428.80000000074506,10,1,experiment,NA,NA,2,0.5,0.5,4,5,178,4,NA
fcp-trial,213,800860,0.0-188.0-0.0,voc_e2,12279,"[{""event"":""fullscreenenter"",""trial"":1,""time"":1288},{""event"":""blur"",""trial"":16,""time"":102737},{""event"":""focus"",""trial"":16,""time"":107590}]",NA,NA,NA,NA,NA,3,#D8271C,#741CD8,10,0,0,40,0,832.4000000003725,37,1,375.0999999996274,10,0,experiment,NA,NA,2,0.5,0.5,5,4,179,4,NA
fcp-trial,214,803483,0.0-189.0-0.0,voc_e2,12279,"[{""event"":""fullscreenenter"",""trial"":1,""time"":1288},{""event"":""blur"",""trial"":16,""time"":102737},{""event"":""focus"",""trial"":16,""time"":107590}]",NA,NA,NA,NA,NA,3,#1CD855,#FA92F8,0,10,0,40,0,702.9000000003725,37,1,414.6000000014901,0,0,experiment,NA,NA,0,0.1,0.9,1,0,180,4,NA
fcp-trial,215,806276,0.0-190.0-0.0,voc_e2,12279,"[{""event"":""fullscreenenter"",""trial"":1,""time"":1288},{""event"":""blur"",""trial"":16,""time"":102737},{""event"":""focus"",""trial"":16,""time"":107590}]",NA,NA,NA,NA,NA,2,#1CD855,#FA92F8,0,10,0,38,1,980.7000000011176,39,0,305.19999999925494,10,1,experiment,NA,NA,0,0.1,0.9,1,0,181,5,NA
fcp-trial,216,809356,0.0-191.0-0.0,voc_e2,12279,"[{""event"":""fullscreenenter"",""trial"":1,""time"":1288},{""event"":""blur"",""trial"":16,""time"":102737},{""event"":""focus"",""trial"":16,""time"":107590}]",NA,NA,NA,NA,NA,1,#3386FF,#D89F1C,10,10,1,38,1,1262.5,37,1,311.90000000037253,10,1,experiment,NA,NA,1,0.7,0.3,2,3,182,5,NA
fcp-trial,217,812211,0.0-192.0-0.0,voc_e2,12279,"[{""event"":""fullscreenenter"",""trial"":1,""time"":1288},{""event"":""blur"",""trial"":16,""time"":102737},{""event"":""focus"",""trial"":16,""time"":107590}]",NA,NA,NA,NA,NA,5,#3386FF,#D89F1C,10,0,1,40,0,949.9000000003725,37,1,398.5,10,1,experiment,NA,NA,1,0.7,0.3,2,3,183,5,NA
fcp-trial,218,815147,0.0-193.0-0.0,voc_e2,12279,"[{""event"":""fullscreenenter"",""trial"":1,""time"":1288},{""event"":""blur"",""trial"":16,""time"":102737},{""event"":""focus"",""trial"":16,""time"":107590}]",NA,NA,NA,NA,NA,6,#D8271C,#741CD8,10,10,0,40,0,998.3000000007451,39,0,430.80000000074506,10,1,experiment,NA,NA,2,0.5,0.5,5,4,184,5,NA
fcp-trial,219,817875,0.0-194.0-0.0,voc_e2,12279,"[{""event"":""fullscreenenter"",""trial"":1,""time"":1288},{""event"":""blur"",""trial"":16,""time"":102737},{""event"":""focus"",""trial"":16,""time"":107590}]",NA,NA,NA,NA,NA,4,#FA92F8,#1CD855,10,0,1,40,0,767.5,39,0,454.69999999925494,0,0,experiment,NA,NA,0,0.9,0.1,0,1,185,5,NA
fcp-trial,220,820604,0.0-195.0-0.0,voc_e2,12279,"[{""event"":""fullscreenenter"",""trial"":1,""time"":1288},{""event"":""blur"",""trial"":16,""time"":102737},{""event"":""focus"",""trial"":16,""time"":107590}]",NA,NA,NA,NA,NA,4,#3386FF,#D89F1C,10,0,1,40,0,831.2999999988824,37,1,390.80000000074506,10,1,experiment,NA,NA,1,0.7,0.3,2,3,186,5,NA
fcp-trial,221,823707,0.0-196.0-0.0,voc_e2,12279,"[{""event"":""fullscreenenter"",""trial"":1,""time"":1288},{""event"":""blur"",""trial"":16,""time"":102737},{""event"":""focus"",""trial"":16,""time"":107590}]",NA,NA,NA,NA,NA,2,#D8271C,#741CD8,10,10,0,38,1,1062.5,37,1,534.7000000011176,10,0,experiment,NA,NA,2,0.5,0.5,5,4,187,5,NA
fcp-trial,222,826642,0.0-197.0-0.0,voc_e2,12279,"[{""event"":""fullscreenenter"",""trial"":1,""time"":1288},{""event"":""blur"",""trial"":16,""time"":102737},{""event"":""focus"",""trial"":16,""time"":107590}]",NA,NA,NA,NA,NA,0,#FA92F8,#1CD855,10,0,1,38,1,1062.4000000003725,37,1,366.1000000014901,10,1,experiment,NA,NA,0,0.9,0.1,0,1,188,5,NA
fcp-trial,223,829426,0.0-198.0-0.0,voc_e2,12279,"[{""event"":""fullscreenenter"",""trial"":1,""time"":1288},{""event"":""blur"",""trial"":16,""time"":102737},{""event"":""focus"",""trial"":16,""time"":107590}]",NA,NA,NA,NA,NA,2,#3386FF,#D89F1C,10,0,1,38,1,942.6999999992549,37,1,335.19999999925494,10,1,experiment,NA,NA,1,0.7,0.3,2,3,189,5,NA
fcp-trial,224,832259,0.0-199.0-0.0,voc_e2,12279,"[{""event"":""fullscreenenter"",""trial"":1,""time"":1288},{""event"":""blur"",""trial"":16,""time"":102737},{""event"":""focus"",""trial"":16,""time"":107590}]",NA,NA,NA,NA,NA,0,#1CD855,#FA92F8,0,10,0,38,1,992.0999999996275,39,0,333.90000000037253,10,1,experiment,NA,NA,0,0.1,0.9,1,0,190,5,NA
fcp-trial,225,835411,0.0-200.0-0.0,voc_e2,12279,"[{""event"":""fullscreenenter"",""trial"":1,""time"":1288},{""event"":""blur"",""trial"":16,""time"":102737},{""event"":""focus"",""trial"":16,""time"":107590}]",NA,NA,NA,NA,NA,6,#D89F1C,#3386FF,0,10,0,40,0,1230.2000000011176,37,1,415,0,0,experiment,NA,NA,1,0.3,0.7,3,2,191,5,NA
fcp-trial,226,838281,0.0-201.0-0.0,voc_e2,12279,"[{""event"":""fullscreenenter"",""trial"":1,""time"":1288},{""event"":""blur"",""trial"":16,""time"":102737},{""event"":""focus"",""trial"":16,""time"":107590}]",NA,NA,NA,NA,NA,3,#D8271C,#741CD8,10,0,0,38,1,998.7000000011176,37,1,365.69999999925494,10,0,experiment,NA,NA,2,0.5,0.5,5,4,192,5,NA
fcp-trial,227,841178,0.0-202.0-0.0,voc_e2,12279,"[{""event"":""fullscreenenter"",""trial"":1,""time"":1288},{""event"":""blur"",""trial"":16,""time"":102737},{""event"":""focus"",""trial"":16,""time"":107590}]",NA,NA,NA,NA,NA,6,#D8271C,#741CD8,10,10,0,40,0,911,39,0,478.0999999996274,10,1,experiment,NA,NA,2,0.5,0.5,5,4,193,5,NA
fcp-trial,228,844626,0.0-203.0-0.0,voc_e2,12279,"[{""event"":""fullscreenenter"",""trial"":1,""time"":1288},{""event"":""blur"",""trial"":16,""time"":102737},{""event"":""focus"",""trial"":16,""time"":107590}]",NA,NA,NA,NA,NA,3,#D89F1C,#3386FF,10,0,0,38,1,991.1000000014901,37,1,950.3000000007452,10,0,experiment,NA,NA,1,0.3,0.7,3,2,194,5,NA
fcp-trial,229,847355,0.0-204.0-0.0,voc_e2,12279,"[{""event"":""fullscreenenter"",""trial"":1,""time"":1288},{""event"":""blur"",""trial"":16,""time"":102737},{""event"":""focus"",""trial"":16,""time"":107590}]",NA,NA,NA,NA,NA,6,#1CD855,#FA92F8,0,10,0,40,0,806.5999999996275,39,0,416,10,1,experiment,NA,NA,0,0.1,0.9,1,0,195,5,NA
fcp-trial,230,850388,0.0-205.0-0.0,voc_e2,12279,"[{""event"":""fullscreenenter"",""trial"":1,""time"":1288},{""event"":""blur"",""trial"":16,""time"":102737},{""event"":""focus"",""trial"":16,""time"":107590}]",NA,NA,NA,NA,NA,0,#3386FF,#D89F1C,10,0,1,38,1,1070.199999999255,37,1,455.30000000074506,10,1,experiment,NA,NA,1,0.7,0.3,2,3,196,5,NA
fcp-trial,231,853794,0.0-206.0-0.0,voc_e2,12279,"[{""event"":""fullscreenenter"",""trial"":1,""time"":1288},{""event"":""blur"",""trial"":16,""time"":102737},{""event"":""focus"",""trial"":16,""time"":107590}]",NA,NA,NA,NA,NA,0,#741CD8,#D8271C,10,10,1,38,1,1556.5999999996275,39,0,339.40000000037253,10,0,experiment,NA,NA,2,0.5,0.5,4,5,197,5,NA
fcp-trial,232,856779,0.0-207.0-0.0,voc_e2,12279,"[{""event"":""fullscreenenter"",""trial"":1,""time"":1288},{""event"":""blur"",""trial"":16,""time"":102737},{""event"":""focus"",""trial"":16,""time"":107590}]",NA,NA,NA,NA,NA,4,#FA92F8,#1CD855,10,10,1,40,0,1039.199999999255,37,1,436.9000000003726,10,1,experiment,NA,NA,0,0.9,0.1,0,1,198,5,NA
fcp-trial,233,859805,0.0-208.0-0.0,voc_e2,12279,"[{""event"":""fullscreenenter"",""trial"":1,""time"":1288},{""event"":""blur"",""trial"":16,""time"":102737},{""event"":""focus"",""trial"":16,""time"":107590}]",NA,NA,NA,NA,NA,5,#3386FF,#D89F1C,10,10,1,40,0,1092.5999999996275,37,1,425.9000000003726,10,1,experiment,NA,NA,1,0.7,0.3,2,3,199,5,NA
fcp-trial,234,862723,0.0-209.0-0.0,voc_e2,12279,"[{""event"":""fullscreenenter"",""trial"":1,""time"":1288},{""event"":""blur"",""trial"":16,""time"":102737},{""event"":""focus"",""trial"":16,""time"":107590}]",NA,NA,NA,NA,NA,2,#741CD8,#D8271C,0,10,1,38,1,1045.4000000003725,39,0,367.4000000003726,10,0,experiment,NA,NA,2,0.5,0.5,4,5,200,5,NA
fcp-trial,235,865547,0.0-210.0-0.0,voc_e2,12279,"[{""event"":""fullscreenenter"",""trial"":1,""time"":1288},{""event"":""blur"",""trial"":16,""time"":102737},{""event"":""focus"",""trial"":16,""time"":107590}]",NA,NA,NA,NA,NA,5,#FA92F8,#1CD855,10,10,1,40,0,853.6999999992549,39,0,461.4000000003726,10,0,experiment,NA,NA,0,0.9,0.1,0,1,201,5,NA
fcp-trial,236,868291,0.0-211.0-0.0,voc_e2,12279,"[{""event"":""fullscreenenter"",""trial"":1,""time"":1288},{""event"":""blur"",""trial"":16,""time"":102737},{""event"":""focus"",""trial"":16,""time"":107590}]",NA,NA,NA,NA,NA,1,#D89F1C,#3386FF,10,10,0,38,1,774.6999999992549,39,0,463.5999999996274,10,1,experiment,NA,NA,1,0.3,0.7,3,2,202,5,NA
fcp-trial,237,871474,0.0-212.0-0.0,voc_e2,12279,"[{""event"":""fullscreenenter"",""trial"":1,""time"":1288},{""event"":""blur"",""trial"":16,""time"":102737},{""event"":""focus"",""trial"":16,""time"":107590}]",NA,NA,NA,NA,NA,3,#1CD855,#FA92F8,0,10,0,40,0,1038.9000000003725,37,1,637,0,0,experiment,NA,NA,0,0.1,0.9,1,0,203,5,NA
fcp-trial,238,874162,0.0-213.0-0.0,voc_e2,12279,"[{""event"":""fullscreenenter"",""trial"":1,""time"":1288},{""event"":""blur"",""trial"":16,""time"":102737},{""event"":""focus"",""trial"":16,""time"":107590}]",NA,NA,NA,NA,NA,1,#1CD855,#FA92F8,0,10,0,38,1,830.5,39,0,350.7999999988824,10,1,experiment,NA,NA,0,0.1,0.9,1,0,204,5,NA
fcp-trial,239,877054,0.0-214.0-0.0,voc_e2,12279,"[{""event"":""fullscreenenter"",""trial"":1,""time"":1288},{""event"":""blur"",""trial"":16,""time"":102737},{""event"":""focus"",""trial"":16,""time"":107590}]",NA,NA,NA,NA,NA,5,#741CD8,#D8271C,10,0,1,40,0,942.0999999996275,37,1,441.9000000003726,10,1,experiment,NA,NA,2,0.5,0.5,4,5,205,5,NA
fcp-trial,240,879946,0.0-215.0-0.0,voc_e2,12279,"[{""event"":""fullscreenenter"",""trial"":1,""time"":1288},{""event"":""blur"",""trial"":16,""time"":102737},{""event"":""focus"",""trial"":16,""time"":107590}]",NA,NA,NA,NA,NA,2,#1CD855,#FA92F8,0,10,0,38,1,1067.300000000745,39,0,318.6000000014901,10,1,experiment,NA,NA,0,0.1,0.9,1,0,206,5,NA
fcp-trial,241,882706,0.0-216.0-0.0,voc_e2,12279,"[{""event"":""fullscreenenter"",""trial"":1,""time"":1288},{""event"":""blur"",""trial"":16,""time"":102737},{""event"":""focus"",""trial"":16,""time"":107590}]",NA,NA,NA,NA,NA,2,#3386FF,#D89F1C,0,0,1,38,1,942.5,37,1,310.90000000037253,0,1,experiment,NA,NA,1,0.7,0.3,2,3,207,5,NA
fcp-trial,242,885625,0.0-217.0-0.0,voc_e2,12279,"[{""event"":""fullscreenenter"",""trial"":1,""time"":1288},{""event"":""blur"",""trial"":16,""time"":102737},{""event"":""focus"",""trial"":16,""time"":107590}]",NA,NA,NA,NA,NA,1,#D8271C,#741CD8,10,0,0,38,1,1078.7999999988824,37,1,334.2999999988824,10,0,experiment,NA,NA,2,0.5,0.5,5,4,208,5,NA
fcp-trial,243,889053,0.0-218.0-0.0,voc_e2,12279,"[{""event"":""fullscreenenter"",""trial"":1,""time"":1288},{""event"":""blur"",""trial"":16,""time"":102737},{""event"":""focus"",""trial"":16,""time"":107590}]",NA,NA,NA,NA,NA,4,#3386FF,#D89F1C,10,0,1,40,0,1431,39,0,490.5,0,0,experiment,NA,NA,1,0.7,0.3,2,3,209,5,NA
fcp-trial,244,891858,0.0-219.0-0.0,voc_e2,12279,"[{""event"":""fullscreenenter"",""trial"":1,""time"":1288},{""event"":""blur"",""trial"":16,""time"":102737},{""event"":""focus"",""trial"":16,""time"":107590}]",NA,NA,NA,NA,NA,4,#741CD8,#D8271C,0,10,1,40,0,876.0999999996275,37,1,420.4000000003726,0,1,experiment,NA,NA,2,0.5,0.5,4,5,210,5,NA
audio-instructions,245,904034,0.0-220.0,voc_e2,12279,"[{""event"":""fullscreenenter"",""trial"":1,""time"":1288},{""event"":""blur"",""trial"":16,""time"":102737},{""event"":""focus"",""trial"":16,""time"":107590}]",NA,7703.199999999255,static/audio/pause.wav,NA,0,NA,NA,NA,NA,NA,NA,NA,NA,NA,NA,NA,NA,NA,NA,NA,NA,NA,NA,NA,NA,NA,NA,NA,NA,NA
fcp-trial,246,907169,0.0-221.0-0.0,voc_e2,12279,"[{""event"":""fullscreenenter"",""trial"":1,""time"":1288},{""event"":""blur"",""trial"":16,""time"":102737},{""event"":""focus"",""trial"":16,""time"":107590}]",NA,NA,NA,NA,NA,1,#3386FF,#D89F1C,10,0,1,38,1,1151.9000000003725,37,1,467.5999999996274,10,1,experiment,NA,NA,1,0.7,0.3,2,3,211,5,NA
fcp-trial,247,909909,0.0-222.0-0.0,voc_e2,12279,"[{""event"":""fullscreenenter"",""trial"":1,""time"":1288},{""event"":""blur"",""trial"":16,""time"":102737},{""event"":""focus"",""trial"":16,""time"":107590}]",NA,NA,NA,NA,NA,2,#D8271C,#741CD8,10,0,0,38,1,888.5,37,1,341.40000000037253,10,0,experiment,NA,NA,2,0.5,0.5,5,4,212,5,NA
fcp-trial,248,912665,0.0-223.0-0.0,voc_e2,12279,"[{""event"":""fullscreenenter"",""trial"":1,""time"":1288},{""event"":""blur"",""trial"":16,""time"":102737},{""event"":""focus"",""trial"":16,""time"":107590}]",NA,NA,NA,NA,NA,4,#1CD855,#FA92F8,0,10,0,40,0,822,39,0,421,10,1,experiment,NA,NA,0,0.1,0.9,1,0,213,5,NA
fcp-trial,249,915500,0.0-224.0-0.0,voc_e2,12279,"[{""event"":""fullscreenenter"",""trial"":1,""time"":1288},{""event"":""blur"",""trial"":16,""time"":102737},{""event"":""focus"",""trial"":16,""time"":107590}]",NA,NA,NA,NA,NA,4,#D89F1C,#3386FF,0,10,0,40,0,902.8000000007451,39,0,415,10,1,experiment,NA,NA,1,0.3,0.7,3,2,214,5,NA
fcp-trial,250,918181,0.0-225.0-0.0,voc_e2,12279,"[{""event"":""fullscreenenter"",""trial"":1,""time"":1288},{""event"":""blur"",""trial"":16,""time"":102737},{""event"":""focus"",""trial"":16,""time"":107590}]",NA,NA,NA,NA,NA,6,#3386FF,#D89F1C,10,0,1,40,0,691.8000000007451,39,0,471.5,0,0,experiment,NA,NA,1,0.7,0.3,2,3,215,5,NA
fcp-trial,251,920767,0.0-226.0-0.0,voc_e2,12279,"[{""event"":""fullscreenenter"",""trial"":1,""time"":1288},{""event"":""blur"",""trial"":16,""time"":102737},{""event"":""focus"",""trial"":16,""time"":107590}]",NA,NA,NA,NA,NA,5,#FA92F8,#1CD855,10,0,1,40,0,719.1999999992549,37,1,346.09999999962747,10,1,experiment,NA,NA,0,0.9,0.1,0,1,216,5,NA
fcp-trial,252,923566,0.0-227.0-0.0,voc_e2,12279,"[{""event"":""fullscreenenter"",""trial"":1,""time"":1288},{""event"":""blur"",""trial"":16,""time"":102737},{""event"":""focus"",""trial"":16,""time"":107590}]",NA,NA,NA,NA,NA,3,#D8271C,#741CD8,0,0,0,40,0,882,39,0,387.0999999996274,0,1,experiment,NA,NA,2,0.5,0.5,5,4,217,5,NA
fcp-trial,253,926400,0.0-228.0-0.0,voc_e2,12279,"[{""event"":""fullscreenenter"",""trial"":1,""time"":1288},{""event"":""blur"",""trial"":16,""time"":102737},{""event"":""focus"",""trial"":16,""time"":107590}]",NA,NA,NA,NA,NA,0,#D89F1C,#3386FF,0,10,0,38,1,916.6000000014901,39,0,400.0999999996274,10,1,experiment,NA,NA,1,0.3,0.7,3,2,218,5,NA
fcp-trial,254,929049,0.0-229.0-0.0,voc_e2,12279,"[{""event"":""fullscreenenter"",""trial"":1,""time"":1288},{""event"":""blur"",""trial"":16,""time"":102737},{""event"":""focus"",""trial"":16,""time"":107590}]",NA,NA,NA,NA,NA,1,#FA92F8,#1CD855,0,0,1,38,1,849.5999999996275,37,1,285.7000000011176,0,1,experiment,NA,NA,0,0.9,0.1,0,1,219,5,NA
fcp-trial,255,931669,0.0-230.0-0.0,voc_e2,12279,"[{""event"":""fullscreenenter"",""trial"":1,""time"":1288},{""event"":""blur"",""trial"":16,""time"":102737},{""event"":""focus"",""trial"":16,""time"":107590}]",NA,NA,NA,NA,NA,2,#3386FF,#D89F1C,10,0,1,38,1,751.7999999988824,37,1,361.7999999988824,10,1,experiment,NA,NA,1,0.7,0.3,2,3,220,5,NA
fcp-trial,256,934443,0.0-231.0-0.0,voc_e2,12279,"[{""event"":""fullscreenenter"",""trial"":1,""time"":1288},{""event"":""blur"",""trial"":16,""time"":102737},{""event"":""focus"",""trial"":16,""time"":107590}]",NA,NA,NA,NA,NA,0,#741CD8,#D8271C,10,0,1,38,1,957.8000000007451,39,0,310.40000000037253,0,0,experiment,NA,NA,2,0.5,0.5,4,5,221,5,NA
fcp-trial,257,937737,0.0-232.0-0.0,voc_e2,12279,"[{""event"":""fullscreenenter"",""trial"":1,""time"":1288},{""event"":""blur"",""trial"":16,""time"":102737},{""event"":""focus"",""trial"":16,""time"":107590}]",NA,NA,NA,NA,NA,6,#FA92F8,#1CD855,10,0,1,40,0,1447.0999999996275,37,1,341.7999999988824,10,1,experiment,NA,NA,0,0.9,0.1,0,1,222,5,NA
fcp-trial,258,940515,0.0-233.0-0.0,voc_e2,12279,"[{""event"":""fullscreenenter"",""trial"":1,""time"":1288},{""event"":""blur"",""trial"":16,""time"":102737},{""event"":""focus"",""trial"":16,""time"":107590}]",NA,NA,NA,NA,NA,2,#1CD855,#FA92F8,10,10,0,38,1,926.8999999985099,39,0,343.6000000014901,10,1,experiment,NA,NA,0,0.1,0.9,1,0,223,5,NA
fcp-trial,259,943315,0.0-234.0-0.0,voc_e2,12279,"[{""event"":""fullscreenenter"",""trial"":1,""time"":1288},{""event"":""blur"",""trial"":16,""time"":102737},{""event"":""focus"",""trial"":16,""time"":107590}]",NA,NA,NA,NA,NA,5,#741CD8,#D8271C,10,0,1,40,0,867.4000000003725,37,1,426.0999999996274,10,1,experiment,NA,NA,2,0.5,0.5,4,5,224,5,NA
fcp-trial,260,945968,0.0-235.0-0.0,voc_e2,12279,"[{""event"":""fullscreenenter"",""trial"":1,""time"":1288},{""event"":""blur"",""trial"":16,""time"":102737},{""event"":""focus"",""trial"":16,""time"":107590}]",NA,NA,NA,NA,NA,5,#3386FF,#D89F1C,10,0,1,40,0,765.0999999996275,39,0,382.4000000003726,0,0,experiment,NA,NA,1,0.7,0.3,2,3,225,5,NA
fcp-trial,261,948657,0.0-236.0-0.0,voc_e2,12279,"[{""event"":""fullscreenenter"",""trial"":1,""time"":1288},{""event"":""blur"",""trial"":16,""time"":102737},{""event"":""focus"",""trial"":16,""time"":107590}]",NA,NA,NA,NA,NA,1,#D8271C,#741CD8,0,0,0,38,1,913.4000000003725,37,1,270.59999999962747,0,0,experiment,NA,NA,2,0.5,0.5,5,4,226,6,NA
fcp-trial,262,951698,0.0-237.0-0.0,voc_e2,12279,"[{""event"":""fullscreenenter"",""trial"":1,""time"":1288},{""event"":""blur"",""trial"":16,""time"":102737},{""event"":""focus"",""trial"":16,""time"":107590}]",NA,NA,NA,NA,NA,3,#FA92F8,#1CD855,10,10,1,40,0,959.5999999996275,39,0,576.5,10,0,experiment,NA,NA,0,0.9,0.1,0,1,227,6,NA
fcp-trial,263,954561,0.0-238.0-0.0,voc_e2,12279,"[{""event"":""fullscreenenter"",""trial"":1,""time"":1288},{""event"":""blur"",""trial"":16,""time"":102737},{""event"":""focus"",""trial"":16,""time"":107590}]",NA,NA,NA,NA,NA,3,#D89F1C,#3386FF,0,0,0,40,0,870.3000000007451,39,0,486.8999999985099,0,1,experiment,NA,NA,1,0.3,0.7,3,2,228,6,NA
fcp-trial,264,957368,0.0-239.0-0.0,voc_e2,12279,"[{""event"":""fullscreenenter"",""trial"":1,""time"":1288},{""event"":""blur"",""trial"":16,""time"":102737},{""event"":""focus"",""trial"":16,""time"":107590}]",NA,NA,NA,NA,NA,6,#741CD8,#D8271C,10,0,1,40,0,868.5,37,1,431.9000000003726,10,1,experiment,NA,NA,2,0.5,0.5,4,5,229,6,NA
fcp-trial,265,959969,0.0-240.0-0.0,voc_e2,12279,"[{""event"":""fullscreenenter"",""trial"":1,""time"":1288},{""event"":""blur"",""trial"":16,""time"":102737},{""event"":""focus"",""trial"":16,""time"":107590}]",NA,NA,NA,NA,NA,4,#D8271C,#741CD8,10,0,0,40,0,688.2000000011176,39,0,406.19999999925494,0,1,experiment,NA,NA,2,0.5,0.5,5,4,230,6,NA
fcp-trial,266,962569,0.0-241.0-0.0,voc_e2,12279,"[{""event"":""fullscreenenter"",""trial"":1,""time"":1288},{""event"":""blur"",""trial"":16,""time"":102737},{""event"":""focus"",""trial"":16,""time"":107590}]",NA,NA,NA,NA,NA,0,#1CD855,#FA92F8,10,10,0,38,1,784.2000000011176,39,0,306.69999999925494,10,1,experiment,NA,NA,0,0.1,0.9,1,0,231,6,NA
fcp-trial,267,965209,0.0-242.0-0.0,voc_e2,12279,"[{""event"":""fullscreenenter"",""trial"":1,""time"":1288},{""event"":""blur"",""trial"":16,""time"":102737},{""event"":""focus"",""trial"":16,""time"":107590}]",NA,NA,NA,NA,NA,3,#FA92F8,#1CD855,10,0,1,40,0,720.4000000003725,39,0,414.5,0,0,experiment,NA,NA,0,0.9,0.1,0,1,232,6,NA
fcp-trial,268,967993,0.0-243.0-0.0,voc_e2,12279,"[{""event"":""fullscreenenter"",""trial"":1,""time"":1288},{""event"":""blur"",""trial"":16,""time"":102737},{""event"":""focus"",""trial"":16,""time"":107590}]",NA,NA,NA,NA,NA,5,#1CD855,#FA92F8,0,10,0,40,0,821.5,37,1,454.80000000074506,0,0,experiment,NA,NA,0,0.1,0.9,1,0,233,6,NA
fcp-trial,269,970626,0.0-244.0-0.0,voc_e2,12279,"[{""event"":""fullscreenenter"",""trial"":1,""time"":1288},{""event"":""blur"",""trial"":16,""time"":102737},{""event"":""focus"",""trial"":16,""time"":107590}]",NA,NA,NA,NA,NA,4,#741CD8,#D8271C,0,0,1,40,0,718.5,37,1,407.3999999985099,0,1,experiment,NA,NA,2,0.5,0.5,4,5,234,6,NA
fcp-trial,270,973305,0.0-245.0-0.0,voc_e2,12279,"[{""event"":""fullscreenenter"",""trial"":1,""time"":1288},{""event"":""blur"",""trial"":16,""time"":102737},{""event"":""focus"",""trial"":16,""time"":107590}]",NA,NA,NA,NA,NA,4,#D89F1C,#3386FF,0,0,0,40,0,771.8000000007451,37,1,398.9000000003726,0,0,experiment,NA,NA,1,0.3,0.7,3,2,235,6,NA
fcp-trial,271,975961,0.0-246.0-0.0,voc_e2,12279,"[{""event"":""fullscreenenter"",""trial"":1,""time"":1288},{""event"":""blur"",""trial"":16,""time"":102737},{""event"":""focus"",""trial"":16,""time"":107590}]",NA,NA,NA,NA,NA,3,#741CD8,#D8271C,0,0,1,40,0,726.5,39,0,423,0,0,experiment,NA,NA,2,0.5,0.5,4,5,236,6,NA
fcp-trial,272,978609,0.0-247.0-0.0,voc_e2,12279,"[{""event"":""fullscreenenter"",""trial"":1,""time"":1288},{""event"":""blur"",""trial"":16,""time"":102737},{""event"":""focus"",""trial"":16,""time"":107590}]",NA,NA,NA,NA,NA,1,#1CD855,#FA92F8,0,10,0,38,1,818.6000000014901,39,0,324.5,10,1,experiment,NA,NA,0,0.1,0.9,1,0,237,6,NA
fcp-trial,273,981193,0.0-248.0-0.0,voc_e2,12279,"[{""event"":""fullscreenenter"",""trial"":1,""time"":1288},{""event"":""blur"",""trial"":16,""time"":102737},{""event"":""focus"",""trial"":16,""time"":107590}]",NA,NA,NA,NA,NA,0,#1CD855,#FA92F8,0,10,0,38,1,768,39,0,310,10,1,experiment,NA,NA,0,0.1,0.9,1,0,238,6,NA
fcp-trial,274,983952,0.0-249.0-0.0,voc_e2,12279,"[{""event"":""fullscreenenter"",""trial"":1,""time"":1288},{""event"":""blur"",""trial"":16,""time"":102737},{""event"":""focus"",""trial"":16,""time"":107590}]",NA,NA,NA,NA,NA,0,#741CD8,#D8271C,0,10,1,38,1,916.7999999988824,39,0,333.80000000074506,10,0,experiment,NA,NA,2,0.5,0.5,4,5,239,6,NA
fcp-trial,275,986786,0.0-250.0-0.0,voc_e2,12279,"[{""event"":""fullscreenenter"",""trial"":1,""time"":1288},{""event"":""blur"",""trial"":16,""time"":102737},{""event"":""focus"",""trial"":16,""time"":107590}]",NA,NA,NA,NA,NA,2,#D89F1C,#3386FF,10,10,0,38,1,960.9000000003725,39,0,367,10,1,experiment,NA,NA,1,0.3,0.7,3,2,240,6,NA
fcp-trial,276,989585,0.0-251.0-0.0,voc_e2,12279,"[{""event"":""fullscreenenter"",""trial"":1,""time"":1288},{""event"":""blur"",""trial"":16,""time"":102737},{""event"":""focus"",""trial"":16,""time"":107590}]",NA,NA,NA,NA,NA,2,#1CD855,#FA92F8,0,10,0,38,1,861.9000000003725,39,0,430.8999999985099,10,1,experiment,NA,NA,0,0.1,0.9,1,0,241,6,NA
fcp-trial,277,992305,0.0-252.0-0.0,voc_e2,12279,"[{""event"":""fullscreenenter"",""trial"":1,""time"":1288},{""event"":""blur"",""trial"":16,""time"":102737},{""event"":""focus"",""trial"":16,""time"":107590}]",NA,NA,NA,NA,NA,1,#741CD8,#D8271C,0,0,1,38,1,855.0999999996275,39,0,358.90000000037253,0,0,experiment,NA,NA,2,0.5,0.5,4,5,242,6,NA
fcp-trial,278,994979,0.0-253.0-0.0,voc_e2,12279,"[{""event"":""fullscreenenter"",""trial"":1,""time"":1288},{""event"":""blur"",""trial"":16,""time"":102737},{""event"":""focus"",""trial"":16,""time"":107590}]",NA,NA,NA,NA,NA,0,#3386FF,#D89F1C,10,0,1,38,1,640.1999999992549,37,1,529.9000000003725,10,1,experiment,NA,NA,1,0.7,0.3,2,3,243,6,NA
fcp-trial,279,999034,0.0-254.0-0.0,voc_e2,12279,"[{""event"":""fullscreenenter"",""trial"":1,""time"":1288},{""event"":""blur"",""trial"":16,""time"":102737},{""event"":""focus"",""trial"":16,""time"":107590}]",NA,NA,NA,NA,NA,2,#D8271C,#741CD8,10,10,0,38,1,2085.800000000745,39,0,463.2000000011176,10,1,experiment,NA,NA,2,0.5,0.5,5,4,244,6,NA
fcp-trial,280,1002563,0.0-255.0-0.0,voc_e2,12279,"[{""event"":""fullscreenenter"",""trial"":1,""time"":1288},{""event"":""blur"",""trial"":16,""time"":102737},{""event"":""focus"",""trial"":16,""time"":107590}]",NA,NA,NA,NA,NA,6,#1CD855,#FA92F8,0,10,0,40,0,1626,39,0,398.5,10,1,experiment,NA,NA,0,0.1,0.9,1,0,245,6,NA
fcp-trial,281,1005307,0.0-256.0-0.0,voc_e2,12279,"[{""event"":""fullscreenenter"",""trial"":1,""time"":1288},{""event"":""blur"",""trial"":16,""time"":102737},{""event"":""focus"",""trial"":16,""time"":107590}]",NA,NA,NA,NA,NA,5,#741CD8,#D8271C,10,10,1,40,0,806.5999999996275,37,1,430.4000000003726,10,1,experiment,NA,NA,2,0.5,0.5,4,5,246,6,NA
fcp-trial,282,1008035,0.0-257.0-0.0,voc_e2,12279,"[{""event"":""fullscreenenter"",""trial"":1,""time"":1288},{""event"":""blur"",""trial"":16,""time"":102737},{""event"":""focus"",""trial"":16,""time"":107590}]",NA,NA,NA,NA,NA,3,#3386FF,#D89F1C,0,10,1,40,0,813.6999999992549,37,1,405.5999999996274,0,1,experiment,NA,NA,1,0.7,0.3,2,3,247,6,NA
fcp-trial,283,1010700,0.0-258.0-0.0,voc_e2,12279,"[{""event"":""fullscreenenter"",""trial"":1,""time"":1288},{""event"":""blur"",""trial"":16,""time"":102737},{""event"":""focus"",""trial"":16,""time"":107590}]",NA,NA,NA,NA,NA,4,#FA92F8,#1CD855,10,0,1,40,0,775,37,1,381.0999999996274,10,1,experiment,NA,NA,0,0.9,0.1,0,1,248,6,NA
fcp-trial,284,1013603,0.0-259.0-0.0,voc_e2,12279,"[{""event"":""fullscreenenter"",""trial"":1,""time"":1288},{""event"":""blur"",""trial"":16,""time"":102737},{""event"":""focus"",""trial"":16,""time"":107590}]",NA,NA,NA,NA,NA,5,#3386FF,#D89F1C,10,0,1,40,0,910.1000000014901,39,0,486.7000000011176,0,0,experiment,NA,NA,1,0.7,0.3,2,3,249,6,NA
fcp-trial,285,1016218,0.0-260.0-0.0,voc_e2,12279,"[{""event"":""fullscreenenter"",""trial"":1,""time"":1288},{""event"":""blur"",""trial"":16,""time"":102737},{""event"":""focus"",""trial"":16,""time"":107590}]",NA,NA,NA,NA,NA,6,#D89F1C,#3386FF,0,10,0,40,0,717.3000000007451,37,1,390.80000000074506,0,0,experiment,NA,NA,1,0.3,0.7,3,2,250,6,NA
fcp-trial,286,1018764,0.0-261.0-0.0,voc_e2,12279,"[{""event"":""fullscreenenter"",""trial"":1,""time"":1288},{""event"":""blur"",""trial"":16,""time"":102737},{""event"":""focus"",""trial"":16,""time"":107590}]",NA,NA,NA,NA,NA,6,#D8271C,#741CD8,0,0,0,40,0,598.8000000007451,39,0,439.4000000003726,0,1,experiment,NA,NA,2,0.5,0.5,5,4,251,6,NA
fcp-trial,287,1021505,0.0-262.0-0.0,voc_e2,12279,"[{""event"":""fullscreenenter"",""trial"":1,""time"":1288},{""event"":""blur"",""trial"":16,""time"":102737},{""event"":""focus"",""trial"":16,""time"":107590}]",NA,NA,NA,NA,NA,1,#D89F1C,#3386FF,0,10,0,38,1,879.6999999992549,39,0,356,10,1,experiment,NA,NA,1,0.3,0.7,3,2,252,6,NA
fcp-trial,288,1024107,0.0-263.0-0.0,voc_e2,12279,"[{""event"":""fullscreenenter"",""trial"":1,""time"":1288},{""event"":""blur"",""trial"":16,""time"":102737},{""event"":""focus"",""trial"":16,""time"":107590}]",NA,NA,NA,NA,NA,6,#741CD8,#D8271C,0,10,1,40,0,697.1999999992549,37,1,398.7999999988824,0,1,experiment,NA,NA,2,0.5,0.5,4,5,253,6,NA
fcp-trial,289,1026883,0.0-264.0-0.0,voc_e2,12279,"[{""event"":""fullscreenenter"",""trial"":1,""time"":1288},{""event"":""blur"",""trial"":16,""time"":102737},{""event"":""focus"",""trial"":16,""time"":107590}]",NA,NA,NA,NA,NA,0,#D89F1C,#3386FF,0,10,0,38,1,922.2999999988824,39,0,342.90000000037253,10,1,experiment,NA,NA,1,0.3,0.7,3,2,254,6,NA
fcp-trial,290,1029354,0.0-265.0-0.0,voc_e2,12279,"[{""event"":""fullscreenenter"",""trial"":1,""time"":1288},{""event"":""blur"",""trial"":16,""time"":102737},{""event"":""focus"",""trial"":16,""time"":107590}]",NA,NA,NA,NA,NA,1,#1CD855,#FA92F8,0,10,0,38,1,624.3000000007451,39,0,339.59999999962747,10,1,experiment,NA,NA,0,0.1,0.9,1,0,255,6,NA
fcp-trial,291,1031908,0.0-266.0-0.0,voc_e2,12279,"[{""event"":""fullscreenenter"",""trial"":1,""time"":1288},{""event"":""blur"",""trial"":16,""time"":102737},{""event"":""focus"",""trial"":16,""time"":107590}]",NA,NA,NA,NA,NA,0,#FA92F8,#1CD855,10,0,1,38,1,725.9000000003725,37,1,319.69999999925494,10,1,experiment,NA,NA,0,0.9,0.1,0,1,256,6,NA
fcp-trial,292,1035147,0.0-267.0-0.0,voc_e2,12279,"[{""event"":""fullscreenenter"",""trial"":1,""time"":1288},{""event"":""blur"",""trial"":16,""time"":102737},{""event"":""focus"",""trial"":16,""time"":107590}]",NA,NA,NA,NA,NA,3,#D8271C,#741CD8,0,0,0,38,1,1137.6000000014901,37,1,591.8000000007451,0,0,experiment,NA,NA,2,0.5,0.5,5,4,257,6,NA
fcp-trial,293,1037770,0.0-268.0-0.0,voc_e2,12279,"[{""event"":""fullscreenenter"",""trial"":1,""time"":1288},{""event"":""blur"",""trial"":16,""time"":102737},{""event"":""focus"",""trial"":16,""time"":107590}]",NA,NA,NA,NA,NA,2,#3386FF,#D89F1C,10,0,1,38,1,661.9000000003725,37,1,455.30000000074506,10,1,experiment,NA,NA,1,0.7,0.3,2,3,258,6,NA
fcp-trial,294,1040596,0.0-269.0-0.0,voc_e2,12279,"[{""event"":""fullscreenenter"",""trial"":1,""time"":1288},{""event"":""blur"",""trial"":16,""time"":102737},{""event"":""focus"",""trial"":16,""time"":107590}]",NA,NA,NA,NA,NA,5,#FA92F8,#1CD855,10,0,1,38,1,926.2000000011176,37,1,392.5999999996274,10,1,experiment,NA,NA,0,0.9,0.1,0,1,259,6,NA
fcp-trial,295,1044187,0.0-270.0-0.0,voc_e2,12279,"[{""event"":""fullscreenenter"",""trial"":1,""time"":1288},{""event"":""blur"",""trial"":16,""time"":102737},{""event"":""focus"",""trial"":16,""time"":107590}]",NA,NA,NA,NA,NA,6,#1CD855,#FA92F8,10,10,0,40,0,1589.6000000014901,39,0,493.5,10,1,experiment,NA,NA,0,0.1,0.9,1,0,260,6,NA
fcp-trial,296,1046922,0.0-271.0-0.0,voc_e2,12279,"[{""event"":""fullscreenenter"",""trial"":1,""time"":1288},{""event"":""blur"",""trial"":16,""time"":102737},{""event"":""focus"",""trial"":16,""time"":107590}]",NA,NA,NA,NA,NA,6,#D89F1C,#3386FF,0,10,0,40,0,798.7000000011176,37,1,431.0999999996274,0,0,experiment,NA,NA,1,0.3,0.7,3,2,261,6,NA
fcp-trial,297,1049945,0.0-272.0-0.0,voc_e2,12279,"[{""event"":""fullscreenenter"",""trial"":1,""time"":1288},{""event"":""blur"",""trial"":16,""time"":102737},{""event"":""focus"",""trial"":16,""time"":107590}]",NA,NA,NA,NA,NA,2,#D8271C,#741CD8,0,0,0,38,1,1038.5,39,0,477.69999999925494,0,1,experiment,NA,NA,2,0.5,0.5,5,4,262,6,NA
fcp-trial,298,1052930,0.0-273.0-0.0,voc_e2,12279,"[{""event"":""fullscreenenter"",""trial"":1,""time"":1288},{""event"":""blur"",""trial"":16,""time"":102737},{""event"":""focus"",""trial"":16,""time"":107590}]",NA,NA,NA,NA,NA,4,#1CD855,#FA92F8,0,10,0,40,0,1032.5999999996275,37,1,446.6000000014901,0,0,experiment,NA,NA,0,0.1,0.9,1,0,263,6,NA
fcp-trial,299,1055666,0.0-274.0-0.0,voc_e2,12279,"[{""event"":""fullscreenenter"",""trial"":1,""time"":1288},{""event"":""blur"",""trial"":16,""time"":102737},{""event"":""focus"",""trial"":16,""time"":107590}]",NA,NA,NA,NA,NA,4,#D8271C,#741CD8,0,10,0,40,0,813.7999999988824,37,1,414.1000000014901,0,0,experiment,NA,NA,2,0.5,0.5,5,4,264,6,NA
fcp-trial,300,1058451,0.0-275.0-0.0,voc_e2,12279,"[{""event"":""fullscreenenter"",""trial"":1,""time"":1288},{""event"":""blur"",""trial"":16,""time"":102737},{""event"":""focus"",""trial"":16,""time"":107590}]",NA,NA,NA,NA,NA,1,#3386FF,#D89F1C,0,0,1,38,1,943.3000000007451,37,1,334.6000000014901,0,1,experiment,NA,NA,1,0.7,0.3,2,3,265,6,NA
