trial_type,trial_index,time_elapsed,internal_node_id,task_version,subject_id,interactions,success,rt,stimulus,key_press,button_pressed,offer,arcade_color_L,arcade_color_R,arcade_outcome_L,arcade_outcome_R,correct,stage_1_key,stage_1_choice,stage_1_rt,stage_2_key,stage_2_choice,stage_2_rt,stage_3_outcome,accuracy,phase,responses,num_errors,context,reward_prob_L,reward_prob_R,arcade_id_L,arcade_id_R,trial,block,response
pavlovia,0,11,0.0-0.0,voc_e2,11990,[],NA,NA,NA,NA,NA,NA,NA,NA,NA,NA,NA,NA,NA,NA,NA,NA,NA,NA,NA,NA,NA,NA,NA,NA,NA,NA,NA,NA,NA,NA
fullscreen,1,4120,0.0-1.0,voc_e2,11990,"[{""event"":""fullscreenenter"",""trial"":1,""time"":3139}]",TRUE,NA,NA,NA,NA,NA,NA,NA,NA,NA,NA,NA,NA,NA,NA,NA,NA,NA,NA,NA,NA,NA,NA,NA,NA,NA,NA,NA,NA,NA
audio-keyboard-response,2,8630,0.0-2.0,voc_e2,11990,"[{""event"":""fullscreenenter"",""trial"":1,""time"":3139}]",NA,4027,static/audio/beep_loop.wav,32,NA,NA,NA,NA,NA,NA,NA,NA,NA,NA,NA,NA,NA,NA,NA,NA,NA,NA,NA,NA,NA,NA,NA,NA,NA,NA
audio-test,3,10331,0.0-3.0,voc_e2,11990,"[{""event"":""fullscreenenter"",""trial"":1,""time"":3139}]",NA,NA,static/audio/turtle.wav,NA,3,NA,NA,NA,NA,NA,NA,NA,NA,NA,NA,NA,NA,NA,NA,NA,NA,NA,NA,NA,NA,NA,NA,NA,NA,NA
audio-test,4,12980,0.0-4.0,voc_e2,11990,"[{""event"":""fullscreenenter"",""trial"":1,""time"":3139}]",NA,NA,static/audio/shark.wav,NA,2,NA,NA,NA,NA,NA,NA,NA,NA,NA,NA,NA,NA,NA,NA,NA,NA,NA,NA,NA,NA,NA,NA,NA,NA,NA
audio-instructions,5,19937,0.0-5.0-0.0,voc_e2,11990,"[{""event"":""fullscreenenter"",""trial"":1,""time"":3139}]",NA,1176.5,static/audio/instructions1.wav,NA,0,NA,NA,NA,NA,NA,NA,NA,NA,NA,NA,NA,NA,NA,NA,NA,NA,NA,NA,NA,NA,NA,NA,NA,NA,NA
audio-instructions,6,39952,0.0-5.0-1.0,voc_e2,11990,"[{""event"":""fullscreenenter"",""trial"":1,""time"":3139}]",NA,13277.199999809263,static/audio/instructions2.wav,NA,0,NA,NA,NA,NA,NA,NA,NA,NA,NA,NA,NA,NA,NA,NA,NA,NA,NA,NA,NA,NA,NA,NA,NA,NA,NA
audio-instructions,7,46785,0.0-5.0-2.0,voc_e2,11990,"[{""event"":""fullscreenenter"",""trial"":1,""time"":3139}]",NA,1032.5,static/audio/instructions3.wav,NA,0,NA,NA,NA,NA,NA,NA,NA,NA,NA,NA,NA,NA,NA,NA,NA,NA,NA,NA,NA,NA,NA,NA,NA,NA,NA
audio-instructions,8,64264,0.0-5.0-3.0,voc_e2,11990,"[{""event"":""fullscreenenter"",""trial"":1,""time"":3139}]",NA,4251.099999904633,static/audio/instructions4.wav,NA,0,NA,NA,NA,NA,NA,NA,NA,NA,NA,NA,NA,NA,NA,NA,NA,NA,NA,NA,NA,NA,NA,NA,NA,NA,NA
audio-instructions,9,74783,0.0-5.0-4.0,voc_e2,11990,"[{""event"":""fullscreenenter"",""trial"":1,""time"":3139}]",NA,1132.5,static/audio/instructions5.wav,NA,0,NA,NA,NA,NA,NA,NA,NA,NA,NA,NA,NA,NA,NA,NA,NA,NA,NA,NA,NA,NA,NA,NA,NA,NA,NA
fcp-practice,10,80077,0.0-5.0-5.0-0.0,voc_e2,11990,"[{""event"":""fullscreenenter"",""trial"":1,""time"":3139}]",NA,NA,NA,NA,NA,NA,#EDC948,#46d3c8,10,0,1,null,null,null,37,1,3770.9000000953674,10,1,practice,NA,NA,NA,NA,NA,NA,NA,NA,NA,NA
fcp-practice,11,82021,0.0-5.0-5.0-1.0,voc_e2,11990,"[{""event"":""fullscreenenter"",""trial"":1,""time"":3139}]",NA,NA,NA,NA,NA,NA,#EDC948,#46d3c8,10,0,1,null,null,null,37,1,434.7999997138977,10,1,practice,NA,NA,NA,NA,NA,NA,NA,NA,NA,NA
fcp-practice,12,84005,0.0-5.0-5.0-2.0,voc_e2,11990,"[{""event"":""fullscreenenter"",""trial"":1,""time"":3139}]",NA,NA,NA,NA,NA,NA,#EDC948,#46d3c8,0,10,1,null,null,null,37,1,473.90000009536743,0,1,practice,NA,NA,NA,NA,NA,NA,NA,NA,NA,NA
fcp-practice,13,86101,0.0-5.0-5.0-3.0,voc_e2,11990,"[{""event"":""fullscreenenter"",""trial"":1,""time"":3139}]",NA,NA,NA,NA,NA,NA,#EDC948,#46d3c8,10,0,1,null,null,null,37,1,590.9000000953674,10,1,practice,NA,NA,NA,NA,NA,NA,NA,NA,NA,NA
fcp-practice,14,88174,0.0-5.0-5.0-4.0,voc_e2,11990,"[{""event"":""fullscreenenter"",""trial"":1,""time"":3139}]",NA,NA,NA,NA,NA,NA,#EDC948,#46d3c8,10,0,1,null,null,null,37,1,561.3999996185303,10,1,practice,NA,NA,NA,NA,NA,NA,NA,NA,NA,NA
audio-instructions,15,109901,0.0-5.0-6.0,voc_e2,11990,"[{""event"":""fullscreenenter"",""trial"":1,""time"":3139}]",NA,3723.5,static/audio/instructions6.wav,NA,0,NA,NA,NA,NA,NA,NA,NA,NA,NA,NA,NA,NA,NA,NA,NA,NA,NA,NA,NA,NA,NA,NA,NA,NA,NA
audio-instructions,16,129981,0.0-5.0-7.0,voc_e2,11990,"[{""event"":""fullscreenenter"",""trial"":1,""time"":3139}]",NA,881.8000001907349,static/audio/instructions7.wav,NA,0,NA,NA,NA,NA,NA,NA,NA,NA,NA,NA,NA,NA,NA,NA,NA,NA,NA,NA,NA,NA,NA,NA,NA,NA,NA
audio-instructions,17,143949,0.0-5.0-8.0,voc_e2,11990,"[{""event"":""fullscreenenter"",""trial"":1,""time"":3139}]",NA,4497.900000095367,static/audio/instructions8.wav,NA,0,NA,NA,NA,NA,NA,NA,NA,NA,NA,NA,NA,NA,NA,NA,NA,NA,NA,NA,NA,NA,NA,NA,NA,NA,NA
fcp-comprehension,18,153948,0.0-5.0-9.0,voc_e2,11990,"[{""event"":""fullscreenenter"",""trial"":1,""time"":3139}]",NA,9997.599999904633,NA,NA,NA,NA,NA,NA,NA,NA,NA,NA,NA,NA,NA,NA,NA,NA,NA,NA,"false,true",1,NA,NA,NA,NA,NA,NA,NA,NA
audio-instructions,19,159222,0.0-5.1-0.1,voc_e2,11990,"[{""event"":""fullscreenenter"",""trial"":1,""time"":3139}]",NA,497.7999997138977,static/audio/instructions1.wav,NA,0,NA,NA,NA,NA,NA,NA,NA,NA,NA,NA,NA,NA,NA,NA,NA,NA,NA,NA,NA,NA,NA,NA,NA,NA,NA
audio-instructions,20,167101,0.0-5.1-1.1,voc_e2,11990,"[{""event"":""fullscreenenter"",""trial"":1,""time"":3139}]",NA,1139.0999999046326,static/audio/instructions2.wav,NA,0,NA,NA,NA,NA,NA,NA,NA,NA,NA,NA,NA,NA,NA,NA,NA,NA,NA,NA,NA,NA,NA,NA,NA,NA,NA
audio-instructions,21,173985,0.0-5.1-2.1,voc_e2,11990,"[{""event"":""fullscreenenter"",""trial"":1,""time"":3139}]",NA,1083.7000002861023,static/audio/instructions3.wav,NA,0,NA,NA,NA,NA,NA,NA,NA,NA,NA,NA,NA,NA,NA,NA,NA,NA,NA,NA,NA,NA,NA,NA,NA,NA,NA
audio-instructions,22,189733,0.0-5.1-3.1,voc_e2,11990,"[{""event"":""fullscreenenter"",""trial"":1,""time"":3139}]",NA,2523,static/audio/instructions4.wav,NA,0,NA,NA,NA,NA,NA,NA,NA,NA,NA,NA,NA,NA,NA,NA,NA,NA,NA,NA,NA,NA,NA,NA,NA,NA,NA
audio-instructions,23,200401,0.0-5.1-4.1,voc_e2,11990,"[{""event"":""fullscreenenter"",""trial"":1,""time"":3139}]",NA,1281.6999998092651,static/audio/instructions5.wav,NA,0,NA,NA,NA,NA,NA,NA,NA,NA,NA,NA,NA,NA,NA,NA,NA,NA,NA,NA,NA,NA,NA,NA,NA,NA,NA
fcp-practice,24,202442,0.0-5.1-5.1-0.1,voc_e2,11990,"[{""event"":""fullscreenenter"",""trial"":1,""time"":3139}]",NA,NA,NA,NA,NA,NA,#EDC948,#46d3c8,10,0,1,null,null,null,37,1,532.1999998092651,10,1,practice,NA,NA,NA,NA,NA,NA,NA,NA,NA,NA
fcp-practice,25,204018,0.0-5.1-5.1-1.1,voc_e2,11990,"[{""event"":""fullscreenenter"",""trial"":1,""time"":3139}]",NA,NA,NA,NA,NA,NA,#EDC948,#46d3c8,10,0,1,null,null,null,37,1,67.90000009536743,10,1,practice,NA,NA,NA,NA,NA,NA,NA,NA,NA,NA
fcp-practice,26,205794,0.0-5.1-5.1-2.1,voc_e2,11990,"[{""event"":""fullscreenenter"",""trial"":1,""time"":3139}]",NA,NA,NA,NA,NA,NA,#EDC948,#46d3c8,0,10,1,null,null,null,37,1,272.09999990463257,0,1,practice,NA,NA,NA,NA,NA,NA,NA,NA,NA,NA
fcp-practice,27,207593,0.0-5.1-5.1-3.1,voc_e2,11990,"[{""event"":""fullscreenenter"",""trial"":1,""time"":3139}]",NA,NA,NA,NA,NA,NA,#EDC948,#46d3c8,10,0,1,null,null,null,37,1,294.69999980926514,10,1,practice,NA,NA,NA,NA,NA,NA,NA,NA,NA,NA
fcp-practice,28,209386,0.0-5.1-5.1-4.1,voc_e2,11990,"[{""event"":""fullscreenenter"",""trial"":1,""time"":3139}]",NA,NA,NA,NA,NA,NA,#EDC948,#46d3c8,10,0,1,null,null,null,37,1,284.5,10,1,practice,NA,NA,NA,NA,NA,NA,NA,NA,NA,NA
audio-instructions,29,228755,0.0-5.1-6.1,voc_e2,11990,"[{""event"":""fullscreenenter"",""trial"":1,""time"":3139}]",NA,1362,static/audio/instructions6.wav,NA,0,NA,NA,NA,NA,NA,NA,NA,NA,NA,NA,NA,NA,NA,NA,NA,NA,NA,NA,NA,NA,NA,NA,NA,NA,NA
audio-instructions,30,248849,0.0-5.1-7.1,voc_e2,11990,"[{""event"":""fullscreenenter"",""trial"":1,""time"":3139}]",NA,892.5999999046326,static/audio/instructions7.wav,NA,0,NA,NA,NA,NA,NA,NA,NA,NA,NA,NA,NA,NA,NA,NA,NA,NA,NA,NA,NA,NA,NA,NA,NA,NA,NA
audio-instructions,31,259103,0.0-5.1-8.1,voc_e2,11990,"[{""event"":""fullscreenenter"",""trial"":1,""time"":3139}]",NA,781.5,static/audio/instructions8.wav,NA,0,NA,NA,NA,NA,NA,NA,NA,NA,NA,NA,NA,NA,NA,NA,NA,NA,NA,NA,NA,NA,NA,NA,NA,NA,NA
fcp-comprehension,32,266749,0.0-5.1-9.1,voc_e2,11990,"[{""event"":""fullscreenenter"",""trial"":1,""time"":3139}]",NA,7645.699999809265,NA,NA,NA,NA,NA,NA,NA,NA,NA,NA,NA,NA,NA,NA,NA,NA,NA,NA,"true,true",0,NA,NA,NA,NA,NA,NA,NA,NA
audio-instructions,33,273453,0.0-6.0-0.0,voc_e2,11990,"[{""event"":""fullscreenenter"",""trial"":1,""time"":3139}]",NA,1158.1999998092651,static/audio/instructions9.wav,NA,0,NA,NA,NA,NA,NA,NA,NA,NA,NA,NA,NA,NA,NA,NA,NA,NA,NA,NA,NA,NA,NA,NA,NA,NA,NA
audio-instructions,34,290934,0.0-6.0-1.0,voc_e2,11990,"[{""event"":""fullscreenenter"",""trial"":1,""time"":3139}]",NA,5364.799999713898,static/audio/instructions10.wav,NA,0,NA,NA,NA,NA,NA,NA,NA,NA,NA,NA,NA,NA,NA,NA,NA,NA,NA,NA,NA,NA,NA,NA,NA,NA,NA
fcp-trial,35,296161,0.0-6.0-2.0,voc_e2,11990,"[{""event"":""fullscreenenter"",""trial"":1,""time"":3139}]",NA,NA,NA,NA,NA,0,#EDC948,#46d3c8,10,10,1,38,1,2159.800000190735,37,1,1550.0999999046326,10,1,practice,NA,NA,NA,NA,NA,NA,NA,NA,NA,NA
audio-instructions,36,308202,0.0-6.0-3.0,voc_e2,11990,"[{""event"":""fullscreenenter"",""trial"":1,""time"":3139}]",NA,1031.9000000953674,static/audio/instructions11.wav,NA,0,NA,NA,NA,NA,NA,NA,NA,NA,NA,NA,NA,NA,NA,NA,NA,NA,NA,NA,NA,NA,NA,NA,NA,NA,NA
fcp-trial,37,312503,0.0-6.0-4.0,voc_e2,11990,"[{""event"":""fullscreenenter"",""trial"":1,""time"":3139}]",NA,NA,NA,NA,NA,6,#EDC948,#46d3c8,10,10,1,40,0,1020.8999996185303,39,0,1771,10,0,practice,NA,NA,NA,NA,NA,NA,NA,NA,NA,NA
audio-instructions,38,332099,0.0-6.0-5.0,voc_e2,11990,"[{""event"":""fullscreenenter"",""trial"":1,""time"":3139}]",NA,909.7000002861024,static/audio/instructions12.wav,NA,0,NA,NA,NA,NA,NA,NA,NA,NA,NA,NA,NA,NA,NA,NA,NA,NA,NA,NA,NA,NA,NA,NA,NA,NA,NA
audio-instructions,39,340369,0.0-6.0-6.0,voc_e2,11990,"[{""event"":""fullscreenenter"",""trial"":1,""time"":3139}]",NA,674.7000002861023,static/audio/instructions13.wav,NA,0,NA,NA,NA,NA,NA,NA,NA,NA,NA,NA,NA,NA,NA,NA,NA,NA,NA,NA,NA,NA,NA,NA,NA,NA,NA
audio-instructions,40,349549,0.0-6.0-7.0,voc_e2,11990,"[{""event"":""fullscreenenter"",""trial"":1,""time"":3139}]",NA,733.0999999046326,static/audio/instructions14.wav,NA,0,NA,NA,NA,NA,NA,NA,NA,NA,NA,NA,NA,NA,NA,NA,NA,NA,NA,NA,NA,NA,NA,NA,NA,NA,NA
audio-instructions,41,357016,0.0-7.0-0.0,voc_e2,11990,"[{""event"":""fullscreenenter"",""trial"":1,""time"":3139}]",NA,557.6999998092651,static/audio/instructions15.wav,NA,0,NA,NA,NA,NA,NA,NA,NA,NA,NA,NA,NA,NA,NA,NA,NA,NA,NA,NA,NA,NA,NA,NA,NA,NA,NA
audio-instructions,42,364605,0.0-7.0-1.0,voc_e2,11990,"[{""event"":""fullscreenenter"",""trial"":1,""time"":3139}]",NA,764.7999997138977,static/audio/instructions16.wav,NA,0,NA,NA,NA,NA,NA,NA,NA,NA,NA,NA,NA,NA,NA,NA,NA,NA,NA,NA,NA,NA,NA,NA,NA,NA,NA
audio-instructions,43,373154,0.0-7.0-2.0,voc_e2,11990,"[{""event"":""fullscreenenter"",""trial"":1,""time"":3139}]",NA,871.6999998092651,static/audio/instructions17.wav,NA,0,NA,NA,NA,NA,NA,NA,NA,NA,NA,NA,NA,NA,NA,NA,NA,NA,NA,NA,NA,NA,NA,NA,NA,NA,NA
audio-instructions,44,381469,0.0-7.0-3.0,voc_e2,11990,"[{""event"":""fullscreenenter"",""trial"":1,""time"":3139}]",NA,552.5999999046326,static/audio/instructions18.wav,NA,0,NA,NA,NA,NA,NA,NA,NA,NA,NA,NA,NA,NA,NA,NA,NA,NA,NA,NA,NA,NA,NA,NA,NA,NA,NA
audio-instructions,45,388867,0.0-7.0-4.0,voc_e2,11990,"[{""event"":""fullscreenenter"",""trial"":1,""time"":3139}]",NA,651.8000001907349,static/audio/instructions19.wav,NA,0,NA,NA,NA,NA,NA,NA,NA,NA,NA,NA,NA,NA,NA,NA,NA,NA,NA,NA,NA,NA,NA,NA,NA,NA,NA
fcp-comprehension,46,405434,0.0-7.0-5.0,voc_e2,11990,"[{""event"":""fullscreenenter"",""trial"":1,""time"":3139}]",NA,16566.199999809265,NA,NA,NA,NA,NA,NA,NA,NA,NA,NA,NA,NA,NA,NA,NA,NA,NA,NA,"false,false,false,true",0,NA,NA,NA,NA,NA,NA,NA,NA
audio-instructions,47,415934,0.0-8.0,voc_e2,11990,"[{""event"":""fullscreenenter"",""trial"":1,""time"":3139}]",NA,1285.4000000953674,static/audio/ready.wav,NA,0,NA,NA,NA,NA,NA,NA,NA,NA,NA,NA,NA,NA,NA,NA,NA,NA,NA,NA,NA,NA,NA,NA,NA,NA,NA
fcp-trial,48,423145,0.0-9.0-0.0,voc_e2,11990,"[{""event"":""fullscreenenter"",""trial"":1,""time"":3139}]",NA,NA,NA,NA,NA,6,#FA92F8,#1CD855,10,0,1,40,0,4384.39999961853,39,0,1313.5999999046326,0,0,experiment,NA,NA,0,0.9,0.1,0,1,1,1,NA
fcp-trial,49,428612,0.0-10.0-0.0,voc_e2,11990,"[{""event"":""fullscreenenter"",""trial"":1,""time"":3139}]",NA,NA,NA,NA,NA,4,#1CD855,#FA92F8,0,10,0,38,1,2779.0999999046326,37,1,1174.5,0,0,experiment,NA,NA,0,0.1,0.9,1,0,2,1,NA
fcp-trial,50,435944,0.0-11.0-0.0,voc_e2,11990,"[{""event"":""fullscreenenter"",""trial"":1,""time"":3139}]",NA,NA,NA,NA,NA,2,#3386FF,#D89F1C,10,10,0,38,1,4688,37,1,1137.5,10,0,experiment,NA,NA,1,0.3,0.7,3,2,3,1,NA
fcp-trial,51,441511,0.0-12.0-0.0,voc_e2,11990,"[{""event"":""fullscreenenter"",""trial"":1,""time"":3139}]",NA,NA,NA,NA,NA,4,#3386FF,#D89F1C,0,10,0,38,1,3299.5999999046326,37,1,760.5999999046326,0,0,experiment,NA,NA,1,0.3,0.7,3,2,4,1,NA
fcp-trial,52,448572,0.0-13.0-0.0,voc_e2,11990,"[{""event"":""fullscreenenter"",""trial"":1,""time"":3139}]",NA,NA,NA,NA,NA,5,#FA92F8,#1CD855,10,0,1,40,0,4705.699999809265,39,0,841.5999999046326,0,0,experiment,NA,NA,0,0.9,0.1,0,1,5,1,NA
fcp-trial,53,452435,0.0-14.0-0.0,voc_e2,11990,"[{""event"":""fullscreenenter"",""trial"":1,""time"":3139}]",NA,NA,NA,NA,NA,1,#1CD855,#FA92F8,0,10,0,38,1,1597.2999997138977,37,1,757.2000002861023,0,0,experiment,NA,NA,0,0.1,0.9,1,0,6,1,NA
fcp-trial,54,458811,0.0-15.0-0.0,voc_e2,11990,"[{""event"":""fullscreenenter"",""trial"":1,""time"":3139}]",NA,NA,NA,NA,NA,6,#D8271C,#741CD8,0,10,0,40,0,4178.400000095367,39,0,677.4000000953674,10,1,experiment,NA,NA,2,0.5,0.5,5,4,7,1,NA
fcp-trial,55,463860,0.0-16.0-0.0,voc_e2,11990,"[{""event"":""fullscreenenter"",""trial"":1,""time"":3139}]",NA,NA,NA,NA,NA,1,#3386FF,#D89F1C,0,10,0,38,1,1399.4000000953674,39,0,2138,10,1,experiment,NA,NA,1,0.3,0.7,3,2,8,1,NA
fcp-trial,56,470051,0.0-17.0-0.0,voc_e2,11990,"[{""event"":""fullscreenenter"",""trial"":1,""time"":3139}]",NA,NA,NA,NA,NA,1,#741CD8,#D8271C,10,0,1,38,1,2552.4000000953674,37,1,2118.8999996185303,10,1,experiment,NA,NA,2,0.5,0.5,4,5,9,1,NA
fcp-trial,57,474329,0.0-18.0-0.0,voc_e2,11990,"[{""event"":""fullscreenenter"",""trial"":1,""time"":3139}]",NA,NA,NA,NA,NA,0,#D89F1C,#3386FF,10,0,1,38,1,2135.2999997138977,37,1,634.2999997138977,10,1,experiment,NA,NA,1,0.7,0.3,2,3,10,1,NA
fcp-trial,58,478355,0.0-19.0-0.0,voc_e2,11990,"[{""event"":""fullscreenenter"",""trial"":1,""time"":3139}]",NA,NA,NA,NA,NA,2,#1CD855,#FA92F8,0,10,0,38,1,1986.8000001907349,37,1,522.3000001907349,0,0,experiment,NA,NA,0,0.1,0.9,1,0,11,1,NA
fcp-trial,59,481171,0.0-20.0-0.0,voc_e2,11990,"[{""event"":""fullscreenenter"",""trial"":1,""time"":3139}]",NA,NA,NA,NA,NA,0,#FA92F8,#1CD855,10,0,1,38,1,891.2999997138977,39,0,410.8999996185303,0,0,experiment,NA,NA,0,0.9,0.1,0,1,12,1,NA
fcp-trial,60,487355,0.0-21.0-0.0,voc_e2,11990,"[{""event"":""fullscreenenter"",""trial"":1,""time"":3139}]",NA,NA,NA,NA,NA,3,#D89F1C,#3386FF,10,0,1,38,1,3485.800000190735,37,1,1189.3000001907349,10,1,experiment,NA,NA,1,0.7,0.3,2,3,13,1,NA
fcp-trial,61,492106,0.0-22.0-0.0,voc_e2,11990,"[{""event"":""fullscreenenter"",""trial"":1,""time"":3139}]",NA,NA,NA,NA,NA,3,#741CD8,#D8271C,0,10,1,38,1,2582.699999809265,39,0,658.5,10,0,experiment,NA,NA,2,0.5,0.5,4,5,14,1,NA
fcp-trial,62,496507,0.0-23.0-0.0,voc_e2,11990,"[{""event"":""fullscreenenter"",""trial"":1,""time"":3139}]",NA,NA,NA,NA,NA,4,#D8271C,#741CD8,10,10,0,40,0,2074.6000003814697,37,1,811.5,10,0,experiment,NA,NA,2,0.5,0.5,5,4,15,1,NA
fcp-trial,63,500379,0.0-24.0-0.0,voc_e2,11990,"[{""event"":""fullscreenenter"",""trial"":1,""time"":3139}]",NA,NA,NA,NA,NA,6,#3386FF,#D89F1C,0,10,0,40,0,1301.5,37,1,1056.6999998092651,0,0,experiment,NA,NA,1,0.3,0.7,3,2,16,1,NA
fcp-trial,64,504362,0.0-25.0-0.0,voc_e2,11990,"[{""event"":""fullscreenenter"",""trial"":1,""time"":3139}]",NA,NA,NA,NA,NA,3,#FA92F8,#1CD855,10,0,1,38,1,1022.5999999046326,37,1,1448.7000002861023,10,1,experiment,NA,NA,0,0.9,0.1,0,1,17,1,NA
fcp-trial,65,509229,0.0-26.0-0.0,voc_e2,11990,"[{""event"":""fullscreenenter"",""trial"":1,""time"":3139}]",NA,NA,NA,NA,NA,0,#D8271C,#741CD8,0,0,0,38,1,2720.3999996185303,39,0,632.1999998092651,0,1,experiment,NA,NA,2,0.5,0.5,5,4,18,1,NA
fcp-trial,66,513778,0.0-27.0-0.0,voc_e2,11990,"[{""event"":""fullscreenenter"",""trial"":1,""time"":3139}]",NA,NA,NA,NA,NA,2,#741CD8,#D8271C,10,0,1,40,0,2393.2999997138977,37,1,645.5,10,1,experiment,NA,NA,2,0.5,0.5,4,5,19,1,NA
fcp-trial,67,517890,0.0-28.0-0.0,voc_e2,11990,"[{""event"":""fullscreenenter"",""trial"":1,""time"":3139}]",NA,NA,NA,NA,NA,5,#D89F1C,#3386FF,10,0,1,40,0,1739.7999997138977,39,0,857.1999998092651,0,0,experiment,NA,NA,1,0.7,0.3,2,3,20,1,NA
fcp-trial,68,522946,0.0-29.0-0.0,voc_e2,11990,"[{""event"":""fullscreenenter"",""trial"":1,""time"":3139}]",NA,NA,NA,NA,NA,5,#D8271C,#741CD8,10,10,0,40,0,2802.0999999046326,39,0,732.5,10,1,experiment,NA,NA,2,0.5,0.5,5,4,21,1,NA
fcp-trial,69,527673,0.0-30.0-0.0,voc_e2,11990,"[{""event"":""fullscreenenter"",""trial"":1,""time"":3139}]",NA,NA,NA,NA,NA,4,#FA92F8,#1CD855,10,0,1,40,0,2412.7000002861023,39,0,806.2999997138977,0,0,experiment,NA,NA,0,0.9,0.1,0,1,22,1,NA
fcp-trial,70,533961,0.0-31.0-0.0,voc_e2,11990,"[{""event"":""fullscreenenter"",""trial"":1,""time"":3139}]",NA,NA,NA,NA,NA,1,#741CD8,#D8271C,10,10,1,38,1,3624,37,1,1151.3000001907349,10,1,experiment,NA,NA,2,0.5,0.5,4,5,23,1,NA
fcp-trial,71,541212,0.0-32.0-0.0,voc_e2,11990,"[{""event"":""fullscreenenter"",""trial"":1,""time"":3139}]",NA,NA,NA,NA,NA,6,#D89F1C,#3386FF,0,10,1,40,0,5161,37,1,580.8000001907349,0,1,experiment,NA,NA,1,0.7,0.3,2,3,24,1,NA
fcp-trial,72,544849,0.0-33.0-0.0,voc_e2,11990,"[{""event"":""fullscreenenter"",""trial"":1,""time"":3139}]",NA,NA,NA,NA,NA,6,#1CD855,#FA92F8,0,10,0,40,0,1489.6999998092651,37,1,634.8000001907349,0,0,experiment,NA,NA,0,0.1,0.9,1,0,25,1,NA
fcp-trial,73,551999,0.0-34.0-0.0,voc_e2,11990,"[{""event"":""fullscreenenter"",""trial"":1,""time"":3139}]",NA,NA,NA,NA,NA,2,#D8271C,#741CD8,10,10,0,38,1,3264.1000003814697,39,0,2370.2999997138977,10,1,experiment,NA,NA,2,0.5,0.5,5,4,26,1,NA
fcp-trial,74,555505,0.0-35.0-0.0,voc_e2,11990,"[{""event"":""fullscreenenter"",""trial"":1,""time"":3139}]",NA,NA,NA,NA,NA,5,#741CD8,#D8271C,0,10,1,40,0,1375.1000003814697,37,1,609.9000000953674,0,1,experiment,NA,NA,2,0.5,0.5,4,5,27,1,NA
fcp-trial,75,559257,0.0-36.0-0.0,voc_e2,11990,"[{""event"":""fullscreenenter"",""trial"":1,""time"":3139}]",NA,NA,NA,NA,NA,4,#D89F1C,#3386FF,0,0,1,40,0,1744,37,1,496.59999990463257,0,1,experiment,NA,NA,1,0.7,0.3,2,3,28,1,NA
fcp-trial,76,562295,0.0-37.0-0.0,voc_e2,11990,"[{""event"":""fullscreenenter"",""trial"":1,""time"":3139}]",NA,NA,NA,NA,NA,1,#D89F1C,#3386FF,10,0,1,38,1,1082.6999998092651,37,1,445.09999990463257,10,1,experiment,NA,NA,1,0.7,0.3,2,3,29,1,NA
fcp-trial,77,568241,0.0-38.0-0.0,voc_e2,11990,"[{""event"":""fullscreenenter"",""trial"":1,""time"":3139}]",NA,NA,NA,NA,NA,1,#1CD855,#FA92F8,0,10,0,38,1,1019.2999997138977,39,0,3411.5999999046326,10,1,experiment,NA,NA,0,0.1,0.9,1,0,30,1,NA
fcp-trial,78,572577,0.0-39.0-0.0,voc_e2,11990,"[{""event"":""fullscreenenter"",""trial"":1,""time"":3139}]",NA,NA,NA,NA,NA,5,#FA92F8,#1CD855,10,0,1,40,0,2408.5,37,1,405.40000009536743,10,1,experiment,NA,NA,0,0.9,0.1,0,1,31,1,NA
fcp-trial,79,577104,0.0-40.0-0.0,voc_e2,11990,"[{""event"":""fullscreenenter"",""trial"":1,""time"":3139}]",NA,NA,NA,NA,NA,6,#D8271C,#741CD8,0,10,0,40,0,2446.4000000953674,37,1,573.5,0,0,experiment,NA,NA,2,0.5,0.5,5,4,32,1,NA
fcp-trial,80,581168,0.0-41.0-0.0,voc_e2,11990,"[{""event"":""fullscreenenter"",""trial"":1,""time"":3139}]",NA,NA,NA,NA,NA,2,#1CD855,#FA92F8,0,0,0,38,1,2182.0999999046326,39,0,371.8999996185303,0,1,experiment,NA,NA,0,0.1,0.9,1,0,33,1,NA
fcp-trial,81,584392,0.0-42.0-0.0,voc_e2,11990,"[{""event"":""fullscreenenter"",""trial"":1,""time"":3139}]",NA,NA,NA,NA,NA,5,#3386FF,#D89F1C,10,10,0,40,0,1239.5999999046326,37,1,473,10,0,experiment,NA,NA,1,0.3,0.7,3,2,34,1,NA
fcp-trial,82,589855,0.0-43.0-0.0,voc_e2,11990,"[{""event"":""fullscreenenter"",""trial"":1,""time"":3139}]",NA,NA,NA,NA,NA,0,#741CD8,#D8271C,10,0,1,38,1,1447.2000002861023,37,1,2507.5,10,1,experiment,NA,NA,2,0.5,0.5,4,5,35,1,NA
fcp-trial,83,593130,0.0-44.0-0.0,voc_e2,11990,"[{""event"":""fullscreenenter"",""trial"":1,""time"":3139}]",NA,NA,NA,NA,NA,3,#FA92F8,#1CD855,10,0,1,38,1,1078.4000000953674,37,1,686.7000002861023,10,1,experiment,NA,NA,0,0.9,0.1,0,1,36,1,NA
fcp-trial,84,597008,0.0-45.0-0.0,voc_e2,11990,"[{""event"":""fullscreenenter"",""trial"":1,""time"":3139}]",NA,NA,NA,NA,NA,2,#3386FF,#D89F1C,0,10,0,40,0,1761.2999997138977,39,0,604,10,1,experiment,NA,NA,1,0.3,0.7,3,2,37,1,NA
fcp-trial,85,600207,0.0-46.0-0.0,voc_e2,11990,"[{""event"":""fullscreenenter"",""trial"":1,""time"":3139}]",NA,NA,NA,NA,NA,0,#3386FF,#D89F1C,0,0,0,38,1,785.1999998092651,37,1,897.0999999046326,0,0,experiment,NA,NA,1,0.3,0.7,3,2,38,1,NA
fcp-trial,86,603413,0.0-47.0-0.0,voc_e2,11990,"[{""event"":""fullscreenenter"",""trial"":1,""time"":3139}]",NA,NA,NA,NA,NA,3,#3386FF,#D89F1C,10,10,0,40,0,1176,39,0,519.2000002861023,10,1,experiment,NA,NA,1,0.3,0.7,3,2,39,1,NA
fcp-trial,87,607136,0.0-48.0-0.0,voc_e2,11990,"[{""event"":""fullscreenenter"",""trial"":1,""time"":3139}]",NA,NA,NA,NA,NA,4,#D8271C,#741CD8,10,10,0,40,0,1585.3000001907349,39,0,622,10,1,experiment,NA,NA,2,0.5,0.5,5,4,40,1,NA
fcp-trial,88,610912,0.0-49.0-0.0,voc_e2,11990,"[{""event"":""fullscreenenter"",""trial"":1,""time"":3139}]",NA,NA,NA,NA,NA,0,#1CD855,#FA92F8,0,10,0,38,1,1645.7000002861023,39,0,616.9000000953674,10,1,experiment,NA,NA,0,0.1,0.9,1,0,41,1,NA
fcp-trial,89,614744,0.0-50.0-0.0,voc_e2,11990,"[{""event"":""fullscreenenter"",""trial"":1,""time"":3139}]",NA,NA,NA,NA,NA,3,#D8271C,#741CD8,10,10,0,40,0,1856,37,1,461.09999990463257,10,0,experiment,NA,NA,2,0.5,0.5,5,4,42,1,NA
fcp-trial,90,617910,0.0-51.0-0.0,voc_e2,11990,"[{""event"":""fullscreenenter"",""trial"":1,""time"":3139}]",NA,NA,NA,NA,NA,2,#741CD8,#D8271C,0,0,1,38,1,1069.6999998092651,37,1,584,0,1,experiment,NA,NA,2,0.5,0.5,4,5,43,1,NA
fcp-trial,91,621063,0.0-52.0-0.0,voc_e2,11990,"[{""event"":""fullscreenenter"",""trial"":1,""time"":3139}]",NA,NA,NA,NA,NA,0,#FA92F8,#1CD855,10,0,1,38,1,1236.1999998092651,37,1,396.80000019073486,10,1,experiment,NA,NA,0,0.9,0.1,0,1,44,1,NA
fcp-trial,92,624087,0.0-53.0-0.0,voc_e2,11990,"[{""event"":""fullscreenenter"",""trial"":1,""time"":3139}]",NA,NA,NA,NA,NA,0,#3386FF,#D89F1C,0,0,0,38,1,784.6999998092651,39,0,722.9000000953674,0,1,experiment,NA,NA,1,0.3,0.7,3,2,45,1,NA
fcp-trial,93,627559,0.0-54.0-0.0,voc_e2,11990,"[{""event"":""fullscreenenter"",""trial"":1,""time"":3139}]",NA,NA,NA,NA,NA,1,#D8271C,#741CD8,10,10,0,38,1,685.2999997138977,39,0,1277.5999999046326,10,1,experiment,NA,NA,2,0.5,0.5,5,4,46,2,NA
fcp-trial,94,630703,0.0-55.0-0.0,voc_e2,11990,"[{""event"":""fullscreenenter"",""trial"":1,""time"":3139}]",NA,NA,NA,NA,NA,5,#1CD855,#FA92F8,0,10,0,38,1,681.0999999046326,39,0,953.9000000953674,10,1,experiment,NA,NA,0,0.1,0.9,1,0,47,2,NA
fcp-trial,95,633807,0.0-56.0-0.0,voc_e2,11990,"[{""event"":""fullscreenenter"",""trial"":1,""time"":3139}]",NA,NA,NA,NA,NA,6,#741CD8,#D8271C,0,0,1,40,0,1090,37,1,497.7000002861023,0,1,experiment,NA,NA,2,0.5,0.5,4,5,48,2,NA
fcp-trial,96,636714,0.0-57.0-0.0,voc_e2,11990,"[{""event"":""fullscreenenter"",""trial"":1,""time"":3139}]",NA,NA,NA,NA,NA,6,#D89F1C,#3386FF,10,0,1,40,0,857,39,0,533.1000003814697,0,0,experiment,NA,NA,1,0.7,0.3,2,3,49,2,NA
fcp-trial,97,639591,0.0-58.0-0.0,voc_e2,11990,"[{""event"":""fullscreenenter"",""trial"":1,""time"":3139}]",NA,NA,NA,NA,NA,3,#741CD8,#D8271C,0,0,1,40,0,882,39,0,482,0,0,experiment,NA,NA,2,0.5,0.5,4,5,50,2,NA
fcp-trial,98,642359,0.0-59.0-0.0,voc_e2,11990,"[{""event"":""fullscreenenter"",""trial"":1,""time"":3139}]",NA,NA,NA,NA,NA,3,#1CD855,#FA92F8,0,10,0,40,0,796,39,0,457.2000002861023,10,1,experiment,NA,NA,0,0.1,0.9,1,0,51,2,NA
fcp-trial,99,645118,0.0-60.0-0.0,voc_e2,11990,"[{""event"":""fullscreenenter"",""trial"":1,""time"":3139}]",NA,NA,NA,NA,NA,4,#D8271C,#741CD8,10,0,0,40,0,666.1000003814697,37,1,581.5,10,0,experiment,NA,NA,2,0.5,0.5,5,4,52,2,NA
fcp-trial,100,648247,0.0-61.0-0.0,voc_e2,11990,"[{""event"":""fullscreenenter"",""trial"":1,""time"":3139}]",NA,NA,NA,NA,NA,2,#1CD855,#FA92F8,0,10,0,40,0,1042.9000000953674,37,1,565.3000001907349,0,0,experiment,NA,NA,0,0.1,0.9,1,0,53,2,NA
fcp-trial,101,651150,0.0-62.0-0.0,voc_e2,11990,"[{""event"":""fullscreenenter"",""trial"":1,""time"":3139}]",NA,NA,NA,NA,NA,3,#D89F1C,#3386FF,10,0,1,40,0,734.6999998092651,39,0,656.8000001907349,0,0,experiment,NA,NA,1,0.7,0.3,2,3,54,2,NA
fcp-trial,102,653878,0.0-63.0-0.0,voc_e2,11990,"[{""event"":""fullscreenenter"",""trial"":1,""time"":3139}]",NA,NA,NA,NA,NA,4,#D89F1C,#3386FF,10,0,1,40,0,770,37,1,442.6000003814697,10,1,experiment,NA,NA,1,0.7,0.3,2,3,55,2,NA
fcp-trial,103,656797,0.0-64.0-0.0,voc_e2,11990,"[{""event"":""fullscreenenter"",""trial"":1,""time"":3139}]",NA,NA,NA,NA,NA,1,#D89F1C,#3386FF,10,0,1,38,1,906.6999998092651,37,1,493.1000003814697,10,1,experiment,NA,NA,1,0.7,0.3,2,3,56,2,NA
fcp-trial,104,660791,0.0-65.0-0.0,voc_e2,11990,"[{""event"":""fullscreenenter"",""trial"":1,""time"":3139}]",NA,NA,NA,NA,NA,0,#D8271C,#741CD8,10,10,0,38,1,750.5,39,0,1730.2999997138977,10,1,experiment,NA,NA,2,0.5,0.5,5,4,57,2,NA
fcp-trial,105,663547,0.0-66.0-0.0,voc_e2,11990,"[{""event"":""fullscreenenter"",""trial"":1,""time"":3139}]",NA,NA,NA,NA,NA,6,#1CD855,#FA92F8,0,10,0,40,0,828.3000001907349,37,1,415.40000009536743,0,0,experiment,NA,NA,0,0.1,0.9,1,0,58,2,NA
fcp-trial,106,666823,0.0-67.0-0.0,voc_e2,11990,"[{""event"":""fullscreenenter"",""trial"":1,""time"":3139}]",NA,NA,NA,NA,NA,2,#3386FF,#D89F1C,0,10,0,38,1,984.5999999046326,39,0,779.0999999046326,10,1,experiment,NA,NA,1,0.3,0.7,3,2,59,2,NA
fcp-trial,107,669758,0.0-68.0-0.0,voc_e2,11990,"[{""event"":""fullscreenenter"",""trial"":1,""time"":3139}]",NA,NA,NA,NA,NA,5,#3386FF,#D89F1C,10,10,0,40,0,830.2000002861023,37,1,590.1999998092651,10,0,experiment,NA,NA,1,0.3,0.7,3,2,60,2,NA
fcp-trial,108,672894,0.0-69.0-0.0,voc_e2,11990,"[{""event"":""fullscreenenter"",""trial"":1,""time"":3139}]",NA,NA,NA,NA,NA,5,#741CD8,#D8271C,0,10,1,40,0,808,37,1,817.1999998092651,0,1,experiment,NA,NA,2,0.5,0.5,4,5,61,2,NA
fcp-trial,109,676390,0.0-70.0-0.0,voc_e2,11990,"[{""event"":""fullscreenenter"",""trial"":1,""time"":3139}]",NA,NA,NA,NA,NA,1,#1CD855,#FA92F8,0,10,0,38,1,838.4000000953674,39,0,1146.0999999046326,10,1,experiment,NA,NA,0,0.1,0.9,1,0,62,2,NA
fcp-trial,110,679174,0.0-71.0-0.0,voc_e2,11990,"[{""event"":""fullscreenenter"",""trial"":1,""time"":3139}]",NA,NA,NA,NA,NA,4,#1CD855,#FA92F8,0,10,0,40,0,813.2000002861023,37,1,457.80000019073486,0,0,experiment,NA,NA,0,0.1,0.9,1,0,63,2,NA
fcp-trial,111,682211,0.0-72.0-0.0,voc_e2,11990,"[{""event"":""fullscreenenter"",""trial"":1,""time"":3139}]",NA,NA,NA,NA,NA,6,#D8271C,#741CD8,0,0,0,40,0,962,37,1,562.7999997138977,0,0,experiment,NA,NA,2,0.5,0.5,5,4,64,2,NA
fcp-trial,112,687194,0.0-73.0-0.0,voc_e2,11990,"[{""event"":""fullscreenenter"",""trial"":1,""time"":3139}]",NA,NA,NA,NA,NA,3,#FA92F8,#1CD855,10,0,1,40,0,2504.7000002861023,37,1,965.9000000953674,10,1,experiment,NA,NA,0,0.9,0.1,0,1,65,2,NA
fcp-trial,113,694789,0.0-74.0-0.0,voc_e2,11990,"[{""event"":""fullscreenenter"",""trial"":1,""time"":3139}]",NA,NA,NA,NA,NA,1,#3386FF,#D89F1C,0,0,0,38,1,4943.200000286102,37,1,1139,0,0,experiment,NA,NA,1,0.3,0.7,3,2,66,2,NA
fcp-trial,114,697811,0.0-75.0-0.0,voc_e2,11990,"[{""event"":""fullscreenenter"",""trial"":1,""time"":3139}]",NA,NA,NA,NA,NA,6,#1CD855,#FA92F8,0,10,0,40,0,1026.4000000953674,37,1,481.8999996185303,0,0,experiment,NA,NA,0,0.1,0.9,1,0,67,2,NA
fcp-trial,115,702141,0.0-76.0-0.0,voc_e2,11990,"[{""event"":""fullscreenenter"",""trial"":1,""time"":3139}]",NA,NA,NA,NA,NA,3,#3386FF,#D89F1C,0,0,0,38,1,1571.8000001907349,39,0,1239,0,1,experiment,NA,NA,1,0.3,0.7,3,2,68,2,NA
fcp-trial,116,705614,0.0-77.0-0.0,voc_e2,11990,"[{""event"":""fullscreenenter"",""trial"":1,""time"":3139}]",NA,NA,NA,NA,NA,3,#741CD8,#D8271C,10,10,1,40,0,1459.8000001907349,37,1,501.2000002861023,10,1,experiment,NA,NA,2,0.5,0.5,4,5,69,2,NA
fcp-trial,117,711829,0.0-78.0-0.0,voc_e2,11990,"[{""event"":""fullscreenenter"",""trial"":1,""time"":3139}]",NA,NA,NA,NA,NA,0,#D8271C,#741CD8,0,0,0,38,1,3551.9000000953674,39,0,1142.0999999046326,0,1,experiment,NA,NA,2,0.5,0.5,5,4,70,2,NA
fcp-trial,118,715469,0.0-79.0-0.0,voc_e2,11990,"[{""event"":""fullscreenenter"",""trial"":1,""time"":3139}]",NA,NA,NA,NA,NA,1,#FA92F8,#1CD855,10,0,1,38,1,1749,37,1,378,10,1,experiment,NA,NA,0,0.9,0.1,0,1,71,2,NA
fcp-trial,119,718308,0.0-80.0-0.0,voc_e2,11990,"[{""event"":""fullscreenenter"",""trial"":1,""time"":3139}]",NA,NA,NA,NA,NA,6,#D89F1C,#3386FF,10,0,1,40,0,906.5999999046326,37,1,426.80000019073486,10,1,experiment,NA,NA,1,0.7,0.3,2,3,72,2,NA
fcp-trial,120,721829,0.0-81.0-0.0,voc_e2,11990,"[{""event"":""fullscreenenter"",""trial"":1,""time"":3139}]",NA,NA,NA,NA,NA,2,#3386FF,#D89F1C,0,10,0,40,0,1460,37,1,545,0,0,experiment,NA,NA,1,0.3,0.7,3,2,73,2,NA
fcp-trial,121,724525,0.0-82.0-0.0,voc_e2,11990,"[{""event"":""fullscreenenter"",""trial"":1,""time"":3139}]",NA,NA,NA,NA,NA,5,#D89F1C,#3386FF,10,0,1,40,0,700.5,37,1,482.59999990463257,10,1,experiment,NA,NA,1,0.7,0.3,2,3,74,2,NA
fcp-trial,122,729893,0.0-83.0-0.0,voc_e2,11990,"[{""event"":""fullscreenenter"",""trial"":1,""time"":3139}]",NA,NA,NA,NA,NA,1,#D8271C,#741CD8,10,0,0,38,1,871.1999998092651,39,0,2988.800000190735,0,1,experiment,NA,NA,2,0.5,0.5,5,4,75,2,NA
fcp-trial,123,732708,0.0-84.0-0.0,voc_e2,11990,"[{""event"":""fullscreenenter"",""trial"":1,""time"":3139}]",NA,NA,NA,NA,NA,5,#FA92F8,#1CD855,10,0,1,40,0,806.5,39,0,494.7999997138977,0,0,experiment,NA,NA,0,0.9,0.1,0,1,76,2,NA
fcp-trial,124,736340,0.0-85.0-0.0,voc_e2,11990,"[{""event"":""fullscreenenter"",""trial"":1,""time"":3139}]",NA,NA,NA,NA,NA,2,#1CD855,#FA92F8,10,10,0,40,0,1684.8000001907349,39,0,434.09999990463257,10,1,experiment,NA,NA,0,0.1,0.9,1,0,77,2,NA
fcp-trial,125,740046,0.0-86.0-0.0,voc_e2,11990,"[{""event"":""fullscreenenter"",""trial"":1,""time"":3139}]",NA,NA,NA,NA,NA,0,#3386FF,#D89F1C,0,10,0,38,1,991.2000002861023,39,0,1204.5,10,1,experiment,NA,NA,1,0.3,0.7,3,2,78,2,NA
fcp-trial,126,743177,0.0-87.0-0.0,voc_e2,11990,"[{""event"":""fullscreenenter"",""trial"":1,""time"":3139}]",NA,NA,NA,NA,NA,2,#D8271C,#741CD8,10,0,0,40,0,1186.2000002861023,37,1,434.19999980926514,10,0,experiment,NA,NA,2,0.5,0.5,5,4,79,2,NA
fcp-trial,127,746060,0.0-88.0-0.0,voc_e2,11990,"[{""event"":""fullscreenenter"",""trial"":1,""time"":3139}]",NA,NA,NA,NA,NA,4,#FA92F8,#1CD855,10,10,1,40,0,895.0999999046326,39,0,476.30000019073486,10,0,experiment,NA,NA,0,0.9,0.1,0,1,80,2,NA
fcp-trial,128,748756,0.0-89.0-0.0,voc_e2,11990,"[{""event"":""fullscreenenter"",""trial"":1,""time"":3139}]",NA,NA,NA,NA,NA,4,#D8271C,#741CD8,0,10,0,40,0,735.8000001907349,37,1,443.7000002861023,0,0,experiment,NA,NA,2,0.5,0.5,5,4,81,2,NA
fcp-trial,129,751540,0.0-90.0-0.0,voc_e2,11990,"[{""event"":""fullscreenenter"",""trial"":1,""time"":3139}]",NA,NA,NA,NA,NA,4,#D89F1C,#3386FF,0,0,1,40,0,761.6999998092651,37,1,506,0,1,experiment,NA,NA,1,0.7,0.3,2,3,82,2,NA
fcp-trial,130,754161,0.0-91.0-0.0,voc_e2,11990,"[{""event"":""fullscreenenter"",""trial"":1,""time"":3139}]",NA,NA,NA,NA,NA,5,#741CD8,#D8271C,10,10,1,40,0,717.9000000953674,39,0,394.3999996185303,10,0,experiment,NA,NA,2,0.5,0.5,4,5,83,2,NA
fcp-trial,131,757363,0.0-92.0-0.0,voc_e2,11990,"[{""event"":""fullscreenenter"",""trial"":1,""time"":3139}]",NA,NA,NA,NA,NA,0,#FA92F8,#1CD855,10,0,1,38,1,997.5,37,1,691.9000000953674,10,1,experiment,NA,NA,0,0.9,0.1,0,1,84,2,NA
fcp-trial,132,760940,0.0-93.0-0.0,voc_e2,11990,"[{""event"":""fullscreenenter"",""trial"":1,""time"":3139}]",NA,NA,NA,NA,NA,6,#D89F1C,#3386FF,0,0,1,40,0,1485.9000000953674,37,1,579.0999999046326,0,1,experiment,NA,NA,1,0.7,0.3,2,3,85,2,NA
fcp-trial,133,765045,0.0-94.0-0.0,voc_e2,11990,"[{""event"":""fullscreenenter"",""trial"":1,""time"":3139}]",NA,NA,NA,NA,NA,1,#FA92F8,#1CD855,10,0,1,38,1,995,37,1,1597.3000001907349,10,1,experiment,NA,NA,0,0.9,0.1,0,1,86,2,NA
fcp-trial,134,768323,0.0-95.0-0.0,voc_e2,11990,"[{""event"":""fullscreenenter"",""trial"":1,""time"":3139}]",NA,NA,NA,NA,NA,0,#1CD855,#FA92F8,0,10,0,38,1,1420.9000000953674,39,0,344.5,10,1,experiment,NA,NA,0,0.1,0.9,1,0,87,2,NA
fcp-trial,135,772172,0.0-96.0-0.0,voc_e2,11990,"[{""event"":""fullscreenenter"",""trial"":1,""time"":3139}]",NA,NA,NA,NA,NA,2,#741CD8,#D8271C,10,0,1,40,0,1958.0999999046326,37,1,378.80000019073486,10,1,experiment,NA,NA,2,0.5,0.5,4,5,88,2,NA
fcp-trial,136,775027,0.0-97.0-0.0,voc_e2,11990,"[{""event"":""fullscreenenter"",""trial"":1,""time"":3139}]",NA,NA,NA,NA,NA,3,#1CD855,#FA92F8,0,0,0,40,0,929.0999999046326,39,0,408.09999990463257,0,1,experiment,NA,NA,0,0.1,0.9,1,0,89,2,NA
fcp-trial,137,777827,0.0-98.0-0.0,voc_e2,11990,"[{""event"":""fullscreenenter"",""trial"":1,""time"":3139}]",NA,NA,NA,NA,NA,3,#D89F1C,#3386FF,0,10,1,40,0,838.5999999046326,37,1,440.2000002861023,0,1,experiment,NA,NA,1,0.7,0.3,2,3,90,2,NA
fcp-trial,138,781161,0.0-99.0-0.0,voc_e2,11990,"[{""event"":""fullscreenenter"",""trial"":1,""time"":3139}]",NA,NA,NA,NA,NA,1,#D89F1C,#3386FF,10,0,1,40,0,1296.6999998092651,39,0,531.5,0,0,experiment,NA,NA,1,0.7,0.3,2,3,91,3,NA
fcp-trial,139,784897,0.0-100.0-0.0,voc_e2,11990,"[{""event"":""fullscreenenter"",""trial"":1,""time"":3139}]",NA,NA,NA,NA,NA,0,#D8271C,#741CD8,10,10,0,38,1,1104.7999997138977,39,0,1121.7999997138977,10,1,experiment,NA,NA,2,0.5,0.5,5,4,92,3,NA
fcp-trial,140,787755,0.0-101.0-0.0,voc_e2,11990,"[{""event"":""fullscreenenter"",""trial"":1,""time"":3139}]",NA,NA,NA,NA,NA,0,#3386FF,#D89F1C,0,10,0,38,1,935.0999999046326,39,0,410.3999996185303,10,1,experiment,NA,NA,1,0.3,0.7,3,2,93,3,NA
fcp-trial,141,790797,0.0-102.0-0.0,voc_e2,11990,"[{""event"":""fullscreenenter"",""trial"":1,""time"":3139}]",NA,NA,NA,NA,NA,2,#1CD855,#FA92F8,0,10,0,40,0,1098.8999996185303,39,0,434.69999980926514,10,1,experiment,NA,NA,0,0.1,0.9,1,0,94,3,NA
fcp-trial,142,793610,0.0-103.0-0.0,voc_e2,11990,"[{""event"":""fullscreenenter"",""trial"":1,""time"":3139}]",NA,NA,NA,NA,NA,6,#D8271C,#741CD8,0,10,0,40,0,819.4000000953674,39,0,481.30000019073486,10,1,experiment,NA,NA,2,0.5,0.5,5,4,95,3,NA
fcp-trial,143,796328,0.0-104.0-0.0,voc_e2,11990,"[{""event"":""fullscreenenter"",""trial"":1,""time"":3139}]",NA,NA,NA,NA,NA,4,#D89F1C,#3386FF,10,0,1,40,0,773.3000001907349,39,0,432,0,0,experiment,NA,NA,1,0.7,0.3,2,3,96,3,NA
fcp-trial,144,799163,0.0-105.0-0.0,voc_e2,11990,"[{""event"":""fullscreenenter"",""trial"":1,""time"":3139}]",NA,NA,NA,NA,NA,5,#D8271C,#741CD8,0,0,0,40,0,924.6000003814697,37,1,392.59999990463257,0,0,experiment,NA,NA,2,0.5,0.5,5,4,97,3,NA
fcp-trial,145,803979,0.0-106.0-0.0,voc_e2,11990,"[{""event"":""fullscreenenter"",""trial"":1,""time"":3139}]",NA,NA,NA,NA,NA,1,#741CD8,#D8271C,10,10,1,38,1,1741.4000000953674,37,1,1557.6999998092651,10,1,experiment,NA,NA,2,0.5,0.5,4,5,98,3,NA
fcp-trial,146,807194,0.0-107.0-0.0,voc_e2,11990,"[{""event"":""fullscreenenter"",""trial"":1,""time"":3139}]",NA,NA,NA,NA,NA,6,#FA92F8,#1CD855,10,0,1,40,0,1141,39,0,557.6999998092651,0,0,experiment,NA,NA,0,0.9,0.1,0,1,99,3,NA
fcp-trial,147,811162,0.0-108.0-0.0,voc_e2,11990,"[{""event"":""fullscreenenter"",""trial"":1,""time"":3139}]",NA,NA,NA,NA,NA,4,#741CD8,#D8271C,10,0,1,40,0,2006,37,1,447.5,10,1,experiment,NA,NA,2,0.5,0.5,4,5,100,3,NA
fcp-trial,148,814355,0.0-109.0-0.0,voc_e2,11990,"[{""event"":""fullscreenenter"",""trial"":1,""time"":3139}]",NA,NA,NA,NA,NA,5,#D89F1C,#3386FF,10,0,1,40,0,1228.6999998092651,37,1,452.69999980926514,10,1,experiment,NA,NA,1,0.7,0.3,2,3,101,3,NA
fcp-trial,149,817059,0.0-110.0-0.0,voc_e2,11990,"[{""event"":""fullscreenenter"",""trial"":1,""time"":3139}]",NA,NA,NA,NA,NA,3,#741CD8,#D8271C,0,0,1,40,0,746.0999999046326,37,1,441.30000019073486,0,1,experiment,NA,NA,2,0.5,0.5,4,5,102,3,NA
fcp-trial,150,819890,0.0-111.0-0.0,voc_e2,11990,"[{""event"":""fullscreenenter"",""trial"":1,""time"":3139}]",NA,NA,NA,NA,NA,2,#D89F1C,#3386FF,0,10,1,40,0,742.5,37,1,578.4000000953674,0,1,experiment,NA,NA,1,0.7,0.3,2,3,103,3,NA
fcp-trial,151,822610,0.0-112.0-0.0,voc_e2,11990,"[{""event"":""fullscreenenter"",""trial"":1,""time"":3139}]",NA,NA,NA,NA,NA,4,#FA92F8,#1CD855,10,0,1,40,0,727.2000002861023,39,0,478.30000019073486,0,0,experiment,NA,NA,0,0.9,0.1,0,1,104,3,NA
fcp-trial,152,825274,0.0-113.0-0.0,voc_e2,11990,"[{""event"":""fullscreenenter"",""trial"":1,""time"":3139}]",NA,NA,NA,NA,NA,5,#FA92F8,#1CD855,10,0,1,40,0,714.9000000953674,39,0,437.59999990463257,0,0,experiment,NA,NA,0,0.9,0.1,0,1,105,3,NA
audio-instructions,153,841868,0.0-114.0,voc_e2,11990,"[{""event"":""fullscreenenter"",""trial"":1,""time"":3139}]",NA,11713,static/audio/pause.wav,NA,0,NA,NA,NA,NA,NA,NA,NA,NA,NA,NA,NA,NA,NA,NA,NA,NA,NA,NA,NA,NA,NA,NA,NA,NA,NA
fcp-trial,154,845353,0.0-115.0-0.0,voc_e2,11990,"[{""event"":""fullscreenenter"",""trial"":1,""time"":3139}]",NA,NA,NA,NA,NA,2,#D8271C,#741CD8,10,10,0,40,0,1483.2999997138977,37,1,492,10,0,experiment,NA,NA,2,0.5,0.5,5,4,106,3,NA
fcp-trial,155,849162,0.0-116.0-0.0,voc_e2,11990,"[{""event"":""fullscreenenter"",""trial"":1,""time"":3139}]",NA,NA,NA,NA,NA,1,#D89F1C,#3386FF,10,0,1,40,0,1822.2999997138977,37,1,474.69999980926514,10,1,experiment,NA,NA,1,0.7,0.3,2,3,107,3,NA
fcp-trial,156,851977,0.0-117.0-0.0,voc_e2,11990,"[{""event"":""fullscreenenter"",""trial"":1,""time"":3139}]",NA,NA,NA,NA,NA,5,#1CD855,#FA92F8,0,10,0,40,0,892.5,37,1,406.5,0,0,experiment,NA,NA,0,0.1,0.9,1,0,108,3,NA
fcp-trial,157,854578,0.0-118.0-0.0,voc_e2,11990,"[{""event"":""fullscreenenter"",""trial"":1,""time"":3139}]",NA,NA,NA,NA,NA,6,#D89F1C,#3386FF,10,0,1,40,0,624.4000000953674,37,1,457,10,1,experiment,NA,NA,1,0.7,0.3,2,3,109,3,NA
fcp-trial,158,857097,0.0-119.0-0.0,voc_e2,11990,"[{""event"":""fullscreenenter"",""trial"":1,""time"":3139}]",NA,NA,NA,NA,NA,1,#741CD8,#D8271C,0,10,1,40,0,644.9000000953674,39,0,362.09999990463257,10,0,experiment,NA,NA,2,0.5,0.5,4,5,110,3,NA
fcp-trial,159,859658,0.0-120.0-0.0,voc_e2,11990,"[{""event"":""fullscreenenter"",""trial"":1,""time"":3139}]",NA,NA,NA,NA,NA,5,#D8271C,#741CD8,10,10,0,40,0,599,39,0,440.09999990463257,10,1,experiment,NA,NA,2,0.5,0.5,5,4,111,3,NA
fcp-trial,160,863809,0.0-121.0-0.0,voc_e2,11990,"[{""event"":""fullscreenenter"",""trial"":1,""time"":3139}]",NA,NA,NA,NA,NA,2,#D89F1C,#3386FF,10,10,1,40,0,1793,39,0,840.3000001907349,10,0,experiment,NA,NA,1,0.7,0.3,2,3,112,3,NA
fcp-trial,161,866296,0.0-122.0-0.0,voc_e2,11990,"[{""event"":""fullscreenenter"",""trial"":1,""time"":3139}]",NA,NA,NA,NA,NA,4,#1CD855,#FA92F8,0,10,0,40,0,626.6000003814697,37,1,342,0,0,experiment,NA,NA,0,0.1,0.9,1,0,113,3,NA
fcp-trial,162,868841,0.0-123.0-0.0,voc_e2,11990,"[{""event"":""fullscreenenter"",""trial"":1,""time"":3139}]",NA,NA,NA,NA,NA,3,#D8271C,#741CD8,10,0,0,40,0,669.7000002861023,39,0,361.90000009536743,0,1,experiment,NA,NA,2,0.5,0.5,5,4,114,3,NA
fcp-trial,163,871609,0.0-124.0-0.0,voc_e2,11990,"[{""event"":""fullscreenenter"",""trial"":1,""time"":3139}]",NA,NA,NA,NA,NA,3,#3386FF,#D89F1C,0,0,0,40,0,789.5,37,1,464.6000003814697,0,0,experiment,NA,NA,1,0.3,0.7,3,2,115,3,NA
fcp-trial,164,875073,0.0-125.0-0.0,voc_e2,11990,"[{""event"":""fullscreenenter"",""trial"":1,""time"":3139}]",NA,NA,NA,NA,NA,0,#D8271C,#741CD8,10,10,0,38,1,1278.0999999046326,39,0,675.3999996185303,10,1,experiment,NA,NA,2,0.5,0.5,5,4,116,3,NA
fcp-trial,165,878144,0.0-126.0-0.0,voc_e2,11990,"[{""event"":""fullscreenenter"",""trial"":1,""time"":3139}]",NA,NA,NA,NA,NA,3,#1CD855,#FA92F8,0,10,0,40,0,1184.1000003814697,37,1,373.30000019073486,0,0,experiment,NA,NA,0,0.1,0.9,1,0,117,3,NA
fcp-trial,166,880778,0.0-127.0-0.0,voc_e2,11990,"[{""event"":""fullscreenenter"",""trial"":1,""time"":3139}]",NA,NA,NA,NA,NA,4,#D89F1C,#3386FF,10,0,1,40,0,785.4000000953674,39,0,332,0,0,experiment,NA,NA,1,0.7,0.3,2,3,118,3,NA
fcp-trial,167,883593,0.0-128.0-0.0,voc_e2,11990,"[{""event"":""fullscreenenter"",""trial"":1,""time"":3139}]",NA,NA,NA,NA,NA,2,#FA92F8,#1CD855,10,0,1,40,0,876.4000000953674,37,1,423.2000002861023,10,1,experiment,NA,NA,0,0.9,0.1,0,1,119,3,NA
fcp-trial,168,886145,0.0-129.0-0.0,voc_e2,11990,"[{""event"":""fullscreenenter"",""trial"":1,""time"":3139}]",NA,NA,NA,NA,NA,6,#FA92F8,#1CD855,0,0,1,40,0,549.3000001907349,39,0,486.2000002861023,0,0,experiment,NA,NA,0,0.9,0.1,0,1,120,3,NA
fcp-trial,169,889208,0.0-130.0-0.0,voc_e2,11990,"[{""event"":""fullscreenenter"",""trial"":1,""time"":3139}]",NA,NA,NA,NA,NA,6,#741CD8,#D8271C,0,10,1,40,0,852.0999999046326,37,1,698.7000002861023,0,1,experiment,NA,NA,2,0.5,0.5,4,5,121,3,NA
fcp-trial,170,892273,0.0-131.0-0.0,voc_e2,11990,"[{""event"":""fullscreenenter"",""trial"":1,""time"":3139}]",NA,NA,NA,NA,NA,0,#D89F1C,#3386FF,10,0,1,38,1,1247.5,37,1,307.09999990463257,10,1,experiment,NA,NA,1,0.7,0.3,2,3,122,3,NA
fcp-trial,171,894992,0.0-132.0-0.0,voc_e2,11990,"[{""event"":""fullscreenenter"",""trial"":1,""time"":3139}]",NA,NA,NA,NA,NA,5,#D89F1C,#3386FF,10,0,1,40,0,724.6999998092651,37,1,479.19999980926514,10,1,experiment,NA,NA,1,0.7,0.3,2,3,123,3,NA
fcp-trial,172,898144,0.0-133.0-0.0,voc_e2,11990,"[{""event"":""fullscreenenter"",""trial"":1,""time"":3139}]",NA,NA,NA,NA,NA,1,#1CD855,#FA92F8,0,10,0,38,1,1157.5,39,0,481.59999990463257,10,1,experiment,NA,NA,0,0.1,0.9,1,0,124,3,NA
fcp-trial,173,901256,0.0-134.0-0.0,voc_e2,11990,"[{""event"":""fullscreenenter"",""trial"":1,""time"":3139}]",NA,NA,NA,NA,NA,0,#FA92F8,#1CD855,10,0,1,38,1,1263.5,37,1,340,10,1,experiment,NA,NA,0,0.9,0.1,0,1,125,3,NA
fcp-trial,174,904208,0.0-135.0-0.0,voc_e2,11990,"[{""event"":""fullscreenenter"",""trial"":1,""time"":3139}]",NA,NA,NA,NA,NA,4,#D8271C,#741CD8,10,0,0,40,0,971.2999997138977,37,1,471.09999990463257,10,0,experiment,NA,NA,2,0.5,0.5,5,4,126,3,NA
fcp-trial,175,907112,0.0-136.0-0.0,voc_e2,11990,"[{""event"":""fullscreenenter"",""trial"":1,""time"":3139}]",NA,NA,NA,NA,NA,2,#3386FF,#D89F1C,10,0,0,38,1,940.0999999046326,39,0,450.7999997138977,0,1,experiment,NA,NA,1,0.3,0.7,3,2,127,3,NA
fcp-trial,176,910439,0.0-137.0-0.0,voc_e2,11990,"[{""event"":""fullscreenenter"",""trial"":1,""time"":3139}]",NA,NA,NA,NA,NA,3,#FA92F8,#1CD855,10,0,1,38,1,774.6999998092651,37,1,1042.7000002861023,10,1,experiment,NA,NA,0,0.9,0.1,0,1,128,3,NA
fcp-trial,177,913527,0.0-138.0-0.0,voc_e2,11990,"[{""event"":""fullscreenenter"",""trial"":1,""time"":3139}]",NA,NA,NA,NA,NA,4,#D8271C,#741CD8,10,0,0,40,0,742.5,39,0,830,0,1,experiment,NA,NA,2,0.5,0.5,5,4,129,3,NA
fcp-trial,178,916391,0.0-139.0-0.0,voc_e2,11990,"[{""event"":""fullscreenenter"",""trial"":1,""time"":3139}]",NA,NA,NA,NA,NA,2,#741CD8,#D8271C,0,10,1,40,0,789.5,39,0,559.5,10,0,experiment,NA,NA,2,0.5,0.5,4,5,130,3,NA
fcp-trial,179,919175,0.0-140.0-0.0,voc_e2,11990,"[{""event"":""fullscreenenter"",""trial"":1,""time"":3139}]",NA,NA,NA,NA,NA,0,#1CD855,#FA92F8,0,10,0,38,1,825.2999997138977,39,0,444.09999990463257,10,1,experiment,NA,NA,0,0.1,0.9,1,0,131,3,NA
fcp-trial,180,922064,0.0-141.0-0.0,voc_e2,11990,"[{""event"":""fullscreenenter"",""trial"":1,""time"":3139}]",NA,NA,NA,NA,NA,1,#D89F1C,#3386FF,0,0,1,38,1,896.4000000953674,37,1,476.69999980926514,0,1,experiment,NA,NA,1,0.7,0.3,2,3,132,3,NA
fcp-trial,181,925628,0.0-142.0-0.0,voc_e2,11990,"[{""event"":""fullscreenenter"",""trial"":1,""time"":3139}]",NA,NA,NA,NA,NA,2,#FA92F8,#1CD855,10,0,1,38,1,710.3999996185303,37,1,1344.5999999046326,10,1,experiment,NA,NA,0,0.9,0.1,0,1,133,3,NA
fcp-trial,182,928846,0.0-143.0-0.0,voc_e2,11990,"[{""event"":""fullscreenenter"",""trial"":1,""time"":3139}]",NA,NA,NA,NA,NA,0,#741CD8,#D8271C,0,10,1,38,1,988,39,0,712.2999997138977,10,0,experiment,NA,NA,2,0.5,0.5,4,5,134,3,NA
fcp-trial,183,931672,0.0-144.0-0.0,voc_e2,11990,"[{""event"":""fullscreenenter"",""trial"":1,""time"":3139}]",NA,NA,NA,NA,NA,3,#741CD8,#D8271C,10,10,1,40,0,908.6999998092651,37,1,405.19999980926514,10,1,experiment,NA,NA,2,0.5,0.5,4,5,135,3,NA
fcp-trial,184,934680,0.0-145.0-0.0,voc_e2,11990,"[{""event"":""fullscreenenter"",""trial"":1,""time"":3139}]",NA,NA,NA,NA,NA,6,#3386FF,#D89F1C,0,10,0,40,0,1113.9000000953674,39,0,373.19999980926514,10,1,experiment,NA,NA,1,0.3,0.7,3,2,136,4,NA
fcp-trial,185,937495,0.0-146.0-0.0,voc_e2,11990,"[{""event"":""fullscreenenter"",""trial"":1,""time"":3139}]",NA,NA,NA,NA,NA,6,#741CD8,#D8271C,0,0,1,40,0,874.5999999046326,39,0,423.40000009536743,0,0,experiment,NA,NA,2,0.5,0.5,4,5,137,4,NA
fcp-trial,186,940364,0.0-147.0-0.0,voc_e2,11990,"[{""event"":""fullscreenenter"",""trial"":1,""time"":3139}]",NA,NA,NA,NA,NA,4,#1CD855,#FA92F8,0,10,0,40,0,900.9000000953674,39,0,457.5,10,1,experiment,NA,NA,0,0.1,0.9,1,0,138,4,NA
fcp-trial,187,943103,0.0-148.0-0.0,voc_e2,11990,"[{""event"":""fullscreenenter"",""trial"":1,""time"":3139}]",NA,NA,NA,NA,NA,0,#3386FF,#D89F1C,0,10,0,38,1,818,39,0,403.90000009536743,10,1,experiment,NA,NA,1,0.3,0.7,3,2,139,4,NA
fcp-trial,188,947095,0.0-149.0-0.0,voc_e2,11990,"[{""event"":""fullscreenenter"",""trial"":1,""time"":3139}]",NA,NA,NA,NA,NA,5,#D8271C,#741CD8,0,0,0,40,0,1822.5,39,0,657.7999997138977,0,1,experiment,NA,NA,2,0.5,0.5,5,4,140,4,NA
fcp-trial,189,949807,0.0-150.0-0.0,voc_e2,11990,"[{""event"":""fullscreenenter"",""trial"":1,""time"":3139}]",NA,NA,NA,NA,NA,3,#D89F1C,#3386FF,10,10,1,40,0,730.4000000953674,39,0,472.1000003814697,10,0,experiment,NA,NA,1,0.7,0.3,2,3,141,4,NA
fcp-trial,190,953438,0.0-151.0-0.0,voc_e2,11990,"[{""event"":""fullscreenenter"",""trial"":1,""time"":3139}]",NA,NA,NA,NA,NA,1,#FA92F8,#1CD855,10,0,1,38,1,1140.8999996185303,37,1,979,10,1,experiment,NA,NA,0,0.9,0.1,0,1,142,4,NA
fcp-trial,191,956175,0.0-152.0-0.0,voc_e2,11990,"[{""event"":""fullscreenenter"",""trial"":1,""time"":3139}]",NA,NA,NA,NA,NA,5,#1CD855,#FA92F8,10,10,0,40,0,778.9000000953674,37,1,441.19999980926514,10,0,experiment,NA,NA,0,0.1,0.9,1,0,143,4,NA
fcp-trial,192,958829,0.0-153.0-0.0,voc_e2,11990,"[{""event"":""fullscreenenter"",""trial"":1,""time"":3139}]",NA,NA,NA,NA,NA,4,#3386FF,#D89F1C,0,10,0,40,0,714.5999999046326,37,1,428.09999990463257,0,0,experiment,NA,NA,1,0.3,0.7,3,2,144,4,NA
fcp-trial,193,963158,0.0-154.0-0.0,voc_e2,11990,"[{""event"":""fullscreenenter"",""trial"":1,""time"":3139}]",NA,NA,NA,NA,NA,1,#741CD8,#D8271C,0,0,1,38,1,875.6999998092651,39,0,1939.6999998092651,0,0,experiment,NA,NA,2,0.5,0.5,4,5,145,4,NA
fcp-trial,194,965813,0.0-155.0-0.0,voc_e2,11990,"[{""event"":""fullscreenenter"",""trial"":1,""time"":3139}]",NA,NA,NA,NA,NA,5,#D89F1C,#3386FF,10,10,1,40,0,681.2999997138977,37,1,462.09999990463257,10,1,experiment,NA,NA,1,0.7,0.3,2,3,146,4,NA
fcp-trial,195,968526,0.0-156.0-0.0,voc_e2,11990,"[{""event"":""fullscreenenter"",""trial"":1,""time"":3139}]",NA,NA,NA,NA,NA,6,#FA92F8,#1CD855,0,0,1,40,0,758.4000000953674,39,0,439.2000002861023,0,0,experiment,NA,NA,0,0.9,0.1,0,1,147,4,NA
fcp-trial,196,972942,0.0-157.0-0.0,voc_e2,11990,"[{""event"":""fullscreenenter"",""trial"":1,""time"":3139}]",NA,NA,NA,NA,NA,3,#3386FF,#D89F1C,0,0,0,40,0,2422.5,37,1,479.2999997138977,0,0,experiment,NA,NA,1,0.3,0.7,3,2,148,4,NA
fcp-trial,197,976126,0.0-158.0-0.0,voc_e2,11990,"[{""event"":""fullscreenenter"",""trial"":1,""time"":3139}]",NA,NA,NA,NA,NA,0,#3386FF,#D89F1C,0,10,0,38,1,879.5999999046326,39,0,793.5,10,1,experiment,NA,NA,1,0.3,0.7,3,2,149,4,NA
fcp-trial,198,991134,0.0-159.0-0.0,voc_e2,11990,"[{""event"":""fullscreenenter"",""trial"":1,""time"":3139}]",NA,NA,NA,NA,NA,4,#FA92F8,#1CD855,10,0,1,null,null,null,null,null,null,NA,0,experiment,NA,NA,0,0.9,0.1,0,1,150,4,NA
fcp-trial,199,994542,0.0-160.0-0.0,voc_e2,11990,"[{""event"":""fullscreenenter"",""trial"":1,""time"":3139}]",NA,NA,NA,NA,NA,2,#D8271C,#741CD8,0,10,0,40,0,1216.0999999046326,39,0,677.5,10,1,experiment,NA,NA,2,0.5,0.5,5,4,151,4,NA
fcp-trial,200,997262,0.0-161.0-0.0,voc_e2,11990,"[{""event"":""fullscreenenter"",""trial"":1,""time"":3139}]",NA,NA,NA,NA,NA,4,#D8271C,#741CD8,10,0,0,40,0,724.9000000953674,39,0,482.09999990463257,0,1,experiment,NA,NA,2,0.5,0.5,5,4,152,4,NA
fcp-trial,201,1000014,0.0-162.0-0.0,voc_e2,11990,"[{""event"":""fullscreenenter"",""trial"":1,""time"":3139}]",NA,NA,NA,NA,NA,4,#D89F1C,#3386FF,10,10,1,40,0,662.6999998092651,37,1,571.5999999046326,10,1,experiment,NA,NA,1,0.7,0.3,2,3,153,4,NA
fcp-trial,202,1003006,0.0-163.0-0.0,voc_e2,11990,"[{""event"":""fullscreenenter"",""trial"":1,""time"":3139}]",NA,NA,NA,NA,NA,1,#1CD855,#FA92F8,0,0,0,38,1,981.4000000953674,39,0,492,0,1,experiment,NA,NA,0,0.1,0.9,1,0,154,4,NA
fcp-trial,203,1005677,0.0-164.0-0.0,voc_e2,11990,"[{""event"":""fullscreenenter"",""trial"":1,""time"":3139}]",NA,NA,NA,NA,NA,6,#FA92F8,#1CD855,10,10,1,40,0,753.6999998092651,37,1,398.09999990463257,10,1,experiment,NA,NA,0,0.9,0.1,0,1,155,4,NA
fcp-trial,204,1008341,0.0-165.0-0.0,voc_e2,11990,"[{""event"":""fullscreenenter"",""trial"":1,""time"":3139}]",NA,NA,NA,NA,NA,3,#741CD8,#D8271C,10,10,1,40,0,775.4000000953674,39,0,375.69999980926514,10,0,experiment,NA,NA,2,0.5,0.5,4,5,156,4,NA
fcp-trial,205,1010877,0.0-166.0-0.0,voc_e2,11990,"[{""event"":""fullscreenenter"",""trial"":1,""time"":3139}]",NA,NA,NA,NA,NA,6,#3386FF,#D89F1C,0,10,0,40,0,629,37,1,388.40000009536743,0,0,experiment,NA,NA,1,0.3,0.7,3,2,157,4,NA
fcp-trial,206,1013828,0.0-167.0-0.0,voc_e2,11990,"[{""event"":""fullscreenenter"",""trial"":1,""time"":3139}]",NA,NA,NA,NA,NA,1,#D8271C,#741CD8,10,0,0,38,1,945.6999998092651,39,0,486.69999980926514,0,1,experiment,NA,NA,2,0.5,0.5,5,4,158,4,NA
fcp-trial,207,1016463,0.0-168.0-0.0,voc_e2,11990,"[{""event"":""fullscreenenter"",""trial"":1,""time"":3139}]",NA,NA,NA,NA,NA,6,#741CD8,#D8271C,0,10,1,40,0,627.3000001907349,39,0,497.40000009536743,10,0,experiment,NA,NA,2,0.5,0.5,4,5,159,4,NA
fcp-trial,208,1019245,0.0-169.0-0.0,voc_e2,11990,"[{""event"":""fullscreenenter"",""trial"":1,""time"":3139}]",NA,NA,NA,NA,NA,3,#FA92F8,#1CD855,10,0,1,40,0,704.0999999046326,37,1,558.6000003814697,10,1,experiment,NA,NA,0,0.9,0.1,0,1,160,4,NA
fcp-trial,209,1022213,0.0-170.0-0.0,voc_e2,11990,"[{""event"":""fullscreenenter"",""trial"":1,""time"":3139}]",NA,NA,NA,NA,NA,0,#741CD8,#D8271C,10,10,1,38,1,1084.8000001907349,39,0,366.5,10,0,experiment,NA,NA,2,0.5,0.5,4,5,161,4,NA
fcp-trial,210,1024821,0.0-171.0-0.0,voc_e2,11990,"[{""event"":""fullscreenenter"",""trial"":1,""time"":3139}]",NA,NA,NA,NA,NA,5,#D89F1C,#3386FF,0,0,1,40,0,640.5,39,0,454.5,0,0,experiment,NA,NA,1,0.7,0.3,2,3,162,4,NA
fcp-trial,211,1029310,0.0-172.0-0.0,voc_e2,11990,"[{""event"":""fullscreenenter"",""trial"":1,""time"":3139}]",NA,NA,NA,NA,NA,0,#FA92F8,#1CD855,10,0,1,38,1,903,37,1,2067.9000000953674,10,1,experiment,NA,NA,0,0.9,0.1,0,1,163,4,NA
fcp-trial,212,1032757,0.0-173.0-0.0,voc_e2,11990,"[{""event"":""fullscreenenter"",""trial"":1,""time"":3139}]",NA,NA,NA,NA,NA,5,#D8271C,#741CD8,10,0,0,40,0,1551.3000001907349,39,0,377.69999980926514,0,1,experiment,NA,NA,2,0.5,0.5,5,4,164,4,NA
fcp-trial,213,1035562,0.0-174.0-0.0,voc_e2,11990,"[{""event"":""fullscreenenter"",""trial"":1,""time"":3139}]",NA,NA,NA,NA,NA,2,#FA92F8,#1CD855,10,0,1,38,1,760.2999997138977,37,1,532.3999996185303,10,1,experiment,NA,NA,0,0.9,0.1,0,1,165,4,NA
fcp-trial,214,1038141,0.0-175.0-0.0,voc_e2,11990,"[{""event"":""fullscreenenter"",""trial"":1,""time"":3139}]",NA,NA,NA,NA,NA,5,#1CD855,#FA92F8,0,10,0,40,0,668.5,39,0,393.30000019073486,10,1,experiment,NA,NA,0,0.1,0.9,1,0,166,4,NA
fcp-trial,215,1040994,0.0-176.0-0.0,voc_e2,11990,"[{""event"":""fullscreenenter"",""trial"":1,""time"":3139}]",NA,NA,NA,NA,NA,1,#3386FF,#D89F1C,10,10,0,38,1,767.5,39,0,580,10,1,experiment,NA,NA,1,0.3,0.7,3,2,167,4,NA
fcp-trial,216,1043629,0.0-177.0-0.0,voc_e2,11990,"[{""event"":""fullscreenenter"",""trial"":1,""time"":3139}]",NA,NA,NA,NA,NA,2,#D89F1C,#3386FF,10,10,1,40,0,711.5999999046326,39,0,410.2999997138977,10,0,experiment,NA,NA,1,0.7,0.3,2,3,168,4,NA
fcp-trial,217,1047212,0.0-178.0-0.0,voc_e2,11990,"[{""event"":""fullscreenenter"",""trial"":1,""time"":3139}]",NA,NA,NA,NA,NA,2,#3386FF,#D89F1C,0,10,0,40,0,1512.1999998092651,37,1,557,0,0,experiment,NA,NA,1,0.3,0.7,3,2,169,4,NA
fcp-trial,218,1051915,0.0-179.0-0.0,voc_e2,11990,"[{""event"":""fullscreenenter"",""trial"":1,""time"":3139}]",NA,NA,NA,NA,NA,3,#D8271C,#741CD8,0,10,0,40,0,2686.2999997138977,39,0,506.30000019073486,10,1,experiment,NA,NA,2,0.5,0.5,5,4,170,4,NA
fcp-trial,219,1055108,0.0-180.0-0.0,voc_e2,11990,"[{""event"":""fullscreenenter"",""trial"":1,""time"":3139}]",NA,NA,NA,NA,NA,3,#3386FF,#D89F1C,10,0,0,40,0,1218.9000000953674,39,0,455.09999990463257,0,1,experiment,NA,NA,1,0.3,0.7,3,2,171,4,NA
fcp-trial,220,1057755,0.0-181.0-0.0,voc_e2,11990,"[{""event"":""fullscreenenter"",""trial"":1,""time"":3139}]",NA,NA,NA,NA,NA,6,#D89F1C,#3386FF,10,0,1,40,0,758.9000000953674,37,1,377.90000009536743,10,1,experiment,NA,NA,1,0.7,0.3,2,3,172,4,NA
fcp-trial,221,1060388,0.0-182.0-0.0,voc_e2,11990,"[{""event"":""fullscreenenter"",""trial"":1,""time"":3139}]",NA,NA,NA,NA,NA,3,#1CD855,#FA92F8,0,10,0,40,0,775.6999998092651,39,0,348.30000019073486,10,1,experiment,NA,NA,0,0.1,0.9,1,0,173,4,NA
fcp-trial,222,1064860,0.0-183.0-0.0,voc_e2,11990,"[{""event"":""fullscreenenter"",""trial"":1,""time"":3139}]",NA,NA,NA,NA,NA,1,#741CD8,#D8271C,0,10,1,38,1,1484.3000001907349,37,1,1474.6999998092651,0,1,experiment,NA,NA,2,0.5,0.5,4,5,174,4,NA
fcp-trial,223,1069413,0.0-184.0-0.0,voc_e2,11990,"[{""event"":""fullscreenenter"",""trial"":1,""time"":3139}]",NA,NA,NA,NA,NA,1,#FA92F8,#1CD855,10,0,1,40,0,2419.2999997138977,39,0,622.4000000953674,0,0,experiment,NA,NA,0,0.9,0.1,0,1,175,4,NA
fcp-trial,224,1072525,0.0-185.0-0.0,voc_e2,11990,"[{""event"":""fullscreenenter"",""trial"":1,""time"":3139}]",NA,NA,NA,NA,NA,4,#D8271C,#741CD8,0,0,0,40,0,1129.4000000953674,37,1,449.69999980926514,0,0,experiment,NA,NA,2,0.5,0.5,5,4,176,4,NA
fcp-trial,225,1078076,0.0-186.0-0.0,voc_e2,11990,"[{""event"":""fullscreenenter"",""trial"":1,""time"":3139}]",NA,NA,NA,NA,NA,1,#D89F1C,#3386FF,0,0,1,40,0,3610.800000190735,39,0,415.19999980926514,0,0,experiment,NA,NA,1,0.7,0.3,2,3,177,4,NA
fcp-trial,226,1080755,0.0-187.0-0.0,voc_e2,11990,"[{""event"":""fullscreenenter"",""trial"":1,""time"":3139}]",NA,NA,NA,NA,NA,6,#741CD8,#D8271C,0,0,1,40,0,761.1000003814697,37,1,406.5,0,1,experiment,NA,NA,2,0.5,0.5,4,5,178,4,NA
fcp-trial,227,1083275,0.0-188.0-0.0,voc_e2,11990,"[{""event"":""fullscreenenter"",""trial"":1,""time"":3139}]",NA,NA,NA,NA,NA,2,#D8271C,#741CD8,10,10,0,40,0,559.5999999046326,39,0,440.2000002861023,10,1,experiment,NA,NA,2,0.5,0.5,5,4,179,4,NA
fcp-trial,228,1086139,0.0-189.0-0.0,voc_e2,11990,"[{""event"":""fullscreenenter"",""trial"":1,""time"":3139}]",NA,NA,NA,NA,NA,6,#FA92F8,#1CD855,10,0,1,40,0,874,37,1,474.09999990463257,10,1,experiment,NA,NA,0,0.9,0.1,0,1,180,4,NA
fcp-trial,229,1088914,0.0-190.0-0.0,voc_e2,11990,"[{""event"":""fullscreenenter"",""trial"":1,""time"":3139}]",NA,NA,NA,NA,NA,5,#D8271C,#741CD8,10,0,0,40,0,744.9000000953674,37,1,512.5,10,0,experiment,NA,NA,2,0.5,0.5,5,4,181,5,NA
fcp-trial,230,1091811,0.0-191.0-0.0,voc_e2,11990,"[{""event"":""fullscreenenter"",""trial"":1,""time"":3139}]",NA,NA,NA,NA,NA,4,#3386FF,#D89F1C,0,10,0,40,0,969.6999998092651,37,1,410.59999990463257,0,0,experiment,NA,NA,1,0.3,0.7,3,2,182,5,NA
fcp-trial,231,1094362,0.0-192.0-0.0,voc_e2,11990,"[{""event"":""fullscreenenter"",""trial"":1,""time"":3139}]",NA,NA,NA,NA,NA,5,#D89F1C,#3386FF,10,0,1,40,0,554.3000001907349,37,1,481.09999990463257,10,1,experiment,NA,NA,1,0.7,0.3,2,3,183,5,NA
fcp-trial,232,1097530,0.0-193.0-0.0,voc_e2,11990,"[{""event"":""fullscreenenter"",""trial"":1,""time"":3139}]",NA,NA,NA,NA,NA,4,#FA92F8,#1CD855,10,0,1,40,0,740.1000003814697,37,1,915.9000000953674,10,1,experiment,NA,NA,0,0.9,0.1,0,1,184,5,NA
fcp-trial,233,1100730,0.0-194.0-0.0,voc_e2,11990,"[{""event"":""fullscreenenter"",""trial"":1,""time"":3139}]",NA,NA,NA,NA,NA,0,#1CD855,#FA92F8,0,10,0,38,1,1073.0999999046326,39,0,612.7999997138977,10,1,experiment,NA,NA,0,0.1,0.9,1,0,185,5,NA
fcp-trial,234,1103879,0.0-195.0-0.0,voc_e2,11990,"[{""event"":""fullscreenenter"",""trial"":1,""time"":3139}]",NA,NA,NA,NA,NA,0,#D8271C,#741CD8,10,10,0,38,1,1184,39,0,449.8999996185303,10,1,experiment,NA,NA,2,0.5,0.5,5,4,186,5,NA
fcp-trial,235,1108170,0.0-196.0-0.0,voc_e2,11990,"[{""event"":""fullscreenenter"",""trial"":1,""time"":3139}]",NA,NA,NA,NA,NA,2,#1CD855,#FA92F8,10,10,0,40,0,1935.1999998092651,37,1,842.9000000953674,10,0,experiment,NA,NA,0,0.1,0.9,1,0,187,5,NA
fcp-trial,236,1111144,0.0-197.0-0.0,voc_e2,11990,"[{""event"":""fullscreenenter"",""trial"":1,""time"":3139}]",NA,NA,NA,NA,NA,0,#D89F1C,#3386FF,10,10,1,38,1,1165.5,37,1,298.30000019073486,10,1,experiment,NA,NA,1,0.7,0.3,2,3,188,5,NA
fcp-trial,237,1114187,0.0-198.0-0.0,voc_e2,11990,"[{""event"":""fullscreenenter"",""trial"":1,""time"":3139}]",NA,NA,NA,NA,NA,5,#FA92F8,#1CD855,10,0,1,40,0,903.9000000953674,39,0,624.0999999046326,0,0,experiment,NA,NA,0,0.9,0.1,0,1,189,5,NA
fcp-trial,238,1117874,0.0-199.0-0.0,voc_e2,11990,"[{""event"":""fullscreenenter"",""trial"":1,""time"":3139}]",NA,NA,NA,NA,NA,1,#D89F1C,#3386FF,0,10,1,40,0,1731.5,37,1,442.19999980926514,0,1,experiment,NA,NA,1,0.7,0.3,2,3,190,5,NA
fcp-trial,239,1120539,0.0-200.0-0.0,voc_e2,11990,"[{""event"":""fullscreenenter"",""trial"":1,""time"":3139}]",NA,NA,NA,NA,NA,4,#D89F1C,#3386FF,0,0,1,40,0,757.3999996185303,39,0,395.40000009536743,0,0,experiment,NA,NA,1,0.7,0.3,2,3,191,5,NA
fcp-trial,240,1123177,0.0-201.0-0.0,voc_e2,11990,"[{""event"":""fullscreenenter"",""trial"":1,""time"":3139}]",NA,NA,NA,NA,NA,5,#741CD8,#D8271C,10,10,1,40,0,647.0999999046326,39,0,473.40000009536743,10,0,experiment,NA,NA,2,0.5,0.5,4,5,192,5,NA
fcp-trial,241,1125874,0.0-202.0-0.0,voc_e2,11990,"[{""event"":""fullscreenenter"",""trial"":1,""time"":3139}]",NA,NA,NA,NA,NA,6,#FA92F8,#1CD855,10,0,1,40,0,699.2000002861023,39,0,478.40000009536743,0,0,experiment,NA,NA,0,0.9,0.1,0,1,193,5,NA
fcp-trial,242,1128674,0.0-203.0-0.0,voc_e2,11990,"[{""event"":""fullscreenenter"",""trial"":1,""time"":3139}]",NA,NA,NA,NA,NA,6,#741CD8,#D8271C,10,10,1,40,0,832.8000001907349,39,0,459.1000003814697,10,0,experiment,NA,NA,2,0.5,0.5,4,5,194,5,NA
fcp-trial,243,1131265,0.0-204.0-0.0,voc_e2,11990,"[{""event"":""fullscreenenter"",""trial"":1,""time"":3139}]",NA,NA,NA,NA,NA,2,#3386FF,#D89F1C,10,10,0,40,0,713.5,37,1,367.59999990463257,10,0,experiment,NA,NA,1,0.3,0.7,3,2,195,5,NA
fcp-trial,244,1134058,0.0-205.0-0.0,voc_e2,11990,"[{""event"":""fullscreenenter"",""trial"":1,""time"":3139}]",NA,NA,NA,NA,NA,0,#D89F1C,#3386FF,10,10,1,38,1,984.3000001907349,37,1,297.5,10,1,experiment,NA,NA,1,0.7,0.3,2,3,196,5,NA
fcp-trial,245,1137033,0.0-206.0-0.0,voc_e2,11990,"[{""event"":""fullscreenenter"",""trial"":1,""time"":3139}]",NA,NA,NA,NA,NA,2,#1CD855,#FA92F8,0,10,0,40,0,1008.5,39,0,457.30000019073486,10,1,experiment,NA,NA,0,0.1,0.9,1,0,197,5,NA
fcp-trial,246,1139642,0.0-207.0-0.0,voc_e2,11990,"[{""event"":""fullscreenenter"",""trial"":1,""time"":3139}]",NA,NA,NA,NA,NA,5,#FA92F8,#1CD855,10,0,1,40,0,764.5,37,1,330.7000002861023,10,1,experiment,NA,NA,0,0.9,0.1,0,1,198,5,NA
fcp-trial,247,1142226,0.0-208.0-0.0,voc_e2,11990,"[{""event"":""fullscreenenter"",""trial"":1,""time"":3139}]",NA,NA,NA,NA,NA,2,#741CD8,#D8271C,0,0,1,40,0,761.7000002861023,39,0,304.5,0,0,experiment,NA,NA,2,0.5,0.5,4,5,199,5,NA
fcp-trial,248,1145079,0.0-209.0-0.0,voc_e2,11990,"[{""event"":""fullscreenenter"",""trial"":1,""time"":3139}]",NA,NA,NA,NA,NA,3,#D89F1C,#3386FF,10,10,1,40,0,865.3000001907349,39,0,474.2999997138977,10,0,experiment,NA,NA,1,0.7,0.3,2,3,200,5,NA
fcp-trial,249,1147778,0.0-210.0-0.0,voc_e2,11990,"[{""event"":""fullscreenenter"",""trial"":1,""time"":3139}]",NA,NA,NA,NA,NA,4,#1CD855,#FA92F8,0,10,0,40,0,730.4000000953674,39,0,444.2000002861023,10,1,experiment,NA,NA,0,0.1,0.9,1,0,201,5,NA
fcp-trial,250,1150674,0.0-211.0-0.0,voc_e2,11990,"[{""event"":""fullscreenenter"",""trial"":1,""time"":3139}]",NA,NA,NA,NA,NA,1,#1CD855,#FA92F8,0,10,0,38,1,988.5999999046326,37,1,393.2999997138977,0,0,experiment,NA,NA,0,0.1,0.9,1,0,202,5,NA
fcp-trial,251,1153473,0.0-212.0-0.0,voc_e2,11990,"[{""event"":""fullscreenenter"",""trial"":1,""time"":3139}]",NA,NA,NA,NA,NA,4,#741CD8,#D8271C,0,10,1,40,0,825.6999998092651,39,0,457.30000019073486,10,0,experiment,NA,NA,2,0.5,0.5,4,5,203,5,NA
fcp-trial,252,1156113,0.0-213.0-0.0,voc_e2,11990,"[{""event"":""fullscreenenter"",""trial"":1,""time"":3139}]",NA,NA,NA,NA,NA,3,#FA92F8,#1CD855,10,0,1,40,0,648.8000001907349,39,0,484.19999980926514,0,0,experiment,NA,NA,0,0.9,0.1,0,1,204,5,NA
fcp-trial,253,1158865,0.0-214.0-0.0,voc_e2,11990,"[{""event"":""fullscreenenter"",""trial"":1,""time"":3139}]",NA,NA,NA,NA,NA,6,#D89F1C,#3386FF,10,0,1,40,0,685.0999999046326,39,0,554,0,0,experiment,NA,NA,1,0.7,0.3,2,3,205,5,NA
fcp-trial,254,1162609,0.0-215.0-0.0,voc_e2,11990,"[{""event"":""fullscreenenter"",""trial"":1,""time"":3139}]",NA,NA,NA,NA,NA,0,#D8271C,#741CD8,0,10,0,38,1,1723.4000000953674,39,0,506.09999990463257,10,1,experiment,NA,NA,2,0.5,0.5,5,4,206,5,NA
fcp-trial,255,1165393,0.0-216.0-0.0,voc_e2,11990,"[{""event"":""fullscreenenter"",""trial"":1,""time"":3139}]",NA,NA,NA,NA,NA,5,#3386FF,#D89F1C,0,0,0,40,0,889.0999999046326,37,1,375.5,0,0,experiment,NA,NA,1,0.3,0.7,3,2,207,5,NA
fcp-trial,256,1168873,0.0-217.0-0.0,voc_e2,11990,"[{""event"":""fullscreenenter"",""trial"":1,""time"":3139}]",NA,NA,NA,NA,NA,0,#1CD855,#FA92F8,0,10,0,38,1,1620.5,39,0,347.2000002861023,10,1,experiment,NA,NA,0,0.1,0.9,1,0,208,5,NA
fcp-trial,257,1171928,0.0-218.0-0.0,voc_e2,11990,"[{""event"":""fullscreenenter"",""trial"":1,""time"":3139}]",NA,NA,NA,NA,NA,3,#741CD8,#D8271C,10,0,1,40,0,1101.1999998092651,39,0,441.59999990463257,0,0,experiment,NA,NA,2,0.5,0.5,4,5,209,5,NA
fcp-trial,258,1175613,0.0-219.0-0.0,voc_e2,11990,"[{""event"":""fullscreenenter"",""trial"":1,""time"":3139}]",NA,NA,NA,NA,NA,1,#D8271C,#741CD8,10,10,0,40,0,1358.5,37,1,818.3999996185303,10,0,experiment,NA,NA,2,0.5,0.5,5,4,210,5,NA
audio-instructions,259,1201142,0.0-220.0,voc_e2,11990,"[{""event"":""fullscreenenter"",""trial"":1,""time"":3139}]",NA,20678.800000190735,static/audio/pause.wav,NA,0,NA,NA,NA,NA,NA,NA,NA,NA,NA,NA,NA,NA,NA,NA,NA,NA,NA,NA,NA,NA,NA,NA,NA,NA,NA
fcp-trial,260,1204295,0.0-221.0-0.0,voc_e2,11990,"[{""event"":""fullscreenenter"",""trial"":1,""time"":3139}]",NA,NA,NA,NA,NA,2,#D89F1C,#3386FF,10,0,1,40,0,1090.9000000953674,39,0,541.2999997138977,0,0,experiment,NA,NA,1,0.7,0.3,2,3,211,5,NA
fcp-trial,261,1207143,0.0-222.0-0.0,voc_e2,11990,"[{""event"":""fullscreenenter"",""trial"":1,""time"":3139}]",NA,NA,NA,NA,NA,3,#3386FF,#D89F1C,0,10,0,40,0,886.2999997138977,37,1,451.40000009536743,0,0,experiment,NA,NA,1,0.3,0.7,3,2,212,5,NA
fcp-trial,262,1209728,0.0-223.0-0.0,voc_e2,11990,"[{""event"":""fullscreenenter"",""trial"":1,""time"":3139}]",NA,NA,NA,NA,NA,4,#3386FF,#D89F1C,0,10,0,40,0,671.5999999046326,37,1,402.30000019073486,0,0,experiment,NA,NA,1,0.3,0.7,3,2,213,5,NA
fcp-trial,263,1212296,0.0-224.0-0.0,voc_e2,11990,"[{""event"":""fullscreenenter"",""trial"":1,""time"":3139}]",NA,NA,NA,NA,NA,3,#FA92F8,#1CD855,10,0,1,40,0,658.7999997138977,37,1,391.90000009536743,10,1,experiment,NA,NA,0,0.9,0.1,0,1,214,5,NA
fcp-trial,264,1215240,0.0-225.0-0.0,voc_e2,11990,"[{""event"":""fullscreenenter"",""trial"":1,""time"":3139}]",NA,NA,NA,NA,NA,1,#3386FF,#D89F1C,0,10,0,38,1,1073.2000002861023,39,0,356.90000009536743,10,1,experiment,NA,NA,1,0.3,0.7,3,2,215,5,NA
fcp-trial,265,1217928,0.0-226.0-0.0,voc_e2,11990,"[{""event"":""fullscreenenter"",""trial"":1,""time"":3139}]",NA,NA,NA,NA,NA,6,#741CD8,#D8271C,0,10,1,40,0,677,39,0,496.40000009536743,10,0,experiment,NA,NA,2,0.5,0.5,4,5,216,5,NA
fcp-trial,266,1220559,0.0-227.0-0.0,voc_e2,11990,"[{""event"":""fullscreenenter"",""trial"":1,""time"":3139}]",NA,NA,NA,NA,NA,5,#741CD8,#D8271C,10,10,1,40,0,680.0999999046326,39,0,438.1000003814697,10,0,experiment,NA,NA,2,0.5,0.5,4,5,217,5,NA
fcp-trial,267,1223114,0.0-228.0-0.0,voc_e2,11990,"[{""event"":""fullscreenenter"",""trial"":1,""time"":3139}]",NA,NA,NA,NA,NA,5,#1CD855,#FA92F8,0,10,0,40,0,674,37,1,364.5,0,0,experiment,NA,NA,0,0.1,0.9,1,0,218,5,NA
fcp-trial,268,1225729,0.0-229.0-0.0,voc_e2,11990,"[{""event"":""fullscreenenter"",""trial"":1,""time"":3139}]",NA,NA,NA,NA,NA,6,#3386FF,#D89F1C,10,10,0,40,0,629.7999997138977,37,1,471.59999990463257,10,0,experiment,NA,NA,1,0.3,0.7,3,2,219,5,NA
fcp-trial,269,1228856,0.0-230.0-0.0,voc_e2,11990,"[{""event"":""fullscreenenter"",""trial"":1,""time"":3139}]",NA,NA,NA,NA,NA,6,#FA92F8,#1CD855,10,0,1,40,0,974.0999999046326,39,0,640.8000001907349,0,0,experiment,NA,NA,0,0.9,0.1,0,1,220,5,NA
fcp-trial,270,1231608,0.0-231.0-0.0,voc_e2,11990,"[{""event"":""fullscreenenter"",""trial"":1,""time"":3139}]",NA,NA,NA,NA,NA,2,#741CD8,#D8271C,0,0,1,40,0,760,37,1,481.5,0,1,experiment,NA,NA,2,0.5,0.5,4,5,221,5,NA
fcp-trial,271,1234759,0.0-232.0-0.0,voc_e2,11990,"[{""event"":""fullscreenenter"",""trial"":1,""time"":3139}]",NA,NA,NA,NA,NA,0,#3386FF,#D89F1C,0,10,0,38,1,1256.5999999046326,39,0,375.80000019073486,10,1,experiment,NA,NA,1,0.3,0.7,3,2,222,5,NA
fcp-trial,272,1237480,0.0-233.0-0.0,voc_e2,11990,"[{""event"":""fullscreenenter"",""trial"":1,""time"":3139}]",NA,NA,NA,NA,NA,3,#D8271C,#741CD8,10,0,0,40,0,828.5,37,1,381.40000009536743,10,0,experiment,NA,NA,2,0.5,0.5,5,4,223,5,NA
fcp-trial,273,1244023,0.0-234.0-0.0,voc_e2,11990,"[{""event"":""fullscreenenter"",""trial"":1,""time"":3139}]",NA,NA,NA,NA,NA,1,#741CD8,#D8271C,10,0,1,38,1,4629.900000095367,39,0,393,0,0,experiment,NA,NA,2,0.5,0.5,4,5,224,5,NA
fcp-trial,274,1247808,0.0-235.0-0.0,voc_e2,11990,"[{""event"":""fullscreenenter"",""trial"":1,""time"":3139}]",NA,NA,NA,NA,NA,0,#1CD855,#FA92F8,0,10,0,38,1,1037.1000003814697,39,0,1235,10,1,experiment,NA,NA,0,0.1,0.9,1,0,225,5,NA
fcp-trial,275,1256407,0.0-236.0-0.0,voc_e2,11990,"[{""event"":""fullscreenenter"",""trial"":1,""time"":3139}]",NA,NA,NA,NA,NA,2,#FA92F8,#1CD855,10,0,1,40,0,6554.799999713898,39,0,531.0999999046326,0,0,experiment,NA,NA,0,0.9,0.1,0,1,226,6,NA
fcp-trial,276,1259143,0.0-237.0-0.0,voc_e2,11990,"[{""event"":""fullscreenenter"",""trial"":1,""time"":3139}]",NA,NA,NA,NA,NA,5,#D89F1C,#3386FF,10,0,1,40,0,797.3000001907349,37,1,427.59999990463257,10,1,experiment,NA,NA,1,0.7,0.3,2,3,227,6,NA
fcp-trial,277,1262430,0.0-238.0-0.0,voc_e2,11990,"[{""event"":""fullscreenenter"",""trial"":1,""time"":3139}]",NA,NA,NA,NA,NA,0,#D8271C,#741CD8,0,0,0,38,1,917.1000003814697,39,0,861.7999997138977,0,1,experiment,NA,NA,2,0.5,0.5,5,4,228,6,NA
fcp-trial,278,1266527,0.0-239.0-0.0,voc_e2,11990,"[{""event"":""fullscreenenter"",""trial"":1,""time"":3139}]",NA,NA,NA,NA,NA,4,#741CD8,#D8271C,10,0,1,40,0,744.3000001907349,37,1,1832.5,10,1,experiment,NA,NA,2,0.5,0.5,4,5,229,6,NA
fcp-trial,279,1269454,0.0-240.0-0.0,voc_e2,11990,"[{""event"":""fullscreenenter"",""trial"":1,""time"":3139}]",NA,NA,NA,NA,NA,4,#1CD855,#FA92F8,0,10,0,40,0,899.7999997138977,39,0,515.9000000953674,10,1,experiment,NA,NA,0,0.1,0.9,1,0,230,6,NA
fcp-trial,280,1272902,0.0-241.0-0.0,voc_e2,11990,"[{""event"":""fullscreenenter"",""trial"":1,""time"":3139}]",NA,NA,NA,NA,NA,1,#FA92F8,#1CD855,10,0,1,38,1,917.5999999046326,37,1,1021.5,10,1,experiment,NA,NA,0,0.9,0.1,0,1,231,6,NA
fcp-trial,281,1276575,0.0-242.0-0.0,voc_e2,11990,"[{""event"":""fullscreenenter"",""trial"":1,""time"":3139}]",NA,NA,NA,NA,NA,0,#1CD855,#FA92F8,0,10,0,38,1,1683.0999999046326,39,0,474.2000002861023,10,1,experiment,NA,NA,0,0.1,0.9,1,0,232,6,NA
fcp-trial,282,1279438,0.0-243.0-0.0,voc_e2,11990,"[{""event"":""fullscreenenter"",""trial"":1,""time"":3139}]",NA,NA,NA,NA,NA,2,#D8271C,#741CD8,0,10,0,40,0,863,39,0,491.30000019073486,10,1,experiment,NA,NA,2,0.5,0.5,5,4,233,6,NA
fcp-trial,283,1282294,0.0-244.0-0.0,voc_e2,11990,"[{""event"":""fullscreenenter"",""trial"":1,""time"":3139}]",NA,NA,NA,NA,NA,5,#D89F1C,#3386FF,10,0,1,40,0,899.9000000953674,39,0,439,0,0,experiment,NA,NA,1,0.7,0.3,2,3,234,6,NA
fcp-trial,284,1285238,0.0-245.0-0.0,voc_e2,11990,"[{""event"":""fullscreenenter"",""trial"":1,""time"":3139}]",NA,NA,NA,NA,NA,3,#3386FF,#D89F1C,10,10,0,40,0,1009.7000002861023,37,1,424.59999990463257,10,0,experiment,NA,NA,1,0.3,0.7,3,2,235,6,NA
fcp-trial,285,1288196,0.0-246.0-0.0,voc_e2,11990,"[{""event"":""fullscreenenter"",""trial"":1,""time"":3139}]",NA,NA,NA,NA,NA,3,#FA92F8,#1CD855,10,0,1,40,0,676.1999998092651,37,1,768.6999998092651,10,1,experiment,NA,NA,0,0.9,0.1,0,1,236,6,NA
fcp-trial,286,1290742,0.0-247.0-0.0,voc_e2,11990,"[{""event"":""fullscreenenter"",""trial"":1,""time"":3139}]",NA,NA,NA,NA,NA,4,#3386FF,#D89F1C,10,0,0,40,0,653.0999999046326,39,0,376.5,0,1,experiment,NA,NA,1,0.3,0.7,3,2,237,6,NA
fcp-trial,287,1293361,0.0-248.0-0.0,voc_e2,11990,"[{""event"":""fullscreenenter"",""trial"":1,""time"":3139}]",NA,NA,NA,NA,NA,6,#D8271C,#741CD8,10,0,0,40,0,672.5999999046326,39,0,439,0,1,experiment,NA,NA,2,0.5,0.5,5,4,238,6,NA
fcp-trial,288,1296390,0.0-249.0-0.0,voc_e2,11990,"[{""event"":""fullscreenenter"",""trial"":1,""time"":3139}]",NA,NA,NA,NA,NA,4,#741CD8,#D8271C,10,10,1,40,0,1097.2000002861023,37,1,422.09999990463257,10,1,experiment,NA,NA,2,0.5,0.5,4,5,239,6,NA
fcp-trial,289,1299789,0.0-250.0-0.0,voc_e2,11990,"[{""event"":""fullscreenenter"",""trial"":1,""time"":3139}]",NA,NA,NA,NA,NA,1,#1CD855,#FA92F8,0,10,0,40,0,1175.0999999046326,37,1,711.9000000953674,0,0,experiment,NA,NA,0,0.1,0.9,1,0,240,6,NA
fcp-trial,290,1302421,0.0-251.0-0.0,voc_e2,11990,"[{""event"":""fullscreenenter"",""trial"":1,""time"":3139}]",NA,NA,NA,NA,NA,2,#3386FF,#D89F1C,0,10,0,40,0,661.1999998092651,37,1,457.40000009536743,0,0,experiment,NA,NA,1,0.3,0.7,3,2,241,6,NA
fcp-trial,291,1304974,0.0-252.0-0.0,voc_e2,11990,"[{""event"":""fullscreenenter"",""trial"":1,""time"":3139}]",NA,NA,NA,NA,NA,5,#741CD8,#D8271C,10,0,1,40,0,666.3000001907349,39,0,373.40000009536743,0,0,experiment,NA,NA,2,0.5,0.5,4,5,242,6,NA
fcp-trial,292,1308093,0.0-253.0-0.0,voc_e2,11990,"[{""event"":""fullscreenenter"",""trial"":1,""time"":3139}]",NA,NA,NA,NA,NA,2,#FA92F8,#1CD855,10,0,1,40,0,1126.7000002861023,39,0,480.19999980926514,0,0,experiment,NA,NA,0,0.9,0.1,0,1,243,6,NA
fcp-trial,293,1310661,0.0-254.0-0.0,voc_e2,11990,"[{""event"":""fullscreenenter"",""trial"":1,""time"":3139}]",NA,NA,NA,NA,NA,1,#3386FF,#D89F1C,0,10,0,40,0,619.6999998092651,39,0,429.90000009536743,10,1,experiment,NA,NA,1,0.3,0.7,3,2,244,6,NA
fcp-trial,294,1313757,0.0-255.0-0.0,voc_e2,11990,"[{""event"":""fullscreenenter"",""trial"":1,""time"":3139}]",NA,NA,NA,NA,NA,6,#FA92F8,#1CD855,10,0,1,40,0,1024.5999999046326,37,1,557.8000001907349,10,1,experiment,NA,NA,0,0.9,0.1,0,1,245,6,NA
fcp-trial,295,1316637,0.0-256.0-0.0,voc_e2,11990,"[{""event"":""fullscreenenter"",""trial"":1,""time"":3139}]",NA,NA,NA,NA,NA,1,#741CD8,#D8271C,10,10,1,40,0,766.8000001907349,37,1,603.9000000953674,10,1,experiment,NA,NA,2,0.5,0.5,4,5,246,6,NA
fcp-trial,296,1319180,0.0-257.0-0.0,voc_e2,11990,"[{""event"":""fullscreenenter"",""trial"":1,""time"":3139}]",NA,NA,NA,NA,NA,6,#3386FF,#D89F1C,10,10,0,40,0,628.9000000953674,39,0,397.5,10,1,experiment,NA,NA,1,0.3,0.7,3,2,247,6,NA
fcp-trial,297,1321645,0.0-258.0-0.0,voc_e2,11990,"[{""event"":""fullscreenenter"",""trial"":1,""time"":3139}]",NA,NA,NA,NA,NA,4,#1CD855,#FA92F8,0,10,0,40,0,586.5999999046326,39,0,364.7999997138977,10,1,experiment,NA,NA,0,0.1,0.9,1,0,248,6,NA
fcp-trial,298,1324261,0.0-259.0-0.0,voc_e2,11990,"[{""event"":""fullscreenenter"",""trial"":1,""time"":3139}]",NA,NA,NA,NA,NA,3,#741CD8,#D8271C,0,10,1,40,0,677.8999996185303,39,0,422.19999980926514,10,0,experiment,NA,NA,2,0.5,0.5,4,5,249,6,NA
fcp-trial,299,1327020,0.0-260.0-0.0,voc_e2,11990,"[{""event"":""fullscreenenter"",""trial"":1,""time"":3139}]",NA,NA,NA,NA,NA,0,#741CD8,#D8271C,0,10,1,38,1,786.5999999046326,37,1,458.2999997138977,0,1,experiment,NA,NA,2,0.5,0.5,4,5,250,6,NA
fcp-trial,300,1330244,0.0-261.0-0.0,voc_e2,11990,"[{""event"":""fullscreenenter"",""trial"":1,""time"":3139}]",NA,NA,NA,NA,NA,0,#3386FF,#D89F1C,10,10,0,38,1,1327.6999998092651,39,0,382.7999997138977,10,1,experiment,NA,NA,1,0.3,0.7,3,2,251,6,NA
fcp-trial,301,1332997,0.0-262.0-0.0,voc_e2,11990,"[{""event"":""fullscreenenter"",""trial"":1,""time"":3139}]",NA,NA,NA,NA,NA,5,#1CD855,#FA92F8,0,10,0,40,0,785.8000001907349,39,0,451.80000019073486,10,1,experiment,NA,NA,0,0.1,0.9,1,0,252,6,NA
fcp-trial,302,1335492,0.0-263.0-0.0,voc_e2,11990,"[{""event"":""fullscreenenter"",""trial"":1,""time"":3139}]",NA,NA,NA,NA,NA,2,#3386FF,#D89F1C,0,10,0,40,0,556.5999999046326,39,0,422.5,10,1,experiment,NA,NA,1,0.3,0.7,3,2,253,6,NA
fcp-trial,303,1339508,0.0-264.0-0.0,voc_e2,11990,"[{""event"":""fullscreenenter"",""trial"":1,""time"":3139}]",NA,NA,NA,NA,NA,6,#FA92F8,#1CD855,10,0,1,40,0,1917,39,0,583.4000000953674,0,0,experiment,NA,NA,0,0.9,0.1,0,1,254,6,NA
fcp-trial,304,1342309,0.0-265.0-0.0,voc_e2,11990,"[{""event"":""fullscreenenter"",""trial"":1,""time"":3139}]",NA,NA,NA,NA,NA,5,#D89F1C,#3386FF,10,10,1,40,0,858.7999997138977,39,0,426.19999980926514,10,0,experiment,NA,NA,1,0.7,0.3,2,3,255,6,NA
fcp-trial,305,1344908,0.0-266.0-0.0,voc_e2,11990,"[{""event"":""fullscreenenter"",""trial"":1,""time"":3139}]",NA,NA,NA,NA,NA,3,#1CD855,#FA92F8,0,10,0,40,0,709.8999996185303,39,0,375.40000009536743,10,1,experiment,NA,NA,0,0.1,0.9,1,0,256,6,NA
fcp-trial,306,1347940,0.0-267.0-0.0,voc_e2,11990,"[{""event"":""fullscreenenter"",""trial"":1,""time"":3139}]",NA,NA,NA,NA,NA,5,#FA92F8,#1CD855,10,0,1,40,0,1175.1999998092651,37,1,346.40000009536743,10,1,experiment,NA,NA,0,0.9,0.1,0,1,257,6,NA
fcp-trial,307,1350388,0.0-268.0-0.0,voc_e2,11990,"[{""event"":""fullscreenenter"",""trial"":1,""time"":3139}]",NA,NA,NA,NA,NA,3,#3386FF,#D89F1C,10,10,0,40,0,561.1999998092651,39,0,378.69999980926514,10,1,experiment,NA,NA,1,0.3,0.7,3,2,258,6,NA
fcp-trial,308,1353027,0.0-269.0-0.0,voc_e2,11990,"[{""event"":""fullscreenenter"",""trial"":1,""time"":3139}]",NA,NA,NA,NA,NA,4,#FA92F8,#1CD855,10,0,1,40,0,677.1999998092651,39,0,449.80000019073486,0,0,experiment,NA,NA,0,0.9,0.1,0,1,259,6,NA
fcp-trial,309,1357557,0.0-270.0-0.0,voc_e2,11990,"[{""event"":""fullscreenenter"",""trial"":1,""time"":3139}]",NA,NA,NA,NA,NA,0,#741CD8,#D8271C,10,10,1,38,1,935.5999999046326,37,1,2083.5999999046326,10,1,experiment,NA,NA,2,0.5,0.5,4,5,260,6,NA
fcp-trial,310,1360277,0.0-271.0-0.0,voc_e2,11990,"[{""event"":""fullscreenenter"",""trial"":1,""time"":3139}]",NA,NA,NA,NA,NA,3,#741CD8,#D8271C,0,10,1,40,0,833.2000002861023,37,1,374,0,1,experiment,NA,NA,2,0.5,0.5,4,5,261,6,NA
fcp-trial,311,1365588,0.0-272.0-0.0,voc_e2,11990,"[{""event"":""fullscreenenter"",""trial"":1,""time"":3139}]",NA,NA,NA,NA,NA,0,#1CD855,#FA92F8,0,10,0,38,1,997.0999999046326,39,0,2795.8999996185303,10,1,experiment,NA,NA,0,0.1,0.9,1,0,262,6,NA
fcp-trial,312,1368508,0.0-273.0-0.0,voc_e2,11990,"[{""event"":""fullscreenenter"",""trial"":1,""time"":3139}]",NA,NA,NA,NA,NA,6,#3386FF,#D89F1C,10,0,0,40,0,1002,39,0,405.59999990463257,0,1,experiment,NA,NA,1,0.3,0.7,3,2,263,6,NA
fcp-trial,313,1371228,0.0-274.0-0.0,voc_e2,11990,"[{""event"":""fullscreenenter"",""trial"":1,""time"":3139}]",NA,NA,NA,NA,NA,2,#741CD8,#D8271C,0,0,1,40,0,726.1999998092651,37,1,480.90000009536743,0,1,experiment,NA,NA,2,0.5,0.5,4,5,264,6,NA
fcp-trial,314,1373913,0.0-275.0-0.0,voc_e2,11990,"[{""event"":""fullscreenenter"",""trial"":1,""time"":3139}]",NA,NA,NA,NA,NA,4,#D89F1C,#3386FF,0,0,1,40,0,677,37,1,493.19999980926514,0,1,experiment,NA,NA,1,0.7,0.3,2,3,265,6,NA
fcp-trial,315,1378372,0.0-276.0-0.0,voc_e2,11990,"[{""event"":""fullscreenenter"",""trial"":1,""time"":3139}]",NA,NA,NA,NA,NA,1,#1CD855,#FA92F8,0,10,0,40,0,2572.199999809265,39,0,373.59999990463257,10,1,experiment,NA,NA,0,0.1,0.9,1,0,266,6,NA
fcp-trial,316,1380994,0.0-277.0-0.0,voc_e2,11990,"[{""event"":""fullscreenenter"",""trial"":1,""time"":3139}]",NA,NA,NA,NA,NA,4,#741CD8,#D8271C,0,0,1,40,0,687.5999999046326,37,1,421.7000002861023,0,1,experiment,NA,NA,2,0.5,0.5,4,5,267,6,NA
fcp-trial,317,1384060,0.0-278.0-0.0,voc_e2,11990,"[{""event"":""fullscreenenter"",""trial"":1,""time"":3139}]",NA,NA,NA,NA,NA,1,#D89F1C,#3386FF,10,0,1,38,1,1061.1999998092651,37,1,488.19999980926514,10,1,experiment,NA,NA,1,0.7,0.3,2,3,268,6,NA
fcp-trial,318,1386907,0.0-279.0-0.0,voc_e2,11990,"[{""event"":""fullscreenenter"",""trial"":1,""time"":3139}]",NA,NA,NA,NA,NA,0,#3386FF,#D89F1C,0,0,0,38,1,908.7999997138977,39,0,427.5,0,1,experiment,NA,NA,1,0.3,0.7,3,2,269,6,NA
fcp-trial,319,1390462,0.0-280.0-0.0,voc_e2,11990,"[{""event"":""fullscreenenter"",""trial"":1,""time"":3139}]",NA,NA,NA,NA,NA,2,#FA92F8,#1CD855,10,0,1,40,0,1413.6999998092651,39,0,633.4000000953674,0,0,experiment,NA,NA,0,0.9,0.1,0,1,270,6,NA
fcp-trial,320,1393291,0.0-281.0-0.0,voc_e2,11990,"[{""event"":""fullscreenenter"",""trial"":1,""time"":3139}]",NA,NA,NA,NA,NA,6,#D8271C,#741CD8,10,10,0,40,0,822,39,0,487.90000009536743,10,1,experiment,NA,NA,2,0.5,0.5,5,4,271,7,NA
fcp-trial,321,1395906,0.0-282.0-0.0,voc_e2,11990,"[{""event"":""fullscreenenter"",""trial"":1,""time"":3139}]",NA,NA,NA,NA,NA,5,#741CD8,#D8271C,0,0,1,40,0,710.4000000953674,37,1,391.5,0,1,experiment,NA,NA,2,0.5,0.5,4,5,272,7,NA
fcp-trial,322,1399724,0.0-283.0-0.0,voc_e2,11990,"[{""event"":""fullscreenenter"",""trial"":1,""time"":3139}]",NA,NA,NA,NA,NA,1,#D8271C,#741CD8,10,10,0,40,0,1909.9000000953674,39,0,391.2999997138977,10,1,experiment,NA,NA,2,0.5,0.5,5,4,273,7,NA
fcp-trial,323,1402729,0.0-284.0-0.0,voc_e2,11990,"[{""event"":""fullscreenenter"",""trial"":1,""time"":3139}]",NA,NA,NA,NA,NA,1,#D8271C,#741CD8,0,0,0,40,0,1025.3000001907349,39,0,467.2999997138977,0,1,experiment,NA,NA,2,0.5,0.5,5,4,274,7,NA
fcp-trial,324,1407463,0.0-285.0-0.0,voc_e2,11990,"[{""event"":""fullscreenenter"",""trial"":1,""time"":3139}]",NA,NA,NA,NA,NA,0,#D89F1C,#3386FF,10,0,1,38,1,2822.5,37,1,399.59999990463257,10,1,experiment,NA,NA,1,0.7,0.3,2,3,275,7,NA
fcp-trial,325,1410761,0.0-286.0-0.0,voc_e2,11990,"[{""event"":""fullscreenenter"",""trial"":1,""time"":3139}]",NA,NA,NA,NA,NA,0,#741CD8,#D8271C,10,10,1,38,1,1332.8999996185303,39,0,449.69999980926514,10,0,experiment,NA,NA,2,0.5,0.5,4,5,276,7,NA
fcp-trial,326,1413378,0.0-287.0-0.0,voc_e2,11990,"[{""event"":""fullscreenenter"",""trial"":1,""time"":3139}]",NA,NA,NA,NA,NA,6,#1CD855,#FA92F8,10,10,0,40,0,726.2000002861023,37,1,375.09999990463257,10,0,experiment,NA,NA,0,0.1,0.9,1,0,277,7,NA
fcp-trial,327,1415994,0.0-288.0-0.0,voc_e2,11990,"[{""event"":""fullscreenenter"",""trial"":1,""time"":3139}]",NA,NA,NA,NA,NA,3,#1CD855,#FA92F8,0,10,0,40,0,612.6999998092651,37,1,488.7999997138977,0,0,experiment,NA,NA,0,0.1,0.9,1,0,278,7,NA
fcp-trial,328,1418579,0.0-289.0-0.0,voc_e2,11990,"[{""event"":""fullscreenenter"",""trial"":1,""time"":3139}]",NA,NA,NA,NA,NA,5,#FA92F8,#1CD855,0,0,1,40,0,638.3999996185303,37,1,428.7999997138977,0,1,experiment,NA,NA,0,0.9,0.1,0,1,279,7,NA
fcp-trial,329,1421394,0.0-290.0-0.0,voc_e2,11990,"[{""event"":""fullscreenenter"",""trial"":1,""time"":3139}]",NA,NA,NA,NA,NA,6,#D89F1C,#3386FF,0,10,1,40,0,852.6999998092651,37,1,449.19999980926514,0,1,experiment,NA,NA,1,0.7,0.3,2,3,280,7,NA
fcp-trial,330,1424346,0.0-291.0-0.0,voc_e2,11990,"[{""event"":""fullscreenenter"",""trial"":1,""time"":3139}]",NA,NA,NA,NA,NA,4,#741CD8,#D8271C,0,10,1,40,0,1014.5,37,1,425.80000019073486,0,1,experiment,NA,NA,2,0.5,0.5,4,5,281,7,NA
fcp-trial,331,1426906,0.0-292.0-0.0,voc_e2,11990,"[{""event"":""fullscreenenter"",""trial"":1,""time"":3139}]",NA,NA,NA,NA,NA,4,#3386FF,#D89F1C,0,10,0,40,0,661.5999999046326,39,0,390.5,10,1,experiment,NA,NA,1,0.3,0.7,3,2,282,7,NA
fcp-trial,332,1429712,0.0-293.0-0.0,voc_e2,11990,"[{""event"":""fullscreenenter"",""trial"":1,""time"":3139}]",NA,NA,NA,NA,NA,0,#1CD855,#FA92F8,0,10,0,38,1,900.0999999046326,39,0,391.59999990463257,10,1,experiment,NA,NA,0,0.1,0.9,1,0,283,7,NA
fcp-trial,333,1432280,0.0-294.0-0.0,voc_e2,11990,"[{""event"":""fullscreenenter"",""trial"":1,""time"":3139}]",NA,NA,NA,NA,NA,2,#3386FF,#D89F1C,0,0,0,40,0,666.5,39,0,381.3999996185303,0,1,experiment,NA,NA,1,0.3,0.7,3,2,284,7,NA
fcp-trial,334,1434778,0.0-295.0-0.0,voc_e2,11990,"[{""event"":""fullscreenenter"",""trial"":1,""time"":3139}]",NA,NA,NA,NA,NA,3,#D8271C,#741CD8,10,10,0,40,0,589.2000002861023,37,1,392.2999997138977,10,0,experiment,NA,NA,2,0.5,0.5,5,4,285,7,NA
fcp-trial,335,1437544,0.0-296.0-0.0,voc_e2,11990,"[{""event"":""fullscreenenter"",""trial"":1,""time"":3139}]",NA,NA,NA,NA,NA,4,#1CD855,#FA92F8,0,10,0,40,0,686.8000001907349,37,1,565.0999999046326,0,0,experiment,NA,NA,0,0.1,0.9,1,0,286,7,NA
fcp-trial,336,1440695,0.0-297.0-0.0,voc_e2,11990,"[{""event"":""fullscreenenter"",""trial"":1,""time"":3139}]",NA,NA,NA,NA,NA,5,#3386FF,#D89F1C,0,0,0,40,0,1020.5999999046326,37,1,616.5,0,0,experiment,NA,NA,1,0.3,0.7,3,2,287,7,NA
fcp-trial,337,1443290,0.0-298.0-0.0,voc_e2,11990,"[{""event"":""fullscreenenter"",""trial"":1,""time"":3139}]",NA,NA,NA,NA,NA,2,#D8271C,#741CD8,0,10,0,40,0,653.8999996185303,37,1,425,0,0,experiment,NA,NA,2,0.5,0.5,5,4,288,7,NA
fcp-trial,338,1445842,0.0-299.0-0.0,voc_e2,11990,"[{""event"":""fullscreenenter"",""trial"":1,""time"":3139}]",NA,NA,NA,NA,NA,1,#1CD855,#FA92F8,0,10,0,40,0,591.2999997138977,37,1,448.7999997138977,0,0,experiment,NA,NA,0,0.1,0.9,1,0,289,7,NA
fcp-trial,339,1448377,0.0-300.0-0.0,voc_e2,11990,"[{""event"":""fullscreenenter"",""trial"":1,""time"":3139}]",NA,NA,NA,NA,NA,5,#D8271C,#741CD8,0,0,0,40,0,606.5999999046326,37,1,420.90000009536743,0,0,experiment,NA,NA,2,0.5,0.5,5,4,290,7,NA
fcp-trial,340,1452194,0.0-301.0-0.0,voc_e2,11990,"[{""event"":""fullscreenenter"",""trial"":1,""time"":3139}]",NA,NA,NA,NA,NA,3,#D89F1C,#3386FF,0,0,1,40,0,1770.1999998092651,39,0,530.2000002861023,0,0,experiment,NA,NA,1,0.7,0.3,2,3,291,7,NA
fcp-trial,341,1454721,0.0-302.0-0.0,voc_e2,11990,"[{""event"":""fullscreenenter"",""trial"":1,""time"":3139}]",NA,NA,NA,NA,NA,6,#741CD8,#D8271C,10,0,1,40,0,593.3000001907349,39,0,423.30000019073486,0,0,experiment,NA,NA,2,0.5,0.5,4,5,292,7,NA
fcp-trial,342,1457497,0.0-303.0-0.0,voc_e2,11990,"[{""event"":""fullscreenenter"",""trial"":1,""time"":3139}]",NA,NA,NA,NA,NA,1,#D89F1C,#3386FF,10,0,1,40,0,771.0999999046326,39,0,490.59999990463257,0,0,experiment,NA,NA,1,0.7,0.3,2,3,293,7,NA
fcp-trial,343,1459953,0.0-304.0-0.0,voc_e2,11990,"[{""event"":""fullscreenenter"",""trial"":1,""time"":3139}]",NA,NA,NA,NA,NA,2,#1CD855,#FA92F8,0,10,0,40,0,518.8999996185303,37,1,428.80000019073486,0,0,experiment,NA,NA,0,0.1,0.9,1,0,294,7,NA
fcp-trial,344,1462378,0.0-305.0-0.0,voc_e2,11990,"[{""event"":""fullscreenenter"",""trial"":1,""time"":3139}]",NA,NA,NA,NA,NA,5,#D8271C,#741CD8,10,10,0,40,0,522.5999999046326,39,0,389.19999980926514,10,1,experiment,NA,NA,2,0.5,0.5,5,4,295,7,NA
fcp-trial,345,1464873,0.0-306.0-0.0,voc_e2,11990,"[{""event"":""fullscreenenter"",""trial"":1,""time"":3139}]",NA,NA,NA,NA,NA,4,#1CD855,#FA92F8,0,10,0,40,0,611.2999997138977,37,1,371.59999990463257,0,0,experiment,NA,NA,0,0.1,0.9,1,0,296,7,NA
fcp-trial,346,1467425,0.0-307.0-0.0,voc_e2,11990,"[{""event"":""fullscreenenter"",""trial"":1,""time"":3139}]",NA,NA,NA,NA,NA,2,#D89F1C,#3386FF,10,10,1,40,0,583.9000000953674,37,1,455.80000019073486,10,1,experiment,NA,NA,1,0.7,0.3,2,3,297,7,NA
fcp-trial,347,1470377,0.0-308.0-0.0,voc_e2,11990,"[{""event"":""fullscreenenter"",""trial"":1,""time"":3139}]",NA,NA,NA,NA,NA,0,#3386FF,#D89F1C,0,10,0,38,1,1092.3999996185303,39,0,342.69999980926514,10,1,experiment,NA,NA,1,0.3,0.7,3,2,298,7,NA
fcp-trial,348,1473137,0.0-309.0-0.0,voc_e2,11990,"[{""event"":""fullscreenenter"",""trial"":1,""time"":3139}]",NA,NA,NA,NA,NA,4,#3386FF,#D89F1C,10,10,0,40,0,734.3999996185303,39,0,515.6000003814697,10,1,experiment,NA,NA,1,0.3,0.7,3,2,299,7,NA
fcp-trial,349,1475612,0.0-310.0-0.0,voc_e2,11990,"[{""event"":""fullscreenenter"",""trial"":1,""time"":3139}]",NA,NA,NA,NA,NA,6,#D8271C,#741CD8,10,10,0,40,0,579.3000001907349,37,1,380.40000009536743,10,0,experiment,NA,NA,2,0.5,0.5,5,4,300,7,NA
fcp-trial,350,1478530,0.0-311.0-0.0,voc_e2,11990,"[{""event"":""fullscreenenter"",""trial"":1,""time"":3139}]",NA,NA,NA,NA,NA,5,#FA92F8,#1CD855,10,0,1,40,0,1009.1999998092651,39,0,393.7999997138977,0,0,experiment,NA,NA,0,0.9,0.1,0,1,301,7,NA
fcp-trial,351,1481163,0.0-312.0-0.0,voc_e2,11990,"[{""event"":""fullscreenenter"",""trial"":1,""time"":3139}]",NA,NA,NA,NA,NA,2,#741CD8,#D8271C,0,10,1,40,0,653.3000001907349,39,0,471.1000003814697,10,0,experiment,NA,NA,2,0.5,0.5,4,5,302,7,NA
fcp-trial,352,1483729,0.0-313.0-0.0,voc_e2,11990,"[{""event"":""fullscreenenter"",""trial"":1,""time"":3139}]",NA,NA,NA,NA,NA,5,#3386FF,#D89F1C,0,10,0,40,0,507.5,37,1,541.9000000953674,0,0,experiment,NA,NA,1,0.3,0.7,3,2,303,7,NA
fcp-trial,353,1486344,0.0-314.0-0.0,voc_e2,11990,"[{""event"":""fullscreenenter"",""trial"":1,""time"":3139}]",NA,NA,NA,NA,NA,3,#D89F1C,#3386FF,10,0,1,40,0,725.5,37,1,372.90000009536743,10,1,experiment,NA,NA,1,0.7,0.3,2,3,304,7,NA
fcp-trial,354,1490273,0.0-315.0-0.0,voc_e2,11990,"[{""event"":""fullscreenenter"",""trial"":1,""time"":3139}]",NA,NA,NA,NA,NA,1,#1CD855,#FA92F8,0,10,0,40,0,1787.1999998092651,37,1,627.4000000953674,0,0,experiment,NA,NA,0,0.1,0.9,1,0,305,7,NA
fcp-trial,355,1494129,0.0-316.0-0.0,voc_e2,11990,"[{""event"":""fullscreenenter"",""trial"":1,""time"":3139}]",NA,NA,NA,NA,NA,0,#741CD8,#D8271C,10,0,1,38,1,1840.6999998092651,37,1,498.59999990463257,10,1,experiment,NA,NA,2,0.5,0.5,4,5,306,7,NA
fcp-trial,356,1497409,0.0-317.0-0.0,voc_e2,11990,"[{""event"":""fullscreenenter"",""trial"":1,""time"":3139}]",NA,NA,NA,NA,NA,0,#1CD855,#FA92F8,0,0,0,38,1,1369.0999999046326,39,0,392.30000019073486,0,1,experiment,NA,NA,0,0.1,0.9,1,0,307,7,NA
fcp-trial,357,1499944,0.0-318.0-0.0,voc_e2,11990,"[{""event"":""fullscreenenter"",""trial"":1,""time"":3139}]",NA,NA,NA,NA,NA,6,#D89F1C,#3386FF,10,0,1,40,0,605.6000003814697,39,0,417.19999980926514,0,0,experiment,NA,NA,1,0.7,0.3,2,3,308,7,NA
fcp-trial,358,1502462,0.0-319.0-0.0,voc_e2,11990,"[{""event"":""fullscreenenter"",""trial"":1,""time"":3139}]",NA,NA,NA,NA,NA,6,#FA92F8,#1CD855,10,10,1,40,0,602.1999998092651,39,0,399.40000009536743,10,0,experiment,NA,NA,0,0.9,0.1,0,1,309,7,NA
fcp-trial,359,1505392,0.0-320.0-0.0,voc_e2,11990,"[{""event"":""fullscreenenter"",""trial"":1,""time"":3139}]",NA,NA,NA,NA,NA,4,#D8271C,#741CD8,10,0,0,40,0,902.5,37,1,510.2000002861023,10,0,experiment,NA,NA,2,0.5,0.5,5,4,310,7,NA
fcp-trial,360,1508352,0.0-321.0-0.0,voc_e2,11990,"[{""event"":""fullscreenenter"",""trial"":1,""time"":3139}]",NA,NA,NA,NA,NA,1,#D89F1C,#3386FF,10,0,1,40,0,915.8000001907349,37,1,538.7999997138977,10,1,experiment,NA,NA,1,0.7,0.3,2,3,311,7,NA
fcp-trial,361,1511015,0.0-322.0-0.0,voc_e2,11990,"[{""event"":""fullscreenenter"",""trial"":1,""time"":3139}]",NA,NA,NA,NA,NA,3,#1CD855,#FA92F8,0,10,0,40,0,736.6000003814697,39,0,419.6000003814697,10,1,experiment,NA,NA,0,0.1,0.9,1,0,312,7,NA
fcp-trial,362,1513609,0.0-323.0-0.0,voc_e2,11990,"[{""event"":""fullscreenenter"",""trial"":1,""time"":3139}]",NA,NA,NA,NA,NA,1,#D8271C,#741CD8,0,10,0,40,0,667.0999999046326,37,1,407.69999980926514,0,0,experiment,NA,NA,2,0.5,0.5,5,4,313,7,NA
fcp-trial,363,1516163,0.0-324.0-0.0,voc_e2,11990,"[{""event"":""fullscreenenter"",""trial"":1,""time"":3139}]",NA,NA,NA,NA,NA,2,#1CD855,#FA92F8,0,10,0,40,0,583.7000002861023,39,0,455.40000009536743,10,1,experiment,NA,NA,0,0.1,0.9,1,0,314,7,NA
fcp-trial,364,1518544,0.0-325.0-0.0,voc_e2,11990,"[{""event"":""fullscreenenter"",""trial"":1,""time"":3139}]",NA,NA,NA,NA,NA,3,#D8271C,#741CD8,10,10,0,40,0,483,37,1,383.5,10,0,experiment,NA,NA,2,0.5,0.5,5,4,315,7,NA
audio-instructions,365,1525638,0.0-326.0,voc_e2,11990,"[{""event"":""fullscreenenter"",""trial"":1,""time"":3139}]",NA,1018,static/audio/finished.wav,NA,0,NA,NA,NA,NA,NA,NA,NA,NA,NA,NA,NA,NA,NA,NA,NA,NA,NA,NA,NA,NA,NA,NA,NA,NA,NA
audio-instructions,366,1538418,0.0-327.0-0.0,voc_e2,11990,"[{""event"":""fullscreenenter"",""trial"":1,""time"":3139}]",NA,1943.0999999046328,static/audio/explicit1.wav,NA,0,NA,NA,NA,NA,NA,NA,NA,NA,NA,NA,NA,NA,NA,NA,NA,NA,NA,NA,NA,NA,NA,NA,NA,NA,NA
audio-instructions,367,1546451,0.0-327.0-1.0,voc_e2,11990,"[{""event"":""fullscreenenter"",""trial"":1,""time"":3139}]",NA,440.59999990463257,static/audio/explicit2.wav,NA,0,NA,NA,NA,NA,NA,NA,NA,NA,NA,NA,NA,NA,NA,NA,NA,NA,NA,NA,NA,NA,NA,NA,NA,NA,NA
image-slider-response,368,1567569,0.0-328.0,voc_e2,11990,"[{""event"":""fullscreenenter"",""trial"":1,""time"":3139}]",NA,21116.599999904633,static/img/machines/machine6.png,NA,NA,NA,NA,NA,NA,NA,NA,NA,NA,NA,NA,NA,NA,NA,NA,explicit,NA,NA,NA,NA,NA,NA,NA,NA,NA,4
image-slider-response,369,1577101,0.0-329.0,voc_e2,11990,"[{""event"":""fullscreenenter"",""trial"":1,""time"":3139}]",NA,9530.900000095367,static/img/machines/machine4.png,NA,NA,NA,NA,NA,NA,NA,NA,NA,NA,NA,NA,NA,NA,NA,NA,explicit,NA,NA,NA,NA,NA,NA,NA,NA,NA,8
image-slider-response,370,1583135,0.0-330.0,voc_e2,11990,"[{""event"":""fullscreenenter"",""trial"":1,""time"":3139}]",NA,6032.800000190735,static/img/machines/machine3.png,NA,NA,NA,NA,NA,NA,NA,NA,NA,NA,NA,NA,NA,NA,NA,NA,explicit,NA,NA,NA,NA,NA,NA,NA,NA,NA,3
image-slider-response,371,1585667,0.0-331.0,voc_e2,11990,"[{""event"":""fullscreenenter"",""trial"":1,""time"":3139}]",NA,2531.599999904633,static/img/machines/machine1.png,NA,NA,NA,NA,NA,NA,NA,NA,NA,NA,NA,NA,NA,NA,NA,NA,explicit,NA,NA,NA,NA,NA,NA,NA,NA,NA,5
image-slider-response,372,1588205,0.0-332.0,voc_e2,11990,"[{""event"":""fullscreenenter"",""trial"":1,""time"":3139}]",NA,2536.5,static/img/machines/machine2.png,NA,NA,NA,NA,NA,NA,NA,NA,NA,NA,NA,NA,NA,NA,NA,NA,explicit,NA,NA,NA,NA,NA,NA,NA,NA,NA,8
image-slider-response,373,1590401,0.0-333.0,voc_e2,11990,"[{""event"":""fullscreenenter"",""trial"":1,""time"":3139}]",NA,2194.300000190735,static/img/machines/machine5.png,NA,NA,NA,NA,NA,NA,NA,NA,NA,NA,NA,NA,NA,NA,NA,NA,explicit,NA,NA,NA,NA,NA,NA,NA,NA,NA,8
