trial_type,trial_index,time_elapsed,internal_node_id,task_version,subject_id,interactions,success,rt,stimulus,key_press,button_pressed,offer,arcade_color_L,arcade_color_R,arcade_outcome_L,arcade_outcome_R,correct,stage_1_key,stage_1_choice,stage_1_rt,stage_2_key,stage_2_choice,stage_2_rt,stage_3_outcome,accuracy,phase,responses,num_errors,context,reward_prob_L,reward_prob_R,arcade_id_L,arcade_id_R,trial,block,response
pavlovia,0,4,0.0-0.0,voc_e2,11777,[],NA,NA,NA,NA,NA,NA,NA,NA,NA,NA,NA,NA,NA,NA,NA,NA,NA,NA,NA,NA,NA,NA,NA,NA,NA,NA,NA,NA,NA,NA
fullscreen,1,17805,0.0-1.0,voc_e2,11777,"[{""event"":""fullscreenenter"",""trial"":1,""time"":16828}]",TRUE,NA,NA,NA,NA,NA,NA,NA,NA,NA,NA,NA,NA,NA,NA,NA,NA,NA,NA,NA,NA,NA,NA,NA,NA,NA,NA,NA,NA,NA
audio-keyboard-response,2,22180,0.0-2.0,voc_e2,11777,"[{""event"":""fullscreenenter"",""trial"":1,""time"":16828}]",NA,4371,static/audio/beep_loop.wav,32,NA,NA,NA,NA,NA,NA,NA,NA,NA,NA,NA,NA,NA,NA,NA,NA,NA,NA,NA,NA,NA,NA,NA,NA,NA,NA
audio-test,3,28613,0.0-3.0,voc_e2,11777,"[{""event"":""fullscreenenter"",""trial"":1,""time"":16828}]",NA,NA,static/audio/turtle.wav,NA,3,NA,NA,NA,NA,NA,NA,NA,NA,NA,NA,NA,NA,NA,NA,NA,NA,NA,NA,NA,NA,NA,NA,NA,NA,NA
audio-test,4,30802,0.0-4.0,voc_e2,11777,"[{""event"":""fullscreenenter"",""trial"":1,""time"":16828}]",NA,NA,static/audio/shark.wav,NA,2,NA,NA,NA,NA,NA,NA,NA,NA,NA,NA,NA,NA,NA,NA,NA,NA,NA,NA,NA,NA,NA,NA,NA,NA,NA
audio-instructions,5,37757,0.0-5.0-0.0,voc_e2,11777,"[{""event"":""fullscreenenter"",""trial"":1,""time"":16828}]",NA,1163.399999976158,static/audio/instructions1.wav,NA,0,NA,NA,NA,NA,NA,NA,NA,NA,NA,NA,NA,NA,NA,NA,NA,NA,NA,NA,NA,NA,NA,NA,NA,NA,NA
audio-instructions,6,48508,0.0-5.0-1.0,voc_e2,11777,"[{""event"":""fullscreenenter"",""trial"":1,""time"":16828}]",NA,4012.8000000715256,static/audio/instructions2.wav,NA,0,NA,NA,NA,NA,NA,NA,NA,NA,NA,NA,NA,NA,NA,NA,NA,NA,NA,NA,NA,NA,NA,NA,NA,NA,NA
audio-instructions,7,54975,0.0-5.0-2.0,voc_e2,11777,"[{""event"":""fullscreenenter"",""trial"":1,""time"":16828}]",NA,659.1000000238419,static/audio/instructions3.wav,NA,0,NA,NA,NA,NA,NA,NA,NA,NA,NA,NA,NA,NA,NA,NA,NA,NA,NA,NA,NA,NA,NA,NA,NA,NA,NA
audio-instructions,8,69888,0.0-5.0-3.0,voc_e2,11777,"[{""event"":""fullscreenenter"",""trial"":1,""time"":16828}]",NA,1683,static/audio/instructions4.wav,NA,0,NA,NA,NA,NA,NA,NA,NA,NA,NA,NA,NA,NA,NA,NA,NA,NA,NA,NA,NA,NA,NA,NA,NA,NA,NA
audio-instructions,9,81650,0.0-5.0-4.0,voc_e2,11777,"[{""event"":""fullscreenenter"",""trial"":1,""time"":16828}]",NA,2375.600000023842,static/audio/instructions5.wav,NA,0,NA,NA,NA,NA,NA,NA,NA,NA,NA,NA,NA,NA,NA,NA,NA,NA,NA,NA,NA,NA,NA,NA,NA,NA,NA
fcp-practice,10,87094,0.0-5.0-5.0-0.0,voc_e2,11777,"[{""event"":""fullscreenenter"",""trial"":1,""time"":16828}]",NA,NA,NA,NA,NA,NA,#EDC948,#46d3c8,10,0,1,null,null,null,37,1,3926.7999999523163,10,1,practice,NA,NA,NA,NA,NA,NA,NA,NA,NA,NA
fcp-practice,11,89091,0.0-5.0-5.0-1.0,voc_e2,11777,"[{""event"":""fullscreenenter"",""trial"":1,""time"":16828}]",NA,NA,NA,NA,NA,NA,#EDC948,#46d3c8,10,0,1,null,null,null,37,1,477.39999997615814,10,1,practice,NA,NA,NA,NA,NA,NA,NA,NA,NA,NA
fcp-practice,12,90974,0.0-5.0-5.0-2.0,voc_e2,11777,"[{""event"":""fullscreenenter"",""trial"":1,""time"":16828}]",NA,NA,NA,NA,NA,NA,#EDC948,#46d3c8,0,10,1,null,null,null,37,1,371.1999999284744,0,1,practice,NA,NA,NA,NA,NA,NA,NA,NA,NA,NA
fcp-practice,13,93924,0.0-5.0-5.0-3.0,voc_e2,11777,"[{""event"":""fullscreenenter"",""trial"":1,""time"":16828}]",NA,NA,NA,NA,NA,NA,#EDC948,#46d3c8,10,0,1,null,null,null,37,1,1434.5,10,1,practice,NA,NA,NA,NA,NA,NA,NA,NA,NA,NA
fcp-practice,14,96194,0.0-5.0-5.0-4.0,voc_e2,11777,"[{""event"":""fullscreenenter"",""trial"":1,""time"":16828}]",NA,NA,NA,NA,NA,NA,#EDC948,#46d3c8,10,0,1,null,null,null,37,1,752.8000000715256,10,1,practice,NA,NA,NA,NA,NA,NA,NA,NA,NA,NA
audio-instructions,15,116285,0.0-5.0-6.0,voc_e2,11777,"[{""event"":""fullscreenenter"",""trial"":1,""time"":16828}]",NA,2079.600000023842,static/audio/instructions6.wav,NA,0,NA,NA,NA,NA,NA,NA,NA,NA,NA,NA,NA,NA,NA,NA,NA,NA,NA,NA,NA,NA,NA,NA,NA,NA,NA
audio-instructions,16,137133,0.0-5.0-7.0,voc_e2,11777,"[{""event"":""fullscreenenter"",""trial"":1,""time"":16828}]",NA,1649.0999999046326,static/audio/instructions7.wav,NA,0,NA,NA,NA,NA,NA,NA,NA,NA,NA,NA,NA,NA,NA,NA,NA,NA,NA,NA,NA,NA,NA,NA,NA,NA,NA
audio-instructions,17,149451,0.0-5.0-8.0,voc_e2,11777,"[{""event"":""fullscreenenter"",""trial"":1,""time"":16828}]",NA,2835.900000095367,static/audio/instructions8.wav,NA,0,NA,NA,NA,NA,NA,NA,NA,NA,NA,NA,NA,NA,NA,NA,NA,NA,NA,NA,NA,NA,NA,NA,NA,NA,NA
fcp-comprehension,18,160127,0.0-5.0-9.0,voc_e2,11777,"[{""event"":""fullscreenenter"",""trial"":1,""time"":16828}]",NA,10674.5,NA,NA,NA,NA,NA,NA,NA,NA,NA,NA,NA,NA,NA,NA,NA,NA,NA,NA,"true,true",0,NA,NA,NA,NA,NA,NA,NA,NA
audio-instructions,19,167351,0.0-6.0-0.0,voc_e2,11777,"[{""event"":""fullscreenenter"",""trial"":1,""time"":16828}]",NA,1676,static/audio/instructions9.wav,NA,0,NA,NA,NA,NA,NA,NA,NA,NA,NA,NA,NA,NA,NA,NA,NA,NA,NA,NA,NA,NA,NA,NA,NA,NA,NA
audio-instructions,20,180999,0.0-6.0-1.0,voc_e2,11777,"[{""event"":""fullscreenenter"",""trial"":1,""time"":16828}]",NA,1523.4000000953674,static/audio/instructions10.wav,NA,0,NA,NA,NA,NA,NA,NA,NA,NA,NA,NA,NA,NA,NA,NA,NA,NA,NA,NA,NA,NA,NA,NA,NA,NA,NA
fcp-trial,21,185770,0.0-6.0-2.0,voc_e2,11777,"[{""event"":""fullscreenenter"",""trial"":1,""time"":16828}]",NA,NA,NA,NA,NA,0,#EDC948,#46d3c8,10,10,1,38,1,1324.6000000238419,37,1,1923.3999999761581,10,1,practice,NA,NA,NA,NA,NA,NA,NA,NA,NA,NA
audio-instructions,22,197415,0.0-6.0-3.0,voc_e2,11777,"[{""event"":""fullscreenenter"",""trial"":1,""time"":16828}]",NA,639,static/audio/instructions11.wav,NA,0,NA,NA,NA,NA,NA,NA,NA,NA,NA,NA,NA,NA,NA,NA,NA,NA,NA,NA,NA,NA,NA,NA,NA,NA,NA
fcp-trial,23,201305,0.0-6.0-4.0,voc_e2,11777,"[{""event"":""fullscreenenter"",""trial"":1,""time"":16828}]",NA,NA,NA,NA,NA,6,#EDC948,#46d3c8,10,10,1,40,0,195.70000004768372,39,0,2168,10,0,practice,NA,NA,NA,NA,NA,NA,NA,NA,NA,NA
audio-instructions,24,221863,0.0-6.0-5.0,voc_e2,11777,"[{""event"":""fullscreenenter"",""trial"":1,""time"":16828}]",NA,1866.899999976158,static/audio/instructions12.wav,NA,0,NA,NA,NA,NA,NA,NA,NA,NA,NA,NA,NA,NA,NA,NA,NA,NA,NA,NA,NA,NA,NA,NA,NA,NA,NA
audio-instructions,25,230681,0.0-6.0-6.0,voc_e2,11777,"[{""event"":""fullscreenenter"",""trial"":1,""time"":16828}]",NA,1214.7000000476835,static/audio/instructions13.wav,NA,0,NA,NA,NA,NA,NA,NA,NA,NA,NA,NA,NA,NA,NA,NA,NA,NA,NA,NA,NA,NA,NA,NA,NA,NA,NA
audio-instructions,26,240114,0.0-6.0-7.0,voc_e2,11777,"[{""event"":""fullscreenenter"",""trial"":1,""time"":16828}]",NA,976.7999999523164,static/audio/instructions14.wav,NA,0,NA,NA,NA,NA,NA,NA,NA,NA,NA,NA,NA,NA,NA,NA,NA,NA,NA,NA,NA,NA,NA,NA,NA,NA,NA
audio-instructions,27,247768,0.0-7.0-0.0,voc_e2,11777,"[{""event"":""fullscreenenter"",""trial"":1,""time"":16828}]",NA,732.3000000715256,static/audio/instructions15.wav,NA,0,NA,NA,NA,NA,NA,NA,NA,NA,NA,NA,NA,NA,NA,NA,NA,NA,NA,NA,NA,NA,NA,NA,NA,NA,NA
audio-instructions,28,255048,0.0-7.0-1.0,voc_e2,11777,"[{""event"":""fullscreenenter"",""trial"":1,""time"":16828}]",NA,454,static/audio/instructions16.wav,NA,0,NA,NA,NA,NA,NA,NA,NA,NA,NA,NA,NA,NA,NA,NA,NA,NA,NA,NA,NA,NA,NA,NA,NA,NA,NA
audio-instructions,29,264178,0.0-7.0-2.0,voc_e2,11777,"[{""event"":""fullscreenenter"",""trial"":1,""time"":16828}]",NA,1451.7999999523165,static/audio/instructions17.wav,NA,0,NA,NA,NA,NA,NA,NA,NA,NA,NA,NA,NA,NA,NA,NA,NA,NA,NA,NA,NA,NA,NA,NA,NA,NA,NA
audio-instructions,30,273895,0.0-7.0-3.0,voc_e2,11777,"[{""event"":""fullscreenenter"",""trial"":1,""time"":16828}]",NA,1950,static/audio/instructions18.wav,NA,0,NA,NA,NA,NA,NA,NA,NA,NA,NA,NA,NA,NA,NA,NA,NA,NA,NA,NA,NA,NA,NA,NA,NA,NA,NA
audio-instructions,31,281396,0.0-7.0-4.0,voc_e2,11777,"[{""event"":""fullscreenenter"",""trial"":1,""time"":16828}]",NA,749.2999999523163,static/audio/instructions19.wav,NA,0,NA,NA,NA,NA,NA,NA,NA,NA,NA,NA,NA,NA,NA,NA,NA,NA,NA,NA,NA,NA,NA,NA,NA,NA,NA
fcp-comprehension,32,304268,0.0-7.0-5.0,voc_e2,11777,"[{""event"":""fullscreenenter"",""trial"":1,""time"":16828}]",NA,22867.39999997616,NA,NA,NA,NA,NA,NA,NA,NA,NA,NA,NA,NA,NA,NA,NA,NA,NA,NA,"false,true,false,true",1,NA,NA,NA,NA,NA,NA,NA,NA
audio-instructions,33,313139,0.0-7.1-0.1,voc_e2,11777,"[{""event"":""fullscreenenter"",""trial"":1,""time"":16828}]",NA,1962.3000000715256,static/audio/instructions15.wav,NA,0,NA,NA,NA,NA,NA,NA,NA,NA,NA,NA,NA,NA,NA,NA,NA,NA,NA,NA,NA,NA,NA,NA,NA,NA,NA
audio-instructions,34,321850,0.0-7.1-1.1,voc_e2,11777,"[{""event"":""fullscreenenter"",""trial"":1,""time"":16828}]",NA,1884.7000000476835,static/audio/instructions16.wav,NA,0,NA,NA,NA,NA,NA,NA,NA,NA,NA,NA,NA,NA,NA,NA,NA,NA,NA,NA,NA,NA,NA,NA,NA,NA,NA
audio-instructions,35,330109,0.0-7.1-2.1,voc_e2,11777,"[{""event"":""fullscreenenter"",""trial"":1,""time"":16828}]",NA,582.8999999761581,static/audio/instructions17.wav,NA,0,NA,NA,NA,NA,NA,NA,NA,NA,NA,NA,NA,NA,NA,NA,NA,NA,NA,NA,NA,NA,NA,NA,NA,NA,NA
audio-instructions,36,338541,0.0-7.1-3.1,voc_e2,11777,"[{""event"":""fullscreenenter"",""trial"":1,""time"":16828}]",NA,666.2000000476837,static/audio/instructions18.wav,NA,0,NA,NA,NA,NA,NA,NA,NA,NA,NA,NA,NA,NA,NA,NA,NA,NA,NA,NA,NA,NA,NA,NA,NA,NA,NA
audio-instructions,37,348208,0.0-7.1-4.1,voc_e2,11777,"[{""event"":""fullscreenenter"",""trial"":1,""time"":16828}]",NA,2921.399999976158,static/audio/instructions19.wav,NA,0,NA,NA,NA,NA,NA,NA,NA,NA,NA,NA,NA,NA,NA,NA,NA,NA,NA,NA,NA,NA,NA,NA,NA,NA,NA
fcp-comprehension,38,366842,0.0-7.1-5.1,voc_e2,11777,"[{""event"":""fullscreenenter"",""trial"":1,""time"":16828}]",NA,18631.099999904633,NA,NA,NA,NA,NA,NA,NA,NA,NA,NA,NA,NA,NA,NA,NA,NA,NA,NA,"false,true,false,true",1,NA,NA,NA,NA,NA,NA,NA,NA
audio-instructions,39,377273,0.0-7.2-0.2,voc_e2,11777,"[{""event"":""fullscreenenter"",""trial"":1,""time"":16828}]",NA,3506.8000000715256,static/audio/instructions15.wav,NA,0,NA,NA,NA,NA,NA,NA,NA,NA,NA,NA,NA,NA,NA,NA,NA,NA,NA,NA,NA,NA,NA,NA,NA,NA,NA
audio-instructions,40,385440,0.0-7.2-1.2,voc_e2,11777,"[{""event"":""fullscreenenter"",""trial"":1,""time"":16828}]",NA,1334.6999999284744,static/audio/instructions16.wav,NA,0,NA,NA,NA,NA,NA,NA,NA,NA,NA,NA,NA,NA,NA,NA,NA,NA,NA,NA,NA,NA,NA,NA,NA,NA,NA
audio-instructions,41,394253,0.0-7.2-2.2,voc_e2,11777,"[{""event"":""fullscreenenter"",""trial"":1,""time"":16828}]",NA,1137.100000023842,static/audio/instructions17.wav,NA,0,NA,NA,NA,NA,NA,NA,NA,NA,NA,NA,NA,NA,NA,NA,NA,NA,NA,NA,NA,NA,NA,NA,NA,NA,NA
audio-instructions,42,403922,0.0-7.2-3.2,voc_e2,11777,"[{""event"":""fullscreenenter"",""trial"":1,""time"":16828}]",NA,1906.2999999523165,static/audio/instructions18.wav,NA,0,NA,NA,NA,NA,NA,NA,NA,NA,NA,NA,NA,NA,NA,NA,NA,NA,NA,NA,NA,NA,NA,NA,NA,NA,NA
audio-instructions,43,412108,0.0-7.2-4.2,voc_e2,11777,"[{""event"":""fullscreenenter"",""trial"":1,""time"":16828}]",NA,1450.600000023842,static/audio/instructions19.wav,NA,0,NA,NA,NA,NA,NA,NA,NA,NA,NA,NA,NA,NA,NA,NA,NA,NA,NA,NA,NA,NA,NA,NA,NA,NA,NA
fcp-comprehension,44,426025,0.0-7.2-5.2,voc_e2,11777,"[{""event"":""fullscreenenter"",""trial"":1,""time"":16828}]",NA,13912.200000047684,NA,NA,NA,NA,NA,NA,NA,NA,NA,NA,NA,NA,NA,NA,NA,NA,NA,NA,"false,false,false,true",0,NA,NA,NA,NA,NA,NA,NA,NA
audio-instructions,45,436555,0.0-8.0,voc_e2,11777,"[{""event"":""fullscreenenter"",""trial"":1,""time"":16828}]",NA,1308.2000000476835,static/audio/ready.wav,NA,0,NA,NA,NA,NA,NA,NA,NA,NA,NA,NA,NA,NA,NA,NA,NA,NA,NA,NA,NA,NA,NA,NA,NA,NA,NA
fcp-trial,46,442957,0.0-9.0-0.0,voc_e2,11777,"[{""event"":""fullscreenenter"",""trial"":1,""time"":16828}]",NA,NA,NA,NA,NA,3,#1CD855,#FA92F8,0,10,0,40,0,3717.399999976158,39,0,1155,10,1,experiment,NA,NA,0,0.1,0.9,1,0,1,1,NA
fcp-trial,47,448807,0.0-10.0-0.0,voc_e2,11777,"[{""event"":""fullscreenenter"",""trial"":1,""time"":16828}]",NA,NA,NA,NA,NA,3,#D8271C,#741CD8,0,10,1,40,0,2689.8000000715256,39,0,1636,10,0,experiment,NA,NA,1,0.7,0.3,2,3,2,1,NA
fcp-trial,48,453309,0.0-11.0-0.0,voc_e2,11777,"[{""event"":""fullscreenenter"",""trial"":1,""time"":16828}]",NA,NA,NA,NA,NA,0,#3386FF,#D89F1C,0,10,1,38,1,2579,39,0,384.7999999523163,10,0,experiment,NA,NA,2,0.5,0.5,4,5,3,1,NA
fcp-trial,49,456760,0.0-12.0-0.0,voc_e2,11777,"[{""event"":""fullscreenenter"",""trial"":1,""time"":16828}]",NA,NA,NA,NA,NA,6,#D89F1C,#3386FF,0,10,0,40,0,1322.2000000476837,39,0,619.4000000953674,10,1,experiment,NA,NA,2,0.5,0.5,5,4,4,1,NA
fcp-trial,50,461242,0.0-13.0-0.0,voc_e2,11777,"[{""event"":""fullscreenenter"",""trial"":1,""time"":16828}]",NA,NA,NA,NA,NA,2,#741CD8,#D8271C,10,10,0,40,0,1338.1000000238419,39,0,1632.8999999761581,10,1,experiment,NA,NA,1,0.3,0.7,3,2,5,1,NA
fcp-trial,51,466305,0.0-14.0-0.0,voc_e2,11777,"[{""event"":""fullscreenenter"",""trial"":1,""time"":16828}]",NA,NA,NA,NA,NA,4,#FA92F8,#1CD855,10,0,1,40,0,3013.2999999523163,39,0,531.2000000476837,0,0,experiment,NA,NA,0,0.9,0.1,0,1,6,1,NA
fcp-trial,52,471788,0.0-15.0-0.0,voc_e2,11777,"[{""event"":""fullscreenenter"",""trial"":1,""time"":16828}]",NA,NA,NA,NA,NA,3,#3386FF,#D89F1C,0,10,1,40,0,3333.899999976158,37,1,642.3999999761581,0,1,experiment,NA,NA,2,0.5,0.5,4,5,7,1,NA
fcp-trial,53,477701,0.0-16.0-0.0,voc_e2,11777,"[{""event"":""fullscreenenter"",""trial"":1,""time"":16828}]",NA,NA,NA,NA,NA,6,#FA92F8,#1CD855,10,0,1,38,1,3581.7999999523163,39,0,821.5,0,0,experiment,NA,NA,0,0.9,0.1,0,1,8,1,NA
fcp-trial,54,480526,0.0-17.0-0.0,voc_e2,11777,"[{""event"":""fullscreenenter"",""trial"":1,""time"":16828}]",NA,NA,NA,NA,NA,2,#3386FF,#D89F1C,0,0,1,40,0,784.1999999284744,39,0,528.7000000476837,0,0,experiment,NA,NA,2,0.5,0.5,4,5,9,1,NA
fcp-trial,55,484130,0.0-18.0-0.0,voc_e2,11777,"[{""event"":""fullscreenenter"",""trial"":1,""time"":16828}]",NA,NA,NA,NA,NA,5,#D8271C,#741CD8,10,0,1,40,0,1473.8999999761581,39,0,621.2000000476837,0,0,experiment,NA,NA,1,0.7,0.3,2,3,10,1,NA
fcp-trial,56,488137,0.0-19.0-0.0,voc_e2,11777,"[{""event"":""fullscreenenter"",""trial"":1,""time"":16828}]",NA,NA,NA,NA,NA,4,#D8271C,#741CD8,10,0,1,40,0,1398.1000000238419,37,1,1100.5,10,1,experiment,NA,NA,1,0.7,0.3,2,3,11,1,NA
fcp-trial,57,491493,0.0-20.0-0.0,voc_e2,11777,"[{""event"":""fullscreenenter"",""trial"":1,""time"":16828}]",NA,NA,NA,NA,NA,2,#1CD855,#FA92F8,0,10,0,40,0,1139,39,0,705.2999999523163,10,1,experiment,NA,NA,0,0.1,0.9,1,0,12,1,NA
fcp-trial,58,494195,0.0-21.0-0.0,voc_e2,11777,"[{""event"":""fullscreenenter"",""trial"":1,""time"":16828}]",NA,NA,NA,NA,NA,5,#3386FF,#D89F1C,0,10,1,40,0,425.7999999523163,37,1,768.5,0,1,experiment,NA,NA,2,0.5,0.5,4,5,13,1,NA
fcp-trial,59,497883,0.0-22.0-0.0,voc_e2,11777,"[{""event"":""fullscreenenter"",""trial"":1,""time"":16828}]",NA,NA,NA,NA,NA,1,#3386FF,#D89F1C,10,0,1,38,1,1823,39,0,354.2000000476837,0,0,experiment,NA,NA,2,0.5,0.5,4,5,14,1,NA
fcp-trial,60,500164,0.0-23.0-0.0,voc_e2,11777,"[{""event"":""fullscreenenter"",""trial"":1,""time"":16828}]",NA,NA,NA,NA,NA,0,#741CD8,#D8271C,10,0,0,38,1,415.8000000715256,39,0,356.5,0,1,experiment,NA,NA,1,0.3,0.7,3,2,15,1,NA
fcp-trial,61,502442,0.0-24.0-0.0,voc_e2,11777,"[{""event"":""fullscreenenter"",""trial"":1,""time"":16828}]",NA,NA,NA,NA,NA,5,#1CD855,#FA92F8,0,10,0,38,1,343.59999990463257,37,1,425.59999990463257,0,0,experiment,NA,NA,0,0.1,0.9,1,0,16,1,NA
fcp-trial,62,505689,0.0-25.0-0.0,voc_e2,11777,"[{""event"":""fullscreenenter"",""trial"":1,""time"":16828}]",NA,NA,NA,NA,NA,6,#741CD8,#D8271C,10,10,0,40,0,765.7999999523163,37,1,972.7000000476837,10,0,experiment,NA,NA,1,0.3,0.7,3,2,17,1,NA
fcp-trial,63,508602,0.0-26.0-0.0,voc_e2,11777,"[{""event"":""fullscreenenter"",""trial"":1,""time"":16828}]",NA,NA,NA,NA,NA,1,#1CD855,#FA92F8,0,10,0,40,0,940.7999999523163,39,0,463.5,10,1,experiment,NA,NA,0,0.1,0.9,1,0,18,1,NA
fcp-trial,64,511194,0.0-27.0-0.0,voc_e2,11777,"[{""event"":""fullscreenenter"",""trial"":1,""time"":16828}]",NA,NA,NA,NA,NA,4,#D89F1C,#3386FF,0,10,0,40,0,547.1999999284744,39,0,530.6999999284744,10,1,experiment,NA,NA,2,0.5,0.5,5,4,19,1,NA
fcp-trial,65,513544,0.0-28.0-0.0,voc_e2,11777,"[{""event"":""fullscreenenter"",""trial"":1,""time"":16828}]",NA,NA,NA,NA,NA,1,#D8271C,#741CD8,0,0,1,40,0,437.5,39,0,403.2999999523163,0,0,experiment,NA,NA,1,0.7,0.3,2,3,20,1,NA
fcp-trial,66,516720,0.0-29.0-0.0,voc_e2,11777,"[{""event"":""fullscreenenter"",""trial"":1,""time"":16828}]",NA,NA,NA,NA,NA,0,#FA92F8,#1CD855,10,0,1,40,0,905.5999999046326,39,0,761.8000000715256,0,0,experiment,NA,NA,0,0.9,0.1,0,1,21,1,NA
fcp-trial,67,519575,0.0-30.0-0.0,voc_e2,11777,"[{""event"":""fullscreenenter"",""trial"":1,""time"":16828}]",NA,NA,NA,NA,NA,3,#D89F1C,#3386FF,10,10,0,40,0,761.8999999761581,39,0,580.6999999284744,10,1,experiment,NA,NA,2,0.5,0.5,5,4,22,1,NA
fcp-trial,68,521948,0.0-31.0-0.0,voc_e2,11777,"[{""event"":""fullscreenenter"",""trial"":1,""time"":16828}]",NA,NA,NA,NA,NA,6,#D89F1C,#3386FF,0,10,0,40,0,445.8000000715256,37,1,420.1999999284744,0,0,experiment,NA,NA,2,0.5,0.5,5,4,23,1,NA
fcp-trial,69,524480,0.0-32.0-0.0,voc_e2,11777,"[{""event"":""fullscreenenter"",""trial"":1,""time"":16828}]",NA,NA,NA,NA,NA,4,#1CD855,#FA92F8,0,10,0,40,0,450,37,1,569.5,0,0,experiment,NA,NA,0,0.1,0.9,1,0,24,1,NA
fcp-trial,70,527036,0.0-33.0-0.0,voc_e2,11777,"[{""event"":""fullscreenenter"",""trial"":1,""time"":16828}]",NA,NA,NA,NA,NA,2,#1CD855,#FA92F8,0,10,0,40,0,611.8999999761581,39,0,435.2999999523163,10,1,experiment,NA,NA,0,0.1,0.9,1,0,25,1,NA
fcp-trial,71,529356,0.0-34.0-0.0,voc_e2,11777,"[{""event"":""fullscreenenter"",""trial"":1,""time"":16828}]",NA,NA,NA,NA,NA,5,#D8271C,#741CD8,10,10,1,40,0,257.7000000476837,39,0,546.5,10,0,experiment,NA,NA,1,0.7,0.3,2,3,26,1,NA
fcp-trial,72,531644,0.0-35.0-0.0,voc_e2,11777,"[{""event"":""fullscreenenter"",""trial"":1,""time"":16828}]",NA,NA,NA,NA,NA,0,#FA92F8,#1CD855,10,0,1,40,0,423.89999997615814,37,1,354,10,1,experiment,NA,NA,0,0.9,0.1,0,1,27,1,NA
fcp-trial,73,534941,0.0-36.0-0.0,voc_e2,11777,"[{""event"":""fullscreenenter"",""trial"":1,""time"":16828}]",NA,NA,NA,NA,NA,5,#3386FF,#D89F1C,0,10,1,40,0,330.39999997615814,39,0,1460.1000000238419,10,0,experiment,NA,NA,2,0.5,0.5,4,5,28,1,NA
fcp-trial,74,537613,0.0-37.0-0.0,voc_e2,11777,"[{""event"":""fullscreenenter"",""trial"":1,""time"":16828}]",NA,NA,NA,NA,NA,5,#1CD855,#FA92F8,0,10,0,40,0,694.5999999046326,37,1,468.39999997615814,0,0,experiment,NA,NA,0,0.1,0.9,1,0,29,1,NA
fcp-trial,75,540084,0.0-38.0-0.0,voc_e2,11777,"[{""event"":""fullscreenenter"",""trial"":1,""time"":16828}]",NA,NA,NA,NA,NA,4,#3386FF,#D89F1C,0,10,1,40,0,466,39,0,490.60000002384186,10,0,experiment,NA,NA,2,0.5,0.5,4,5,30,1,NA
fcp-trial,76,542823,0.0-39.0-0.0,voc_e2,11777,"[{""event"":""fullscreenenter"",""trial"":1,""time"":16828}]",NA,NA,NA,NA,NA,6,#741CD8,#D8271C,10,10,0,40,0,735.1000000238419,39,0,490.7999999523163,10,1,experiment,NA,NA,1,0.3,0.7,3,2,31,1,NA
fcp-trial,77,545454,0.0-40.0-0.0,voc_e2,11777,"[{""event"":""fullscreenenter"",""trial"":1,""time"":16828}]",NA,NA,NA,NA,NA,3,#FA92F8,#1CD855,10,0,1,40,0,659,39,0,463.5,0,0,experiment,NA,NA,0,0.9,0.1,0,1,32,1,NA
fcp-trial,78,548781,0.0-41.0-0.0,voc_e2,11777,"[{""event"":""fullscreenenter"",""trial"":1,""time"":16828}]",NA,NA,NA,NA,NA,4,#741CD8,#D8271C,10,10,0,40,0,688.7000000476837,39,0,1129.6000000238419,10,1,experiment,NA,NA,1,0.3,0.7,3,2,33,1,NA
fcp-trial,79,551991,0.0-42.0-0.0,voc_e2,11777,"[{""event"":""fullscreenenter"",""trial"":1,""time"":16828}]",NA,NA,NA,NA,NA,3,#741CD8,#D8271C,10,10,0,40,0,1028,39,0,668.3999999761581,10,1,experiment,NA,NA,1,0.3,0.7,3,2,34,1,NA
fcp-trial,80,555341,0.0-43.0-0.0,voc_e2,11777,"[{""event"":""fullscreenenter"",""trial"":1,""time"":16828}]",NA,NA,NA,NA,NA,0,#3386FF,#D89F1C,0,10,1,40,0,491.7000000476837,37,1,1351.5,0,1,experiment,NA,NA,2,0.5,0.5,4,5,35,1,NA
fcp-trial,81,559084,0.0-44.0-0.0,voc_e2,11777,"[{""event"":""fullscreenenter"",""trial"":1,""time"":16828}]",NA,NA,NA,NA,NA,1,#FA92F8,#1CD855,0,10,1,40,0,843.5,37,1,1390.7000000476837,0,1,experiment,NA,NA,0,0.9,0.1,0,1,36,1,NA
fcp-trial,82,561122,0.0-45.0-0.0,voc_e2,11777,"[{""event"":""fullscreenenter"",""trial"":1,""time"":16828}]",NA,NA,NA,NA,NA,1,#D8271C,#741CD8,0,0,1,40,0,28.799999952316284,39,0,492.7999999523163,0,0,experiment,NA,NA,1,0.7,0.3,2,3,37,1,NA
fcp-trial,83,563843,0.0-46.0-0.0,voc_e2,11777,"[{""event"":""fullscreenenter"",""trial"":1,""time"":16828}]",NA,NA,NA,NA,NA,1,#D89F1C,#3386FF,10,0,0,40,0,794.4000000953674,39,0,418.2000000476837,0,1,experiment,NA,NA,2,0.5,0.5,5,4,38,1,NA
fcp-trial,84,566587,0.0-47.0-0.0,voc_e2,11777,"[{""event"":""fullscreenenter"",""trial"":1,""time"":16828}]",NA,NA,NA,NA,NA,0,#D8271C,#741CD8,10,0,1,40,0,803.8000000715256,39,0,431.6999999284744,0,0,experiment,NA,NA,1,0.7,0.3,2,3,39,1,NA
fcp-trial,85,569780,0.0-48.0-0.0,voc_e2,11777,"[{""event"":""fullscreenenter"",""trial"":1,""time"":16828}]",NA,NA,NA,NA,NA,6,#1CD855,#FA92F8,0,10,0,40,0,693.7000000476837,37,1,988.7999999523163,0,0,experiment,NA,NA,0,0.1,0.9,1,0,40,1,NA
fcp-trial,86,572304,0.0-49.0-0.0,voc_e2,11777,"[{""event"":""fullscreenenter"",""trial"":1,""time"":16828}]",NA,NA,NA,NA,NA,2,#3386FF,#D89F1C,0,10,1,40,0,300.60000002384186,37,1,710.6000000238419,0,1,experiment,NA,NA,2,0.5,0.5,4,5,41,1,NA
fcp-trial,87,574613,0.0-50.0-0.0,voc_e2,11777,"[{""event"":""fullscreenenter"",""trial"":1,""time"":16828}]",NA,NA,NA,NA,NA,2,#741CD8,#D8271C,0,10,0,40,0,340.8000000715256,39,0,462.7000000476837,10,1,experiment,NA,NA,1,0.3,0.7,3,2,42,1,NA
fcp-trial,88,577580,0.0-51.0-0.0,voc_e2,11777,"[{""event"":""fullscreenenter"",""trial"":1,""time"":16828}]",NA,NA,NA,NA,NA,2,#3386FF,#D89F1C,10,0,1,40,0,366.5,37,1,1087.7000000476837,10,1,experiment,NA,NA,2,0.5,0.5,4,5,43,1,NA
fcp-trial,89,580236,0.0-52.0-0.0,voc_e2,11777,"[{""event"":""fullscreenenter"",""trial"":1,""time"":16828}]",NA,NA,NA,NA,NA,2,#FA92F8,#1CD855,10,0,1,40,0,494.7999999523163,39,0,647.1000000238419,0,0,experiment,NA,NA,0,0.9,0.1,0,1,44,1,NA
fcp-trial,90,583047,0.0-53.0-0.0,voc_e2,11777,"[{""event"":""fullscreenenter"",""trial"":1,""time"":16828}]",NA,NA,NA,NA,NA,6,#D89F1C,#3386FF,10,0,0,40,0,623.8000000715256,39,0,675.6999999284744,0,1,experiment,NA,NA,2,0.5,0.5,5,4,45,1,NA
fcp-trial,91,585458,0.0-54.0-0.0,voc_e2,11777,"[{""event"":""fullscreenenter"",""trial"":1,""time"":16828}]",NA,NA,NA,NA,NA,0,#D89F1C,#3386FF,10,0,0,40,0,432.7999999523163,37,1,465.89999997615814,10,0,experiment,NA,NA,2,0.5,0.5,5,4,46,2,NA
fcp-trial,92,587714,0.0-55.0-0.0,voc_e2,11777,"[{""event"":""fullscreenenter"",""trial"":1,""time"":16828}]",NA,NA,NA,NA,NA,3,#D8271C,#741CD8,10,0,1,40,0,381.39999997615814,39,0,364.7999999523163,0,0,experiment,NA,NA,1,0.7,0.3,2,3,47,2,NA
fcp-trial,93,590129,0.0-56.0-0.0,voc_e2,11777,"[{""event"":""fullscreenenter"",""trial"":1,""time"":16828}]",NA,NA,NA,NA,NA,4,#D8271C,#741CD8,10,0,1,40,0,484.5,39,0,418.39999997615814,0,0,experiment,NA,NA,1,0.7,0.3,2,3,48,2,NA
fcp-trial,94,592625,0.0-57.0-0.0,voc_e2,11777,"[{""event"":""fullscreenenter"",""trial"":1,""time"":16828}]",NA,NA,NA,NA,NA,6,#1CD855,#FA92F8,0,10,0,40,0,466.60000002384186,39,0,515.7000000476837,10,1,experiment,NA,NA,0,0.1,0.9,1,0,49,2,NA
fcp-trial,95,595773,0.0-58.0-0.0,voc_e2,11777,"[{""event"":""fullscreenenter"",""trial"":1,""time"":16828}]",NA,NA,NA,NA,NA,3,#3386FF,#D89F1C,0,0,1,40,0,931.3000000715256,39,0,708.2000000476837,0,0,experiment,NA,NA,2,0.5,0.5,4,5,50,2,NA
fcp-trial,96,598231,0.0-59.0-0.0,voc_e2,11777,"[{""event"":""fullscreenenter"",""trial"":1,""time"":16828}]",NA,NA,NA,NA,NA,1,#3386FF,#D89F1C,10,0,1,40,0,487.5,37,1,463,10,1,experiment,NA,NA,2,0.5,0.5,4,5,51,2,NA
fcp-trial,97,600872,0.0-60.0-0.0,voc_e2,11777,"[{""event"":""fullscreenenter"",""trial"":1,""time"":16828}]",NA,NA,NA,NA,NA,0,#D8271C,#741CD8,10,0,1,40,0,627.5,37,1,500.5,10,1,experiment,NA,NA,1,0.7,0.3,2,3,52,2,NA
fcp-trial,98,603594,0.0-61.0-0.0,voc_e2,11777,"[{""event"":""fullscreenenter"",""trial"":1,""time"":16828}]",NA,NA,NA,NA,NA,0,#1CD855,#FA92F8,10,10,0,40,0,350.2999999523163,37,1,863.7999999523163,10,0,experiment,NA,NA,0,0.1,0.9,1,0,53,2,NA
fcp-trial,99,606416,0.0-62.0-0.0,voc_e2,11777,"[{""event"":""fullscreenenter"",""trial"":1,""time"":16828}]",NA,NA,NA,NA,NA,4,#FA92F8,#1CD855,10,0,1,40,0,874.7000000476837,39,0,433,0,0,experiment,NA,NA,0,0.9,0.1,0,1,54,2,NA
fcp-trial,100,608805,0.0-63.0-0.0,voc_e2,11777,"[{""event"":""fullscreenenter"",""trial"":1,""time"":16828}]",NA,NA,NA,NA,NA,3,#FA92F8,#1CD855,10,10,1,40,0,372.3000000715256,39,0,504.3000000715256,10,0,experiment,NA,NA,0,0.9,0.1,0,1,55,2,NA
fcp-trial,101,611292,0.0-64.0-0.0,voc_e2,11777,"[{""event"":""fullscreenenter"",""trial"":1,""time"":16828}]",NA,NA,NA,NA,NA,5,#D89F1C,#3386FF,10,0,0,40,0,510.39999997615814,37,1,468.2000000476837,10,0,experiment,NA,NA,2,0.5,0.5,5,4,56,2,NA
fcp-trial,102,614062,0.0-65.0-0.0,voc_e2,11777,"[{""event"":""fullscreenenter"",""trial"":1,""time"":16828}]",NA,NA,NA,NA,NA,1,#741CD8,#D8271C,0,10,0,40,0,615.8999999761581,39,0,640.8999999761581,10,1,experiment,NA,NA,1,0.3,0.7,3,2,57,2,NA
fcp-trial,103,617077,0.0-66.0-0.0,voc_e2,11777,"[{""event"":""fullscreenenter"",""trial"":1,""time"":16828}]",NA,NA,NA,NA,NA,5,#741CD8,#D8271C,0,0,0,40,0,612.2999999523163,37,1,888.7999999523163,0,0,experiment,NA,NA,1,0.3,0.7,3,2,58,2,NA
fcp-trial,104,620204,0.0-67.0-0.0,voc_e2,11777,"[{""event"":""fullscreenenter"",""trial"":1,""time"":16828}]",NA,NA,NA,NA,NA,1,#1CD855,#FA92F8,0,10,0,40,0,1132.6999999284744,39,0,484.7999999523163,10,1,experiment,NA,NA,0,0.1,0.9,1,0,59,2,NA
fcp-trial,105,623377,0.0-68.0-0.0,voc_e2,11777,"[{""event"":""fullscreenenter"",""trial"":1,""time"":16828}]",NA,NA,NA,NA,NA,2,#D8271C,#741CD8,10,10,1,40,0,906.6000000238419,39,0,753.8999999761581,10,0,experiment,NA,NA,1,0.7,0.3,2,3,60,2,NA
fcp-trial,106,626681,0.0-69.0-0.0,voc_e2,11777,"[{""event"":""fullscreenenter"",""trial"":1,""time"":16828}]",NA,NA,NA,NA,NA,4,#D89F1C,#3386FF,10,0,0,40,0,850.8999999761581,39,0,939.8000000715256,0,1,experiment,NA,NA,2,0.5,0.5,5,4,61,2,NA
fcp-trial,107,629226,0.0-70.0-0.0,voc_e2,11777,"[{""event"":""fullscreenenter"",""trial"":1,""time"":16828}]",NA,NA,NA,NA,NA,6,#741CD8,#D8271C,0,10,0,40,0,502.60000002384186,39,0,529.6000000238419,10,1,experiment,NA,NA,1,0.3,0.7,3,2,62,2,NA
fcp-trial,108,632571,0.0-71.0-0.0,voc_e2,11777,"[{""event"":""fullscreenenter"",""trial"":1,""time"":16828}]",NA,NA,NA,NA,NA,5,#FA92F8,#1CD855,10,10,1,40,0,705.3999999761581,39,0,1131.1000000238419,10,0,experiment,NA,NA,0,0.9,0.1,0,1,63,2,NA
fcp-trial,109,635245,0.0-72.0-0.0,voc_e2,11777,"[{""event"":""fullscreenenter"",""trial"":1,""time"":16828}]",NA,NA,NA,NA,NA,4,#3386FF,#D89F1C,0,10,1,40,0,564.2000000476837,39,0,600.6000000238419,10,0,experiment,NA,NA,2,0.5,0.5,4,5,64,2,NA
fcp-trial,110,638705,0.0-73.0-0.0,voc_e2,11777,"[{""event"":""fullscreenenter"",""trial"":1,""time"":16828}]",NA,NA,NA,NA,NA,4,#D8271C,#741CD8,0,10,1,40,0,744.3000000715256,37,1,1202.7000000476837,0,1,experiment,NA,NA,1,0.7,0.3,2,3,65,2,NA
fcp-trial,111,641333,0.0-74.0-0.0,voc_e2,11777,"[{""event"":""fullscreenenter"",""trial"":1,""time"":16828}]",NA,NA,NA,NA,NA,6,#FA92F8,#1CD855,10,0,1,40,0,475.2999999523163,37,1,645,10,1,experiment,NA,NA,0,0.9,0.1,0,1,66,2,NA
fcp-trial,112,643880,0.0-75.0-0.0,voc_e2,11777,"[{""event"":""fullscreenenter"",""trial"":1,""time"":16828}]",NA,NA,NA,NA,NA,2,#D8271C,#741CD8,10,0,1,40,0,480.8000000715256,39,0,559.1000000238419,0,0,experiment,NA,NA,1,0.7,0.3,2,3,67,2,NA
fcp-trial,113,646757,0.0-76.0-0.0,voc_e2,11777,"[{""event"":""fullscreenenter"",""trial"":1,""time"":16828}]",NA,NA,NA,NA,NA,2,#FA92F8,#1CD855,10,0,1,40,0,661.5,39,0,703.8999999761581,0,0,experiment,NA,NA,0,0.9,0.1,0,1,68,2,NA
fcp-trial,114,649378,0.0-77.0-0.0,voc_e2,11777,"[{""event"":""fullscreenenter"",""trial"":1,""time"":16828}]",NA,NA,NA,NA,NA,1,#3386FF,#D89F1C,10,10,1,40,0,474.6999999284744,39,0,635.8999999761581,10,0,experiment,NA,NA,2,0.5,0.5,4,5,69,2,NA
fcp-trial,115,651883,0.0-78.0-0.0,voc_e2,11777,"[{""event"":""fullscreenenter"",""trial"":1,""time"":16828}]",NA,NA,NA,NA,NA,1,#FA92F8,#1CD855,10,0,1,40,0,552.8999999761581,37,1,439.89999997615814,10,1,experiment,NA,NA,0,0.9,0.1,0,1,70,2,NA
fcp-trial,116,655205,0.0-79.0-0.0,voc_e2,11777,"[{""event"":""fullscreenenter"",""trial"":1,""time"":16828}]",NA,NA,NA,NA,NA,0,#741CD8,#D8271C,10,10,0,40,0,1222.5,37,1,593.1000000238419,10,0,experiment,NA,NA,1,0.3,0.7,3,2,71,2,NA
fcp-trial,117,658641,0.0-80.0-0.0,voc_e2,11777,"[{""event"":""fullscreenenter"",""trial"":1,""time"":16828}]",NA,NA,NA,NA,NA,5,#FA92F8,#1CD855,10,0,1,40,0,1038.8999999761581,37,1,891.5,10,1,experiment,NA,NA,0,0.9,0.1,0,1,72,2,NA
fcp-trial,118,661090,0.0-81.0-0.0,voc_e2,11777,"[{""event"":""fullscreenenter"",""trial"":1,""time"":16828}]",NA,NA,NA,NA,NA,2,#D89F1C,#3386FF,10,10,0,40,0,534,39,0,406.6999999284744,10,1,experiment,NA,NA,2,0.5,0.5,5,4,73,2,NA
fcp-trial,119,663663,0.0-82.0-0.0,voc_e2,11777,"[{""event"":""fullscreenenter"",""trial"":1,""time"":16828}]",NA,NA,NA,NA,NA,6,#741CD8,#D8271C,10,10,0,40,0,483.5,39,0,578.6000000238419,10,1,experiment,NA,NA,1,0.3,0.7,3,2,74,2,NA
fcp-trial,120,666010,0.0-83.0-0.0,voc_e2,11777,"[{""event"":""fullscreenenter"",""trial"":1,""time"":16828}]",NA,NA,NA,NA,NA,6,#3386FF,#D89F1C,0,0,1,40,0,311.3000000715256,39,0,522.5999999046326,0,0,experiment,NA,NA,2,0.5,0.5,4,5,75,2,NA
fcp-trial,121,668510,0.0-84.0-0.0,voc_e2,11777,"[{""event"":""fullscreenenter"",""trial"":1,""time"":16828}]",NA,NA,NA,NA,NA,3,#741CD8,#D8271C,0,10,0,40,0,528,37,1,459.40000009536743,0,0,experiment,NA,NA,1,0.3,0.7,3,2,76,2,NA
fcp-trial,122,671153,0.0-85.0-0.0,voc_e2,11777,"[{""event"":""fullscreenenter"",""trial"":1,""time"":16828}]",NA,NA,NA,NA,NA,3,#FA92F8,#1CD855,10,0,1,40,0,660.5999999046326,39,0,469.8000000715256,0,0,experiment,NA,NA,0,0.9,0.1,0,1,77,2,NA
fcp-trial,123,673518,0.0-86.0-0.0,voc_e2,11777,"[{""event"":""fullscreenenter"",""trial"":1,""time"":16828}]",NA,NA,NA,NA,NA,5,#3386FF,#D89F1C,0,0,1,40,0,389.10000002384186,37,1,466.8000000715256,0,1,experiment,NA,NA,2,0.5,0.5,4,5,78,2,NA
fcp-trial,124,675767,0.0-87.0-0.0,voc_e2,11777,"[{""event"":""fullscreenenter"",""trial"":1,""time"":16828}]",NA,NA,NA,NA,NA,4,#1CD855,#FA92F8,0,10,0,40,0,284.5,39,0,455.7000000476837,10,1,experiment,NA,NA,0,0.1,0.9,1,0,79,2,NA
fcp-trial,125,678138,0.0-88.0-0.0,voc_e2,11777,"[{""event"":""fullscreenenter"",""trial"":1,""time"":16828}]",NA,NA,NA,NA,NA,1,#741CD8,#D8271C,10,10,0,40,0,383.2000000476837,37,1,480,10,0,experiment,NA,NA,1,0.3,0.7,3,2,80,2,NA
fcp-trial,126,681098,0.0-89.0-0.0,voc_e2,11777,"[{""event"":""fullscreenenter"",""trial"":1,""time"":16828}]",NA,NA,NA,NA,NA,0,#1CD855,#FA92F8,0,10,0,40,0,411.89999997615814,37,1,1040,0,0,experiment,NA,NA,0,0.1,0.9,1,0,81,2,NA
fcp-trial,127,683366,0.0-90.0-0.0,voc_e2,11777,"[{""event"":""fullscreenenter"",""trial"":1,""time"":16828}]",NA,NA,NA,NA,NA,0,#3386FF,#D89F1C,10,0,1,40,0,382.2999999523163,39,0,374.1999999284744,0,0,experiment,NA,NA,2,0.5,0.5,4,5,82,2,NA
fcp-trial,128,686178,0.0-91.0-0.0,voc_e2,11777,"[{""event"":""fullscreenenter"",""trial"":1,""time"":16828}]",NA,NA,NA,NA,NA,3,#3386FF,#D89F1C,0,0,1,40,0,613.7000000476837,37,1,690.5,0,1,experiment,NA,NA,2,0.5,0.5,4,5,83,2,NA
fcp-trial,129,689981,0.0-92.0-0.0,voc_e2,11777,"[{""event"":""fullscreenenter"",""trial"":1,""time"":16828}]",NA,NA,NA,NA,NA,5,#D8271C,#741CD8,0,0,1,40,0,1355,39,0,933.1000000238419,0,0,experiment,NA,NA,1,0.7,0.3,2,3,84,2,NA
fcp-trial,130,692852,0.0-93.0-0.0,voc_e2,11777,"[{""event"":""fullscreenenter"",""trial"":1,""time"":16828}]",NA,NA,NA,NA,NA,1,#D8271C,#741CD8,0,0,1,40,0,488.7999999523163,37,1,872.3000000715256,0,1,experiment,NA,NA,1,0.7,0.3,2,3,85,2,NA
fcp-trial,131,695818,0.0-94.0-0.0,voc_e2,11777,"[{""event"":""fullscreenenter"",""trial"":1,""time"":16828}]",NA,NA,NA,NA,NA,5,#D8271C,#741CD8,10,0,1,40,0,1022.5,39,0,434.7999999523163,0,0,experiment,NA,NA,1,0.7,0.3,2,3,86,2,NA
fcp-trial,132,698650,0.0-95.0-0.0,voc_e2,11777,"[{""event"":""fullscreenenter"",""trial"":1,""time"":16828}]",NA,NA,NA,NA,NA,1,#FA92F8,#1CD855,10,0,1,40,0,749,39,0,573.9000000953674,0,0,experiment,NA,NA,0,0.9,0.1,0,1,87,2,NA
fcp-trial,133,701169,0.0-96.0-0.0,voc_e2,11777,"[{""event"":""fullscreenenter"",""trial"":1,""time"":16828}]",NA,NA,NA,NA,NA,2,#FA92F8,#1CD855,10,0,1,40,0,375.3000000715256,37,1,636.1000000238419,10,1,experiment,NA,NA,0,0.9,0.1,0,1,88,2,NA
fcp-trial,134,703518,0.0-97.0-0.0,voc_e2,11777,"[{""event"":""fullscreenenter"",""trial"":1,""time"":16828}]",NA,NA,NA,NA,NA,0,#D8271C,#741CD8,10,0,1,40,0,382.5,39,0,458,0,0,experiment,NA,NA,1,0.7,0.3,2,3,89,2,NA
fcp-trial,135,705880,0.0-98.0-0.0,voc_e2,11777,"[{""event"":""fullscreenenter"",""trial"":1,""time"":16828}]",NA,NA,NA,NA,NA,0,#D89F1C,#3386FF,10,0,0,40,0,424.2999999523163,37,1,430.60000002384186,10,0,experiment,NA,NA,2,0.5,0.5,5,4,90,2,NA
fcp-trial,136,708524,0.0-99.0-0.0,voc_e2,11777,"[{""event"":""fullscreenenter"",""trial"":1,""time"":16828}]",NA,NA,NA,NA,NA,3,#1CD855,#FA92F8,0,10,0,40,0,460.10000002384186,39,0,675.3999999761581,10,1,experiment,NA,NA,0,0.1,0.9,1,0,91,3,NA
fcp-trial,137,711125,0.0-100.0-0.0,voc_e2,11777,"[{""event"":""fullscreenenter"",""trial"":1,""time"":16828}]",NA,NA,NA,NA,NA,2,#741CD8,#D8271C,10,0,0,40,0,13.799999952316284,37,1,1072.1000000238419,10,0,experiment,NA,NA,1,0.3,0.7,3,2,92,3,NA
fcp-trial,138,713418,0.0-101.0-0.0,voc_e2,11777,"[{""event"":""fullscreenenter"",""trial"":1,""time"":16828}]",NA,NA,NA,NA,NA,5,#D89F1C,#3386FF,10,0,0,40,0,123.29999995231628,37,1,656.8000000715256,10,0,experiment,NA,NA,2,0.5,0.5,5,4,93,3,NA
fcp-trial,139,715934,0.0-102.0-0.0,voc_e2,11777,"[{""event"":""fullscreenenter"",""trial"":1,""time"":16828}]",NA,NA,NA,NA,NA,0,#1CD855,#FA92F8,0,10,0,40,0,293,37,1,716,0,0,experiment,NA,NA,0,0.1,0.9,1,0,94,3,NA
fcp-trial,140,718864,0.0-103.0-0.0,voc_e2,11777,"[{""event"":""fullscreenenter"",""trial"":1,""time"":16828}]",NA,NA,NA,NA,NA,4,#D89F1C,#3386FF,0,10,0,40,0,900.5,37,1,520.5,0,0,experiment,NA,NA,2,0.5,0.5,5,4,95,3,NA
fcp-trial,141,721908,0.0-104.0-0.0,voc_e2,11777,"[{""event"":""fullscreenenter"",""trial"":1,""time"":16828}]",NA,NA,NA,NA,NA,4,#D8271C,#741CD8,10,10,1,40,0,608.2000000476837,39,0,927.2000000476837,10,0,experiment,NA,NA,1,0.7,0.3,2,3,96,3,NA
fcp-trial,142,724640,0.0-105.0-0.0,voc_e2,11777,"[{""event"":""fullscreenenter"",""trial"":1,""time"":16828}]",NA,NA,NA,NA,NA,3,#741CD8,#D8271C,0,10,0,40,0,663.3999999761581,37,1,557.1000000238419,0,0,experiment,NA,NA,1,0.3,0.7,3,2,97,3,NA
fcp-trial,143,727613,0.0-106.0-0.0,voc_e2,11777,"[{""event"":""fullscreenenter"",""trial"":1,""time"":16828}]",NA,NA,NA,NA,NA,6,#3386FF,#D89F1C,10,10,1,40,0,761.2000000476837,39,0,697.7000000476837,10,0,experiment,NA,NA,2,0.5,0.5,4,5,98,3,NA
fcp-trial,144,730751,0.0-107.0-0.0,voc_e2,11777,"[{""event"":""fullscreenenter"",""trial"":1,""time"":16828}]",NA,NA,NA,NA,NA,5,#FA92F8,#1CD855,10,0,1,40,0,1007.5,37,1,619.9000000953674,10,1,experiment,NA,NA,0,0.9,0.1,0,1,99,3,NA
fcp-trial,145,734603,0.0-108.0-0.0,voc_e2,11777,"[{""event"":""fullscreenenter"",""trial"":1,""time"":16828}]",NA,NA,NA,NA,NA,4,#FA92F8,#1CD855,0,0,1,40,0,1882.0999999046326,37,1,461.8000000715256,0,1,experiment,NA,NA,0,0.9,0.1,0,1,100,3,NA
fcp-trial,146,737997,0.0-109.0-0.0,voc_e2,11777,"[{""event"":""fullscreenenter"",""trial"":1,""time"":16828}]",NA,NA,NA,NA,NA,6,#D8271C,#741CD8,10,10,1,40,0,583.4000000953674,39,0,1304,10,0,experiment,NA,NA,1,0.7,0.3,2,3,101,3,NA
fcp-trial,147,740555,0.0-110.0-0.0,voc_e2,11777,"[{""event"":""fullscreenenter"",""trial"":1,""time"":16828}]",NA,NA,NA,NA,NA,1,#3386FF,#D89F1C,0,10,1,40,0,575.2999999523163,37,1,474.5,0,1,experiment,NA,NA,2,0.5,0.5,4,5,102,3,NA
fcp-trial,148,743364,0.0-111.0-0.0,voc_e2,11777,"[{""event"":""fullscreenenter"",""trial"":1,""time"":16828}]",NA,NA,NA,NA,NA,2,#D89F1C,#3386FF,10,10,0,40,0,714.5,37,1,581.2999999523163,10,0,experiment,NA,NA,2,0.5,0.5,5,4,103,3,NA
fcp-trial,149,745705,0.0-112.0-0.0,voc_e2,11777,"[{""event"":""fullscreenenter"",""trial"":1,""time"":16828}]",NA,NA,NA,NA,NA,3,#D89F1C,#3386FF,0,0,0,40,0,373.5,39,0,458.39999997615814,0,1,experiment,NA,NA,2,0.5,0.5,5,4,104,3,NA
fcp-trial,150,748639,0.0-113.0-0.0,voc_e2,11777,"[{""event"":""fullscreenenter"",""trial"":1,""time"":16828}]",NA,NA,NA,NA,NA,6,#FA92F8,#1CD855,10,10,1,40,0,897.5,39,0,524.8999999761581,10,0,experiment,NA,NA,0,0.9,0.1,0,1,105,3,NA
audio-instructions,151,1158579,0.0-114.0,voc_e2,11777,"[{""event"":""fullscreenenter"",""trial"":1,""time"":16828},{""event"":""blur"",""trial"":151,""time"":1048318},{""event"":""focus"",""trial"":151,""time"":1157270}]",NA,405086.3000000715,static/audio/pause.wav,NA,0,NA,NA,NA,NA,NA,NA,NA,NA,NA,NA,NA,NA,NA,NA,NA,NA,NA,NA,NA,NA,NA,NA,NA,NA,NA
fcp-trial,152,1163576,0.0-115.0-0.0,voc_e2,11777,"[{""event"":""fullscreenenter"",""trial"":1,""time"":16828},{""event"":""blur"",""trial"":151,""time"":1048318},{""event"":""focus"",""trial"":151,""time"":1157270}]",NA,NA,NA,NA,NA,3,#3386FF,#D89F1C,0,0,1,40,0,2856.600000023842,39,0,633.2999999523163,0,0,experiment,NA,NA,2,0.5,0.5,4,5,106,3,NA
fcp-trial,153,1166794,0.0-116.0-0.0,voc_e2,11777,"[{""event"":""fullscreenenter"",""trial"":1,""time"":16828},{""event"":""blur"",""trial"":151,""time"":1048318},{""event"":""focus"",""trial"":151,""time"":1157270}]",NA,NA,NA,NA,NA,6,#741CD8,#D8271C,10,10,0,40,0,632.2999999523163,37,1,1078.3000000715256,10,0,experiment,NA,NA,1,0.3,0.7,3,2,107,3,NA
fcp-trial,154,1169141,0.0-117.0-0.0,voc_e2,11777,"[{""event"":""fullscreenenter"",""trial"":1,""time"":16828},{""event"":""blur"",""trial"":151,""time"":1048318},{""event"":""focus"",""trial"":151,""time"":1157270}]",NA,NA,NA,NA,NA,4,#1CD855,#FA92F8,0,10,0,40,0,365.10000002384186,39,0,474.60000002384186,10,1,experiment,NA,NA,0,0.1,0.9,1,0,108,3,NA
fcp-trial,155,1171566,0.0-118.0-0.0,voc_e2,11777,"[{""event"":""fullscreenenter"",""trial"":1,""time"":16828},{""event"":""blur"",""trial"":151,""time"":1048318},{""event"":""focus"",""trial"":151,""time"":1157270}]",NA,NA,NA,NA,NA,2,#3386FF,#D89F1C,10,0,1,40,0,272.2000000476837,37,1,639.8000000715256,10,1,experiment,NA,NA,2,0.5,0.5,4,5,109,3,NA
fcp-trial,156,1174064,0.0-119.0-0.0,voc_e2,11777,"[{""event"":""fullscreenenter"",""trial"":1,""time"":16828},{""event"":""blur"",""trial"":151,""time"":1048318},{""event"":""focus"",""trial"":151,""time"":1157270}]",NA,NA,NA,NA,NA,5,#3386FF,#D89F1C,0,0,1,40,0,438.5,37,1,547.5,0,1,experiment,NA,NA,2,0.5,0.5,4,5,110,3,NA
fcp-trial,157,1176330,0.0-120.0-0.0,voc_e2,11777,"[{""event"":""fullscreenenter"",""trial"":1,""time"":16828},{""event"":""blur"",""trial"":151,""time"":1048318},{""event"":""focus"",""trial"":151,""time"":1157270}]",NA,NA,NA,NA,NA,5,#741CD8,#D8271C,10,10,0,40,0,277.2000000476837,37,1,475.2000000476837,10,0,experiment,NA,NA,1,0.3,0.7,3,2,111,3,NA
fcp-trial,158,1178709,0.0-121.0-0.0,voc_e2,11777,"[{""event"":""fullscreenenter"",""trial"":1,""time"":16828},{""event"":""blur"",""trial"":151,""time"":1048318},{""event"":""focus"",""trial"":151,""time"":1157270}]",NA,NA,NA,NA,NA,0,#D89F1C,#3386FF,0,10,0,40,0,314.1999999284744,39,0,554.5,10,1,experiment,NA,NA,2,0.5,0.5,5,4,112,3,NA
fcp-trial,159,1180977,0.0-122.0-0.0,voc_e2,11777,"[{""event"":""fullscreenenter"",""trial"":1,""time"":16828},{""event"":""blur"",""trial"":151,""time"":1048318},{""event"":""focus"",""trial"":151,""time"":1157270}]",NA,NA,NA,NA,NA,6,#FA92F8,#1CD855,10,0,1,40,0,386,37,1,373.2999999523163,10,1,experiment,NA,NA,0,0.9,0.1,0,1,113,3,NA
fcp-trial,160,1183616,0.0-123.0-0.0,voc_e2,11777,"[{""event"":""fullscreenenter"",""trial"":1,""time"":16828},{""event"":""blur"",""trial"":151,""time"":1048318},{""event"":""focus"",""trial"":151,""time"":1157270}]",NA,NA,NA,NA,NA,1,#3386FF,#D89F1C,10,10,1,40,0,642.5,37,1,488.3000000715256,10,1,experiment,NA,NA,2,0.5,0.5,4,5,114,3,NA
fcp-trial,161,1187079,0.0-124.0-0.0,voc_e2,11777,"[{""event"":""fullscreenenter"",""trial"":1,""time"":16828},{""event"":""blur"",""trial"":151,""time"":1048318},{""event"":""focus"",""trial"":151,""time"":1157270}]",NA,NA,NA,NA,NA,4,#D8271C,#741CD8,0,10,1,40,0,501,37,1,1450.7999999523163,0,1,experiment,NA,NA,1,0.7,0.3,2,3,115,3,NA
fcp-trial,162,1189589,0.0-125.0-0.0,voc_e2,11777,"[{""event"":""fullscreenenter"",""trial"":1,""time"":16828},{""event"":""blur"",""trial"":151,""time"":1048318},{""event"":""focus"",""trial"":151,""time"":1157270}]",NA,NA,NA,NA,NA,2,#D8271C,#741CD8,10,0,1,40,0,146.10000002384186,37,1,856.7999999523163,10,1,experiment,NA,NA,1,0.7,0.3,2,3,116,3,NA
fcp-trial,163,1191953,0.0-126.0-0.0,voc_e2,11777,"[{""event"":""fullscreenenter"",""trial"":1,""time"":16828},{""event"":""blur"",""trial"":151,""time"":1048318},{""event"":""focus"",""trial"":151,""time"":1157270}]",NA,NA,NA,NA,NA,0,#1CD855,#FA92F8,0,10,0,40,0,424.7000000476837,37,1,430.60000002384186,0,0,experiment,NA,NA,0,0.1,0.9,1,0,117,3,NA
fcp-trial,164,1194527,0.0-127.0-0.0,voc_e2,11777,"[{""event"":""fullscreenenter"",""trial"":1,""time"":16828},{""event"":""blur"",""trial"":151,""time"":1048318},{""event"":""focus"",""trial"":151,""time"":1157270}]",NA,NA,NA,NA,NA,2,#1CD855,#FA92F8,0,10,0,40,0,553.5,37,1,514.7000000476837,0,0,experiment,NA,NA,0,0.1,0.9,1,0,118,3,NA
fcp-trial,165,1197415,0.0-128.0-0.0,voc_e2,11777,"[{""event"":""fullscreenenter"",""trial"":1,""time"":16828},{""event"":""blur"",""trial"":151,""time"":1048318},{""event"":""focus"",""trial"":151,""time"":1157270}]",NA,NA,NA,NA,NA,4,#D89F1C,#3386FF,10,0,0,40,0,841.3999999761581,39,0,537.9000000953674,0,1,experiment,NA,NA,2,0.5,0.5,5,4,119,3,NA
fcp-trial,166,1199792,0.0-129.0-0.0,voc_e2,11777,"[{""event"":""fullscreenenter"",""trial"":1,""time"":16828},{""event"":""blur"",""trial"":151,""time"":1048318},{""event"":""focus"",""trial"":151,""time"":1157270}]",NA,NA,NA,NA,NA,5,#1CD855,#FA92F8,0,10,0,40,0,426,37,1,442.89999997615814,0,0,experiment,NA,NA,0,0.1,0.9,1,0,120,3,NA
fcp-trial,167,1202189,0.0-130.0-0.0,voc_e2,11777,"[{""event"":""fullscreenenter"",""trial"":1,""time"":16828},{""event"":""blur"",""trial"":151,""time"":1048318},{""event"":""focus"",""trial"":151,""time"":1157270}]",NA,NA,NA,NA,NA,0,#741CD8,#D8271C,0,0,0,40,0,378.1999999284744,39,0,503.89999997615814,0,1,experiment,NA,NA,1,0.3,0.7,3,2,121,3,NA
fcp-trial,168,1204815,0.0-131.0-0.0,voc_e2,11777,"[{""event"":""fullscreenenter"",""trial"":1,""time"":16828},{""event"":""blur"",""trial"":151,""time"":1048318},{""event"":""focus"",""trial"":151,""time"":1157270}]",NA,NA,NA,NA,NA,1,#1CD855,#FA92F8,0,10,0,40,0,515.2000000476837,37,1,601.3000000715256,0,0,experiment,NA,NA,0,0.1,0.9,1,0,122,3,NA
fcp-trial,169,1207157,0.0-132.0-0.0,voc_e2,11777,"[{""event"":""fullscreenenter"",""trial"":1,""time"":16828},{""event"":""blur"",""trial"":151,""time"":1048318},{""event"":""focus"",""trial"":151,""time"":1157270}]",NA,NA,NA,NA,NA,1,#D8271C,#741CD8,10,0,1,40,0,416.39999997615814,39,0,415.60000002384186,0,0,experiment,NA,NA,1,0.7,0.3,2,3,123,3,NA
fcp-trial,170,1209856,0.0-133.0-0.0,voc_e2,11777,"[{""event"":""fullscreenenter"",""trial"":1,""time"":16828},{""event"":""blur"",""trial"":151,""time"":1048318},{""event"":""focus"",""trial"":151,""time"":1157270}]",NA,NA,NA,NA,NA,6,#D89F1C,#3386FF,0,0,0,40,0,703.1000000238419,37,1,485.2999999523163,0,0,experiment,NA,NA,2,0.5,0.5,5,4,124,3,NA
fcp-trial,171,1212203,0.0-134.0-0.0,voc_e2,11777,"[{""event"":""fullscreenenter"",""trial"":1,""time"":16828},{""event"":""blur"",""trial"":151,""time"":1048318},{""event"":""focus"",""trial"":151,""time"":1157270}]",NA,NA,NA,NA,NA,3,#1CD855,#FA92F8,0,10,0,40,0,412.89999997615814,39,0,424.7999999523163,10,1,experiment,NA,NA,0,0.1,0.9,1,0,125,3,NA
fcp-trial,172,1214985,0.0-135.0-0.0,voc_e2,11777,"[{""event"":""fullscreenenter"",""trial"":1,""time"":16828},{""event"":""blur"",""trial"":151,""time"":1048318},{""event"":""focus"",""trial"":151,""time"":1157270}]",NA,NA,NA,NA,NA,3,#741CD8,#D8271C,10,10,0,40,0,743.1999999284744,39,0,525.8999999761581,10,1,experiment,NA,NA,1,0.3,0.7,3,2,126,3,NA
fcp-trial,173,1217342,0.0-136.0-0.0,voc_e2,11777,"[{""event"":""fullscreenenter"",""trial"":1,""time"":16828},{""event"":""blur"",""trial"":151,""time"":1048318},{""event"":""focus"",""trial"":151,""time"":1157270}]",NA,NA,NA,NA,NA,5,#1CD855,#FA92F8,0,10,0,40,0,426.7999999523163,37,1,418.40000009536743,0,0,experiment,NA,NA,0,0.1,0.9,1,0,127,3,NA
fcp-trial,174,1219911,0.0-137.0-0.0,voc_e2,11777,"[{""event"":""fullscreenenter"",""trial"":1,""time"":16828},{""event"":""blur"",""trial"":151,""time"":1048318},{""event"":""focus"",""trial"":151,""time"":1157270}]",NA,NA,NA,NA,NA,1,#D8271C,#741CD8,10,0,1,40,0,548.5999999046326,37,1,512.9000000953674,10,1,experiment,NA,NA,1,0.7,0.3,2,3,128,3,NA
fcp-trial,175,1222175,0.0-138.0-0.0,voc_e2,11777,"[{""event"":""fullscreenenter"",""trial"":1,""time"":16828},{""event"":""blur"",""trial"":151,""time"":1048318},{""event"":""focus"",""trial"":151,""time"":1157270}]",NA,NA,NA,NA,NA,3,#3386FF,#D89F1C,10,0,1,40,0,301.8000000715256,39,0,455.2000000476837,0,0,experiment,NA,NA,2,0.5,0.5,4,5,129,3,NA
fcp-trial,176,1224509,0.0-139.0-0.0,voc_e2,11777,"[{""event"":""fullscreenenter"",""trial"":1,""time"":16828},{""event"":""blur"",""trial"":151,""time"":1048318},{""event"":""focus"",""trial"":151,""time"":1157270}]",NA,NA,NA,NA,NA,3,#741CD8,#D8271C,0,0,0,40,0,321.2999999523163,39,0,505.8000000715256,0,1,experiment,NA,NA,1,0.3,0.7,3,2,130,3,NA
fcp-trial,177,1227024,0.0-140.0-0.0,voc_e2,11777,"[{""event"":""fullscreenenter"",""trial"":1,""time"":16828},{""event"":""blur"",""trial"":151,""time"":1048318},{""event"":""focus"",""trial"":151,""time"":1157270}]",NA,NA,NA,NA,NA,6,#1CD855,#FA92F8,0,10,0,40,0,484.5,39,0,524.8000000715256,10,1,experiment,NA,NA,0,0.1,0.9,1,0,131,3,NA
fcp-trial,178,1229461,0.0-141.0-0.0,voc_e2,11777,"[{""event"":""fullscreenenter"",""trial"":1,""time"":16828},{""event"":""blur"",""trial"":151,""time"":1048318},{""event"":""focus"",""trial"":151,""time"":1157270}]",NA,NA,NA,NA,NA,0,#FA92F8,#1CD855,10,0,1,40,0,459.1999999284744,39,0,469.3000000715256,0,0,experiment,NA,NA,0,0.9,0.1,0,1,132,3,NA
fcp-trial,179,1232004,0.0-142.0-0.0,voc_e2,11777,"[{""event"":""fullscreenenter"",""trial"":1,""time"":16828},{""event"":""blur"",""trial"":151,""time"":1048318},{""event"":""focus"",""trial"":151,""time"":1157270}]",NA,NA,NA,NA,NA,4,#3386FF,#D89F1C,10,10,1,40,0,574.1999999284744,39,0,458.7000000476837,10,0,experiment,NA,NA,2,0.5,0.5,4,5,133,3,NA
fcp-trial,180,1234497,0.0-143.0-0.0,voc_e2,11777,"[{""event"":""fullscreenenter"",""trial"":1,""time"":16828},{""event"":""blur"",""trial"":151,""time"":1048318},{""event"":""focus"",""trial"":151,""time"":1157270}]",NA,NA,NA,NA,NA,0,#D8271C,#741CD8,10,0,1,40,0,347.5,39,0,639.2000000476837,0,0,experiment,NA,NA,1,0.7,0.3,2,3,134,3,NA
fcp-trial,181,1236745,0.0-144.0-0.0,voc_e2,11777,"[{""event"":""fullscreenenter"",""trial"":1,""time"":16828},{""event"":""blur"",""trial"":151,""time"":1048318},{""event"":""focus"",""trial"":151,""time"":1157270}]",NA,NA,NA,NA,NA,5,#3386FF,#D89F1C,0,10,1,40,0,271.09999990463257,37,1,462.2000000476837,0,1,experiment,NA,NA,2,0.5,0.5,4,5,135,3,NA
fcp-trial,182,1238963,0.0-145.0-0.0,voc_e2,11777,"[{""event"":""fullscreenenter"",""trial"":1,""time"":16828},{""event"":""blur"",""trial"":151,""time"":1048318},{""event"":""focus"",""trial"":151,""time"":1157270}]",NA,NA,NA,NA,NA,1,#FA92F8,#1CD855,10,0,1,40,0,239.30000007152557,39,0,468.2999999523163,0,0,experiment,NA,NA,0,0.9,0.1,0,1,136,4,NA
fcp-trial,183,1241163,0.0-146.0-0.0,voc_e2,11777,"[{""event"":""fullscreenenter"",""trial"":1,""time"":16828},{""event"":""blur"",""trial"":151,""time"":1048318},{""event"":""focus"",""trial"":151,""time"":1157270}]",NA,NA,NA,NA,NA,2,#D89F1C,#3386FF,0,10,0,40,0,248.29999995231628,37,1,438.5,0,0,experiment,NA,NA,2,0.5,0.5,5,4,137,4,NA
fcp-trial,184,1243874,0.0-147.0-0.0,voc_e2,11777,"[{""event"":""fullscreenenter"",""trial"":1,""time"":16828},{""event"":""blur"",""trial"":151,""time"":1048318},{""event"":""focus"",""trial"":151,""time"":1157270}]",NA,NA,NA,NA,NA,6,#D8271C,#741CD8,10,0,1,40,0,328.10000002384186,37,1,869.1000000238419,10,1,experiment,NA,NA,1,0.7,0.3,2,3,138,4,NA
fcp-trial,185,1247938,0.0-148.0-0.0,voc_e2,11777,"[{""event"":""fullscreenenter"",""trial"":1,""time"":16828},{""event"":""blur"",""trial"":151,""time"":1048318},{""event"":""focus"",""trial"":151,""time"":1157270}]",NA,NA,NA,NA,NA,4,#D8271C,#741CD8,10,0,1,40,0,1673.1999999284744,37,1,882.3999999761581,10,1,experiment,NA,NA,1,0.7,0.3,2,3,139,4,NA
fcp-trial,186,1251217,0.0-149.0-0.0,voc_e2,11777,"[{""event"":""fullscreenenter"",""trial"":1,""time"":16828},{""event"":""blur"",""trial"":151,""time"":1048318},{""event"":""focus"",""trial"":151,""time"":1157270}]",NA,NA,NA,NA,NA,2,#FA92F8,#1CD855,10,0,1,40,0,809,37,1,950.8000000715256,10,1,experiment,NA,NA,0,0.9,0.1,0,1,140,4,NA
fcp-trial,187,1253938,0.0-150.0-0.0,voc_e2,11777,"[{""event"":""fullscreenenter"",""trial"":1,""time"":16828},{""event"":""blur"",""trial"":151,""time"":1048318},{""event"":""focus"",""trial"":151,""time"":1157270}]",NA,NA,NA,NA,NA,0,#D89F1C,#3386FF,0,0,0,40,0,639,39,0,571,0,1,experiment,NA,NA,2,0.5,0.5,5,4,141,4,NA
fcp-trial,188,1256713,0.0-151.0-0.0,voc_e2,11777,"[{""event"":""fullscreenenter"",""trial"":1,""time"":16828},{""event"":""blur"",""trial"":151,""time"":1048318},{""event"":""focus"",""trial"":151,""time"":1157270}]",NA,NA,NA,NA,NA,2,#D8271C,#741CD8,10,0,1,40,0,786.8000000715256,37,1,479.7999999523163,10,1,experiment,NA,NA,1,0.7,0.3,2,3,142,4,NA
fcp-trial,189,1260644,0.0-152.0-0.0,voc_e2,11777,"[{""event"":""fullscreenenter"",""trial"":1,""time"":16828},{""event"":""blur"",""trial"":151,""time"":1048318},{""event"":""focus"",""trial"":151,""time"":1157270}]",NA,NA,NA,NA,NA,4,#1CD855,#FA92F8,0,10,0,40,0,1640.6000000238419,39,0,772.5,10,1,experiment,NA,NA,0,0.1,0.9,1,0,143,4,NA
fcp-trial,190,1263210,0.0-153.0-0.0,voc_e2,11777,"[{""event"":""fullscreenenter"",""trial"":1,""time"":16828},{""event"":""blur"",""trial"":151,""time"":1048318},{""event"":""focus"",""trial"":151,""time"":1157270}]",NA,NA,NA,NA,NA,1,#D89F1C,#3386FF,10,10,0,40,0,690.1000000238419,37,1,368.40000009536743,10,0,experiment,NA,NA,2,0.5,0.5,5,4,144,4,NA
fcp-trial,191,1266482,0.0-154.0-0.0,voc_e2,11777,"[{""event"":""fullscreenenter"",""trial"":1,""time"":16828},{""event"":""blur"",""trial"":151,""time"":1048318},{""event"":""focus"",""trial"":151,""time"":1157270}]",NA,NA,NA,NA,NA,3,#1CD855,#FA92F8,0,10,0,40,0,777.5,37,1,984.5,0,0,experiment,NA,NA,0,0.1,0.9,1,0,145,4,NA
fcp-trial,192,1269128,0.0-155.0-0.0,voc_e2,11777,"[{""event"":""fullscreenenter"",""trial"":1,""time"":16828},{""event"":""blur"",""trial"":151,""time"":1048318},{""event"":""focus"",""trial"":151,""time"":1157270}]",NA,NA,NA,NA,NA,5,#D8271C,#741CD8,10,0,1,40,0,622.8000000715256,37,1,510.90000009536743,10,1,experiment,NA,NA,1,0.7,0.3,2,3,146,4,NA
fcp-trial,193,1271441,0.0-156.0-0.0,voc_e2,11777,"[{""event"":""fullscreenenter"",""trial"":1,""time"":16828},{""event"":""blur"",""trial"":151,""time"":1048318},{""event"":""focus"",""trial"":151,""time"":1157270}]",NA,NA,NA,NA,NA,6,#D89F1C,#3386FF,0,10,0,40,0,345.7999999523163,37,1,458.2000000476837,0,0,experiment,NA,NA,2,0.5,0.5,5,4,147,4,NA
fcp-trial,194,1273777,0.0-157.0-0.0,voc_e2,11777,"[{""event"":""fullscreenenter"",""trial"":1,""time"":16828},{""event"":""blur"",""trial"":151,""time"":1048318},{""event"":""focus"",""trial"":151,""time"":1157270}]",NA,NA,NA,NA,NA,4,#D8271C,#741CD8,10,0,1,40,0,383.60000002384186,39,0,445.60000002384186,0,0,experiment,NA,NA,1,0.7,0.3,2,3,148,4,NA
fcp-trial,195,1276296,0.0-158.0-0.0,voc_e2,11777,"[{""event"":""fullscreenenter"",""trial"":1,""time"":16828},{""event"":""blur"",""trial"":151,""time"":1048318},{""event"":""focus"",""trial"":151,""time"":1157270}]",NA,NA,NA,NA,NA,2,#D8271C,#741CD8,10,0,1,40,0,558.3999999761581,39,0,451,0,0,experiment,NA,NA,1,0.7,0.3,2,3,149,4,NA
fcp-trial,196,1278506,0.0-159.0-0.0,voc_e2,11777,"[{""event"":""fullscreenenter"",""trial"":1,""time"":16828},{""event"":""blur"",""trial"":151,""time"":1048318},{""event"":""focus"",""trial"":151,""time"":1157270}]",NA,NA,NA,NA,NA,4,#1CD855,#FA92F8,0,10,0,40,0,268.7000000476837,37,1,429.10000002384186,0,0,experiment,NA,NA,0,0.1,0.9,1,0,150,4,NA
fcp-trial,197,1280923,0.0-160.0-0.0,voc_e2,11777,"[{""event"":""fullscreenenter"",""trial"":1,""time"":16828},{""event"":""blur"",""trial"":151,""time"":1048318},{""event"":""focus"",""trial"":151,""time"":1157270}]",NA,NA,NA,NA,NA,6,#FA92F8,#1CD855,0,0,1,40,0,535.3999999761581,39,0,372.60000002384186,0,0,experiment,NA,NA,0,0.9,0.1,0,1,151,4,NA
fcp-trial,198,1283510,0.0-161.0-0.0,voc_e2,11777,"[{""event"":""fullscreenenter"",""trial"":1,""time"":16828},{""event"":""blur"",""trial"":151,""time"":1048318},{""event"":""focus"",""trial"":151,""time"":1157270}]",NA,NA,NA,NA,NA,3,#D8271C,#741CD8,0,10,1,40,0,539.3999999761581,39,0,539.3000000715256,10,0,experiment,NA,NA,1,0.7,0.3,2,3,152,4,NA
fcp-trial,199,1286380,0.0-162.0-0.0,voc_e2,11777,"[{""event"":""fullscreenenter"",""trial"":1,""time"":16828},{""event"":""blur"",""trial"":151,""time"":1048318},{""event"":""focus"",""trial"":151,""time"":1157270}]",NA,NA,NA,NA,NA,2,#3386FF,#D89F1C,0,0,1,40,0,891.2000000476837,39,0,470.1999999284744,0,0,experiment,NA,NA,2,0.5,0.5,4,5,153,4,NA
fcp-trial,200,1289495,0.0-163.0-0.0,voc_e2,11777,"[{""event"":""fullscreenenter"",""trial"":1,""time"":16828},{""event"":""blur"",""trial"":151,""time"":1048318},{""event"":""focus"",""trial"":151,""time"":1157270}]",NA,NA,NA,NA,NA,6,#741CD8,#D8271C,0,10,0,40,0,1054,39,0,550.2000000476837,10,1,experiment,NA,NA,1,0.3,0.7,3,2,154,4,NA
fcp-trial,201,1292280,0.0-164.0-0.0,voc_e2,11777,"[{""event"":""fullscreenenter"",""trial"":1,""time"":16828},{""event"":""blur"",""trial"":151,""time"":1048318},{""event"":""focus"",""trial"":151,""time"":1157270}]",NA,NA,NA,NA,NA,0,#FA92F8,#1CD855,10,0,1,40,0,847.7999999523163,37,1,426.1999999284744,10,1,experiment,NA,NA,0,0.9,0.1,0,1,155,4,NA
fcp-trial,202,1295902,0.0-165.0-0.0,voc_e2,11777,"[{""event"":""fullscreenenter"",""trial"":1,""time"":16828},{""event"":""blur"",""trial"":151,""time"":1048318},{""event"":""focus"",""trial"":151,""time"":1157270}]",NA,NA,NA,NA,NA,6,#3386FF,#D89F1C,0,0,1,40,0,811.3000000715256,37,1,1298.2000000476837,0,1,experiment,NA,NA,2,0.5,0.5,4,5,156,4,NA
fcp-trial,203,1298118,0.0-166.0-0.0,voc_e2,11777,"[{""event"":""fullscreenenter"",""trial"":1,""time"":16828},{""event"":""blur"",""trial"":151,""time"":1048318},{""event"":""focus"",""trial"":151,""time"":1157270}]",NA,NA,NA,NA,NA,5,#FA92F8,#1CD855,10,0,1,40,0,292.7999999523163,39,0,414.09999990463257,0,0,experiment,NA,NA,0,0.9,0.1,0,1,157,4,NA
fcp-trial,204,1300458,0.0-167.0-0.0,voc_e2,11777,"[{""event"":""fullscreenenter"",""trial"":1,""time"":16828},{""event"":""blur"",""trial"":151,""time"":1048318},{""event"":""focus"",""trial"":151,""time"":1157270}]",NA,NA,NA,NA,NA,1,#1CD855,#FA92F8,0,10,0,40,0,454.10000002384186,39,0,377.5,10,1,experiment,NA,NA,0,0.1,0.9,1,0,158,4,NA
fcp-trial,205,1302607,0.0-168.0-0.0,voc_e2,11777,"[{""event"":""fullscreenenter"",""trial"":1,""time"":16828},{""event"":""blur"",""trial"":151,""time"":1048318},{""event"":""focus"",""trial"":151,""time"":1157270}]",NA,NA,NA,NA,NA,1,#D8271C,#741CD8,0,10,1,40,0,290.90000009536743,39,0,349.90000009536743,10,0,experiment,NA,NA,1,0.7,0.3,2,3,159,4,NA
fcp-trial,206,1305381,0.0-169.0-0.0,voc_e2,11777,"[{""event"":""fullscreenenter"",""trial"":1,""time"":16828},{""event"":""blur"",""trial"":151,""time"":1048318},{""event"":""focus"",""trial"":151,""time"":1157270}]",NA,NA,NA,NA,NA,5,#3386FF,#D89F1C,0,10,1,40,0,440.10000002384186,37,1,824.6000000238419,0,1,experiment,NA,NA,2,0.5,0.5,4,5,160,4,NA
fcp-trial,207,1307848,0.0-170.0-0.0,voc_e2,11777,"[{""event"":""fullscreenenter"",""trial"":1,""time"":16828},{""event"":""blur"",""trial"":151,""time"":1048318},{""event"":""focus"",""trial"":151,""time"":1157270}]",NA,NA,NA,NA,NA,5,#741CD8,#D8271C,0,10,0,40,0,354.60000002384186,37,1,605.2000000476837,0,0,experiment,NA,NA,1,0.3,0.7,3,2,161,4,NA
fcp-trial,208,1310392,0.0-171.0-0.0,voc_e2,11777,"[{""event"":""fullscreenenter"",""trial"":1,""time"":16828},{""event"":""blur"",""trial"":151,""time"":1048318},{""event"":""focus"",""trial"":151,""time"":1157270}]",NA,NA,NA,NA,NA,1,#3386FF,#D89F1C,10,0,1,40,0,590.6000000238419,39,0,440.39999997615814,0,0,experiment,NA,NA,2,0.5,0.5,4,5,162,4,NA
fcp-trial,209,1312580,0.0-172.0-0.0,voc_e2,11777,"[{""event"":""fullscreenenter"",""trial"":1,""time"":16828},{""event"":""blur"",""trial"":151,""time"":1048318},{""event"":""focus"",""trial"":151,""time"":1157270}]",NA,NA,NA,NA,NA,2,#1CD855,#FA92F8,0,10,0,40,0,282.2000000476837,39,0,399.59999990463257,10,1,experiment,NA,NA,0,0.1,0.9,1,0,163,4,NA
fcp-trial,210,1315004,0.0-173.0-0.0,voc_e2,11777,"[{""event"":""fullscreenenter"",""trial"":1,""time"":16828},{""event"":""blur"",""trial"":151,""time"":1048318},{""event"":""focus"",""trial"":151,""time"":1157270}]",NA,NA,NA,NA,NA,4,#D89F1C,#3386FF,0,10,0,40,0,483.60000002384186,37,1,427.60000002384186,0,0,experiment,NA,NA,2,0.5,0.5,5,4,164,4,NA
fcp-trial,211,1317274,0.0-174.0-0.0,voc_e2,11777,"[{""event"":""fullscreenenter"",""trial"":1,""time"":16828},{""event"":""blur"",""trial"":151,""time"":1048318},{""event"":""focus"",""trial"":151,""time"":1157270}]",NA,NA,NA,NA,NA,0,#D8271C,#741CD8,10,0,1,40,0,427.2000000476837,39,0,335.7999999523163,0,0,experiment,NA,NA,1,0.7,0.3,2,3,165,4,NA
fcp-trial,212,1320587,0.0-175.0-0.0,voc_e2,11777,"[{""event"":""fullscreenenter"",""trial"":1,""time"":16828},{""event"":""blur"",""trial"":151,""time"":1048318},{""event"":""focus"",""trial"":151,""time"":1157270}]",NA,NA,NA,NA,NA,3,#D89F1C,#3386FF,0,10,0,40,0,582.9000000953674,37,1,1219.3999999761581,0,0,experiment,NA,NA,2,0.5,0.5,5,4,166,4,NA
fcp-trial,213,1323160,0.0-176.0-0.0,voc_e2,11777,"[{""event"":""fullscreenenter"",""trial"":1,""time"":16828},{""event"":""blur"",""trial"":151,""time"":1048318},{""event"":""focus"",""trial"":151,""time"":1157270}]",NA,NA,NA,NA,NA,0,#3386FF,#D89F1C,0,10,1,40,0,444.39999997615814,37,1,620.2999999523163,0,1,experiment,NA,NA,2,0.5,0.5,4,5,167,4,NA
fcp-trial,214,1326003,0.0-177.0-0.0,voc_e2,11777,"[{""event"":""fullscreenenter"",""trial"":1,""time"":16828},{""event"":""blur"",""trial"":151,""time"":1048318},{""event"":""focus"",""trial"":151,""time"":1157270}]",NA,NA,NA,NA,NA,3,#1CD855,#FA92F8,0,10,0,40,0,866.7000000476837,37,1,465.2000000476837,0,0,experiment,NA,NA,0,0.1,0.9,1,0,168,4,NA
fcp-trial,215,1328283,0.0-178.0-0.0,voc_e2,11777,"[{""event"":""fullscreenenter"",""trial"":1,""time"":16828},{""event"":""blur"",""trial"":151,""time"":1048318},{""event"":""focus"",""trial"":151,""time"":1157270}]",NA,NA,NA,NA,NA,4,#3386FF,#D89F1C,0,0,1,40,0,382.5,39,0,386.89999997615814,0,0,experiment,NA,NA,2,0.5,0.5,4,5,169,4,NA
fcp-trial,216,1331903,0.0-179.0-0.0,voc_e2,11777,"[{""event"":""fullscreenenter"",""trial"":1,""time"":16828},{""event"":""blur"",""trial"":151,""time"":1048318},{""event"":""focus"",""trial"":151,""time"":1157270}]",NA,NA,NA,NA,NA,1,#FA92F8,#1CD855,0,10,1,40,0,20.700000047683716,39,0,2092.399999976158,10,0,experiment,NA,NA,0,0.9,0.1,0,1,170,4,NA
fcp-trial,217,1334427,0.0-180.0-0.0,voc_e2,11777,"[{""event"":""fullscreenenter"",""trial"":1,""time"":16828},{""event"":""blur"",""trial"":151,""time"":1048318},{""event"":""focus"",""trial"":151,""time"":1157270}]",NA,NA,NA,NA,NA,6,#D89F1C,#3386FF,0,10,0,40,0,451.7000000476837,37,1,565.7999999523163,0,0,experiment,NA,NA,2,0.5,0.5,5,4,171,4,NA
fcp-trial,218,1336907,0.0-181.0-0.0,voc_e2,11777,"[{""event"":""fullscreenenter"",""trial"":1,""time"":16828},{""event"":""blur"",""trial"":151,""time"":1048318},{""event"":""focus"",""trial"":151,""time"":1157270}]",NA,NA,NA,NA,NA,6,#1CD855,#FA92F8,0,10,0,40,0,549.6000000238419,37,1,419.10000002384186,0,0,experiment,NA,NA,0,0.1,0.9,1,0,172,4,NA
fcp-trial,219,1339453,0.0-182.0-0.0,voc_e2,11777,"[{""event"":""fullscreenenter"",""trial"":1,""time"":16828},{""event"":""blur"",""trial"":151,""time"":1048318},{""event"":""focus"",""trial"":151,""time"":1157270}]",NA,NA,NA,NA,NA,3,#D8271C,#741CD8,10,0,1,40,0,525.1000000238419,37,1,510.59999990463257,10,1,experiment,NA,NA,1,0.7,0.3,2,3,173,4,NA
fcp-trial,220,1341939,0.0-183.0-0.0,voc_e2,11777,"[{""event"":""fullscreenenter"",""trial"":1,""time"":16828},{""event"":""blur"",""trial"":151,""time"":1048318},{""event"":""focus"",""trial"":151,""time"":1157270}]",NA,NA,NA,NA,NA,2,#3386FF,#D89F1C,10,10,1,40,0,488.7999999523163,37,1,488.89999997615814,10,1,experiment,NA,NA,2,0.5,0.5,4,5,174,4,NA
fcp-trial,221,1344606,0.0-184.0-0.0,voc_e2,11777,"[{""event"":""fullscreenenter"",""trial"":1,""time"":16828},{""event"":""blur"",""trial"":151,""time"":1048318},{""event"":""focus"",""trial"":151,""time"":1157270}]",NA,NA,NA,NA,NA,1,#3386FF,#D89F1C,10,0,1,40,0,657.5,37,1,500.39999997615814,10,1,experiment,NA,NA,2,0.5,0.5,4,5,175,4,NA
fcp-trial,222,1346953,0.0-185.0-0.0,voc_e2,11777,"[{""event"":""fullscreenenter"",""trial"":1,""time"":16828},{""event"":""blur"",""trial"":151,""time"":1048318},{""event"":""focus"",""trial"":151,""time"":1157270}]",NA,NA,NA,NA,NA,0,#FA92F8,#1CD855,10,0,1,40,0,394.39999997615814,37,1,443.39999997615814,10,1,experiment,NA,NA,0,0.9,0.1,0,1,176,4,NA
fcp-trial,223,1349247,0.0-186.0-0.0,voc_e2,11777,"[{""event"":""fullscreenenter"",""trial"":1,""time"":16828},{""event"":""blur"",""trial"":151,""time"":1048318},{""event"":""focus"",""trial"":151,""time"":1157270}]",NA,NA,NA,NA,NA,5,#741CD8,#D8271C,0,0,0,40,0,276.1999999284744,39,0,509.39999997615814,0,1,experiment,NA,NA,1,0.3,0.7,3,2,177,4,NA
fcp-trial,224,1351906,0.0-187.0-0.0,voc_e2,11777,"[{""event"":""fullscreenenter"",""trial"":1,""time"":16828},{""event"":""blur"",""trial"":151,""time"":1048318},{""event"":""focus"",""trial"":151,""time"":1157270}]",NA,NA,NA,NA,NA,6,#741CD8,#D8271C,0,10,0,40,0,699,39,0,448.7999999523163,10,1,experiment,NA,NA,1,0.3,0.7,3,2,178,4,NA
fcp-trial,225,1354536,0.0-188.0-0.0,voc_e2,11777,"[{""event"":""fullscreenenter"",""trial"":1,""time"":16828},{""event"":""blur"",""trial"":151,""time"":1048318},{""event"":""focus"",""trial"":151,""time"":1157270}]",NA,NA,NA,NA,NA,3,#3386FF,#D89F1C,10,10,1,40,0,624.1999999284744,39,0,495.89999997615814,10,0,experiment,NA,NA,2,0.5,0.5,4,5,179,4,NA
fcp-trial,226,1357509,0.0-189.0-0.0,voc_e2,11777,"[{""event"":""fullscreenenter"",""trial"":1,""time"":16828},{""event"":""blur"",""trial"":151,""time"":1048318},{""event"":""focus"",""trial"":151,""time"":1157270}]",NA,NA,NA,NA,NA,4,#741CD8,#D8271C,0,10,0,40,0,708.7999999523163,37,1,757,0,0,experiment,NA,NA,1,0.3,0.7,3,2,180,4,NA
fcp-trial,227,1359991,0.0-190.0-0.0,voc_e2,11777,"[{""event"":""fullscreenenter"",""trial"":1,""time"":16828},{""event"":""blur"",""trial"":151,""time"":1048318},{""event"":""focus"",""trial"":151,""time"":1157270}]",NA,NA,NA,NA,NA,3,#1CD855,#FA92F8,0,10,0,40,0,634,39,0,335.40000009536743,10,1,experiment,NA,NA,0,0.1,0.9,1,0,181,5,NA
fcp-trial,228,1364079,0.0-191.0-0.0,voc_e2,11777,"[{""event"":""fullscreenenter"",""trial"":1,""time"":16828},{""event"":""blur"",""trial"":151,""time"":1048318},{""event"":""focus"",""trial"":151,""time"":1157270}]",NA,NA,NA,NA,NA,0,#3386FF,#D89F1C,0,10,1,40,0,2026.4000000953674,39,0,549.5,10,0,experiment,NA,NA,2,0.5,0.5,4,5,182,5,NA
fcp-trial,229,1366658,0.0-192.0-0.0,voc_e2,11777,"[{""event"":""fullscreenenter"",""trial"":1,""time"":16828},{""event"":""blur"",""trial"":151,""time"":1048318},{""event"":""focus"",""trial"":151,""time"":1157270}]",NA,NA,NA,NA,NA,1,#D8271C,#741CD8,0,0,1,40,0,431.2000000476837,37,1,636.2999999523163,0,1,experiment,NA,NA,1,0.7,0.3,2,3,183,5,NA
fcp-trial,230,1369231,0.0-193.0-0.0,voc_e2,11777,"[{""event"":""fullscreenenter"",""trial"":1,""time"":16828},{""event"":""blur"",""trial"":151,""time"":1048318},{""event"":""focus"",""trial"":151,""time"":1157270}]",NA,NA,NA,NA,NA,2,#D8271C,#741CD8,0,10,1,40,0,325.40000009536743,37,1,721,0,1,experiment,NA,NA,1,0.7,0.3,2,3,184,5,NA
fcp-trial,231,1372105,0.0-194.0-0.0,voc_e2,11777,"[{""event"":""fullscreenenter"",""trial"":1,""time"":16828},{""event"":""blur"",""trial"":151,""time"":1048318},{""event"":""focus"",""trial"":151,""time"":1157270}]",NA,NA,NA,NA,NA,5,#1CD855,#FA92F8,0,10,0,40,0,814.6999999284744,37,1,552.2000000476837,0,0,experiment,NA,NA,0,0.1,0.9,1,0,185,5,NA
fcp-trial,232,1375281,0.0-195.0-0.0,voc_e2,11777,"[{""event"":""fullscreenenter"",""trial"":1,""time"":16828},{""event"":""blur"",""trial"":151,""time"":1048318},{""event"":""focus"",""trial"":151,""time"":1157270}]",NA,NA,NA,NA,NA,2,#FA92F8,#1CD855,10,0,1,40,0,905.3999999761581,37,1,758.1999999284744,10,1,experiment,NA,NA,0,0.9,0.1,0,1,186,5,NA
fcp-trial,233,1377788,0.0-196.0-0.0,voc_e2,11777,"[{""event"":""fullscreenenter"",""trial"":1,""time"":16828},{""event"":""blur"",""trial"":151,""time"":1048318},{""event"":""focus"",""trial"":151,""time"":1157270}]",NA,NA,NA,NA,NA,5,#3386FF,#D89F1C,0,10,1,40,0,560.2999999523163,39,0,435,10,0,experiment,NA,NA,2,0.5,0.5,4,5,187,5,NA
fcp-trial,234,1380174,0.0-197.0-0.0,voc_e2,11777,"[{""event"":""fullscreenenter"",""trial"":1,""time"":16828},{""event"":""blur"",""trial"":151,""time"":1048318},{""event"":""focus"",""trial"":151,""time"":1157270}]",NA,NA,NA,NA,NA,0,#D8271C,#741CD8,10,0,1,40,0,402.1999999284744,39,0,476.7999999523163,0,0,experiment,NA,NA,1,0.7,0.3,2,3,188,5,NA
fcp-trial,235,1382635,0.0-198.0-0.0,voc_e2,11777,"[{""event"":""fullscreenenter"",""trial"":1,""time"":16828},{""event"":""blur"",""trial"":151,""time"":1048318},{""event"":""focus"",""trial"":151,""time"":1157270}]",NA,NA,NA,NA,NA,4,#1CD855,#FA92F8,0,10,0,40,0,416,39,0,531.8000000715256,10,1,experiment,NA,NA,0,0.1,0.9,1,0,189,5,NA
fcp-trial,236,1385047,0.0-199.0-0.0,voc_e2,11777,"[{""event"":""fullscreenenter"",""trial"":1,""time"":16828},{""event"":""blur"",""trial"":151,""time"":1048318},{""event"":""focus"",""trial"":151,""time"":1157270}]",NA,NA,NA,NA,NA,3,#1CD855,#FA92F8,0,10,0,40,0,493.7000000476837,39,0,409.89999997615814,10,1,experiment,NA,NA,0,0.1,0.9,1,0,190,5,NA
fcp-trial,237,1388616,0.0-200.0-0.0,voc_e2,11777,"[{""event"":""fullscreenenter"",""trial"":1,""time"":16828},{""event"":""blur"",""trial"":151,""time"":1048318},{""event"":""focus"",""trial"":151,""time"":1157270}]",NA,NA,NA,NA,NA,4,#D8271C,#741CD8,10,0,1,40,0,761.1000000238419,39,0,1297,0,0,experiment,NA,NA,1,0.7,0.3,2,3,191,5,NA
fcp-trial,238,1391235,0.0-201.0-0.0,voc_e2,11777,"[{""event"":""fullscreenenter"",""trial"":1,""time"":16828},{""event"":""blur"",""trial"":151,""time"":1048318},{""event"":""focus"",""trial"":151,""time"":1157270}]",NA,NA,NA,NA,NA,6,#D89F1C,#3386FF,10,10,0,40,0,582.7999999523163,39,0,528.3999999761581,10,1,experiment,NA,NA,2,0.5,0.5,5,4,192,5,NA
fcp-trial,239,1393814,0.0-202.0-0.0,voc_e2,11777,"[{""event"":""fullscreenenter"",""trial"":1,""time"":16828},{""event"":""blur"",""trial"":151,""time"":1048318},{""event"":""focus"",""trial"":151,""time"":1157270}]",NA,NA,NA,NA,NA,2,#FA92F8,#1CD855,10,0,1,40,0,564.2999999523163,39,0,506.39999997615814,0,0,experiment,NA,NA,0,0.9,0.1,0,1,193,5,NA
fcp-trial,240,1396780,0.0-203.0-0.0,voc_e2,11777,"[{""event"":""fullscreenenter"",""trial"":1,""time"":16828},{""event"":""blur"",""trial"":151,""time"":1048318},{""event"":""focus"",""trial"":151,""time"":1157270}]",NA,NA,NA,NA,NA,6,#1CD855,#FA92F8,0,10,0,40,0,459.6999999284744,39,0,996.1000000238419,10,1,experiment,NA,NA,0,0.1,0.9,1,0,194,5,NA
fcp-trial,241,1400749,0.0-204.0-0.0,voc_e2,11777,"[{""event"":""fullscreenenter"",""trial"":1,""time"":16828},{""event"":""blur"",""trial"":151,""time"":1048318},{""event"":""focus"",""trial"":151,""time"":1157270}]",NA,NA,NA,NA,NA,3,#D89F1C,#3386FF,10,10,0,40,0,397.10000002384186,37,1,2062.4000000953674,10,0,experiment,NA,NA,2,0.5,0.5,5,4,195,5,NA
fcp-trial,242,1403840,0.0-205.0-0.0,voc_e2,11777,"[{""event"":""fullscreenenter"",""trial"":1,""time"":16828},{""event"":""blur"",""trial"":151,""time"":1048318},{""event"":""focus"",""trial"":151,""time"":1157270}]",NA,NA,NA,NA,NA,0,#D8271C,#741CD8,10,0,1,40,0,917.1000000238419,37,1,664.7999999523163,10,1,experiment,NA,NA,1,0.7,0.3,2,3,196,5,NA
fcp-trial,243,1406247,0.0-206.0-0.0,voc_e2,11777,"[{""event"":""fullscreenenter"",""trial"":1,""time"":16828},{""event"":""blur"",""trial"":151,""time"":1048318},{""event"":""focus"",""trial"":151,""time"":1157270}]",NA,NA,NA,NA,NA,1,#D89F1C,#3386FF,0,0,0,40,0,484.2000000476837,39,0,409.89999997615814,0,1,experiment,NA,NA,2,0.5,0.5,5,4,197,5,NA
fcp-trial,244,1408953,0.0-207.0-0.0,voc_e2,11777,"[{""event"":""fullscreenenter"",""trial"":1,""time"":16828},{""event"":""blur"",""trial"":151,""time"":1048318},{""event"":""focus"",""trial"":151,""time"":1157270}]",NA,NA,NA,NA,NA,0,#FA92F8,#1CD855,10,0,1,40,0,654.1000000238419,39,0,543,0,0,experiment,NA,NA,0,0.9,0.1,0,1,198,5,NA
fcp-trial,245,1411384,0.0-208.0-0.0,voc_e2,11777,"[{""event"":""fullscreenenter"",""trial"":1,""time"":16828},{""event"":""blur"",""trial"":151,""time"":1048318},{""event"":""focus"",""trial"":151,""time"":1157270}]",NA,NA,NA,NA,NA,1,#741CD8,#D8271C,10,10,0,40,0,474.89999997615814,39,0,447.5,10,1,experiment,NA,NA,1,0.3,0.7,3,2,199,5,NA
fcp-trial,246,1413669,0.0-209.0-0.0,voc_e2,11777,"[{""event"":""fullscreenenter"",""trial"":1,""time"":16828},{""event"":""blur"",""trial"":151,""time"":1048318},{""event"":""focus"",""trial"":151,""time"":1157270}]",NA,NA,NA,NA,NA,5,#FA92F8,#1CD855,10,0,1,40,0,308.89999997615814,39,0,466.90000009536743,0,0,experiment,NA,NA,0,0.9,0.1,0,1,200,5,NA
fcp-trial,247,1416233,0.0-210.0-0.0,voc_e2,11777,"[{""event"":""fullscreenenter"",""trial"":1,""time"":16828},{""event"":""blur"",""trial"":151,""time"":1048318},{""event"":""focus"",""trial"":151,""time"":1157270}]",NA,NA,NA,NA,NA,4,#3386FF,#D89F1C,10,10,1,40,0,611.6000000238419,39,0,445,10,0,experiment,NA,NA,2,0.5,0.5,4,5,201,5,NA
fcp-trial,248,1421349,0.0-211.0-0.0,voc_e2,11777,"[{""event"":""fullscreenenter"",""trial"":1,""time"":16828},{""event"":""blur"",""trial"":151,""time"":1048318},{""event"":""focus"",""trial"":151,""time"":1157270}]",NA,NA,NA,NA,NA,5,#D89F1C,#3386FF,0,10,0,40,0,558.1000000238419,37,1,3050.2000000476837,0,0,experiment,NA,NA,2,0.5,0.5,5,4,202,5,NA
fcp-trial,249,1424055,0.0-212.0-0.0,voc_e2,11777,"[{""event"":""fullscreenenter"",""trial"":1,""time"":16828},{""event"":""blur"",""trial"":151,""time"":1048318},{""event"":""focus"",""trial"":151,""time"":1157270}]",NA,NA,NA,NA,NA,6,#741CD8,#D8271C,10,0,0,40,0,627.9000000953674,37,1,569.1000000238419,10,0,experiment,NA,NA,1,0.3,0.7,3,2,203,5,NA
fcp-trial,250,1426478,0.0-213.0-0.0,voc_e2,11777,"[{""event"":""fullscreenenter"",""trial"":1,""time"":16828},{""event"":""blur"",""trial"":151,""time"":1048318},{""event"":""focus"",""trial"":151,""time"":1157270}]",NA,NA,NA,NA,NA,4,#1CD855,#FA92F8,0,10,0,40,0,498.39999997615814,39,0,409.60000002384186,10,1,experiment,NA,NA,0,0.1,0.9,1,0,204,5,NA
fcp-trial,251,1429320,0.0-214.0-0.0,voc_e2,11777,"[{""event"":""fullscreenenter"",""trial"":1,""time"":16828},{""event"":""blur"",""trial"":151,""time"":1048318},{""event"":""focus"",""trial"":151,""time"":1157270}]",NA,NA,NA,NA,NA,5,#D8271C,#741CD8,10,0,1,40,0,776.7000000476837,37,1,557,10,1,experiment,NA,NA,1,0.7,0.3,2,3,205,5,NA
fcp-trial,252,1431835,0.0-215.0-0.0,voc_e2,11777,"[{""event"":""fullscreenenter"",""trial"":1,""time"":16828},{""event"":""blur"",""trial"":151,""time"":1048318},{""event"":""focus"",""trial"":151,""time"":1157270}]",NA,NA,NA,NA,NA,2,#3386FF,#D89F1C,10,0,1,40,0,500.40000009536743,39,0,499.2999999523163,0,0,experiment,NA,NA,2,0.5,0.5,4,5,206,5,NA
fcp-trial,253,1435105,0.0-216.0-0.0,voc_e2,11777,"[{""event"":""fullscreenenter"",""trial"":1,""time"":16828},{""event"":""blur"",""trial"":151,""time"":1048318},{""event"":""focus"",""trial"":151,""time"":1157270}]",NA,NA,NA,NA,NA,0,#3386FF,#D89F1C,0,0,1,40,0,1160.3999999761581,39,0,598.3000000715256,0,0,experiment,NA,NA,2,0.5,0.5,4,5,207,5,NA
fcp-trial,254,1437981,0.0-217.0-0.0,voc_e2,11777,"[{""event"":""fullscreenenter"",""trial"":1,""time"":16828},{""event"":""blur"",""trial"":151,""time"":1048318},{""event"":""focus"",""trial"":151,""time"":1157270}]",NA,NA,NA,NA,NA,2,#D8271C,#741CD8,0,10,1,40,0,881.8999999761581,39,0,482.6999999284744,10,0,experiment,NA,NA,1,0.7,0.3,2,3,208,5,NA
fcp-trial,255,1440245,0.0-218.0-0.0,voc_e2,11777,"[{""event"":""fullscreenenter"",""trial"":1,""time"":16828},{""event"":""blur"",""trial"":151,""time"":1048318},{""event"":""focus"",""trial"":151,""time"":1157270}]",NA,NA,NA,NA,NA,1,#FA92F8,#1CD855,10,10,1,40,0,245.69999992847443,37,1,505.8000000715256,10,1,experiment,NA,NA,0,0.9,0.1,0,1,209,5,NA
fcp-trial,256,1442804,0.0-219.0-0.0,voc_e2,11777,"[{""event"":""fullscreenenter"",""trial"":1,""time"":16828},{""event"":""blur"",""trial"":151,""time"":1048318},{""event"":""focus"",""trial"":151,""time"":1157270}]",NA,NA,NA,NA,NA,3,#741CD8,#D8271C,0,10,0,40,0,373.2000000476837,39,0,675.3000000715256,10,1,experiment,NA,NA,1,0.3,0.7,3,2,210,5,NA
audio-instructions,257,1754827,0.0-220.0,voc_e2,11777,"[{""event"":""fullscreenenter"",""trial"":1,""time"":16828},{""event"":""blur"",""trial"":151,""time"":1048318},{""event"":""focus"",""trial"":151,""time"":1157270}]",NA,307074.1999999285,static/audio/pause.wav,NA,0,NA,NA,NA,NA,NA,NA,NA,NA,NA,NA,NA,NA,NA,NA,NA,NA,NA,NA,NA,NA,NA,NA,NA,NA,NA
fcp-trial,258,1759413,0.0-221.0-0.0,voc_e2,11777,"[{""event"":""fullscreenenter"",""trial"":1,""time"":16828},{""event"":""blur"",""trial"":151,""time"":1048318},{""event"":""focus"",""trial"":151,""time"":1157270}]",NA,NA,NA,NA,NA,6,#741CD8,#D8271C,0,10,0,40,0,2213.399999976158,39,0,864.8000000715256,10,1,experiment,NA,NA,1,0.3,0.7,3,2,211,5,NA
fcp-trial,259,1763256,0.0-222.0-0.0,voc_e2,11777,"[{""event"":""fullscreenenter"",""trial"":1,""time"":16828},{""event"":""blur"",""trial"":151,""time"":1048318},{""event"":""focus"",""trial"":151,""time"":1157270}]",NA,NA,NA,NA,NA,3,#741CD8,#D8271C,0,10,0,40,0,1465.1000000238419,39,0,868.5,10,1,experiment,NA,NA,1,0.3,0.7,3,2,212,5,NA
fcp-trial,260,1766131,0.0-223.0-0.0,voc_e2,11777,"[{""event"":""fullscreenenter"",""trial"":1,""time"":16828},{""event"":""blur"",""trial"":151,""time"":1048318},{""event"":""focus"",""trial"":151,""time"":1157270}]",NA,NA,NA,NA,NA,5,#3386FF,#D89F1C,0,10,1,40,0,428.2999999523163,37,1,930.3999999761581,0,1,experiment,NA,NA,2,0.5,0.5,4,5,213,5,NA
fcp-trial,261,1768630,0.0-224.0-0.0,voc_e2,11777,"[{""event"":""fullscreenenter"",""trial"":1,""time"":16828},{""event"":""blur"",""trial"":151,""time"":1048318},{""event"":""focus"",""trial"":151,""time"":1157270}]",NA,NA,NA,NA,NA,1,#FA92F8,#1CD855,10,0,1,40,0,533.7000000476837,37,1,454.6999999284744,10,1,experiment,NA,NA,0,0.9,0.1,0,1,214,5,NA
fcp-trial,262,1771075,0.0-225.0-0.0,voc_e2,11777,"[{""event"":""fullscreenenter"",""trial"":1,""time"":16828},{""event"":""blur"",""trial"":151,""time"":1048318},{""event"":""focus"",""trial"":151,""time"":1157270}]",NA,NA,NA,NA,NA,1,#D8271C,#741CD8,0,10,1,40,0,527.8999999761581,39,0,405.39999997615814,10,0,experiment,NA,NA,1,0.7,0.3,2,3,215,5,NA
fcp-trial,263,1773585,0.0-226.0-0.0,voc_e2,11777,"[{""event"":""fullscreenenter"",""trial"":1,""time"":16828},{""event"":""blur"",""trial"":151,""time"":1048318},{""event"":""focus"",""trial"":151,""time"":1157270}]",NA,NA,NA,NA,NA,4,#3386FF,#D89F1C,10,10,1,40,0,541.6000000238419,39,0,458.7999999523163,10,0,experiment,NA,NA,2,0.5,0.5,4,5,216,5,NA
fcp-trial,264,1776037,0.0-227.0-0.0,voc_e2,11777,"[{""event"":""fullscreenenter"",""trial"":1,""time"":16828},{""event"":""blur"",""trial"":151,""time"":1048318},{""event"":""focus"",""trial"":151,""time"":1157270}]",NA,NA,NA,NA,NA,6,#D89F1C,#3386FF,10,0,0,40,0,571.1000000238419,37,1,370.7000000476837,10,0,experiment,NA,NA,2,0.5,0.5,5,4,217,5,NA
fcp-trial,265,1778479,0.0-228.0-0.0,voc_e2,11777,"[{""event"":""fullscreenenter"",""trial"":1,""time"":16828},{""event"":""blur"",""trial"":151,""time"":1048318},{""event"":""focus"",""trial"":151,""time"":1157270}]",NA,NA,NA,NA,NA,0,#FA92F8,#1CD855,10,0,1,40,0,483.7000000476837,37,1,442.7000000476837,10,1,experiment,NA,NA,0,0.9,0.1,0,1,218,5,NA
fcp-trial,266,1780779,0.0-229.0-0.0,voc_e2,11777,"[{""event"":""fullscreenenter"",""trial"":1,""time"":16828},{""event"":""blur"",""trial"":151,""time"":1048318},{""event"":""focus"",""trial"":151,""time"":1157270}]",NA,NA,NA,NA,NA,2,#3386FF,#D89F1C,10,0,1,40,0,394.3000000715256,39,0,394.39999997615814,0,0,experiment,NA,NA,2,0.5,0.5,4,5,219,5,NA
fcp-trial,267,1783496,0.0-230.0-0.0,voc_e2,11777,"[{""event"":""fullscreenenter"",""trial"":1,""time"":16828},{""event"":""blur"",""trial"":151,""time"":1048318},{""event"":""focus"",""trial"":151,""time"":1157270}]",NA,NA,NA,NA,NA,0,#D8271C,#741CD8,0,10,1,40,0,249.80000007152557,37,1,958.3999999761581,0,1,experiment,NA,NA,1,0.7,0.3,2,3,220,5,NA
fcp-trial,268,1786279,0.0-231.0-0.0,voc_e2,11777,"[{""event"":""fullscreenenter"",""trial"":1,""time"":16828},{""event"":""blur"",""trial"":151,""time"":1048318},{""event"":""focus"",""trial"":151,""time"":1157270}]",NA,NA,NA,NA,NA,6,#1CD855,#FA92F8,0,10,0,40,0,318,37,1,954.2999999523163,0,0,experiment,NA,NA,0,0.1,0.9,1,0,221,5,NA
fcp-trial,269,1789157,0.0-232.0-0.0,voc_e2,11777,"[{""event"":""fullscreenenter"",""trial"":1,""time"":16828},{""event"":""blur"",""trial"":151,""time"":1048318},{""event"":""focus"",""trial"":151,""time"":1157270}]",NA,NA,NA,NA,NA,1,#D89F1C,#3386FF,0,10,0,40,0,699,37,1,670.1000000238419,0,0,experiment,NA,NA,2,0.5,0.5,5,4,222,5,NA
fcp-trial,270,1791376,0.0-233.0-0.0,voc_e2,11777,"[{""event"":""fullscreenenter"",""trial"":1,""time"":16828},{""event"":""blur"",""trial"":151,""time"":1048318},{""event"":""focus"",""trial"":151,""time"":1157270}]",NA,NA,NA,NA,NA,4,#D8271C,#741CD8,10,0,1,40,0,313.60000002384186,39,0,393.40000009536743,0,0,experiment,NA,NA,1,0.7,0.3,2,3,223,5,NA
fcp-trial,271,1793809,0.0-234.0-0.0,voc_e2,11777,"[{""event"":""fullscreenenter"",""trial"":1,""time"":16828},{""event"":""blur"",""trial"":151,""time"":1048318},{""event"":""focus"",""trial"":151,""time"":1157270}]",NA,NA,NA,NA,NA,2,#1CD855,#FA92F8,0,0,0,40,0,508.2000000476837,37,1,416.2999999523163,0,0,experiment,NA,NA,0,0.1,0.9,1,0,224,5,NA
fcp-trial,272,1796332,0.0-235.0-0.0,voc_e2,11777,"[{""event"":""fullscreenenter"",""trial"":1,""time"":16828},{""event"":""blur"",""trial"":151,""time"":1048318},{""event"":""focus"",""trial"":151,""time"":1157270}]",NA,NA,NA,NA,NA,5,#FA92F8,#1CD855,10,0,1,40,0,503.10000002384186,37,1,508.39999997615814,10,1,experiment,NA,NA,0,0.9,0.1,0,1,225,5,NA
fcp-trial,273,1798682,0.0-236.0-0.0,voc_e2,11777,"[{""event"":""fullscreenenter"",""trial"":1,""time"":16828},{""event"":""blur"",""trial"":151,""time"":1048318},{""event"":""focus"",""trial"":151,""time"":1157270}]",NA,NA,NA,NA,NA,2,#741CD8,#D8271C,0,10,0,40,0,404,37,1,435.6999999284744,0,0,experiment,NA,NA,1,0.3,0.7,3,2,226,6,NA
fcp-trial,274,1801229,0.0-237.0-0.0,voc_e2,11777,"[{""event"":""fullscreenenter"",""trial"":1,""time"":16828},{""event"":""blur"",""trial"":151,""time"":1048318},{""event"":""focus"",""trial"":151,""time"":1157270}]",NA,NA,NA,NA,NA,0,#3386FF,#D89F1C,0,10,1,40,0,479.6999999284744,37,1,558.1999999284744,0,1,experiment,NA,NA,2,0.5,0.5,4,5,227,6,NA
fcp-trial,275,1803798,0.0-238.0-0.0,voc_e2,11777,"[{""event"":""fullscreenenter"",""trial"":1,""time"":16828},{""event"":""blur"",""trial"":151,""time"":1048318},{""event"":""focus"",""trial"":151,""time"":1157270}]",NA,NA,NA,NA,NA,5,#741CD8,#D8271C,0,10,0,40,0,516.5,39,0,543.6000000238419,10,1,experiment,NA,NA,1,0.3,0.7,3,2,228,6,NA
fcp-trial,276,1806266,0.0-239.0-0.0,voc_e2,11777,"[{""event"":""fullscreenenter"",""trial"":1,""time"":16828},{""event"":""blur"",""trial"":151,""time"":1048318},{""event"":""focus"",""trial"":151,""time"":1157270}]",NA,NA,NA,NA,NA,3,#3386FF,#D89F1C,0,0,1,40,0,508,37,1,454.2000000476837,0,1,experiment,NA,NA,2,0.5,0.5,4,5,229,6,NA
fcp-trial,277,1808681,0.0-240.0-0.0,voc_e2,11777,"[{""event"":""fullscreenenter"",""trial"":1,""time"":16828},{""event"":""blur"",""trial"":151,""time"":1048318},{""event"":""focus"",""trial"":151,""time"":1157270}]",NA,NA,NA,NA,NA,3,#FA92F8,#1CD855,10,0,1,40,0,440.5,39,0,465.7000000476837,0,0,experiment,NA,NA,0,0.9,0.1,0,1,230,6,NA
fcp-trial,278,1811448,0.0-241.0-0.0,voc_e2,11777,"[{""event"":""fullscreenenter"",""trial"":1,""time"":16828},{""event"":""blur"",""trial"":151,""time"":1048318},{""event"":""focus"",""trial"":151,""time"":1157270}]",NA,NA,NA,NA,NA,4,#1CD855,#FA92F8,0,10,0,40,0,499.90000009536743,39,0,759.9000000953674,10,1,experiment,NA,NA,0,0.1,0.9,1,0,231,6,NA
fcp-trial,279,1813634,0.0-242.0-0.0,voc_e2,11777,"[{""event"":""fullscreenenter"",""trial"":1,""time"":16828},{""event"":""blur"",""trial"":151,""time"":1048318},{""event"":""focus"",""trial"":151,""time"":1157270}]",NA,NA,NA,NA,NA,5,#1CD855,#FA92F8,0,10,0,40,0,375.89999997615814,37,1,302.89999997615814,0,0,experiment,NA,NA,0,0.1,0.9,1,0,232,6,NA
fcp-trial,280,1816318,0.0-243.0-0.0,voc_e2,11777,"[{""event"":""fullscreenenter"",""trial"":1,""time"":16828},{""event"":""blur"",""trial"":151,""time"":1048318},{""event"":""focus"",""trial"":151,""time"":1157270}]",NA,NA,NA,NA,NA,6,#3386FF,#D89F1C,10,0,1,40,0,340.60000002384186,37,1,834.2999999523163,10,1,experiment,NA,NA,2,0.5,0.5,4,5,233,6,NA
fcp-trial,281,1818766,0.0-244.0-0.0,voc_e2,11777,"[{""event"":""fullscreenenter"",""trial"":1,""time"":16828},{""event"":""blur"",""trial"":151,""time"":1048318},{""event"":""focus"",""trial"":151,""time"":1157270}]",NA,NA,NA,NA,NA,2,#D89F1C,#3386FF,10,0,0,40,0,451.39999997615814,39,0,488.5,0,1,experiment,NA,NA,2,0.5,0.5,5,4,234,6,NA
fcp-trial,282,1821124,0.0-245.0-0.0,voc_e2,11777,"[{""event"":""fullscreenenter"",""trial"":1,""time"":16828},{""event"":""blur"",""trial"":151,""time"":1048318},{""event"":""focus"",""trial"":151,""time"":1157270}]",NA,NA,NA,NA,NA,4,#741CD8,#D8271C,0,0,0,40,0,349.09999990463257,39,0,501.89999997615814,0,1,experiment,NA,NA,1,0.3,0.7,3,2,235,6,NA
fcp-trial,283,1823263,0.0-246.0-0.0,voc_e2,11777,"[{""event"":""fullscreenenter"",""trial"":1,""time"":16828},{""event"":""blur"",""trial"":151,""time"":1048318},{""event"":""focus"",""trial"":151,""time"":1157270}]",NA,NA,NA,NA,NA,5,#D89F1C,#3386FF,0,10,0,40,0,193.5,37,1,433.60000002384186,0,0,experiment,NA,NA,2,0.5,0.5,5,4,236,6,NA
fcp-trial,284,1825520,0.0-247.0-0.0,voc_e2,11777,"[{""event"":""fullscreenenter"",""trial"":1,""time"":16828},{""event"":""blur"",""trial"":151,""time"":1048318},{""event"":""focus"",""trial"":151,""time"":1157270}]",NA,NA,NA,NA,NA,6,#FA92F8,#1CD855,10,0,1,40,0,343.3000000715256,37,1,406.3000000715256,10,1,experiment,NA,NA,0,0.9,0.1,0,1,237,6,NA
fcp-trial,285,1827879,0.0-248.0-0.0,voc_e2,11777,"[{""event"":""fullscreenenter"",""trial"":1,""time"":16828},{""event"":""blur"",""trial"":151,""time"":1048318},{""event"":""focus"",""trial"":151,""time"":1157270}]",NA,NA,NA,NA,NA,3,#3386FF,#D89F1C,10,10,1,40,0,475,39,0,368.6999999284744,10,0,experiment,NA,NA,2,0.5,0.5,4,5,238,6,NA
fcp-trial,286,1830154,0.0-249.0-0.0,voc_e2,11777,"[{""event"":""fullscreenenter"",""trial"":1,""time"":16828},{""event"":""blur"",""trial"":151,""time"":1048318},{""event"":""focus"",""trial"":151,""time"":1157270}]",NA,NA,NA,NA,NA,6,#D8271C,#741CD8,10,10,1,40,0,337.3000000715256,37,1,430.7999999523163,10,1,experiment,NA,NA,1,0.7,0.3,2,3,239,6,NA
fcp-trial,287,1832476,0.0-250.0-0.0,voc_e2,11777,"[{""event"":""fullscreenenter"",""trial"":1,""time"":16828},{""event"":""blur"",""trial"":151,""time"":1048318},{""event"":""focus"",""trial"":151,""time"":1157270}]",NA,NA,NA,NA,NA,0,#D8271C,#741CD8,0,0,1,40,0,268.89999997615814,37,1,537.6000000238419,0,1,experiment,NA,NA,1,0.7,0.3,2,3,240,6,NA
fcp-trial,288,1834771,0.0-251.0-0.0,voc_e2,11777,"[{""event"":""fullscreenenter"",""trial"":1,""time"":16828},{""event"":""blur"",""trial"":151,""time"":1048318},{""event"":""focus"",""trial"":151,""time"":1157270}]",NA,NA,NA,NA,NA,4,#FA92F8,#1CD855,10,0,1,40,0,135.5,39,0,653.3000000715256,0,0,experiment,NA,NA,0,0.9,0.1,0,1,241,6,NA
fcp-trial,289,1837260,0.0-252.0-0.0,voc_e2,11777,"[{""event"":""fullscreenenter"",""trial"":1,""time"":16828},{""event"":""blur"",""trial"":151,""time"":1048318},{""event"":""focus"",""trial"":151,""time"":1157270}]",NA,NA,NA,NA,NA,1,#3386FF,#D89F1C,0,10,1,40,0,314.2999999523163,39,0,666.7999999523163,10,0,experiment,NA,NA,2,0.5,0.5,4,5,242,6,NA
fcp-trial,290,1840449,0.0-253.0-0.0,voc_e2,11777,"[{""event"":""fullscreenenter"",""trial"":1,""time"":16828},{""event"":""blur"",""trial"":151,""time"":1048318},{""event"":""focus"",""trial"":151,""time"":1157270}]",NA,NA,NA,NA,NA,3,#1CD855,#FA92F8,0,0,0,40,0,1230.5,37,1,450.10000002384186,0,0,experiment,NA,NA,0,0.1,0.9,1,0,243,6,NA
fcp-trial,291,1842781,0.0-254.0-0.0,voc_e2,11777,"[{""event"":""fullscreenenter"",""trial"":1,""time"":16828},{""event"":""blur"",""trial"":151,""time"":1048318},{""event"":""focus"",""trial"":151,""time"":1157270}]",NA,NA,NA,NA,NA,0,#1CD855,#FA92F8,0,10,0,40,0,366.6999999284744,39,0,458.1999999284744,10,1,experiment,NA,NA,0,0.1,0.9,1,0,244,6,NA
fcp-trial,292,1845058,0.0-255.0-0.0,voc_e2,11777,"[{""event"":""fullscreenenter"",""trial"":1,""time"":16828},{""event"":""blur"",""trial"":151,""time"":1048318},{""event"":""focus"",""trial"":151,""time"":1157270}]",NA,NA,NA,NA,NA,5,#D8271C,#741CD8,0,0,1,40,0,328.6999999284744,39,0,442,0,0,experiment,NA,NA,1,0.7,0.3,2,3,245,6,NA
fcp-trial,293,1860064,0.0-256.0-0.0,voc_e2,11777,"[{""event"":""fullscreenenter"",""trial"":1,""time"":16828},{""event"":""blur"",""trial"":151,""time"":1048318},{""event"":""focus"",""trial"":151,""time"":1157270}]",NA,NA,NA,NA,NA,3,#741CD8,#D8271C,0,0,0,null,null,null,null,null,null,NA,0,experiment,NA,NA,1,0.3,0.7,3,2,246,6,NA
fcp-trial,294,1869443,0.0-257.0-0.0,voc_e2,11777,"[{""event"":""fullscreenenter"",""trial"":1,""time"":16828},{""event"":""blur"",""trial"":151,""time"":1048318},{""event"":""focus"",""trial"":151,""time"":1157270}]",NA,NA,NA,NA,NA,4,#D89F1C,#3386FF,0,10,0,40,0,1835.2000000476837,39,0,6029.899999976158,10,1,experiment,NA,NA,2,0.5,0.5,5,4,247,6,NA
fcp-trial,295,1874586,0.0-258.0-0.0,voc_e2,11777,"[{""event"":""fullscreenenter"",""trial"":1,""time"":16828},{""event"":""blur"",""trial"":151,""time"":1048318},{""event"":""focus"",""trial"":151,""time"":1157270}]",NA,NA,NA,NA,NA,2,#FA92F8,#1CD855,10,0,1,40,0,2176,37,1,1458.7999999523163,10,1,experiment,NA,NA,0,0.9,0.1,0,1,248,6,NA
fcp-trial,296,1877391,0.0-259.0-0.0,voc_e2,11777,"[{""event"":""fullscreenenter"",""trial"":1,""time"":16828},{""event"":""blur"",""trial"":151,""time"":1048318},{""event"":""focus"",""trial"":151,""time"":1157270}]",NA,NA,NA,NA,NA,2,#D8271C,#741CD8,10,10,1,40,0,633.6000000238419,39,0,652.6000000238419,10,0,experiment,NA,NA,1,0.7,0.3,2,3,249,6,NA
fcp-trial,297,1879810,0.0-260.0-0.0,voc_e2,11777,"[{""event"":""fullscreenenter"",""trial"":1,""time"":16828},{""event"":""blur"",""trial"":151,""time"":1048318},{""event"":""focus"",""trial"":151,""time"":1157270}]",NA,NA,NA,NA,NA,1,#1CD855,#FA92F8,0,10,0,40,0,409.09999990463257,37,1,501.40000009536743,0,0,experiment,NA,NA,0,0.1,0.9,1,0,250,6,NA
fcp-trial,298,1882242,0.0-261.0-0.0,voc_e2,11777,"[{""event"":""fullscreenenter"",""trial"":1,""time"":16828},{""event"":""blur"",""trial"":151,""time"":1048318},{""event"":""focus"",""trial"":151,""time"":1157270}]",NA,NA,NA,NA,NA,1,#D8271C,#741CD8,0,0,1,40,0,428.7000000476837,37,1,498.2999999523163,0,1,experiment,NA,NA,1,0.7,0.3,2,3,251,6,NA
fcp-trial,299,1885280,0.0-262.0-0.0,voc_e2,11777,"[{""event"":""fullscreenenter"",""trial"":1,""time"":16828},{""event"":""blur"",""trial"":151,""time"":1048318},{""event"":""focus"",""trial"":151,""time"":1157270}]",NA,NA,NA,NA,NA,0,#D89F1C,#3386FF,10,0,0,40,0,697.4000000953674,37,1,832.7000000476837,10,0,experiment,NA,NA,2,0.5,0.5,5,4,252,6,NA
fcp-trial,300,1887960,0.0-263.0-0.0,voc_e2,11777,"[{""event"":""fullscreenenter"",""trial"":1,""time"":16828},{""event"":""blur"",""trial"":151,""time"":1048318},{""event"":""focus"",""trial"":151,""time"":1157270}]",NA,NA,NA,NA,NA,3,#FA92F8,#1CD855,10,0,1,40,0,625.6999999284744,37,1,544.8000000715256,10,1,experiment,NA,NA,0,0.9,0.1,0,1,253,6,NA
fcp-trial,301,1890631,0.0-264.0-0.0,voc_e2,11777,"[{""event"":""fullscreenenter"",""trial"":1,""time"":16828},{""event"":""blur"",""trial"":151,""time"":1048318},{""event"":""focus"",""trial"":151,""time"":1157270}]",NA,NA,NA,NA,NA,2,#D8271C,#741CD8,0,0,1,40,0,510.2999999523163,37,1,652.1000000238419,0,1,experiment,NA,NA,1,0.7,0.3,2,3,254,6,NA
fcp-trial,302,1893133,0.0-265.0-0.0,voc_e2,11777,"[{""event"":""fullscreenenter"",""trial"":1,""time"":16828},{""event"":""blur"",""trial"":151,""time"":1048318},{""event"":""focus"",""trial"":151,""time"":1157270}]",NA,NA,NA,NA,NA,4,#FA92F8,#1CD855,10,0,1,40,0,586.7000000476837,39,0,404.89999997615814,0,0,experiment,NA,NA,0,0.9,0.1,0,1,255,6,NA
fcp-trial,303,1895932,0.0-266.0-0.0,voc_e2,11777,"[{""event"":""fullscreenenter"",""trial"":1,""time"":16828},{""event"":""blur"",""trial"":151,""time"":1048318},{""event"":""focus"",""trial"":151,""time"":1157270}]",NA,NA,NA,NA,NA,5,#FA92F8,#1CD855,10,0,1,40,0,839.6999999284744,37,1,446.09999990463257,10,1,experiment,NA,NA,0,0.9,0.1,0,1,256,6,NA
fcp-trial,304,1898553,0.0-267.0-0.0,voc_e2,11777,"[{""event"":""fullscreenenter"",""trial"":1,""time"":16828},{""event"":""blur"",""trial"":151,""time"":1048318},{""event"":""focus"",""trial"":151,""time"":1157270}]",NA,NA,NA,NA,NA,3,#741CD8,#D8271C,10,10,0,40,0,626,37,1,476.90000009536743,10,0,experiment,NA,NA,1,0.3,0.7,3,2,257,6,NA
fcp-trial,305,1901590,0.0-268.0-0.0,voc_e2,11777,"[{""event"":""fullscreenenter"",""trial"":1,""time"":16828},{""event"":""blur"",""trial"":151,""time"":1048318},{""event"":""focus"",""trial"":151,""time"":1157270}]",NA,NA,NA,NA,NA,2,#D89F1C,#3386FF,0,0,0,40,0,820.6000000238419,37,1,703.9000000953674,0,0,experiment,NA,NA,2,0.5,0.5,5,4,258,6,NA
fcp-trial,306,1904384,0.0-269.0-0.0,voc_e2,11777,"[{""event"":""fullscreenenter"",""trial"":1,""time"":16828},{""event"":""blur"",""trial"":151,""time"":1048318},{""event"":""focus"",""trial"":151,""time"":1157270}]",NA,NA,NA,NA,NA,6,#1CD855,#FA92F8,0,10,0,40,0,599.7999999523163,37,1,683.2999999523163,0,0,experiment,NA,NA,0,0.1,0.9,1,0,259,6,NA
fcp-trial,307,1907612,0.0-270.0-0.0,voc_e2,11777,"[{""event"":""fullscreenenter"",""trial"":1,""time"":16828},{""event"":""blur"",""trial"":151,""time"":1048318},{""event"":""focus"",""trial"":151,""time"":1157270}]",NA,NA,NA,NA,NA,4,#D89F1C,#3386FF,0,10,0,40,0,997.6000000238419,39,0,719.6000000238419,10,1,experiment,NA,NA,2,0.5,0.5,5,4,260,6,NA
fcp-trial,308,1910163,0.0-271.0-0.0,voc_e2,11777,"[{""event"":""fullscreenenter"",""trial"":1,""time"":16828},{""event"":""blur"",""trial"":151,""time"":1048318},{""event"":""focus"",""trial"":151,""time"":1157270}]",NA,NA,NA,NA,NA,0,#D89F1C,#3386FF,10,0,0,40,0,615.1999999284744,39,0,429.59999990463257,0,1,experiment,NA,NA,2,0.5,0.5,5,4,261,6,NA
fcp-trial,309,1912708,0.0-272.0-0.0,voc_e2,11777,"[{""event"":""fullscreenenter"",""trial"":1,""time"":16828},{""event"":""blur"",""trial"":151,""time"":1048318},{""event"":""focus"",""trial"":151,""time"":1157270}]",NA,NA,NA,NA,NA,5,#741CD8,#D8271C,0,10,0,40,0,450.7999999523163,39,0,583.5,10,1,experiment,NA,NA,1,0.3,0.7,3,2,262,6,NA
fcp-trial,310,1915231,0.0-273.0-0.0,voc_e2,11777,"[{""event"":""fullscreenenter"",""trial"":1,""time"":16828},{""event"":""blur"",""trial"":151,""time"":1048318},{""event"":""focus"",""trial"":151,""time"":1157270}]",NA,NA,NA,NA,NA,0,#FA92F8,#1CD855,10,0,1,40,0,581.2000000476837,39,0,433,0,0,experiment,NA,NA,0,0.9,0.1,0,1,263,6,NA
fcp-trial,311,1917706,0.0-274.0-0.0,voc_e2,11777,"[{""event"":""fullscreenenter"",""trial"":1,""time"":16828},{""event"":""blur"",""trial"":151,""time"":1048318},{""event"":""focus"",""trial"":151,""time"":1157270}]",NA,NA,NA,NA,NA,5,#D89F1C,#3386FF,0,0,0,40,0,372.5,39,0,588.6000000238419,0,1,experiment,NA,NA,2,0.5,0.5,5,4,264,6,NA
fcp-trial,312,1920014,0.0-275.0-0.0,voc_e2,11777,"[{""event"":""fullscreenenter"",""trial"":1,""time"":16828},{""event"":""blur"",""trial"":151,""time"":1048318},{""event"":""focus"",""trial"":151,""time"":1157270}]",NA,NA,NA,NA,NA,4,#D8271C,#741CD8,10,10,1,40,0,404.89999997615814,39,0,394.2000000476837,10,0,experiment,NA,NA,1,0.7,0.3,2,3,265,6,NA
fcp-trial,313,1922725,0.0-276.0-0.0,voc_e2,11777,"[{""event"":""fullscreenenter"",""trial"":1,""time"":16828},{""event"":""blur"",""trial"":151,""time"":1048318},{""event"":""focus"",""trial"":151,""time"":1157270}]",NA,NA,NA,NA,NA,1,#1CD855,#FA92F8,0,10,0,40,0,701.6000000238419,37,1,496.39999997615814,0,0,experiment,NA,NA,0,0.1,0.9,1,0,266,6,NA
fcp-trial,314,1925196,0.0-277.0-0.0,voc_e2,11777,"[{""event"":""fullscreenenter"",""trial"":1,""time"":16828},{""event"":""blur"",""trial"":151,""time"":1048318},{""event"":""focus"",""trial"":151,""time"":1157270}]",NA,NA,NA,NA,NA,0,#D8271C,#741CD8,10,0,1,40,0,482.7000000476837,37,1,480.1999999284744,10,1,experiment,NA,NA,1,0.7,0.3,2,3,267,6,NA
fcp-trial,315,1927625,0.0-278.0-0.0,voc_e2,11777,"[{""event"":""fullscreenenter"",""trial"":1,""time"":16828},{""event"":""blur"",""trial"":151,""time"":1048318},{""event"":""focus"",""trial"":151,""time"":1157270}]",NA,NA,NA,NA,NA,1,#D8271C,#741CD8,10,0,1,40,0,499.8000000715256,39,0,417.60000002384186,0,0,experiment,NA,NA,1,0.7,0.3,2,3,268,6,NA
fcp-trial,316,1930025,0.0-279.0-0.0,voc_e2,11777,"[{""event"":""fullscreenenter"",""trial"":1,""time"":16828},{""event"":""blur"",""trial"":151,""time"":1048318},{""event"":""focus"",""trial"":151,""time"":1157270}]",NA,NA,NA,NA,NA,3,#D89F1C,#3386FF,0,0,0,40,0,407.7999999523163,37,1,483.39999997615814,0,0,experiment,NA,NA,2,0.5,0.5,5,4,269,6,NA
fcp-trial,317,1932698,0.0-280.0-0.0,voc_e2,11777,"[{""event"":""fullscreenenter"",""trial"":1,""time"":16828},{""event"":""blur"",""trial"":151,""time"":1048318},{""event"":""focus"",""trial"":151,""time"":1157270}]",NA,NA,NA,NA,NA,6,#D89F1C,#3386FF,10,10,0,40,0,709.5,37,1,454.1999999284744,10,0,experiment,NA,NA,2,0.5,0.5,5,4,270,6,NA
fcp-trial,318,1935105,0.0-281.0-0.0,voc_e2,11777,"[{""event"":""fullscreenenter"",""trial"":1,""time"":16828},{""event"":""blur"",""trial"":151,""time"":1048318},{""event"":""focus"",""trial"":151,""time"":1157270}]",NA,NA,NA,NA,NA,2,#1CD855,#FA92F8,0,0,0,40,0,406.10000002384186,37,1,484.7999999523163,0,0,experiment,NA,NA,0,0.1,0.9,1,0,271,7,NA
fcp-trial,319,1937738,0.0-282.0-0.0,voc_e2,11777,"[{""event"":""fullscreenenter"",""trial"":1,""time"":16828},{""event"":""blur"",""trial"":151,""time"":1048318},{""event"":""focus"",""trial"":151,""time"":1157270}]",NA,NA,NA,NA,NA,1,#D89F1C,#3386FF,10,10,0,40,0,560.3999999761581,39,0,564.1000000238419,10,1,experiment,NA,NA,2,0.5,0.5,5,4,272,7,NA
fcp-trial,320,1939955,0.0-283.0-0.0,voc_e2,11777,"[{""event"":""fullscreenenter"",""trial"":1,""time"":16828},{""event"":""blur"",""trial"":151,""time"":1048318},{""event"":""focus"",""trial"":151,""time"":1157270}]",NA,NA,NA,NA,NA,6,#D8271C,#741CD8,0,10,1,40,0,291.89999997615814,37,1,413.39999997615814,0,1,experiment,NA,NA,1,0.7,0.3,2,3,273,7,NA
fcp-trial,321,1942318,0.0-284.0-0.0,voc_e2,11777,"[{""event"":""fullscreenenter"",""trial"":1,""time"":16828},{""event"":""blur"",""trial"":151,""time"":1048318},{""event"":""focus"",""trial"":151,""time"":1157270}]",NA,NA,NA,NA,NA,5,#1CD855,#FA92F8,0,10,0,40,0,398.2999999523163,39,0,457.10000002384186,10,1,experiment,NA,NA,0,0.1,0.9,1,0,274,7,NA
fcp-trial,322,1944641,0.0-285.0-0.0,voc_e2,11777,"[{""event"":""fullscreenenter"",""trial"":1,""time"":16828},{""event"":""blur"",""trial"":151,""time"":1048318},{""event"":""focus"",""trial"":151,""time"":1157270}]",NA,NA,NA,NA,NA,6,#D8271C,#741CD8,0,10,1,40,0,209.89999997615814,39,0,598.1000000238419,10,0,experiment,NA,NA,1,0.7,0.3,2,3,275,7,NA
fcp-trial,323,1947039,0.0-286.0-0.0,voc_e2,11777,"[{""event"":""fullscreenenter"",""trial"":1,""time"":16828},{""event"":""blur"",""trial"":151,""time"":1048318},{""event"":""focus"",""trial"":151,""time"":1157270}]",NA,NA,NA,NA,NA,1,#3386FF,#D89F1C,0,10,1,40,0,444.7999999523163,37,1,449,0,1,experiment,NA,NA,2,0.5,0.5,4,5,276,7,NA
fcp-trial,324,1949490,0.0-287.0-0.0,voc_e2,11777,"[{""event"":""fullscreenenter"",""trial"":1,""time"":16828},{""event"":""blur"",""trial"":151,""time"":1048318},{""event"":""focus"",""trial"":151,""time"":1157270}]",NA,NA,NA,NA,NA,4,#1CD855,#FA92F8,0,10,0,40,0,390.7000000476837,37,1,550,0,0,experiment,NA,NA,0,0.1,0.9,1,0,277,7,NA
fcp-trial,325,1952099,0.0-288.0-0.0,voc_e2,11777,"[{""event"":""fullscreenenter"",""trial"":1,""time"":16828},{""event"":""blur"",""trial"":151,""time"":1048318},{""event"":""focus"",""trial"":151,""time"":1157270}]",NA,NA,NA,NA,NA,3,#FA92F8,#1CD855,0,0,1,40,0,356.90000009536743,37,1,741.2999999523163,0,1,experiment,NA,NA,0,0.9,0.1,0,1,278,7,NA
fcp-trial,326,1954482,0.0-289.0-0.0,voc_e2,11777,"[{""event"":""fullscreenenter"",""trial"":1,""time"":16828},{""event"":""blur"",""trial"":151,""time"":1048318},{""event"":""focus"",""trial"":151,""time"":1157270}]",NA,NA,NA,NA,NA,2,#3386FF,#D89F1C,10,10,1,40,0,403.5,37,1,466.8000000715256,10,1,experiment,NA,NA,2,0.5,0.5,4,5,279,7,NA
fcp-trial,327,1956983,0.0-290.0-0.0,voc_e2,11777,"[{""event"":""fullscreenenter"",""trial"":1,""time"":16828},{""event"":""blur"",""trial"":151,""time"":1048318},{""event"":""focus"",""trial"":151,""time"":1157270}]",NA,NA,NA,NA,NA,1,#D8271C,#741CD8,10,10,1,40,0,402.60000002384186,37,1,586.7999999523163,10,1,experiment,NA,NA,1,0.7,0.3,2,3,280,7,NA
fcp-trial,328,1959401,0.0-291.0-0.0,voc_e2,11777,"[{""event"":""fullscreenenter"",""trial"":1,""time"":16828},{""event"":""blur"",""trial"":151,""time"":1048318},{""event"":""focus"",""trial"":151,""time"":1157270}]",NA,NA,NA,NA,NA,3,#D8271C,#741CD8,0,10,1,40,0,410.5,39,0,494,10,0,experiment,NA,NA,1,0.7,0.3,2,3,281,7,NA
fcp-trial,329,1962239,0.0-292.0-0.0,voc_e2,11777,"[{""event"":""fullscreenenter"",""trial"":1,""time"":16828},{""event"":""blur"",""trial"":151,""time"":1048318},{""event"":""focus"",""trial"":151,""time"":1157270}]",NA,NA,NA,NA,NA,0,#D8271C,#741CD8,10,0,1,40,0,288.89999997615814,37,1,1033.1999999284744,10,1,experiment,NA,NA,1,0.7,0.3,2,3,282,7,NA
fcp-trial,330,1964498,0.0-293.0-0.0,voc_e2,11777,"[{""event"":""fullscreenenter"",""trial"":1,""time"":16828},{""event"":""blur"",""trial"":151,""time"":1048318},{""event"":""focus"",""trial"":151,""time"":1157270}]",NA,NA,NA,NA,NA,1,#FA92F8,#1CD855,10,0,1,40,0,342.2000000476837,37,1,407.6999999284744,10,1,experiment,NA,NA,0,0.9,0.1,0,1,283,7,NA
fcp-trial,331,1966880,0.0-294.0-0.0,voc_e2,11777,"[{""event"":""fullscreenenter"",""trial"":1,""time"":16828},{""event"":""blur"",""trial"":151,""time"":1048318},{""event"":""focus"",""trial"":151,""time"":1157270}]",NA,NA,NA,NA,NA,6,#D89F1C,#3386FF,0,10,0,40,0,476.7000000476837,39,0,391.3000000715256,10,1,experiment,NA,NA,2,0.5,0.5,5,4,284,7,NA
fcp-trial,332,1970626,0.0-295.0-0.0,voc_e2,11777,"[{""event"":""fullscreenenter"",""trial"":1,""time"":16828},{""event"":""blur"",""trial"":151,""time"":1048318},{""event"":""focus"",""trial"":151,""time"":1157270}]",NA,NA,NA,NA,NA,2,#1CD855,#FA92F8,0,10,0,40,0,854.6000000238419,39,0,1379.5,10,1,experiment,NA,NA,0,0.1,0.9,1,0,285,7,NA
fcp-trial,333,1972944,0.0-296.0-0.0,voc_e2,11777,"[{""event"":""fullscreenenter"",""trial"":1,""time"":16828},{""event"":""blur"",""trial"":151,""time"":1048318},{""event"":""focus"",""trial"":151,""time"":1157270}]",NA,NA,NA,NA,NA,5,#D8271C,#741CD8,10,0,1,40,0,333.5,39,0,475.39999997615814,0,0,experiment,NA,NA,1,0.7,0.3,2,3,286,7,NA
fcp-trial,334,1975313,0.0-297.0-0.0,voc_e2,11777,"[{""event"":""fullscreenenter"",""trial"":1,""time"":16828},{""event"":""blur"",""trial"":151,""time"":1048318},{""event"":""focus"",""trial"":151,""time"":1157270}]",NA,NA,NA,NA,NA,4,#741CD8,#D8271C,0,0,0,40,0,491.1999999284744,37,1,366.2999999523163,0,0,experiment,NA,NA,1,0.3,0.7,3,2,287,7,NA
fcp-trial,335,1978017,0.0-298.0-0.0,voc_e2,11777,"[{""event"":""fullscreenenter"",""trial"":1,""time"":16828},{""event"":""blur"",""trial"":151,""time"":1048318},{""event"":""focus"",""trial"":151,""time"":1157270}]",NA,NA,NA,NA,NA,6,#FA92F8,#1CD855,10,0,1,40,0,690.7000000476837,37,1,498.5,10,1,experiment,NA,NA,0,0.9,0.1,0,1,288,7,NA
fcp-trial,336,1981034,0.0-299.0-0.0,voc_e2,11777,"[{""event"":""fullscreenenter"",""trial"":1,""time"":16828},{""event"":""blur"",""trial"":151,""time"":1048318},{""event"":""focus"",""trial"":151,""time"":1157270}]",NA,NA,NA,NA,NA,4,#3386FF,#D89F1C,0,0,1,40,0,954.3000000715256,39,0,548.1999999284744,0,0,experiment,NA,NA,2,0.5,0.5,4,5,289,7,NA
