trial_type,trial_index,time_elapsed,internal_node_id,task_version,subject_id,interactions,success,rt,stimulus,key_press,button_pressed,offer,arcade_color_L,arcade_color_R,arcade_outcome_L,arcade_outcome_R,correct,stage_1_key,stage_1_choice,stage_1_rt,stage_2_key,stage_2_choice,stage_2_rt,stage_3_outcome,accuracy,phase,responses,num_errors,context,reward_prob_L,reward_prob_R,arcade_id_L,arcade_id_R,trial,block,response
pavlovia,0,11,0.0-0.0,voc_e2,12553,[],NA,NA,NA,NA,NA,NA,NA,NA,NA,NA,NA,NA,NA,NA,NA,NA,NA,NA,NA,NA,NA,NA,NA,NA,NA,NA,NA,NA,NA,NA
fullscreen,1,3078,0.0-1.0,voc_e2,12553,"[{""event"":""fullscreenenter"",""trial"":1,""time"":2110}]",TRUE,NA,NA,NA,NA,NA,NA,NA,NA,NA,NA,NA,NA,NA,NA,NA,NA,NA,NA,NA,NA,NA,NA,NA,NA,NA,NA,NA,NA,NA
audio-keyboard-response,2,8712,0.0-2.0,voc_e2,12553,"[{""event"":""fullscreenenter"",""trial"":1,""time"":2110}]",NA,0,static/audio/beep_loop.wav,32,NA,NA,NA,NA,NA,NA,NA,NA,NA,NA,NA,NA,NA,NA,NA,NA,NA,NA,NA,NA,NA,NA,NA,NA,NA,NA
audio-test,3,10426,0.0-3.0,voc_e2,12553,"[{""event"":""fullscreenenter"",""trial"":1,""time"":2110}]",NA,NA,static/audio/turtle.wav,NA,3,NA,NA,NA,NA,NA,NA,NA,NA,NA,NA,NA,NA,NA,NA,NA,NA,NA,NA,NA,NA,NA,NA,NA,NA,NA
audio-test,4,12658,0.0-4.0,voc_e2,12553,"[{""event"":""fullscreenenter"",""trial"":1,""time"":2110}]",NA,NA,static/audio/shark.wav,NA,2,NA,NA,NA,NA,NA,NA,NA,NA,NA,NA,NA,NA,NA,NA,NA,NA,NA,NA,NA,NA,NA,NA,NA,NA,NA
audio-instructions,5,20242,0.0-5.0-0.0,voc_e2,12553,"[{""event"":""fullscreenenter"",""trial"":1,""time"":2110}]",NA,1797.9999999999964,static/audio/instructions1.wav,NA,0,NA,NA,NA,NA,NA,NA,NA,NA,NA,NA,NA,NA,NA,NA,NA,NA,NA,NA,NA,NA,NA,NA,NA,NA,NA
audio-instructions,6,28108,0.0-5.0-1.0,voc_e2,12553,"[{""event"":""fullscreenenter"",""trial"":1,""time"":2110}]",NA,1121,static/audio/instructions2.wav,NA,0,NA,NA,NA,NA,NA,NA,NA,NA,NA,NA,NA,NA,NA,NA,NA,NA,NA,NA,NA,NA,NA,NA,NA,NA,NA
audio-instructions,7,34342,0.0-5.0-2.0,voc_e2,12553,"[{""event"":""fullscreenenter"",""trial"":1,""time"":2110}]",NA,427,static/audio/instructions3.wav,NA,0,NA,NA,NA,NA,NA,NA,NA,NA,NA,NA,NA,NA,NA,NA,NA,NA,NA,NA,NA,NA,NA,NA,NA,NA,NA
audio-instructions,8,49042,0.0-5.0-3.0,voc_e2,12553,"[{""event"":""fullscreenenter"",""trial"":1,""time"":2110}]",NA,1466.0000000000073,static/audio/instructions4.wav,NA,0,NA,NA,NA,NA,NA,NA,NA,NA,NA,NA,NA,NA,NA,NA,NA,NA,NA,NA,NA,NA,NA,NA,NA,NA,NA
audio-instructions,9,59809,0.0-5.0-4.0,voc_e2,12553,"[{""event"":""fullscreenenter"",""trial"":1,""time"":2110}]",NA,1364,static/audio/instructions5.wav,NA,0,NA,NA,NA,NA,NA,NA,NA,NA,NA,NA,NA,NA,NA,NA,NA,NA,NA,NA,NA,NA,NA,NA,NA,NA,NA
fcp-practice,10,62943,0.0-5.0-5.0-0.0,voc_e2,12553,"[{""event"":""fullscreenenter"",""trial"":1,""time"":2110}]",NA,NA,NA,NA,NA,NA,#EDC948,#46d3c8,10,0,1,null,null,null,37,1,1615,10,1,practice,NA,NA,NA,NA,NA,NA,NA,NA,NA,NA
fcp-practice,11,64792,0.0-5.0-5.0-1.0,voc_e2,12553,"[{""event"":""fullscreenenter"",""trial"":1,""time"":2110}]",NA,NA,NA,NA,NA,NA,#EDC948,#46d3c8,10,0,1,null,null,null,37,1,344,10,1,practice,NA,NA,NA,NA,NA,NA,NA,NA,NA,NA
fcp-practice,12,66404,0.0-5.0-5.0-2.0,voc_e2,12553,"[{""event"":""fullscreenenter"",""trial"":1,""time"":2110}]",NA,NA,NA,NA,NA,NA,#EDC948,#46d3c8,0,10,1,null,null,null,37,1,106,0,1,practice,NA,NA,NA,NA,NA,NA,NA,NA,NA,NA
fcp-practice,13,68110,0.0-5.0-5.0-3.0,voc_e2,12553,"[{""event"":""fullscreenenter"",""trial"":1,""time"":2110}]",NA,NA,NA,NA,NA,NA,#EDC948,#46d3c8,10,0,1,null,null,null,37,1,193.00000000001455,10,1,practice,NA,NA,NA,NA,NA,NA,NA,NA,NA,NA
fcp-practice,14,69929,0.0-5.0-5.0-4.0,voc_e2,12553,"[{""event"":""fullscreenenter"",""trial"":1,""time"":2110}]",NA,NA,NA,NA,NA,NA,#EDC948,#46d3c8,10,0,1,null,null,null,37,1,313,10,1,practice,NA,NA,NA,NA,NA,NA,NA,NA,NA,NA
audio-instructions,15,89943,0.0-5.0-6.0,voc_e2,12553,"[{""event"":""fullscreenenter"",""trial"":1,""time"":2110}]",NA,2003,static/audio/instructions6.wav,NA,0,NA,NA,NA,NA,NA,NA,NA,NA,NA,NA,NA,NA,NA,NA,NA,NA,NA,NA,NA,NA,NA,NA,NA,NA,NA
audio-instructions,16,110443,0.0-5.0-7.0,voc_e2,12553,"[{""event"":""fullscreenenter"",""trial"":1,""time"":2110}]",NA,1296,static/audio/instructions7.wav,NA,0,NA,NA,NA,NA,NA,NA,NA,NA,NA,NA,NA,NA,NA,NA,NA,NA,NA,NA,NA,NA,NA,NA,NA,NA,NA
audio-instructions,17,121744,0.0-5.0-8.0,voc_e2,12553,"[{""event"":""fullscreenenter"",""trial"":1,""time"":2110}]",NA,1828.0000000000143,static/audio/instructions8.wav,NA,0,NA,NA,NA,NA,NA,NA,NA,NA,NA,NA,NA,NA,NA,NA,NA,NA,NA,NA,NA,NA,NA,NA,NA,NA,NA
fcp-comprehension,18,135131,0.0-5.0-9.0,voc_e2,12553,"[{""event"":""fullscreenenter"",""trial"":1,""time"":2110}]",NA,13387.000000000016,NA,NA,NA,NA,NA,NA,NA,NA,NA,NA,NA,NA,NA,NA,NA,NA,NA,NA,"false,true",1,NA,NA,NA,NA,NA,NA,NA,NA
audio-instructions,19,140743,0.0-5.1-0.1,voc_e2,12553,"[{""event"":""fullscreenenter"",""trial"":1,""time"":2110}]",NA,831,static/audio/instructions1.wav,NA,0,NA,NA,NA,NA,NA,NA,NA,NA,NA,NA,NA,NA,NA,NA,NA,NA,NA,NA,NA,NA,NA,NA,NA,NA,NA
audio-instructions,20,150161,0.0-5.1-1.1,voc_e2,12553,"[{""event"":""fullscreenenter"",""trial"":1,""time"":2110}]",NA,2675.000000000029,static/audio/instructions2.wav,NA,0,NA,NA,NA,NA,NA,NA,NA,NA,NA,NA,NA,NA,NA,NA,NA,NA,NA,NA,NA,NA,NA,NA,NA,NA,NA
audio-instructions,21,157659,0.0-5.1-2.1,voc_e2,12553,"[{""event"":""fullscreenenter"",""trial"":1,""time"":2110}]",NA,1693,static/audio/instructions3.wav,NA,0,NA,NA,NA,NA,NA,NA,NA,NA,NA,NA,NA,NA,NA,NA,NA,NA,NA,NA,NA,NA,NA,NA,NA,NA,NA
audio-instructions,22,172475,0.0-5.1-3.1,voc_e2,12553,"[{""event"":""fullscreenenter"",""trial"":1,""time"":2110}]",NA,1573,static/audio/instructions4.wav,NA,0,NA,NA,NA,NA,NA,NA,NA,NA,NA,NA,NA,NA,NA,NA,NA,NA,NA,NA,NA,NA,NA,NA,NA,NA,NA
audio-instructions,23,183345,0.0-5.1-4.1,voc_e2,12553,"[{""event"":""fullscreenenter"",""trial"":1,""time"":2110}]",NA,1474.000000000029,static/audio/instructions5.wav,NA,0,NA,NA,NA,NA,NA,NA,NA,NA,NA,NA,NA,NA,NA,NA,NA,NA,NA,NA,NA,NA,NA,NA,NA,NA,NA
fcp-practice,24,186764,0.0-5.1-5.1-0.1,voc_e2,12553,"[{""event"":""fullscreenenter"",""trial"":1,""time"":2110}]",NA,NA,NA,NA,NA,NA,#EDC948,#46d3c8,10,0,1,null,null,null,37,1,1906.999999999971,10,1,practice,NA,NA,NA,NA,NA,NA,NA,NA,NA,NA
fcp-practice,25,188305,0.0-5.1-5.1-1.1,voc_e2,12553,"[{""event"":""fullscreenenter"",""trial"":1,""time"":2110}]",NA,NA,NA,NA,NA,NA,#EDC948,#46d3c8,10,0,1,null,null,null,37,1,34,10,1,practice,NA,NA,NA,NA,NA,NA,NA,NA,NA,NA
fcp-practice,26,189882,0.0-5.1-5.1-2.1,voc_e2,12553,"[{""event"":""fullscreenenter"",""trial"":1,""time"":2110}]",NA,NA,NA,NA,NA,NA,#EDC948,#46d3c8,0,10,1,null,null,null,37,1,69,0,1,practice,NA,NA,NA,NA,NA,NA,NA,NA,NA,NA
fcp-practice,27,192310,0.0-5.1-5.1-3.1,voc_e2,12553,"[{""event"":""fullscreenenter"",""trial"":1,""time"":2110}]",NA,NA,NA,NA,NA,NA,#EDC948,#46d3c8,10,0,1,null,null,null,37,1,922,10,1,practice,NA,NA,NA,NA,NA,NA,NA,NA,NA,NA
fcp-practice,28,194104,0.0-5.1-5.1-4.1,voc_e2,12553,"[{""event"":""fullscreenenter"",""trial"":1,""time"":2110}]",NA,NA,NA,NA,NA,NA,#EDC948,#46d3c8,10,0,1,null,null,null,37,1,286,10,1,practice,NA,NA,NA,NA,NA,NA,NA,NA,NA,NA
audio-instructions,29,213646,0.0-5.1-6.1,voc_e2,12553,"[{""event"":""fullscreenenter"",""trial"":1,""time"":2110}]",NA,1522,static/audio/instructions6.wav,NA,0,NA,NA,NA,NA,NA,NA,NA,NA,NA,NA,NA,NA,NA,NA,NA,NA,NA,NA,NA,NA,NA,NA,NA,NA,NA
audio-instructions,30,234742,0.0-5.1-7.1,voc_e2,12553,"[{""event"":""fullscreenenter"",""trial"":1,""time"":2110}]",NA,1892,static/audio/instructions7.wav,NA,0,NA,NA,NA,NA,NA,NA,NA,NA,NA,NA,NA,NA,NA,NA,NA,NA,NA,NA,NA,NA,NA,NA,NA,NA,NA
audio-instructions,31,244710,0.0-5.1-8.1,voc_e2,12553,"[{""event"":""fullscreenenter"",""trial"":1,""time"":2110}]",NA,494,static/audio/instructions8.wav,NA,0,NA,NA,NA,NA,NA,NA,NA,NA,NA,NA,NA,NA,NA,NA,NA,NA,NA,NA,NA,NA,NA,NA,NA,NA,NA
fcp-comprehension,32,265048,0.0-5.1-9.1,voc_e2,12553,"[{""event"":""fullscreenenter"",""trial"":1,""time"":2110}]",NA,20337,NA,NA,NA,NA,NA,NA,NA,NA,NA,NA,NA,NA,NA,NA,NA,NA,NA,NA,"true,true",0,NA,NA,NA,NA,NA,NA,NA,NA
audio-instructions,33,273543,0.0-6.0-0.0,voc_e2,12553,"[{""event"":""fullscreenenter"",""trial"":1,""time"":2110}]",NA,2947,static/audio/instructions9.wav,NA,0,NA,NA,NA,NA,NA,NA,NA,NA,NA,NA,NA,NA,NA,NA,NA,NA,NA,NA,NA,NA,NA,NA,NA,NA,NA
audio-instructions,34,287027,0.0-6.0-1.0,voc_e2,12553,"[{""event"":""fullscreenenter"",""trial"":1,""time"":2110}]",NA,1362,static/audio/instructions10.wav,NA,0,NA,NA,NA,NA,NA,NA,NA,NA,NA,NA,NA,NA,NA,NA,NA,NA,NA,NA,NA,NA,NA,NA,NA,NA,NA
fcp-trial,35,302033,0.0-6.0-2.0,voc_e2,12553,"[{""event"":""fullscreenenter"",""trial"":1,""time"":2110}]",NA,NA,NA,NA,NA,0,#EDC948,#46d3c8,10,10,1,null,null,null,null,null,null,NA,0,practice,NA,NA,NA,NA,NA,NA,NA,NA,NA,NA
audio-instructions,36,314961,0.0-6.0-3.0,voc_e2,12553,"[{""event"":""fullscreenenter"",""trial"":1,""time"":2110}]",NA,1913.0000000000584,static/audio/instructions11.wav,NA,0,NA,NA,NA,NA,NA,NA,NA,NA,NA,NA,NA,NA,NA,NA,NA,NA,NA,NA,NA,NA,NA,NA,NA,NA,NA
fcp-trial,37,317860,0.0-6.0-4.0,voc_e2,12553,"[{""event"":""fullscreenenter"",""trial"":1,""time"":2110}]",NA,NA,NA,NA,NA,6,#EDC948,#46d3c8,10,10,1,40,0,418,39,0,973.0000000000582,10,0,practice,NA,NA,NA,NA,NA,NA,NA,NA,NA,NA
audio-instructions,38,339076,0.0-6.0-5.0,voc_e2,12553,"[{""event"":""fullscreenenter"",""trial"":1,""time"":2110}]",NA,2511,static/audio/instructions12.wav,NA,0,NA,NA,NA,NA,NA,NA,NA,NA,NA,NA,NA,NA,NA,NA,NA,NA,NA,NA,NA,NA,NA,NA,NA,NA,NA
audio-instructions,39,347492,0.0-6.0-6.0,voc_e2,12553,"[{""event"":""fullscreenenter"",""trial"":1,""time"":2110}]",NA,818,static/audio/instructions13.wav,NA,0,NA,NA,NA,NA,NA,NA,NA,NA,NA,NA,NA,NA,NA,NA,NA,NA,NA,NA,NA,NA,NA,NA,NA,NA,NA
audio-instructions,40,357060,0.0-6.0-7.0,voc_e2,12553,"[{""event"":""fullscreenenter"",""trial"":1,""time"":2110}]",NA,1116,static/audio/instructions14.wav,NA,0,NA,NA,NA,NA,NA,NA,NA,NA,NA,NA,NA,NA,NA,NA,NA,NA,NA,NA,NA,NA,NA,NA,NA,NA,NA
audio-instructions,41,365392,0.0-7.0-0.0,voc_e2,12553,"[{""event"":""fullscreenenter"",""trial"":1,""time"":2110}]",NA,1418,static/audio/instructions15.wav,NA,0,NA,NA,NA,NA,NA,NA,NA,NA,NA,NA,NA,NA,NA,NA,NA,NA,NA,NA,NA,NA,NA,NA,NA,NA,NA
audio-instructions,42,373426,0.0-7.0-1.0,voc_e2,12553,"[{""event"":""fullscreenenter"",""trial"":1,""time"":2110}]",NA,1202,static/audio/instructions16.wav,NA,0,NA,NA,NA,NA,NA,NA,NA,NA,NA,NA,NA,NA,NA,NA,NA,NA,NA,NA,NA,NA,NA,NA,NA,NA,NA
audio-instructions,43,382076,0.0-7.0-2.0,voc_e2,12553,"[{""event"":""fullscreenenter"",""trial"":1,""time"":2110}]",NA,966,static/audio/instructions17.wav,NA,0,NA,NA,NA,NA,NA,NA,NA,NA,NA,NA,NA,NA,NA,NA,NA,NA,NA,NA,NA,NA,NA,NA,NA,NA,NA
audio-instructions,44,390994,0.0-7.0-3.0,voc_e2,12553,"[{""event"":""fullscreenenter"",""trial"":1,""time"":2110}]",NA,1150.9999999999418,static/audio/instructions18.wav,NA,0,NA,NA,NA,NA,NA,NA,NA,NA,NA,NA,NA,NA,NA,NA,NA,NA,NA,NA,NA,NA,NA,NA,NA,NA,NA
audio-instructions,45,398594,0.0-7.0-4.0,voc_e2,12553,"[{""event"":""fullscreenenter"",""trial"":1,""time"":2110}]",NA,851.9999999999418,static/audio/instructions19.wav,NA,0,NA,NA,NA,NA,NA,NA,NA,NA,NA,NA,NA,NA,NA,NA,NA,NA,NA,NA,NA,NA,NA,NA,NA,NA,NA
fcp-comprehension,46,412409,0.0-7.0-5.0,voc_e2,12553,"[{""event"":""fullscreenenter"",""trial"":1,""time"":2110}]",NA,13813,NA,NA,NA,NA,NA,NA,NA,NA,NA,NA,NA,NA,NA,NA,NA,NA,NA,NA,"false,false,false,true",0,NA,NA,NA,NA,NA,NA,NA,NA
audio-instructions,47,423542,0.0-8.0,voc_e2,12553,"[{""event"":""fullscreenenter"",""trial"":1,""time"":2110}]",NA,1913,static/audio/ready.wav,NA,0,NA,NA,NA,NA,NA,NA,NA,NA,NA,NA,NA,NA,NA,NA,NA,NA,NA,NA,NA,NA,NA,NA,NA,NA,NA
fcp-trial,48,430127,0.0-9.0-0.0,voc_e2,12553,"[{""event"":""fullscreenenter"",""trial"":1,""time"":2110}]",NA,NA,NA,NA,NA,1,#3386FF,#D89F1C,10,10,0,38,1,3578.000000000058,37,1,1498,10,0,experiment,NA,NA,1,0.3,0.7,3,2,1,1,NA
fcp-trial,49,434965,0.0-10.0-0.0,voc_e2,12553,"[{""event"":""fullscreenenter"",""trial"":1,""time"":2110}]",NA,NA,NA,NA,NA,1,#FA92F8,#1CD855,10,10,0,38,1,2420,39,0,911,10,1,experiment,NA,NA,0,0.1,0.9,1,0,2,1,NA
fcp-trial,50,438004,0.0-11.0-0.0,voc_e2,12553,"[{""event"":""fullscreenenter"",""trial"":1,""time"":2110}]",NA,NA,NA,NA,NA,5,#3386FF,#D89F1C,0,0,0,38,1,855,39,0,676.0000000000582,0,1,experiment,NA,NA,1,0.3,0.7,3,2,3,1,NA
fcp-trial,51,440949,0.0-12.0-0.0,voc_e2,12553,"[{""event"":""fullscreenenter"",""trial"":1,""time"":2110}]",NA,NA,NA,NA,NA,6,#3386FF,#D89F1C,0,0,0,38,1,624,37,1,802,0,0,experiment,NA,NA,1,0.3,0.7,3,2,4,1,NA
fcp-trial,52,444221,0.0-13.0-0.0,voc_e2,12553,"[{""event"":""fullscreenenter"",""trial"":1,""time"":2110}]",NA,NA,NA,NA,NA,3,#D8271C,#741CD8,10,10,0,38,1,972,37,1,791,10,0,experiment,NA,NA,2,0.5,0.5,5,4,5,1,NA
fcp-trial,53,447708,0.0-14.0-0.0,voc_e2,12553,"[{""event"":""fullscreenenter"",""trial"":1,""time"":2110}]",NA,NA,NA,NA,NA,4,#D89F1C,#3386FF,10,10,1,38,1,609.0000000000582,39,0,1359,10,0,experiment,NA,NA,1,0.7,0.3,2,3,6,1,NA
fcp-trial,54,451183,0.0-15.0-0.0,voc_e2,12553,"[{""event"":""fullscreenenter"",""trial"":1,""time"":2110}]",NA,NA,NA,NA,NA,0,#1CD855,#FA92F8,10,0,1,38,1,1242,39,0,720.9999999999418,0,0,experiment,NA,NA,0,0.9,0.1,0,1,7,1,NA
fcp-trial,55,454058,0.0-16.0-0.0,voc_e2,12553,"[{""event"":""fullscreenenter"",""trial"":1,""time"":2110}]",NA,NA,NA,NA,NA,2,#1CD855,#FA92F8,10,0,1,38,1,908,37,1,446,10,1,experiment,NA,NA,0,0.9,0.1,0,1,8,1,NA
fcp-trial,56,456827,0.0-17.0-0.0,voc_e2,12553,"[{""event"":""fullscreenenter"",""trial"":1,""time"":2110}]",NA,NA,NA,NA,NA,0,#D8271C,#741CD8,10,0,0,38,1,631,37,1,632,10,0,experiment,NA,NA,2,0.5,0.5,5,4,9,1,NA
fcp-trial,57,459696,0.0-18.0-0.0,voc_e2,12553,"[{""event"":""fullscreenenter"",""trial"":1,""time"":2110}]",NA,NA,NA,NA,NA,2,#D89F1C,#3386FF,0,0,1,38,1,866.9999999999418,39,0,491.9999999999418,0,0,experiment,NA,NA,1,0.7,0.3,2,3,10,1,NA
fcp-trial,58,463211,0.0-19.0-0.0,voc_e2,12553,"[{""event"":""fullscreenenter"",""trial"":1,""time"":2110}]",NA,NA,NA,NA,NA,5,#FA92F8,#1CD855,0,10,0,38,1,1104,39,0,901,10,1,experiment,NA,NA,0,0.1,0.9,1,0,11,1,NA
fcp-trial,59,466244,0.0-20.0-0.0,voc_e2,12553,"[{""event"":""fullscreenenter"",""trial"":1,""time"":2110}]",NA,NA,NA,NA,NA,4,#FA92F8,#1CD855,0,10,0,38,1,751,39,0,775,10,1,experiment,NA,NA,0,0.1,0.9,1,0,12,1,NA
fcp-trial,60,469059,0.0-21.0-0.0,voc_e2,12553,"[{""event"":""fullscreenenter"",""trial"":1,""time"":2110}]",NA,NA,NA,NA,NA,5,#D8271C,#741CD8,0,0,0,38,1,732,37,1,574,0,0,experiment,NA,NA,2,0.5,0.5,5,4,13,1,NA
fcp-trial,61,471858,0.0-22.0-0.0,voc_e2,12553,"[{""event"":""fullscreenenter"",""trial"":1,""time"":2110}]",NA,NA,NA,NA,NA,0,#D89F1C,#3386FF,10,0,1,38,1,716,37,1,578,10,1,experiment,NA,NA,1,0.7,0.3,2,3,14,1,NA
fcp-trial,62,476022,0.0-23.0-0.0,voc_e2,12553,"[{""event"":""fullscreenenter"",""trial"":1,""time"":2110}]",NA,NA,NA,NA,NA,4,#741CD8,#D8271C,10,0,1,38,1,509,39,0,2147.000000000058,0,0,experiment,NA,NA,2,0.5,0.5,4,5,15,1,NA
fcp-trial,63,478665,0.0-24.0-0.0,voc_e2,12553,"[{""event"":""fullscreenenter"",""trial"":1,""time"":2110}]",NA,NA,NA,NA,NA,6,#D8271C,#741CD8,0,10,0,38,1,614,37,1,522,0,0,experiment,NA,NA,2,0.5,0.5,5,4,16,1,NA
fcp-trial,64,481683,0.0-25.0-0.0,voc_e2,12553,"[{""event"":""fullscreenenter"",""trial"":1,""time"":2110}]",NA,NA,NA,NA,NA,6,#1CD855,#FA92F8,0,0,1,38,1,632,37,1,851.9999999999418,0,1,experiment,NA,NA,0,0.9,0.1,0,1,17,1,NA
fcp-trial,65,484155,0.0-26.0-0.0,voc_e2,12553,"[{""event"":""fullscreenenter"",""trial"":1,""time"":2110}]",NA,NA,NA,NA,NA,3,#FA92F8,#1CD855,10,10,0,38,1,471,37,1,483,10,0,experiment,NA,NA,0,0.1,0.9,1,0,18,1,NA
fcp-trial,66,487711,0.0-27.0-0.0,voc_e2,12553,"[{""event"":""fullscreenenter"",""trial"":1,""time"":2110}]",NA,NA,NA,NA,NA,3,#3386FF,#D89F1C,0,10,0,38,1,866,37,1,1178.9999999999418,0,0,experiment,NA,NA,1,0.3,0.7,3,2,19,1,NA
fcp-trial,67,490387,0.0-28.0-0.0,voc_e2,12553,"[{""event"":""fullscreenenter"",""trial"":1,""time"":2110}]",NA,NA,NA,NA,NA,1,#D8271C,#741CD8,10,0,0,38,1,626,39,0,533,0,1,experiment,NA,NA,2,0.5,0.5,5,4,20,1,NA
fcp-trial,68,493913,0.0-29.0-0.0,voc_e2,12553,"[{""event"":""fullscreenenter"",""trial"":1,""time"":2110}]",NA,NA,NA,NA,NA,2,#D8271C,#741CD8,10,0,0,38,1,1362,37,1,653,10,0,experiment,NA,NA,2,0.5,0.5,5,4,21,1,NA
fcp-trial,69,496462,0.0-30.0-0.0,voc_e2,12553,"[{""event"":""fullscreenenter"",""trial"":1,""time"":2110}]",NA,NA,NA,NA,NA,6,#741CD8,#D8271C,0,0,1,38,1,640,39,0,389,0,0,experiment,NA,NA,2,0.5,0.5,4,5,22,1,NA
fcp-trial,70,499772,0.0-31.0-0.0,voc_e2,12553,"[{""event"":""fullscreenenter"",""trial"":1,""time"":2110}]",NA,NA,NA,NA,NA,4,#1CD855,#FA92F8,10,0,1,38,1,892,37,1,901.0000000000582,10,1,experiment,NA,NA,0,0.9,0.1,0,1,23,1,NA
fcp-trial,71,503124,0.0-32.0-0.0,voc_e2,12553,"[{""event"":""fullscreenenter"",""trial"":1,""time"":2110}]",NA,NA,NA,NA,NA,1,#FA92F8,#1CD855,0,10,0,38,1,1334,39,0,508,10,1,experiment,NA,NA,0,0.1,0.9,1,0,24,1,NA
fcp-trial,72,506778,0.0-33.0-0.0,voc_e2,12553,"[{""event"":""fullscreenenter"",""trial"":1,""time"":2110}]",NA,NA,NA,NA,NA,2,#FA92F8,#1CD855,0,10,0,38,1,1472,39,0,672,10,1,experiment,NA,NA,0,0.1,0.9,1,0,25,1,NA
fcp-trial,73,509958,0.0-34.0-0.0,voc_e2,12553,"[{""event"":""fullscreenenter"",""trial"":1,""time"":2110}]",NA,NA,NA,NA,NA,3,#3386FF,#D89F1C,10,10,0,38,1,1222,37,1,426.0000000000582,10,0,experiment,NA,NA,1,0.3,0.7,3,2,26,1,NA
fcp-trial,74,513171,0.0-35.0-0.0,voc_e2,12553,"[{""event"":""fullscreenenter"",""trial"":1,""time"":2110}]",NA,NA,NA,NA,NA,4,#D8271C,#741CD8,0,10,0,38,1,995,39,0,707.9999999999418,10,1,experiment,NA,NA,2,0.5,0.5,5,4,27,1,NA
fcp-trial,75,516385,0.0-36.0-0.0,voc_e2,12553,"[{""event"":""fullscreenenter"",""trial"":1,""time"":2110}]",NA,NA,NA,NA,NA,0,#FA92F8,#1CD855,0,10,0,38,1,790.9999999999418,39,0,913,10,1,experiment,NA,NA,0,0.1,0.9,1,0,28,1,NA
fcp-trial,76,519314,0.0-37.0-0.0,voc_e2,12553,"[{""event"":""fullscreenenter"",""trial"":1,""time"":2110}]",NA,NA,NA,NA,NA,3,#741CD8,#D8271C,0,10,1,40,0,935,37,1,484.0000000001164,0,1,experiment,NA,NA,2,0.5,0.5,4,5,29,1,NA
fcp-trial,77,523222,0.0-38.0-0.0,voc_e2,12553,"[{""event"":""fullscreenenter"",""trial"":1,""time"":2110}]",NA,NA,NA,NA,NA,4,#D89F1C,#3386FF,10,0,1,38,1,1601,39,0,784.9999999998836,0,0,experiment,NA,NA,1,0.7,0.3,2,3,30,1,NA
fcp-trial,78,526142,0.0-39.0-0.0,voc_e2,12553,"[{""event"":""fullscreenenter"",""trial"":1,""time"":2110}]",NA,NA,NA,NA,NA,5,#D8271C,#741CD8,0,0,0,38,1,1024,39,0,387.9999999998836,0,1,experiment,NA,NA,2,0.5,0.5,5,4,31,1,NA
fcp-trial,79,529174,0.0-40.0-0.0,voc_e2,12553,"[{""event"":""fullscreenenter"",""trial"":1,""time"":2110}]",NA,NA,NA,NA,NA,6,#1CD855,#FA92F8,0,0,1,38,1,929,37,1,584,0,1,experiment,NA,NA,0,0.9,0.1,0,1,32,1,NA
fcp-trial,80,531812,0.0-41.0-0.0,voc_e2,12553,"[{""event"":""fullscreenenter"",""trial"":1,""time"":2110}]",NA,NA,NA,NA,NA,1,#D8271C,#741CD8,10,0,0,38,1,657.9999999998836,37,1,470,10,0,experiment,NA,NA,2,0.5,0.5,5,4,33,1,NA
fcp-trial,81,534120,0.0-42.0-0.0,voc_e2,12553,"[{""event"":""fullscreenenter"",""trial"":1,""time"":2110}]",NA,NA,NA,NA,NA,1,#D89F1C,#3386FF,0,0,1,38,1,455,37,1,333,0,1,experiment,NA,NA,1,0.7,0.3,2,3,34,1,NA
fcp-trial,82,536728,0.0-43.0-0.0,voc_e2,12553,"[{""event"":""fullscreenenter"",""trial"":1,""time"":2110}]",NA,NA,NA,NA,NA,3,#FA92F8,#1CD855,0,10,0,38,1,473.9999999998836,39,0,624,10,1,experiment,NA,NA,0,0.1,0.9,1,0,35,1,NA
fcp-trial,83,539190,0.0-44.0-0.0,voc_e2,12553,"[{""event"":""fullscreenenter"",""trial"":1,""time"":2110}]",NA,NA,NA,NA,NA,5,#3386FF,#D89F1C,10,10,0,38,1,383,37,1,558,10,0,experiment,NA,NA,1,0.3,0.7,3,2,36,1,NA
fcp-trial,84,541627,0.0-45.0-0.0,voc_e2,12553,"[{""event"":""fullscreenenter"",""trial"":1,""time"":2110}]",NA,NA,NA,NA,NA,2,#D8271C,#741CD8,10,0,0,38,1,475,37,1,453,10,0,experiment,NA,NA,2,0.5,0.5,5,4,37,1,NA
fcp-trial,85,544236,0.0-46.0-0.0,voc_e2,12553,"[{""event"":""fullscreenenter"",""trial"":1,""time"":2110}]",NA,NA,NA,NA,NA,6,#D89F1C,#3386FF,10,10,1,38,1,725,39,0,365,10,0,experiment,NA,NA,1,0.7,0.3,2,3,38,1,NA
fcp-trial,86,547134,0.0-47.0-0.0,voc_e2,12553,"[{""event"":""fullscreenenter"",""trial"":1,""time"":2110}]",NA,NA,NA,NA,NA,5,#FA92F8,#1CD855,0,10,0,38,1,724,39,0,665,10,1,experiment,NA,NA,0,0.1,0.9,1,0,39,1,NA
fcp-trial,87,549626,0.0-48.0-0.0,voc_e2,12553,"[{""event"":""fullscreenenter"",""trial"":1,""time"":2110}]",NA,NA,NA,NA,NA,0,#741CD8,#D8271C,0,10,1,38,1,461,37,1,520.9999999998836,0,1,experiment,NA,NA,2,0.5,0.5,4,5,40,1,NA
fcp-trial,88,551978,0.0-49.0-0.0,voc_e2,12553,"[{""event"":""fullscreenenter"",""trial"":1,""time"":2110}]",NA,NA,NA,NA,NA,0,#D89F1C,#3386FF,10,0,1,38,1,320,39,0,522.9999999998836,0,0,experiment,NA,NA,1,0.7,0.3,2,3,41,1,NA
fcp-trial,89,555987,0.0-50.0-0.0,voc_e2,12553,"[{""event"":""fullscreenenter"",""trial"":1,""time"":2110}]",NA,NA,NA,NA,NA,2,#D89F1C,#3386FF,10,0,1,40,0,1742,37,1,747,10,1,experiment,NA,NA,1,0.7,0.3,2,3,42,1,NA
fcp-trial,90,558868,0.0-51.0-0.0,voc_e2,12553,"[{""event"":""fullscreenenter"",""trial"":1,""time"":2110}]",NA,NA,NA,NA,NA,3,#D8271C,#741CD8,0,10,0,40,0,724,39,0,649,10,1,experiment,NA,NA,2,0.5,0.5,5,4,43,1,NA
fcp-trial,91,561318,0.0-52.0-0.0,voc_e2,12553,"[{""event"":""fullscreenenter"",""trial"":1,""time"":2110}]",NA,NA,NA,NA,NA,6,#FA92F8,#1CD855,0,10,0,40,0,386,39,0,557,10,1,experiment,NA,NA,0,0.1,0.9,1,0,44,1,NA
fcp-trial,92,564203,0.0-53.0-0.0,voc_e2,12553,"[{""event"":""fullscreenenter"",""trial"":1,""time"":2110}]",NA,NA,NA,NA,NA,6,#D8271C,#741CD8,0,10,0,40,0,403.0000000001164,37,1,974,0,0,experiment,NA,NA,2,0.5,0.5,5,4,45,1,NA
fcp-trial,93,567141,0.0-54.0-0.0,voc_e2,12553,"[{""event"":""fullscreenenter"",""trial"":1,""time"":2110}]",NA,NA,NA,NA,NA,5,#3386FF,#D89F1C,0,10,0,38,1,859,39,0,570,10,1,experiment,NA,NA,1,0.3,0.7,3,2,46,2,NA
fcp-trial,94,570101,0.0-55.0-0.0,voc_e2,12553,"[{""event"":""fullscreenenter"",""trial"":1,""time"":2110}]",NA,NA,NA,NA,NA,0,#1CD855,#FA92F8,10,0,1,40,0,774,37,1,678,10,1,experiment,NA,NA,0,0.9,0.1,0,1,47,2,NA
fcp-trial,95,572980,0.0-56.0-0.0,voc_e2,12553,"[{""event"":""fullscreenenter"",""trial"":1,""time"":2110}]",NA,NA,NA,NA,NA,1,#D89F1C,#3386FF,10,0,1,40,0,882,39,0,490,0,0,experiment,NA,NA,1,0.7,0.3,2,3,48,2,NA
fcp-trial,96,575636,0.0-57.0-0.0,voc_e2,12553,"[{""event"":""fullscreenenter"",""trial"":1,""time"":2110}]",NA,NA,NA,NA,NA,2,#741CD8,#D8271C,0,10,1,38,1,692,37,1,443,0,1,experiment,NA,NA,2,0.5,0.5,4,5,49,2,NA
fcp-trial,97,578403,0.0-58.0-0.0,voc_e2,12553,"[{""event"":""fullscreenenter"",""trial"":1,""time"":2110}]",NA,NA,NA,NA,NA,0,#D89F1C,#3386FF,10,10,1,38,1,728,39,0,533,10,0,experiment,NA,NA,1,0.7,0.3,2,3,50,2,NA
fcp-trial,98,581113,0.0-59.0-0.0,voc_e2,12553,"[{""event"":""fullscreenenter"",""trial"":1,""time"":2110}]",NA,NA,NA,NA,NA,3,#1CD855,#FA92F8,10,0,1,38,1,560,37,1,643,10,1,experiment,NA,NA,0,0.9,0.1,0,1,51,2,NA
fcp-trial,99,583727,0.0-60.0-0.0,voc_e2,12553,"[{""event"":""fullscreenenter"",""trial"":1,""time"":2110}]",NA,NA,NA,NA,NA,0,#D8271C,#741CD8,0,10,0,40,0,421,39,0,673,10,1,experiment,NA,NA,2,0.5,0.5,5,4,52,2,NA
fcp-trial,100,586669,0.0-61.0-0.0,voc_e2,12553,"[{""event"":""fullscreenenter"",""trial"":1,""time"":2110}]",NA,NA,NA,NA,NA,1,#D8271C,#741CD8,0,0,0,38,1,1073,39,0,358,0,1,experiment,NA,NA,2,0.5,0.5,5,4,53,2,NA
fcp-trial,101,589351,0.0-62.0-0.0,voc_e2,12553,"[{""event"":""fullscreenenter"",""trial"":1,""time"":2110}]",NA,NA,NA,NA,NA,3,#3386FF,#D89F1C,10,10,0,38,1,807,37,1,365.0000000001164,10,0,experiment,NA,NA,1,0.3,0.7,3,2,54,2,NA
fcp-trial,102,592050,0.0-63.0-0.0,voc_e2,12553,"[{""event"":""fullscreenenter"",""trial"":1,""time"":2110}]",NA,NA,NA,NA,NA,1,#FA92F8,#1CD855,0,10,0,38,1,530,37,1,663,0,0,experiment,NA,NA,0,0.1,0.9,1,0,55,2,NA
fcp-trial,103,594773,0.0-64.0-0.0,voc_e2,12553,"[{""event"":""fullscreenenter"",""trial"":1,""time"":2110}]",NA,NA,NA,NA,NA,5,#D8271C,#741CD8,0,0,0,40,0,666,37,1,550,0,0,experiment,NA,NA,2,0.5,0.5,5,4,56,2,NA
fcp-trial,104,597380,0.0-65.0-0.0,voc_e2,12553,"[{""event"":""fullscreenenter"",""trial"":1,""time"":2110}]",NA,NA,NA,NA,NA,4,#3386FF,#D89F1C,10,10,0,38,1,749.0000000001164,37,1,349,10,0,experiment,NA,NA,1,0.3,0.7,3,2,57,2,NA
fcp-trial,105,599793,0.0-66.0-0.0,voc_e2,12553,"[{""event"":""fullscreenenter"",""trial"":1,""time"":2110}]",NA,NA,NA,NA,NA,4,#1CD855,#FA92F8,10,0,1,38,1,446,39,0,448,0,0,experiment,NA,NA,0,0.9,0.1,0,1,58,2,NA
fcp-trial,106,602563,0.0-67.0-0.0,voc_e2,12553,"[{""event"":""fullscreenenter"",""trial"":1,""time"":2110}]",NA,NA,NA,NA,NA,4,#D8271C,#741CD8,0,10,0,38,1,570,39,0,676,10,1,experiment,NA,NA,2,0.5,0.5,5,4,59,2,NA
fcp-trial,107,604869,0.0-68.0-0.0,voc_e2,12553,"[{""event"":""fullscreenenter"",""trial"":1,""time"":2110}]",NA,NA,NA,NA,NA,2,#D89F1C,#3386FF,10,0,1,38,1,370,39,0,414,0,0,experiment,NA,NA,1,0.7,0.3,2,3,60,2,NA
fcp-trial,108,608172,0.0-69.0-0.0,voc_e2,12553,"[{""event"":""fullscreenenter"",""trial"":1,""time"":2110}]",NA,NA,NA,NA,NA,6,#3386FF,#D89F1C,0,0,0,40,0,1075.9999999998836,39,0,721,0,1,experiment,NA,NA,1,0.3,0.7,3,2,61,2,NA
fcp-trial,109,611218,0.0-70.0-0.0,voc_e2,12553,"[{""event"":""fullscreenenter"",""trial"":1,""time"":2110}]",NA,NA,NA,NA,NA,2,#1CD855,#FA92F8,10,0,1,38,1,1156,37,1,383,10,1,experiment,NA,NA,0,0.9,0.1,0,1,62,2,NA
fcp-trial,110,614037,0.0-71.0-0.0,voc_e2,12553,"[{""event"":""fullscreenenter"",""trial"":1,""time"":2110}]",NA,NA,NA,NA,NA,5,#FA92F8,#1CD855,0,10,0,40,0,608.9999999998836,39,0,702,10,1,experiment,NA,NA,0,0.1,0.9,1,0,63,2,NA
fcp-trial,111,618018,0.0-72.0-0.0,voc_e2,12553,"[{""event"":""fullscreenenter"",""trial"":1,""time"":2110}]",NA,NA,NA,NA,NA,0,#741CD8,#D8271C,0,0,1,38,1,1124,37,1,1348,0,1,experiment,NA,NA,2,0.5,0.5,4,5,64,2,NA
fcp-trial,112,620518,0.0-73.0-0.0,voc_e2,12553,"[{""event"":""fullscreenenter"",""trial"":1,""time"":2110}]",NA,NA,NA,NA,NA,2,#1CD855,#FA92F8,10,0,1,38,1,618.9999999998836,37,1,376,10,1,experiment,NA,NA,0,0.9,0.1,0,1,65,2,NA
fcp-trial,113,623847,0.0-74.0-0.0,voc_e2,12553,"[{""event"":""fullscreenenter"",""trial"":1,""time"":2110}]",NA,NA,NA,NA,NA,4,#D89F1C,#3386FF,0,10,1,38,1,1562,39,0,258,10,0,experiment,NA,NA,1,0.7,0.3,2,3,66,2,NA
fcp-trial,114,626667,0.0-75.0-0.0,voc_e2,12553,"[{""event"":""fullscreenenter"",""trial"":1,""time"":2110}]",NA,NA,NA,NA,NA,5,#D8271C,#741CD8,0,0,0,40,0,704,39,0,599,0,1,experiment,NA,NA,2,0.5,0.5,5,4,67,2,NA
fcp-trial,115,629319,0.0-76.0-0.0,voc_e2,12553,"[{""event"":""fullscreenenter"",""trial"":1,""time"":2110}]",NA,NA,NA,NA,NA,0,#1CD855,#FA92F8,10,0,1,38,1,613,37,1,532,10,1,experiment,NA,NA,0,0.9,0.1,0,1,68,2,NA
fcp-trial,116,633002,0.0-77.0-0.0,voc_e2,12553,"[{""event"":""fullscreenenter"",""trial"":1,""time"":2110}]",NA,NA,NA,NA,NA,4,#1CD855,#FA92F8,0,0,1,38,1,1724.0000000001164,39,0,450,0,0,experiment,NA,NA,0,0.9,0.1,0,1,69,2,NA
fcp-trial,117,635774,0.0-78.0-0.0,voc_e2,12553,"[{""event"":""fullscreenenter"",""trial"":1,""time"":2110}]",NA,NA,NA,NA,NA,0,#3386FF,#D89F1C,0,10,0,38,1,883,37,1,381,0,0,experiment,NA,NA,1,0.3,0.7,3,2,70,2,NA
fcp-trial,118,638336,0.0-79.0-0.0,voc_e2,12553,"[{""event"":""fullscreenenter"",""trial"":1,""time"":2110}]",NA,NA,NA,NA,NA,3,#D89F1C,#3386FF,0,10,1,40,0,388,37,1,667,0,1,experiment,NA,NA,1,0.7,0.3,2,3,71,2,NA
fcp-trial,119,641318,0.0-80.0-0.0,voc_e2,12553,"[{""event"":""fullscreenenter"",""trial"":1,""time"":2110}]",NA,NA,NA,NA,NA,6,#741CD8,#D8271C,10,0,1,40,0,825,37,1,648,10,1,experiment,NA,NA,2,0.5,0.5,4,5,72,2,NA
fcp-trial,120,644903,0.0-81.0-0.0,voc_e2,12553,"[{""event"":""fullscreenenter"",""trial"":1,""time"":2110}]",NA,NA,NA,NA,NA,5,#1CD855,#FA92F8,10,0,1,38,1,1060,39,0,1018,0,0,experiment,NA,NA,0,0.9,0.1,0,1,73,2,NA
fcp-trial,121,647514,0.0-82.0-0.0,voc_e2,12553,"[{""event"":""fullscreenenter"",""trial"":1,""time"":2110}]",NA,NA,NA,NA,NA,6,#FA92F8,#1CD855,0,10,0,40,0,496,37,1,606,0,0,experiment,NA,NA,0,0.1,0.9,1,0,74,2,NA
fcp-trial,122,649893,0.0-83.0-0.0,voc_e2,12553,"[{""event"":""fullscreenenter"",""trial"":1,""time"":2110}]",NA,NA,NA,NA,NA,5,#3386FF,#D89F1C,0,0,0,38,1,490.9999999998836,37,1,368,0,0,experiment,NA,NA,1,0.3,0.7,3,2,75,2,NA
fcp-trial,123,652241,0.0-84.0-0.0,voc_e2,12553,"[{""event"":""fullscreenenter"",""trial"":1,""time"":2110}]",NA,NA,NA,NA,NA,6,#3386FF,#D89F1C,0,10,0,40,0,279,37,1,539,0,0,experiment,NA,NA,1,0.3,0.7,3,2,76,2,NA
fcp-trial,124,654891,0.0-85.0-0.0,voc_e2,12553,"[{""event"":""fullscreenenter"",""trial"":1,""time"":2110}]",NA,NA,NA,NA,NA,1,#741CD8,#D8271C,0,10,1,38,1,659,37,1,482,0,1,experiment,NA,NA,2,0.5,0.5,4,5,77,2,NA
fcp-trial,125,657520,0.0-86.0-0.0,voc_e2,12553,"[{""event"":""fullscreenenter"",""trial"":1,""time"":2110}]",NA,NA,NA,NA,NA,4,#D8271C,#741CD8,10,10,0,38,1,667,37,1,449,10,0,experiment,NA,NA,2,0.5,0.5,5,4,78,2,NA
fcp-trial,126,660407,0.0-87.0-0.0,voc_e2,12553,"[{""event"":""fullscreenenter"",""trial"":1,""time"":2110}]",NA,NA,NA,NA,NA,3,#FA92F8,#1CD855,0,10,0,38,1,497,39,0,882,10,1,experiment,NA,NA,0,0.1,0.9,1,0,79,2,NA
fcp-trial,127,662961,0.0-88.0-0.0,voc_e2,12553,"[{""event"":""fullscreenenter"",""trial"":1,""time"":2110}]",NA,NA,NA,NA,NA,2,#D8271C,#741CD8,0,0,0,38,1,523,39,0,525,0,1,experiment,NA,NA,2,0.5,0.5,5,4,80,2,NA
fcp-trial,128,665509,0.0-89.0-0.0,voc_e2,12553,"[{""event"":""fullscreenenter"",""trial"":1,""time"":2110}]",NA,NA,NA,NA,NA,1,#D89F1C,#3386FF,10,0,1,38,1,623.0000000001164,39,0,404,0,0,experiment,NA,NA,1,0.7,0.3,2,3,81,2,NA
fcp-trial,129,667953,0.0-90.0-0.0,voc_e2,12553,"[{""event"":""fullscreenenter"",""trial"":1,""time"":2110}]",NA,NA,NA,NA,NA,1,#1CD855,#FA92F8,10,0,1,38,1,371,37,1,568.0000000001164,10,1,experiment,NA,NA,0,0.9,0.1,0,1,82,2,NA
fcp-trial,130,670785,0.0-91.0-0.0,voc_e2,12553,"[{""event"":""fullscreenenter"",""trial"":1,""time"":2110}]",NA,NA,NA,NA,NA,2,#D89F1C,#3386FF,10,10,1,38,1,443,37,1,879.9999999998836,10,1,experiment,NA,NA,1,0.7,0.3,2,3,83,2,NA
fcp-trial,131,673018,0.0-92.0-0.0,voc_e2,12553,"[{""event"":""fullscreenenter"",""trial"":1,""time"":2110}]",NA,NA,NA,NA,NA,3,#741CD8,#D8271C,10,10,1,38,1,225,39,0,497,10,0,experiment,NA,NA,2,0.5,0.5,4,5,84,2,NA
fcp-trial,132,675513,0.0-93.0-0.0,voc_e2,12553,"[{""event"":""fullscreenenter"",""trial"":1,""time"":2110}]",NA,NA,NA,NA,NA,0,#D89F1C,#3386FF,0,0,1,38,1,476,39,0,509,0,0,experiment,NA,NA,1,0.7,0.3,2,3,85,2,NA
fcp-trial,133,678102,0.0-94.0-0.0,voc_e2,12553,"[{""event"":""fullscreenenter"",""trial"":1,""time"":2110}]",NA,NA,NA,NA,NA,2,#D8271C,#741CD8,0,0,0,38,1,507,37,1,566.0000000001164,0,0,experiment,NA,NA,2,0.5,0.5,5,4,86,2,NA
fcp-trial,134,680701,0.0-95.0-0.0,voc_e2,12553,"[{""event"":""fullscreenenter"",""trial"":1,""time"":2110}]",NA,NA,NA,NA,NA,4,#1CD855,#FA92F8,10,0,1,38,1,677,37,1,415,10,1,experiment,NA,NA,0,0.9,0.1,0,1,87,2,NA
fcp-trial,135,683187,0.0-96.0-0.0,voc_e2,12553,"[{""event"":""fullscreenenter"",""trial"":1,""time"":2110}]",NA,NA,NA,NA,NA,2,#1CD855,#FA92F8,10,0,1,38,1,519,37,1,459.9999999998836,10,1,experiment,NA,NA,0,0.9,0.1,0,1,88,2,NA
fcp-trial,136,685769,0.0-97.0-0.0,voc_e2,12553,"[{""event"":""fullscreenenter"",""trial"":1,""time"":2110}]",NA,NA,NA,NA,NA,0,#1CD855,#FA92F8,10,0,1,38,1,741,37,1,333,10,1,experiment,NA,NA,0,0.9,0.1,0,1,89,2,NA
fcp-trial,137,688463,0.0-98.0-0.0,voc_e2,12553,"[{""event"":""fullscreenenter"",""trial"":1,""time"":2110}]",NA,NA,NA,NA,NA,2,#D89F1C,#3386FF,10,0,1,40,0,625,37,1,559,10,1,experiment,NA,NA,1,0.7,0.3,2,3,90,2,NA
fcp-trial,138,691218,0.0-99.0-0.0,voc_e2,12553,"[{""event"":""fullscreenenter"",""trial"":1,""time"":2110}]",NA,NA,NA,NA,NA,1,#D8271C,#741CD8,0,10,0,40,0,683,39,0,563.9999999998836,10,1,experiment,NA,NA,2,0.5,0.5,5,4,91,3,NA
fcp-trial,139,693903,0.0-100.0-0.0,voc_e2,12553,"[{""event"":""fullscreenenter"",""trial"":1,""time"":2110}]",NA,NA,NA,NA,NA,1,#1CD855,#FA92F8,10,0,1,38,1,711,37,1,467,10,1,experiment,NA,NA,0,0.9,0.1,0,1,92,3,NA
fcp-trial,140,696952,0.0-101.0-0.0,voc_e2,12553,"[{""event"":""fullscreenenter"",""trial"":1,""time"":2110}]",NA,NA,NA,NA,NA,5,#D8271C,#741CD8,0,0,0,38,1,597,37,1,944.0000000001164,0,0,experiment,NA,NA,2,0.5,0.5,5,4,93,3,NA
fcp-trial,141,699689,0.0-102.0-0.0,voc_e2,12553,"[{""event"":""fullscreenenter"",""trial"":1,""time"":2110}]",NA,NA,NA,NA,NA,5,#D89F1C,#3386FF,10,0,1,38,1,752,39,0,475,0,0,experiment,NA,NA,1,0.7,0.3,2,3,94,3,NA
fcp-trial,142,702411,0.0-103.0-0.0,voc_e2,12553,"[{""event"":""fullscreenenter"",""trial"":1,""time"":2110}]",NA,NA,NA,NA,NA,0,#741CD8,#D8271C,10,10,1,40,0,438,37,1,775,10,1,experiment,NA,NA,2,0.5,0.5,4,5,95,3,NA
fcp-trial,143,705035,0.0-104.0-0.0,voc_e2,12553,"[{""event"":""fullscreenenter"",""trial"":1,""time"":2110}]",NA,NA,NA,NA,NA,5,#FA92F8,#1CD855,0,10,0,40,0,574.9999999998836,37,1,532,0,0,experiment,NA,NA,0,0.1,0.9,1,0,96,3,NA
fcp-trial,144,707734,0.0-105.0-0.0,voc_e2,12553,"[{""event"":""fullscreenenter"",""trial"":1,""time"":2110}]",NA,NA,NA,NA,NA,3,#D89F1C,#3386FF,0,0,1,38,1,662.9999999998836,37,1,528,0,1,experiment,NA,NA,1,0.7,0.3,2,3,97,3,NA
fcp-trial,145,710270,0.0-106.0-0.0,voc_e2,12553,"[{""event"":""fullscreenenter"",""trial"":1,""time"":2110}]",NA,NA,NA,NA,NA,1,#3386FF,#D89F1C,10,0,0,38,1,661,39,0,367,0,1,experiment,NA,NA,1,0.3,0.7,3,2,98,3,NA
fcp-trial,146,713069,0.0-107.0-0.0,voc_e2,12553,"[{""event"":""fullscreenenter"",""trial"":1,""time"":2110}]",NA,NA,NA,NA,NA,6,#FA92F8,#1CD855,0,10,0,38,1,591,39,0,701,10,1,experiment,NA,NA,0,0.1,0.9,1,0,99,3,NA
fcp-trial,147,715969,0.0-108.0-0.0,voc_e2,12553,"[{""event"":""fullscreenenter"",""trial"":1,""time"":2110}]",NA,NA,NA,NA,NA,4,#741CD8,#D8271C,0,10,1,38,1,683,37,1,710,0,1,experiment,NA,NA,2,0.5,0.5,4,5,100,3,NA
fcp-trial,148,718401,0.0-109.0-0.0,voc_e2,12553,"[{""event"":""fullscreenenter"",""trial"":1,""time"":2110}]",NA,NA,NA,NA,NA,3,#D8271C,#741CD8,0,0,0,40,0,363,37,1,563,0,0,experiment,NA,NA,2,0.5,0.5,5,4,101,3,NA
fcp-trial,149,721142,0.0-110.0-0.0,voc_e2,12553,"[{""event"":""fullscreenenter"",""trial"":1,""time"":2110}]",NA,NA,NA,NA,NA,6,#D89F1C,#3386FF,0,10,1,40,0,588,39,0,644,10,0,experiment,NA,NA,1,0.7,0.3,2,3,102,3,NA
fcp-trial,150,723618,0.0-111.0-0.0,voc_e2,12553,"[{""event"":""fullscreenenter"",""trial"":1,""time"":2110}]",NA,NA,NA,NA,NA,3,#1CD855,#FA92F8,10,0,1,38,1,481,39,0,477.0000000001164,0,0,experiment,NA,NA,0,0.9,0.1,0,1,103,3,NA
fcp-trial,151,725986,0.0-112.0-0.0,voc_e2,12553,"[{""event"":""fullscreenenter"",""trial"":1,""time"":2110}]",NA,NA,NA,NA,NA,6,#D8271C,#741CD8,0,10,0,38,1,466,37,1,395,0,0,experiment,NA,NA,2,0.5,0.5,5,4,104,3,NA
fcp-trial,152,728418,0.0-113.0-0.0,voc_e2,12553,"[{""event"":""fullscreenenter"",""trial"":1,""time"":2110}]",NA,NA,NA,NA,NA,4,#3386FF,#D89F1C,0,0,0,38,1,426,39,0,499,0,1,experiment,NA,NA,1,0.3,0.7,3,2,105,3,NA
audio-instructions,153,811954,0.0-114.0,voc_e2,12553,"[{""event"":""fullscreenenter"",""trial"":1,""time"":2110},{""event"":""blur"",""trial"":153,""time"":743712},{""event"":""focus"",""trial"":153,""time"":808083}]",NA,79096,static/audio/pause.wav,NA,0,NA,NA,NA,NA,NA,NA,NA,NA,NA,NA,NA,NA,NA,NA,NA,NA,NA,NA,NA,NA,NA,NA,NA,NA,NA
fcp-trial,154,815218,0.0-115.0-0.0,voc_e2,12553,"[{""event"":""fullscreenenter"",""trial"":1,""time"":2110},{""event"":""blur"",""trial"":153,""time"":743712},{""event"":""focus"",""trial"":153,""time"":808083}]",NA,NA,NA,NA,NA,3,#D89F1C,#3386FF,10,0,1,38,1,1365,37,1,394,10,1,experiment,NA,NA,1,0.7,0.3,2,3,106,3,NA
fcp-trial,155,817908,0.0-116.0-0.0,voc_e2,12553,"[{""event"":""fullscreenenter"",""trial"":1,""time"":2110},{""event"":""blur"",""trial"":153,""time"":743712},{""event"":""focus"",""trial"":153,""time"":808083}]",NA,NA,NA,NA,NA,1,#3386FF,#D89F1C,0,10,0,40,0,683.0000000001164,39,0,499,10,1,experiment,NA,NA,1,0.3,0.7,3,2,107,3,NA
fcp-trial,156,820224,0.0-117.0-0.0,voc_e2,12553,"[{""event"":""fullscreenenter"",""trial"":1,""time"":2110},{""event"":""blur"",""trial"":153,""time"":743712},{""event"":""focus"",""trial"":153,""time"":808083}]",NA,NA,NA,NA,NA,5,#741CD8,#D8271C,10,10,1,40,0,304,39,0,502.9999999998836,10,0,experiment,NA,NA,2,0.5,0.5,4,5,108,3,NA
fcp-trial,157,822928,0.0-118.0-0.0,voc_e2,12553,"[{""event"":""fullscreenenter"",""trial"":1,""time"":2110},{""event"":""blur"",""trial"":153,""time"":743712},{""event"":""focus"",""trial"":153,""time"":808083}]",NA,NA,NA,NA,NA,2,#D89F1C,#3386FF,10,0,1,38,1,668,37,1,524,10,1,experiment,NA,NA,1,0.7,0.3,2,3,109,3,NA
fcp-trial,158,825386,0.0-119.0-0.0,voc_e2,12553,"[{""event"":""fullscreenenter"",""trial"":1,""time"":2110},{""event"":""blur"",""trial"":153,""time"":743712},{""event"":""focus"",""trial"":153,""time"":808083}]",NA,NA,NA,NA,NA,5,#1CD855,#FA92F8,10,10,1,40,0,505,37,1,434,10,1,experiment,NA,NA,0,0.9,0.1,0,1,110,3,NA
fcp-trial,159,828224,0.0-120.0-0.0,voc_e2,12553,"[{""event"":""fullscreenenter"",""trial"":1,""time"":2110},{""event"":""blur"",""trial"":153,""time"":743712},{""event"":""focus"",""trial"":153,""time"":808083}]",NA,NA,NA,NA,NA,6,#1CD855,#FA92F8,10,0,1,38,1,943,37,1,382.9999999998836,10,1,experiment,NA,NA,0,0.9,0.1,0,1,111,3,NA
fcp-trial,160,831513,0.0-121.0-0.0,voc_e2,12553,"[{""event"":""fullscreenenter"",""trial"":1,""time"":2110},{""event"":""blur"",""trial"":153,""time"":743712},{""event"":""focus"",""trial"":153,""time"":808083}]",NA,NA,NA,NA,NA,2,#1CD855,#FA92F8,10,0,1,38,1,987,37,1,791.9999999998836,10,1,experiment,NA,NA,0,0.9,0.1,0,1,112,3,NA
fcp-trial,161,834105,0.0-122.0-0.0,voc_e2,12553,"[{""event"":""fullscreenenter"",""trial"":1,""time"":2110},{""event"":""blur"",""trial"":153,""time"":743712},{""event"":""focus"",""trial"":153,""time"":808083}]",NA,NA,NA,NA,NA,3,#D8271C,#741CD8,0,10,0,38,1,606,39,0,466.9999999998836,10,1,experiment,NA,NA,2,0.5,0.5,5,4,113,3,NA
fcp-trial,162,836618,0.0-123.0-0.0,voc_e2,12553,"[{""event"":""fullscreenenter"",""trial"":1,""time"":2110},{""event"":""blur"",""trial"":153,""time"":743712},{""event"":""focus"",""trial"":153,""time"":808083}]",NA,NA,NA,NA,NA,6,#3386FF,#D89F1C,0,10,0,38,1,549.0000000001164,39,0,455.0000000001164,10,1,experiment,NA,NA,1,0.3,0.7,3,2,114,3,NA
fcp-trial,163,839451,0.0-124.0-0.0,voc_e2,12553,"[{""event"":""fullscreenenter"",""trial"":1,""time"":2110},{""event"":""blur"",""trial"":153,""time"":743712},{""event"":""focus"",""trial"":153,""time"":808083}]",NA,NA,NA,NA,NA,4,#741CD8,#D8271C,10,10,1,38,1,783,37,1,543,10,1,experiment,NA,NA,2,0.5,0.5,4,5,115,3,NA
fcp-trial,164,842527,0.0-125.0-0.0,voc_e2,12553,"[{""event"":""fullscreenenter"",""trial"":1,""time"":2110},{""event"":""blur"",""trial"":153,""time"":743712},{""event"":""focus"",""trial"":153,""time"":808083}]",NA,NA,NA,NA,NA,4,#3386FF,#D89F1C,0,10,0,38,1,1126,37,1,438,0,0,experiment,NA,NA,1,0.3,0.7,3,2,116,3,NA
fcp-trial,165,846426,0.0-126.0-0.0,voc_e2,12553,"[{""event"":""fullscreenenter"",""trial"":1,""time"":2110},{""event"":""blur"",""trial"":153,""time"":743712},{""event"":""focus"",""trial"":153,""time"":808083}]",NA,NA,NA,NA,NA,1,#1CD855,#FA92F8,0,0,1,38,1,1811,39,0,565,0,0,experiment,NA,NA,0,0.9,0.1,0,1,117,3,NA
fcp-trial,166,848968,0.0-127.0-0.0,voc_e2,12553,"[{""event"":""fullscreenenter"",""trial"":1,""time"":2110},{""event"":""blur"",""trial"":153,""time"":743712},{""event"":""focus"",""trial"":153,""time"":808083}]",NA,NA,NA,NA,NA,6,#D8271C,#741CD8,0,10,0,40,0,390.0000000001164,37,1,633.0000000001164,0,0,experiment,NA,NA,2,0.5,0.5,5,4,118,3,NA
fcp-trial,167,852159,0.0-128.0-0.0,voc_e2,12553,"[{""event"":""fullscreenenter"",""trial"":1,""time"":2110},{""event"":""blur"",""trial"":153,""time"":743712},{""event"":""focus"",""trial"":153,""time"":808083}]",NA,NA,NA,NA,NA,4,#1CD855,#FA92F8,10,10,1,38,1,710,37,1,973,10,1,experiment,NA,NA,0,0.9,0.1,0,1,119,3,NA
fcp-trial,168,855668,0.0-129.0-0.0,voc_e2,12553,"[{""event"":""fullscreenenter"",""trial"":1,""time"":2110},{""event"":""blur"",""trial"":153,""time"":743712},{""event"":""focus"",""trial"":153,""time"":808083}]",NA,NA,NA,NA,NA,1,#D8271C,#741CD8,10,0,0,40,0,1170.9999999998836,39,0,832,0,1,experiment,NA,NA,2,0.5,0.5,5,4,120,3,NA
fcp-trial,169,859590,0.0-130.0-0.0,voc_e2,12553,"[{""event"":""fullscreenenter"",""trial"":1,""time"":2110},{""event"":""blur"",""trial"":153,""time"":743712},{""event"":""focus"",""trial"":153,""time"":808083}]",NA,NA,NA,NA,NA,5,#3386FF,#D89F1C,0,0,0,38,1,1761,37,1,651,0,0,experiment,NA,NA,1,0.3,0.7,3,2,121,3,NA
fcp-trial,170,861836,0.0-131.0-0.0,voc_e2,12553,"[{""event"":""fullscreenenter"",""trial"":1,""time"":2110},{""event"":""blur"",""trial"":153,""time"":743712},{""event"":""focus"",""trial"":153,""time"":808083}]",NA,NA,NA,NA,NA,0,#FA92F8,#1CD855,0,10,0,38,1,356,39,0,380,10,1,experiment,NA,NA,0,0.1,0.9,1,0,122,3,NA
fcp-trial,171,864092,0.0-132.0-0.0,voc_e2,12553,"[{""event"":""fullscreenenter"",""trial"":1,""time"":2110},{""event"":""blur"",""trial"":153,""time"":743712},{""event"":""focus"",""trial"":153,""time"":808083}]",NA,NA,NA,NA,NA,0,#D89F1C,#3386FF,10,10,1,40,0,275,37,1,472,10,1,experiment,NA,NA,1,0.7,0.3,2,3,123,3,NA
fcp-trial,172,866524,0.0-133.0-0.0,voc_e2,12553,"[{""event"":""fullscreenenter"",""trial"":1,""time"":2110},{""event"":""blur"",""trial"":153,""time"":743712},{""event"":""focus"",""trial"":153,""time"":808083}]",NA,NA,NA,NA,NA,3,#FA92F8,#1CD855,0,10,0,40,0,455.0000000001164,37,1,468,0,0,experiment,NA,NA,0,0.1,0.9,1,0,124,3,NA
fcp-trial,173,868784,0.0-134.0-0.0,voc_e2,12553,"[{""event"":""fullscreenenter"",""trial"":1,""time"":2110},{""event"":""blur"",""trial"":153,""time"":743712},{""event"":""focus"",""trial"":153,""time"":808083}]",NA,NA,NA,NA,NA,2,#741CD8,#D8271C,0,10,1,40,0,62,39,0,689,10,0,experiment,NA,NA,2,0.5,0.5,4,5,125,3,NA
fcp-trial,174,871170,0.0-135.0-0.0,voc_e2,12553,"[{""event"":""fullscreenenter"",""trial"":1,""time"":2110},{""event"":""blur"",""trial"":153,""time"":743712},{""event"":""focus"",""trial"":153,""time"":808083}]",NA,NA,NA,NA,NA,0,#D8271C,#741CD8,0,10,0,38,1,332,39,0,542.0000000001164,10,1,experiment,NA,NA,2,0.5,0.5,5,4,126,3,NA
fcp-trial,175,874026,0.0-136.0-0.0,voc_e2,12553,"[{""event"":""fullscreenenter"",""trial"":1,""time"":2110},{""event"":""blur"",""trial"":153,""time"":743712},{""event"":""focus"",""trial"":153,""time"":808083}]",NA,NA,NA,NA,NA,5,#FA92F8,#1CD855,0,10,0,38,1,805.9999999998836,39,0,539,10,1,experiment,NA,NA,0,0.1,0.9,1,0,127,3,NA
fcp-trial,176,876384,0.0-137.0-0.0,voc_e2,12553,"[{""event"":""fullscreenenter"",""trial"":1,""time"":2110},{""event"":""blur"",""trial"":153,""time"":743712},{""event"":""focus"",""trial"":153,""time"":808083}]",NA,NA,NA,NA,NA,5,#D89F1C,#3386FF,10,10,1,38,1,406,37,1,429,10,1,experiment,NA,NA,1,0.7,0.3,2,3,128,3,NA
fcp-trial,177,878659,0.0-138.0-0.0,voc_e2,12553,"[{""event"":""fullscreenenter"",""trial"":1,""time"":2110},{""event"":""blur"",""trial"":153,""time"":743712},{""event"":""focus"",""trial"":153,""time"":808083}]",NA,NA,NA,NA,NA,5,#D8271C,#741CD8,10,0,0,38,1,359,39,0,406,0,1,experiment,NA,NA,2,0.5,0.5,5,4,129,3,NA
fcp-trial,178,880889,0.0-139.0-0.0,voc_e2,12553,"[{""event"":""fullscreenenter"",""trial"":1,""time"":2110},{""event"":""blur"",""trial"":153,""time"":743712},{""event"":""focus"",""trial"":153,""time"":808083}]",NA,NA,NA,NA,NA,0,#3386FF,#D89F1C,0,10,0,38,1,356,39,0,353,10,1,experiment,NA,NA,1,0.3,0.7,3,2,130,3,NA
fcp-trial,179,883029,0.0-140.0-0.0,voc_e2,12553,"[{""event"":""fullscreenenter"",""trial"":1,""time"":2110},{""event"":""blur"",""trial"":153,""time"":743712},{""event"":""focus"",""trial"":153,""time"":808083}]",NA,NA,NA,NA,NA,4,#3386FF,#D89F1C,10,10,0,38,1,305,37,1,327,10,0,experiment,NA,NA,1,0.3,0.7,3,2,131,3,NA
fcp-trial,180,885318,0.0-141.0-0.0,voc_e2,12553,"[{""event"":""fullscreenenter"",""trial"":1,""time"":2110},{""event"":""blur"",""trial"":153,""time"":743712},{""event"":""focus"",""trial"":153,""time"":808083}]",NA,NA,NA,NA,NA,6,#1CD855,#FA92F8,0,0,1,40,0,294,37,1,476,0,1,experiment,NA,NA,0,0.9,0.1,0,1,132,3,NA
fcp-trial,181,887984,0.0-142.0-0.0,voc_e2,12553,"[{""event"":""fullscreenenter"",""trial"":1,""time"":2110},{""event"":""blur"",""trial"":153,""time"":743712},{""event"":""focus"",""trial"":153,""time"":808083}]",NA,NA,NA,NA,NA,4,#FA92F8,#1CD855,10,10,0,40,0,327,37,1,833,10,0,experiment,NA,NA,0,0.1,0.9,1,0,133,3,NA
fcp-trial,182,891334,0.0-143.0-0.0,voc_e2,12553,"[{""event"":""fullscreenenter"",""trial"":1,""time"":2110},{""event"":""blur"",""trial"":153,""time"":743712},{""event"":""focus"",""trial"":153,""time"":808083}]",NA,NA,NA,NA,NA,0,#D8271C,#741CD8,10,10,0,38,1,1235.9999999998836,39,0,606,10,1,experiment,NA,NA,2,0.5,0.5,5,4,134,3,NA
fcp-trial,183,895177,0.0-144.0-0.0,voc_e2,12553,"[{""event"":""fullscreenenter"",""trial"":1,""time"":2110},{""event"":""blur"",""trial"":153,""time"":743712},{""event"":""focus"",""trial"":153,""time"":808083}]",NA,NA,NA,NA,NA,2,#FA92F8,#1CD855,0,10,0,40,0,1765.0000000001164,37,1,570,0,0,experiment,NA,NA,0,0.1,0.9,1,0,135,3,NA
fcp-trial,184,897536,0.0-145.0-0.0,voc_e2,12553,"[{""event"":""fullscreenenter"",""trial"":1,""time"":2110},{""event"":""blur"",""trial"":153,""time"":743712},{""event"":""focus"",""trial"":153,""time"":808083}]",NA,NA,NA,NA,NA,1,#3386FF,#D89F1C,0,0,0,38,1,496,37,1,332,0,0,experiment,NA,NA,1,0.3,0.7,3,2,136,4,NA
fcp-trial,185,900117,0.0-146.0-0.0,voc_e2,12553,"[{""event"":""fullscreenenter"",""trial"":1,""time"":2110},{""event"":""blur"",""trial"":153,""time"":743712},{""event"":""focus"",""trial"":153,""time"":808083}]",NA,NA,NA,NA,NA,1,#1CD855,#FA92F8,10,0,1,38,1,511,39,0,561,0,0,experiment,NA,NA,0,0.9,0.1,0,1,137,4,NA
fcp-trial,186,902376,0.0-147.0-0.0,voc_e2,12553,"[{""event"":""fullscreenenter"",""trial"":1,""time"":2110},{""event"":""blur"",""trial"":153,""time"":743712},{""event"":""focus"",""trial"":153,""time"":808083}]",NA,NA,NA,NA,NA,1,#741CD8,#D8271C,0,10,1,38,1,410,37,1,339,0,1,experiment,NA,NA,2,0.5,0.5,4,5,138,4,NA
fcp-trial,187,904868,0.0-148.0-0.0,voc_e2,12553,"[{""event"":""fullscreenenter"",""trial"":1,""time"":2110},{""event"":""blur"",""trial"":153,""time"":743712},{""event"":""focus"",""trial"":153,""time"":808083}]",NA,NA,NA,NA,NA,4,#D8271C,#741CD8,0,10,0,38,1,534,37,1,450,0,0,experiment,NA,NA,2,0.5,0.5,5,4,139,4,NA
fcp-trial,188,907150,0.0-149.0-0.0,voc_e2,12553,"[{""event"":""fullscreenenter"",""trial"":1,""time"":2110},{""event"":""blur"",""trial"":153,""time"":743712},{""event"":""focus"",""trial"":153,""time"":808083}]",NA,NA,NA,NA,NA,0,#1CD855,#FA92F8,10,0,1,38,1,492,37,1,280,10,1,experiment,NA,NA,0,0.9,0.1,0,1,140,4,NA
fcp-trial,189,909613,0.0-150.0-0.0,voc_e2,12553,"[{""event"":""fullscreenenter"",""trial"":1,""time"":2110},{""event"":""blur"",""trial"":153,""time"":743712},{""event"":""focus"",""trial"":153,""time"":808083}]",NA,NA,NA,NA,NA,3,#3386FF,#D89F1C,0,10,0,38,1,622,37,1,332,0,0,experiment,NA,NA,1,0.3,0.7,3,2,141,4,NA
fcp-trial,190,912178,0.0-151.0-0.0,voc_e2,12553,"[{""event"":""fullscreenenter"",""trial"":1,""time"":2110},{""event"":""blur"",""trial"":153,""time"":743712},{""event"":""focus"",""trial"":153,""time"":808083}]",NA,NA,NA,NA,NA,2,#D89F1C,#3386FF,0,0,1,38,1,685.0000000001164,39,0,369.0000000001164,0,0,experiment,NA,NA,1,0.7,0.3,2,3,142,4,NA
fcp-trial,191,914520,0.0-152.0-0.0,voc_e2,12553,"[{""event"":""fullscreenenter"",""trial"":1,""time"":2110},{""event"":""blur"",""trial"":153,""time"":743712},{""event"":""focus"",""trial"":153,""time"":808083}]",NA,NA,NA,NA,NA,2,#741CD8,#D8271C,10,0,1,38,1,404,37,1,419,10,1,experiment,NA,NA,2,0.5,0.5,4,5,143,4,NA
fcp-trial,192,917050,0.0-153.0-0.0,voc_e2,12553,"[{""event"":""fullscreenenter"",""trial"":1,""time"":2110},{""event"":""blur"",""trial"":153,""time"":743712},{""event"":""focus"",""trial"":153,""time"":808083}]",NA,NA,NA,NA,NA,3,#741CD8,#D8271C,10,0,1,38,1,665,37,1,360,10,1,experiment,NA,NA,2,0.5,0.5,4,5,144,4,NA
fcp-trial,193,919784,0.0-154.0-0.0,voc_e2,12553,"[{""event"":""fullscreenenter"",""trial"":1,""time"":2110},{""event"":""blur"",""trial"":153,""time"":743712},{""event"":""focus"",""trial"":153,""time"":808083}]",NA,NA,NA,NA,NA,3,#1CD855,#FA92F8,10,0,1,38,1,777,37,1,449,10,1,experiment,NA,NA,0,0.9,0.1,0,1,145,4,NA
fcp-trial,194,922467,0.0-155.0-0.0,voc_e2,12553,"[{""event"":""fullscreenenter"",""trial"":1,""time"":2110},{""event"":""blur"",""trial"":153,""time"":743712},{""event"":""focus"",""trial"":153,""time"":808083}]",NA,NA,NA,NA,NA,6,#D8271C,#741CD8,10,0,0,38,1,445,39,0,732,0,1,experiment,NA,NA,2,0.5,0.5,5,4,146,4,NA
fcp-trial,195,924967,0.0-156.0-0.0,voc_e2,12553,"[{""event"":""fullscreenenter"",""trial"":1,""time"":2110},{""event"":""blur"",""trial"":153,""time"":743712},{""event"":""focus"",""trial"":153,""time"":808083}]",NA,NA,NA,NA,NA,6,#3386FF,#D89F1C,0,0,0,38,1,604,37,1,389,0,0,experiment,NA,NA,1,0.3,0.7,3,2,147,4,NA
fcp-trial,196,927375,0.0-157.0-0.0,voc_e2,12553,"[{""event"":""fullscreenenter"",""trial"":1,""time"":2110},{""event"":""blur"",""trial"":153,""time"":743712},{""event"":""focus"",""trial"":153,""time"":808083}]",NA,NA,NA,NA,NA,1,#741CD8,#D8271C,10,0,1,38,1,460,37,1,439,10,1,experiment,NA,NA,2,0.5,0.5,4,5,148,4,NA
fcp-trial,197,929739,0.0-158.0-0.0,voc_e2,12553,"[{""event"":""fullscreenenter"",""trial"":1,""time"":2110},{""event"":""blur"",""trial"":153,""time"":743712},{""event"":""focus"",""trial"":153,""time"":808083}]",NA,NA,NA,NA,NA,6,#D8271C,#741CD8,0,0,0,38,1,466,39,0,376.0000000001164,0,1,experiment,NA,NA,2,0.5,0.5,5,4,149,4,NA
fcp-trial,198,932095,0.0-159.0-0.0,voc_e2,12553,"[{""event"":""fullscreenenter"",""trial"":1,""time"":2110},{""event"":""blur"",""trial"":153,""time"":743712},{""event"":""focus"",""trial"":153,""time"":808083}]",NA,NA,NA,NA,NA,1,#3386FF,#D89F1C,0,0,0,38,1,524,37,1,323,0,0,experiment,NA,NA,1,0.3,0.7,3,2,150,4,NA
fcp-trial,199,934486,0.0-160.0-0.0,voc_e2,12553,"[{""event"":""fullscreenenter"",""trial"":1,""time"":2110},{""event"":""blur"",""trial"":153,""time"":743712},{""event"":""focus"",""trial"":153,""time"":808083}]",NA,NA,NA,NA,NA,2,#FA92F8,#1CD855,0,10,0,38,1,362,37,1,518,0,0,experiment,NA,NA,0,0.1,0.9,1,0,151,4,NA
fcp-trial,200,936941,0.0-161.0-0.0,voc_e2,12553,"[{""event"":""fullscreenenter"",""trial"":1,""time"":2110},{""event"":""blur"",""trial"":153,""time"":743712},{""event"":""focus"",""trial"":153,""time"":808083}]",NA,NA,NA,NA,NA,1,#FA92F8,#1CD855,0,0,0,38,1,410,39,0,534,0,1,experiment,NA,NA,0,0.1,0.9,1,0,152,4,NA
fcp-trial,201,939218,0.0-162.0-0.0,voc_e2,12553,"[{""event"":""fullscreenenter"",""trial"":1,""time"":2110},{""event"":""blur"",""trial"":153,""time"":743712},{""event"":""focus"",""trial"":153,""time"":808083}]",NA,NA,NA,NA,NA,2,#741CD8,#D8271C,0,10,1,38,1,419,37,1,350,0,1,experiment,NA,NA,2,0.5,0.5,4,5,153,4,NA
fcp-trial,202,941637,0.0-163.0-0.0,voc_e2,12553,"[{""event"":""fullscreenenter"",""trial"":1,""time"":2110},{""event"":""blur"",""trial"":153,""time"":743712},{""event"":""focus"",""trial"":153,""time"":808083}]",NA,NA,NA,NA,NA,3,#3386FF,#D89F1C,0,0,0,38,1,476,37,1,435.0000000001164,0,0,experiment,NA,NA,1,0.3,0.7,3,2,154,4,NA
fcp-trial,203,943981,0.0-164.0-0.0,voc_e2,12553,"[{""event"":""fullscreenenter"",""trial"":1,""time"":2110},{""event"":""blur"",""trial"":153,""time"":743712},{""event"":""focus"",""trial"":153,""time"":808083}]",NA,NA,NA,NA,NA,6,#FA92F8,#1CD855,0,10,0,38,1,363,37,1,474,0,0,experiment,NA,NA,0,0.1,0.9,1,0,155,4,NA
fcp-trial,204,946436,0.0-165.0-0.0,voc_e2,12553,"[{""event"":""fullscreenenter"",""trial"":1,""time"":2110},{""event"":""blur"",""trial"":153,""time"":743712},{""event"":""focus"",""trial"":153,""time"":808083}]",NA,NA,NA,NA,NA,6,#3386FF,#D89F1C,0,10,0,38,1,463,39,0,480,10,1,experiment,NA,NA,1,0.3,0.7,3,2,156,4,NA
fcp-trial,205,948661,0.0-166.0-0.0,voc_e2,12553,"[{""event"":""fullscreenenter"",""trial"":1,""time"":2110},{""event"":""blur"",""trial"":153,""time"":743712},{""event"":""focus"",""trial"":153,""time"":808083}]",NA,NA,NA,NA,NA,0,#741CD8,#D8271C,10,10,1,38,1,332.0000000001164,39,0,383,10,0,experiment,NA,NA,2,0.5,0.5,4,5,157,4,NA
fcp-trial,206,950957,0.0-167.0-0.0,voc_e2,12553,"[{""event"":""fullscreenenter"",""trial"":1,""time"":2110},{""event"":""blur"",""trial"":153,""time"":743712},{""event"":""focus"",""trial"":153,""time"":808083}]",NA,NA,NA,NA,NA,5,#FA92F8,#1CD855,10,10,0,38,1,232,37,1,545.9999999998836,10,0,experiment,NA,NA,0,0.1,0.9,1,0,158,4,NA
fcp-trial,207,953390,0.0-168.0-0.0,voc_e2,12553,"[{""event"":""fullscreenenter"",""trial"":1,""time"":2110},{""event"":""blur"",""trial"":153,""time"":743712},{""event"":""focus"",""trial"":153,""time"":808083}]",NA,NA,NA,NA,NA,5,#741CD8,#D8271C,0,10,1,38,1,421.0000000001164,37,1,502,0,1,experiment,NA,NA,2,0.5,0.5,4,5,159,4,NA
fcp-trial,208,955986,0.0-169.0-0.0,voc_e2,12553,"[{""event"":""fullscreenenter"",""trial"":1,""time"":2110},{""event"":""blur"",""trial"":153,""time"":743712},{""event"":""focus"",""trial"":153,""time"":808083}]",NA,NA,NA,NA,NA,4,#3386FF,#D89F1C,0,10,0,38,1,356,39,0,718,10,1,experiment,NA,NA,1,0.3,0.7,3,2,160,4,NA
fcp-trial,209,958627,0.0-170.0-0.0,voc_e2,12553,"[{""event"":""fullscreenenter"",""trial"":1,""time"":2110},{""event"":""blur"",""trial"":153,""time"":743712},{""event"":""focus"",""trial"":153,""time"":808083}]",NA,NA,NA,NA,NA,5,#D89F1C,#3386FF,0,10,1,38,1,678,37,1,454.0000000001164,0,1,experiment,NA,NA,1,0.7,0.3,2,3,161,4,NA
fcp-trial,210,960955,0.0-171.0-0.0,voc_e2,12553,"[{""event"":""fullscreenenter"",""trial"":1,""time"":2110},{""event"":""blur"",""trial"":153,""time"":743712},{""event"":""focus"",""trial"":153,""time"":808083}]",NA,NA,NA,NA,NA,2,#D89F1C,#3386FF,10,0,1,38,1,453,39,0,351.9999999998836,0,0,experiment,NA,NA,1,0.7,0.3,2,3,162,4,NA
fcp-trial,211,963395,0.0-172.0-0.0,voc_e2,12553,"[{""event"":""fullscreenenter"",""trial"":1,""time"":2110},{""event"":""blur"",""trial"":153,""time"":743712},{""event"":""focus"",""trial"":153,""time"":808083}]",NA,NA,NA,NA,NA,0,#1CD855,#FA92F8,10,0,1,38,1,466,39,0,466,0,0,experiment,NA,NA,0,0.9,0.1,0,1,163,4,NA
fcp-trial,212,965652,0.0-173.0-0.0,voc_e2,12553,"[{""event"":""fullscreenenter"",""trial"":1,""time"":2110},{""event"":""blur"",""trial"":153,""time"":743712},{""event"":""focus"",""trial"":153,""time"":808083}]",NA,NA,NA,NA,NA,3,#741CD8,#D8271C,0,0,1,38,1,268,37,1,466,0,1,experiment,NA,NA,2,0.5,0.5,4,5,164,4,NA
fcp-trial,213,967736,0.0-174.0-0.0,voc_e2,12553,"[{""event"":""fullscreenenter"",""trial"":1,""time"":2110},{""event"":""blur"",""trial"":153,""time"":743712},{""event"":""focus"",""trial"":153,""time"":808083}]",NA,NA,NA,NA,NA,4,#741CD8,#D8271C,10,10,1,38,1,91.99999999988358,39,0,483,10,0,experiment,NA,NA,2,0.5,0.5,4,5,165,4,NA
fcp-trial,214,970291,0.0-175.0-0.0,voc_e2,12553,"[{""event"":""fullscreenenter"",""trial"":1,""time"":2110},{""event"":""blur"",""trial"":153,""time"":743712},{""event"":""focus"",""trial"":153,""time"":808083}]",NA,NA,NA,NA,NA,0,#D89F1C,#3386FF,0,0,1,38,1,400,39,0,646.0000000001164,0,0,experiment,NA,NA,1,0.7,0.3,2,3,166,4,NA
fcp-trial,215,972641,0.0-176.0-0.0,voc_e2,12553,"[{""event"":""fullscreenenter"",""trial"":1,""time"":2110},{""event"":""blur"",""trial"":153,""time"":743712},{""event"":""focus"",""trial"":153,""time"":808083}]",NA,NA,NA,NA,NA,4,#1CD855,#FA92F8,10,0,1,38,1,394,39,0,447,0,0,experiment,NA,NA,0,0.9,0.1,0,1,167,4,NA
fcp-trial,216,974950,0.0-177.0-0.0,voc_e2,12553,"[{""event"":""fullscreenenter"",""trial"":1,""time"":2110},{""event"":""blur"",""trial"":153,""time"":743712},{""event"":""focus"",""trial"":153,""time"":808083}]",NA,NA,NA,NA,NA,3,#1CD855,#FA92F8,10,0,1,38,1,470.9999999998836,37,1,330,10,1,experiment,NA,NA,0,0.9,0.1,0,1,168,4,NA
fcp-trial,217,977367,0.0-178.0-0.0,voc_e2,12553,"[{""event"":""fullscreenenter"",""trial"":1,""time"":2110},{""event"":""blur"",""trial"":153,""time"":743712},{""event"":""focus"",""trial"":153,""time"":808083}]",NA,NA,NA,NA,NA,1,#741CD8,#D8271C,0,10,1,38,1,408,37,1,500,0,1,experiment,NA,NA,2,0.5,0.5,4,5,169,4,NA
fcp-trial,218,979888,0.0-179.0-0.0,voc_e2,12553,"[{""event"":""fullscreenenter"",""trial"":1,""time"":2110},{""event"":""blur"",""trial"":153,""time"":743712},{""event"":""focus"",""trial"":153,""time"":808083}]",NA,NA,NA,NA,NA,3,#1CD855,#FA92F8,10,0,1,40,0,538,39,0,475,0,0,experiment,NA,NA,0,0.9,0.1,0,1,170,4,NA
fcp-trial,219,982021,0.0-180.0-0.0,voc_e2,12553,"[{""event"":""fullscreenenter"",""trial"":1,""time"":2110},{""event"":""blur"",""trial"":153,""time"":743712},{""event"":""focus"",""trial"":153,""time"":808083}]",NA,NA,NA,NA,NA,4,#3386FF,#D89F1C,10,10,0,40,0,262,37,1,362,10,0,experiment,NA,NA,1,0.3,0.7,3,2,171,4,NA
fcp-trial,220,984507,0.0-181.0-0.0,voc_e2,12553,"[{""event"":""fullscreenenter"",""trial"":1,""time"":2110},{""event"":""blur"",""trial"":153,""time"":743712},{""event"":""focus"",""trial"":153,""time"":808083}]",NA,NA,NA,NA,NA,5,#741CD8,#D8271C,0,10,1,40,0,548.9999999998836,37,1,429,0,1,experiment,NA,NA,2,0.5,0.5,4,5,172,4,NA
fcp-trial,221,986668,0.0-182.0-0.0,voc_e2,12553,"[{""event"":""fullscreenenter"",""trial"":1,""time"":2110},{""event"":""blur"",""trial"":153,""time"":743712},{""event"":""focus"",""trial"":153,""time"":808083}]",NA,NA,NA,NA,NA,0,#1CD855,#FA92F8,10,0,1,40,0,288,37,1,366,10,1,experiment,NA,NA,0,0.9,0.1,0,1,173,4,NA
fcp-trial,222,988950,0.0-183.0-0.0,voc_e2,12553,"[{""event"":""fullscreenenter"",""trial"":1,""time"":2110},{""event"":""blur"",""trial"":153,""time"":743712},{""event"":""focus"",""trial"":153,""time"":808083}]",NA,NA,NA,NA,NA,1,#3386FF,#D89F1C,10,10,0,40,0,310,39,0,463,10,1,experiment,NA,NA,1,0.3,0.7,3,2,174,4,NA
fcp-trial,223,991666,0.0-184.0-0.0,voc_e2,12553,"[{""event"":""fullscreenenter"",""trial"":1,""time"":2110},{""event"":""blur"",""trial"":153,""time"":743712},{""event"":""focus"",""trial"":153,""time"":808083}]",NA,NA,NA,NA,NA,3,#D89F1C,#3386FF,10,0,1,40,0,329,39,0,878,0,0,experiment,NA,NA,1,0.7,0.3,2,3,175,4,NA
fcp-trial,224,995519,0.0-185.0-0.0,voc_e2,12553,"[{""event"":""fullscreenenter"",""trial"":1,""time"":2110},{""event"":""blur"",""trial"":153,""time"":743712},{""event"":""focus"",""trial"":153,""time"":808083}]",NA,NA,NA,NA,NA,0,#741CD8,#D8271C,0,0,1,40,0,1582,39,0,763.9999999998836,0,0,experiment,NA,NA,2,0.5,0.5,4,5,176,4,NA
fcp-trial,225,997934,0.0-186.0-0.0,voc_e2,12553,"[{""event"":""fullscreenenter"",""trial"":1,""time"":2110},{""event"":""blur"",""trial"":153,""time"":743712},{""event"":""focus"",""trial"":153,""time"":808083}]",NA,NA,NA,NA,NA,4,#FA92F8,#1CD855,0,10,0,40,0,308,37,1,599,0,0,experiment,NA,NA,0,0.1,0.9,1,0,177,4,NA
fcp-trial,226,1000667,0.0-187.0-0.0,voc_e2,12553,"[{""event"":""fullscreenenter"",""trial"":1,""time"":2110},{""event"":""blur"",""trial"":153,""time"":743712},{""event"":""focus"",""trial"":153,""time"":808083}]",NA,NA,NA,NA,NA,2,#D89F1C,#3386FF,10,0,1,40,0,403,37,1,821,10,1,experiment,NA,NA,1,0.7,0.3,2,3,178,4,NA
fcp-trial,227,1002934,0.0-188.0-0.0,voc_e2,12553,"[{""event"":""fullscreenenter"",""trial"":1,""time"":2110},{""event"":""blur"",""trial"":153,""time"":743712},{""event"":""focus"",""trial"":153,""time"":808083}]",NA,NA,NA,NA,NA,5,#3386FF,#D89F1C,0,10,0,40,0,330,39,0,431,10,1,experiment,NA,NA,1,0.3,0.7,3,2,179,4,NA
fcp-trial,228,1005205,0.0-189.0-0.0,voc_e2,12553,"[{""event"":""fullscreenenter"",""trial"":1,""time"":2110},{""event"":""blur"",""trial"":153,""time"":743712},{""event"":""focus"",""trial"":153,""time"":808083}]",NA,NA,NA,NA,NA,3,#741CD8,#D8271C,10,0,1,40,0,200.00000000011642,39,0,564,0,0,experiment,NA,NA,2,0.5,0.5,4,5,180,4,NA
fcp-trial,229,1007594,0.0-190.0-0.0,voc_e2,12553,"[{""event"":""fullscreenenter"",""trial"":1,""time"":2110},{""event"":""blur"",""trial"":153,""time"":743712},{""event"":""focus"",""trial"":153,""time"":808083}]",NA,NA,NA,NA,NA,6,#741CD8,#D8271C,10,10,1,40,0,305,39,0,574,10,0,experiment,NA,NA,2,0.5,0.5,4,5,181,5,NA
fcp-trial,230,1010412,0.0-191.0-0.0,voc_e2,12553,"[{""event"":""fullscreenenter"",""trial"":1,""time"":2110},{""event"":""blur"",""trial"":153,""time"":743712},{""event"":""focus"",""trial"":153,""time"":808083}]",NA,NA,NA,NA,NA,5,#FA92F8,#1CD855,0,10,0,40,0,885,39,0,424,10,1,experiment,NA,NA,0,0.1,0.9,1,0,182,5,NA
fcp-trial,231,1013484,0.0-192.0-0.0,voc_e2,12553,"[{""event"":""fullscreenenter"",""trial"":1,""time"":2110},{""event"":""blur"",""trial"":153,""time"":743712},{""event"":""focus"",""trial"":153,""time"":808083}]",NA,NA,NA,NA,NA,1,#1CD855,#FA92F8,10,0,1,40,0,479.9999999998836,39,0,1080,0,0,experiment,NA,NA,0,0.9,0.1,0,1,183,5,NA
fcp-trial,232,1015619,0.0-193.0-0.0,voc_e2,12553,"[{""event"":""fullscreenenter"",""trial"":1,""time"":2110},{""event"":""blur"",""trial"":153,""time"":743712},{""event"":""focus"",""trial"":153,""time"":808083}]",NA,NA,NA,NA,NA,6,#D89F1C,#3386FF,10,0,1,40,0,30,37,1,600,10,1,experiment,NA,NA,1,0.7,0.3,2,3,184,5,NA
fcp-trial,233,1017877,0.0-194.0-0.0,voc_e2,12553,"[{""event"":""fullscreenenter"",""trial"":1,""time"":2110},{""event"":""blur"",""trial"":153,""time"":743712},{""event"":""focus"",""trial"":153,""time"":808083}]",NA,NA,NA,NA,NA,6,#1CD855,#FA92F8,0,0,1,40,0,293.0000000001164,39,0,456.9999999998836,0,0,experiment,NA,NA,0,0.9,0.1,0,1,185,5,NA
fcp-trial,234,1020309,0.0-195.0-0.0,voc_e2,12553,"[{""event"":""fullscreenenter"",""trial"":1,""time"":2110},{""event"":""blur"",""trial"":153,""time"":743712},{""event"":""focus"",""trial"":153,""time"":808083}]",NA,NA,NA,NA,NA,4,#741CD8,#D8271C,10,10,1,40,0,339,39,0,573.0000000001164,10,0,experiment,NA,NA,2,0.5,0.5,4,5,186,5,NA
fcp-trial,235,1022683,0.0-196.0-0.0,voc_e2,12553,"[{""event"":""fullscreenenter"",""trial"":1,""time"":2110},{""event"":""blur"",""trial"":153,""time"":743712},{""event"":""focus"",""trial"":153,""time"":808083}]",NA,NA,NA,NA,NA,2,#D8271C,#741CD8,0,10,0,40,0,324.0000000001164,39,0,531.9999999998836,10,1,experiment,NA,NA,2,0.5,0.5,5,4,187,5,NA
fcp-trial,236,1024935,0.0-197.0-0.0,voc_e2,12553,"[{""event"":""fullscreenenter"",""trial"":1,""time"":2110},{""event"":""blur"",""trial"":153,""time"":743712},{""event"":""focus"",""trial"":153,""time"":808083}]",NA,NA,NA,NA,NA,2,#1CD855,#FA92F8,10,0,1,40,0,300.9999999998836,37,1,444,10,1,experiment,NA,NA,0,0.9,0.1,0,1,188,5,NA
fcp-trial,237,1027340,0.0-198.0-0.0,voc_e2,12553,"[{""event"":""fullscreenenter"",""trial"":1,""time"":2110},{""event"":""blur"",""trial"":153,""time"":743712},{""event"":""focus"",""trial"":153,""time"":808083}]",NA,NA,NA,NA,NA,0,#3386FF,#D89F1C,0,0,0,40,0,274.0000000001164,39,0,621.9999999998836,0,1,experiment,NA,NA,1,0.3,0.7,3,2,189,5,NA
fcp-trial,238,1030519,0.0-199.0-0.0,voc_e2,12553,"[{""event"":""fullscreenenter"",""trial"":1,""time"":2110},{""event"":""blur"",""trial"":153,""time"":743712},{""event"":""focus"",""trial"":153,""time"":808083}]",NA,NA,NA,NA,NA,1,#1CD855,#FA92F8,10,0,1,38,1,1161,37,1,509,10,1,experiment,NA,NA,0,0.9,0.1,0,1,190,5,NA
fcp-trial,239,1032751,0.0-200.0-0.0,voc_e2,12553,"[{""event"":""fullscreenenter"",""trial"":1,""time"":2110},{""event"":""blur"",""trial"":153,""time"":743712},{""event"":""focus"",""trial"":153,""time"":808083}]",NA,NA,NA,NA,NA,6,#741CD8,#D8271C,0,10,1,40,0,357.9999999998836,39,0,367,10,0,experiment,NA,NA,2,0.5,0.5,4,5,191,5,NA
fcp-trial,240,1035099,0.0-201.0-0.0,voc_e2,12553,"[{""event"":""fullscreenenter"",""trial"":1,""time"":2110},{""event"":""blur"",""trial"":153,""time"":743712},{""event"":""focus"",""trial"":153,""time"":808083}]",NA,NA,NA,NA,NA,3,#1CD855,#FA92F8,10,10,1,40,0,291.9999999998836,37,1,548,10,1,experiment,NA,NA,0,0.9,0.1,0,1,192,5,NA
fcp-trial,241,1037417,0.0-202.0-0.0,voc_e2,12553,"[{""event"":""fullscreenenter"",""trial"":1,""time"":2110},{""event"":""blur"",""trial"":153,""time"":743712},{""event"":""focus"",""trial"":153,""time"":808083}]",NA,NA,NA,NA,NA,5,#3386FF,#D89F1C,10,10,0,40,0,244.99999999988358,37,1,565.9999999997672,10,0,experiment,NA,NA,1,0.3,0.7,3,2,193,5,NA
fcp-trial,242,1039618,0.0-203.0-0.0,voc_e2,12553,"[{""event"":""fullscreenenter"",""trial"":1,""time"":2110},{""event"":""blur"",""trial"":153,""time"":743712},{""event"":""focus"",""trial"":153,""time"":808083}]",NA,NA,NA,NA,NA,4,#FA92F8,#1CD855,0,10,0,40,0,277,39,0,415.9999999998836,10,1,experiment,NA,NA,0,0.1,0.9,1,0,194,5,NA
fcp-trial,243,1041873,0.0-204.0-0.0,voc_e2,12553,"[{""event"":""fullscreenenter"",""trial"":1,""time"":2110},{""event"":""blur"",""trial"":153,""time"":743712},{""event"":""focus"",""trial"":153,""time"":808083}]",NA,NA,NA,NA,NA,3,#3386FF,#D89F1C,10,0,0,40,0,260,39,0,485,0,1,experiment,NA,NA,1,0.3,0.7,3,2,195,5,NA
fcp-trial,244,1044150,0.0-205.0-0.0,voc_e2,12553,"[{""event"":""fullscreenenter"",""trial"":1,""time"":2110},{""event"":""blur"",""trial"":153,""time"":743712},{""event"":""focus"",""trial"":153,""time"":808083}]",NA,NA,NA,NA,NA,4,#741CD8,#D8271C,0,10,1,40,0,268,37,1,498,0,1,experiment,NA,NA,2,0.5,0.5,4,5,196,5,NA
fcp-trial,245,1046950,0.0-206.0-0.0,voc_e2,12553,"[{""event"":""fullscreenenter"",""trial"":1,""time"":2110},{""event"":""blur"",""trial"":153,""time"":743712},{""event"":""focus"",""trial"":153,""time"":808083}]",NA,NA,NA,NA,NA,2,#FA92F8,#1CD855,10,10,0,40,0,861,39,0,431,10,1,experiment,NA,NA,0,0.1,0.9,1,0,197,5,NA
fcp-trial,246,1049208,0.0-207.0-0.0,voc_e2,12553,"[{""event"":""fullscreenenter"",""trial"":1,""time"":2110},{""event"":""blur"",""trial"":153,""time"":743712},{""event"":""focus"",""trial"":153,""time"":808083}]",NA,NA,NA,NA,NA,1,#D89F1C,#3386FF,0,0,1,40,0,279,39,0,471,0,0,experiment,NA,NA,1,0.7,0.3,2,3,198,5,NA
fcp-trial,247,1052132,0.0-208.0-0.0,voc_e2,12553,"[{""event"":""fullscreenenter"",""trial"":1,""time"":2110},{""event"":""blur"",""trial"":153,""time"":743712},{""event"":""focus"",""trial"":153,""time"":808083}]",NA,NA,NA,NA,NA,0,#741CD8,#D8271C,0,0,1,40,0,127,39,0,1264,0,0,experiment,NA,NA,2,0.5,0.5,4,5,199,5,NA
fcp-trial,248,1054369,0.0-209.0-0.0,voc_e2,12553,"[{""event"":""fullscreenenter"",""trial"":1,""time"":2110},{""event"":""blur"",""trial"":153,""time"":743712},{""event"":""focus"",""trial"":153,""time"":808083}]",NA,NA,NA,NA,NA,2,#D8271C,#741CD8,10,10,0,38,1,361.99999999976717,37,1,368,10,0,experiment,NA,NA,2,0.5,0.5,5,4,200,5,NA
fcp-trial,249,1056719,0.0-210.0-0.0,voc_e2,12553,"[{""event"":""fullscreenenter"",""trial"":1,""time"":2110},{""event"":""blur"",""trial"":153,""time"":743712},{""event"":""focus"",""trial"":153,""time"":808083}]",NA,NA,NA,NA,NA,0,#FA92F8,#1CD855,0,10,0,38,1,425,39,0,417,10,1,experiment,NA,NA,0,0.1,0.9,1,0,201,5,NA
fcp-trial,250,1058953,0.0-211.0-0.0,voc_e2,12553,"[{""event"":""fullscreenenter"",""trial"":1,""time"":2110},{""event"":""blur"",""trial"":153,""time"":743712},{""event"":""focus"",""trial"":153,""time"":808083}]",NA,NA,NA,NA,NA,1,#741CD8,#D8271C,0,10,1,38,1,314,39,0,412,10,0,experiment,NA,NA,2,0.5,0.5,4,5,202,5,NA
fcp-trial,251,1061241,0.0-212.0-0.0,voc_e2,12553,"[{""event"":""fullscreenenter"",""trial"":1,""time"":2110},{""event"":""blur"",""trial"":153,""time"":743712},{""event"":""focus"",""trial"":153,""time"":808083}]",NA,NA,NA,NA,NA,6,#3386FF,#D89F1C,0,10,0,38,1,274,37,1,504,0,0,experiment,NA,NA,1,0.3,0.7,3,2,203,5,NA
fcp-trial,252,1063443,0.0-213.0-0.0,voc_e2,12553,"[{""event"":""fullscreenenter"",""trial"":1,""time"":2110},{""event"":""blur"",""trial"":153,""time"":743712},{""event"":""focus"",""trial"":153,""time"":808083}]",NA,NA,NA,NA,NA,2,#D89F1C,#3386FF,10,0,1,40,0,268,39,0,423,0,0,experiment,NA,NA,1,0.7,0.3,2,3,204,5,NA
fcp-trial,253,1065734,0.0-214.0-0.0,voc_e2,12553,"[{""event"":""fullscreenenter"",""trial"":1,""time"":2110},{""event"":""blur"",""trial"":153,""time"":743712},{""event"":""focus"",""trial"":153,""time"":808083}]",NA,NA,NA,NA,NA,6,#FA92F8,#1CD855,0,10,0,40,0,337,37,1,433,0,0,experiment,NA,NA,0,0.1,0.9,1,0,205,5,NA
fcp-trial,254,1068367,0.0-215.0-0.0,voc_e2,12553,"[{""event"":""fullscreenenter"",""trial"":1,""time"":2110},{""event"":""blur"",""trial"":153,""time"":743712},{""event"":""focus"",""trial"":153,""time"":808083}]",NA,NA,NA,NA,NA,3,#741CD8,#D8271C,10,10,1,40,0,548,39,0,578,10,0,experiment,NA,NA,2,0.5,0.5,4,5,206,5,NA
fcp-trial,255,1070652,0.0-216.0-0.0,voc_e2,12553,"[{""event"":""fullscreenenter"",""trial"":1,""time"":2110},{""event"":""blur"",""trial"":153,""time"":743712},{""event"":""focus"",""trial"":153,""time"":808083}]",NA,NA,NA,NA,NA,0,#3386FF,#D89F1C,0,10,0,40,0,244,39,0,535,10,1,experiment,NA,NA,1,0.3,0.7,3,2,207,5,NA
fcp-trial,256,1073467,0.0-217.0-0.0,voc_e2,12553,"[{""event"":""fullscreenenter"",""trial"":1,""time"":2110},{""event"":""blur"",""trial"":153,""time"":743712},{""event"":""focus"",""trial"":153,""time"":808083}]",NA,NA,NA,NA,NA,5,#1CD855,#FA92F8,10,0,1,40,0,758,37,1,549,10,1,experiment,NA,NA,0,0.9,0.1,0,1,208,5,NA
fcp-trial,257,1075817,0.0-218.0-0.0,voc_e2,12553,"[{""event"":""fullscreenenter"",""trial"":1,""time"":2110},{""event"":""blur"",""trial"":153,""time"":743712},{""event"":""focus"",""trial"":153,""time"":808083}]",NA,NA,NA,NA,NA,5,#D8271C,#741CD8,0,10,0,40,0,280.00000000023283,37,1,564.9999999997672,0,0,experiment,NA,NA,2,0.5,0.5,5,4,209,5,NA
fcp-trial,258,1078434,0.0-219.0-0.0,voc_e2,12553,"[{""event"":""fullscreenenter"",""trial"":1,""time"":2110},{""event"":""blur"",""trial"":153,""time"":743712},{""event"":""focus"",""trial"":153,""time"":808083}]",NA,NA,NA,NA,NA,4,#D89F1C,#3386FF,0,0,1,40,0,510,39,0,597,0,0,experiment,NA,NA,1,0.7,0.3,2,3,210,5,NA
audio-instructions,259,1158149,0.0-220.0,voc_e2,12553,"[{""event"":""fullscreenenter"",""trial"":1,""time"":2110},{""event"":""blur"",""trial"":153,""time"":743712},{""event"":""focus"",""trial"":153,""time"":808083},{""event"":""blur"",""trial"":259,""time"":1091255},{""event"":""focus"",""trial"":259,""time"":1156468}]",NA,75273,static/audio/pause.wav,NA,0,NA,NA,NA,NA,NA,NA,NA,NA,NA,NA,NA,NA,NA,NA,NA,NA,NA,NA,NA,NA,NA,NA,NA,NA,NA
fcp-trial,260,1161579,0.0-221.0-0.0,voc_e2,12553,"[{""event"":""fullscreenenter"",""trial"":1,""time"":2110},{""event"":""blur"",""trial"":153,""time"":743712},{""event"":""focus"",""trial"":153,""time"":808083},{""event"":""blur"",""trial"":259,""time"":1091255},{""event"":""focus"",""trial"":259,""time"":1156468}]",NA,NA,NA,NA,NA,3,#D89F1C,#3386FF,10,0,1,40,0,1323,37,1,597.9999999997672,10,1,experiment,NA,NA,1,0.7,0.3,2,3,211,5,NA
fcp-trial,261,1163719,0.0-222.0-0.0,voc_e2,12553,"[{""event"":""fullscreenenter"",""trial"":1,""time"":2110},{""event"":""blur"",""trial"":153,""time"":743712},{""event"":""focus"",""trial"":153,""time"":808083},{""event"":""blur"",""trial"":259,""time"":1091255},{""event"":""focus"",""trial"":259,""time"":1156468}]",NA,NA,NA,NA,NA,6,#D89F1C,#3386FF,0,10,1,40,0,183,37,1,436,0,1,experiment,NA,NA,1,0.7,0.3,2,3,212,5,NA
fcp-trial,262,1165957,0.0-223.0-0.0,voc_e2,12553,"[{""event"":""fullscreenenter"",""trial"":1,""time"":2110},{""event"":""blur"",""trial"":153,""time"":743712},{""event"":""focus"",""trial"":153,""time"":808083},{""event"":""blur"",""trial"":259,""time"":1091255},{""event"":""focus"",""trial"":259,""time"":1156468}]",NA,NA,NA,NA,NA,6,#1CD855,#FA92F8,10,0,1,40,0,291,39,0,439,0,0,experiment,NA,NA,0,0.9,0.1,0,1,213,5,NA
fcp-trial,263,1168401,0.0-224.0-0.0,voc_e2,12553,"[{""event"":""fullscreenenter"",""trial"":1,""time"":2110},{""event"":""blur"",""trial"":153,""time"":743712},{""event"":""focus"",""trial"":153,""time"":808083},{""event"":""blur"",""trial"":259,""time"":1091255},{""event"":""focus"",""trial"":259,""time"":1156468}]",NA,NA,NA,NA,NA,2,#1CD855,#FA92F8,10,0,1,40,0,403,39,0,533,0,0,experiment,NA,NA,0,0.9,0.1,0,1,214,5,NA
fcp-trial,264,1170833,0.0-225.0-0.0,voc_e2,12553,"[{""event"":""fullscreenenter"",""trial"":1,""time"":2110},{""event"":""blur"",""trial"":153,""time"":743712},{""event"":""focus"",""trial"":153,""time"":808083},{""event"":""blur"",""trial"":259,""time"":1091255},{""event"":""focus"",""trial"":259,""time"":1156468}]",NA,NA,NA,NA,NA,0,#3386FF,#D89F1C,10,10,0,40,0,366,37,1,559,10,0,experiment,NA,NA,1,0.3,0.7,3,2,215,5,NA
fcp-trial,265,1173172,0.0-226.0-0.0,voc_e2,12553,"[{""event"":""fullscreenenter"",""trial"":1,""time"":2110},{""event"":""blur"",""trial"":153,""time"":743712},{""event"":""focus"",""trial"":153,""time"":808083},{""event"":""blur"",""trial"":259,""time"":1091255},{""event"":""focus"",""trial"":259,""time"":1156468}]",NA,NA,NA,NA,NA,4,#741CD8,#D8271C,10,10,1,40,0,327,39,0,503.00000000023283,10,0,experiment,NA,NA,2,0.5,0.5,4,5,216,5,NA
fcp-trial,266,1175433,0.0-227.0-0.0,voc_e2,12553,"[{""event"":""fullscreenenter"",""trial"":1,""time"":2110},{""event"":""blur"",""trial"":153,""time"":743712},{""event"":""focus"",""trial"":153,""time"":808083},{""event"":""blur"",""trial"":259,""time"":1091255},{""event"":""focus"",""trial"":259,""time"":1156468}]",NA,NA,NA,NA,NA,2,#D89F1C,#3386FF,10,0,1,40,0,271,37,1,484,10,1,experiment,NA,NA,1,0.7,0.3,2,3,217,5,NA
fcp-trial,267,1177733,0.0-228.0-0.0,voc_e2,12553,"[{""event"":""fullscreenenter"",""trial"":1,""time"":2110},{""event"":""blur"",""trial"":153,""time"":743712},{""event"":""focus"",""trial"":153,""time"":808083},{""event"":""blur"",""trial"":259,""time"":1091255},{""event"":""focus"",""trial"":259,""time"":1156468}]",NA,NA,NA,NA,NA,4,#FA92F8,#1CD855,0,10,0,40,0,262,37,1,532,0,0,experiment,NA,NA,0,0.1,0.9,1,0,218,5,NA
fcp-trial,268,1179988,0.0-229.0-0.0,voc_e2,12553,"[{""event"":""fullscreenenter"",""trial"":1,""time"":2110},{""event"":""blur"",""trial"":153,""time"":743712},{""event"":""focus"",""trial"":153,""time"":808083},{""event"":""blur"",""trial"":259,""time"":1091255},{""event"":""focus"",""trial"":259,""time"":1156468}]",NA,NA,NA,NA,NA,2,#D8271C,#741CD8,0,10,0,40,0,262,39,0,486,10,1,experiment,NA,NA,2,0.5,0.5,5,4,219,5,NA
fcp-trial,269,1182337,0.0-230.0-0.0,voc_e2,12553,"[{""event"":""fullscreenenter"",""trial"":1,""time"":2110},{""event"":""blur"",""trial"":153,""time"":743712},{""event"":""focus"",""trial"":153,""time"":808083},{""event"":""blur"",""trial"":259,""time"":1091255},{""event"":""focus"",""trial"":259,""time"":1156468}]",NA,NA,NA,NA,NA,6,#741CD8,#D8271C,10,10,1,40,0,323,39,0,517,10,0,experiment,NA,NA,2,0.5,0.5,4,5,220,5,NA
fcp-trial,270,1184595,0.0-231.0-0.0,voc_e2,12553,"[{""event"":""fullscreenenter"",""trial"":1,""time"":2110},{""event"":""blur"",""trial"":153,""time"":743712},{""event"":""focus"",""trial"":153,""time"":808083},{""event"":""blur"",""trial"":259,""time"":1091255},{""event"":""focus"",""trial"":259,""time"":1156468}]",NA,NA,NA,NA,NA,3,#741CD8,#D8271C,0,10,1,40,0,324,37,1,423.99999999976717,0,1,experiment,NA,NA,2,0.5,0.5,4,5,221,5,NA
fcp-trial,271,1187051,0.0-232.0-0.0,voc_e2,12553,"[{""event"":""fullscreenenter"",""trial"":1,""time"":2110},{""event"":""blur"",""trial"":153,""time"":743712},{""event"":""focus"",""trial"":153,""time"":808083},{""event"":""blur"",""trial"":259,""time"":1091255},{""event"":""focus"",""trial"":259,""time"":1156468}]",NA,NA,NA,NA,NA,4,#3386FF,#D89F1C,0,0,0,40,0,367,39,0,567,0,1,experiment,NA,NA,1,0.3,0.7,3,2,222,5,NA
fcp-trial,272,1189616,0.0-233.0-0.0,voc_e2,12553,"[{""event"":""fullscreenenter"",""trial"":1,""time"":2110},{""event"":""blur"",""trial"":153,""time"":743712},{""event"":""focus"",""trial"":153,""time"":808083},{""event"":""blur"",""trial"":259,""time"":1091255},{""event"":""focus"",""trial"":259,""time"":1156468}]",NA,NA,NA,NA,NA,0,#FA92F8,#1CD855,0,10,0,38,1,476,39,0,580,10,1,experiment,NA,NA,0,0.1,0.9,1,0,223,5,NA
fcp-trial,273,1191883,0.0-234.0-0.0,voc_e2,12553,"[{""event"":""fullscreenenter"",""trial"":1,""time"":2110},{""event"":""blur"",""trial"":153,""time"":743712},{""event"":""focus"",""trial"":153,""time"":808083},{""event"":""blur"",""trial"":259,""time"":1091255},{""event"":""focus"",""trial"":259,""time"":1156468}]",NA,NA,NA,NA,NA,1,#D8271C,#741CD8,0,10,0,38,1,301.99999999976717,39,0,459,10,1,experiment,NA,NA,2,0.5,0.5,5,4,224,5,NA
fcp-trial,274,1194212,0.0-235.0-0.0,voc_e2,12553,"[{""event"":""fullscreenenter"",""trial"":1,""time"":2110},{""event"":""blur"",""trial"":153,""time"":743712},{""event"":""focus"",""trial"":153,""time"":808083},{""event"":""blur"",""trial"":259,""time"":1091255},{""event"":""focus"",""trial"":259,""time"":1156468}]",NA,NA,NA,NA,NA,5,#D89F1C,#3386FF,10,10,1,38,1,394,39,0,426,10,0,experiment,NA,NA,1,0.7,0.3,2,3,225,5,NA
fcp-trial,275,1196573,0.0-236.0-0.0,voc_e2,12553,"[{""event"":""fullscreenenter"",""trial"":1,""time"":2110},{""event"":""blur"",""trial"":153,""time"":743712},{""event"":""focus"",""trial"":153,""time"":808083},{""event"":""blur"",""trial"":259,""time"":1091255},{""event"":""focus"",""trial"":259,""time"":1156468}]",NA,NA,NA,NA,NA,0,#D8271C,#741CD8,10,10,0,38,1,411,39,0,432.00000000023283,10,1,experiment,NA,NA,2,0.5,0.5,5,4,226,6,NA
fcp-trial,276,1199346,0.0-237.0-0.0,voc_e2,12553,"[{""event"":""fullscreenenter"",""trial"":1,""time"":2110},{""event"":""blur"",""trial"":153,""time"":743712},{""event"":""focus"",""trial"":153,""time"":808083},{""event"":""blur"",""trial"":259,""time"":1091255},{""event"":""focus"",""trial"":259,""time"":1156468}]",NA,NA,NA,NA,NA,1,#FA92F8,#1CD855,0,10,0,38,1,544,39,0,719,10,1,experiment,NA,NA,0,0.1,0.9,1,0,227,6,NA
fcp-trial,277,1201702,0.0-238.0-0.0,voc_e2,12553,"[{""event"":""fullscreenenter"",""trial"":1,""time"":2110},{""event"":""blur"",""trial"":153,""time"":743712},{""event"":""focus"",""trial"":153,""time"":808083},{""event"":""blur"",""trial"":259,""time"":1091255},{""event"":""focus"",""trial"":259,""time"":1156468}]",NA,NA,NA,NA,NA,3,#FA92F8,#1CD855,0,10,0,38,1,359,39,0,474.99999999976717,10,1,experiment,NA,NA,0,0.1,0.9,1,0,228,6,NA
fcp-trial,278,1204383,0.0-239.0-0.0,voc_e2,12553,"[{""event"":""fullscreenenter"",""trial"":1,""time"":2110},{""event"":""blur"",""trial"":153,""time"":743712},{""event"":""focus"",""trial"":153,""time"":808083},{""event"":""blur"",""trial"":259,""time"":1091255},{""event"":""focus"",""trial"":259,""time"":1156468}]",NA,NA,NA,NA,NA,5,#741CD8,#D8271C,10,10,1,38,1,407,39,0,764,10,0,experiment,NA,NA,2,0.5,0.5,4,5,229,6,NA
fcp-trial,279,1206756,0.0-240.0-0.0,voc_e2,12553,"[{""event"":""fullscreenenter"",""trial"":1,""time"":2110},{""event"":""blur"",""trial"":153,""time"":743712},{""event"":""focus"",""trial"":153,""time"":808083},{""event"":""blur"",""trial"":259,""time"":1091255},{""event"":""focus"",""trial"":259,""time"":1156468}]",NA,NA,NA,NA,NA,1,#3386FF,#D89F1C,0,0,0,38,1,346,37,1,520,0,0,experiment,NA,NA,1,0.3,0.7,3,2,230,6,NA
fcp-trial,280,1209017,0.0-241.0-0.0,voc_e2,12553,"[{""event"":""fullscreenenter"",""trial"":1,""time"":2110},{""event"":""blur"",""trial"":153,""time"":743712},{""event"":""focus"",""trial"":153,""time"":808083},{""event"":""blur"",""trial"":259,""time"":1091255},{""event"":""focus"",""trial"":259,""time"":1156468}]",NA,NA,NA,NA,NA,5,#FA92F8,#1CD855,0,10,0,40,0,239,39,0,512,10,1,experiment,NA,NA,0,0.1,0.9,1,0,231,6,NA
fcp-trial,281,1211335,0.0-242.0-0.0,voc_e2,12553,"[{""event"":""fullscreenenter"",""trial"":1,""time"":2110},{""event"":""blur"",""trial"":153,""time"":743712},{""event"":""focus"",""trial"":153,""time"":808083},{""event"":""blur"",""trial"":259,""time"":1091255},{""event"":""focus"",""trial"":259,""time"":1156468}]",NA,NA,NA,NA,NA,3,#FA92F8,#1CD855,0,10,0,40,0,244,37,1,568,0,0,experiment,NA,NA,0,0.1,0.9,1,0,232,6,NA
fcp-trial,282,1214182,0.0-243.0-0.0,voc_e2,12553,"[{""event"":""fullscreenenter"",""trial"":1,""time"":2110},{""event"":""blur"",""trial"":153,""time"":743712},{""event"":""focus"",""trial"":153,""time"":808083},{""event"":""blur"",""trial"":259,""time"":1091255},{""event"":""focus"",""trial"":259,""time"":1156468}]",NA,NA,NA,NA,NA,5,#D8271C,#741CD8,0,10,0,40,0,524,37,1,814,0,0,experiment,NA,NA,2,0.5,0.5,5,4,233,6,NA
fcp-trial,283,1216533,0.0-244.0-0.0,voc_e2,12553,"[{""event"":""fullscreenenter"",""trial"":1,""time"":2110},{""event"":""blur"",""trial"":153,""time"":743712},{""event"":""focus"",""trial"":153,""time"":808083},{""event"":""blur"",""trial"":259,""time"":1091255},{""event"":""focus"",""trial"":259,""time"":1156468}]",NA,NA,NA,NA,NA,2,#D89F1C,#3386FF,10,0,1,38,1,282.99999999976717,37,1,562.0000000002328,10,1,experiment,NA,NA,1,0.7,0.3,2,3,234,6,NA
fcp-trial,284,1218858,0.0-245.0-0.0,voc_e2,12553,"[{""event"":""fullscreenenter"",""trial"":1,""time"":2110},{""event"":""blur"",""trial"":153,""time"":743712},{""event"":""focus"",""trial"":153,""time"":808083},{""event"":""blur"",""trial"":259,""time"":1091255},{""event"":""focus"",""trial"":259,""time"":1156468}]",NA,NA,NA,NA,NA,6,#FA92F8,#1CD855,0,10,0,38,1,364,39,0,453,10,1,experiment,NA,NA,0,0.1,0.9,1,0,235,6,NA
fcp-trial,285,1221632,0.0-246.0-0.0,voc_e2,12553,"[{""event"":""fullscreenenter"",""trial"":1,""time"":2110},{""event"":""blur"",""trial"":153,""time"":743712},{""event"":""focus"",""trial"":153,""time"":808083},{""event"":""blur"",""trial"":259,""time"":1091255},{""event"":""focus"",""trial"":259,""time"":1156468}]",NA,NA,NA,NA,NA,1,#D8271C,#741CD8,10,0,0,38,1,192,37,1,1063,10,0,experiment,NA,NA,2,0.5,0.5,5,4,236,6,NA
fcp-trial,286,1223877,0.0-247.0-0.0,voc_e2,12553,"[{""event"":""fullscreenenter"",""trial"":1,""time"":2110},{""event"":""blur"",""trial"":153,""time"":743712},{""event"":""focus"",""trial"":153,""time"":808083},{""event"":""blur"",""trial"":259,""time"":1091255},{""event"":""focus"",""trial"":259,""time"":1156468}]",NA,NA,NA,NA,NA,2,#1CD855,#FA92F8,10,10,1,38,1,318.00000000023283,37,1,417,10,1,experiment,NA,NA,0,0.9,0.1,0,1,237,6,NA
fcp-trial,287,1226251,0.0-248.0-0.0,voc_e2,12553,"[{""event"":""fullscreenenter"",""trial"":1,""time"":2110},{""event"":""blur"",""trial"":153,""time"":743712},{""event"":""focus"",""trial"":153,""time"":808083},{""event"":""blur"",""trial"":259,""time"":1091255},{""event"":""focus"",""trial"":259,""time"":1156468}]",NA,NA,NA,NA,NA,1,#3386FF,#D89F1C,0,10,0,38,1,300,39,0,558,10,1,experiment,NA,NA,1,0.3,0.7,3,2,238,6,NA
fcp-trial,288,1228521,0.0-249.0-0.0,voc_e2,12553,"[{""event"":""fullscreenenter"",""trial"":1,""time"":2110},{""event"":""blur"",""trial"":153,""time"":743712},{""event"":""focus"",""trial"":153,""time"":808083},{""event"":""blur"",""trial"":259,""time"":1091255},{""event"":""focus"",""trial"":259,""time"":1156468}]",NA,NA,NA,NA,NA,2,#D8271C,#741CD8,10,10,0,38,1,265.00000000023283,39,0,496,10,1,experiment,NA,NA,2,0.5,0.5,5,4,239,6,NA
fcp-trial,289,1230740,0.0-250.0-0.0,voc_e2,12553,"[{""event"":""fullscreenenter"",""trial"":1,""time"":2110},{""event"":""blur"",""trial"":153,""time"":743712},{""event"":""focus"",""trial"":153,""time"":808083},{""event"":""blur"",""trial"":259,""time"":1091255},{""event"":""focus"",""trial"":259,""time"":1156468}]",NA,NA,NA,NA,NA,0,#1CD855,#FA92F8,10,0,1,38,1,309,37,1,400,10,1,experiment,NA,NA,0,0.9,0.1,0,1,240,6,NA
fcp-trial,290,1232967,0.0-251.0-0.0,voc_e2,12553,"[{""event"":""fullscreenenter"",""trial"":1,""time"":2110},{""event"":""blur"",""trial"":153,""time"":743712},{""event"":""focus"",""trial"":153,""time"":808083},{""event"":""blur"",""trial"":259,""time"":1091255},{""event"":""focus"",""trial"":259,""time"":1156468}]",NA,NA,NA,NA,NA,4,#741CD8,#D8271C,10,10,1,38,1,325.00000000023283,37,1,393,10,1,experiment,NA,NA,2,0.5,0.5,4,5,241,6,NA
fcp-trial,291,1235251,0.0-252.0-0.0,voc_e2,12553,"[{""event"":""fullscreenenter"",""trial"":1,""time"":2110},{""event"":""blur"",""trial"":153,""time"":743712},{""event"":""focus"",""trial"":153,""time"":808083},{""event"":""blur"",""trial"":259,""time"":1091255},{""event"":""focus"",""trial"":259,""time"":1156468}]",NA,NA,NA,NA,NA,3,#3386FF,#D89F1C,0,0,0,38,1,312,39,0,465,0,1,experiment,NA,NA,1,0.3,0.7,3,2,242,6,NA
fcp-trial,292,1237434,0.0-253.0-0.0,voc_e2,12553,"[{""event"":""fullscreenenter"",""trial"":1,""time"":2110},{""event"":""blur"",""trial"":153,""time"":743712},{""event"":""focus"",""trial"":153,""time"":808083},{""event"":""blur"",""trial"":259,""time"":1091255},{""event"":""focus"",""trial"":259,""time"":1156468}]",NA,NA,NA,NA,NA,5,#FA92F8,#1CD855,0,10,0,40,0,190,37,1,484,0,0,experiment,NA,NA,0,0.1,0.9,1,0,243,6,NA
fcp-trial,293,1239762,0.0-254.0-0.0,voc_e2,12553,"[{""event"":""fullscreenenter"",""trial"":1,""time"":2110},{""event"":""blur"",""trial"":153,""time"":743712},{""event"":""focus"",""trial"":153,""time"":808083},{""event"":""blur"",""trial"":259,""time"":1091255},{""event"":""focus"",""trial"":259,""time"":1156468}]",NA,NA,NA,NA,NA,5,#D89F1C,#3386FF,10,0,1,38,1,278,39,0,541,0,0,experiment,NA,NA,1,0.7,0.3,2,3,244,6,NA
fcp-trial,294,1242022,0.0-255.0-0.0,voc_e2,12553,"[{""event"":""fullscreenenter"",""trial"":1,""time"":2110},{""event"":""blur"",""trial"":153,""time"":743712},{""event"":""focus"",""trial"":153,""time"":808083},{""event"":""blur"",""trial"":259,""time"":1091255},{""event"":""focus"",""trial"":259,""time"":1156468}]",NA,NA,NA,NA,NA,0,#741CD8,#D8271C,0,0,1,40,0,13,39,0,728,0,0,experiment,NA,NA,2,0.5,0.5,4,5,245,6,NA
fcp-trial,295,1244173,0.0-256.0-0.0,voc_e2,12553,"[{""event"":""fullscreenenter"",""trial"":1,""time"":2110},{""event"":""blur"",""trial"":153,""time"":743712},{""event"":""focus"",""trial"":153,""time"":808083},{""event"":""blur"",""trial"":259,""time"":1091255},{""event"":""focus"",""trial"":259,""time"":1156468}]",NA,NA,NA,NA,NA,1,#1CD855,#FA92F8,10,0,1,38,1,188,37,1,453,10,1,experiment,NA,NA,0,0.9,0.1,0,1,246,6,NA
fcp-trial,296,1246560,0.0-257.0-0.0,voc_e2,12553,"[{""event"":""fullscreenenter"",""trial"":1,""time"":2110},{""event"":""blur"",""trial"":153,""time"":743712},{""event"":""focus"",""trial"":153,""time"":808083},{""event"":""blur"",""trial"":259,""time"":1091255},{""event"":""focus"",""trial"":259,""time"":1156468}]",NA,NA,NA,NA,NA,6,#3386FF,#D89F1C,0,10,0,38,1,442,39,0,435,10,1,experiment,NA,NA,1,0.3,0.7,3,2,247,6,NA
fcp-trial,297,1249134,0.0-258.0-0.0,voc_e2,12553,"[{""event"":""fullscreenenter"",""trial"":1,""time"":2110},{""event"":""blur"",""trial"":153,""time"":743712},{""event"":""focus"",""trial"":153,""time"":808083},{""event"":""blur"",""trial"":259,""time"":1091255},{""event"":""focus"",""trial"":259,""time"":1156468}]",NA,NA,NA,NA,NA,3,#741CD8,#D8271C,0,0,1,38,1,304,37,1,761,0,1,experiment,NA,NA,2,0.5,0.5,4,5,248,6,NA
fcp-trial,298,1251501,0.0-259.0-0.0,voc_e2,12553,"[{""event"":""fullscreenenter"",""trial"":1,""time"":2110},{""event"":""blur"",""trial"":153,""time"":743712},{""event"":""focus"",""trial"":153,""time"":808083},{""event"":""blur"",""trial"":259,""time"":1091255},{""event"":""focus"",""trial"":259,""time"":1156468}]",NA,NA,NA,NA,NA,4,#D89F1C,#3386FF,10,0,1,40,0,242,37,1,616,10,1,experiment,NA,NA,1,0.7,0.3,2,3,249,6,NA
fcp-trial,299,1253940,0.0-260.0-0.0,voc_e2,12553,"[{""event"":""fullscreenenter"",""trial"":1,""time"":2110},{""event"":""blur"",""trial"":153,""time"":743712},{""event"":""focus"",""trial"":153,""time"":808083},{""event"":""blur"",""trial"":259,""time"":1091255},{""event"":""focus"",""trial"":259,""time"":1156468}]",NA,NA,NA,NA,NA,4,#1CD855,#FA92F8,10,0,1,40,0,413,39,0,516,0,0,experiment,NA,NA,0,0.9,0.1,0,1,250,6,NA
fcp-trial,300,1256212,0.0-261.0-0.0,voc_e2,12553,"[{""event"":""fullscreenenter"",""trial"":1,""time"":2110},{""event"":""blur"",""trial"":153,""time"":743712},{""event"":""focus"",""trial"":153,""time"":808083},{""event"":""blur"",""trial"":259,""time"":1091255},{""event"":""focus"",""trial"":259,""time"":1156468}]",NA,NA,NA,NA,NA,0,#3386FF,#D89F1C,10,10,0,38,1,269,37,1,492,10,0,experiment,NA,NA,1,0.3,0.7,3,2,251,6,NA
fcp-trial,301,1258667,0.0-262.0-0.0,voc_e2,12553,"[{""event"":""fullscreenenter"",""trial"":1,""time"":2110},{""event"":""blur"",""trial"":153,""time"":743712},{""event"":""focus"",""trial"":153,""time"":808083},{""event"":""blur"",""trial"":259,""time"":1091255},{""event"":""focus"",""trial"":259,""time"":1156468}]",NA,NA,NA,NA,NA,6,#741CD8,#D8271C,0,10,1,38,1,418,37,1,517,0,1,experiment,NA,NA,2,0.5,0.5,4,5,252,6,NA
fcp-trial,302,1260849,0.0-263.0-0.0,voc_e2,12553,"[{""event"":""fullscreenenter"",""trial"":1,""time"":2110},{""event"":""blur"",""trial"":153,""time"":743712},{""event"":""focus"",""trial"":153,""time"":808083},{""event"":""blur"",""trial"":259,""time"":1091255},{""event"":""focus"",""trial"":259,""time"":1156468}]",NA,NA,NA,NA,NA,0,#D89F1C,#3386FF,0,10,1,40,0,98,39,0,577.9999999997672,10,0,experiment,NA,NA,1,0.7,0.3,2,3,253,6,NA
fcp-trial,303,1263255,0.0-264.0-0.0,voc_e2,12553,"[{""event"":""fullscreenenter"",""trial"":1,""time"":2110},{""event"":""blur"",""trial"":153,""time"":743712},{""event"":""focus"",""trial"":153,""time"":808083},{""event"":""blur"",""trial"":259,""time"":1091255},{""event"":""focus"",""trial"":259,""time"":1156468}]",NA,NA,NA,NA,NA,0,#741CD8,#D8271C,10,0,1,40,0,329,39,0,569,0,0,experiment,NA,NA,2,0.5,0.5,4,5,254,6,NA
fcp-trial,304,1265651,0.0-265.0-0.0,voc_e2,12553,"[{""event"":""fullscreenenter"",""trial"":1,""time"":2110},{""event"":""blur"",""trial"":153,""time"":743712},{""event"":""focus"",""trial"":153,""time"":808083},{""event"":""blur"",""trial"":259,""time"":1091255},{""event"":""focus"",""trial"":259,""time"":1156468}]",NA,NA,NA,NA,NA,6,#1CD855,#FA92F8,0,0,1,38,1,356,39,0,532.9999999997672,0,0,experiment,NA,NA,0,0.9,0.1,0,1,255,6,NA
fcp-trial,305,1268052,0.0-266.0-0.0,voc_e2,12553,"[{""event"":""fullscreenenter"",""trial"":1,""time"":2110},{""event"":""blur"",""trial"":153,""time"":743712},{""event"":""focus"",""trial"":153,""time"":808083},{""event"":""blur"",""trial"":259,""time"":1091255},{""event"":""focus"",""trial"":259,""time"":1156468}]",NA,NA,NA,NA,NA,2,#D89F1C,#3386FF,10,0,1,40,0,311,37,1,582,10,1,experiment,NA,NA,1,0.7,0.3,2,3,256,6,NA
fcp-trial,306,1270477,0.0-267.0-0.0,voc_e2,12553,"[{""event"":""fullscreenenter"",""trial"":1,""time"":2110},{""event"":""blur"",""trial"":153,""time"":743712},{""event"":""focus"",""trial"":153,""time"":808083},{""event"":""blur"",""trial"":259,""time"":1091255},{""event"":""focus"",""trial"":259,""time"":1156468}]",NA,NA,NA,NA,NA,1,#D8271C,#741CD8,0,10,0,40,0,241,37,1,674.9999999997672,0,0,experiment,NA,NA,2,0.5,0.5,5,4,257,6,NA
fcp-trial,307,1273102,0.0-268.0-0.0,voc_e2,12553,"[{""event"":""fullscreenenter"",""trial"":1,""time"":2110},{""event"":""blur"",""trial"":153,""time"":743712},{""event"":""focus"",""trial"":153,""time"":808083},{""event"":""blur"",""trial"":259,""time"":1091255},{""event"":""focus"",""trial"":259,""time"":1156468}]",NA,NA,NA,NA,NA,3,#1CD855,#FA92F8,10,0,1,38,1,555,37,1,552,10,1,experiment,NA,NA,0,0.9,0.1,0,1,258,6,NA
fcp-trial,308,1275618,0.0-269.0-0.0,voc_e2,12553,"[{""event"":""fullscreenenter"",""trial"":1,""time"":2110},{""event"":""blur"",""trial"":153,""time"":743712},{""event"":""focus"",""trial"":153,""time"":808083},{""event"":""blur"",""trial"":259,""time"":1091255},{""event"":""focus"",""trial"":259,""time"":1156468}]",NA,NA,NA,NA,NA,6,#D8271C,#741CD8,0,0,0,38,1,333,39,0,675.0000000002328,0,1,experiment,NA,NA,2,0.5,0.5,5,4,259,6,NA
fcp-trial,309,1277768,0.0-270.0-0.0,voc_e2,12553,"[{""event"":""fullscreenenter"",""trial"":1,""time"":2110},{""event"":""blur"",""trial"":153,""time"":743712},{""event"":""focus"",""trial"":153,""time"":808083},{""event"":""blur"",""trial"":259,""time"":1091255},{""event"":""focus"",""trial"":259,""time"":1156468}]",NA,NA,NA,NA,NA,1,#D89F1C,#3386FF,10,10,1,40,0,128.00000000023283,37,1,514,10,1,experiment,NA,NA,1,0.7,0.3,2,3,260,6,NA
fcp-trial,310,1280333,0.0-271.0-0.0,voc_e2,12553,"[{""event"":""fullscreenenter"",""trial"":1,""time"":2110},{""event"":""blur"",""trial"":153,""time"":743712},{""event"":""focus"",""trial"":153,""time"":808083},{""event"":""blur"",""trial"":259,""time"":1091255},{""event"":""focus"",""trial"":259,""time"":1156468}]",NA,NA,NA,NA,NA,4,#D89F1C,#3386FF,10,0,1,40,0,283,39,0,772.9999999997672,0,0,experiment,NA,NA,1,0.7,0.3,2,3,261,6,NA
fcp-trial,311,1283116,0.0-272.0-0.0,voc_e2,12553,"[{""event"":""fullscreenenter"",""trial"":1,""time"":2110},{""event"":""blur"",""trial"":153,""time"":743712},{""event"":""focus"",""trial"":153,""time"":808083},{""event"":""blur"",""trial"":259,""time"":1091255},{""event"":""focus"",""trial"":259,""time"":1156468}]",NA,NA,NA,NA,NA,0,#FA92F8,#1CD855,10,10,0,38,1,412.99999999976717,39,0,863,10,1,experiment,NA,NA,0,0.1,0.9,1,0,262,6,NA
fcp-trial,312,1285458,0.0-273.0-0.0,voc_e2,12553,"[{""event"":""fullscreenenter"",""trial"":1,""time"":2110},{""event"":""blur"",""trial"":153,""time"":743712},{""event"":""focus"",""trial"":153,""time"":808083},{""event"":""blur"",""trial"":259,""time"":1091255},{""event"":""focus"",""trial"":259,""time"":1156468}]",NA,NA,NA,NA,NA,6,#3386FF,#D89F1C,0,10,0,38,1,227,39,0,607,10,1,experiment,NA,NA,1,0.3,0.7,3,2,263,6,NA
fcp-trial,313,1288000,0.0-274.0-0.0,voc_e2,12553,"[{""event"":""fullscreenenter"",""trial"":1,""time"":2110},{""event"":""blur"",""trial"":153,""time"":743712},{""event"":""focus"",""trial"":153,""time"":808083},{""event"":""blur"",""trial"":259,""time"":1091255},{""event"":""focus"",""trial"":259,""time"":1156468}]",NA,NA,NA,NA,NA,5,#D8271C,#741CD8,10,10,0,38,1,442,39,0,583,10,1,experiment,NA,NA,2,0.5,0.5,5,4,264,6,NA
fcp-trial,314,1290687,0.0-275.0-0.0,voc_e2,12553,"[{""event"":""fullscreenenter"",""trial"":1,""time"":2110},{""event"":""blur"",""trial"":153,""time"":743712},{""event"":""focus"",""trial"":153,""time"":808083},{""event"":""blur"",""trial"":259,""time"":1091255},{""event"":""focus"",""trial"":259,""time"":1156468}]",NA,NA,NA,NA,NA,4,#1CD855,#FA92F8,10,0,1,38,1,575,37,1,602,10,1,experiment,NA,NA,0,0.9,0.1,0,1,265,6,NA
fcp-trial,315,1293124,0.0-276.0-0.0,voc_e2,12553,"[{""event"":""fullscreenenter"",""trial"":1,""time"":2110},{""event"":""blur"",""trial"":153,""time"":743712},{""event"":""focus"",""trial"":153,""time"":808083},{""event"":""blur"",""trial"":259,""time"":1091255},{""event"":""focus"",""trial"":259,""time"":1156468}]",NA,NA,NA,NA,NA,5,#1CD855,#FA92F8,10,0,1,38,1,388,37,1,539,10,1,experiment,NA,NA,0,0.9,0.1,0,1,266,6,NA
fcp-trial,316,1295505,0.0-277.0-0.0,voc_e2,12553,"[{""event"":""fullscreenenter"",""trial"":1,""time"":2110},{""event"":""blur"",""trial"":153,""time"":743712},{""event"":""focus"",""trial"":153,""time"":808083},{""event"":""blur"",""trial"":259,""time"":1091255},{""event"":""focus"",""trial"":259,""time"":1156468}]",NA,NA,NA,NA,NA,4,#D8271C,#741CD8,10,10,0,38,1,396,39,0,464.99999999976717,10,1,experiment,NA,NA,2,0.5,0.5,5,4,267,6,NA
fcp-trial,317,1297872,0.0-278.0-0.0,voc_e2,12553,"[{""event"":""fullscreenenter"",""trial"":1,""time"":2110},{""event"":""blur"",""trial"":153,""time"":743712},{""event"":""focus"",""trial"":153,""time"":808083},{""event"":""blur"",""trial"":259,""time"":1091255},{""event"":""focus"",""trial"":259,""time"":1156468}]",NA,NA,NA,NA,NA,5,#D89F1C,#3386FF,10,0,1,38,1,332,37,1,527,10,1,experiment,NA,NA,1,0.7,0.3,2,3,268,6,NA
fcp-trial,318,1300099,0.0-279.0-0.0,voc_e2,12553,"[{""event"":""fullscreenenter"",""trial"":1,""time"":2110},{""event"":""blur"",""trial"":153,""time"":743712},{""event"":""focus"",""trial"":153,""time"":808083},{""event"":""blur"",""trial"":259,""time"":1091255},{""event"":""focus"",""trial"":259,""time"":1156468}]",NA,NA,NA,NA,NA,3,#D8271C,#741CD8,10,10,0,38,1,254,39,0,466,10,1,experiment,NA,NA,2,0.5,0.5,5,4,269,6,NA
fcp-trial,319,1302784,0.0-280.0-0.0,voc_e2,12553,"[{""event"":""fullscreenenter"",""trial"":1,""time"":2110},{""event"":""blur"",""trial"":153,""time"":743712},{""event"":""focus"",""trial"":153,""time"":808083},{""event"":""blur"",""trial"":259,""time"":1091255},{""event"":""focus"",""trial"":259,""time"":1156468}]",NA,NA,NA,NA,NA,2,#FA92F8,#1CD855,0,10,0,38,1,500,39,0,678,10,1,experiment,NA,NA,0,0.1,0.9,1,0,270,6,NA
fcp-trial,320,1306687,0.0-281.0-0.0,voc_e2,12553,"[{""event"":""fullscreenenter"",""trial"":1,""time"":2110},{""event"":""blur"",""trial"":153,""time"":743712},{""event"":""focus"",""trial"":153,""time"":808083},{""event"":""blur"",""trial"":259,""time"":1091255},{""event"":""focus"",""trial"":259,""time"":1156468}]",NA,NA,NA,NA,NA,1,#1CD855,#FA92F8,10,0,1,38,1,1883.0000000002328,37,1,511,10,1,experiment,NA,NA,0,0.9,0.1,0,1,271,7,NA
fcp-trial,321,1309468,0.0-282.0-0.0,voc_e2,12553,"[{""event"":""fullscreenenter"",""trial"":1,""time"":2110},{""event"":""blur"",""trial"":153,""time"":743712},{""event"":""focus"",""trial"":153,""time"":808083},{""event"":""blur"",""trial"":259,""time"":1091255},{""event"":""focus"",""trial"":259,""time"":1156468}]",NA,NA,NA,NA,NA,2,#D8271C,#741CD8,0,0,0,38,1,671,39,0,601.9999999997672,0,1,experiment,NA,NA,2,0.5,0.5,5,4,272,7,NA
fcp-trial,322,1311833,0.0-283.0-0.0,voc_e2,12553,"[{""event"":""fullscreenenter"",""trial"":1,""time"":2110},{""event"":""blur"",""trial"":153,""time"":743712},{""event"":""focus"",""trial"":153,""time"":808083},{""event"":""blur"",""trial"":259,""time"":1091255},{""event"":""focus"",""trial"":259,""time"":1156468}]",NA,NA,NA,NA,NA,3,#D89F1C,#3386FF,10,0,1,40,0,282,37,1,570.9999999997672,10,1,experiment,NA,NA,1,0.7,0.3,2,3,273,7,NA
fcp-trial,323,1314400,0.0-284.0-0.0,voc_e2,12553,"[{""event"":""fullscreenenter"",""trial"":1,""time"":2110},{""event"":""blur"",""trial"":153,""time"":743712},{""event"":""focus"",""trial"":153,""time"":808083},{""event"":""blur"",""trial"":259,""time"":1091255},{""event"":""focus"",""trial"":259,""time"":1156468}]",NA,NA,NA,NA,NA,4,#741CD8,#D8271C,10,10,1,40,0,311,39,0,750,10,0,experiment,NA,NA,2,0.5,0.5,4,5,274,7,NA
fcp-trial,324,1316937,0.0-285.0-0.0,voc_e2,12553,"[{""event"":""fullscreenenter"",""trial"":1,""time"":2110},{""event"":""blur"",""trial"":153,""time"":743712},{""event"":""focus"",""trial"":153,""time"":808083},{""event"":""blur"",""trial"":259,""time"":1091255},{""event"":""focus"",""trial"":259,""time"":1156468}]",NA,NA,NA,NA,NA,1,#D8271C,#741CD8,0,0,0,40,0,309,39,0,717,0,1,experiment,NA,NA,2,0.5,0.5,5,4,275,7,NA
fcp-trial,325,1319258,0.0-286.0-0.0,voc_e2,12553,"[{""event"":""fullscreenenter"",""trial"":1,""time"":2110},{""event"":""blur"",""trial"":153,""time"":743712},{""event"":""focus"",""trial"":153,""time"":808083},{""event"":""blur"",""trial"":259,""time"":1091255},{""event"":""focus"",""trial"":259,""time"":1156468}]",NA,NA,NA,NA,NA,1,#1CD855,#FA92F8,10,0,1,38,1,304,37,1,505,10,1,experiment,NA,NA,0,0.9,0.1,0,1,276,7,NA
fcp-trial,326,1321673,0.0-287.0-0.0,voc_e2,12553,"[{""event"":""fullscreenenter"",""trial"":1,""time"":2110},{""event"":""blur"",""trial"":153,""time"":743712},{""event"":""focus"",""trial"":153,""time"":808083},{""event"":""blur"",""trial"":259,""time"":1091255},{""event"":""focus"",""trial"":259,""time"":1156468}]",NA,NA,NA,NA,NA,0,#1CD855,#FA92F8,10,0,1,38,1,324,37,1,572,10,1,experiment,NA,NA,0,0.9,0.1,0,1,277,7,NA
fcp-trial,327,1324301,0.0-288.0-0.0,voc_e2,12553,"[{""event"":""fullscreenenter"",""trial"":1,""time"":2110},{""event"":""blur"",""trial"":153,""time"":743712},{""event"":""focus"",""trial"":153,""time"":808083},{""event"":""blur"",""trial"":259,""time"":1091255},{""event"":""focus"",""trial"":259,""time"":1156468}]",NA,NA,NA,NA,NA,0,#3386FF,#D89F1C,0,10,0,38,1,469,39,0,651,10,1,experiment,NA,NA,1,0.3,0.7,3,2,278,7,NA
fcp-trial,328,1326751,0.0-289.0-0.0,voc_e2,12553,"[{""event"":""fullscreenenter"",""trial"":1,""time"":2110},{""event"":""blur"",""trial"":153,""time"":743712},{""event"":""focus"",""trial"":153,""time"":808083},{""event"":""blur"",""trial"":259,""time"":1091255},{""event"":""focus"",""trial"":259,""time"":1156468}]",NA,NA,NA,NA,NA,5,#FA92F8,#1CD855,10,10,0,38,1,411,39,0,531,10,1,experiment,NA,NA,0,0.1,0.9,1,0,279,7,NA
fcp-trial,329,1329040,0.0-290.0-0.0,voc_e2,12553,"[{""event"":""fullscreenenter"",""trial"":1,""time"":2110},{""event"":""blur"",""trial"":153,""time"":743712},{""event"":""focus"",""trial"":153,""time"":808083},{""event"":""blur"",""trial"":259,""time"":1091255},{""event"":""focus"",""trial"":259,""time"":1156468}]",NA,NA,NA,NA,NA,5,#741CD8,#D8271C,0,0,1,38,1,295,37,1,481.99999999976717,0,1,experiment,NA,NA,2,0.5,0.5,4,5,280,7,NA
fcp-trial,330,1331276,0.0-291.0-0.0,voc_e2,12553,"[{""event"":""fullscreenenter"",""trial"":1,""time"":2110},{""event"":""blur"",""trial"":153,""time"":743712},{""event"":""focus"",""trial"":153,""time"":808083},{""event"":""blur"",""trial"":259,""time"":1091255},{""event"":""focus"",""trial"":259,""time"":1156468}]",NA,NA,NA,NA,NA,2,#D89F1C,#3386FF,0,10,1,40,0,210,37,1,515.9999999997672,0,1,experiment,NA,NA,1,0.7,0.3,2,3,281,7,NA
fcp-trial,331,1333650,0.0-292.0-0.0,voc_e2,12553,"[{""event"":""fullscreenenter"",""trial"":1,""time"":2110},{""event"":""blur"",""trial"":153,""time"":743712},{""event"":""focus"",""trial"":153,""time"":808083},{""event"":""blur"",""trial"":259,""time"":1091255},{""event"":""focus"",""trial"":259,""time"":1156468}]",NA,NA,NA,NA,NA,3,#D89F1C,#3386FF,10,10,1,38,1,462,37,1,393,10,1,experiment,NA,NA,1,0.7,0.3,2,3,282,7,NA
fcp-trial,332,1336268,0.0-293.0-0.0,voc_e2,12553,"[{""event"":""fullscreenenter"",""trial"":1,""time"":2110},{""event"":""blur"",""trial"":153,""time"":743712},{""event"":""focus"",""trial"":153,""time"":808083},{""event"":""blur"",""trial"":259,""time"":1091255},{""event"":""focus"",""trial"":259,""time"":1156468}]",NA,NA,NA,NA,NA,4,#FA92F8,#1CD855,0,10,0,38,1,523.0000000002328,39,0,584,10,1,experiment,NA,NA,0,0.1,0.9,1,0,283,7,NA
