trial_type,trial_index,time_elapsed,internal_node_id,task_version,subject_id,interactions,success,rt,stimulus,key_press,button_pressed,offer,arcade_color_L,arcade_color_R,arcade_outcome_L,arcade_outcome_R,correct,stage_1_key,stage_1_choice,stage_1_rt,stage_2_key,stage_2_choice,stage_2_rt,stage_3_outcome,accuracy,phase,responses,num_errors,context,reward_prob_L,reward_prob_R,arcade_id_L,arcade_id_R,trial,block,response
pavlovia,0,5,0.0-0.0,voc_e2,12183,[],NA,NA,NA,NA,NA,NA,NA,NA,NA,NA,NA,NA,NA,NA,NA,NA,NA,NA,NA,NA,NA,NA,NA,NA,NA,NA,NA,NA,NA,NA
fullscreen,1,14675,0.0-1.0,voc_e2,12183,"[{""event"":""fullscreenenter"",""trial"":1,""time"":13753}]",TRUE,NA,NA,NA,NA,NA,NA,NA,NA,NA,NA,NA,NA,NA,NA,NA,NA,NA,NA,NA,NA,NA,NA,NA,NA,NA,NA,NA,NA,NA
audio-keyboard-response,2,24689,0.0-2.0,voc_e2,12183,"[{""event"":""fullscreenenter"",""trial"":1,""time"":13753}]",NA,0,static/audio/beep_loop.wav,32,NA,NA,NA,NA,NA,NA,NA,NA,NA,NA,NA,NA,NA,NA,NA,NA,NA,NA,NA,NA,NA,NA,NA,NA,NA,NA
audio-test,3,35292,0.0-3.0,voc_e2,12183,"[{""event"":""fullscreenenter"",""trial"":1,""time"":13753}]",NA,NA,static/audio/turtle.wav,NA,3,NA,NA,NA,NA,NA,NA,NA,NA,NA,NA,NA,NA,NA,NA,NA,NA,NA,NA,NA,NA,NA,NA,NA,NA,NA
audio-test,4,37557,0.0-4.0,voc_e2,12183,"[{""event"":""fullscreenenter"",""trial"":1,""time"":13753}]",NA,NA,static/audio/shark.wav,NA,2,NA,NA,NA,NA,NA,NA,NA,NA,NA,NA,NA,NA,NA,NA,NA,NA,NA,NA,NA,NA,NA,NA,NA,NA,NA
audio-instructions,5,44321,0.0-5.0-0.0,voc_e2,12183,"[{""event"":""fullscreenenter"",""trial"":1,""time"":13753}]",NA,984,static/audio/instructions1.wav,NA,0,NA,NA,NA,NA,NA,NA,NA,NA,NA,NA,NA,NA,NA,NA,NA,NA,NA,NA,NA,NA,NA,NA,NA,NA,NA
audio-instructions,6,53547,0.0-5.0-1.0,voc_e2,12183,"[{""event"":""fullscreenenter"",""trial"":1,""time"":13753}]",NA,2485,static/audio/instructions2.wav,NA,0,NA,NA,NA,NA,NA,NA,NA,NA,NA,NA,NA,NA,NA,NA,NA,NA,NA,NA,NA,NA,NA,NA,NA,NA,NA
audio-instructions,7,60163,0.0-5.0-2.0,voc_e2,12183,"[{""event"":""fullscreenenter"",""trial"":1,""time"":13753}]",NA,812.9999999999927,static/audio/instructions3.wav,NA,0,NA,NA,NA,NA,NA,NA,NA,NA,NA,NA,NA,NA,NA,NA,NA,NA,NA,NA,NA,NA,NA,NA,NA,NA,NA
audio-instructions,8,74140,0.0-5.0-3.0,voc_e2,12183,"[{""event"":""fullscreenenter"",""trial"":1,""time"":13753}]",NA,750,static/audio/instructions4.wav,NA,0,NA,NA,NA,NA,NA,NA,NA,NA,NA,NA,NA,NA,NA,NA,NA,NA,NA,NA,NA,NA,NA,NA,NA,NA,NA
audio-instructions,9,84425,0.0-5.0-4.0,voc_e2,12183,"[{""event"":""fullscreenenter"",""trial"":1,""time"":13753}]",NA,899,static/audio/instructions5.wav,NA,0,NA,NA,NA,NA,NA,NA,NA,NA,NA,NA,NA,NA,NA,NA,NA,NA,NA,NA,NA,NA,NA,NA,NA,NA,NA
fcp-practice,10,86891,0.0-5.0-5.0-0.0,voc_e2,12183,"[{""event"":""fullscreenenter"",""trial"":1,""time"":13753}]",NA,NA,NA,NA,NA,NA,#EDC948,#46d3c8,10,0,1,null,null,null,37,1,940.0000000000146,10,1,practice,NA,NA,NA,NA,NA,NA,NA,NA,NA,NA
fcp-practice,11,89019,0.0-5.0-5.0-1.0,voc_e2,12183,"[{""event"":""fullscreenenter"",""trial"":1,""time"":13753}]",NA,NA,NA,NA,NA,NA,#EDC948,#46d3c8,10,0,1,null,null,null,37,1,620.9999999999854,10,1,practice,NA,NA,NA,NA,NA,NA,NA,NA,NA,NA
fcp-practice,12,90890,0.0-5.0-5.0-2.0,voc_e2,12183,"[{""event"":""fullscreenenter"",""trial"":1,""time"":13753}]",NA,NA,NA,NA,NA,NA,#EDC948,#46d3c8,0,10,1,null,null,null,37,1,365,0,1,practice,NA,NA,NA,NA,NA,NA,NA,NA,NA,NA
fcp-practice,13,92773,0.0-5.0-5.0-3.0,voc_e2,12183,"[{""event"":""fullscreenenter"",""trial"":1,""time"":13753}]",NA,NA,NA,NA,NA,NA,#EDC948,#46d3c8,10,0,1,null,null,null,37,1,377.00000000001455,10,1,practice,NA,NA,NA,NA,NA,NA,NA,NA,NA,NA
fcp-practice,14,94629,0.0-5.0-5.0-4.0,voc_e2,12183,"[{""event"":""fullscreenenter"",""trial"":1,""time"":13753}]",NA,NA,NA,NA,NA,NA,#EDC948,#46d3c8,10,0,1,null,null,null,37,1,349.99999999998545,10,1,practice,NA,NA,NA,NA,NA,NA,NA,NA,NA,NA
audio-instructions,15,113292,0.0-5.0-6.0,voc_e2,12183,"[{""event"":""fullscreenenter"",""trial"":1,""time"":13753}]",NA,658,static/audio/instructions6.wav,NA,0,NA,NA,NA,NA,NA,NA,NA,NA,NA,NA,NA,NA,NA,NA,NA,NA,NA,NA,NA,NA,NA,NA,NA,NA,NA
audio-instructions,16,134895,0.0-5.0-7.0,voc_e2,12183,"[{""event"":""fullscreenenter"",""trial"":1,""time"":13753}]",NA,2402,static/audio/instructions7.wav,NA,0,NA,NA,NA,NA,NA,NA,NA,NA,NA,NA,NA,NA,NA,NA,NA,NA,NA,NA,NA,NA,NA,NA,NA,NA,NA
audio-instructions,17,145398,0.0-5.0-8.0,voc_e2,12183,"[{""event"":""fullscreenenter"",""trial"":1,""time"":13753}]",NA,1031,static/audio/instructions8.wav,NA,0,NA,NA,NA,NA,NA,NA,NA,NA,NA,NA,NA,NA,NA,NA,NA,NA,NA,NA,NA,NA,NA,NA,NA,NA,NA
fcp-comprehension,18,167403,0.0-5.0-9.0,voc_e2,12183,"[{""event"":""fullscreenenter"",""trial"":1,""time"":13753}]",NA,22003,NA,NA,NA,NA,NA,NA,NA,NA,NA,NA,NA,NA,NA,NA,NA,NA,NA,NA,"false,true",1,NA,NA,NA,NA,NA,NA,NA,NA
audio-instructions,19,173066,0.0-5.1-0.1,voc_e2,12183,"[{""event"":""fullscreenenter"",""trial"":1,""time"":13753}]",NA,883.0000000000291,static/audio/instructions1.wav,NA,0,NA,NA,NA,NA,NA,NA,NA,NA,NA,NA,NA,NA,NA,NA,NA,NA,NA,NA,NA,NA,NA,NA,NA,NA,NA
audio-instructions,20,180954,0.0-5.1-1.1,voc_e2,12183,"[{""event"":""fullscreenenter"",""trial"":1,""time"":13753}]",NA,1147,static/audio/instructions2.wav,NA,0,NA,NA,NA,NA,NA,NA,NA,NA,NA,NA,NA,NA,NA,NA,NA,NA,NA,NA,NA,NA,NA,NA,NA,NA,NA
audio-instructions,21,187433,0.0-5.1-2.1,voc_e2,12183,"[{""event"":""fullscreenenter"",""trial"":1,""time"":13753}]",NA,677,static/audio/instructions3.wav,NA,0,NA,NA,NA,NA,NA,NA,NA,NA,NA,NA,NA,NA,NA,NA,NA,NA,NA,NA,NA,NA,NA,NA,NA,NA,NA
audio-instructions,22,201912,0.0-5.1-3.1,voc_e2,12183,"[{""event"":""fullscreenenter"",""trial"":1,""time"":13753}]",NA,1252.000000000029,static/audio/instructions4.wav,NA,0,NA,NA,NA,NA,NA,NA,NA,NA,NA,NA,NA,NA,NA,NA,NA,NA,NA,NA,NA,NA,NA,NA,NA,NA,NA
audio-instructions,23,211803,0.0-5.1-4.1,voc_e2,12183,"[{""event"":""fullscreenenter"",""trial"":1,""time"":13753}]",NA,506,static/audio/instructions5.wav,NA,0,NA,NA,NA,NA,NA,NA,NA,NA,NA,NA,NA,NA,NA,NA,NA,NA,NA,NA,NA,NA,NA,NA,NA,NA,NA
fcp-practice,24,214281,0.0-5.1-5.1-0.1,voc_e2,12183,"[{""event"":""fullscreenenter"",""trial"":1,""time"":13753}]",NA,NA,NA,NA,NA,NA,#EDC948,#46d3c8,10,0,1,null,null,null,37,1,958.0000000000292,10,1,practice,NA,NA,NA,NA,NA,NA,NA,NA,NA,NA
fcp-practice,25,215954,0.0-5.1-5.1-1.1,voc_e2,12183,"[{""event"":""fullscreenenter"",""trial"":1,""time"":13753}]",NA,NA,NA,NA,NA,NA,#EDC948,#46d3c8,10,0,1,null,null,null,37,1,166,10,1,practice,NA,NA,NA,NA,NA,NA,NA,NA,NA,NA
fcp-practice,26,217665,0.0-5.1-5.1-2.1,voc_e2,12183,"[{""event"":""fullscreenenter"",""trial"":1,""time"":13753}]",NA,NA,NA,NA,NA,NA,#EDC948,#46d3c8,0,10,1,null,null,null,37,1,204.9999999999709,0,1,practice,NA,NA,NA,NA,NA,NA,NA,NA,NA,NA
fcp-practice,27,219377,0.0-5.1-5.1-3.1,voc_e2,12183,"[{""event"":""fullscreenenter"",""trial"":1,""time"":13753}]",NA,NA,NA,NA,NA,NA,#EDC948,#46d3c8,10,0,1,null,null,null,37,1,203,10,1,practice,NA,NA,NA,NA,NA,NA,NA,NA,NA,NA
fcp-practice,28,221012,0.0-5.1-5.1-4.1,voc_e2,12183,"[{""event"":""fullscreenenter"",""trial"":1,""time"":13753}]",NA,NA,NA,NA,NA,NA,#EDC948,#46d3c8,10,0,1,null,null,null,37,1,113,10,1,practice,NA,NA,NA,NA,NA,NA,NA,NA,NA,NA
audio-instructions,29,241895,0.0-5.1-6.1,voc_e2,12183,"[{""event"":""fullscreenenter"",""trial"":1,""time"":13753}]",NA,2876,static/audio/instructions6.wav,NA,0,NA,NA,NA,NA,NA,NA,NA,NA,NA,NA,NA,NA,NA,NA,NA,NA,NA,NA,NA,NA,NA,NA,NA,NA,NA
audio-instructions,30,262408,0.0-5.1-7.1,voc_e2,12183,"[{""event"":""fullscreenenter"",""trial"":1,""time"":13753}]",NA,1312,static/audio/instructions7.wav,NA,0,NA,NA,NA,NA,NA,NA,NA,NA,NA,NA,NA,NA,NA,NA,NA,NA,NA,NA,NA,NA,NA,NA,NA,NA,NA
audio-instructions,31,273046,0.0-5.1-8.1,voc_e2,12183,"[{""event"":""fullscreenenter"",""trial"":1,""time"":13753}]",NA,1166,static/audio/instructions8.wav,NA,0,NA,NA,NA,NA,NA,NA,NA,NA,NA,NA,NA,NA,NA,NA,NA,NA,NA,NA,NA,NA,NA,NA,NA,NA,NA
fcp-comprehension,32,294066,0.0-5.1-9.1,voc_e2,12183,"[{""event"":""fullscreenenter"",""trial"":1,""time"":13753}]",NA,21019,NA,NA,NA,NA,NA,NA,NA,NA,NA,NA,NA,NA,NA,NA,NA,NA,NA,NA,"true,true",0,NA,NA,NA,NA,NA,NA,NA,NA
audio-instructions,33,302445,0.0-6.0-0.0,voc_e2,12183,"[{""event"":""fullscreenenter"",""trial"":1,""time"":13753}]",NA,2831,static/audio/instructions9.wav,NA,0,NA,NA,NA,NA,NA,NA,NA,NA,NA,NA,NA,NA,NA,NA,NA,NA,NA,NA,NA,NA,NA,NA,NA,NA,NA
audio-instructions,34,329148,0.0-6.0-1.0,voc_e2,12183,"[{""event"":""fullscreenenter"",""trial"":1,""time"":13753}]",NA,14585.999999999942,static/audio/instructions10.wav,NA,0,NA,NA,NA,NA,NA,NA,NA,NA,NA,NA,NA,NA,NA,NA,NA,NA,NA,NA,NA,NA,NA,NA,NA,NA,NA
fcp-trial,35,340970,0.0-6.0-2.0,voc_e2,12183,"[{""event"":""fullscreenenter"",""trial"":1,""time"":13753}]",NA,NA,NA,NA,NA,0,#EDC948,#46d3c8,10,10,1,38,1,7355.000000000058,37,1,2941,10,1,practice,NA,NA,NA,NA,NA,NA,NA,NA,NA,NA
audio-instructions,36,353639,0.0-6.0-3.0,voc_e2,12183,"[{""event"":""fullscreenenter"",""trial"":1,""time"":13753}]",NA,1661,static/audio/instructions11.wav,NA,0,NA,NA,NA,NA,NA,NA,NA,NA,NA,NA,NA,NA,NA,NA,NA,NA,NA,NA,NA,NA,NA,NA,NA,NA,NA
fcp-trial,37,357669,0.0-6.0-4.0,voc_e2,12183,"[{""event"":""fullscreenenter"",""trial"":1,""time"":13753}]",NA,NA,NA,NA,NA,6,#EDC948,#46d3c8,10,10,1,40,0,1244,39,0,1264,10,0,practice,NA,NA,NA,NA,NA,NA,NA,NA,NA,NA
audio-instructions,38,377267,0.0-6.0-5.0,voc_e2,12183,"[{""event"":""fullscreenenter"",""trial"":1,""time"":13753}]",NA,906.9999999999418,static/audio/instructions12.wav,NA,0,NA,NA,NA,NA,NA,NA,NA,NA,NA,NA,NA,NA,NA,NA,NA,NA,NA,NA,NA,NA,NA,NA,NA,NA,NA
audio-instructions,39,385384,0.0-6.0-6.0,voc_e2,12183,"[{""event"":""fullscreenenter"",""trial"":1,""time"":13753}]",NA,522,static/audio/instructions13.wav,NA,0,NA,NA,NA,NA,NA,NA,NA,NA,NA,NA,NA,NA,NA,NA,NA,NA,NA,NA,NA,NA,NA,NA,NA,NA,NA
audio-instructions,40,395546,0.0-6.0-7.0,voc_e2,12183,"[{""event"":""fullscreenenter"",""trial"":1,""time"":13753}]",NA,1713,static/audio/instructions14.wav,NA,0,NA,NA,NA,NA,NA,NA,NA,NA,NA,NA,NA,NA,NA,NA,NA,NA,NA,NA,NA,NA,NA,NA,NA,NA,NA
audio-instructions,41,403080,0.0-7.0-0.0,voc_e2,12183,"[{""event"":""fullscreenenter"",""trial"":1,""time"":13753}]",NA,619.9999999999418,static/audio/instructions15.wav,NA,0,NA,NA,NA,NA,NA,NA,NA,NA,NA,NA,NA,NA,NA,NA,NA,NA,NA,NA,NA,NA,NA,NA,NA,NA,NA
audio-instructions,42,412287,0.0-7.0-1.0,voc_e2,12183,"[{""event"":""fullscreenenter"",""trial"":1,""time"":13753}]",NA,2380.000000000058,static/audio/instructions16.wav,NA,0,NA,NA,NA,NA,NA,NA,NA,NA,NA,NA,NA,NA,NA,NA,NA,NA,NA,NA,NA,NA,NA,NA,NA,NA,NA
audio-instructions,43,421133,0.0-7.0-2.0,voc_e2,12183,"[{""event"":""fullscreenenter"",""trial"":1,""time"":13753}]",NA,1167.0000000000582,static/audio/instructions17.wav,NA,0,NA,NA,NA,NA,NA,NA,NA,NA,NA,NA,NA,NA,NA,NA,NA,NA,NA,NA,NA,NA,NA,NA,NA,NA,NA
audio-instructions,44,429341,0.0-7.0-3.0,voc_e2,12183,"[{""event"":""fullscreenenter"",""trial"":1,""time"":13753}]",NA,442,static/audio/instructions18.wav,NA,0,NA,NA,NA,NA,NA,NA,NA,NA,NA,NA,NA,NA,NA,NA,NA,NA,NA,NA,NA,NA,NA,NA,NA,NA,NA
audio-instructions,45,436600,0.0-7.0-4.0,voc_e2,12183,"[{""event"":""fullscreenenter"",""trial"":1,""time"":13753}]",NA,518,static/audio/instructions19.wav,NA,0,NA,NA,NA,NA,NA,NA,NA,NA,NA,NA,NA,NA,NA,NA,NA,NA,NA,NA,NA,NA,NA,NA,NA,NA,NA
fcp-comprehension,46,463078,0.0-7.0-5.0,voc_e2,12183,"[{""event"":""fullscreenenter"",""trial"":1,""time"":13753}]",NA,26476,NA,NA,NA,NA,NA,NA,NA,NA,NA,NA,NA,NA,NA,NA,NA,NA,NA,NA,"false,false,false,true",0,NA,NA,NA,NA,NA,NA,NA,NA
audio-instructions,47,473313,0.0-8.0,voc_e2,12183,"[{""event"":""fullscreenenter"",""trial"":1,""time"":13753}]",NA,1017,static/audio/ready.wav,NA,0,NA,NA,NA,NA,NA,NA,NA,NA,NA,NA,NA,NA,NA,NA,NA,NA,NA,NA,NA,NA,NA,NA,NA,NA,NA
fcp-trial,48,478178,0.0-9.0-0.0,voc_e2,12183,"[{""event"":""fullscreenenter"",""trial"":1,""time"":13753}]",NA,NA,NA,NA,NA,6,#3386FF,#D89F1C,10,0,1,38,1,1858,39,0,1482,0,0,experiment,NA,NA,0,0.9,0.1,0,1,1,1,NA
fcp-trial,49,482632,0.0-10.0-0.0,voc_e2,12183,"[{""event"":""fullscreenenter"",""trial"":1,""time"":13753}]",NA,NA,NA,NA,NA,4,#1CD855,#FA92F8,0,10,1,40,0,1772.9999999999418,39,0,1172,10,0,experiment,NA,NA,2,0.5,0.5,4,5,2,1,NA
fcp-trial,50,487679,0.0-11.0-0.0,voc_e2,12183,"[{""event"":""fullscreenenter"",""trial"":1,""time"":13753}]",NA,NA,NA,NA,NA,3,#FA92F8,#1CD855,0,0,0,38,1,2678,37,1,861,0,0,experiment,NA,NA,2,0.5,0.5,5,4,3,1,NA
fcp-trial,51,492125,0.0-12.0-0.0,voc_e2,12183,"[{""event"":""fullscreenenter"",""trial"":1,""time"":13753}]",NA,NA,NA,NA,NA,6,#D8271C,#741CD8,10,10,0,40,0,2240,39,0,697,10,1,experiment,NA,NA,1,0.3,0.7,3,2,4,1,NA
fcp-trial,52,495210,0.0-13.0-0.0,voc_e2,12183,"[{""event"":""fullscreenenter"",""trial"":1,""time"":13753}]",NA,NA,NA,NA,NA,4,#3386FF,#D89F1C,10,0,1,40,0,899.9999999999418,37,1,676.0000000000582,10,1,experiment,NA,NA,0,0.9,0.1,0,1,5,1,NA
fcp-trial,53,498099,0.0-14.0-0.0,voc_e2,12183,"[{""event"":""fullscreenenter"",""trial"":1,""time"":13753}]",NA,NA,NA,NA,NA,6,#1CD855,#FA92F8,10,0,1,40,0,784,39,0,596,0,0,experiment,NA,NA,2,0.5,0.5,4,5,6,1,NA
fcp-trial,54,502199,0.0-15.0-0.0,voc_e2,12183,"[{""event"":""fullscreenenter"",""trial"":1,""time"":13753}]",NA,NA,NA,NA,NA,3,#D89F1C,#3386FF,0,10,0,40,0,1823.0000000000582,39,0,768,10,1,experiment,NA,NA,0,0.1,0.9,1,0,7,1,NA
fcp-trial,55,505272,0.0-16.0-0.0,voc_e2,12183,"[{""event"":""fullscreenenter"",""trial"":1,""time"":13753}]",NA,NA,NA,NA,NA,1,#741CD8,#D8271C,10,10,1,40,0,880,39,0,665,10,0,experiment,NA,NA,1,0.7,0.3,2,3,8,1,NA
fcp-trial,56,508612,0.0-17.0-0.0,voc_e2,12183,"[{""event"":""fullscreenenter"",""trial"":1,""time"":13753}]",NA,NA,NA,NA,NA,2,#741CD8,#D8271C,0,10,1,40,0,986,37,1,845,0,1,experiment,NA,NA,1,0.7,0.3,2,3,9,1,NA
fcp-trial,57,512320,0.0-18.0-0.0,voc_e2,12183,"[{""event"":""fullscreenenter"",""trial"":1,""time"":13753}]",NA,NA,NA,NA,NA,2,#D89F1C,#3386FF,10,10,0,40,0,1389,37,1,807,10,0,experiment,NA,NA,0,0.1,0.9,1,0,10,1,NA
fcp-trial,58,516042,0.0-19.0-0.0,voc_e2,12183,"[{""event"":""fullscreenenter"",""trial"":1,""time"":13753}]",NA,NA,NA,NA,NA,1,#1CD855,#FA92F8,10,10,1,38,1,1619,37,1,592.9999999999418,10,1,experiment,NA,NA,2,0.5,0.5,4,5,11,1,NA
fcp-trial,59,519198,0.0-20.0-0.0,voc_e2,12183,"[{""event"":""fullscreenenter"",""trial"":1,""time"":13753}]",NA,NA,NA,NA,NA,5,#FA92F8,#1CD855,10,10,0,40,0,872.9999999999418,37,1,773,10,0,experiment,NA,NA,2,0.5,0.5,5,4,12,1,NA
fcp-trial,60,522154,0.0-21.0-0.0,voc_e2,12183,"[{""event"":""fullscreenenter"",""trial"":1,""time"":13753}]",NA,NA,NA,NA,NA,0,#D89F1C,#3386FF,0,10,0,40,0,796.0000000000582,39,0,650.9999999999418,10,1,experiment,NA,NA,0,0.1,0.9,1,0,13,1,NA
fcp-trial,61,525697,0.0-22.0-0.0,voc_e2,12183,"[{""event"":""fullscreenenter"",""trial"":1,""time"":13753}]",NA,NA,NA,NA,NA,5,#741CD8,#D8271C,10,0,1,40,0,1363.9999999999418,37,1,667,10,1,experiment,NA,NA,1,0.7,0.3,2,3,14,1,NA
fcp-trial,62,529362,0.0-23.0-0.0,voc_e2,12183,"[{""event"":""fullscreenenter"",""trial"":1,""time"":13753}]",NA,NA,NA,NA,NA,2,#1CD855,#FA92F8,10,10,1,40,0,1574,37,1,580.9999999998836,10,1,experiment,NA,NA,2,0.5,0.5,4,5,15,1,NA
fcp-trial,63,532118,0.0-24.0-0.0,voc_e2,12183,"[{""event"":""fullscreenenter"",""trial"":1,""time"":13753}]",NA,NA,NA,NA,NA,0,#741CD8,#D8271C,10,0,1,40,0,710,39,0,537,0,0,experiment,NA,NA,1,0.7,0.3,2,3,16,1,NA
fcp-trial,64,534794,0.0-25.0-0.0,voc_e2,12183,"[{""event"":""fullscreenenter"",""trial"":1,""time"":13753}]",NA,NA,NA,NA,NA,4,#D8271C,#741CD8,0,10,0,40,0,535,39,0,629,10,1,experiment,NA,NA,1,0.3,0.7,3,2,17,1,NA
fcp-trial,65,537553,0.0-26.0-0.0,voc_e2,12183,"[{""event"":""fullscreenenter"",""trial"":1,""time"":13753}]",NA,NA,NA,NA,NA,5,#3386FF,#D89F1C,10,0,1,40,0,646,39,0,601,0,0,experiment,NA,NA,0,0.9,0.1,0,1,18,1,NA
fcp-trial,66,540577,0.0-27.0-0.0,voc_e2,12183,"[{""event"":""fullscreenenter"",""trial"":1,""time"":13753}]",NA,NA,NA,NA,NA,3,#741CD8,#D8271C,10,10,1,40,0,862,39,0,651.9999999998836,10,0,experiment,NA,NA,1,0.7,0.3,2,3,19,1,NA
fcp-trial,67,543314,0.0-28.0-0.0,voc_e2,12183,"[{""event"":""fullscreenenter"",""trial"":1,""time"":13753}]",NA,NA,NA,NA,NA,0,#1CD855,#FA92F8,10,10,1,40,0,563,39,0,663,10,0,experiment,NA,NA,2,0.5,0.5,4,5,20,1,NA
fcp-trial,68,545963,0.0-29.0-0.0,voc_e2,12183,"[{""event"":""fullscreenenter"",""trial"":1,""time"":13753}]",NA,NA,NA,NA,NA,1,#D89F1C,#3386FF,0,10,0,40,0,660.0000000001164,39,0,479,10,1,experiment,NA,NA,0,0.1,0.9,1,0,21,1,NA
fcp-trial,69,548561,0.0-30.0-0.0,voc_e2,12183,"[{""event"":""fullscreenenter"",""trial"":1,""time"":13753}]",NA,NA,NA,NA,NA,3,#741CD8,#D8271C,10,10,1,40,0,642.9999999998836,39,0,444,10,0,experiment,NA,NA,1,0.7,0.3,2,3,22,1,NA
fcp-trial,70,551347,0.0-31.0-0.0,voc_e2,12183,"[{""event"":""fullscreenenter"",""trial"":1,""time"":13753}]",NA,NA,NA,NA,NA,5,#1CD855,#FA92F8,10,0,1,40,0,731,37,1,543,10,1,experiment,NA,NA,2,0.5,0.5,4,5,23,1,NA
fcp-trial,71,553977,0.0-32.0-0.0,voc_e2,12183,"[{""event"":""fullscreenenter"",""trial"":1,""time"":13753}]",NA,NA,NA,NA,NA,1,#D89F1C,#3386FF,0,10,0,40,0,594,39,0,527,10,1,experiment,NA,NA,0,0.1,0.9,1,0,24,1,NA
fcp-trial,72,556805,0.0-33.0-0.0,voc_e2,12183,"[{""event"":""fullscreenenter"",""trial"":1,""time"":13753}]",NA,NA,NA,NA,NA,2,#D8271C,#741CD8,0,10,0,40,0,550,39,0,768,10,1,experiment,NA,NA,1,0.3,0.7,3,2,25,1,NA
fcp-trial,73,559188,0.0-34.0-0.0,voc_e2,12183,"[{""event"":""fullscreenenter"",""trial"":1,""time"":13753}]",NA,NA,NA,NA,NA,4,#FA92F8,#1CD855,0,0,0,40,0,474,39,0,401,0,1,experiment,NA,NA,2,0.5,0.5,5,4,26,1,NA
fcp-trial,74,561393,0.0-35.0-0.0,voc_e2,12183,"[{""event"":""fullscreenenter"",""trial"":1,""time"":13753}]",NA,NA,NA,NA,NA,1,#741CD8,#D8271C,10,0,1,40,0,399,39,0,295.9999999998836,0,0,experiment,NA,NA,1,0.7,0.3,2,3,27,1,NA
fcp-trial,75,563799,0.0-36.0-0.0,voc_e2,12183,"[{""event"":""fullscreenenter"",""trial"":1,""time"":13753}]",NA,NA,NA,NA,NA,4,#741CD8,#D8271C,10,0,1,40,0,531,37,1,363,10,1,experiment,NA,NA,1,0.7,0.3,2,3,28,1,NA
fcp-trial,76,566374,0.0-37.0-0.0,voc_e2,12183,"[{""event"":""fullscreenenter"",""trial"":1,""time"":13753}]",NA,NA,NA,NA,NA,4,#D89F1C,#3386FF,0,10,0,40,0,457,39,0,593.9999999998836,10,1,experiment,NA,NA,0,0.1,0.9,1,0,29,1,NA
fcp-trial,77,568689,0.0-38.0-0.0,voc_e2,12183,"[{""event"":""fullscreenenter"",""trial"":1,""time"":13753}]",NA,NA,NA,NA,NA,6,#1CD855,#FA92F8,10,0,1,40,0,414,37,1,391,10,1,experiment,NA,NA,2,0.5,0.5,4,5,30,1,NA
fcp-trial,78,572550,0.0-39.0-0.0,voc_e2,12183,"[{""event"":""fullscreenenter"",""trial"":1,""time"":13753}]",NA,NA,NA,NA,NA,5,#D8271C,#741CD8,0,10,0,38,1,2032,39,0,317,10,1,experiment,NA,NA,1,0.3,0.7,3,2,31,1,NA
fcp-trial,79,575293,0.0-40.0-0.0,voc_e2,12183,"[{""event"":""fullscreenenter"",""trial"":1,""time"":13753}]",NA,NA,NA,NA,NA,5,#D89F1C,#3386FF,0,10,0,40,0,602,37,1,630,0,0,experiment,NA,NA,0,0.1,0.9,1,0,32,1,NA
fcp-trial,80,577913,0.0-41.0-0.0,voc_e2,12183,"[{""event"":""fullscreenenter"",""trial"":1,""time"":13753}]",NA,NA,NA,NA,NA,1,#FA92F8,#1CD855,0,0,0,40,0,509,37,1,600,0,0,experiment,NA,NA,2,0.5,0.5,5,4,33,1,NA
fcp-trial,81,580721,0.0-42.0-0.0,voc_e2,12183,"[{""event"":""fullscreenenter"",""trial"":1,""time"":13753}]",NA,NA,NA,NA,NA,0,#1CD855,#FA92F8,0,10,1,40,0,579.0000000001164,39,0,719,10,0,experiment,NA,NA,2,0.5,0.5,4,5,34,1,NA
fcp-trial,82,583401,0.0-43.0-0.0,voc_e2,12183,"[{""event"":""fullscreenenter"",""trial"":1,""time"":13753}]",NA,NA,NA,NA,NA,6,#3386FF,#D89F1C,10,0,1,40,0,570,37,1,600,10,1,experiment,NA,NA,0,0.9,0.1,0,1,35,1,NA
fcp-trial,83,585960,0.0-44.0-0.0,voc_e2,12183,"[{""event"":""fullscreenenter"",""trial"":1,""time"":13753}]",NA,NA,NA,NA,NA,6,#D8271C,#741CD8,0,10,0,40,0,533,39,0,499,10,1,experiment,NA,NA,1,0.3,0.7,3,2,36,1,NA
fcp-trial,84,588654,0.0-45.0-0.0,voc_e2,12183,"[{""event"":""fullscreenenter"",""trial"":1,""time"":13753}]",NA,NA,NA,NA,NA,2,#3386FF,#D89F1C,10,0,1,40,0,473,37,1,711,10,1,experiment,NA,NA,0,0.9,0.1,0,1,37,1,NA
fcp-trial,85,591121,0.0-46.0-0.0,voc_e2,12183,"[{""event"":""fullscreenenter"",""trial"":1,""time"":13753}]",NA,NA,NA,NA,NA,3,#D89F1C,#3386FF,0,10,0,40,0,479,39,0,479.0000000001164,10,1,experiment,NA,NA,0,0.1,0.9,1,0,38,1,NA
fcp-trial,86,593614,0.0-47.0-0.0,voc_e2,12183,"[{""event"":""fullscreenenter"",""trial"":1,""time"":13753}]",NA,NA,NA,NA,NA,2,#1CD855,#FA92F8,0,0,1,40,0,416.9999999998836,37,1,566,0,1,experiment,NA,NA,2,0.5,0.5,4,5,39,1,NA
fcp-trial,87,596272,0.0-48.0-0.0,voc_e2,12183,"[{""event"":""fullscreenenter"",""trial"":1,""time"":13753}]",NA,NA,NA,NA,NA,0,#D89F1C,#3386FF,0,10,0,40,0,517,37,1,630,0,0,experiment,NA,NA,0,0.1,0.9,1,0,40,1,NA
fcp-trial,88,600051,0.0-49.0-0.0,voc_e2,12183,"[{""event"":""fullscreenenter"",""trial"":1,""time"":13753}]",NA,NA,NA,NA,NA,0,#D8271C,#741CD8,10,10,0,40,0,1649,39,0,618,10,1,experiment,NA,NA,1,0.3,0.7,3,2,41,1,NA
fcp-trial,89,604512,0.0-50.0-0.0,voc_e2,12183,"[{""event"":""fullscreenenter"",""trial"":1,""time"":13753}]",NA,NA,NA,NA,NA,3,#FA92F8,#1CD855,0,0,0,38,1,1408,37,1,1544,0,0,experiment,NA,NA,2,0.5,0.5,5,4,42,1,NA
fcp-trial,90,608371,0.0-51.0-0.0,voc_e2,12183,"[{""event"":""fullscreenenter"",""trial"":1,""time"":13753}]",NA,NA,NA,NA,NA,5,#D8271C,#741CD8,0,0,0,38,1,1775,39,0,574,0,1,experiment,NA,NA,1,0.3,0.7,3,2,43,1,NA
fcp-trial,91,610865,0.0-52.0-0.0,voc_e2,12183,"[{""event"":""fullscreenenter"",""trial"":1,""time"":13753}]",NA,NA,NA,NA,NA,1,#D89F1C,#3386FF,10,10,0,40,0,497,37,1,488,10,0,experiment,NA,NA,0,0.1,0.9,1,0,44,1,NA
fcp-trial,92,613577,0.0-53.0-0.0,voc_e2,12183,"[{""event"":""fullscreenenter"",""trial"":1,""time"":13753}]",NA,NA,NA,NA,NA,6,#D8271C,#741CD8,10,10,0,40,0,671,37,1,515.0000000001164,10,0,experiment,NA,NA,1,0.3,0.7,3,2,45,1,NA
fcp-trial,93,616503,0.0-54.0-0.0,voc_e2,12183,"[{""event"":""fullscreenenter"",""trial"":1,""time"":13753}]",NA,NA,NA,NA,NA,2,#D89F1C,#3386FF,0,10,0,40,0,546,39,0,871,10,1,experiment,NA,NA,0,0.1,0.9,1,0,46,2,NA
fcp-trial,94,619728,0.0-55.0-0.0,voc_e2,12183,"[{""event"":""fullscreenenter"",""trial"":1,""time"":13753}]",NA,NA,NA,NA,NA,3,#1CD855,#FA92F8,0,0,1,40,0,1093,39,0,620.9999999998836,0,0,experiment,NA,NA,2,0.5,0.5,4,5,47,2,NA
fcp-trial,95,622105,0.0-56.0-0.0,voc_e2,12183,"[{""event"":""fullscreenenter"",""trial"":1,""time"":13753}]",NA,NA,NA,NA,NA,0,#D89F1C,#3386FF,0,10,0,40,0,481,37,1,386,0,0,experiment,NA,NA,0,0.1,0.9,1,0,48,2,NA
fcp-trial,96,625259,0.0-57.0-0.0,voc_e2,12183,"[{""event"":""fullscreenenter"",""trial"":1,""time"":13753}]",NA,NA,NA,NA,NA,3,#741CD8,#D8271C,10,10,1,38,1,1336,37,1,308,10,1,experiment,NA,NA,1,0.7,0.3,2,3,49,2,NA
fcp-trial,97,629404,0.0-58.0-0.0,voc_e2,12183,"[{""event"":""fullscreenenter"",""trial"":1,""time"":13753}]",NA,NA,NA,NA,NA,5,#FA92F8,#1CD855,0,0,0,38,1,1208.0000000001164,39,0,1427.0000000001164,0,1,experiment,NA,NA,2,0.5,0.5,5,4,50,2,NA
fcp-trial,98,632051,0.0-59.0-0.0,voc_e2,12183,"[{""event"":""fullscreenenter"",""trial"":1,""time"":13753}]",NA,NA,NA,NA,NA,5,#3386FF,#D89F1C,0,0,1,38,1,468,39,0,670,0,0,experiment,NA,NA,0,0.9,0.1,0,1,51,2,NA
fcp-trial,99,634614,0.0-60.0-0.0,voc_e2,12183,"[{""event"":""fullscreenenter"",""trial"":1,""time"":13753}]",NA,NA,NA,NA,NA,1,#D8271C,#741CD8,0,0,0,38,1,773,39,0,278,0,1,experiment,NA,NA,1,0.3,0.7,3,2,52,2,NA
fcp-trial,100,636830,0.0-61.0-0.0,voc_e2,12183,"[{""event"":""fullscreenenter"",""trial"":1,""time"":13753}]",NA,NA,NA,NA,NA,2,#D8271C,#741CD8,0,10,0,40,0,311,37,1,395,0,0,experiment,NA,NA,1,0.3,0.7,3,2,53,2,NA
fcp-trial,101,639104,0.0-62.0-0.0,voc_e2,12183,"[{""event"":""fullscreenenter"",""trial"":1,""time"":13753}]",NA,NA,NA,NA,NA,6,#D89F1C,#3386FF,0,10,0,40,0,292.0000000001164,37,1,454,0,0,experiment,NA,NA,0,0.1,0.9,1,0,54,2,NA
fcp-trial,102,642083,0.0-63.0-0.0,voc_e2,12183,"[{""event"":""fullscreenenter"",""trial"":1,""time"":13753}]",NA,NA,NA,NA,NA,6,#FA92F8,#1CD855,0,0,0,40,0,547,37,1,922,0,0,experiment,NA,NA,2,0.5,0.5,5,4,55,2,NA
fcp-trial,103,645086,0.0-64.0-0.0,voc_e2,12183,"[{""event"":""fullscreenenter"",""trial"":1,""time"":13753}]",NA,NA,NA,NA,NA,4,#D89F1C,#3386FF,0,10,0,40,0,361,37,1,1132,0,0,experiment,NA,NA,0,0.1,0.9,1,0,56,2,NA
fcp-trial,104,647772,0.0-65.0-0.0,voc_e2,12183,"[{""event"":""fullscreenenter"",""trial"":1,""time"":13753}]",NA,NA,NA,NA,NA,1,#FA92F8,#1CD855,10,10,0,40,0,308,37,1,867.9999999998836,10,0,experiment,NA,NA,2,0.5,0.5,5,4,57,2,NA
fcp-trial,105,650112,0.0-66.0-0.0,voc_e2,12183,"[{""event"":""fullscreenenter"",""trial"":1,""time"":13753}]",NA,NA,NA,NA,NA,4,#D8271C,#741CD8,0,0,0,40,0,370,37,1,459,0,0,experiment,NA,NA,1,0.3,0.7,3,2,58,2,NA
fcp-trial,106,654058,0.0-67.0-0.0,voc_e2,12183,"[{""event"":""fullscreenenter"",""trial"":1,""time"":13753}]",NA,NA,NA,NA,NA,2,#1CD855,#FA92F8,0,10,1,38,1,2016,39,0,420,10,0,experiment,NA,NA,2,0.5,0.5,4,5,59,2,NA
fcp-trial,107,656660,0.0-68.0-0.0,voc_e2,12183,"[{""event"":""fullscreenenter"",""trial"":1,""time"":13753}]",NA,NA,NA,NA,NA,4,#FA92F8,#1CD855,10,0,0,38,1,806,37,1,286,10,0,experiment,NA,NA,2,0.5,0.5,5,4,60,2,NA
fcp-trial,108,659475,0.0-69.0-0.0,voc_e2,12183,"[{""event"":""fullscreenenter"",""trial"":1,""time"":13753}]",NA,NA,NA,NA,NA,3,#D89F1C,#3386FF,0,10,0,38,1,1040,39,0,264,10,1,experiment,NA,NA,0,0.1,0.9,1,0,61,2,NA
fcp-trial,109,661896,0.0-70.0-0.0,voc_e2,12183,"[{""event"":""fullscreenenter"",""trial"":1,""time"":13753}]",NA,NA,NA,NA,NA,0,#741CD8,#D8271C,10,0,1,38,1,480,37,1,430,10,1,experiment,NA,NA,1,0.7,0.3,2,3,62,2,NA
fcp-trial,110,664785,0.0-71.0-0.0,voc_e2,12183,"[{""event"":""fullscreenenter"",""trial"":1,""time"":13753}]",NA,NA,NA,NA,NA,0,#FA92F8,#1CD855,10,0,0,38,1,1044,39,0,315,0,1,experiment,NA,NA,2,0.5,0.5,5,4,63,2,NA
fcp-trial,111,668337,0.0-72.0-0.0,voc_e2,12183,"[{""event"":""fullscreenenter"",""trial"":1,""time"":13753}]",NA,NA,NA,NA,NA,3,#D89F1C,#3386FF,10,10,0,38,1,513,39,0,1528,10,1,experiment,NA,NA,0,0.1,0.9,1,0,64,2,NA
fcp-trial,112,671724,0.0-73.0-0.0,voc_e2,12183,"[{""event"":""fullscreenenter"",""trial"":1,""time"":13753}]",NA,NA,NA,NA,NA,5,#1CD855,#FA92F8,0,0,1,38,1,746,39,0,1131,0,0,experiment,NA,NA,2,0.5,0.5,4,5,65,2,NA
fcp-trial,113,674885,0.0-74.0-0.0,voc_e2,12183,"[{""event"":""fullscreenenter"",""trial"":1,""time"":13753}]",NA,NA,NA,NA,NA,1,#D89F1C,#3386FF,0,10,0,40,0,1202,39,0,449,10,1,experiment,NA,NA,0,0.1,0.9,1,0,66,2,NA
fcp-trial,114,678197,0.0-75.0-0.0,voc_e2,12183,"[{""event"":""fullscreenenter"",""trial"":1,""time"":13753}]",NA,NA,NA,NA,NA,0,#741CD8,#D8271C,10,0,1,38,1,1057.0000000001164,37,1,744.0000000001164,10,1,experiment,NA,NA,1,0.7,0.3,2,3,67,2,NA
fcp-trial,115,681437,0.0-76.0-0.0,voc_e2,12183,"[{""event"":""fullscreenenter"",""trial"":1,""time"":13753}]",NA,NA,NA,NA,NA,4,#3386FF,#D89F1C,10,0,1,38,1,795.9999999998836,37,1,915,10,1,experiment,NA,NA,0,0.9,0.1,0,1,68,2,NA
fcp-trial,116,683835,0.0-77.0-0.0,voc_e2,12183,"[{""event"":""fullscreenenter"",""trial"":1,""time"":13753}]",NA,NA,NA,NA,NA,2,#1CD855,#FA92F8,10,10,1,38,1,580.9999999998836,39,0,306.9999999998836,10,0,experiment,NA,NA,2,0.5,0.5,4,5,69,2,NA
fcp-trial,117,686295,0.0-78.0-0.0,voc_e2,12183,"[{""event"":""fullscreenenter"",""trial"":1,""time"":13753}]",NA,NA,NA,NA,NA,4,#741CD8,#D8271C,0,0,1,38,1,561,37,1,388,0,1,experiment,NA,NA,1,0.7,0.3,2,3,70,2,NA
fcp-trial,118,689997,0.0-79.0-0.0,voc_e2,12183,"[{""event"":""fullscreenenter"",""trial"":1,""time"":13753}]",NA,NA,NA,NA,NA,2,#3386FF,#D89F1C,10,0,1,38,1,1390,37,1,802,10,1,experiment,NA,NA,0,0.9,0.1,0,1,71,2,NA
fcp-trial,119,692728,0.0-80.0-0.0,voc_e2,12183,"[{""event"":""fullscreenenter"",""trial"":1,""time"":13753}]",NA,NA,NA,NA,NA,3,#1CD855,#FA92F8,0,0,1,38,1,791.9999999998836,39,0,413,0,0,experiment,NA,NA,2,0.5,0.5,4,5,72,2,NA
fcp-trial,120,695680,0.0-81.0-0.0,voc_e2,12183,"[{""event"":""fullscreenenter"",""trial"":1,""time"":13753}]",NA,NA,NA,NA,NA,3,#D8271C,#741CD8,0,10,0,38,1,773.0000000001164,39,0,655,10,1,experiment,NA,NA,1,0.3,0.7,3,2,73,2,NA
fcp-trial,121,699333,0.0-82.0-0.0,voc_e2,12183,"[{""event"":""fullscreenenter"",""trial"":1,""time"":13753}]",NA,NA,NA,NA,NA,5,#3386FF,#D89F1C,10,0,1,38,1,762,39,0,1380,0,0,experiment,NA,NA,0,0.9,0.1,0,1,74,2,NA
fcp-trial,122,708800,0.0-83.0-0.0,voc_e2,12183,"[{""event"":""fullscreenenter"",""trial"":1,""time"":13753}]",NA,NA,NA,NA,NA,6,#FA92F8,#1CD855,0,0,0,38,1,7003.000000000116,37,1,954,0,0,experiment,NA,NA,2,0.5,0.5,5,4,75,2,NA
fcp-trial,123,711612,0.0-84.0-0.0,voc_e2,12183,"[{""event"":""fullscreenenter"",""trial"":1,""time"":13753}]",NA,NA,NA,NA,NA,1,#FA92F8,#1CD855,10,10,0,38,1,856,39,0,444.9999999998836,10,1,experiment,NA,NA,2,0.5,0.5,5,4,76,2,NA
fcp-trial,124,714079,0.0-85.0-0.0,voc_e2,12183,"[{""event"":""fullscreenenter"",""trial"":1,""time"":13753}]",NA,NA,NA,NA,NA,4,#FA92F8,#1CD855,10,0,0,38,1,575,39,0,382,0,1,experiment,NA,NA,2,0.5,0.5,5,4,77,2,NA
fcp-trial,125,716935,0.0-86.0-0.0,voc_e2,12183,"[{""event"":""fullscreenenter"",""trial"":1,""time"":13753}]",NA,NA,NA,NA,NA,6,#741CD8,#D8271C,0,0,1,40,0,235,39,0,1108.9999999998836,0,0,experiment,NA,NA,1,0.7,0.3,2,3,78,2,NA
fcp-trial,126,721706,0.0-87.0-0.0,voc_e2,12183,"[{""event"":""fullscreenenter"",""trial"":1,""time"":13753}]",NA,NA,NA,NA,NA,0,#D89F1C,#3386FF,0,10,0,38,1,1160,39,0,2102,10,1,experiment,NA,NA,0,0.1,0.9,1,0,79,2,NA
fcp-trial,127,724378,0.0-88.0-0.0,voc_e2,12183,"[{""event"":""fullscreenenter"",""trial"":1,""time"":13753}]",NA,NA,NA,NA,NA,1,#D8271C,#741CD8,0,10,0,38,1,808.0000000001164,39,0,354.9999999998836,10,1,experiment,NA,NA,1,0.3,0.7,3,2,80,2,NA
fcp-trial,128,727579,0.0-89.0-0.0,voc_e2,12183,"[{""event"":""fullscreenenter"",""trial"":1,""time"":13753}]",NA,NA,NA,NA,NA,0,#1CD855,#FA92F8,0,10,1,38,1,1028,37,1,661.9999999998836,0,1,experiment,NA,NA,2,0.5,0.5,4,5,81,2,NA
fcp-trial,129,730994,0.0-90.0-0.0,voc_e2,12183,"[{""event"":""fullscreenenter"",""trial"":1,""time"":13753}]",NA,NA,NA,NA,NA,6,#3386FF,#D89F1C,10,0,1,38,1,584,39,0,1320.0000000001164,0,0,experiment,NA,NA,0,0.9,0.1,0,1,82,2,NA
fcp-trial,130,734410,0.0-91.0-0.0,voc_e2,12183,"[{""event"":""fullscreenenter"",""trial"":1,""time"":13753}]",NA,NA,NA,NA,NA,2,#D8271C,#741CD8,0,10,0,38,1,1616.9999999998836,39,0,267,10,1,experiment,NA,NA,1,0.3,0.7,3,2,83,2,NA
fcp-trial,131,737306,0.0-92.0-0.0,voc_e2,12183,"[{""event"":""fullscreenenter"",""trial"":1,""time"":13753}]",NA,NA,NA,NA,NA,5,#741CD8,#D8271C,10,0,1,40,0,856,39,0,530,0,0,experiment,NA,NA,1,0.7,0.3,2,3,84,2,NA
fcp-trial,132,740740,0.0-93.0-0.0,voc_e2,12183,"[{""event"":""fullscreenenter"",""trial"":1,""time"":13753}]",NA,NA,NA,NA,NA,5,#3386FF,#D89F1C,10,10,1,40,0,1061,39,0,863,10,0,experiment,NA,NA,0,0.9,0.1,0,1,85,2,NA
fcp-trial,133,744681,0.0-94.0-0.0,voc_e2,12183,"[{""event"":""fullscreenenter"",""trial"":1,""time"":13753}]",NA,NA,NA,NA,NA,3,#741CD8,#D8271C,0,0,1,38,1,1809,37,1,621,0,1,experiment,NA,NA,1,0.7,0.3,2,3,86,2,NA
fcp-trial,134,749808,0.0-95.0-0.0,voc_e2,12183,"[{""event"":""fullscreenenter"",""trial"":1,""time"":13753}]",NA,NA,NA,NA,NA,0,#D8271C,#741CD8,0,0,0,38,1,3058,37,1,558,0,0,experiment,NA,NA,1,0.3,0.7,3,2,87,2,NA
fcp-trial,135,752260,0.0-96.0-0.0,voc_e2,12183,"[{""event"":""fullscreenenter"",""trial"":1,""time"":13753}]",NA,NA,NA,NA,NA,6,#D8271C,#741CD8,10,10,0,38,1,684,39,0,257,10,1,experiment,NA,NA,1,0.3,0.7,3,2,88,2,NA
fcp-trial,136,754851,0.0-97.0-0.0,voc_e2,12183,"[{""event"":""fullscreenenter"",""trial"":1,""time"":13753}]",NA,NA,NA,NA,NA,6,#1CD855,#FA92F8,0,0,1,38,1,528,39,0,534,0,0,experiment,NA,NA,2,0.5,0.5,4,5,89,2,NA
fcp-trial,137,759073,0.0-98.0-0.0,voc_e2,12183,"[{""event"":""fullscreenenter"",""trial"":1,""time"":13753}]",NA,NA,NA,NA,NA,3,#3386FF,#D89F1C,10,0,1,38,1,2230,37,1,483,10,1,experiment,NA,NA,0,0.9,0.1,0,1,90,2,NA
fcp-trial,138,763765,0.0-99.0-0.0,voc_e2,12183,"[{""event"":""fullscreenenter"",""trial"":1,""time"":13753}]",NA,NA,NA,NA,NA,1,#D89F1C,#3386FF,0,10,0,38,1,1552,39,0,1631,10,1,experiment,NA,NA,0,0.1,0.9,1,0,91,3,NA
fcp-trial,139,766764,0.0-100.0-0.0,voc_e2,12183,"[{""event"":""fullscreenenter"",""trial"":1,""time"":13753}]",NA,NA,NA,NA,NA,2,#741CD8,#D8271C,10,0,1,38,1,1008,37,1,482,10,1,experiment,NA,NA,1,0.7,0.3,2,3,92,3,NA
fcp-trial,140,769622,0.0-101.0-0.0,voc_e2,12183,"[{""event"":""fullscreenenter"",""trial"":1,""time"":13753}]",NA,NA,NA,NA,NA,0,#1CD855,#FA92F8,0,0,1,38,1,639,39,0,707,0,0,experiment,NA,NA,2,0.5,0.5,4,5,93,3,NA
fcp-trial,141,772292,0.0-102.0-0.0,voc_e2,12183,"[{""event"":""fullscreenenter"",""trial"":1,""time"":13753}]",NA,NA,NA,NA,NA,2,#3386FF,#D89F1C,10,0,1,38,1,674,37,1,486,10,1,experiment,NA,NA,0,0.9,0.1,0,1,94,3,NA
fcp-trial,142,775142,0.0-103.0-0.0,voc_e2,12183,"[{""event"":""fullscreenenter"",""trial"":1,""time"":13753}]",NA,NA,NA,NA,NA,5,#741CD8,#D8271C,10,10,1,38,1,1024,37,1,317,10,1,experiment,NA,NA,1,0.7,0.3,2,3,95,3,NA
fcp-trial,143,778737,0.0-104.0-0.0,voc_e2,12183,"[{""event"":""fullscreenenter"",""trial"":1,""time"":13753}]",NA,NA,NA,NA,NA,2,#FA92F8,#1CD855,0,0,0,38,1,1212.9999999998836,37,1,871,0,0,experiment,NA,NA,2,0.5,0.5,5,4,96,3,NA
fcp-trial,144,786412,0.0-105.0-0.0,voc_e2,12183,"[{""event"":""fullscreenenter"",""trial"":1,""time"":13753}]",NA,NA,NA,NA,NA,0,#3386FF,#D89F1C,10,0,1,38,1,5449.000000000116,37,1,715,10,1,experiment,NA,NA,0,0.9,0.1,0,1,97,3,NA
fcp-trial,145,788916,0.0-106.0-0.0,voc_e2,12183,"[{""event"":""fullscreenenter"",""trial"":1,""time"":13753}]",NA,NA,NA,NA,NA,3,#FA92F8,#1CD855,0,0,0,38,1,540,39,0,454.0000000001164,0,1,experiment,NA,NA,2,0.5,0.5,5,4,98,3,NA
fcp-trial,146,791839,0.0-107.0-0.0,voc_e2,12183,"[{""event"":""fullscreenenter"",""trial"":1,""time"":13753}]",NA,NA,NA,NA,NA,6,#D89F1C,#3386FF,0,10,0,38,1,364,39,0,1049,10,1,experiment,NA,NA,0,0.1,0.9,1,0,99,3,NA
fcp-trial,147,795195,0.0-108.0-0.0,voc_e2,12183,"[{""event"":""fullscreenenter"",""trial"":1,""time"":13753}]",NA,NA,NA,NA,NA,1,#741CD8,#D8271C,0,0,1,38,1,1273,37,1,573.0000000001164,0,1,experiment,NA,NA,1,0.7,0.3,2,3,100,3,NA
fcp-trial,148,800678,0.0-109.0-0.0,voc_e2,12183,"[{""event"":""fullscreenenter"",""trial"":1,""time"":13753}]",NA,NA,NA,NA,NA,4,#D89F1C,#3386FF,0,10,0,38,1,3051.9999999998836,37,1,899.9999999998836,0,0,experiment,NA,NA,0,0.1,0.9,1,0,101,3,NA
fcp-trial,149,803177,0.0-110.0-0.0,voc_e2,12183,"[{""event"":""fullscreenenter"",""trial"":1,""time"":13753}]",NA,NA,NA,NA,NA,5,#1CD855,#FA92F8,10,0,1,38,1,302,39,0,689,0,0,experiment,NA,NA,2,0.5,0.5,4,5,102,3,NA
fcp-trial,150,805723,0.0-111.0-0.0,voc_e2,12183,"[{""event"":""fullscreenenter"",""trial"":1,""time"":13753}]",NA,NA,NA,NA,NA,4,#741CD8,#D8271C,10,0,1,38,1,269.9999999998836,37,1,762,10,1,experiment,NA,NA,1,0.7,0.3,2,3,103,3,NA
fcp-trial,151,809049,0.0-112.0-0.0,voc_e2,12183,"[{""event"":""fullscreenenter"",""trial"":1,""time"":13753}]",NA,NA,NA,NA,NA,1,#FA92F8,#1CD855,10,10,0,38,1,434,37,1,1381,10,0,experiment,NA,NA,2,0.5,0.5,5,4,104,3,NA
fcp-trial,152,812277,0.0-113.0-0.0,voc_e2,12183,"[{""event"":""fullscreenenter"",""trial"":1,""time"":13753}]",NA,NA,NA,NA,NA,4,#1CD855,#FA92F8,10,10,1,38,1,361.0000000001164,39,0,1354.9999999998836,10,0,experiment,NA,NA,2,0.5,0.5,4,5,105,3,NA
audio-instructions,153,827239,0.0-114.0,voc_e2,12183,"[{""event"":""fullscreenenter"",""trial"":1,""time"":13753}]",NA,10521.999999999884,static/audio/pause.wav,NA,0,NA,NA,NA,NA,NA,NA,NA,NA,NA,NA,NA,NA,NA,NA,NA,NA,NA,NA,NA,NA,NA,NA,NA,NA,NA
fcp-trial,154,831710,0.0-115.0-0.0,voc_e2,12183,"[{""event"":""fullscreenenter"",""trial"":1,""time"":13753}]",NA,NA,NA,NA,NA,5,#FA92F8,#1CD855,10,10,0,38,1,1626,37,1,1323,10,0,experiment,NA,NA,2,0.5,0.5,5,4,106,3,NA
fcp-trial,155,834834,0.0-116.0-0.0,voc_e2,12183,"[{""event"":""fullscreenenter"",""trial"":1,""time"":13753}]",NA,NA,NA,NA,NA,2,#3386FF,#D89F1C,10,0,1,38,1,362.9999999998836,37,1,1253,10,1,experiment,NA,NA,0,0.9,0.1,0,1,107,3,NA
fcp-trial,156,837424,0.0-117.0-0.0,voc_e2,12183,"[{""event"":""fullscreenenter"",""trial"":1,""time"":13753}]",NA,NA,NA,NA,NA,4,#FA92F8,#1CD855,10,0,0,38,1,680,39,0,400,0,1,experiment,NA,NA,2,0.5,0.5,5,4,108,3,NA
fcp-trial,157,839830,0.0-118.0-0.0,voc_e2,12183,"[{""event"":""fullscreenenter"",""trial"":1,""time"":13753}]",NA,NA,NA,NA,NA,6,#D8271C,#741CD8,0,10,0,38,1,397.0000000001164,39,0,481.9999999998836,10,1,experiment,NA,NA,1,0.3,0.7,3,2,109,3,NA
fcp-trial,158,842610,0.0-119.0-0.0,voc_e2,12183,"[{""event"":""fullscreenenter"",""trial"":1,""time"":13753}]",NA,NA,NA,NA,NA,0,#3386FF,#D89F1C,10,0,1,38,1,707,37,1,562,10,1,experiment,NA,NA,0,0.9,0.1,0,1,110,3,NA
fcp-trial,159,845768,0.0-120.0-0.0,voc_e2,12183,"[{""event"":""fullscreenenter"",""trial"":1,""time"":13753}]",NA,NA,NA,NA,NA,6,#FA92F8,#1CD855,10,10,0,38,1,481,37,1,1163.9999999998836,10,0,experiment,NA,NA,2,0.5,0.5,5,4,111,3,NA
fcp-trial,160,848246,0.0-121.0-0.0,voc_e2,12183,"[{""event"":""fullscreenenter"",""trial"":1,""time"":13753}]",NA,NA,NA,NA,NA,4,#D89F1C,#3386FF,0,10,0,38,1,353,39,0,614,10,1,experiment,NA,NA,0,0.1,0.9,1,0,112,3,NA
fcp-trial,161,851404,0.0-122.0-0.0,voc_e2,12183,"[{""event"":""fullscreenenter"",""trial"":1,""time"":13753}]",NA,NA,NA,NA,NA,5,#741CD8,#D8271C,10,0,1,40,0,1147,39,0,503,0,0,experiment,NA,NA,1,0.7,0.3,2,3,113,3,NA
fcp-trial,162,853845,0.0-123.0-0.0,voc_e2,12183,"[{""event"":""fullscreenenter"",""trial"":1,""time"":13753}]",NA,NA,NA,NA,NA,4,#741CD8,#D8271C,10,10,1,38,1,439,37,1,490.9999999998836,10,1,experiment,NA,NA,1,0.7,0.3,2,3,114,3,NA
fcp-trial,163,856490,0.0-124.0-0.0,voc_e2,12183,"[{""event"":""fullscreenenter"",""trial"":1,""time"":13753}]",NA,NA,NA,NA,NA,2,#741CD8,#D8271C,10,10,1,38,1,418,37,1,716,10,1,experiment,NA,NA,1,0.7,0.3,2,3,115,3,NA
fcp-trial,164,858995,0.0-125.0-0.0,voc_e2,12183,"[{""event"":""fullscreenenter"",""trial"":1,""time"":13753}]",NA,NA,NA,NA,NA,3,#FA92F8,#1CD855,0,0,0,38,1,377.0000000001164,37,1,599,0,0,experiment,NA,NA,2,0.5,0.5,5,4,116,3,NA
fcp-trial,165,862042,0.0-126.0-0.0,voc_e2,12183,"[{""event"":""fullscreenenter"",""trial"":1,""time"":13753}]",NA,NA,NA,NA,NA,1,#3386FF,#D89F1C,10,10,1,38,1,697,37,1,841,10,1,experiment,NA,NA,0,0.9,0.1,0,1,117,3,NA
fcp-trial,166,866299,0.0-127.0-0.0,voc_e2,12183,"[{""event"":""fullscreenenter"",""trial"":1,""time"":13753}]",NA,NA,NA,NA,NA,1,#1CD855,#FA92F8,10,0,1,38,1,667,39,0,2080,0,0,experiment,NA,NA,2,0.5,0.5,4,5,118,3,NA
fcp-trial,167,869482,0.0-128.0-0.0,voc_e2,12183,"[{""event"":""fullscreenenter"",""trial"":1,""time"":13753}]",NA,NA,NA,NA,NA,6,#3386FF,#D89F1C,10,0,1,38,1,515.0000000001164,37,1,1157,10,1,experiment,NA,NA,0,0.9,0.1,0,1,119,3,NA
fcp-trial,168,872862,0.0-129.0-0.0,voc_e2,12183,"[{""event"":""fullscreenenter"",""trial"":1,""time"":13753}]",NA,NA,NA,NA,NA,1,#741CD8,#D8271C,10,10,1,38,1,813,37,1,1058,10,1,experiment,NA,NA,1,0.7,0.3,2,3,120,3,NA
fcp-trial,169,875863,0.0-130.0-0.0,voc_e2,12183,"[{""event"":""fullscreenenter"",""trial"":1,""time"":13753}]",NA,NA,NA,NA,NA,3,#D8271C,#741CD8,0,0,0,38,1,394,39,0,1096,0,1,experiment,NA,NA,1,0.3,0.7,3,2,121,3,NA
fcp-trial,170,878427,0.0-131.0-0.0,voc_e2,12183,"[{""event"":""fullscreenenter"",""trial"":1,""time"":13753}]",NA,NA,NA,NA,NA,5,#3386FF,#D89F1C,10,0,1,38,1,460,37,1,594,10,1,experiment,NA,NA,0,0.9,0.1,0,1,122,3,NA
fcp-trial,171,881647,0.0-132.0-0.0,voc_e2,12183,"[{""event"":""fullscreenenter"",""trial"":1,""time"":13753}]",NA,NA,NA,NA,NA,0,#FA92F8,#1CD855,0,10,0,38,1,587,39,0,1123,10,1,experiment,NA,NA,2,0.5,0.5,5,4,123,3,NA
fcp-trial,172,884141,0.0-133.0-0.0,voc_e2,12183,"[{""event"":""fullscreenenter"",""trial"":1,""time"":13753}]",NA,NA,NA,NA,NA,3,#3386FF,#D89F1C,10,0,1,38,1,333,37,1,652.0000000001164,10,1,experiment,NA,NA,0,0.9,0.1,0,1,124,3,NA
fcp-trial,173,890193,0.0-134.0-0.0,voc_e2,12183,"[{""event"":""fullscreenenter"",""trial"":1,""time"":13753}]",NA,NA,NA,NA,NA,0,#741CD8,#D8271C,10,0,1,38,1,312,37,1,4229.999999999884,10,1,experiment,NA,NA,1,0.7,0.3,2,3,125,3,NA
fcp-trial,174,893154,0.0-135.0-0.0,voc_e2,12183,"[{""event"":""fullscreenenter"",""trial"":1,""time"":13753}]",NA,NA,NA,NA,NA,2,#FA92F8,#1CD855,10,0,0,38,1,846,37,1,589.9999999998836,10,0,experiment,NA,NA,2,0.5,0.5,5,4,126,3,NA
fcp-trial,175,896407,0.0-136.0-0.0,voc_e2,12183,"[{""event"":""fullscreenenter"",""trial"":1,""time"":13753}]",NA,NA,NA,NA,NA,3,#FA92F8,#1CD855,10,10,0,38,1,832,37,1,909.9999999998836,10,0,experiment,NA,NA,2,0.5,0.5,5,4,127,3,NA
fcp-trial,176,899742,0.0-137.0-0.0,voc_e2,12183,"[{""event"":""fullscreenenter"",""trial"":1,""time"":13753}]",NA,NA,NA,NA,NA,6,#3386FF,#D89F1C,10,0,1,38,1,436.0000000001164,37,1,1388.0000000001164,10,1,experiment,NA,NA,0,0.9,0.1,0,1,128,3,NA
fcp-trial,177,902221,0.0-138.0-0.0,voc_e2,12183,"[{""event"":""fullscreenenter"",""trial"":1,""time"":13753}]",NA,NA,NA,NA,NA,6,#741CD8,#D8271C,10,10,1,38,1,390,37,1,578,10,1,experiment,NA,NA,1,0.7,0.3,2,3,129,3,NA
fcp-trial,178,905237,0.0-139.0-0.0,voc_e2,12183,"[{""event"":""fullscreenenter"",""trial"":1,""time"":13753}]",NA,NA,NA,NA,NA,2,#FA92F8,#1CD855,0,0,0,38,1,780.0000000001164,37,1,725.0000000001164,0,0,experiment,NA,NA,2,0.5,0.5,5,4,130,3,NA
fcp-trial,179,908284,0.0-140.0-0.0,voc_e2,12183,"[{""event"":""fullscreenenter"",""trial"":1,""time"":13753}]",NA,NA,NA,NA,NA,0,#1CD855,#FA92F8,0,10,1,38,1,536,39,0,997,10,0,experiment,NA,NA,2,0.5,0.5,4,5,131,3,NA
fcp-trial,180,911553,0.0-141.0-0.0,voc_e2,12183,"[{""event"":""fullscreenenter"",""trial"":1,""time"":13753}]",NA,NA,NA,NA,NA,5,#FA92F8,#1CD855,10,10,0,40,0,1240,37,1,516,10,0,experiment,NA,NA,2,0.5,0.5,5,4,132,3,NA
fcp-trial,181,914423,0.0-142.0-0.0,voc_e2,12183,"[{""event"":""fullscreenenter"",""trial"":1,""time"":13753}]",NA,NA,NA,NA,NA,0,#3386FF,#D89F1C,10,0,1,38,1,866.9999999998836,37,1,491,10,1,experiment,NA,NA,0,0.9,0.1,0,1,133,3,NA
fcp-trial,182,917235,0.0-143.0-0.0,voc_e2,12183,"[{""event"":""fullscreenenter"",""trial"":1,""time"":13753}]",NA,NA,NA,NA,NA,5,#741CD8,#D8271C,10,0,1,40,0,783,39,0,499,0,0,experiment,NA,NA,1,0.7,0.3,2,3,134,3,NA
fcp-trial,183,919868,0.0-144.0-0.0,voc_e2,12183,"[{""event"":""fullscreenenter"",""trial"":1,""time"":13753}]",NA,NA,NA,NA,NA,1,#3386FF,#D89F1C,10,0,1,38,1,493.9999999998836,37,1,628,10,1,experiment,NA,NA,0,0.9,0.1,0,1,135,3,NA
fcp-trial,184,922848,0.0-145.0-0.0,voc_e2,12183,"[{""event"":""fullscreenenter"",""trial"":1,""time"":13753}]",NA,NA,NA,NA,NA,1,#D8271C,#741CD8,0,10,0,38,1,806,39,0,664,10,1,experiment,NA,NA,1,0.3,0.7,3,2,136,4,NA
fcp-trial,185,926604,0.0-146.0-0.0,voc_e2,12183,"[{""event"":""fullscreenenter"",""trial"":1,""time"":13753}]",NA,NA,NA,NA,NA,4,#FA92F8,#1CD855,0,0,0,40,0,1844,37,1,400,0,0,experiment,NA,NA,2,0.5,0.5,5,4,137,4,NA
fcp-trial,186,931550,0.0-147.0-0.0,voc_e2,12183,"[{""event"":""fullscreenenter"",""trial"":1,""time"":13753}]",NA,NA,NA,NA,NA,3,#D8271C,#741CD8,0,0,0,38,1,2360,37,1,1075.0000000001164,0,0,experiment,NA,NA,1,0.3,0.7,3,2,138,4,NA
fcp-trial,187,935116,0.0-148.0-0.0,voc_e2,12183,"[{""event"":""fullscreenenter"",""trial"":1,""time"":13753}]",NA,NA,NA,NA,NA,5,#D89F1C,#3386FF,0,10,0,40,0,1665,39,0,389,10,1,experiment,NA,NA,0,0.1,0.9,1,0,139,4,NA
fcp-trial,188,938406,0.0-149.0-0.0,voc_e2,12183,"[{""event"":""fullscreenenter"",""trial"":1,""time"":13753}]",NA,NA,NA,NA,NA,6,#FA92F8,#1CD855,10,10,0,40,0,1293,37,1,485,10,0,experiment,NA,NA,2,0.5,0.5,5,4,140,4,NA
fcp-trial,189,942515,0.0-150.0-0.0,voc_e2,12183,"[{""event"":""fullscreenenter"",""trial"":1,""time"":13753}]",NA,NA,NA,NA,NA,2,#3386FF,#D89F1C,10,0,1,38,1,1671.0000000001164,37,1,928,10,1,experiment,NA,NA,0,0.9,0.1,0,1,141,4,NA
fcp-trial,190,945187,0.0-151.0-0.0,voc_e2,12183,"[{""event"":""fullscreenenter"",""trial"":1,""time"":13753}]",NA,NA,NA,NA,NA,2,#D8271C,#741CD8,0,10,0,38,1,650.9999999998836,39,0,509,10,1,experiment,NA,NA,1,0.3,0.7,3,2,142,4,NA
fcp-trial,191,949071,0.0-152.0-0.0,voc_e2,12183,"[{""event"":""fullscreenenter"",""trial"":1,""time"":13753}]",NA,NA,NA,NA,NA,4,#D89F1C,#3386FF,0,10,0,40,0,1727.9999999998836,39,0,624,10,1,experiment,NA,NA,0,0.1,0.9,1,0,143,4,NA
fcp-trial,192,952623,0.0-153.0-0.0,voc_e2,12183,"[{""event"":""fullscreenenter"",""trial"":1,""time"":13753}]",NA,NA,NA,NA,NA,1,#1CD855,#FA92F8,0,0,1,38,1,1223,39,0,818,0,0,experiment,NA,NA,2,0.5,0.5,4,5,144,4,NA
fcp-trial,193,957382,0.0-154.0-0.0,voc_e2,12183,"[{""event"":""fullscreenenter"",""trial"":1,""time"":13753}]",NA,NA,NA,NA,NA,0,#D8271C,#741CD8,0,10,0,38,1,1718.0000000001164,39,0,1510,10,1,experiment,NA,NA,1,0.3,0.7,3,2,145,4,NA
fcp-trial,194,961112,0.0-155.0-0.0,voc_e2,12183,"[{""event"":""fullscreenenter"",""trial"":1,""time"":13753}]",NA,NA,NA,NA,NA,3,#3386FF,#D89F1C,10,0,1,38,1,1413,37,1,805,10,1,experiment,NA,NA,0,0.9,0.1,0,1,146,4,NA
fcp-trial,195,963866,0.0-156.0-0.0,voc_e2,12183,"[{""event"":""fullscreenenter"",""trial"":1,""time"":13753}]",NA,NA,NA,NA,NA,4,#741CD8,#D8271C,0,10,1,38,1,868,37,1,375.9999999998836,0,1,experiment,NA,NA,1,0.7,0.3,2,3,147,4,NA
fcp-trial,196,967844,0.0-157.0-0.0,voc_e2,12183,"[{""event"":""fullscreenenter"",""trial"":1,""time"":13753}]",NA,NA,NA,NA,NA,5,#D89F1C,#3386FF,0,10,0,40,0,1834.9999999998836,37,1,632.9999999998836,0,0,experiment,NA,NA,0,0.1,0.9,1,0,148,4,NA
fcp-trial,197,972119,0.0-158.0-0.0,voc_e2,12183,"[{""event"":""fullscreenenter"",""trial"":1,""time"":13753}]",NA,NA,NA,NA,NA,3,#FA92F8,#1CD855,0,0,0,38,1,2050,37,1,715,0,0,experiment,NA,NA,2,0.5,0.5,5,4,149,4,NA
fcp-trial,198,975412,0.0-159.0-0.0,voc_e2,12183,"[{""event"":""fullscreenenter"",""trial"":1,""time"":13753}]",NA,NA,NA,NA,NA,1,#D89F1C,#3386FF,10,10,0,38,1,636.0000000001164,39,0,1147,10,1,experiment,NA,NA,0,0.1,0.9,1,0,150,4,NA
fcp-trial,199,978485,0.0-160.0-0.0,voc_e2,12183,"[{""event"":""fullscreenenter"",""trial"":1,""time"":13753}]",NA,NA,NA,NA,NA,6,#741CD8,#D8271C,10,0,1,38,1,597,37,1,966,10,1,experiment,NA,NA,1,0.7,0.3,2,3,151,4,NA
fcp-trial,200,980971,0.0-161.0-0.0,voc_e2,12183,"[{""event"":""fullscreenenter"",""trial"":1,""time"":13753}]",NA,NA,NA,NA,NA,2,#741CD8,#D8271C,0,10,1,38,1,593,37,1,383.0000000001164,0,1,experiment,NA,NA,1,0.7,0.3,2,3,152,4,NA
fcp-trial,201,984056,0.0-162.0-0.0,voc_e2,12183,"[{""event"":""fullscreenenter"",""trial"":1,""time"":13753}]",NA,NA,NA,NA,NA,0,#3386FF,#D89F1C,10,0,1,38,1,897,37,1,677,10,1,experiment,NA,NA,0,0.9,0.1,0,1,153,4,NA
fcp-trial,202,986901,0.0-163.0-0.0,voc_e2,12183,"[{""event"":""fullscreenenter"",""trial"":1,""time"":13753}]",NA,NA,NA,NA,NA,4,#FA92F8,#1CD855,0,0,0,38,1,721.9999999998836,39,0,596,0,1,experiment,NA,NA,2,0.5,0.5,5,4,154,4,NA
fcp-trial,203,990934,0.0-164.0-0.0,voc_e2,12183,"[{""event"":""fullscreenenter"",""trial"":1,""time"":13753}]",NA,NA,NA,NA,NA,4,#D8271C,#741CD8,0,0,0,38,1,1362,37,1,1160,0,0,experiment,NA,NA,1,0.3,0.7,3,2,155,4,NA
fcp-trial,204,993719,0.0-165.0-0.0,voc_e2,12183,"[{""event"":""fullscreenenter"",""trial"":1,""time"":13753}]",NA,NA,NA,NA,NA,6,#D89F1C,#3386FF,0,10,0,40,0,806.0000000001164,39,0,468.9999999998836,10,1,experiment,NA,NA,0,0.1,0.9,1,0,156,4,NA
fcp-trial,205,998211,0.0-166.0-0.0,voc_e2,12183,"[{""event"":""fullscreenenter"",""trial"":1,""time"":13753}]",NA,NA,NA,NA,NA,1,#1CD855,#FA92F8,0,10,1,38,1,2131,39,0,833,10,0,experiment,NA,NA,2,0.5,0.5,4,5,157,4,NA
fcp-trial,206,1001058,0.0-167.0-0.0,voc_e2,12183,"[{""event"":""fullscreenenter"",""trial"":1,""time"":13753}]",NA,NA,NA,NA,NA,3,#741CD8,#D8271C,0,0,1,38,1,926,37,1,408,0,1,experiment,NA,NA,1,0.7,0.3,2,3,158,4,NA
fcp-trial,207,1007467,0.0-168.0-0.0,voc_e2,12183,"[{""event"":""fullscreenenter"",""trial"":1,""time"":13753}]",NA,NA,NA,NA,NA,0,#1CD855,#FA92F8,0,0,1,38,1,1386.9999999998836,39,0,3513,0,0,experiment,NA,NA,2,0.5,0.5,4,5,159,4,NA
fcp-trial,208,1012127,0.0-169.0-0.0,voc_e2,12183,"[{""event"":""fullscreenenter"",""trial"":1,""time"":13753}]",NA,NA,NA,NA,NA,3,#D89F1C,#3386FF,0,10,0,38,1,1222,39,0,1929,10,1,experiment,NA,NA,0,0.1,0.9,1,0,160,4,NA
fcp-trial,209,1015117,0.0-170.0-0.0,voc_e2,12183,"[{""event"":""fullscreenenter"",""trial"":1,""time"":13753}]",NA,NA,NA,NA,NA,1,#741CD8,#D8271C,10,10,1,38,1,987,37,1,491.9999999998836,10,1,experiment,NA,NA,1,0.7,0.3,2,3,161,4,NA
fcp-trial,210,1018711,0.0-171.0-0.0,voc_e2,12183,"[{""event"":""fullscreenenter"",""trial"":1,""time"":13753}]",NA,NA,NA,NA,NA,6,#FA92F8,#1CD855,10,10,0,40,0,1464.0000000001164,37,1,619.0000000001164,10,0,experiment,NA,NA,2,0.5,0.5,5,4,162,4,NA
fcp-trial,211,1021333,0.0-172.0-0.0,voc_e2,12183,"[{""event"":""fullscreenenter"",""trial"":1,""time"":13753}]",NA,NA,NA,NA,NA,5,#D8271C,#741CD8,0,0,0,40,0,625,37,1,486.9999999998836,0,0,experiment,NA,NA,1,0.3,0.7,3,2,163,4,NA
fcp-trial,212,1025175,0.0-173.0-0.0,voc_e2,12183,"[{""event"":""fullscreenenter"",""trial"":1,""time"":13753}]",NA,NA,NA,NA,NA,4,#D89F1C,#3386FF,0,10,0,38,1,1431,39,0,900,10,1,experiment,NA,NA,0,0.1,0.9,1,0,164,4,NA
fcp-trial,213,1029031,0.0-174.0-0.0,voc_e2,12183,"[{""event"":""fullscreenenter"",""trial"":1,""time"":13753}]",NA,NA,NA,NA,NA,2,#D89F1C,#3386FF,0,10,0,38,1,1867.9999999998836,39,0,475.9999999998836,10,1,experiment,NA,NA,0,0.1,0.9,1,0,165,4,NA
fcp-trial,214,1032258,0.0-175.0-0.0,voc_e2,12183,"[{""event"":""fullscreenenter"",""trial"":1,""time"":13753}]",NA,NA,NA,NA,NA,0,#741CD8,#D8271C,0,0,1,38,1,655,37,1,1064.0000000001164,0,1,experiment,NA,NA,1,0.7,0.3,2,3,166,4,NA
fcp-trial,215,1035736,0.0-176.0-0.0,voc_e2,12183,"[{""event"":""fullscreenenter"",""trial"":1,""time"":13753}]",NA,NA,NA,NA,NA,5,#1CD855,#FA92F8,0,10,1,40,0,1528,39,0,436.9999999998836,10,0,experiment,NA,NA,2,0.5,0.5,4,5,167,4,NA
fcp-trial,216,1038945,0.0-177.0-0.0,voc_e2,12183,"[{""event"":""fullscreenenter"",""trial"":1,""time"":13753}]",NA,NA,NA,NA,NA,2,#FA92F8,#1CD855,0,0,0,38,1,1076,37,1,625,0,0,experiment,NA,NA,2,0.5,0.5,5,4,168,4,NA
fcp-trial,217,1042257,0.0-178.0-0.0,voc_e2,12183,"[{""event"":""fullscreenenter"",""trial"":1,""time"":13753}]",NA,NA,NA,NA,NA,5,#3386FF,#D89F1C,10,0,1,38,1,992,37,1,810.0000000002328,10,1,experiment,NA,NA,0,0.9,0.1,0,1,169,4,NA
fcp-trial,218,1047513,0.0-179.0-0.0,voc_e2,12183,"[{""event"":""fullscreenenter"",""trial"":1,""time"":13753}]",NA,NA,NA,NA,NA,4,#D8271C,#741CD8,10,0,0,38,1,2519,37,1,1224.9999999998836,10,0,experiment,NA,NA,1,0.3,0.7,3,2,170,4,NA
fcp-trial,219,1051303,0.0-180.0-0.0,voc_e2,12183,"[{""event"":""fullscreenenter"",""trial"":1,""time"":13753}]",NA,NA,NA,NA,NA,2,#D89F1C,#3386FF,0,10,0,38,1,1454,39,0,826,10,1,experiment,NA,NA,0,0.1,0.9,1,0,171,4,NA
fcp-trial,220,1054270,0.0-181.0-0.0,voc_e2,12183,"[{""event"":""fullscreenenter"",""trial"":1,""time"":13753}]",NA,NA,NA,NA,NA,0,#D8271C,#741CD8,0,10,0,38,1,1045,39,0,412,10,1,experiment,NA,NA,1,0.3,0.7,3,2,172,4,NA
fcp-trial,221,1057408,0.0-182.0-0.0,voc_e2,12183,"[{""event"":""fullscreenenter"",""trial"":1,""time"":13753}]",NA,NA,NA,NA,NA,2,#1CD855,#FA92F8,10,0,1,38,1,949,39,0,678,0,0,experiment,NA,NA,2,0.5,0.5,4,5,173,4,NA
fcp-trial,222,1060354,0.0-183.0-0.0,voc_e2,12183,"[{""event"":""fullscreenenter"",""trial"":1,""time"":13753}]",NA,NA,NA,NA,NA,0,#3386FF,#D89F1C,10,0,1,38,1,1075,37,1,359,10,1,experiment,NA,NA,0,0.9,0.1,0,1,174,4,NA
fcp-trial,223,1063049,0.0-184.0-0.0,voc_e2,12183,"[{""event"":""fullscreenenter"",""trial"":1,""time"":13753}]",NA,NA,NA,NA,NA,6,#D8271C,#741CD8,10,0,0,38,1,905,39,0,259,0,1,experiment,NA,NA,1,0.3,0.7,3,2,175,4,NA
fcp-trial,224,1065767,0.0-185.0-0.0,voc_e2,12183,"[{""event"":""fullscreenenter"",""trial"":1,""time"":13753}]",NA,NA,NA,NA,NA,5,#1CD855,#FA92F8,10,10,1,40,0,907,39,0,300,10,0,experiment,NA,NA,2,0.5,0.5,4,5,176,4,NA
fcp-trial,225,1069045,0.0-186.0-0.0,voc_e2,12183,"[{""event"":""fullscreenenter"",""trial"":1,""time"":13753}]",NA,NA,NA,NA,NA,6,#D89F1C,#3386FF,0,10,0,40,0,1367,37,1,401,0,0,experiment,NA,NA,0,0.1,0.9,1,0,177,4,NA
fcp-trial,226,1071971,0.0-187.0-0.0,voc_e2,12183,"[{""event"":""fullscreenenter"",""trial"":1,""time"":13753}]",NA,NA,NA,NA,NA,1,#D8271C,#741CD8,0,10,0,38,1,1116.9999999997672,37,1,299,0,0,experiment,NA,NA,1,0.3,0.7,3,2,178,4,NA
fcp-trial,227,1075167,0.0-188.0-0.0,voc_e2,12183,"[{""event"":""fullscreenenter"",""trial"":1,""time"":13753}]",NA,NA,NA,NA,NA,1,#D89F1C,#3386FF,0,10,0,38,1,1371,39,0,315,10,1,experiment,NA,NA,0,0.1,0.9,1,0,179,4,NA
fcp-trial,228,1078866,0.0-189.0-0.0,voc_e2,12183,"[{""event"":""fullscreenenter"",""trial"":1,""time"":13753}]",NA,NA,NA,NA,NA,5,#741CD8,#D8271C,10,0,1,40,0,1679,37,1,508,10,1,experiment,NA,NA,1,0.7,0.3,2,3,180,4,NA
fcp-trial,229,1083122,0.0-190.0-0.0,voc_e2,12183,"[{""event"":""fullscreenenter"",""trial"":1,""time"":13753}]",NA,NA,NA,NA,NA,6,#FA92F8,#1CD855,10,10,0,40,0,1536.0000000002328,39,0,1211,10,1,experiment,NA,NA,2,0.5,0.5,5,4,181,5,NA
fcp-trial,230,1086422,0.0-191.0-0.0,voc_e2,12183,"[{""event"":""fullscreenenter"",""trial"":1,""time"":13753}]",NA,NA,NA,NA,NA,4,#FA92F8,#1CD855,0,0,0,40,0,1353,37,1,436,0,0,experiment,NA,NA,2,0.5,0.5,5,4,182,5,NA
fcp-trial,231,1089882,0.0-192.0-0.0,voc_e2,12183,"[{""event"":""fullscreenenter"",""trial"":1,""time"":13753}]",NA,NA,NA,NA,NA,3,#D8271C,#741CD8,0,0,0,38,1,1195,39,0,751.0000000002328,0,1,experiment,NA,NA,1,0.3,0.7,3,2,183,5,NA
fcp-trial,232,1095624,0.0-193.0-0.0,voc_e2,12183,"[{""event"":""fullscreenenter"",""trial"":1,""time"":13753}]",NA,NA,NA,NA,NA,4,#3386FF,#D89F1C,10,0,1,38,1,685,37,1,3530,10,1,experiment,NA,NA,0,0.9,0.1,0,1,184,5,NA
fcp-trial,233,1098286,0.0-194.0-0.0,voc_e2,12183,"[{""event"":""fullscreenenter"",""trial"":1,""time"":13753}]",NA,NA,NA,NA,NA,2,#D8271C,#741CD8,0,0,0,38,1,702,39,0,450,0,1,experiment,NA,NA,1,0.3,0.7,3,2,185,5,NA
fcp-trial,234,1101703,0.0-195.0-0.0,voc_e2,12183,"[{""event"":""fullscreenenter"",""trial"":1,""time"":13753}]",NA,NA,NA,NA,NA,3,#D89F1C,#3386FF,0,0,0,38,1,459,39,0,1433,0,1,experiment,NA,NA,0,0.1,0.9,1,0,186,5,NA
fcp-trial,235,1107454,0.0-196.0-0.0,voc_e2,12183,"[{""event"":""fullscreenenter"",""trial"":1,""time"":13753}]",NA,NA,NA,NA,NA,3,#FA92F8,#1CD855,0,10,0,38,1,720,39,0,3523,10,1,experiment,NA,NA,2,0.5,0.5,5,4,187,5,NA
fcp-trial,236,1110597,0.0-197.0-0.0,voc_e2,12183,"[{""event"":""fullscreenenter"",""trial"":1,""time"":13753}]",NA,NA,NA,NA,NA,1,#1CD855,#FA92F8,0,0,1,38,1,1054,39,0,579,0,0,experiment,NA,NA,2,0.5,0.5,4,5,188,5,NA
fcp-trial,237,1112836,0.0-198.0-0.0,voc_e2,12183,"[{""event"":""fullscreenenter"",""trial"":1,""time"":13753}]",NA,NA,NA,NA,NA,0,#FA92F8,#1CD855,10,10,0,38,1,371,37,1,359,10,0,experiment,NA,NA,2,0.5,0.5,5,4,189,5,NA
fcp-trial,238,1116058,0.0-199.0-0.0,voc_e2,12183,"[{""event"":""fullscreenenter"",""trial"":1,""time"":13753}]",NA,NA,NA,NA,NA,4,#FA92F8,#1CD855,10,0,0,40,0,1187,37,1,525,10,0,experiment,NA,NA,2,0.5,0.5,5,4,190,5,NA
fcp-trial,239,1119709,0.0-200.0-0.0,voc_e2,12183,"[{""event"":""fullscreenenter"",""trial"":1,""time"":13753}]",NA,NA,NA,NA,NA,3,#D8271C,#741CD8,10,0,0,38,1,1329,39,0,812,0,1,experiment,NA,NA,1,0.3,0.7,3,2,191,5,NA
fcp-trial,240,1122536,0.0-201.0-0.0,voc_e2,12183,"[{""event"":""fullscreenenter"",""trial"":1,""time"":13753}]",NA,NA,NA,NA,NA,6,#D89F1C,#3386FF,0,10,0,38,1,737,39,0,580,10,1,experiment,NA,NA,0,0.1,0.9,1,0,192,5,NA
fcp-trial,241,1125235,0.0-202.0-0.0,voc_e2,12183,"[{""event"":""fullscreenenter"",""trial"":1,""time"":13753}]",NA,NA,NA,NA,NA,2,#741CD8,#D8271C,0,0,1,38,1,813,37,1,375,0,1,experiment,NA,NA,1,0.7,0.3,2,3,193,5,NA
fcp-trial,242,1128066,0.0-203.0-0.0,voc_e2,12183,"[{""event"":""fullscreenenter"",""trial"":1,""time"":13753}]",NA,NA,NA,NA,NA,1,#3386FF,#D89F1C,10,0,1,38,1,604.9999999997672,39,0,714.9999999997672,0,0,experiment,NA,NA,0,0.9,0.1,0,1,194,5,NA
fcp-trial,243,1131284,0.0-204.0-0.0,voc_e2,12183,"[{""event"":""fullscreenenter"",""trial"":1,""time"":13753}]",NA,NA,NA,NA,NA,0,#1CD855,#FA92F8,10,0,1,38,1,535,39,0,1172,0,0,experiment,NA,NA,2,0.5,0.5,4,5,195,5,NA
fcp-trial,244,1135214,0.0-205.0-0.0,voc_e2,12183,"[{""event"":""fullscreenenter"",""trial"":1,""time"":13753}]",NA,NA,NA,NA,NA,1,#FA92F8,#1CD855,10,10,0,38,1,795,37,1,1606,10,0,experiment,NA,NA,2,0.5,0.5,5,4,196,5,NA
fcp-trial,245,1139339,0.0-206.0-0.0,voc_e2,12183,"[{""event"":""fullscreenenter"",""trial"":1,""time"":13753}]",NA,NA,NA,NA,NA,0,#D8271C,#741CD8,0,10,0,40,0,1405,37,1,1208.9999999997672,0,0,experiment,NA,NA,1,0.3,0.7,3,2,197,5,NA
fcp-trial,246,1144028,0.0-207.0-0.0,voc_e2,12183,"[{""event"":""fullscreenenter"",""trial"":1,""time"":13753}]",NA,NA,NA,NA,NA,2,#FA92F8,#1CD855,0,0,0,38,1,1610,37,1,1568,0,0,experiment,NA,NA,2,0.5,0.5,5,4,198,5,NA
fcp-trial,247,1150140,0.0-208.0-0.0,voc_e2,12183,"[{""event"":""fullscreenenter"",""trial"":1,""time"":13753}]",NA,NA,NA,NA,NA,2,#D89F1C,#3386FF,0,10,0,38,1,3457,39,0,1144.9999999997672,10,1,experiment,NA,NA,0,0.1,0.9,1,0,199,5,NA
fcp-trial,248,1153052,0.0-209.0-0.0,voc_e2,12183,"[{""event"":""fullscreenenter"",""trial"":1,""time"":13753}]",NA,NA,NA,NA,NA,4,#D8271C,#741CD8,0,0,0,38,1,758.9999999997672,39,0,642.9999999997672,0,1,experiment,NA,NA,1,0.3,0.7,3,2,200,5,NA
fcp-trial,249,1155790,0.0-210.0-0.0,voc_e2,12183,"[{""event"":""fullscreenenter"",""trial"":1,""time"":13753}]",NA,NA,NA,NA,NA,5,#D89F1C,#3386FF,0,10,0,40,0,768,37,1,445,0,0,experiment,NA,NA,0,0.1,0.9,1,0,201,5,NA
fcp-trial,250,1158976,0.0-211.0-0.0,voc_e2,12183,"[{""event"":""fullscreenenter"",""trial"":1,""time"":13753}]",NA,NA,NA,NA,NA,6,#1CD855,#FA92F8,10,10,1,40,0,1126,39,0,548,10,0,experiment,NA,NA,2,0.5,0.5,4,5,202,5,NA
fcp-trial,251,1163094,0.0-212.0-0.0,voc_e2,12183,"[{""event"":""fullscreenenter"",""trial"":1,""time"":13753}]",NA,NA,NA,NA,NA,4,#3386FF,#D89F1C,10,0,1,38,1,1878,37,1,730,10,1,experiment,NA,NA,0,0.9,0.1,0,1,203,5,NA
fcp-trial,252,1167013,0.0-213.0-0.0,voc_e2,12183,"[{""event"":""fullscreenenter"",""trial"":1,""time"":13753}]",NA,NA,NA,NA,NA,1,#D8271C,#741CD8,10,10,0,38,1,1010,39,0,1398,10,1,experiment,NA,NA,1,0.3,0.7,3,2,204,5,NA
fcp-trial,253,1170493,0.0-214.0-0.0,voc_e2,12183,"[{""event"":""fullscreenenter"",""trial"":1,""time"":13753}]",NA,NA,NA,NA,NA,5,#FA92F8,#1CD855,0,0,0,40,0,1359,37,1,610,0,0,experiment,NA,NA,2,0.5,0.5,5,4,205,5,NA
fcp-trial,254,1173637,0.0-215.0-0.0,voc_e2,12183,"[{""event"":""fullscreenenter"",""trial"":1,""time"":13753}]",NA,NA,NA,NA,NA,5,#741CD8,#D8271C,10,10,1,40,0,1023,37,1,611,10,1,experiment,NA,NA,1,0.7,0.3,2,3,206,5,NA
fcp-trial,255,1178597,0.0-216.0-0.0,voc_e2,12183,"[{""event"":""fullscreenenter"",""trial"":1,""time"":13753}]",NA,NA,NA,NA,NA,0,#D89F1C,#3386FF,0,10,0,38,1,1905,39,0,1546,10,1,experiment,NA,NA,0,0.1,0.9,1,0,207,5,NA
fcp-trial,256,1182034,0.0-217.0-0.0,voc_e2,12183,"[{""event"":""fullscreenenter"",""trial"":1,""time"":13753}]",NA,NA,NA,NA,NA,6,#741CD8,#D8271C,10,0,1,40,0,1353,39,0,575,0,0,experiment,NA,NA,1,0.7,0.3,2,3,208,5,NA
fcp-trial,257,1188428,0.0-218.0-0.0,voc_e2,12183,"[{""event"":""fullscreenenter"",""trial"":1,""time"":13753}]",NA,NA,NA,NA,NA,3,#D89F1C,#3386FF,0,10,0,38,1,793,39,0,4091,10,1,experiment,NA,NA,0,0.1,0.9,1,0,209,5,NA
fcp-trial,258,1192670,0.0-219.0-0.0,voc_e2,12183,"[{""event"":""fullscreenenter"",""trial"":1,""time"":13753}]",NA,NA,NA,NA,NA,3,#1CD855,#FA92F8,0,0,1,38,1,1378,39,0,1354,0,0,experiment,NA,NA,2,0.5,0.5,4,5,210,5,NA
audio-instructions,259,1204232,0.0-220.0,voc_e2,12183,"[{""event"":""fullscreenenter"",""trial"":1,""time"":13753}]",NA,7122,static/audio/pause.wav,NA,0,NA,NA,NA,NA,NA,NA,NA,NA,NA,NA,NA,NA,NA,NA,NA,NA,NA,NA,NA,NA,NA,NA,NA,NA,NA
fcp-trial,260,1208287,0.0-221.0-0.0,voc_e2,12183,"[{""event"":""fullscreenenter"",""trial"":1,""time"":13753}]",NA,NA,NA,NA,NA,1,#D89F1C,#3386FF,0,10,0,38,1,1830,39,0,704,10,1,experiment,NA,NA,0,0.1,0.9,1,0,211,5,NA
fcp-trial,261,1212021,0.0-222.0-0.0,voc_e2,12183,"[{""event"":""fullscreenenter"",""trial"":1,""time"":13753}]",NA,NA,NA,NA,NA,5,#741CD8,#D8271C,10,0,1,40,0,1579,39,0,645,0,0,experiment,NA,NA,1,0.7,0.3,2,3,212,5,NA
fcp-trial,262,1215004,0.0-223.0-0.0,voc_e2,12183,"[{""event"":""fullscreenenter"",""trial"":1,""time"":13753}]",NA,NA,NA,NA,NA,3,#D89F1C,#3386FF,0,0,0,38,1,708,39,0,765,0,1,experiment,NA,NA,0,0.1,0.9,1,0,213,5,NA
fcp-trial,263,1218468,0.0-224.0-0.0,voc_e2,12183,"[{""event"":""fullscreenenter"",""trial"":1,""time"":13753}]",NA,NA,NA,NA,NA,5,#1CD855,#FA92F8,0,10,1,40,0,1495,37,1,460,0,1,experiment,NA,NA,2,0.5,0.5,4,5,214,5,NA
fcp-trial,264,1221567,0.0-225.0-0.0,voc_e2,12183,"[{""event"":""fullscreenenter"",""trial"":1,""time"":13753}]",NA,NA,NA,NA,NA,0,#FA92F8,#1CD855,0,0,0,38,1,652,37,1,935,0,0,experiment,NA,NA,2,0.5,0.5,5,4,215,5,NA
fcp-trial,265,1224540,0.0-226.0-0.0,voc_e2,12183,"[{""event"":""fullscreenenter"",""trial"":1,""time"":13753}]",NA,NA,NA,NA,NA,6,#741CD8,#D8271C,0,0,1,40,0,1031,39,0,431,0,0,experiment,NA,NA,1,0.7,0.3,2,3,216,5,NA
fcp-trial,266,1227969,0.0-227.0-0.0,voc_e2,12183,"[{""event"":""fullscreenenter"",""trial"":1,""time"":13753}]",NA,NA,NA,NA,NA,1,#1CD855,#FA92F8,0,0,1,38,1,594,39,0,1325,0,0,experiment,NA,NA,2,0.5,0.5,4,5,217,5,NA
fcp-trial,267,1231652,0.0-228.0-0.0,voc_e2,12183,"[{""event"":""fullscreenenter"",""trial"":1,""time"":13753}]",NA,NA,NA,NA,NA,5,#3386FF,#D89F1C,10,0,1,40,0,1718.0000000002328,37,1,455,10,1,experiment,NA,NA,0,0.9,0.1,0,1,218,5,NA
fcp-trial,268,1234994,0.0-229.0-0.0,voc_e2,12183,"[{""event"":""fullscreenenter"",""trial"":1,""time"":13753}]",NA,NA,NA,NA,NA,1,#741CD8,#D8271C,10,10,1,38,1,1112.0000000002328,39,0,719,10,0,experiment,NA,NA,1,0.7,0.3,2,3,219,5,NA
fcp-trial,269,1239681,0.0-230.0-0.0,voc_e2,12183,"[{""event"":""fullscreenenter"",""trial"":1,""time"":13753}]",NA,NA,NA,NA,NA,4,#741CD8,#D8271C,10,10,1,38,1,1432,37,1,1744,10,1,experiment,NA,NA,1,0.7,0.3,2,3,220,5,NA
fcp-trial,270,1242421,0.0-231.0-0.0,voc_e2,12183,"[{""event"":""fullscreenenter"",""trial"":1,""time"":13753}]",NA,NA,NA,NA,NA,2,#FA92F8,#1CD855,0,10,0,38,1,928,39,0,300,10,1,experiment,NA,NA,2,0.5,0.5,5,4,221,5,NA
fcp-trial,271,1246331,0.0-232.0-0.0,voc_e2,12183,"[{""event"":""fullscreenenter"",""trial"":1,""time"":13753}]",NA,NA,NA,NA,NA,2,#D89F1C,#3386FF,0,10,0,38,1,1579,39,0,820.0000000002328,10,1,experiment,NA,NA,0,0.1,0.9,1,0,222,5,NA
fcp-trial,272,1248890,0.0-233.0-0.0,voc_e2,12183,"[{""event"":""fullscreenenter"",""trial"":1,""time"":13753}]",NA,NA,NA,NA,NA,4,#FA92F8,#1CD855,0,0,0,38,1,755,39,0,278,0,1,experiment,NA,NA,2,0.5,0.5,5,4,223,5,NA
fcp-trial,273,1252513,0.0-234.0-0.0,voc_e2,12183,"[{""event"":""fullscreenenter"",""trial"":1,""time"":13753}]",NA,NA,NA,NA,NA,2,#741CD8,#D8271C,10,0,1,38,1,1862,37,1,252,10,1,experiment,NA,NA,1,0.7,0.3,2,3,224,5,NA
fcp-trial,274,1257476,0.0-235.0-0.0,voc_e2,12183,"[{""event"":""fullscreenenter"",""trial"":1,""time"":13753}]",NA,NA,NA,NA,NA,6,#3386FF,#D89F1C,0,0,1,38,1,1308,37,1,2144,0,1,experiment,NA,NA,0,0.9,0.1,0,1,225,5,NA
fcp-trial,275,1260200,0.0-236.0-0.0,voc_e2,12183,"[{""event"":""fullscreenenter"",""trial"":1,""time"":13753}]",NA,NA,NA,NA,NA,0,#D89F1C,#3386FF,0,10,0,38,1,640,39,0,575,10,1,experiment,NA,NA,0,0.1,0.9,1,0,226,6,NA
fcp-trial,276,1263244,0.0-237.0-0.0,voc_e2,12183,"[{""event"":""fullscreenenter"",""trial"":1,""time"":13753}]",NA,NA,NA,NA,NA,0,#741CD8,#D8271C,0,0,1,38,1,1223,37,1,310.00000000023283,0,1,experiment,NA,NA,1,0.7,0.3,2,3,227,6,NA
fcp-trial,277,1268067,0.0-238.0-0.0,voc_e2,12183,"[{""event"":""fullscreenenter"",""trial"":1,""time"":13753}]",NA,NA,NA,NA,NA,6,#FA92F8,#1CD855,0,10,0,38,1,2106,37,1,1206,0,0,experiment,NA,NA,2,0.5,0.5,5,4,228,6,NA
fcp-trial,278,1274405,0.0-239.0-0.0,voc_e2,12183,"[{""event"":""fullscreenenter"",""trial"":1,""time"":13753}]",NA,NA,NA,NA,NA,4,#3386FF,#D89F1C,0,0,1,38,1,1856,37,1,2972,0,1,experiment,NA,NA,0,0.9,0.1,0,1,229,6,NA
fcp-trial,279,1277956,0.0-240.0-0.0,voc_e2,12183,"[{""event"":""fullscreenenter"",""trial"":1,""time"":13753}]",NA,NA,NA,NA,NA,3,#D8271C,#741CD8,0,0,0,38,1,1193,39,0,847.9999999997672,0,1,experiment,NA,NA,1,0.3,0.7,3,2,230,6,NA
fcp-trial,280,1280900,0.0-241.0-0.0,voc_e2,12183,"[{""event"":""fullscreenenter"",""trial"":1,""time"":13753}]",NA,NA,NA,NA,NA,3,#FA92F8,#1CD855,0,0,0,38,1,713,39,0,721,0,1,experiment,NA,NA,2,0.5,0.5,5,4,231,6,NA
fcp-trial,281,1283620,0.0-242.0-0.0,voc_e2,12183,"[{""event"":""fullscreenenter"",""trial"":1,""time"":13753}]",NA,NA,NA,NA,NA,2,#FA92F8,#1CD855,0,0,0,38,1,652,37,1,557,0,0,experiment,NA,NA,2,0.5,0.5,5,4,232,6,NA
fcp-trial,282,1289551,0.0-243.0-0.0,voc_e2,12183,"[{""event"":""fullscreenenter"",""trial"":1,""time"":13753}]",NA,NA,NA,NA,NA,3,#D89F1C,#3386FF,0,0,0,38,1,1669,39,0,2752.000000000233,0,1,experiment,NA,NA,0,0.1,0.9,1,0,233,6,NA
fcp-trial,283,1292145,0.0-244.0-0.0,voc_e2,12183,"[{""event"":""fullscreenenter"",""trial"":1,""time"":13753}]",NA,NA,NA,NA,NA,3,#741CD8,#D8271C,10,0,1,40,0,569,39,0,513,0,0,experiment,NA,NA,1,0.7,0.3,2,3,234,6,NA
fcp-trial,284,1295340,0.0-245.0-0.0,voc_e2,12183,"[{""event"":""fullscreenenter"",""trial"":1,""time"":13753}]",NA,NA,NA,NA,NA,1,#741CD8,#D8271C,10,10,1,38,1,1216,37,1,467,10,1,experiment,NA,NA,1,0.7,0.3,2,3,235,6,NA
fcp-trial,285,1299090,0.0-246.0-0.0,voc_e2,12183,"[{""event"":""fullscreenenter"",""trial"":1,""time"":13753}]",NA,NA,NA,NA,NA,0,#FA92F8,#1CD855,0,10,0,38,1,1811.9999999997672,37,1,429,0,0,experiment,NA,NA,2,0.5,0.5,5,4,236,6,NA
fcp-trial,286,1303120,0.0-247.0-0.0,voc_e2,12183,"[{""event"":""fullscreenenter"",""trial"":1,""time"":13753}]",NA,NA,NA,NA,NA,0,#3386FF,#D89F1C,10,0,1,38,1,1106,37,1,1414,10,1,experiment,NA,NA,0,0.9,0.1,0,1,237,6,NA
fcp-trial,287,1306519,0.0-248.0-0.0,voc_e2,12183,"[{""event"":""fullscreenenter"",""trial"":1,""time"":13753}]",NA,NA,NA,NA,NA,2,#741CD8,#D8271C,10,0,1,38,1,901,37,1,986.9999999997672,10,1,experiment,NA,NA,1,0.7,0.3,2,3,238,6,NA
fcp-trial,288,1310708,0.0-249.0-0.0,voc_e2,12183,"[{""event"":""fullscreenenter"",""trial"":1,""time"":13753}]",NA,NA,NA,NA,NA,0,#D8271C,#741CD8,10,10,0,38,1,1627,39,0,1053,10,1,experiment,NA,NA,1,0.3,0.7,3,2,239,6,NA
fcp-trial,289,1314015,0.0-250.0-0.0,voc_e2,12183,"[{""event"":""fullscreenenter"",""trial"":1,""time"":13753}]",NA,NA,NA,NA,NA,5,#1CD855,#FA92F8,0,10,1,40,0,1297,39,0,499,10,0,experiment,NA,NA,2,0.5,0.5,4,5,240,6,NA
fcp-trial,290,1317032,0.0-251.0-0.0,voc_e2,12183,"[{""event"":""fullscreenenter"",""trial"":1,""time"":13753}]",NA,NA,NA,NA,NA,1,#3386FF,#D89F1C,10,0,1,38,1,879,37,1,627,10,1,experiment,NA,NA,0,0.9,0.1,0,1,241,6,NA
fcp-trial,291,1320188,0.0-252.0-0.0,voc_e2,12183,"[{""event"":""fullscreenenter"",""trial"":1,""time"":13753}]",NA,NA,NA,NA,NA,6,#741CD8,#D8271C,10,0,1,40,0,1253,39,0,391,0,0,experiment,NA,NA,1,0.7,0.3,2,3,242,6,NA
fcp-trial,292,1323121,0.0-253.0-0.0,voc_e2,12183,"[{""event"":""fullscreenenter"",""trial"":1,""time"":13753}]",NA,NA,NA,NA,NA,6,#D89F1C,#3386FF,0,10,0,40,0,1030,37,1,394,0,0,experiment,NA,NA,0,0.1,0.9,1,0,243,6,NA
fcp-trial,293,1326708,0.0-254.0-0.0,voc_e2,12183,"[{""event"":""fullscreenenter"",""trial"":1,""time"":13753}]",NA,NA,NA,NA,NA,6,#FA92F8,#1CD855,0,10,0,40,0,1561,39,0,516,10,1,experiment,NA,NA,2,0.5,0.5,5,4,244,6,NA
fcp-trial,294,1330104,0.0-255.0-0.0,voc_e2,12183,"[{""event"":""fullscreenenter"",""trial"":1,""time"":13753}]",NA,NA,NA,NA,NA,5,#D89F1C,#3386FF,0,10,0,40,0,1324,39,0,562,10,1,experiment,NA,NA,0,0.1,0.9,1,0,245,6,NA
fcp-trial,295,1333112,0.0-256.0-0.0,voc_e2,12183,"[{""event"":""fullscreenenter"",""trial"":1,""time"":13753}]",NA,NA,NA,NA,NA,4,#741CD8,#D8271C,10,10,1,40,0,986,39,0,510,10,0,experiment,NA,NA,1,0.7,0.3,2,3,246,6,NA
fcp-trial,296,1335888,0.0-257.0-0.0,voc_e2,12183,"[{""event"":""fullscreenenter"",""trial"":1,""time"":13753}]",NA,NA,NA,NA,NA,4,#1CD855,#FA92F8,0,0,1,40,0,732,37,1,533,0,1,experiment,NA,NA,2,0.5,0.5,4,5,247,6,NA
fcp-trial,297,1339892,0.0-258.0-0.0,voc_e2,12183,"[{""event"":""fullscreenenter"",""trial"":1,""time"":13753}]",NA,NA,NA,NA,NA,3,#FA92F8,#1CD855,10,0,0,38,1,1492,37,1,1003,10,0,experiment,NA,NA,2,0.5,0.5,5,4,248,6,NA
fcp-trial,298,1343660,0.0-259.0-0.0,voc_e2,12183,"[{""event"":""fullscreenenter"",""trial"":1,""time"":13753}]",NA,NA,NA,NA,NA,2,#3386FF,#D89F1C,10,0,1,38,1,1307,37,1,950,10,1,experiment,NA,NA,0,0.9,0.1,0,1,249,6,NA
fcp-trial,299,1346606,0.0-260.0-0.0,voc_e2,12183,"[{""event"":""fullscreenenter"",""trial"":1,""time"":13753}]",NA,NA,NA,NA,NA,4,#3386FF,#D89F1C,10,0,1,38,1,1123,37,1,292,10,1,experiment,NA,NA,0,0.9,0.1,0,1,250,6,NA
fcp-trial,300,1349828,0.0-261.0-0.0,voc_e2,12183,"[{""event"":""fullscreenenter"",""trial"":1,""time"":13753}]",NA,NA,NA,NA,NA,5,#741CD8,#D8271C,10,0,1,40,0,1177,37,1,534,10,1,experiment,NA,NA,1,0.7,0.3,2,3,251,6,NA
fcp-trial,301,1353726,0.0-262.0-0.0,voc_e2,12183,"[{""event"":""fullscreenenter"",""trial"":1,""time"":13753}]",NA,NA,NA,NA,NA,1,#FA92F8,#1CD855,0,0,0,38,1,895,37,1,1477,0,0,experiment,NA,NA,2,0.5,0.5,5,4,252,6,NA
fcp-trial,302,1356651,0.0-263.0-0.0,voc_e2,12183,"[{""event"":""fullscreenenter"",""trial"":1,""time"":13753}]",NA,NA,NA,NA,NA,6,#3386FF,#D89F1C,10,0,1,40,0,904,37,1,494,10,1,experiment,NA,NA,0,0.9,0.1,0,1,253,6,NA
fcp-trial,303,1359979,0.0-264.0-0.0,voc_e2,12183,"[{""event"":""fullscreenenter"",""trial"":1,""time"":13753}]",NA,NA,NA,NA,NA,0,#D89F1C,#3386FF,0,10,0,38,1,807,39,0,1010,10,1,experiment,NA,NA,0,0.1,0.9,1,0,254,6,NA
fcp-trial,304,1362779,0.0-265.0-0.0,voc_e2,12183,"[{""event"":""fullscreenenter"",""trial"":1,""time"":13753}]",NA,NA,NA,NA,NA,5,#D8271C,#741CD8,0,10,0,40,0,708,39,0,580,10,1,experiment,NA,NA,1,0.3,0.7,3,2,255,6,NA
fcp-trial,305,1367435,0.0-266.0-0.0,voc_e2,12183,"[{""event"":""fullscreenenter"",""trial"":1,""time"":13753}]",NA,NA,NA,NA,NA,4,#1CD855,#FA92F8,0,10,1,38,1,1613,37,1,1533,0,1,experiment,NA,NA,2,0.5,0.5,4,5,256,6,NA
fcp-trial,306,1370827,0.0-267.0-0.0,voc_e2,12183,"[{""event"":""fullscreenenter"",""trial"":1,""time"":13753}]",NA,NA,NA,NA,NA,0,#741CD8,#D8271C,0,10,1,38,1,1113.9999999997672,37,1,768.9999999997672,0,1,experiment,NA,NA,1,0.7,0.3,2,3,257,6,NA
fcp-trial,307,1374142,0.0-268.0-0.0,voc_e2,12183,"[{""event"":""fullscreenenter"",""trial"":1,""time"":13753}]",NA,NA,NA,NA,NA,5,#3386FF,#D89F1C,10,0,1,40,0,1366.9999999997672,39,0,417,0,0,experiment,NA,NA,0,0.9,0.1,0,1,258,6,NA
fcp-trial,308,1377819,0.0-269.0-0.0,voc_e2,12183,"[{""event"":""fullscreenenter"",""trial"":1,""time"":13753}]",NA,NA,NA,NA,NA,1,#D89F1C,#3386FF,0,10,0,38,1,1049,39,0,1118,10,1,experiment,NA,NA,0,0.1,0.9,1,0,259,6,NA
fcp-trial,309,1388200,0.0-270.0-0.0,voc_e2,12183,"[{""event"":""fullscreenenter"",""trial"":1,""time"":13753}]",NA,NA,NA,NA,NA,5,#1CD855,#FA92F8,10,10,1,38,1,6871.999999999767,37,1,1999,10,1,experiment,NA,NA,2,0.5,0.5,4,5,260,6,NA
fcp-trial,310,1391173,0.0-271.0-0.0,voc_e2,12183,"[{""event"":""fullscreenenter"",""trial"":1,""time"":13753}]",NA,NA,NA,NA,NA,6,#741CD8,#D8271C,10,10,1,40,0,1018,39,0,444,10,0,experiment,NA,NA,1,0.7,0.3,2,3,261,6,NA
fcp-trial,311,1395326,0.0-272.0-0.0,voc_e2,12183,"[{""event"":""fullscreenenter"",""trial"":1,""time"":13753}]",NA,NA,NA,NA,NA,2,#D89F1C,#3386FF,0,0,0,38,1,1003,39,0,1639,0,1,experiment,NA,NA,0,0.1,0.9,1,0,262,6,NA
fcp-trial,312,1398533,0.0-273.0-0.0,voc_e2,12183,"[{""event"":""fullscreenenter"",""trial"":1,""time"":13753}]",NA,NA,NA,NA,NA,2,#D8271C,#741CD8,10,10,0,38,1,886,39,0,794,10,1,experiment,NA,NA,1,0.3,0.7,3,2,263,6,NA
fcp-trial,313,1401652,0.0-274.0-0.0,voc_e2,12183,"[{""event"":""fullscreenenter"",""trial"":1,""time"":13753}]",NA,NA,NA,NA,NA,3,#FA92F8,#1CD855,10,10,0,38,1,890,37,1,720,10,0,experiment,NA,NA,2,0.5,0.5,5,4,264,6,NA
fcp-trial,314,1405059,0.0-275.0-0.0,voc_e2,12183,"[{""event"":""fullscreenenter"",""trial"":1,""time"":13753}]",NA,NA,NA,NA,NA,0,#1CD855,#FA92F8,10,10,1,38,1,1166.0000000002328,39,0,730,10,0,experiment,NA,NA,2,0.5,0.5,4,5,265,6,NA
fcp-trial,315,1408848,0.0-276.0-0.0,voc_e2,12183,"[{""event"":""fullscreenenter"",""trial"":1,""time"":13753}]",NA,NA,NA,NA,NA,4,#3386FF,#D89F1C,10,0,1,38,1,1261,37,1,998,10,1,experiment,NA,NA,0,0.9,0.1,0,1,266,6,NA
fcp-trial,316,1412986,0.0-277.0-0.0,voc_e2,12183,"[{""event"":""fullscreenenter"",""trial"":1,""time"":13753}]",NA,NA,NA,NA,NA,3,#D8271C,#741CD8,0,10,0,38,1,931,37,1,1695.9999999997672,0,0,experiment,NA,NA,1,0.3,0.7,3,2,267,6,NA
fcp-trial,317,1417139,0.0-278.0-0.0,voc_e2,12183,"[{""event"":""fullscreenenter"",""trial"":1,""time"":13753}]",NA,NA,NA,NA,NA,1,#FA92F8,#1CD855,10,10,0,38,1,1152,37,1,1490,10,0,experiment,NA,NA,2,0.5,0.5,5,4,268,6,NA
fcp-trial,318,1420210,0.0-279.0-0.0,voc_e2,12183,"[{""event"":""fullscreenenter"",""trial"":1,""time"":13753}]",NA,NA,NA,NA,NA,2,#FA92F8,#1CD855,0,0,0,38,1,1006.0000000002328,37,1,554.9999999997672,0,0,experiment,NA,NA,2,0.5,0.5,5,4,269,6,NA
fcp-trial,319,1423467,0.0-280.0-0.0,voc_e2,12183,"[{""event"":""fullscreenenter"",""trial"":1,""time"":13753}]",NA,NA,NA,NA,NA,6,#1CD855,#FA92F8,10,0,1,40,0,1244,39,0,502,0,0,experiment,NA,NA,2,0.5,0.5,4,5,270,6,NA
fcp-trial,320,1426722,0.0-281.0-0.0,voc_e2,12183,"[{""event"":""fullscreenenter"",""trial"":1,""time"":13753}]",NA,NA,NA,NA,NA,3,#D89F1C,#3386FF,0,10,0,38,1,668,39,0,1075.9999999997672,10,1,experiment,NA,NA,0,0.1,0.9,1,0,271,7,NA
fcp-trial,321,1431044,0.0-282.0-0.0,voc_e2,12183,"[{""event"":""fullscreenenter"",""trial"":1,""time"":13753}]",NA,NA,NA,NA,NA,1,#741CD8,#D8271C,10,0,1,38,1,1003.9999999997672,39,0,1807,0,0,experiment,NA,NA,1,0.7,0.3,2,3,272,7,NA
fcp-trial,322,1433634,0.0-283.0-0.0,voc_e2,12183,"[{""event"":""fullscreenenter"",""trial"":1,""time"":13753}]",NA,NA,NA,NA,NA,4,#D8271C,#741CD8,0,10,0,38,1,696,39,0,382.9999999997672,10,1,experiment,NA,NA,1,0.3,0.7,3,2,273,7,NA
fcp-trial,323,1437862,0.0-284.0-0.0,voc_e2,12183,"[{""event"":""fullscreenenter"",""trial"":1,""time"":13753}]",NA,NA,NA,NA,NA,1,#D89F1C,#3386FF,0,10,0,38,1,842,39,0,1877,10,1,experiment,NA,NA,0,0.1,0.9,1,0,274,7,NA
fcp-trial,324,1441704,0.0-285.0-0.0,voc_e2,12183,"[{""event"":""fullscreenenter"",""trial"":1,""time"":13753}]",NA,NA,NA,NA,NA,1,#1CD855,#FA92F8,10,0,1,38,1,939,37,1,1393,10,1,experiment,NA,NA,2,0.5,0.5,4,5,275,7,NA
fcp-trial,325,1444755,0.0-286.0-0.0,voc_e2,12183,"[{""event"":""fullscreenenter"",""trial"":1,""time"":13753}]",NA,NA,NA,NA,NA,5,#D8271C,#741CD8,0,0,0,40,0,1125,39,0,416,0,1,experiment,NA,NA,1,0.3,0.7,3,2,276,7,NA
fcp-trial,326,1447782,0.0-287.0-0.0,voc_e2,12183,"[{""event"":""fullscreenenter"",""trial"":1,""time"":13753}]",NA,NA,NA,NA,NA,0,#D8271C,#741CD8,0,0,0,38,1,977,39,0,521,0,1,experiment,NA,NA,1,0.3,0.7,3,2,277,7,NA
fcp-trial,327,1450821,0.0-288.0-0.0,voc_e2,12183,"[{""event"":""fullscreenenter"",""trial"":1,""time"":13753}]",NA,NA,NA,NA,NA,3,#3386FF,#D89F1C,0,0,1,38,1,1030,37,1,500,0,1,experiment,NA,NA,0,0.9,0.1,0,1,278,7,NA
fcp-trial,328,1454492,0.0-289.0-0.0,voc_e2,12183,"[{""event"":""fullscreenenter"",""trial"":1,""time"":13753}]",NA,NA,NA,NA,NA,4,#D8271C,#741CD8,0,0,0,40,0,1201,37,1,960,0,0,experiment,NA,NA,1,0.3,0.7,3,2,279,7,NA
fcp-trial,329,1457791,0.0-290.0-0.0,voc_e2,12183,"[{""event"":""fullscreenenter"",""trial"":1,""time"":13753}]",NA,NA,NA,NA,NA,2,#FA92F8,#1CD855,10,0,0,38,1,693.9999999997672,37,1,1077,10,0,experiment,NA,NA,2,0.5,0.5,5,4,280,7,NA
fcp-trial,330,1460807,0.0-291.0-0.0,voc_e2,12183,"[{""event"":""fullscreenenter"",""trial"":1,""time"":13753}]",NA,NA,NA,NA,NA,6,#3386FF,#D89F1C,10,10,1,40,0,1133.0000000002328,39,0,353,10,0,experiment,NA,NA,0,0.9,0.1,0,1,281,7,NA
fcp-trial,331,1463464,0.0-292.0-0.0,voc_e2,12183,"[{""event"":""fullscreenenter"",""trial"":1,""time"":13753}]",NA,NA,NA,NA,NA,5,#3386FF,#D89F1C,10,0,1,40,0,670.9999999997672,37,1,476,10,1,experiment,NA,NA,0,0.9,0.1,0,1,282,7,NA
fcp-trial,332,1465989,0.0-293.0-0.0,voc_e2,12183,"[{""event"":""fullscreenenter"",""trial"":1,""time"":13753}]",NA,NA,NA,NA,NA,6,#741CD8,#D8271C,10,0,1,40,0,615,39,0,401,0,0,experiment,NA,NA,1,0.7,0.3,2,3,283,7,NA
fcp-trial,333,1469220,0.0-294.0-0.0,voc_e2,12183,"[{""event"":""fullscreenenter"",""trial"":1,""time"":13753}]",NA,NA,NA,NA,NA,4,#FA92F8,#1CD855,0,0,0,38,1,954,37,1,747,0,0,experiment,NA,NA,2,0.5,0.5,5,4,284,7,NA
fcp-trial,334,1472359,0.0-295.0-0.0,voc_e2,12183,"[{""event"":""fullscreenenter"",""trial"":1,""time"":13753}]",NA,NA,NA,NA,NA,2,#D89F1C,#3386FF,0,10,0,38,1,567,39,0,1062,10,1,experiment,NA,NA,0,0.1,0.9,1,0,285,7,NA
fcp-trial,335,1475476,0.0-296.0-0.0,voc_e2,12183,"[{""event"":""fullscreenenter"",""trial"":1,""time"":13753}]",NA,NA,NA,NA,NA,3,#FA92F8,#1CD855,0,10,0,38,1,907,37,1,679,0,0,experiment,NA,NA,2,0.5,0.5,5,4,286,7,NA
fcp-trial,336,1480871,0.0-297.0-0.0,voc_e2,12183,"[{""event"":""fullscreenenter"",""trial"":1,""time"":13753}]",NA,NA,NA,NA,NA,1,#D8271C,#741CD8,0,10,0,38,1,1032,39,0,2853,10,1,experiment,NA,NA,1,0.3,0.7,3,2,287,7,NA
fcp-trial,337,1483667,0.0-298.0-0.0,voc_e2,12183,"[{""event"":""fullscreenenter"",""trial"":1,""time"":13753}]",NA,NA,NA,NA,NA,0,#1CD855,#FA92F8,0,0,1,38,1,661,37,1,625,0,1,experiment,NA,NA,2,0.5,0.5,4,5,288,7,NA
fcp-trial,338,1486380,0.0-299.0-0.0,voc_e2,12183,"[{""event"":""fullscreenenter"",""trial"":1,""time"":13753}]",NA,NA,NA,NA,NA,3,#D8271C,#741CD8,0,10,0,38,1,870,39,0,333,10,1,experiment,NA,NA,1,0.3,0.7,3,2,289,7,NA
fcp-trial,339,1489517,0.0-300.0-0.0,voc_e2,12183,"[{""event"":""fullscreenenter"",""trial"":1,""time"":13753}]",NA,NA,NA,NA,NA,4,#3386FF,#D89F1C,10,0,1,38,1,1194,37,1,434,10,1,experiment,NA,NA,0,0.9,0.1,0,1,290,7,NA
fcp-trial,340,1492220,0.0-301.0-0.0,voc_e2,12183,"[{""event"":""fullscreenenter"",""trial"":1,""time"":13753}]",NA,NA,NA,NA,NA,2,#D8271C,#741CD8,0,10,0,38,1,743,39,0,449,10,1,experiment,NA,NA,1,0.3,0.7,3,2,291,7,NA
fcp-trial,341,1494600,0.0-302.0-0.0,voc_e2,12183,"[{""event"":""fullscreenenter"",""trial"":1,""time"":13753}]",NA,NA,NA,NA,NA,5,#FA92F8,#1CD855,10,10,0,38,1,496,39,0,374,10,1,experiment,NA,NA,2,0.5,0.5,5,4,292,7,NA
fcp-trial,342,1497715,0.0-303.0-0.0,voc_e2,12183,"[{""event"":""fullscreenenter"",""trial"":1,""time"":13753}]",NA,NA,NA,NA,NA,0,#D89F1C,#3386FF,0,10,0,38,1,1055,39,0,550,10,1,experiment,NA,NA,0,0.1,0.9,1,0,293,7,NA
fcp-trial,343,1500400,0.0-304.0-0.0,voc_e2,12183,"[{""event"":""fullscreenenter"",""trial"":1,""time"":13753}]",NA,NA,NA,NA,NA,6,#FA92F8,#1CD855,10,0,0,40,0,677,39,0,496.9999999997672,0,1,experiment,NA,NA,2,0.5,0.5,5,4,294,7,NA
fcp-trial,344,1503751,0.0-305.0-0.0,voc_e2,12183,"[{""event"":""fullscreenenter"",""trial"":1,""time"":13753}]",NA,NA,NA,NA,NA,0,#1CD855,#FA92F8,0,10,1,38,1,1176.0000000002328,37,1,664,0,1,experiment,NA,NA,2,0.5,0.5,4,5,295,7,NA
fcp-trial,345,1507739,0.0-306.0-0.0,voc_e2,12183,"[{""event"":""fullscreenenter"",""trial"":1,""time"":13753}]",NA,NA,NA,NA,NA,3,#D89F1C,#3386FF,0,10,0,38,1,968,39,0,1511,10,1,experiment,NA,NA,0,0.1,0.9,1,0,296,7,NA
fcp-trial,346,1510540,0.0-307.0-0.0,voc_e2,12183,"[{""event"":""fullscreenenter"",""trial"":1,""time"":13753}]",NA,NA,NA,NA,NA,4,#741CD8,#D8271C,0,10,1,38,1,756,37,1,534,0,1,experiment,NA,NA,1,0.7,0.3,2,3,297,7,NA
fcp-trial,347,1513196,0.0-308.0-0.0,voc_e2,12183,"[{""event"":""fullscreenenter"",""trial"":1,""time"":13753}]",NA,NA,NA,NA,NA,5,#741CD8,#D8271C,10,10,1,38,1,841,37,1,305,10,1,experiment,NA,NA,1,0.7,0.3,2,3,298,7,NA
fcp-trial,348,1517839,0.0-309.0-0.0,voc_e2,12183,"[{""event"":""fullscreenenter"",""trial"":1,""time"":13753}]",NA,NA,NA,NA,NA,2,#1CD855,#FA92F8,10,0,1,38,1,1187,39,0,1943.9999999997672,0,0,experiment,NA,NA,2,0.5,0.5,4,5,299,7,NA
fcp-trial,349,1520236,0.0-310.0-0.0,voc_e2,12183,"[{""event"":""fullscreenenter"",""trial"":1,""time"":13753}]",NA,NA,NA,NA,NA,1,#1CD855,#FA92F8,10,0,1,38,1,618,37,1,268,10,1,experiment,NA,NA,2,0.5,0.5,4,5,300,7,NA
fcp-trial,350,1523233,0.0-311.0-0.0,voc_e2,12183,"[{""event"":""fullscreenenter"",""trial"":1,""time"":13753}]",NA,NA,NA,NA,NA,0,#D89F1C,#3386FF,0,10,0,38,1,1206.0000000002328,39,0,280.99999999976717,10,1,experiment,NA,NA,0,0.1,0.9,1,0,301,7,NA
fcp-trial,351,1528670,0.0-312.0-0.0,voc_e2,12183,"[{""event"":""fullscreenenter"",""trial"":1,""time"":13753}]",NA,NA,NA,NA,NA,3,#FA92F8,#1CD855,0,0,0,38,1,1552,39,0,2376,0,1,experiment,NA,NA,2,0.5,0.5,5,4,302,7,NA
fcp-trial,352,1531715,0.0-313.0-0.0,voc_e2,12183,"[{""event"":""fullscreenenter"",""trial"":1,""time"":13753}]",NA,NA,NA,NA,NA,3,#D8271C,#741CD8,0,10,0,38,1,707,39,0,827,10,1,experiment,NA,NA,1,0.3,0.7,3,2,303,7,NA
fcp-trial,353,1535331,0.0-314.0-0.0,voc_e2,12183,"[{""event"":""fullscreenenter"",""trial"":1,""time"":13753}]",NA,NA,NA,NA,NA,5,#3386FF,#D89F1C,10,0,1,40,0,1554.0000000002328,37,1,552.9999999997672,10,1,experiment,NA,NA,0,0.9,0.1,0,1,304,7,NA
fcp-trial,354,1538343,0.0-315.0-0.0,voc_e2,12183,"[{""event"":""fullscreenenter"",""trial"":1,""time"":13753}]",NA,NA,NA,NA,NA,0,#D8271C,#741CD8,0,10,0,38,1,992,39,0,507,10,1,experiment,NA,NA,1,0.3,0.7,3,2,305,7,NA
fcp-trial,355,1542604,0.0-316.0-0.0,voc_e2,12183,"[{""event"":""fullscreenenter"",""trial"":1,""time"":13753}]",NA,NA,NA,NA,NA,2,#3386FF,#D89F1C,10,0,1,38,1,2298,37,1,453,10,1,experiment,NA,NA,0,0.9,0.1,0,1,306,7,NA
fcp-trial,356,1546892,0.0-317.0-0.0,voc_e2,12183,"[{""event"":""fullscreenenter"",""trial"":1,""time"":13753}]",NA,NA,NA,NA,NA,5,#1CD855,#FA92F8,0,10,1,40,0,2021,39,0,757,10,0,experiment,NA,NA,2,0.5,0.5,4,5,307,7,NA
fcp-trial,357,1550536,0.0-318.0-0.0,voc_e2,12183,"[{""event"":""fullscreenenter"",""trial"":1,""time"":13753}]",NA,NA,NA,NA,NA,1,#3386FF,#D89F1C,10,0,1,38,1,1330.9999999997672,37,1,802,10,1,experiment,NA,NA,0,0.9,0.1,0,1,308,7,NA
fcp-trial,358,1554160,0.0-319.0-0.0,voc_e2,12183,"[{""event"":""fullscreenenter"",""trial"":1,""time"":13753}]",NA,NA,NA,NA,NA,6,#741CD8,#D8271C,10,0,1,38,1,878.9999999997672,39,0,1233,0,0,experiment,NA,NA,1,0.7,0.3,2,3,309,7,NA
fcp-trial,359,1557203,0.0-320.0-0.0,voc_e2,12183,"[{""event"":""fullscreenenter"",""trial"":1,""time"":13753}]",NA,NA,NA,NA,NA,6,#1CD855,#FA92F8,10,0,1,40,0,1157,37,1,374,10,1,experiment,NA,NA,2,0.5,0.5,4,5,310,7,NA
fcp-trial,360,1560083,0.0-321.0-0.0,voc_e2,12183,"[{""event"":""fullscreenenter"",""trial"":1,""time"":13753}]",NA,NA,NA,NA,NA,4,#3386FF,#D89F1C,10,0,1,38,1,1110,37,1,260,10,1,experiment,NA,NA,0,0.9,0.1,0,1,311,7,NA
fcp-trial,361,1562615,0.0-322.0-0.0,voc_e2,12183,"[{""event"":""fullscreenenter"",""trial"":1,""time"":13753}]",NA,NA,NA,NA,NA,6,#3386FF,#D89F1C,10,0,1,40,0,331,37,1,691,10,1,experiment,NA,NA,0,0.9,0.1,0,1,312,7,NA
fcp-trial,362,1565934,0.0-323.0-0.0,voc_e2,12183,"[{""event"":""fullscreenenter"",""trial"":1,""time"":13753}]",NA,NA,NA,NA,NA,2,#741CD8,#D8271C,10,10,1,38,1,905.9999999997672,37,1,904,10,1,experiment,NA,NA,1,0.7,0.3,2,3,313,7,NA
fcp-trial,363,1569184,0.0-324.0-0.0,voc_e2,12183,"[{""event"":""fullscreenenter"",""trial"":1,""time"":13753}]",NA,NA,NA,NA,NA,4,#1CD855,#FA92F8,10,10,1,38,1,1185,37,1,554,10,1,experiment,NA,NA,2,0.5,0.5,4,5,314,7,NA
fcp-trial,364,1572352,0.0-325.0-0.0,voc_e2,12183,"[{""event"":""fullscreenenter"",""trial"":1,""time"":13753}]",NA,NA,NA,NA,NA,1,#D8271C,#741CD8,10,10,0,38,1,895,39,0,761,10,1,experiment,NA,NA,1,0.3,0.7,3,2,315,7,NA
audio-instructions,365,1578926,0.0-326.0,voc_e2,12183,"[{""event"":""fullscreenenter"",""trial"":1,""time"":13753}]",NA,940,static/audio/finished.wav,NA,0,NA,NA,NA,NA,NA,NA,NA,NA,NA,NA,NA,NA,NA,NA,NA,NA,NA,NA,NA,NA,NA,NA,NA,NA,NA
audio-instructions,366,1591664,0.0-327.0-0.0,voc_e2,12183,"[{""event"":""fullscreenenter"",""trial"":1,""time"":13753}]",NA,1901,static/audio/explicit1.wav,NA,0,NA,NA,NA,NA,NA,NA,NA,NA,NA,NA,NA,NA,NA,NA,NA,NA,NA,NA,NA,NA,NA,NA,NA,NA,NA
audio-instructions,367,1600219,0.0-327.0-1.0,voc_e2,12183,"[{""event"":""fullscreenenter"",""trial"":1,""time"":13753}]",NA,960.0000000002328,static/audio/explicit2.wav,NA,0,NA,NA,NA,NA,NA,NA,NA,NA,NA,NA,NA,NA,NA,NA,NA,NA,NA,NA,NA,NA,NA,NA,NA,NA,NA
image-slider-response,368,1613356,0.0-328.0,voc_e2,12183,"[{""event"":""fullscreenenter"",""trial"":1,""time"":13753}]",NA,13136,static/img/machines/machine6.png,NA,NA,NA,NA,NA,NA,NA,NA,NA,NA,NA,NA,NA,NA,NA,NA,explicit,NA,NA,NA,NA,NA,NA,NA,NA,NA,4
image-slider-response,369,1624655,0.0-329.0,voc_e2,12183,"[{""event"":""fullscreenenter"",""trial"":1,""time"":13753}]",NA,11297,static/img/machines/machine4.png,NA,NA,NA,NA,NA,NA,NA,NA,NA,NA,NA,NA,NA,NA,NA,NA,explicit,NA,NA,NA,NA,NA,NA,NA,NA,NA,3
image-slider-response,370,1631595,0.0-330.0,voc_e2,12183,"[{""event"":""fullscreenenter"",""trial"":1,""time"":13753}]",NA,6938,static/img/machines/machine1.png,NA,NA,NA,NA,NA,NA,NA,NA,NA,NA,NA,NA,NA,NA,NA,NA,explicit,NA,NA,NA,NA,NA,NA,NA,NA,NA,2
image-slider-response,371,1636965,0.0-331.0,voc_e2,12183,"[{""event"":""fullscreenenter"",""trial"":1,""time"":13753}]",NA,5369,static/img/machines/machine5.png,NA,NA,NA,NA,NA,NA,NA,NA,NA,NA,NA,NA,NA,NA,NA,NA,explicit,NA,NA,NA,NA,NA,NA,NA,NA,NA,6
image-slider-response,372,1641052,0.0-332.0,voc_e2,12183,"[{""event"":""fullscreenenter"",""trial"":1,""time"":13753}]",NA,4085,static/img/machines/machine2.png,NA,NA,NA,NA,NA,NA,NA,NA,NA,NA,NA,NA,NA,NA,NA,NA,explicit,NA,NA,NA,NA,NA,NA,NA,NA,NA,7
image-slider-response,373,1646134,0.0-333.0,voc_e2,12183,"[{""event"":""fullscreenenter"",""trial"":1,""time"":13753}]",NA,5082,static/img/machines/machine3.png,NA,NA,NA,NA,NA,NA,NA,NA,NA,NA,NA,NA,NA,NA,NA,NA,explicit,NA,NA,NA,NA,NA,NA,NA,NA,NA,8
