trial_type,trial_index,time_elapsed,internal_node_id,task_version,subject_id,interactions,success,rt,stimulus,key_press,button_pressed,offer,arcade_color_L,arcade_color_R,arcade_outcome_L,arcade_outcome_R,correct,stage_1_key,stage_1_choice,stage_1_rt,stage_2_key,stage_2_choice,stage_2_rt,stage_3_outcome,accuracy,phase,responses,num_errors,context,reward_prob_L,reward_prob_R,arcade_id_L,arcade_id_R,trial,block,response
pavlovia,0,8,0.0-0.0,voc_e2,12052,[],NA,NA,NA,NA,NA,NA,NA,NA,NA,NA,NA,NA,NA,NA,NA,NA,NA,NA,NA,NA,NA,NA,NA,NA,NA,NA,NA,NA,NA,NA
fullscreen,1,4724,0.0-1.0,voc_e2,12052,"[{""event"":""fullscreenenter"",""trial"":1,""time"":3824}]",TRUE,NA,NA,NA,NA,NA,NA,NA,NA,NA,NA,NA,NA,NA,NA,NA,NA,NA,NA,NA,NA,NA,NA,NA,NA,NA,NA,NA,NA,NA
audio-keyboard-response,2,9435,0.0-2.0,voc_e2,12052,"[{""event"":""fullscreenenter"",""trial"":1,""time"":3824}]",NA,0,static/audio/beep_loop.wav,32,NA,NA,NA,NA,NA,NA,NA,NA,NA,NA,NA,NA,NA,NA,NA,NA,NA,NA,NA,NA,NA,NA,NA,NA,NA,NA
audio-test,3,10937,0.0-3.0,voc_e2,12052,"[{""event"":""fullscreenenter"",""trial"":1,""time"":3824}]",NA,NA,static/audio/turtle.wav,NA,3,NA,NA,NA,NA,NA,NA,NA,NA,NA,NA,NA,NA,NA,NA,NA,NA,NA,NA,NA,NA,NA,NA,NA,NA,NA
audio-test,4,13052,0.0-4.0,voc_e2,12052,"[{""event"":""fullscreenenter"",""trial"":1,""time"":3824}]",NA,NA,static/audio/shark.wav,NA,2,NA,NA,NA,NA,NA,NA,NA,NA,NA,NA,NA,NA,NA,NA,NA,NA,NA,NA,NA,NA,NA,NA,NA,NA,NA
audio-instructions,5,19948,0.0-5.0-0.0,voc_e2,12052,"[{""event"":""fullscreenenter"",""trial"":1,""time"":3824}]",NA,1115,static/audio/instructions1.wav,NA,0,NA,NA,NA,NA,NA,NA,NA,NA,NA,NA,NA,NA,NA,NA,NA,NA,NA,NA,NA,NA,NA,NA,NA,NA,NA
audio-instructions,6,28052,0.0-5.0-1.0,voc_e2,12052,"[{""event"":""fullscreenenter"",""trial"":1,""time"":3824}]",NA,1362,static/audio/instructions2.wav,NA,0,NA,NA,NA,NA,NA,NA,NA,NA,NA,NA,NA,NA,NA,NA,NA,NA,NA,NA,NA,NA,NA,NA,NA,NA,NA
audio-instructions,7,36458,0.0-5.0-2.0,voc_e2,12052,"[{""event"":""fullscreenenter"",""trial"":1,""time"":3824}]",NA,2604,static/audio/instructions3.wav,NA,0,NA,NA,NA,NA,NA,NA,NA,NA,NA,NA,NA,NA,NA,NA,NA,NA,NA,NA,NA,NA,NA,NA,NA,NA,NA
audio-instructions,8,50914,0.0-5.0-3.0,voc_e2,12052,"[{""event"":""fullscreenenter"",""trial"":1,""time"":3824}]",NA,1230,static/audio/instructions4.wav,NA,0,NA,NA,NA,NA,NA,NA,NA,NA,NA,NA,NA,NA,NA,NA,NA,NA,NA,NA,NA,NA,NA,NA,NA,NA,NA
audio-instructions,9,61346,0.0-5.0-4.0,voc_e2,12052,"[{""event"":""fullscreenenter"",""trial"":1,""time"":3824}]",NA,981.0000000000072,static/audio/instructions5.wav,NA,0,NA,NA,NA,NA,NA,NA,NA,NA,NA,NA,NA,NA,NA,NA,NA,NA,NA,NA,NA,NA,NA,NA,NA,NA,NA
fcp-practice,10,64771,0.0-5.0-5.0-0.0,voc_e2,12052,"[{""event"":""fullscreenenter"",""trial"":1,""time"":3824}]",NA,NA,NA,NA,NA,NA,#EDC948,#46d3c8,10,0,1,null,null,null,37,1,1919.9999999999857,10,1,practice,NA,NA,NA,NA,NA,NA,NA,NA,NA,NA
fcp-practice,11,66884,0.0-5.0-5.0-1.0,voc_e2,12052,"[{""event"":""fullscreenenter"",""trial"":1,""time"":3824}]",NA,NA,NA,NA,NA,NA,#EDC948,#46d3c8,10,0,1,null,null,null,37,1,598,10,1,practice,NA,NA,NA,NA,NA,NA,NA,NA,NA,NA
fcp-practice,12,68804,0.0-5.0-5.0-2.0,voc_e2,12052,"[{""event"":""fullscreenenter"",""trial"":1,""time"":3824}]",NA,NA,NA,NA,NA,NA,#EDC948,#46d3c8,0,10,1,null,null,null,37,1,415,0,1,practice,NA,NA,NA,NA,NA,NA,NA,NA,NA,NA
fcp-practice,13,70740,0.0-5.0-5.0-3.0,voc_e2,12052,"[{""event"":""fullscreenenter"",""trial"":1,""time"":3824}]",NA,NA,NA,NA,NA,NA,#EDC948,#46d3c8,10,0,1,null,null,null,37,1,431,10,1,practice,NA,NA,NA,NA,NA,NA,NA,NA,NA,NA
fcp-practice,14,72661,0.0-5.0-5.0-4.0,voc_e2,12052,"[{""event"":""fullscreenenter"",""trial"":1,""time"":3824}]",NA,NA,NA,NA,NA,NA,#EDC948,#46d3c8,10,0,1,null,null,null,37,1,407,10,1,practice,NA,NA,NA,NA,NA,NA,NA,NA,NA,NA
audio-instructions,15,93162,0.0-5.0-6.0,voc_e2,12052,"[{""event"":""fullscreenenter"",""trial"":1,""time"":3824}]",NA,2492,static/audio/instructions6.wav,NA,0,NA,NA,NA,NA,NA,NA,NA,NA,NA,NA,NA,NA,NA,NA,NA,NA,NA,NA,NA,NA,NA,NA,NA,NA,NA
audio-instructions,16,114102,0.0-5.0-7.0,voc_e2,12052,"[{""event"":""fullscreenenter"",""trial"":1,""time"":3824}]",NA,1740.0000000000146,static/audio/instructions7.wav,NA,0,NA,NA,NA,NA,NA,NA,NA,NA,NA,NA,NA,NA,NA,NA,NA,NA,NA,NA,NA,NA,NA,NA,NA,NA,NA
audio-instructions,17,127144,0.0-5.0-8.0,voc_e2,12052,"[{""event"":""fullscreenenter"",""trial"":1,""time"":3824}]",NA,3571,static/audio/instructions8.wav,NA,0,NA,NA,NA,NA,NA,NA,NA,NA,NA,NA,NA,NA,NA,NA,NA,NA,NA,NA,NA,NA,NA,NA,NA,NA,NA
fcp-comprehension,18,138281,0.0-5.0-9.0,voc_e2,12052,"[{""event"":""fullscreenenter"",""trial"":1,""time"":3824}]",NA,11135,NA,NA,NA,NA,NA,NA,NA,NA,NA,NA,NA,NA,NA,NA,NA,NA,NA,NA,"false,true",1,NA,NA,NA,NA,NA,NA,NA,NA
audio-instructions,19,144046,0.0-5.1-0.1,voc_e2,12052,"[{""event"":""fullscreenenter"",""trial"":1,""time"":3824}]",NA,982.9999999999708,static/audio/instructions1.wav,NA,0,NA,NA,NA,NA,NA,NA,NA,NA,NA,NA,NA,NA,NA,NA,NA,NA,NA,NA,NA,NA,NA,NA,NA,NA,NA
audio-instructions,20,152406,0.0-5.1-1.1,voc_e2,12052,"[{""event"":""fullscreenenter"",""trial"":1,""time"":3824}]",NA,1616,static/audio/instructions2.wav,NA,0,NA,NA,NA,NA,NA,NA,NA,NA,NA,NA,NA,NA,NA,NA,NA,NA,NA,NA,NA,NA,NA,NA,NA,NA,NA
audio-instructions,21,158912,0.0-5.1-2.1,voc_e2,12052,"[{""event"":""fullscreenenter"",""trial"":1,""time"":3824}]",NA,701,static/audio/instructions3.wav,NA,0,NA,NA,NA,NA,NA,NA,NA,NA,NA,NA,NA,NA,NA,NA,NA,NA,NA,NA,NA,NA,NA,NA,NA,NA,NA
audio-instructions,22,173965,0.0-5.1-3.1,voc_e2,12052,"[{""event"":""fullscreenenter"",""trial"":1,""time"":3824}]",NA,1829,static/audio/instructions4.wav,NA,0,NA,NA,NA,NA,NA,NA,NA,NA,NA,NA,NA,NA,NA,NA,NA,NA,NA,NA,NA,NA,NA,NA,NA,NA,NA
audio-instructions,23,185469,0.0-5.1-4.1,voc_e2,12052,"[{""event"":""fullscreenenter"",""trial"":1,""time"":3824}]",NA,2117,static/audio/instructions5.wav,NA,0,NA,NA,NA,NA,NA,NA,NA,NA,NA,NA,NA,NA,NA,NA,NA,NA,NA,NA,NA,NA,NA,NA,NA,NA,NA
fcp-practice,24,187411,0.0-5.1-5.1-0.1,voc_e2,12052,"[{""event"":""fullscreenenter"",""trial"":1,""time"":3824}]",NA,NA,NA,NA,NA,NA,#EDC948,#46d3c8,10,0,1,null,null,null,37,1,438,10,1,practice,NA,NA,NA,NA,NA,NA,NA,NA,NA,NA
fcp-practice,25,189208,0.0-5.1-5.1-1.1,voc_e2,12052,"[{""event"":""fullscreenenter"",""trial"":1,""time"":3824}]",NA,NA,NA,NA,NA,NA,#EDC948,#46d3c8,10,0,1,null,null,null,37,1,292,10,1,practice,NA,NA,NA,NA,NA,NA,NA,NA,NA,NA
fcp-practice,26,190795,0.0-5.1-5.1-2.1,voc_e2,12052,"[{""event"":""fullscreenenter"",""trial"":1,""time"":3824}]",NA,NA,NA,NA,NA,NA,#EDC948,#46d3c8,0,10,1,null,null,null,37,1,73,0,1,practice,NA,NA,NA,NA,NA,NA,NA,NA,NA,NA
fcp-practice,27,192375,0.0-5.1-5.1-3.1,voc_e2,12052,"[{""event"":""fullscreenenter"",""trial"":1,""time"":3824}]",NA,NA,NA,NA,NA,NA,#EDC948,#46d3c8,10,0,1,null,null,null,37,1,75,10,1,practice,NA,NA,NA,NA,NA,NA,NA,NA,NA,NA
fcp-practice,28,194185,0.0-5.1-5.1-4.1,voc_e2,12052,"[{""event"":""fullscreenenter"",""trial"":1,""time"":3824}]",NA,NA,NA,NA,NA,NA,#EDC948,#46d3c8,10,0,1,null,null,null,37,1,296,10,1,practice,NA,NA,NA,NA,NA,NA,NA,NA,NA,NA
audio-instructions,29,214394,0.0-5.1-6.1,voc_e2,12052,"[{""event"":""fullscreenenter"",""trial"":1,""time"":3824}]",NA,2201.000000000029,static/audio/instructions6.wav,NA,0,NA,NA,NA,NA,NA,NA,NA,NA,NA,NA,NA,NA,NA,NA,NA,NA,NA,NA,NA,NA,NA,NA,NA,NA,NA
audio-instructions,30,234507,0.0-5.1-7.1,voc_e2,12052,"[{""event"":""fullscreenenter"",""trial"":1,""time"":3824}]",NA,915.0000000000292,static/audio/instructions7.wav,NA,0,NA,NA,NA,NA,NA,NA,NA,NA,NA,NA,NA,NA,NA,NA,NA,NA,NA,NA,NA,NA,NA,NA,NA,NA,NA
audio-instructions,31,245345,0.0-5.1-8.1,voc_e2,12052,"[{""event"":""fullscreenenter"",""trial"":1,""time"":3824}]",NA,1366.000000000029,static/audio/instructions8.wav,NA,0,NA,NA,NA,NA,NA,NA,NA,NA,NA,NA,NA,NA,NA,NA,NA,NA,NA,NA,NA,NA,NA,NA,NA,NA,NA
fcp-comprehension,32,259075,0.0-5.1-9.1,voc_e2,12052,"[{""event"":""fullscreenenter"",""trial"":1,""time"":3824}]",NA,13729,NA,NA,NA,NA,NA,NA,NA,NA,NA,NA,NA,NA,NA,NA,NA,NA,NA,NA,"true,true",0,NA,NA,NA,NA,NA,NA,NA,NA
audio-instructions,33,265697,0.0-6.0-0.0,voc_e2,12052,"[{""event"":""fullscreenenter"",""trial"":1,""time"":3824}]",NA,1075,static/audio/instructions9.wav,NA,0,NA,NA,NA,NA,NA,NA,NA,NA,NA,NA,NA,NA,NA,NA,NA,NA,NA,NA,NA,NA,NA,NA,NA,NA,NA
audio-instructions,34,280008,0.0-6.0-1.0,voc_e2,12052,"[{""event"":""fullscreenenter"",""trial"":1,""time"":3824}]",NA,2194,static/audio/instructions10.wav,NA,0,NA,NA,NA,NA,NA,NA,NA,NA,NA,NA,NA,NA,NA,NA,NA,NA,NA,NA,NA,NA,NA,NA,NA,NA,NA
fcp-trial,35,284516,0.0-6.0-2.0,voc_e2,12052,"[{""event"":""fullscreenenter"",""trial"":1,""time"":3824}]",NA,NA,NA,NA,NA,0,#EDC948,#46d3c8,10,10,1,38,1,1489,37,1,1511,10,1,practice,NA,NA,NA,NA,NA,NA,NA,NA,NA,NA
audio-instructions,36,297769,0.0-6.0-3.0,voc_e2,12052,"[{""event"":""fullscreenenter"",""trial"":1,""time"":3824}]",NA,2242,static/audio/instructions11.wav,NA,0,NA,NA,NA,NA,NA,NA,NA,NA,NA,NA,NA,NA,NA,NA,NA,NA,NA,NA,NA,NA,NA,NA,NA,NA,NA
fcp-trial,37,300822,0.0-6.0-4.0,voc_e2,12052,"[{""event"":""fullscreenenter"",""trial"":1,""time"":3824}]",NA,NA,NA,NA,NA,6,#EDC948,#46d3c8,10,10,1,40,0,721,37,1,827,10,1,practice,NA,NA,NA,NA,NA,NA,NA,NA,NA,NA
audio-instructions,38,322007,0.0-6.0-5.0,voc_e2,12052,"[{""event"":""fullscreenenter"",""trial"":1,""time"":3824}]",NA,2495,static/audio/instructions12.wav,NA,0,NA,NA,NA,NA,NA,NA,NA,NA,NA,NA,NA,NA,NA,NA,NA,NA,NA,NA,NA,NA,NA,NA,NA,NA,NA
audio-instructions,39,330737,0.0-6.0-6.0,voc_e2,12052,"[{""event"":""fullscreenenter"",""trial"":1,""time"":3824}]",NA,1137,static/audio/instructions13.wav,NA,0,NA,NA,NA,NA,NA,NA,NA,NA,NA,NA,NA,NA,NA,NA,NA,NA,NA,NA,NA,NA,NA,NA,NA,NA,NA
audio-instructions,40,341016,0.0-6.0-7.0,voc_e2,12052,"[{""event"":""fullscreenenter"",""trial"":1,""time"":3824}]",NA,1832,static/audio/instructions14.wav,NA,0,NA,NA,NA,NA,NA,NA,NA,NA,NA,NA,NA,NA,NA,NA,NA,NA,NA,NA,NA,NA,NA,NA,NA,NA,NA
audio-instructions,41,348585,0.0-7.0-0.0,voc_e2,12052,"[{""event"":""fullscreenenter"",""trial"":1,""time"":3824}]",NA,655,static/audio/instructions15.wav,NA,0,NA,NA,NA,NA,NA,NA,NA,NA,NA,NA,NA,NA,NA,NA,NA,NA,NA,NA,NA,NA,NA,NA,NA,NA,NA
audio-instructions,42,357709,0.0-7.0-1.0,voc_e2,12052,"[{""event"":""fullscreenenter"",""trial"":1,""time"":3824}]",NA,2298,static/audio/instructions16.wav,NA,0,NA,NA,NA,NA,NA,NA,NA,NA,NA,NA,NA,NA,NA,NA,NA,NA,NA,NA,NA,NA,NA,NA,NA,NA,NA
audio-instructions,43,366278,0.0-7.0-2.0,voc_e2,12052,"[{""event"":""fullscreenenter"",""trial"":1,""time"":3824}]",NA,891.0000000000582,static/audio/instructions17.wav,NA,0,NA,NA,NA,NA,NA,NA,NA,NA,NA,NA,NA,NA,NA,NA,NA,NA,NA,NA,NA,NA,NA,NA,NA,NA,NA
audio-instructions,44,377325,0.0-7.0-3.0,voc_e2,12052,"[{""event"":""fullscreenenter"",""trial"":1,""time"":3824}]",NA,3280,static/audio/instructions18.wav,NA,0,NA,NA,NA,NA,NA,NA,NA,NA,NA,NA,NA,NA,NA,NA,NA,NA,NA,NA,NA,NA,NA,NA,NA,NA,NA
audio-instructions,45,385957,0.0-7.0-4.0,voc_e2,12052,"[{""event"":""fullscreenenter"",""trial"":1,""time"":3824}]",NA,1890.0000000000584,static/audio/instructions19.wav,NA,0,NA,NA,NA,NA,NA,NA,NA,NA,NA,NA,NA,NA,NA,NA,NA,NA,NA,NA,NA,NA,NA,NA,NA,NA,NA
fcp-comprehension,46,414952,0.0-7.0-5.0,voc_e2,12052,"[{""event"":""fullscreenenter"",""trial"":1,""time"":3824}]",NA,28994.99999999994,NA,NA,NA,NA,NA,NA,NA,NA,NA,NA,NA,NA,NA,NA,NA,NA,NA,NA,"false,false,false,true",0,NA,NA,NA,NA,NA,NA,NA,NA
audio-instructions,47,428202,0.0-8.0,voc_e2,12052,"[{""event"":""fullscreenenter"",""trial"":1,""time"":3824}]",NA,4031.999999999942,static/audio/ready.wav,NA,0,NA,NA,NA,NA,NA,NA,NA,NA,NA,NA,NA,NA,NA,NA,NA,NA,NA,NA,NA,NA,NA,NA,NA,NA,NA
fcp-trial,48,432037,0.0-9.0-0.0,voc_e2,12052,"[{""event"":""fullscreenenter"",""trial"":1,""time"":3824}]",NA,NA,NA,NA,NA,5,#D8271C,#741CD8,0,10,0,40,0,1667,37,1,661,0,0,experiment,NA,NA,0,0.1,0.9,1,0,1,1,NA
fcp-trial,49,436205,0.0-10.0-0.0,voc_e2,12052,"[{""event"":""fullscreenenter"",""trial"":1,""time"":3824}]",NA,NA,NA,NA,NA,1,#741CD8,#D8271C,10,0,1,38,1,1839,37,1,822,10,1,experiment,NA,NA,0,0.9,0.1,0,1,2,1,NA
fcp-trial,50,439385,0.0-11.0-0.0,voc_e2,12052,"[{""event"":""fullscreenenter"",""trial"":1,""time"":3824}]",NA,NA,NA,NA,NA,2,#D89F1C,#3386FF,10,0,1,38,1,909,37,1,764,10,1,experiment,NA,NA,1,0.7,0.3,2,3,3,1,NA
fcp-trial,51,443259,0.0-12.0-0.0,voc_e2,12052,"[{""event"":""fullscreenenter"",""trial"":1,""time"":3824}]",NA,NA,NA,NA,NA,6,#3386FF,#D89F1C,0,0,0,40,0,1359,39,0,1006,0,1,experiment,NA,NA,1,0.3,0.7,3,2,4,1,NA
fcp-trial,52,446154,0.0-13.0-0.0,voc_e2,12052,"[{""event"":""fullscreenenter"",""trial"":1,""time"":3824}]",NA,NA,NA,NA,NA,5,#D89F1C,#3386FF,10,10,1,38,1,754,37,1,632.9999999999418,10,1,experiment,NA,NA,1,0.7,0.3,2,3,5,1,NA
fcp-trial,53,449858,0.0-14.0-0.0,voc_e2,12052,"[{""event"":""fullscreenenter"",""trial"":1,""time"":3824}]",NA,NA,NA,NA,NA,4,#741CD8,#D8271C,10,0,1,38,1,1173,39,0,1020.9999999999418,0,0,experiment,NA,NA,0,0.9,0.1,0,1,6,1,NA
fcp-trial,54,453291,0.0-15.0-0.0,voc_e2,12052,"[{""event"":""fullscreenenter"",""trial"":1,""time"":3824}]",NA,NA,NA,NA,NA,5,#1CD855,#FA92F8,0,10,1,40,0,1238,37,1,685.9999999999418,0,1,experiment,NA,NA,2,0.5,0.5,4,5,7,1,NA
fcp-trial,55,456397,0.0-16.0-0.0,voc_e2,12052,"[{""event"":""fullscreenenter"",""trial"":1,""time"":3824}]",NA,NA,NA,NA,NA,3,#FA92F8,#1CD855,10,0,0,38,1,984.0000000000582,39,0,612,0,1,experiment,NA,NA,2,0.5,0.5,5,4,8,1,NA
fcp-trial,56,459023,0.0-17.0-0.0,voc_e2,12052,"[{""event"":""fullscreenenter"",""trial"":1,""time"":3824}]",NA,NA,NA,NA,NA,1,#FA92F8,#1CD855,10,0,0,38,1,562,37,1,554,10,0,experiment,NA,NA,2,0.5,0.5,5,4,9,1,NA
fcp-trial,57,463119,0.0-18.0-0.0,voc_e2,12052,"[{""event"":""fullscreenenter"",""trial"":1,""time"":3824}]",NA,NA,NA,NA,NA,1,#D89F1C,#3386FF,0,10,1,38,1,2045,37,1,543,0,1,experiment,NA,NA,1,0.7,0.3,2,3,10,1,NA
fcp-trial,58,467032,0.0-19.0-0.0,voc_e2,12052,"[{""event"":""fullscreenenter"",""trial"":1,""time"":3824}]",NA,NA,NA,NA,NA,0,#D8271C,#741CD8,0,10,0,38,1,1911,39,0,478,10,1,experiment,NA,NA,0,0.1,0.9,1,0,11,1,NA
fcp-trial,59,469597,0.0-20.0-0.0,voc_e2,12052,"[{""event"":""fullscreenenter"",""trial"":1,""time"":3824}]",NA,NA,NA,NA,NA,6,#741CD8,#D8271C,0,0,1,38,1,606,37,1,451.0000000000582,0,1,experiment,NA,NA,0,0.9,0.1,0,1,12,1,NA
fcp-trial,60,472582,0.0-21.0-0.0,voc_e2,12052,"[{""event"":""fullscreenenter"",""trial"":1,""time"":3824}]",NA,NA,NA,NA,NA,0,#3386FF,#D89F1C,0,10,0,38,1,620,39,0,856,10,1,experiment,NA,NA,1,0.3,0.7,3,2,13,1,NA
fcp-trial,61,476272,0.0-22.0-0.0,voc_e2,12052,"[{""event"":""fullscreenenter"",""trial"":1,""time"":3824}]",NA,NA,NA,NA,NA,4,#FA92F8,#1CD855,10,0,0,38,1,948,37,1,1232,10,0,experiment,NA,NA,2,0.5,0.5,5,4,14,1,NA
fcp-trial,62,478897,0.0-23.0-0.0,voc_e2,12052,"[{""event"":""fullscreenenter"",""trial"":1,""time"":3824}]",NA,NA,NA,NA,NA,6,#1CD855,#FA92F8,10,10,1,38,1,431,39,0,674,10,0,experiment,NA,NA,2,0.5,0.5,4,5,15,1,NA
fcp-trial,63,481986,0.0-24.0-0.0,voc_e2,12052,"[{""event"":""fullscreenenter"",""trial"":1,""time"":3824}]",NA,NA,NA,NA,NA,3,#D8271C,#741CD8,0,10,0,38,1,697,37,1,885,0,0,experiment,NA,NA,0,0.1,0.9,1,0,16,1,NA
fcp-trial,64,485136,0.0-25.0-0.0,voc_e2,12052,"[{""event"":""fullscreenenter"",""trial"":1,""time"":3824}]",NA,NA,NA,NA,NA,0,#FA92F8,#1CD855,10,10,0,38,1,455.9999999999418,37,1,1183,10,0,experiment,NA,NA,2,0.5,0.5,5,4,17,1,NA
fcp-trial,65,487866,0.0-26.0-0.0,voc_e2,12052,"[{""event"":""fullscreenenter"",""trial"":1,""time"":3824}]",NA,NA,NA,NA,NA,4,#3386FF,#D89F1C,0,10,0,38,1,698.0000000000582,39,0,523.0000000000582,10,1,experiment,NA,NA,1,0.3,0.7,3,2,18,1,NA
fcp-trial,66,491134,0.0-27.0-0.0,voc_e2,12052,"[{""event"":""fullscreenenter"",""trial"":1,""time"":3824}]",NA,NA,NA,NA,NA,2,#D8271C,#741CD8,0,10,0,38,1,816,37,1,944,0,0,experiment,NA,NA,0,0.1,0.9,1,0,19,1,NA
fcp-trial,67,494815,0.0-28.0-0.0,voc_e2,12052,"[{""event"":""fullscreenenter"",""trial"":1,""time"":3824}]",NA,NA,NA,NA,NA,2,#1CD855,#FA92F8,10,10,1,38,1,1569,39,0,601,10,0,experiment,NA,NA,2,0.5,0.5,4,5,20,1,NA
fcp-trial,68,497869,0.0-29.0-0.0,voc_e2,12052,"[{""event"":""fullscreenenter"",""trial"":1,""time"":3824}]",NA,NA,NA,NA,NA,3,#3386FF,#D89F1C,0,10,0,38,1,1056,39,0,489,10,1,experiment,NA,NA,1,0.3,0.7,3,2,21,1,NA
fcp-trial,69,501472,0.0-30.0-0.0,voc_e2,12052,"[{""event"":""fullscreenenter"",""trial"":1,""time"":3824}]",NA,NA,NA,NA,NA,4,#1CD855,#FA92F8,0,10,1,38,1,1282,39,0,812,10,0,experiment,NA,NA,2,0.5,0.5,4,5,22,1,NA
fcp-trial,70,504458,0.0-31.0-0.0,voc_e2,12052,"[{""event"":""fullscreenenter"",""trial"":1,""time"":3824}]",NA,NA,NA,NA,NA,1,#D8271C,#741CD8,0,0,0,38,1,890.0000000000582,39,0,587,0,1,experiment,NA,NA,0,0.1,0.9,1,0,23,1,NA
fcp-trial,71,507905,0.0-32.0-0.0,voc_e2,12052,"[{""event"":""fullscreenenter"",""trial"":1,""time"":3824}]",NA,NA,NA,NA,NA,3,#D89F1C,#3386FF,0,0,1,38,1,1445.9999999999418,37,1,492,0,1,experiment,NA,NA,1,0.7,0.3,2,3,24,1,NA
fcp-trial,72,510485,0.0-33.0-0.0,voc_e2,12052,"[{""event"":""fullscreenenter"",""trial"":1,""time"":3824}]",NA,NA,NA,NA,NA,6,#FA92F8,#1CD855,10,10,0,38,1,668.9999999999418,37,1,400.9999999999418,10,0,experiment,NA,NA,2,0.5,0.5,5,4,25,1,NA
fcp-trial,73,513784,0.0-34.0-0.0,voc_e2,12052,"[{""event"":""fullscreenenter"",""trial"":1,""time"":3824}]",NA,NA,NA,NA,NA,4,#D8271C,#741CD8,0,10,0,38,1,831.0000000000582,39,0,958.9999999999418,10,1,experiment,NA,NA,0,0.1,0.9,1,0,26,1,NA
fcp-trial,74,517206,0.0-35.0-0.0,voc_e2,12052,"[{""event"":""fullscreenenter"",""trial"":1,""time"":3824}]",NA,NA,NA,NA,NA,2,#FA92F8,#1CD855,10,0,0,38,1,829.9999999999418,37,1,1067,10,0,experiment,NA,NA,2,0.5,0.5,5,4,27,1,NA
fcp-trial,75,519995,0.0-36.0-0.0,voc_e2,12052,"[{""event"":""fullscreenenter"",""trial"":1,""time"":3824}]",NA,NA,NA,NA,NA,4,#D89F1C,#3386FF,10,0,1,38,1,905,37,1,375,10,1,experiment,NA,NA,1,0.7,0.3,2,3,28,1,NA
fcp-trial,76,522618,0.0-37.0-0.0,voc_e2,12052,"[{""event"":""fullscreenenter"",""trial"":1,""time"":3824}]",NA,NA,NA,NA,NA,6,#D89F1C,#3386FF,10,0,1,38,1,563,37,1,552,10,1,experiment,NA,NA,1,0.7,0.3,2,3,29,1,NA
fcp-trial,77,525516,0.0-38.0-0.0,voc_e2,12052,"[{""event"":""fullscreenenter"",""trial"":1,""time"":3824}]",NA,NA,NA,NA,NA,5,#741CD8,#D8271C,10,0,1,38,1,912.0000000001164,37,1,466,10,1,experiment,NA,NA,0,0.9,0.1,0,1,30,1,NA
fcp-trial,78,528531,0.0-39.0-0.0,voc_e2,12052,"[{""event"":""fullscreenenter"",""trial"":1,""time"":3824}]",NA,NA,NA,NA,NA,0,#3386FF,#D89F1C,0,10,0,38,1,1024,39,0,482.9999999998836,10,1,experiment,NA,NA,1,0.3,0.7,3,2,31,1,NA
fcp-trial,79,531305,0.0-40.0-0.0,voc_e2,12052,"[{""event"":""fullscreenenter"",""trial"":1,""time"":3824}]",NA,NA,NA,NA,NA,1,#1CD855,#FA92F8,10,10,1,38,1,817,39,0,447,10,0,experiment,NA,NA,2,0.5,0.5,4,5,32,1,NA
fcp-trial,80,534231,0.0-41.0-0.0,voc_e2,12052,"[{""event"":""fullscreenenter"",""trial"":1,""time"":3824}]",NA,NA,NA,NA,NA,2,#D89F1C,#3386FF,10,0,1,38,1,754,37,1,648,10,1,experiment,NA,NA,1,0.7,0.3,2,3,33,1,NA
fcp-trial,81,537051,0.0-42.0-0.0,voc_e2,12052,"[{""event"":""fullscreenenter"",""trial"":1,""time"":3824}]",NA,NA,NA,NA,NA,0,#741CD8,#D8271C,10,0,1,38,1,802,37,1,512,10,1,experiment,NA,NA,0,0.9,0.1,0,1,34,1,NA
fcp-trial,82,540229,0.0-43.0-0.0,voc_e2,12052,"[{""event"":""fullscreenenter"",""trial"":1,""time"":3824}]",NA,NA,NA,NA,NA,2,#741CD8,#D8271C,10,0,1,38,1,1130,37,1,539,10,1,experiment,NA,NA,0,0.9,0.1,0,1,35,1,NA
fcp-trial,83,542797,0.0-44.0-0.0,voc_e2,12052,"[{""event"":""fullscreenenter"",""trial"":1,""time"":3824}]",NA,NA,NA,NA,NA,5,#D89F1C,#3386FF,0,0,1,38,1,610,37,1,449,0,1,experiment,NA,NA,1,0.7,0.3,2,3,36,1,NA
fcp-trial,84,545270,0.0-45.0-0.0,voc_e2,12052,"[{""event"":""fullscreenenter"",""trial"":1,""time"":3824}]",NA,NA,NA,NA,NA,3,#1CD855,#FA92F8,10,0,1,38,1,454,39,0,509,0,0,experiment,NA,NA,2,0.5,0.5,4,5,37,1,NA
fcp-trial,85,547747,0.0-46.0-0.0,voc_e2,12052,"[{""event"":""fullscreenenter"",""trial"":1,""time"":3824}]",NA,NA,NA,NA,NA,6,#741CD8,#D8271C,10,0,1,38,1,533,37,1,434.0000000001164,10,1,experiment,NA,NA,0,0.9,0.1,0,1,38,1,NA
fcp-trial,86,550729,0.0-47.0-0.0,voc_e2,12052,"[{""event"":""fullscreenenter"",""trial"":1,""time"":3824}]",NA,NA,NA,NA,NA,0,#FA92F8,#1CD855,0,0,0,38,1,663,37,1,810,0,0,experiment,NA,NA,2,0.5,0.5,5,4,39,1,NA
fcp-trial,87,555050,0.0-48.0-0.0,voc_e2,12052,"[{""event"":""fullscreenenter"",""trial"":1,""time"":3824}]",NA,NA,NA,NA,NA,5,#FA92F8,#1CD855,0,10,0,40,0,1881,39,0,916,10,1,experiment,NA,NA,2,0.5,0.5,5,4,40,1,NA
fcp-trial,88,558051,0.0-49.0-0.0,voc_e2,12052,"[{""event"":""fullscreenenter"",""trial"":1,""time"":3824}]",NA,NA,NA,NA,NA,1,#D89F1C,#3386FF,10,0,1,38,1,1070,37,1,421,10,1,experiment,NA,NA,1,0.7,0.3,2,3,41,1,NA
fcp-trial,89,561711,0.0-50.0-0.0,voc_e2,12052,"[{""event"":""fullscreenenter"",""trial"":1,""time"":3824}]",NA,NA,NA,NA,NA,3,#741CD8,#D8271C,0,0,1,38,1,1608,37,1,542,0,1,experiment,NA,NA,0,0.9,0.1,0,1,42,1,NA
fcp-trial,90,564725,0.0-51.0-0.0,voc_e2,12052,"[{""event"":""fullscreenenter"",""trial"":1,""time"":3824}]",NA,NA,NA,NA,NA,2,#741CD8,#D8271C,10,0,1,38,1,1105,37,1,390,10,1,experiment,NA,NA,0,0.9,0.1,0,1,43,1,NA
fcp-trial,91,567590,0.0-52.0-0.0,voc_e2,12052,"[{""event"":""fullscreenenter"",""trial"":1,""time"":3824}]",NA,NA,NA,NA,NA,2,#3386FF,#D89F1C,0,0,0,38,1,950,39,0,407,0,1,experiment,NA,NA,1,0.3,0.7,3,2,44,1,NA
fcp-trial,92,570560,0.0-53.0-0.0,voc_e2,12052,"[{""event"":""fullscreenenter"",""trial"":1,""time"":3824}]",NA,NA,NA,NA,NA,2,#1CD855,#FA92F8,0,0,1,38,1,681,39,0,781,0,0,experiment,NA,NA,2,0.5,0.5,4,5,45,1,NA
fcp-trial,93,574382,0.0-54.0-0.0,voc_e2,12052,"[{""event"":""fullscreenenter"",""trial"":1,""time"":3824}]",NA,NA,NA,NA,NA,5,#D89F1C,#3386FF,10,0,1,40,0,1549,37,1,762.9999999998836,10,1,experiment,NA,NA,1,0.7,0.3,2,3,46,2,NA
fcp-trial,94,577189,0.0-55.0-0.0,voc_e2,12052,"[{""event"":""fullscreenenter"",""trial"":1,""time"":3824}]",NA,NA,NA,NA,NA,3,#D8271C,#741CD8,0,10,0,38,1,822,39,0,466,10,1,experiment,NA,NA,0,0.1,0.9,1,0,47,2,NA
fcp-trial,95,579768,0.0-56.0-0.0,voc_e2,12052,"[{""event"":""fullscreenenter"",""trial"":1,""time"":3824}]",NA,NA,NA,NA,NA,5,#1CD855,#FA92F8,0,0,1,38,1,592,39,0,476.9999999998836,0,0,experiment,NA,NA,2,0.5,0.5,4,5,48,2,NA
fcp-trial,96,582227,0.0-57.0-0.0,voc_e2,12052,"[{""event"":""fullscreenenter"",""trial"":1,""time"":3824}]",NA,NA,NA,NA,NA,0,#3386FF,#D89F1C,0,0,0,38,1,567,39,0,373,0,1,experiment,NA,NA,1,0.3,0.7,3,2,49,2,NA
fcp-trial,97,584448,0.0-58.0-0.0,voc_e2,12052,"[{""event"":""fullscreenenter"",""trial"":1,""time"":3824}]",NA,NA,NA,NA,NA,0,#D8271C,#741CD8,0,10,0,38,1,414,39,0,299,10,1,experiment,NA,NA,0,0.1,0.9,1,0,50,2,NA
fcp-trial,98,587076,0.0-59.0-0.0,voc_e2,12052,"[{""event"":""fullscreenenter"",""trial"":1,""time"":3824}]",NA,NA,NA,NA,NA,4,#3386FF,#D89F1C,10,10,0,38,1,577,39,0,542,10,1,experiment,NA,NA,1,0.3,0.7,3,2,51,2,NA
fcp-trial,99,590044,0.0-60.0-0.0,voc_e2,12052,"[{""event"":""fullscreenenter"",""trial"":1,""time"":3824}]",NA,NA,NA,NA,NA,1,#1CD855,#FA92F8,10,0,1,38,1,1144,39,0,315,0,0,experiment,NA,NA,2,0.5,0.5,4,5,52,2,NA
fcp-trial,100,594665,0.0-61.0-0.0,voc_e2,12052,"[{""event"":""fullscreenenter"",""trial"":1,""time"":3824}]",NA,NA,NA,NA,NA,6,#FA92F8,#1CD855,10,0,0,40,0,2436,37,1,677,10,0,experiment,NA,NA,2,0.5,0.5,5,4,53,2,NA
fcp-trial,101,597754,0.0-62.0-0.0,voc_e2,12052,"[{""event"":""fullscreenenter"",""trial"":1,""time"":3824}]",NA,NA,NA,NA,NA,0,#1CD855,#FA92F8,0,0,1,38,1,1204,39,0,374,0,0,experiment,NA,NA,2,0.5,0.5,4,5,54,2,NA
fcp-trial,102,601729,0.0-63.0-0.0,voc_e2,12052,"[{""event"":""fullscreenenter"",""trial"":1,""time"":3824}]",NA,NA,NA,NA,NA,6,#741CD8,#D8271C,10,0,1,40,0,1702,37,1,766,10,1,experiment,NA,NA,0,0.9,0.1,0,1,55,2,NA
fcp-trial,103,604399,0.0-64.0-0.0,voc_e2,12052,"[{""event"":""fullscreenenter"",""trial"":1,""time"":3824}]",NA,NA,NA,NA,NA,1,#3386FF,#D89F1C,0,10,0,38,1,801,39,0,361,10,1,experiment,NA,NA,1,0.3,0.7,3,2,56,2,NA
fcp-trial,104,607954,0.0-65.0-0.0,voc_e2,12052,"[{""event"":""fullscreenenter"",""trial"":1,""time"":3824}]",NA,NA,NA,NA,NA,3,#FA92F8,#1CD855,0,10,0,40,0,1404,37,1,643,0,0,experiment,NA,NA,2,0.5,0.5,5,4,57,2,NA
fcp-trial,105,611433,0.0-66.0-0.0,voc_e2,12052,"[{""event"":""fullscreenenter"",""trial"":1,""time"":3824}]",NA,NA,NA,NA,NA,5,#D8271C,#741CD8,0,10,0,38,1,1550,39,0,421,10,1,experiment,NA,NA,0,0.1,0.9,1,0,58,2,NA
fcp-trial,106,616010,0.0-67.0-0.0,voc_e2,12052,"[{""event"":""fullscreenenter"",""trial"":1,""time"":3824}]",NA,NA,NA,NA,NA,6,#D89F1C,#3386FF,10,10,1,40,0,2350.0000000001164,39,0,718,10,0,experiment,NA,NA,1,0.7,0.3,2,3,59,2,NA
fcp-trial,107,619040,0.0-68.0-0.0,voc_e2,12052,"[{""event"":""fullscreenenter"",""trial"":1,""time"":3824}]",NA,NA,NA,NA,NA,4,#741CD8,#D8271C,10,0,1,38,1,1135,37,1,376.0000000001164,10,1,experiment,NA,NA,0,0.9,0.1,0,1,60,2,NA
fcp-trial,108,622248,0.0-69.0-0.0,voc_e2,12052,"[{""event"":""fullscreenenter"",""trial"":1,""time"":3824}]",NA,NA,NA,NA,NA,1,#D8271C,#741CD8,0,10,0,38,1,1309.9999999998836,39,0,387,10,1,experiment,NA,NA,0,0.1,0.9,1,0,61,2,NA
fcp-trial,109,624631,0.0-70.0-0.0,voc_e2,12052,"[{""event"":""fullscreenenter"",""trial"":1,""time"":3824}]",NA,NA,NA,NA,NA,4,#FA92F8,#1CD855,0,0,0,38,1,448.9999999998836,37,1,416,0,0,experiment,NA,NA,2,0.5,0.5,5,4,62,2,NA
fcp-trial,110,628037,0.0-71.0-0.0,voc_e2,12052,"[{""event"":""fullscreenenter"",""trial"":1,""time"":3824}]",NA,NA,NA,NA,NA,3,#3386FF,#D89F1C,0,10,0,38,1,1093,39,0,794,10,1,experiment,NA,NA,1,0.3,0.7,3,2,63,2,NA
fcp-trial,111,631204,0.0-72.0-0.0,voc_e2,12052,"[{""event"":""fullscreenenter"",""trial"":1,""time"":3824}]",NA,NA,NA,NA,NA,4,#D8271C,#741CD8,0,10,0,38,1,787,39,0,870,10,1,experiment,NA,NA,0,0.1,0.9,1,0,64,2,NA
fcp-trial,112,634264,0.0-73.0-0.0,voc_e2,12052,"[{""event"":""fullscreenenter"",""trial"":1,""time"":3824}]",NA,NA,NA,NA,NA,6,#3386FF,#D89F1C,0,0,0,40,0,981,39,0,569,0,1,experiment,NA,NA,1,0.3,0.7,3,2,65,2,NA
fcp-trial,113,637039,0.0-74.0-0.0,voc_e2,12052,"[{""event"":""fullscreenenter"",""trial"":1,""time"":3824}]",NA,NA,NA,NA,NA,1,#741CD8,#D8271C,10,0,1,38,1,875,37,1,391.0000000001164,10,1,experiment,NA,NA,0,0.9,0.1,0,1,66,2,NA
fcp-trial,114,640655,0.0-75.0-0.0,voc_e2,12052,"[{""event"":""fullscreenenter"",""trial"":1,""time"":3824}]",NA,NA,NA,NA,NA,6,#1CD855,#FA92F8,10,10,1,40,0,1596,39,0,511,10,0,experiment,NA,NA,2,0.5,0.5,4,5,67,2,NA
fcp-trial,115,643413,0.0-76.0-0.0,voc_e2,12052,"[{""event"":""fullscreenenter"",""trial"":1,""time"":3824}]",NA,NA,NA,NA,NA,0,#D89F1C,#3386FF,0,0,1,38,1,966,37,1,269,0,1,experiment,NA,NA,1,0.7,0.3,2,3,68,2,NA
fcp-trial,116,646128,0.0-77.0-0.0,voc_e2,12052,"[{""event"":""fullscreenenter"",""trial"":1,""time"":3824}]",NA,NA,NA,NA,NA,0,#1CD855,#FA92F8,10,10,1,38,1,802,39,0,404,10,0,experiment,NA,NA,2,0.5,0.5,4,5,69,2,NA
fcp-trial,117,649158,0.0-78.0-0.0,voc_e2,12052,"[{""event"":""fullscreenenter"",""trial"":1,""time"":3824}]",NA,NA,NA,NA,NA,4,#3386FF,#D89F1C,0,0,0,38,1,1222,39,0,297,0,1,experiment,NA,NA,1,0.3,0.7,3,2,70,2,NA
fcp-trial,118,651993,0.0-79.0-0.0,voc_e2,12052,"[{""event"":""fullscreenenter"",""trial"":1,""time"":3824}]",NA,NA,NA,NA,NA,6,#741CD8,#D8271C,10,0,1,40,0,696,39,0,615,0,0,experiment,NA,NA,0,0.9,0.1,0,1,71,2,NA
fcp-trial,119,654724,0.0-80.0-0.0,voc_e2,12052,"[{""event"":""fullscreenenter"",""trial"":1,""time"":3824}]",NA,NA,NA,NA,NA,2,#3386FF,#D89F1C,10,0,0,38,1,785,39,0,438,0,1,experiment,NA,NA,1,0.3,0.7,3,2,72,2,NA
fcp-trial,120,658096,0.0-81.0-0.0,voc_e2,12052,"[{""event"":""fullscreenenter"",""trial"":1,""time"":3824}]",NA,NA,NA,NA,NA,3,#741CD8,#D8271C,10,10,1,38,1,1461,37,1,387.0000000001164,10,1,experiment,NA,NA,0,0.9,0.1,0,1,73,2,NA
fcp-trial,121,661910,0.0-82.0-0.0,voc_e2,12052,"[{""event"":""fullscreenenter"",""trial"":1,""time"":3824}]",NA,NA,NA,NA,NA,1,#FA92F8,#1CD855,10,10,0,38,1,1478,37,1,827,10,0,experiment,NA,NA,2,0.5,0.5,5,4,74,2,NA
fcp-trial,122,665103,0.0-83.0-0.0,voc_e2,12052,"[{""event"":""fullscreenenter"",""trial"":1,""time"":3824}]",NA,NA,NA,NA,NA,1,#D89F1C,#3386FF,0,10,1,38,1,1250,37,1,421,0,1,experiment,NA,NA,1,0.7,0.3,2,3,75,2,NA
fcp-trial,123,668554,0.0-84.0-0.0,voc_e2,12052,"[{""event"":""fullscreenenter"",""trial"":1,""time"":3824}]",NA,NA,NA,NA,NA,5,#FA92F8,#1CD855,10,10,0,40,0,1296,37,1,645,10,0,experiment,NA,NA,2,0.5,0.5,5,4,76,2,NA
fcp-trial,124,671387,0.0-85.0-0.0,voc_e2,12052,"[{""event"":""fullscreenenter"",""trial"":1,""time"":3824}]",NA,NA,NA,NA,NA,5,#D89F1C,#3386FF,0,0,1,38,1,997,37,1,329,0,1,experiment,NA,NA,1,0.7,0.3,2,3,77,2,NA
fcp-trial,125,675000,0.0-86.0-0.0,voc_e2,12052,"[{""event"":""fullscreenenter"",""trial"":1,""time"":3824}]",NA,NA,NA,NA,NA,5,#741CD8,#D8271C,10,0,1,40,0,1629.9999999998836,39,0,477,0,0,experiment,NA,NA,0,0.9,0.1,0,1,78,2,NA
fcp-trial,126,679036,0.0-87.0-0.0,voc_e2,12052,"[{""event"":""fullscreenenter"",""trial"":1,""time"":3824}]",NA,NA,NA,NA,NA,0,#D8271C,#741CD8,0,10,0,38,1,1846,39,0,681,10,1,experiment,NA,NA,0,0.1,0.9,1,0,79,2,NA
fcp-trial,127,683176,0.0-88.0-0.0,voc_e2,12052,"[{""event"":""fullscreenenter"",""trial"":1,""time"":3824}]",NA,NA,NA,NA,NA,4,#FA92F8,#1CD855,0,0,0,40,0,1958,39,0,673,0,1,experiment,NA,NA,2,0.5,0.5,5,4,80,2,NA
fcp-trial,128,686299,0.0-89.0-0.0,voc_e2,12052,"[{""event"":""fullscreenenter"",""trial"":1,""time"":3824}]",NA,NA,NA,NA,NA,3,#3386FF,#D89F1C,0,10,0,38,1,1164,39,0,449,10,1,experiment,NA,NA,1,0.3,0.7,3,2,81,2,NA
fcp-trial,129,689432,0.0-90.0-0.0,voc_e2,12052,"[{""event"":""fullscreenenter"",""trial"":1,""time"":3824}]",NA,NA,NA,NA,NA,2,#FA92F8,#1CD855,10,0,0,38,1,1254.0000000001164,37,1,360,10,0,experiment,NA,NA,2,0.5,0.5,5,4,82,2,NA
fcp-trial,130,691876,0.0-91.0-0.0,voc_e2,12052,"[{""event"":""fullscreenenter"",""trial"":1,""time"":3824}]",NA,NA,NA,NA,NA,3,#1CD855,#FA92F8,10,0,1,38,1,582,39,0,342,0,0,experiment,NA,NA,2,0.5,0.5,4,5,83,2,NA
fcp-trial,131,694744,0.0-92.0-0.0,voc_e2,12052,"[{""event"":""fullscreenenter"",""trial"":1,""time"":3824}]",NA,NA,NA,NA,NA,2,#D8271C,#741CD8,0,10,0,38,1,1012,39,0,346,10,1,experiment,NA,NA,0,0.1,0.9,1,0,84,2,NA
fcp-trial,132,697875,0.0-93.0-0.0,voc_e2,12052,"[{""event"":""fullscreenenter"",""trial"":1,""time"":3824}]",NA,NA,NA,NA,NA,0,#FA92F8,#1CD855,10,0,0,38,1,1235,37,1,389,10,0,experiment,NA,NA,2,0.5,0.5,5,4,85,2,NA
fcp-trial,133,701026,0.0-94.0-0.0,voc_e2,12052,"[{""event"":""fullscreenenter"",""trial"":1,""time"":3824}]",NA,NA,NA,NA,NA,0,#D8271C,#741CD8,0,0,0,38,1,1059,39,0,582,0,1,experiment,NA,NA,0,0.1,0.9,1,0,86,2,NA
fcp-trial,134,704133,0.0-95.0-0.0,voc_e2,12052,"[{""event"":""fullscreenenter"",""trial"":1,""time"":3824}]",NA,NA,NA,NA,NA,2,#3386FF,#D89F1C,0,10,0,38,1,1147,39,0,451,10,1,experiment,NA,NA,1,0.3,0.7,3,2,87,2,NA
fcp-trial,135,707089,0.0-96.0-0.0,voc_e2,12052,"[{""event"":""fullscreenenter"",""trial"":1,""time"":3824}]",NA,NA,NA,NA,NA,3,#D89F1C,#3386FF,0,0,1,38,1,756,37,1,691,0,1,experiment,NA,NA,1,0.7,0.3,2,3,88,2,NA
fcp-trial,136,710539,0.0-97.0-0.0,voc_e2,12052,"[{""event"":""fullscreenenter"",""trial"":1,""time"":3824}]",NA,NA,NA,NA,NA,6,#741CD8,#D8271C,10,0,1,40,0,1285,37,1,647,10,1,experiment,NA,NA,0,0.9,0.1,0,1,89,2,NA
fcp-trial,137,714315,0.0-98.0-0.0,voc_e2,12052,"[{""event"":""fullscreenenter"",""trial"":1,""time"":3824}]",NA,NA,NA,NA,NA,6,#1CD855,#FA92F8,0,10,1,40,0,1705.0000000001164,37,1,553,0,1,experiment,NA,NA,2,0.5,0.5,4,5,90,2,NA
fcp-trial,138,717090,0.0-99.0-0.0,voc_e2,12052,"[{""event"":""fullscreenenter"",""trial"":1,""time"":3824}]",NA,NA,NA,NA,NA,6,#D89F1C,#3386FF,10,0,1,38,1,892,37,1,374,10,1,experiment,NA,NA,1,0.7,0.3,2,3,91,3,NA
fcp-trial,139,720213,0.0-100.0-0.0,voc_e2,12052,"[{""event"":""fullscreenenter"",""trial"":1,""time"":3824}]",NA,NA,NA,NA,NA,5,#1CD855,#FA92F8,0,0,1,40,0,1051,37,1,551,0,1,experiment,NA,NA,2,0.5,0.5,4,5,92,3,NA
fcp-trial,140,723810,0.0-101.0-0.0,voc_e2,12052,"[{""event"":""fullscreenenter"",""trial"":1,""time"":3824}]",NA,NA,NA,NA,NA,1,#D8271C,#741CD8,0,0,0,38,1,1674,39,0,415,0,1,experiment,NA,NA,0,0.1,0.9,1,0,93,3,NA
fcp-trial,141,728507,0.0-102.0-0.0,voc_e2,12052,"[{""event"":""fullscreenenter"",""trial"":1,""time"":3824}]",NA,NA,NA,NA,NA,4,#3386FF,#D89F1C,0,10,0,38,1,2773,39,0,405.0000000001164,10,1,experiment,NA,NA,1,0.3,0.7,3,2,94,3,NA
fcp-trial,142,731763,0.0-103.0-0.0,voc_e2,12052,"[{""event"":""fullscreenenter"",""trial"":1,""time"":3824}]",NA,NA,NA,NA,NA,5,#D89F1C,#3386FF,0,0,1,40,0,1176,37,1,570.0000000001164,0,1,experiment,NA,NA,1,0.7,0.3,2,3,95,3,NA
fcp-trial,143,735616,0.0-104.0-0.0,voc_e2,12052,"[{""event"":""fullscreenenter"",""trial"":1,""time"":3824}]",NA,NA,NA,NA,NA,2,#1CD855,#FA92F8,0,0,1,38,1,1810,37,1,524,0,1,experiment,NA,NA,2,0.5,0.5,4,5,96,3,NA
fcp-trial,144,738991,0.0-105.0-0.0,voc_e2,12052,"[{""event"":""fullscreenenter"",""trial"":1,""time"":3824}]",NA,NA,NA,NA,NA,3,#D8271C,#741CD8,0,10,0,38,1,1418,39,0,448,10,1,experiment,NA,NA,0,0.1,0.9,1,0,97,3,NA
fcp-trial,145,742215,0.0-106.0-0.0,voc_e2,12052,"[{""event"":""fullscreenenter"",""trial"":1,""time"":3824}]",NA,NA,NA,NA,NA,1,#FA92F8,#1CD855,0,0,0,38,1,1133.0000000001164,37,1,583.9999999998836,0,0,experiment,NA,NA,2,0.5,0.5,5,4,98,3,NA
fcp-trial,146,745275,0.0-107.0-0.0,voc_e2,12052,"[{""event"":""fullscreenenter"",""trial"":1,""time"":3824}]",NA,NA,NA,NA,NA,0,#3386FF,#D89F1C,10,0,0,38,1,1160,39,0,373,0,1,experiment,NA,NA,1,0.3,0.7,3,2,99,3,NA
fcp-trial,147,748261,0.0-108.0-0.0,voc_e2,12052,"[{""event"":""fullscreenenter"",""trial"":1,""time"":3824}]",NA,NA,NA,NA,NA,4,#741CD8,#D8271C,0,0,1,38,1,1134,37,1,343.0000000001164,0,1,experiment,NA,NA,0,0.9,0.1,0,1,100,3,NA
fcp-trial,148,751260,0.0-109.0-0.0,voc_e2,12052,"[{""event"":""fullscreenenter"",""trial"":1,""time"":3824}]",NA,NA,NA,NA,NA,3,#1CD855,#FA92F8,0,10,1,38,1,1088,39,0,402.9999999998836,10,0,experiment,NA,NA,2,0.5,0.5,4,5,101,3,NA
fcp-trial,149,754425,0.0-110.0-0.0,voc_e2,12052,"[{""event"":""fullscreenenter"",""trial"":1,""time"":3824}]",NA,NA,NA,NA,NA,5,#D8271C,#741CD8,0,10,0,38,1,1206,39,0,450,10,1,experiment,NA,NA,0,0.1,0.9,1,0,102,3,NA
fcp-trial,150,757203,0.0-111.0-0.0,voc_e2,12052,"[{""event"":""fullscreenenter"",""trial"":1,""time"":3824}]",NA,NA,NA,NA,NA,2,#741CD8,#D8271C,10,0,1,38,1,805,37,1,462,10,1,experiment,NA,NA,0,0.9,0.1,0,1,103,3,NA
fcp-trial,151,760201,0.0-112.0-0.0,voc_e2,12052,"[{""event"":""fullscreenenter"",""trial"":1,""time"":3824}]",NA,NA,NA,NA,NA,1,#3386FF,#D89F1C,0,10,0,38,1,654,39,0,826,10,1,experiment,NA,NA,1,0.3,0.7,3,2,104,3,NA
fcp-trial,152,762826,0.0-113.0-0.0,voc_e2,12052,"[{""event"":""fullscreenenter"",""trial"":1,""time"":3824}]",NA,NA,NA,NA,NA,4,#FA92F8,#1CD855,0,10,0,38,1,799,37,1,316,0,0,experiment,NA,NA,2,0.5,0.5,5,4,105,3,NA
audio-instructions,153,770607,0.0-114.0,voc_e2,12052,"[{""event"":""fullscreenenter"",""trial"":1,""time"":3824}]",NA,3340,static/audio/pause.wav,NA,0,NA,NA,NA,NA,NA,NA,NA,NA,NA,NA,NA,NA,NA,NA,NA,NA,NA,NA,NA,NA,NA,NA,NA,NA,NA
fcp-trial,154,775622,0.0-115.0-0.0,voc_e2,12052,"[{""event"":""fullscreenenter"",""trial"":1,""time"":3824}]",NA,NA,NA,NA,NA,0,#1CD855,#FA92F8,10,0,1,38,1,2789,39,0,719,0,0,experiment,NA,NA,2,0.5,0.5,4,5,106,3,NA
fcp-trial,155,778786,0.0-116.0-0.0,voc_e2,12052,"[{""event"":""fullscreenenter"",""trial"":1,""time"":3824}]",NA,NA,NA,NA,NA,3,#D89F1C,#3386FF,10,0,1,38,1,1279,37,1,375,10,1,experiment,NA,NA,1,0.7,0.3,2,3,107,3,NA
fcp-trial,156,782788,0.0-117.0-0.0,voc_e2,12052,"[{""event"":""fullscreenenter"",""trial"":1,""time"":3824}]",NA,NA,NA,NA,NA,5,#FA92F8,#1CD855,10,0,0,38,1,1386.9999999998836,39,0,1106,0,1,experiment,NA,NA,2,0.5,0.5,5,4,108,3,NA
fcp-trial,157,786914,0.0-118.0-0.0,voc_e2,12052,"[{""event"":""fullscreenenter"",""trial"":1,""time"":3824}]",NA,NA,NA,NA,NA,5,#3386FF,#D89F1C,0,10,0,40,0,1944,37,1,673,0,0,experiment,NA,NA,1,0.3,0.7,3,2,109,3,NA
fcp-trial,158,789974,0.0-119.0-0.0,voc_e2,12052,"[{""event"":""fullscreenenter"",""trial"":1,""time"":3824}]",NA,NA,NA,NA,NA,1,#D8271C,#741CD8,0,10,0,38,1,1177,39,0,374,10,1,experiment,NA,NA,0,0.1,0.9,1,0,110,3,NA
fcp-trial,159,792675,0.0-120.0-0.0,voc_e2,12052,"[{""event"":""fullscreenenter"",""trial"":1,""time"":3824}]",NA,NA,NA,NA,NA,1,#1CD855,#FA92F8,10,10,1,38,1,696,39,0,496,10,0,experiment,NA,NA,2,0.5,0.5,4,5,111,3,NA
fcp-trial,160,795542,0.0-121.0-0.0,voc_e2,12052,"[{""event"":""fullscreenenter"",""trial"":1,""time"":3824}]",NA,NA,NA,NA,NA,2,#3386FF,#D89F1C,0,10,0,38,1,1072,39,0,286,10,1,experiment,NA,NA,1,0.3,0.7,3,2,112,3,NA
fcp-trial,161,798211,0.0-122.0-0.0,voc_e2,12052,"[{""event"":""fullscreenenter"",""trial"":1,""time"":3824}]",NA,NA,NA,NA,NA,0,#741CD8,#D8271C,10,0,1,38,1,738.0000000001164,37,1,421,10,1,experiment,NA,NA,0,0.9,0.1,0,1,113,3,NA
fcp-trial,162,800894,0.0-123.0-0.0,voc_e2,12052,"[{""event"":""fullscreenenter"",""trial"":1,""time"":3824}]",NA,NA,NA,NA,NA,4,#741CD8,#D8271C,0,0,1,38,1,743.0000000001164,37,1,432,0,1,experiment,NA,NA,0,0.9,0.1,0,1,114,3,NA
fcp-trial,163,804478,0.0-124.0-0.0,voc_e2,12052,"[{""event"":""fullscreenenter"",""trial"":1,""time"":3824}]",NA,NA,NA,NA,NA,4,#3386FF,#D89F1C,10,10,0,38,1,1746.9999999998836,39,0,328,10,1,experiment,NA,NA,1,0.3,0.7,3,2,115,3,NA
fcp-trial,164,808456,0.0-125.0-0.0,voc_e2,12052,"[{""event"":""fullscreenenter"",""trial"":1,""time"":3824}]",NA,NA,NA,NA,NA,4,#1CD855,#FA92F8,10,0,1,38,1,1941.0000000001164,39,0,528.0000000001164,0,0,experiment,NA,NA,2,0.5,0.5,4,5,116,3,NA
fcp-trial,165,811605,0.0-126.0-0.0,voc_e2,12052,"[{""event"":""fullscreenenter"",""trial"":1,""time"":3824}]",NA,NA,NA,NA,NA,5,#D8271C,#741CD8,0,10,0,40,0,1043,39,0,598.0000000001164,10,1,experiment,NA,NA,0,0.1,0.9,1,0,117,3,NA
fcp-trial,166,814514,0.0-127.0-0.0,voc_e2,12052,"[{""event"":""fullscreenenter"",""trial"":1,""time"":3824}]",NA,NA,NA,NA,NA,6,#D89F1C,#3386FF,0,0,1,38,1,923,37,1,477.0000000001164,0,1,experiment,NA,NA,1,0.7,0.3,2,3,118,3,NA
fcp-trial,167,818069,0.0-128.0-0.0,voc_e2,12052,"[{""event"":""fullscreenenter"",""trial"":1,""time"":3824}]",NA,NA,NA,NA,NA,6,#D8271C,#741CD8,0,10,0,40,0,1465,39,0,582,10,1,experiment,NA,NA,0,0.1,0.9,1,0,119,3,NA
fcp-trial,168,821625,0.0-129.0-0.0,voc_e2,12052,"[{""event"":""fullscreenenter"",""trial"":1,""time"":3824}]",NA,NA,NA,NA,NA,0,#3386FF,#D89F1C,10,10,0,38,1,1640.0000000001164,39,0,388.9999999998836,10,1,experiment,NA,NA,1,0.3,0.7,3,2,120,3,NA
fcp-trial,169,824203,0.0-130.0-0.0,voc_e2,12052,"[{""event"":""fullscreenenter"",""trial"":1,""time"":3824}]",NA,NA,NA,NA,NA,6,#FA92F8,#1CD855,0,10,0,38,1,559.9999999998836,39,0,509,10,1,experiment,NA,NA,2,0.5,0.5,5,4,121,3,NA
fcp-trial,170,827086,0.0-131.0-0.0,voc_e2,12052,"[{""event"":""fullscreenenter"",""trial"":1,""time"":3824}]",NA,NA,NA,NA,NA,3,#1CD855,#FA92F8,10,10,1,38,1,818.9999999998836,39,0,556.0000000001164,10,0,experiment,NA,NA,2,0.5,0.5,4,5,122,3,NA
fcp-trial,171,830043,0.0-132.0-0.0,voc_e2,12052,"[{""event"":""fullscreenenter"",""trial"":1,""time"":3824}]",NA,NA,NA,NA,NA,2,#D8271C,#741CD8,0,10,0,38,1,1071,39,0,377.0000000001164,10,1,experiment,NA,NA,0,0.1,0.9,1,0,123,3,NA
fcp-trial,172,833070,0.0-133.0-0.0,voc_e2,12052,"[{""event"":""fullscreenenter"",""trial"":1,""time"":3824}]",NA,NA,NA,NA,NA,2,#1CD855,#FA92F8,0,0,1,38,1,875,39,0,628,0,0,experiment,NA,NA,2,0.5,0.5,4,5,124,3,NA
fcp-trial,173,836581,0.0-134.0-0.0,voc_e2,12052,"[{""event"":""fullscreenenter"",""trial"":1,""time"":3824}]",NA,NA,NA,NA,NA,1,#D89F1C,#3386FF,10,10,1,38,1,1651,37,1,350,10,1,experiment,NA,NA,1,0.7,0.3,2,3,125,3,NA
fcp-trial,174,839285,0.0-135.0-0.0,voc_e2,12052,"[{""event"":""fullscreenenter"",""trial"":1,""time"":3824}]",NA,NA,NA,NA,NA,3,#D8271C,#741CD8,0,10,0,38,1,798,39,0,396.9999999998836,10,1,experiment,NA,NA,0,0.1,0.9,1,0,126,3,NA
fcp-trial,175,842834,0.0-136.0-0.0,voc_e2,12052,"[{""event"":""fullscreenenter"",""trial"":1,""time"":3824}]",NA,NA,NA,NA,NA,2,#FA92F8,#1CD855,0,10,0,38,1,1197,37,1,843,0,0,experiment,NA,NA,2,0.5,0.5,5,4,127,3,NA
fcp-trial,176,846270,0.0-137.0-0.0,voc_e2,12052,"[{""event"":""fullscreenenter"",""trial"":1,""time"":3824}]",NA,NA,NA,NA,NA,0,#D89F1C,#3386FF,0,0,1,38,1,1310,37,1,616,0,1,experiment,NA,NA,1,0.7,0.3,2,3,128,3,NA
fcp-trial,177,849628,0.0-138.0-0.0,voc_e2,12052,"[{""event"":""fullscreenenter"",""trial"":1,""time"":3824}]",NA,NA,NA,NA,NA,6,#741CD8,#D8271C,10,10,1,38,1,907,37,1,944,10,1,experiment,NA,NA,0,0.9,0.1,0,1,129,3,NA
fcp-trial,178,852539,0.0-139.0-0.0,voc_e2,12052,"[{""event"":""fullscreenenter"",""trial"":1,""time"":3824}]",NA,NA,NA,NA,NA,5,#D8271C,#741CD8,0,10,0,40,0,687,39,0,703,10,1,experiment,NA,NA,0,0.1,0.9,1,0,130,3,NA
fcp-trial,179,855299,0.0-140.0-0.0,voc_e2,12052,"[{""event"":""fullscreenenter"",""trial"":1,""time"":3824}]",NA,NA,NA,NA,NA,2,#D89F1C,#3386FF,10,10,1,38,1,877,37,1,375,10,1,experiment,NA,NA,1,0.7,0.3,2,3,131,3,NA
fcp-trial,180,859093,0.0-141.0-0.0,voc_e2,12052,"[{""event"":""fullscreenenter"",""trial"":1,""time"":3824}]",NA,NA,NA,NA,NA,6,#FA92F8,#1CD855,10,0,0,40,0,1656,37,1,614.9999999998836,10,0,experiment,NA,NA,2,0.5,0.5,5,4,132,3,NA
fcp-trial,181,861673,0.0-142.0-0.0,voc_e2,12052,"[{""event"":""fullscreenenter"",""trial"":1,""time"":3824}]",NA,NA,NA,NA,NA,1,#3386FF,#D89F1C,10,0,0,38,1,671,39,0,401,0,1,experiment,NA,NA,1,0.3,0.7,3,2,133,3,NA
fcp-trial,182,864884,0.0-143.0-0.0,voc_e2,12052,"[{""event"":""fullscreenenter"",""trial"":1,""time"":3824}]",NA,NA,NA,NA,NA,2,#D8271C,#741CD8,0,0,0,38,1,1388,39,0,313,0,1,experiment,NA,NA,0,0.1,0.9,1,0,134,3,NA
fcp-trial,183,868890,0.0-144.0-0.0,voc_e2,12052,"[{""event"":""fullscreenenter"",""trial"":1,""time"":3824}]",NA,NA,NA,NA,NA,5,#1CD855,#FA92F8,10,0,1,40,0,1788.9999999998836,37,1,687,10,1,experiment,NA,NA,2,0.5,0.5,4,5,135,3,NA
fcp-trial,184,872265,0.0-145.0-0.0,voc_e2,12052,"[{""event"":""fullscreenenter"",""trial"":1,""time"":3824}]",NA,NA,NA,NA,NA,4,#D89F1C,#3386FF,0,0,1,38,1,1430,37,1,435.9999999998836,0,1,experiment,NA,NA,1,0.7,0.3,2,3,136,4,NA
fcp-trial,185,875400,0.0-146.0-0.0,voc_e2,12052,"[{""event"":""fullscreenenter"",""trial"":1,""time"":3824}]",NA,NA,NA,NA,NA,3,#FA92F8,#1CD855,10,0,0,38,1,1296,39,0,330,0,1,experiment,NA,NA,2,0.5,0.5,5,4,137,4,NA
fcp-trial,186,879372,0.0-147.0-0.0,voc_e2,12052,"[{""event"":""fullscreenenter"",""trial"":1,""time"":3824}]",NA,NA,NA,NA,NA,4,#D8271C,#741CD8,0,10,0,40,0,1819,37,1,643.9999999998836,0,0,experiment,NA,NA,0,0.1,0.9,1,0,138,4,NA
fcp-trial,187,883888,0.0-148.0-0.0,voc_e2,12052,"[{""event"":""fullscreenenter"",""trial"":1,""time"":3824}]",NA,NA,NA,NA,NA,5,#3386FF,#D89F1C,0,0,0,40,0,2354,37,1,644,0,0,experiment,NA,NA,1,0.3,0.7,3,2,139,4,NA
fcp-trial,188,887264,0.0-149.0-0.0,voc_e2,12052,"[{""event"":""fullscreenenter"",""trial"":1,""time"":3824}]",NA,NA,NA,NA,NA,4,#FA92F8,#1CD855,10,0,0,40,0,1150.9999999998836,37,1,706,10,0,experiment,NA,NA,2,0.5,0.5,5,4,140,4,NA
fcp-trial,189,889976,0.0-150.0-0.0,voc_e2,12052,"[{""event"":""fullscreenenter"",""trial"":1,""time"":3824}]",NA,NA,NA,NA,NA,3,#D89F1C,#3386FF,10,0,1,38,1,830,37,1,373.9999999998836,10,1,experiment,NA,NA,1,0.7,0.3,2,3,141,4,NA
fcp-trial,190,894792,0.0-151.0-0.0,voc_e2,12052,"[{""event"":""fullscreenenter"",""trial"":1,""time"":3824}]",NA,NA,NA,NA,NA,0,#741CD8,#D8271C,10,0,1,38,1,2318,37,1,973,10,1,experiment,NA,NA,0,0.9,0.1,0,1,142,4,NA
fcp-trial,191,897465,0.0-152.0-0.0,voc_e2,12052,"[{""event"":""fullscreenenter"",""trial"":1,""time"":3824}]",NA,NA,NA,NA,NA,0,#1CD855,#FA92F8,10,0,1,38,1,748.0000000001164,39,0,405.9999999998836,0,0,experiment,NA,NA,2,0.5,0.5,4,5,143,4,NA
fcp-trial,192,900957,0.0-153.0-0.0,voc_e2,12052,"[{""event"":""fullscreenenter"",""trial"":1,""time"":3824}]",NA,NA,NA,NA,NA,6,#D89F1C,#3386FF,0,0,1,40,0,1294,39,0,688,0,0,experiment,NA,NA,1,0.7,0.3,2,3,144,4,NA
fcp-trial,193,904273,0.0-154.0-0.0,voc_e2,12052,"[{""event"":""fullscreenenter"",""trial"":1,""time"":3824}]",NA,NA,NA,NA,NA,1,#741CD8,#D8271C,10,0,1,38,1,1282,37,1,524,10,1,experiment,NA,NA,0,0.9,0.1,0,1,145,4,NA
fcp-trial,194,907422,0.0-155.0-0.0,voc_e2,12052,"[{""event"":""fullscreenenter"",""trial"":1,""time"":3824}]",NA,NA,NA,NA,NA,1,#FA92F8,#1CD855,10,0,0,38,1,726,37,1,915,10,0,experiment,NA,NA,2,0.5,0.5,5,4,146,4,NA
fcp-trial,195,910183,0.0-156.0-0.0,voc_e2,12052,"[{""event"":""fullscreenenter"",""trial"":1,""time"":3824}]",NA,NA,NA,NA,NA,3,#D8271C,#741CD8,0,10,0,38,1,759,39,0,492,10,1,experiment,NA,NA,0,0.1,0.9,1,0,147,4,NA
fcp-trial,196,912807,0.0-157.0-0.0,voc_e2,12052,"[{""event"":""fullscreenenter"",""trial"":1,""time"":3824}]",NA,NA,NA,NA,NA,0,#D8271C,#741CD8,0,10,0,38,1,680.0000000001164,39,0,421,10,1,experiment,NA,NA,0,0.1,0.9,1,0,148,4,NA
fcp-trial,197,915567,0.0-158.0-0.0,voc_e2,12052,"[{""event"":""fullscreenenter"",""trial"":1,""time"":3824}]",NA,NA,NA,NA,NA,1,#741CD8,#D8271C,10,0,1,38,1,728,37,1,522,10,1,experiment,NA,NA,0,0.9,0.1,0,1,149,4,NA
fcp-trial,198,919001,0.0-159.0-0.0,voc_e2,12052,"[{""event"":""fullscreenenter"",""trial"":1,""time"":3824}]",NA,NA,NA,NA,NA,6,#741CD8,#D8271C,10,0,1,40,0,1116,37,1,794.0000000001164,10,1,experiment,NA,NA,0,0.9,0.1,0,1,150,4,NA
fcp-trial,199,922380,0.0-160.0-0.0,voc_e2,12052,"[{""event"":""fullscreenenter"",""trial"":1,""time"":3824}]",NA,NA,NA,NA,NA,3,#1CD855,#FA92F8,0,0,1,38,1,1358,39,0,496,0,0,experiment,NA,NA,2,0.5,0.5,4,5,151,4,NA
fcp-trial,200,924957,0.0-161.0-0.0,voc_e2,12052,"[{""event"":""fullscreenenter"",""trial"":1,""time"":3824}]",NA,NA,NA,NA,NA,6,#D89F1C,#3386FF,10,0,1,38,1,710,37,1,358.0000000001164,10,1,experiment,NA,NA,1,0.7,0.3,2,3,152,4,NA
fcp-trial,201,927914,0.0-162.0-0.0,voc_e2,12052,"[{""event"":""fullscreenenter"",""trial"":1,""time"":3824}]",NA,NA,NA,NA,NA,1,#D89F1C,#3386FF,0,0,1,38,1,1043,37,1,405,0,1,experiment,NA,NA,1,0.7,0.3,2,3,153,4,NA
fcp-trial,202,930971,0.0-163.0-0.0,voc_e2,12052,"[{""event"":""fullscreenenter"",""trial"":1,""time"":3824}]",NA,NA,NA,NA,NA,2,#741CD8,#D8271C,10,0,1,38,1,1218.9999999998836,37,1,329.0000000001164,10,1,experiment,NA,NA,0,0.9,0.1,0,1,154,4,NA
fcp-trial,203,934514,0.0-164.0-0.0,voc_e2,12052,"[{""event"":""fullscreenenter"",""trial"":1,""time"":3824}]",NA,NA,NA,NA,NA,4,#1CD855,#FA92F8,0,10,1,38,1,1523,39,0,497,10,0,experiment,NA,NA,2,0.5,0.5,4,5,155,4,NA
fcp-trial,204,938051,0.0-165.0-0.0,voc_e2,12052,"[{""event"":""fullscreenenter"",""trial"":1,""time"":3824}]",NA,NA,NA,NA,NA,5,#1CD855,#FA92F8,10,10,1,40,0,1265,39,0,761.9999999998836,10,0,experiment,NA,NA,2,0.5,0.5,4,5,156,4,NA
fcp-trial,205,941592,0.0-166.0-0.0,voc_e2,12052,"[{""event"":""fullscreenenter"",""trial"":1,""time"":3824}]",NA,NA,NA,NA,NA,5,#3386FF,#D89F1C,0,10,0,40,0,1402.0000000001164,39,0,629.9999999998836,10,1,experiment,NA,NA,1,0.3,0.7,3,2,157,4,NA
fcp-trial,206,944861,0.0-167.0-0.0,voc_e2,12052,"[{""event"":""fullscreenenter"",""trial"":1,""time"":3824}]",NA,NA,NA,NA,NA,0,#3386FF,#D89F1C,10,10,0,38,1,1433,39,0,327.9999999998836,10,1,experiment,NA,NA,1,0.3,0.7,3,2,158,4,NA
fcp-trial,207,947458,0.0-168.0-0.0,voc_e2,12052,"[{""event"":""fullscreenenter"",""trial"":1,""time"":3824}]",NA,NA,NA,NA,NA,4,#741CD8,#D8271C,10,0,1,38,1,742.9999999998836,37,1,344,10,1,experiment,NA,NA,0,0.9,0.1,0,1,159,4,NA
fcp-trial,208,950593,0.0-169.0-0.0,voc_e2,12052,"[{""event"":""fullscreenenter"",""trial"":1,""time"":3824}]",NA,NA,NA,NA,NA,0,#1CD855,#FA92F8,0,0,1,38,1,1135.9999999998836,39,0,478,0,0,experiment,NA,NA,2,0.5,0.5,4,5,160,4,NA
fcp-trial,209,954520,0.0-170.0-0.0,voc_e2,12052,"[{""event"":""fullscreenenter"",""trial"":1,""time"":3824}]",NA,NA,NA,NA,NA,5,#741CD8,#D8271C,10,0,1,40,0,1595.0000000001164,37,1,807,10,1,experiment,NA,NA,0,0.9,0.1,0,1,161,4,NA
fcp-trial,210,957479,0.0-171.0-0.0,voc_e2,12052,"[{""event"":""fullscreenenter"",""trial"":1,""time"":3824}]",NA,NA,NA,NA,NA,3,#3386FF,#D89F1C,0,10,0,38,1,1104.9999999998836,39,0,345,10,1,experiment,NA,NA,1,0.3,0.7,3,2,162,4,NA
fcp-trial,211,960536,0.0-172.0-0.0,voc_e2,12052,"[{""event"":""fullscreenenter"",""trial"":1,""time"":3824}]",NA,NA,NA,NA,NA,2,#3386FF,#D89F1C,0,10,0,38,1,1069.0000000001164,39,0,464,10,1,experiment,NA,NA,1,0.3,0.7,3,2,163,4,NA
fcp-trial,212,963656,0.0-173.0-0.0,voc_e2,12052,"[{""event"":""fullscreenenter"",""trial"":1,""time"":3824}]",NA,NA,NA,NA,NA,4,#3386FF,#D89F1C,0,0,0,38,1,1206,39,0,406,0,1,experiment,NA,NA,1,0.3,0.7,3,2,164,4,NA
fcp-trial,213,967135,0.0-174.0-0.0,voc_e2,12052,"[{""event"":""fullscreenenter"",""trial"":1,""time"":3824}]",NA,NA,NA,NA,NA,1,#FA92F8,#1CD855,0,0,0,38,1,1434,37,1,537,0,0,experiment,NA,NA,2,0.5,0.5,5,4,165,4,NA
fcp-trial,214,970227,0.0-175.0-0.0,voc_e2,12052,"[{""event"":""fullscreenenter"",""trial"":1,""time"":3824}]",NA,NA,NA,NA,NA,3,#D8271C,#741CD8,0,10,0,38,1,1283.0000000001164,39,0,299,10,1,experiment,NA,NA,0,0.1,0.9,1,0,166,4,NA
fcp-trial,215,974398,0.0-176.0-0.0,voc_e2,12052,"[{""event"":""fullscreenenter"",""trial"":1,""time"":3824}]",NA,NA,NA,NA,NA,2,#FA92F8,#1CD855,10,10,0,38,1,1414,37,1,1248,10,0,experiment,NA,NA,2,0.5,0.5,5,4,167,4,NA
fcp-trial,216,978493,0.0-177.0-0.0,voc_e2,12052,"[{""event"":""fullscreenenter"",""trial"":1,""time"":3824}]",NA,NA,NA,NA,NA,6,#FA92F8,#1CD855,0,0,0,40,0,1917,39,0,659.0000000001164,0,1,experiment,NA,NA,2,0.5,0.5,5,4,168,4,NA
fcp-trial,217,981881,0.0-178.0-0.0,voc_e2,12052,"[{""event"":""fullscreenenter"",""trial"":1,""time"":3824}]",NA,NA,NA,NA,NA,4,#3386FF,#D89F1C,0,10,0,38,1,1429.0000000001164,39,0,448,10,1,experiment,NA,NA,1,0.3,0.7,3,2,169,4,NA
fcp-trial,218,984821,0.0-179.0-0.0,voc_e2,12052,"[{""event"":""fullscreenenter"",""trial"":1,""time"":3824}]",NA,NA,NA,NA,NA,4,#741CD8,#D8271C,10,10,1,38,1,1131,37,1,301.0000000001164,10,1,experiment,NA,NA,0,0.9,0.1,0,1,170,4,NA
fcp-trial,219,988374,0.0-180.0-0.0,voc_e2,12052,"[{""event"":""fullscreenenter"",""trial"":1,""time"":3824}]",NA,NA,NA,NA,NA,1,#FA92F8,#1CD855,10,10,0,38,1,1087,37,1,940,10,0,experiment,NA,NA,2,0.5,0.5,5,4,171,4,NA
fcp-trial,220,991767,0.0-181.0-0.0,voc_e2,12052,"[{""event"":""fullscreenenter"",""trial"":1,""time"":3824}]",NA,NA,NA,NA,NA,6,#D89F1C,#3386FF,0,0,1,40,0,1328.9999999998836,37,1,554.0000000001164,0,1,experiment,NA,NA,1,0.7,0.3,2,3,172,4,NA
fcp-trial,221,995201,0.0-182.0-0.0,voc_e2,12052,"[{""event"":""fullscreenenter"",""trial"":1,""time"":3824}]",NA,NA,NA,NA,NA,2,#FA92F8,#1CD855,10,10,0,38,1,969,37,1,957,10,0,experiment,NA,NA,2,0.5,0.5,5,4,173,4,NA
fcp-trial,222,998292,0.0-183.0-0.0,voc_e2,12052,"[{""event"":""fullscreenenter"",""trial"":1,""time"":3824}]",NA,NA,NA,NA,NA,1,#741CD8,#D8271C,10,0,1,38,1,1145.9999999998836,37,1,435,10,1,experiment,NA,NA,0,0.9,0.1,0,1,174,4,NA
fcp-trial,223,1001515,0.0-184.0-0.0,voc_e2,12052,"[{""event"":""fullscreenenter"",""trial"":1,""time"":3824}]",NA,NA,NA,NA,NA,0,#741CD8,#D8271C,10,0,1,38,1,1133,37,1,581,10,1,experiment,NA,NA,0,0.9,0.1,0,1,175,4,NA
fcp-trial,224,1005895,0.0-185.0-0.0,voc_e2,12052,"[{""event"":""fullscreenenter"",""trial"":1,""time"":3824}]",NA,NA,NA,NA,NA,5,#1CD855,#FA92F8,0,0,1,40,0,2109,37,1,762.9999999998836,0,1,experiment,NA,NA,2,0.5,0.5,4,5,176,4,NA
fcp-trial,225,1008943,0.0-186.0-0.0,voc_e2,12052,"[{""event"":""fullscreenenter"",""trial"":1,""time"":3824}]",NA,NA,NA,NA,NA,2,#D89F1C,#3386FF,10,0,1,38,1,1178,37,1,362,10,1,experiment,NA,NA,1,0.7,0.3,2,3,177,4,NA
fcp-trial,226,1011881,0.0-187.0-0.0,voc_e2,12052,"[{""event"":""fullscreenenter"",""trial"":1,""time"":3824}]",NA,NA,NA,NA,NA,4,#1CD855,#FA92F8,10,10,1,38,1,966,39,0,450.0000000001164,10,0,experiment,NA,NA,2,0.5,0.5,4,5,178,4,NA
fcp-trial,227,1015212,0.0-188.0-0.0,voc_e2,12052,"[{""event"":""fullscreenenter"",""trial"":1,""time"":3824}]",NA,NA,NA,NA,NA,6,#741CD8,#D8271C,10,0,1,38,1,876,37,1,947,10,1,experiment,NA,NA,0,0.9,0.1,0,1,179,4,NA
fcp-trial,228,1018137,0.0-189.0-0.0,voc_e2,12052,"[{""event"":""fullscreenenter"",""trial"":1,""time"":3824}]",NA,NA,NA,NA,NA,5,#3386FF,#D89F1C,0,10,0,40,0,831,37,1,570,0,0,experiment,NA,NA,1,0.3,0.7,3,2,180,4,NA
fcp-trial,229,1021869,0.0-190.0-0.0,voc_e2,12052,"[{""event"":""fullscreenenter"",""trial"":1,""time"":3824}]",NA,NA,NA,NA,NA,3,#FA92F8,#1CD855,10,10,0,38,1,1924.0000000001164,37,1,300,10,0,experiment,NA,NA,2,0.5,0.5,5,4,181,5,NA
fcp-trial,230,1024405,0.0-191.0-0.0,voc_e2,12052,"[{""event"":""fullscreenenter"",""trial"":1,""time"":3824}]",NA,NA,NA,NA,NA,2,#741CD8,#D8271C,10,0,1,38,1,698.9999999997672,37,1,329,10,1,experiment,NA,NA,0,0.9,0.1,0,1,182,5,NA
fcp-trial,231,1026984,0.0-192.0-0.0,voc_e2,12052,"[{""event"":""fullscreenenter"",""trial"":1,""time"":3824}]",NA,NA,NA,NA,NA,0,#FA92F8,#1CD855,10,0,0,38,1,650.9999999998836,37,1,421,10,0,experiment,NA,NA,2,0.5,0.5,5,4,183,5,NA
fcp-trial,232,1029611,0.0-193.0-0.0,voc_e2,12052,"[{""event"":""fullscreenenter"",""trial"":1,""time"":3824}]",NA,NA,NA,NA,NA,5,#D8271C,#741CD8,0,10,0,38,1,726.9999999998836,39,0,390.9999999998836,10,1,experiment,NA,NA,0,0.1,0.9,1,0,184,5,NA
fcp-trial,233,1033195,0.0-194.0-0.0,voc_e2,12052,"[{""event"":""fullscreenenter"",""trial"":1,""time"":3824}]",NA,NA,NA,NA,NA,3,#3386FF,#D89F1C,0,0,0,38,1,1761,39,0,313.0000000001164,0,1,experiment,NA,NA,1,0.3,0.7,3,2,185,5,NA
fcp-trial,234,1036300,0.0-195.0-0.0,voc_e2,12052,"[{""event"":""fullscreenenter"",""trial"":1,""time"":3824}]",NA,NA,NA,NA,NA,0,#D89F1C,#3386FF,10,0,1,38,1,1191,37,1,404,10,1,experiment,NA,NA,1,0.7,0.3,2,3,186,5,NA
fcp-trial,235,1038969,0.0-196.0-0.0,voc_e2,12052,"[{""event"":""fullscreenenter"",""trial"":1,""time"":3824}]",NA,NA,NA,NA,NA,3,#741CD8,#D8271C,10,0,1,38,1,845.0000000001164,37,1,297,10,1,experiment,NA,NA,0,0.9,0.1,0,1,187,5,NA
fcp-trial,236,1041969,0.0-197.0-0.0,voc_e2,12052,"[{""event"":""fullscreenenter"",""trial"":1,""time"":3824}]",NA,NA,NA,NA,NA,6,#1CD855,#FA92F8,0,0,1,40,0,862.0000000001164,37,1,611.9999999997672,0,1,experiment,NA,NA,2,0.5,0.5,4,5,188,5,NA
fcp-trial,237,1044969,0.0-198.0-0.0,voc_e2,12052,"[{""event"":""fullscreenenter"",""trial"":1,""time"":3824}]",NA,NA,NA,NA,NA,1,#3386FF,#D89F1C,0,10,0,38,1,983,39,0,492.9999999998836,10,1,experiment,NA,NA,1,0.3,0.7,3,2,189,5,NA
fcp-trial,238,1047791,0.0-199.0-0.0,voc_e2,12052,"[{""event"":""fullscreenenter"",""trial"":1,""time"":3824}]",NA,NA,NA,NA,NA,2,#FA92F8,#1CD855,0,10,0,38,1,912,37,1,392,0,0,experiment,NA,NA,2,0.5,0.5,5,4,190,5,NA
fcp-trial,239,1051031,0.0-200.0-0.0,voc_e2,12052,"[{""event"":""fullscreenenter"",""trial"":1,""time"":3824}]",NA,NA,NA,NA,NA,2,#741CD8,#D8271C,10,0,1,38,1,1387,37,1,344,10,1,experiment,NA,NA,0,0.9,0.1,0,1,191,5,NA
fcp-trial,240,1054179,0.0-201.0-0.0,voc_e2,12052,"[{""event"":""fullscreenenter"",""trial"":1,""time"":3824}]",NA,NA,NA,NA,NA,3,#3386FF,#D89F1C,10,10,0,38,1,1070,39,0,570,10,1,experiment,NA,NA,1,0.3,0.7,3,2,192,5,NA
fcp-trial,241,1058410,0.0-202.0-0.0,voc_e2,12052,"[{""event"":""fullscreenenter"",""trial"":1,""time"":3824}]",NA,NA,NA,NA,NA,6,#FA92F8,#1CD855,10,0,0,40,0,1597,37,1,1126,10,0,experiment,NA,NA,2,0.5,0.5,5,4,193,5,NA
fcp-trial,242,1062011,0.0-203.0-0.0,voc_e2,12052,"[{""event"":""fullscreenenter"",""trial"":1,""time"":3824}]",NA,NA,NA,NA,NA,5,#3386FF,#D89F1C,0,0,0,40,0,1507,39,0,586,0,1,experiment,NA,NA,1,0.3,0.7,3,2,194,5,NA
fcp-trial,243,1065042,0.0-204.0-0.0,voc_e2,12052,"[{""event"":""fullscreenenter"",""trial"":1,""time"":3824}]",NA,NA,NA,NA,NA,4,#741CD8,#D8271C,10,0,1,38,1,1207,37,1,316,10,1,experiment,NA,NA,0,0.9,0.1,0,1,195,5,NA
fcp-trial,244,1068069,0.0-205.0-0.0,voc_e2,12052,"[{""event"":""fullscreenenter"",""trial"":1,""time"":3824}]",NA,NA,NA,NA,NA,1,#3386FF,#D89F1C,0,0,0,38,1,1195,39,0,314,0,1,experiment,NA,NA,1,0.3,0.7,3,2,196,5,NA
fcp-trial,245,1072015,0.0-206.0-0.0,voc_e2,12052,"[{""event"":""fullscreenenter"",""trial"":1,""time"":3824}]",NA,NA,NA,NA,NA,1,#741CD8,#D8271C,10,0,1,38,1,2093,37,1,346,10,1,experiment,NA,NA,0,0.9,0.1,0,1,197,5,NA
fcp-trial,246,1075854,0.0-207.0-0.0,voc_e2,12052,"[{""event"":""fullscreenenter"",""trial"":1,""time"":3824}]",NA,NA,NA,NA,NA,5,#FA92F8,#1CD855,0,0,0,38,1,1730,37,1,600,0,0,experiment,NA,NA,2,0.5,0.5,5,4,198,5,NA
fcp-trial,247,1078913,0.0-208.0-0.0,voc_e2,12052,"[{""event"":""fullscreenenter"",""trial"":1,""time"":3824}]",NA,NA,NA,NA,NA,0,#1CD855,#FA92F8,0,0,1,38,1,1284,39,0,266,0,0,experiment,NA,NA,2,0.5,0.5,4,5,199,5,NA
fcp-trial,248,1083475,0.0-209.0-0.0,voc_e2,12052,"[{""event"":""fullscreenenter"",""trial"":1,""time"":3824}]",NA,NA,NA,NA,NA,6,#D89F1C,#3386FF,10,10,1,40,0,2316,39,0,720,10,0,experiment,NA,NA,1,0.7,0.3,2,3,200,5,NA
fcp-trial,249,1087375,0.0-210.0-0.0,voc_e2,12052,"[{""event"":""fullscreenenter"",""trial"":1,""time"":3824}]",NA,NA,NA,NA,NA,5,#741CD8,#D8271C,10,0,1,40,0,1687,39,0,705,0,0,experiment,NA,NA,0,0.9,0.1,0,1,201,5,NA
fcp-trial,250,1090494,0.0-211.0-0.0,voc_e2,12052,"[{""event"":""fullscreenenter"",""trial"":1,""time"":3824}]",NA,NA,NA,NA,NA,0,#D89F1C,#3386FF,10,10,1,38,1,1251,37,1,357,10,1,experiment,NA,NA,1,0.7,0.3,2,3,202,5,NA
fcp-trial,251,1093282,0.0-212.0-0.0,voc_e2,12052,"[{""event"":""fullscreenenter"",""trial"":1,""time"":3824}]",NA,NA,NA,NA,NA,6,#741CD8,#D8271C,0,10,1,38,1,937.0000000002328,37,1,343,0,1,experiment,NA,NA,0,0.9,0.1,0,1,203,5,NA
fcp-trial,252,1096988,0.0-213.0-0.0,voc_e2,12052,"[{""event"":""fullscreenenter"",""trial"":1,""time"":3824}]",NA,NA,NA,NA,NA,3,#FA92F8,#1CD855,0,10,0,38,1,1188,37,1,989,0,0,experiment,NA,NA,2,0.5,0.5,5,4,204,5,NA
fcp-trial,253,1099976,0.0-214.0-0.0,voc_e2,12052,"[{""event"":""fullscreenenter"",""trial"":1,""time"":3824}]",NA,NA,NA,NA,NA,3,#D8271C,#741CD8,0,10,0,38,1,1117,39,0,362,10,1,experiment,NA,NA,0,0.1,0.9,1,0,205,5,NA
fcp-trial,254,1102930,0.0-215.0-0.0,voc_e2,12052,"[{""event"":""fullscreenenter"",""trial"":1,""time"":3824}]",NA,NA,NA,NA,NA,2,#D89F1C,#3386FF,10,0,1,38,1,994,37,1,450,10,1,experiment,NA,NA,1,0.7,0.3,2,3,206,5,NA
fcp-trial,255,1106152,0.0-216.0-0.0,voc_e2,12052,"[{""event"":""fullscreenenter"",""trial"":1,""time"":3824}]",NA,NA,NA,NA,NA,4,#3386FF,#D89F1C,10,10,0,38,1,1385.9999999997672,39,0,326,10,1,experiment,NA,NA,1,0.3,0.7,3,2,207,5,NA
fcp-trial,256,1108882,0.0-217.0-0.0,voc_e2,12052,"[{""event"":""fullscreenenter"",""trial"":1,""time"":3824}]",NA,NA,NA,NA,NA,4,#1CD855,#FA92F8,10,0,1,38,1,911.0000000002328,39,0,298,0,0,experiment,NA,NA,2,0.5,0.5,4,5,208,5,NA
fcp-trial,257,1111329,0.0-218.0-0.0,voc_e2,12052,"[{""event"":""fullscreenenter"",""trial"":1,""time"":3824}]",NA,NA,NA,NA,NA,1,#FA92F8,#1CD855,0,0,0,38,1,592,37,1,347,0,0,experiment,NA,NA,2,0.5,0.5,5,4,209,5,NA
fcp-trial,258,1114178,0.0-219.0-0.0,voc_e2,12052,"[{""event"":""fullscreenenter"",""trial"":1,""time"":3824}]",NA,NA,NA,NA,NA,0,#741CD8,#D8271C,10,0,1,38,1,1010,37,1,330.00000000023283,10,1,experiment,NA,NA,0,0.9,0.1,0,1,210,5,NA
audio-instructions,259,1122666,0.0-220.0,voc_e2,12052,"[{""event"":""fullscreenenter"",""trial"":1,""time"":3824}]",NA,4049,static/audio/pause.wav,NA,0,NA,NA,NA,NA,NA,NA,NA,NA,NA,NA,NA,NA,NA,NA,NA,NA,NA,NA,NA,NA,NA,NA,NA,NA,NA
fcp-trial,260,1125548,0.0-221.0-0.0,voc_e2,12052,"[{""event"":""fullscreenenter"",""trial"":1,""time"":3824}]",NA,NA,NA,NA,NA,3,#FA92F8,#1CD855,10,0,0,38,1,1093,37,1,284,10,0,experiment,NA,NA,2,0.5,0.5,5,4,211,5,NA
fcp-trial,261,1127993,0.0-222.0-0.0,voc_e2,12052,"[{""event"":""fullscreenenter"",""trial"":1,""time"":3824}]",NA,NA,NA,NA,NA,3,#3386FF,#D89F1C,0,0,0,38,1,636,39,0,300,0,1,experiment,NA,NA,1,0.3,0.7,3,2,212,5,NA
fcp-trial,262,1130724,0.0-223.0-0.0,voc_e2,12052,"[{""event"":""fullscreenenter"",""trial"":1,""time"":3824}]",NA,NA,NA,NA,NA,2,#3386FF,#D89F1C,10,0,0,38,1,786.0000000002328,39,0,420.9999999997672,0,1,experiment,NA,NA,1,0.3,0.7,3,2,213,5,NA
fcp-trial,263,1133544,0.0-224.0-0.0,voc_e2,12052,"[{""event"":""fullscreenenter"",""trial"":1,""time"":3824}]",NA,NA,NA,NA,NA,5,#D8271C,#741CD8,0,10,0,38,1,728,39,0,583,10,1,experiment,NA,NA,0,0.1,0.9,1,0,214,5,NA
fcp-trial,264,1136903,0.0-225.0-0.0,voc_e2,12052,"[{""event"":""fullscreenenter"",""trial"":1,""time"":3824}]",NA,NA,NA,NA,NA,1,#3386FF,#D89F1C,0,10,0,38,1,1150,39,0,691,10,1,experiment,NA,NA,1,0.3,0.7,3,2,215,5,NA
fcp-trial,265,1140068,0.0-226.0-0.0,voc_e2,12052,"[{""event"":""fullscreenenter"",""trial"":1,""time"":3824}]",NA,NA,NA,NA,NA,4,#1CD855,#FA92F8,10,0,1,38,1,1043,39,0,615,0,0,experiment,NA,NA,2,0.5,0.5,4,5,216,5,NA
fcp-trial,266,1143997,0.0-227.0-0.0,voc_e2,12052,"[{""event"":""fullscreenenter"",""trial"":1,""time"":3824}]",NA,NA,NA,NA,NA,0,#741CD8,#D8271C,10,0,1,38,1,1314.0000000002328,37,1,1106,10,1,experiment,NA,NA,0,0.9,0.1,0,1,217,5,NA
fcp-trial,267,1147763,0.0-228.0-0.0,voc_e2,12052,"[{""event"":""fullscreenenter"",""trial"":1,""time"":3824}]",NA,NA,NA,NA,NA,6,#FA92F8,#1CD855,10,10,0,40,0,1632.0000000002328,37,1,614.9999999997672,10,0,experiment,NA,NA,2,0.5,0.5,5,4,218,5,NA
fcp-trial,268,1150959,0.0-229.0-0.0,voc_e2,12052,"[{""event"":""fullscreenenter"",""trial"":1,""time"":3824}]",NA,NA,NA,NA,NA,2,#1CD855,#FA92F8,10,0,1,38,1,1166,39,0,509,0,0,experiment,NA,NA,2,0.5,0.5,4,5,219,5,NA
fcp-trial,269,1154123,0.0-230.0-0.0,voc_e2,12052,"[{""event"":""fullscreenenter"",""trial"":1,""time"":3824}]",NA,NA,NA,NA,NA,0,#D89F1C,#3386FF,0,0,1,38,1,1356,37,1,301,0,1,experiment,NA,NA,1,0.7,0.3,2,3,220,5,NA
fcp-trial,270,1157527,0.0-231.0-0.0,voc_e2,12052,"[{""event"":""fullscreenenter"",""trial"":1,""time"":3824}]",NA,NA,NA,NA,NA,5,#1CD855,#FA92F8,0,10,1,40,0,1280,37,1,616,0,1,experiment,NA,NA,2,0.5,0.5,4,5,221,5,NA
fcp-trial,271,1161848,0.0-232.0-0.0,voc_e2,12052,"[{""event"":""fullscreenenter"",""trial"":1,""time"":3824}]",NA,NA,NA,NA,NA,1,#741CD8,#D8271C,10,0,1,38,1,2062,37,1,749,10,1,experiment,NA,NA,0,0.9,0.1,0,1,222,5,NA
fcp-trial,272,1165162,0.0-233.0-0.0,voc_e2,12052,"[{""event"":""fullscreenenter"",""trial"":1,""time"":3824}]",NA,NA,NA,NA,NA,4,#3386FF,#D89F1C,0,10,0,38,1,1055,39,0,751,10,1,experiment,NA,NA,1,0.3,0.7,3,2,223,5,NA
fcp-trial,273,1168581,0.0-234.0-0.0,voc_e2,12052,"[{""event"":""fullscreenenter"",""trial"":1,""time"":3824}]",NA,NA,NA,NA,NA,1,#1CD855,#FA92F8,10,10,1,38,1,1491,39,0,420,10,0,experiment,NA,NA,2,0.5,0.5,4,5,224,5,NA
fcp-trial,274,1172155,0.0-235.0-0.0,voc_e2,12052,"[{""event"":""fullscreenenter"",""trial"":1,""time"":3824}]",NA,NA,NA,NA,NA,6,#D89F1C,#3386FF,0,0,1,40,0,1238,37,1,828,0,1,experiment,NA,NA,1,0.7,0.3,2,3,225,5,NA
fcp-trial,275,1175425,0.0-236.0-0.0,voc_e2,12052,"[{""event"":""fullscreenenter"",""trial"":1,""time"":3824}]",NA,NA,NA,NA,NA,4,#D8271C,#741CD8,10,10,0,38,1,1434,39,0,316,10,1,experiment,NA,NA,0,0.1,0.9,1,0,226,6,NA
fcp-trial,276,1178140,0.0-237.0-0.0,voc_e2,12052,"[{""event"":""fullscreenenter"",""trial"":1,""time"":3824}]",NA,NA,NA,NA,NA,0,#1CD855,#FA92F8,0,0,1,38,1,439,39,0,749,0,0,experiment,NA,NA,2,0.5,0.5,4,5,227,6,NA
fcp-trial,277,1180824,0.0-238.0-0.0,voc_e2,12052,"[{""event"":""fullscreenenter"",""trial"":1,""time"":3824}]",NA,NA,NA,NA,NA,5,#D89F1C,#3386FF,0,0,1,38,1,851,37,1,314,0,1,experiment,NA,NA,1,0.7,0.3,2,3,228,6,NA
fcp-trial,278,1184591,0.0-239.0-0.0,voc_e2,12052,"[{""event"":""fullscreenenter"",""trial"":1,""time"":3824}]",NA,NA,NA,NA,NA,3,#741CD8,#D8271C,10,0,1,38,1,1778,37,1,467,10,1,experiment,NA,NA,0,0.9,0.1,0,1,229,6,NA
fcp-trial,279,1186854,0.0-240.0-0.0,voc_e2,12052,"[{""event"":""fullscreenenter"",""trial"":1,""time"":3824}]",NA,NA,NA,NA,NA,2,#D8271C,#741CD8,0,10,0,38,1,488,39,0,256,10,1,experiment,NA,NA,0,0.1,0.9,1,0,230,6,NA
fcp-trial,280,1190107,0.0-241.0-0.0,voc_e2,12052,"[{""event"":""fullscreenenter"",""trial"":1,""time"":3824}]",NA,NA,NA,NA,NA,6,#D8271C,#741CD8,0,10,0,38,1,708,39,0,1034,10,1,experiment,NA,NA,0,0.1,0.9,1,0,231,6,NA
fcp-trial,281,1192866,0.0-242.0-0.0,voc_e2,12052,"[{""event"":""fullscreenenter"",""trial"":1,""time"":3824}]",NA,NA,NA,NA,NA,0,#741CD8,#D8271C,10,0,1,38,1,981,37,1,270,10,1,experiment,NA,NA,0,0.9,0.1,0,1,232,6,NA
fcp-trial,282,1196677,0.0-243.0-0.0,voc_e2,12052,"[{""event"":""fullscreenenter"",""trial"":1,""time"":3824}]",NA,NA,NA,NA,NA,5,#3386FF,#D89F1C,0,10,0,40,0,1671,37,1,631,0,0,experiment,NA,NA,1,0.3,0.7,3,2,233,6,NA
fcp-trial,283,1200847,0.0-244.0-0.0,voc_e2,12052,"[{""event"":""fullscreenenter"",""trial"":1,""time"":3824}]",NA,NA,NA,NA,NA,6,#FA92F8,#1CD855,10,0,0,40,0,1931,39,0,718.9999999997672,0,1,experiment,NA,NA,2,0.5,0.5,5,4,234,6,NA
fcp-trial,284,1204579,0.0-245.0-0.0,voc_e2,12052,"[{""event"":""fullscreenenter"",""trial"":1,""time"":3824}]",NA,NA,NA,NA,NA,1,#D89F1C,#3386FF,10,10,1,38,1,1722,39,0,492.0000000002328,10,0,experiment,NA,NA,1,0.7,0.3,2,3,235,6,NA
fcp-trial,285,1207897,0.0-246.0-0.0,voc_e2,12052,"[{""event"":""fullscreenenter"",""trial"":1,""time"":3824}]",NA,NA,NA,NA,NA,2,#D8271C,#741CD8,0,10,0,38,1,959,39,0,840,10,1,experiment,NA,NA,0,0.1,0.9,1,0,236,6,NA
fcp-trial,286,1211182,0.0-247.0-0.0,voc_e2,12052,"[{""event"":""fullscreenenter"",""trial"":1,""time"":3824}]",NA,NA,NA,NA,NA,5,#741CD8,#D8271C,10,0,1,38,1,672,37,1,1092.9999999997672,10,1,experiment,NA,NA,0,0.9,0.1,0,1,237,6,NA
fcp-trial,287,1214362,0.0-248.0-0.0,voc_e2,12052,"[{""event"":""fullscreenenter"",""trial"":1,""time"":3824}]",NA,NA,NA,NA,NA,2,#1CD855,#FA92F8,0,10,1,38,1,1227,39,0,434,10,0,experiment,NA,NA,2,0.5,0.5,4,5,238,6,NA
fcp-trial,288,1217918,0.0-249.0-0.0,voc_e2,12052,"[{""event"":""fullscreenenter"",""trial"":1,""time"":3824}]",NA,NA,NA,NA,NA,2,#D89F1C,#3386FF,10,0,1,38,1,1087,37,1,961,10,1,experiment,NA,NA,1,0.7,0.3,2,3,239,6,NA
fcp-trial,289,1220990,0.0-250.0-0.0,voc_e2,12052,"[{""event"":""fullscreenenter"",""trial"":1,""time"":3824}]",NA,NA,NA,NA,NA,0,#FA92F8,#1CD855,0,0,0,38,1,1116,37,1,432,0,0,experiment,NA,NA,2,0.5,0.5,5,4,240,6,NA
fcp-trial,290,1224172,0.0-251.0-0.0,voc_e2,12052,"[{""event"":""fullscreenenter"",""trial"":1,""time"":3824}]",NA,NA,NA,NA,NA,3,#D89F1C,#3386FF,0,0,1,38,1,1374,37,1,297,0,1,experiment,NA,NA,1,0.7,0.3,2,3,241,6,NA
fcp-trial,291,1228774,0.0-252.0-0.0,voc_e2,12052,"[{""event"":""fullscreenenter"",""trial"":1,""time"":3824}]",NA,NA,NA,NA,NA,4,#741CD8,#D8271C,10,0,1,40,0,1793,37,1,1285,10,1,experiment,NA,NA,0,0.9,0.1,0,1,242,6,NA
fcp-trial,292,1232002,0.0-253.0-0.0,voc_e2,12052,"[{""event"":""fullscreenenter"",""trial"":1,""time"":3824}]",NA,NA,NA,NA,NA,1,#741CD8,#D8271C,10,0,1,38,1,1391,37,1,313,10,1,experiment,NA,NA,0,0.9,0.1,0,1,243,6,NA
fcp-trial,293,1234986,0.0-254.0-0.0,voc_e2,12052,"[{""event"":""fullscreenenter"",""trial"":1,""time"":3824}]",NA,NA,NA,NA,NA,0,#D89F1C,#3386FF,10,0,1,38,1,1118,37,1,359,10,1,experiment,NA,NA,1,0.7,0.3,2,3,244,6,NA
fcp-trial,294,1238060,0.0-255.0-0.0,voc_e2,12052,"[{""event"":""fullscreenenter"",""trial"":1,""time"":3824}]",NA,NA,NA,NA,NA,5,#1CD855,#FA92F8,0,10,1,38,1,863,37,1,701,0,1,experiment,NA,NA,2,0.5,0.5,4,5,245,6,NA
fcp-trial,295,1242366,0.0-256.0-0.0,voc_e2,12052,"[{""event"":""fullscreenenter"",""trial"":1,""time"":3824}]",NA,NA,NA,NA,NA,4,#FA92F8,#1CD855,0,0,0,40,0,2091.999999999767,39,0,706.0000000002328,0,1,experiment,NA,NA,2,0.5,0.5,5,4,246,6,NA
fcp-trial,296,1245244,0.0-257.0-0.0,voc_e2,12052,"[{""event"":""fullscreenenter"",""trial"":1,""time"":3824}]",NA,NA,NA,NA,NA,3,#FA92F8,#1CD855,10,0,0,38,1,967,37,1,401,10,0,experiment,NA,NA,2,0.5,0.5,5,4,247,6,NA
fcp-trial,297,1247915,0.0-258.0-0.0,voc_e2,12052,"[{""event"":""fullscreenenter"",""trial"":1,""time"":3824}]",NA,NA,NA,NA,NA,3,#741CD8,#D8271C,10,0,1,38,1,745,37,1,404,10,1,experiment,NA,NA,0,0.9,0.1,0,1,248,6,NA
fcp-trial,298,1250841,0.0-259.0-0.0,voc_e2,12052,"[{""event"":""fullscreenenter"",""trial"":1,""time"":3824}]",NA,NA,NA,NA,NA,4,#3386FF,#D89F1C,10,10,0,38,1,996.9999999997672,39,0,419,10,1,experiment,NA,NA,1,0.3,0.7,3,2,249,6,NA
fcp-trial,299,1254021,0.0-260.0-0.0,voc_e2,12052,"[{""event"":""fullscreenenter"",""trial"":1,""time"":3824}]",NA,NA,NA,NA,NA,1,#FA92F8,#1CD855,0,0,0,38,1,1207,37,1,465,0,0,experiment,NA,NA,2,0.5,0.5,5,4,250,6,NA
fcp-trial,300,1257005,0.0-261.0-0.0,voc_e2,12052,"[{""event"":""fullscreenenter"",""trial"":1,""time"":3824}]",NA,NA,NA,NA,NA,6,#3386FF,#D89F1C,10,10,0,38,1,1026,39,0,448,10,1,experiment,NA,NA,1,0.3,0.7,3,2,251,6,NA
fcp-trial,301,1260063,0.0-262.0-0.0,voc_e2,12052,"[{""event"":""fullscreenenter"",""trial"":1,""time"":3824}]",NA,NA,NA,NA,NA,6,#741CD8,#D8271C,10,0,1,40,0,909.0000000002328,39,0,639,0,0,experiment,NA,NA,0,0.9,0.1,0,1,252,6,NA
fcp-trial,302,1264175,0.0-263.0-0.0,voc_e2,12052,"[{""event"":""fullscreenenter"",""trial"":1,""time"":3824}]",NA,NA,NA,NA,NA,6,#1CD855,#FA92F8,10,0,1,38,1,1950,39,0,642,0,0,experiment,NA,NA,2,0.5,0.5,4,5,253,6,NA
fcp-trial,303,1267310,0.0-264.0-0.0,voc_e2,12052,"[{""event"":""fullscreenenter"",""trial"":1,""time"":3824}]",NA,NA,NA,NA,NA,3,#D89F1C,#3386FF,10,0,1,38,1,788.9999999997672,37,1,839,10,1,experiment,NA,NA,1,0.7,0.3,2,3,254,6,NA
fcp-trial,304,1269758,0.0-265.0-0.0,voc_e2,12052,"[{""event"":""fullscreenenter"",""trial"":1,""time"":3824}]",NA,NA,NA,NA,NA,2,#741CD8,#D8271C,10,0,1,38,1,607,37,1,332,10,1,experiment,NA,NA,0,0.9,0.1,0,1,255,6,NA
fcp-trial,305,1272439,0.0-266.0-0.0,voc_e2,12052,"[{""event"":""fullscreenenter"",""trial"":1,""time"":3824}]",NA,NA,NA,NA,NA,2,#FA92F8,#1CD855,10,10,0,38,1,664,37,1,509,10,0,experiment,NA,NA,2,0.5,0.5,5,4,256,6,NA
fcp-trial,306,1275170,0.0-267.0-0.0,voc_e2,12052,"[{""event"":""fullscreenenter"",""trial"":1,""time"":3824}]",NA,NA,NA,NA,NA,0,#D8271C,#741CD8,0,10,0,38,1,639.0000000002328,39,0,581,10,1,experiment,NA,NA,0,0.1,0.9,1,0,257,6,NA
fcp-trial,307,1277901,0.0-268.0-0.0,voc_e2,12052,"[{""event"":""fullscreenenter"",""trial"":1,""time"":3824}]",NA,NA,NA,NA,NA,1,#D89F1C,#3386FF,10,0,1,38,1,712,37,1,495,10,1,experiment,NA,NA,1,0.7,0.3,2,3,258,6,NA
fcp-trial,308,1281171,0.0-269.0-0.0,voc_e2,12052,"[{""event"":""fullscreenenter"",""trial"":1,""time"":3824}]",NA,NA,NA,NA,NA,5,#741CD8,#D8271C,10,0,1,40,0,965,39,0,779,0,0,experiment,NA,NA,0,0.9,0.1,0,1,259,6,NA
fcp-trial,309,1284290,0.0-270.0-0.0,voc_e2,12052,"[{""event"":""fullscreenenter"",""trial"":1,""time"":3824}]",NA,NA,NA,NA,NA,4,#3386FF,#D89F1C,10,10,0,38,1,1009,39,0,585,10,1,experiment,NA,NA,1,0.3,0.7,3,2,260,6,NA
fcp-trial,310,1286917,0.0-271.0-0.0,voc_e2,12052,"[{""event"":""fullscreenenter"",""trial"":1,""time"":3824}]",NA,NA,NA,NA,NA,3,#FA92F8,#1CD855,0,0,0,38,1,740,37,1,362,0,0,experiment,NA,NA,2,0.5,0.5,5,4,261,6,NA
fcp-trial,311,1289763,0.0-272.0-0.0,voc_e2,12052,"[{""event"":""fullscreenenter"",""trial"":1,""time"":3824}]",NA,NA,NA,NA,NA,1,#741CD8,#D8271C,10,0,1,38,1,800,37,1,536,10,1,experiment,NA,NA,0,0.9,0.1,0,1,262,6,NA
fcp-trial,312,1294025,0.0-273.0-0.0,voc_e2,12052,"[{""event"":""fullscreenenter"",""trial"":1,""time"":3824}]",NA,NA,NA,NA,NA,6,#D89F1C,#3386FF,10,0,1,40,0,2199.000000000233,39,0,553,0,0,experiment,NA,NA,1,0.7,0.3,2,3,263,6,NA
fcp-trial,313,1296543,0.0-274.0-0.0,voc_e2,12052,"[{""event"":""fullscreenenter"",""trial"":1,""time"":3824}]",NA,NA,NA,NA,NA,3,#741CD8,#D8271C,10,0,1,38,1,695,37,1,297,10,1,experiment,NA,NA,0,0.9,0.1,0,1,264,6,NA
fcp-trial,314,1299471,0.0-275.0-0.0,voc_e2,12052,"[{""event"":""fullscreenenter"",""trial"":1,""time"":3824}]",NA,NA,NA,NA,NA,5,#FA92F8,#1CD855,0,0,0,38,1,776,37,1,629,0,0,experiment,NA,NA,2,0.5,0.5,5,4,265,6,NA
fcp-trial,315,1302367,0.0-276.0-0.0,voc_e2,12052,"[{""event"":""fullscreenenter"",""trial"":1,""time"":3824}]",NA,NA,NA,NA,NA,2,#3386FF,#D89F1C,0,0,0,38,1,892,39,0,496,0,1,experiment,NA,NA,1,0.3,0.7,3,2,266,6,NA
fcp-trial,316,1305648,0.0-277.0-0.0,voc_e2,12052,"[{""event"":""fullscreenenter"",""trial"":1,""time"":3824}]",NA,NA,NA,NA,NA,4,#741CD8,#D8271C,10,0,1,38,1,1445,37,1,328,10,1,experiment,NA,NA,0,0.9,0.1,0,1,267,6,NA
fcp-trial,317,1308273,0.0-278.0-0.0,voc_e2,12052,"[{""event"":""fullscreenenter"",""trial"":1,""time"":3824}]",NA,NA,NA,NA,NA,0,#FA92F8,#1CD855,0,0,0,38,1,832.0000000002328,37,1,284,0,0,experiment,NA,NA,2,0.5,0.5,5,4,268,6,NA
fcp-trial,318,1311739,0.0-279.0-0.0,voc_e2,12052,"[{""event"":""fullscreenenter"",""trial"":1,""time"":3824}]",NA,NA,NA,NA,NA,5,#3386FF,#D89F1C,0,10,0,40,0,1477.0000000002328,39,0,480.9999999997672,10,1,experiment,NA,NA,1,0.3,0.7,3,2,269,6,NA
fcp-trial,319,1315325,0.0-280.0-0.0,voc_e2,12052,"[{""event"":""fullscreenenter"",""trial"":1,""time"":3824}]",NA,NA,NA,NA,NA,6,#741CD8,#D8271C,10,10,1,40,0,1521,39,0,556.0000000002328,10,0,experiment,NA,NA,0,0.9,0.1,0,1,270,6,NA
fcp-trial,320,1318626,0.0-281.0-0.0,voc_e2,12052,"[{""event"":""fullscreenenter"",""trial"":1,""time"":3824}]",NA,NA,NA,NA,NA,4,#1CD855,#FA92F8,10,10,1,40,0,1297,39,0,496,10,0,experiment,NA,NA,2,0.5,0.5,4,5,271,7,NA
fcp-trial,321,1322374,0.0-282.0-0.0,voc_e2,12052,"[{""event"":""fullscreenenter"",""trial"":1,""time"":3824}]",NA,NA,NA,NA,NA,1,#1CD855,#FA92F8,0,0,1,38,1,1403,39,0,837,0,0,experiment,NA,NA,2,0.5,0.5,4,5,272,7,NA
fcp-trial,322,1324909,0.0-283.0-0.0,voc_e2,12052,"[{""event"":""fullscreenenter"",""trial"":1,""time"":3824}]",NA,NA,NA,NA,NA,0,#D89F1C,#3386FF,10,0,1,38,1,591,37,1,436,10,1,experiment,NA,NA,1,0.7,0.3,2,3,273,7,NA
fcp-trial,323,1327773,0.0-284.0-0.0,voc_e2,12052,"[{""event"":""fullscreenenter"",""trial"":1,""time"":3824}]",NA,NA,NA,NA,NA,2,#D8271C,#741CD8,0,10,0,38,1,834,39,0,522,10,1,experiment,NA,NA,0,0.1,0.9,1,0,274,7,NA
fcp-trial,324,1330386,0.0-285.0-0.0,voc_e2,12052,"[{""event"":""fullscreenenter"",""trial"":1,""time"":3824}]",NA,NA,NA,NA,NA,1,#D89F1C,#3386FF,10,0,1,38,1,742,37,1,361,10,1,experiment,NA,NA,1,0.7,0.3,2,3,275,7,NA
fcp-trial,325,1333324,0.0-286.0-0.0,voc_e2,12052,"[{""event"":""fullscreenenter"",""trial"":1,""time"":3824}]",NA,NA,NA,NA,NA,4,#1CD855,#FA92F8,0,10,1,38,1,1133.0000000002328,39,0,287,10,0,experiment,NA,NA,2,0.5,0.5,4,5,276,7,NA
fcp-trial,326,1336861,0.0-287.0-0.0,voc_e2,12052,"[{""event"":""fullscreenenter"",""trial"":1,""time"":3824}]",NA,NA,NA,NA,NA,5,#D89F1C,#3386FF,10,10,1,40,0,1343,37,1,686,10,1,experiment,NA,NA,1,0.7,0.3,2,3,277,7,NA
fcp-trial,327,1339715,0.0-288.0-0.0,voc_e2,12052,"[{""event"":""fullscreenenter"",""trial"":1,""time"":3824}]",NA,NA,NA,NA,NA,5,#741CD8,#D8271C,10,0,1,38,1,895,37,1,450,10,1,experiment,NA,NA,0,0.9,0.1,0,1,278,7,NA
fcp-trial,328,1343029,0.0-289.0-0.0,voc_e2,12052,"[{""event"":""fullscreenenter"",""trial"":1,""time"":3824}]",NA,NA,NA,NA,NA,2,#3386FF,#D89F1C,0,10,0,38,1,1459,39,0,345,10,1,experiment,NA,NA,1,0.3,0.7,3,2,279,7,NA
fcp-trial,329,1346360,0.0-290.0-0.0,voc_e2,12052,"[{""event"":""fullscreenenter"",""trial"":1,""time"":3824}]",NA,NA,NA,NA,NA,0,#1CD855,#FA92F8,0,10,1,38,1,1206,39,0,617,10,0,experiment,NA,NA,2,0.5,0.5,4,5,280,7,NA
fcp-trial,330,1349749,0.0-291.0-0.0,voc_e2,12052,"[{""event"":""fullscreenenter"",""trial"":1,""time"":3824}]",NA,NA,NA,NA,NA,4,#741CD8,#D8271C,10,0,1,38,1,1582,37,1,299,10,1,experiment,NA,NA,0,0.9,0.1,0,1,281,7,NA
fcp-trial,331,1352929,0.0-292.0-0.0,voc_e2,12052,"[{""event"":""fullscreenenter"",""trial"":1,""time"":3824}]",NA,NA,NA,NA,NA,0,#3386FF,#D89F1C,0,10,0,38,1,1327,39,0,345.00000000023283,10,1,experiment,NA,NA,1,0.3,0.7,3,2,282,7,NA
fcp-trial,332,1355688,0.0-293.0-0.0,voc_e2,12052,"[{""event"":""fullscreenenter"",""trial"":1,""time"":3824}]",NA,NA,NA,NA,NA,2,#FA92F8,#1CD855,0,0,0,38,1,832,37,1,417,0,0,experiment,NA,NA,2,0.5,0.5,5,4,283,7,NA
fcp-trial,333,1358718,0.0-294.0-0.0,voc_e2,12052,"[{""event"":""fullscreenenter"",""trial"":1,""time"":3824}]",NA,NA,NA,NA,NA,5,#FA92F8,#1CD855,0,10,0,40,0,1058,39,0,463.0000000002328,10,1,experiment,NA,NA,2,0.5,0.5,5,4,284,7,NA
fcp-trial,334,1361615,0.0-295.0-0.0,voc_e2,12052,"[{""event"":""fullscreenenter"",""trial"":1,""time"":3824}]",NA,NA,NA,NA,NA,1,#741CD8,#D8271C,10,0,1,38,1,966,37,1,422,10,1,experiment,NA,NA,0,0.9,0.1,0,1,285,7,NA
fcp-trial,335,1364840,0.0-296.0-0.0,voc_e2,12052,"[{""event"":""fullscreenenter"",""trial"":1,""time"":3824}]",NA,NA,NA,NA,NA,4,#3386FF,#D89F1C,0,10,0,38,1,1459.0000000002328,39,0,255.99999999976717,10,1,experiment,NA,NA,1,0.3,0.7,3,2,286,7,NA
fcp-trial,336,1367732,0.0-297.0-0.0,voc_e2,12052,"[{""event"":""fullscreenenter"",""trial"":1,""time"":3824}]",NA,NA,NA,NA,NA,6,#D8271C,#741CD8,0,10,0,40,0,829,39,0,554,10,1,experiment,NA,NA,0,0.1,0.9,1,0,287,7,NA
fcp-trial,337,1371124,0.0-298.0-0.0,voc_e2,12052,"[{""event"":""fullscreenenter"",""trial"":1,""time"":3824}]",NA,NA,NA,NA,NA,0,#741CD8,#D8271C,10,0,1,38,1,1045,37,1,839,10,1,experiment,NA,NA,0,0.9,0.1,0,1,288,7,NA
fcp-trial,338,1374830,0.0-299.0-0.0,voc_e2,12052,"[{""event"":""fullscreenenter"",""trial"":1,""time"":3824}]",NA,NA,NA,NA,NA,3,#1CD855,#FA92F8,10,10,1,38,1,1386,39,0,810,10,0,experiment,NA,NA,2,0.5,0.5,4,5,289,7,NA
fcp-trial,339,1377602,0.0-300.0-0.0,voc_e2,12052,"[{""event"":""fullscreenenter"",""trial"":1,""time"":3824}]",NA,NA,NA,NA,NA,1,#1CD855,#FA92F8,0,0,1,38,1,850,39,0,401,0,0,experiment,NA,NA,2,0.5,0.5,4,5,290,7,NA
fcp-trial,340,1381743,0.0-301.0-0.0,voc_e2,12052,"[{""event"":""fullscreenenter"",""trial"":1,""time"":3824}]",NA,NA,NA,NA,NA,3,#D89F1C,#3386FF,10,0,1,38,1,1417.9999999997672,37,1,1214,10,1,experiment,NA,NA,1,0.7,0.3,2,3,291,7,NA
fcp-trial,341,1384487,0.0-302.0-0.0,voc_e2,12052,"[{""event"":""fullscreenenter"",""trial"":1,""time"":3824}]",NA,NA,NA,NA,NA,3,#741CD8,#D8271C,10,0,1,38,1,891,37,1,344,10,1,experiment,NA,NA,0,0.9,0.1,0,1,292,7,NA
fcp-trial,342,1387666,0.0-303.0-0.0,voc_e2,12052,"[{""event"":""fullscreenenter"",""trial"":1,""time"":3824}]",NA,NA,NA,NA,NA,6,#D89F1C,#3386FF,10,10,1,40,0,1177.9999999997672,39,0,492,10,0,experiment,NA,NA,1,0.7,0.3,2,3,293,7,NA
fcp-trial,343,1390728,0.0-304.0-0.0,voc_e2,12052,"[{""event"":""fullscreenenter"",""trial"":1,""time"":3824}]",NA,NA,NA,NA,NA,6,#1CD855,#FA92F8,10,0,1,40,0,1065,39,0,478,0,0,experiment,NA,NA,2,0.5,0.5,4,5,294,7,NA
fcp-trial,344,1393952,0.0-305.0-0.0,voc_e2,12052,"[{""event"":""fullscreenenter"",""trial"":1,""time"":3824}]",NA,NA,NA,NA,NA,6,#741CD8,#D8271C,10,0,1,40,0,1100.9999999997672,37,1,614,10,1,experiment,NA,NA,0,0.9,0.1,0,1,295,7,NA
fcp-trial,345,1397087,0.0-306.0-0.0,voc_e2,12052,"[{""event"":""fullscreenenter"",""trial"":1,""time"":3824}]",NA,NA,NA,NA,NA,1,#3386FF,#D89F1C,0,10,0,38,1,1160,39,0,448,10,1,experiment,NA,NA,1,0.3,0.7,3,2,296,7,NA
fcp-trial,346,1400299,0.0-307.0-0.0,voc_e2,12052,"[{""event"":""fullscreenenter"",""trial"":1,""time"":3824}]",NA,NA,NA,NA,NA,2,#FA92F8,#1CD855,10,10,0,38,1,1299.0000000002328,37,1,390,10,0,experiment,NA,NA,2,0.5,0.5,5,4,297,7,NA
fcp-trial,347,1403523,0.0-308.0-0.0,voc_e2,12052,"[{""event"":""fullscreenenter"",""trial"":1,""time"":3824}]",NA,NA,NA,NA,NA,2,#D89F1C,#3386FF,10,0,1,38,1,1160,37,1,554,10,1,experiment,NA,NA,1,0.7,0.3,2,3,298,7,NA
fcp-trial,348,1406733,0.0-309.0-0.0,voc_e2,12052,"[{""event"":""fullscreenenter"",""trial"":1,""time"":3824}]",NA,NA,NA,NA,NA,1,#FA92F8,#1CD855,0,0,0,38,1,1221,37,1,465,0,0,experiment,NA,NA,2,0.5,0.5,5,4,299,7,NA
fcp-trial,349,1409749,0.0-310.0-0.0,voc_e2,12052,"[{""event"":""fullscreenenter"",""trial"":1,""time"":3824}]",NA,NA,NA,NA,NA,1,#D8271C,#741CD8,0,10,0,38,1,1193,39,0,314,10,1,experiment,NA,NA,0,0.1,0.9,1,0,300,7,NA
fcp-trial,350,1412760,0.0-311.0-0.0,voc_e2,12052,"[{""event"":""fullscreenenter"",""trial"":1,""time"":3824}]",NA,NA,NA,NA,NA,5,#741CD8,#D8271C,10,0,1,40,0,905,39,0,598,0,0,experiment,NA,NA,0,0.9,0.1,0,1,301,7,NA
fcp-trial,351,1415491,0.0-312.0-0.0,voc_e2,12052,"[{""event"":""fullscreenenter"",""trial"":1,""time"":3824}]",NA,NA,NA,NA,NA,3,#3386FF,#D89F1C,0,0,0,38,1,864,37,1,358,0,0,experiment,NA,NA,1,0.3,0.7,3,2,302,7,NA
fcp-trial,352,1418282,0.0-313.0-0.0,voc_e2,12052,"[{""event"":""fullscreenenter"",""trial"":1,""time"":3824}]",NA,NA,NA,NA,NA,0,#1CD855,#FA92F8,0,10,1,38,1,855,39,0,418.0000000002328,10,0,experiment,NA,NA,2,0.5,0.5,4,5,303,7,NA
fcp-trial,353,1421178,0.0-314.0-0.0,voc_e2,12052,"[{""event"":""fullscreenenter"",""trial"":1,""time"":3824}]",NA,NA,NA,NA,NA,3,#D8271C,#741CD8,0,10,0,38,1,981,39,0,405.0000000002328,10,1,experiment,NA,NA,0,0.1,0.9,1,0,304,7,NA
fcp-trial,354,1424328,0.0-315.0-0.0,voc_e2,12052,"[{""event"":""fullscreenenter"",""trial"":1,""time"":3824}]",NA,NA,NA,NA,NA,0,#741CD8,#D8271C,10,0,1,38,1,855.9999999997672,37,1,764,10,1,experiment,NA,NA,0,0.9,0.1,0,1,305,7,NA
fcp-trial,355,1428137,0.0-316.0-0.0,voc_e2,12052,"[{""event"":""fullscreenenter"",""trial"":1,""time"":3824}]",NA,NA,NA,NA,NA,4,#FA92F8,#1CD855,0,10,0,38,1,1685,37,1,600,0,0,experiment,NA,NA,2,0.5,0.5,5,4,306,7,NA
fcp-trial,356,1432010,0.0-317.0-0.0,voc_e2,12052,"[{""event"":""fullscreenenter"",""trial"":1,""time"":3824}]",NA,NA,NA,NA,NA,6,#3386FF,#D89F1C,10,10,0,40,0,1839.0000000002328,37,1,524,10,0,experiment,NA,NA,1,0.3,0.7,3,2,307,7,NA
fcp-trial,357,1435757,0.0-318.0-0.0,voc_e2,12052,"[{""event"":""fullscreenenter"",""trial"":1,""time"":3824}]",NA,NA,NA,NA,NA,6,#1CD855,#FA92F8,0,0,1,40,0,1773.0000000002328,39,0,464.9999999997672,0,0,experiment,NA,NA,2,0.5,0.5,4,5,308,7,NA
fcp-trial,358,1438848,0.0-319.0-0.0,voc_e2,12052,"[{""event"":""fullscreenenter"",""trial"":1,""time"":3824}]",NA,NA,NA,NA,NA,4,#D8271C,#741CD8,0,10,0,38,1,1177,39,0,404,10,1,experiment,NA,NA,0,0.1,0.9,1,0,309,7,NA
fcp-trial,359,1441578,0.0-320.0-0.0,voc_e2,12052,"[{""event"":""fullscreenenter"",""trial"":1,""time"":3824}]",NA,NA,NA,NA,NA,4,#D89F1C,#3386FF,10,10,1,38,1,896.0000000002328,37,1,314,10,1,experiment,NA,NA,1,0.7,0.3,2,3,310,7,NA
fcp-trial,360,1444533,0.0-321.0-0.0,voc_e2,12052,"[{""event"":""fullscreenenter"",""trial"":1,""time"":3824}]",NA,NA,NA,NA,NA,0,#3386FF,#D89F1C,0,10,0,38,1,1114,39,0,332,10,1,experiment,NA,NA,1,0.3,0.7,3,2,311,7,NA
fcp-trial,361,1447848,0.0-322.0-0.0,voc_e2,12052,"[{""event"":""fullscreenenter"",""trial"":1,""time"":3824}]",NA,NA,NA,NA,NA,2,#D8271C,#741CD8,0,10,0,38,1,1211,39,0,584,10,1,experiment,NA,NA,0,0.1,0.9,1,0,312,7,NA
fcp-trial,362,1451251,0.0-323.0-0.0,voc_e2,12052,"[{""event"":""fullscreenenter"",""trial"":1,""time"":3824}]",NA,NA,NA,NA,NA,5,#1CD855,#FA92F8,10,0,1,38,1,1235,39,0,661,0,0,experiment,NA,NA,2,0.5,0.5,4,5,313,7,NA
fcp-trial,363,1454748,0.0-324.0-0.0,voc_e2,12052,"[{""event"":""fullscreenenter"",""trial"":1,""time"":3824}]",NA,NA,NA,NA,NA,3,#1CD855,#FA92F8,10,0,1,40,0,1200,39,0,778,0,0,experiment,NA,NA,2,0.5,0.5,4,5,314,7,NA
fcp-trial,364,1458571,0.0-325.0-0.0,voc_e2,12052,"[{""event"":""fullscreenenter"",""trial"":1,""time"":3824}]",NA,NA,NA,NA,NA,5,#D89F1C,#3386FF,0,10,1,40,0,1414,37,1,901,0,1,experiment,NA,NA,1,0.7,0.3,2,3,315,7,NA
audio-instructions,365,1467782,0.0-326.0,voc_e2,12052,"[{""event"":""fullscreenenter"",""trial"":1,""time"":3824}]",NA,3575,static/audio/finished.wav,NA,0,NA,NA,NA,NA,NA,NA,NA,NA,NA,NA,NA,NA,NA,NA,NA,NA,NA,NA,NA,NA,NA,NA,NA,NA,NA
audio-instructions,366,1485926,0.0-327.0-0.0,voc_e2,12052,"[{""event"":""fullscreenenter"",""trial"":1,""time"":3824}]",NA,7306,static/audio/explicit1.wav,NA,0,NA,NA,NA,NA,NA,NA,NA,NA,NA,NA,NA,NA,NA,NA,NA,NA,NA,NA,NA,NA,NA,NA,NA,NA,NA
audio-instructions,367,1494525,0.0-327.0-1.0,voc_e2,12052,"[{""event"":""fullscreenenter"",""trial"":1,""time"":3824}]",NA,1005,static/audio/explicit2.wav,NA,0,NA,NA,NA,NA,NA,NA,NA,NA,NA,NA,NA,NA,NA,NA,NA,NA,NA,NA,NA,NA,NA,NA,NA,NA,NA
image-slider-response,368,1510084,0.0-328.0,voc_e2,12052,"[{""event"":""fullscreenenter"",""trial"":1,""time"":3824}]",NA,15558,static/img/machines/machine2.png,NA,NA,NA,NA,NA,NA,NA,NA,NA,NA,NA,NA,NA,NA,NA,NA,explicit,NA,NA,NA,NA,NA,NA,NA,NA,NA,7
image-slider-response,369,1513557,0.0-329.0,voc_e2,12052,"[{""event"":""fullscreenenter"",""trial"":1,""time"":3824}]",NA,3472.000000000233,static/img/machines/machine4.png,NA,NA,NA,NA,NA,NA,NA,NA,NA,NA,NA,NA,NA,NA,NA,NA,explicit,NA,NA,NA,NA,NA,NA,NA,NA,NA,6
image-slider-response,370,1517744,0.0-330.0,voc_e2,12052,"[{""event"":""fullscreenenter"",""trial"":1,""time"":3824}]",NA,4186,static/img/machines/machine5.png,NA,NA,NA,NA,NA,NA,NA,NA,NA,NA,NA,NA,NA,NA,NA,NA,explicit,NA,NA,NA,NA,NA,NA,NA,NA,NA,8
image-slider-response,371,1522061,0.0-331.0,voc_e2,12052,"[{""event"":""fullscreenenter"",""trial"":1,""time"":3824}]",NA,4316,static/img/machines/machine6.png,NA,NA,NA,NA,NA,NA,NA,NA,NA,NA,NA,NA,NA,NA,NA,NA,explicit,NA,NA,NA,NA,NA,NA,NA,NA,NA,3
image-slider-response,372,1524780,0.0-332.0,voc_e2,12052,"[{""event"":""fullscreenenter"",""trial"":1,""time"":3824}]",NA,2718,static/img/machines/machine3.png,NA,NA,NA,NA,NA,NA,NA,NA,NA,NA,NA,NA,NA,NA,NA,NA,explicit,NA,NA,NA,NA,NA,NA,NA,NA,NA,4
image-slider-response,373,1527484,0.0-333.0,voc_e2,12052,"[{""event"":""fullscreenenter"",""trial"":1,""time"":3824}]",NA,2703,static/img/machines/machine1.png,NA,NA,NA,NA,NA,NA,NA,NA,NA,NA,NA,NA,NA,NA,NA,NA,explicit,NA,NA,NA,NA,NA,NA,NA,NA,NA,2
