trial_type,trial_index,time_elapsed,internal_node_id,task_version,subject_id,interactions,success,rt,stimulus,key_press,button_pressed,offer,arcade_color_L,arcade_color_R,arcade_outcome_L,arcade_outcome_R,correct,stage_1_key,stage_1_choice,stage_1_rt,stage_2_key,stage_2_choice,stage_2_rt,stage_3_outcome,accuracy,phase,responses,num_errors,context,reward_prob_L,reward_prob_R,arcade_id_L,arcade_id_R,trial,block,response
pavlovia,0,34,0.0-0.0,voc_e2,12203,[],NA,NA,NA,NA,NA,NA,NA,NA,NA,NA,NA,NA,NA,NA,NA,NA,NA,NA,NA,NA,NA,NA,NA,NA,NA,NA,NA,NA,NA,NA
fullscreen,1,2870,0.0-1.0,voc_e2,12203,"[{""event"":""fullscreenenter"",""trial"":1,""time"":1944}]",TRUE,NA,NA,NA,NA,NA,NA,NA,NA,NA,NA,NA,NA,NA,NA,NA,NA,NA,NA,NA,NA,NA,NA,NA,NA,NA,NA,NA,NA,NA
audio-keyboard-response,2,11332,0.0-2.0,voc_e2,12203,"[{""event"":""fullscreenenter"",""trial"":1,""time"":1944}]",NA,8400,static/audio/beep_loop.wav,32,NA,NA,NA,NA,NA,NA,NA,NA,NA,NA,NA,NA,NA,NA,NA,NA,NA,NA,NA,NA,NA,NA,NA,NA,NA,NA
audio-test,3,12972,0.0-3.0,voc_e2,12203,"[{""event"":""fullscreenenter"",""trial"":1,""time"":1944}]",NA,NA,static/audio/turtle.wav,NA,3,NA,NA,NA,NA,NA,NA,NA,NA,NA,NA,NA,NA,NA,NA,NA,NA,NA,NA,NA,NA,NA,NA,NA,NA,NA
audio-test,4,15011,0.0-4.0,voc_e2,12203,"[{""event"":""fullscreenenter"",""trial"":1,""time"":1944}]",NA,NA,static/audio/shark.wav,NA,2,NA,NA,NA,NA,NA,NA,NA,NA,NA,NA,NA,NA,NA,NA,NA,NA,NA,NA,NA,NA,NA,NA,NA,NA,NA
audio-instructions,5,21684,0.0-5.0-0.0,voc_e2,12203,"[{""event"":""fullscreenenter"",""trial"":1,""time"":1944}]",NA,893,static/audio/instructions1.wav,NA,0,NA,NA,NA,NA,NA,NA,NA,NA,NA,NA,NA,NA,NA,NA,NA,NA,NA,NA,NA,NA,NA,NA,NA,NA,NA
audio-instructions,6,29539,0.0-5.0-1.0,voc_e2,12203,"[{""event"":""fullscreenenter"",""trial"":1,""time"":1944}]",NA,1118.899999976158,static/audio/instructions2.wav,NA,0,NA,NA,NA,NA,NA,NA,NA,NA,NA,NA,NA,NA,NA,NA,NA,NA,NA,NA,NA,NA,NA,NA,NA,NA,NA
audio-instructions,7,39363,0.0-5.0-2.0,voc_e2,12203,"[{""event"":""fullscreenenter"",""trial"":1,""time"":1944}]",NA,4013,static/audio/instructions3.wav,NA,0,NA,NA,NA,NA,NA,NA,NA,NA,NA,NA,NA,NA,NA,NA,NA,NA,NA,NA,NA,NA,NA,NA,NA,NA,NA
audio-instructions,8,53500,0.0-5.0-3.0,voc_e2,12203,"[{""event"":""fullscreenenter"",""trial"":1,""time"":1944}]",NA,908.9000000357628,static/audio/instructions4.wav,NA,0,NA,NA,NA,NA,NA,NA,NA,NA,NA,NA,NA,NA,NA,NA,NA,NA,NA,NA,NA,NA,NA,NA,NA,NA,NA
audio-instructions,9,63380,0.0-5.0-4.0,voc_e2,12203,"[{""event"":""fullscreenenter"",""trial"":1,""time"":1944}]",NA,488.89999997615814,static/audio/instructions5.wav,NA,0,NA,NA,NA,NA,NA,NA,NA,NA,NA,NA,NA,NA,NA,NA,NA,NA,NA,NA,NA,NA,NA,NA,NA,NA,NA
fcp-practice,10,66147,0.0-5.0-5.0-0.0,voc_e2,12203,"[{""event"":""fullscreenenter"",""trial"":1,""time"":1944}]",NA,NA,NA,NA,NA,NA,#EDC948,#46d3c8,10,0,1,null,null,null,37,1,1235.800000011921,10,1,practice,NA,NA,NA,NA,NA,NA,NA,NA,NA,NA
fcp-practice,11,68038,0.0-5.0-5.0-1.0,voc_e2,12203,"[{""event"":""fullscreenenter"",""trial"":1,""time"":1944}]",NA,NA,NA,NA,NA,NA,#EDC948,#46d3c8,10,0,1,null,null,null,37,1,364.5999999642372,10,1,practice,NA,NA,NA,NA,NA,NA,NA,NA,NA,NA
fcp-practice,12,69851,0.0-5.0-5.0-2.0,voc_e2,12203,"[{""event"":""fullscreenenter"",""trial"":1,""time"":1944}]",NA,NA,NA,NA,NA,NA,#EDC948,#46d3c8,0,10,1,null,null,null,37,1,294.2999999523163,0,1,practice,NA,NA,NA,NA,NA,NA,NA,NA,NA,NA
fcp-practice,13,71767,0.0-5.0-5.0-3.0,voc_e2,12203,"[{""event"":""fullscreenenter"",""trial"":1,""time"":1944}]",NA,NA,NA,NA,NA,NA,#EDC948,#46d3c8,10,0,1,null,null,null,37,1,388.60000002384186,10,1,practice,NA,NA,NA,NA,NA,NA,NA,NA,NA,NA
fcp-practice,14,73768,0.0-5.0-5.0-4.0,voc_e2,12203,"[{""event"":""fullscreenenter"",""trial"":1,""time"":1944}]",NA,NA,NA,NA,NA,NA,#EDC948,#46d3c8,10,0,1,null,null,null,37,1,476.9000000357628,10,1,practice,NA,NA,NA,NA,NA,NA,NA,NA,NA,NA
audio-instructions,15,92468,0.0-5.0-6.0,voc_e2,12203,"[{""event"":""fullscreenenter"",""trial"":1,""time"":1944}]",NA,687.1999999880791,static/audio/instructions6.wav,NA,0,NA,NA,NA,NA,NA,NA,NA,NA,NA,NA,NA,NA,NA,NA,NA,NA,NA,NA,NA,NA,NA,NA,NA,NA,NA
audio-instructions,16,117475,0.0-5.0-7.0,voc_e2,12203,"[{""event"":""fullscreenenter"",""trial"":1,""time"":1944}]",NA,5804.699999988079,static/audio/instructions7.wav,NA,0,NA,NA,NA,NA,NA,NA,NA,NA,NA,NA,NA,NA,NA,NA,NA,NA,NA,NA,NA,NA,NA,NA,NA,NA,NA
audio-instructions,17,127476,0.0-5.0-8.0,voc_e2,12203,"[{""event"":""fullscreenenter"",""trial"":1,""time"":1944}]",NA,524.5,static/audio/instructions8.wav,NA,0,NA,NA,NA,NA,NA,NA,NA,NA,NA,NA,NA,NA,NA,NA,NA,NA,NA,NA,NA,NA,NA,NA,NA,NA,NA
fcp-comprehension,18,138038,0.0-5.0-9.0,voc_e2,12203,"[{""event"":""fullscreenenter"",""trial"":1,""time"":1944}]",NA,10558,NA,NA,NA,NA,NA,NA,NA,NA,NA,NA,NA,NA,NA,NA,NA,NA,NA,NA,"true,true",0,NA,NA,NA,NA,NA,NA,NA,NA
audio-instructions,19,145365,0.0-6.0-0.0,voc_e2,12203,"[{""event"":""fullscreenenter"",""trial"":1,""time"":1944}]",NA,1774.5999999642372,static/audio/instructions9.wav,NA,0,NA,NA,NA,NA,NA,NA,NA,NA,NA,NA,NA,NA,NA,NA,NA,NA,NA,NA,NA,NA,NA,NA,NA,NA,NA
audio-instructions,20,158157,0.0-6.0-1.0,voc_e2,12203,"[{""event"":""fullscreenenter"",""trial"":1,""time"":1944}]",NA,676.8000000119209,static/audio/instructions10.wav,NA,0,NA,NA,NA,NA,NA,NA,NA,NA,NA,NA,NA,NA,NA,NA,NA,NA,NA,NA,NA,NA,NA,NA,NA,NA,NA
fcp-trial,21,166707,0.0-6.0-2.0,voc_e2,12203,"[{""event"":""fullscreenenter"",""trial"":1,""time"":1944}]",NA,NA,NA,NA,NA,0,#EDC948,#46d3c8,10,10,1,38,1,5831,39,0,1143,10,0,practice,NA,NA,NA,NA,NA,NA,NA,NA,NA,NA
audio-instructions,22,178524,0.0-6.0-3.0,voc_e2,12203,"[{""event"":""fullscreenenter"",""trial"":1,""time"":1944}]",NA,803.2999999523163,static/audio/instructions11.wav,NA,0,NA,NA,NA,NA,NA,NA,NA,NA,NA,NA,NA,NA,NA,NA,NA,NA,NA,NA,NA,NA,NA,NA,NA,NA,NA
fcp-trial,23,183100,0.0-6.0-4.0,voc_e2,12203,"[{""event"":""fullscreenenter"",""trial"":1,""time"":1944}]",NA,NA,NA,NA,NA,6,#EDC948,#46d3c8,10,10,1,40,0,1855.8999999761581,39,0,1181.300000011921,10,0,practice,NA,NA,NA,NA,NA,NA,NA,NA,NA,NA
audio-instructions,24,202580,0.0-6.0-5.0,voc_e2,12203,"[{""event"":""fullscreenenter"",""trial"":1,""time"":1944}]",NA,789.3999999761581,static/audio/instructions12.wav,NA,0,NA,NA,NA,NA,NA,NA,NA,NA,NA,NA,NA,NA,NA,NA,NA,NA,NA,NA,NA,NA,NA,NA,NA,NA,NA
audio-instructions,25,210915,0.0-6.0-6.0,voc_e2,12203,"[{""event"":""fullscreenenter"",""trial"":1,""time"":1944}]",NA,734.5,static/audio/instructions13.wav,NA,0,NA,NA,NA,NA,NA,NA,NA,NA,NA,NA,NA,NA,NA,NA,NA,NA,NA,NA,NA,NA,NA,NA,NA,NA,NA
audio-instructions,26,219803,0.0-6.0-7.0,voc_e2,12203,"[{""event"":""fullscreenenter"",""trial"":1,""time"":1944}]",NA,442.9000000357628,static/audio/instructions14.wav,NA,0,NA,NA,NA,NA,NA,NA,NA,NA,NA,NA,NA,NA,NA,NA,NA,NA,NA,NA,NA,NA,NA,NA,NA,NA,NA
audio-instructions,27,227587,0.0-7.0-0.0,voc_e2,12203,"[{""event"":""fullscreenenter"",""trial"":1,""time"":1944}]",NA,876.6999999880791,static/audio/instructions15.wav,NA,0,NA,NA,NA,NA,NA,NA,NA,NA,NA,NA,NA,NA,NA,NA,NA,NA,NA,NA,NA,NA,NA,NA,NA,NA,NA
audio-instructions,28,235283,0.0-7.0-1.0,voc_e2,12203,"[{""event"":""fullscreenenter"",""trial"":1,""time"":1944}]",NA,862.7000000476837,static/audio/instructions16.wav,NA,0,NA,NA,NA,NA,NA,NA,NA,NA,NA,NA,NA,NA,NA,NA,NA,NA,NA,NA,NA,NA,NA,NA,NA,NA,NA
audio-instructions,29,243531,0.0-7.0-2.0,voc_e2,12203,"[{""event"":""fullscreenenter"",""trial"":1,""time"":1944}]",NA,571,static/audio/instructions17.wav,NA,0,NA,NA,NA,NA,NA,NA,NA,NA,NA,NA,NA,NA,NA,NA,NA,NA,NA,NA,NA,NA,NA,NA,NA,NA,NA
audio-instructions,30,251691,0.0-7.0-3.0,voc_e2,12203,"[{""event"":""fullscreenenter"",""trial"":1,""time"":1944}]",NA,390.5,static/audio/instructions18.wav,NA,0,NA,NA,NA,NA,NA,NA,NA,NA,NA,NA,NA,NA,NA,NA,NA,NA,NA,NA,NA,NA,NA,NA,NA,NA,NA
audio-instructions,31,259099,0.0-7.0-4.0,voc_e2,12203,"[{""event"":""fullscreenenter"",""trial"":1,""time"":1944}]",NA,668.8000000119209,static/audio/instructions19.wav,NA,0,NA,NA,NA,NA,NA,NA,NA,NA,NA,NA,NA,NA,NA,NA,NA,NA,NA,NA,NA,NA,NA,NA,NA,NA,NA
fcp-comprehension,32,273493,0.0-7.0-5.0,voc_e2,12203,"[{""event"":""fullscreenenter"",""trial"":1,""time"":1944}]",NA,14389.799999952316,NA,NA,NA,NA,NA,NA,NA,NA,NA,NA,NA,NA,NA,NA,NA,NA,NA,NA,"false,false,false,true",0,NA,NA,NA,NA,NA,NA,NA,NA
audio-instructions,33,284220,0.0-8.0,voc_e2,12203,"[{""event"":""fullscreenenter"",""trial"":1,""time"":1944}]",NA,1499.0999999642372,static/audio/ready.wav,NA,0,NA,NA,NA,NA,NA,NA,NA,NA,NA,NA,NA,NA,NA,NA,NA,NA,NA,NA,NA,NA,NA,NA,NA,NA,NA
fcp-trial,34,290483,0.0-9.0-0.0,voc_e2,12203,"[{""event"":""fullscreenenter"",""trial"":1,""time"":1944}]",NA,NA,NA,NA,NA,0,#D89F1C,#3386FF,10,0,1,38,1,3760.899999976158,37,1,971.6999999880792,10,1,experiment,NA,NA,2,0.5,0.5,4,5,1,1,NA
fcp-trial,35,295229,0.0-10.0-0.0,voc_e2,12203,"[{""event"":""fullscreenenter"",""trial"":1,""time"":1944}]",NA,NA,NA,NA,NA,3,#D8271C,#741CD8,0,10,0,40,0,2242.099999964237,39,0,973,10,1,experiment,NA,NA,1,0.3,0.7,3,2,2,1,NA
fcp-trial,36,301605,0.0-11.0-0.0,voc_e2,12203,"[{""event"":""fullscreenenter"",""trial"":1,""time"":1944}]",NA,NA,NA,NA,NA,3,#1CD855,#FA92F8,10,0,1,38,1,3973,37,1,862.0999999642372,10,1,experiment,NA,NA,0,0.9,0.1,0,1,3,1,NA
fcp-trial,37,305167,0.0-12.0-0.0,voc_e2,12203,"[{""event"":""fullscreenenter"",""trial"":1,""time"":1944}]",NA,NA,NA,NA,NA,5,#FA92F8,#1CD855,0,10,0,40,0,1261,37,1,774.8999999761581,0,0,experiment,NA,NA,0,0.1,0.9,1,0,4,1,NA
fcp-trial,38,309771,0.0-13.0-0.0,voc_e2,12203,"[{""event"":""fullscreenenter"",""trial"":1,""time"":1944}]",NA,NA,NA,NA,NA,4,#3386FF,#D89F1C,10,10,0,38,1,2226.300000011921,39,0,850.5,10,1,experiment,NA,NA,2,0.5,0.5,5,4,5,1,NA
fcp-trial,39,313745,0.0-14.0-0.0,voc_e2,12203,"[{""event"":""fullscreenenter"",""trial"":1,""time"":1944}]",NA,NA,NA,NA,NA,5,#741CD8,#D8271C,10,0,1,38,1,1801.5,37,1,651.6000000238419,10,1,experiment,NA,NA,1,0.7,0.3,2,3,6,1,NA
fcp-trial,40,318133,0.0-15.0-0.0,voc_e2,12203,"[{""event"":""fullscreenenter"",""trial"":1,""time"":1944}]",NA,NA,NA,NA,NA,1,#741CD8,#D8271C,10,0,1,38,1,1416,39,0,1452,0,0,experiment,NA,NA,1,0.7,0.3,2,3,7,1,NA
fcp-trial,41,321968,0.0-16.0-0.0,voc_e2,12203,"[{""event"":""fullscreenenter"",""trial"":1,""time"":1944}]",NA,NA,NA,NA,NA,0,#1CD855,#FA92F8,10,0,1,38,1,1754.2999999523163,37,1,563.5,10,1,experiment,NA,NA,0,0.9,0.1,0,1,8,1,NA
fcp-trial,42,325457,0.0-17.0-0.0,voc_e2,12203,"[{""event"":""fullscreenenter"",""trial"":1,""time"":1944}]",NA,NA,NA,NA,NA,2,#741CD8,#D8271C,0,0,1,38,1,1365.0999999642372,37,1,605.6999999880791,0,1,experiment,NA,NA,1,0.7,0.3,2,3,9,1,NA
fcp-trial,43,328614,0.0-18.0-0.0,voc_e2,12203,"[{""event"":""fullscreenenter"",""trial"":1,""time"":1944}]",NA,NA,NA,NA,NA,1,#D89F1C,#3386FF,0,10,1,38,1,1377.6000000238419,37,1,258.5,0,1,experiment,NA,NA,2,0.5,0.5,4,5,10,1,NA
fcp-trial,44,332392,0.0-19.0-0.0,voc_e2,12203,"[{""event"":""fullscreenenter"",""trial"":1,""time"":1944}]",NA,NA,NA,NA,NA,4,#D8271C,#741CD8,10,10,0,38,1,1921.2000000476837,39,0,342.4000000357628,10,1,experiment,NA,NA,1,0.3,0.7,3,2,11,1,NA
fcp-trial,45,335937,0.0-20.0-0.0,voc_e2,12203,"[{""event"":""fullscreenenter"",""trial"":1,""time"":1944}]",NA,NA,NA,NA,NA,4,#1CD855,#FA92F8,10,0,1,40,0,1345.699999988079,39,0,679,0,0,experiment,NA,NA,0,0.9,0.1,0,1,12,1,NA
fcp-trial,46,340097,0.0-21.0-0.0,voc_e2,12203,"[{""event"":""fullscreenenter"",""trial"":1,""time"":1944}]",NA,NA,NA,NA,NA,1,#FA92F8,#1CD855,0,10,0,38,1,1352.7000000476837,39,0,1285.9000000357628,10,1,experiment,NA,NA,0,0.1,0.9,1,0,13,1,NA
fcp-trial,47,344131,0.0-22.0-0.0,voc_e2,12203,"[{""event"":""fullscreenenter"",""trial"":1,""time"":1944}]",NA,NA,NA,NA,NA,5,#3386FF,#D89F1C,10,10,0,40,0,1820.199999988079,37,1,696.6999999880791,10,0,experiment,NA,NA,2,0.5,0.5,5,4,14,1,NA
fcp-trial,48,348197,0.0-23.0-0.0,voc_e2,12203,"[{""event"":""fullscreenenter"",""trial"":1,""time"":1944}]",NA,NA,NA,NA,NA,6,#D8271C,#741CD8,0,10,0,40,0,1885.199999988079,37,1,663.1999999880791,0,0,experiment,NA,NA,1,0.3,0.7,3,2,15,1,NA
fcp-trial,49,352000,0.0-24.0-0.0,voc_e2,12203,"[{""event"":""fullscreenenter"",""trial"":1,""time"":1944}]",NA,NA,NA,NA,NA,6,#1CD855,#FA92F8,10,10,1,40,0,1722.4000000357628,39,0,558.5,10,0,experiment,NA,NA,0,0.9,0.1,0,1,16,1,NA
fcp-trial,50,355416,0.0-25.0-0.0,voc_e2,12203,"[{""event"":""fullscreenenter"",""trial"":1,""time"":1944}]",NA,NA,NA,NA,NA,2,#1CD855,#FA92F8,10,0,1,38,1,1147.4000000357628,37,1,749.7000000476837,10,1,experiment,NA,NA,0,0.9,0.1,0,1,17,1,NA
fcp-trial,51,359561,0.0-26.0-0.0,voc_e2,12203,"[{""event"":""fullscreenenter"",""trial"":1,""time"":1944}]",NA,NA,NA,NA,NA,3,#3386FF,#D89F1C,0,10,0,38,1,2197.300000011921,39,0,426.60000002384186,10,1,experiment,NA,NA,2,0.5,0.5,5,4,18,1,NA
fcp-trial,52,362896,0.0-27.0-0.0,voc_e2,12203,"[{""event"":""fullscreenenter"",""trial"":1,""time"":1944}]",NA,NA,NA,NA,NA,2,#D89F1C,#3386FF,0,0,1,38,1,1498.5,37,1,317.89999997615814,0,1,experiment,NA,NA,2,0.5,0.5,4,5,19,1,NA
fcp-trial,53,366353,0.0-28.0-0.0,voc_e2,12203,"[{""event"":""fullscreenenter"",""trial"":1,""time"":1944}]",NA,NA,NA,NA,NA,0,#741CD8,#D8271C,10,0,1,38,1,1123.800000011921,37,1,809.6000000238419,10,1,experiment,NA,NA,1,0.7,0.3,2,3,20,1,NA
fcp-trial,54,369103,0.0-29.0-0.0,voc_e2,12203,"[{""event"":""fullscreenenter"",""trial"":1,""time"":1944}]",NA,NA,NA,NA,NA,6,#D89F1C,#3386FF,10,0,1,38,1,960.5999999642372,37,1,269.80000001192093,10,1,experiment,NA,NA,2,0.5,0.5,4,5,21,1,NA
fcp-trial,55,374072,0.0-30.0-0.0,voc_e2,12203,"[{""event"":""fullscreenenter"",""trial"":1,""time"":1944}]",NA,NA,NA,NA,NA,3,#1CD855,#FA92F8,0,0,1,38,1,2033.8999999761581,39,0,1414.699999988079,0,0,experiment,NA,NA,0,0.9,0.1,0,1,22,1,NA
fcp-trial,56,378080,0.0-31.0-0.0,voc_e2,12203,"[{""event"":""fullscreenenter"",""trial"":1,""time"":1944}]",NA,NA,NA,NA,NA,1,#3386FF,#D89F1C,10,10,0,38,1,1669.6000000238419,39,0,823.1000000238419,10,1,experiment,NA,NA,2,0.5,0.5,5,4,23,1,NA
fcp-trial,57,381375,0.0-32.0-0.0,voc_e2,12203,"[{""event"":""fullscreenenter"",""trial"":1,""time"":1944}]",NA,NA,NA,NA,NA,4,#FA92F8,#1CD855,0,0,0,38,1,1449.3999999761581,39,0,311.69999998807907,0,1,experiment,NA,NA,0,0.1,0.9,1,0,24,1,NA
fcp-trial,58,384328,0.0-33.0-0.0,voc_e2,12203,"[{""event"":""fullscreenenter"",""trial"":1,""time"":1944}]",NA,NA,NA,NA,NA,6,#741CD8,#D8271C,10,0,1,38,1,748.1999999880791,37,1,685.8000000119209,10,1,experiment,NA,NA,1,0.7,0.3,2,3,25,1,NA
fcp-trial,59,387576,0.0-34.0-0.0,voc_e2,12203,"[{""event"":""fullscreenenter"",""trial"":1,""time"":1944}]",NA,NA,NA,NA,NA,0,#D8271C,#741CD8,0,0,0,38,1,954.3000000119209,39,0,774.6999999880791,0,1,experiment,NA,NA,1,0.3,0.7,3,2,26,1,NA
fcp-trial,60,390720,0.0-35.0-0.0,voc_e2,12203,"[{""event"":""fullscreenenter"",""trial"":1,""time"":1944}]",NA,NA,NA,NA,NA,6,#D89F1C,#3386FF,10,0,1,40,0,1068.6000000238419,39,0,557.5,0,0,experiment,NA,NA,2,0.5,0.5,4,5,27,1,NA
fcp-trial,61,394104,0.0-36.0-0.0,voc_e2,12203,"[{""event"":""fullscreenenter"",""trial"":1,""time"":1944}]",NA,NA,NA,NA,NA,5,#FA92F8,#1CD855,0,10,0,40,0,1213.300000011921,39,0,646.8999999761581,10,1,experiment,NA,NA,0,0.1,0.9,1,0,28,1,NA
fcp-trial,62,397744,0.0-37.0-0.0,voc_e2,12203,"[{""event"":""fullscreenenter"",""trial"":1,""time"":1944}]",NA,NA,NA,NA,NA,0,#D89F1C,#3386FF,10,10,1,38,1,1355.5,37,1,765.8000000119209,10,1,experiment,NA,NA,2,0.5,0.5,4,5,29,1,NA
fcp-trial,63,401520,0.0-38.0-0.0,voc_e2,12203,"[{""event"":""fullscreenenter"",""trial"":1,""time"":1944}]",NA,NA,NA,NA,NA,4,#D8271C,#741CD8,0,10,0,40,0,1749.8999999761581,39,0,510.89999997615814,10,1,experiment,NA,NA,1,0.3,0.7,3,2,30,1,NA
fcp-trial,64,405393,0.0-39.0-0.0,voc_e2,12203,"[{""event"":""fullscreenenter"",""trial"":1,""time"":1944}]",NA,NA,NA,NA,NA,3,#3386FF,#D89F1C,0,0,0,40,0,1822.800000011921,39,0,529.1000000238419,0,1,experiment,NA,NA,2,0.5,0.5,5,4,31,1,NA
fcp-trial,65,408600,0.0-40.0-0.0,voc_e2,12203,"[{""event"":""fullscreenenter"",""trial"":1,""time"":1944}]",NA,NA,NA,NA,NA,1,#FA92F8,#1CD855,0,10,0,38,1,1352.0999999642372,39,0,333.80000001192093,10,1,experiment,NA,NA,0,0.1,0.9,1,0,32,1,NA
fcp-trial,66,411977,0.0-41.0-0.0,voc_e2,12203,"[{""event"":""fullscreenenter"",""trial"":1,""time"":1944}]",NA,NA,NA,NA,NA,5,#3386FF,#D89F1C,10,10,0,40,0,1314.300000011921,37,1,541.7000000476837,10,0,experiment,NA,NA,2,0.5,0.5,5,4,33,1,NA
fcp-trial,67,415368,0.0-42.0-0.0,voc_e2,12203,"[{""event"":""fullscreenenter"",""trial"":1,""time"":1944}]",NA,NA,NA,NA,NA,2,#D8271C,#741CD8,0,10,0,38,1,1210.0999999642372,39,0,662.1000000238419,10,1,experiment,NA,NA,1,0.3,0.7,3,2,34,1,NA
fcp-trial,68,418963,0.0-43.0-0.0,voc_e2,12203,"[{""event"":""fullscreenenter"",""trial"":1,""time"":1944}]",NA,NA,NA,NA,NA,0,#1CD855,#FA92F8,10,0,1,38,1,1662.300000011921,37,1,412.699999988079,10,1,experiment,NA,NA,0,0.9,0.1,0,1,35,1,NA
fcp-trial,69,421561,0.0-44.0-0.0,voc_e2,12203,"[{""event"":""fullscreenenter"",""trial"":1,""time"":1944}]",NA,NA,NA,NA,NA,3,#D8271C,#741CD8,0,10,0,38,1,683.5999999642372,39,0,397.60000002384186,10,1,experiment,NA,NA,1,0.3,0.7,3,2,36,1,NA
fcp-trial,70,424720,0.0-45.0-0.0,voc_e2,12203,"[{""event"":""fullscreenenter"",""trial"":1,""time"":1944}]",NA,NA,NA,NA,NA,4,#3386FF,#D89F1C,0,10,0,38,1,1169.8999999761581,37,1,470.39999997615814,0,0,experiment,NA,NA,2,0.5,0.5,5,4,37,1,NA
fcp-trial,71,427986,0.0-46.0-0.0,voc_e2,12203,"[{""event"":""fullscreenenter"",""trial"":1,""time"":1944}]",NA,NA,NA,NA,NA,6,#FA92F8,#1CD855,0,10,0,40,0,1188.9000000357628,37,1,558.1999999880791,0,0,experiment,NA,NA,0,0.1,0.9,1,0,38,1,NA
fcp-trial,72,431488,0.0-47.0-0.0,voc_e2,12203,"[{""event"":""fullscreenenter"",""trial"":1,""time"":1944}]",NA,NA,NA,NA,NA,5,#D8271C,#741CD8,0,10,0,38,1,1197.5,39,0,790.5999999642372,10,1,experiment,NA,NA,1,0.3,0.7,3,2,39,1,NA
fcp-trial,73,434472,0.0-48.0-0.0,voc_e2,12203,"[{""event"":""fullscreenenter"",""trial"":1,""time"":1944}]",NA,NA,NA,NA,NA,2,#3386FF,#D89F1C,10,0,0,38,1,1207.0999999642372,39,0,262.5,0,1,experiment,NA,NA,2,0.5,0.5,5,4,40,1,NA
fcp-trial,74,437656,0.0-49.0-0.0,voc_e2,12203,"[{""event"":""fullscreenenter"",""trial"":1,""time"":1944}]",NA,NA,NA,NA,NA,2,#FA92F8,#1CD855,0,10,0,38,1,884,39,0,782.3999999761581,10,1,experiment,NA,NA,0,0.1,0.9,1,0,41,1,NA
fcp-trial,75,441257,0.0-50.0-0.0,voc_e2,12203,"[{""event"":""fullscreenenter"",""trial"":1,""time"":1944}]",NA,NA,NA,NA,NA,1,#D8271C,#741CD8,0,10,0,38,1,1533.6000000238419,39,0,550.5,10,1,experiment,NA,NA,1,0.3,0.7,3,2,42,1,NA
fcp-trial,76,444184,0.0-51.0-0.0,voc_e2,12203,"[{""event"":""fullscreenenter"",""trial"":1,""time"":1944}]",NA,NA,NA,NA,NA,4,#D8271C,#741CD8,0,10,0,38,1,1053.2999999523163,39,0,358.69999998807907,10,1,experiment,NA,NA,1,0.3,0.7,3,2,43,1,NA
fcp-trial,77,447176,0.0-52.0-0.0,voc_e2,12203,"[{""event"":""fullscreenenter"",""trial"":1,""time"":1944}]",NA,NA,NA,NA,NA,6,#FA92F8,#1CD855,0,10,0,40,0,1043.300000011921,39,0,430.10000002384186,10,1,experiment,NA,NA,0,0.1,0.9,1,0,44,1,NA
fcp-trial,78,451479,0.0-53.0-0.0,voc_e2,12203,"[{""event"":""fullscreenenter"",""trial"":1,""time"":1944}]",NA,NA,NA,NA,NA,3,#3386FF,#D89F1C,10,0,0,40,0,2278.7000000476837,39,0,509.60000002384186,0,1,experiment,NA,NA,2,0.5,0.5,5,4,45,1,NA
fcp-trial,79,455055,0.0-54.0-0.0,voc_e2,12203,"[{""event"":""fullscreenenter"",""trial"":1,""time"":1944}]",NA,NA,NA,NA,NA,4,#D89F1C,#3386FF,10,10,1,38,1,1429.300000011921,37,1,630.1000000238419,10,1,experiment,NA,NA,2,0.5,0.5,4,5,46,2,NA
fcp-trial,80,458768,0.0-55.0-0.0,voc_e2,12203,"[{""event"":""fullscreenenter"",""trial"":1,""time"":1944}]",NA,NA,NA,NA,NA,4,#1CD855,#FA92F8,10,0,1,40,0,1652,37,1,542.3999999761581,10,1,experiment,NA,NA,0,0.9,0.1,0,1,47,2,NA
fcp-trial,81,462640,0.0-56.0-0.0,voc_e2,12203,"[{""event"":""fullscreenenter"",""trial"":1,""time"":1944}]",NA,NA,NA,NA,NA,0,#D8271C,#741CD8,10,0,0,38,1,1850.2000000476837,39,0,502.4000000357628,0,1,experiment,NA,NA,1,0.3,0.7,3,2,48,2,NA
fcp-trial,82,466167,0.0-57.0-0.0,voc_e2,12203,"[{""event"":""fullscreenenter"",""trial"":1,""time"":1944}]",NA,NA,NA,NA,NA,6,#3386FF,#D89F1C,10,0,0,40,0,1401.3999999761581,37,1,597.6999999880791,10,0,experiment,NA,NA,2,0.5,0.5,5,4,49,2,NA
fcp-trial,83,469738,0.0-58.0-0.0,voc_e2,12203,"[{""event"":""fullscreenenter"",""trial"":1,""time"":1944}]",NA,NA,NA,NA,NA,3,#FA92F8,#1CD855,0,10,0,38,1,1525.5,37,1,520.5,0,0,experiment,NA,NA,0,0.1,0.9,1,0,50,2,NA
fcp-trial,84,473328,0.0-59.0-0.0,voc_e2,12203,"[{""event"":""fullscreenenter"",""trial"":1,""time"":1944}]",NA,NA,NA,NA,NA,1,#FA92F8,#1CD855,0,10,0,38,1,1477.6000000238419,39,0,591.8999999761581,10,1,experiment,NA,NA,0,0.1,0.9,1,0,51,2,NA
fcp-trial,85,477549,0.0-60.0-0.0,voc_e2,12203,"[{""event"":""fullscreenenter"",""trial"":1,""time"":1944}]",NA,NA,NA,NA,NA,0,#D89F1C,#3386FF,10,0,1,38,1,2286.599999964237,37,1,417.7999999523163,10,1,experiment,NA,NA,2,0.5,0.5,4,5,52,2,NA
fcp-trial,86,480680,0.0-61.0-0.0,voc_e2,12203,"[{""event"":""fullscreenenter"",""trial"":1,""time"":1944}]",NA,NA,NA,NA,NA,3,#741CD8,#D8271C,10,0,1,38,1,1201.9000000357628,37,1,414.89999997615814,10,1,experiment,NA,NA,1,0.7,0.3,2,3,53,2,NA
fcp-trial,87,485424,0.0-62.0-0.0,voc_e2,12203,"[{""event"":""fullscreenenter"",""trial"":1,""time"":1944}]",NA,NA,NA,NA,NA,2,#D8271C,#741CD8,0,10,0,38,1,1670.5999999642372,37,1,1559.5,0,0,experiment,NA,NA,1,0.3,0.7,3,2,54,2,NA
fcp-trial,88,488095,0.0-63.0-0.0,voc_e2,12203,"[{""event"":""fullscreenenter"",""trial"":1,""time"":1944}]",NA,NA,NA,NA,NA,0,#1CD855,#FA92F8,10,0,1,38,1,710.0999999642372,37,1,446,10,1,experiment,NA,NA,0,0.9,0.1,0,1,55,2,NA
fcp-trial,89,491336,0.0-64.0-0.0,voc_e2,12203,"[{""event"":""fullscreenenter"",""trial"":1,""time"":1944}]",NA,NA,NA,NA,NA,5,#1CD855,#FA92F8,10,0,1,38,1,760.5999999642372,37,1,966.3000000119208,10,1,experiment,NA,NA,0,0.9,0.1,0,1,56,2,NA
fcp-trial,90,494416,0.0-65.0-0.0,voc_e2,12203,"[{""event"":""fullscreenenter"",""trial"":1,""time"":1944}]",NA,NA,NA,NA,NA,2,#3386FF,#D89F1C,10,10,0,38,1,743.3000000119209,39,0,822.8000000119209,10,1,experiment,NA,NA,2,0.5,0.5,5,4,57,2,NA
fcp-trial,91,497871,0.0-66.0-0.0,voc_e2,12203,"[{""event"":""fullscreenenter"",""trial"":1,""time"":1944}]",NA,NA,NA,NA,NA,6,#D8271C,#741CD8,0,0,0,40,0,1352.300000011921,39,0,582.1999999880791,0,1,experiment,NA,NA,1,0.3,0.7,3,2,58,2,NA
fcp-trial,92,501024,0.0-67.0-0.0,voc_e2,12203,"[{""event"":""fullscreenenter"",""trial"":1,""time"":1944}]",NA,NA,NA,NA,NA,2,#FA92F8,#1CD855,0,10,0,38,1,929.8000000119209,39,0,702.0999999642372,10,1,experiment,NA,NA,0,0.1,0.9,1,0,59,2,NA
fcp-trial,93,505775,0.0-68.0-0.0,voc_e2,12203,"[{""event"":""fullscreenenter"",""trial"":1,""time"":1944}]",NA,NA,NA,NA,NA,5,#D89F1C,#3386FF,0,10,1,40,0,2607,37,1,626.3000000119209,0,1,experiment,NA,NA,2,0.5,0.5,4,5,60,2,NA
fcp-trial,94,510472,0.0-69.0-0.0,voc_e2,12203,"[{""event"":""fullscreenenter"",""trial"":1,""time"":1944}]",NA,NA,NA,NA,NA,1,#741CD8,#D8271C,10,0,1,38,1,2344.599999964237,37,1,837.3000000119209,10,1,experiment,NA,NA,1,0.7,0.3,2,3,61,2,NA
fcp-trial,95,513755,0.0-70.0-0.0,voc_e2,12203,"[{""event"":""fullscreenenter"",""trial"":1,""time"":1944}]",NA,NA,NA,NA,NA,5,#741CD8,#D8271C,10,0,1,40,0,1322.800000011921,37,1,439.10000002384186,10,1,experiment,NA,NA,1,0.7,0.3,2,3,62,2,NA
fcp-trial,96,518129,0.0-71.0-0.0,voc_e2,12203,"[{""event"":""fullscreenenter"",""trial"":1,""time"":1944}]",NA,NA,NA,NA,NA,1,#D89F1C,#3386FF,10,0,1,38,1,1180.300000011921,37,1,1680.9000000357628,10,1,experiment,NA,NA,2,0.5,0.5,4,5,63,2,NA
fcp-trial,97,521775,0.0-72.0-0.0,voc_e2,12203,"[{""event"":""fullscreenenter"",""trial"":1,""time"":1944}]",NA,NA,NA,NA,NA,5,#D89F1C,#3386FF,0,10,1,40,0,1428.800000011921,37,1,702.6999999880791,0,1,experiment,NA,NA,2,0.5,0.5,4,5,64,2,NA
fcp-trial,98,525527,0.0-73.0-0.0,voc_e2,12203,"[{""event"":""fullscreenenter"",""trial"":1,""time"":1944}]",NA,NA,NA,NA,NA,6,#D89F1C,#3386FF,10,0,1,40,0,1583.5999999642372,37,1,651.6999999880791,10,1,experiment,NA,NA,2,0.5,0.5,4,5,65,2,NA
fcp-trial,99,529303,0.0-74.0-0.0,voc_e2,12203,"[{""event"":""fullscreenenter"",""trial"":1,""time"":1944}]",NA,NA,NA,NA,NA,0,#D8271C,#741CD8,0,10,0,38,1,1512.300000011921,39,0,749.6999999880791,10,1,experiment,NA,NA,1,0.3,0.7,3,2,66,2,NA
fcp-trial,100,533328,0.0-75.0-0.0,voc_e2,12203,"[{""event"":""fullscreenenter"",""trial"":1,""time"":1944}]",NA,NA,NA,NA,NA,1,#FA92F8,#1CD855,0,10,0,38,1,1896.8999999761581,39,0,611.8000000119209,10,1,experiment,NA,NA,0,0.1,0.9,1,0,67,2,NA
fcp-trial,101,538432,0.0-76.0-0.0,voc_e2,12203,"[{""event"":""fullscreenenter"",""trial"":1,""time"":1944}]",NA,NA,NA,NA,NA,4,#D8271C,#741CD8,10,10,0,38,1,2874,39,0,711.4000000357628,10,1,experiment,NA,NA,1,0.3,0.7,3,2,68,2,NA
fcp-trial,102,541777,0.0-77.0-0.0,voc_e2,12203,"[{""event"":""fullscreenenter"",""trial"":1,""time"":1944}]",NA,NA,NA,NA,NA,5,#D8271C,#741CD8,10,0,0,40,0,1465.4000000357628,39,0,359.19999998807907,0,1,experiment,NA,NA,1,0.3,0.7,3,2,69,2,NA
fcp-trial,103,545623,0.0-78.0-0.0,voc_e2,12203,"[{""event"":""fullscreenenter"",""trial"":1,""time"":1944}]",NA,NA,NA,NA,NA,1,#D89F1C,#3386FF,10,10,1,38,1,1799.300000011921,37,1,531.6000000238419,10,1,experiment,NA,NA,2,0.5,0.5,4,5,70,2,NA
fcp-trial,104,551192,0.0-79.0-0.0,voc_e2,12203,"[{""event"":""fullscreenenter"",""trial"":1,""time"":1944}]",NA,NA,NA,NA,NA,1,#741CD8,#D8271C,10,0,1,38,1,1296.5999999642372,37,1,2748,10,1,experiment,NA,NA,1,0.7,0.3,2,3,71,2,NA
fcp-trial,105,554680,0.0-80.0-0.0,voc_e2,12203,"[{""event"":""fullscreenenter"",""trial"":1,""time"":1944}]",NA,NA,NA,NA,NA,6,#1CD855,#FA92F8,10,0,1,40,0,1218.0999999642372,39,0,755.1000000238419,0,0,experiment,NA,NA,0,0.9,0.1,0,1,72,2,NA
fcp-trial,106,558055,0.0-81.0-0.0,voc_e2,12203,"[{""event"":""fullscreenenter"",""trial"":1,""time"":1944}]",NA,NA,NA,NA,NA,0,#FA92F8,#1CD855,10,10,0,38,1,1395.6000000238419,39,0,451.800000011921,10,1,experiment,NA,NA,0,0.1,0.9,1,0,73,2,NA
fcp-trial,107,561728,0.0-82.0-0.0,voc_e2,12203,"[{""event"":""fullscreenenter"",""trial"":1,""time"":1944}]",NA,NA,NA,NA,NA,2,#3386FF,#D89F1C,0,0,0,38,1,1813.2999999523163,39,0,342.69999998807907,0,1,experiment,NA,NA,2,0.5,0.5,5,4,74,2,NA
fcp-trial,108,564905,0.0-83.0-0.0,voc_e2,12203,"[{""event"":""fullscreenenter"",""trial"":1,""time"":1944}]",NA,NA,NA,NA,NA,2,#741CD8,#D8271C,0,0,1,38,1,1268.0999999642372,37,1,391.300000011921,0,1,experiment,NA,NA,1,0.7,0.3,2,3,75,2,NA
fcp-trial,109,568257,0.0-84.0-0.0,voc_e2,12203,"[{""event"":""fullscreenenter"",""trial"":1,""time"":1944}]",NA,NA,NA,NA,NA,2,#FA92F8,#1CD855,0,0,0,38,1,885.5999999642372,39,0,951.100000023842,0,1,experiment,NA,NA,0,0.1,0.9,1,0,76,2,NA
fcp-trial,110,571570,0.0-85.0-0.0,voc_e2,12203,"[{""event"":""fullscreenenter"",""trial"":1,""time"":1944}]",NA,NA,NA,NA,NA,0,#3386FF,#D89F1C,10,10,0,38,1,1285.1000000238419,39,0,512.3000000119209,10,1,experiment,NA,NA,2,0.5,0.5,5,4,77,2,NA
fcp-trial,111,574864,0.0-86.0-0.0,voc_e2,12203,"[{""event"":""fullscreenenter"",""trial"":1,""time"":1944}]",NA,NA,NA,NA,NA,3,#D8271C,#741CD8,0,0,0,38,1,1353.3999999761581,39,0,419.10000002384186,0,1,experiment,NA,NA,1,0.3,0.7,3,2,78,2,NA
fcp-trial,112,578922,0.0-87.0-0.0,voc_e2,12203,"[{""event"":""fullscreenenter"",""trial"":1,""time"":1944}]",NA,NA,NA,NA,NA,5,#1CD855,#FA92F8,0,0,1,40,0,1878.3999999761581,37,1,664.9000000357628,0,1,experiment,NA,NA,0,0.9,0.1,0,1,79,2,NA
fcp-trial,113,582904,0.0-88.0-0.0,voc_e2,12203,"[{""event"":""fullscreenenter"",""trial"":1,""time"":1944}]",NA,NA,NA,NA,NA,4,#D89F1C,#3386FF,10,10,1,38,1,1556,39,0,910.7999999523164,10,0,experiment,NA,NA,2,0.5,0.5,4,5,80,2,NA
fcp-trial,114,586655,0.0-89.0-0.0,voc_e2,12203,"[{""event"":""fullscreenenter"",""trial"":1,""time"":1944}]",NA,NA,NA,NA,NA,3,#D89F1C,#3386FF,0,10,1,38,1,1568,39,0,669.4000000357628,10,0,experiment,NA,NA,2,0.5,0.5,4,5,81,2,NA
fcp-trial,115,591568,0.0-90.0-0.0,voc_e2,12203,"[{""event"":""fullscreenenter"",""trial"":1,""time"":1944}]",NA,NA,NA,NA,NA,3,#FA92F8,#1CD855,0,10,0,38,1,2215.100000023842,37,1,1182.4000000357628,0,0,experiment,NA,NA,0,0.1,0.9,1,0,82,2,NA
fcp-trial,116,594912,0.0-91.0-0.0,voc_e2,12203,"[{""event"":""fullscreenenter"",""trial"":1,""time"":1944}]",NA,NA,NA,NA,NA,6,#741CD8,#D8271C,10,10,1,40,0,1207,37,1,622.5,10,1,experiment,NA,NA,1,0.7,0.3,2,3,83,2,NA
fcp-trial,117,598103,0.0-92.0-0.0,voc_e2,12203,"[{""event"":""fullscreenenter"",""trial"":1,""time"":1944}]",NA,NA,NA,NA,NA,4,#FA92F8,#1CD855,0,10,0,38,1,1077.7000000476837,39,0,596.8000000119209,10,1,experiment,NA,NA,0,0.1,0.9,1,0,84,2,NA
fcp-trial,118,601281,0.0-93.0-0.0,voc_e2,12203,"[{""event"":""fullscreenenter"",""trial"":1,""time"":1944}]",NA,NA,NA,NA,NA,0,#FA92F8,#1CD855,0,10,0,38,1,1178,39,0,479.699999988079,10,1,experiment,NA,NA,0,0.1,0.9,1,0,85,2,NA
fcp-trial,119,604297,0.0-94.0-0.0,voc_e2,12203,"[{""event"":""fullscreenenter"",""trial"":1,""time"":1944}]",NA,NA,NA,NA,NA,1,#FA92F8,#1CD855,0,10,0,38,1,909.2000000476837,39,0,591.6000000238419,10,1,experiment,NA,NA,0,0.1,0.9,1,0,86,2,NA
fcp-trial,120,607383,0.0-95.0-0.0,voc_e2,12203,"[{""event"":""fullscreenenter"",""trial"":1,""time"":1944}]",NA,NA,NA,NA,NA,6,#3386FF,#D89F1C,10,10,0,40,0,1093,39,0,479.10000002384186,10,1,experiment,NA,NA,2,0.5,0.5,5,4,87,2,NA
fcp-trial,121,610659,0.0-96.0-0.0,voc_e2,12203,"[{""event"":""fullscreenenter"",""trial"":1,""time"":1944}]",NA,NA,NA,NA,NA,3,#741CD8,#D8271C,10,0,1,38,1,1402.0999999642372,37,1,359.80000001192093,10,1,experiment,NA,NA,1,0.7,0.3,2,3,88,2,NA
fcp-trial,122,614008,0.0-97.0-0.0,voc_e2,12203,"[{""event"":""fullscreenenter"",""trial"":1,""time"":1944}]",NA,NA,NA,NA,NA,4,#1CD855,#FA92F8,10,0,1,38,1,1466.1000000238419,37,1,367.0999999642372,10,1,experiment,NA,NA,0,0.9,0.1,0,1,89,2,NA
fcp-trial,123,617031,0.0-98.0-0.0,voc_e2,12203,"[{""event"":""fullscreenenter"",""trial"":1,""time"":1944}]",NA,NA,NA,NA,NA,0,#D89F1C,#3386FF,0,10,1,38,1,1110.199999988079,37,1,398,0,1,experiment,NA,NA,2,0.5,0.5,4,5,90,2,NA
fcp-trial,124,621192,0.0-99.0-0.0,voc_e2,12203,"[{""event"":""fullscreenenter"",""trial"":1,""time"":1944}]",NA,NA,NA,NA,NA,4,#741CD8,#D8271C,10,0,1,40,0,1754.699999988079,39,0,892.5999999642372,0,0,experiment,NA,NA,1,0.7,0.3,2,3,91,3,NA
fcp-trial,125,624927,0.0-100.0-0.0,voc_e2,12203,"[{""event"":""fullscreenenter"",""trial"":1,""time"":1944}]",NA,NA,NA,NA,NA,5,#1CD855,#FA92F8,10,10,1,40,0,1463.8999999761581,37,1,755,10,1,experiment,NA,NA,0,0.9,0.1,0,1,92,3,NA
fcp-trial,126,628383,0.0-101.0-0.0,voc_e2,12203,"[{""event"":""fullscreenenter"",""trial"":1,""time"":1944}]",NA,NA,NA,NA,NA,3,#3386FF,#D89F1C,10,10,0,38,1,1287.6000000238419,39,0,655.1999999880791,10,1,experiment,NA,NA,2,0.5,0.5,5,4,93,3,NA
fcp-trial,127,631645,0.0-102.0-0.0,voc_e2,12203,"[{""event"":""fullscreenenter"",""trial"":1,""time"":1944}]",NA,NA,NA,NA,NA,0,#D8271C,#741CD8,0,10,0,38,1,1351.300000011921,39,0,389.2000000476837,10,1,experiment,NA,NA,1,0.3,0.7,3,2,94,3,NA
fcp-trial,128,635791,0.0-103.0-0.0,voc_e2,12203,"[{""event"":""fullscreenenter"",""trial"":1,""time"":1944}]",NA,NA,NA,NA,NA,2,#D89F1C,#3386FF,0,0,1,38,1,2173.2000000476837,37,1,452.300000011921,0,1,experiment,NA,NA,2,0.5,0.5,4,5,95,3,NA
fcp-trial,129,638673,0.0-104.0-0.0,voc_e2,12203,"[{""event"":""fullscreenenter"",""trial"":1,""time"":1944}]",NA,NA,NA,NA,NA,1,#D8271C,#741CD8,0,10,0,38,1,996.1999999880791,39,0,368.5,10,1,experiment,NA,NA,1,0.3,0.7,3,2,96,3,NA
fcp-trial,130,641961,0.0-105.0-0.0,voc_e2,12203,"[{""event"":""fullscreenenter"",""trial"":1,""time"":1944}]",NA,NA,NA,NA,NA,6,#1CD855,#FA92F8,10,0,1,40,0,1238.8999999761581,39,0,534.7000000476837,0,0,experiment,NA,NA,0,0.9,0.1,0,1,97,3,NA
fcp-trial,131,644887,0.0-106.0-0.0,voc_e2,12203,"[{""event"":""fullscreenenter"",""trial"":1,""time"":1944}]",NA,NA,NA,NA,NA,2,#1CD855,#FA92F8,10,0,1,38,1,901.6999999880791,37,1,505,10,1,experiment,NA,NA,0,0.9,0.1,0,1,98,3,NA
fcp-trial,132,647887,0.0-107.0-0.0,voc_e2,12203,"[{""event"":""fullscreenenter"",""trial"":1,""time"":1944}]",NA,NA,NA,NA,NA,5,#D89F1C,#3386FF,10,0,1,40,0,1022.5,37,1,462.2000000476837,10,1,experiment,NA,NA,2,0.5,0.5,4,5,99,3,NA
fcp-trial,133,651448,0.0-108.0-0.0,voc_e2,12203,"[{""event"":""fullscreenenter"",""trial"":1,""time"":1944}]",NA,NA,NA,NA,NA,5,#741CD8,#D8271C,10,0,1,40,0,1380.2000000476837,39,0,662.9000000357628,0,0,experiment,NA,NA,1,0.7,0.3,2,3,100,3,NA
fcp-trial,134,656691,0.0-109.0-0.0,voc_e2,12203,"[{""event"":""fullscreenenter"",""trial"":1,""time"":1944}]",NA,NA,NA,NA,NA,2,#D8271C,#741CD8,0,10,0,38,1,3244.599999964237,37,1,478.9000000357628,0,0,experiment,NA,NA,1,0.3,0.7,3,2,101,3,NA
fcp-trial,135,660072,0.0-110.0-0.0,voc_e2,12203,"[{""event"":""fullscreenenter"",""trial"":1,""time"":1944}]",NA,NA,NA,NA,NA,3,#1CD855,#FA92F8,10,0,1,38,1,1010.8999999761581,37,1,854.7999999523163,10,1,experiment,NA,NA,0,0.9,0.1,0,1,102,3,NA
fcp-trial,136,663235,0.0-111.0-0.0,voc_e2,12203,"[{""event"":""fullscreenenter"",""trial"":1,""time"":1944}]",NA,NA,NA,NA,NA,4,#D89F1C,#3386FF,10,0,1,38,1,1390.7000000476837,37,1,253,10,1,experiment,NA,NA,2,0.5,0.5,4,5,103,3,NA
fcp-trial,137,666248,0.0-112.0-0.0,voc_e2,12203,"[{""event"":""fullscreenenter"",""trial"":1,""time"":1944}]",NA,NA,NA,NA,NA,1,#3386FF,#D89F1C,10,10,0,38,1,1219.300000011921,39,0,277.19999998807907,10,1,experiment,NA,NA,2,0.5,0.5,5,4,104,3,NA
fcp-trial,138,669472,0.0-113.0-0.0,voc_e2,12203,"[{""event"":""fullscreenenter"",""trial"":1,""time"":1944}]",NA,NA,NA,NA,NA,6,#741CD8,#D8271C,10,0,1,40,0,1202.8999999761581,39,0,501.5999999642372,0,0,experiment,NA,NA,1,0.7,0.3,2,3,105,3,NA
audio-instructions,139,674387,0.0-114.0,voc_e2,12203,"[{""event"":""fullscreenenter"",""trial"":1,""time"":1944}]",NA,456.89999997615814,static/audio/pause.wav,NA,0,NA,NA,NA,NA,NA,NA,NA,NA,NA,NA,NA,NA,NA,NA,NA,NA,NA,NA,NA,NA,NA,NA,NA,NA,NA
fcp-trial,140,678458,0.0-115.0-0.0,voc_e2,12203,"[{""event"":""fullscreenenter"",""trial"":1,""time"":1944}]",NA,NA,NA,NA,NA,4,#741CD8,#D8271C,0,0,1,38,1,2010,37,1,531.5,0,1,experiment,NA,NA,1,0.7,0.3,2,3,106,3,NA
fcp-trial,141,681569,0.0-116.0-0.0,voc_e2,12203,"[{""event"":""fullscreenenter"",""trial"":1,""time"":1944}]",NA,NA,NA,NA,NA,6,#1CD855,#FA92F8,0,0,1,40,0,1130.1000000238419,39,0,463,0,0,experiment,NA,NA,0,0.9,0.1,0,1,107,3,NA
fcp-trial,142,684583,0.0-117.0-0.0,voc_e2,12203,"[{""event"":""fullscreenenter"",""trial"":1,""time"":1944}]",NA,NA,NA,NA,NA,2,#741CD8,#D8271C,0,0,1,38,1,1069.1000000238419,37,1,421.800000011921,0,1,experiment,NA,NA,1,0.7,0.3,2,3,108,3,NA
fcp-trial,143,687729,0.0-118.0-0.0,voc_e2,12203,"[{""event"":""fullscreenenter"",""trial"":1,""time"":1944}]",NA,NA,NA,NA,NA,1,#3386FF,#D89F1C,0,10,0,38,1,965.1999999880791,37,1,650.9000000357628,0,0,experiment,NA,NA,2,0.5,0.5,5,4,109,3,NA
fcp-trial,144,690375,0.0-119.0-0.0,voc_e2,12203,"[{""event"":""fullscreenenter"",""trial"":1,""time"":1944}]",NA,NA,NA,NA,NA,3,#FA92F8,#1CD855,10,10,0,38,1,810.1000000238419,39,0,297,10,1,experiment,NA,NA,0,0.1,0.9,1,0,110,3,NA
fcp-trial,145,693171,0.0-120.0-0.0,voc_e2,12203,"[{""event"":""fullscreenenter"",""trial"":1,""time"":1944}]",NA,NA,NA,NA,NA,0,#FA92F8,#1CD855,0,10,0,38,1,1005.1000000238419,39,0,257.80000001192093,10,1,experiment,NA,NA,0,0.1,0.9,1,0,111,3,NA
fcp-trial,146,695882,0.0-121.0-0.0,voc_e2,12203,"[{""event"":""fullscreenenter"",""trial"":1,""time"":1944}]",NA,NA,NA,NA,NA,5,#3386FF,#D89F1C,10,0,0,38,1,883.5,39,0,311.30000001192093,0,1,experiment,NA,NA,2,0.5,0.5,5,4,112,3,NA
fcp-trial,147,698838,0.0-122.0-0.0,voc_e2,12203,"[{""event"":""fullscreenenter"",""trial"":1,""time"":1944}]",NA,NA,NA,NA,NA,5,#D8271C,#741CD8,10,10,0,40,0,925.1999999880791,39,0,506.5,10,1,experiment,NA,NA,1,0.3,0.7,3,2,113,3,NA
fcp-trial,148,701670,0.0-123.0-0.0,voc_e2,12203,"[{""event"":""fullscreenenter"",""trial"":1,""time"":1944}]",NA,NA,NA,NA,NA,2,#D89F1C,#3386FF,0,10,1,38,1,1008.3000000119209,37,1,301.5,0,1,experiment,NA,NA,2,0.5,0.5,4,5,114,3,NA
fcp-trial,149,704904,0.0-124.0-0.0,voc_e2,12203,"[{""event"":""fullscreenenter"",""trial"":1,""time"":1944}]",NA,NA,NA,NA,NA,4,#1CD855,#FA92F8,10,0,1,38,1,1031.8999999761581,37,1,673.5,10,1,experiment,NA,NA,0,0.9,0.1,0,1,115,3,NA
fcp-trial,150,707703,0.0-125.0-0.0,voc_e2,12203,"[{""event"":""fullscreenenter"",""trial"":1,""time"":1944}]",NA,NA,NA,NA,NA,3,#3386FF,#D89F1C,0,10,0,38,1,752.5,37,1,530.5999999642372,0,0,experiment,NA,NA,2,0.5,0.5,5,4,116,3,NA
fcp-trial,151,711200,0.0-126.0-0.0,voc_e2,12203,"[{""event"":""fullscreenenter"",""trial"":1,""time"":1944}]",NA,NA,NA,NA,NA,6,#D8271C,#741CD8,0,10,0,40,0,1503.6000000238419,37,1,476.199999988079,0,0,experiment,NA,NA,1,0.3,0.7,3,2,117,3,NA
fcp-trial,152,714900,0.0-127.0-0.0,voc_e2,12203,"[{""event"":""fullscreenenter"",""trial"":1,""time"":1944}]",NA,NA,NA,NA,NA,1,#741CD8,#D8271C,0,0,1,38,1,1335.5,37,1,846.5,0,1,experiment,NA,NA,1,0.7,0.3,2,3,118,3,NA
fcp-trial,153,718079,0.0-128.0-0.0,voc_e2,12203,"[{""event"":""fullscreenenter"",""trial"":1,""time"":1944}]",NA,NA,NA,NA,NA,2,#1CD855,#FA92F8,0,0,1,38,1,1034.699999988079,39,0,631,0,0,experiment,NA,NA,0,0.9,0.1,0,1,119,3,NA
fcp-trial,154,720913,0.0-129.0-0.0,voc_e2,12203,"[{""event"":""fullscreenenter"",""trial"":1,""time"":1944}]",NA,NA,NA,NA,NA,1,#FA92F8,#1CD855,10,10,0,38,1,852,39,0,463.699999988079,10,1,experiment,NA,NA,0,0.1,0.9,1,0,120,3,NA
fcp-trial,155,724728,0.0-130.0-0.0,voc_e2,12203,"[{""event"":""fullscreenenter"",""trial"":1,""time"":1944}]",NA,NA,NA,NA,NA,6,#3386FF,#D89F1C,10,10,0,40,0,1689.9000000357628,39,0,606.3000000119209,10,1,experiment,NA,NA,2,0.5,0.5,5,4,121,3,NA
fcp-trial,156,728328,0.0-131.0-0.0,voc_e2,12203,"[{""event"":""fullscreenenter"",""trial"":1,""time"":1944}]",NA,NA,NA,NA,NA,3,#741CD8,#D8271C,0,0,1,38,1,1163.5,37,1,918,0,1,experiment,NA,NA,1,0.7,0.3,2,3,122,3,NA
fcp-trial,157,731611,0.0-132.0-0.0,voc_e2,12203,"[{""event"":""fullscreenenter"",""trial"":1,""time"":1944}]",NA,NA,NA,NA,NA,0,#3386FF,#D89F1C,0,0,0,38,1,1076.300000011921,39,0,685.8999999761581,0,1,experiment,NA,NA,2,0.5,0.5,5,4,123,3,NA
fcp-trial,158,734945,0.0-133.0-0.0,voc_e2,12203,"[{""event"":""fullscreenenter"",""trial"":1,""time"":1944}]",NA,NA,NA,NA,NA,5,#1CD855,#FA92F8,10,10,1,40,0,1308.199999988079,39,0,510.199999988079,10,0,experiment,NA,NA,0,0.9,0.1,0,1,124,3,NA
fcp-trial,159,738071,0.0-134.0-0.0,voc_e2,12203,"[{""event"":""fullscreenenter"",""trial"":1,""time"":1944}]",NA,NA,NA,NA,NA,0,#741CD8,#D8271C,10,10,1,38,1,1301.800000011921,37,1,309.89999997615814,10,1,experiment,NA,NA,1,0.7,0.3,2,3,125,3,NA
fcp-trial,160,741900,0.0-135.0-0.0,voc_e2,12203,"[{""event"":""fullscreenenter"",""trial"":1,""time"":1944}]",NA,NA,NA,NA,NA,4,#D89F1C,#3386FF,10,0,1,38,1,1339,37,1,972,10,1,experiment,NA,NA,2,0.5,0.5,4,5,126,3,NA
fcp-trial,161,745488,0.0-136.0-0.0,voc_e2,12203,"[{""event"":""fullscreenenter"",""trial"":1,""time"":1944}]",NA,NA,NA,NA,NA,0,#FA92F8,#1CD855,0,10,0,38,1,1614.699999988079,39,0,454.89999997615814,10,1,experiment,NA,NA,0,0.1,0.9,1,0,127,3,NA
fcp-trial,162,749984,0.0-137.0-0.0,voc_e2,12203,"[{""event"":""fullscreenenter"",""trial"":1,""time"":1944}]",NA,NA,NA,NA,NA,5,#D8271C,#741CD8,10,10,0,38,1,2359.5,37,1,623.5,10,0,experiment,NA,NA,1,0.3,0.7,3,2,128,3,NA
fcp-trial,163,753352,0.0-138.0-0.0,voc_e2,12203,"[{""event"":""fullscreenenter"",""trial"":1,""time"":1944}]",NA,NA,NA,NA,NA,0,#D89F1C,#3386FF,0,0,1,38,1,1159,37,1,694.5,0,1,experiment,NA,NA,2,0.5,0.5,4,5,129,3,NA
fcp-trial,164,756464,0.0-139.0-0.0,voc_e2,12203,"[{""event"":""fullscreenenter"",""trial"":1,""time"":1944}]",NA,NA,NA,NA,NA,2,#FA92F8,#1CD855,0,10,0,38,1,1323.699999988079,39,0,270,10,1,experiment,NA,NA,0,0.1,0.9,1,0,130,3,NA
fcp-trial,165,759194,0.0-140.0-0.0,voc_e2,12203,"[{""event"":""fullscreenenter"",""trial"":1,""time"":1944}]",NA,NA,NA,NA,NA,0,#741CD8,#D8271C,10,10,1,38,1,718.8000000119209,39,0,496.10000002384186,10,0,experiment,NA,NA,1,0.7,0.3,2,3,131,3,NA
fcp-trial,166,763441,0.0-141.0-0.0,voc_e2,12203,"[{""event"":""fullscreenenter"",""trial"":1,""time"":1944}]",NA,NA,NA,NA,NA,3,#1CD855,#FA92F8,10,10,1,38,1,1196.9000000357628,37,1,1526.899999976158,10,1,experiment,NA,NA,0,0.9,0.1,0,1,132,3,NA
fcp-trial,167,766743,0.0-142.0-0.0,voc_e2,12203,"[{""event"":""fullscreenenter"",""trial"":1,""time"":1944}]",NA,NA,NA,NA,NA,3,#D8271C,#741CD8,0,0,0,38,1,1020.5999999642372,39,0,766.5999999642372,0,1,experiment,NA,NA,1,0.3,0.7,3,2,133,3,NA
fcp-trial,168,769714,0.0-143.0-0.0,voc_e2,12203,"[{""event"":""fullscreenenter"",""trial"":1,""time"":1944}]",NA,NA,NA,NA,NA,1,#D89F1C,#3386FF,10,0,1,38,1,625.6000000238419,39,0,831.6999999880791,0,0,experiment,NA,NA,2,0.5,0.5,4,5,134,3,NA
fcp-trial,169,772991,0.0-144.0-0.0,voc_e2,12203,"[{""event"":""fullscreenenter"",""trial"":1,""time"":1944}]",NA,NA,NA,NA,NA,1,#1CD855,#FA92F8,10,0,1,38,1,843.4000000357628,37,1,917.5,10,1,experiment,NA,NA,0,0.9,0.1,0,1,135,3,NA
fcp-trial,170,776903,0.0-145.0-0.0,voc_e2,12203,"[{""event"":""fullscreenenter"",""trial"":1,""time"":1944}]",NA,NA,NA,NA,NA,6,#D8271C,#741CD8,10,0,0,40,0,1752.5,39,0,645.9000000357628,0,1,experiment,NA,NA,1,0.3,0.7,3,2,136,4,NA
fcp-trial,171,780407,0.0-146.0-0.0,voc_e2,12203,"[{""event"":""fullscreenenter"",""trial"":1,""time"":1944}]",NA,NA,NA,NA,NA,2,#741CD8,#D8271C,10,10,1,38,1,1688.1000000238419,37,1,302.39999997615814,10,1,experiment,NA,NA,1,0.7,0.3,2,3,137,4,NA
fcp-trial,172,783847,0.0-147.0-0.0,voc_e2,12203,"[{""event"":""fullscreenenter"",""trial"":1,""time"":1944}]",NA,NA,NA,NA,NA,6,#3386FF,#D89F1C,0,0,0,40,0,1446.5,39,0,479.10000002384186,0,1,experiment,NA,NA,2,0.5,0.5,5,4,138,4,NA
fcp-trial,173,786991,0.0-148.0-0.0,voc_e2,12203,"[{""event"":""fullscreenenter"",""trial"":1,""time"":1944}]",NA,NA,NA,NA,NA,5,#D89F1C,#3386FF,0,0,1,38,1,1175.1000000238419,37,1,454.5,0,1,experiment,NA,NA,2,0.5,0.5,4,5,139,4,NA
fcp-trial,174,791004,0.0-149.0-0.0,voc_e2,12203,"[{""event"":""fullscreenenter"",""trial"":1,""time"":1944}]",NA,NA,NA,NA,NA,4,#1CD855,#FA92F8,0,0,1,38,1,1548.800000011921,37,1,943.3000000119208,0,1,experiment,NA,NA,0,0.9,0.1,0,1,140,4,NA
fcp-trial,175,794744,0.0-150.0-0.0,voc_e2,12203,"[{""event"":""fullscreenenter"",""trial"":1,""time"":1944}]",NA,NA,NA,NA,NA,1,#D8271C,#741CD8,0,10,0,38,1,1225.800000011921,39,0,999,10,1,experiment,NA,NA,1,0.3,0.7,3,2,141,4,NA
fcp-trial,176,798232,0.0-151.0-0.0,voc_e2,12203,"[{""event"":""fullscreenenter"",""trial"":1,""time"":1944}]",NA,NA,NA,NA,NA,2,#3386FF,#D89F1C,10,0,0,38,1,1046.300000011921,39,0,926.2000000476836,0,1,experiment,NA,NA,2,0.5,0.5,5,4,142,4,NA
fcp-trial,177,801247,0.0-152.0-0.0,voc_e2,12203,"[{""event"":""fullscreenenter"",""trial"":1,""time"":1944}]",NA,NA,NA,NA,NA,4,#3386FF,#D89F1C,10,0,0,38,1,1110.199999988079,37,1,387.60000002384186,10,0,experiment,NA,NA,2,0.5,0.5,5,4,143,4,NA
fcp-trial,178,804713,0.0-153.0-0.0,voc_e2,12203,"[{""event"":""fullscreenenter"",""trial"":1,""time"":1944}]",NA,NA,NA,NA,NA,5,#1CD855,#FA92F8,10,0,1,40,0,1435.2000000476837,39,0,512.7000000476837,0,0,experiment,NA,NA,0,0.9,0.1,0,1,144,4,NA
fcp-trial,179,808645,0.0-154.0-0.0,voc_e2,12203,"[{""event"":""fullscreenenter"",""trial"":1,""time"":1944}]",NA,NA,NA,NA,NA,4,#741CD8,#D8271C,10,0,1,38,1,1021.6999999880791,37,1,1383.7000000476835,10,1,experiment,NA,NA,1,0.7,0.3,2,3,145,4,NA
fcp-trial,180,811240,0.0-155.0-0.0,voc_e2,12203,"[{""event"":""fullscreenenter"",""trial"":1,""time"":1944}]",NA,NA,NA,NA,NA,6,#FA92F8,#1CD855,10,10,0,38,1,581.5,39,0,495,10,1,experiment,NA,NA,0,0.1,0.9,1,0,146,4,NA
fcp-trial,181,813691,0.0-156.0-0.0,voc_e2,12203,"[{""event"":""fullscreenenter"",""trial"":1,""time"":1944}]",NA,NA,NA,NA,NA,3,#D89F1C,#3386FF,10,0,1,38,1,534.9000000357628,39,0,398.300000011921,0,0,experiment,NA,NA,2,0.5,0.5,4,5,147,4,NA
fcp-trial,182,816862,0.0-157.0-0.0,voc_e2,12203,"[{""event"":""fullscreenenter"",""trial"":1,""time"":1944}]",NA,NA,NA,NA,NA,1,#741CD8,#D8271C,10,0,1,38,1,1152.5,37,1,503.4000000357628,10,1,experiment,NA,NA,1,0.7,0.3,2,3,148,4,NA
fcp-trial,183,821297,0.0-158.0-0.0,voc_e2,12203,"[{""event"":""fullscreenenter"",""trial"":1,""time"":1944}]",NA,NA,NA,NA,NA,4,#D8271C,#741CD8,0,10,0,38,1,2366.599999964237,39,0,550.8000000119209,10,1,experiment,NA,NA,1,0.3,0.7,3,2,149,4,NA
fcp-trial,184,825847,0.0-159.0-0.0,voc_e2,12203,"[{""event"":""fullscreenenter"",""trial"":1,""time"":1944}]",NA,NA,NA,NA,NA,3,#1CD855,#FA92F8,10,0,1,38,1,2453.600000023842,37,1,581,10,1,experiment,NA,NA,0,0.9,0.1,0,1,150,4,NA
fcp-trial,185,828753,0.0-160.0-0.0,voc_e2,12203,"[{""event"":""fullscreenenter"",""trial"":1,""time"":1944}]",NA,NA,NA,NA,NA,2,#741CD8,#D8271C,0,0,1,38,1,942.2999999523163,37,1,447.2999999523163,0,1,experiment,NA,NA,1,0.7,0.3,2,3,151,4,NA
fcp-trial,186,831639,0.0-161.0-0.0,voc_e2,12203,"[{""event"":""fullscreenenter"",""trial"":1,""time"":1944}]",NA,NA,NA,NA,NA,3,#D8271C,#741CD8,0,10,0,38,1,724.4000000357628,39,0,639.5,10,1,experiment,NA,NA,1,0.3,0.7,3,2,152,4,NA
fcp-trial,187,834576,0.0-162.0-0.0,voc_e2,12203,"[{""event"":""fullscreenenter"",""trial"":1,""time"":1944}]",NA,NA,NA,NA,NA,4,#D89F1C,#3386FF,10,10,1,38,1,1119.300000011921,39,0,298.80000001192093,10,0,experiment,NA,NA,2,0.5,0.5,4,5,153,4,NA
fcp-trial,188,838343,0.0-163.0-0.0,voc_e2,12203,"[{""event"":""fullscreenenter"",""trial"":1,""time"":1944}]",NA,NA,NA,NA,NA,5,#D89F1C,#3386FF,0,0,1,40,0,1494.3999999761581,37,1,754.3999999761581,0,1,experiment,NA,NA,2,0.5,0.5,4,5,154,4,NA
fcp-trial,189,842488,0.0-164.0-0.0,voc_e2,12203,"[{""event"":""fullscreenenter"",""trial"":1,""time"":1944}]",NA,NA,NA,NA,NA,6,#FA92F8,#1CD855,0,10,0,38,1,1056.0999999642372,39,0,1575.0999999642372,10,1,experiment,NA,NA,0,0.1,0.9,1,0,155,4,NA
fcp-trial,190,845484,0.0-165.0-0.0,voc_e2,12203,"[{""event"":""fullscreenenter"",""trial"":1,""time"":1944}]",NA,NA,NA,NA,NA,6,#741CD8,#D8271C,10,0,1,40,0,855.1999999880791,39,0,620.0999999642372,0,0,experiment,NA,NA,1,0.7,0.3,2,3,156,4,NA
fcp-trial,191,849320,0.0-166.0-0.0,voc_e2,12203,"[{""event"":""fullscreenenter"",""trial"":1,""time"":1944}]",NA,NA,NA,NA,NA,2,#D89F1C,#3386FF,0,0,1,38,1,1414.699999988079,39,0,902.600000023842,0,0,experiment,NA,NA,2,0.5,0.5,4,5,157,4,NA
fcp-trial,192,852239,0.0-167.0-0.0,voc_e2,12203,"[{""event"":""fullscreenenter"",""trial"":1,""time"":1944}]",NA,NA,NA,NA,NA,0,#D89F1C,#3386FF,0,0,1,38,1,951,37,1,454.9000000357628,0,1,experiment,NA,NA,2,0.5,0.5,4,5,158,4,NA
fcp-trial,193,855471,0.0-168.0-0.0,voc_e2,12203,"[{""event"":""fullscreenenter"",""trial"":1,""time"":1944}]",NA,NA,NA,NA,NA,4,#FA92F8,#1CD855,0,10,0,38,1,822.8000000119209,39,0,893.5,10,1,experiment,NA,NA,0,0.1,0.9,1,0,159,4,NA
fcp-trial,194,858512,0.0-169.0-0.0,voc_e2,12203,"[{""event"":""fullscreenenter"",""trial"":1,""time"":1944}]",NA,NA,NA,NA,NA,5,#741CD8,#D8271C,10,0,1,38,1,838.5,37,1,686.6000000238419,10,1,experiment,NA,NA,1,0.7,0.3,2,3,160,4,NA
fcp-trial,195,860986,0.0-170.0-0.0,voc_e2,12203,"[{""event"":""fullscreenenter"",""trial"":1,""time"":1944}]",NA,NA,NA,NA,NA,2,#1CD855,#FA92F8,10,0,1,38,1,436.5,37,1,520.3000000119209,10,1,experiment,NA,NA,0,0.9,0.1,0,1,161,4,NA
fcp-trial,196,863367,0.0-171.0-0.0,voc_e2,12203,"[{""event"":""fullscreenenter"",""trial"":1,""time"":1944}]",NA,NA,NA,NA,NA,3,#3386FF,#D89F1C,10,0,0,38,1,451.7000000476837,37,1,413.9000000357628,10,0,experiment,NA,NA,2,0.5,0.5,5,4,162,4,NA
fcp-trial,197,866072,0.0-172.0-0.0,voc_e2,12203,"[{""event"":""fullscreenenter"",""trial"":1,""time"":1944}]",NA,NA,NA,NA,NA,6,#D89F1C,#3386FF,0,0,1,40,0,752,39,0,438,0,0,experiment,NA,NA,2,0.5,0.5,4,5,163,4,NA
fcp-trial,198,868650,0.0-173.0-0.0,voc_e2,12203,"[{""event"":""fullscreenenter"",""trial"":1,""time"":1944}]",NA,NA,NA,NA,NA,0,#D8271C,#741CD8,0,10,0,38,1,766.1000000238419,39,0,293.39999997615814,10,1,experiment,NA,NA,1,0.3,0.7,3,2,164,4,NA
fcp-trial,199,872391,0.0-174.0-0.0,voc_e2,12203,"[{""event"":""fullscreenenter"",""trial"":1,""time"":1944}]",NA,NA,NA,NA,NA,1,#D89F1C,#3386FF,10,10,1,38,1,628,37,1,1594,10,1,experiment,NA,NA,2,0.5,0.5,4,5,165,4,NA
fcp-trial,200,875233,0.0-175.0-0.0,voc_e2,12203,"[{""event"":""fullscreenenter"",""trial"":1,""time"":1944}]",NA,NA,NA,NA,NA,1,#1CD855,#FA92F8,10,0,1,38,1,650.6999999880791,37,1,671.3999999761581,10,1,experiment,NA,NA,0,0.9,0.1,0,1,166,4,NA
fcp-trial,201,877767,0.0-176.0-0.0,voc_e2,12203,"[{""event"":""fullscreenenter"",""trial"":1,""time"":1944}]",NA,NA,NA,NA,NA,0,#1CD855,#FA92F8,10,0,1,38,1,597.4000000357628,37,1,422.10000002384186,10,1,experiment,NA,NA,0,0.9,0.1,0,1,167,4,NA
fcp-trial,202,880233,0.0-177.0-0.0,voc_e2,12203,"[{""event"":""fullscreenenter"",""trial"":1,""time"":1944}]",NA,NA,NA,NA,NA,5,#1CD855,#FA92F8,10,0,1,38,1,628.6000000238419,37,1,318.80000001192093,10,1,experiment,NA,NA,0,0.9,0.1,0,1,168,4,NA
fcp-trial,203,882986,0.0-178.0-0.0,voc_e2,12203,"[{""event"":""fullscreenenter"",""trial"":1,""time"":1944}]",NA,NA,NA,NA,NA,2,#FA92F8,#1CD855,0,10,0,38,1,741.8000000119209,37,1,497.39999997615814,0,0,experiment,NA,NA,0,0.1,0.9,1,0,169,4,NA
fcp-trial,204,885860,0.0-179.0-0.0,voc_e2,12203,"[{""event"":""fullscreenenter"",""trial"":1,""time"":1944}]",NA,NA,NA,NA,NA,4,#D8271C,#741CD8,0,10,0,38,1,572.5,39,0,783.5,10,1,experiment,NA,NA,1,0.3,0.7,3,2,170,4,NA
fcp-trial,205,888320,0.0-180.0-0.0,voc_e2,12203,"[{""event"":""fullscreenenter"",""trial"":1,""time"":1944}]",NA,NA,NA,NA,NA,6,#3386FF,#D89F1C,10,0,0,40,0,475.7000000476837,37,1,466.39999997615814,10,0,experiment,NA,NA,2,0.5,0.5,5,4,171,4,NA
fcp-trial,206,892911,0.0-181.0-0.0,voc_e2,12203,"[{""event"":""fullscreenenter"",""trial"":1,""time"":1944}]",NA,NA,NA,NA,NA,5,#741CD8,#D8271C,10,0,1,38,1,2806.5,37,1,269.60000002384186,10,1,experiment,NA,NA,1,0.7,0.3,2,3,172,4,NA
fcp-trial,207,895536,0.0-182.0-0.0,voc_e2,12203,"[{""event"":""fullscreenenter"",""trial"":1,""time"":1944}]",NA,NA,NA,NA,NA,4,#1CD855,#FA92F8,0,0,1,38,1,710.6000000238419,37,1,398.4000000357628,0,1,experiment,NA,NA,0,0.9,0.1,0,1,173,4,NA
fcp-trial,208,898247,0.0-183.0-0.0,voc_e2,12203,"[{""event"":""fullscreenenter"",""trial"":1,""time"":1944}]",NA,NA,NA,NA,NA,6,#FA92F8,#1CD855,0,10,0,38,1,724.6000000238419,37,1,467.5999999642372,0,0,experiment,NA,NA,0,0.1,0.9,1,0,174,4,NA
fcp-trial,209,901519,0.0-184.0-0.0,voc_e2,12203,"[{""event"":""fullscreenenter"",""trial"":1,""time"":1944}]",NA,NA,NA,NA,NA,0,#741CD8,#D8271C,10,0,1,38,1,779.6999999880791,37,1,971.6999999880792,10,1,experiment,NA,NA,1,0.7,0.3,2,3,175,4,NA
fcp-trial,210,906989,0.0-185.0-0.0,voc_e2,12203,"[{""event"":""fullscreenenter"",""trial"":1,""time"":1944}]",NA,NA,NA,NA,NA,1,#3386FF,#D89F1C,0,0,0,38,1,1187,39,0,2766.2000000476837,0,1,experiment,NA,NA,2,0.5,0.5,5,4,176,4,NA
fcp-trial,211,909846,0.0-186.0-0.0,voc_e2,12203,"[{""event"":""fullscreenenter"",""trial"":1,""time"":1944}]",NA,NA,NA,NA,NA,1,#1CD855,#FA92F8,10,10,1,38,1,1024.699999988079,37,1,317.69999998807907,10,1,experiment,NA,NA,0,0.9,0.1,0,1,177,4,NA
fcp-trial,212,913337,0.0-187.0-0.0,voc_e2,12203,"[{""event"":""fullscreenenter"",""trial"":1,""time"":1944}]",NA,NA,NA,NA,NA,2,#D89F1C,#3386FF,0,0,1,38,1,1041.2999999523163,39,0,931.9000000357628,0,0,experiment,NA,NA,2,0.5,0.5,4,5,178,4,NA
fcp-trial,213,916782,0.0-188.0-0.0,voc_e2,12203,"[{""event"":""fullscreenenter"",""trial"":1,""time"":1944}]",NA,NA,NA,NA,NA,6,#D8271C,#741CD8,0,10,0,40,0,1440.5,37,1,483.5,0,0,experiment,NA,NA,1,0.3,0.7,3,2,179,4,NA
fcp-trial,214,920239,0.0-189.0-0.0,voc_e2,12203,"[{""event"":""fullscreenenter"",""trial"":1,""time"":1944}]",NA,NA,NA,NA,NA,5,#1CD855,#FA92F8,10,0,1,38,1,1053.699999988079,39,0,886.5999999642372,0,0,experiment,NA,NA,0,0.9,0.1,0,1,180,4,NA
fcp-trial,215,923061,0.0-190.0-0.0,voc_e2,12203,"[{""event"":""fullscreenenter"",""trial"":1,""time"":1944}]",NA,NA,NA,NA,NA,0,#3386FF,#D89F1C,0,0,0,38,1,718.8999999761581,39,0,588,0,1,experiment,NA,NA,2,0.5,0.5,5,4,181,5,NA
fcp-trial,216,926383,0.0-191.0-0.0,voc_e2,12203,"[{""event"":""fullscreenenter"",""trial"":1,""time"":1944}]",NA,NA,NA,NA,NA,3,#1CD855,#FA92F8,10,0,1,38,1,1036.6000000238419,37,1,766.9000000357628,10,1,experiment,NA,NA,0,0.9,0.1,0,1,182,5,NA
fcp-trial,217,929483,0.0-192.0-0.0,voc_e2,12203,"[{""event"":""fullscreenenter"",""trial"":1,""time"":1944}]",NA,NA,NA,NA,NA,3,#D8271C,#741CD8,10,10,0,38,1,766.1000000238419,39,0,815.6000000238419,10,1,experiment,NA,NA,1,0.3,0.7,3,2,183,5,NA
fcp-trial,218,932216,0.0-193.0-0.0,voc_e2,12203,"[{""event"":""fullscreenenter"",""trial"":1,""time"":1944}]",NA,NA,NA,NA,NA,1,#D8271C,#741CD8,10,10,0,38,1,770.9000000357628,39,0,447.800000011921,10,1,experiment,NA,NA,1,0.3,0.7,3,2,184,5,NA
fcp-trial,219,935128,0.0-194.0-0.0,voc_e2,12203,"[{""event"":""fullscreenenter"",""trial"":1,""time"":1944}]",NA,NA,NA,NA,NA,5,#D89F1C,#3386FF,10,10,1,38,1,755.5999999642372,39,0,639.6999999880791,10,0,experiment,NA,NA,2,0.5,0.5,4,5,185,5,NA
fcp-trial,220,938078,0.0-195.0-0.0,voc_e2,12203,"[{""event"":""fullscreenenter"",""trial"":1,""time"":1944}]",NA,NA,NA,NA,NA,4,#D89F1C,#3386FF,10,10,1,38,1,966.3999999761581,39,0,467,10,0,experiment,NA,NA,2,0.5,0.5,4,5,186,5,NA
fcp-trial,221,941544,0.0-196.0-0.0,voc_e2,12203,"[{""event"":""fullscreenenter"",""trial"":1,""time"":1944}]",NA,NA,NA,NA,NA,0,#FA92F8,#1CD855,0,10,0,38,1,807.5,39,0,1139.600000023842,10,1,experiment,NA,NA,0,0.1,0.9,1,0,187,5,NA
fcp-trial,222,943974,0.0-197.0-0.0,voc_e2,12203,"[{""event"":""fullscreenenter"",""trial"":1,""time"":1944}]",NA,NA,NA,NA,NA,3,#D89F1C,#3386FF,10,10,1,38,1,517.1000000238419,39,0,398.0999999642372,10,0,experiment,NA,NA,2,0.5,0.5,4,5,188,5,NA
fcp-trial,223,946758,0.0-198.0-0.0,voc_e2,12203,"[{""event"":""fullscreenenter"",""trial"":1,""time"":1944}]",NA,NA,NA,NA,NA,2,#741CD8,#D8271C,10,0,1,38,1,684.3999999761581,37,1,581.5999999642372,10,1,experiment,NA,NA,1,0.7,0.3,2,3,189,5,NA
fcp-trial,224,949728,0.0-199.0-0.0,voc_e2,12203,"[{""event"":""fullscreenenter"",""trial"":1,""time"":1944}]",NA,NA,NA,NA,NA,5,#FA92F8,#1CD855,10,10,0,38,1,688.8000000119209,39,0,762.5,10,1,experiment,NA,NA,0,0.1,0.9,1,0,190,5,NA
fcp-trial,225,952485,0.0-200.0-0.0,voc_e2,12203,"[{""event"":""fullscreenenter"",""trial"":1,""time"":1944}]",NA,NA,NA,NA,NA,2,#741CD8,#D8271C,10,0,1,38,1,801,37,1,437.10000002384186,10,1,experiment,NA,NA,1,0.7,0.3,2,3,191,5,NA
fcp-trial,226,954857,0.0-201.0-0.0,voc_e2,12203,"[{""event"":""fullscreenenter"",""trial"":1,""time"":1944}]",NA,NA,NA,NA,NA,6,#D89F1C,#3386FF,10,10,1,38,1,465.4000000357628,39,0,389.199999988079,10,0,experiment,NA,NA,2,0.5,0.5,4,5,192,5,NA
fcp-trial,227,958089,0.0-202.0-0.0,voc_e2,12203,"[{""event"":""fullscreenenter"",""trial"":1,""time"":1944}]",NA,NA,NA,NA,NA,6,#FA92F8,#1CD855,0,10,0,38,1,436.5999999642372,39,0,1279.699999988079,10,1,experiment,NA,NA,0,0.1,0.9,1,0,193,5,NA
fcp-trial,228,960494,0.0-203.0-0.0,voc_e2,12203,"[{""event"":""fullscreenenter"",""trial"":1,""time"":1944}]",NA,NA,NA,NA,NA,3,#D8271C,#741CD8,0,10,0,38,1,612.1999999880791,39,0,278.30000001192093,10,1,experiment,NA,NA,1,0.3,0.7,3,2,194,5,NA
fcp-trial,229,963094,0.0-204.0-0.0,voc_e2,12203,"[{""event"":""fullscreenenter"",""trial"":1,""time"":1944}]",NA,NA,NA,NA,NA,3,#FA92F8,#1CD855,10,10,0,38,1,805.8000000119209,39,0,274.80000001192093,10,1,experiment,NA,NA,0,0.1,0.9,1,0,195,5,NA
fcp-trial,230,965655,0.0-205.0-0.0,voc_e2,12203,"[{""event"":""fullscreenenter"",""trial"":1,""time"":1944}]",NA,NA,NA,NA,NA,4,#FA92F8,#1CD855,0,10,0,38,1,647,39,0,397.39999997615814,10,1,experiment,NA,NA,0,0.1,0.9,1,0,196,5,NA
fcp-trial,231,968442,0.0-206.0-0.0,voc_e2,12203,"[{""event"":""fullscreenenter"",""trial"":1,""time"":1944}]",NA,NA,NA,NA,NA,1,#3386FF,#D89F1C,10,10,0,38,1,599,37,1,671,10,0,experiment,NA,NA,2,0.5,0.5,5,4,197,5,NA
fcp-trial,232,972679,0.0-207.0-0.0,voc_e2,12203,"[{""event"":""fullscreenenter"",""trial"":1,""time"":1944}]",NA,NA,NA,NA,NA,0,#741CD8,#D8271C,10,0,1,38,1,1075.0999999642372,37,1,1636.699999988079,10,1,experiment,NA,NA,1,0.7,0.3,2,3,198,5,NA
fcp-trial,233,976783,0.0-208.0-0.0,voc_e2,12203,"[{""event"":""fullscreenenter"",""trial"":1,""time"":1944}]",NA,NA,NA,NA,NA,2,#D89F1C,#3386FF,0,10,1,38,1,646,39,0,1942.100000023842,10,0,experiment,NA,NA,2,0.5,0.5,4,5,199,5,NA
fcp-trial,234,980343,0.0-209.0-0.0,voc_e2,12203,"[{""event"":""fullscreenenter"",""trial"":1,""time"":1944}]",NA,NA,NA,NA,NA,0,#FA92F8,#1CD855,0,10,0,38,1,689.6999999880791,39,0,1355.600000023842,10,1,experiment,NA,NA,0,0.1,0.9,1,0,200,5,NA
fcp-trial,235,983026,0.0-210.0-0.0,voc_e2,12203,"[{""event"":""fullscreenenter"",""trial"":1,""time"":1944}]",NA,NA,NA,NA,NA,0,#D89F1C,#3386FF,0,10,1,38,1,622,39,0,537.1999999880791,10,0,experiment,NA,NA,2,0.5,0.5,4,5,201,5,NA
fcp-trial,236,986360,0.0-211.0-0.0,voc_e2,12203,"[{""event"":""fullscreenenter"",""trial"":1,""time"":1944}]",NA,NA,NA,NA,NA,5,#D8271C,#741CD8,0,10,0,38,1,1164.3999999761581,39,0,654.8000000119209,10,1,experiment,NA,NA,1,0.3,0.7,3,2,202,5,NA
fcp-trial,237,990944,0.0-212.0-0.0,voc_e2,12203,"[{""event"":""fullscreenenter"",""trial"":1,""time"":1944}]",NA,NA,NA,NA,NA,2,#FA92F8,#1CD855,0,10,0,38,1,1662.699999988079,39,0,1406.800000011921,10,1,experiment,NA,NA,0,0.1,0.9,1,0,203,5,NA
fcp-trial,238,994135,0.0-213.0-0.0,voc_e2,12203,"[{""event"":""fullscreenenter"",""trial"":1,""time"":1944}]",NA,NA,NA,NA,NA,3,#3386FF,#D89F1C,10,0,0,38,1,1286.2999999523163,37,1,391.800000011921,10,0,experiment,NA,NA,2,0.5,0.5,5,4,204,5,NA
fcp-trial,239,997390,0.0-214.0-0.0,voc_e2,12203,"[{""event"":""fullscreenenter"",""trial"":1,""time"":1944}]",NA,NA,NA,NA,NA,5,#D89F1C,#3386FF,10,0,1,38,1,820.1999999880791,39,0,919.100000023842,0,0,experiment,NA,NA,2,0.5,0.5,4,5,205,5,NA
fcp-trial,240,1000206,0.0-215.0-0.0,voc_e2,12203,"[{""event"":""fullscreenenter"",""trial"":1,""time"":1944}]",NA,NA,NA,NA,NA,4,#3386FF,#D89F1C,10,0,0,40,0,932.6999999880791,37,1,365.300000011921,10,0,experiment,NA,NA,2,0.5,0.5,5,4,206,5,NA
fcp-trial,241,1003599,0.0-216.0-0.0,voc_e2,12203,"[{""event"":""fullscreenenter"",""trial"":1,""time"":1944}]",NA,NA,NA,NA,NA,4,#D8271C,#741CD8,10,10,0,40,0,1443.7000000476837,39,0,425.89999997615814,10,1,experiment,NA,NA,1,0.3,0.7,3,2,207,5,NA
fcp-trial,242,1006830,0.0-217.0-0.0,voc_e2,12203,"[{""event"":""fullscreenenter"",""trial"":1,""time"":1944}]",NA,NA,NA,NA,NA,1,#FA92F8,#1CD855,10,10,0,38,1,1411.800000011921,39,0,302.19999998807907,10,1,experiment,NA,NA,0,0.1,0.9,1,0,208,5,NA
fcp-trial,243,1010171,0.0-218.0-0.0,voc_e2,12203,"[{""event"":""fullscreenenter"",""trial"":1,""time"":1944}]",NA,NA,NA,NA,NA,6,#741CD8,#D8271C,10,0,1,40,0,1387.4000000357628,37,1,432.5999999642372,10,1,experiment,NA,NA,1,0.7,0.3,2,3,209,5,NA
fcp-trial,244,1013581,0.0-219.0-0.0,voc_e2,12203,"[{""event"":""fullscreenenter"",""trial"":1,""time"":1944}]",NA,NA,NA,NA,NA,1,#741CD8,#D8271C,10,0,1,40,0,1266.699999988079,37,1,620.8000000119209,10,1,experiment,NA,NA,1,0.7,0.3,2,3,210,5,NA
audio-instructions,245,1024458,0.0-220.0,voc_e2,12203,"[{""event"":""fullscreenenter"",""trial"":1,""time"":1944}]",NA,6418.699999988079,static/audio/pause.wav,NA,0,NA,NA,NA,NA,NA,NA,NA,NA,NA,NA,NA,NA,NA,NA,NA,NA,NA,NA,NA,NA,NA,NA,NA,NA,NA
fcp-trial,246,1029008,0.0-221.0-0.0,voc_e2,12203,"[{""event"":""fullscreenenter"",""trial"":1,""time"":1944}]",NA,NA,NA,NA,NA,2,#D89F1C,#3386FF,0,0,1,38,1,2503.399999976158,39,0,510.4000000357628,0,0,experiment,NA,NA,2,0.5,0.5,4,5,211,5,NA
fcp-trial,247,1031871,0.0-222.0-0.0,voc_e2,12203,"[{""event"":""fullscreenenter"",""trial"":1,""time"":1944}]",NA,NA,NA,NA,NA,6,#1CD855,#FA92F8,10,0,1,38,1,975.3000000119209,37,1,373.89999997615814,10,1,experiment,NA,NA,0,0.9,0.1,0,1,212,5,NA
fcp-trial,248,1034688,0.0-223.0-0.0,voc_e2,12203,"[{""event"":""fullscreenenter"",""trial"":1,""time"":1944}]",NA,NA,NA,NA,NA,0,#D8271C,#741CD8,0,10,0,38,1,910,39,0,374.300000011921,10,1,experiment,NA,NA,1,0.3,0.7,3,2,213,5,NA
fcp-trial,249,1037066,0.0-224.0-0.0,voc_e2,12203,"[{""event"":""fullscreenenter"",""trial"":1,""time"":1944}]",NA,NA,NA,NA,NA,5,#D89F1C,#3386FF,0,10,1,38,1,497,39,0,356.69999998807907,10,0,experiment,NA,NA,2,0.5,0.5,4,5,214,5,NA
fcp-trial,250,1040062,0.0-225.0-0.0,voc_e2,12203,"[{""event"":""fullscreenenter"",""trial"":1,""time"":1944}]",NA,NA,NA,NA,NA,4,#D8271C,#741CD8,0,0,0,38,1,1109,39,0,360.39999997615814,0,1,experiment,NA,NA,1,0.3,0.7,3,2,215,5,NA
fcp-trial,251,1043017,0.0-226.0-0.0,voc_e2,12203,"[{""event"":""fullscreenenter"",""trial"":1,""time"":1944}]",NA,NA,NA,NA,NA,4,#1CD855,#FA92F8,10,0,1,40,0,957.6999999880791,37,1,476.5999999642372,10,1,experiment,NA,NA,0,0.9,0.1,0,1,216,5,NA
fcp-trial,252,1046496,0.0-227.0-0.0,voc_e2,12203,"[{""event"":""fullscreenenter"",""trial"":1,""time"":1944}]",NA,NA,NA,NA,NA,5,#1CD855,#FA92F8,10,0,1,38,1,1178.699999988079,37,1,777.8999999761581,10,1,experiment,NA,NA,0,0.9,0.1,0,1,217,5,NA
fcp-trial,253,1050153,0.0-228.0-0.0,voc_e2,12203,"[{""event"":""fullscreenenter"",""trial"":1,""time"":1944}]",NA,NA,NA,NA,NA,1,#D8271C,#741CD8,0,10,0,38,1,1835,39,0,303.39999997615814,10,1,experiment,NA,NA,1,0.3,0.7,3,2,218,5,NA
fcp-trial,254,1053512,0.0-229.0-0.0,voc_e2,12203,"[{""event"":""fullscreenenter"",""trial"":1,""time"":1944}]",NA,NA,NA,NA,NA,3,#D89F1C,#3386FF,0,0,1,38,1,1466.3999999761581,39,0,375.300000011921,0,0,experiment,NA,NA,2,0.5,0.5,4,5,219,5,NA
fcp-trial,255,1057361,0.0-230.0-0.0,voc_e2,12203,"[{""event"":""fullscreenenter"",""trial"":1,""time"":1944}]",NA,NA,NA,NA,NA,2,#D8271C,#741CD8,10,0,0,40,0,1605.699999988079,37,1,726.6999999880791,10,0,experiment,NA,NA,1,0.3,0.7,3,2,220,5,NA
fcp-trial,256,1060896,0.0-231.0-0.0,voc_e2,12203,"[{""event"":""fullscreenenter"",""trial"":1,""time"":1944}]",NA,NA,NA,NA,NA,6,#D89F1C,#3386FF,10,10,1,40,0,1573.8999999761581,39,0,446.300000011921,10,0,experiment,NA,NA,2,0.5,0.5,4,5,221,5,NA
fcp-trial,257,1064391,0.0-232.0-0.0,voc_e2,12203,"[{""event"":""fullscreenenter"",""trial"":1,""time"":1944}]",NA,NA,NA,NA,NA,2,#FA92F8,#1CD855,0,10,0,38,1,1435.0999999642372,39,0,542.3000000119209,10,1,experiment,NA,NA,0,0.1,0.9,1,0,222,5,NA
fcp-trial,258,1067831,0.0-233.0-0.0,voc_e2,12203,"[{""event"":""fullscreenenter"",""trial"":1,""time"":1944}]",NA,NA,NA,NA,NA,3,#741CD8,#D8271C,0,0,1,38,1,1604.5,37,1,318.0999999642372,0,1,experiment,NA,NA,1,0.7,0.3,2,3,223,5,NA
fcp-trial,259,1071640,0.0-234.0-0.0,voc_e2,12203,"[{""event"":""fullscreenenter"",""trial"":1,""time"":1944}]",NA,NA,NA,NA,NA,3,#1CD855,#FA92F8,10,10,1,38,1,1930.5,37,1,357.19999998807907,10,1,experiment,NA,NA,0,0.9,0.1,0,1,224,5,NA
fcp-trial,260,1073926,0.0-235.0-0.0,voc_e2,12203,"[{""event"":""fullscreenenter"",""trial"":1,""time"":1944}]",NA,NA,NA,NA,NA,1,#D89F1C,#3386FF,0,10,1,38,1,455.39999997615814,39,0,311.89999997615814,10,0,experiment,NA,NA,2,0.5,0.5,4,5,225,5,NA
fcp-trial,261,1076704,0.0-236.0-0.0,voc_e2,12203,"[{""event"":""fullscreenenter"",""trial"":1,""time"":1944}]",NA,NA,NA,NA,NA,0,#1CD855,#FA92F8,10,0,1,38,1,936.6000000238419,37,1,322.5,10,1,experiment,NA,NA,0,0.9,0.1,0,1,226,6,NA
fcp-trial,262,1079153,0.0-237.0-0.0,voc_e2,12203,"[{""event"":""fullscreenenter"",""trial"":1,""time"":1944}]",NA,NA,NA,NA,NA,6,#741CD8,#D8271C,0,0,1,38,1,571.8000000119209,37,1,354.5,0,1,experiment,NA,NA,1,0.7,0.3,2,3,227,6,NA
fcp-trial,263,1081800,0.0-238.0-0.0,voc_e2,12203,"[{""event"":""fullscreenenter"",""trial"":1,""time"":1944}]",NA,NA,NA,NA,NA,1,#1CD855,#FA92F8,10,0,1,38,1,749.8000000119209,37,1,382.10000002384186,10,1,experiment,NA,NA,0,0.9,0.1,0,1,228,6,NA
fcp-trial,264,1084223,0.0-239.0-0.0,voc_e2,12203,"[{""event"":""fullscreenenter"",""trial"":1,""time"":1944}]",NA,NA,NA,NA,NA,0,#3386FF,#D89F1C,10,10,0,38,1,582.6999999880791,37,1,320.30000001192093,10,0,experiment,NA,NA,2,0.5,0.5,5,4,229,6,NA
fcp-trial,265,1087068,0.0-240.0-0.0,voc_e2,12203,"[{""event"":""fullscreenenter"",""trial"":1,""time"":1944}]",NA,NA,NA,NA,NA,5,#D8271C,#741CD8,10,0,0,38,1,909.3000000119209,37,1,410.699999988079,10,0,experiment,NA,NA,1,0.3,0.7,3,2,230,6,NA
fcp-trial,266,1090239,0.0-241.0-0.0,voc_e2,12203,"[{""event"":""fullscreenenter"",""trial"":1,""time"":1944}]",NA,NA,NA,NA,NA,4,#D89F1C,#3386FF,0,10,1,40,0,1099.0999999642372,37,1,556.4000000357628,0,1,experiment,NA,NA,2,0.5,0.5,4,5,231,6,NA
fcp-trial,267,1093695,0.0-242.0-0.0,voc_e2,12203,"[{""event"":""fullscreenenter"",""trial"":1,""time"":1944}]",NA,NA,NA,NA,NA,6,#D8271C,#741CD8,0,0,0,40,0,1416,39,0,523,0,1,experiment,NA,NA,1,0.3,0.7,3,2,232,6,NA
fcp-trial,268,1097223,0.0-243.0-0.0,voc_e2,12203,"[{""event"":""fullscreenenter"",""trial"":1,""time"":1944}]",NA,NA,NA,NA,NA,2,#3386FF,#D89F1C,0,0,0,38,1,1056,37,1,957.899999976158,0,0,experiment,NA,NA,2,0.5,0.5,5,4,233,6,NA
fcp-trial,269,1099936,0.0-244.0-0.0,voc_e2,12203,"[{""event"":""fullscreenenter"",""trial"":1,""time"":1944}]",NA,NA,NA,NA,NA,3,#D89F1C,#3386FF,0,10,1,38,1,895.8000000119209,37,1,301.89999997615814,0,1,experiment,NA,NA,2,0.5,0.5,4,5,234,6,NA
fcp-trial,270,1103131,0.0-245.0-0.0,voc_e2,12203,"[{""event"":""fullscreenenter"",""trial"":1,""time"":1944}]",NA,NA,NA,NA,NA,0,#FA92F8,#1CD855,0,10,0,38,1,1094.8999999761581,39,0,580.3999999761581,10,1,experiment,NA,NA,0,0.1,0.9,1,0,235,6,NA
fcp-trial,271,1105716,0.0-246.0-0.0,voc_e2,12203,"[{""event"":""fullscreenenter"",""trial"":1,""time"":1944}]",NA,NA,NA,NA,NA,2,#741CD8,#D8271C,10,0,1,38,1,530.3999999761581,39,0,538.9000000357628,0,0,experiment,NA,NA,1,0.7,0.3,2,3,236,6,NA
fcp-trial,272,1108257,0.0-247.0-0.0,voc_e2,12203,"[{""event"":""fullscreenenter"",""trial"":1,""time"":1944}]",NA,NA,NA,NA,NA,0,#741CD8,#D8271C,0,10,1,38,1,696.8000000119209,37,1,328.60000002384186,0,1,experiment,NA,NA,1,0.7,0.3,2,3,237,6,NA
fcp-trial,273,1110686,0.0-248.0-0.0,voc_e2,12203,"[{""event"":""fullscreenenter"",""trial"":1,""time"":1944}]",NA,NA,NA,NA,NA,4,#FA92F8,#1CD855,0,10,0,38,1,598.6000000238419,39,0,316.80000001192093,10,1,experiment,NA,NA,0,0.1,0.9,1,0,238,6,NA
fcp-trial,274,1113289,0.0-249.0-0.0,voc_e2,12203,"[{""event"":""fullscreenenter"",""trial"":1,""time"":1944}]",NA,NA,NA,NA,NA,6,#D89F1C,#3386FF,0,0,1,40,0,511.80000001192093,37,1,562.9000000357628,0,1,experiment,NA,NA,2,0.5,0.5,4,5,239,6,NA
fcp-trial,275,1116758,0.0-250.0-0.0,voc_e2,12203,"[{""event"":""fullscreenenter"",""trial"":1,""time"":1944}]",NA,NA,NA,NA,NA,6,#FA92F8,#1CD855,0,10,0,40,0,1465.7000000476837,37,1,481,0,0,experiment,NA,NA,0,0.1,0.9,1,0,240,6,NA
fcp-trial,276,1120201,0.0-251.0-0.0,voc_e2,12203,"[{""event"":""fullscreenenter"",""trial"":1,""time"":1944}]",NA,NA,NA,NA,NA,5,#D8271C,#741CD8,0,10,0,40,0,1496,39,0,430.699999988079,10,1,experiment,NA,NA,1,0.3,0.7,3,2,241,6,NA
fcp-trial,277,1123111,0.0-252.0-0.0,voc_e2,12203,"[{""event"":""fullscreenenter"",""trial"":1,""time"":1944}]",NA,NA,NA,NA,NA,3,#1CD855,#FA92F8,10,0,1,38,1,1076.199999988079,37,1,313.7000000476837,10,1,experiment,NA,NA,0,0.9,0.1,0,1,242,6,NA
fcp-trial,278,1125528,0.0-253.0-0.0,voc_e2,12203,"[{""event"":""fullscreenenter"",""trial"":1,""time"":1944}]",NA,NA,NA,NA,NA,0,#3386FF,#D89F1C,10,10,0,38,1,543.8000000119209,37,1,356,10,0,experiment,NA,NA,2,0.5,0.5,5,4,243,6,NA
fcp-trial,279,1127975,0.0-254.0-0.0,voc_e2,12203,"[{""event"":""fullscreenenter"",""trial"":1,""time"":1944}]",NA,NA,NA,NA,NA,4,#D89F1C,#3386FF,10,10,1,38,1,592,39,0,342.5,10,0,experiment,NA,NA,2,0.5,0.5,4,5,244,6,NA
fcp-trial,280,1130431,0.0-255.0-0.0,voc_e2,12203,"[{""event"":""fullscreenenter"",""trial"":1,""time"":1944}]",NA,NA,NA,NA,NA,4,#741CD8,#D8271C,10,0,1,38,1,578.3000000119209,37,1,357.69999998807907,10,1,experiment,NA,NA,1,0.7,0.3,2,3,245,6,NA
fcp-trial,281,1133169,0.0-256.0-0.0,voc_e2,12203,"[{""event"":""fullscreenenter"",""trial"":1,""time"":1944}]",NA,NA,NA,NA,NA,1,#FA92F8,#1CD855,10,10,0,38,1,652.8999999761581,39,0,566.3999999761581,10,1,experiment,NA,NA,0,0.1,0.9,1,0,246,6,NA
fcp-trial,282,1136078,0.0-257.0-0.0,voc_e2,12203,"[{""event"":""fullscreenenter"",""trial"":1,""time"":1944}]",NA,NA,NA,NA,NA,3,#D8271C,#741CD8,0,0,0,38,1,927.3000000119209,39,0,466.699999988079,0,1,experiment,NA,NA,1,0.3,0.7,3,2,247,6,NA
fcp-trial,283,1138678,0.0-258.0-0.0,voc_e2,12203,"[{""event"":""fullscreenenter"",""trial"":1,""time"":1944}]",NA,NA,NA,NA,NA,5,#FA92F8,#1CD855,10,10,0,38,1,714.8999999761581,39,0,365.699999988079,10,1,experiment,NA,NA,0,0.1,0.9,1,0,248,6,NA
fcp-trial,284,1141841,0.0-259.0-0.0,voc_e2,12203,"[{""event"":""fullscreenenter"",""trial"":1,""time"":1944}]",NA,NA,NA,NA,NA,5,#D89F1C,#3386FF,10,0,1,38,1,679.6999999880791,39,0,967.5,0,0,experiment,NA,NA,2,0.5,0.5,4,5,249,6,NA
fcp-trial,285,1144278,0.0-260.0-0.0,voc_e2,12203,"[{""event"":""fullscreenenter"",""trial"":1,""time"":1944}]",NA,NA,NA,NA,NA,1,#D8271C,#741CD8,0,10,0,38,1,405,39,0,516.8000000119209,10,1,experiment,NA,NA,1,0.3,0.7,3,2,250,6,NA
fcp-trial,286,1146840,0.0-261.0-0.0,voc_e2,12203,"[{""event"":""fullscreenenter"",""trial"":1,""time"":1944}]",NA,NA,NA,NA,NA,1,#3386FF,#D89F1C,0,0,0,38,1,507.2000000476837,37,1,539.5,0,0,experiment,NA,NA,2,0.5,0.5,5,4,251,6,NA
fcp-trial,287,1149567,0.0-262.0-0.0,voc_e2,12203,"[{""event"":""fullscreenenter"",""trial"":1,""time"":1944}]",NA,NA,NA,NA,NA,2,#FA92F8,#1CD855,0,10,0,38,1,582.4000000357628,39,0,630,10,1,experiment,NA,NA,0,0.1,0.9,1,0,252,6,NA
fcp-trial,288,1152193,0.0-263.0-0.0,voc_e2,12203,"[{""event"":""fullscreenenter"",""trial"":1,""time"":1944}]",NA,NA,NA,NA,NA,1,#D8271C,#741CD8,10,0,0,38,1,781.6999999880791,39,0,329.4000000357628,0,1,experiment,NA,NA,1,0.3,0.7,3,2,253,6,NA
fcp-trial,289,1154483,0.0-264.0-0.0,voc_e2,12203,"[{""event"":""fullscreenenter"",""trial"":1,""time"":1944}]",NA,NA,NA,NA,NA,5,#D89F1C,#3386FF,10,0,1,38,1,390,39,0,382,0,0,experiment,NA,NA,2,0.5,0.5,4,5,254,6,NA
fcp-trial,290,1156951,0.0-265.0-0.0,voc_e2,12203,"[{""event"":""fullscreenenter"",""trial"":1,""time"":1944}]",NA,NA,NA,NA,NA,0,#3386FF,#D89F1C,0,10,0,38,1,618.2000000476837,39,0,334.80000001192093,10,1,experiment,NA,NA,2,0.5,0.5,5,4,255,6,NA
fcp-trial,291,1159703,0.0-266.0-0.0,voc_e2,12203,"[{""event"":""fullscreenenter"",""trial"":1,""time"":1944}]",NA,NA,NA,NA,NA,6,#741CD8,#D8271C,0,0,1,38,1,781,37,1,454.39999997615814,0,1,experiment,NA,NA,1,0.7,0.3,2,3,256,6,NA
fcp-trial,292,1162215,0.0-267.0-0.0,voc_e2,12203,"[{""event"":""fullscreenenter"",""trial"":1,""time"":1944}]",NA,NA,NA,NA,NA,0,#1CD855,#FA92F8,10,0,1,38,1,641.9000000357628,37,1,349.69999998807907,10,1,experiment,NA,NA,0,0.9,0.1,0,1,257,6,NA
fcp-trial,293,1165222,0.0-268.0-0.0,voc_e2,12203,"[{""event"":""fullscreenenter"",""trial"":1,""time"":1944}]",NA,NA,NA,NA,NA,4,#FA92F8,#1CD855,0,10,0,40,0,1071.800000011921,39,0,421.5,10,1,experiment,NA,NA,0,0.1,0.9,1,0,258,6,NA
fcp-trial,294,1168559,0.0-269.0-0.0,voc_e2,12203,"[{""event"":""fullscreenenter"",""trial"":1,""time"":1944}]",NA,NA,NA,NA,NA,3,#3386FF,#D89F1C,10,10,0,38,1,1319.1000000238419,39,0,502.300000011921,10,1,experiment,NA,NA,2,0.5,0.5,5,4,259,6,NA
fcp-trial,295,1171630,0.0-270.0-0.0,voc_e2,12203,"[{""event"":""fullscreenenter"",""trial"":1,""time"":1944}]",NA,NA,NA,NA,NA,5,#D8271C,#741CD8,10,0,0,38,1,745.6999999880791,37,1,807.3999999761581,10,0,experiment,NA,NA,1,0.3,0.7,3,2,260,6,NA
fcp-trial,296,1175261,0.0-271.0-0.0,voc_e2,12203,"[{""event"":""fullscreenenter"",""trial"":1,""time"":1944}]",NA,NA,NA,NA,NA,5,#1CD855,#FA92F8,10,0,1,40,0,1641,39,0,471.89999997615814,0,0,experiment,NA,NA,0,0.9,0.1,0,1,261,6,NA
fcp-trial,297,1178652,0.0-272.0-0.0,voc_e2,12203,"[{""event"":""fullscreenenter"",""trial"":1,""time"":1944}]",NA,NA,NA,NA,NA,3,#1CD855,#FA92F8,10,0,1,40,0,1252.5,37,1,622.6999999880791,10,1,experiment,NA,NA,0,0.9,0.1,0,1,262,6,NA
fcp-trial,298,1181870,0.0-273.0-0.0,voc_e2,12203,"[{""event"":""fullscreenenter"",""trial"":1,""time"":1944}]",NA,NA,NA,NA,NA,4,#3386FF,#D89F1C,0,10,0,38,1,1172.9000000357628,39,0,528,10,1,experiment,NA,NA,2,0.5,0.5,5,4,263,6,NA
fcp-trial,299,1184624,0.0-274.0-0.0,voc_e2,12203,"[{""event"":""fullscreenenter"",""trial"":1,""time"":1944}]",NA,NA,NA,NA,NA,0,#741CD8,#D8271C,10,0,1,38,1,778.1999999880791,39,0,450.199999988079,0,0,experiment,NA,NA,1,0.7,0.3,2,3,264,6,NA
fcp-trial,300,1187478,0.0-275.0-0.0,voc_e2,12203,"[{""event"":""fullscreenenter"",""trial"":1,""time"":1944}]",NA,NA,NA,NA,NA,4,#741CD8,#D8271C,10,0,1,38,1,969.6999999880791,39,0,364.300000011921,0,0,experiment,NA,NA,1,0.7,0.3,2,3,265,6,NA
fcp-trial,301,1190131,0.0-276.0-0.0,voc_e2,12203,"[{""event"":""fullscreenenter"",""trial"":1,""time"":1944}]",NA,NA,NA,NA,NA,2,#FA92F8,#1CD855,0,0,0,38,1,794.8000000119209,39,0,332.60000002384186,0,1,experiment,NA,NA,0,0.1,0.9,1,0,266,6,NA
fcp-trial,302,1192927,0.0-277.0-0.0,voc_e2,12203,"[{""event"":""fullscreenenter"",""trial"":1,""time"":1944}]",NA,NA,NA,NA,NA,6,#D89F1C,#3386FF,0,0,1,38,1,939.6000000238419,39,0,336.10000002384186,0,0,experiment,NA,NA,2,0.5,0.5,4,5,267,6,NA
fcp-trial,303,1196007,0.0-278.0-0.0,voc_e2,12203,"[{""event"":""fullscreenenter"",""trial"":1,""time"":1944}]",NA,NA,NA,NA,NA,2,#741CD8,#D8271C,0,0,1,38,1,549.6999999880791,37,1,1014.399999976158,0,1,experiment,NA,NA,1,0.7,0.3,2,3,268,6,NA
fcp-trial,304,1198600,0.0-279.0-0.0,voc_e2,12203,"[{""event"":""fullscreenenter"",""trial"":1,""time"":1944}]",NA,NA,NA,NA,NA,3,#741CD8,#D8271C,0,10,1,38,1,575.1000000238419,39,0,495.300000011921,10,0,experiment,NA,NA,1,0.7,0.3,2,3,269,6,NA
fcp-trial,305,1201615,0.0-280.0-0.0,voc_e2,12203,"[{""event"":""fullscreenenter"",""trial"":1,""time"":1944}]",NA,NA,NA,NA,NA,1,#FA92F8,#1CD855,0,10,0,38,1,658.0999999642372,39,0,836.2000000476837,10,1,experiment,NA,NA,0,0.1,0.9,1,0,270,6,NA
fcp-trial,306,1205014,0.0-281.0-0.0,voc_e2,12203,"[{""event"":""fullscreenenter"",""trial"":1,""time"":1944}]",NA,NA,NA,NA,NA,2,#3386FF,#D89F1C,0,0,0,38,1,748.3000000119209,39,0,1136,0,1,experiment,NA,NA,2,0.5,0.5,5,4,271,7,NA
fcp-trial,307,1207486,0.0-282.0-0.0,voc_e2,12203,"[{""event"":""fullscreenenter"",""trial"":1,""time"":1944}]",NA,NA,NA,NA,NA,1,#D89F1C,#3386FF,10,10,1,38,1,649.6999999880791,39,0,306.60000002384186,10,0,experiment,NA,NA,2,0.5,0.5,4,5,272,7,NA
fcp-trial,308,1210174,0.0-283.0-0.0,voc_e2,12203,"[{""event"":""fullscreenenter"",""trial"":1,""time"":1944}]",NA,NA,NA,NA,NA,6,#FA92F8,#1CD855,0,10,0,38,1,716.1000000238419,39,0,457,10,1,experiment,NA,NA,0,0.1,0.9,1,0,273,7,NA
fcp-trial,309,1213968,0.0-284.0-0.0,voc_e2,12203,"[{""event"":""fullscreenenter"",""trial"":1,""time"":1944}]",NA,NA,NA,NA,NA,2,#D8271C,#741CD8,0,10,0,38,1,753,37,1,1522.600000023842,0,0,experiment,NA,NA,1,0.3,0.7,3,2,274,7,NA
fcp-trial,310,1216432,0.0-285.0-0.0,voc_e2,12203,"[{""event"":""fullscreenenter"",""trial"":1,""time"":1944}]",NA,NA,NA,NA,NA,4,#1CD855,#FA92F8,10,0,1,38,1,662.5999999642372,37,1,286.7000000476837,10,1,experiment,NA,NA,0,0.9,0.1,0,1,275,7,NA
fcp-trial,311,1218614,0.0-286.0-0.0,voc_e2,12203,"[{""event"":""fullscreenenter"",""trial"":1,""time"":1944}]",NA,NA,NA,NA,NA,6,#D8271C,#741CD8,10,0,0,38,1,409.9000000357628,39,0,252.30000001192093,0,1,experiment,NA,NA,1,0.3,0.7,3,2,276,7,NA
fcp-trial,312,1221238,0.0-287.0-0.0,voc_e2,12203,"[{""event"":""fullscreenenter"",""trial"":1,""time"":1944}]",NA,NA,NA,NA,NA,5,#1CD855,#FA92F8,10,0,1,38,1,615.3000000119209,37,1,492.300000011921,10,1,experiment,NA,NA,0,0.9,0.1,0,1,277,7,NA
fcp-trial,313,1224039,0.0-288.0-0.0,voc_e2,12203,"[{""event"":""fullscreenenter"",""trial"":1,""time"":1944}]",NA,NA,NA,NA,NA,5,#3386FF,#D89F1C,0,0,0,40,0,839.1000000238419,37,1,445.60000002384186,0,0,experiment,NA,NA,2,0.5,0.5,5,4,278,7,NA
fcp-trial,314,1227798,0.0-289.0-0.0,voc_e2,12203,"[{""event"":""fullscreenenter"",""trial"":1,""time"":1944}]",NA,NA,NA,NA,NA,3,#741CD8,#D8271C,10,10,1,38,1,1650.9000000357628,37,1,590.4000000357628,10,1,experiment,NA,NA,1,0.7,0.3,2,3,279,7,NA
fcp-trial,315,1231007,0.0-290.0-0.0,voc_e2,12203,"[{""event"":""fullscreenenter"",""trial"":1,""time"":1944}]",NA,NA,NA,NA,NA,0,#741CD8,#D8271C,0,10,1,38,1,1071.6000000238419,37,1,617.3000000119209,0,1,experiment,NA,NA,1,0.7,0.3,2,3,280,7,NA
fcp-trial,316,1234390,0.0-291.0-0.0,voc_e2,12203,"[{""event"":""fullscreenenter"",""trial"":1,""time"":1944}]",NA,NA,NA,NA,NA,6,#1CD855,#FA92F8,10,0,1,40,0,1278.3999999761581,39,0,590,0,0,experiment,NA,NA,0,0.9,0.1,0,1,281,7,NA
fcp-trial,317,1237903,0.0-292.0-0.0,voc_e2,12203,"[{""event"":""fullscreenenter"",""trial"":1,""time"":1944}]",NA,NA,NA,NA,NA,4,#741CD8,#D8271C,10,0,1,38,1,1683.300000011921,37,1,309.80000001192093,10,1,experiment,NA,NA,1,0.7,0.3,2,3,282,7,NA
fcp-trial,318,1241895,0.0-293.0-0.0,voc_e2,12203,"[{""event"":""fullscreenenter"",""trial"":1,""time"":1944}]",NA,NA,NA,NA,NA,1,#D89F1C,#3386FF,0,0,1,38,1,1596.5999999642372,39,0,878.5,0,0,experiment,NA,NA,2,0.5,0.5,4,5,283,7,NA
fcp-trial,319,1244443,0.0-294.0-0.0,voc_e2,12203,"[{""event"":""fullscreenenter"",""trial"":1,""time"":1944}]",NA,NA,NA,NA,NA,3,#D89F1C,#3386FF,0,10,1,38,1,699.9000000357628,37,1,330.5,0,1,experiment,NA,NA,2,0.5,0.5,4,5,284,7,NA
fcp-trial,320,1247090,0.0-295.0-0.0,voc_e2,12203,"[{""event"":""fullscreenenter"",""trial"":1,""time"":1944}]",NA,NA,NA,NA,NA,0,#FA92F8,#1CD855,0,10,0,38,1,850.6999999880791,39,0,282.39999997615814,10,1,experiment,NA,NA,0,0.1,0.9,1,0,285,7,NA
fcp-trial,321,1250135,0.0-296.0-0.0,voc_e2,12203,"[{""event"":""fullscreenenter"",""trial"":1,""time"":1944}]",NA,NA,NA,NA,NA,1,#D8271C,#741CD8,0,10,0,38,1,1179.199999988079,39,0,349.89999997615814,10,1,experiment,NA,NA,1,0.3,0.7,3,2,286,7,NA
fcp-trial,322,1253806,0.0-297.0-0.0,voc_e2,12203,"[{""event"":""fullscreenenter"",""trial"":1,""time"":1944}]",NA,NA,NA,NA,NA,6,#D89F1C,#3386FF,0,10,1,38,1,774.2000000476837,37,1,1381.5,0,1,experiment,NA,NA,2,0.5,0.5,4,5,287,7,NA
fcp-trial,323,1256367,0.0-298.0-0.0,voc_e2,12203,"[{""event"":""fullscreenenter"",""trial"":1,""time"":1944}]",NA,NA,NA,NA,NA,0,#3386FF,#D89F1C,10,10,0,38,1,539.1000000238419,37,1,501.800000011921,10,0,experiment,NA,NA,2,0.5,0.5,5,4,288,7,NA
fcp-trial,324,1258771,0.0-299.0-0.0,voc_e2,12203,"[{""event"":""fullscreenenter"",""trial"":1,""time"":1944}]",NA,NA,NA,NA,NA,2,#1CD855,#FA92F8,10,0,1,38,1,501.5,37,1,381,10,1,experiment,NA,NA,0,0.9,0.1,0,1,289,7,NA
fcp-trial,325,1261654,0.0-300.0-0.0,voc_e2,12203,"[{""event"":""fullscreenenter"",""trial"":1,""time"":1944}]",NA,NA,NA,NA,NA,3,#FA92F8,#1CD855,0,10,0,38,1,807.8000000119209,39,0,557.6000000238419,10,1,experiment,NA,NA,0,0.1,0.9,1,0,290,7,NA
fcp-trial,326,1264486,0.0-301.0-0.0,voc_e2,12203,"[{""event"":""fullscreenenter"",""trial"":1,""time"":1944}]",NA,NA,NA,NA,NA,5,#D8271C,#741CD8,0,10,0,38,1,745.1999999880791,39,0,573,10,1,experiment,NA,NA,1,0.3,0.7,3,2,291,7,NA
fcp-trial,327,1267031,0.0-302.0-0.0,voc_e2,12203,"[{""event"":""fullscreenenter"",""trial"":1,""time"":1944}]",NA,NA,NA,NA,NA,4,#3386FF,#D89F1C,10,10,0,38,1,679.3999999761581,37,1,349.19999998807907,10,0,experiment,NA,NA,2,0.5,0.5,5,4,292,7,NA
fcp-trial,328,1269391,0.0-303.0-0.0,voc_e2,12203,"[{""event"":""fullscreenenter"",""trial"":1,""time"":1944}]",NA,NA,NA,NA,NA,1,#1CD855,#FA92F8,10,0,1,38,1,558.3999999761581,37,1,285.89999997615814,10,1,experiment,NA,NA,0,0.9,0.1,0,1,293,7,NA
fcp-trial,329,1271575,0.0-304.0-0.0,voc_e2,12203,"[{""event"":""fullscreenenter"",""trial"":1,""time"":1944}]",NA,NA,NA,NA,NA,2,#3386FF,#D89F1C,10,10,0,38,1,392.60000002384186,37,1,270.69999998807907,10,0,experiment,NA,NA,2,0.5,0.5,5,4,294,7,NA
fcp-trial,330,1273952,0.0-305.0-0.0,voc_e2,12203,"[{""event"":""fullscreenenter"",""trial"":1,""time"":1944}]",NA,NA,NA,NA,NA,3,#D8271C,#741CD8,0,10,0,38,1,573.8000000119209,39,0,286.5,10,1,experiment,NA,NA,1,0.3,0.7,3,2,295,7,NA
fcp-trial,331,1276639,0.0-306.0-0.0,voc_e2,12203,"[{""event"":""fullscreenenter"",""trial"":1,""time"":1944}]",NA,NA,NA,NA,NA,4,#1CD855,#FA92F8,10,10,1,38,1,493,37,1,673,10,1,experiment,NA,NA,0,0.9,0.1,0,1,296,7,NA
fcp-trial,332,1279180,0.0-307.0-0.0,voc_e2,12203,"[{""event"":""fullscreenenter"",""trial"":1,""time"":1944}]",NA,NA,NA,NA,NA,2,#FA92F8,#1CD855,0,10,0,38,1,487.5,39,0,534,10,1,experiment,NA,NA,0,0.1,0.9,1,0,297,7,NA
fcp-trial,333,1281857,0.0-308.0-0.0,voc_e2,12203,"[{""event"":""fullscreenenter"",""trial"":1,""time"":1944}]",NA,NA,NA,NA,NA,1,#741CD8,#D8271C,10,0,1,38,1,531.1999999880791,37,1,630,10,1,experiment,NA,NA,1,0.7,0.3,2,3,298,7,NA
fcp-trial,334,1284287,0.0-309.0-0.0,voc_e2,12203,"[{""event"":""fullscreenenter"",""trial"":1,""time"":1944}]",NA,NA,NA,NA,NA,5,#D8271C,#741CD8,0,10,0,38,1,564.1999999880791,39,0,349.39999997615814,10,1,experiment,NA,NA,1,0.3,0.7,3,2,299,7,NA
fcp-trial,335,1286823,0.0-310.0-0.0,voc_e2,12203,"[{""event"":""fullscreenenter"",""trial"":1,""time"":1944}]",NA,NA,NA,NA,NA,5,#3386FF,#D89F1C,0,10,0,38,1,730.3000000119209,37,1,285.9000000357628,0,0,experiment,NA,NA,2,0.5,0.5,5,4,300,7,NA
fcp-trial,336,1289551,0.0-311.0-0.0,voc_e2,12203,"[{""event"":""fullscreenenter"",""trial"":1,""time"":1944}]",NA,NA,NA,NA,NA,0,#1CD855,#FA92F8,10,0,1,38,1,671.5,37,1,542.0999999642372,10,1,experiment,NA,NA,0,0.9,0.1,0,1,301,7,NA
fcp-trial,337,1291840,0.0-312.0-0.0,voc_e2,12203,"[{""event"":""fullscreenenter"",""trial"":1,""time"":1944}]",NA,NA,NA,NA,NA,5,#1CD855,#FA92F8,10,0,1,38,1,483.19999998807907,37,1,290.5,10,1,experiment,NA,NA,0,0.9,0.1,0,1,302,7,NA
fcp-trial,338,1294196,0.0-313.0-0.0,voc_e2,12203,"[{""event"":""fullscreenenter"",""trial"":1,""time"":1944}]",NA,NA,NA,NA,NA,4,#3386FF,#D89F1C,10,0,0,38,1,518.3999999761581,37,1,321.89999997615814,10,0,experiment,NA,NA,2,0.5,0.5,5,4,303,7,NA
fcp-trial,339,1296632,0.0-314.0-0.0,voc_e2,12203,"[{""event"":""fullscreenenter"",""trial"":1,""time"":1944}]",NA,NA,NA,NA,NA,2,#D8271C,#741CD8,10,10,0,38,1,611.8999999761581,39,0,309.19999998807907,10,1,experiment,NA,NA,1,0.3,0.7,3,2,304,7,NA
fcp-trial,340,1299131,0.0-315.0-0.0,voc_e2,12203,"[{""event"":""fullscreenenter"",""trial"":1,""time"":1944}]",NA,NA,NA,NA,NA,1,#FA92F8,#1CD855,10,10,0,38,1,453.4000000357628,39,0,530.6999999880791,10,1,experiment,NA,NA,0,0.1,0.9,1,0,305,7,NA
fcp-trial,341,1301840,0.0-316.0-0.0,voc_e2,12203,"[{""event"":""fullscreenenter"",""trial"":1,""time"":1944}]",NA,NA,NA,NA,NA,0,#D8271C,#741CD8,0,10,0,38,1,674.9000000357628,39,0,519.9000000357628,10,1,experiment,NA,NA,1,0.3,0.7,3,2,306,7,NA
fcp-trial,342,1305431,0.0-317.0-0.0,voc_e2,12203,"[{""event"":""fullscreenenter"",""trial"":1,""time"":1944}]",NA,NA,NA,NA,NA,6,#1CD855,#FA92F8,10,0,1,38,1,654.6999999880791,37,1,1421.7999999523165,10,1,experiment,NA,NA,0,0.9,0.1,0,1,307,7,NA
fcp-trial,343,1308049,0.0-318.0-0.0,voc_e2,12203,"[{""event"":""fullscreenenter"",""trial"":1,""time"":1944}]",NA,NA,NA,NA,NA,1,#3386FF,#D89F1C,0,10,0,38,1,790.9000000357628,37,1,311.5999999642372,0,0,experiment,NA,NA,2,0.5,0.5,5,4,308,7,NA
fcp-trial,344,1311327,0.0-319.0-0.0,voc_e2,12203,"[{""event"":""fullscreenenter"",""trial"":1,""time"":1944}]",NA,NA,NA,NA,NA,4,#D8271C,#741CD8,0,10,0,40,0,1006.9000000357628,37,1,756.5999999642372,0,0,experiment,NA,NA,1,0.3,0.7,3,2,309,7,NA
fcp-trial,345,1314050,0.0-320.0-0.0,voc_e2,12203,"[{""event"":""fullscreenenter"",""trial"":1,""time"":1944}]",NA,NA,NA,NA,NA,6,#D89F1C,#3386FF,0,0,1,38,1,862.9000000357628,39,0,343.80000001192093,0,0,experiment,NA,NA,2,0.5,0.5,4,5,310,7,NA
fcp-trial,346,1316903,0.0-321.0-0.0,voc_e2,12203,"[{""event"":""fullscreenenter"",""trial"":1,""time"":1944}]",NA,NA,NA,NA,NA,6,#741CD8,#D8271C,0,0,1,40,0,780.5,39,0,557.7999999523163,0,0,experiment,NA,NA,1,0.7,0.3,2,3,311,7,NA
fcp-trial,347,1319922,0.0-322.0-0.0,voc_e2,12203,"[{""event"":""fullscreenenter"",""trial"":1,""time"":1944}]",NA,NA,NA,NA,NA,3,#FA92F8,#1CD855,0,10,0,38,1,1216,39,0,289,10,1,experiment,NA,NA,0,0.1,0.9,1,0,312,7,NA
fcp-trial,348,1323385,0.0-323.0-0.0,voc_e2,12203,"[{""event"":""fullscreenenter"",""trial"":1,""time"":1944}]",NA,NA,NA,NA,NA,2,#D89F1C,#3386FF,10,0,1,38,1,1591.9000000357628,39,0,354.30000001192093,0,0,experiment,NA,NA,2,0.5,0.5,4,5,313,7,NA
fcp-trial,349,1326090,0.0-324.0-0.0,voc_e2,12203,"[{""event"":""fullscreenenter"",""trial"":1,""time"":1944}]",NA,NA,NA,NA,NA,0,#D89F1C,#3386FF,10,10,1,38,1,572.6999999880791,39,0,616.1999999880791,10,0,experiment,NA,NA,2,0.5,0.5,4,5,314,7,NA
fcp-trial,350,1328600,0.0-325.0-0.0,voc_e2,12203,"[{""event"":""fullscreenenter"",""trial"":1,""time"":1944}]",NA,NA,NA,NA,NA,3,#D89F1C,#3386FF,0,0,1,38,1,641.5,39,0,352.69999998807907,0,0,experiment,NA,NA,2,0.5,0.5,4,5,315,7,NA
audio-instructions,351,1335202,0.0-326.0,voc_e2,12203,"[{""event"":""fullscreenenter"",""trial"":1,""time"":1944}]",NA,952.6999999880792,static/audio/finished.wav,NA,0,NA,NA,NA,NA,NA,NA,NA,NA,NA,NA,NA,NA,NA,NA,NA,NA,NA,NA,NA,NA,NA,NA,NA,NA,NA
audio-instructions,352,1346874,0.0-327.0-0.0,voc_e2,12203,"[{""event"":""fullscreenenter"",""trial"":1,""time"":1944}]",NA,835.1999999880791,static/audio/explicit1.wav,NA,0,NA,NA,NA,NA,NA,NA,NA,NA,NA,NA,NA,NA,NA,NA,NA,NA,NA,NA,NA,NA,NA,NA,NA,NA,NA
audio-instructions,353,1355234,0.0-327.0-1.0,voc_e2,12203,"[{""event"":""fullscreenenter"",""trial"":1,""time"":1944}]",NA,764.8999999761581,static/audio/explicit2.wav,NA,0,NA,NA,NA,NA,NA,NA,NA,NA,NA,NA,NA,NA,NA,NA,NA,NA,NA,NA,NA,NA,NA,NA,NA,NA,NA
image-slider-response,354,1363586,0.0-328.0,voc_e2,12203,"[{""event"":""fullscreenenter"",""trial"":1,""time"":1944}]",NA,8347.5,static/img/machines/machine2.png,NA,NA,NA,NA,NA,NA,NA,NA,NA,NA,NA,NA,NA,NA,NA,NA,explicit,NA,NA,NA,NA,NA,NA,NA,NA,NA,6
image-slider-response,355,1368074,0.0-329.0,voc_e2,12203,"[{""event"":""fullscreenenter"",""trial"":1,""time"":1944}]",NA,4483.800000011921,static/img/machines/machine4.png,NA,NA,NA,NA,NA,NA,NA,NA,NA,NA,NA,NA,NA,NA,NA,NA,explicit,NA,NA,NA,NA,NA,NA,NA,NA,NA,3
image-slider-response,356,1373210,0.0-330.0,voc_e2,12203,"[{""event"":""fullscreenenter"",""trial"":1,""time"":1944}]",NA,5131.900000035763,static/img/machines/machine1.png,NA,NA,NA,NA,NA,NA,NA,NA,NA,NA,NA,NA,NA,NA,NA,NA,explicit,NA,NA,NA,NA,NA,NA,NA,NA,NA,3
image-slider-response,357,1378714,0.0-331.0,voc_e2,12203,"[{""event"":""fullscreenenter"",""trial"":1,""time"":1944}]",NA,5500,static/img/machines/machine5.png,NA,NA,NA,NA,NA,NA,NA,NA,NA,NA,NA,NA,NA,NA,NA,NA,explicit,NA,NA,NA,NA,NA,NA,NA,NA,NA,3
image-slider-response,358,1385458,0.0-332.0,voc_e2,12203,"[{""event"":""fullscreenenter"",""trial"":1,""time"":1944}]",NA,6740.399999976158,static/img/machines/machine6.png,NA,NA,NA,NA,NA,NA,NA,NA,NA,NA,NA,NA,NA,NA,NA,NA,explicit,NA,NA,NA,NA,NA,NA,NA,NA,NA,6
image-slider-response,359,1390043,0.0-333.0,voc_e2,12203,"[{""event"":""fullscreenenter"",""trial"":1,""time"":1944}]",NA,4580.800000011921,static/img/machines/machine3.png,NA,NA,NA,NA,NA,NA,NA,NA,NA,NA,NA,NA,NA,NA,NA,NA,explicit,NA,NA,NA,NA,NA,NA,NA,NA,NA,6
