trial_type,trial_index,time_elapsed,internal_node_id,task_version,subject_id,interactions,success,rt,stimulus,key_press,button_pressed,offer,arcade_color_L,arcade_color_R,arcade_outcome_L,arcade_outcome_R,correct,stage_1_key,stage_1_choice,stage_1_rt,stage_2_key,stage_2_choice,stage_2_rt,stage_3_outcome,accuracy,phase,responses,num_errors,context,reward_prob_L,reward_prob_R,arcade_id_L,arcade_id_R,trial,block,response
pavlovia,0,12,0.0-0.0,voc_e2,11759,"[{""event"":""blur"",""trial"":0,""time"":0},{""event"":""focus"",""trial"":0,""time"":0}]",NA,NA,NA,NA,NA,NA,NA,NA,NA,NA,NA,NA,NA,NA,NA,NA,NA,NA,NA,NA,NA,NA,NA,NA,NA,NA,NA,NA,NA,NA
fullscreen,1,15345,0.0-1.0,voc_e2,11759,"[{""event"":""blur"",""trial"":0,""time"":0},{""event"":""focus"",""trial"":0,""time"":0},{""event"":""fullscreenenter"",""trial"":1,""time"":14356}]",TRUE,NA,NA,NA,NA,NA,NA,NA,NA,NA,NA,NA,NA,NA,NA,NA,NA,NA,NA,NA,NA,NA,NA,NA,NA,NA,NA,NA,NA,NA
audio-keyboard-response,2,18809,0.0-2.0,voc_e2,11759,"[{""event"":""blur"",""trial"":0,""time"":0},{""event"":""focus"",""trial"":0,""time"":0},{""event"":""fullscreenenter"",""trial"":1,""time"":14356}]",NA,2949,static/audio/beep_loop.wav,174,NA,NA,NA,NA,NA,NA,NA,NA,NA,NA,NA,NA,NA,NA,NA,NA,NA,NA,NA,NA,NA,NA,NA,NA,NA,NA
audio-test,3,20404,0.0-3.0,voc_e2,11759,"[{""event"":""blur"",""trial"":0,""time"":0},{""event"":""focus"",""trial"":0,""time"":0},{""event"":""fullscreenenter"",""trial"":1,""time"":14356}]",NA,NA,static/audio/turtle.wav,NA,3,NA,NA,NA,NA,NA,NA,NA,NA,NA,NA,NA,NA,NA,NA,NA,NA,NA,NA,NA,NA,NA,NA,NA,NA,NA
audio-test,4,22924,0.0-4.0,voc_e2,11759,"[{""event"":""blur"",""trial"":0,""time"":0},{""event"":""focus"",""trial"":0,""time"":0},{""event"":""fullscreenenter"",""trial"":1,""time"":14356}]",NA,NA,static/audio/shark.wav,NA,2,NA,NA,NA,NA,NA,NA,NA,NA,NA,NA,NA,NA,NA,NA,NA,NA,NA,NA,NA,NA,NA,NA,NA,NA,NA
audio-instructions,5,33469,0.0-5.0-0.0,voc_e2,11759,"[{""event"":""blur"",""trial"":0,""time"":0},{""event"":""focus"",""trial"":0,""time"":0},{""event"":""fullscreenenter"",""trial"":1,""time"":14356}]",NA,4758.5999999940395,static/audio/instructions1.wav,NA,0,NA,NA,NA,NA,NA,NA,NA,NA,NA,NA,NA,NA,NA,NA,NA,NA,NA,NA,NA,NA,NA,NA,NA,NA,NA
audio-instructions,6,44033,0.0-5.0-1.0,voc_e2,11759,"[{""event"":""blur"",""trial"":0,""time"":0},{""event"":""focus"",""trial"":0,""time"":0},{""event"":""fullscreenenter"",""trial"":1,""time"":14356}]",NA,3813.2999999821186,static/audio/instructions2.wav,NA,0,NA,NA,NA,NA,NA,NA,NA,NA,NA,NA,NA,NA,NA,NA,NA,NA,NA,NA,NA,NA,NA,NA,NA,NA,NA
audio-instructions,7,53236,0.0-5.0-2.0,voc_e2,11759,"[{""event"":""blur"",""trial"":0,""time"":0},{""event"":""focus"",""trial"":0,""time"":0},{""event"":""fullscreenenter"",""trial"":1,""time"":14356}]",NA,3396.300000011921,static/audio/instructions3.wav,NA,0,NA,NA,NA,NA,NA,NA,NA,NA,NA,NA,NA,NA,NA,NA,NA,NA,NA,NA,NA,NA,NA,NA,NA,NA,NA
audio-instructions,8,69119,0.0-5.0-3.0,voc_e2,11759,"[{""event"":""blur"",""trial"":0,""time"":0},{""event"":""focus"",""trial"":0,""time"":0},{""event"":""fullscreenenter"",""trial"":1,""time"":14356}]",NA,2656.5,static/audio/instructions4.wav,NA,0,NA,NA,NA,NA,NA,NA,NA,NA,NA,NA,NA,NA,NA,NA,NA,NA,NA,NA,NA,NA,NA,NA,NA,NA,NA
audio-instructions,9,78980,0.0-5.0-4.0,voc_e2,11759,"[{""event"":""blur"",""trial"":0,""time"":0},{""event"":""focus"",""trial"":0,""time"":0},{""event"":""fullscreenenter"",""trial"":1,""time"":14356}]",NA,476.800000011921,static/audio/instructions5.wav,NA,0,NA,NA,NA,NA,NA,NA,NA,NA,NA,NA,NA,NA,NA,NA,NA,NA,NA,NA,NA,NA,NA,NA,NA,NA,NA
fcp-practice,10,81271,0.0-5.0-5.0-0.0,voc_e2,11759,"[{""event"":""blur"",""trial"":0,""time"":0},{""event"":""focus"",""trial"":0,""time"":0},{""event"":""fullscreenenter"",""trial"":1,""time"":14356}]",NA,NA,NA,NA,NA,NA,#EDC948,#46d3c8,10,0,1,null,null,null,37,1,763.0999999940395,10,1,practice,NA,NA,NA,NA,NA,NA,NA,NA,NA,NA
fcp-practice,11,83545,0.0-5.0-5.0-1.0,voc_e2,11759,"[{""event"":""blur"",""trial"":0,""time"":0},{""event"":""focus"",""trial"":0,""time"":0},{""event"":""fullscreenenter"",""trial"":1,""time"":14356}]",NA,NA,NA,NA,NA,NA,#EDC948,#46d3c8,10,0,1,null,null,null,37,1,764,10,1,practice,NA,NA,NA,NA,NA,NA,NA,NA,NA,NA
fcp-practice,12,85607,0.0-5.0-5.0-2.0,voc_e2,11759,"[{""event"":""blur"",""trial"":0,""time"":0},{""event"":""focus"",""trial"":0,""time"":0},{""event"":""fullscreenenter"",""trial"":1,""time"":14356}]",NA,NA,NA,NA,NA,NA,#EDC948,#46d3c8,0,10,1,null,null,null,37,1,555.9000000059605,0,1,practice,NA,NA,NA,NA,NA,NA,NA,NA,NA,NA
fcp-practice,13,87858,0.0-5.0-5.0-3.0,voc_e2,11759,"[{""event"":""blur"",""trial"":0,""time"":0},{""event"":""focus"",""trial"":0,""time"":0},{""event"":""fullscreenenter"",""trial"":1,""time"":14356}]",NA,NA,NA,NA,NA,NA,#EDC948,#46d3c8,10,0,1,null,null,null,37,1,740.7999999821186,10,1,practice,NA,NA,NA,NA,NA,NA,NA,NA,NA,NA
fcp-practice,14,90047,0.0-5.0-5.0-4.0,voc_e2,11759,"[{""event"":""blur"",""trial"":0,""time"":0},{""event"":""focus"",""trial"":0,""time"":0},{""event"":""fullscreenenter"",""trial"":1,""time"":14356}]",NA,NA,NA,NA,NA,NA,#EDC948,#46d3c8,10,0,1,null,null,null,37,1,682.9000000059605,10,1,practice,NA,NA,NA,NA,NA,NA,NA,NA,NA,NA
audio-instructions,15,109178,0.0-5.0-6.0,voc_e2,11759,"[{""event"":""blur"",""trial"":0,""time"":0},{""event"":""focus"",""trial"":0,""time"":0},{""event"":""fullscreenenter"",""trial"":1,""time"":14356}]",NA,1127.2999999821186,static/audio/instructions6.wav,NA,0,NA,NA,NA,NA,NA,NA,NA,NA,NA,NA,NA,NA,NA,NA,NA,NA,NA,NA,NA,NA,NA,NA,NA,NA,NA
audio-instructions,16,130830,0.0-5.0-7.0,voc_e2,11759,"[{""event"":""blur"",""trial"":0,""time"":0},{""event"":""focus"",""trial"":0,""time"":0},{""event"":""fullscreenenter"",""trial"":1,""time"":14356}]",NA,2457.9000000059605,static/audio/instructions7.wav,NA,0,NA,NA,NA,NA,NA,NA,NA,NA,NA,NA,NA,NA,NA,NA,NA,NA,NA,NA,NA,NA,NA,NA,NA,NA,NA
audio-instructions,17,141876,0.0-5.0-8.0,voc_e2,11759,"[{""event"":""blur"",""trial"":0,""time"":0},{""event"":""focus"",""trial"":0,""time"":0},{""event"":""fullscreenenter"",""trial"":1,""time"":14356}]",NA,1564.699999988079,static/audio/instructions8.wav,NA,0,NA,NA,NA,NA,NA,NA,NA,NA,NA,NA,NA,NA,NA,NA,NA,NA,NA,NA,NA,NA,NA,NA,NA,NA,NA
fcp-comprehension,18,154822,0.0-5.0-9.0,voc_e2,11759,"[{""event"":""blur"",""trial"":0,""time"":0},{""event"":""focus"",""trial"":0,""time"":0},{""event"":""fullscreenenter"",""trial"":1,""time"":14356}]",NA,12943.100000023842,NA,NA,NA,NA,NA,NA,NA,NA,NA,NA,NA,NA,NA,NA,NA,NA,NA,NA,"true,true",0,NA,NA,NA,NA,NA,NA,NA,NA
audio-instructions,19,163459,0.0-6.0-0.0,voc_e2,11759,"[{""event"":""blur"",""trial"":0,""time"":0},{""event"":""focus"",""trial"":0,""time"":0},{""event"":""fullscreenenter"",""trial"":1,""time"":14356}]",NA,3086.699999988079,static/audio/instructions9.wav,NA,0,NA,NA,NA,NA,NA,NA,NA,NA,NA,NA,NA,NA,NA,NA,NA,NA,NA,NA,NA,NA,NA,NA,NA,NA,NA
audio-instructions,20,176952,0.0-6.0-1.0,voc_e2,11759,"[{""event"":""blur"",""trial"":0,""time"":0},{""event"":""focus"",""trial"":0,""time"":0},{""event"":""fullscreenenter"",""trial"":1,""time"":14356}]",NA,1380.199999988079,static/audio/instructions10.wav,NA,0,NA,NA,NA,NA,NA,NA,NA,NA,NA,NA,NA,NA,NA,NA,NA,NA,NA,NA,NA,NA,NA,NA,NA,NA,NA
fcp-trial,21,183312,0.0-6.0-2.0,voc_e2,11759,"[{""event"":""blur"",""trial"":0,""time"":0},{""event"":""focus"",""trial"":0,""time"":0},{""event"":""fullscreenenter"",""trial"":1,""time"":14356}]",NA,NA,NA,NA,NA,0,#EDC948,#46d3c8,10,10,1,38,1,3727.199999988079,37,1,1078,10,1,practice,NA,NA,NA,NA,NA,NA,NA,NA,NA,NA
audio-instructions,22,199920,0.0-6.0-3.0,voc_e2,11759,"[{""event"":""blur"",""trial"":0,""time"":0},{""event"":""focus"",""trial"":0,""time"":0},{""event"":""fullscreenenter"",""trial"":1,""time"":14356}]",NA,5598,static/audio/instructions11.wav,NA,0,NA,NA,NA,NA,NA,NA,NA,NA,NA,NA,NA,NA,NA,NA,NA,NA,NA,NA,NA,NA,NA,NA,NA,NA,NA
fcp-trial,23,205662,0.0-6.0-4.0,voc_e2,11759,"[{""event"":""blur"",""trial"":0,""time"":0},{""event"":""focus"",""trial"":0,""time"":0},{""event"":""fullscreenenter"",""trial"":1,""time"":14356}]",NA,NA,NA,NA,NA,6,#EDC948,#46d3c8,10,10,1,40,0,2675.5999999940395,37,1,1541.6000000238419,10,1,practice,NA,NA,NA,NA,NA,NA,NA,NA,NA,NA
audio-instructions,24,225406,0.0-6.0-5.0,voc_e2,11759,"[{""event"":""blur"",""trial"":0,""time"":0},{""event"":""focus"",""trial"":0,""time"":0},{""event"":""fullscreenenter"",""trial"":1,""time"":14356}]",NA,1054.5,static/audio/instructions12.wav,NA,0,NA,NA,NA,NA,NA,NA,NA,NA,NA,NA,NA,NA,NA,NA,NA,NA,NA,NA,NA,NA,NA,NA,NA,NA,NA
audio-instructions,25,235431,0.0-6.0-6.0,voc_e2,11759,"[{""event"":""blur"",""trial"":0,""time"":0},{""event"":""focus"",""trial"":0,""time"":0},{""event"":""fullscreenenter"",""trial"":1,""time"":14356}]",NA,2429.7999999821186,static/audio/instructions13.wav,NA,0,NA,NA,NA,NA,NA,NA,NA,NA,NA,NA,NA,NA,NA,NA,NA,NA,NA,NA,NA,NA,NA,NA,NA,NA,NA
audio-instructions,26,248259,0.0-6.0-7.0,voc_e2,11759,"[{""event"":""blur"",""trial"":0,""time"":0},{""event"":""focus"",""trial"":0,""time"":0},{""event"":""fullscreenenter"",""trial"":1,""time"":14356}]",NA,4378.199999988079,static/audio/instructions14.wav,NA,0,NA,NA,NA,NA,NA,NA,NA,NA,NA,NA,NA,NA,NA,NA,NA,NA,NA,NA,NA,NA,NA,NA,NA,NA,NA
audio-instructions,27,255836,0.0-7.0-0.0,voc_e2,11759,"[{""event"":""blur"",""trial"":0,""time"":0},{""event"":""focus"",""trial"":0,""time"":0},{""event"":""fullscreenenter"",""trial"":1,""time"":14356}]",NA,655.0999999940395,static/audio/instructions15.wav,NA,0,NA,NA,NA,NA,NA,NA,NA,NA,NA,NA,NA,NA,NA,NA,NA,NA,NA,NA,NA,NA,NA,NA,NA,NA,NA
audio-instructions,28,263429,0.0-7.0-1.0,voc_e2,11759,"[{""event"":""blur"",""trial"":0,""time"":0},{""event"":""focus"",""trial"":0,""time"":0},{""event"":""fullscreenenter"",""trial"":1,""time"":14356}]",NA,768.6999999880791,static/audio/instructions16.wav,NA,0,NA,NA,NA,NA,NA,NA,NA,NA,NA,NA,NA,NA,NA,NA,NA,NA,NA,NA,NA,NA,NA,NA,NA,NA,NA
audio-instructions,29,271776,0.0-7.0-2.0,voc_e2,11759,"[{""event"":""blur"",""trial"":0,""time"":0},{""event"":""focus"",""trial"":0,""time"":0},{""event"":""fullscreenenter"",""trial"":1,""time"":14356}]",NA,666.0999999940395,static/audio/instructions17.wav,NA,0,NA,NA,NA,NA,NA,NA,NA,NA,NA,NA,NA,NA,NA,NA,NA,NA,NA,NA,NA,NA,NA,NA,NA,NA,NA
audio-instructions,30,280321,0.0-7.0-3.0,voc_e2,11759,"[{""event"":""blur"",""trial"":0,""time"":0},{""event"":""focus"",""trial"":0,""time"":0},{""event"":""fullscreenenter"",""trial"":1,""time"":14356}]",NA,780.3000000119209,static/audio/instructions18.wav,NA,0,NA,NA,NA,NA,NA,NA,NA,NA,NA,NA,NA,NA,NA,NA,NA,NA,NA,NA,NA,NA,NA,NA,NA,NA,NA
audio-instructions,31,288391,0.0-7.0-4.0,voc_e2,11759,"[{""event"":""blur"",""trial"":0,""time"":0},{""event"":""focus"",""trial"":0,""time"":0},{""event"":""fullscreenenter"",""trial"":1,""time"":14356}]",NA,1330.5999999940395,static/audio/instructions19.wav,NA,0,NA,NA,NA,NA,NA,NA,NA,NA,NA,NA,NA,NA,NA,NA,NA,NA,NA,NA,NA,NA,NA,NA,NA,NA,NA
fcp-comprehension,32,315493,0.0-7.0-5.0,voc_e2,11759,"[{""event"":""blur"",""trial"":0,""time"":0},{""event"":""focus"",""trial"":0,""time"":0},{""event"":""fullscreenenter"",""trial"":1,""time"":14356}]",NA,27100.10000002384,NA,NA,NA,NA,NA,NA,NA,NA,NA,NA,NA,NA,NA,NA,NA,NA,NA,NA,"false,false,false,true",0,NA,NA,NA,NA,NA,NA,NA,NA
audio-instructions,33,327259,0.0-8.0,voc_e2,11759,"[{""event"":""blur"",""trial"":0,""time"":0},{""event"":""focus"",""trial"":0,""time"":0},{""event"":""fullscreenenter"",""trial"":1,""time"":14356}]",NA,2549.5999999940395,static/audio/ready.wav,NA,0,NA,NA,NA,NA,NA,NA,NA,NA,NA,NA,NA,NA,NA,NA,NA,NA,NA,NA,NA,NA,NA,NA,NA,NA,NA
fcp-trial,34,332686,0.0-9.0-0.0,voc_e2,11759,"[{""event"":""blur"",""trial"":0,""time"":0},{""event"":""focus"",""trial"":0,""time"":0},{""event"":""fullscreenenter"",""trial"":1,""time"":14356}]",NA,NA,NA,NA,NA,6,#1CD855,#FA92F8,0,10,0,40,0,2729.9000000059605,39,0,1170.300000011921,10,1,experiment,NA,NA,0,0.1,0.9,1,0,1,1,NA
fcp-trial,35,337353,0.0-10.0-0.0,voc_e2,11759,"[{""event"":""blur"",""trial"":0,""time"":0},{""event"":""focus"",""trial"":0,""time"":0},{""event"":""fullscreenenter"",""trial"":1,""time"":14356}]",NA,NA,NA,NA,NA,4,#741CD8,#D8271C,0,10,1,40,0,2174.5999999940395,39,0,971.2999999821186,10,0,experiment,NA,NA,2,0.5,0.5,4,5,2,1,NA
fcp-trial,36,341007,0.0-11.0-0.0,voc_e2,11759,"[{""event"":""blur"",""trial"":0,""time"":0},{""event"":""focus"",""trial"":0,""time"":0},{""event"":""fullscreenenter"",""trial"":1,""time"":14356}]",NA,NA,NA,NA,NA,1,#D89F1C,#3386FF,10,0,1,40,0,1239.7000000178814,39,0,885.2000000178814,0,0,experiment,NA,NA,1,0.7,0.3,2,3,3,1,NA
fcp-trial,37,345208,0.0-12.0-0.0,voc_e2,11759,"[{""event"":""blur"",""trial"":0,""time"":0},{""event"":""focus"",""trial"":0,""time"":0},{""event"":""fullscreenenter"",""trial"":1,""time"":14356}]",NA,NA,NA,NA,NA,4,#1CD855,#FA92F8,0,0,0,40,0,1526.3999999761581,39,0,1163.300000011921,0,1,experiment,NA,NA,0,0.1,0.9,1,0,4,1,NA
fcp-trial,38,349259,0.0-13.0-0.0,voc_e2,11759,"[{""event"":""blur"",""trial"":0,""time"":0},{""event"":""focus"",""trial"":0,""time"":0},{""event"":""fullscreenenter"",""trial"":1,""time"":14356}]",NA,NA,NA,NA,NA,1,#741CD8,#D8271C,0,10,1,38,1,1739.300000011921,37,1,795.4000000059605,0,1,experiment,NA,NA,2,0.5,0.5,4,5,5,1,NA
fcp-trial,39,353042,0.0-14.0-0.0,voc_e2,11759,"[{""event"":""blur"",""trial"":0,""time"":0},{""event"":""focus"",""trial"":0,""time"":0},{""event"":""fullscreenenter"",""trial"":1,""time"":14356}]",NA,NA,NA,NA,NA,4,#3386FF,#D89F1C,0,0,0,38,1,1275.699999988079,37,1,998.2999999821186,0,0,experiment,NA,NA,1,0.3,0.7,3,2,6,1,NA
fcp-trial,40,356821,0.0-15.0-0.0,voc_e2,11759,"[{""event"":""blur"",""trial"":0,""time"":0},{""event"":""focus"",""trial"":0,""time"":0},{""event"":""fullscreenenter"",""trial"":1,""time"":14356}]",NA,NA,NA,NA,NA,2,#D89F1C,#3386FF,10,0,1,40,0,1203,37,1,1057,10,1,experiment,NA,NA,1,0.7,0.3,2,3,7,1,NA
fcp-trial,41,361779,0.0-16.0-0.0,voc_e2,11759,"[{""event"":""blur"",""trial"":0,""time"":0},{""event"":""focus"",""trial"":0,""time"":0},{""event"":""fullscreenenter"",""trial"":1,""time"":14356}]",NA,NA,NA,NA,NA,0,#1CD855,#FA92F8,0,0,0,40,0,1889.2999999821186,37,1,1561.3999999761581,0,0,experiment,NA,NA,0,0.1,0.9,1,0,8,1,NA
fcp-trial,42,366493,0.0-17.0-0.0,voc_e2,11759,"[{""event"":""blur"",""trial"":0,""time"":0},{""event"":""focus"",""trial"":0,""time"":0},{""event"":""fullscreenenter"",""trial"":1,""time"":14356}]",NA,NA,NA,NA,NA,2,#FA92F8,#1CD855,10,0,1,38,1,1878.4000000059605,37,1,1328.199999988079,10,1,experiment,NA,NA,0,0.9,0.1,0,1,9,1,NA
fcp-trial,43,371709,0.0-18.0-0.0,voc_e2,11759,"[{""event"":""blur"",""trial"":0,""time"":0},{""event"":""focus"",""trial"":0,""time"":0},{""event"":""fullscreenenter"",""trial"":1,""time"":14356}]",NA,NA,NA,NA,NA,5,#D8271C,#741CD8,10,10,0,38,1,3079.800000011921,37,1,626.1999999880791,10,0,experiment,NA,NA,2,0.5,0.5,5,4,10,1,NA
fcp-trial,44,379630,0.0-19.0-0.0,voc_e2,11759,"[{""event"":""blur"",""trial"":0,""time"":0},{""event"":""focus"",""trial"":0,""time"":0},{""event"":""fullscreenenter"",""trial"":1,""time"":14356}]",NA,NA,NA,NA,NA,6,#3386FF,#D89F1C,0,10,0,40,0,5814.4000000059605,39,0,601.1999999880791,10,1,experiment,NA,NA,1,0.3,0.7,3,2,11,1,NA
fcp-trial,45,385742,0.0-20.0-0.0,voc_e2,11759,"[{""event"":""blur"",""trial"":0,""time"":0},{""event"":""focus"",""trial"":0,""time"":0},{""event"":""fullscreenenter"",""trial"":1,""time"":14356}]",NA,NA,NA,NA,NA,0,#3386FF,#D89F1C,0,10,0,38,1,2498.800000011921,39,0,2107.9000000059605,10,1,experiment,NA,NA,1,0.3,0.7,3,2,12,1,NA
fcp-trial,46,390136,0.0-21.0-0.0,voc_e2,11759,"[{""event"":""blur"",""trial"":0,""time"":0},{""event"":""focus"",""trial"":0,""time"":0},{""event"":""fullscreenenter"",""trial"":1,""time"":14356}]",NA,NA,NA,NA,NA,3,#741CD8,#D8271C,0,0,1,38,1,1545.5,39,0,1340.5,0,0,experiment,NA,NA,2,0.5,0.5,4,5,13,1,NA
fcp-trial,47,394130,0.0-22.0-0.0,voc_e2,11759,"[{""event"":""blur"",""trial"":0,""time"":0},{""event"":""focus"",""trial"":0,""time"":0},{""event"":""fullscreenenter"",""trial"":1,""time"":14356}]",NA,NA,NA,NA,NA,1,#1CD855,#FA92F8,0,10,0,40,0,1595.199999988079,37,1,892.0999999940395,0,0,experiment,NA,NA,0,0.1,0.9,1,0,14,1,NA
fcp-trial,48,398650,0.0-23.0-0.0,voc_e2,11759,"[{""event"":""blur"",""trial"":0,""time"":0},{""event"":""focus"",""trial"":0,""time"":0},{""event"":""fullscreenenter"",""trial"":1,""time"":14356}]",NA,NA,NA,NA,NA,6,#D8271C,#741CD8,10,0,0,40,0,2051.2000000178814,37,1,960.5999999940395,10,0,experiment,NA,NA,2,0.5,0.5,5,4,15,1,NA
fcp-trial,49,402226,0.0-24.0-0.0,voc_e2,11759,"[{""event"":""blur"",""trial"":0,""time"":0},{""event"":""focus"",""trial"":0,""time"":0},{""event"":""fullscreenenter"",""trial"":1,""time"":14356}]",NA,NA,NA,NA,NA,3,#FA92F8,#1CD855,10,0,1,38,1,1309,39,0,758.5,0,0,experiment,NA,NA,0,0.9,0.1,0,1,16,1,NA
fcp-trial,50,405637,0.0-25.0-0.0,voc_e2,11759,"[{""event"":""blur"",""trial"":0,""time"":0},{""event"":""focus"",""trial"":0,""time"":0},{""event"":""fullscreenenter"",""trial"":1,""time"":14356}]",NA,NA,NA,NA,NA,3,#D89F1C,#3386FF,0,0,1,38,1,1153,39,0,750.5,0,0,experiment,NA,NA,1,0.7,0.3,2,3,17,1,NA
fcp-trial,51,409188,0.0-26.0-0.0,voc_e2,11759,"[{""event"":""blur"",""trial"":0,""time"":0},{""event"":""focus"",""trial"":0,""time"":0},{""event"":""fullscreenenter"",""trial"":1,""time"":14356}]",NA,NA,NA,NA,NA,5,#3386FF,#D89F1C,0,10,0,38,1,924.8000000119209,39,0,1120,10,1,experiment,NA,NA,1,0.3,0.7,3,2,18,1,NA
fcp-trial,52,412990,0.0-27.0-0.0,voc_e2,11759,"[{""event"":""blur"",""trial"":0,""time"":0},{""event"":""focus"",""trial"":0,""time"":0},{""event"":""fullscreenenter"",""trial"":1,""time"":14356}]",NA,NA,NA,NA,NA,0,#741CD8,#D8271C,10,10,1,38,1,1684.699999988079,37,1,611.1999999880791,10,1,experiment,NA,NA,2,0.5,0.5,4,5,19,1,NA
fcp-trial,53,419667,0.0-28.0-0.0,voc_e2,11759,"[{""event"":""blur"",""trial"":0,""time"":0},{""event"":""focus"",""trial"":0,""time"":0},{""event"":""fullscreenenter"",""trial"":1,""time"":14356}]",NA,NA,NA,NA,NA,5,#1CD855,#FA92F8,0,10,0,40,0,4170.300000011921,37,1,1000.0999999940395,0,0,experiment,NA,NA,0,0.1,0.9,1,0,20,1,NA
fcp-trial,54,426262,0.0-29.0-0.0,voc_e2,11759,"[{""event"":""blur"",""trial"":0,""time"":0},{""event"":""focus"",""trial"":0,""time"":0},{""event"":""fullscreenenter"",""trial"":1,""time"":14356}]",NA,NA,NA,NA,NA,2,#741CD8,#D8271C,10,0,1,38,1,3764.4000000059605,37,1,1323,10,1,experiment,NA,NA,2,0.5,0.5,4,5,21,1,NA
fcp-trial,55,430588,0.0-30.0-0.0,voc_e2,11759,"[{""event"":""blur"",""trial"":0,""time"":0},{""event"":""focus"",""trial"":0,""time"":0},{""event"":""fullscreenenter"",""trial"":1,""time"":14356}]",NA,NA,NA,NA,NA,1,#FA92F8,#1CD855,10,10,1,38,1,1782.5999999940395,39,0,1035.5,10,0,experiment,NA,NA,0,0.9,0.1,0,1,22,1,NA
fcp-trial,56,437055,0.0-31.0-0.0,voc_e2,11759,"[{""event"":""blur"",""trial"":0,""time"":0},{""event"":""focus"",""trial"":0,""time"":0},{""event"":""fullscreenenter"",""trial"":1,""time"":14356}]",NA,NA,NA,NA,NA,6,#D89F1C,#3386FF,10,0,1,40,0,3174,37,1,1784.300000011921,10,1,experiment,NA,NA,1,0.7,0.3,2,3,23,1,NA
fcp-trial,57,442098,0.0-32.0-0.0,voc_e2,11759,"[{""event"":""blur"",""trial"":0,""time"":0},{""event"":""focus"",""trial"":0,""time"":0},{""event"":""fullscreenenter"",""trial"":1,""time"":14356}]",NA,NA,NA,NA,NA,4,#FA92F8,#1CD855,10,0,1,38,1,1886.699999988079,39,0,1650.300000011921,0,0,experiment,NA,NA,0,0.9,0.1,0,1,24,1,NA
fcp-trial,58,447560,0.0-33.0-0.0,voc_e2,11759,"[{""event"":""blur"",""trial"":0,""time"":0},{""event"":""focus"",""trial"":0,""time"":0},{""event"":""fullscreenenter"",""trial"":1,""time"":14356}]",NA,NA,NA,NA,NA,1,#D89F1C,#3386FF,10,10,1,38,1,3386.0999999940395,37,1,568.9000000059605,10,1,experiment,NA,NA,1,0.7,0.3,2,3,25,1,NA
fcp-trial,59,451843,0.0-34.0-0.0,voc_e2,11759,"[{""event"":""blur"",""trial"":0,""time"":0},{""event"":""focus"",""trial"":0,""time"":0},{""event"":""fullscreenenter"",""trial"":1,""time"":14356}]",NA,NA,NA,NA,NA,5,#3386FF,#D89F1C,0,10,0,38,1,2037.4000000059605,39,0,738.7000000178814,10,1,experiment,NA,NA,1,0.3,0.7,3,2,26,1,NA
fcp-trial,60,457848,0.0-35.0-0.0,voc_e2,11759,"[{""event"":""blur"",""trial"":0,""time"":0},{""event"":""focus"",""trial"":0,""time"":0},{""event"":""fullscreenenter"",""trial"":1,""time"":14356}]",NA,NA,NA,NA,NA,3,#741CD8,#D8271C,10,10,1,38,1,3858,37,1,641.3000000119209,10,1,experiment,NA,NA,2,0.5,0.5,4,5,27,1,NA
fcp-trial,61,464361,0.0-36.0-0.0,voc_e2,11759,"[{""event"":""blur"",""trial"":0,""time"":0},{""event"":""focus"",""trial"":0,""time"":0},{""event"":""fullscreenenter"",""trial"":1,""time"":14356}]",NA,NA,NA,NA,NA,6,#741CD8,#D8271C,10,0,1,40,0,2969.800000011921,39,0,2033.7999999821186,0,0,experiment,NA,NA,2,0.5,0.5,4,5,28,1,NA
fcp-trial,62,470507,0.0-37.0-0.0,voc_e2,11759,"[{""event"":""blur"",""trial"":0,""time"":0},{""event"":""focus"",""trial"":0,""time"":0},{""event"":""fullscreenenter"",""trial"":1,""time"":14356}]",NA,NA,NA,NA,NA,0,#FA92F8,#1CD855,0,10,1,38,1,3576.199999988079,37,1,1061.9000000059605,0,1,experiment,NA,NA,0,0.9,0.1,0,1,29,1,NA
fcp-trial,63,479629,0.0-38.0-0.0,voc_e2,11759,"[{""event"":""blur"",""trial"":0,""time"":0},{""event"":""focus"",""trial"":0,""time"":0},{""event"":""fullscreenenter"",""trial"":1,""time"":14356}]",NA,NA,NA,NA,NA,0,#D89F1C,#3386FF,10,0,1,38,1,5122.5999999940395,37,1,2492.699999988079,10,1,experiment,NA,NA,1,0.7,0.3,2,3,30,1,NA
fcp-trial,64,483922,0.0-39.0-0.0,voc_e2,11759,"[{""event"":""blur"",""trial"":0,""time"":0},{""event"":""focus"",""trial"":0,""time"":0},{""event"":""fullscreenenter"",""trial"":1,""time"":14356}]",NA,NA,NA,NA,NA,2,#FA92F8,#1CD855,10,0,1,38,1,1983.6000000238419,37,1,802.8999999761581,10,1,experiment,NA,NA,0,0.9,0.1,0,1,31,1,NA
fcp-trial,65,488324,0.0-40.0-0.0,voc_e2,11759,"[{""event"":""blur"",""trial"":0,""time"":0},{""event"":""focus"",""trial"":0,""time"":0},{""event"":""fullscreenenter"",""trial"":1,""time"":14356}]",NA,NA,NA,NA,NA,1,#741CD8,#D8271C,0,0,1,38,1,2082.7999999821186,37,1,810.2999999821186,0,1,experiment,NA,NA,2,0.5,0.5,4,5,32,1,NA
fcp-trial,66,494107,0.0-41.0-0.0,voc_e2,11759,"[{""event"":""blur"",""trial"":0,""time"":0},{""event"":""focus"",""trial"":0,""time"":0},{""event"":""fullscreenenter"",""trial"":1,""time"":14356}]",NA,NA,NA,NA,NA,5,#D8271C,#741CD8,10,10,0,38,1,3221.0999999940395,39,0,1055.2000000178814,10,1,experiment,NA,NA,2,0.5,0.5,5,4,33,1,NA
fcp-trial,67,499544,0.0-42.0-0.0,voc_e2,11759,"[{""event"":""blur"",""trial"":0,""time"":0},{""event"":""focus"",""trial"":0,""time"":0},{""event"":""fullscreenenter"",""trial"":1,""time"":14356}]",NA,NA,NA,NA,NA,2,#3386FF,#D89F1C,0,10,0,38,1,2627.699999988079,39,0,1303.5,10,1,experiment,NA,NA,1,0.3,0.7,3,2,34,1,NA
fcp-trial,68,506518,0.0-43.0-0.0,voc_e2,11759,"[{""event"":""blur"",""trial"":0,""time"":0},{""event"":""focus"",""trial"":0,""time"":0},{""event"":""fullscreenenter"",""trial"":1,""time"":14356}]",NA,NA,NA,NA,NA,3,#3386FF,#D89F1C,0,0,0,38,1,1492.6000000238419,39,0,3974.399999976158,0,1,experiment,NA,NA,1,0.3,0.7,3,2,35,1,NA
fcp-trial,69,514397,0.0-44.0-0.0,voc_e2,11759,"[{""event"":""blur"",""trial"":0,""time"":0},{""event"":""focus"",""trial"":0,""time"":0},{""event"":""fullscreenenter"",""trial"":1,""time"":14356}]",NA,NA,NA,NA,NA,6,#1CD855,#FA92F8,0,0,0,38,1,4387.300000011921,39,0,1984.300000011921,0,1,experiment,NA,NA,0,0.1,0.9,1,0,36,1,NA
fcp-trial,70,517758,0.0-45.0-0.0,voc_e2,11759,"[{""event"":""blur"",""trial"":0,""time"":0},{""event"":""focus"",""trial"":0,""time"":0},{""event"":""fullscreenenter"",""trial"":1,""time"":14356}]",NA,NA,NA,NA,NA,0,#741CD8,#D8271C,10,0,1,38,1,1275.9000000059605,37,1,577.4000000059605,10,1,experiment,NA,NA,2,0.5,0.5,4,5,37,1,NA
fcp-trial,71,521174,0.0-46.0-0.0,voc_e2,11759,"[{""event"":""blur"",""trial"":0,""time"":0},{""event"":""focus"",""trial"":0,""time"":0},{""event"":""fullscreenenter"",""trial"":1,""time"":14356}]",NA,NA,NA,NA,NA,4,#3386FF,#D89F1C,0,10,0,38,1,1139.9000000059605,39,0,769.1000000238419,10,1,experiment,NA,NA,1,0.3,0.7,3,2,38,1,NA
fcp-trial,72,524777,0.0-47.0-0.0,voc_e2,11759,"[{""event"":""blur"",""trial"":0,""time"":0},{""event"":""focus"",""trial"":0,""time"":0},{""event"":""fullscreenenter"",""trial"":1,""time"":14356}]",NA,NA,NA,NA,NA,3,#FA92F8,#1CD855,10,0,1,38,1,1470.2000000178814,39,0,624.4000000059605,0,0,experiment,NA,NA,0,0.9,0.1,0,1,39,1,NA
fcp-trial,73,534971,0.0-48.0-0.0,voc_e2,11759,"[{""event"":""blur"",""trial"":0,""time"":0},{""event"":""focus"",""trial"":0,""time"":0},{""event"":""fullscreenenter"",""trial"":1,""time"":14356}]",NA,NA,NA,NA,NA,4,#D8271C,#741CD8,10,10,0,40,0,7430.5999999940395,39,0,1256.4000000059605,10,1,experiment,NA,NA,2,0.5,0.5,5,4,40,1,NA
fcp-trial,74,539891,0.0-49.0-0.0,voc_e2,11759,"[{""event"":""blur"",""trial"":0,""time"":0},{""event"":""focus"",""trial"":0,""time"":0},{""event"":""fullscreenenter"",""trial"":1,""time"":14356}]",NA,NA,NA,NA,NA,5,#FA92F8,#1CD855,10,0,1,40,0,2633.199999988079,37,1,777.8999999761581,10,1,experiment,NA,NA,0,0.9,0.1,0,1,41,1,NA
fcp-trial,75,545114,0.0-50.0-0.0,voc_e2,11759,"[{""event"":""blur"",""trial"":0,""time"":0},{""event"":""focus"",""trial"":0,""time"":0},{""event"":""fullscreenenter"",""trial"":1,""time"":14356}]",NA,NA,NA,NA,NA,2,#D8271C,#741CD8,10,10,0,40,0,3031.699999988079,39,0,683.3999999761581,10,1,experiment,NA,NA,2,0.5,0.5,5,4,42,1,NA
fcp-trial,76,548840,0.0-51.0-0.0,voc_e2,11759,"[{""event"":""blur"",""trial"":0,""time"":0},{""event"":""focus"",""trial"":0,""time"":0},{""event"":""fullscreenenter"",""trial"":1,""time"":14356}]",NA,NA,NA,NA,NA,2,#1CD855,#FA92F8,0,10,0,40,0,1532.0999999940395,37,1,686.5999999940395,0,0,experiment,NA,NA,0,0.1,0.9,1,0,43,1,NA
fcp-trial,77,552626,0.0-52.0-0.0,voc_e2,11759,"[{""event"":""blur"",""trial"":0,""time"":0},{""event"":""focus"",""trial"":0,""time"":0},{""event"":""fullscreenenter"",""trial"":1,""time"":14356}]",NA,NA,NA,NA,NA,3,#FA92F8,#1CD855,10,0,1,38,1,1748.699999988079,39,0,531.2999999821186,0,0,experiment,NA,NA,0,0.9,0.1,0,1,44,1,NA
fcp-trial,78,557044,0.0-53.0-0.0,voc_e2,11759,"[{""event"":""blur"",""trial"":0,""time"":0},{""event"":""focus"",""trial"":0,""time"":0},{""event"":""fullscreenenter"",""trial"":1,""time"":14356}]",NA,NA,NA,NA,NA,1,#741CD8,#D8271C,0,10,1,38,1,2266.699999988079,37,1,641.7999999821186,0,1,experiment,NA,NA,2,0.5,0.5,4,5,45,1,NA
fcp-trial,79,563157,0.0-54.0-0.0,voc_e2,11759,"[{""event"":""blur"",""trial"":0,""time"":0},{""event"":""focus"",""trial"":0,""time"":0},{""event"":""fullscreenenter"",""trial"":1,""time"":14356}]",NA,NA,NA,NA,NA,6,#741CD8,#D8271C,10,10,1,38,1,3731,37,1,875.6999999880791,10,1,experiment,NA,NA,2,0.5,0.5,4,5,46,2,NA
fcp-trial,80,566837,0.0-55.0-0.0,voc_e2,11759,"[{""event"":""blur"",""trial"":0,""time"":0},{""event"":""focus"",""trial"":0,""time"":0},{""event"":""fullscreenenter"",""trial"":1,""time"":14356}]",NA,NA,NA,NA,NA,0,#3386FF,#D89F1C,0,0,0,38,1,1800.199999988079,39,0,370.80000001192093,0,1,experiment,NA,NA,1,0.3,0.7,3,2,47,2,NA
fcp-trial,81,570731,0.0-56.0-0.0,voc_e2,11759,"[{""event"":""blur"",""trial"":0,""time"":0},{""event"":""focus"",""trial"":0,""time"":0},{""event"":""fullscreenenter"",""trial"":1,""time"":14356}]",NA,NA,NA,NA,NA,5,#D89F1C,#3386FF,0,10,1,38,1,1461.3999999761581,37,1,923.6999999880791,0,1,experiment,NA,NA,1,0.7,0.3,2,3,48,2,NA
fcp-trial,82,574195,0.0-57.0-0.0,voc_e2,11759,"[{""event"":""blur"",""trial"":0,""time"":0},{""event"":""focus"",""trial"":0,""time"":0},{""event"":""fullscreenenter"",""trial"":1,""time"":14356}]",NA,NA,NA,NA,NA,4,#FA92F8,#1CD855,10,0,1,38,1,1153.5999999940395,37,1,802.4000000059605,10,1,experiment,NA,NA,0,0.9,0.1,0,1,49,2,NA
fcp-trial,83,578200,0.0-58.0-0.0,voc_e2,11759,"[{""event"":""blur"",""trial"":0,""time"":0},{""event"":""focus"",""trial"":0,""time"":0},{""event"":""fullscreenenter"",""trial"":1,""time"":14356}]",NA,NA,NA,NA,NA,4,#D89F1C,#3386FF,0,0,1,38,1,1791.800000011921,39,0,705.8999999761581,0,0,experiment,NA,NA,1,0.7,0.3,2,3,50,2,NA
fcp-trial,84,589899,0.0-59.0-0.0,voc_e2,11759,"[{""event"":""blur"",""trial"":0,""time"":0},{""event"":""focus"",""trial"":0,""time"":0},{""event"":""fullscreenenter"",""trial"":1,""time"":14356}]",NA,NA,NA,NA,NA,0,#D8271C,#741CD8,0,10,0,38,1,7112.0999999940395,39,0,3080.100000023842,10,1,experiment,NA,NA,2,0.5,0.5,5,4,51,2,NA
fcp-trial,85,594055,0.0-60.0-0.0,voc_e2,11759,"[{""event"":""blur"",""trial"":0,""time"":0},{""event"":""focus"",""trial"":0,""time"":0},{""event"":""fullscreenenter"",""trial"":1,""time"":14356}]",NA,NA,NA,NA,NA,5,#741CD8,#D8271C,10,0,1,38,1,2193.600000023842,37,1,454.7999999821186,10,1,experiment,NA,NA,2,0.5,0.5,4,5,52,2,NA
fcp-trial,86,597527,0.0-61.0-0.0,voc_e2,11759,"[{""event"":""blur"",""trial"":0,""time"":0},{""event"":""focus"",""trial"":0,""time"":0},{""event"":""fullscreenenter"",""trial"":1,""time"":14356}]",NA,NA,NA,NA,NA,6,#3386FF,#D89F1C,0,0,0,38,1,1516.5,39,0,448.59999999403954,0,1,experiment,NA,NA,1,0.3,0.7,3,2,53,2,NA
fcp-trial,87,603079,0.0-62.0-0.0,voc_e2,11759,"[{""event"":""blur"",""trial"":0,""time"":0},{""event"":""focus"",""trial"":0,""time"":0},{""event"":""fullscreenenter"",""trial"":1,""time"":14356}]",NA,NA,NA,NA,NA,0,#1CD855,#FA92F8,0,10,0,38,1,3321.9000000059605,39,0,726.7999999821186,10,1,experiment,NA,NA,0,0.1,0.9,1,0,54,2,NA
fcp-trial,88,607015,0.0-63.0-0.0,voc_e2,11759,"[{""event"":""blur"",""trial"":0,""time"":0},{""event"":""focus"",""trial"":0,""time"":0},{""event"":""fullscreenenter"",""trial"":1,""time"":14356}]",NA,NA,NA,NA,NA,3,#D8271C,#741CD8,0,10,0,38,1,1493.0999999940395,39,0,936.3999999761581,10,1,experiment,NA,NA,2,0.5,0.5,5,4,55,2,NA
fcp-trial,89,614515,0.0-64.0-0.0,voc_e2,11759,"[{""event"":""blur"",""trial"":0,""time"":0},{""event"":""focus"",""trial"":0,""time"":0},{""event"":""fullscreenenter"",""trial"":1,""time"":14356}]",NA,NA,NA,NA,NA,2,#D89F1C,#3386FF,10,0,1,38,1,2359.800000011921,37,1,3633.5,10,1,experiment,NA,NA,1,0.7,0.3,2,3,56,2,NA
fcp-trial,90,621236,0.0-65.0-0.0,voc_e2,11759,"[{""event"":""blur"",""trial"":0,""time"":0},{""event"":""focus"",""trial"":0,""time"":0},{""event"":""fullscreenenter"",""trial"":1,""time"":14356}]",NA,NA,NA,NA,NA,1,#3386FF,#D89F1C,0,10,0,38,1,4666.300000011921,39,0,548.0999999940395,10,1,experiment,NA,NA,1,0.3,0.7,3,2,57,2,NA
fcp-trial,91,627049,0.0-66.0-0.0,voc_e2,11759,"[{""event"":""blur"",""trial"":0,""time"":0},{""event"":""focus"",""trial"":0,""time"":0},{""event"":""fullscreenenter"",""trial"":1,""time"":14356}]",NA,NA,NA,NA,NA,2,#741CD8,#D8271C,0,10,1,40,0,2511.600000023842,39,0,1795,10,0,experiment,NA,NA,2,0.5,0.5,4,5,58,2,NA
fcp-trial,92,632542,0.0-67.0-0.0,voc_e2,11759,"[{""event"":""blur"",""trial"":0,""time"":0},{""event"":""focus"",""trial"":0,""time"":0},{""event"":""fullscreenenter"",""trial"":1,""time"":14356}]",NA,NA,NA,NA,NA,1,#1CD855,#FA92F8,0,10,0,38,1,3231.4000000059605,39,0,755.6000000238419,10,1,experiment,NA,NA,0,0.1,0.9,1,0,59,2,NA
fcp-trial,93,636796,0.0-68.0-0.0,voc_e2,11759,"[{""event"":""blur"",""trial"":0,""time"":0},{""event"":""focus"",""trial"":0,""time"":0},{""event"":""fullscreenenter"",""trial"":1,""time"":14356}]",NA,NA,NA,NA,NA,3,#3386FF,#D89F1C,10,10,0,38,1,1300.3999999761581,39,0,1448.2999999821186,10,1,experiment,NA,NA,1,0.3,0.7,3,2,60,2,NA
fcp-trial,94,644074,0.0-69.0-0.0,voc_e2,11759,"[{""event"":""blur"",""trial"":0,""time"":0},{""event"":""focus"",""trial"":0,""time"":0},{""event"":""fullscreenenter"",""trial"":1,""time"":14356}]",NA,NA,NA,NA,NA,5,#1CD855,#FA92F8,10,10,0,40,0,4665.0999999940395,37,1,1106.5999999940395,10,0,experiment,NA,NA,0,0.1,0.9,1,0,61,2,NA
fcp-trial,95,652133,0.0-70.0-0.0,voc_e2,11759,"[{""event"":""blur"",""trial"":0,""time"":0},{""event"":""focus"",""trial"":0,""time"":0},{""event"":""fullscreenenter"",""trial"":1,""time"":14356}]",NA,NA,NA,NA,NA,4,#741CD8,#D8271C,10,10,1,38,1,3736,37,1,2815.0999999940395,10,1,experiment,NA,NA,2,0.5,0.5,4,5,62,2,NA
fcp-trial,96,658514,0.0-71.0-0.0,voc_e2,11759,"[{""event"":""blur"",""trial"":0,""time"":0},{""event"":""focus"",""trial"":0,""time"":0},{""event"":""fullscreenenter"",""trial"":1,""time"":14356}]",NA,NA,NA,NA,NA,6,#1CD855,#FA92F8,0,10,0,40,0,3864.100000023842,37,1,1010.3000000119209,0,0,experiment,NA,NA,0,0.1,0.9,1,0,63,2,NA
fcp-trial,97,663675,0.0-72.0-0.0,voc_e2,11759,"[{""event"":""blur"",""trial"":0,""time"":0},{""event"":""focus"",""trial"":0,""time"":0},{""event"":""fullscreenenter"",""trial"":1,""time"":14356}]",NA,NA,NA,NA,NA,5,#3386FF,#D89F1C,10,0,0,38,1,3061.4000000059605,39,0,589.4000000059605,0,1,experiment,NA,NA,1,0.3,0.7,3,2,64,2,NA
fcp-trial,98,668052,0.0-73.0-0.0,voc_e2,11759,"[{""event"":""blur"",""trial"":0,""time"":0},{""event"":""focus"",""trial"":0,""time"":0},{""event"":""fullscreenenter"",""trial"":1,""time"":14356}]",NA,NA,NA,NA,NA,2,#D89F1C,#3386FF,10,10,1,40,0,2105.800000011921,37,1,766.6999999880791,10,1,experiment,NA,NA,1,0.7,0.3,2,3,65,2,NA
fcp-trial,99,674525,0.0-74.0-0.0,voc_e2,11759,"[{""event"":""blur"",""trial"":0,""time"":0},{""event"":""focus"",""trial"":0,""time"":0},{""event"":""fullscreenenter"",""trial"":1,""time"":14356}]",NA,NA,NA,NA,NA,3,#1CD855,#FA92F8,0,10,0,38,1,2276.9000000059605,39,0,2692.300000011921,10,1,experiment,NA,NA,0,0.1,0.9,1,0,66,2,NA
fcp-trial,100,680843,0.0-75.0-0.0,voc_e2,11759,"[{""event"":""blur"",""trial"":0,""time"":0},{""event"":""focus"",""trial"":0,""time"":0},{""event"":""fullscreenenter"",""trial"":1,""time"":14356}]",NA,NA,NA,NA,NA,4,#D89F1C,#3386FF,10,10,1,38,1,2383.9000000059605,37,1,2425.4000000059605,10,1,experiment,NA,NA,1,0.7,0.3,2,3,67,2,NA
fcp-trial,101,687206,0.0-76.0-0.0,voc_e2,11759,"[{""event"":""blur"",""trial"":0,""time"":0},{""event"":""focus"",""trial"":0,""time"":0},{""event"":""fullscreenenter"",""trial"":1,""time"":14356}]",NA,NA,NA,NA,NA,4,#1CD855,#FA92F8,10,10,0,38,1,3790.800000011921,39,0,1065,10,1,experiment,NA,NA,0,0.1,0.9,1,0,68,2,NA
fcp-trial,102,691494,0.0-77.0-0.0,voc_e2,11759,"[{""event"":""blur"",""trial"":0,""time"":0},{""event"":""focus"",""trial"":0,""time"":0},{""event"":""fullscreenenter"",""trial"":1,""time"":14356}]",NA,NA,NA,NA,NA,3,#741CD8,#D8271C,0,0,1,38,1,2073.199999988079,37,1,702.2999999821186,0,1,experiment,NA,NA,2,0.5,0.5,4,5,69,2,NA
fcp-trial,103,695369,0.0-78.0-0.0,voc_e2,11759,"[{""event"":""blur"",""trial"":0,""time"":0},{""event"":""focus"",""trial"":0,""time"":0},{""event"":""fullscreenenter"",""trial"":1,""time"":14356}]",NA,NA,NA,NA,NA,5,#FA92F8,#1CD855,10,0,1,40,0,1650.2999999821186,37,1,718.2000000178814,10,1,experiment,NA,NA,0,0.9,0.1,0,1,70,2,NA
fcp-trial,104,710373,0.0-79.0-0.0,voc_e2,11759,"[{""event"":""blur"",""trial"":0,""time"":0},{""event"":""focus"",""trial"":0,""time"":0},{""event"":""fullscreenenter"",""trial"":1,""time"":14356}]",NA,NA,NA,NA,NA,6,#FA92F8,#1CD855,10,0,1,null,null,null,null,null,null,NA,0,experiment,NA,NA,0,0.9,0.1,0,1,71,2,NA
fcp-trial,105,714539,0.0-80.0-0.0,voc_e2,11759,"[{""event"":""blur"",""trial"":0,""time"":0},{""event"":""focus"",""trial"":0,""time"":0},{""event"":""fullscreenenter"",""trial"":1,""time"":14356}]",NA,NA,NA,NA,NA,6,#3386FF,#D89F1C,0,0,0,38,1,2171.5,39,0,485.40000000596046,0,1,experiment,NA,NA,1,0.3,0.7,3,2,72,2,NA
fcp-trial,106,719705,0.0-81.0-0.0,voc_e2,11759,"[{""event"":""blur"",""trial"":0,""time"":0},{""event"":""focus"",""trial"":0,""time"":0},{""event"":""fullscreenenter"",""trial"":1,""time"":14356}]",NA,NA,NA,NA,NA,1,#D89F1C,#3386FF,10,0,1,38,1,2144.699999988079,37,1,1515.2000000178814,10,1,experiment,NA,NA,1,0.7,0.3,2,3,73,2,NA
fcp-trial,107,723649,0.0-82.0-0.0,voc_e2,11759,"[{""event"":""blur"",""trial"":0,""time"":0},{""event"":""focus"",""trial"":0,""time"":0},{""event"":""fullscreenenter"",""trial"":1,""time"":14356}]",NA,NA,NA,NA,NA,2,#741CD8,#D8271C,10,10,1,38,1,1680.9000000059605,37,1,755.5,10,1,experiment,NA,NA,2,0.5,0.5,4,5,74,2,NA
fcp-trial,108,728613,0.0-83.0-0.0,voc_e2,11759,"[{""event"":""blur"",""trial"":0,""time"":0},{""event"":""focus"",""trial"":0,""time"":0},{""event"":""fullscreenenter"",""trial"":1,""time"":14356}]",NA,NA,NA,NA,NA,6,#D8271C,#741CD8,0,0,0,40,0,2395.0999999940395,39,0,1062.5999999940395,0,1,experiment,NA,NA,2,0.5,0.5,5,4,75,2,NA
fcp-trial,109,733049,0.0-84.0-0.0,voc_e2,11759,"[{""event"":""blur"",""trial"":0,""time"":0},{""event"":""focus"",""trial"":0,""time"":0},{""event"":""fullscreenenter"",""trial"":1,""time"":14356}]",NA,NA,NA,NA,NA,0,#1CD855,#FA92F8,0,10,0,38,1,1999.9000000059605,39,0,925.9000000059605,10,1,experiment,NA,NA,0,0.1,0.9,1,0,76,2,NA
fcp-trial,110,738470,0.0-85.0-0.0,voc_e2,11759,"[{""event"":""blur"",""trial"":0,""time"":0},{""event"":""focus"",""trial"":0,""time"":0},{""event"":""fullscreenenter"",""trial"":1,""time"":14356}]",NA,NA,NA,NA,NA,5,#D8271C,#741CD8,0,10,0,40,0,3047.4000000059605,39,0,868.5,10,1,experiment,NA,NA,2,0.5,0.5,5,4,77,2,NA
fcp-trial,111,744199,0.0-86.0-0.0,voc_e2,11759,"[{""event"":""blur"",""trial"":0,""time"":0},{""event"":""focus"",""trial"":0,""time"":0},{""event"":""fullscreenenter"",""trial"":1,""time"":14356}]",NA,NA,NA,NA,NA,3,#D89F1C,#3386FF,0,0,1,38,1,3730.199999988079,37,1,491.19999998807907,0,1,experiment,NA,NA,1,0.7,0.3,2,3,78,2,NA
fcp-trial,112,750809,0.0-87.0-0.0,voc_e2,11759,"[{""event"":""blur"",""trial"":0,""time"":0},{""event"":""focus"",""trial"":0,""time"":0},{""event"":""fullscreenenter"",""trial"":1,""time"":14356}]",NA,NA,NA,NA,NA,1,#1CD855,#FA92F8,0,10,0,38,1,3710.0999999940395,39,0,1390.9000000059605,10,1,experiment,NA,NA,0,0.1,0.9,1,0,79,2,NA
fcp-trial,113,756918,0.0-88.0-0.0,voc_e2,11759,"[{""event"":""blur"",""trial"":0,""time"":0},{""event"":""focus"",""trial"":0,""time"":0},{""event"":""fullscreenenter"",""trial"":1,""time"":14356}]",NA,NA,NA,NA,NA,2,#1CD855,#FA92F8,0,10,0,38,1,2899.800000011921,39,0,1702.3999999761581,10,1,experiment,NA,NA,0,0.1,0.9,1,0,80,2,NA
fcp-trial,114,761280,0.0-89.0-0.0,voc_e2,11759,"[{""event"":""blur"",""trial"":0,""time"":0},{""event"":""focus"",""trial"":0,""time"":0},{""event"":""fullscreenenter"",""trial"":1,""time"":14356}]",NA,NA,NA,NA,NA,0,#D89F1C,#3386FF,10,10,1,38,1,1988.800000011921,37,1,866.5,10,1,experiment,NA,NA,1,0.7,0.3,2,3,81,2,NA
fcp-trial,115,765424,0.0-90.0-0.0,voc_e2,11759,"[{""event"":""blur"",""trial"":0,""time"":0},{""event"":""focus"",""trial"":0,""time"":0},{""event"":""fullscreenenter"",""trial"":1,""time"":14356}]",NA,NA,NA,NA,NA,4,#D8271C,#741CD8,0,0,0,38,1,1951.0999999940395,39,0,685.6999999880791,0,1,experiment,NA,NA,2,0.5,0.5,5,4,82,2,NA
fcp-trial,116,769320,0.0-91.0-0.0,voc_e2,11759,"[{""event"":""blur"",""trial"":0,""time"":0},{""event"":""focus"",""trial"":0,""time"":0},{""event"":""fullscreenenter"",""trial"":1,""time"":14356}]",NA,NA,NA,NA,NA,0,#D8271C,#741CD8,10,0,0,38,1,1842.0999999940395,39,0,544.4000000059605,0,1,experiment,NA,NA,2,0.5,0.5,5,4,83,2,NA
fcp-trial,117,772993,0.0-92.0-0.0,voc_e2,11759,"[{""event"":""blur"",""trial"":0,""time"":0},{""event"":""focus"",""trial"":0,""time"":0},{""event"":""fullscreenenter"",""trial"":1,""time"":14356}]",NA,NA,NA,NA,NA,1,#741CD8,#D8271C,0,10,1,38,1,1751,37,1,415.40000000596046,0,1,experiment,NA,NA,2,0.5,0.5,4,5,84,2,NA
fcp-trial,118,776816,0.0-93.0-0.0,voc_e2,11759,"[{""event"":""blur"",""trial"":0,""time"":0},{""event"":""focus"",""trial"":0,""time"":0},{""event"":""fullscreenenter"",""trial"":1,""time"":14356}]",NA,NA,NA,NA,NA,5,#1CD855,#FA92F8,0,10,0,38,1,1789.699999988079,39,0,526.6000000238419,10,1,experiment,NA,NA,0,0.1,0.9,1,0,85,2,NA
fcp-trial,119,784319,0.0-94.0-0.0,voc_e2,11759,"[{""event"":""blur"",""trial"":0,""time"":0},{""event"":""focus"",""trial"":0,""time"":0},{""event"":""fullscreenenter"",""trial"":1,""time"":14356}]",NA,NA,NA,NA,NA,3,#1CD855,#FA92F8,0,10,0,38,1,2320.600000023842,39,0,3675.0999999940395,10,1,experiment,NA,NA,0,0.1,0.9,1,0,86,2,NA
fcp-trial,120,790307,0.0-95.0-0.0,voc_e2,11759,"[{""event"":""blur"",""trial"":0,""time"":0},{""event"":""focus"",""trial"":0,""time"":0},{""event"":""fullscreenenter"",""trial"":1,""time"":14356}]",NA,NA,NA,NA,NA,1,#741CD8,#D8271C,10,0,1,38,1,4075.2000000178814,39,0,407.30000001192093,0,0,experiment,NA,NA,2,0.5,0.5,4,5,87,2,NA
fcp-trial,121,794271,0.0-96.0-0.0,voc_e2,11759,"[{""event"":""blur"",""trial"":0,""time"":0},{""event"":""focus"",""trial"":0,""time"":0},{""event"":""fullscreenenter"",""trial"":1,""time"":14356}]",NA,NA,NA,NA,NA,4,#3386FF,#D89F1C,10,0,0,38,1,1658.5,39,0,799.4000000059605,0,1,experiment,NA,NA,1,0.3,0.7,3,2,88,2,NA
fcp-trial,122,799112,0.0-97.0-0.0,voc_e2,11759,"[{""event"":""blur"",""trial"":0,""time"":0},{""event"":""focus"",""trial"":0,""time"":0},{""event"":""fullscreenenter"",""trial"":1,""time"":14356}]",NA,NA,NA,NA,NA,6,#FA92F8,#1CD855,10,0,1,40,0,2808.800000011921,39,0,523.5999999940395,0,0,experiment,NA,NA,0,0.9,0.1,0,1,89,2,NA
fcp-trial,123,802894,0.0-98.0-0.0,voc_e2,11759,"[{""event"":""blur"",""trial"":0,""time"":0},{""event"":""focus"",""trial"":0,""time"":0},{""event"":""fullscreenenter"",""trial"":1,""time"":14356}]",NA,NA,NA,NA,NA,4,#741CD8,#D8271C,0,10,1,40,0,1408.300000011921,39,0,858.9000000059605,10,0,experiment,NA,NA,2,0.5,0.5,4,5,90,2,NA
fcp-trial,124,810349,0.0-99.0-0.0,voc_e2,11759,"[{""event"":""blur"",""trial"":0,""time"":0},{""event"":""focus"",""trial"":0,""time"":0},{""event"":""fullscreenenter"",""trial"":1,""time"":14356}]",NA,NA,NA,NA,NA,6,#D89F1C,#3386FF,0,0,1,40,0,3353.699999988079,37,1,2592.2999999821186,0,1,experiment,NA,NA,1,0.7,0.3,2,3,91,3,NA
fcp-trial,125,814032,0.0-100.0-0.0,voc_e2,11759,"[{""event"":""blur"",""trial"":0,""time"":0},{""event"":""focus"",""trial"":0,""time"":0},{""event"":""fullscreenenter"",""trial"":1,""time"":14356}]",NA,NA,NA,NA,NA,1,#FA92F8,#1CD855,10,10,1,38,1,1510.6000000238419,39,0,665.8999999761581,10,0,experiment,NA,NA,0,0.9,0.1,0,1,92,3,NA
fcp-trial,126,822802,0.0-101.0-0.0,voc_e2,11759,"[{""event"":""blur"",""trial"":0,""time"":0},{""event"":""focus"",""trial"":0,""time"":0},{""event"":""fullscreenenter"",""trial"":1,""time"":14356}]",NA,NA,NA,NA,NA,6,#D8271C,#741CD8,10,10,0,40,0,3567.2000000178814,37,1,3696.7999999821186,10,0,experiment,NA,NA,2,0.5,0.5,5,4,93,3,NA
fcp-trial,127,826718,0.0-102.0-0.0,voc_e2,11759,"[{""event"":""blur"",""trial"":0,""time"":0},{""event"":""focus"",""trial"":0,""time"":0},{""event"":""fullscreenenter"",""trial"":1,""time"":14356}]",NA,NA,NA,NA,NA,3,#741CD8,#D8271C,10,10,1,38,1,1660.5999999940395,39,0,747.1000000238419,10,0,experiment,NA,NA,2,0.5,0.5,4,5,94,3,NA
fcp-trial,128,830745,0.0-103.0-0.0,voc_e2,11759,"[{""event"":""blur"",""trial"":0,""time"":0},{""event"":""focus"",""trial"":0,""time"":0},{""event"":""fullscreenenter"",""trial"":1,""time"":14356}]",NA,NA,NA,NA,NA,2,#1CD855,#FA92F8,0,10,0,38,1,1528.2999999821186,39,0,991.0999999940395,10,1,experiment,NA,NA,0,0.1,0.9,1,0,95,3,NA
fcp-trial,129,834760,0.0-104.0-0.0,voc_e2,11759,"[{""event"":""blur"",""trial"":0,""time"":0},{""event"":""focus"",""trial"":0,""time"":0},{""event"":""fullscreenenter"",""trial"":1,""time"":14356}]",NA,NA,NA,NA,NA,0,#3386FF,#D89F1C,10,10,0,38,1,1405.2000000178814,39,0,1102.7999999821186,10,1,experiment,NA,NA,1,0.3,0.7,3,2,96,3,NA
fcp-trial,130,839606,0.0-105.0-0.0,voc_e2,11759,"[{""event"":""blur"",""trial"":0,""time"":0},{""event"":""focus"",""trial"":0,""time"":0},{""event"":""fullscreenenter"",""trial"":1,""time"":14356}]",NA,NA,NA,NA,NA,2,#D89F1C,#3386FF,0,0,1,40,0,2226.800000011921,37,1,1111.699999988079,0,1,experiment,NA,NA,1,0.7,0.3,2,3,97,3,NA
fcp-trial,131,843836,0.0-106.0-0.0,voc_e2,11759,"[{""event"":""blur"",""trial"":0,""time"":0},{""event"":""focus"",""trial"":0,""time"":0},{""event"":""fullscreenenter"",""trial"":1,""time"":14356}]",NA,NA,NA,NA,NA,5,#3386FF,#D89F1C,0,10,0,40,0,1920.300000011921,37,1,802.5999999940395,0,0,experiment,NA,NA,1,0.3,0.7,3,2,98,3,NA
fcp-trial,132,849734,0.0-107.0-0.0,voc_e2,11759,"[{""event"":""blur"",""trial"":0,""time"":0},{""event"":""focus"",""trial"":0,""time"":0},{""event"":""fullscreenenter"",""trial"":1,""time"":14356}]",NA,NA,NA,NA,NA,0,#D8271C,#741CD8,0,10,0,38,1,2500.4000000059605,37,1,1890.4000000059605,0,0,experiment,NA,NA,2,0.5,0.5,5,4,99,3,NA
fcp-trial,133,856220,0.0-108.0-0.0,voc_e2,11759,"[{""event"":""blur"",""trial"":0,""time"":0},{""event"":""focus"",""trial"":0,""time"":0},{""event"":""fullscreenenter"",""trial"":1,""time"":14356}]",NA,NA,NA,NA,NA,4,#1CD855,#FA92F8,0,10,0,38,1,4723.699999988079,39,0,256.59999999403954,10,1,experiment,NA,NA,0,0.1,0.9,1,0,100,3,NA
fcp-trial,134,861370,0.0-109.0-0.0,voc_e2,11759,"[{""event"":""blur"",""trial"":0,""time"":0},{""event"":""focus"",""trial"":0,""time"":0},{""event"":""fullscreenenter"",""trial"":1,""time"":14356}]",NA,NA,NA,NA,NA,2,#D8271C,#741CD8,0,10,0,38,1,2668.5999999940395,39,0,974.5999999940395,10,1,experiment,NA,NA,2,0.5,0.5,5,4,101,3,NA
fcp-trial,135,867199,0.0-110.0-0.0,voc_e2,11759,"[{""event"":""blur"",""trial"":0,""time"":0},{""event"":""focus"",""trial"":0,""time"":0},{""event"":""fullscreenenter"",""trial"":1,""time"":14356}]",NA,NA,NA,NA,NA,0,#FA92F8,#1CD855,10,0,1,38,1,3186.9000000059605,37,1,1134.2999999821186,10,1,experiment,NA,NA,0,0.9,0.1,0,1,102,3,NA
fcp-trial,136,871089,0.0-111.0-0.0,voc_e2,11759,"[{""event"":""blur"",""trial"":0,""time"":0},{""event"":""focus"",""trial"":0,""time"":0},{""event"":""fullscreenenter"",""trial"":1,""time"":14356}]",NA,NA,NA,NA,NA,1,#3386FF,#D89F1C,0,0,0,38,1,904.5,39,0,1478.0999999940395,0,1,experiment,NA,NA,1,0.3,0.7,3,2,103,3,NA
fcp-trial,137,874633,0.0-112.0-0.0,voc_e2,11759,"[{""event"":""blur"",""trial"":0,""time"":0},{""event"":""focus"",""trial"":0,""time"":0},{""event"":""fullscreenenter"",""trial"":1,""time"":14356}]",NA,NA,NA,NA,NA,3,#D89F1C,#3386FF,0,0,1,38,1,1702.199999988079,39,0,334.69999998807907,0,0,experiment,NA,NA,1,0.7,0.3,2,3,104,3,NA
fcp-trial,138,879118,0.0-113.0-0.0,voc_e2,11759,"[{""event"":""blur"",""trial"":0,""time"":0},{""event"":""focus"",""trial"":0,""time"":0},{""event"":""fullscreenenter"",""trial"":1,""time"":14356}]",NA,NA,NA,NA,NA,5,#D8271C,#741CD8,10,10,0,38,1,2445.300000011921,39,0,533.2999999821186,10,1,experiment,NA,NA,2,0.5,0.5,5,4,105,3,NA
audio-instructions,139,909935,0.0-114.0,voc_e2,11759,"[{""event"":""blur"",""trial"":0,""time"":0},{""event"":""focus"",""trial"":0,""time"":0},{""event"":""fullscreenenter"",""trial"":1,""time"":14356}]",NA,25848.40000000596,static/audio/pause.wav,NA,0,NA,NA,NA,NA,NA,NA,NA,NA,NA,NA,NA,NA,NA,NA,NA,NA,NA,NA,NA,NA,NA,NA,NA,NA,NA
fcp-trial,140,914657,0.0-115.0-0.0,voc_e2,11759,"[{""event"":""blur"",""trial"":0,""time"":0},{""event"":""focus"",""trial"":0,""time"":0},{""event"":""fullscreenenter"",""trial"":1,""time"":14356}]",NA,NA,NA,NA,NA,1,#FA92F8,#1CD855,10,0,1,38,1,2596.300000011921,37,1,606.2000000178814,10,1,experiment,NA,NA,0,0.9,0.1,0,1,106,3,NA
fcp-trial,141,917983,0.0-116.0-0.0,voc_e2,11759,"[{""event"":""blur"",""trial"":0,""time"":0},{""event"":""focus"",""trial"":0,""time"":0},{""event"":""fullscreenenter"",""trial"":1,""time"":14356}]",NA,NA,NA,NA,NA,0,#3386FF,#D89F1C,0,10,0,38,1,1075.699999988079,39,0,741.6999999880791,10,1,experiment,NA,NA,1,0.3,0.7,3,2,107,3,NA
fcp-trial,142,921670,0.0-117.0-0.0,voc_e2,11759,"[{""event"":""blur"",""trial"":0,""time"":0},{""event"":""focus"",""trial"":0,""time"":0},{""event"":""fullscreenenter"",""trial"":1,""time"":14356}]",NA,NA,NA,NA,NA,4,#3386FF,#D89F1C,0,10,0,38,1,1776.6000000238419,39,0,403.7000000178814,10,1,experiment,NA,NA,1,0.3,0.7,3,2,108,3,NA
fcp-trial,143,927259,0.0-118.0-0.0,voc_e2,11759,"[{""event"":""blur"",""trial"":0,""time"":0},{""event"":""focus"",""trial"":0,""time"":0},{""event"":""fullscreenenter"",""trial"":1,""time"":14356}]",NA,NA,NA,NA,NA,3,#741CD8,#D8271C,0,10,1,38,1,3069,37,1,1012.6999999880791,0,1,experiment,NA,NA,2,0.5,0.5,4,5,109,3,NA
fcp-trial,144,931483,0.0-119.0-0.0,voc_e2,11759,"[{""event"":""blur"",""trial"":0,""time"":0},{""event"":""focus"",""trial"":0,""time"":0},{""event"":""fullscreenenter"",""trial"":1,""time"":14356}]",NA,NA,NA,NA,NA,3,#1CD855,#FA92F8,0,10,0,38,1,1373.8999999761581,39,0,1342.7000000178814,10,1,experiment,NA,NA,0,0.1,0.9,1,0,110,3,NA
fcp-trial,145,939551,0.0-120.0-0.0,voc_e2,11759,"[{""event"":""blur"",""trial"":0,""time"":0},{""event"":""focus"",""trial"":0,""time"":0},{""event"":""fullscreenenter"",""trial"":1,""time"":14356}]",NA,NA,NA,NA,NA,5,#3386FF,#D89F1C,10,10,0,40,0,2102.9000000059605,37,1,4456.699999988079,10,0,experiment,NA,NA,1,0.3,0.7,3,2,111,3,NA
fcp-trial,146,945121,0.0-121.0-0.0,voc_e2,11759,"[{""event"":""blur"",""trial"":0,""time"":0},{""event"":""focus"",""trial"":0,""time"":0},{""event"":""fullscreenenter"",""trial"":1,""time"":14356}]",NA,NA,NA,NA,NA,4,#741CD8,#D8271C,0,10,1,38,1,1975.9000000059605,37,1,2084.800000011921,0,1,experiment,NA,NA,2,0.5,0.5,4,5,112,3,NA
fcp-trial,147,948753,0.0-122.0-0.0,voc_e2,11759,"[{""event"":""blur"",""trial"":0,""time"":0},{""event"":""focus"",""trial"":0,""time"":0},{""event"":""fullscreenenter"",""trial"":1,""time"":14356}]",NA,NA,NA,NA,NA,2,#FA92F8,#1CD855,0,0,1,38,1,1371.9000000059605,37,1,754.6000000238419,0,1,experiment,NA,NA,0,0.9,0.1,0,1,113,3,NA
fcp-trial,148,953568,0.0-123.0-0.0,voc_e2,11759,"[{""event"":""blur"",""trial"":0,""time"":0},{""event"":""focus"",""trial"":0,""time"":0},{""event"":""fullscreenenter"",""trial"":1,""time"":14356}]",NA,NA,NA,NA,NA,1,#741CD8,#D8271C,0,10,1,38,1,2874.2000000178814,37,1,432.7999999821186,0,1,experiment,NA,NA,2,0.5,0.5,4,5,114,3,NA
fcp-trial,149,956993,0.0-124.0-0.0,voc_e2,11759,"[{""event"":""blur"",""trial"":0,""time"":0},{""event"":""focus"",""trial"":0,""time"":0},{""event"":""fullscreenenter"",""trial"":1,""time"":14356}]",NA,NA,NA,NA,NA,1,#D89F1C,#3386FF,10,0,1,38,1,1306.9000000059605,37,1,611.5,10,1,experiment,NA,NA,1,0.7,0.3,2,3,115,3,NA
fcp-trial,150,960377,0.0-125.0-0.0,voc_e2,11759,"[{""event"":""blur"",""trial"":0,""time"":0},{""event"":""focus"",""trial"":0,""time"":0},{""event"":""fullscreenenter"",""trial"":1,""time"":14356}]",NA,NA,NA,NA,NA,6,#FA92F8,#1CD855,10,0,1,38,1,829.4000000059605,39,0,1046.2999999821186,0,0,experiment,NA,NA,0,0.9,0.1,0,1,116,3,NA
fcp-trial,151,965497,0.0-126.0-0.0,voc_e2,11759,"[{""event"":""blur"",""trial"":0,""time"":0},{""event"":""focus"",""trial"":0,""time"":0},{""event"":""fullscreenenter"",""trial"":1,""time"":14356}]",NA,NA,NA,NA,NA,5,#D8271C,#741CD8,0,10,0,40,0,2977.899999976158,39,0,635.7999999821186,10,1,experiment,NA,NA,2,0.5,0.5,5,4,117,3,NA
fcp-trial,152,971217,0.0-127.0-0.0,voc_e2,11759,"[{""event"":""blur"",""trial"":0,""time"":0},{""event"":""focus"",""trial"":0,""time"":0},{""event"":""fullscreenenter"",""trial"":1,""time"":14356}]",NA,NA,NA,NA,NA,5,#FA92F8,#1CD855,10,0,1,40,0,3195.0999999940395,37,1,1017,10,1,experiment,NA,NA,0,0.9,0.1,0,1,118,3,NA
fcp-trial,153,976561,0.0-128.0-0.0,voc_e2,11759,"[{""event"":""blur"",""trial"":0,""time"":0},{""event"":""focus"",""trial"":0,""time"":0},{""event"":""fullscreenenter"",""trial"":1,""time"":14356}]",NA,NA,NA,NA,NA,4,#FA92F8,#1CD855,10,0,1,38,1,2926.300000011921,37,1,909.1999999880791,10,1,experiment,NA,NA,0,0.9,0.1,0,1,119,3,NA
fcp-trial,154,984063,0.0-129.0-0.0,voc_e2,11759,"[{""event"":""blur"",""trial"":0,""time"":0},{""event"":""focus"",""trial"":0,""time"":0},{""event"":""fullscreenenter"",""trial"":1,""time"":14356}]",NA,NA,NA,NA,NA,2,#D89F1C,#3386FF,10,0,1,38,1,5159.0999999940395,37,1,837.2000000178814,10,1,experiment,NA,NA,1,0.7,0.3,2,3,120,3,NA
fcp-trial,155,991897,0.0-130.0-0.0,voc_e2,11759,"[{""event"":""blur"",""trial"":0,""time"":0},{""event"":""focus"",""trial"":0,""time"":0},{""event"":""fullscreenenter"",""trial"":1,""time"":14356}]",NA,NA,NA,NA,NA,0,#D8271C,#741CD8,10,10,0,38,1,4466.5,39,0,1859.9000000059605,10,1,experiment,NA,NA,2,0.5,0.5,5,4,121,3,NA
fcp-trial,156,995518,0.0-131.0-0.0,voc_e2,11759,"[{""event"":""blur"",""trial"":0,""time"":0},{""event"":""focus"",""trial"":0,""time"":0},{""event"":""fullscreenenter"",""trial"":1,""time"":14356}]",NA,NA,NA,NA,NA,6,#D89F1C,#3386FF,10,0,1,38,1,1236.7000000178814,39,0,876.9000000059605,0,0,experiment,NA,NA,1,0.7,0.3,2,3,122,3,NA
fcp-trial,157,999501,0.0-132.0-0.0,voc_e2,11759,"[{""event"":""blur"",""trial"":0,""time"":0},{""event"":""focus"",""trial"":0,""time"":0},{""event"":""fullscreenenter"",""trial"":1,""time"":14356}]",NA,NA,NA,NA,NA,0,#1CD855,#FA92F8,0,10,0,38,1,1722.4000000059605,39,0,755.5,10,1,experiment,NA,NA,0,0.1,0.9,1,0,123,3,NA
fcp-trial,158,1003925,0.0-133.0-0.0,voc_e2,11759,"[{""event"":""blur"",""trial"":0,""time"":0},{""event"":""focus"",""trial"":0,""time"":0},{""event"":""fullscreenenter"",""trial"":1,""time"":14356}]",NA,NA,NA,NA,NA,2,#D8271C,#741CD8,0,0,0,38,1,2523.9000000059605,39,0,390.59999999403954,0,1,experiment,NA,NA,2,0.5,0.5,5,4,124,3,NA
fcp-trial,159,1007867,0.0-134.0-0.0,voc_e2,11759,"[{""event"":""blur"",""trial"":0,""time"":0},{""event"":""focus"",""trial"":0,""time"":0},{""event"":""fullscreenenter"",""trial"":1,""time"":14356}]",NA,NA,NA,NA,NA,3,#D89F1C,#3386FF,10,0,1,38,1,1213.9000000059605,37,1,1220.9000000059605,10,1,experiment,NA,NA,1,0.7,0.3,2,3,125,3,NA
fcp-trial,160,1012250,0.0-135.0-0.0,voc_e2,11759,"[{""event"":""blur"",""trial"":0,""time"":0},{""event"":""focus"",""trial"":0,""time"":0},{""event"":""fullscreenenter"",""trial"":1,""time"":14356}]",NA,NA,NA,NA,NA,6,#741CD8,#D8271C,10,10,1,40,0,2135.7999999821186,37,1,739.8999999761581,10,1,experiment,NA,NA,2,0.5,0.5,4,5,126,3,NA
fcp-trial,161,1018163,0.0-136.0-0.0,voc_e2,11759,"[{""event"":""blur"",""trial"":0,""time"":0},{""event"":""focus"",""trial"":0,""time"":0},{""event"":""fullscreenenter"",""trial"":1,""time"":14356}]",NA,NA,NA,NA,NA,2,#D8271C,#741CD8,10,0,0,38,1,3904.0999999940395,39,0,499.30000001192093,0,1,experiment,NA,NA,2,0.5,0.5,5,4,127,3,NA
fcp-trial,162,1022105,0.0-137.0-0.0,voc_e2,11759,"[{""event"":""blur"",""trial"":0,""time"":0},{""event"":""focus"",""trial"":0,""time"":0},{""event"":""fullscreenenter"",""trial"":1,""time"":14356}]",NA,NA,NA,NA,NA,6,#D89F1C,#3386FF,10,0,1,40,0,1990.5,37,1,444.40000000596046,10,1,experiment,NA,NA,1,0.7,0.3,2,3,128,3,NA
fcp-trial,163,1026661,0.0-138.0-0.0,voc_e2,11759,"[{""event"":""blur"",""trial"":0,""time"":0},{""event"":""focus"",""trial"":0,""time"":0},{""event"":""fullscreenenter"",""trial"":1,""time"":14356}]",NA,NA,NA,NA,NA,2,#FA92F8,#1CD855,10,0,1,38,1,2672.300000011921,37,1,373.89999997615814,10,1,experiment,NA,NA,0,0.9,0.1,0,1,129,3,NA
fcp-trial,164,1031016,0.0-139.0-0.0,voc_e2,11759,"[{""event"":""blur"",""trial"":0,""time"":0},{""event"":""focus"",""trial"":0,""time"":0},{""event"":""fullscreenenter"",""trial"":1,""time"":14356}]",NA,NA,NA,NA,NA,3,#D8271C,#741CD8,10,0,0,38,1,1030.699999988079,39,0,1813.2000000178814,0,1,experiment,NA,NA,2,0.5,0.5,5,4,130,3,NA
fcp-trial,165,1037780,0.0-140.0-0.0,voc_e2,11759,"[{""event"":""blur"",""trial"":0,""time"":0},{""event"":""focus"",""trial"":0,""time"":0},{""event"":""fullscreenenter"",""trial"":1,""time"":14356}]",NA,NA,NA,NA,NA,0,#1CD855,#FA92F8,0,10,0,38,1,4639.299999982119,39,0,618,10,1,experiment,NA,NA,0,0.1,0.9,1,0,131,3,NA
fcp-trial,166,1041886,0.0-141.0-0.0,voc_e2,11759,"[{""event"":""blur"",""trial"":0,""time"":0},{""event"":""focus"",""trial"":0,""time"":0},{""event"":""fullscreenenter"",""trial"":1,""time"":14356}]",NA,NA,NA,NA,NA,0,#741CD8,#D8271C,10,0,1,38,1,1922.7999999821186,37,1,675.9000000059605,10,1,experiment,NA,NA,2,0.5,0.5,4,5,132,3,NA
fcp-trial,167,1045555,0.0-142.0-0.0,voc_e2,11759,"[{""event"":""blur"",""trial"":0,""time"":0},{""event"":""focus"",""trial"":0,""time"":0},{""event"":""fullscreenenter"",""trial"":1,""time"":14356}]",NA,NA,NA,NA,NA,0,#3386FF,#D89F1C,10,10,0,38,1,1393.7999999821186,39,0,767.6000000238419,10,1,experiment,NA,NA,1,0.3,0.7,3,2,133,3,NA
fcp-trial,168,1052339,0.0-143.0-0.0,voc_e2,11759,"[{""event"":""blur"",""trial"":0,""time"":0},{""event"":""focus"",""trial"":0,""time"":0},{""event"":""fullscreenenter"",""trial"":1,""time"":14356}]",NA,NA,NA,NA,NA,3,#D89F1C,#3386FF,10,0,1,38,1,4772.4000000059605,37,1,503.90000000596046,10,1,experiment,NA,NA,1,0.7,0.3,2,3,134,3,NA
fcp-trial,169,1059256,0.0-144.0-0.0,voc_e2,11759,"[{""event"":""blur"",""trial"":0,""time"":0},{""event"":""focus"",""trial"":0,""time"":0},{""event"":""fullscreenenter"",""trial"":1,""time"":14356}]",NA,NA,NA,NA,NA,5,#D89F1C,#3386FF,10,0,1,40,0,4378.200000017881,37,1,1030.0999999940395,10,1,experiment,NA,NA,1,0.7,0.3,2,3,135,3,NA
fcp-trial,170,1063713,0.0-145.0-0.0,voc_e2,11759,"[{""event"":""blur"",""trial"":0,""time"":0},{""event"":""focus"",""trial"":0,""time"":0},{""event"":""fullscreenenter"",""trial"":1,""time"":14356}]",NA,NA,NA,NA,NA,5,#FA92F8,#1CD855,10,0,1,40,0,2288.199999988079,37,1,660.3000000119209,10,1,experiment,NA,NA,0,0.9,0.1,0,1,136,4,NA
fcp-trial,171,1067644,0.0-146.0-0.0,voc_e2,11759,"[{""event"":""blur"",""trial"":0,""time"":0},{""event"":""focus"",""trial"":0,""time"":0},{""event"":""fullscreenenter"",""trial"":1,""time"":14356}]",NA,NA,NA,NA,NA,5,#D8271C,#741CD8,0,0,0,40,0,1484.5999999940395,37,1,939.8000000119209,0,0,experiment,NA,NA,2,0.5,0.5,5,4,137,4,NA
fcp-trial,172,1072677,0.0-147.0-0.0,voc_e2,11759,"[{""event"":""blur"",""trial"":0,""time"":0},{""event"":""focus"",""trial"":0,""time"":0},{""event"":""fullscreenenter"",""trial"":1,""time"":14356}]",NA,NA,NA,NA,NA,3,#1CD855,#FA92F8,0,10,0,38,1,1424.0999999940395,39,0,2100.699999988079,10,1,experiment,NA,NA,0,0.1,0.9,1,0,138,4,NA
fcp-trial,173,1084950,0.0-148.0-0.0,voc_e2,11759,"[{""event"":""blur"",""trial"":0,""time"":0},{""event"":""focus"",""trial"":0,""time"":0},{""event"":""fullscreenenter"",""trial"":1,""time"":14356}]",NA,NA,NA,NA,NA,6,#D8271C,#741CD8,10,10,0,40,0,1922,37,1,8841.399999976158,10,0,experiment,NA,NA,2,0.5,0.5,5,4,139,4,NA
fcp-trial,174,1089953,0.0-149.0-0.0,voc_e2,11759,"[{""event"":""blur"",""trial"":0,""time"":0},{""event"":""focus"",""trial"":0,""time"":0},{""event"":""fullscreenenter"",""trial"":1,""time"":14356}]",NA,NA,NA,NA,NA,1,#3386FF,#D89F1C,0,0,0,38,1,2919.2999999821186,39,0,577.5999999940395,0,1,experiment,NA,NA,1,0.3,0.7,3,2,140,4,NA
fcp-trial,175,1102310,0.0-150.0-0.0,voc_e2,11759,"[{""event"":""blur"",""trial"":0,""time"":0},{""event"":""focus"",""trial"":0,""time"":0},{""event"":""fullscreenenter"",""trial"":1,""time"":14356}]",NA,NA,NA,NA,NA,4,#741CD8,#D8271C,10,0,1,38,1,4109.0999999940395,37,1,6742.100000023842,10,1,experiment,NA,NA,2,0.5,0.5,4,5,141,4,NA
fcp-trial,176,1109166,0.0-151.0-0.0,voc_e2,11759,"[{""event"":""blur"",""trial"":0,""time"":0},{""event"":""focus"",""trial"":0,""time"":0},{""event"":""fullscreenenter"",""trial"":1,""time"":14356}]",NA,NA,NA,NA,NA,4,#3386FF,#D89F1C,0,10,0,38,1,4352.600000023842,39,0,992,10,1,experiment,NA,NA,1,0.3,0.7,3,2,142,4,NA
fcp-trial,177,1113889,0.0-152.0-0.0,voc_e2,11759,"[{""event"":""blur"",""trial"":0,""time"":0},{""event"":""focus"",""trial"":0,""time"":0},{""event"":""fullscreenenter"",""trial"":1,""time"":14356}]",NA,NA,NA,NA,NA,6,#1CD855,#FA92F8,0,10,0,40,0,2375.2999999821186,37,1,841.0999999940395,0,0,experiment,NA,NA,0,0.1,0.9,1,0,143,4,NA
fcp-trial,178,1118263,0.0-153.0-0.0,voc_e2,11759,"[{""event"":""blur"",""trial"":0,""time"":0},{""event"":""focus"",""trial"":0,""time"":0},{""event"":""fullscreenenter"",""trial"":1,""time"":14356}]",NA,NA,NA,NA,NA,1,#1CD855,#FA92F8,10,10,0,38,1,1811.9000000059605,39,0,1051.5999999940395,10,1,experiment,NA,NA,0,0.1,0.9,1,0,144,4,NA
fcp-trial,179,1122279,0.0-154.0-0.0,voc_e2,11759,"[{""event"":""blur"",""trial"":0,""time"":0},{""event"":""focus"",""trial"":0,""time"":0},{""event"":""fullscreenenter"",""trial"":1,""time"":14356}]",NA,NA,NA,NA,NA,2,#3386FF,#D89F1C,0,0,0,38,1,1793.0999999940395,39,0,714,0,1,experiment,NA,NA,1,0.3,0.7,3,2,145,4,NA
fcp-trial,180,1125666,0.0-155.0-0.0,voc_e2,11759,"[{""event"":""blur"",""trial"":0,""time"":0},{""event"":""focus"",""trial"":0,""time"":0},{""event"":""fullscreenenter"",""trial"":1,""time"":14356}]",NA,NA,NA,NA,NA,1,#741CD8,#D8271C,10,10,1,38,1,1547.7999999821186,37,1,332.5,10,1,experiment,NA,NA,2,0.5,0.5,4,5,146,4,NA
fcp-trial,181,1130776,0.0-156.0-0.0,voc_e2,11759,"[{""event"":""blur"",""trial"":0,""time"":0},{""event"":""focus"",""trial"":0,""time"":0},{""event"":""fullscreenenter"",""trial"":1,""time"":14356}]",NA,NA,NA,NA,NA,4,#1CD855,#FA92F8,0,10,0,38,1,2466.600000023842,39,0,1134.0999999940395,10,1,experiment,NA,NA,0,0.1,0.9,1,0,147,4,NA
fcp-trial,182,1135965,0.0-157.0-0.0,voc_e2,11759,"[{""event"":""blur"",""trial"":0,""time"":0},{""event"":""focus"",""trial"":0,""time"":0},{""event"":""fullscreenenter"",""trial"":1,""time"":14356}]",NA,NA,NA,NA,NA,5,#FA92F8,#1CD855,10,10,1,40,0,2375.0999999940395,39,0,1307.3999999761581,10,0,experiment,NA,NA,0,0.9,0.1,0,1,148,4,NA
fcp-trial,183,1139962,0.0-158.0-0.0,voc_e2,11759,"[{""event"":""blur"",""trial"":0,""time"":0},{""event"":""focus"",""trial"":0,""time"":0},{""event"":""fullscreenenter"",""trial"":1,""time"":14356}]",NA,NA,NA,NA,NA,0,#D8271C,#741CD8,0,0,0,38,1,1606.4000000059605,39,0,882.9000000059605,0,1,experiment,NA,NA,2,0.5,0.5,5,4,149,4,NA
fcp-trial,184,1146753,0.0-159.0-0.0,voc_e2,11759,"[{""event"":""blur"",""trial"":0,""time"":0},{""event"":""focus"",""trial"":0,""time"":0},{""event"":""fullscreenenter"",""trial"":1,""time"":14356}]",NA,NA,NA,NA,NA,1,#D8271C,#741CD8,10,10,0,38,1,1648.0999999940395,39,0,3633.7000000178814,10,1,experiment,NA,NA,2,0.5,0.5,5,4,150,4,NA
fcp-trial,185,1150616,0.0-160.0-0.0,voc_e2,11759,"[{""event"":""blur"",""trial"":0,""time"":0},{""event"":""focus"",""trial"":0,""time"":0},{""event"":""fullscreenenter"",""trial"":1,""time"":14356}]",NA,NA,NA,NA,NA,6,#1CD855,#FA92F8,0,10,0,40,0,1327.300000011921,39,0,1029.0999999940395,10,1,experiment,NA,NA,0,0.1,0.9,1,0,151,4,NA
fcp-trial,186,1159216,0.0-161.0-0.0,voc_e2,11759,"[{""event"":""blur"",""trial"":0,""time"":0},{""event"":""focus"",""trial"":0,""time"":0},{""event"":""fullscreenenter"",""trial"":1,""time"":14356}]",NA,NA,NA,NA,NA,4,#D89F1C,#3386FF,0,0,1,38,1,1543.5999999940395,37,1,5544.0999999940395,0,1,experiment,NA,NA,1,0.7,0.3,2,3,152,4,NA
fcp-trial,187,1164290,0.0-162.0-0.0,voc_e2,11759,"[{""event"":""blur"",""trial"":0,""time"":0},{""event"":""focus"",""trial"":0,""time"":0},{""event"":""fullscreenenter"",""trial"":1,""time"":14356}]",NA,NA,NA,NA,NA,0,#FA92F8,#1CD855,10,0,1,38,1,1574.800000011921,37,1,1992.4000000059605,10,1,experiment,NA,NA,0,0.9,0.1,0,1,153,4,NA
fcp-trial,188,1168639,0.0-163.0-0.0,voc_e2,11759,"[{""event"":""blur"",""trial"":0,""time"":0},{""event"":""focus"",""trial"":0,""time"":0},{""event"":""fullscreenenter"",""trial"":1,""time"":14356}]",NA,NA,NA,NA,NA,3,#741CD8,#D8271C,10,0,1,38,1,1461.199999988079,37,1,1378.4000000059605,10,1,experiment,NA,NA,2,0.5,0.5,4,5,154,4,NA
fcp-trial,189,1173195,0.0-164.0-0.0,voc_e2,11759,"[{""event"":""blur"",""trial"":0,""time"":0},{""event"":""focus"",""trial"":0,""time"":0},{""event"":""fullscreenenter"",""trial"":1,""time"":14356}]",NA,NA,NA,NA,NA,6,#3386FF,#D89F1C,0,10,0,40,0,2005.5999999940395,37,1,1043.9000000059605,0,0,experiment,NA,NA,1,0.3,0.7,3,2,155,4,NA
fcp-trial,190,1177097,0.0-165.0-0.0,voc_e2,11759,"[{""event"":""blur"",""trial"":0,""time"":0},{""event"":""focus"",""trial"":0,""time"":0},{""event"":""fullscreenenter"",""trial"":1,""time"":14356}]",NA,NA,NA,NA,NA,2,#741CD8,#D8271C,0,10,1,38,1,1248.300000011921,37,1,1145.2999999821186,0,1,experiment,NA,NA,2,0.5,0.5,4,5,156,4,NA
fcp-trial,191,1182517,0.0-166.0-0.0,voc_e2,11759,"[{""event"":""blur"",""trial"":0,""time"":0},{""event"":""focus"",""trial"":0,""time"":0},{""event"":""fullscreenenter"",""trial"":1,""time"":14356}]",NA,NA,NA,NA,NA,3,#1CD855,#FA92F8,0,10,0,38,1,1083.699999988079,39,0,2829.7000000178814,10,1,experiment,NA,NA,0,0.1,0.9,1,0,157,4,NA
fcp-trial,192,1185563,0.0-167.0-0.0,voc_e2,11759,"[{""event"":""blur"",""trial"":0,""time"":0},{""event"":""focus"",""trial"":0,""time"":0},{""event"":""fullscreenenter"",""trial"":1,""time"":14356}]",NA,NA,NA,NA,NA,1,#D89F1C,#3386FF,10,0,1,38,1,921.3000000119209,37,1,616.2999999821186,10,1,experiment,NA,NA,1,0.7,0.3,2,3,158,4,NA
fcp-trial,193,1188349,0.0-168.0-0.0,voc_e2,11759,"[{""event"":""blur"",""trial"":0,""time"":0},{""event"":""focus"",""trial"":0,""time"":0},{""event"":""fullscreenenter"",""trial"":1,""time"":14356}]",NA,NA,NA,NA,NA,2,#3386FF,#D89F1C,10,10,0,38,1,942.5,39,0,334.39999997615814,10,1,experiment,NA,NA,1,0.3,0.7,3,2,159,4,NA
fcp-trial,194,1191705,0.0-169.0-0.0,voc_e2,11759,"[{""event"":""blur"",""trial"":0,""time"":0},{""event"":""focus"",""trial"":0,""time"":0},{""event"":""fullscreenenter"",""trial"":1,""time"":14356}]",NA,NA,NA,NA,NA,5,#D8271C,#741CD8,0,10,0,40,0,1200.800000011921,37,1,649.0999999940395,0,0,experiment,NA,NA,2,0.5,0.5,5,4,160,4,NA
fcp-trial,195,1195191,0.0-170.0-0.0,voc_e2,11759,"[{""event"":""blur"",""trial"":0,""time"":0},{""event"":""focus"",""trial"":0,""time"":0},{""event"":""fullscreenenter"",""trial"":1,""time"":14356}]",NA,NA,NA,NA,NA,4,#FA92F8,#1CD855,10,0,1,38,1,1526.4000000059605,37,1,451.80000001192093,10,1,experiment,NA,NA,0,0.9,0.1,0,1,161,4,NA
fcp-trial,196,1200068,0.0-171.0-0.0,voc_e2,11759,"[{""event"":""blur"",""trial"":0,""time"":0},{""event"":""focus"",""trial"":0,""time"":0},{""event"":""fullscreenenter"",""trial"":1,""time"":14356}]",NA,NA,NA,NA,NA,4,#741CD8,#D8271C,0,10,1,38,1,2536.800000011921,37,1,829.1000000238419,0,1,experiment,NA,NA,2,0.5,0.5,4,5,162,4,NA
fcp-trial,197,1203997,0.0-172.0-0.0,voc_e2,11759,"[{""event"":""blur"",""trial"":0,""time"":0},{""event"":""focus"",""trial"":0,""time"":0},{""event"":""fullscreenenter"",""trial"":1,""time"":14356}]",NA,NA,NA,NA,NA,5,#3386FF,#D89F1C,10,0,0,40,0,1797.9000000059605,39,0,620.3000000119209,0,1,experiment,NA,NA,1,0.3,0.7,3,2,163,4,NA
fcp-trial,198,1208261,0.0-173.0-0.0,voc_e2,11759,"[{""event"":""blur"",""trial"":0,""time"":0},{""event"":""focus"",""trial"":0,""time"":0},{""event"":""fullscreenenter"",""trial"":1,""time"":14356}]",NA,NA,NA,NA,NA,3,#3386FF,#D89F1C,0,10,0,38,1,1094,39,0,1661.699999988079,10,1,experiment,NA,NA,1,0.3,0.7,3,2,164,4,NA
fcp-trial,199,1212842,0.0-174.0-0.0,voc_e2,11759,"[{""event"":""blur"",""trial"":0,""time"":0},{""event"":""focus"",""trial"":0,""time"":0},{""event"":""fullscreenenter"",""trial"":1,""time"":14356}]",NA,NA,NA,NA,NA,0,#3386FF,#D89F1C,0,0,0,38,1,2688.4000000059605,39,0,386.7000000178814,0,1,experiment,NA,NA,1,0.3,0.7,3,2,165,4,NA
fcp-trial,200,1216939,0.0-175.0-0.0,voc_e2,11759,"[{""event"":""blur"",""trial"":0,""time"":0},{""event"":""focus"",""trial"":0,""time"":0},{""event"":""fullscreenenter"",""trial"":1,""time"":14356}]",NA,NA,NA,NA,NA,1,#FA92F8,#1CD855,10,0,1,38,1,1138.5,37,1,1451.699999988079,10,1,experiment,NA,NA,0,0.9,0.1,0,1,166,4,NA
fcp-trial,201,1220783,0.0-176.0-0.0,voc_e2,11759,"[{""event"":""blur"",""trial"":0,""time"":0},{""event"":""focus"",""trial"":0,""time"":0},{""event"":""fullscreenenter"",""trial"":1,""time"":14356}]",NA,NA,NA,NA,NA,6,#741CD8,#D8271C,0,10,1,40,0,1683.7999999821186,37,1,653.6999999880791,0,1,experiment,NA,NA,2,0.5,0.5,4,5,167,4,NA
fcp-trial,202,1224226,0.0-177.0-0.0,voc_e2,11759,"[{""event"":""blur"",""trial"":0,""time"":0},{""event"":""focus"",""trial"":0,""time"":0},{""event"":""fullscreenenter"",""trial"":1,""time"":14356}]",NA,NA,NA,NA,NA,2,#1CD855,#FA92F8,10,10,0,38,1,1086.0999999940395,39,0,849.7999999821186,10,1,experiment,NA,NA,0,0.1,0.9,1,0,168,4,NA
fcp-trial,203,1229335,0.0-178.0-0.0,voc_e2,11759,"[{""event"":""blur"",""trial"":0,""time"":0},{""event"":""focus"",""trial"":0,""time"":0},{""event"":""fullscreenenter"",""trial"":1,""time"":14356}]",NA,NA,NA,NA,NA,2,#3386FF,#D89F1C,0,0,0,38,1,2297.7999999821186,39,0,1301.3999999761581,0,1,experiment,NA,NA,1,0.3,0.7,3,2,169,4,NA
fcp-trial,204,1233921,0.0-179.0-0.0,voc_e2,11759,"[{""event"":""blur"",""trial"":0,""time"":0},{""event"":""focus"",""trial"":0,""time"":0},{""event"":""fullscreenenter"",""trial"":1,""time"":14356}]",NA,NA,NA,NA,NA,1,#D8271C,#741CD8,10,0,0,38,1,2362.699999988079,39,0,716.8999999761581,0,1,experiment,NA,NA,2,0.5,0.5,5,4,170,4,NA
fcp-trial,205,1237177,0.0-180.0-0.0,voc_e2,11759,"[{""event"":""blur"",""trial"":0,""time"":0},{""event"":""focus"",""trial"":0,""time"":0},{""event"":""fullscreenenter"",""trial"":1,""time"":14356}]",NA,NA,NA,NA,NA,0,#D8271C,#741CD8,10,10,0,38,1,1161,39,0,587.1999999880791,10,1,experiment,NA,NA,2,0.5,0.5,5,4,171,4,NA
fcp-trial,206,1241010,0.0-181.0-0.0,voc_e2,11759,"[{""event"":""blur"",""trial"":0,""time"":0},{""event"":""focus"",""trial"":0,""time"":0},{""event"":""fullscreenenter"",""trial"":1,""time"":14356}]",NA,NA,NA,NA,NA,0,#FA92F8,#1CD855,10,0,1,38,1,1390,39,0,933.9000000059605,0,0,experiment,NA,NA,0,0.9,0.1,0,1,172,4,NA
fcp-trial,207,1249516,0.0-182.0-0.0,voc_e2,11759,"[{""event"":""blur"",""trial"":0,""time"":0},{""event"":""focus"",""trial"":0,""time"":0},{""event"":""fullscreenenter"",""trial"":1,""time"":14356}]",NA,NA,NA,NA,NA,3,#D89F1C,#3386FF,0,0,1,38,1,4220.200000017881,37,1,2776.7000000178814,0,1,experiment,NA,NA,1,0.7,0.3,2,3,173,4,NA
fcp-trial,208,1255147,0.0-183.0-0.0,voc_e2,11759,"[{""event"":""blur"",""trial"":0,""time"":0},{""event"":""focus"",""trial"":0,""time"":0},{""event"":""fullscreenenter"",""trial"":1,""time"":14356}]",NA,NA,NA,NA,NA,4,#D89F1C,#3386FF,0,10,1,38,1,3251.5,37,1,872.5,0,1,experiment,NA,NA,1,0.7,0.3,2,3,174,4,NA
fcp-trial,209,1258517,0.0-184.0-0.0,voc_e2,11759,"[{""event"":""blur"",""trial"":0,""time"":0},{""event"":""focus"",""trial"":0,""time"":0},{""event"":""fullscreenenter"",""trial"":1,""time"":14356}]",NA,NA,NA,NA,NA,5,#741CD8,#D8271C,0,0,1,40,0,1293.4000000059605,37,1,569.0999999940395,0,1,experiment,NA,NA,2,0.5,0.5,4,5,175,4,NA
fcp-trial,210,1262293,0.0-185.0-0.0,voc_e2,11759,"[{""event"":""blur"",""trial"":0,""time"":0},{""event"":""focus"",""trial"":0,""time"":0},{""event"":""fullscreenenter"",""trial"":1,""time"":14356}]",NA,NA,NA,NA,NA,4,#FA92F8,#1CD855,10,0,1,38,1,1528.2000000178814,37,1,740.2000000178814,10,1,experiment,NA,NA,0,0.9,0.1,0,1,176,4,NA
fcp-trial,211,1266017,0.0-186.0-0.0,voc_e2,11759,"[{""event"":""blur"",""trial"":0,""time"":0},{""event"":""focus"",""trial"":0,""time"":0},{""event"":""fullscreenenter"",""trial"":1,""time"":14356}]",NA,NA,NA,NA,NA,4,#D8271C,#741CD8,10,10,0,38,1,1766.4000000059605,39,0,448.80000001192093,10,1,experiment,NA,NA,2,0.5,0.5,5,4,177,4,NA
fcp-trial,212,1269740,0.0-187.0-0.0,voc_e2,11759,"[{""event"":""blur"",""trial"":0,""time"":0},{""event"":""focus"",""trial"":0,""time"":0},{""event"":""fullscreenenter"",""trial"":1,""time"":14356}]",NA,NA,NA,NA,NA,3,#1CD855,#FA92F8,0,10,0,38,1,1639.300000011921,39,0,577,10,1,experiment,NA,NA,0,0.1,0.9,1,0,178,4,NA
fcp-trial,213,1272805,0.0-188.0-0.0,voc_e2,11759,"[{""event"":""blur"",""trial"":0,""time"":0},{""event"":""focus"",""trial"":0,""time"":0},{""event"":""fullscreenenter"",""trial"":1,""time"":14356}]",NA,NA,NA,NA,NA,5,#D89F1C,#3386FF,10,0,1,40,0,956.6999999880791,37,1,597.5999999940395,10,1,experiment,NA,NA,1,0.7,0.3,2,3,179,4,NA
fcp-trial,214,1279357,0.0-189.0-0.0,voc_e2,11759,"[{""event"":""blur"",""trial"":0,""time"":0},{""event"":""focus"",""trial"":0,""time"":0},{""event"":""fullscreenenter"",""trial"":1,""time"":14356}]",NA,NA,NA,NA,NA,2,#1CD855,#FA92F8,0,10,0,38,1,4427.899999976158,39,0,618.0999999940395,10,1,experiment,NA,NA,0,0.1,0.9,1,0,180,4,NA
fcp-trial,215,1283533,0.0-190.0-0.0,voc_e2,11759,"[{""event"":""blur"",""trial"":0,""time"":0},{""event"":""focus"",""trial"":0,""time"":0},{""event"":""fullscreenenter"",""trial"":1,""time"":14356}]",NA,NA,NA,NA,NA,3,#D8271C,#741CD8,0,10,0,38,1,1746.2000000178814,39,0,922.8000000119209,10,1,experiment,NA,NA,2,0.5,0.5,5,4,181,5,NA
fcp-trial,216,1286969,0.0-191.0-0.0,voc_e2,11759,"[{""event"":""blur"",""trial"":0,""time"":0},{""event"":""focus"",""trial"":0,""time"":0},{""event"":""fullscreenenter"",""trial"":1,""time"":14356}]",NA,NA,NA,NA,NA,6,#741CD8,#D8271C,10,10,1,40,0,1364,37,1,564,10,1,experiment,NA,NA,2,0.5,0.5,4,5,182,5,NA
fcp-trial,217,1290966,0.0-192.0-0.0,voc_e2,11759,"[{""event"":""blur"",""trial"":0,""time"":0},{""event"":""focus"",""trial"":0,""time"":0},{""event"":""fullscreenenter"",""trial"":1,""time"":14356}]",NA,NA,NA,NA,NA,6,#3386FF,#D89F1C,0,10,0,40,0,1804.2999999821186,37,1,682.7999999821186,0,0,experiment,NA,NA,1,0.3,0.7,3,2,183,5,NA
fcp-trial,218,1295611,0.0-193.0-0.0,voc_e2,11759,"[{""event"":""blur"",""trial"":0,""time"":0},{""event"":""focus"",""trial"":0,""time"":0},{""event"":""fullscreenenter"",""trial"":1,""time"":14356}]",NA,NA,NA,NA,NA,5,#1CD855,#FA92F8,0,10,0,40,0,2607,37,1,530.5,0,0,experiment,NA,NA,0,0.1,0.9,1,0,184,5,NA
fcp-trial,219,1303981,0.0-194.0-0.0,voc_e2,11759,"[{""event"":""blur"",""trial"":0,""time"":0},{""event"":""focus"",""trial"":0,""time"":0},{""event"":""fullscreenenter"",""trial"":1,""time"":14356}]",NA,NA,NA,NA,NA,6,#1CD855,#FA92F8,0,10,0,40,0,6264.199999988079,39,0,594.5,10,1,experiment,NA,NA,0,0.1,0.9,1,0,185,5,NA
fcp-trial,220,1308187,0.0-195.0-0.0,voc_e2,11759,"[{""event"":""blur"",""trial"":0,""time"":0},{""event"":""focus"",""trial"":0,""time"":0},{""event"":""fullscreenenter"",""trial"":1,""time"":14356}]",NA,NA,NA,NA,NA,1,#1CD855,#FA92F8,0,10,0,38,1,2146.699999988079,39,0,551.4000000059605,10,1,experiment,NA,NA,0,0.1,0.9,1,0,186,5,NA
fcp-trial,221,1312223,0.0-196.0-0.0,voc_e2,11759,"[{""event"":""blur"",""trial"":0,""time"":0},{""event"":""focus"",""trial"":0,""time"":0},{""event"":""fullscreenenter"",""trial"":1,""time"":14356}]",NA,NA,NA,NA,NA,2,#D8271C,#741CD8,10,0,0,38,1,2134.2000000178814,39,0,395,0,1,experiment,NA,NA,2,0.5,0.5,5,4,187,5,NA
fcp-trial,222,1316678,0.0-197.0-0.0,voc_e2,11759,"[{""event"":""blur"",""trial"":0,""time"":0},{""event"":""focus"",""trial"":0,""time"":0},{""event"":""fullscreenenter"",""trial"":1,""time"":14356}]",NA,NA,NA,NA,NA,1,#3386FF,#D89F1C,10,0,0,38,1,1160.5,39,0,1787.699999988079,0,1,experiment,NA,NA,1,0.3,0.7,3,2,188,5,NA
fcp-trial,223,1321540,0.0-198.0-0.0,voc_e2,11759,"[{""event"":""blur"",""trial"":0,""time"":0},{""event"":""focus"",""trial"":0,""time"":0},{""event"":""fullscreenenter"",""trial"":1,""time"":14356}]",NA,NA,NA,NA,NA,0,#D89F1C,#3386FF,10,0,1,38,1,1485.2999999821186,39,0,1867.7999999821186,0,0,experiment,NA,NA,1,0.7,0.3,2,3,189,5,NA
fcp-trial,224,1324866,0.0-199.0-0.0,voc_e2,11759,"[{""event"":""blur"",""trial"":0,""time"":0},{""event"":""focus"",""trial"":0,""time"":0},{""event"":""fullscreenenter"",""trial"":1,""time"":14356}]",NA,NA,NA,NA,NA,5,#D8271C,#741CD8,0,10,0,40,0,1314.199999988079,39,0,502.80000001192093,10,1,experiment,NA,NA,2,0.5,0.5,5,4,190,5,NA
fcp-trial,225,1329320,0.0-200.0-0.0,voc_e2,11759,"[{""event"":""blur"",""trial"":0,""time"":0},{""event"":""focus"",""trial"":0,""time"":0},{""event"":""fullscreenenter"",""trial"":1,""time"":14356}]",NA,NA,NA,NA,NA,3,#FA92F8,#1CD855,10,0,1,38,1,1853.9000000059605,37,1,1093.5999999940395,10,1,experiment,NA,NA,0,0.9,0.1,0,1,191,5,NA
fcp-trial,226,1332292,0.0-201.0-0.0,voc_e2,11759,"[{""event"":""blur"",""trial"":0,""time"":0},{""event"":""focus"",""trial"":0,""time"":0},{""event"":""fullscreenenter"",""trial"":1,""time"":14356}]",NA,NA,NA,NA,NA,6,#1CD855,#FA92F8,0,10,0,40,0,1017.5999999940395,39,0,448,10,1,experiment,NA,NA,0,0.1,0.9,1,0,192,5,NA
fcp-trial,227,1337527,0.0-202.0-0.0,voc_e2,11759,"[{""event"":""blur"",""trial"":0,""time"":0},{""event"":""focus"",""trial"":0,""time"":0},{""event"":""fullscreenenter"",""trial"":1,""time"":14356}]",NA,NA,NA,NA,NA,4,#3386FF,#D89F1C,10,10,0,38,1,2247.899999976158,39,0,1480.5999999940395,10,1,experiment,NA,NA,1,0.3,0.7,3,2,193,5,NA
fcp-trial,228,1342598,0.0-203.0-0.0,voc_e2,11759,"[{""event"":""blur"",""trial"":0,""time"":0},{""event"":""focus"",""trial"":0,""time"":0},{""event"":""fullscreenenter"",""trial"":1,""time"":14356}]",NA,NA,NA,NA,NA,2,#3386FF,#D89F1C,0,10,0,38,1,2097.4000000059605,39,0,1467.3999999761581,10,1,experiment,NA,NA,1,0.3,0.7,3,2,194,5,NA
fcp-trial,229,1352380,0.0-204.0-0.0,voc_e2,11759,"[{""event"":""blur"",""trial"":0,""time"":0},{""event"":""focus"",""trial"":0,""time"":0},{""event"":""fullscreenenter"",""trial"":1,""time"":14356}]",NA,NA,NA,NA,NA,1,#D8271C,#741CD8,10,10,0,38,1,7050.4000000059605,39,0,1225.4000000059605,10,1,experiment,NA,NA,2,0.5,0.5,5,4,195,5,NA
fcp-trial,230,1364139,0.0-205.0-0.0,voc_e2,11759,"[{""event"":""blur"",""trial"":0,""time"":0},{""event"":""focus"",""trial"":0,""time"":0},{""event"":""fullscreenenter"",""trial"":1,""time"":14356}]",NA,NA,NA,NA,NA,5,#3386FF,#D89F1C,0,10,0,40,0,9735.200000017881,39,0,513.9000000059605,10,1,experiment,NA,NA,1,0.3,0.7,3,2,196,5,NA
fcp-trial,231,1370801,0.0-206.0-0.0,voc_e2,11759,"[{""event"":""blur"",""trial"":0,""time"":0},{""event"":""focus"",""trial"":0,""time"":0},{""event"":""fullscreenenter"",""trial"":1,""time"":14356}]",NA,NA,NA,NA,NA,0,#1CD855,#FA92F8,0,10,0,38,1,3458.7000000178814,39,0,1695.0999999940395,10,1,experiment,NA,NA,0,0.1,0.9,1,0,197,5,NA
fcp-trial,232,1374671,0.0-207.0-0.0,voc_e2,11759,"[{""event"":""blur"",""trial"":0,""time"":0},{""event"":""focus"",""trial"":0,""time"":0},{""event"":""fullscreenenter"",""trial"":1,""time"":14356}]",NA,NA,NA,NA,NA,3,#D8271C,#741CD8,0,10,0,38,1,1800.7000000178814,39,0,562.5999999940395,10,1,experiment,NA,NA,2,0.5,0.5,5,4,198,5,NA
fcp-trial,233,1388168,0.0-208.0-0.0,voc_e2,11759,"[{""event"":""blur"",""trial"":0,""time"":0},{""event"":""focus"",""trial"":0,""time"":0},{""event"":""fullscreenenter"",""trial"":1,""time"":14356}]",NA,NA,NA,NA,NA,2,#FA92F8,#1CD855,10,0,1,38,1,2728.9000000059605,39,0,9263.90000000596,0,0,experiment,NA,NA,0,0.9,0.1,0,1,199,5,NA
fcp-trial,234,1391919,0.0-209.0-0.0,voc_e2,11759,"[{""event"":""blur"",""trial"":0,""time"":0},{""event"":""focus"",""trial"":0,""time"":0},{""event"":""fullscreenenter"",""trial"":1,""time"":14356}]",NA,NA,NA,NA,NA,2,#741CD8,#D8271C,10,0,1,38,1,1466,37,1,776.2999999821186,10,1,experiment,NA,NA,2,0.5,0.5,4,5,200,5,NA
fcp-trial,235,1398275,0.0-210.0-0.0,voc_e2,11759,"[{""event"":""blur"",""trial"":0,""time"":0},{""event"":""focus"",""trial"":0,""time"":0},{""event"":""fullscreenenter"",""trial"":1,""time"":14356}]",NA,NA,NA,NA,NA,0,#3386FF,#D89F1C,0,10,0,38,1,4338.4000000059605,39,0,511.10000002384186,10,1,experiment,NA,NA,1,0.3,0.7,3,2,201,5,NA
fcp-trial,236,1402364,0.0-211.0-0.0,voc_e2,11759,"[{""event"":""blur"",""trial"":0,""time"":0},{""event"":""focus"",""trial"":0,""time"":0},{""event"":""fullscreenenter"",""trial"":1,""time"":14356}]",NA,NA,NA,NA,NA,3,#D89F1C,#3386FF,10,0,1,38,1,1567.199999988079,37,1,1015.1000000238419,10,1,experiment,NA,NA,1,0.7,0.3,2,3,202,5,NA
fcp-trial,237,1408355,0.0-212.0-0.0,voc_e2,11759,"[{""event"":""blur"",""trial"":0,""time"":0},{""event"":""focus"",""trial"":0,""time"":0},{""event"":""fullscreenenter"",""trial"":1,""time"":14356}]",NA,NA,NA,NA,NA,4,#1CD855,#FA92F8,0,10,0,38,1,3411.800000011921,39,0,1073.5,10,1,experiment,NA,NA,0,0.1,0.9,1,0,203,5,NA
fcp-trial,238,1413816,0.0-213.0-0.0,voc_e2,11759,"[{""event"":""blur"",""trial"":0,""time"":0},{""event"":""focus"",""trial"":0,""time"":0},{""event"":""fullscreenenter"",""trial"":1,""time"":14356}]",NA,NA,NA,NA,NA,4,#D8271C,#741CD8,10,10,0,38,1,3500.2999999821186,39,0,454.2000000178814,10,1,experiment,NA,NA,2,0.5,0.5,5,4,204,5,NA
fcp-trial,239,1421802,0.0-214.0-0.0,voc_e2,11759,"[{""event"":""blur"",""trial"":0,""time"":0},{""event"":""focus"",""trial"":0,""time"":0},{""event"":""fullscreenenter"",""trial"":1,""time"":14356}]",NA,NA,NA,NA,NA,1,#3386FF,#D89F1C,0,0,0,38,1,5880.0999999940395,39,0,602,0,1,experiment,NA,NA,1,0.3,0.7,3,2,205,5,NA
fcp-trial,240,1430071,0.0-215.0-0.0,voc_e2,11759,"[{""event"":""blur"",""trial"":0,""time"":0},{""event"":""focus"",""trial"":0,""time"":0},{""event"":""fullscreenenter"",""trial"":1,""time"":14356}]",NA,NA,NA,NA,NA,0,#741CD8,#D8271C,0,10,1,38,1,6149.200000017881,37,1,612.0999999940395,0,1,experiment,NA,NA,2,0.5,0.5,4,5,206,5,NA
fcp-trial,241,1433755,0.0-216.0-0.0,voc_e2,11759,"[{""event"":""blur"",""trial"":0,""time"":0},{""event"":""focus"",""trial"":0,""time"":0},{""event"":""fullscreenenter"",""trial"":1,""time"":14356}]",NA,NA,NA,NA,NA,6,#3386FF,#D89F1C,0,0,0,40,0,1660.0999999940395,39,0,517.4000000059605,0,1,experiment,NA,NA,1,0.3,0.7,3,2,207,5,NA
fcp-trial,242,1440358,0.0-217.0-0.0,voc_e2,11759,"[{""event"":""blur"",""trial"":0,""time"":0},{""event"":""focus"",""trial"":0,""time"":0},{""event"":""fullscreenenter"",""trial"":1,""time"":14356}]",NA,NA,NA,NA,NA,5,#1CD855,#FA92F8,0,10,0,40,0,4554.299999982119,39,0,539.8999999761581,10,1,experiment,NA,NA,0,0.1,0.9,1,0,208,5,NA
fcp-trial,243,1444753,0.0-218.0-0.0,voc_e2,11759,"[{""event"":""blur"",""trial"":0,""time"":0},{""event"":""focus"",""trial"":0,""time"":0},{""event"":""fullscreenenter"",""trial"":1,""time"":14356}]",NA,NA,NA,NA,NA,6,#D8271C,#741CD8,10,0,0,40,0,2445.699999988079,39,0,442.89999997615814,0,1,experiment,NA,NA,2,0.5,0.5,5,4,209,5,NA
fcp-trial,244,1448274,0.0-219.0-0.0,voc_e2,11759,"[{""event"":""blur"",""trial"":0,""time"":0},{""event"":""focus"",""trial"":0,""time"":0},{""event"":""fullscreenenter"",""trial"":1,""time"":14356}]",NA,NA,NA,NA,NA,1,#FA92F8,#1CD855,10,0,1,38,1,1187.4000000059605,39,0,827.5,0,0,experiment,NA,NA,0,0.9,0.1,0,1,210,5,NA
audio-instructions,245,1507016,0.0-220.0,voc_e2,11759,"[{""event"":""blur"",""trial"":0,""time"":0},{""event"":""focus"",""trial"":0,""time"":0},{""event"":""fullscreenenter"",""trial"":1,""time"":14356}]",NA,53736.90000000596,static/audio/pause.wav,NA,0,NA,NA,NA,NA,NA,NA,NA,NA,NA,NA,NA,NA,NA,NA,NA,NA,NA,NA,NA,NA,NA,NA,NA,NA,NA
fcp-trial,246,1511233,0.0-221.0-0.0,voc_e2,11759,"[{""event"":""blur"",""trial"":0,""time"":0},{""event"":""focus"",""trial"":0,""time"":0},{""event"":""fullscreenenter"",""trial"":1,""time"":14356}]",NA,NA,NA,NA,NA,3,#D89F1C,#3386FF,10,0,1,38,1,2220.5,37,1,485.7999999821186,10,1,experiment,NA,NA,1,0.7,0.3,2,3,211,5,NA
fcp-trial,247,1514978,0.0-222.0-0.0,voc_e2,11759,"[{""event"":""blur"",""trial"":0,""time"":0},{""event"":""focus"",""trial"":0,""time"":0},{""event"":""fullscreenenter"",""trial"":1,""time"":14356}]",NA,NA,NA,NA,NA,6,#3386FF,#D89F1C,10,0,0,40,0,1782.7000000178814,39,0,454.7000000178814,0,1,experiment,NA,NA,1,0.3,0.7,3,2,212,5,NA
fcp-trial,248,1518125,0.0-223.0-0.0,voc_e2,11759,"[{""event"":""blur"",""trial"":0,""time"":0},{""event"":""focus"",""trial"":0,""time"":0},{""event"":""fullscreenenter"",""trial"":1,""time"":14356}]",NA,NA,NA,NA,NA,1,#741CD8,#D8271C,0,0,1,38,1,1117.4000000059605,37,1,523.5,0,1,experiment,NA,NA,2,0.5,0.5,4,5,213,5,NA
fcp-trial,249,1525590,0.0-224.0-0.0,voc_e2,11759,"[{""event"":""blur"",""trial"":0,""time"":0},{""event"":""focus"",""trial"":0,""time"":0},{""event"":""fullscreenenter"",""trial"":1,""time"":14356}]",NA,NA,NA,NA,NA,5,#3386FF,#D89F1C,0,10,0,40,0,5108.899999976158,37,1,847.3999999761581,0,0,experiment,NA,NA,1,0.3,0.7,3,2,214,5,NA
fcp-trial,250,1530587,0.0-225.0-0.0,voc_e2,11759,"[{""event"":""blur"",""trial"":0,""time"":0},{""event"":""focus"",""trial"":0,""time"":0},{""event"":""fullscreenenter"",""trial"":1,""time"":14356}]",NA,NA,NA,NA,NA,4,#1CD855,#FA92F8,0,0,0,38,1,2898,39,0,592.6999999880791,0,1,experiment,NA,NA,0,0.1,0.9,1,0,215,5,NA
fcp-trial,251,1533585,0.0-226.0-0.0,voc_e2,11759,"[{""event"":""blur"",""trial"":0,""time"":0},{""event"":""focus"",""trial"":0,""time"":0},{""event"":""fullscreenenter"",""trial"":1,""time"":14356}]",NA,NA,NA,NA,NA,1,#3386FF,#D89F1C,0,10,0,38,1,940.8000000119209,39,0,548.5,10,1,experiment,NA,NA,1,0.3,0.7,3,2,216,5,NA
fcp-trial,252,1537203,0.0-227.0-0.0,voc_e2,11759,"[{""event"":""blur"",""trial"":0,""time"":0},{""event"":""focus"",""trial"":0,""time"":0},{""event"":""fullscreenenter"",""trial"":1,""time"":14356}]",NA,NA,NA,NA,NA,6,#D8271C,#741CD8,10,10,0,40,0,1593.7999999821186,39,0,517.6999999880791,10,1,experiment,NA,NA,2,0.5,0.5,5,4,217,5,NA
fcp-trial,253,1541454,0.0-228.0-0.0,voc_e2,11759,"[{""event"":""blur"",""trial"":0,""time"":0},{""event"":""focus"",""trial"":0,""time"":0},{""event"":""fullscreenenter"",""trial"":1,""time"":14356}]",NA,NA,NA,NA,NA,2,#D8271C,#741CD8,0,0,0,38,1,1941.5999999940395,39,0,799.4000000059605,0,1,experiment,NA,NA,2,0.5,0.5,5,4,218,5,NA
fcp-trial,254,1545100,0.0-229.0-0.0,voc_e2,11759,"[{""event"":""blur"",""trial"":0,""time"":0},{""event"":""focus"",""trial"":0,""time"":0},{""event"":""fullscreenenter"",""trial"":1,""time"":14356}]",NA,NA,NA,NA,NA,1,#1CD855,#FA92F8,10,10,0,38,1,1038.3999999761581,39,0,1099.0999999940395,10,1,experiment,NA,NA,0,0.1,0.9,1,0,219,5,NA
fcp-trial,255,1548604,0.0-230.0-0.0,voc_e2,11759,"[{""event"":""blur"",""trial"":0,""time"":0},{""event"":""focus"",""trial"":0,""time"":0},{""event"":""fullscreenenter"",""trial"":1,""time"":14356}]",NA,NA,NA,NA,NA,5,#1CD855,#FA92F8,0,10,0,40,0,1312.3999999761581,39,0,684,10,1,experiment,NA,NA,0,0.1,0.9,1,0,220,5,NA
fcp-trial,256,1552282,0.0-231.0-0.0,voc_e2,11759,"[{""event"":""blur"",""trial"":0,""time"":0},{""event"":""focus"",""trial"":0,""time"":0},{""event"":""fullscreenenter"",""trial"":1,""time"":14356}]",NA,NA,NA,NA,NA,4,#3386FF,#D89F1C,0,10,0,38,1,1277.9000000059605,39,0,889.5,10,1,experiment,NA,NA,1,0.3,0.7,3,2,221,5,NA
fcp-trial,257,1560524,0.0-232.0-0.0,voc_e2,11759,"[{""event"":""blur"",""trial"":0,""time"":0},{""event"":""focus"",""trial"":0,""time"":0},{""event"":""fullscreenenter"",""trial"":1,""time"":14356}]",NA,NA,NA,NA,NA,4,#741CD8,#D8271C,10,10,1,38,1,1302.199999988079,37,1,5429.800000011921,10,1,experiment,NA,NA,2,0.5,0.5,4,5,222,5,NA
fcp-trial,258,1566253,0.0-233.0-0.0,voc_e2,11759,"[{""event"":""blur"",""trial"":0,""time"":0},{""event"":""focus"",""trial"":0,""time"":0},{""event"":""fullscreenenter"",""trial"":1,""time"":14356}]",NA,NA,NA,NA,NA,3,#FA92F8,#1CD855,10,0,1,38,1,1506.199999988079,37,1,2716.199999988079,10,1,experiment,NA,NA,0,0.9,0.1,0,1,223,5,NA
fcp-trial,259,1569729,0.0-234.0-0.0,voc_e2,11759,"[{""event"":""blur"",""trial"":0,""time"":0},{""event"":""focus"",""trial"":0,""time"":0},{""event"":""fullscreenenter"",""trial"":1,""time"":14356}]",NA,NA,NA,NA,NA,6,#1CD855,#FA92F8,0,10,0,40,0,901.5999999940395,37,1,1066.5999999940395,0,0,experiment,NA,NA,0,0.1,0.9,1,0,224,5,NA
fcp-trial,260,1573514,0.0-235.0-0.0,voc_e2,11759,"[{""event"":""blur"",""trial"":0,""time"":0},{""event"":""focus"",""trial"":0,""time"":0},{""event"":""fullscreenenter"",""trial"":1,""time"":14356}]",NA,NA,NA,NA,NA,2,#D89F1C,#3386FF,10,0,1,38,1,1609.5,37,1,669.0999999940395,10,1,experiment,NA,NA,1,0.7,0.3,2,3,225,5,NA
fcp-trial,261,1577140,0.0-236.0-0.0,voc_e2,11759,"[{""event"":""blur"",""trial"":0,""time"":0},{""event"":""focus"",""trial"":0,""time"":0},{""event"":""fullscreenenter"",""trial"":1,""time"":14356}]",NA,NA,NA,NA,NA,2,#1CD855,#FA92F8,0,10,0,38,1,1299.699999988079,39,0,817,10,1,experiment,NA,NA,0,0.1,0.9,1,0,226,6,NA
fcp-trial,262,1581087,0.0-237.0-0.0,voc_e2,11759,"[{""event"":""blur"",""trial"":0,""time"":0},{""event"":""focus"",""trial"":0,""time"":0},{""event"":""fullscreenenter"",""trial"":1,""time"":14356}]",NA,NA,NA,NA,NA,0,#D8271C,#741CD8,10,10,0,38,1,1476.300000011921,39,0,960.2999999821186,10,1,experiment,NA,NA,2,0.5,0.5,5,4,227,6,NA
fcp-trial,263,1584236,0.0-238.0-0.0,voc_e2,11759,"[{""event"":""blur"",""trial"":0,""time"":0},{""event"":""focus"",""trial"":0,""time"":0},{""event"":""fullscreenenter"",""trial"":1,""time"":14356}]",NA,NA,NA,NA,NA,3,#741CD8,#D8271C,0,0,1,38,1,1087.2999999821186,37,1,555.8000000119209,0,1,experiment,NA,NA,2,0.5,0.5,4,5,228,6,NA
fcp-trial,264,1587724,0.0-239.0-0.0,voc_e2,11759,"[{""event"":""blur"",""trial"":0,""time"":0},{""event"":""focus"",""trial"":0,""time"":0},{""event"":""fullscreenenter"",""trial"":1,""time"":14356}]",NA,NA,NA,NA,NA,5,#741CD8,#D8271C,10,10,1,40,0,1469.199999988079,39,0,512,10,0,experiment,NA,NA,2,0.5,0.5,4,5,229,6,NA
fcp-trial,265,1598563,0.0-240.0-0.0,voc_e2,11759,"[{""event"":""blur"",""trial"":0,""time"":0},{""event"":""focus"",""trial"":0,""time"":0},{""event"":""fullscreenenter"",""trial"":1,""time"":14356}]",NA,NA,NA,NA,NA,0,#D89F1C,#3386FF,10,10,1,38,1,8692,37,1,640.1999999880791,10,1,experiment,NA,NA,1,0.7,0.3,2,3,230,6,NA
fcp-trial,266,1604741,0.0-241.0-0.0,voc_e2,11759,"[{""event"":""blur"",""trial"":0,""time"":0},{""event"":""focus"",""trial"":0,""time"":0},{""event"":""fullscreenenter"",""trial"":1,""time"":14356}]",NA,NA,NA,NA,NA,0,#FA92F8,#1CD855,10,0,1,38,1,2311.5999999940395,37,1,2358.0999999940395,10,1,experiment,NA,NA,0,0.9,0.1,0,1,231,6,NA
fcp-trial,267,1609944,0.0-242.0-0.0,voc_e2,11759,"[{""event"":""blur"",""trial"":0,""time"":0},{""event"":""focus"",""trial"":0,""time"":0},{""event"":""fullscreenenter"",""trial"":1,""time"":14356}]",NA,NA,NA,NA,NA,5,#D8271C,#741CD8,10,0,0,38,1,1770.5,39,0,1924.800000011921,0,1,experiment,NA,NA,2,0.5,0.5,5,4,232,6,NA
fcp-trial,268,1615418,0.0-243.0-0.0,voc_e2,11759,"[{""event"":""blur"",""trial"":0,""time"":0},{""event"":""focus"",""trial"":0,""time"":0},{""event"":""fullscreenenter"",""trial"":1,""time"":14356}]",NA,NA,NA,NA,NA,3,#1CD855,#FA92F8,0,10,0,38,1,2394.2999999821186,39,0,1574.300000011921,10,1,experiment,NA,NA,0,0.1,0.9,1,0,233,6,NA
fcp-trial,269,1621615,0.0-244.0-0.0,voc_e2,11759,"[{""event"":""blur"",""trial"":0,""time"":0},{""event"":""focus"",""trial"":0,""time"":0},{""event"":""fullscreenenter"",""trial"":1,""time"":14356}]",NA,NA,NA,NA,NA,2,#D8271C,#741CD8,0,0,0,38,1,3798.800000011921,39,0,891.3000000119209,0,1,experiment,NA,NA,2,0.5,0.5,5,4,234,6,NA
fcp-trial,270,1626200,0.0-245.0-0.0,voc_e2,11759,"[{""event"":""blur"",""trial"":0,""time"":0},{""event"":""focus"",""trial"":0,""time"":0},{""event"":""fullscreenenter"",""trial"":1,""time"":14356}]",NA,NA,NA,NA,NA,6,#1CD855,#FA92F8,0,10,0,38,1,1660.9000000059605,39,0,1417.0999999940395,10,1,experiment,NA,NA,0,0.1,0.9,1,0,235,6,NA
fcp-trial,271,1630064,0.0-246.0-0.0,voc_e2,11759,"[{""event"":""blur"",""trial"":0,""time"":0},{""event"":""focus"",""trial"":0,""time"":0},{""event"":""fullscreenenter"",""trial"":1,""time"":14356}]",NA,NA,NA,NA,NA,0,#D89F1C,#3386FF,10,0,1,38,1,1733.7999999821186,37,1,622.1000000238419,10,1,experiment,NA,NA,1,0.7,0.3,2,3,236,6,NA
fcp-trial,272,1634374,0.0-247.0-0.0,voc_e2,11759,"[{""event"":""blur"",""trial"":0,""time"":0},{""event"":""focus"",""trial"":0,""time"":0},{""event"":""fullscreenenter"",""trial"":1,""time"":14356}]",NA,NA,NA,NA,NA,4,#D89F1C,#3386FF,10,10,1,38,1,2414.100000023842,37,1,388.5,10,1,experiment,NA,NA,1,0.7,0.3,2,3,237,6,NA
fcp-trial,273,1638078,0.0-248.0-0.0,voc_e2,11759,"[{""event"":""blur"",""trial"":0,""time"":0},{""event"":""focus"",""trial"":0,""time"":0},{""event"":""fullscreenenter"",""trial"":1,""time"":14356}]",NA,NA,NA,NA,NA,3,#D8271C,#741CD8,0,0,0,38,1,1569.9000000059605,39,0,627.2999999821186,0,1,experiment,NA,NA,2,0.5,0.5,5,4,238,6,NA
fcp-trial,274,1642011,0.0-249.0-0.0,voc_e2,11759,"[{""event"":""blur"",""trial"":0,""time"":0},{""event"":""focus"",""trial"":0,""time"":0},{""event"":""fullscreenenter"",""trial"":1,""time"":14356}]",NA,NA,NA,NA,NA,5,#FA92F8,#1CD855,10,0,1,40,0,1401,39,0,1024.9000000059605,0,0,experiment,NA,NA,0,0.9,0.1,0,1,239,6,NA
fcp-trial,275,1645337,0.0-250.0-0.0,voc_e2,11759,"[{""event"":""blur"",""trial"":0,""time"":0},{""event"":""focus"",""trial"":0,""time"":0},{""event"":""fullscreenenter"",""trial"":1,""time"":14356}]",NA,NA,NA,NA,NA,3,#3386FF,#D89F1C,0,10,0,38,1,1311.699999988079,39,0,505.40000000596046,10,1,experiment,NA,NA,1,0.3,0.7,3,2,240,6,NA
fcp-trial,276,1648418,0.0-251.0-0.0,voc_e2,11759,"[{""event"":""blur"",""trial"":0,""time"":0},{""event"":""focus"",""trial"":0,""time"":0},{""event"":""fullscreenenter"",""trial"":1,""time"":14356}]",NA,NA,NA,NA,NA,0,#FA92F8,#1CD855,10,0,1,38,1,912.5,37,1,658,10,1,experiment,NA,NA,0,0.9,0.1,0,1,241,6,NA
fcp-trial,277,1652569,0.0-252.0-0.0,voc_e2,11759,"[{""event"":""blur"",""trial"":0,""time"":0},{""event"":""focus"",""trial"":0,""time"":0},{""event"":""fullscreenenter"",""trial"":1,""time"":14356}]",NA,NA,NA,NA,NA,4,#741CD8,#D8271C,0,10,1,38,1,2237.4000000059605,37,1,405.30000001192093,0,1,experiment,NA,NA,2,0.5,0.5,4,5,242,6,NA
fcp-trial,278,1656566,0.0-253.0-0.0,voc_e2,11759,"[{""event"":""blur"",""trial"":0,""time"":0},{""event"":""focus"",""trial"":0,""time"":0},{""event"":""fullscreenenter"",""trial"":1,""time"":14356}]",NA,NA,NA,NA,NA,2,#1CD855,#FA92F8,0,10,0,38,1,2066.4000000059605,39,0,423.69999998807907,10,1,experiment,NA,NA,0,0.1,0.9,1,0,243,6,NA
fcp-trial,279,1660580,0.0-254.0-0.0,voc_e2,11759,"[{""event"":""blur"",""trial"":0,""time"":0},{""event"":""focus"",""trial"":0,""time"":0},{""event"":""fullscreenenter"",""trial"":1,""time"":14356}]",NA,NA,NA,NA,NA,6,#3386FF,#D89F1C,0,0,0,40,0,1677.3999999761581,39,0,828.5,0,1,experiment,NA,NA,1,0.3,0.7,3,2,244,6,NA
fcp-trial,280,1663950,0.0-255.0-0.0,voc_e2,11759,"[{""event"":""blur"",""trial"":0,""time"":0},{""event"":""focus"",""trial"":0,""time"":0},{""event"":""fullscreenenter"",""trial"":1,""time"":14356}]",NA,NA,NA,NA,NA,0,#D8271C,#741CD8,0,10,0,38,1,1301.5,39,0,563.0999999940395,10,1,experiment,NA,NA,2,0.5,0.5,5,4,245,6,NA
fcp-trial,281,1667711,0.0-256.0-0.0,voc_e2,11759,"[{""event"":""blur"",""trial"":0,""time"":0},{""event"":""focus"",""trial"":0,""time"":0},{""event"":""fullscreenenter"",""trial"":1,""time"":14356}]",NA,NA,NA,NA,NA,4,#FA92F8,#1CD855,10,10,1,38,1,1221,37,1,1032.800000011921,10,1,experiment,NA,NA,0,0.9,0.1,0,1,246,6,NA
fcp-trial,282,1671330,0.0-257.0-0.0,voc_e2,11759,"[{""event"":""blur"",""trial"":0,""time"":0},{""event"":""focus"",""trial"":0,""time"":0},{""event"":""fullscreenenter"",""trial"":1,""time"":14356}]",NA,NA,NA,NA,NA,5,#3386FF,#D89F1C,10,10,0,40,0,1612.2000000178814,39,0,499.7000000178814,10,1,experiment,NA,NA,1,0.3,0.7,3,2,247,6,NA
fcp-trial,283,1675240,0.0-258.0-0.0,voc_e2,11759,"[{""event"":""blur"",""trial"":0,""time"":0},{""event"":""focus"",""trial"":0,""time"":0},{""event"":""fullscreenenter"",""trial"":1,""time"":14356}]",NA,NA,NA,NA,NA,1,#D8271C,#741CD8,0,0,0,38,1,1791.199999988079,39,0,611.8999999761581,0,1,experiment,NA,NA,2,0.5,0.5,5,4,248,6,NA
fcp-trial,284,1679270,0.0-259.0-0.0,voc_e2,11759,"[{""event"":""blur"",""trial"":0,""time"":0},{""event"":""focus"",""trial"":0,""time"":0},{""event"":""fullscreenenter"",""trial"":1,""time"":14356}]",NA,NA,NA,NA,NA,2,#D89F1C,#3386FF,0,0,1,38,1,818.5,37,1,1704.199999988079,0,1,experiment,NA,NA,1,0.7,0.3,2,3,249,6,NA
fcp-trial,285,1683533,0.0-260.0-0.0,voc_e2,11759,"[{""event"":""blur"",""trial"":0,""time"":0},{""event"":""focus"",""trial"":0,""time"":0},{""event"":""fullscreenenter"",""trial"":1,""time"":14356}]",NA,NA,NA,NA,NA,1,#1CD855,#FA92F8,0,10,0,38,1,2010.7999999821186,39,0,746.0999999940395,10,1,experiment,NA,NA,0,0.1,0.9,1,0,250,6,NA
fcp-trial,286,1688001,0.0-261.0-0.0,voc_e2,11759,"[{""event"":""blur"",""trial"":0,""time"":0},{""event"":""focus"",""trial"":0,""time"":0},{""event"":""fullscreenenter"",""trial"":1,""time"":14356}]",NA,NA,NA,NA,NA,6,#D8271C,#741CD8,0,0,0,40,0,2294.5999999940395,37,1,667.1000000238419,0,0,experiment,NA,NA,2,0.5,0.5,5,4,251,6,NA
fcp-trial,287,1692468,0.0-262.0-0.0,voc_e2,11759,"[{""event"":""blur"",""trial"":0,""time"":0},{""event"":""focus"",""trial"":0,""time"":0},{""event"":""fullscreenenter"",""trial"":1,""time"":14356}]",NA,NA,NA,NA,NA,1,#D89F1C,#3386FF,10,0,1,38,1,2355.4000000059605,37,1,601.7000000178814,10,1,experiment,NA,NA,1,0.7,0.3,2,3,252,6,NA
fcp-trial,288,1697172,0.0-263.0-0.0,voc_e2,11759,"[{""event"":""blur"",""trial"":0,""time"":0},{""event"":""focus"",""trial"":0,""time"":0},{""event"":""fullscreenenter"",""trial"":1,""time"":14356}]",NA,NA,NA,NA,NA,5,#D8271C,#741CD8,10,0,0,40,0,1585.5999999940395,39,0,1610.5,0,1,experiment,NA,NA,2,0.5,0.5,5,4,253,6,NA
fcp-trial,289,1701178,0.0-264.0-0.0,voc_e2,11759,"[{""event"":""blur"",""trial"":0,""time"":0},{""event"":""focus"",""trial"":0,""time"":0},{""event"":""fullscreenenter"",""trial"":1,""time"":14356}]",NA,NA,NA,NA,NA,1,#D8271C,#741CD8,10,10,0,38,1,1424.5999999940395,39,0,1074.4000000059605,10,1,experiment,NA,NA,2,0.5,0.5,5,4,254,6,NA
fcp-trial,290,1704767,0.0-265.0-0.0,voc_e2,11759,"[{""event"":""blur"",""trial"":0,""time"":0},{""event"":""focus"",""trial"":0,""time"":0},{""event"":""fullscreenenter"",""trial"":1,""time"":14356}]",NA,NA,NA,NA,NA,1,#1CD855,#FA92F8,0,10,0,38,1,1127.9000000059605,39,0,952.2999999821186,10,1,experiment,NA,NA,0,0.1,0.9,1,0,255,6,NA
fcp-trial,291,1708441,0.0-266.0-0.0,voc_e2,11759,"[{""event"":""blur"",""trial"":0,""time"":0},{""event"":""focus"",""trial"":0,""time"":0},{""event"":""fullscreenenter"",""trial"":1,""time"":14356}]",NA,NA,NA,NA,NA,2,#1CD855,#FA92F8,0,0,0,38,1,1543.800000011921,39,0,622.8999999761581,0,1,experiment,NA,NA,0,0.1,0.9,1,0,256,6,NA
fcp-trial,292,1711540,0.0-267.0-0.0,voc_e2,11759,"[{""event"":""blur"",""trial"":0,""time"":0},{""event"":""focus"",""trial"":0,""time"":0},{""event"":""fullscreenenter"",""trial"":1,""time"":14356}]",NA,NA,NA,NA,NA,0,#3386FF,#D89F1C,0,10,0,38,1,1215.800000011921,39,0,375.80000001192093,10,1,experiment,NA,NA,1,0.3,0.7,3,2,257,6,NA
fcp-trial,293,1714779,0.0-268.0-0.0,voc_e2,11759,"[{""event"":""blur"",""trial"":0,""time"":0},{""event"":""focus"",""trial"":0,""time"":0},{""event"":""fullscreenenter"",""trial"":1,""time"":14356}]",NA,NA,NA,NA,NA,4,#3386FF,#D89F1C,10,10,0,38,1,919.5,39,0,811.5,10,1,experiment,NA,NA,1,0.3,0.7,3,2,258,6,NA
fcp-trial,294,1718317,0.0-269.0-0.0,voc_e2,11759,"[{""event"":""blur"",""trial"":0,""time"":0},{""event"":""focus"",""trial"":0,""time"":0},{""event"":""fullscreenenter"",""trial"":1,""time"":14356}]",NA,NA,NA,NA,NA,6,#D8271C,#741CD8,10,0,0,40,0,1330.5,39,0,700.1999999880791,0,1,experiment,NA,NA,2,0.5,0.5,5,4,259,6,NA
fcp-trial,295,1721423,0.0-270.0-0.0,voc_e2,11759,"[{""event"":""blur"",""trial"":0,""time"":0},{""event"":""focus"",""trial"":0,""time"":0},{""event"":""fullscreenenter"",""trial"":1,""time"":14356}]",NA,NA,NA,NA,NA,1,#D89F1C,#3386FF,0,10,1,38,1,953.2000000178814,37,1,645.0999999940395,0,1,experiment,NA,NA,1,0.7,0.3,2,3,260,6,NA
fcp-trial,296,1724909,0.0-271.0-0.0,voc_e2,11759,"[{""event"":""blur"",""trial"":0,""time"":0},{""event"":""focus"",""trial"":0,""time"":0},{""event"":""fullscreenenter"",""trial"":1,""time"":14356}]",NA,NA,NA,NA,NA,0,#1CD855,#FA92F8,0,0,0,38,1,1090.1000000238419,39,0,888.5,0,1,experiment,NA,NA,0,0.1,0.9,1,0,261,6,NA
fcp-trial,297,1729152,0.0-272.0-0.0,voc_e2,11759,"[{""event"":""blur"",""trial"":0,""time"":0},{""event"":""focus"",""trial"":0,""time"":0},{""event"":""fullscreenenter"",""trial"":1,""time"":14356}]",NA,NA,NA,NA,NA,5,#D89F1C,#3386FF,10,0,1,40,0,1862.5999999940395,37,1,874.3000000119209,10,1,experiment,NA,NA,1,0.7,0.3,2,3,262,6,NA
fcp-trial,298,1736921,0.0-273.0-0.0,voc_e2,11759,"[{""event"":""blur"",""trial"":0,""time"":0},{""event"":""focus"",""trial"":0,""time"":0},{""event"":""fullscreenenter"",""trial"":1,""time"":14356}]",NA,NA,NA,NA,NA,2,#741CD8,#D8271C,0,10,1,38,1,2372.199999988079,37,1,3889.5,0,1,experiment,NA,NA,2,0.5,0.5,4,5,263,6,NA
fcp-trial,299,1740374,0.0-274.0-0.0,voc_e2,11759,"[{""event"":""blur"",""trial"":0,""time"":0},{""event"":""focus"",""trial"":0,""time"":0},{""event"":""fullscreenenter"",""trial"":1,""time"":14356}]",NA,NA,NA,NA,NA,6,#3386FF,#D89F1C,0,10,0,40,0,1352.8999999761581,37,1,592.5,0,0,experiment,NA,NA,1,0.3,0.7,3,2,264,6,NA
fcp-trial,300,1744268,0.0-275.0-0.0,voc_e2,11759,"[{""event"":""blur"",""trial"":0,""time"":0},{""event"":""focus"",""trial"":0,""time"":0},{""event"":""fullscreenenter"",""trial"":1,""time"":14356}]",NA,NA,NA,NA,NA,5,#1CD855,#FA92F8,0,0,0,40,0,1709,37,1,678.1999999880791,0,0,experiment,NA,NA,0,0.1,0.9,1,0,265,6,NA
fcp-trial,301,1747752,0.0-276.0-0.0,voc_e2,11759,"[{""event"":""blur"",""trial"":0,""time"":0},{""event"":""focus"",""trial"":0,""time"":0},{""event"":""fullscreenenter"",""trial"":1,""time"":14356}]",NA,NA,NA,NA,NA,3,#D8271C,#741CD8,0,10,0,38,1,1186.199999988079,39,0,791.0999999940395,10,1,experiment,NA,NA,2,0.5,0.5,5,4,266,6,NA
fcp-trial,302,1751111,0.0-277.0-0.0,voc_e2,11759,"[{""event"":""blur"",""trial"":0,""time"":0},{""event"":""focus"",""trial"":0,""time"":0},{""event"":""fullscreenenter"",""trial"":1,""time"":14356}]",NA,NA,NA,NA,NA,3,#3386FF,#D89F1C,0,0,0,38,1,975.1999999880791,39,0,875.9000000059605,0,1,experiment,NA,NA,1,0.3,0.7,3,2,267,6,NA
fcp-trial,303,1759180,0.0-278.0-0.0,voc_e2,11759,"[{""event"":""blur"",""trial"":0,""time"":0},{""event"":""focus"",""trial"":0,""time"":0},{""event"":""fullscreenenter"",""trial"":1,""time"":14356}]",NA,NA,NA,NA,NA,3,#FA92F8,#1CD855,0,0,1,38,1,2471.5999999940395,37,1,4091.4000000059605,0,1,experiment,NA,NA,0,0.9,0.1,0,1,268,6,NA
