trial_type,trial_index,time_elapsed,internal_node_id,task_version,subject_id,interactions,success,rt,stimulus,key_press,button_pressed,offer,arcade_color_L,arcade_color_R,arcade_outcome_L,arcade_outcome_R,correct,stage_1_key,stage_1_choice,stage_1_rt,stage_2_key,stage_2_choice,stage_2_rt,stage_3_outcome,accuracy,phase,responses,num_errors,context,reward_prob_L,reward_prob_R,arcade_id_L,arcade_id_R,trial,block,response
pavlovia,0,13,0.0-0.0,voc_e2,12129,[],NA,NA,NA,NA,NA,NA,NA,NA,NA,NA,NA,NA,NA,NA,NA,NA,NA,NA,NA,NA,NA,NA,NA,NA,NA,NA,NA,NA,NA,NA
fullscreen,1,3609,0.0-1.0,voc_e2,12129,"[{""event"":""fullscreenenter"",""trial"":1,""time"":2650}]",TRUE,NA,NA,NA,NA,NA,NA,NA,NA,NA,NA,NA,NA,NA,NA,NA,NA,NA,NA,NA,NA,NA,NA,NA,NA,NA,NA,NA,NA,NA
audio-keyboard-response,2,6849,0.0-2.0,voc_e2,12129,"[{""event"":""fullscreenenter"",""trial"":1,""time"":2650}]",NA,0,static/audio/beep_loop.wav,32,NA,NA,NA,NA,NA,NA,NA,NA,NA,NA,NA,NA,NA,NA,NA,NA,NA,NA,NA,NA,NA,NA,NA,NA,NA,NA
audio-test,3,8617,0.0-3.0,voc_e2,12129,"[{""event"":""fullscreenenter"",""trial"":1,""time"":2650}]",NA,NA,static/audio/turtle.wav,NA,3,NA,NA,NA,NA,NA,NA,NA,NA,NA,NA,NA,NA,NA,NA,NA,NA,NA,NA,NA,NA,NA,NA,NA,NA,NA
audio-test,4,11016,0.0-4.0,voc_e2,12129,"[{""event"":""fullscreenenter"",""trial"":1,""time"":2650}]",NA,NA,static/audio/shark.wav,NA,2,NA,NA,NA,NA,NA,NA,NA,NA,NA,NA,NA,NA,NA,NA,NA,NA,NA,NA,NA,NA,NA,NA,NA,NA,NA
audio-instructions,5,17817,0.0-5.0-0.0,voc_e2,12129,"[{""event"":""fullscreenenter"",""trial"":1,""time"":2650}]",NA,1018.9999999999964,static/audio/instructions1.wav,NA,0,NA,NA,NA,NA,NA,NA,NA,NA,NA,NA,NA,NA,NA,NA,NA,NA,NA,NA,NA,NA,NA,NA,NA,NA,NA
audio-instructions,6,26218,0.0-5.0-1.0,voc_e2,12129,"[{""event"":""fullscreenenter"",""trial"":1,""time"":2650}]",NA,1657.0000000000073,static/audio/instructions2.wav,NA,0,NA,NA,NA,NA,NA,NA,NA,NA,NA,NA,NA,NA,NA,NA,NA,NA,NA,NA,NA,NA,NA,NA,NA,NA,NA
audio-instructions,7,32502,0.0-5.0-2.0,voc_e2,12129,"[{""event"":""fullscreenenter"",""trial"":1,""time"":2650}]",NA,480,static/audio/instructions3.wav,NA,0,NA,NA,NA,NA,NA,NA,NA,NA,NA,NA,NA,NA,NA,NA,NA,NA,NA,NA,NA,NA,NA,NA,NA,NA,NA
audio-instructions,8,51302,0.0-5.0-3.0,voc_e2,12129,"[{""event"":""fullscreenenter"",""trial"":1,""time"":2650}]",NA,5571.000000000007,static/audio/instructions4.wav,NA,0,NA,NA,NA,NA,NA,NA,NA,NA,NA,NA,NA,NA,NA,NA,NA,NA,NA,NA,NA,NA,NA,NA,NA,NA,NA
audio-instructions,9,61484,0.0-5.0-4.0,voc_e2,12129,"[{""event"":""fullscreenenter"",""trial"":1,""time"":2650}]",NA,793,static/audio/instructions5.wav,NA,0,NA,NA,NA,NA,NA,NA,NA,NA,NA,NA,NA,NA,NA,NA,NA,NA,NA,NA,NA,NA,NA,NA,NA,NA,NA
fcp-practice,10,64346,0.0-5.0-5.0-0.0,voc_e2,12129,"[{""event"":""fullscreenenter"",""trial"":1,""time"":2650}]",NA,NA,NA,NA,NA,NA,#EDC948,#46d3c8,10,0,1,null,null,null,37,1,1354.0000000000146,10,1,practice,NA,NA,NA,NA,NA,NA,NA,NA,NA,NA
fcp-practice,11,66675,0.0-5.0-5.0-1.0,voc_e2,12129,"[{""event"":""fullscreenenter"",""trial"":1,""time"":2650}]",NA,NA,NA,NA,NA,NA,#EDC948,#46d3c8,10,0,1,null,null,null,37,1,809,10,1,practice,NA,NA,NA,NA,NA,NA,NA,NA,NA,NA
fcp-practice,12,68885,0.0-5.0-5.0-2.0,voc_e2,12129,"[{""event"":""fullscreenenter"",""trial"":1,""time"":2650}]",NA,NA,NA,NA,NA,NA,#EDC948,#46d3c8,0,10,1,null,null,null,37,1,702,0,1,practice,NA,NA,NA,NA,NA,NA,NA,NA,NA,NA
fcp-practice,13,70819,0.0-5.0-5.0-3.0,voc_e2,12129,"[{""event"":""fullscreenenter"",""trial"":1,""time"":2650}]",NA,NA,NA,NA,NA,NA,#EDC948,#46d3c8,10,0,1,null,null,null,37,1,425.00000000001455,10,1,practice,NA,NA,NA,NA,NA,NA,NA,NA,NA,NA
fcp-practice,14,72918,0.0-5.0-5.0-4.0,voc_e2,12129,"[{""event"":""fullscreenenter"",""trial"":1,""time"":2650}]",NA,NA,NA,NA,NA,NA,#EDC948,#46d3c8,10,0,1,null,null,null,37,1,591,10,1,practice,NA,NA,NA,NA,NA,NA,NA,NA,NA,NA
audio-instructions,15,92166,0.0-5.0-6.0,voc_e2,12129,"[{""event"":""fullscreenenter"",""trial"":1,""time"":2650}]",NA,1241,static/audio/instructions6.wav,NA,0,NA,NA,NA,NA,NA,NA,NA,NA,NA,NA,NA,NA,NA,NA,NA,NA,NA,NA,NA,NA,NA,NA,NA,NA,NA
audio-instructions,16,112250,0.0-5.0-7.0,voc_e2,12129,"[{""event"":""fullscreenenter"",""trial"":1,""time"":2650}]",NA,881.9999999999854,static/audio/instructions7.wav,NA,0,NA,NA,NA,NA,NA,NA,NA,NA,NA,NA,NA,NA,NA,NA,NA,NA,NA,NA,NA,NA,NA,NA,NA,NA,NA
audio-instructions,17,122235,0.0-5.0-8.0,voc_e2,12129,"[{""event"":""fullscreenenter"",""trial"":1,""time"":2650}]",NA,512,static/audio/instructions8.wav,NA,0,NA,NA,NA,NA,NA,NA,NA,NA,NA,NA,NA,NA,NA,NA,NA,NA,NA,NA,NA,NA,NA,NA,NA,NA,NA
fcp-comprehension,18,129889,0.0-5.0-9.0,voc_e2,12129,"[{""event"":""fullscreenenter"",""trial"":1,""time"":2650}]",NA,7651,NA,NA,NA,NA,NA,NA,NA,NA,NA,NA,NA,NA,NA,NA,NA,NA,NA,NA,"true,true",0,NA,NA,NA,NA,NA,NA,NA,NA
audio-instructions,19,136433,0.0-6.0-0.0,voc_e2,12129,"[{""event"":""fullscreenenter"",""trial"":1,""time"":2650}]",NA,992,static/audio/instructions9.wav,NA,0,NA,NA,NA,NA,NA,NA,NA,NA,NA,NA,NA,NA,NA,NA,NA,NA,NA,NA,NA,NA,NA,NA,NA,NA,NA
audio-instructions,20,153816,0.0-6.0-1.0,voc_e2,12129,"[{""event"":""fullscreenenter"",""trial"":1,""time"":2650}]",NA,5263.999999999971,static/audio/instructions10.wav,NA,0,NA,NA,NA,NA,NA,NA,NA,NA,NA,NA,NA,NA,NA,NA,NA,NA,NA,NA,NA,NA,NA,NA,NA,NA,NA
fcp-trial,21,162640,0.0-6.0-2.0,voc_e2,12129,"[{""event"":""fullscreenenter"",""trial"":1,""time"":2650}]",NA,NA,NA,NA,NA,0,#EDC948,#46d3c8,10,10,1,38,1,4644,37,1,2670,10,1,practice,NA,NA,NA,NA,NA,NA,NA,NA,NA,NA
audio-instructions,22,174485,0.0-6.0-3.0,voc_e2,12129,"[{""event"":""fullscreenenter"",""trial"":1,""time"":2650}]",NA,831.9999999999709,static/audio/instructions11.wav,NA,0,NA,NA,NA,NA,NA,NA,NA,NA,NA,NA,NA,NA,NA,NA,NA,NA,NA,NA,NA,NA,NA,NA,NA,NA,NA
fcp-trial,23,178718,0.0-6.0-4.0,voc_e2,12129,"[{""event"":""fullscreenenter"",""trial"":1,""time"":2650}]",NA,NA,NA,NA,NA,6,#EDC948,#46d3c8,10,10,1,40,0,1291,37,1,1432,10,1,practice,NA,NA,NA,NA,NA,NA,NA,NA,NA,NA
audio-instructions,24,198985,0.0-6.0-5.0,voc_e2,12129,"[{""event"":""fullscreenenter"",""trial"":1,""time"":2650}]",NA,1574,static/audio/instructions12.wav,NA,0,NA,NA,NA,NA,NA,NA,NA,NA,NA,NA,NA,NA,NA,NA,NA,NA,NA,NA,NA,NA,NA,NA,NA,NA,NA
audio-instructions,25,207449,0.0-6.0-6.0,voc_e2,12129,"[{""event"":""fullscreenenter"",""trial"":1,""time"":2650}]",NA,868.0000000000291,static/audio/instructions13.wav,NA,0,NA,NA,NA,NA,NA,NA,NA,NA,NA,NA,NA,NA,NA,NA,NA,NA,NA,NA,NA,NA,NA,NA,NA,NA,NA
audio-instructions,26,216951,0.0-6.0-7.0,voc_e2,12129,"[{""event"":""fullscreenenter"",""trial"":1,""time"":2650}]",NA,1052,static/audio/instructions14.wav,NA,0,NA,NA,NA,NA,NA,NA,NA,NA,NA,NA,NA,NA,NA,NA,NA,NA,NA,NA,NA,NA,NA,NA,NA,NA,NA
audio-instructions,27,224400,0.0-7.0-0.0,voc_e2,12129,"[{""event"":""fullscreenenter"",""trial"":1,""time"":2650}]",NA,536,static/audio/instructions15.wav,NA,0,NA,NA,NA,NA,NA,NA,NA,NA,NA,NA,NA,NA,NA,NA,NA,NA,NA,NA,NA,NA,NA,NA,NA,NA,NA
audio-instructions,28,232433,0.0-7.0-1.0,voc_e2,12129,"[{""event"":""fullscreenenter"",""trial"":1,""time"":2650}]",NA,1204,static/audio/instructions16.wav,NA,0,NA,NA,NA,NA,NA,NA,NA,NA,NA,NA,NA,NA,NA,NA,NA,NA,NA,NA,NA,NA,NA,NA,NA,NA,NA
audio-instructions,29,240502,0.0-7.0-2.0,voc_e2,12129,"[{""event"":""fullscreenenter"",""trial"":1,""time"":2650}]",NA,388,static/audio/instructions17.wav,NA,0,NA,NA,NA,NA,NA,NA,NA,NA,NA,NA,NA,NA,NA,NA,NA,NA,NA,NA,NA,NA,NA,NA,NA,NA,NA
audio-instructions,30,248520,0.0-7.0-3.0,voc_e2,12129,"[{""event"":""fullscreenenter"",""trial"":1,""time"":2650}]",NA,252,static/audio/instructions18.wav,NA,0,NA,NA,NA,NA,NA,NA,NA,NA,NA,NA,NA,NA,NA,NA,NA,NA,NA,NA,NA,NA,NA,NA,NA,NA,NA
audio-instructions,31,255635,0.0-7.0-4.0,voc_e2,12129,"[{""event"":""fullscreenenter"",""trial"":1,""time"":2650}]",NA,371,static/audio/instructions19.wav,NA,0,NA,NA,NA,NA,NA,NA,NA,NA,NA,NA,NA,NA,NA,NA,NA,NA,NA,NA,NA,NA,NA,NA,NA,NA,NA
fcp-comprehension,32,263889,0.0-7.0-5.0,voc_e2,12129,"[{""event"":""fullscreenenter"",""trial"":1,""time"":2650}]",NA,8252,NA,NA,NA,NA,NA,NA,NA,NA,NA,NA,NA,NA,NA,NA,NA,NA,NA,NA,"false,false,false,true",0,NA,NA,NA,NA,NA,NA,NA,NA
audio-instructions,33,273868,0.0-8.0,voc_e2,12129,"[{""event"":""fullscreenenter"",""trial"":1,""time"":2650}]",NA,759,static/audio/ready.wav,NA,0,NA,NA,NA,NA,NA,NA,NA,NA,NA,NA,NA,NA,NA,NA,NA,NA,NA,NA,NA,NA,NA,NA,NA,NA,NA
fcp-trial,34,281625,0.0-9.0-0.0,voc_e2,12129,"[{""event"":""fullscreenenter"",""trial"":1,""time"":2650}]",NA,NA,NA,NA,NA,3,#1CD855,#FA92F8,0,10,0,40,0,5308,39,0,937.0000000000582,10,1,experiment,NA,NA,1,0.3,0.7,3,2,1,1,NA
fcp-trial,35,287295,0.0-10.0-0.0,voc_e2,12129,"[{""event"":""fullscreenenter"",""trial"":1,""time"":2650}]",NA,NA,NA,NA,NA,1,#3386FF,#D89F1C,10,0,1,40,0,3486,37,1,675,10,1,experiment,NA,NA,0,0.9,0.1,0,1,2,1,NA
fcp-trial,36,291411,0.0-11.0-0.0,voc_e2,12129,"[{""event"":""fullscreenenter"",""trial"":1,""time"":2650}]",NA,NA,NA,NA,NA,5,#1CD855,#FA92F8,0,10,0,40,0,1893,39,0,702,10,1,experiment,NA,NA,1,0.3,0.7,3,2,3,1,NA
fcp-trial,37,295495,0.0-12.0-0.0,voc_e2,12129,"[{""event"":""fullscreenenter"",""trial"":1,""time"":2650}]",NA,NA,NA,NA,NA,1,#741CD8,#D8271C,10,0,1,40,0,1892,37,1,669,10,1,experiment,NA,NA,2,0.5,0.5,4,5,4,1,NA
fcp-trial,38,299219,0.0-13.0-0.0,voc_e2,12129,"[{""event"":""fullscreenenter"",""trial"":1,""time"":2650}]",NA,NA,NA,NA,NA,3,#741CD8,#D8271C,10,10,1,40,0,1132,39,0,1071.9999999999418,10,0,experiment,NA,NA,2,0.5,0.5,4,5,5,1,NA
fcp-trial,39,304656,0.0-14.0-0.0,voc_e2,12129,"[{""event"":""fullscreenenter"",""trial"":1,""time"":2650}]",NA,NA,NA,NA,NA,4,#D8271C,#741CD8,0,10,0,40,0,3447,37,1,479.9999999999418,0,0,experiment,NA,NA,2,0.5,0.5,5,4,6,1,NA
fcp-trial,40,307952,0.0-15.0-0.0,voc_e2,12129,"[{""event"":""fullscreenenter"",""trial"":1,""time"":2650}]",NA,NA,NA,NA,NA,5,#3386FF,#D89F1C,10,0,1,40,0,1287,39,0,499,0,0,experiment,NA,NA,0,0.9,0.1,0,1,7,1,NA
fcp-trial,41,311652,0.0-16.0-0.0,voc_e2,12129,"[{""event"":""fullscreenenter"",""trial"":1,""time"":2650}]",NA,NA,NA,NA,NA,2,#FA92F8,#1CD855,10,10,1,40,0,1613.9999999999418,39,0,576,10,0,experiment,NA,NA,1,0.7,0.3,2,3,8,1,NA
fcp-trial,42,315028,0.0-17.0-0.0,voc_e2,12129,"[{""event"":""fullscreenenter"",""trial"":1,""time"":2650}]",NA,NA,NA,NA,NA,1,#1CD855,#FA92F8,0,10,0,40,0,1091,39,0,773,10,1,experiment,NA,NA,1,0.3,0.7,3,2,9,1,NA
fcp-trial,43,318611,0.0-18.0-0.0,voc_e2,12129,"[{""event"":""fullscreenenter"",""trial"":1,""time"":2650}]",NA,NA,NA,NA,NA,0,#3386FF,#D89F1C,10,0,1,40,0,1462,39,0,597,0,0,experiment,NA,NA,0,0.9,0.1,0,1,10,1,NA
fcp-trial,44,321768,0.0-19.0-0.0,voc_e2,12129,"[{""event"":""fullscreenenter"",""trial"":1,""time"":2650}]",NA,NA,NA,NA,NA,6,#741CD8,#D8271C,0,0,1,40,0,1091,39,0,547,0,0,experiment,NA,NA,2,0.5,0.5,4,5,11,1,NA
fcp-trial,45,326308,0.0-20.0-0.0,voc_e2,12129,"[{""event"":""fullscreenenter"",""trial"":1,""time"":2650}]",NA,NA,NA,NA,NA,4,#FA92F8,#1CD855,10,0,1,40,0,1541,37,1,1488,10,1,experiment,NA,NA,1,0.7,0.3,2,3,12,1,NA
fcp-trial,46,329268,0.0-21.0-0.0,voc_e2,12129,"[{""event"":""fullscreenenter"",""trial"":1,""time"":2650}]",NA,NA,NA,NA,NA,2,#3386FF,#D89F1C,0,0,1,40,0,580.0000000000582,37,1,871,0,1,experiment,NA,NA,0,0.9,0.1,0,1,13,1,NA
fcp-trial,47,332184,0.0-22.0-0.0,voc_e2,12129,"[{""event"":""fullscreenenter"",""trial"":1,""time"":2650}]",NA,NA,NA,NA,NA,6,#1CD855,#FA92F8,10,10,0,40,0,599,37,1,806,10,0,experiment,NA,NA,1,0.3,0.7,3,2,14,1,NA
fcp-trial,48,335184,0.0-23.0-0.0,voc_e2,12129,"[{""event"":""fullscreenenter"",""trial"":1,""time"":2650}]",NA,NA,NA,NA,NA,6,#D89F1C,#3386FF,0,10,0,40,0,842,37,1,649,0,0,experiment,NA,NA,0,0.1,0.9,1,0,15,1,NA
fcp-trial,49,337952,0.0-24.0-0.0,voc_e2,12129,"[{""event"":""fullscreenenter"",""trial"":1,""time"":2650}]",NA,NA,NA,NA,NA,5,#D8271C,#741CD8,0,10,0,40,0,478.0000000000582,39,0,781,10,1,experiment,NA,NA,2,0.5,0.5,5,4,16,1,NA
fcp-trial,50,342503,0.0-25.0-0.0,voc_e2,12129,"[{""event"":""fullscreenenter"",""trial"":1,""time"":2650}]",NA,NA,NA,NA,NA,0,#FA92F8,#1CD855,0,10,1,38,1,2525.999999999942,37,1,516,0,1,experiment,NA,NA,1,0.7,0.3,2,3,17,1,NA
fcp-trial,51,345868,0.0-26.0-0.0,voc_e2,12129,"[{""event"":""fullscreenenter"",""trial"":1,""time"":2650}]",NA,NA,NA,NA,NA,2,#D8271C,#741CD8,10,0,0,40,0,1226.9999999999418,37,1,627,10,0,experiment,NA,NA,2,0.5,0.5,5,4,18,1,NA
fcp-trial,52,350250,0.0-27.0-0.0,voc_e2,12129,"[{""event"":""fullscreenenter"",""trial"":1,""time"":2650}]",NA,NA,NA,NA,NA,0,#741CD8,#D8271C,0,0,1,38,1,2190,37,1,682,0,1,experiment,NA,NA,2,0.5,0.5,4,5,19,1,NA
fcp-trial,53,353518,0.0-28.0-0.0,voc_e2,12129,"[{""event"":""fullscreenenter"",""trial"":1,""time"":2650}]",NA,NA,NA,NA,NA,3,#3386FF,#D89F1C,10,10,1,40,0,1311.9999999999418,39,0,447,10,0,experiment,NA,NA,0,0.9,0.1,0,1,20,1,NA
fcp-trial,54,356735,0.0-29.0-0.0,voc_e2,12129,"[{""event"":""fullscreenenter"",""trial"":1,""time"":2650}]",NA,NA,NA,NA,NA,4,#D89F1C,#3386FF,0,10,0,40,0,1228,37,1,478,0,0,experiment,NA,NA,0,0.1,0.9,1,0,21,1,NA
fcp-trial,55,360587,0.0-30.0-0.0,voc_e2,12129,"[{""event"":""fullscreenenter"",""trial"":1,""time"":2650}]",NA,NA,NA,NA,NA,0,#D8271C,#741CD8,10,10,0,38,1,1832,39,0,508,10,1,experiment,NA,NA,2,0.5,0.5,5,4,22,1,NA
fcp-trial,56,363884,0.0-31.0-0.0,voc_e2,12129,"[{""event"":""fullscreenenter"",""trial"":1,""time"":2650}]",NA,NA,NA,NA,NA,2,#741CD8,#D8271C,0,0,1,40,0,1247.9999999999418,37,1,538,0,1,experiment,NA,NA,2,0.5,0.5,4,5,23,1,NA
fcp-trial,57,367636,0.0-32.0-0.0,voc_e2,12129,"[{""event"":""fullscreenenter"",""trial"":1,""time"":2650}]",NA,NA,NA,NA,NA,0,#FA92F8,#1CD855,10,0,1,38,1,1779,37,1,462.9999999999418,10,1,experiment,NA,NA,1,0.7,0.3,2,3,24,1,NA
fcp-trial,58,370841,0.0-33.0-0.0,voc_e2,12129,"[{""event"":""fullscreenenter"",""trial"":1,""time"":2650}]",NA,NA,NA,NA,NA,4,#D89F1C,#3386FF,0,10,0,40,0,1290.0000000000582,39,0,405.9999999999418,10,1,experiment,NA,NA,0,0.1,0.9,1,0,25,1,NA
fcp-trial,59,374169,0.0-34.0-0.0,voc_e2,12129,"[{""event"":""fullscreenenter"",""trial"":1,""time"":2650}]",NA,NA,NA,NA,NA,6,#FA92F8,#1CD855,10,10,1,40,0,1335.0000000000582,39,0,483,10,0,experiment,NA,NA,1,0.7,0.3,2,3,26,1,NA
fcp-trial,60,377485,0.0-35.0-0.0,voc_e2,12129,"[{""event"":""fullscreenenter"",""trial"":1,""time"":2650}]",NA,NA,NA,NA,NA,6,#D8271C,#741CD8,10,0,0,40,0,1240.0000000000582,39,0,566.9999999999418,0,1,experiment,NA,NA,2,0.5,0.5,5,4,27,1,NA
fcp-trial,61,382278,0.0-36.0-0.0,voc_e2,12129,"[{""event"":""fullscreenenter"",""trial"":1,""time"":2650}]",NA,NA,NA,NA,NA,2,#FA92F8,#1CD855,10,0,1,40,0,2715.000000000058,37,1,568,10,1,experiment,NA,NA,1,0.7,0.3,2,3,28,1,NA
fcp-trial,62,385201,0.0-37.0-0.0,voc_e2,12129,"[{""event"":""fullscreenenter"",""trial"":1,""time"":2650}]",NA,NA,NA,NA,NA,4,#FA92F8,#1CD855,10,0,1,40,0,846,39,0,557.9999999999418,0,0,experiment,NA,NA,1,0.7,0.3,2,3,29,1,NA
fcp-trial,63,388558,0.0-38.0-0.0,voc_e2,12129,"[{""event"":""fullscreenenter"",""trial"":1,""time"":2650}]",NA,NA,NA,NA,NA,1,#D89F1C,#3386FF,0,10,0,40,0,1382,39,0,465,10,1,experiment,NA,NA,0,0.1,0.9,1,0,30,1,NA
fcp-trial,64,391704,0.0-39.0-0.0,voc_e2,12129,"[{""event"":""fullscreenenter"",""trial"":1,""time"":2650}]",NA,NA,NA,NA,NA,5,#741CD8,#D8271C,0,0,1,40,0,1135,37,1,500,0,1,experiment,NA,NA,2,0.5,0.5,4,5,31,1,NA
fcp-trial,65,394817,0.0-40.0-0.0,voc_e2,12129,"[{""event"":""fullscreenenter"",""trial"":1,""time"":2650}]",NA,NA,NA,NA,NA,1,#1CD855,#FA92F8,0,10,0,40,0,1209.0000000000582,39,0,394,10,1,experiment,NA,NA,1,0.3,0.7,3,2,32,1,NA
fcp-trial,66,398526,0.0-41.0-0.0,voc_e2,12129,"[{""event"":""fullscreenenter"",""trial"":1,""time"":2650}]",NA,NA,NA,NA,NA,3,#D8271C,#741CD8,10,10,0,40,0,1359.0000000000582,37,1,840,10,0,experiment,NA,NA,2,0.5,0.5,5,4,33,1,NA
fcp-trial,67,402486,0.0-42.0-0.0,voc_e2,12129,"[{""event"":""fullscreenenter"",""trial"":1,""time"":2650}]",NA,NA,NA,NA,NA,3,#3386FF,#D89F1C,10,0,1,40,0,1827,37,1,611,10,1,experiment,NA,NA,0,0.9,0.1,0,1,34,1,NA
fcp-trial,68,405875,0.0-43.0-0.0,voc_e2,12129,"[{""event"":""fullscreenenter"",""trial"":1,""time"":2650}]",NA,NA,NA,NA,NA,1,#741CD8,#D8271C,0,10,1,40,0,1363,39,0,513,10,0,experiment,NA,NA,2,0.5,0.5,4,5,35,1,NA
fcp-trial,69,408812,0.0-44.0-0.0,voc_e2,12129,"[{""event"":""fullscreenenter"",""trial"":1,""time"":2650}]",NA,NA,NA,NA,NA,5,#1CD855,#FA92F8,10,10,0,40,0,851,37,1,565,10,0,experiment,NA,NA,1,0.3,0.7,3,2,36,1,NA
fcp-trial,70,412902,0.0-45.0-0.0,voc_e2,12129,"[{""event"":""fullscreenenter"",""trial"":1,""time"":2650}]",NA,NA,NA,NA,NA,2,#3386FF,#D89F1C,10,0,1,40,0,1995.9999999999418,37,1,572,10,1,experiment,NA,NA,0,0.9,0.1,0,1,37,1,NA
fcp-trial,71,416129,0.0-46.0-0.0,voc_e2,12129,"[{""event"":""fullscreenenter"",""trial"":1,""time"":2650}]",NA,NA,NA,NA,NA,4,#D8271C,#741CD8,10,10,0,40,0,1310,39,0,407,10,1,experiment,NA,NA,2,0.5,0.5,5,4,38,1,NA
fcp-trial,72,419707,0.0-47.0-0.0,voc_e2,12129,"[{""event"":""fullscreenenter"",""trial"":1,""time"":2650}]",NA,NA,NA,NA,NA,6,#D89F1C,#3386FF,0,10,0,40,0,1551,37,1,504,0,0,experiment,NA,NA,0,0.1,0.9,1,0,39,1,NA
fcp-trial,73,422450,0.0-48.0-0.0,voc_e2,12129,"[{""event"":""fullscreenenter"",""trial"":1,""time"":2650}]",NA,NA,NA,NA,NA,3,#FA92F8,#1CD855,0,0,1,40,0,820,37,1,413,0,1,experiment,NA,NA,1,0.7,0.3,2,3,40,1,NA
fcp-trial,74,425340,0.0-49.0-0.0,voc_e2,12129,"[{""event"":""fullscreenenter"",""trial"":1,""time"":2650}]",NA,NA,NA,NA,NA,5,#D89F1C,#3386FF,0,10,0,40,0,841,37,1,538.0000000000582,0,0,experiment,NA,NA,0,0.1,0.9,1,0,41,1,NA
fcp-trial,75,428617,0.0-50.0-0.0,voc_e2,12129,"[{""event"":""fullscreenenter"",""trial"":1,""time"":2650}]",NA,NA,NA,NA,NA,0,#3386FF,#D89F1C,10,10,1,38,1,1421,37,1,347.0000000000582,10,1,experiment,NA,NA,0,0.9,0.1,0,1,42,1,NA
fcp-trial,76,432235,0.0-51.0-0.0,voc_e2,12129,"[{""event"":""fullscreenenter"",""trial"":1,""time"":2650}]",NA,NA,NA,NA,NA,4,#741CD8,#D8271C,0,10,1,40,0,1627,39,0,482,10,0,experiment,NA,NA,2,0.5,0.5,4,5,43,1,NA
fcp-trial,77,435551,0.0-52.0-0.0,voc_e2,12129,"[{""event"":""fullscreenenter"",""trial"":1,""time"":2650}]",NA,NA,NA,NA,NA,0,#1CD855,#FA92F8,10,10,0,38,1,1403,39,0,399,10,1,experiment,NA,NA,1,0.3,0.7,3,2,44,1,NA
fcp-trial,78,438510,0.0-53.0-0.0,voc_e2,12129,"[{""event"":""fullscreenenter"",""trial"":1,""time"":2650}]",NA,NA,NA,NA,NA,3,#D89F1C,#3386FF,10,10,0,40,0,1018.0000000000582,37,1,431,10,0,experiment,NA,NA,0,0.1,0.9,1,0,45,1,NA
fcp-trial,79,441701,0.0-54.0-0.0,voc_e2,12129,"[{""event"":""fullscreenenter"",""trial"":1,""time"":2650}]",NA,NA,NA,NA,NA,6,#D8271C,#741CD8,10,0,0,40,0,1310.9999999999418,39,0,360,0,1,experiment,NA,NA,2,0.5,0.5,5,4,46,2,NA
fcp-trial,80,445268,0.0-55.0-0.0,voc_e2,12129,"[{""event"":""fullscreenenter"",""trial"":1,""time"":2650}]",NA,NA,NA,NA,NA,0,#D89F1C,#3386FF,0,10,0,38,1,1375,39,0,682,10,1,experiment,NA,NA,0,0.1,0.9,1,0,47,2,NA
fcp-trial,81,448085,0.0-56.0-0.0,voc_e2,12129,"[{""event"":""fullscreenenter"",""trial"":1,""time"":2650}]",NA,NA,NA,NA,NA,2,#1CD855,#FA92F8,10,10,0,40,0,928.9999999999418,39,0,375,10,1,experiment,NA,NA,1,0.3,0.7,3,2,48,2,NA
fcp-trial,82,453977,0.0-57.0-0.0,voc_e2,12129,"[{""event"":""fullscreenenter"",""trial"":1,""time"":2650}]",NA,NA,NA,NA,NA,4,#D89F1C,#3386FF,0,10,0,40,0,3974.999999999942,37,1,406,0,0,experiment,NA,NA,0,0.1,0.9,1,0,49,2,NA
fcp-trial,83,456894,0.0-58.0-0.0,voc_e2,12129,"[{""event"":""fullscreenenter"",""trial"":1,""time"":2650}]",NA,NA,NA,NA,NA,6,#1CD855,#FA92F8,0,10,0,40,0,838,37,1,556,0,0,experiment,NA,NA,1,0.3,0.7,3,2,50,2,NA
fcp-trial,84,459683,0.0-59.0-0.0,voc_e2,12129,"[{""event"":""fullscreenenter"",""trial"":1,""time"":2650}]",NA,NA,NA,NA,NA,5,#D8271C,#741CD8,0,10,0,40,0,758.0000000000582,37,1,513.9999999999418,0,0,experiment,NA,NA,2,0.5,0.5,5,4,51,2,NA
fcp-trial,85,462668,0.0-60.0-0.0,voc_e2,12129,"[{""event"":""fullscreenenter"",""trial"":1,""time"":2650}]",NA,NA,NA,NA,NA,5,#FA92F8,#1CD855,0,0,1,40,0,1048,37,1,428,0,1,experiment,NA,NA,1,0.7,0.3,2,3,52,2,NA
fcp-trial,86,465302,0.0-61.0-0.0,voc_e2,12129,"[{""event"":""fullscreenenter"",""trial"":1,""time"":2650}]",NA,NA,NA,NA,NA,1,#741CD8,#D8271C,0,0,1,40,0,575,37,1,549.0000000000582,0,1,experiment,NA,NA,2,0.5,0.5,4,5,53,2,NA
fcp-trial,87,468858,0.0-62.0-0.0,voc_e2,12129,"[{""event"":""fullscreenenter"",""trial"":1,""time"":2650}]",NA,NA,NA,NA,NA,6,#3386FF,#D89F1C,10,0,1,40,0,1565,39,0,479,0,0,experiment,NA,NA,0,0.9,0.1,0,1,54,2,NA
fcp-trial,88,472450,0.0-63.0-0.0,voc_e2,12129,"[{""event"":""fullscreenenter"",""trial"":1,""time"":2650}]",NA,NA,NA,NA,NA,4,#FA92F8,#1CD855,10,0,1,40,0,1656.9999999999418,37,1,414.0000000000582,10,1,experiment,NA,NA,1,0.7,0.3,2,3,55,2,NA
fcp-trial,89,475328,0.0-64.0-0.0,voc_e2,12129,"[{""event"":""fullscreenenter"",""trial"":1,""time"":2650}]",NA,NA,NA,NA,NA,3,#FA92F8,#1CD855,10,10,1,40,0,777,39,0,593,10,0,experiment,NA,NA,1,0.7,0.3,2,3,56,2,NA
fcp-trial,90,478490,0.0-65.0-0.0,voc_e2,12129,"[{""event"":""fullscreenenter"",""trial"":1,""time"":2650}]",NA,NA,NA,NA,NA,3,#741CD8,#D8271C,0,10,1,40,0,847,37,1,793,0,1,experiment,NA,NA,2,0.5,0.5,4,5,57,2,NA
fcp-trial,91,481577,0.0-66.0-0.0,voc_e2,12129,"[{""event"":""fullscreenenter"",""trial"":1,""time"":2650}]",NA,NA,NA,NA,NA,0,#741CD8,#D8271C,0,10,1,38,1,1173,39,0,390.0000000000582,10,0,experiment,NA,NA,2,0.5,0.5,4,5,58,2,NA
fcp-trial,92,485026,0.0-67.0-0.0,voc_e2,12129,"[{""event"":""fullscreenenter"",""trial"":1,""time"":2650}]",NA,NA,NA,NA,NA,1,#3386FF,#D89F1C,10,0,1,40,0,1407,37,1,523,10,1,experiment,NA,NA,0,0.9,0.1,0,1,59,2,NA
fcp-trial,93,487851,0.0-68.0-0.0,voc_e2,12129,"[{""event"":""fullscreenenter"",""trial"":1,""time"":2650}]",NA,NA,NA,NA,NA,1,#FA92F8,#1CD855,10,0,1,40,0,873,39,0,433,0,0,experiment,NA,NA,1,0.7,0.3,2,3,60,2,NA
fcp-trial,94,490718,0.0-69.0-0.0,voc_e2,12129,"[{""event"":""fullscreenenter"",""trial"":1,""time"":2650}]",NA,NA,NA,NA,NA,5,#3386FF,#D89F1C,10,0,1,40,0,958.0000000000582,39,0,399.9999999999418,0,0,experiment,NA,NA,0,0.9,0.1,0,1,61,2,NA
fcp-trial,95,493917,0.0-70.0-0.0,voc_e2,12129,"[{""event"":""fullscreenenter"",""trial"":1,""time"":2650}]",NA,NA,NA,NA,NA,2,#741CD8,#D8271C,0,10,1,40,0,1325,37,1,364,0,1,experiment,NA,NA,2,0.5,0.5,4,5,62,2,NA
fcp-trial,96,496871,0.0-71.0-0.0,voc_e2,12129,"[{""event"":""fullscreenenter"",""trial"":1,""time"":2650}]",NA,NA,NA,NA,NA,2,#3386FF,#D89F1C,10,0,1,40,0,1010,39,0,435,0,0,experiment,NA,NA,0,0.9,0.1,0,1,63,2,NA
fcp-trial,97,499912,0.0-72.0-0.0,voc_e2,12129,"[{""event"":""fullscreenenter"",""trial"":1,""time"":2650}]",NA,NA,NA,NA,NA,4,#3386FF,#D89F1C,10,0,1,40,0,1089,39,0,442,0,0,experiment,NA,NA,0,0.9,0.1,0,1,64,2,NA
fcp-trial,98,503919,0.0-73.0-0.0,voc_e2,12129,"[{""event"":""fullscreenenter"",""trial"":1,""time"":2650}]",NA,NA,NA,NA,NA,6,#D89F1C,#3386FF,0,10,0,40,0,1914.0000000000582,37,1,583,0,0,experiment,NA,NA,0,0.1,0.9,1,0,65,2,NA
fcp-trial,99,506718,0.0-74.0-0.0,voc_e2,12129,"[{""event"":""fullscreenenter"",""trial"":1,""time"":2650}]",NA,NA,NA,NA,NA,1,#1CD855,#FA92F8,0,0,0,40,0,947,39,0,341,0,1,experiment,NA,NA,1,0.3,0.7,3,2,66,2,NA
fcp-trial,100,510717,0.0-75.0-0.0,voc_e2,12129,"[{""event"":""fullscreenenter"",""trial"":1,""time"":2650}]",NA,NA,NA,NA,NA,1,#3386FF,#D89F1C,10,0,1,38,1,2058,37,1,428.9999999999418,10,1,experiment,NA,NA,0,0.9,0.1,0,1,67,2,NA
fcp-trial,101,517117,0.0-76.0-0.0,voc_e2,12129,"[{""event"":""fullscreenenter"",""trial"":1,""time"":2650}]",NA,NA,NA,NA,NA,2,#1CD855,#FA92F8,10,0,0,40,0,4310.999999999942,37,1,582,10,0,experiment,NA,NA,1,0.3,0.7,3,2,68,2,NA
fcp-trial,102,520533,0.0-77.0-0.0,voc_e2,12129,"[{""event"":""fullscreenenter"",""trial"":1,""time"":2650}]",NA,NA,NA,NA,NA,4,#D8271C,#741CD8,10,0,0,40,0,1409,37,1,499,10,0,experiment,NA,NA,2,0.5,0.5,5,4,69,2,NA
fcp-trial,103,523660,0.0-78.0-0.0,voc_e2,12129,"[{""event"":""fullscreenenter"",""trial"":1,""time"":2650}]",NA,NA,NA,NA,NA,5,#1CD855,#FA92F8,0,0,0,40,0,1259,39,0,358,0,1,experiment,NA,NA,1,0.3,0.7,3,2,70,2,NA
fcp-trial,104,526484,0.0-79.0-0.0,voc_e2,12129,"[{""event"":""fullscreenenter"",""trial"":1,""time"":2650}]",NA,NA,NA,NA,NA,4,#1CD855,#FA92F8,0,10,0,40,0,800.0000000001164,37,1,504.0000000001164,0,0,experiment,NA,NA,1,0.3,0.7,3,2,71,2,NA
fcp-trial,105,529957,0.0-80.0-0.0,voc_e2,12129,"[{""event"":""fullscreenenter"",""trial"":1,""time"":2650}]",NA,NA,NA,NA,NA,2,#D89F1C,#3386FF,0,0,0,38,1,1608,39,0,355,0,1,experiment,NA,NA,0,0.1,0.9,1,0,72,2,NA
fcp-trial,106,532800,0.0-81.0-0.0,voc_e2,12129,"[{""event"":""fullscreenenter"",""trial"":1,""time"":2650}]",NA,NA,NA,NA,NA,2,#D8271C,#741CD8,0,0,0,40,0,918,37,1,415,0,0,experiment,NA,NA,2,0.5,0.5,5,4,73,2,NA
fcp-trial,107,535784,0.0-82.0-0.0,voc_e2,12129,"[{""event"":""fullscreenenter"",""trial"":1,""time"":2650}]",NA,NA,NA,NA,NA,3,#D8271C,#741CD8,10,0,0,40,0,1101,37,1,372.9999999998836,10,0,experiment,NA,NA,2,0.5,0.5,5,4,74,2,NA
fcp-trial,108,538453,0.0-83.0-0.0,voc_e2,12129,"[{""event"":""fullscreenenter"",""trial"":1,""time"":2650}]",NA,NA,NA,NA,NA,6,#FA92F8,#1CD855,10,0,1,40,0,726,39,0,432,0,0,experiment,NA,NA,1,0.7,0.3,2,3,75,2,NA
fcp-trial,109,542300,0.0-84.0-0.0,voc_e2,12129,"[{""event"":""fullscreenenter"",""trial"":1,""time"":2650}]",NA,NA,NA,NA,NA,0,#FA92F8,#1CD855,0,0,1,38,1,2008,37,1,332,0,1,experiment,NA,NA,1,0.7,0.3,2,3,76,2,NA
fcp-trial,110,545467,0.0-85.0-0.0,voc_e2,12129,"[{""event"":""fullscreenenter"",""trial"":1,""time"":2650}]",NA,NA,NA,NA,NA,0,#3386FF,#D89F1C,10,0,1,38,1,1209,37,1,449,10,1,experiment,NA,NA,0,0.9,0.1,0,1,77,2,NA
fcp-trial,111,548258,0.0-86.0-0.0,voc_e2,12129,"[{""event"":""fullscreenenter"",""trial"":1,""time"":2650}]",NA,NA,NA,NA,NA,3,#3386FF,#D89F1C,10,10,1,40,0,913,37,1,369,10,1,experiment,NA,NA,0,0.9,0.1,0,1,78,2,NA
fcp-trial,112,551895,0.0-87.0-0.0,voc_e2,12129,"[{""event"":""fullscreenenter"",""trial"":1,""time"":2650}]",NA,NA,NA,NA,NA,6,#741CD8,#D8271C,10,0,1,40,0,1075,37,1,1042,10,1,experiment,NA,NA,2,0.5,0.5,4,5,79,2,NA
fcp-trial,113,555638,0.0-88.0-0.0,voc_e2,12129,"[{""event"":""fullscreenenter"",""trial"":1,""time"":2650}]",NA,NA,NA,NA,NA,3,#1CD855,#FA92F8,0,10,0,40,0,1853,39,0,365,10,1,experiment,NA,NA,1,0.3,0.7,3,2,80,2,NA
fcp-trial,114,567468,0.0-89.0-0.0,voc_e2,12129,"[{""event"":""fullscreenenter"",""trial"":1,""time"":2650}]",NA,NA,NA,NA,NA,5,#D89F1C,#3386FF,0,10,0,40,0,9706.000000000116,39,0,615,10,1,experiment,NA,NA,0,0.1,0.9,1,0,81,2,NA
fcp-trial,115,571833,0.0-90.0-0.0,voc_e2,12129,"[{""event"":""fullscreenenter"",""trial"":1,""time"":2650}]",NA,NA,NA,NA,NA,0,#D8271C,#741CD8,0,0,0,38,1,1966.9999999998836,39,0,887.0000000001164,0,1,experiment,NA,NA,2,0.5,0.5,5,4,82,2,NA
fcp-trial,116,575134,0.0-91.0-0.0,voc_e2,12129,"[{""event"":""fullscreenenter"",""trial"":1,""time"":2650}]",NA,NA,NA,NA,NA,5,#741CD8,#D8271C,0,0,1,40,0,1400,37,1,391,0,1,experiment,NA,NA,2,0.5,0.5,4,5,83,2,NA
fcp-trial,117,590143,0.0-92.0-0.0,voc_e2,12129,"[{""event"":""fullscreenenter"",""trial"":1,""time"":2650}]",NA,NA,NA,NA,NA,1,#D8271C,#741CD8,0,10,0,null,null,null,null,null,null,NA,0,experiment,NA,NA,2,0.5,0.5,5,4,84,2,NA
fcp-trial,118,593349,0.0-93.0-0.0,voc_e2,12129,"[{""event"":""fullscreenenter"",""trial"":1,""time"":2650}]",NA,NA,NA,NA,NA,6,#FA92F8,#1CD855,0,0,1,38,1,100,37,1,1596,0,1,experiment,NA,NA,1,0.7,0.3,2,3,85,2,NA
fcp-trial,119,596572,0.0-94.0-0.0,voc_e2,12129,"[{""event"":""fullscreenenter"",""trial"":1,""time"":2650}]",NA,NA,NA,NA,NA,0,#3386FF,#D89F1C,10,0,1,38,1,1104,39,0,608,0,0,experiment,NA,NA,0,0.9,0.1,0,1,86,2,NA
fcp-trial,120,599803,0.0-95.0-0.0,voc_e2,12129,"[{""event"":""fullscreenenter"",""trial"":1,""time"":2650}]",NA,NA,NA,NA,NA,3,#741CD8,#D8271C,10,10,1,40,0,1069,37,1,651,10,1,experiment,NA,NA,2,0.5,0.5,4,5,87,2,NA
fcp-trial,121,602957,0.0-96.0-0.0,voc_e2,12129,"[{""event"":""fullscreenenter"",""trial"":1,""time"":2650}]",NA,NA,NA,NA,NA,2,#FA92F8,#1CD855,0,0,1,40,0,956,37,1,688,0,1,experiment,NA,NA,1,0.7,0.3,2,3,88,2,NA
fcp-trial,122,606502,0.0-97.0-0.0,voc_e2,12129,"[{""event"":""fullscreenenter"",""trial"":1,""time"":2650}]",NA,NA,NA,NA,NA,3,#1CD855,#FA92F8,10,10,0,40,0,1418,39,0,615,10,1,experiment,NA,NA,1,0.3,0.7,3,2,89,2,NA
fcp-trial,123,609301,0.0-98.0-0.0,voc_e2,12129,"[{""event"":""fullscreenenter"",""trial"":1,""time"":2650}]",NA,NA,NA,NA,NA,3,#3386FF,#D89F1C,10,0,1,40,0,790,39,0,499,0,0,experiment,NA,NA,0,0.9,0.1,0,1,90,2,NA
fcp-trial,124,611955,0.0-99.0-0.0,voc_e2,12129,"[{""event"":""fullscreenenter"",""trial"":1,""time"":2650}]",NA,NA,NA,NA,NA,2,#D89F1C,#3386FF,0,10,0,40,0,785,39,0,358,10,1,experiment,NA,NA,0,0.1,0.9,1,0,91,3,NA
fcp-trial,125,615092,0.0-100.0-0.0,voc_e2,12129,"[{""event"":""fullscreenenter"",""trial"":1,""time"":2650}]",NA,NA,NA,NA,NA,0,#741CD8,#D8271C,0,10,1,38,1,888,37,1,739,0,1,experiment,NA,NA,2,0.5,0.5,4,5,92,3,NA
fcp-trial,126,618185,0.0-101.0-0.0,voc_e2,12129,"[{""event"":""fullscreenenter"",""trial"":1,""time"":2650}]",NA,NA,NA,NA,NA,2,#741CD8,#D8271C,0,10,1,38,1,1057,39,0,518,10,0,experiment,NA,NA,2,0.5,0.5,4,5,93,3,NA
fcp-trial,127,621541,0.0-102.0-0.0,voc_e2,12129,"[{""event"":""fullscreenenter"",""trial"":1,""time"":2650}]",NA,NA,NA,NA,NA,4,#1CD855,#FA92F8,10,10,0,40,0,1232,37,1,611.9999999998836,10,0,experiment,NA,NA,1,0.3,0.7,3,2,94,3,NA
fcp-trial,128,624684,0.0-103.0-0.0,voc_e2,12129,"[{""event"":""fullscreenenter"",""trial"":1,""time"":2650}]",NA,NA,NA,NA,NA,5,#741CD8,#D8271C,0,0,1,40,0,1190,39,0,433,0,0,experiment,NA,NA,2,0.5,0.5,4,5,95,3,NA
fcp-trial,129,628067,0.0-104.0-0.0,voc_e2,12129,"[{""event"":""fullscreenenter"",""trial"":1,""time"":2650}]",NA,NA,NA,NA,NA,1,#3386FF,#D89F1C,0,0,1,40,0,1334.0000000001164,39,0,538,0,0,experiment,NA,NA,0,0.9,0.1,0,1,96,3,NA
fcp-trial,130,630695,0.0-105.0-0.0,voc_e2,12129,"[{""event"":""fullscreenenter"",""trial"":1,""time"":2650}]",NA,NA,NA,NA,NA,1,#D8271C,#741CD8,10,10,0,40,0,627,39,0,492,10,1,experiment,NA,NA,2,0.5,0.5,5,4,97,3,NA
fcp-trial,131,633617,0.0-106.0-0.0,voc_e2,12129,"[{""event"":""fullscreenenter"",""trial"":1,""time"":2650}]",NA,NA,NA,NA,NA,6,#3386FF,#D89F1C,10,0,1,40,0,888,37,1,516,10,1,experiment,NA,NA,0,0.9,0.1,0,1,98,3,NA
fcp-trial,132,636550,0.0-107.0-0.0,voc_e2,12129,"[{""event"":""fullscreenenter"",""trial"":1,""time"":2650}]",NA,NA,NA,NA,NA,0,#FA92F8,#1CD855,10,0,1,38,1,944,37,1,482,10,1,experiment,NA,NA,1,0.7,0.3,2,3,99,3,NA
fcp-trial,133,640407,0.0-108.0-0.0,voc_e2,12129,"[{""event"":""fullscreenenter"",""trial"":1,""time"":2650}]",NA,NA,NA,NA,NA,5,#D89F1C,#3386FF,0,10,0,40,0,916,37,1,1431,0,0,experiment,NA,NA,0,0.1,0.9,1,0,100,3,NA
fcp-trial,134,643448,0.0-109.0-0.0,voc_e2,12129,"[{""event"":""fullscreenenter"",""trial"":1,""time"":2650}]",NA,NA,NA,NA,NA,6,#D8271C,#741CD8,0,10,0,40,0,911,37,1,619,0,0,experiment,NA,NA,2,0.5,0.5,5,4,101,3,NA
fcp-trial,135,646567,0.0-110.0-0.0,voc_e2,12129,"[{""event"":""fullscreenenter"",""trial"":1,""time"":2650}]",NA,NA,NA,NA,NA,4,#3386FF,#D89F1C,10,0,1,40,0,1152.9999999998836,39,0,457,0,0,experiment,NA,NA,0,0.9,0.1,0,1,102,3,NA
fcp-trial,136,650186,0.0-111.0-0.0,voc_e2,12129,"[{""event"":""fullscreenenter"",""trial"":1,""time"":2650}]",NA,NA,NA,NA,NA,5,#FA92F8,#1CD855,10,0,1,40,0,1492,37,1,617,10,1,experiment,NA,NA,1,0.7,0.3,2,3,103,3,NA
fcp-trial,137,653551,0.0-112.0-0.0,voc_e2,12129,"[{""event"":""fullscreenenter"",""trial"":1,""time"":2650}]",NA,NA,NA,NA,NA,1,#FA92F8,#1CD855,0,0,1,38,1,1255.9999999998836,37,1,599.0000000001164,0,1,experiment,NA,NA,1,0.7,0.3,2,3,104,3,NA
fcp-trial,138,656927,0.0-113.0-0.0,voc_e2,12129,"[{""event"":""fullscreenenter"",""trial"":1,""time"":2650}]",NA,NA,NA,NA,NA,4,#D8271C,#741CD8,10,10,0,38,1,1540,37,1,324.0000000001164,10,0,experiment,NA,NA,2,0.5,0.5,5,4,105,3,NA
audio-instructions,139,662915,0.0-114.0,voc_e2,12129,"[{""event"":""fullscreenenter"",""trial"":1,""time"":2650}]",NA,1547,static/audio/pause.wav,NA,0,NA,NA,NA,NA,NA,NA,NA,NA,NA,NA,NA,NA,NA,NA,NA,NA,NA,NA,NA,NA,NA,NA,NA,NA,NA
fcp-trial,140,666767,0.0-115.0-0.0,voc_e2,12129,"[{""event"":""fullscreenenter"",""trial"":1,""time"":2650}]",NA,NA,NA,NA,NA,5,#3386FF,#D89F1C,0,0,1,40,0,1365,39,0,974,0,0,experiment,NA,NA,0,0.9,0.1,0,1,106,3,NA
fcp-trial,141,669417,0.0-116.0-0.0,voc_e2,12129,"[{""event"":""fullscreenenter"",""trial"":1,""time"":2650}]",NA,NA,NA,NA,NA,2,#741CD8,#D8271C,0,0,1,40,0,684,39,0,457,0,0,experiment,NA,NA,2,0.5,0.5,4,5,107,3,NA
fcp-trial,142,671984,0.0-117.0-0.0,voc_e2,12129,"[{""event"":""fullscreenenter"",""trial"":1,""time"":2650}]",NA,NA,NA,NA,NA,2,#FA92F8,#1CD855,10,0,1,40,0,658,37,1,399,10,1,experiment,NA,NA,1,0.7,0.3,2,3,108,3,NA
fcp-trial,143,674653,0.0-118.0-0.0,voc_e2,12129,"[{""event"":""fullscreenenter"",""trial"":1,""time"":2650}]",NA,NA,NA,NA,NA,4,#D89F1C,#3386FF,0,10,0,38,1,866,39,0,292,10,1,experiment,NA,NA,0,0.1,0.9,1,0,109,3,NA
fcp-trial,144,677675,0.0-119.0-0.0,voc_e2,12129,"[{""event"":""fullscreenenter"",""trial"":1,""time"":2650}]",NA,NA,NA,NA,NA,6,#FA92F8,#1CD855,10,10,1,40,0,1110.0000000001164,37,1,402.9999999998836,10,1,experiment,NA,NA,1,0.7,0.3,2,3,110,3,NA
fcp-trial,145,680675,0.0-120.0-0.0,voc_e2,12129,"[{""event"":""fullscreenenter"",""trial"":1,""time"":2650}]",NA,NA,NA,NA,NA,1,#D8271C,#741CD8,10,0,0,40,0,1040,37,1,439,10,0,experiment,NA,NA,2,0.5,0.5,5,4,111,3,NA
fcp-trial,146,683333,0.0-121.0-0.0,voc_e2,12129,"[{""event"":""fullscreenenter"",""trial"":1,""time"":2650}]",NA,NA,NA,NA,NA,1,#1CD855,#FA92F8,10,10,0,40,0,842.9999999998836,39,0,293,10,1,experiment,NA,NA,1,0.3,0.7,3,2,112,3,NA
fcp-trial,147,685988,0.0-122.0-0.0,voc_e2,12129,"[{""event"":""fullscreenenter"",""trial"":1,""time"":2650}]",NA,NA,NA,NA,NA,6,#D89F1C,#3386FF,0,10,0,40,0,776.9999999998836,39,0,367,10,1,experiment,NA,NA,0,0.1,0.9,1,0,113,3,NA
fcp-trial,148,688576,0.0-123.0-0.0,voc_e2,12129,"[{""event"":""fullscreenenter"",""trial"":1,""time"":2650}]",NA,NA,NA,NA,NA,4,#1CD855,#FA92F8,0,10,0,40,0,637,37,1,440,0,0,experiment,NA,NA,1,0.3,0.7,3,2,114,3,NA
fcp-trial,149,692182,0.0-124.0-0.0,voc_e2,12129,"[{""event"":""fullscreenenter"",""trial"":1,""time"":2650}]",NA,NA,NA,NA,NA,5,#D8271C,#741CD8,10,10,0,40,0,1647,37,1,439,10,0,experiment,NA,NA,2,0.5,0.5,5,4,115,3,NA
fcp-trial,150,695317,0.0-125.0-0.0,voc_e2,12129,"[{""event"":""fullscreenenter"",""trial"":1,""time"":2650}]",NA,NA,NA,NA,NA,1,#3386FF,#D89F1C,10,10,1,40,0,1218,39,0,408,10,0,experiment,NA,NA,0,0.9,0.1,0,1,116,3,NA
fcp-trial,151,698017,0.0-126.0-0.0,voc_e2,12129,"[{""event"":""fullscreenenter"",""trial"":1,""time"":2650}]",NA,NA,NA,NA,NA,5,#FA92F8,#1CD855,10,0,1,40,0,857,37,1,334,10,1,experiment,NA,NA,1,0.7,0.3,2,3,117,3,NA
fcp-trial,152,701450,0.0-127.0-0.0,voc_e2,12129,"[{""event"":""fullscreenenter"",""trial"":1,""time"":2650}]",NA,NA,NA,NA,NA,0,#741CD8,#D8271C,10,10,1,38,1,1007.9999999998836,37,1,916,10,1,experiment,NA,NA,2,0.5,0.5,4,5,118,3,NA
fcp-trial,153,704460,0.0-128.0-0.0,voc_e2,12129,"[{""event"":""fullscreenenter"",""trial"":1,""time"":2650}]",NA,NA,NA,NA,NA,0,#D89F1C,#3386FF,0,10,0,38,1,1112,37,1,388,0,0,experiment,NA,NA,0,0.1,0.9,1,0,119,3,NA
fcp-trial,154,707435,0.0-129.0-0.0,voc_e2,12129,"[{""event"":""fullscreenenter"",""trial"":1,""time"":2650}]",NA,NA,NA,NA,NA,3,#1CD855,#FA92F8,0,0,0,40,0,1063,37,1,392,0,0,experiment,NA,NA,1,0.3,0.7,3,2,120,3,NA
fcp-trial,155,710085,0.0-130.0-0.0,voc_e2,12129,"[{""event"":""fullscreenenter"",""trial"":1,""time"":2650}]",NA,NA,NA,NA,NA,3,#D89F1C,#3386FF,0,10,0,40,0,823,39,0,318,10,1,experiment,NA,NA,0,0.1,0.9,1,0,121,3,NA
fcp-trial,156,712700,0.0-131.0-0.0,voc_e2,12129,"[{""event"":""fullscreenenter"",""trial"":1,""time"":2650}]",NA,NA,NA,NA,NA,6,#D8271C,#741CD8,10,0,0,40,0,722,37,1,380.9999999998836,10,0,experiment,NA,NA,2,0.5,0.5,5,4,122,3,NA
fcp-trial,157,715293,0.0-132.0-0.0,voc_e2,12129,"[{""event"":""fullscreenenter"",""trial"":1,""time"":2650}]",NA,NA,NA,NA,NA,3,#741CD8,#D8271C,0,10,1,40,0,693,37,1,391,0,1,experiment,NA,NA,2,0.5,0.5,4,5,123,3,NA
fcp-trial,158,718452,0.0-133.0-0.0,voc_e2,12129,"[{""event"":""fullscreenenter"",""trial"":1,""time"":2650}]",NA,NA,NA,NA,NA,0,#FA92F8,#1CD855,10,10,1,38,1,1071,37,1,566,10,1,experiment,NA,NA,1,0.7,0.3,2,3,124,3,NA
fcp-trial,159,721233,0.0-134.0-0.0,voc_e2,12129,"[{""event"":""fullscreenenter"",""trial"":1,""time"":2650}]",NA,NA,NA,NA,NA,4,#741CD8,#D8271C,0,0,1,40,0,881,37,1,389,0,1,experiment,NA,NA,2,0.5,0.5,4,5,125,3,NA
fcp-trial,160,724106,0.0-135.0-0.0,voc_e2,12129,"[{""event"":""fullscreenenter"",""trial"":1,""time"":2650}]",NA,NA,NA,NA,NA,2,#3386FF,#D89F1C,10,0,1,40,0,1010,37,1,353.9999999998836,10,1,experiment,NA,NA,0,0.9,0.1,0,1,126,3,NA
fcp-trial,161,726650,0.0-136.0-0.0,voc_e2,12129,"[{""event"":""fullscreenenter"",""trial"":1,""time"":2650}]",NA,NA,NA,NA,NA,5,#741CD8,#D8271C,10,0,1,40,0,674.9999999998836,37,1,358.0000000001164,10,1,experiment,NA,NA,2,0.5,0.5,4,5,127,3,NA
fcp-trial,162,729395,0.0-137.0-0.0,voc_e2,12129,"[{""event"":""fullscreenenter"",""trial"":1,""time"":2650}]",NA,NA,NA,NA,NA,0,#D89F1C,#3386FF,10,10,0,38,1,865,39,0,370,10,1,experiment,NA,NA,0,0.1,0.9,1,0,128,3,NA
fcp-trial,163,732237,0.0-138.0-0.0,voc_e2,12129,"[{""event"":""fullscreenenter"",""trial"":1,""time"":2650}]",NA,NA,NA,NA,NA,6,#D89F1C,#3386FF,10,10,0,40,0,921,37,1,402,10,0,experiment,NA,NA,0,0.1,0.9,1,0,129,3,NA
fcp-trial,164,735018,0.0-139.0-0.0,voc_e2,12129,"[{""event"":""fullscreenenter"",""trial"":1,""time"":2650}]",NA,NA,NA,NA,NA,4,#FA92F8,#1CD855,10,0,1,40,0,697,39,0,572,0,0,experiment,NA,NA,1,0.7,0.3,2,3,130,3,NA
fcp-trial,165,737602,0.0-140.0-0.0,voc_e2,12129,"[{""event"":""fullscreenenter"",""trial"":1,""time"":2650}]",NA,NA,NA,NA,NA,3,#741CD8,#D8271C,0,10,1,40,0,655,39,0,418,10,0,experiment,NA,NA,2,0.5,0.5,4,5,131,3,NA
fcp-trial,166,740201,0.0-141.0-0.0,voc_e2,12129,"[{""event"":""fullscreenenter"",""trial"":1,""time"":2650}]",NA,NA,NA,NA,NA,2,#D8271C,#741CD8,10,0,0,40,0,688,37,1,399,10,0,experiment,NA,NA,2,0.5,0.5,5,4,132,3,NA
fcp-trial,167,742867,0.0-142.0-0.0,voc_e2,12129,"[{""event"":""fullscreenenter"",""trial"":1,""time"":2650}]",NA,NA,NA,NA,NA,4,#3386FF,#D89F1C,10,0,1,40,0,765,37,1,390.9999999998836,10,1,experiment,NA,NA,0,0.9,0.1,0,1,133,3,NA
fcp-trial,168,745583,0.0-143.0-0.0,voc_e2,12129,"[{""event"":""fullscreenenter"",""trial"":1,""time"":2650}]",NA,NA,NA,NA,NA,1,#FA92F8,#1CD855,10,0,1,40,0,883,37,1,322,10,1,experiment,NA,NA,1,0.7,0.3,2,3,134,3,NA
fcp-trial,169,748243,0.0-144.0-0.0,voc_e2,12129,"[{""event"":""fullscreenenter"",""trial"":1,""time"":2650}]",NA,NA,NA,NA,NA,5,#1CD855,#FA92F8,10,10,0,40,0,636,39,0,514,10,1,experiment,NA,NA,1,0.3,0.7,3,2,135,3,NA
fcp-trial,170,750859,0.0-145.0-0.0,voc_e2,12129,"[{""event"":""fullscreenenter"",""trial"":1,""time"":2650}]",NA,NA,NA,NA,NA,6,#D8271C,#741CD8,10,0,0,40,0,627,39,0,468,0,1,experiment,NA,NA,2,0.5,0.5,5,4,136,4,NA
fcp-trial,171,753593,0.0-146.0-0.0,voc_e2,12129,"[{""event"":""fullscreenenter"",""trial"":1,""time"":2650}]",NA,NA,NA,NA,NA,0,#FA92F8,#1CD855,0,10,1,38,1,906,37,1,309,0,1,experiment,NA,NA,1,0.7,0.3,2,3,137,4,NA
fcp-trial,172,756350,0.0-147.0-0.0,voc_e2,12129,"[{""event"":""fullscreenenter"",""trial"":1,""time"":2650}]",NA,NA,NA,NA,NA,5,#D89F1C,#3386FF,0,0,0,40,0,923,39,0,315.0000000001164,0,1,experiment,NA,NA,0,0.1,0.9,1,0,138,4,NA
fcp-trial,173,759412,0.0-148.0-0.0,voc_e2,12129,"[{""event"":""fullscreenenter"",""trial"":1,""time"":2650}]",NA,NA,NA,NA,NA,0,#741CD8,#D8271C,10,10,1,38,1,1187,37,1,367,10,1,experiment,NA,NA,2,0.5,0.5,4,5,139,4,NA
fcp-trial,174,763841,0.0-149.0-0.0,voc_e2,12129,"[{""event"":""fullscreenenter"",""trial"":1,""time"":2650}]",NA,NA,NA,NA,NA,1,#3386FF,#D89F1C,10,0,1,40,0,2420,39,0,487,0,0,experiment,NA,NA,0,0.9,0.1,0,1,140,4,NA
fcp-trial,175,766341,0.0-150.0-0.0,voc_e2,12129,"[{""event"":""fullscreenenter"",""trial"":1,""time"":2650}]",NA,NA,NA,NA,NA,2,#1CD855,#FA92F8,0,10,0,40,0,662,37,1,318.0000000001164,0,0,experiment,NA,NA,1,0.3,0.7,3,2,141,4,NA
fcp-trial,176,769182,0.0-151.0-0.0,voc_e2,12129,"[{""event"":""fullscreenenter"",""trial"":1,""time"":2650}]",NA,NA,NA,NA,NA,3,#D89F1C,#3386FF,0,10,0,40,0,942,37,1,382,0,0,experiment,NA,NA,0,0.1,0.9,1,0,142,4,NA
fcp-trial,177,771976,0.0-152.0-0.0,voc_e2,12129,"[{""event"":""fullscreenenter"",""trial"":1,""time"":2650}]",NA,NA,NA,NA,NA,4,#D8271C,#741CD8,10,0,0,40,0,894,39,0,391.0000000001164,0,1,experiment,NA,NA,2,0.5,0.5,5,4,143,4,NA
fcp-trial,178,774468,0.0-153.0-0.0,voc_e2,12129,"[{""event"":""fullscreenenter"",""trial"":1,""time"":2650}]",NA,NA,NA,NA,NA,6,#1CD855,#FA92F8,10,10,0,40,0,623,39,0,347.9999999998836,10,1,experiment,NA,NA,1,0.3,0.7,3,2,144,4,NA
fcp-trial,179,777050,0.0-154.0-0.0,voc_e2,12129,"[{""event"":""fullscreenenter"",""trial"":1,""time"":2650}]",NA,NA,NA,NA,NA,3,#1CD855,#FA92F8,0,10,0,40,0,699,37,1,373.9999999998836,0,0,experiment,NA,NA,1,0.3,0.7,3,2,145,4,NA
fcp-trial,180,779668,0.0-155.0-0.0,voc_e2,12129,"[{""event"":""fullscreenenter"",""trial"":1,""time"":2650}]",NA,NA,NA,NA,NA,1,#D8271C,#741CD8,10,0,0,40,0,760,37,1,350,10,0,experiment,NA,NA,2,0.5,0.5,5,4,146,4,NA
fcp-trial,181,782417,0.0-156.0-0.0,voc_e2,12129,"[{""event"":""fullscreenenter"",""trial"":1,""time"":2650}]",NA,NA,NA,NA,NA,2,#3386FF,#D89F1C,10,10,1,40,0,774,37,1,466,10,1,experiment,NA,NA,0,0.9,0.1,0,1,147,4,NA
fcp-trial,182,784918,0.0-157.0-0.0,voc_e2,12129,"[{""event"":""fullscreenenter"",""trial"":1,""time"":2650}]",NA,NA,NA,NA,NA,6,#D89F1C,#3386FF,0,10,0,40,0,692,39,0,298,10,1,experiment,NA,NA,0,0.1,0.9,1,0,148,4,NA
fcp-trial,183,787843,0.0-158.0-0.0,voc_e2,12129,"[{""event"":""fullscreenenter"",""trial"":1,""time"":2650}]",NA,NA,NA,NA,NA,2,#FA92F8,#1CD855,10,0,1,40,0,956,39,0,459,0,0,experiment,NA,NA,1,0.7,0.3,2,3,149,4,NA
fcp-trial,184,790245,0.0-159.0-0.0,voc_e2,12129,"[{""event"":""fullscreenenter"",""trial"":1,""time"":2650}]",NA,NA,NA,NA,NA,5,#FA92F8,#1CD855,10,0,1,38,1,580,37,1,292,10,1,experiment,NA,NA,1,0.7,0.3,2,3,150,4,NA
fcp-trial,185,793235,0.0-160.0-0.0,voc_e2,12129,"[{""event"":""fullscreenenter"",""trial"":1,""time"":2650}]",NA,NA,NA,NA,NA,2,#D8271C,#741CD8,10,0,0,38,1,937.0000000001164,39,0,534,0,1,experiment,NA,NA,2,0.5,0.5,5,4,151,4,NA
fcp-trial,186,795752,0.0-161.0-0.0,voc_e2,12129,"[{""event"":""fullscreenenter"",""trial"":1,""time"":2650}]",NA,NA,NA,NA,NA,1,#D89F1C,#3386FF,0,10,0,38,1,656,39,0,351,10,1,experiment,NA,NA,0,0.1,0.9,1,0,152,4,NA
fcp-trial,187,798188,0.0-162.0-0.0,voc_e2,12129,"[{""event"":""fullscreenenter"",""trial"":1,""time"":2650}]",NA,NA,NA,NA,NA,6,#1CD855,#FA92F8,0,10,0,38,1,556,39,0,370,10,1,experiment,NA,NA,1,0.3,0.7,3,2,153,4,NA
fcp-trial,188,800633,0.0-163.0-0.0,voc_e2,12129,"[{""event"":""fullscreenenter"",""trial"":1,""time"":2650}]",NA,NA,NA,NA,NA,0,#3386FF,#D89F1C,10,0,1,38,1,653.0000000001164,37,1,284,10,1,experiment,NA,NA,0,0.9,0.1,0,1,154,4,NA
fcp-trial,189,804293,0.0-164.0-0.0,voc_e2,12129,"[{""event"":""fullscreenenter"",""trial"":1,""time"":2650}]",NA,NA,NA,NA,NA,6,#741CD8,#D8271C,10,10,1,40,0,1801,39,0,351,10,0,experiment,NA,NA,2,0.5,0.5,4,5,155,4,NA
fcp-trial,190,807860,0.0-165.0-0.0,voc_e2,12129,"[{""event"":""fullscreenenter"",""trial"":1,""time"":2650}]",NA,NA,NA,NA,NA,3,#D89F1C,#3386FF,0,10,0,38,1,1503,39,0,543,10,1,experiment,NA,NA,0,0.1,0.9,1,0,156,4,NA
fcp-trial,191,811020,0.0-166.0-0.0,voc_e2,12129,"[{""event"":""fullscreenenter"",""trial"":1,""time"":2650}]",NA,NA,NA,NA,NA,1,#FA92F8,#1CD855,10,0,1,38,1,1079,37,1,558,10,1,experiment,NA,NA,1,0.7,0.3,2,3,157,4,NA
fcp-trial,192,813634,0.0-167.0-0.0,voc_e2,12129,"[{""event"":""fullscreenenter"",""trial"":1,""time"":2650}]",NA,NA,NA,NA,NA,3,#1CD855,#FA92F8,0,0,0,38,1,792,39,0,311,0,1,experiment,NA,NA,1,0.3,0.7,3,2,158,4,NA
fcp-trial,193,816684,0.0-168.0-0.0,voc_e2,12129,"[{""event"":""fullscreenenter"",""trial"":1,""time"":2650}]",NA,NA,NA,NA,NA,1,#741CD8,#D8271C,10,10,1,38,1,1274,37,1,266,10,1,experiment,NA,NA,2,0.5,0.5,4,5,159,4,NA
fcp-trial,194,819717,0.0-169.0-0.0,voc_e2,12129,"[{""event"":""fullscreenenter"",""trial"":1,""time"":2650}]",NA,NA,NA,NA,NA,5,#D89F1C,#3386FF,0,10,0,40,0,1076,37,1,449,0,0,experiment,NA,NA,0,0.1,0.9,1,0,160,4,NA
fcp-trial,195,824777,0.0-170.0-0.0,voc_e2,12129,"[{""event"":""fullscreenenter"",""trial"":1,""time"":2650}]",NA,NA,NA,NA,NA,5,#D8271C,#741CD8,10,10,0,40,0,2928,39,0,619,10,1,experiment,NA,NA,2,0.5,0.5,5,4,161,4,NA
fcp-trial,196,827575,0.0-171.0-0.0,voc_e2,12129,"[{""event"":""fullscreenenter"",""trial"":1,""time"":2650}]",NA,NA,NA,NA,NA,0,#1CD855,#FA92F8,0,10,0,38,1,938.9999999998836,39,0,341,10,1,experiment,NA,NA,1,0.3,0.7,3,2,162,4,NA
fcp-trial,197,830793,0.0-172.0-0.0,voc_e2,12129,"[{""event"":""fullscreenenter"",""trial"":1,""time"":2650}]",NA,NA,NA,NA,NA,4,#3386FF,#D89F1C,10,0,1,40,0,1214,39,0,484,0,0,experiment,NA,NA,0,0.9,0.1,0,1,163,4,NA
fcp-trial,198,833894,0.0-173.0-0.0,voc_e2,12129,"[{""event"":""fullscreenenter"",""trial"":1,""time"":2650}]",NA,NA,NA,NA,NA,2,#3386FF,#D89F1C,10,0,1,38,1,1289,37,1,292,10,1,experiment,NA,NA,0,0.9,0.1,0,1,164,4,NA
fcp-trial,199,836451,0.0-174.0-0.0,voc_e2,12129,"[{""event"":""fullscreenenter"",""trial"":1,""time"":2650}]",NA,NA,NA,NA,NA,4,#1CD855,#FA92F8,0,10,0,40,0,654,39,0,385,10,1,experiment,NA,NA,1,0.3,0.7,3,2,165,4,NA
fcp-trial,200,839150,0.0-175.0-0.0,voc_e2,12129,"[{""event"":""fullscreenenter"",""trial"":1,""time"":2650}]",NA,NA,NA,NA,NA,0,#741CD8,#D8271C,0,10,1,38,1,823,37,1,364,0,1,experiment,NA,NA,2,0.5,0.5,4,5,166,4,NA
fcp-trial,201,841925,0.0-176.0-0.0,voc_e2,12129,"[{""event"":""fullscreenenter"",""trial"":1,""time"":2650}]",NA,NA,NA,NA,NA,4,#741CD8,#D8271C,0,0,1,40,0,897,37,1,369.0000000001164,0,1,experiment,NA,NA,2,0.5,0.5,4,5,167,4,NA
fcp-trial,202,844673,0.0-177.0-0.0,voc_e2,12129,"[{""event"":""fullscreenenter"",""trial"":1,""time"":2650}]",NA,NA,NA,NA,NA,3,#741CD8,#D8271C,10,0,1,40,0,805,37,1,422,10,1,experiment,NA,NA,2,0.5,0.5,4,5,168,4,NA
fcp-trial,203,847617,0.0-178.0-0.0,voc_e2,12129,"[{""event"":""fullscreenenter"",""trial"":1,""time"":2650}]",NA,NA,NA,NA,NA,0,#3386FF,#D89F1C,10,0,1,38,1,1107,37,1,331,10,1,experiment,NA,NA,0,0.9,0.1,0,1,169,4,NA
fcp-trial,204,850366,0.0-179.0-0.0,voc_e2,12129,"[{""event"":""fullscreenenter"",""trial"":1,""time"":2650}]",NA,NA,NA,NA,NA,5,#741CD8,#D8271C,0,10,1,40,0,900.0000000001164,37,1,340,0,1,experiment,NA,NA,2,0.5,0.5,4,5,170,4,NA
fcp-trial,205,854367,0.0-180.0-0.0,voc_e2,12129,"[{""event"":""fullscreenenter"",""trial"":1,""time"":2650}]",NA,NA,NA,NA,NA,2,#1CD855,#FA92F8,0,10,0,38,1,1998,39,0,493,10,1,experiment,NA,NA,1,0.3,0.7,3,2,171,4,NA
fcp-trial,206,857976,0.0-181.0-0.0,voc_e2,12129,"[{""event"":""fullscreenenter"",""trial"":1,""time"":2650}]",NA,NA,NA,NA,NA,4,#D8271C,#741CD8,0,0,0,40,0,1562.0000000001164,39,0,536,0,1,experiment,NA,NA,2,0.5,0.5,5,4,172,4,NA
fcp-trial,207,860853,0.0-182.0-0.0,voc_e2,12129,"[{""event"":""fullscreenenter"",""trial"":1,""time"":2650}]",NA,NA,NA,NA,NA,1,#3386FF,#D89F1C,0,0,1,38,1,1069.9999999998836,37,1,286,0,1,experiment,NA,NA,0,0.9,0.1,0,1,173,4,NA
fcp-trial,208,863441,0.0-183.0-0.0,voc_e2,12129,"[{""event"":""fullscreenenter"",""trial"":1,""time"":2650}]",NA,NA,NA,NA,NA,1,#1CD855,#FA92F8,10,10,0,38,1,791,39,0,286,10,1,experiment,NA,NA,1,0.3,0.7,3,2,174,4,NA
fcp-trial,209,867433,0.0-184.0-0.0,voc_e2,12129,"[{""event"":""fullscreenenter"",""trial"":1,""time"":2650}]",NA,NA,NA,NA,NA,2,#D8271C,#741CD8,0,0,0,38,1,2191,37,1,281.0000000001164,0,0,experiment,NA,NA,2,0.5,0.5,5,4,175,4,NA
fcp-trial,210,870324,0.0-185.0-0.0,voc_e2,12129,"[{""event"":""fullscreenenter"",""trial"":1,""time"":2650}]",NA,NA,NA,NA,NA,5,#3386FF,#D89F1C,10,0,1,40,0,1026.0000000001164,37,1,356,10,1,experiment,NA,NA,0,0.9,0.1,0,1,176,4,NA
fcp-trial,211,873801,0.0-186.0-0.0,voc_e2,12129,"[{""event"":""fullscreenenter"",""trial"":1,""time"":2650}]",NA,NA,NA,NA,NA,1,#D8271C,#741CD8,0,0,0,38,1,1239,37,1,717,0,0,experiment,NA,NA,2,0.5,0.5,5,4,177,4,NA
fcp-trial,212,876621,0.0-187.0-0.0,voc_e2,12129,"[{""event"":""fullscreenenter"",""trial"":1,""time"":2650}]",NA,NA,NA,NA,NA,3,#FA92F8,#1CD855,10,0,1,40,0,870,39,0,437.0000000001164,0,0,experiment,NA,NA,1,0.7,0.3,2,3,178,4,NA
fcp-trial,213,879253,0.0-188.0-0.0,voc_e2,12129,"[{""event"":""fullscreenenter"",""trial"":1,""time"":2650}]",NA,NA,NA,NA,NA,6,#1CD855,#FA92F8,0,10,0,40,0,752,39,0,369,10,1,experiment,NA,NA,1,0.3,0.7,3,2,179,4,NA
fcp-trial,214,882166,0.0-189.0-0.0,voc_e2,12129,"[{""event"":""fullscreenenter"",""trial"":1,""time"":2650}]",NA,NA,NA,NA,NA,4,#3386FF,#D89F1C,10,0,1,40,0,1039,37,1,366,10,1,experiment,NA,NA,0,0.9,0.1,0,1,180,4,NA
fcp-trial,215,884816,0.0-190.0-0.0,voc_e2,12129,"[{""event"":""fullscreenenter"",""trial"":1,""time"":2650}]",NA,NA,NA,NA,NA,3,#3386FF,#D89F1C,10,0,1,40,0,777,37,1,366.0000000001164,10,1,experiment,NA,NA,0,0.9,0.1,0,1,181,5,NA
fcp-trial,216,887671,0.0-191.0-0.0,voc_e2,12129,"[{""event"":""fullscreenenter"",""trial"":1,""time"":2650}]",NA,NA,NA,NA,NA,0,#741CD8,#D8271C,10,10,1,38,1,885,37,1,459.9999999998836,10,1,experiment,NA,NA,2,0.5,0.5,4,5,182,5,NA
fcp-trial,217,891276,0.0-192.0-0.0,voc_e2,12129,"[{""event"":""fullscreenenter"",""trial"":1,""time"":2650}]",NA,NA,NA,NA,NA,5,#FA92F8,#1CD855,0,10,1,40,0,744,39,0,1348,10,0,experiment,NA,NA,1,0.7,0.3,2,3,183,5,NA
fcp-trial,218,894801,0.0-193.0-0.0,voc_e2,12129,"[{""event"":""fullscreenenter"",""trial"":1,""time"":2650}]",NA,NA,NA,NA,NA,0,#1CD855,#FA92F8,0,10,0,38,1,1272,39,0,734,10,1,experiment,NA,NA,1,0.3,0.7,3,2,184,5,NA
fcp-trial,219,897702,0.0-194.0-0.0,voc_e2,12129,"[{""event"":""fullscreenenter"",""trial"":1,""time"":2650}]",NA,NA,NA,NA,NA,6,#741CD8,#D8271C,0,10,1,40,0,982,39,0,408.9999999998836,10,0,experiment,NA,NA,2,0.5,0.5,4,5,185,5,NA
fcp-trial,220,900384,0.0-195.0-0.0,voc_e2,12129,"[{""event"":""fullscreenenter"",""trial"":1,""time"":2650}]",NA,NA,NA,NA,NA,6,#3386FF,#D89F1C,10,0,1,40,0,724,39,0,448.0000000001164,0,0,experiment,NA,NA,0,0.9,0.1,0,1,186,5,NA
fcp-trial,221,903283,0.0-196.0-0.0,voc_e2,12129,"[{""event"":""fullscreenenter"",""trial"":1,""time"":2650}]",NA,NA,NA,NA,NA,3,#741CD8,#D8271C,0,0,1,38,1,1102.0000000001164,37,1,289,0,1,experiment,NA,NA,2,0.5,0.5,4,5,187,5,NA
fcp-trial,222,906036,0.0-197.0-0.0,voc_e2,12129,"[{""event"":""fullscreenenter"",""trial"":1,""time"":2650}]",NA,NA,NA,NA,NA,4,#1CD855,#FA92F8,0,0,0,40,0,935,39,0,308,0,1,experiment,NA,NA,1,0.3,0.7,3,2,188,5,NA
fcp-trial,223,909156,0.0-198.0-0.0,voc_e2,12129,"[{""event"":""fullscreenenter"",""trial"":1,""time"":2650}]",NA,NA,NA,NA,NA,2,#3386FF,#D89F1C,10,0,1,38,1,1022,37,1,586,10,1,experiment,NA,NA,0,0.9,0.1,0,1,189,5,NA
fcp-trial,224,911983,0.0-199.0-0.0,voc_e2,12129,"[{""event"":""fullscreenenter"",""trial"":1,""time"":2650}]",NA,NA,NA,NA,NA,4,#1CD855,#FA92F8,10,0,0,40,0,824,37,1,484.0000000001164,10,0,experiment,NA,NA,1,0.3,0.7,3,2,190,5,NA
fcp-trial,225,914634,0.0-200.0-0.0,voc_e2,12129,"[{""event"":""fullscreenenter"",""trial"":1,""time"":2650}]",NA,NA,NA,NA,NA,4,#D89F1C,#3386FF,0,10,0,40,0,765,39,0,377,10,1,experiment,NA,NA,0,0.1,0.9,1,0,191,5,NA
fcp-trial,226,917501,0.0-201.0-0.0,voc_e2,12129,"[{""event"":""fullscreenenter"",""trial"":1,""time"":2650}]",NA,NA,NA,NA,NA,2,#D8271C,#741CD8,10,10,0,40,0,916,37,1,439.9999999998836,10,0,experiment,NA,NA,2,0.5,0.5,5,4,192,5,NA
fcp-trial,227,920318,0.0-202.0-0.0,voc_e2,12129,"[{""event"":""fullscreenenter"",""trial"":1,""time"":2650}]",NA,NA,NA,NA,NA,0,#741CD8,#D8271C,0,10,1,38,1,809,37,1,500,0,1,experiment,NA,NA,2,0.5,0.5,4,5,193,5,NA
fcp-trial,228,923089,0.0-203.0-0.0,voc_e2,12129,"[{""event"":""fullscreenenter"",""trial"":1,""time"":2650}]",NA,NA,NA,NA,NA,6,#1CD855,#FA92F8,0,10,0,40,0,810,37,1,452,0,0,experiment,NA,NA,1,0.3,0.7,3,2,194,5,NA
fcp-trial,229,925903,0.0-204.0-0.0,voc_e2,12129,"[{""event"":""fullscreenenter"",""trial"":1,""time"":2650}]",NA,NA,NA,NA,NA,5,#D89F1C,#3386FF,0,10,0,40,0,951,39,0,352,10,1,experiment,NA,NA,0,0.1,0.9,1,0,195,5,NA
fcp-trial,230,928774,0.0-205.0-0.0,voc_e2,12129,"[{""event"":""fullscreenenter"",""trial"":1,""time"":2650}]",NA,NA,NA,NA,NA,5,#741CD8,#D8271C,10,0,1,40,0,790.9999999998836,37,1,569.0000000001164,10,1,experiment,NA,NA,2,0.5,0.5,4,5,196,5,NA
fcp-trial,231,931686,0.0-206.0-0.0,voc_e2,12129,"[{""event"":""fullscreenenter"",""trial"":1,""time"":2650}]",NA,NA,NA,NA,NA,3,#FA92F8,#1CD855,10,0,1,40,0,607,37,1,785.0000000001164,10,1,experiment,NA,NA,1,0.7,0.3,2,3,197,5,NA
fcp-trial,232,934992,0.0-207.0-0.0,voc_e2,12129,"[{""event"":""fullscreenenter"",""trial"":1,""time"":2650}]",NA,NA,NA,NA,NA,1,#741CD8,#D8271C,10,0,1,38,1,690.9999999998836,37,1,1106,10,1,experiment,NA,NA,2,0.5,0.5,4,5,198,5,NA
fcp-trial,233,937675,0.0-208.0-0.0,voc_e2,12129,"[{""event"":""fullscreenenter"",""trial"":1,""time"":2650}]",NA,NA,NA,NA,NA,0,#3386FF,#D89F1C,10,0,1,38,1,758.9999999998836,37,1,401.9999999998836,10,1,experiment,NA,NA,0,0.9,0.1,0,1,199,5,NA
fcp-trial,234,940249,0.0-209.0-0.0,voc_e2,12129,"[{""event"":""fullscreenenter"",""trial"":1,""time"":2650}]",NA,NA,NA,NA,NA,2,#1CD855,#FA92F8,0,10,0,40,0,542,37,1,515,0,0,experiment,NA,NA,1,0.3,0.7,3,2,200,5,NA
fcp-trial,235,943110,0.0-210.0-0.0,voc_e2,12129,"[{""event"":""fullscreenenter"",""trial"":1,""time"":2650}]",NA,NA,NA,NA,NA,0,#FA92F8,#1CD855,0,0,1,38,1,733.9999999998836,37,1,616.9999999998836,0,1,experiment,NA,NA,1,0.7,0.3,2,3,201,5,NA
fcp-trial,236,945876,0.0-211.0-0.0,voc_e2,12129,"[{""event"":""fullscreenenter"",""trial"":1,""time"":2650}]",NA,NA,NA,NA,NA,4,#741CD8,#D8271C,10,0,1,40,0,839,39,0,407,0,0,experiment,NA,NA,2,0.5,0.5,4,5,202,5,NA
fcp-trial,237,948819,0.0-212.0-0.0,voc_e2,12129,"[{""event"":""fullscreenenter"",""trial"":1,""time"":2650}]",NA,NA,NA,NA,NA,1,#3386FF,#D89F1C,10,0,1,38,1,1128,37,1,295,10,1,experiment,NA,NA,0,0.9,0.1,0,1,203,5,NA
fcp-trial,238,951376,0.0-213.0-0.0,voc_e2,12129,"[{""event"":""fullscreenenter"",""trial"":1,""time"":2650}]",NA,NA,NA,NA,NA,1,#FA92F8,#1CD855,10,0,1,38,1,705.9999999998836,37,1,340,10,1,experiment,NA,NA,1,0.7,0.3,2,3,204,5,NA
fcp-trial,239,954988,0.0-214.0-0.0,voc_e2,12129,"[{""event"":""fullscreenenter"",""trial"":1,""time"":2650}]",NA,NA,NA,NA,NA,3,#D8271C,#741CD8,10,10,0,40,0,1715,39,0,387.0000000001164,10,1,experiment,NA,NA,2,0.5,0.5,5,4,205,5,NA
fcp-trial,240,957675,0.0-215.0-0.0,voc_e2,12129,"[{""event"":""fullscreenenter"",""trial"":1,""time"":2650}]",NA,NA,NA,NA,NA,5,#1CD855,#FA92F8,0,0,0,40,0,818,37,1,357,0,0,experiment,NA,NA,1,0.3,0.7,3,2,206,5,NA
fcp-trial,241,960687,0.0-216.0-0.0,voc_e2,12129,"[{""event"":""fullscreenenter"",""trial"":1,""time"":2650}]",NA,NA,NA,NA,NA,2,#D89F1C,#3386FF,0,10,0,38,1,1155.9999999998836,39,0,335,10,1,experiment,NA,NA,0,0.1,0.9,1,0,207,5,NA
fcp-trial,242,963692,0.0-217.0-0.0,voc_e2,12129,"[{""event"":""fullscreenenter"",""trial"":1,""time"":2650}]",NA,NA,NA,NA,NA,3,#3386FF,#D89F1C,10,0,1,40,0,1194,37,1,299,10,1,experiment,NA,NA,0,0.9,0.1,0,1,208,5,NA
fcp-trial,243,966710,0.0-218.0-0.0,voc_e2,12129,"[{""event"":""fullscreenenter"",""trial"":1,""time"":2650}]",NA,NA,NA,NA,NA,6,#D8271C,#741CD8,0,0,0,40,0,1082,37,1,416,0,0,experiment,NA,NA,2,0.5,0.5,5,4,209,5,NA
fcp-trial,244,969220,0.0-219.0-0.0,voc_e2,12129,"[{""event"":""fullscreenenter"",""trial"":1,""time"":2650}]",NA,NA,NA,NA,NA,6,#D89F1C,#3386FF,0,10,0,40,0,637.0000000001164,39,0,352.9999999998836,10,1,experiment,NA,NA,0,0.1,0.9,1,0,210,5,NA
audio-instructions,245,994481,0.0-220.0,voc_e2,12129,"[{""event"":""fullscreenenter"",""trial"":1,""time"":2650}]",NA,20817,static/audio/pause.wav,NA,0,NA,NA,NA,NA,NA,NA,NA,NA,NA,NA,NA,NA,NA,NA,NA,NA,NA,NA,NA,NA,NA,NA,NA,NA,NA
fcp-trial,246,997959,0.0-221.0-0.0,voc_e2,12129,"[{""event"":""fullscreenenter"",""trial"":1,""time"":2650}]",NA,NA,NA,NA,NA,2,#D89F1C,#3386FF,0,10,0,38,1,1693.0000000001164,39,0,274,10,1,experiment,NA,NA,0,0.1,0.9,1,0,211,5,NA
fcp-trial,247,1000700,0.0-222.0-0.0,voc_e2,12129,"[{""event"":""fullscreenenter"",""trial"":1,""time"":2650}]",NA,NA,NA,NA,NA,5,#1CD855,#FA92F8,0,0,0,40,0,832,37,1,389,0,0,experiment,NA,NA,1,0.3,0.7,3,2,212,5,NA
fcp-trial,248,1005082,0.0-223.0-0.0,voc_e2,12129,"[{""event"":""fullscreenenter"",""trial"":1,""time"":2650}]",NA,NA,NA,NA,NA,0,#3386FF,#D89F1C,10,0,1,38,1,2294,37,1,579,10,1,experiment,NA,NA,0,0.9,0.1,0,1,213,5,NA
fcp-trial,249,1009561,0.0-224.0-0.0,voc_e2,12129,"[{""event"":""fullscreenenter"",""trial"":1,""time"":2650}]",NA,NA,NA,NA,NA,1,#D8271C,#741CD8,10,10,0,38,1,1058.9999999998836,39,0,1910,10,1,experiment,NA,NA,2,0.5,0.5,5,4,214,5,NA
fcp-trial,250,1012269,0.0-225.0-0.0,voc_e2,12129,"[{""event"":""fullscreenenter"",""trial"":1,""time"":2650}]",NA,NA,NA,NA,NA,1,#FA92F8,#1CD855,10,0,1,38,1,832,37,1,351,10,1,experiment,NA,NA,1,0.7,0.3,2,3,215,5,NA
fcp-trial,251,1015682,0.0-226.0-0.0,voc_e2,12129,"[{""event"":""fullscreenenter"",""trial"":1,""time"":2650}]",NA,NA,NA,NA,NA,5,#D8271C,#741CD8,10,0,0,40,0,1371.9999999998836,37,1,532,10,0,experiment,NA,NA,2,0.5,0.5,5,4,216,5,NA
fcp-trial,252,1018416,0.0-227.0-0.0,voc_e2,12129,"[{""event"":""fullscreenenter"",""trial"":1,""time"":2650}]",NA,NA,NA,NA,NA,3,#D8271C,#741CD8,10,0,0,40,0,781.9999999998836,39,0,443,0,1,experiment,NA,NA,2,0.5,0.5,5,4,217,5,NA
fcp-trial,253,1021682,0.0-228.0-0.0,voc_e2,12129,"[{""event"":""fullscreenenter"",""trial"":1,""time"":2650}]",NA,NA,NA,NA,NA,1,#3386FF,#D89F1C,10,0,1,38,1,1223.9999999998836,37,1,531,10,1,experiment,NA,NA,0,0.9,0.1,0,1,218,5,NA
fcp-trial,254,1024471,0.0-229.0-0.0,voc_e2,12129,"[{""event"":""fullscreenenter"",""trial"":1,""time"":2650}]",NA,NA,NA,NA,NA,6,#3386FF,#D89F1C,10,0,1,40,0,909.0000000001164,37,1,370.9999999998836,10,1,experiment,NA,NA,0,0.9,0.1,0,1,219,5,NA
fcp-trial,255,1027157,0.0-230.0-0.0,voc_e2,12129,"[{""event"":""fullscreenenter"",""trial"":1,""time"":2650}]",NA,NA,NA,NA,NA,6,#1CD855,#FA92F8,10,0,0,40,0,727.0000000001164,37,1,447.0000000001164,10,0,experiment,NA,NA,1,0.3,0.7,3,2,220,5,NA
fcp-trial,256,1030009,0.0-231.0-0.0,voc_e2,12129,"[{""event"":""fullscreenenter"",""trial"":1,""time"":2650}]",NA,NA,NA,NA,NA,4,#D8271C,#741CD8,10,10,0,40,0,875,39,0,456.9999999998836,10,1,experiment,NA,NA,2,0.5,0.5,5,4,221,5,NA
fcp-trial,257,1032667,0.0-232.0-0.0,voc_e2,12129,"[{""event"":""fullscreenenter"",""trial"":1,""time"":2650}]",NA,NA,NA,NA,NA,5,#D89F1C,#3386FF,0,0,0,40,0,761,39,0,377,0,1,experiment,NA,NA,0,0.1,0.9,1,0,222,5,NA
fcp-trial,258,1035432,0.0-233.0-0.0,voc_e2,12129,"[{""event"":""fullscreenenter"",""trial"":1,""time"":2650}]",NA,NA,NA,NA,NA,6,#741CD8,#D8271C,0,10,1,40,0,796,37,1,457.99999999976717,0,1,experiment,NA,NA,2,0.5,0.5,4,5,223,5,NA
fcp-trial,259,1038558,0.0-234.0-0.0,voc_e2,12129,"[{""event"":""fullscreenenter"",""trial"":1,""time"":2650}]",NA,NA,NA,NA,NA,3,#1CD855,#FA92F8,10,10,0,40,0,1028,37,1,588,10,0,experiment,NA,NA,1,0.3,0.7,3,2,224,5,NA
fcp-trial,260,1042516,0.0-235.0-0.0,voc_e2,12129,"[{""event"":""fullscreenenter"",""trial"":1,""time"":2650}]",NA,NA,NA,NA,NA,0,#741CD8,#D8271C,10,10,1,38,1,924,37,1,1513.9999999997672,10,1,experiment,NA,NA,2,0.5,0.5,4,5,225,5,NA
fcp-trial,261,1045016,0.0-236.0-0.0,voc_e2,12129,"[{""event"":""fullscreenenter"",""trial"":1,""time"":2650}]",NA,NA,NA,NA,NA,0,#1CD855,#FA92F8,0,10,0,38,1,665,39,0,326,10,1,experiment,NA,NA,1,0.3,0.7,3,2,226,6,NA
fcp-trial,262,1047960,0.0-237.0-0.0,voc_e2,12129,"[{""event"":""fullscreenenter"",""trial"":1,""time"":2650}]",NA,NA,NA,NA,NA,4,#3386FF,#D89F1C,10,0,1,40,0,973,37,1,460,10,1,experiment,NA,NA,0,0.9,0.1,0,1,227,6,NA
fcp-trial,263,1051451,0.0-238.0-0.0,voc_e2,12129,"[{""event"":""fullscreenenter"",""trial"":1,""time"":2650}]",NA,NA,NA,NA,NA,2,#D8271C,#741CD8,0,10,0,38,1,987,39,0,984,10,1,experiment,NA,NA,2,0.5,0.5,5,4,228,6,NA
fcp-trial,264,1054237,0.0-239.0-0.0,voc_e2,12129,"[{""event"":""fullscreenenter"",""trial"":1,""time"":2650}]",NA,NA,NA,NA,NA,4,#1CD855,#FA92F8,0,10,0,40,0,896,39,0,380,10,1,experiment,NA,NA,1,0.3,0.7,3,2,229,6,NA
fcp-trial,265,1057418,0.0-240.0-0.0,voc_e2,12129,"[{""event"":""fullscreenenter"",""trial"":1,""time"":2650}]",NA,NA,NA,NA,NA,3,#D89F1C,#3386FF,0,10,0,40,0,1154,39,0,517,10,1,experiment,NA,NA,0,0.1,0.9,1,0,230,6,NA
fcp-trial,266,1060242,0.0-241.0-0.0,voc_e2,12129,"[{""event"":""fullscreenenter"",""trial"":1,""time"":2650}]",NA,NA,NA,NA,NA,2,#1CD855,#FA92F8,0,10,0,38,1,756,39,0,557.0000000002328,10,1,experiment,NA,NA,1,0.3,0.7,3,2,231,6,NA
fcp-trial,267,1062809,0.0-242.0-0.0,voc_e2,12129,"[{""event"":""fullscreenenter"",""trial"":1,""time"":2650}]",NA,NA,NA,NA,NA,6,#D8271C,#741CD8,0,10,0,40,0,688,37,1,359,0,0,experiment,NA,NA,2,0.5,0.5,5,4,232,6,NA
fcp-trial,268,1066154,0.0-243.0-0.0,voc_e2,12129,"[{""event"":""fullscreenenter"",""trial"":1,""time"":2650}]",NA,NA,NA,NA,NA,4,#FA92F8,#1CD855,10,0,1,40,0,1122,39,0,702,0,0,experiment,NA,NA,1,0.7,0.3,2,3,233,6,NA
fcp-trial,269,1069017,0.0-244.0-0.0,voc_e2,12129,"[{""event"":""fullscreenenter"",""trial"":1,""time"":2650}]",NA,NA,NA,NA,NA,2,#FA92F8,#1CD855,10,0,1,38,1,1088.0000000002328,37,1,266,10,1,experiment,NA,NA,1,0.7,0.3,2,3,234,6,NA
fcp-trial,270,1071699,0.0-245.0-0.0,voc_e2,12129,"[{""event"":""fullscreenenter"",""trial"":1,""time"":2650}]",NA,NA,NA,NA,NA,6,#3386FF,#D89F1C,10,0,1,40,0,839,37,1,333,10,1,experiment,NA,NA,0,0.9,0.1,0,1,235,6,NA
fcp-trial,271,1074188,0.0-246.0-0.0,voc_e2,12129,"[{""event"":""fullscreenenter"",""trial"":1,""time"":2650}]",NA,NA,NA,NA,NA,6,#FA92F8,#1CD855,0,0,1,40,0,575,39,0,404,0,0,experiment,NA,NA,1,0.7,0.3,2,3,236,6,NA
fcp-trial,272,1077269,0.0-247.0-0.0,voc_e2,12129,"[{""event"":""fullscreenenter"",""trial"":1,""time"":2650}]",NA,NA,NA,NA,NA,3,#741CD8,#D8271C,10,0,1,38,1,1152,37,1,420.00000000023283,10,1,experiment,NA,NA,2,0.5,0.5,4,5,237,6,NA
fcp-trial,273,1079921,0.0-248.0-0.0,voc_e2,12129,"[{""event"":""fullscreenenter"",""trial"":1,""time"":2650}]",NA,NA,NA,NA,NA,0,#FA92F8,#1CD855,10,0,1,38,1,806,37,1,333.99999999976717,10,1,experiment,NA,NA,1,0.7,0.3,2,3,238,6,NA
fcp-trial,274,1082703,0.0-249.0-0.0,voc_e2,12129,"[{""event"":""fullscreenenter"",""trial"":1,""time"":2650}]",NA,NA,NA,NA,NA,2,#3386FF,#D89F1C,10,0,1,38,1,943,37,1,327.99999999976717,10,1,experiment,NA,NA,0,0.9,0.1,0,1,239,6,NA
fcp-trial,275,1085365,0.0-250.0-0.0,voc_e2,12129,"[{""event"":""fullscreenenter"",""trial"":1,""time"":2650}]",NA,NA,NA,NA,NA,4,#3386FF,#D89F1C,10,0,1,40,0,735,39,0,417,0,0,experiment,NA,NA,0,0.9,0.1,0,1,240,6,NA
fcp-trial,276,1089132,0.0-251.0-0.0,voc_e2,12129,"[{""event"":""fullscreenenter"",""trial"":1,""time"":2650}]",NA,NA,NA,NA,NA,0,#D8271C,#741CD8,0,10,0,38,1,617.9999999997672,39,0,1637,10,1,experiment,NA,NA,2,0.5,0.5,5,4,241,6,NA
fcp-trial,277,1091873,0.0-252.0-0.0,voc_e2,12129,"[{""event"":""fullscreenenter"",""trial"":1,""time"":2650}]",NA,NA,NA,NA,NA,5,#FA92F8,#1CD855,0,0,1,40,0,876,37,1,357,0,1,experiment,NA,NA,1,0.7,0.3,2,3,242,6,NA
fcp-trial,278,1094977,0.0-253.0-0.0,voc_e2,12129,"[{""event"":""fullscreenenter"",""trial"":1,""time"":2650}]",NA,NA,NA,NA,NA,3,#D89F1C,#3386FF,0,10,0,40,0,1207,39,0,376,10,1,experiment,NA,NA,0,0.1,0.9,1,0,243,6,NA
fcp-trial,279,1099000,0.0-254.0-0.0,voc_e2,12129,"[{""event"":""fullscreenenter"",""trial"":1,""time"":2650}]",NA,NA,NA,NA,NA,2,#D8271C,#741CD8,10,10,0,38,1,1173,39,0,1329.0000000002328,10,1,experiment,NA,NA,2,0.5,0.5,5,4,244,6,NA
fcp-trial,280,1101981,0.0-255.0-0.0,voc_e2,12129,"[{""event"":""fullscreenenter"",""trial"":1,""time"":2650}]",NA,NA,NA,NA,NA,3,#1CD855,#FA92F8,0,0,0,40,0,1097,37,1,374,0,0,experiment,NA,NA,1,0.3,0.7,3,2,245,6,NA
fcp-trial,281,1105086,0.0-256.0-0.0,voc_e2,12129,"[{""event"":""fullscreenenter"",""trial"":1,""time"":2650}]",NA,NA,NA,NA,NA,1,#D8271C,#741CD8,10,0,0,38,1,876.9999999997672,39,0,717.0000000002328,0,1,experiment,NA,NA,2,0.5,0.5,5,4,246,6,NA
fcp-trial,282,1107733,0.0-257.0-0.0,voc_e2,12129,"[{""event"":""fullscreenenter"",""trial"":1,""time"":2650}]",NA,NA,NA,NA,NA,5,#D8271C,#741CD8,0,0,0,40,0,804.9999999997672,37,1,331,0,0,experiment,NA,NA,2,0.5,0.5,5,4,247,6,NA
fcp-trial,283,1110267,0.0-258.0-0.0,voc_e2,12129,"[{""event"":""fullscreenenter"",""trial"":1,""time"":2650}]",NA,NA,NA,NA,NA,1,#3386FF,#D89F1C,10,0,1,38,1,726,37,1,300,10,1,experiment,NA,NA,0,0.9,0.1,0,1,248,6,NA
fcp-trial,284,1112824,0.0-259.0-0.0,voc_e2,12129,"[{""event"":""fullscreenenter"",""trial"":1,""time"":2650}]",NA,NA,NA,NA,NA,0,#3386FF,#D89F1C,10,0,1,38,1,747,37,1,299,10,1,experiment,NA,NA,0,0.9,0.1,0,1,249,6,NA
fcp-trial,285,1116133,0.0-260.0-0.0,voc_e2,12129,"[{""event"":""fullscreenenter"",""trial"":1,""time"":2650}]",NA,NA,NA,NA,NA,1,#1CD855,#FA92F8,0,0,0,38,1,1273,39,0,515.0000000002328,0,1,experiment,NA,NA,1,0.3,0.7,3,2,250,6,NA
fcp-trial,286,1118784,0.0-261.0-0.0,voc_e2,12129,"[{""event"":""fullscreenenter"",""trial"":1,""time"":2650}]",NA,NA,NA,NA,NA,5,#D89F1C,#3386FF,0,10,0,40,0,773.9999999997672,37,1,366,0,0,experiment,NA,NA,0,0.1,0.9,1,0,251,6,NA
fcp-trial,287,1121774,0.0-262.0-0.0,voc_e2,12129,"[{""event"":""fullscreenenter"",""trial"":1,""time"":2650}]",NA,NA,NA,NA,NA,4,#D8271C,#741CD8,10,0,0,40,0,1038,37,1,441,10,0,experiment,NA,NA,2,0.5,0.5,5,4,252,6,NA
fcp-trial,288,1124699,0.0-263.0-0.0,voc_e2,12129,"[{""event"":""fullscreenenter"",""trial"":1,""time"":2650}]",NA,NA,NA,NA,NA,3,#1CD855,#FA92F8,10,10,0,38,1,1005,39,0,400,10,1,experiment,NA,NA,1,0.3,0.7,3,2,253,6,NA
fcp-trial,289,1127490,0.0-264.0-0.0,voc_e2,12129,"[{""event"":""fullscreenenter"",""trial"":1,""time"":2650}]",NA,NA,NA,NA,NA,6,#3386FF,#D89F1C,10,0,1,40,0,824,39,0,456,0,0,experiment,NA,NA,0,0.9,0.1,0,1,254,6,NA
fcp-trial,290,1130833,0.0-265.0-0.0,voc_e2,12129,"[{""event"":""fullscreenenter"",""trial"":1,""time"":2650}]",NA,NA,NA,NA,NA,6,#741CD8,#D8271C,10,10,1,40,0,1164,39,0,657,10,0,experiment,NA,NA,2,0.5,0.5,4,5,255,6,NA
fcp-trial,291,1134066,0.0-266.0-0.0,voc_e2,12129,"[{""event"":""fullscreenenter"",""trial"":1,""time"":2650}]",NA,NA,NA,NA,NA,0,#FA92F8,#1CD855,0,0,1,38,1,745,37,1,977,0,1,experiment,NA,NA,1,0.7,0.3,2,3,256,6,NA
fcp-trial,292,1137004,0.0-267.0-0.0,voc_e2,12129,"[{""event"":""fullscreenenter"",""trial"":1,""time"":2650}]",NA,NA,NA,NA,NA,0,#D8271C,#741CD8,10,10,0,38,1,892,39,0,537,10,1,experiment,NA,NA,2,0.5,0.5,5,4,257,6,NA
fcp-trial,293,1140017,0.0-268.0-0.0,voc_e2,12129,"[{""event"":""fullscreenenter"",""trial"":1,""time"":2650}]",NA,NA,NA,NA,NA,3,#741CD8,#D8271C,10,0,1,38,1,951,37,1,549,10,1,experiment,NA,NA,2,0.5,0.5,4,5,258,6,NA
fcp-trial,294,1142850,0.0-269.0-0.0,voc_e2,12129,"[{""event"":""fullscreenenter"",""trial"":1,""time"":2650}]",NA,NA,NA,NA,NA,0,#D89F1C,#3386FF,0,10,0,38,1,967,39,0,356,10,1,experiment,NA,NA,0,0.1,0.9,1,0,259,6,NA
fcp-trial,295,1145897,0.0-270.0-0.0,voc_e2,12129,"[{""event"":""fullscreenenter"",""trial"":1,""time"":2650}]",NA,NA,NA,NA,NA,6,#1CD855,#FA92F8,10,10,0,40,0,1057,39,0,480,10,1,experiment,NA,NA,1,0.3,0.7,3,2,260,6,NA
fcp-trial,296,1149691,0.0-271.0-0.0,voc_e2,12129,"[{""event"":""fullscreenenter"",""trial"":1,""time"":2650}]",NA,NA,NA,NA,NA,3,#D89F1C,#3386FF,0,10,0,40,0,1469,37,1,813.0000000002328,0,0,experiment,NA,NA,0,0.1,0.9,1,0,261,6,NA
fcp-trial,297,1152658,0.0-272.0-0.0,voc_e2,12129,"[{""event"":""fullscreenenter"",""trial"":1,""time"":2650}]",NA,NA,NA,NA,NA,5,#D8271C,#741CD8,0,0,0,40,0,1038,39,0,407,0,1,experiment,NA,NA,2,0.5,0.5,5,4,262,6,NA
fcp-trial,298,1155582,0.0-273.0-0.0,voc_e2,12129,"[{""event"":""fullscreenenter"",""trial"":1,""time"":2650}]",NA,NA,NA,NA,NA,5,#1CD855,#FA92F8,0,10,0,40,0,821.0000000002328,37,1,593,0,0,experiment,NA,NA,1,0.3,0.7,3,2,263,6,NA
fcp-trial,299,1159284,0.0-274.0-0.0,voc_e2,12129,"[{""event"":""fullscreenenter"",""trial"":1,""time"":2650}]",NA,NA,NA,NA,NA,2,#FA92F8,#1CD855,0,0,1,38,1,1917,37,1,275,0,1,experiment,NA,NA,1,0.7,0.3,2,3,264,6,NA
fcp-trial,300,1162310,0.0-275.0-0.0,voc_e2,12129,"[{""event"":""fullscreenenter"",""trial"":1,""time"":2650}]",NA,NA,NA,NA,NA,4,#D8271C,#741CD8,10,10,0,40,0,1146.0000000002328,39,0,369,10,1,experiment,NA,NA,2,0.5,0.5,5,4,265,6,NA
fcp-trial,301,1165068,0.0-276.0-0.0,voc_e2,12129,"[{""event"":""fullscreenenter"",""trial"":1,""time"":2650}]",NA,NA,NA,NA,NA,1,#D89F1C,#3386FF,0,10,0,38,1,921,39,0,316,10,1,experiment,NA,NA,0,0.1,0.9,1,0,266,6,NA
fcp-trial,302,1167710,0.0-277.0-0.0,voc_e2,12129,"[{""event"":""fullscreenenter"",""trial"":1,""time"":2650}]",NA,NA,NA,NA,NA,4,#FA92F8,#1CD855,0,0,1,40,0,809,37,1,321,0,1,experiment,NA,NA,1,0.7,0.3,2,3,267,6,NA
fcp-trial,303,1171376,0.0-278.0-0.0,voc_e2,12129,"[{""event"":""fullscreenenter"",""trial"":1,""time"":2650}]",NA,NA,NA,NA,NA,2,#741CD8,#D8271C,0,10,1,38,1,1773,37,1,374,0,1,experiment,NA,NA,2,0.5,0.5,4,5,268,6,NA
fcp-trial,304,1174015,0.0-279.0-0.0,voc_e2,12129,"[{""event"":""fullscreenenter"",""trial"":1,""time"":2650}]",NA,NA,NA,NA,NA,1,#FA92F8,#1CD855,10,0,1,38,1,827,37,1,292,10,1,experiment,NA,NA,1,0.7,0.3,2,3,269,6,NA
fcp-trial,305,1176820,0.0-280.0-0.0,voc_e2,12129,"[{""event"":""fullscreenenter"",""trial"":1,""time"":2650}]",NA,NA,NA,NA,NA,4,#3386FF,#D89F1C,10,0,1,40,0,959,37,1,337,10,1,experiment,NA,NA,0,0.9,0.1,0,1,270,6,NA
fcp-trial,306,1182653,0.0-281.0-0.0,voc_e2,12129,"[{""event"":""fullscreenenter"",""trial"":1,""time"":2650}]",NA,NA,NA,NA,NA,1,#D8271C,#741CD8,10,0,0,38,1,4072,39,0,252,0,1,experiment,NA,NA,2,0.5,0.5,5,4,271,7,NA
fcp-trial,307,1185824,0.0-282.0-0.0,voc_e2,12129,"[{""event"":""fullscreenenter"",""trial"":1,""time"":2650}]",NA,NA,NA,NA,NA,2,#D89F1C,#3386FF,0,10,0,38,1,1393,39,0,266,10,1,experiment,NA,NA,0,0.1,0.9,1,0,272,7,NA
fcp-trial,308,1188508,0.0-283.0-0.0,voc_e2,12129,"[{""event"":""fullscreenenter"",""trial"":1,""time"":2650}]",NA,NA,NA,NA,NA,5,#D89F1C,#3386FF,0,10,0,40,0,865,37,1,297,0,0,experiment,NA,NA,0,0.1,0.9,1,0,273,7,NA
fcp-trial,309,1191619,0.0-284.0-0.0,voc_e2,12129,"[{""event"":""fullscreenenter"",""trial"":1,""time"":2650}]",NA,NA,NA,NA,NA,0,#3386FF,#D89F1C,10,0,1,38,1,1021,37,1,568,10,1,experiment,NA,NA,0,0.9,0.1,0,1,274,7,NA
fcp-trial,310,1194182,0.0-285.0-0.0,voc_e2,12129,"[{""event"":""fullscreenenter"",""trial"":1,""time"":2650}]",NA,NA,NA,NA,NA,5,#D89F1C,#3386FF,0,10,0,40,0,674,37,1,380,0,0,experiment,NA,NA,0,0.1,0.9,1,0,275,7,NA
fcp-trial,311,1198508,0.0-286.0-0.0,voc_e2,12129,"[{""event"":""fullscreenenter"",""trial"":1,""time"":2650}]",NA,NA,NA,NA,NA,3,#741CD8,#D8271C,10,0,1,40,0,2257,39,0,558,0,0,experiment,NA,NA,2,0.5,0.5,4,5,276,7,NA
fcp-trial,312,1201132,0.0-287.0-0.0,voc_e2,12129,"[{""event"":""fullscreenenter"",""trial"":1,""time"":2650}]",NA,NA,NA,NA,NA,2,#FA92F8,#1CD855,0,0,1,38,1,819,37,1,283,0,1,experiment,NA,NA,1,0.7,0.3,2,3,277,7,NA
fcp-trial,313,1203709,0.0-288.0-0.0,voc_e2,12129,"[{""event"":""fullscreenenter"",""trial"":1,""time"":2650}]",NA,NA,NA,NA,NA,4,#D8271C,#741CD8,0,0,0,40,0,742,39,0,325,0,1,experiment,NA,NA,2,0.5,0.5,5,4,278,7,NA
fcp-trial,314,1207850,0.0-289.0-0.0,voc_e2,12129,"[{""event"":""fullscreenenter"",""trial"":1,""time"":2650}]",NA,NA,NA,NA,NA,2,#3386FF,#D89F1C,10,10,1,38,1,2065.000000000233,37,1,555,10,1,experiment,NA,NA,0,0.9,0.1,0,1,279,7,NA
fcp-trial,315,1210473,0.0-290.0-0.0,voc_e2,12129,"[{""event"":""fullscreenenter"",""trial"":1,""time"":2650}]",NA,NA,NA,NA,NA,4,#FA92F8,#1CD855,0,0,1,40,0,755,39,0,356,0,0,experiment,NA,NA,1,0.7,0.3,2,3,280,7,NA
fcp-trial,316,1213049,0.0-291.0-0.0,voc_e2,12129,"[{""event"":""fullscreenenter"",""trial"":1,""time"":2650}]",NA,NA,NA,NA,NA,6,#FA92F8,#1CD855,0,0,1,40,0,625,39,0,432,0,0,experiment,NA,NA,1,0.7,0.3,2,3,281,7,NA
fcp-trial,317,1215765,0.0-292.0-0.0,voc_e2,12129,"[{""event"":""fullscreenenter"",""trial"":1,""time"":2650}]",NA,NA,NA,NA,NA,0,#741CD8,#D8271C,10,10,1,38,1,808,37,1,398,10,1,experiment,NA,NA,2,0.5,0.5,4,5,282,7,NA
fcp-trial,318,1218449,0.0-293.0-0.0,voc_e2,12129,"[{""event"":""fullscreenenter"",""trial"":1,""time"":2650}]",NA,NA,NA,NA,NA,1,#FA92F8,#1CD855,10,0,1,38,1,753,37,1,415.99999999976717,10,1,experiment,NA,NA,1,0.7,0.3,2,3,283,7,NA
fcp-trial,319,1221288,0.0-294.0-0.0,voc_e2,12129,"[{""event"":""fullscreenenter"",""trial"":1,""time"":2650}]",NA,NA,NA,NA,NA,1,#D89F1C,#3386FF,0,10,0,38,1,902.0000000002328,39,0,426,10,1,experiment,NA,NA,0,0.1,0.9,1,0,284,7,NA
fcp-trial,320,1223966,0.0-295.0-0.0,voc_e2,12129,"[{""event"":""fullscreenenter"",""trial"":1,""time"":2650}]",NA,NA,NA,NA,NA,5,#1CD855,#FA92F8,0,10,0,40,0,852,39,0,316.00000000023283,10,1,experiment,NA,NA,1,0.3,0.7,3,2,285,7,NA
fcp-trial,321,1226899,0.0-296.0-0.0,voc_e2,12129,"[{""event"":""fullscreenenter"",""trial"":1,""time"":2650}]",NA,NA,NA,NA,NA,5,#741CD8,#D8271C,10,10,1,40,0,925,39,0,496,10,0,experiment,NA,NA,2,0.5,0.5,4,5,286,7,NA
fcp-trial,322,1229532,0.0-297.0-0.0,voc_e2,12129,"[{""event"":""fullscreenenter"",""trial"":1,""time"":2650}]",NA,NA,NA,NA,NA,3,#1CD855,#FA92F8,10,10,0,40,0,756,39,0,366,10,1,experiment,NA,NA,1,0.3,0.7,3,2,287,7,NA
fcp-trial,323,1232799,0.0-298.0-0.0,voc_e2,12129,"[{""event"":""fullscreenenter"",""trial"":1,""time"":2650}]",NA,NA,NA,NA,NA,4,#D89F1C,#3386FF,0,10,0,40,0,1376,37,1,380.99999999976717,0,0,experiment,NA,NA,0,0.1,0.9,1,0,288,7,NA
fcp-trial,324,1235316,0.0-299.0-0.0,voc_e2,12129,"[{""event"":""fullscreenenter"",""trial"":1,""time"":2650}]",NA,NA,NA,NA,NA,6,#741CD8,#D8271C,0,0,1,40,0,657.0000000002328,39,0,349.99999999976717,0,0,experiment,NA,NA,2,0.5,0.5,4,5,289,7,NA
fcp-trial,325,1237782,0.0-300.0-0.0,voc_e2,12129,"[{""event"":""fullscreenenter"",""trial"":1,""time"":2650}]",NA,NA,NA,NA,NA,6,#3386FF,#D89F1C,10,0,1,40,0,613,37,1,341,10,1,experiment,NA,NA,0,0.9,0.1,0,1,290,7,NA
fcp-trial,326,1240366,0.0-301.0-0.0,voc_e2,12129,"[{""event"":""fullscreenenter"",""trial"":1,""time"":2650}]",NA,NA,NA,NA,NA,0,#FA92F8,#1CD855,0,0,1,38,1,759,37,1,315,0,1,experiment,NA,NA,1,0.7,0.3,2,3,291,7,NA
fcp-trial,327,1243091,0.0-302.0-0.0,voc_e2,12129,"[{""event"":""fullscreenenter"",""trial"":1,""time"":2650}]",NA,NA,NA,NA,NA,2,#741CD8,#D8271C,0,0,1,38,1,960,37,1,254.00000000023283,0,1,experiment,NA,NA,2,0.5,0.5,4,5,292,7,NA
fcp-trial,328,1245701,0.0-303.0-0.0,voc_e2,12129,"[{""event"":""fullscreenenter"",""trial"":1,""time"":2650}]",NA,NA,NA,NA,NA,1,#741CD8,#D8271C,0,0,1,38,1,622,37,1,468,0,1,experiment,NA,NA,2,0.5,0.5,4,5,293,7,NA
fcp-trial,329,1248173,0.0-304.0-0.0,voc_e2,12129,"[{""event"":""fullscreenenter"",""trial"":1,""time"":2650}]",NA,NA,NA,NA,NA,3,#3386FF,#D89F1C,0,0,1,40,0,689,37,1,273,0,1,experiment,NA,NA,0,0.9,0.1,0,1,294,7,NA
fcp-trial,330,1251147,0.0-305.0-0.0,voc_e2,12129,"[{""event"":""fullscreenenter"",""trial"":1,""time"":2650}]",NA,NA,NA,NA,NA,5,#FA92F8,#1CD855,0,0,1,40,0,710,39,0,746,0,0,experiment,NA,NA,1,0.7,0.3,2,3,295,7,NA
fcp-trial,331,1253643,0.0-306.0-0.0,voc_e2,12129,"[{""event"":""fullscreenenter"",""trial"":1,""time"":2650}]",NA,NA,NA,NA,NA,6,#1CD855,#FA92F8,0,10,0,40,0,544,37,1,441,0,0,experiment,NA,NA,1,0.3,0.7,3,2,296,7,NA
fcp-trial,332,1256366,0.0-307.0-0.0,voc_e2,12129,"[{""event"":""fullscreenenter"",""trial"":1,""time"":2650}]",NA,NA,NA,NA,NA,1,#3386FF,#D89F1C,10,0,1,38,1,752,37,1,448.99999999976717,10,1,experiment,NA,NA,0,0.9,0.1,0,1,297,7,NA
fcp-trial,333,1259126,0.0-308.0-0.0,voc_e2,12129,"[{""event"":""fullscreenenter"",""trial"":1,""time"":2650}]",NA,NA,NA,NA,NA,1,#FA92F8,#1CD855,10,10,1,38,1,840,37,1,410,10,1,experiment,NA,NA,1,0.7,0.3,2,3,298,7,NA
fcp-trial,334,1261902,0.0-309.0-0.0,voc_e2,12129,"[{""event"":""fullscreenenter"",""trial"":1,""time"":2650}]",NA,NA,NA,NA,NA,2,#3386FF,#D89F1C,10,0,1,38,1,948,37,1,307,10,1,experiment,NA,NA,0,0.9,0.1,0,1,299,7,NA
fcp-trial,335,1264664,0.0-310.0-0.0,voc_e2,12129,"[{""event"":""fullscreenenter"",""trial"":1,""time"":2650}]",NA,NA,NA,NA,NA,5,#D8271C,#741CD8,0,0,0,40,0,943,39,0,309,0,1,experiment,NA,NA,2,0.5,0.5,5,4,300,7,NA
fcp-trial,336,1267859,0.0-311.0-0.0,voc_e2,12129,"[{""event"":""fullscreenenter"",""trial"":1,""time"":2650}]",NA,NA,NA,NA,NA,3,#3386FF,#D89F1C,10,0,1,40,0,1241,37,1,443.00000000023283,10,1,experiment,NA,NA,0,0.9,0.1,0,1,301,7,NA
fcp-trial,337,1270457,0.0-312.0-0.0,voc_e2,12129,"[{""event"":""fullscreenenter"",""trial"":1,""time"":2650}]",NA,NA,NA,NA,NA,3,#FA92F8,#1CD855,0,10,1,40,0,723,37,1,354,0,1,experiment,NA,NA,1,0.7,0.3,2,3,302,7,NA
fcp-trial,338,1273480,0.0-313.0-0.0,voc_e2,12129,"[{""event"":""fullscreenenter"",""trial"":1,""time"":2650}]",NA,NA,NA,NA,NA,2,#741CD8,#D8271C,0,0,1,40,0,972,39,0,531,0,0,experiment,NA,NA,2,0.5,0.5,4,5,303,7,NA
fcp-trial,339,1276057,0.0-314.0-0.0,voc_e2,12129,"[{""event"":""fullscreenenter"",""trial"":1,""time"":2650}]",NA,NA,NA,NA,NA,0,#3386FF,#D89F1C,10,0,1,38,1,735,37,1,329,10,1,experiment,NA,NA,0,0.9,0.1,0,1,304,7,NA
fcp-trial,340,1278749,0.0-315.0-0.0,voc_e2,12129,"[{""event"":""fullscreenenter"",""trial"":1,""time"":2650}]",NA,NA,NA,NA,NA,5,#D89F1C,#3386FF,0,10,0,40,0,844,39,0,328,10,1,experiment,NA,NA,0,0.1,0.9,1,0,305,7,NA
fcp-trial,341,1281136,0.0-316.0-0.0,voc_e2,12129,"[{""event"":""fullscreenenter"",""trial"":1,""time"":2650}]",NA,NA,NA,NA,NA,0,#FA92F8,#1CD855,10,10,1,38,1,578,37,1,298,10,1,experiment,NA,NA,1,0.7,0.3,2,3,306,7,NA
fcp-trial,342,1283681,0.0-317.0-0.0,voc_e2,12129,"[{""event"":""fullscreenenter"",""trial"":1,""time"":2650}]",NA,NA,NA,NA,NA,1,#D8271C,#741CD8,10,0,0,38,1,673,39,0,365,0,1,experiment,NA,NA,2,0.5,0.5,5,4,307,7,NA
fcp-trial,343,1286215,0.0-318.0-0.0,voc_e2,12129,"[{""event"":""fullscreenenter"",""trial"":1,""time"":2650}]",NA,NA,NA,NA,NA,6,#D89F1C,#3386FF,10,10,0,40,0,692,39,0,333,10,1,experiment,NA,NA,0,0.1,0.9,1,0,308,7,NA
fcp-trial,344,1288716,0.0-319.0-0.0,voc_e2,12129,"[{""event"":""fullscreenenter"",""trial"":1,""time"":2650}]",NA,NA,NA,NA,NA,0,#741CD8,#D8271C,10,0,1,38,1,709.9999999997672,37,1,282,10,1,experiment,NA,NA,2,0.5,0.5,4,5,309,7,NA
fcp-trial,345,1291504,0.0-320.0-0.0,voc_e2,12129,"[{""event"":""fullscreenenter"",""trial"":1,""time"":2650}]",NA,NA,NA,NA,NA,4,#FA92F8,#1CD855,10,0,1,40,0,957,37,1,319,10,1,experiment,NA,NA,1,0.7,0.3,2,3,310,7,NA
fcp-trial,346,1294199,0.0-321.0-0.0,voc_e2,12129,"[{""event"":""fullscreenenter"",""trial"":1,""time"":2650}]",NA,NA,NA,NA,NA,4,#3386FF,#D89F1C,10,0,1,40,0,752,39,0,433,0,0,experiment,NA,NA,0,0.9,0.1,0,1,311,7,NA
fcp-trial,347,1296681,0.0-322.0-0.0,voc_e2,12129,"[{""event"":""fullscreenenter"",""trial"":1,""time"":2650}]",NA,NA,NA,NA,NA,6,#D8271C,#741CD8,10,0,0,40,0,674,39,0,299,0,1,experiment,NA,NA,2,0.5,0.5,5,4,312,7,NA
fcp-trial,348,1300275,0.0-323.0-0.0,voc_e2,12129,"[{""event"":""fullscreenenter"",""trial"":1,""time"":2650}]",NA,NA,NA,NA,NA,2,#FA92F8,#1CD855,10,10,1,38,1,1618,37,1,466,10,1,experiment,NA,NA,1,0.7,0.3,2,3,313,7,NA
fcp-trial,349,1302848,0.0-324.0-0.0,voc_e2,12129,"[{""event"":""fullscreenenter"",""trial"":1,""time"":2650}]",NA,NA,NA,NA,NA,3,#D8271C,#741CD8,10,0,0,40,0,610,37,1,443.00000000023283,10,0,experiment,NA,NA,2,0.5,0.5,5,4,314,7,NA
fcp-trial,350,1305414,0.0-325.0-0.0,voc_e2,12129,"[{""event"":""fullscreenenter"",""trial"":1,""time"":2650}]",NA,NA,NA,NA,NA,4,#D8271C,#741CD8,10,0,0,40,0,701,37,1,356,10,0,experiment,NA,NA,2,0.5,0.5,5,4,315,7,NA
audio-instructions,351,1311831,0.0-326.0,voc_e2,12129,"[{""event"":""fullscreenenter"",""trial"":1,""time"":2650}]",NA,781,static/audio/finished.wav,NA,0,NA,NA,NA,NA,NA,NA,NA,NA,NA,NA,NA,NA,NA,NA,NA,NA,NA,NA,NA,NA,NA,NA,NA,NA,NA
audio-instructions,352,1323234,0.0-327.0-0.0,voc_e2,12129,"[{""event"":""fullscreenenter"",""trial"":1,""time"":2650}]",NA,564,static/audio/explicit1.wav,NA,0,NA,NA,NA,NA,NA,NA,NA,NA,NA,NA,NA,NA,NA,NA,NA,NA,NA,NA,NA,NA,NA,NA,NA,NA,NA
audio-instructions,353,1331246,0.0-327.0-1.0,voc_e2,12129,"[{""event"":""fullscreenenter"",""trial"":1,""time"":2650}]",NA,415,static/audio/explicit2.wav,NA,0,NA,NA,NA,NA,NA,NA,NA,NA,NA,NA,NA,NA,NA,NA,NA,NA,NA,NA,NA,NA,NA,NA,NA,NA,NA
image-slider-response,354,1338249,0.0-328.0,voc_e2,12129,"[{""event"":""fullscreenenter"",""trial"":1,""time"":2650}]",NA,6997,static/img/machines/machine6.png,NA,NA,NA,NA,NA,NA,NA,NA,NA,NA,NA,NA,NA,NA,NA,NA,explicit,NA,NA,NA,NA,NA,NA,NA,NA,NA,5
image-slider-response,355,1342563,0.0-329.0,voc_e2,12129,"[{""event"":""fullscreenenter"",""trial"":1,""time"":2650}]",NA,4312,static/img/machines/machine4.png,NA,NA,NA,NA,NA,NA,NA,NA,NA,NA,NA,NA,NA,NA,NA,NA,explicit,NA,NA,NA,NA,NA,NA,NA,NA,NA,3
image-slider-response,356,1345346,0.0-330.0,voc_e2,12129,"[{""event"":""fullscreenenter"",""trial"":1,""time"":2650}]",NA,2780,static/img/machines/machine5.png,NA,NA,NA,NA,NA,NA,NA,NA,NA,NA,NA,NA,NA,NA,NA,NA,explicit,NA,NA,NA,NA,NA,NA,NA,NA,NA,8
image-slider-response,357,1352646,0.0-331.0,voc_e2,12129,"[{""event"":""fullscreenenter"",""trial"":1,""time"":2650}]",NA,7297,static/img/machines/machine1.png,NA,NA,NA,NA,NA,NA,NA,NA,NA,NA,NA,NA,NA,NA,NA,NA,explicit,NA,NA,NA,NA,NA,NA,NA,NA,NA,3
image-slider-response,358,1356946,0.0-332.0,voc_e2,12129,"[{""event"":""fullscreenenter"",""trial"":1,""time"":2650}]",NA,4296,static/img/machines/machine2.png,NA,NA,NA,NA,NA,NA,NA,NA,NA,NA,NA,NA,NA,NA,NA,NA,explicit,NA,NA,NA,NA,NA,NA,NA,NA,NA,6
image-slider-response,359,1360063,0.0-333.0,voc_e2,12129,"[{""event"":""fullscreenenter"",""trial"":1,""time"":2650}]",NA,3113,static/img/machines/machine3.png,NA,NA,NA,NA,NA,NA,NA,NA,NA,NA,NA,NA,NA,NA,NA,NA,explicit,NA,NA,NA,NA,NA,NA,NA,NA,NA,8
