trial_type,trial_index,time_elapsed,internal_node_id,task_version,subject_id,interactions,success,rt,stimulus,key_press,button_pressed,offer,arcade_color_L,arcade_color_R,arcade_outcome_L,arcade_outcome_R,correct,stage_1_key,stage_1_choice,stage_1_rt,stage_2_key,stage_2_choice,stage_2_rt,stage_3_outcome,accuracy,phase,responses,num_errors,context,reward_prob_L,reward_prob_R,arcade_id_L,arcade_id_R,trial,block,response
pavlovia,0,11,0.0-0.0,voc_e2,12149,[],NA,NA,NA,NA,NA,NA,NA,NA,NA,NA,NA,NA,NA,NA,NA,NA,NA,NA,NA,NA,NA,NA,NA,NA,NA,NA,NA,NA,NA,NA
fullscreen,1,2766,0.0-1.0,voc_e2,12149,"[{""event"":""fullscreenenter"",""trial"":1,""time"":1960}]",TRUE,NA,NA,NA,NA,NA,NA,NA,NA,NA,NA,NA,NA,NA,NA,NA,NA,NA,NA,NA,NA,NA,NA,NA,NA,NA,NA,NA,NA,NA
audio-keyboard-response,2,4822,0.0-2.0,voc_e2,12149,"[{""event"":""fullscreenenter"",""trial"":1,""time"":1960}]",NA,1724,static/audio/beep_loop.wav,32,NA,NA,NA,NA,NA,NA,NA,NA,NA,NA,NA,NA,NA,NA,NA,NA,NA,NA,NA,NA,NA,NA,NA,NA,NA,NA
audio-test,3,6008,0.0-3.0,voc_e2,12149,"[{""event"":""fullscreenenter"",""trial"":1,""time"":1960}]",NA,NA,static/audio/turtle.wav,NA,3,NA,NA,NA,NA,NA,NA,NA,NA,NA,NA,NA,NA,NA,NA,NA,NA,NA,NA,NA,NA,NA,NA,NA,NA,NA
audio-test,4,8145,0.0-4.0,voc_e2,12149,"[{""event"":""fullscreenenter"",""trial"":1,""time"":1960}]",NA,NA,static/audio/shark.wav,NA,2,NA,NA,NA,NA,NA,NA,NA,NA,NA,NA,NA,NA,NA,NA,NA,NA,NA,NA,NA,NA,NA,NA,NA,NA,NA
audio-instructions,5,14997,0.0-5.0-0.0,voc_e2,12149,"[{""event"":""fullscreenenter"",""trial"":1,""time"":1960}]",NA,1066.300000000745,static/audio/instructions1.wav,NA,0,NA,NA,NA,NA,NA,NA,NA,NA,NA,NA,NA,NA,NA,NA,NA,NA,NA,NA,NA,NA,NA,NA,NA,NA,NA
audio-instructions,6,22689,0.0-5.0-1.0,voc_e2,12149,"[{""event"":""fullscreenenter"",""trial"":1,""time"":1960}]",NA,950.6999999992548,static/audio/instructions2.wav,NA,0,NA,NA,NA,NA,NA,NA,NA,NA,NA,NA,NA,NA,NA,NA,NA,NA,NA,NA,NA,NA,NA,NA,NA,NA,NA
audio-instructions,7,29519,0.0-5.0-2.0,voc_e2,12149,"[{""event"":""fullscreenenter"",""trial"":1,""time"":1960}]",NA,1029.300000000745,static/audio/instructions3.wav,NA,0,NA,NA,NA,NA,NA,NA,NA,NA,NA,NA,NA,NA,NA,NA,NA,NA,NA,NA,NA,NA,NA,NA,NA,NA,NA
audio-instructions,8,44104,0.0-5.0-3.0,voc_e2,12149,"[{""event"":""fullscreenenter"",""trial"":1,""time"":1960}]",NA,1357.300000000745,static/audio/instructions4.wav,NA,0,NA,NA,NA,NA,NA,NA,NA,NA,NA,NA,NA,NA,NA,NA,NA,NA,NA,NA,NA,NA,NA,NA,NA,NA,NA
audio-instructions,9,54702,0.0-5.0-4.0,voc_e2,12149,"[{""event"":""fullscreenenter"",""trial"":1,""time"":1960}]",NA,1211.0999999996277,static/audio/instructions5.wav,NA,0,NA,NA,NA,NA,NA,NA,NA,NA,NA,NA,NA,NA,NA,NA,NA,NA,NA,NA,NA,NA,NA,NA,NA,NA,NA
fcp-practice,10,58147,0.0-5.0-5.0-0.0,voc_e2,12149,"[{""event"":""fullscreenenter"",""trial"":1,""time"":1960}]",NA,NA,NA,NA,NA,NA,#EDC948,#46d3c8,10,0,1,null,null,null,37,1,1924.7000000011176,10,1,practice,NA,NA,NA,NA,NA,NA,NA,NA,NA,NA
fcp-practice,11,60027,0.0-5.0-5.0-1.0,voc_e2,12149,"[{""event"":""fullscreenenter"",""trial"":1,""time"":1960}]",NA,NA,NA,NA,NA,NA,#EDC948,#46d3c8,10,0,1,null,null,null,37,1,374.8999999985099,10,1,practice,NA,NA,NA,NA,NA,NA,NA,NA,NA,NA
fcp-practice,12,61818,0.0-5.0-5.0-2.0,voc_e2,12149,"[{""event"":""fullscreenenter"",""trial"":1,""time"":1960}]",NA,NA,NA,NA,NA,NA,#EDC948,#46d3c8,0,10,1,null,null,null,37,1,287.40000000037253,0,1,practice,NA,NA,NA,NA,NA,NA,NA,NA,NA,NA
fcp-practice,13,63811,0.0-5.0-5.0-3.0,voc_e2,12149,"[{""event"":""fullscreenenter"",""trial"":1,""time"":1960}]",NA,NA,NA,NA,NA,NA,#EDC948,#46d3c8,10,0,1,null,null,null,37,1,488.19999999925494,10,1,practice,NA,NA,NA,NA,NA,NA,NA,NA,NA,NA
fcp-practice,14,65690,0.0-5.0-5.0-4.0,voc_e2,12149,"[{""event"":""fullscreenenter"",""trial"":1,""time"":1960}]",NA,NA,NA,NA,NA,NA,#EDC948,#46d3c8,10,0,1,null,null,null,37,1,374.8999999985099,10,1,practice,NA,NA,NA,NA,NA,NA,NA,NA,NA,NA
audio-instructions,15,86178,0.0-5.0-6.0,voc_e2,12149,"[{""event"":""fullscreenenter"",""trial"":1,""time"":1960}]",NA,2484.0999999996275,static/audio/instructions6.wav,NA,0,NA,NA,NA,NA,NA,NA,NA,NA,NA,NA,NA,NA,NA,NA,NA,NA,NA,NA,NA,NA,NA,NA,NA,NA,NA
audio-instructions,16,105728,0.0-5.0-7.0,voc_e2,12149,"[{""event"":""fullscreenenter"",""trial"":1,""time"":1960}]",NA,346.5,static/audio/instructions7.wav,NA,0,NA,NA,NA,NA,NA,NA,NA,NA,NA,NA,NA,NA,NA,NA,NA,NA,NA,NA,NA,NA,NA,NA,NA,NA,NA
audio-instructions,17,116941,0.0-5.0-8.0,voc_e2,12149,"[{""event"":""fullscreenenter"",""trial"":1,""time"":1960}]",NA,1744.2999999988824,static/audio/instructions8.wav,NA,0,NA,NA,NA,NA,NA,NA,NA,NA,NA,NA,NA,NA,NA,NA,NA,NA,NA,NA,NA,NA,NA,NA,NA,NA,NA
fcp-comprehension,18,123194,0.0-5.0-9.0,voc_e2,12149,"[{""event"":""fullscreenenter"",""trial"":1,""time"":1960}]",NA,6250.9000000003725,NA,NA,NA,NA,NA,NA,NA,NA,NA,NA,NA,NA,NA,NA,NA,NA,NA,NA,"true,true",0,NA,NA,NA,NA,NA,NA,NA,NA
audio-instructions,19,129817,0.0-6.0-0.0,voc_e2,12149,"[{""event"":""fullscreenenter"",""trial"":1,""time"":1960}]",NA,1077.300000000745,static/audio/instructions9.wav,NA,0,NA,NA,NA,NA,NA,NA,NA,NA,NA,NA,NA,NA,NA,NA,NA,NA,NA,NA,NA,NA,NA,NA,NA,NA,NA
audio-instructions,20,142762,0.0-6.0-1.0,voc_e2,12149,"[{""event"":""fullscreenenter"",""trial"":1,""time"":1960}]",NA,827.5,static/audio/instructions10.wav,NA,0,NA,NA,NA,NA,NA,NA,NA,NA,NA,NA,NA,NA,NA,NA,NA,NA,NA,NA,NA,NA,NA,NA,NA,NA,NA
fcp-trial,21,154425,0.0-6.0-2.0,voc_e2,12149,"[{""event"":""fullscreenenter"",""trial"":1,""time"":1960}]",NA,NA,NA,NA,NA,0,#EDC948,#46d3c8,10,10,1,38,1,8299.10000000149,37,1,1854,10,1,practice,NA,NA,NA,NA,NA,NA,NA,NA,NA,NA
audio-instructions,22,167600,0.0-6.0-3.0,voc_e2,12149,"[{""event"":""fullscreenenter"",""trial"":1,""time"":1960}]",NA,2166.9000000003725,static/audio/instructions11.wav,NA,0,NA,NA,NA,NA,NA,NA,NA,NA,NA,NA,NA,NA,NA,NA,NA,NA,NA,NA,NA,NA,NA,NA,NA,NA,NA
fcp-trial,23,173527,0.0-6.0-4.0,voc_e2,12149,"[{""event"":""fullscreenenter"",""trial"":1,""time"":1960}]",NA,NA,NA,NA,NA,6,#EDC948,#46d3c8,10,10,1,40,0,2281.199999999255,39,0,2142.5999999996275,10,0,practice,NA,NA,NA,NA,NA,NA,NA,NA,NA,NA
audio-instructions,24,193665,0.0-6.0-5.0,voc_e2,12149,"[{""event"":""fullscreenenter"",""trial"":1,""time"":1960}]",NA,1448.7999999988824,static/audio/instructions12.wav,NA,0,NA,NA,NA,NA,NA,NA,NA,NA,NA,NA,NA,NA,NA,NA,NA,NA,NA,NA,NA,NA,NA,NA,NA,NA,NA
audio-instructions,25,203098,0.0-6.0-6.0,voc_e2,12149,"[{""event"":""fullscreenenter"",""trial"":1,""time"":1960}]",NA,1837.4000000003723,static/audio/instructions13.wav,NA,0,NA,NA,NA,NA,NA,NA,NA,NA,NA,NA,NA,NA,NA,NA,NA,NA,NA,NA,NA,NA,NA,NA,NA,NA,NA
audio-instructions,26,213213,0.0-6.0-7.0,voc_e2,12149,"[{""event"":""fullscreenenter"",""trial"":1,""time"":1960}]",NA,1666.0999999996277,static/audio/instructions14.wav,NA,0,NA,NA,NA,NA,NA,NA,NA,NA,NA,NA,NA,NA,NA,NA,NA,NA,NA,NA,NA,NA,NA,NA,NA,NA,NA
audio-instructions,27,220715,0.0-7.0-0.0,voc_e2,12149,"[{""event"":""fullscreenenter"",""trial"":1,""time"":1960}]",NA,588.3000000007451,static/audio/instructions15.wav,NA,0,NA,NA,NA,NA,NA,NA,NA,NA,NA,NA,NA,NA,NA,NA,NA,NA,NA,NA,NA,NA,NA,NA,NA,NA,NA
audio-instructions,28,228473,0.0-7.0-1.0,voc_e2,12149,"[{""event"":""fullscreenenter"",""trial"":1,""time"":1960}]",NA,933.3000000007452,static/audio/instructions16.wav,NA,0,NA,NA,NA,NA,NA,NA,NA,NA,NA,NA,NA,NA,NA,NA,NA,NA,NA,NA,NA,NA,NA,NA,NA,NA,NA
audio-instructions,29,239616,0.0-7.0-2.0,voc_e2,12149,"[{""event"":""fullscreenenter"",""trial"":1,""time"":1960}]",NA,3467.800000000745,static/audio/instructions17.wav,NA,0,NA,NA,NA,NA,NA,NA,NA,NA,NA,NA,NA,NA,NA,NA,NA,NA,NA,NA,NA,NA,NA,NA,NA,NA,NA
audio-instructions,30,251953,0.0-7.0-3.0,voc_e2,12149,"[{""event"":""fullscreenenter"",""trial"":1,""time"":1960}]",NA,4572.800000000745,static/audio/instructions18.wav,NA,0,NA,NA,NA,NA,NA,NA,NA,NA,NA,NA,NA,NA,NA,NA,NA,NA,NA,NA,NA,NA,NA,NA,NA,NA,NA
audio-instructions,31,259398,0.0-7.0-4.0,voc_e2,12149,"[{""event"":""fullscreenenter"",""trial"":1,""time"":1960}]",NA,703.9000000003725,static/audio/instructions19.wav,NA,0,NA,NA,NA,NA,NA,NA,NA,NA,NA,NA,NA,NA,NA,NA,NA,NA,NA,NA,NA,NA,NA,NA,NA,NA,NA
fcp-comprehension,32,268290,0.0-7.0-5.0,voc_e2,12149,"[{""event"":""fullscreenenter"",""trial"":1,""time"":1960}]",NA,8890.400000000373,NA,NA,NA,NA,NA,NA,NA,NA,NA,NA,NA,NA,NA,NA,NA,NA,NA,NA,"false,false,false,true",0,NA,NA,NA,NA,NA,NA,NA,NA
audio-instructions,33,281228,0.0-8.0,voc_e2,12149,"[{""event"":""fullscreenenter"",""trial"":1,""time"":1960}]",NA,3720.099999999627,static/audio/ready.wav,NA,0,NA,NA,NA,NA,NA,NA,NA,NA,NA,NA,NA,NA,NA,NA,NA,NA,NA,NA,NA,NA,NA,NA,NA,NA,NA
fcp-trial,34,284990,0.0-9.0-0.0,voc_e2,12149,"[{""event"":""fullscreenenter"",""trial"":1,""time"":1960}]",NA,NA,NA,NA,NA,3,#D8271C,#741CD8,10,10,0,38,1,1091,39,0,1167.0999999996275,10,1,experiment,NA,NA,2,0.5,0.5,5,4,1,1,NA
fcp-trial,35,288574,0.0-10.0-0.0,voc_e2,12149,"[{""event"":""fullscreenenter"",""trial"":1,""time"":1960}]",NA,NA,NA,NA,NA,6,#1CD855,#FA92F8,0,10,0,40,0,1360.699999999255,39,0,719,10,1,experiment,NA,NA,0,0.1,0.9,1,0,2,1,NA
fcp-trial,36,292110,0.0-11.0-0.0,voc_e2,12149,"[{""event"":""fullscreenenter"",""trial"":1,""time"":1960}]",NA,NA,NA,NA,NA,4,#FA92F8,#1CD855,10,0,1,38,1,1368.199999999255,37,1,662,10,1,experiment,NA,NA,0,0.9,0.1,0,1,3,1,NA
fcp-trial,37,297088,0.0-12.0-0.0,voc_e2,12149,"[{""event"":""fullscreenenter"",""trial"":1,""time"":1960}]",NA,NA,NA,NA,NA,3,#1CD855,#FA92F8,0,10,0,40,0,2649.2999999988824,37,1,824.4000000003725,0,0,experiment,NA,NA,0,0.1,0.9,1,0,4,1,NA
fcp-trial,38,300983,0.0-13.0-0.0,voc_e2,12149,"[{""event"":""fullscreenenter"",""trial"":1,""time"":1960}]",NA,NA,NA,NA,NA,0,#D89F1C,#3386FF,10,0,1,38,1,1327.300000000745,37,1,1060.0999999996275,10,1,experiment,NA,NA,1,0.7,0.3,2,3,5,1,NA
fcp-trial,39,303878,0.0-14.0-0.0,voc_e2,12149,"[{""event"":""fullscreenenter"",""trial"":1,""time"":1960}]",NA,NA,NA,NA,NA,6,#D8271C,#741CD8,0,10,0,40,0,775.7999999988824,39,0,615,10,1,experiment,NA,NA,2,0.5,0.5,5,4,6,1,NA
fcp-trial,40,306686,0.0-15.0-0.0,voc_e2,12149,"[{""event"":""fullscreenenter"",""trial"":1,""time"":1960}]",NA,NA,NA,NA,NA,4,#D8271C,#741CD8,0,10,0,38,1,680.6000000014901,39,0,622.5,10,1,experiment,NA,NA,2,0.5,0.5,5,4,7,1,NA
fcp-trial,41,310010,0.0-16.0-0.0,voc_e2,12149,"[{""event"":""fullscreenenter"",""trial"":1,""time"":1960}]",NA,NA,NA,NA,NA,2,#1CD855,#FA92F8,0,10,0,40,0,1351.8999999985099,39,0,466.90000000037253,10,1,experiment,NA,NA,0,0.1,0.9,1,0,8,1,NA
fcp-trial,42,313248,0.0-17.0-0.0,voc_e2,12149,"[{""event"":""fullscreenenter"",""trial"":1,""time"":1960}]",NA,NA,NA,NA,NA,1,#D89F1C,#3386FF,10,10,1,38,1,1372.7999999988824,37,1,357.7000000011176,10,1,experiment,NA,NA,1,0.7,0.3,2,3,9,1,NA
fcp-trial,43,315767,0.0-18.0-0.0,voc_e2,12149,"[{""event"":""fullscreenenter"",""trial"":1,""time"":1960}]",NA,NA,NA,NA,NA,5,#D89F1C,#3386FF,10,0,1,40,0,470.90000000037253,37,1,542.8000000007451,10,1,experiment,NA,NA,1,0.7,0.3,2,3,10,1,NA
fcp-trial,44,318964,0.0-19.0-0.0,voc_e2,12149,"[{""event"":""fullscreenenter"",""trial"":1,""time"":1960}]",NA,NA,NA,NA,NA,1,#1CD855,#FA92F8,10,0,0,38,1,1304.4000000003725,39,0,386.80000000074506,0,1,experiment,NA,NA,0,0.1,0.9,1,0,11,1,NA
fcp-trial,45,321919,0.0-20.0-0.0,voc_e2,12149,"[{""event"":""fullscreenenter"",""trial"":1,""time"":1960}]",NA,NA,NA,NA,NA,0,#D8271C,#741CD8,10,0,0,38,1,1050.7999999988824,37,1,398,10,0,experiment,NA,NA,2,0.5,0.5,5,4,12,1,NA
fcp-trial,46,324766,0.0-21.0-0.0,voc_e2,12149,"[{""event"":""fullscreenenter"",""trial"":1,""time"":1960}]",NA,NA,NA,NA,NA,3,#3386FF,#D89F1C,0,0,0,40,0,744,37,1,599,0,0,experiment,NA,NA,1,0.3,0.7,3,2,13,1,NA
fcp-trial,47,327400,0.0-22.0-0.0,voc_e2,12149,"[{""event"":""fullscreenenter"",""trial"":1,""time"":1960}]",NA,NA,NA,NA,NA,5,#1CD855,#FA92F8,0,10,0,38,1,744.6000000014901,39,0,385.59999999962747,10,1,experiment,NA,NA,0,0.1,0.9,1,0,14,1,NA
fcp-trial,48,330072,0.0-23.0-0.0,voc_e2,12149,"[{""event"":""fullscreenenter"",""trial"":1,""time"":1960}]",NA,NA,NA,NA,NA,4,#D89F1C,#3386FF,10,0,1,40,0,670,39,0,494.40000000037253,0,0,experiment,NA,NA,1,0.7,0.3,2,3,15,1,NA
fcp-trial,49,333109,0.0-24.0-0.0,voc_e2,12149,"[{""event"":""fullscreenenter"",""trial"":1,""time"":1960}]",NA,NA,NA,NA,NA,1,#741CD8,#D8271C,10,0,1,40,0,790.6999999992549,39,0,742.6999999992549,0,0,experiment,NA,NA,2,0.5,0.5,4,5,16,1,NA
fcp-trial,50,335703,0.0-25.0-0.0,voc_e2,12149,"[{""event"":""fullscreenenter"",""trial"":1,""time"":1960}]",NA,NA,NA,NA,NA,5,#741CD8,#D8271C,0,0,1,40,0,649,37,1,437.7999999988824,0,1,experiment,NA,NA,2,0.5,0.5,4,5,17,1,NA
fcp-trial,51,338327,0.0-26.0-0.0,voc_e2,12149,"[{""event"":""fullscreenenter"",""trial"":1,""time"":1960}]",NA,NA,NA,NA,NA,0,#1CD855,#FA92F8,0,10,0,40,0,375.7000000011176,37,1,743.2999999988824,0,0,experiment,NA,NA,0,0.1,0.9,1,0,18,1,NA
fcp-trial,52,340541,0.0-27.0-0.0,voc_e2,12149,"[{""event"":""fullscreenenter"",""trial"":1,""time"":1960}]",NA,NA,NA,NA,NA,2,#741CD8,#D8271C,10,10,1,38,1,382.2999999988824,39,0,325.59999999962747,10,0,experiment,NA,NA,2,0.5,0.5,4,5,19,1,NA
fcp-trial,53,344305,0.0-28.0-0.0,voc_e2,12149,"[{""event"":""fullscreenenter"",""trial"":1,""time"":1960}]",NA,NA,NA,NA,NA,6,#3386FF,#D89F1C,0,0,0,40,0,1824.8999999985099,39,0,432.90000000037253,0,1,experiment,NA,NA,1,0.3,0.7,3,2,20,1,NA
fcp-trial,54,347008,0.0-29.0-0.0,voc_e2,12149,"[{""event"":""fullscreenenter"",""trial"":1,""time"":1960}]",NA,NA,NA,NA,NA,2,#D89F1C,#3386FF,0,0,1,38,1,917.5,37,1,278.59999999962747,0,1,experiment,NA,NA,1,0.7,0.3,2,3,21,1,NA
fcp-trial,55,349688,0.0-30.0-0.0,voc_e2,12149,"[{""event"":""fullscreenenter"",""trial"":1,""time"":1960}]",NA,NA,NA,NA,NA,1,#FA92F8,#1CD855,10,0,1,38,1,872,37,1,303.5,10,1,experiment,NA,NA,0,0.9,0.1,0,1,22,1,NA
fcp-trial,56,352663,0.0-31.0-0.0,voc_e2,12149,"[{""event"":""fullscreenenter"",""trial"":1,""time"":1960}]",NA,NA,NA,NA,NA,6,#D89F1C,#3386FF,0,0,1,40,0,1014.0999999996275,39,0,454.09999999962747,0,0,experiment,NA,NA,1,0.7,0.3,2,3,23,1,NA
fcp-trial,57,355695,0.0-32.0-0.0,voc_e2,12149,"[{""event"":""fullscreenenter"",""trial"":1,""time"":1960}]",NA,NA,NA,NA,NA,5,#D8271C,#741CD8,0,10,0,38,1,1117,37,1,407.09999999962747,0,0,experiment,NA,NA,2,0.5,0.5,5,4,24,1,NA
fcp-trial,58,357941,0.0-33.0-0.0,voc_e2,12149,"[{""event"":""fullscreenenter"",""trial"":1,""time"":1960}]",NA,NA,NA,NA,NA,4,#D8271C,#741CD8,10,10,0,38,1,453.30000000074506,39,0,286.90000000037253,10,1,experiment,NA,NA,2,0.5,0.5,5,4,25,1,NA
fcp-trial,59,360241,0.0-34.0-0.0,voc_e2,12149,"[{""event"":""fullscreenenter"",""trial"":1,""time"":1960}]",NA,NA,NA,NA,NA,2,#D8271C,#741CD8,0,0,0,38,1,512.5999999996275,39,0,281.5,0,1,experiment,NA,NA,2,0.5,0.5,5,4,26,1,NA
fcp-trial,60,362458,0.0-35.0-0.0,voc_e2,12149,"[{""event"":""fullscreenenter"",""trial"":1,""time"":1960}]",NA,NA,NA,NA,NA,3,#FA92F8,#1CD855,10,10,1,38,1,373.5,37,1,338.5,10,1,experiment,NA,NA,0,0.9,0.1,0,1,27,1,NA
fcp-trial,61,365042,0.0-36.0-0.0,voc_e2,12149,"[{""event"":""fullscreenenter"",""trial"":1,""time"":1960}]",NA,NA,NA,NA,NA,5,#D89F1C,#3386FF,0,10,1,38,1,827.7999999988824,37,1,251.19999999925494,0,1,experiment,NA,NA,1,0.7,0.3,2,3,28,1,NA
fcp-trial,62,367375,0.0-37.0-0.0,voc_e2,12149,"[{""event"":""fullscreenenter"",""trial"":1,""time"":1960}]",NA,NA,NA,NA,NA,1,#3386FF,#D89F1C,0,10,0,40,0,372.2999999988824,39,0,457.09999999962747,10,1,experiment,NA,NA,1,0.3,0.7,3,2,29,1,NA
fcp-trial,63,369743,0.0-38.0-0.0,voc_e2,12149,"[{""event"":""fullscreenenter"",""trial"":1,""time"":1960}]",NA,NA,NA,NA,NA,1,#D8271C,#741CD8,10,0,0,40,0,430.90000000037253,37,1,430.5,10,0,experiment,NA,NA,2,0.5,0.5,5,4,30,1,NA
fcp-trial,64,372263,0.0-39.0-0.0,voc_e2,12149,"[{""event"":""fullscreenenter"",""trial"":1,""time"":1960}]",NA,NA,NA,NA,NA,3,#D89F1C,#3386FF,0,0,1,40,0,494.30000000074506,37,1,517.0999999996275,0,1,experiment,NA,NA,1,0.7,0.3,2,3,31,1,NA
fcp-trial,65,374524,0.0-40.0-0.0,voc_e2,12149,"[{""event"":""fullscreenenter"",""trial"":1,""time"":1960}]",NA,NA,NA,NA,NA,5,#1CD855,#FA92F8,0,10,0,40,0,262.40000000037253,37,1,494.5,0,0,experiment,NA,NA,0,0.1,0.9,1,0,32,1,NA
fcp-trial,66,376805,0.0-41.0-0.0,voc_e2,12149,"[{""event"":""fullscreenenter"",""trial"":1,""time"":1960}]",NA,NA,NA,NA,NA,3,#741CD8,#D8271C,0,10,1,40,0,313,39,0,464.59999999962747,10,0,experiment,NA,NA,2,0.5,0.5,4,5,33,1,NA
fcp-trial,67,379117,0.0-42.0-0.0,voc_e2,12149,"[{""event"":""fullscreenenter"",""trial"":1,""time"":1960}]",NA,NA,NA,NA,NA,2,#3386FF,#D89F1C,0,0,0,38,1,376.2999999988824,37,1,431.5,0,0,experiment,NA,NA,1,0.3,0.7,3,2,34,1,NA
fcp-trial,68,381502,0.0-43.0-0.0,voc_e2,12149,"[{""event"":""fullscreenenter"",""trial"":1,""time"":1960}]",NA,NA,NA,NA,NA,4,#FA92F8,#1CD855,10,0,1,40,0,480.59999999962747,39,0,398.59999999962747,0,0,experiment,NA,NA,0,0.9,0.1,0,1,35,1,NA
fcp-trial,69,383763,0.0-44.0-0.0,voc_e2,12149,"[{""event"":""fullscreenenter"",""trial"":1,""time"":1960}]",NA,NA,NA,NA,NA,4,#3386FF,#D89F1C,0,10,0,38,1,407.90000000037253,39,0,344.40000000037253,10,1,experiment,NA,NA,1,0.3,0.7,3,2,36,1,NA
fcp-trial,70,386048,0.0-45.0-0.0,voc_e2,12149,"[{""event"":""fullscreenenter"",""trial"":1,""time"":1960}]",NA,NA,NA,NA,NA,6,#741CD8,#D8271C,10,0,1,38,1,443.40000000037253,37,1,334.5,10,1,experiment,NA,NA,2,0.5,0.5,4,5,37,1,NA
fcp-trial,71,388222,0.0-46.0-0.0,voc_e2,12149,"[{""event"":""fullscreenenter"",""trial"":1,""time"":1960}]",NA,NA,NA,NA,NA,0,#3386FF,#D89F1C,0,0,0,38,1,381.90000000037253,39,0,287.90000000037253,0,1,experiment,NA,NA,1,0.3,0.7,3,2,38,1,NA
fcp-trial,72,390485,0.0-47.0-0.0,voc_e2,12149,"[{""event"":""fullscreenenter"",""trial"":1,""time"":1960}]",NA,NA,NA,NA,NA,2,#1CD855,#FA92F8,0,10,0,38,1,359.5,39,0,398.90000000037253,10,1,experiment,NA,NA,0,0.1,0.9,1,0,39,1,NA
fcp-trial,73,392900,0.0-48.0-0.0,voc_e2,12149,"[{""event"":""fullscreenenter"",""trial"":1,""time"":1960}]",NA,NA,NA,NA,NA,0,#1CD855,#FA92F8,10,10,0,38,1,624.5999999996275,39,0,287.3999999985099,10,1,experiment,NA,NA,0,0.1,0.9,1,0,40,1,NA
fcp-trial,74,395237,0.0-49.0-0.0,voc_e2,12149,"[{""event"":""fullscreenenter"",""trial"":1,""time"":1960}]",NA,NA,NA,NA,NA,6,#1CD855,#FA92F8,0,10,0,38,1,457.59999999962747,39,0,374.09999999962747,10,1,experiment,NA,NA,0,0.1,0.9,1,0,41,1,NA
fcp-trial,75,397664,0.0-50.0-0.0,voc_e2,12149,"[{""event"":""fullscreenenter"",""trial"":1,""time"":1960}]",NA,NA,NA,NA,NA,0,#741CD8,#D8271C,10,10,1,38,1,448,39,0,472.2000000011176,10,0,experiment,NA,NA,2,0.5,0.5,4,5,42,1,NA
fcp-trial,76,401605,0.0-51.0-0.0,voc_e2,12149,"[{""event"":""fullscreenenter"",""trial"":1,""time"":1960}]",NA,NA,NA,NA,NA,0,#1CD855,#FA92F8,0,10,0,40,0,581.5999999996275,37,1,1854.800000000745,0,0,experiment,NA,NA,0,0.1,0.9,1,0,43,1,NA
fcp-trial,77,404326,0.0-52.0-0.0,voc_e2,12149,"[{""event"":""fullscreenenter"",""trial"":1,""time"":1960}]",NA,NA,NA,NA,NA,3,#3386FF,#D89F1C,10,10,0,38,1,823.8999999985099,39,0,389.30000000074506,10,1,experiment,NA,NA,1,0.3,0.7,3,2,44,1,NA
fcp-trial,78,407445,0.0-53.0-0.0,voc_e2,12149,"[{""event"":""fullscreenenter"",""trial"":1,""time"":1960}]",NA,NA,NA,NA,NA,6,#FA92F8,#1CD855,10,10,1,40,0,1255.9000000003725,39,0,358.8999999985099,10,0,experiment,NA,NA,0,0.9,0.1,0,1,45,1,NA
fcp-trial,79,410829,0.0-54.0-0.0,voc_e2,12149,"[{""event"":""fullscreenenter"",""trial"":1,""time"":1960}]",NA,NA,NA,NA,NA,6,#D89F1C,#3386FF,10,10,1,40,0,1408.5999999996275,37,1,470.5,10,1,experiment,NA,NA,1,0.7,0.3,2,3,46,2,NA
fcp-trial,80,413585,0.0-55.0-0.0,voc_e2,12149,"[{""event"":""fullscreenenter"",""trial"":1,""time"":1960}]",NA,NA,NA,NA,NA,4,#D89F1C,#3386FF,10,0,1,38,1,904.4000000003725,39,0,347.30000000074506,0,0,experiment,NA,NA,1,0.7,0.3,2,3,47,2,NA
fcp-trial,81,416645,0.0-56.0-0.0,voc_e2,12149,"[{""event"":""fullscreenenter"",""trial"":1,""time"":1960}]",NA,NA,NA,NA,NA,3,#D8271C,#741CD8,0,10,0,38,1,475,39,0,1078.7999999988824,10,1,experiment,NA,NA,2,0.5,0.5,5,4,48,2,NA
fcp-trial,82,419654,0.0-57.0-0.0,voc_e2,12149,"[{""event"":""fullscreenenter"",""trial"":1,""time"":1960}]",NA,NA,NA,NA,NA,3,#FA92F8,#1CD855,10,0,1,38,1,1247.7000000011176,37,1,256.40000000037253,10,1,experiment,NA,NA,0,0.9,0.1,0,1,49,2,NA
fcp-trial,83,422643,0.0-58.0-0.0,voc_e2,12149,"[{""event"":""fullscreenenter"",""trial"":1,""time"":1960}]",NA,NA,NA,NA,NA,0,#D8271C,#741CD8,10,0,0,38,1,687.2999999988824,39,0,797.0999999996275,0,1,experiment,NA,NA,2,0.5,0.5,5,4,50,2,NA
fcp-trial,84,425521,0.0-59.0-0.0,voc_e2,12149,"[{""event"":""fullscreenenter"",""trial"":1,""time"":1960}]",NA,NA,NA,NA,NA,5,#3386FF,#D89F1C,0,10,0,38,1,689.6999999992549,39,0,681,10,1,experiment,NA,NA,1,0.3,0.7,3,2,51,2,NA
fcp-trial,85,428839,0.0-60.0-0.0,voc_e2,12149,"[{""event"":""fullscreenenter"",""trial"":1,""time"":1960}]",NA,NA,NA,NA,NA,6,#741CD8,#D8271C,0,10,1,38,1,1539.2999999988824,39,0,274.2999999988824,10,0,experiment,NA,NA,2,0.5,0.5,4,5,52,2,NA
fcp-trial,86,431925,0.0-61.0-0.0,voc_e2,12149,"[{""event"":""fullscreenenter"",""trial"":1,""time"":1960}]",NA,NA,NA,NA,NA,5,#FA92F8,#1CD855,10,0,1,38,1,549.8000000007451,37,1,1031.2999999988824,10,1,experiment,NA,NA,0,0.9,0.1,0,1,53,2,NA
fcp-trial,87,434350,0.0-62.0-0.0,voc_e2,12149,"[{""event"":""fullscreenenter"",""trial"":1,""time"":1960}]",NA,NA,NA,NA,NA,4,#741CD8,#D8271C,10,0,1,40,0,368.3999999985099,37,1,550,10,1,experiment,NA,NA,2,0.5,0.5,4,5,54,2,NA
fcp-trial,88,437177,0.0-63.0-0.0,voc_e2,12149,"[{""event"":""fullscreenenter"",""trial"":1,""time"":1960}]",NA,NA,NA,NA,NA,2,#D8271C,#741CD8,10,10,0,38,1,935.2000000011176,37,1,387.40000000037253,10,0,experiment,NA,NA,2,0.5,0.5,5,4,55,2,NA
fcp-trial,89,439501,0.0-64.0-0.0,voc_e2,12149,"[{""event"":""fullscreenenter"",""trial"":1,""time"":1960}]",NA,NA,NA,NA,NA,1,#D89F1C,#3386FF,10,10,1,40,0,340.90000000037253,39,0,478.59999999962747,10,0,experiment,NA,NA,1,0.7,0.3,2,3,56,2,NA
fcp-trial,90,441743,0.0-65.0-0.0,voc_e2,12149,"[{""event"":""fullscreenenter"",""trial"":1,""time"":1960}]",NA,NA,NA,NA,NA,1,#1CD855,#FA92F8,10,10,0,40,0,400,39,0,337.2999999988824,10,1,experiment,NA,NA,0,0.1,0.9,1,0,57,2,NA
fcp-trial,91,444661,0.0-66.0-0.0,voc_e2,12149,"[{""event"":""fullscreenenter"",""trial"":1,""time"":1960}]",NA,NA,NA,NA,NA,1,#741CD8,#D8271C,10,10,1,40,0,829.3000000007451,39,0,582.9000000003725,10,0,experiment,NA,NA,2,0.5,0.5,4,5,58,2,NA
fcp-trial,92,447469,0.0-67.0-0.0,voc_e2,12149,"[{""event"":""fullscreenenter"",""trial"":1,""time"":1960}]",NA,NA,NA,NA,NA,2,#3386FF,#D89F1C,0,0,0,38,1,977.1999999992549,37,1,325.90000000037253,0,0,experiment,NA,NA,1,0.3,0.7,3,2,59,2,NA
fcp-trial,93,449853,0.0-68.0-0.0,voc_e2,12149,"[{""event"":""fullscreenenter"",""trial"":1,""time"":1960}]",NA,NA,NA,NA,NA,0,#3386FF,#D89F1C,0,0,0,38,1,600.2999999988824,39,0,278,0,1,experiment,NA,NA,1,0.3,0.7,3,2,60,2,NA
fcp-trial,94,452886,0.0-69.0-0.0,voc_e2,12149,"[{""event"":""fullscreenenter"",""trial"":1,""time"":1960}]",NA,NA,NA,NA,NA,5,#741CD8,#D8271C,10,0,1,40,0,1103.4000000003725,39,0,422.40000000037253,0,0,experiment,NA,NA,2,0.5,0.5,4,5,61,2,NA
fcp-trial,95,455533,0.0-70.0-0.0,voc_e2,12149,"[{""event"":""fullscreenenter"",""trial"":1,""time"":1960}]",NA,NA,NA,NA,NA,2,#1CD855,#FA92F8,0,0,0,38,1,886.7000000011176,39,0,254.19999999925494,0,1,experiment,NA,NA,0,0.1,0.9,1,0,62,2,NA
fcp-trial,96,458718,0.0-71.0-0.0,voc_e2,12149,"[{""event"":""fullscreenenter"",""trial"":1,""time"":1960}]",NA,NA,NA,NA,NA,4,#FA92F8,#1CD855,10,0,1,38,1,640.7999999988824,37,1,1038,10,1,experiment,NA,NA,0,0.9,0.1,0,1,63,2,NA
fcp-trial,97,461773,0.0-72.0-0.0,voc_e2,12149,"[{""event"":""fullscreenenter"",""trial"":1,""time"":1960}]",NA,NA,NA,NA,NA,0,#3386FF,#D89F1C,0,0,0,38,1,1255.0999999996275,39,0,293.69999999925494,0,1,experiment,NA,NA,1,0.3,0.7,3,2,64,2,NA
fcp-trial,98,464357,0.0-73.0-0.0,voc_e2,12149,"[{""event"":""fullscreenenter"",""trial"":1,""time"":1960}]",NA,NA,NA,NA,NA,6,#D89F1C,#3386FF,10,0,1,38,1,758.3000000007451,39,0,317.7000000011176,0,0,experiment,NA,NA,1,0.7,0.3,2,3,65,2,NA
fcp-trial,99,467380,0.0-74.0-0.0,voc_e2,12149,"[{""event"":""fullscreenenter"",""trial"":1,""time"":1960}]",NA,NA,NA,NA,NA,5,#3386FF,#D89F1C,10,0,0,40,0,902.0999999996275,39,0,615,0,1,experiment,NA,NA,1,0.3,0.7,3,2,66,2,NA
fcp-trial,100,470662,0.0-75.0-0.0,voc_e2,12149,"[{""event"":""fullscreenenter"",""trial"":1,""time"":1960}]",NA,NA,NA,NA,NA,4,#D8271C,#741CD8,0,10,0,40,0,1256.3999999985099,37,1,519.5999999996275,0,0,experiment,NA,NA,2,0.5,0.5,5,4,67,2,NA
fcp-trial,101,474475,0.0-76.0-0.0,voc_e2,12149,"[{""event"":""fullscreenenter"",""trial"":1,""time"":1960}]",NA,NA,NA,NA,NA,0,#1CD855,#FA92F8,0,10,0,40,0,1864.199999999255,39,0,445.59999999962747,10,1,experiment,NA,NA,0,0.1,0.9,1,0,68,2,NA
fcp-trial,102,477001,0.0-77.0-0.0,voc_e2,12149,"[{""event"":""fullscreenenter"",""trial"":1,""time"":1960}]",NA,NA,NA,NA,NA,1,#3386FF,#D89F1C,0,0,0,38,1,601.5999999996275,39,0,418.7000000011176,0,1,experiment,NA,NA,1,0.3,0.7,3,2,69,2,NA
fcp-trial,103,479437,0.0-78.0-0.0,voc_e2,12149,"[{""event"":""fullscreenenter"",""trial"":1,""time"":1960}]",NA,NA,NA,NA,NA,1,#D8271C,#741CD8,0,10,0,40,0,419.69999999925494,37,1,509.90000000037253,0,0,experiment,NA,NA,2,0.5,0.5,5,4,70,2,NA
fcp-trial,104,482306,0.0-79.0-0.0,voc_e2,12149,"[{""event"":""fullscreenenter"",""trial"":1,""time"":1960}]",NA,NA,NA,NA,NA,3,#741CD8,#D8271C,10,10,1,40,0,999.1999999992549,37,1,364.90000000037253,10,1,experiment,NA,NA,2,0.5,0.5,4,5,71,2,NA
fcp-trial,105,484437,0.0-80.0-0.0,voc_e2,12149,"[{""event"":""fullscreenenter"",""trial"":1,""time"":1960}]",NA,NA,NA,NA,NA,5,#1CD855,#FA92F8,0,10,0,40,0,355.19999999925494,39,0,270.7999999988824,10,1,experiment,NA,NA,0,0.1,0.9,1,0,72,2,NA
fcp-trial,106,487467,0.0-81.0-0.0,voc_e2,12149,"[{""event"":""fullscreenenter"",""trial"":1,""time"":1960}]",NA,NA,NA,NA,NA,6,#FA92F8,#1CD855,10,0,1,40,0,751.7000000011176,39,0,774.8999999985099,0,0,experiment,NA,NA,0,0.9,0.1,0,1,73,2,NA
fcp-trial,107,490283,0.0-82.0-0.0,voc_e2,12149,"[{""event"":""fullscreenenter"",""trial"":1,""time"":1960}]",NA,NA,NA,NA,NA,3,#D89F1C,#3386FF,10,0,1,40,0,473.19999999925494,39,0,839.2000000011176,0,0,experiment,NA,NA,1,0.7,0.3,2,3,74,2,NA
fcp-trial,108,492956,0.0-83.0-0.0,voc_e2,12149,"[{""event"":""fullscreenenter"",""trial"":1,""time"":1960}]",NA,NA,NA,NA,NA,6,#D8271C,#741CD8,10,0,0,38,1,377.5,37,1,790.5999999996275,10,0,experiment,NA,NA,2,0.5,0.5,5,4,75,2,NA
fcp-trial,109,494917,0.0-84.0-0.0,voc_e2,12149,"[{""event"":""fullscreenenter"",""trial"":1,""time"":1960}]",NA,NA,NA,NA,NA,3,#1CD855,#FA92F8,0,0,0,38,1,144.19999999925494,37,1,313.40000000037253,0,0,experiment,NA,NA,0,0.1,0.9,1,0,76,2,NA
fcp-trial,110,496883,0.0-85.0-0.0,voc_e2,12149,"[{""event"":""fullscreenenter"",""trial"":1,""time"":1960}]",NA,NA,NA,NA,NA,0,#D8271C,#741CD8,10,0,0,38,1,143.2000000011176,37,1,319.2999999988824,10,0,experiment,NA,NA,2,0.5,0.5,5,4,77,2,NA
fcp-trial,111,498899,0.0-86.0-0.0,voc_e2,12149,"[{""event"":""fullscreenenter"",""trial"":1,""time"":1960}]",NA,NA,NA,NA,NA,2,#741CD8,#D8271C,10,0,1,38,1,201.2000000011176,37,1,312.19999999925494,10,1,experiment,NA,NA,2,0.5,0.5,4,5,78,2,NA
fcp-trial,112,500780,0.0-87.0-0.0,voc_e2,12149,"[{""event"":""fullscreenenter"",""trial"":1,""time"":1960}]",NA,NA,NA,NA,NA,2,#3386FF,#D89F1C,0,0,0,38,1,38.5,37,1,335.69999999925494,0,0,experiment,NA,NA,1,0.3,0.7,3,2,79,2,NA
fcp-trial,113,503221,0.0-88.0-0.0,voc_e2,12149,"[{""event"":""fullscreenenter"",""trial"":1,""time"":1960}]",NA,NA,NA,NA,NA,5,#741CD8,#D8271C,0,0,1,40,0,368.5,37,1,568.5999999996275,0,1,experiment,NA,NA,2,0.5,0.5,4,5,80,2,NA
fcp-trial,114,505498,0.0-89.0-0.0,voc_e2,12149,"[{""event"":""fullscreenenter"",""trial"":1,""time"":1960}]",NA,NA,NA,NA,NA,4,#FA92F8,#1CD855,10,0,1,40,0,278.5,37,1,495,10,1,experiment,NA,NA,0,0.9,0.1,0,1,81,2,NA
fcp-trial,115,507592,0.0-90.0-0.0,voc_e2,12149,"[{""event"":""fullscreenenter"",""trial"":1,""time"":1960}]",NA,NA,NA,NA,NA,2,#FA92F8,#1CD855,10,0,1,40,0,153.7000000011176,39,0,432.90000000037253,0,0,experiment,NA,NA,0,0.9,0.1,0,1,82,2,NA
fcp-trial,116,510059,0.0-91.0-0.0,voc_e2,12149,"[{""event"":""fullscreenenter"",""trial"":1,""time"":1960}]",NA,NA,NA,NA,NA,1,#1CD855,#FA92F8,0,10,0,40,0,443.7999999988824,39,0,519.4000000003725,10,1,experiment,NA,NA,0,0.1,0.9,1,0,83,2,NA
fcp-trial,117,512260,0.0-92.0-0.0,voc_e2,12149,"[{""event"":""fullscreenenter"",""trial"":1,""time"":1960}]",NA,NA,NA,NA,NA,4,#D89F1C,#3386FF,10,0,1,40,0,263.09999999962747,39,0,431.59999999962747,0,0,experiment,NA,NA,1,0.7,0.3,2,3,84,2,NA
fcp-trial,118,514326,0.0-93.0-0.0,voc_e2,12149,"[{""event"":""fullscreenenter"",""trial"":1,""time"":1960}]",NA,NA,NA,NA,NA,1,#3386FF,#D89F1C,0,10,0,40,0,104,39,0,456.19999999925494,10,1,experiment,NA,NA,1,0.3,0.7,3,2,85,2,NA
fcp-trial,119,516972,0.0-94.0-0.0,voc_e2,12149,"[{""event"":""fullscreenenter"",""trial"":1,""time"":1960}]",NA,NA,NA,NA,NA,0,#D89F1C,#3386FF,10,0,1,40,0,85.70000000111759,37,1,1056.199999999255,10,1,experiment,NA,NA,1,0.7,0.3,2,3,86,2,NA
fcp-trial,120,520044,0.0-95.0-0.0,voc_e2,12149,"[{""event"":""fullscreenenter"",""trial"":1,""time"":1960}]",NA,NA,NA,NA,NA,2,#741CD8,#D8271C,0,10,1,40,0,559.2999999988824,37,1,1006.5,0,1,experiment,NA,NA,2,0.5,0.5,4,5,87,2,NA
fcp-trial,121,523210,0.0-96.0-0.0,voc_e2,12149,"[{""event"":""fullscreenenter"",""trial"":1,""time"":1960}]",NA,NA,NA,NA,NA,2,#3386FF,#D89F1C,0,10,0,40,0,566.9000000003725,37,1,1094.699999999255,0,0,experiment,NA,NA,1,0.3,0.7,3,2,88,2,NA
fcp-trial,122,525354,0.0-97.0-0.0,voc_e2,12149,"[{""event"":""fullscreenenter"",""trial"":1,""time"":1960}]",NA,NA,NA,NA,NA,3,#1CD855,#FA92F8,0,10,0,38,1,377.5,39,0,262.59999999962747,10,1,experiment,NA,NA,0,0.1,0.9,1,0,89,2,NA
fcp-trial,123,528077,0.0-98.0-0.0,voc_e2,12149,"[{""event"":""fullscreenenter"",""trial"":1,""time"":1960}]",NA,NA,NA,NA,NA,4,#1CD855,#FA92F8,0,10,0,38,1,441.40000000037253,39,0,776.4000000003725,10,1,experiment,NA,NA,0,0.1,0.9,1,0,90,2,NA
fcp-trial,124,530322,0.0-99.0-0.0,voc_e2,12149,"[{""event"":""fullscreenenter"",""trial"":1,""time"":1960}]",NA,NA,NA,NA,NA,1,#D8271C,#741CD8,10,10,0,40,0,382.8999999985099,37,1,357.40000000037253,10,0,experiment,NA,NA,2,0.5,0.5,5,4,91,3,NA
fcp-trial,125,532980,0.0-100.0-0.0,voc_e2,12149,"[{""event"":""fullscreenenter"",""trial"":1,""time"":1960}]",NA,NA,NA,NA,NA,6,#D89F1C,#3386FF,0,0,1,38,1,321.2000000011176,39,0,831.2999999988824,0,0,experiment,NA,NA,1,0.7,0.3,2,3,92,3,NA
fcp-trial,126,535005,0.0-101.0-0.0,voc_e2,12149,"[{""event"":""fullscreenenter"",""trial"":1,""time"":1960}]",NA,NA,NA,NA,NA,4,#741CD8,#D8271C,0,0,1,38,1,166,37,1,351.90000000037253,0,1,experiment,NA,NA,2,0.5,0.5,4,5,93,3,NA
fcp-trial,127,537357,0.0-102.0-0.0,voc_e2,12149,"[{""event"":""fullscreenenter"",""trial"":1,""time"":1960}]",NA,NA,NA,NA,NA,5,#741CD8,#D8271C,10,0,1,38,1,46.40000000037253,39,0,798.7000000011176,0,0,experiment,NA,NA,2,0.5,0.5,4,5,94,3,NA
fcp-trial,128,540018,0.0-103.0-0.0,voc_e2,12149,"[{""event"":""fullscreenenter"",""trial"":1,""time"":1960}]",NA,NA,NA,NA,NA,5,#1CD855,#FA92F8,0,10,0,40,0,302.69999999925494,37,1,855.1999999992549,0,0,experiment,NA,NA,0,0.1,0.9,1,0,95,3,NA
fcp-trial,129,542322,0.0-104.0-0.0,voc_e2,12149,"[{""event"":""fullscreenenter"",""trial"":1,""time"":1960}]",NA,NA,NA,NA,NA,0,#1CD855,#FA92F8,0,10,0,40,0,506.30000000074506,39,0,292.80000000074506,10,1,experiment,NA,NA,0,0.1,0.9,1,0,96,3,NA
fcp-trial,130,544970,0.0-105.0-0.0,voc_e2,12149,"[{""event"":""fullscreenenter"",""trial"":1,""time"":1960}]",NA,NA,NA,NA,NA,4,#D89F1C,#3386FF,10,0,1,38,1,809.4000000003725,39,0,335,0,0,experiment,NA,NA,1,0.7,0.3,2,3,97,3,NA
fcp-trial,131,547939,0.0-106.0-0.0,voc_e2,12149,"[{""event"":""fullscreenenter"",""trial"":1,""time"":1960}]",NA,NA,NA,NA,NA,1,#FA92F8,#1CD855,10,0,1,38,1,1113.2000000011176,37,1,351.2999999988824,10,1,experiment,NA,NA,0,0.9,0.1,0,1,98,3,NA
fcp-trial,132,550844,0.0-107.0-0.0,voc_e2,12149,"[{""event"":""fullscreenenter"",""trial"":1,""time"":1960}]",NA,NA,NA,NA,NA,6,#D8271C,#741CD8,10,10,0,38,1,1056.7000000011176,39,0,342.7999999988824,10,1,experiment,NA,NA,2,0.5,0.5,5,4,99,3,NA
fcp-trial,133,553546,0.0-108.0-0.0,voc_e2,12149,"[{""event"":""fullscreenenter"",""trial"":1,""time"":1960}]",NA,NA,NA,NA,NA,0,#741CD8,#D8271C,10,0,1,38,1,926.7999999988824,37,1,270,10,1,experiment,NA,NA,2,0.5,0.5,4,5,100,3,NA
fcp-trial,134,556371,0.0-109.0-0.0,voc_e2,12149,"[{""event"":""fullscreenenter"",""trial"":1,""time"":1960}]",NA,NA,NA,NA,NA,5,#3386FF,#D89F1C,10,10,0,38,1,625.0999999996275,39,0,695.4000000003725,10,1,experiment,NA,NA,1,0.3,0.7,3,2,101,3,NA
fcp-trial,135,558674,0.0-110.0-0.0,voc_e2,12149,"[{""event"":""fullscreenenter"",""trial"":1,""time"":1960}]",NA,NA,NA,NA,NA,3,#3386FF,#D89F1C,0,0,0,38,1,384.6000000014901,39,0,415.7000000011176,0,1,experiment,NA,NA,1,0.3,0.7,3,2,102,3,NA
fcp-trial,136,560826,0.0-111.0-0.0,voc_e2,12149,"[{""event"":""fullscreenenter"",""trial"":1,""time"":1960}]",NA,NA,NA,NA,NA,6,#FA92F8,#1CD855,10,0,1,38,1,360.59999999962747,37,1,287.19999999925494,10,1,experiment,NA,NA,0,0.9,0.1,0,1,103,3,NA
fcp-trial,137,563419,0.0-112.0-0.0,voc_e2,12149,"[{""event"":""fullscreenenter"",""trial"":1,""time"":1960}]",NA,NA,NA,NA,NA,3,#741CD8,#D8271C,10,0,1,38,1,344.90000000037253,37,1,744.4000000003725,10,1,experiment,NA,NA,2,0.5,0.5,4,5,104,3,NA
fcp-trial,138,565732,0.0-113.0-0.0,voc_e2,12149,"[{""event"":""fullscreenenter"",""trial"":1,""time"":1960}]",NA,NA,NA,NA,NA,2,#1CD855,#FA92F8,0,10,0,38,1,480,39,0,326.5,10,1,experiment,NA,NA,0,0.1,0.9,1,0,105,3,NA
audio-instructions,139,607942,0.0-114.0,voc_e2,12149,"[{""event"":""fullscreenenter"",""trial"":1,""time"":1960}]",NA,37771.40000000037,static/audio/pause.wav,NA,0,NA,NA,NA,NA,NA,NA,NA,NA,NA,NA,NA,NA,NA,NA,NA,NA,NA,NA,NA,NA,NA,NA,NA,NA,NA
fcp-trial,140,611210,0.0-115.0-0.0,voc_e2,12149,"[{""event"":""fullscreenenter"",""trial"":1,""time"":1960}]",NA,NA,NA,NA,NA,0,#D8271C,#741CD8,0,0,0,38,1,1180.2999999988824,39,0,583.5,0,1,experiment,NA,NA,2,0.5,0.5,5,4,106,3,NA
fcp-trial,141,613523,0.0-116.0-0.0,voc_e2,12149,"[{""event"":""fullscreenenter"",""trial"":1,""time"":1960}]",NA,NA,NA,NA,NA,3,#1CD855,#FA92F8,0,10,0,38,1,471.90000000037253,39,0,337.19999999925494,10,1,experiment,NA,NA,0,0.1,0.9,1,0,107,3,NA
fcp-trial,142,616235,0.0-117.0-0.0,voc_e2,12149,"[{""event"":""fullscreenenter"",""trial"":1,""time"":1960}]",NA,NA,NA,NA,NA,4,#D8271C,#741CD8,0,0,0,40,0,782.8999999985099,37,1,424.40000000037253,0,0,experiment,NA,NA,2,0.5,0.5,5,4,108,3,NA
fcp-trial,143,618410,0.0-118.0-0.0,voc_e2,12149,"[{""event"":""fullscreenenter"",""trial"":1,""time"":1960}]",NA,NA,NA,NA,NA,5,#D8271C,#741CD8,0,0,0,38,1,391.7999999988824,39,0,277.7000000011176,0,1,experiment,NA,NA,2,0.5,0.5,5,4,109,3,NA
fcp-trial,144,621085,0.0-119.0-0.0,voc_e2,12149,"[{""event"":""fullscreenenter"",""trial"":1,""time"":1960}]",NA,NA,NA,NA,NA,2,#3386FF,#D89F1C,10,10,0,38,1,480,39,0,688.8000000007451,10,1,experiment,NA,NA,1,0.3,0.7,3,2,110,3,NA
fcp-trial,145,623306,0.0-120.0-0.0,voc_e2,12149,"[{""event"":""fullscreenenter"",""trial"":1,""time"":1960}]",NA,NA,NA,NA,NA,5,#1CD855,#FA92F8,0,0,0,38,1,342,39,0,374.80000000074506,0,1,experiment,NA,NA,0,0.1,0.9,1,0,111,3,NA
fcp-trial,146,625796,0.0-121.0-0.0,voc_e2,12149,"[{""event"":""fullscreenenter"",""trial"":1,""time"":1960}]",NA,NA,NA,NA,NA,6,#1CD855,#FA92F8,0,10,0,38,1,400.09999999962747,39,0,580.7999999988824,10,1,experiment,NA,NA,0,0.1,0.9,1,0,112,3,NA
fcp-trial,147,628122,0.0-122.0-0.0,voc_e2,12149,"[{""event"":""fullscreenenter"",""trial"":1,""time"":1960}]",NA,NA,NA,NA,NA,6,#3386FF,#D89F1C,10,10,0,40,0,453.09999999962747,37,1,366.30000000074506,10,0,experiment,NA,NA,1,0.3,0.7,3,2,113,3,NA
fcp-trial,148,630659,0.0-123.0-0.0,voc_e2,12149,"[{""event"":""fullscreenenter"",""trial"":1,""time"":1960}]",NA,NA,NA,NA,NA,2,#D8271C,#741CD8,0,10,0,40,0,344,37,1,685.8000000007451,0,0,experiment,NA,NA,2,0.5,0.5,5,4,114,3,NA
fcp-trial,149,632964,0.0-124.0-0.0,voc_e2,12149,"[{""event"":""fullscreenenter"",""trial"":1,""time"":1960}]",NA,NA,NA,NA,NA,4,#D89F1C,#3386FF,10,0,1,40,0,375.3999999985099,39,0,423.19999999925494,0,0,experiment,NA,NA,1,0.7,0.3,2,3,115,3,NA
fcp-trial,150,635243,0.0-125.0-0.0,voc_e2,12149,"[{""event"":""fullscreenenter"",""trial"":1,""time"":1960}]",NA,NA,NA,NA,NA,0,#FA92F8,#1CD855,10,0,1,40,0,341.09999999962747,37,1,427.5,10,1,experiment,NA,NA,0,0.9,0.1,0,1,116,3,NA
fcp-trial,151,638188,0.0-126.0-0.0,voc_e2,12149,"[{""event"":""fullscreenenter"",""trial"":1,""time"":1960}]",NA,NA,NA,NA,NA,6,#741CD8,#D8271C,0,0,1,40,0,831.2000000011176,39,0,607.4000000003725,0,0,experiment,NA,NA,2,0.5,0.5,4,5,117,3,NA
fcp-trial,152,640266,0.0-127.0-0.0,voc_e2,12149,"[{""event"":""fullscreenenter"",""trial"":1,""time"":1960}]",NA,NA,NA,NA,NA,4,#1CD855,#FA92F8,0,10,0,38,1,190.2999999988824,39,0,380.19999999925494,10,1,experiment,NA,NA,0,0.1,0.9,1,0,118,3,NA
fcp-trial,153,642827,0.0-128.0-0.0,voc_e2,12149,"[{""event"":""fullscreenenter"",""trial"":1,""time"":1960}]",NA,NA,NA,NA,NA,1,#1CD855,#FA92F8,0,10,0,40,0,542.7000000011176,37,1,508.90000000037253,0,0,experiment,NA,NA,0,0.1,0.9,1,0,119,3,NA
fcp-trial,154,645096,0.0-129.0-0.0,voc_e2,12149,"[{""event"":""fullscreenenter"",""trial"":1,""time"":1960}]",NA,NA,NA,NA,NA,5,#3386FF,#D89F1C,0,10,0,38,1,382.90000000037253,39,0,381.5,10,1,experiment,NA,NA,1,0.3,0.7,3,2,120,3,NA
fcp-trial,155,647375,0.0-130.0-0.0,voc_e2,12149,"[{""event"":""fullscreenenter"",""trial"":1,""time"":1960}]",NA,NA,NA,NA,NA,0,#3386FF,#D89F1C,0,10,0,38,1,425.69999999925494,39,0,347.59999999962747,10,1,experiment,NA,NA,1,0.3,0.7,3,2,121,3,NA
fcp-trial,156,649585,0.0-131.0-0.0,voc_e2,12149,"[{""event"":""fullscreenenter"",""trial"":1,""time"":1960}]",NA,NA,NA,NA,NA,1,#741CD8,#D8271C,0,0,1,38,1,444.40000000037253,37,1,262.09999999962747,0,1,experiment,NA,NA,2,0.5,0.5,4,5,122,3,NA
fcp-trial,157,651746,0.0-132.0-0.0,voc_e2,12149,"[{""event"":""fullscreenenter"",""trial"":1,""time"":1960}]",NA,NA,NA,NA,NA,2,#1CD855,#FA92F8,0,10,0,38,1,383.7999999988824,39,0,270.5,10,1,experiment,NA,NA,0,0.1,0.9,1,0,123,3,NA
fcp-trial,158,655127,0.0-133.0-0.0,voc_e2,12149,"[{""event"":""fullscreenenter"",""trial"":1,""time"":1960}]",NA,NA,NA,NA,NA,3,#741CD8,#D8271C,0,0,1,38,1,1520.5,37,1,356.5,0,1,experiment,NA,NA,2,0.5,0.5,4,5,124,3,NA
fcp-trial,159,657385,0.0-134.0-0.0,voc_e2,12149,"[{""event"":""fullscreenenter"",""trial"":1,""time"":1960}]",NA,NA,NA,NA,NA,1,#3386FF,#D89F1C,10,0,0,38,1,498.30000000074506,39,0,252.7999999988824,0,1,experiment,NA,NA,1,0.3,0.7,3,2,125,3,NA
fcp-trial,160,660847,0.0-135.0-0.0,voc_e2,12149,"[{""event"":""fullscreenenter"",""trial"":1,""time"":1960}]",NA,NA,NA,NA,NA,3,#D89F1C,#3386FF,0,0,1,38,1,1504,39,0,451.5,0,0,experiment,NA,NA,1,0.7,0.3,2,3,126,3,NA
fcp-trial,161,663595,0.0-136.0-0.0,voc_e2,12149,"[{""event"":""fullscreenenter"",""trial"":1,""time"":1960}]",NA,NA,NA,NA,NA,4,#D8271C,#741CD8,0,10,0,38,1,714.5999999996275,39,0,528.1999999992549,10,1,experiment,NA,NA,2,0.5,0.5,5,4,127,3,NA
fcp-trial,162,666338,0.0-137.0-0.0,voc_e2,12149,"[{""event"":""fullscreenenter"",""trial"":1,""time"":1960}]",NA,NA,NA,NA,NA,5,#3386FF,#D89F1C,10,0,0,38,1,446.8999999985099,37,1,791.0999999996275,10,0,experiment,NA,NA,1,0.3,0.7,3,2,128,3,NA
fcp-trial,163,668489,0.0-138.0-0.0,voc_e2,12149,"[{""event"":""fullscreenenter"",""trial"":1,""time"":1960}]",NA,NA,NA,NA,NA,4,#FA92F8,#1CD855,10,0,1,38,1,365.80000000074506,37,1,277.80000000074506,10,1,experiment,NA,NA,0,0.9,0.1,0,1,129,3,NA
fcp-trial,164,671137,0.0-139.0-0.0,voc_e2,12149,"[{""event"":""fullscreenenter"",""trial"":1,""time"":1960}]",NA,NA,NA,NA,NA,0,#D89F1C,#3386FF,0,0,1,38,1,711.6999999992549,39,0,430,0,0,experiment,NA,NA,1,0.7,0.3,2,3,130,3,NA
fcp-trial,165,673640,0.0-140.0-0.0,voc_e2,12149,"[{""event"":""fullscreenenter"",""trial"":1,""time"":1960}]",NA,NA,NA,NA,NA,0,#FA92F8,#1CD855,10,0,1,38,1,737.5,37,1,261,10,1,experiment,NA,NA,0,0.9,0.1,0,1,131,3,NA
fcp-trial,166,676457,0.0-141.0-0.0,voc_e2,12149,"[{""event"":""fullscreenenter"",""trial"":1,""time"":1960}]",NA,NA,NA,NA,NA,5,#D8271C,#741CD8,10,0,0,40,0,936.1999999992549,39,0,372.40000000037253,0,1,experiment,NA,NA,2,0.5,0.5,5,4,132,3,NA
fcp-trial,167,680345,0.0-142.0-0.0,voc_e2,12149,"[{""event"":""fullscreenenter"",""trial"":1,""time"":1960}]",NA,NA,NA,NA,NA,6,#741CD8,#D8271C,10,10,1,40,0,1678.5999999996275,39,0,701.5,10,0,experiment,NA,NA,2,0.5,0.5,4,5,133,3,NA
fcp-trial,168,683240,0.0-143.0-0.0,voc_e2,12149,"[{""event"":""fullscreenenter"",""trial"":1,""time"":1960}]",NA,NA,NA,NA,NA,3,#D89F1C,#3386FF,0,10,1,38,1,897,37,1,492.7999999988824,0,1,experiment,NA,NA,1,0.7,0.3,2,3,134,3,NA
fcp-trial,169,686020,0.0-144.0-0.0,voc_e2,12149,"[{""event"":""fullscreenenter"",""trial"":1,""time"":1960}]",NA,NA,NA,NA,NA,4,#3386FF,#D89F1C,0,10,0,38,1,960.7999999988824,37,1,312.69999999925494,0,0,experiment,NA,NA,1,0.3,0.7,3,2,135,3,NA
fcp-trial,170,689568,0.0-145.0-0.0,voc_e2,12149,"[{""event"":""fullscreenenter"",""trial"":1,""time"":1960}]",NA,NA,NA,NA,NA,1,#FA92F8,#1CD855,10,0,1,38,1,997.6999999992549,37,1,1047,10,1,experiment,NA,NA,0,0.9,0.1,0,1,136,4,NA
fcp-trial,171,692070,0.0-146.0-0.0,voc_e2,12149,"[{""event"":""fullscreenenter"",""trial"":1,""time"":1960}]",NA,NA,NA,NA,NA,3,#D8271C,#741CD8,10,0,0,38,1,569.2999999988824,39,0,429.09999999962747,0,1,experiment,NA,NA,2,0.5,0.5,5,4,137,4,NA
fcp-trial,172,694287,0.0-147.0-0.0,voc_e2,12149,"[{""event"":""fullscreenenter"",""trial"":1,""time"":1960}]",NA,NA,NA,NA,NA,2,#3386FF,#D89F1C,10,10,0,38,1,435.5,39,0,276.40000000037253,10,1,experiment,NA,NA,1,0.3,0.7,3,2,138,4,NA
fcp-trial,173,696810,0.0-148.0-0.0,voc_e2,12149,"[{""event"":""fullscreenenter"",""trial"":1,""time"":1960}]",NA,NA,NA,NA,NA,5,#FA92F8,#1CD855,10,0,1,38,1,590,37,1,426.40000000037253,10,1,experiment,NA,NA,0,0.9,0.1,0,1,139,4,NA
fcp-trial,174,699206,0.0-149.0-0.0,voc_e2,12149,"[{""event"":""fullscreenenter"",""trial"":1,""time"":1960}]",NA,NA,NA,NA,NA,3,#1CD855,#FA92F8,0,0,0,38,1,567,39,0,323.1000000014901,0,1,experiment,NA,NA,0,0.1,0.9,1,0,140,4,NA
fcp-trial,175,701610,0.0-150.0-0.0,voc_e2,12149,"[{""event"":""fullscreenenter"",""trial"":1,""time"":1960}]",NA,NA,NA,NA,NA,1,#741CD8,#D8271C,0,10,1,38,1,587.1999999992549,37,1,310.7999999988824,0,1,experiment,NA,NA,2,0.5,0.5,4,5,141,4,NA
fcp-trial,176,704090,0.0-151.0-0.0,voc_e2,12149,"[{""event"":""fullscreenenter"",""trial"":1,""time"":1960}]",NA,NA,NA,NA,NA,2,#FA92F8,#1CD855,10,0,1,38,1,615.0999999996275,37,1,358.40000000037253,10,1,experiment,NA,NA,0,0.9,0.1,0,1,142,4,NA
fcp-trial,177,706530,0.0-152.0-0.0,voc_e2,12149,"[{""event"":""fullscreenenter"",""trial"":1,""time"":1960}]",NA,NA,NA,NA,NA,6,#3386FF,#D89F1C,0,10,0,38,1,592.3999999985099,39,0,341.2000000011176,10,1,experiment,NA,NA,1,0.3,0.7,3,2,143,4,NA
fcp-trial,178,709257,0.0-153.0-0.0,voc_e2,12149,"[{""event"":""fullscreenenter"",""trial"":1,""time"":1960}]",NA,NA,NA,NA,NA,2,#741CD8,#D8271C,10,0,1,38,1,445.7999999988824,39,0,773.4000000003725,0,0,experiment,NA,NA,2,0.5,0.5,4,5,144,4,NA
fcp-trial,179,712161,0.0-154.0-0.0,voc_e2,12149,"[{""event"":""fullscreenenter"",""trial"":1,""time"":1960}]",NA,NA,NA,NA,NA,6,#FA92F8,#1CD855,10,0,1,40,0,368.3999999985099,39,0,1026.9000000003725,0,0,experiment,NA,NA,0,0.9,0.1,0,1,145,4,NA
fcp-trial,180,714409,0.0-155.0-0.0,voc_e2,12149,"[{""event"":""fullscreenenter"",""trial"":1,""time"":1960}]",NA,NA,NA,NA,NA,0,#741CD8,#D8271C,10,0,1,40,0,383.59999999962747,37,1,359,10,1,experiment,NA,NA,2,0.5,0.5,4,5,146,4,NA
fcp-trial,181,717152,0.0-156.0-0.0,voc_e2,12149,"[{""event"":""fullscreenenter"",""trial"":1,""time"":1960}]",NA,NA,NA,NA,NA,1,#D89F1C,#3386FF,10,0,1,40,0,751.5999999996275,39,0,487.19999999925494,0,0,experiment,NA,NA,1,0.7,0.3,2,3,147,4,NA
fcp-trial,182,720105,0.0-157.0-0.0,voc_e2,12149,"[{""event"":""fullscreenenter"",""trial"":1,""time"":1960}]",NA,NA,NA,NA,NA,2,#1CD855,#FA92F8,0,10,0,40,0,824.0999999996275,37,1,621.7999999988824,0,0,experiment,NA,NA,0,0.1,0.9,1,0,148,4,NA
fcp-trial,183,722650,0.0-158.0-0.0,voc_e2,12149,"[{""event"":""fullscreenenter"",""trial"":1,""time"":1960}]",NA,NA,NA,NA,NA,0,#D8271C,#741CD8,0,0,0,40,0,551.6999999992549,37,1,485,0,0,experiment,NA,NA,2,0.5,0.5,5,4,149,4,NA
fcp-trial,184,725569,0.0-159.0-0.0,voc_e2,12149,"[{""event"":""fullscreenenter"",""trial"":1,""time"":1960}]",NA,NA,NA,NA,NA,1,#D89F1C,#3386FF,10,10,1,40,0,742.6999999992549,37,1,670.0999999996275,10,1,experiment,NA,NA,1,0.7,0.3,2,3,150,4,NA
fcp-trial,185,727929,0.0-160.0-0.0,voc_e2,12149,"[{""event"":""fullscreenenter"",""trial"":1,""time"":1960}]",NA,NA,NA,NA,NA,5,#D8271C,#741CD8,10,0,0,40,0,374.3999999985099,37,1,476.40000000037253,10,0,experiment,NA,NA,2,0.5,0.5,5,4,151,4,NA
fcp-trial,186,730449,0.0-161.0-0.0,voc_e2,12149,"[{""event"":""fullscreenenter"",""trial"":1,""time"":1960}]",NA,NA,NA,NA,NA,6,#D89F1C,#3386FF,10,0,1,38,1,583.2999999988824,37,1,430.2000000011176,10,1,experiment,NA,NA,1,0.7,0.3,2,3,152,4,NA
fcp-trial,187,733131,0.0-162.0-0.0,voc_e2,12149,"[{""event"":""fullscreenenter"",""trial"":1,""time"":1960}]",NA,NA,NA,NA,NA,1,#FA92F8,#1CD855,0,0,1,38,1,759.5999999996275,37,1,417.5,0,1,experiment,NA,NA,0,0.9,0.1,0,1,153,4,NA
fcp-trial,188,736480,0.0-163.0-0.0,voc_e2,12149,"[{""event"":""fullscreenenter"",""trial"":1,""time"":1960}]",NA,NA,NA,NA,NA,2,#741CD8,#D8271C,10,10,1,38,1,1365.699999999255,39,0,477.5,10,0,experiment,NA,NA,2,0.5,0.5,4,5,154,4,NA
fcp-trial,189,739970,0.0-164.0-0.0,voc_e2,12149,"[{""event"":""fullscreenenter"",""trial"":1,""time"":1960}]",NA,NA,NA,NA,NA,6,#FA92F8,#1CD855,10,0,1,40,0,1568.0999999996275,37,1,413.40000000037253,10,1,experiment,NA,NA,0,0.9,0.1,0,1,155,4,NA
fcp-trial,190,742673,0.0-165.0-0.0,voc_e2,12149,"[{""event"":""fullscreenenter"",""trial"":1,""time"":1960}]",NA,NA,NA,NA,NA,1,#D8271C,#741CD8,0,0,0,40,0,590.5,39,0,605.4000000003725,0,1,experiment,NA,NA,2,0.5,0.5,5,4,156,4,NA
fcp-trial,191,744952,0.0-166.0-0.0,voc_e2,12149,"[{""event"":""fullscreenenter"",""trial"":1,""time"":1960}]",NA,NA,NA,NA,NA,3,#D89F1C,#3386FF,0,0,1,38,1,437.8999999985099,37,1,333.40000000037253,0,1,experiment,NA,NA,1,0.7,0.3,2,3,157,4,NA
fcp-trial,192,747287,0.0-167.0-0.0,voc_e2,12149,"[{""event"":""fullscreenenter"",""trial"":1,""time"":1960}]",NA,NA,NA,NA,NA,3,#741CD8,#D8271C,0,0,1,38,1,521.2999999988824,37,1,309.40000000037253,0,1,experiment,NA,NA,2,0.5,0.5,4,5,158,4,NA
fcp-trial,193,749600,0.0-168.0-0.0,voc_e2,12149,"[{""event"":""fullscreenenter"",""trial"":1,""time"":1960}]",NA,NA,NA,NA,NA,0,#1CD855,#FA92F8,0,10,0,38,1,424.7999999988824,39,0,383.59999999962747,10,1,experiment,NA,NA,0,0.1,0.9,1,0,159,4,NA
fcp-trial,194,751948,0.0-169.0-0.0,voc_e2,12149,"[{""event"":""fullscreenenter"",""trial"":1,""time"":1960}]",NA,NA,NA,NA,NA,6,#D8271C,#741CD8,0,10,0,38,1,384.5,39,0,458.40000000037253,10,1,experiment,NA,NA,2,0.5,0.5,5,4,160,4,NA
fcp-trial,195,754117,0.0-170.0-0.0,voc_e2,12149,"[{""event"":""fullscreenenter"",""trial"":1,""time"":1960}]",NA,NA,NA,NA,NA,5,#3386FF,#D89F1C,10,10,0,38,1,268.09999999962747,39,0,394.59999999962747,10,1,experiment,NA,NA,1,0.3,0.7,3,2,161,4,NA
fcp-trial,196,756412,0.0-171.0-0.0,voc_e2,12149,"[{""event"":""fullscreenenter"",""trial"":1,""time"":1960}]",NA,NA,NA,NA,NA,5,#1CD855,#FA92F8,0,10,0,38,1,418.69999999925494,39,0,369.30000000074506,10,1,experiment,NA,NA,0,0.1,0.9,1,0,162,4,NA
fcp-trial,197,758971,0.0-172.0-0.0,voc_e2,12149,"[{""event"":""fullscreenenter"",""trial"":1,""time"":1960}]",NA,NA,NA,NA,NA,2,#D89F1C,#3386FF,10,0,1,38,1,691.7999999988824,37,1,360.40000000037253,10,1,experiment,NA,NA,1,0.7,0.3,2,3,163,4,NA
fcp-trial,198,761327,0.0-173.0-0.0,voc_e2,12149,"[{""event"":""fullscreenenter"",""trial"":1,""time"":1960}]",NA,NA,NA,NA,NA,4,#D89F1C,#3386FF,0,0,1,38,1,590.0999999996275,37,1,262.90000000037253,0,1,experiment,NA,NA,1,0.7,0.3,2,3,164,4,NA
fcp-trial,199,763928,0.0-174.0-0.0,voc_e2,12149,"[{""event"":""fullscreenenter"",""trial"":1,""time"":1960}]",NA,NA,NA,NA,NA,4,#D8271C,#741CD8,0,10,0,38,1,632.4000000003725,39,0,460.90000000037253,10,1,experiment,NA,NA,2,0.5,0.5,5,4,165,4,NA
fcp-trial,200,766561,0.0-175.0-0.0,voc_e2,12149,"[{""event"":""fullscreenenter"",""trial"":1,""time"":1960}]",NA,NA,NA,NA,NA,3,#1CD855,#FA92F8,0,10,0,38,1,518.4000000003725,39,0,606.5999999996275,10,1,experiment,NA,NA,0,0.1,0.9,1,0,166,4,NA
fcp-trial,201,769103,0.0-176.0-0.0,voc_e2,12149,"[{""event"":""fullscreenenter"",""trial"":1,""time"":1960}]",NA,NA,NA,NA,NA,4,#FA92F8,#1CD855,10,0,1,38,1,542.1999999992549,37,1,494.69999999925494,10,1,experiment,NA,NA,0,0.9,0.1,0,1,167,4,NA
fcp-trial,202,771513,0.0-177.0-0.0,voc_e2,12149,"[{""event"":""fullscreenenter"",""trial"":1,""time"":1960}]",NA,NA,NA,NA,NA,0,#D89F1C,#3386FF,10,0,1,38,1,512.5999999996275,37,1,390.19999999925494,10,1,experiment,NA,NA,1,0.7,0.3,2,3,168,4,NA
fcp-trial,203,773631,0.0-178.0-0.0,voc_e2,12149,"[{""event"":""fullscreenenter"",""trial"":1,""time"":1960}]",NA,NA,NA,NA,NA,0,#FA92F8,#1CD855,10,0,1,38,1,350.5,37,1,261.2999999988824,10,1,experiment,NA,NA,0,0.9,0.1,0,1,169,4,NA
fcp-trial,204,775961,0.0-179.0-0.0,voc_e2,12149,"[{""event"":""fullscreenenter"",""trial"":1,""time"":1960}]",NA,NA,NA,NA,NA,6,#FA92F8,#1CD855,10,0,1,38,1,456.1000000014901,37,1,364.80000000074506,10,1,experiment,NA,NA,0,0.9,0.1,0,1,170,4,NA
fcp-trial,205,778489,0.0-180.0-0.0,voc_e2,12149,"[{""event"":""fullscreenenter"",""trial"":1,""time"":1960}]",NA,NA,NA,NA,NA,2,#1CD855,#FA92F8,0,10,0,38,1,366.8999999985099,39,0,655.2000000011176,10,1,experiment,NA,NA,0,0.1,0.9,1,0,171,4,NA
fcp-trial,206,780878,0.0-181.0-0.0,voc_e2,12149,"[{""event"":""fullscreenenter"",""trial"":1,""time"":1960}]",NA,NA,NA,NA,NA,3,#741CD8,#D8271C,10,0,1,38,1,344.59999999962747,39,0,541.0999999996275,0,0,experiment,NA,NA,2,0.5,0.5,4,5,172,4,NA
fcp-trial,207,783608,0.0-182.0-0.0,voc_e2,12149,"[{""event"":""fullscreenenter"",""trial"":1,""time"":1960}]",NA,NA,NA,NA,NA,4,#3386FF,#D89F1C,0,10,0,38,1,817.5,39,0,408,10,1,experiment,NA,NA,1,0.3,0.7,3,2,173,4,NA
fcp-trial,208,786033,0.0-183.0-0.0,voc_e2,12149,"[{""event"":""fullscreenenter"",""trial"":1,""time"":1960}]",NA,NA,NA,NA,NA,6,#741CD8,#D8271C,10,0,1,38,1,631.5,37,1,286.59999999962747,10,1,experiment,NA,NA,2,0.5,0.5,4,5,174,4,NA
fcp-trial,209,788663,0.0-184.0-0.0,voc_e2,12149,"[{""event"":""fullscreenenter"",""trial"":1,""time"":1960}]",NA,NA,NA,NA,NA,1,#1CD855,#FA92F8,0,10,0,38,1,644.8999999985099,39,0,477.80000000074506,10,1,experiment,NA,NA,0,0.1,0.9,1,0,175,4,NA
fcp-trial,210,790891,0.0-185.0-0.0,voc_e2,12149,"[{""event"":""fullscreenenter"",""trial"":1,""time"":1960}]",NA,NA,NA,NA,NA,3,#1CD855,#FA92F8,0,10,0,38,1,384.59999999962747,39,0,339.7000000011176,10,1,experiment,NA,NA,0,0.1,0.9,1,0,176,4,NA
fcp-trial,211,793103,0.0-186.0-0.0,voc_e2,12149,"[{""event"":""fullscreenenter"",""trial"":1,""time"":1960}]",NA,NA,NA,NA,NA,3,#D89F1C,#3386FF,10,10,1,38,1,364.40000000037253,37,1,343.09999999962747,10,1,experiment,NA,NA,1,0.7,0.3,2,3,177,4,NA
fcp-trial,212,808109,0.0-187.0-0.0,voc_e2,12149,"[{""event"":""fullscreenenter"",""trial"":1,""time"":1960}]",NA,NA,NA,NA,NA,5,#D8271C,#741CD8,0,10,0,null,null,null,null,null,null,NA,0,experiment,NA,NA,2,0.5,0.5,5,4,178,4,NA
fcp-trial,213,811130,0.0-188.0-0.0,voc_e2,12149,"[{""event"":""fullscreenenter"",""trial"":1,""time"":1960}]",NA,NA,NA,NA,NA,6,#D89F1C,#3386FF,0,0,1,38,1,818.0999999996275,37,1,696.0999999996275,0,1,experiment,NA,NA,1,0.7,0.3,2,3,179,4,NA
fcp-trial,214,813720,0.0-189.0-0.0,voc_e2,12149,"[{""event"":""fullscreenenter"",""trial"":1,""time"":1960}]",NA,NA,NA,NA,NA,2,#D8271C,#741CD8,10,0,0,40,0,685,39,0,395.90000000037253,0,1,experiment,NA,NA,2,0.5,0.5,5,4,180,4,NA
fcp-trial,215,816417,0.0-190.0-0.0,voc_e2,12149,"[{""event"":""fullscreenenter"",""trial"":1,""time"":1960}]",NA,NA,NA,NA,NA,4,#1CD855,#FA92F8,0,10,0,40,0,720.2000000011176,37,1,471.09999999962747,0,0,experiment,NA,NA,0,0.1,0.9,1,0,181,5,NA
fcp-trial,216,818735,0.0-191.0-0.0,voc_e2,12149,"[{""event"":""fullscreenenter"",""trial"":1,""time"":1960}]",NA,NA,NA,NA,NA,5,#D89F1C,#3386FF,0,10,1,40,0,326.90000000037253,37,1,486.2000000011176,0,1,experiment,NA,NA,1,0.7,0.3,2,3,182,5,NA
fcp-trial,217,820992,0.0-192.0-0.0,voc_e2,12149,"[{""event"":""fullscreenenter"",""trial"":1,""time"":1960}]",NA,NA,NA,NA,NA,0,#741CD8,#D8271C,0,10,1,40,0,360.69999999925494,39,0,388.90000000037253,10,0,experiment,NA,NA,2,0.5,0.5,4,5,183,5,NA
fcp-trial,218,823471,0.0-193.0-0.0,voc_e2,12149,"[{""event"":""fullscreenenter"",""trial"":1,""time"":1960}]",NA,NA,NA,NA,NA,0,#D89F1C,#3386FF,0,0,1,40,0,550,37,1,422.59999999962747,0,1,experiment,NA,NA,1,0.7,0.3,2,3,184,5,NA
fcp-trial,219,825982,0.0-194.0-0.0,voc_e2,12149,"[{""event"":""fullscreenenter"",""trial"":1,""time"":1960}]",NA,NA,NA,NA,NA,5,#1CD855,#FA92F8,0,10,0,40,0,376.09999999962747,37,1,630.4000000003725,0,0,experiment,NA,NA,0,0.1,0.9,1,0,185,5,NA
fcp-trial,220,829237,0.0-195.0-0.0,voc_e2,12149,"[{""event"":""fullscreenenter"",""trial"":1,""time"":1960}]",NA,NA,NA,NA,NA,2,#D89F1C,#3386FF,0,10,1,40,0,1353.1000000014901,37,1,395.40000000037253,0,1,experiment,NA,NA,1,0.7,0.3,2,3,186,5,NA
fcp-trial,221,831720,0.0-196.0-0.0,voc_e2,12149,"[{""event"":""fullscreenenter"",""trial"":1,""time"":1960}]",NA,NA,NA,NA,NA,1,#741CD8,#D8271C,0,0,1,38,1,514.2999999988824,37,1,463.80000000074506,0,1,experiment,NA,NA,2,0.5,0.5,4,5,187,5,NA
fcp-trial,222,834359,0.0-197.0-0.0,voc_e2,12149,"[{""event"":""fullscreenenter"",""trial"":1,""time"":1960}]",NA,NA,NA,NA,NA,1,#3386FF,#D89F1C,0,10,0,38,1,511.2999999988824,39,0,622.7999999988824,10,1,experiment,NA,NA,1,0.3,0.7,3,2,188,5,NA
fcp-trial,223,836545,0.0-198.0-0.0,voc_e2,12149,"[{""event"":""fullscreenenter"",""trial"":1,""time"":1960}]",NA,NA,NA,NA,NA,4,#741CD8,#D8271C,10,0,1,38,1,184.19999999925494,37,1,495.40000000037253,10,1,experiment,NA,NA,2,0.5,0.5,4,5,189,5,NA
fcp-trial,224,838671,0.0-199.0-0.0,voc_e2,12149,"[{""event"":""fullscreenenter"",""trial"":1,""time"":1960}]",NA,NA,NA,NA,NA,2,#FA92F8,#1CD855,10,0,1,38,1,308.5,37,1,311.09999999962747,10,1,experiment,NA,NA,0,0.9,0.1,0,1,190,5,NA
fcp-trial,225,841264,0.0-200.0-0.0,voc_e2,12149,"[{""event"":""fullscreenenter"",""trial"":1,""time"":1960}]",NA,NA,NA,NA,NA,0,#FA92F8,#1CD855,10,0,1,38,1,743.6999999992549,37,1,343.19999999925494,10,1,experiment,NA,NA,0,0.9,0.1,0,1,191,5,NA
fcp-trial,226,843589,0.0-201.0-0.0,voc_e2,12149,"[{""event"":""fullscreenenter"",""trial"":1,""time"":1960}]",NA,NA,NA,NA,NA,1,#D89F1C,#3386FF,10,0,1,38,1,517.1999999992549,37,1,303.30000000074506,10,1,experiment,NA,NA,1,0.7,0.3,2,3,192,5,NA
fcp-trial,227,849096,0.0-202.0-0.0,voc_e2,12149,"[{""event"":""fullscreenenter"",""trial"":1,""time"":1960}]",NA,NA,NA,NA,NA,4,#FA92F8,#1CD855,10,0,1,38,1,3226,37,1,773.7999999988824,10,1,experiment,NA,NA,0,0.9,0.1,0,1,193,5,NA
fcp-trial,228,851703,0.0-203.0-0.0,voc_e2,12149,"[{""event"":""fullscreenenter"",""trial"":1,""time"":1960}]",NA,NA,NA,NA,NA,5,#D8271C,#741CD8,10,10,0,38,1,551.0999999996275,39,0,551.7999999988824,10,1,experiment,NA,NA,2,0.5,0.5,5,4,194,5,NA
fcp-trial,229,854311,0.0-204.0-0.0,voc_e2,12149,"[{""event"":""fullscreenenter"",""trial"":1,""time"":1960}]",NA,NA,NA,NA,NA,4,#D89F1C,#3386FF,0,10,1,38,1,632.2000000011176,37,1,468.59999999962747,0,1,experiment,NA,NA,1,0.7,0.3,2,3,195,5,NA
fcp-trial,230,857258,0.0-205.0-0.0,voc_e2,12149,"[{""event"":""fullscreenenter"",""trial"":1,""time"":1960}]",NA,NA,NA,NA,NA,1,#1CD855,#FA92F8,0,10,0,38,1,441.30000000074506,39,0,999.1999999992549,10,1,experiment,NA,NA,0,0.1,0.9,1,0,196,5,NA
fcp-trial,231,860046,0.0-206.0-0.0,voc_e2,12149,"[{""event"":""fullscreenenter"",""trial"":1,""time"":1960}]",NA,NA,NA,NA,NA,1,#D8271C,#741CD8,10,10,0,38,1,781,39,0,501.69999999925494,10,1,experiment,NA,NA,2,0.5,0.5,5,4,197,5,NA
fcp-trial,232,862711,0.0-207.0-0.0,voc_e2,12149,"[{""event"":""fullscreenenter"",""trial"":1,""time"":1960}]",NA,NA,NA,NA,NA,2,#D8271C,#741CD8,10,0,0,38,1,696.9000000003725,39,0,462.30000000074506,0,1,experiment,NA,NA,2,0.5,0.5,5,4,198,5,NA
fcp-trial,233,866150,0.0-208.0-0.0,voc_e2,12149,"[{""event"":""fullscreenenter"",""trial"":1,""time"":1960}]",NA,NA,NA,NA,NA,4,#741CD8,#D8271C,10,0,1,38,1,1456.300000000745,37,1,478.69999999925494,10,1,experiment,NA,NA,2,0.5,0.5,4,5,199,5,NA
fcp-trial,234,868577,0.0-209.0-0.0,voc_e2,12149,"[{""event"":""fullscreenenter"",""trial"":1,""time"":1960}]",NA,NA,NA,NA,NA,2,#D89F1C,#3386FF,0,10,1,38,1,369.30000000074506,37,1,553.2000000011176,0,1,experiment,NA,NA,1,0.7,0.3,2,3,200,5,NA
fcp-trial,235,871071,0.0-210.0-0.0,voc_e2,12149,"[{""event"":""fullscreenenter"",""trial"":1,""time"":1960}]",NA,NA,NA,NA,NA,3,#1CD855,#FA92F8,10,10,0,38,1,694.7000000011176,39,0,292.19999999925494,10,1,experiment,NA,NA,0,0.1,0.9,1,0,201,5,NA
fcp-trial,236,873945,0.0-211.0-0.0,voc_e2,12149,"[{""event"":""fullscreenenter"",""trial"":1,""time"":1960}]",NA,NA,NA,NA,NA,3,#741CD8,#D8271C,0,0,1,38,1,710.5999999996275,37,1,655.5,0,1,experiment,NA,NA,2,0.5,0.5,4,5,202,5,NA
fcp-trial,237,876199,0.0-212.0-0.0,voc_e2,12149,"[{""event"":""fullscreenenter"",""trial"":1,""time"":1960}]",NA,NA,NA,NA,NA,0,#741CD8,#D8271C,10,0,1,38,1,445.7000000011176,37,1,303.3999999985099,10,1,experiment,NA,NA,2,0.5,0.5,4,5,203,5,NA
fcp-trial,238,878822,0.0-213.0-0.0,voc_e2,12149,"[{""event"":""fullscreenenter"",""trial"":1,""time"":1960}]",NA,NA,NA,NA,NA,6,#FA92F8,#1CD855,10,0,1,38,1,718.8999999985099,37,1,398.40000000037253,10,1,experiment,NA,NA,0,0.9,0.1,0,1,204,5,NA
fcp-trial,239,882151,0.0-214.0-0.0,voc_e2,12149,"[{""event"":""fullscreenenter"",""trial"":1,""time"":1960}]",NA,NA,NA,NA,NA,6,#3386FF,#D89F1C,0,10,0,38,1,1385.300000000745,39,0,437.40000000037253,10,1,experiment,NA,NA,1,0.3,0.7,3,2,205,5,NA
fcp-trial,240,891271,0.0-215.0-0.0,voc_e2,12149,"[{""event"":""fullscreenenter"",""trial"":1,""time"":1960}]",NA,NA,NA,NA,NA,0,#3386FF,#D89F1C,0,0,0,38,1,7232.799999998882,37,1,381.7000000011176,0,0,experiment,NA,NA,1,0.3,0.7,3,2,206,5,NA
fcp-trial,241,893639,0.0-216.0-0.0,voc_e2,12149,"[{""event"":""fullscreenenter"",""trial"":1,""time"":1960}]",NA,NA,NA,NA,NA,6,#741CD8,#D8271C,0,10,1,38,1,551.5,39,0,309.5,10,0,experiment,NA,NA,2,0.5,0.5,4,5,207,5,NA
fcp-trial,242,895868,0.0-217.0-0.0,voc_e2,12149,"[{""event"":""fullscreenenter"",""trial"":1,""time"":1960}]",NA,NA,NA,NA,NA,5,#FA92F8,#1CD855,10,0,1,38,1,326.90000000037253,37,1,396.90000000037253,10,1,experiment,NA,NA,0,0.9,0.1,0,1,208,5,NA
fcp-trial,243,898620,0.0-218.0-0.0,voc_e2,12149,"[{""event"":""fullscreenenter"",""trial"":1,""time"":1960}]",NA,NA,NA,NA,NA,5,#3386FF,#D89F1C,0,0,0,38,1,777.4000000003725,39,0,471.30000000074506,0,1,experiment,NA,NA,1,0.3,0.7,3,2,209,5,NA
fcp-trial,244,908540,0.0-219.0-0.0,voc_e2,12149,"[{""event"":""fullscreenenter"",""trial"":1,""time"":1960}]",NA,NA,NA,NA,NA,3,#3386FF,#D89F1C,0,10,0,38,1,8033.699999999255,37,1,381.30000000074506,0,0,experiment,NA,NA,1,0.3,0.7,3,2,210,5,NA
audio-instructions,245,921021,0.0-220.0,voc_e2,12149,"[{""event"":""fullscreenenter"",""trial"":1,""time"":1960}]",NA,8037.299999998882,static/audio/pause.wav,NA,0,NA,NA,NA,NA,NA,NA,NA,NA,NA,NA,NA,NA,NA,NA,NA,NA,NA,NA,NA,NA,NA,NA,NA,NA,NA
fcp-trial,246,923974,0.0-221.0-0.0,voc_e2,12149,"[{""event"":""fullscreenenter"",""trial"":1,""time"":1960}]",NA,NA,NA,NA,NA,3,#1CD855,#FA92F8,0,10,0,38,1,1000.3999999985099,39,0,447.30000000074506,10,1,experiment,NA,NA,0,0.1,0.9,1,0,211,5,NA
fcp-trial,247,926258,0.0-222.0-0.0,voc_e2,12149,"[{""event"":""fullscreenenter"",""trial"":1,""time"":1960}]",NA,NA,NA,NA,NA,1,#1CD855,#FA92F8,0,10,0,38,1,511.90000000037253,37,1,267,0,0,experiment,NA,NA,0,0.1,0.9,1,0,212,5,NA
fcp-trial,248,928951,0.0-223.0-0.0,voc_e2,12149,"[{""event"":""fullscreenenter"",""trial"":1,""time"":1960}]",NA,NA,NA,NA,NA,4,#1CD855,#FA92F8,0,10,0,38,1,444.30000000074506,39,0,742.4000000003725,10,1,experiment,NA,NA,0,0.1,0.9,1,0,213,5,NA
fcp-trial,249,931829,0.0-224.0-0.0,voc_e2,12149,"[{""event"":""fullscreenenter"",""trial"":1,""time"":1960}]",NA,NA,NA,NA,NA,6,#1CD855,#FA92F8,0,10,0,38,1,621.6999999992549,39,0,750,10,1,experiment,NA,NA,0,0.1,0.9,1,0,214,5,NA
fcp-trial,250,934485,0.0-225.0-0.0,voc_e2,12149,"[{""event"":""fullscreenenter"",""trial"":1,""time"":1960}]",NA,NA,NA,NA,NA,1,#3386FF,#D89F1C,0,10,0,38,1,536.5999999996275,39,0,615.1999999992549,10,1,experiment,NA,NA,1,0.3,0.7,3,2,215,5,NA
fcp-trial,251,937671,0.0-226.0-0.0,voc_e2,12149,"[{""event"":""fullscreenenter"",""trial"":1,""time"":1960}]",NA,NA,NA,NA,NA,3,#741CD8,#D8271C,10,0,1,38,1,1358.9000000003725,37,1,318.5,10,1,experiment,NA,NA,2,0.5,0.5,4,5,216,5,NA
fcp-trial,252,943495,0.0-227.0-0.0,voc_e2,12149,"[{""event"":""fullscreenenter"",""trial"":1,""time"":1960}]",NA,NA,NA,NA,NA,0,#D89F1C,#3386FF,0,10,1,38,1,3750.699999999255,37,1,568.4000000003725,0,1,experiment,NA,NA,1,0.7,0.3,2,3,217,5,NA
fcp-trial,253,946115,0.0-228.0-0.0,voc_e2,12149,"[{""event"":""fullscreenenter"",""trial"":1,""time"":1960}]",NA,NA,NA,NA,NA,2,#1CD855,#FA92F8,10,10,0,38,1,790.4000000003725,39,0,323.69999999925494,10,1,experiment,NA,NA,0,0.1,0.9,1,0,218,5,NA
fcp-trial,254,949113,0.0-229.0-0.0,voc_e2,12149,"[{""event"":""fullscreenenter"",""trial"":1,""time"":1960}]",NA,NA,NA,NA,NA,3,#D89F1C,#3386FF,10,10,1,38,1,1124.0999999996275,37,1,370.2999999988824,10,1,experiment,NA,NA,1,0.7,0.3,2,3,219,5,NA
fcp-trial,255,951598,0.0-230.0-0.0,voc_e2,12149,"[{""event"":""fullscreenenter"",""trial"":1,""time"":1960}]",NA,NA,NA,NA,NA,6,#3386FF,#D89F1C,0,10,0,38,1,620.1999999992549,39,0,352.7000000011176,10,1,experiment,NA,NA,1,0.3,0.7,3,2,220,5,NA
fcp-trial,256,954037,0.0-231.0-0.0,voc_e2,12149,"[{""event"":""fullscreenenter"",""trial"":1,""time"":1960}]",NA,NA,NA,NA,NA,1,#D8271C,#741CD8,0,0,0,38,1,455,37,1,478.7999999988824,0,0,experiment,NA,NA,2,0.5,0.5,5,4,221,5,NA
fcp-trial,257,956220,0.0-232.0-0.0,voc_e2,12149,"[{""event"":""fullscreenenter"",""trial"":1,""time"":1960}]",NA,NA,NA,NA,NA,0,#FA92F8,#1CD855,10,0,1,38,1,353.69999999925494,37,1,324.90000000037253,10,1,experiment,NA,NA,0,0.9,0.1,0,1,222,5,NA
fcp-trial,258,959453,0.0-233.0-0.0,voc_e2,12149,"[{""event"":""fullscreenenter"",""trial"":1,""time"":1960}]",NA,NA,NA,NA,NA,4,#D89F1C,#3386FF,10,0,1,38,1,754.3999999985099,37,1,973.6999999992549,10,1,experiment,NA,NA,1,0.7,0.3,2,3,223,5,NA
fcp-trial,259,961692,0.0-234.0-0.0,voc_e2,12149,"[{""event"":""fullscreenenter"",""trial"":1,""time"":1960}]",NA,NA,NA,NA,NA,5,#741CD8,#D8271C,0,0,1,38,1,447.69999999925494,37,1,284.80000000074506,0,1,experiment,NA,NA,2,0.5,0.5,4,5,224,5,NA
fcp-trial,260,963821,0.0-235.0-0.0,voc_e2,12149,"[{""event"":""fullscreenenter"",""trial"":1,""time"":1960}]",NA,NA,NA,NA,NA,6,#741CD8,#D8271C,0,10,1,38,1,175.5,37,1,445.40000000037253,0,1,experiment,NA,NA,2,0.5,0.5,4,5,225,5,NA
fcp-trial,261,965943,0.0-236.0-0.0,voc_e2,12149,"[{""event"":""fullscreenenter"",""trial"":1,""time"":1960}]",NA,NA,NA,NA,NA,5,#D89F1C,#3386FF,10,10,1,38,1,256.19999999925494,39,0,358.69999999925494,10,0,experiment,NA,NA,1,0.7,0.3,2,3,226,6,NA
fcp-trial,262,967877,0.0-237.0-0.0,voc_e2,12149,"[{""event"":""fullscreenenter"",""trial"":1,""time"":1960}]",NA,NA,NA,NA,NA,5,#FA92F8,#1CD855,10,0,1,38,1,5.400000000372529,37,1,422,10,1,experiment,NA,NA,0,0.9,0.1,0,1,227,6,NA
fcp-trial,263,970137,0.0-238.0-0.0,voc_e2,12149,"[{""event"":""fullscreenenter"",""trial"":1,""time"":1960}]",NA,NA,NA,NA,NA,4,#D8271C,#741CD8,10,10,0,38,1,326.7999999988824,37,1,423.8999999985099,10,0,experiment,NA,NA,2,0.5,0.5,5,4,228,6,NA
fcp-trial,264,972637,0.0-239.0-0.0,voc_e2,12149,"[{""event"":""fullscreenenter"",""trial"":1,""time"":1960}]",NA,NA,NA,NA,NA,2,#3386FF,#D89F1C,0,10,0,38,1,468.3999999985099,39,0,525.4000000003725,10,1,experiment,NA,NA,1,0.3,0.7,3,2,229,6,NA
fcp-trial,265,975063,0.0-240.0-0.0,voc_e2,12149,"[{""event"":""fullscreenenter"",""trial"":1,""time"":1960}]",NA,NA,NA,NA,NA,0,#D8271C,#741CD8,0,0,0,38,1,360.5,37,1,559.0999999996275,0,0,experiment,NA,NA,2,0.5,0.5,5,4,230,6,NA
fcp-trial,266,977310,0.0-241.0-0.0,voc_e2,12149,"[{""event"":""fullscreenenter"",""trial"":1,""time"":1960}]",NA,NA,NA,NA,NA,2,#741CD8,#D8271C,10,10,1,38,1,277.69999999925494,39,0,459.80000000074506,10,0,experiment,NA,NA,2,0.5,0.5,4,5,231,6,NA
fcp-trial,267,979522,0.0-242.0-0.0,voc_e2,12149,"[{""event"":""fullscreenenter"",""trial"":1,""time"":1960}]",NA,NA,NA,NA,NA,1,#3386FF,#D89F1C,0,10,0,38,1,327.3999999985099,39,0,380.5,10,1,experiment,NA,NA,1,0.3,0.7,3,2,232,6,NA
fcp-trial,268,981657,0.0-243.0-0.0,voc_e2,12149,"[{""event"":""fullscreenenter"",""trial"":1,""time"":1960}]",NA,NA,NA,NA,NA,0,#1CD855,#FA92F8,0,10,0,38,1,250.7000000011176,39,0,376.2999999988824,10,1,experiment,NA,NA,0,0.1,0.9,1,0,233,6,NA
fcp-trial,269,984197,0.0-244.0-0.0,voc_e2,12149,"[{""event"":""fullscreenenter"",""trial"":1,""time"":1960}]",NA,NA,NA,NA,NA,2,#D8271C,#741CD8,0,0,0,38,1,644,39,0,391.5,0,1,experiment,NA,NA,2,0.5,0.5,5,4,234,6,NA
fcp-trial,270,986493,0.0-245.0-0.0,voc_e2,12149,"[{""event"":""fullscreenenter"",""trial"":1,""time"":1960}]",NA,NA,NA,NA,NA,4,#3386FF,#D89F1C,10,10,0,38,1,478.09999999962747,39,0,310.09999999962747,10,1,experiment,NA,NA,1,0.3,0.7,3,2,235,6,NA
fcp-trial,271,988691,0.0-246.0-0.0,voc_e2,12149,"[{""event"":""fullscreenenter"",""trial"":1,""time"":1960}]",NA,NA,NA,NA,NA,4,#1CD855,#FA92F8,0,0,0,38,1,415.7999999988824,39,0,277.5,0,1,experiment,NA,NA,0,0.1,0.9,1,0,236,6,NA
fcp-trial,272,991276,0.0-247.0-0.0,voc_e2,12149,"[{""event"":""fullscreenenter"",""trial"":1,""time"":1960}]",NA,NA,NA,NA,NA,4,#741CD8,#D8271C,10,0,1,38,1,793.8999999985099,39,0,287.19999999925494,0,0,experiment,NA,NA,2,0.5,0.5,4,5,237,6,NA
fcp-trial,273,1006282,0.0-248.0-0.0,voc_e2,12149,"[{""event"":""fullscreenenter"",""trial"":1,""time"":1960}]",NA,NA,NA,NA,NA,1,#741CD8,#D8271C,0,0,1,null,null,null,null,null,null,NA,0,experiment,NA,NA,2,0.5,0.5,4,5,238,6,NA
fcp-trial,274,1010043,0.0-249.0-0.0,voc_e2,12149,"[{""event"":""fullscreenenter"",""trial"":1,""time"":1960}]",NA,NA,NA,NA,NA,1,#FA92F8,#1CD855,0,0,1,38,1,1594.4000000003725,37,1,663.0999999996275,0,1,experiment,NA,NA,0,0.9,0.1,0,1,239,6,NA
fcp-trial,275,1012644,0.0-250.0-0.0,voc_e2,12149,"[{""event"":""fullscreenenter"",""trial"":1,""time"":1960}]",NA,NA,NA,NA,NA,6,#3386FF,#D89F1C,0,10,0,38,1,553.3000000007451,39,0,543.5999999996275,10,1,experiment,NA,NA,1,0.3,0.7,3,2,240,6,NA
fcp-trial,276,1014971,0.0-251.0-0.0,voc_e2,12149,"[{""event"":""fullscreenenter"",""trial"":1,""time"":1960}]",NA,NA,NA,NA,NA,6,#741CD8,#D8271C,10,10,1,38,1,496.30000000074506,39,0,326.40000000037253,10,0,experiment,NA,NA,2,0.5,0.5,4,5,241,6,NA
fcp-trial,277,1017670,0.0-252.0-0.0,voc_e2,12149,"[{""event"":""fullscreenenter"",""trial"":1,""time"":1960}]",NA,NA,NA,NA,NA,0,#3386FF,#D89F1C,0,0,0,38,1,768.9000000003725,39,0,422,0,1,experiment,NA,NA,1,0.3,0.7,3,2,242,6,NA
fcp-trial,278,1019740,0.0-253.0-0.0,voc_e2,12149,"[{""event"":""fullscreenenter"",""trial"":1,""time"":1960}]",NA,NA,NA,NA,NA,3,#FA92F8,#1CD855,10,0,1,38,1,205.80000000074506,37,1,359.09999999962747,10,1,experiment,NA,NA,0,0.9,0.1,0,1,243,6,NA
fcp-trial,279,1025803,0.0-254.0-0.0,voc_e2,12149,"[{""event"":""fullscreenenter"",""trial"":1,""time"":1960}]",NA,NA,NA,NA,NA,3,#D8271C,#741CD8,0,10,0,38,1,4199.799999998882,39,0,356.90000000037253,10,1,experiment,NA,NA,2,0.5,0.5,5,4,244,6,NA
fcp-trial,280,1028158,0.0-255.0-0.0,voc_e2,12149,"[{""event"":""fullscreenenter"",""trial"":1,""time"":1960}]",NA,NA,NA,NA,NA,5,#FA92F8,#1CD855,10,0,1,38,1,337.5,37,1,510.09999999962747,10,1,experiment,NA,NA,0,0.9,0.1,0,1,245,6,NA
fcp-trial,281,1030199,0.0-256.0-0.0,voc_e2,12149,"[{""event"":""fullscreenenter"",""trial"":1,""time"":1960}]",NA,NA,NA,NA,NA,5,#D89F1C,#3386FF,0,0,1,38,1,39.90000000037253,39,0,493.59999999962747,0,0,experiment,NA,NA,1,0.7,0.3,2,3,246,6,NA
fcp-trial,282,1035492,0.0-257.0-0.0,voc_e2,12149,"[{""event"":""fullscreenenter"",""trial"":1,""time"":1960}]",NA,NA,NA,NA,NA,3,#D89F1C,#3386FF,0,10,1,40,0,3341.4000000003725,39,0,446.5,10,0,experiment,NA,NA,1,0.7,0.3,2,3,247,6,NA
fcp-trial,283,1038621,0.0-258.0-0.0,voc_e2,12149,"[{""event"":""fullscreenenter"",""trial"":1,""time"":1960}]",NA,NA,NA,NA,NA,0,#741CD8,#D8271C,10,10,1,38,1,1158.800000000745,37,1,462.40000000037253,10,1,experiment,NA,NA,2,0.5,0.5,4,5,248,6,NA
fcp-trial,284,1040772,0.0-259.0-0.0,voc_e2,12149,"[{""event"":""fullscreenenter"",""trial"":1,""time"":1960}]",NA,NA,NA,NA,NA,2,#FA92F8,#1CD855,10,0,1,38,1,255.40000000037253,37,1,389.6000000014901,10,1,experiment,NA,NA,0,0.9,0.1,0,1,249,6,NA
fcp-trial,285,1043473,0.0-260.0-0.0,voc_e2,12149,"[{""event"":""fullscreenenter"",""trial"":1,""time"":1960}]",NA,NA,NA,NA,NA,6,#1CD855,#FA92F8,0,10,0,38,1,784.2999999988824,39,0,408.69999999925494,10,1,experiment,NA,NA,0,0.1,0.9,1,0,250,6,NA
fcp-trial,286,1045412,0.0-261.0-0.0,voc_e2,12149,"[{""event"":""fullscreenenter"",""trial"":1,""time"":1960}]",NA,NA,NA,NA,NA,5,#741CD8,#D8271C,0,0,1,38,1,59.5,37,1,375.2999999988824,0,1,experiment,NA,NA,2,0.5,0.5,4,5,251,6,NA
fcp-trial,287,1047774,0.0-262.0-0.0,voc_e2,12149,"[{""event"":""fullscreenenter"",""trial"":1,""time"":1960}]",NA,NA,NA,NA,NA,2,#D89F1C,#3386FF,10,0,1,38,1,486.59999999962747,39,0,366.5,0,0,experiment,NA,NA,1,0.7,0.3,2,3,252,6,NA
fcp-trial,288,1049946,0.0-263.0-0.0,voc_e2,12149,"[{""event"":""fullscreenenter"",""trial"":1,""time"":1960}]",NA,NA,NA,NA,NA,2,#FA92F8,#1CD855,10,0,1,38,1,310,37,1,358.19999999925494,10,1,experiment,NA,NA,0,0.9,0.1,0,1,253,6,NA
fcp-trial,289,1051941,0.0-264.0-0.0,voc_e2,12149,"[{""event"":""fullscreenenter"",""trial"":1,""time"":1960}]",NA,NA,NA,NA,NA,5,#D8271C,#741CD8,0,10,0,38,1,180.90000000037253,39,0,306.7999999988824,10,1,experiment,NA,NA,2,0.5,0.5,5,4,254,6,NA
fcp-trial,290,1053975,0.0-265.0-0.0,voc_e2,12149,"[{""event"":""fullscreenenter"",""trial"":1,""time"":1960}]",NA,NA,NA,NA,NA,0,#FA92F8,#1CD855,0,0,1,38,1,207,37,1,321,0,1,experiment,NA,NA,0,0.9,0.1,0,1,255,6,NA
fcp-trial,291,1056140,0.0-266.0-0.0,voc_e2,12149,"[{""event"":""fullscreenenter"",""trial"":1,""time"":1960}]",NA,NA,NA,NA,NA,0,#D89F1C,#3386FF,0,0,1,38,1,293,39,0,368.80000000074506,0,0,experiment,NA,NA,1,0.7,0.3,2,3,256,6,NA
fcp-trial,292,1059274,0.0-267.0-0.0,voc_e2,12149,"[{""event"":""fullscreenenter"",""trial"":1,""time"":1960}]",NA,NA,NA,NA,NA,3,#741CD8,#D8271C,10,10,1,38,1,1279.699999999255,39,0,348.1000000014901,10,0,experiment,NA,NA,2,0.5,0.5,4,5,257,6,NA
fcp-trial,293,1061925,0.0-268.0-0.0,voc_e2,12149,"[{""event"":""fullscreenenter"",""trial"":1,""time"":1960}]",NA,NA,NA,NA,NA,4,#FA92F8,#1CD855,10,0,1,38,1,314.09999999962747,37,1,829.1999999992549,10,1,experiment,NA,NA,0,0.9,0.1,0,1,258,6,NA
fcp-trial,294,1063825,0.0-269.0-0.0,voc_e2,12149,"[{""event"":""fullscreenenter"",""trial"":1,""time"":1960}]",NA,NA,NA,NA,NA,5,#3386FF,#D89F1C,0,0,0,38,1,78.90000000037253,39,0,317,0,1,experiment,NA,NA,1,0.3,0.7,3,2,259,6,NA
fcp-trial,295,1066078,0.0-270.0-0.0,voc_e2,12149,"[{""event"":""fullscreenenter"",""trial"":1,""time"":1960}]",NA,NA,NA,NA,NA,5,#FA92F8,#1CD855,0,0,1,38,1,459.80000000074506,37,1,287.69999999925494,0,1,experiment,NA,NA,0,0.9,0.1,0,1,260,6,NA
fcp-trial,296,1069146,0.0-271.0-0.0,voc_e2,12149,"[{""event"":""fullscreenenter"",""trial"":1,""time"":1960}]",NA,NA,NA,NA,NA,0,#741CD8,#D8271C,10,0,1,38,1,1270.0999999996275,37,1,292.09999999962747,10,1,experiment,NA,NA,2,0.5,0.5,4,5,261,6,NA
fcp-trial,297,1071218,0.0-272.0-0.0,voc_e2,12149,"[{""event"":""fullscreenenter"",""trial"":1,""time"":1960}]",NA,NA,NA,NA,NA,1,#D8271C,#741CD8,0,0,0,38,1,298.1000000014901,39,0,269.5,0,1,experiment,NA,NA,2,0.5,0.5,5,4,262,6,NA
fcp-trial,298,1073803,0.0-273.0-0.0,voc_e2,12149,"[{""event"":""fullscreenenter"",""trial"":1,""time"":1960}]",NA,NA,NA,NA,NA,1,#D89F1C,#3386FF,10,0,1,38,1,543.5999999996275,39,0,535.4000000003725,0,0,experiment,NA,NA,1,0.7,0.3,2,3,263,6,NA
fcp-trial,299,1076283,0.0-274.0-0.0,voc_e2,12149,"[{""event"":""fullscreenenter"",""trial"":1,""time"":1960}]",NA,NA,NA,NA,NA,6,#1CD855,#FA92F8,0,0,0,38,1,455,39,0,518.9000000003725,0,1,experiment,NA,NA,0,0.1,0.9,1,0,264,6,NA
fcp-trial,300,1079085,0.0-275.0-0.0,voc_e2,12149,"[{""event"":""fullscreenenter"",""trial"":1,""time"":1960}]",NA,NA,NA,NA,NA,3,#3386FF,#D89F1C,10,10,0,38,1,816.5999999996275,39,0,479.09999999962747,10,1,experiment,NA,NA,1,0.3,0.7,3,2,265,6,NA
fcp-trial,301,1081226,0.0-276.0-0.0,voc_e2,12149,"[{""event"":""fullscreenenter"",""trial"":1,""time"":1960}]",NA,NA,NA,NA,NA,1,#1CD855,#FA92F8,0,10,0,38,1,126.69999999925494,39,0,509.90000000037253,10,1,experiment,NA,NA,0,0.1,0.9,1,0,266,6,NA
fcp-trial,302,1083556,0.0-277.0-0.0,voc_e2,12149,"[{""event"":""fullscreenenter"",""trial"":1,""time"":1960}]",NA,NA,NA,NA,NA,6,#D8271C,#741CD8,0,10,0,38,1,56.80000000074506,37,1,767.6000000014901,0,0,experiment,NA,NA,2,0.5,0.5,5,4,267,6,NA
fcp-trial,303,1086972,0.0-278.0-0.0,voc_e2,12149,"[{""event"":""fullscreenenter"",""trial"":1,""time"":1960}]",NA,NA,NA,NA,NA,6,#3386FF,#D89F1C,0,10,0,38,1,102.59999999962747,39,0,1805.699999999255,10,1,experiment,NA,NA,1,0.3,0.7,3,2,268,6,NA
fcp-trial,304,1089291,0.0-279.0-0.0,voc_e2,12149,"[{""event"":""fullscreenenter"",""trial"":1,""time"":1960}]",NA,NA,NA,NA,NA,2,#741CD8,#D8271C,0,10,1,40,0,415.7000000011176,37,1,397.90000000037253,0,1,experiment,NA,NA,2,0.5,0.5,4,5,269,6,NA
fcp-trial,305,1091673,0.0-280.0-0.0,voc_e2,12149,"[{""event"":""fullscreenenter"",""trial"":1,""time"":1960}]",NA,NA,NA,NA,NA,3,#FA92F8,#1CD855,10,0,1,40,0,608,39,0,266.19999999925494,0,0,experiment,NA,NA,0,0.9,0.1,0,1,270,6,NA
fcp-trial,306,1093570,0.0-281.0-0.0,voc_e2,12149,"[{""event"":""fullscreenenter"",""trial"":1,""time"":1960}]",NA,NA,NA,NA,NA,2,#D89F1C,#3386FF,10,10,1,40,0,120.5,39,0,270.40000000037253,10,0,experiment,NA,NA,1,0.7,0.3,2,3,271,7,NA
fcp-trial,307,1095802,0.0-282.0-0.0,voc_e2,12149,"[{""event"":""fullscreenenter"",""trial"":1,""time"":1960}]",NA,NA,NA,NA,NA,4,#3386FF,#D89F1C,0,10,0,40,0,233.2999999988824,37,1,492.59999999962747,0,0,experiment,NA,NA,1,0.3,0.7,3,2,272,7,NA
fcp-trial,308,1098565,0.0-283.0-0.0,voc_e2,12149,"[{""event"":""fullscreenenter"",""trial"":1,""time"":1960}]",NA,NA,NA,NA,NA,4,#741CD8,#D8271C,10,10,1,40,0,122.20000000111759,39,0,1134.6000000014901,10,0,experiment,NA,NA,2,0.5,0.5,4,5,273,7,NA
fcp-trial,309,1101244,0.0-284.0-0.0,voc_e2,12149,"[{""event"":""fullscreenenter"",""trial"":1,""time"":1960}]",NA,NA,NA,NA,NA,0,#D89F1C,#3386FF,10,0,1,40,0,53.5,37,1,1117,10,1,experiment,NA,NA,1,0.7,0.3,2,3,274,7,NA
fcp-trial,310,1104251,0.0-285.0-0.0,voc_e2,12149,"[{""event"":""fullscreenenter"",""trial"":1,""time"":1960}]",NA,NA,NA,NA,NA,1,#FA92F8,#1CD855,10,0,1,40,0,654.2999999988824,39,0,846.5,0,0,experiment,NA,NA,0,0.9,0.1,0,1,275,7,NA
fcp-trial,311,1106994,0.0-286.0-0.0,voc_e2,12149,"[{""event"":""fullscreenenter"",""trial"":1,""time"":1960}]",NA,NA,NA,NA,NA,5,#3386FF,#D89F1C,10,10,0,40,0,865.3000000007451,37,1,372.5,10,0,experiment,NA,NA,1,0.3,0.7,3,2,276,7,NA
fcp-trial,312,1111332,0.0-287.0-0.0,voc_e2,12149,"[{""event"":""fullscreenenter"",""trial"":1,""time"":1960}]",NA,NA,NA,NA,NA,0,#741CD8,#D8271C,0,10,1,38,1,2232.2999999988824,37,1,599.4000000003725,0,1,experiment,NA,NA,2,0.5,0.5,4,5,277,7,NA
fcp-trial,313,1114520,0.0-288.0-0.0,voc_e2,12149,"[{""event"":""fullscreenenter"",""trial"":1,""time"":1960}]",NA,NA,NA,NA,NA,6,#D89F1C,#3386FF,10,0,1,40,0,1248.4000000003725,39,0,434.59999999962747,0,0,experiment,NA,NA,1,0.7,0.3,2,3,278,7,NA
fcp-trial,314,1117668,0.0-289.0-0.0,voc_e2,12149,"[{""event"":""fullscreenenter"",""trial"":1,""time"":1960}]",NA,NA,NA,NA,NA,4,#1CD855,#FA92F8,0,10,0,40,0,434.8999999985099,39,0,1208.6000000014901,10,1,experiment,NA,NA,0,0.1,0.9,1,0,279,7,NA
fcp-trial,315,1120235,0.0-290.0-0.0,voc_e2,12149,"[{""event"":""fullscreenenter"",""trial"":1,""time"":1960}]",NA,NA,NA,NA,NA,1,#D8271C,#741CD8,10,0,0,40,0,344.69999999925494,39,0,718,0,1,experiment,NA,NA,2,0.5,0.5,5,4,280,7,NA
fcp-trial,316,1122980,0.0-291.0-0.0,voc_e2,12149,"[{""event"":""fullscreenenter"",""trial"":1,""time"":1960}]",NA,NA,NA,NA,NA,3,#741CD8,#D8271C,10,0,1,40,0,528.7999999988824,37,1,710.4000000003725,10,1,experiment,NA,NA,2,0.5,0.5,4,5,281,7,NA
fcp-trial,317,1125613,0.0-292.0-0.0,voc_e2,12149,"[{""event"":""fullscreenenter"",""trial"":1,""time"":1960}]",NA,NA,NA,NA,NA,5,#741CD8,#D8271C,0,0,1,40,0,861,37,1,261.7999999988824,0,1,experiment,NA,NA,2,0.5,0.5,4,5,282,7,NA
fcp-trial,318,1127981,0.0-293.0-0.0,voc_e2,12149,"[{""event"":""fullscreenenter"",""trial"":1,""time"":1960}]",NA,NA,NA,NA,NA,3,#D89F1C,#3386FF,0,0,1,40,0,198,37,1,662.1999999992549,0,1,experiment,NA,NA,1,0.7,0.3,2,3,283,7,NA
fcp-trial,319,1130658,0.0-294.0-0.0,voc_e2,12149,"[{""event"":""fullscreenenter"",""trial"":1,""time"":1960}]",NA,NA,NA,NA,NA,2,#FA92F8,#1CD855,10,0,1,40,0,180.19999999925494,37,1,990.5999999996275,10,1,experiment,NA,NA,0,0.9,0.1,0,1,284,7,NA
fcp-trial,320,1133516,0.0-295.0-0.0,voc_e2,12149,"[{""event"":""fullscreenenter"",""trial"":1,""time"":1960}]",NA,NA,NA,NA,NA,3,#FA92F8,#1CD855,0,0,1,40,0,800.9000000003725,37,1,550.5999999996275,0,1,experiment,NA,NA,0,0.9,0.1,0,1,285,7,NA
fcp-trial,321,1136561,0.0-296.0-0.0,voc_e2,12149,"[{""event"":""fullscreenenter"",""trial"":1,""time"":1960}]",NA,NA,NA,NA,NA,4,#741CD8,#D8271C,0,10,1,40,0,852.9000000003725,39,0,687,10,0,experiment,NA,NA,2,0.5,0.5,4,5,286,7,NA
fcp-trial,322,1139010,0.0-297.0-0.0,voc_e2,12149,"[{""event"":""fullscreenenter"",""trial"":1,""time"":1960}]",NA,NA,NA,NA,NA,2,#D89F1C,#3386FF,10,0,1,38,1,441.19999999925494,39,0,502.59999999962747,0,0,experiment,NA,NA,1,0.7,0.3,2,3,287,7,NA
fcp-trial,323,1141683,0.0-298.0-0.0,voc_e2,12149,"[{""event"":""fullscreenenter"",""trial"":1,""time"":1960}]",NA,NA,NA,NA,NA,4,#3386FF,#D89F1C,10,10,0,40,0,192.90000000037253,39,0,975,10,1,experiment,NA,NA,1,0.3,0.7,3,2,288,7,NA
fcp-trial,324,1144041,0.0-299.0-0.0,voc_e2,12149,"[{""event"":""fullscreenenter"",""trial"":1,""time"":1960}]",NA,NA,NA,NA,NA,6,#FA92F8,#1CD855,0,10,1,38,1,359.59999999962747,37,1,494.59999999962747,0,1,experiment,NA,NA,0,0.9,0.1,0,1,289,7,NA
fcp-trial,325,1147109,0.0-300.0-0.0,voc_e2,12149,"[{""event"":""fullscreenenter"",""trial"":1,""time"":1960}]",NA,NA,NA,NA,NA,5,#1CD855,#FA92F8,0,10,0,38,1,924.6999999992549,39,0,633.5,10,1,experiment,NA,NA,0,0.1,0.9,1,0,290,7,NA
fcp-trial,326,1149662,0.0-301.0-0.0,voc_e2,12149,"[{""event"":""fullscreenenter"",""trial"":1,""time"":1960}]",NA,NA,NA,NA,NA,6,#D8271C,#741CD8,10,0,0,38,1,478.69999999925494,39,0,568.5,0,1,experiment,NA,NA,2,0.5,0.5,5,4,291,7,NA
fcp-trial,327,1151915,0.0-302.0-0.0,voc_e2,12149,"[{""event"":""fullscreenenter"",""trial"":1,""time"":1960}]",NA,NA,NA,NA,NA,1,#D89F1C,#3386FF,10,0,1,38,1,436.69999999925494,39,0,309.80000000074506,0,0,experiment,NA,NA,1,0.7,0.3,2,3,292,7,NA
fcp-trial,328,1154149,0.0-303.0-0.0,voc_e2,12149,"[{""event"":""fullscreenenter"",""trial"":1,""time"":1960}]",NA,NA,NA,NA,NA,0,#FA92F8,#1CD855,10,0,1,38,1,391.09999999962747,39,0,336.7000000011176,0,0,experiment,NA,NA,0,0.9,0.1,0,1,293,7,NA
fcp-trial,329,1156115,0.0-304.0-0.0,voc_e2,12149,"[{""event"":""fullscreenenter"",""trial"":1,""time"":1960}]",NA,NA,NA,NA,NA,2,#741CD8,#D8271C,10,10,1,38,1,197.80000000074506,39,0,262.40000000037253,10,0,experiment,NA,NA,2,0.5,0.5,4,5,294,7,NA
fcp-trial,330,1158451,0.0-305.0-0.0,voc_e2,12149,"[{""event"":""fullscreenenter"",""trial"":1,""time"":1960}]",NA,NA,NA,NA,NA,3,#1CD855,#FA92F8,0,10,0,38,1,527.1999999992549,39,0,302,10,1,experiment,NA,NA,0,0.1,0.9,1,0,295,7,NA
fcp-trial,331,1160851,0.0-306.0-0.0,voc_e2,12149,"[{""event"":""fullscreenenter"",""trial"":1,""time"":1960}]",NA,NA,NA,NA,NA,0,#3386FF,#D89F1C,0,0,0,38,1,367.30000000074506,39,0,526.2999999988824,0,1,experiment,NA,NA,1,0.3,0.7,3,2,296,7,NA
fcp-trial,332,1162673,0.0-307.0-0.0,voc_e2,12149,"[{""event"":""fullscreenenter"",""trial"":1,""time"":1960}]",NA,NA,NA,NA,NA,4,#741CD8,#D8271C,0,0,1,38,1,63.59999999962747,39,0,254.19999999925494,0,0,experiment,NA,NA,2,0.5,0.5,4,5,297,7,NA
fcp-trial,333,1164718,0.0-308.0-0.0,voc_e2,12149,"[{""event"":""fullscreenenter"",""trial"":1,""time"":1960}]",NA,NA,NA,NA,NA,2,#1CD855,#FA92F8,10,0,0,38,1,184.7999999988824,37,1,353.2000000011176,10,0,experiment,NA,NA,0,0.1,0.9,1,0,298,7,NA
fcp-trial,334,1166784,0.0-309.0-0.0,voc_e2,12149,"[{""event"":""fullscreenenter"",""trial"":1,""time"":1960}]",NA,NA,NA,NA,NA,1,#1CD855,#FA92F8,0,10,0,38,1,300.6000000014901,37,1,260.40000000037253,0,0,experiment,NA,NA,0,0.1,0.9,1,0,299,7,NA
fcp-trial,335,1169019,0.0-310.0-0.0,voc_e2,12149,"[{""event"":""fullscreenenter"",""trial"":1,""time"":1960}]",NA,NA,NA,NA,NA,6,#3386FF,#D89F1C,10,0,0,38,1,124,37,1,604.3999999985099,10,0,experiment,NA,NA,1,0.3,0.7,3,2,300,7,NA
fcp-trial,336,1171018,0.0-311.0-0.0,voc_e2,12149,"[{""event"":""fullscreenenter"",""trial"":1,""time"":1960}]",NA,NA,NA,NA,NA,3,#D8271C,#741CD8,0,0,0,38,1,224.19999999925494,37,1,270.59999999962747,0,0,experiment,NA,NA,2,0.5,0.5,5,4,301,7,NA
fcp-trial,337,1172987,0.0-312.0-0.0,voc_e2,12149,"[{""event"":""fullscreenenter"",""trial"":1,""time"":1960}]",NA,NA,NA,NA,NA,5,#D8271C,#741CD8,10,0,0,38,1,209.30000000074506,37,1,254.40000000037253,10,0,experiment,NA,NA,2,0.5,0.5,5,4,302,7,NA
fcp-trial,338,1175241,0.0-313.0-0.0,voc_e2,12149,"[{""event"":""fullscreenenter"",""trial"":1,""time"":1960}]",NA,NA,NA,NA,NA,5,#FA92F8,#1CD855,10,0,1,38,1,495.30000000074506,37,1,254.5,10,1,experiment,NA,NA,0,0.9,0.1,0,1,303,7,NA
fcp-trial,339,1177843,0.0-314.0-0.0,voc_e2,12149,"[{""event"":""fullscreenenter"",""trial"":1,""time"":1960}]",NA,NA,NA,NA,NA,4,#1CD855,#FA92F8,0,10,0,38,1,385.8999999985099,39,0,709.5999999996275,10,1,experiment,NA,NA,0,0.1,0.9,1,0,304,7,NA
fcp-trial,340,1180761,0.0-315.0-0.0,voc_e2,12149,"[{""event"":""fullscreenenter"",""trial"":1,""time"":1960}]",NA,NA,NA,NA,NA,1,#D89F1C,#3386FF,10,0,1,38,1,501,37,1,911.3999999985099,10,1,experiment,NA,NA,1,0.7,0.3,2,3,305,7,NA
fcp-trial,341,1183561,0.0-316.0-0.0,voc_e2,12149,"[{""event"":""fullscreenenter"",""trial"":1,""time"":1960}]",NA,NA,NA,NA,NA,2,#741CD8,#D8271C,10,0,1,38,1,1039.6000000014901,37,1,254.2999999988824,10,1,experiment,NA,NA,2,0.5,0.5,4,5,306,7,NA
fcp-trial,342,1186239,0.0-317.0-0.0,voc_e2,12149,"[{""event"":""fullscreenenter"",""trial"":1,""time"":1960}]",NA,NA,NA,NA,NA,6,#741CD8,#D8271C,10,10,1,38,1,734.6999999992549,39,0,435.69999999925494,10,0,experiment,NA,NA,2,0.5,0.5,4,5,307,7,NA
fcp-trial,343,1188897,0.0-318.0-0.0,voc_e2,12149,"[{""event"":""fullscreenenter"",""trial"":1,""time"":1960}]",NA,NA,NA,NA,NA,4,#D89F1C,#3386FF,0,0,1,38,1,579,39,0,574.2000000011176,0,0,experiment,NA,NA,1,0.7,0.3,2,3,308,7,NA
fcp-trial,344,1191427,0.0-319.0-0.0,voc_e2,12149,"[{""event"":""fullscreenenter"",""trial"":1,""time"":1960}]",NA,NA,NA,NA,NA,0,#1CD855,#FA92F8,0,0,0,38,1,512.0999999996275,39,0,511.59999999962747,0,1,experiment,NA,NA,0,0.1,0.9,1,0,309,7,NA
fcp-trial,345,1193826,0.0-320.0-0.0,voc_e2,12149,"[{""event"":""fullscreenenter"",""trial"":1,""time"":1960}]",NA,NA,NA,NA,NA,5,#3386FF,#D89F1C,10,10,0,38,1,478.69999999925494,39,0,413.80000000074506,10,1,experiment,NA,NA,1,0.3,0.7,3,2,310,7,NA
fcp-trial,346,1196209,0.0-321.0-0.0,voc_e2,12149,"[{""event"":""fullscreenenter"",""trial"":1,""time"":1960}]",NA,NA,NA,NA,NA,3,#3386FF,#D89F1C,0,10,0,38,1,463.30000000074506,39,0,412.2999999988824,10,1,experiment,NA,NA,1,0.3,0.7,3,2,311,7,NA
fcp-trial,347,1200710,0.0-322.0-0.0,voc_e2,12149,"[{""event"":""fullscreenenter"",""trial"":1,""time"":1960}]",NA,NA,NA,NA,NA,1,#D8271C,#741CD8,0,10,0,38,1,2545.0999999996275,39,0,449.30000000074506,10,1,experiment,NA,NA,2,0.5,0.5,5,4,312,7,NA
fcp-trial,348,1203433,0.0-323.0-0.0,voc_e2,12149,"[{""event"":""fullscreenenter"",""trial"":1,""time"":1960}]",NA,NA,NA,NA,NA,6,#FA92F8,#1CD855,0,0,1,38,1,741.1999999992549,37,1,478,0,1,experiment,NA,NA,0,0.9,0.1,0,1,313,7,NA
fcp-trial,349,1206217,0.0-324.0-0.0,voc_e2,12149,"[{""event"":""fullscreenenter"",""trial"":1,""time"":1960}]",NA,NA,NA,NA,NA,0,#741CD8,#D8271C,10,0,1,38,1,879.5,37,1,399.2999999988824,10,1,experiment,NA,NA,2,0.5,0.5,4,5,314,7,NA
fcp-trial,350,1209385,0.0-325.0-0.0,voc_e2,12149,"[{""event"":""fullscreenenter"",""trial"":1,""time"":1960}]",NA,NA,NA,NA,NA,2,#3386FF,#D89F1C,10,10,0,38,1,1278.7999999988824,39,0,383.69999999925494,10,1,experiment,NA,NA,1,0.3,0.7,3,2,315,7,NA
audio-instructions,351,1217928,0.0-326.0,voc_e2,12149,"[{""event"":""fullscreenenter"",""trial"":1,""time"":1960}]",NA,2583.699999999255,static/audio/finished.wav,NA,0,NA,NA,NA,NA,NA,NA,NA,NA,NA,NA,NA,NA,NA,NA,NA,NA,NA,NA,NA,NA,NA,NA,NA,NA,NA
audio-instructions,352,1230755,0.0-327.0-0.0,voc_e2,12149,"[{""event"":""fullscreenenter"",""trial"":1,""time"":1960}]",NA,1990.4000000003723,static/audio/explicit1.wav,NA,0,NA,NA,NA,NA,NA,NA,NA,NA,NA,NA,NA,NA,NA,NA,NA,NA,NA,NA,NA,NA,NA,NA,NA,NA,NA
audio-instructions,353,1240082,0.0-327.0-1.0,voc_e2,12149,"[{""event"":""fullscreenenter"",""trial"":1,""time"":1960}]",NA,1727.5,static/audio/explicit2.wav,NA,0,NA,NA,NA,NA,NA,NA,NA,NA,NA,NA,NA,NA,NA,NA,NA,NA,NA,NA,NA,NA,NA,NA,NA,NA,NA
image-slider-response,354,1244557,0.0-328.0,voc_e2,12149,"[{""event"":""fullscreenenter"",""trial"":1,""time"":1960}]",NA,4473.799999998882,static/img/machines/machine1.png,NA,NA,NA,NA,NA,NA,NA,NA,NA,NA,NA,NA,NA,NA,NA,NA,explicit,NA,NA,NA,NA,NA,NA,NA,NA,NA,3
image-slider-response,355,1247179,0.0-329.0,voc_e2,12149,"[{""event"":""fullscreenenter"",""trial"":1,""time"":1960}]",NA,2620.800000000745,static/img/machines/machine4.png,NA,NA,NA,NA,NA,NA,NA,NA,NA,NA,NA,NA,NA,NA,NA,NA,explicit,NA,NA,NA,NA,NA,NA,NA,NA,NA,8
image-slider-response,356,1248899,0.0-330.0,voc_e2,12149,"[{""event"":""fullscreenenter"",""trial"":1,""time"":1960}]",NA,1718.800000000745,static/img/machines/machine3.png,NA,NA,NA,NA,NA,NA,NA,NA,NA,NA,NA,NA,NA,NA,NA,NA,explicit,NA,NA,NA,NA,NA,NA,NA,NA,NA,3
image-slider-response,357,1252648,0.0-331.0,voc_e2,12149,"[{""event"":""fullscreenenter"",""trial"":1,""time"":1960}]",NA,3747.800000000745,static/img/machines/machine2.png,NA,NA,NA,NA,NA,NA,NA,NA,NA,NA,NA,NA,NA,NA,NA,NA,explicit,NA,NA,NA,NA,NA,NA,NA,NA,NA,3
image-slider-response,358,1254340,0.0-332.0,voc_e2,12149,"[{""event"":""fullscreenenter"",""trial"":1,""time"":1960}]",NA,1691.0999999996277,static/img/machines/machine6.png,NA,NA,NA,NA,NA,NA,NA,NA,NA,NA,NA,NA,NA,NA,NA,NA,explicit,NA,NA,NA,NA,NA,NA,NA,NA,NA,3
image-slider-response,359,1256523,0.0-333.0,voc_e2,12149,"[{""event"":""fullscreenenter"",""trial"":1,""time"":1960}]",NA,2181.7000000011176,static/img/machines/machine5.png,NA,NA,NA,NA,NA,NA,NA,NA,NA,NA,NA,NA,NA,NA,NA,NA,explicit,NA,NA,NA,NA,NA,NA,NA,NA,NA,9
