trial_type,trial_index,time_elapsed,internal_node_id,task_version,subject_id,interactions,success,rt,stimulus,key_press,button_pressed,offer,arcade_color_L,arcade_color_R,arcade_outcome_L,arcade_outcome_R,correct,stage_1_key,stage_1_choice,stage_1_rt,stage_2_key,stage_2_choice,stage_2_rt,stage_3_outcome,accuracy,phase,responses,num_errors,context,reward_prob_L,reward_prob_R,arcade_id_L,arcade_id_R,trial,block,response
pavlovia,0,9,0.0-0.0,voc_e2,12342,[],NA,NA,NA,NA,NA,NA,NA,NA,NA,NA,NA,NA,NA,NA,NA,NA,NA,NA,NA,NA,NA,NA,NA,NA,NA,NA,NA,NA,NA,NA
fullscreen,1,3116,0.0-1.0,voc_e2,12342,"[{""event"":""fullscreenenter"",""trial"":1,""time"":2131}]",TRUE,NA,NA,NA,NA,NA,NA,NA,NA,NA,NA,NA,NA,NA,NA,NA,NA,NA,NA,NA,NA,NA,NA,NA,NA,NA,NA,NA,NA,NA
audio-keyboard-response,2,7528,0.0-2.0,voc_e2,12342,"[{""event"":""fullscreenenter"",""trial"":1,""time"":2131}]",NA,3936,static/audio/beep_loop.wav,32,NA,NA,NA,NA,NA,NA,NA,NA,NA,NA,NA,NA,NA,NA,NA,NA,NA,NA,NA,NA,NA,NA,NA,NA,NA,NA
audio-test,3,9266,0.0-3.0,voc_e2,12342,"[{""event"":""fullscreenenter"",""trial"":1,""time"":2131}]",NA,NA,static/audio/turtle.wav,NA,3,NA,NA,NA,NA,NA,NA,NA,NA,NA,NA,NA,NA,NA,NA,NA,NA,NA,NA,NA,NA,NA,NA,NA,NA,NA
audio-test,4,11354,0.0-4.0,voc_e2,12342,"[{""event"":""fullscreenenter"",""trial"":1,""time"":2131}]",NA,NA,static/audio/shark.wav,NA,2,NA,NA,NA,NA,NA,NA,NA,NA,NA,NA,NA,NA,NA,NA,NA,NA,NA,NA,NA,NA,NA,NA,NA,NA,NA
audio-instructions,5,21103,0.0-5.0-0.0,voc_e2,12342,"[{""event"":""fullscreenenter"",""trial"":1,""time"":2131}]",NA,3964.89999999851,static/audio/instructions1.wav,NA,0,NA,NA,NA,NA,NA,NA,NA,NA,NA,NA,NA,NA,NA,NA,NA,NA,NA,NA,NA,NA,NA,NA,NA,NA,NA
audio-instructions,6,30016,0.0-5.0-1.0,voc_e2,12342,"[{""event"":""fullscreenenter"",""trial"":1,""time"":2131}]",NA,2167.3000000044703,static/audio/instructions2.wav,NA,0,NA,NA,NA,NA,NA,NA,NA,NA,NA,NA,NA,NA,NA,NA,NA,NA,NA,NA,NA,NA,NA,NA,NA,NA,NA
audio-instructions,7,39354,0.0-5.0-2.0,voc_e2,12342,"[{""event"":""fullscreenenter"",""trial"":1,""time"":2131}]",NA,3534.5,static/audio/instructions3.wav,NA,0,NA,NA,NA,NA,NA,NA,NA,NA,NA,NA,NA,NA,NA,NA,NA,NA,NA,NA,NA,NA,NA,NA,NA,NA,NA
audio-instructions,8,54364,0.0-5.0-3.0,voc_e2,12342,"[{""event"":""fullscreenenter"",""trial"":1,""time"":2131}]",NA,1779.2000000029802,static/audio/instructions4.wav,NA,0,NA,NA,NA,NA,NA,NA,NA,NA,NA,NA,NA,NA,NA,NA,NA,NA,NA,NA,NA,NA,NA,NA,NA,NA,NA
audio-instructions,9,65080,0.0-5.0-4.0,voc_e2,12342,"[{""event"":""fullscreenenter"",""trial"":1,""time"":2131}]",NA,1332.2000000029802,static/audio/instructions5.wav,NA,0,NA,NA,NA,NA,NA,NA,NA,NA,NA,NA,NA,NA,NA,NA,NA,NA,NA,NA,NA,NA,NA,NA,NA,NA,NA
fcp-practice,10,67354,0.0-5.0-5.0-0.0,voc_e2,12342,"[{""event"":""fullscreenenter"",""trial"":1,""time"":2131}]",NA,NA,NA,NA,NA,NA,#EDC948,#46d3c8,10,0,1,null,null,null,37,1,758.2999999970198,10,1,practice,NA,NA,NA,NA,NA,NA,NA,NA,NA,NA
fcp-practice,11,69163,0.0-5.0-5.0-1.0,voc_e2,12342,"[{""event"":""fullscreenenter"",""trial"":1,""time"":2131}]",NA,NA,NA,NA,NA,NA,#EDC948,#46d3c8,10,0,1,null,null,null,37,1,302,10,1,practice,NA,NA,NA,NA,NA,NA,NA,NA,NA,NA
fcp-practice,12,71053,0.0-5.0-5.0-2.0,voc_e2,12342,"[{""event"":""fullscreenenter"",""trial"":1,""time"":2131}]",NA,NA,NA,NA,NA,NA,#EDC948,#46d3c8,0,10,1,null,null,null,37,1,385,0,1,practice,NA,NA,NA,NA,NA,NA,NA,NA,NA,NA
fcp-practice,13,72898,0.0-5.0-5.0-3.0,voc_e2,12342,"[{""event"":""fullscreenenter"",""trial"":1,""time"":2131}]",NA,NA,NA,NA,NA,NA,#EDC948,#46d3c8,10,0,1,null,null,null,37,1,340.1000000014901,10,1,practice,NA,NA,NA,NA,NA,NA,NA,NA,NA,NA
fcp-practice,14,74626,0.0-5.0-5.0-4.0,voc_e2,12342,"[{""event"":""fullscreenenter"",""trial"":1,""time"":2131}]",NA,NA,NA,NA,NA,NA,#EDC948,#46d3c8,10,0,1,null,null,null,37,1,223.5,10,1,practice,NA,NA,NA,NA,NA,NA,NA,NA,NA,NA
audio-instructions,15,97023,0.0-5.0-6.0,voc_e2,12342,"[{""event"":""fullscreenenter"",""trial"":1,""time"":2131}]",NA,4388.70000000298,static/audio/instructions6.wav,NA,0,NA,NA,NA,NA,NA,NA,NA,NA,NA,NA,NA,NA,NA,NA,NA,NA,NA,NA,NA,NA,NA,NA,NA,NA,NA
audio-instructions,16,118156,0.0-5.0-7.0,voc_e2,12342,"[{""event"":""fullscreenenter"",""trial"":1,""time"":2131}]",NA,1930.0999999940395,static/audio/instructions7.wav,NA,0,NA,NA,NA,NA,NA,NA,NA,NA,NA,NA,NA,NA,NA,NA,NA,NA,NA,NA,NA,NA,NA,NA,NA,NA,NA
audio-instructions,17,129795,0.0-5.0-8.0,voc_e2,12342,"[{""event"":""fullscreenenter"",""trial"":1,""time"":2131}]",NA,2167.1999999955297,static/audio/instructions8.wav,NA,0,NA,NA,NA,NA,NA,NA,NA,NA,NA,NA,NA,NA,NA,NA,NA,NA,NA,NA,NA,NA,NA,NA,NA,NA,NA
fcp-comprehension,18,143500,0.0-5.0-9.0,voc_e2,12342,"[{""event"":""fullscreenenter"",""trial"":1,""time"":2131}]",NA,13703,NA,NA,NA,NA,NA,NA,NA,NA,NA,NA,NA,NA,NA,NA,NA,NA,NA,NA,"false,true",1,NA,NA,NA,NA,NA,NA,NA,NA
audio-instructions,19,150034,0.0-5.1-0.1,voc_e2,12342,"[{""event"":""fullscreenenter"",""trial"":1,""time"":2131}]",NA,1745.39999999851,static/audio/instructions1.wav,NA,0,NA,NA,NA,NA,NA,NA,NA,NA,NA,NA,NA,NA,NA,NA,NA,NA,NA,NA,NA,NA,NA,NA,NA,NA,NA
audio-instructions,20,159953,0.0-5.1-1.1,voc_e2,12342,"[{""event"":""fullscreenenter"",""trial"":1,""time"":2131}]",NA,3172.10000000149,static/audio/instructions2.wav,NA,0,NA,NA,NA,NA,NA,NA,NA,NA,NA,NA,NA,NA,NA,NA,NA,NA,NA,NA,NA,NA,NA,NA,NA,NA,NA
audio-instructions,21,166814,0.0-5.1-2.1,voc_e2,12342,"[{""event"":""fullscreenenter"",""trial"":1,""time"":2131}]",NA,1058.5999999940395,static/audio/instructions3.wav,NA,0,NA,NA,NA,NA,NA,NA,NA,NA,NA,NA,NA,NA,NA,NA,NA,NA,NA,NA,NA,NA,NA,NA,NA,NA,NA
audio-instructions,22,180566,0.0-5.1-3.1,voc_e2,12342,"[{""event"":""fullscreenenter"",""trial"":1,""time"":2131}]",NA,523.6000000014901,static/audio/instructions4.wav,NA,0,NA,NA,NA,NA,NA,NA,NA,NA,NA,NA,NA,NA,NA,NA,NA,NA,NA,NA,NA,NA,NA,NA,NA,NA,NA
audio-instructions,23,191361,0.0-5.1-4.1,voc_e2,12342,"[{""event"":""fullscreenenter"",""trial"":1,""time"":2131}]",NA,1409.10000000149,static/audio/instructions5.wav,NA,0,NA,NA,NA,NA,NA,NA,NA,NA,NA,NA,NA,NA,NA,NA,NA,NA,NA,NA,NA,NA,NA,NA,NA,NA,NA
fcp-practice,24,193347,0.0-5.1-5.1-0.1,voc_e2,12342,"[{""event"":""fullscreenenter"",""trial"":1,""time"":2131}]",NA,NA,NA,NA,NA,NA,#EDC948,#46d3c8,10,0,1,null,null,null,37,1,481.70000000298023,10,1,practice,NA,NA,NA,NA,NA,NA,NA,NA,NA,NA
fcp-practice,25,194954,0.0-5.1-5.1-1.1,voc_e2,12342,"[{""event"":""fullscreenenter"",""trial"":1,""time"":2131}]",NA,NA,NA,NA,NA,NA,#EDC948,#46d3c8,10,0,1,null,null,null,37,1,101.60000000149012,10,1,practice,NA,NA,NA,NA,NA,NA,NA,NA,NA,NA
fcp-practice,26,196543,0.0-5.1-5.1-2.1,voc_e2,12342,"[{""event"":""fullscreenenter"",""trial"":1,""time"":2131}]",NA,NA,NA,NA,NA,NA,#EDC948,#46d3c8,0,10,1,null,null,null,37,1,84.40000000596046,0,1,practice,NA,NA,NA,NA,NA,NA,NA,NA,NA,NA
fcp-practice,27,198159,0.0-5.1-5.1-3.1,voc_e2,12342,"[{""event"":""fullscreenenter"",""trial"":1,""time"":2131}]",NA,NA,NA,NA,NA,NA,#EDC948,#46d3c8,10,0,1,null,null,null,37,1,110.60000000149012,10,1,practice,NA,NA,NA,NA,NA,NA,NA,NA,NA,NA
fcp-practice,28,199739,0.0-5.1-5.1-4.1,voc_e2,12342,"[{""event"":""fullscreenenter"",""trial"":1,""time"":2131}]",NA,NA,NA,NA,NA,NA,#EDC948,#46d3c8,10,0,1,null,null,null,37,1,74.89999999850988,10,1,practice,NA,NA,NA,NA,NA,NA,NA,NA,NA,NA
audio-instructions,29,219375,0.0-5.1-6.1,voc_e2,12342,"[{""event"":""fullscreenenter"",""trial"":1,""time"":2131}]",NA,1627.5,static/audio/instructions6.wav,NA,0,NA,NA,NA,NA,NA,NA,NA,NA,NA,NA,NA,NA,NA,NA,NA,NA,NA,NA,NA,NA,NA,NA,NA,NA,NA
audio-instructions,30,242339,0.0-5.1-7.1,voc_e2,12342,"[{""event"":""fullscreenenter"",""trial"":1,""time"":2131}]",NA,3762.8000000044703,static/audio/instructions7.wav,NA,0,NA,NA,NA,NA,NA,NA,NA,NA,NA,NA,NA,NA,NA,NA,NA,NA,NA,NA,NA,NA,NA,NA,NA,NA,NA
audio-instructions,31,255419,0.0-5.1-8.1,voc_e2,12342,"[{""event"":""fullscreenenter"",""trial"":1,""time"":2131}]",NA,3607.39999999851,static/audio/instructions8.wav,NA,0,NA,NA,NA,NA,NA,NA,NA,NA,NA,NA,NA,NA,NA,NA,NA,NA,NA,NA,NA,NA,NA,NA,NA,NA,NA
fcp-comprehension,32,260567,0.0-5.1-9.1,voc_e2,12342,"[{""event"":""fullscreenenter"",""trial"":1,""time"":2131}]",NA,5146.5,NA,NA,NA,NA,NA,NA,NA,NA,NA,NA,NA,NA,NA,NA,NA,NA,NA,NA,"true,true",0,NA,NA,NA,NA,NA,NA,NA,NA
audio-instructions,33,269734,0.0-6.0-0.0,voc_e2,12342,"[{""event"":""fullscreenenter"",""trial"":1,""time"":2131}]",NA,3619,static/audio/instructions9.wav,NA,0,NA,NA,NA,NA,NA,NA,NA,NA,NA,NA,NA,NA,NA,NA,NA,NA,NA,NA,NA,NA,NA,NA,NA,NA,NA
audio-instructions,34,282303,0.0-6.0-1.0,voc_e2,12342,"[{""event"":""fullscreenenter"",""trial"":1,""time"":2131}]",NA,450.5,static/audio/instructions10.wav,NA,0,NA,NA,NA,NA,NA,NA,NA,NA,NA,NA,NA,NA,NA,NA,NA,NA,NA,NA,NA,NA,NA,NA,NA,NA,NA
fcp-trial,35,289578,0.0-6.0-2.0,voc_e2,12342,"[{""event"":""fullscreenenter"",""trial"":1,""time"":2131}]",NA,NA,NA,NA,NA,0,#EDC948,#46d3c8,10,10,1,38,1,4028.7999999970198,39,0,1733.5999999940395,10,0,practice,NA,NA,NA,NA,NA,NA,NA,NA,NA,NA
audio-instructions,36,301494,0.0-6.0-3.0,voc_e2,12342,"[{""event"":""fullscreenenter"",""trial"":1,""time"":2131}]",NA,901.7999999970198,static/audio/instructions11.wav,NA,0,NA,NA,NA,NA,NA,NA,NA,NA,NA,NA,NA,NA,NA,NA,NA,NA,NA,NA,NA,NA,NA,NA,NA,NA,NA
fcp-trial,37,305280,0.0-6.0-4.0,voc_e2,12342,"[{""event"":""fullscreenenter"",""trial"":1,""time"":2131}]",NA,NA,NA,NA,NA,6,#EDC948,#46d3c8,10,10,1,40,0,756.6000000014901,37,1,1521.89999999851,10,1,practice,NA,NA,NA,NA,NA,NA,NA,NA,NA,NA
audio-instructions,38,324959,0.0-6.0-5.0,voc_e2,12342,"[{""event"":""fullscreenenter"",""trial"":1,""time"":2131}]",NA,983.60000000149,static/audio/instructions12.wav,NA,0,NA,NA,NA,NA,NA,NA,NA,NA,NA,NA,NA,NA,NA,NA,NA,NA,NA,NA,NA,NA,NA,NA,NA,NA,NA
audio-instructions,39,333464,0.0-6.0-6.0,voc_e2,12342,"[{""event"":""fullscreenenter"",""trial"":1,""time"":2131}]",NA,908,static/audio/instructions13.wav,NA,0,NA,NA,NA,NA,NA,NA,NA,NA,NA,NA,NA,NA,NA,NA,NA,NA,NA,NA,NA,NA,NA,NA,NA,NA,NA
audio-instructions,40,342711,0.0-6.0-7.0,voc_e2,12342,"[{""event"":""fullscreenenter"",""trial"":1,""time"":2131}]",NA,798.2999999970198,static/audio/instructions14.wav,NA,0,NA,NA,NA,NA,NA,NA,NA,NA,NA,NA,NA,NA,NA,NA,NA,NA,NA,NA,NA,NA,NA,NA,NA,NA,NA
audio-instructions,41,350445,0.0-7.0-0.0,voc_e2,12342,"[{""event"":""fullscreenenter"",""trial"":1,""time"":2131}]",NA,822,static/audio/instructions15.wav,NA,0,NA,NA,NA,NA,NA,NA,NA,NA,NA,NA,NA,NA,NA,NA,NA,NA,NA,NA,NA,NA,NA,NA,NA,NA,NA
audio-instructions,42,358059,0.0-7.0-1.0,voc_e2,12342,"[{""event"":""fullscreenenter"",""trial"":1,""time"":2131}]",NA,784.8999999985099,static/audio/instructions16.wav,NA,0,NA,NA,NA,NA,NA,NA,NA,NA,NA,NA,NA,NA,NA,NA,NA,NA,NA,NA,NA,NA,NA,NA,NA,NA,NA
audio-instructions,43,366125,0.0-7.0-2.0,voc_e2,12342,"[{""event"":""fullscreenenter"",""trial"":1,""time"":2131}]",NA,387.20000000298023,static/audio/instructions17.wav,NA,0,NA,NA,NA,NA,NA,NA,NA,NA,NA,NA,NA,NA,NA,NA,NA,NA,NA,NA,NA,NA,NA,NA,NA,NA,NA
audio-instructions,44,374504,0.0-7.0-3.0,voc_e2,12342,"[{""event"":""fullscreenenter"",""trial"":1,""time"":2131}]",NA,615.9000000059605,static/audio/instructions18.wav,NA,0,NA,NA,NA,NA,NA,NA,NA,NA,NA,NA,NA,NA,NA,NA,NA,NA,NA,NA,NA,NA,NA,NA,NA,NA,NA
audio-instructions,45,381717,0.0-7.0-4.0,voc_e2,12342,"[{""event"":""fullscreenenter"",""trial"":1,""time"":2131}]",NA,468.69999999552965,static/audio/instructions19.wav,NA,0,NA,NA,NA,NA,NA,NA,NA,NA,NA,NA,NA,NA,NA,NA,NA,NA,NA,NA,NA,NA,NA,NA,NA,NA,NA
fcp-comprehension,46,392317,0.0-7.0-5.0,voc_e2,12342,"[{""event"":""fullscreenenter"",""trial"":1,""time"":2131}]",NA,10597.60000000149,NA,NA,NA,NA,NA,NA,NA,NA,NA,NA,NA,NA,NA,NA,NA,NA,NA,NA,"false,false,false,true",0,NA,NA,NA,NA,NA,NA,NA,NA
audio-instructions,47,404420,0.0-8.0,voc_e2,12342,"[{""event"":""fullscreenenter"",""trial"":1,""time"":2131}]",NA,2881.79999999702,static/audio/ready.wav,NA,0,NA,NA,NA,NA,NA,NA,NA,NA,NA,NA,NA,NA,NA,NA,NA,NA,NA,NA,NA,NA,NA,NA,NA,NA,NA
fcp-trial,48,412211,0.0-9.0-0.0,voc_e2,12342,"[{""event"":""fullscreenenter"",""trial"":1,""time"":2131}]",NA,NA,NA,NA,NA,1,#FA92F8,#1CD855,10,0,1,40,0,5258.39999999851,39,0,1025.4000000059605,0,0,experiment,NA,NA,0,0.9,0.1,0,1,1,1,NA
fcp-trial,49,417660,0.0-10.0-0.0,voc_e2,12342,"[{""event"":""fullscreenenter"",""trial"":1,""time"":2131}]",NA,NA,NA,NA,NA,4,#FA92F8,#1CD855,10,10,1,40,0,3229.39999999851,37,1,712.4000000059605,10,1,experiment,NA,NA,0,0.9,0.1,0,1,2,1,NA
fcp-trial,50,423465,0.0-11.0-0.0,voc_e2,12342,"[{""event"":""fullscreenenter"",""trial"":1,""time"":2131}]",NA,NA,NA,NA,NA,2,#D89F1C,#3386FF,0,10,0,40,0,3611.3000000044703,37,1,685.6000000014901,0,0,experiment,NA,NA,1,0.3,0.7,3,2,3,1,NA
fcp-trial,51,429940,0.0-12.0-0.0,voc_e2,12342,"[{""event"":""fullscreenenter"",""trial"":1,""time"":2131}]",NA,NA,NA,NA,NA,0,#3386FF,#D89F1C,10,0,1,38,1,4228.39999999851,37,1,740.2000000029802,10,1,experiment,NA,NA,1,0.7,0.3,2,3,4,1,NA
fcp-trial,52,435456,0.0-13.0-0.0,voc_e2,12342,"[{""event"":""fullscreenenter"",""trial"":1,""time"":2131}]",NA,NA,NA,NA,NA,5,#3386FF,#D89F1C,10,10,1,40,0,3347.2000000029802,39,0,662.2999999970198,10,0,experiment,NA,NA,1,0.7,0.3,2,3,5,1,NA
fcp-trial,53,439557,0.0-14.0-0.0,voc_e2,12342,"[{""event"":""fullscreenenter"",""trial"":1,""time"":2131}]",NA,NA,NA,NA,NA,0,#1CD855,#FA92F8,0,10,0,38,1,1826.5,37,1,769.6000000014901,0,0,experiment,NA,NA,0,0.1,0.9,1,0,6,1,NA
fcp-trial,54,443349,0.0-15.0-0.0,voc_e2,12342,"[{""event"":""fullscreenenter"",""trial"":1,""time"":2131}]",NA,NA,NA,NA,NA,4,#D89F1C,#3386FF,0,10,0,40,0,1678.7000000029802,37,1,606.7000000029802,0,0,experiment,NA,NA,1,0.3,0.7,3,2,7,1,NA
fcp-trial,55,447729,0.0-16.0-0.0,voc_e2,12342,"[{""event"":""fullscreenenter"",""trial"":1,""time"":2131}]",NA,NA,NA,NA,NA,2,#FA92F8,#1CD855,10,0,1,40,0,2291.39999999851,39,0,580.1000000014901,0,0,experiment,NA,NA,0,0.9,0.1,0,1,8,1,NA
fcp-trial,56,452877,0.0-17.0-0.0,voc_e2,12342,"[{""event"":""fullscreenenter"",""trial"":1,""time"":2131}]",NA,NA,NA,NA,NA,1,#D8271C,#741CD8,10,10,0,38,1,3084.8000000044703,39,0,556.3999999985099,10,1,experiment,NA,NA,2,0.5,0.5,5,4,9,1,NA
fcp-trial,57,456139,0.0-18.0-0.0,voc_e2,12342,"[{""event"":""fullscreenenter"",""trial"":1,""time"":2131}]",NA,NA,NA,NA,NA,6,#1CD855,#FA92F8,0,10,0,40,0,1243.6000000014901,39,0,511.20000000298023,10,1,experiment,NA,NA,0,0.1,0.9,1,0,10,1,NA
fcp-trial,58,462735,0.0-19.0-0.0,voc_e2,12342,"[{""event"":""fullscreenenter"",""trial"":1,""time"":2131}]",NA,NA,NA,NA,NA,6,#D89F1C,#3386FF,0,0,0,40,0,4398.19999999553,37,1,690.8000000044703,0,0,experiment,NA,NA,1,0.3,0.7,3,2,11,1,NA
fcp-trial,59,467235,0.0-20.0-0.0,voc_e2,12342,"[{""event"":""fullscreenenter"",""trial"":1,""time"":2131}]",NA,NA,NA,NA,NA,2,#741CD8,#D8271C,10,0,1,38,1,1658.8999999985099,39,0,1333.89999999851,0,0,experiment,NA,NA,2,0.5,0.5,4,5,12,1,NA
fcp-trial,60,471369,0.0-21.0-0.0,voc_e2,12342,"[{""event"":""fullscreenenter"",""trial"":1,""time"":2131}]",NA,NA,NA,NA,NA,3,#1CD855,#FA92F8,0,10,0,40,0,2178.8000000044703,39,0,449.6000000014901,10,1,experiment,NA,NA,0,0.1,0.9,1,0,13,1,NA
fcp-trial,61,479088,0.0-22.0-0.0,voc_e2,12342,"[{""event"":""fullscreenenter"",""trial"":1,""time"":2131}]",NA,NA,NA,NA,NA,6,#741CD8,#D8271C,0,10,1,40,0,5789.60000000149,37,1,423.29999999701977,0,1,experiment,NA,NA,2,0.5,0.5,4,5,14,1,NA
fcp-trial,62,482821,0.0-23.0-0.0,voc_e2,12342,"[{""event"":""fullscreenenter"",""trial"":1,""time"":2131}]",NA,NA,NA,NA,NA,3,#D8271C,#741CD8,0,10,0,40,0,1760.5,39,0,467.79999999701977,10,1,experiment,NA,NA,2,0.5,0.5,5,4,15,1,NA
fcp-trial,63,486606,0.0-24.0-0.0,voc_e2,12342,"[{""event"":""fullscreenenter"",""trial"":1,""time"":2131}]",NA,NA,NA,NA,NA,3,#3386FF,#D89F1C,0,0,1,40,0,1765.5,37,1,511.20000000298023,0,1,experiment,NA,NA,1,0.7,0.3,2,3,16,1,NA
fcp-trial,64,490765,0.0-25.0-0.0,voc_e2,12342,"[{""event"":""fullscreenenter"",""trial"":1,""time"":2131}]",NA,NA,NA,NA,NA,5,#D8271C,#741CD8,0,10,0,40,0,2163.0999999940395,37,1,488.69999999552965,0,0,experiment,NA,NA,2,0.5,0.5,5,4,17,1,NA
fcp-trial,65,494772,0.0-26.0-0.0,voc_e2,12342,"[{""event"":""fullscreenenter"",""trial"":1,""time"":2131}]",NA,NA,NA,NA,NA,5,#FA92F8,#1CD855,10,0,1,40,0,2046.3000000044703,39,0,452.8999999985099,0,0,experiment,NA,NA,0,0.9,0.1,0,1,18,1,NA
fcp-trial,66,505371,0.0-27.0-0.0,voc_e2,12342,"[{""event"":""fullscreenenter"",""trial"":1,""time"":2131}]",NA,NA,NA,NA,NA,0,#741CD8,#D8271C,10,0,1,38,1,7610.5,37,1,1478.2000000029802,10,1,experiment,NA,NA,2,0.5,0.5,4,5,19,1,NA
fcp-trial,67,511807,0.0-28.0-0.0,voc_e2,12342,"[{""event"":""fullscreenenter"",""trial"":1,""time"":2131}]",NA,NA,NA,NA,NA,1,#3386FF,#D89F1C,10,0,1,38,1,4202,37,1,727.1000000014901,10,1,experiment,NA,NA,1,0.7,0.3,2,3,20,1,NA
fcp-trial,68,515677,0.0-29.0-0.0,voc_e2,12342,"[{""event"":""fullscreenenter"",""trial"":1,""time"":2131}]",NA,NA,NA,NA,NA,4,#741CD8,#D8271C,10,0,1,38,1,2058.89999999851,37,1,305.19999999552965,10,1,experiment,NA,NA,2,0.5,0.5,4,5,21,1,NA
fcp-trial,69,521610,0.0-30.0-0.0,voc_e2,12342,"[{""event"":""fullscreenenter"",""trial"":1,""time"":2131}]",NA,NA,NA,NA,NA,5,#D89F1C,#3386FF,0,0,0,40,0,3892.2000000029802,39,0,534.2999999970198,0,1,experiment,NA,NA,1,0.3,0.7,3,2,22,1,NA
fcp-trial,70,525511,0.0-31.0-0.0,voc_e2,12342,"[{""event"":""fullscreenenter"",""trial"":1,""time"":2131}]",NA,NA,NA,NA,NA,6,#D89F1C,#3386FF,10,0,0,40,0,1982.5,37,1,411.8999999985099,10,0,experiment,NA,NA,1,0.3,0.7,3,2,23,1,NA
fcp-trial,71,528699,0.0-32.0-0.0,voc_e2,12342,"[{""event"":""fullscreenenter"",""trial"":1,""time"":2131}]",NA,NA,NA,NA,NA,4,#741CD8,#D8271C,0,10,1,38,1,1411.8000000044703,37,1,269.5,0,1,experiment,NA,NA,2,0.5,0.5,4,5,24,1,NA
fcp-trial,72,531865,0.0-33.0-0.0,voc_e2,12342,"[{""event"":""fullscreenenter"",""trial"":1,""time"":2131}]",NA,NA,NA,NA,NA,0,#1CD855,#FA92F8,0,10,0,38,1,1254.7999999970198,39,0,405.30000000447035,10,1,experiment,NA,NA,0,0.1,0.9,1,0,25,1,NA
fcp-trial,73,535039,0.0-34.0-0.0,voc_e2,12342,"[{""event"":""fullscreenenter"",""trial"":1,""time"":2131}]",NA,NA,NA,NA,NA,5,#741CD8,#D8271C,10,0,1,38,1,1415.6000000014901,37,1,253.19999999552965,10,1,experiment,NA,NA,2,0.5,0.5,4,5,26,1,NA
fcp-trial,74,541321,0.0-35.0-0.0,voc_e2,12342,"[{""event"":""fullscreenenter"",""trial"":1,""time"":2131}]",NA,NA,NA,NA,NA,2,#3386FF,#D89F1C,0,0,1,40,0,4325.20000000298,37,1,448.29999999701977,0,1,experiment,NA,NA,1,0.7,0.3,2,3,27,1,NA
fcp-trial,75,544441,0.0-36.0-0.0,voc_e2,12342,"[{""event"":""fullscreenenter"",""trial"":1,""time"":2131}]",NA,NA,NA,NA,NA,2,#1CD855,#FA92F8,0,10,0,38,1,1221.8999999985099,39,0,389.40000000596046,10,1,experiment,NA,NA,0,0.1,0.9,1,0,28,1,NA
fcp-trial,76,548405,0.0-37.0-0.0,voc_e2,12342,"[{""event"":""fullscreenenter"",""trial"":1,""time"":2131}]",NA,NA,NA,NA,NA,6,#D8271C,#741CD8,0,0,0,38,1,2090.5,39,0,365.79999999701977,0,1,experiment,NA,NA,2,0.5,0.5,5,4,29,1,NA
fcp-trial,77,551645,0.0-38.0-0.0,voc_e2,12342,"[{""event"":""fullscreenenter"",""trial"":1,""time"":2131}]",NA,NA,NA,NA,NA,5,#FA92F8,#1CD855,10,0,1,38,1,1393,37,1,340.5,10,1,experiment,NA,NA,0,0.9,0.1,0,1,30,1,NA
fcp-trial,78,554389,0.0-39.0-0.0,voc_e2,12342,"[{""event"":""fullscreenenter"",""trial"":1,""time"":2131}]",NA,NA,NA,NA,NA,1,#FA92F8,#1CD855,10,0,1,38,1,909.5,37,1,327.59999999403954,10,1,experiment,NA,NA,0,0.9,0.1,0,1,31,1,NA
fcp-trial,79,558537,0.0-40.0-0.0,voc_e2,12342,"[{""event"":""fullscreenenter"",""trial"":1,""time"":2131}]",NA,NA,NA,NA,NA,4,#3386FF,#D89F1C,0,0,1,40,0,2176.1999999955297,39,0,466.59999999403954,0,0,experiment,NA,NA,1,0.7,0.3,2,3,32,1,NA
fcp-trial,80,561938,0.0-41.0-0.0,voc_e2,12342,"[{""event"":""fullscreenenter"",""trial"":1,""time"":2131}]",NA,NA,NA,NA,NA,2,#741CD8,#D8271C,0,10,1,38,1,1452.2999999970198,37,1,441.3999999985099,0,1,experiment,NA,NA,2,0.5,0.5,4,5,33,1,NA
fcp-trial,81,564578,0.0-42.0-0.0,voc_e2,12342,"[{""event"":""fullscreenenter"",""trial"":1,""time"":2131}]",NA,NA,NA,NA,NA,0,#741CD8,#D8271C,10,10,1,38,1,835.6000000014901,37,1,297.6000000014901,10,1,experiment,NA,NA,2,0.5,0.5,4,5,34,1,NA
fcp-trial,82,567328,0.0-43.0-0.0,voc_e2,12342,"[{""event"":""fullscreenenter"",""trial"":1,""time"":2131}]",NA,NA,NA,NA,NA,3,#1CD855,#FA92F8,0,10,0,38,1,932.7000000029802,39,0,312.19999999552965,10,1,experiment,NA,NA,0,0.1,0.9,1,0,35,1,NA
fcp-trial,83,572387,0.0-44.0-0.0,voc_e2,12342,"[{""event"":""fullscreenenter"",""trial"":1,""time"":2131}]",NA,NA,NA,NA,NA,3,#3386FF,#D89F1C,10,0,1,40,0,2596.7000000029802,37,1,954.2999999970198,10,1,experiment,NA,NA,1,0.7,0.3,2,3,36,1,NA
fcp-trial,84,575463,0.0-45.0-0.0,voc_e2,12342,"[{""event"":""fullscreenenter"",""trial"":1,""time"":2131}]",NA,NA,NA,NA,NA,4,#FA92F8,#1CD855,10,0,1,38,1,1169.6999999955297,37,1,399.30000000447035,10,1,experiment,NA,NA,0,0.9,0.1,0,1,37,1,NA
fcp-trial,85,578237,0.0-46.0-0.0,voc_e2,12342,"[{""event"":""fullscreenenter"",""trial"":1,""time"":2131}]",NA,NA,NA,NA,NA,3,#741CD8,#D8271C,0,0,1,38,1,927.6999999955297,37,1,338.8999999985099,0,1,experiment,NA,NA,2,0.5,0.5,4,5,38,1,NA
fcp-trial,86,581235,0.0-47.0-0.0,voc_e2,12342,"[{""event"":""fullscreenenter"",""trial"":1,""time"":2131}]",NA,NA,NA,NA,NA,0,#D89F1C,#3386FF,0,10,0,38,1,1157,39,0,332.1000000014901,10,1,experiment,NA,NA,1,0.3,0.7,3,2,39,1,NA
fcp-trial,87,583789,0.0-48.0-0.0,voc_e2,12342,"[{""event"":""fullscreenenter"",""trial"":1,""time"":2131}]",NA,NA,NA,NA,NA,6,#1CD855,#FA92F8,0,10,0,38,1,764.1000000014901,39,0,283.1000000014901,10,1,experiment,NA,NA,0,0.1,0.9,1,0,40,1,NA
fcp-trial,88,586766,0.0-49.0-0.0,voc_e2,12342,"[{""event"":""fullscreenenter"",""trial"":1,""time"":2131}]",NA,NA,NA,NA,NA,1,#D8271C,#741CD8,10,0,0,38,1,1155.3999999985099,39,0,314.6000000014901,0,1,experiment,NA,NA,2,0.5,0.5,5,4,41,1,NA
fcp-trial,89,591187,0.0-50.0-0.0,voc_e2,12342,"[{""event"":""fullscreenenter"",""trial"":1,""time"":2131}]",NA,NA,NA,NA,NA,1,#3386FF,#D89F1C,10,0,1,38,1,2232.10000000149,37,1,681.2000000029802,10,1,experiment,NA,NA,1,0.7,0.3,2,3,42,1,NA
fcp-trial,90,593901,0.0-51.0-0.0,voc_e2,12342,"[{""event"":""fullscreenenter"",""trial"":1,""time"":2131}]",NA,NA,NA,NA,NA,5,#1CD855,#FA92F8,0,10,0,38,1,825.7999999970198,39,0,382.59999999403954,10,1,experiment,NA,NA,0,0.1,0.9,1,0,43,1,NA
fcp-trial,91,596998,0.0-52.0-0.0,voc_e2,12342,"[{""event"":""fullscreenenter"",""trial"":1,""time"":2131}]",NA,NA,NA,NA,NA,5,#3386FF,#D89F1C,10,0,1,38,1,1251.4000000059605,37,1,337.3999999985099,10,1,experiment,NA,NA,1,0.7,0.3,2,3,44,1,NA
fcp-trial,92,599986,0.0-53.0-0.0,voc_e2,12342,"[{""event"":""fullscreenenter"",""trial"":1,""time"":2131}]",NA,NA,NA,NA,NA,1,#D8271C,#741CD8,10,10,0,38,1,1157.7999999970198,39,0,324.40000000596046,10,1,experiment,NA,NA,2,0.5,0.5,5,4,45,1,NA
fcp-trial,93,602665,0.0-54.0-0.0,voc_e2,12342,"[{""event"":""fullscreenenter"",""trial"":1,""time"":2131}]",NA,NA,NA,NA,NA,1,#FA92F8,#1CD855,10,0,1,38,1,770.6000000014901,37,1,398,10,1,experiment,NA,NA,0,0.9,0.1,0,1,46,2,NA
fcp-trial,94,606714,0.0-55.0-0.0,voc_e2,12342,"[{""event"":""fullscreenenter"",""trial"":1,""time"":2131}]",NA,NA,NA,NA,NA,6,#D89F1C,#3386FF,0,10,0,40,0,1988.5999999940395,39,0,551.2000000029802,10,1,experiment,NA,NA,1,0.3,0.7,3,2,47,2,NA
fcp-trial,95,612316,0.0-56.0-0.0,voc_e2,12342,"[{""event"":""fullscreenenter"",""trial"":1,""time"":2131}]",NA,NA,NA,NA,NA,6,#741CD8,#D8271C,10,0,1,40,0,3526.4000000059605,39,0,568.8999999985099,0,0,experiment,NA,NA,2,0.5,0.5,4,5,48,2,NA
fcp-trial,96,615778,0.0-57.0-0.0,voc_e2,12342,"[{""event"":""fullscreenenter"",""trial"":1,""time"":2131}]",NA,NA,NA,NA,NA,3,#1CD855,#FA92F8,0,0,0,38,1,1553.3000000044703,39,0,401.29999999701977,0,1,experiment,NA,NA,0,0.1,0.9,1,0,49,2,NA
fcp-trial,97,622356,0.0-58.0-0.0,voc_e2,12342,"[{""event"":""fullscreenenter"",""trial"":1,""time"":2131}]",NA,NA,NA,NA,NA,4,#3386FF,#D89F1C,10,0,1,38,1,4385.20000000298,37,1,686.3999999985099,10,1,experiment,NA,NA,1,0.7,0.3,2,3,50,2,NA
fcp-trial,98,625835,0.0-59.0-0.0,voc_e2,12342,"[{""event"":""fullscreenenter"",""trial"":1,""time"":2131}]",NA,NA,NA,NA,NA,3,#D8271C,#741CD8,10,10,0,38,1,1576.7999999970198,39,0,394.29999999701977,10,1,experiment,NA,NA,2,0.5,0.5,5,4,51,2,NA
fcp-trial,99,628633,0.0-60.0-0.0,voc_e2,12342,"[{""event"":""fullscreenenter"",""trial"":1,""time"":2131}]",NA,NA,NA,NA,NA,0,#FA92F8,#1CD855,10,0,1,38,1,1003,37,1,288,10,1,experiment,NA,NA,0,0.9,0.1,0,1,52,2,NA
fcp-trial,100,631654,0.0-61.0-0.0,voc_e2,12342,"[{""event"":""fullscreenenter"",""trial"":1,""time"":2131}]",NA,NA,NA,NA,NA,3,#3386FF,#D89F1C,10,0,1,38,1,1216,37,1,297.59999999403954,10,1,experiment,NA,NA,1,0.7,0.3,2,3,53,2,NA
fcp-trial,101,634560,0.0-62.0-0.0,voc_e2,12342,"[{""event"":""fullscreenenter"",""trial"":1,""time"":2131}]",NA,NA,NA,NA,NA,4,#1CD855,#FA92F8,0,10,0,38,1,1129.6000000014901,39,0,270.29999999701977,10,1,experiment,NA,NA,0,0.1,0.9,1,0,54,2,NA
fcp-trial,102,637772,0.0-63.0-0.0,voc_e2,12342,"[{""event"":""fullscreenenter"",""trial"":1,""time"":2131}]",NA,NA,NA,NA,NA,2,#FA92F8,#1CD855,10,0,1,38,1,1076.5,37,1,629.2000000029802,10,1,experiment,NA,NA,0,0.9,0.1,0,1,55,2,NA
fcp-trial,103,640763,0.0-64.0-0.0,voc_e2,12342,"[{""event"":""fullscreenenter"",""trial"":1,""time"":2131}]",NA,NA,NA,NA,NA,2,#741CD8,#D8271C,0,0,1,38,1,1130.6999999955297,37,1,352.6000000014901,0,1,experiment,NA,NA,2,0.5,0.5,4,5,56,2,NA
fcp-trial,104,643692,0.0-65.0-0.0,voc_e2,12342,"[{""event"":""fullscreenenter"",""trial"":1,""time"":2131}]",NA,NA,NA,NA,NA,4,#D8271C,#741CD8,10,10,0,38,1,1148.2999999970198,39,0,273.6000000014901,10,1,experiment,NA,NA,2,0.5,0.5,5,4,57,2,NA
fcp-trial,105,646438,0.0-66.0-0.0,voc_e2,12342,"[{""event"":""fullscreenenter"",""trial"":1,""time"":2131}]",NA,NA,NA,NA,NA,0,#D89F1C,#3386FF,10,10,0,38,1,936.3999999985099,39,0,303.19999999552965,10,1,experiment,NA,NA,1,0.3,0.7,3,2,58,2,NA
fcp-trial,106,649766,0.0-67.0-0.0,voc_e2,12342,"[{""event"":""fullscreenenter"",""trial"":1,""time"":2131}]",NA,NA,NA,NA,NA,0,#741CD8,#D8271C,10,0,1,38,1,1458.5,37,1,363.09999999403954,10,1,experiment,NA,NA,2,0.5,0.5,4,5,59,2,NA
fcp-trial,107,652280,0.0-68.0-0.0,voc_e2,12342,"[{""event"":""fullscreenenter"",""trial"":1,""time"":2131}]",NA,NA,NA,NA,NA,6,#1CD855,#FA92F8,0,10,0,38,1,710.6000000014901,39,0,295.6000000014901,10,1,experiment,NA,NA,0,0.1,0.9,1,0,60,2,NA
fcp-trial,108,656277,0.0-69.0-0.0,voc_e2,12342,"[{""event"":""fullscreenenter"",""trial"":1,""time"":2131}]",NA,NA,NA,NA,NA,1,#D89F1C,#3386FF,0,10,0,38,1,2194.3000000044703,39,0,296.79999999701977,10,1,experiment,NA,NA,1,0.3,0.7,3,2,61,2,NA
fcp-trial,109,659821,0.0-70.0-0.0,voc_e2,12342,"[{""event"":""fullscreenenter"",""trial"":1,""time"":2131}]",NA,NA,NA,NA,NA,5,#741CD8,#D8271C,10,10,1,38,1,1401.7999999970198,37,1,637.1000000014901,10,1,experiment,NA,NA,2,0.5,0.5,4,5,62,2,NA
fcp-trial,110,662698,0.0-71.0-0.0,voc_e2,12342,"[{""event"":""fullscreenenter"",""trial"":1,""time"":2131}]",NA,NA,NA,NA,NA,2,#D89F1C,#3386FF,0,10,0,38,1,1056.7999999970198,39,0,314.70000000298023,10,1,experiment,NA,NA,1,0.3,0.7,3,2,63,2,NA
fcp-trial,111,667306,0.0-72.0-0.0,voc_e2,12342,"[{""event"":""fullscreenenter"",""trial"":1,""time"":2131}]",NA,NA,NA,NA,NA,5,#D8271C,#741CD8,0,0,0,40,0,2471,37,1,627.6999999955297,0,0,experiment,NA,NA,2,0.5,0.5,5,4,64,2,NA
fcp-trial,112,670512,0.0-73.0-0.0,voc_e2,12342,"[{""event"":""fullscreenenter"",""trial"":1,""time"":2131}]",NA,NA,NA,NA,NA,3,#FA92F8,#1CD855,10,0,1,38,1,1343.8999999985099,37,1,353.19999999552965,10,1,experiment,NA,NA,0,0.9,0.1,0,1,65,2,NA
fcp-trial,113,673730,0.0-74.0-0.0,voc_e2,12342,"[{""event"":""fullscreenenter"",""trial"":1,""time"":2131}]",NA,NA,NA,NA,NA,6,#D89F1C,#3386FF,0,10,0,40,0,1239.3999999985099,39,0,470,10,1,experiment,NA,NA,1,0.3,0.7,3,2,66,2,NA
fcp-trial,114,677549,0.0-75.0-0.0,voc_e2,12342,"[{""event"":""fullscreenenter"",""trial"":1,""time"":2131}]",NA,NA,NA,NA,NA,5,#3386FF,#D89F1C,10,10,1,40,0,1469,39,0,839.5,10,0,experiment,NA,NA,1,0.7,0.3,2,3,67,2,NA
fcp-trial,115,681140,0.0-76.0-0.0,voc_e2,12342,"[{""event"":""fullscreenenter"",""trial"":1,""time"":2131}]",NA,NA,NA,NA,NA,0,#3386FF,#D89F1C,10,10,1,38,1,1700.2000000029802,37,1,379.30000000447035,10,1,experiment,NA,NA,1,0.7,0.3,2,3,68,2,NA
fcp-trial,116,684275,0.0-77.0-0.0,voc_e2,12342,"[{""event"":""fullscreenenter"",""trial"":1,""time"":2131}]",NA,NA,NA,NA,NA,3,#D8271C,#741CD8,10,0,0,38,1,1262.3999999985099,39,0,365,0,1,experiment,NA,NA,2,0.5,0.5,5,4,69,2,NA
fcp-trial,117,687382,0.0-78.0-0.0,voc_e2,12342,"[{""event"":""fullscreenenter"",""trial"":1,""time"":2131}]",NA,NA,NA,NA,NA,2,#1CD855,#FA92F8,0,10,0,38,1,1190.3000000044703,39,0,408,10,1,experiment,NA,NA,0,0.1,0.9,1,0,70,2,NA
fcp-trial,118,690645,0.0-79.0-0.0,voc_e2,12342,"[{""event"":""fullscreenenter"",""trial"":1,""time"":2131}]",NA,NA,NA,NA,NA,1,#D89F1C,#3386FF,0,10,0,38,1,1356.8000000044703,39,0,397.3999999985099,10,1,experiment,NA,NA,1,0.3,0.7,3,2,71,2,NA
fcp-trial,119,694765,0.0-80.0-0.0,voc_e2,12342,"[{""event"":""fullscreenenter"",""trial"":1,""time"":2131}]",NA,NA,NA,NA,NA,5,#1CD855,#FA92F8,0,10,0,40,0,2050.10000000149,39,0,564.5999999940395,10,1,experiment,NA,NA,0,0.1,0.9,1,0,72,2,NA
fcp-trial,120,697830,0.0-81.0-0.0,voc_e2,12342,"[{""event"":""fullscreenenter"",""trial"":1,""time"":2131}]",NA,NA,NA,NA,NA,6,#D8271C,#741CD8,0,10,0,40,0,1118.6000000014901,39,0,438.90000000596046,10,1,experiment,NA,NA,2,0.5,0.5,5,4,73,2,NA
fcp-trial,121,700917,0.0-82.0-0.0,voc_e2,12342,"[{""event"":""fullscreenenter"",""trial"":1,""time"":2131}]",NA,NA,NA,NA,NA,2,#D89F1C,#3386FF,10,10,0,38,1,1245.5,39,0,335.1000000014901,10,1,experiment,NA,NA,1,0.3,0.7,3,2,74,2,NA
fcp-trial,122,703533,0.0-83.0-0.0,voc_e2,12342,"[{""event"":""fullscreenenter"",""trial"":1,""time"":2131}]",NA,NA,NA,NA,NA,1,#FA92F8,#1CD855,10,0,1,38,1,816.7999999970198,37,1,293.3999999985099,10,1,experiment,NA,NA,0,0.9,0.1,0,1,75,2,NA
fcp-trial,123,706587,0.0-84.0-0.0,voc_e2,12342,"[{""event"":""fullscreenenter"",""trial"":1,""time"":2131}]",NA,NA,NA,NA,NA,4,#741CD8,#D8271C,10,0,1,38,1,1213.7000000029802,37,1,333,10,1,experiment,NA,NA,2,0.5,0.5,4,5,76,2,NA
fcp-trial,124,709461,0.0-85.0-0.0,voc_e2,12342,"[{""event"":""fullscreenenter"",""trial"":1,""time"":2131}]",NA,NA,NA,NA,NA,4,#FA92F8,#1CD855,10,0,1,38,1,1081.6000000014901,37,1,286.8999999985099,10,1,experiment,NA,NA,0,0.9,0.1,0,1,77,2,NA
fcp-trial,125,713312,0.0-86.0-0.0,voc_e2,12342,"[{""event"":""fullscreenenter"",""trial"":1,""time"":2131}]",NA,NA,NA,NA,NA,1,#741CD8,#D8271C,10,10,1,38,1,2002.6999999955297,37,1,340.6000000014901,10,1,experiment,NA,NA,2,0.5,0.5,4,5,78,2,NA
fcp-trial,126,716188,0.0-87.0-0.0,voc_e2,12342,"[{""event"":""fullscreenenter"",""trial"":1,""time"":2131}]",NA,NA,NA,NA,NA,3,#3386FF,#D89F1C,10,0,1,38,1,1073.2000000029802,37,1,295.79999999701977,10,1,experiment,NA,NA,1,0.7,0.3,2,3,79,2,NA
fcp-trial,127,719079,0.0-88.0-0.0,voc_e2,12342,"[{""event"":""fullscreenenter"",""trial"":1,""time"":2131}]",NA,NA,NA,NA,NA,0,#FA92F8,#1CD855,10,0,1,38,1,1091.3999999985099,37,1,292.19999999552965,10,1,experiment,NA,NA,0,0.9,0.1,0,1,80,2,NA
fcp-trial,128,722227,0.0-89.0-0.0,voc_e2,12342,"[{""event"":""fullscreenenter"",""trial"":1,""time"":2131}]",NA,NA,NA,NA,NA,6,#FA92F8,#1CD855,10,0,1,40,0,1262.3000000044703,37,1,378.79999999701977,10,1,experiment,NA,NA,0,0.9,0.1,0,1,81,2,NA
fcp-trial,129,726278,0.0-90.0-0.0,voc_e2,12342,"[{""event"":""fullscreenenter"",""trial"":1,""time"":2131}]",NA,NA,NA,NA,NA,4,#D89F1C,#3386FF,0,0,0,38,1,1816.2000000029802,39,0,728.8000000044703,0,1,experiment,NA,NA,1,0.3,0.7,3,2,82,2,NA
fcp-trial,130,729132,0.0-91.0-0.0,voc_e2,12342,"[{""event"":""fullscreenenter"",""trial"":1,""time"":2131}]",NA,NA,NA,NA,NA,0,#D8271C,#741CD8,0,10,0,38,1,1063,39,0,285,10,1,experiment,NA,NA,2,0.5,0.5,5,4,83,2,NA
fcp-trial,131,732030,0.0-92.0-0.0,voc_e2,12342,"[{""event"":""fullscreenenter"",""trial"":1,""time"":2131}]",NA,NA,NA,NA,NA,2,#D8271C,#741CD8,10,10,0,38,1,999.6999999955297,39,0,393.6000000014901,10,1,experiment,NA,NA,2,0.5,0.5,5,4,84,2,NA
fcp-trial,132,735231,0.0-93.0-0.0,voc_e2,12342,"[{""event"":""fullscreenenter"",""trial"":1,""time"":2131}]",NA,NA,NA,NA,NA,0,#FA92F8,#1CD855,10,0,1,38,1,1061.1000000014901,37,1,634.3000000044703,10,1,experiment,NA,NA,0,0.9,0.1,0,1,85,2,NA
fcp-trial,133,738106,0.0-94.0-0.0,voc_e2,12342,"[{""event"":""fullscreenenter"",""trial"":1,""time"":2131}]",NA,NA,NA,NA,NA,1,#FA92F8,#1CD855,0,0,1,38,1,945.6000000014901,37,1,422.80000000447035,0,1,experiment,NA,NA,0,0.9,0.1,0,1,86,2,NA
fcp-trial,134,741919,0.0-95.0-0.0,voc_e2,12342,"[{""event"":""fullscreenenter"",""trial"":1,""time"":2131}]",NA,NA,NA,NA,NA,6,#3386FF,#D89F1C,0,0,1,40,0,1744.8999999985099,39,0,560.4000000059605,0,0,experiment,NA,NA,1,0.7,0.3,2,3,87,2,NA
fcp-trial,135,745237,0.0-96.0-0.0,voc_e2,12342,"[{""event"":""fullscreenenter"",""trial"":1,""time"":2131}]",NA,NA,NA,NA,NA,0,#741CD8,#D8271C,0,10,1,38,1,1433.5,37,1,378.6000000014901,0,1,experiment,NA,NA,2,0.5,0.5,4,5,88,2,NA
fcp-trial,136,747812,0.0-97.0-0.0,voc_e2,12342,"[{""event"":""fullscreenenter"",""trial"":1,""time"":2131}]",NA,NA,NA,NA,NA,1,#D89F1C,#3386FF,0,10,0,38,1,682.7999999970198,39,0,385.70000000298023,10,1,experiment,NA,NA,1,0.3,0.7,3,2,89,2,NA
fcp-trial,137,754107,0.0-98.0-0.0,voc_e2,12342,"[{""event"":""fullscreenenter"",""trial"":1,""time"":2131}]",NA,NA,NA,NA,NA,2,#D8271C,#741CD8,0,10,0,38,1,4510.39999999851,39,0,270.19999999552965,10,1,experiment,NA,NA,2,0.5,0.5,5,4,90,2,NA
fcp-trial,138,757379,0.0-99.0-0.0,voc_e2,12342,"[{""event"":""fullscreenenter"",""trial"":1,""time"":2131}]",NA,NA,NA,NA,NA,5,#FA92F8,#1CD855,10,0,1,40,0,1231.6000000014901,39,0,533.2000000029802,0,0,experiment,NA,NA,0,0.9,0.1,0,1,91,3,NA
fcp-trial,139,760758,0.0-100.0-0.0,voc_e2,12342,"[{""event"":""fullscreenenter"",""trial"":1,""time"":2131}]",NA,NA,NA,NA,NA,3,#3386FF,#D89F1C,0,10,1,38,1,1574.1000000014901,37,1,298,0,1,experiment,NA,NA,1,0.7,0.3,2,3,92,3,NA
fcp-trial,140,763625,0.0-101.0-0.0,voc_e2,12342,"[{""event"":""fullscreenenter"",""trial"":1,""time"":2131}]",NA,NA,NA,NA,NA,3,#741CD8,#D8271C,0,0,1,38,1,1028.4000000059605,37,1,332.8999999985099,0,1,experiment,NA,NA,2,0.5,0.5,4,5,93,3,NA
fcp-trial,141,767683,0.0-102.0-0.0,voc_e2,12342,"[{""event"":""fullscreenenter"",""trial"":1,""time"":2131}]",NA,NA,NA,NA,NA,3,#FA92F8,#1CD855,10,0,1,38,1,2249.7999999970198,37,1,302.3999999985099,10,1,experiment,NA,NA,0,0.9,0.1,0,1,94,3,NA
fcp-trial,142,770815,0.0-103.0-0.0,voc_e2,12342,"[{""event"":""fullscreenenter"",""trial"":1,""time"":2131}]",NA,NA,NA,NA,NA,4,#741CD8,#D8271C,0,0,1,38,1,1073.7000000029802,37,1,549.3000000044703,0,1,experiment,NA,NA,2,0.5,0.5,4,5,95,3,NA
fcp-trial,143,773996,0.0-104.0-0.0,voc_e2,12342,"[{""event"":""fullscreenenter"",""trial"":1,""time"":2131}]",NA,NA,NA,NA,NA,6,#D8271C,#741CD8,0,0,0,40,0,1282.2999999970198,39,0,393.20000000298023,0,1,experiment,NA,NA,2,0.5,0.5,5,4,96,3,NA
fcp-trial,144,779556,0.0-105.0-0.0,voc_e2,12342,"[{""event"":""fullscreenenter"",""trial"":1,""time"":2131}]",NA,NA,NA,NA,NA,2,#3386FF,#D89F1C,10,10,1,38,1,3466,37,1,586,10,1,experiment,NA,NA,1,0.7,0.3,2,3,97,3,NA
fcp-trial,145,782806,0.0-106.0-0.0,voc_e2,12342,"[{""event"":""fullscreenenter"",""trial"":1,""time"":2131}]",NA,NA,NA,NA,NA,5,#741CD8,#D8271C,10,10,1,40,0,1240.2999999970198,39,0,500.8999999985099,10,0,experiment,NA,NA,2,0.5,0.5,4,5,98,3,NA
fcp-trial,146,786351,0.0-107.0-0.0,voc_e2,12342,"[{""event"":""fullscreenenter"",""trial"":1,""time"":2131}]",NA,NA,NA,NA,NA,4,#FA92F8,#1CD855,10,0,1,38,1,1693.1000000014901,37,1,343.8999999985099,10,1,experiment,NA,NA,0,0.9,0.1,0,1,99,3,NA
fcp-trial,147,791048,0.0-108.0-0.0,voc_e2,12342,"[{""event"":""fullscreenenter"",""trial"":1,""time"":2131}]",NA,NA,NA,NA,NA,2,#FA92F8,#1CD855,10,0,1,38,1,2761.5,37,1,429.5,10,1,experiment,NA,NA,0,0.9,0.1,0,1,100,3,NA
fcp-trial,148,794255,0.0-109.0-0.0,voc_e2,12342,"[{""event"":""fullscreenenter"",""trial"":1,""time"":2131}]",NA,NA,NA,NA,NA,1,#D8271C,#741CD8,10,0,0,38,1,1271.1000000014901,39,0,427.8999999985099,0,1,experiment,NA,NA,2,0.5,0.5,5,4,101,3,NA
fcp-trial,149,798672,0.0-110.0-0.0,voc_e2,12342,"[{""event"":""fullscreenenter"",""trial"":1,""time"":2131}]",NA,NA,NA,NA,NA,5,#D89F1C,#3386FF,0,0,0,40,0,2503.10000000149,39,0,409.30000000447035,0,1,experiment,NA,NA,1,0.3,0.7,3,2,102,3,NA
fcp-trial,150,802006,0.0-111.0-0.0,voc_e2,12342,"[{""event"":""fullscreenenter"",""trial"":1,""time"":2131}]",NA,NA,NA,NA,NA,0,#3386FF,#D89F1C,0,10,1,38,1,1428.2999999970198,37,1,400.79999999701977,0,1,experiment,NA,NA,1,0.7,0.3,2,3,103,3,NA
fcp-trial,151,805819,0.0-112.0-0.0,voc_e2,12342,"[{""event"":""fullscreenenter"",""trial"":1,""time"":2131}]",NA,NA,NA,NA,NA,4,#3386FF,#D89F1C,0,0,1,40,0,1850.9000000059605,37,1,453.8999999985099,0,1,experiment,NA,NA,1,0.7,0.3,2,3,104,3,NA
fcp-trial,152,810113,0.0-113.0-0.0,voc_e2,12342,"[{""event"":""fullscreenenter"",""trial"":1,""time"":2131}]",NA,NA,NA,NA,NA,6,#FA92F8,#1CD855,10,0,1,40,0,2323.5,37,1,461.80000000447035,10,1,experiment,NA,NA,0,0.9,0.1,0,1,105,3,NA
audio-instructions,153,816377,0.0-114.0,voc_e2,12342,"[{""event"":""fullscreenenter"",""trial"":1,""time"":2131}]",NA,1397.1999999955297,static/audio/pause.wav,NA,0,NA,NA,NA,NA,NA,NA,NA,NA,NA,NA,NA,NA,NA,NA,NA,NA,NA,NA,NA,NA,NA,NA,NA,NA,NA
fcp-trial,154,821930,0.0-115.0-0.0,voc_e2,12342,"[{""event"":""fullscreenenter"",""trial"":1,""time"":2131}]",NA,NA,NA,NA,NA,3,#3386FF,#D89F1C,10,0,1,40,0,3585.10000000149,39,0,463,0,0,experiment,NA,NA,1,0.7,0.3,2,3,106,3,NA
fcp-trial,155,825022,0.0-116.0-0.0,voc_e2,12342,"[{""event"":""fullscreenenter"",""trial"":1,""time"":2131}]",NA,NA,NA,NA,NA,5,#1CD855,#FA92F8,0,0,0,40,0,1199.1000000014901,39,0,385.5,0,1,experiment,NA,NA,0,0.1,0.9,1,0,107,3,NA
fcp-trial,156,828059,0.0-117.0-0.0,voc_e2,12342,"[{""event"":""fullscreenenter"",""trial"":1,""time"":2131}]",NA,NA,NA,NA,NA,5,#3386FF,#D89F1C,10,0,1,40,0,1111.2000000029802,37,1,418.3999999985099,10,1,experiment,NA,NA,1,0.7,0.3,2,3,108,3,NA
fcp-trial,157,831290,0.0-118.0-0.0,voc_e2,12342,"[{""event"":""fullscreenenter"",""trial"":1,""time"":2131}]",NA,NA,NA,NA,NA,4,#D8271C,#741CD8,10,0,0,40,0,1217.8999999985099,39,0,506.5,0,1,experiment,NA,NA,2,0.5,0.5,5,4,109,3,NA
fcp-trial,158,834640,0.0-119.0-0.0,voc_e2,12342,"[{""event"":""fullscreenenter"",""trial"":1,""time"":2131}]",NA,NA,NA,NA,NA,4,#D89F1C,#3386FF,10,10,0,40,0,1398.1999999955297,37,1,446.8999999985099,10,0,experiment,NA,NA,1,0.3,0.7,3,2,110,3,NA
fcp-trial,159,837827,0.0-120.0-0.0,voc_e2,12342,"[{""event"":""fullscreenenter"",""trial"":1,""time"":2131}]",NA,NA,NA,NA,NA,1,#1CD855,#FA92F8,0,10,0,38,1,1314,39,0,366.8999999985099,10,1,experiment,NA,NA,0,0.1,0.9,1,0,111,3,NA
fcp-trial,160,840987,0.0-121.0-0.0,voc_e2,12342,"[{""event"":""fullscreenenter"",""trial"":1,""time"":2131}]",NA,NA,NA,NA,NA,0,#FA92F8,#1CD855,10,0,1,38,1,1252.2000000029802,37,1,400,10,1,experiment,NA,NA,0,0.9,0.1,0,1,112,3,NA
fcp-trial,161,845100,0.0-122.0-0.0,voc_e2,12342,"[{""event"":""fullscreenenter"",""trial"":1,""time"":2131}]",NA,NA,NA,NA,NA,0,#741CD8,#D8271C,10,0,1,38,1,1688.7999999970198,37,1,917.1999999955297,10,1,experiment,NA,NA,2,0.5,0.5,4,5,113,3,NA
fcp-trial,162,848117,0.0-123.0-0.0,voc_e2,12342,"[{""event"":""fullscreenenter"",""trial"":1,""time"":2131}]",NA,NA,NA,NA,NA,3,#D8271C,#741CD8,10,10,0,38,1,1098.8000000044703,39,0,411,10,1,experiment,NA,NA,2,0.5,0.5,5,4,114,3,NA
fcp-trial,163,851352,0.0-124.0-0.0,voc_e2,12342,"[{""event"":""fullscreenenter"",""trial"":1,""time"":2131}]",NA,NA,NA,NA,NA,2,#3386FF,#D89F1C,0,10,1,38,1,1130.2000000029802,37,1,598,0,1,experiment,NA,NA,1,0.7,0.3,2,3,115,3,NA
fcp-trial,164,854480,0.0-125.0-0.0,voc_e2,12342,"[{""event"":""fullscreenenter"",""trial"":1,""time"":2131}]",NA,NA,NA,NA,NA,2,#D8271C,#741CD8,10,10,0,38,1,1004.7999999970198,39,0,616.8999999985099,10,1,experiment,NA,NA,2,0.5,0.5,5,4,116,3,NA
fcp-trial,165,857529,0.0-126.0-0.0,voc_e2,12342,"[{""event"":""fullscreenenter"",""trial"":1,""time"":2131}]",NA,NA,NA,NA,NA,4,#FA92F8,#1CD855,10,0,1,38,1,946.1000000014901,37,1,597.2999999970198,10,1,experiment,NA,NA,0,0.9,0.1,0,1,117,3,NA
fcp-trial,166,861401,0.0-127.0-0.0,voc_e2,12342,"[{""event"":""fullscreenenter"",""trial"":1,""time"":2131}]",NA,NA,NA,NA,NA,0,#3386FF,#D89F1C,10,0,1,38,1,1233.5,37,1,1133.7000000029802,10,1,experiment,NA,NA,1,0.7,0.3,2,3,118,3,NA
fcp-trial,167,864303,0.0-128.0-0.0,voc_e2,12342,"[{""event"":""fullscreenenter"",""trial"":1,""time"":2131}]",NA,NA,NA,NA,NA,1,#D8271C,#741CD8,10,10,0,38,1,1053.1999999955297,39,0,342.6000000014901,10,1,experiment,NA,NA,2,0.5,0.5,5,4,119,3,NA
fcp-trial,168,867395,0.0-129.0-0.0,voc_e2,12342,"[{""event"":""fullscreenenter"",""trial"":1,""time"":2131}]",NA,NA,NA,NA,NA,1,#D89F1C,#3386FF,0,0,0,38,1,1225.6999999955297,39,0,358.69999999552965,0,1,experiment,NA,NA,1,0.3,0.7,3,2,120,3,NA
fcp-trial,169,869874,0.0-130.0-0.0,voc_e2,12342,"[{""event"":""fullscreenenter"",""trial"":1,""time"":2131}]",NA,NA,NA,NA,NA,3,#1CD855,#FA92F8,0,0,0,38,1,698.6000000014901,39,0,270.1000000014901,0,1,experiment,NA,NA,0,0.1,0.9,1,0,121,3,NA
fcp-trial,170,872855,0.0-131.0-0.0,voc_e2,12342,"[{""event"":""fullscreenenter"",""trial"":1,""time"":2131}]",NA,NA,NA,NA,NA,6,#741CD8,#D8271C,0,10,1,40,0,1104.6999999955297,37,1,370.19999999552965,0,1,experiment,NA,NA,2,0.5,0.5,4,5,122,3,NA
fcp-trial,171,877610,0.0-132.0-0.0,voc_e2,12342,"[{""event"":""fullscreenenter"",""trial"":1,""time"":2131}]",NA,NA,NA,NA,NA,6,#3386FF,#D89F1C,10,10,1,40,0,2444.60000000149,37,1,804.3999999985099,10,1,experiment,NA,NA,1,0.7,0.3,2,3,123,3,NA
fcp-trial,172,880647,0.0-133.0-0.0,voc_e2,12342,"[{""event"":""fullscreenenter"",""trial"":1,""time"":2131}]",NA,NA,NA,NA,NA,6,#1CD855,#FA92F8,0,10,0,40,0,1056.5,37,1,473.1000000014901,0,0,experiment,NA,NA,0,0.1,0.9,1,0,124,3,NA
fcp-trial,173,883907,0.0-134.0-0.0,voc_e2,12342,"[{""event"":""fullscreenenter"",""trial"":1,""time"":2131}]",NA,NA,NA,NA,NA,5,#D8271C,#741CD8,10,10,0,40,0,1288.8999999985099,39,0,464.79999999701977,10,1,experiment,NA,NA,2,0.5,0.5,5,4,125,3,NA
fcp-trial,174,887757,0.0-135.0-0.0,voc_e2,12342,"[{""event"":""fullscreenenter"",""trial"":1,""time"":2131}]",NA,NA,NA,NA,NA,2,#FA92F8,#1CD855,10,0,1,38,1,1776.6999999955297,37,1,567.9000000059605,10,1,experiment,NA,NA,0,0.9,0.1,0,1,126,3,NA
fcp-trial,175,891748,0.0-136.0-0.0,voc_e2,12342,"[{""event"":""fullscreenenter"",""trial"":1,""time"":2131}]",NA,NA,NA,NA,NA,1,#FA92F8,#1CD855,10,0,1,38,1,2148.5999999940395,37,1,335.8999999985099,10,1,experiment,NA,NA,0,0.9,0.1,0,1,127,3,NA
fcp-trial,176,894779,0.0-137.0-0.0,voc_e2,12342,"[{""event"":""fullscreenenter"",""trial"":1,""time"":2131}]",NA,NA,NA,NA,NA,6,#741CD8,#D8271C,0,10,1,40,0,992.5,39,0,533.3999999985099,10,0,experiment,NA,NA,2,0.5,0.5,4,5,128,3,NA
fcp-trial,177,897832,0.0-138.0-0.0,voc_e2,12342,"[{""event"":""fullscreenenter"",""trial"":1,""time"":2131}]",NA,NA,NA,NA,NA,3,#D89F1C,#3386FF,10,10,0,38,1,1140.1000000014901,39,0,407.29999999701977,10,1,experiment,NA,NA,1,0.3,0.7,3,2,129,3,NA
fcp-trial,178,901744,0.0-139.0-0.0,voc_e2,12342,"[{""event"":""fullscreenenter"",""trial"":1,""time"":2131}]",NA,NA,NA,NA,NA,5,#D89F1C,#3386FF,0,10,0,40,0,1817.1999999955297,39,0,586.7999999970198,10,1,experiment,NA,NA,1,0.3,0.7,3,2,130,3,NA
fcp-trial,179,904889,0.0-140.0-0.0,voc_e2,12342,"[{""event"":""fullscreenenter"",""trial"":1,""time"":2131}]",NA,NA,NA,NA,NA,3,#1CD855,#FA92F8,0,10,0,38,1,1285.8999999985099,39,0,351.19999999552965,10,1,experiment,NA,NA,0,0.1,0.9,1,0,131,3,NA
fcp-trial,180,908544,0.0-141.0-0.0,voc_e2,12342,"[{""event"":""fullscreenenter"",""trial"":1,""time"":2131}]",NA,NA,NA,NA,NA,4,#741CD8,#D8271C,0,10,1,40,0,1743.7000000029802,37,1,406.29999999701977,0,1,experiment,NA,NA,2,0.5,0.5,4,5,132,3,NA
fcp-trial,181,911806,0.0-142.0-0.0,voc_e2,12342,"[{""event"":""fullscreenenter"",""trial"":1,""time"":2131}]",NA,NA,NA,NA,NA,5,#FA92F8,#1CD855,10,0,1,40,0,1202.1999999955297,39,0,552.7000000029802,0,0,experiment,NA,NA,0,0.9,0.1,0,1,133,3,NA
fcp-trial,182,914791,0.0-143.0-0.0,voc_e2,12342,"[{""event"":""fullscreenenter"",""trial"":1,""time"":2131}]",NA,NA,NA,NA,NA,6,#3386FF,#D89F1C,10,0,1,40,0,1037.6000000014901,37,1,441.1000000014901,10,1,experiment,NA,NA,1,0.7,0.3,2,3,134,3,NA
fcp-trial,183,918396,0.0-144.0-0.0,voc_e2,12342,"[{""event"":""fullscreenenter"",""trial"":1,""time"":2131}]",NA,NA,NA,NA,NA,4,#1CD855,#FA92F8,0,0,0,40,0,1691.1000000014901,39,0,408,0,1,experiment,NA,NA,0,0.1,0.9,1,0,135,3,NA
fcp-trial,184,921489,0.0-145.0-0.0,voc_e2,12342,"[{""event"":""fullscreenenter"",""trial"":1,""time"":2131}]",NA,NA,NA,NA,NA,1,#3386FF,#D89F1C,10,10,1,38,1,1207,37,1,380.79999999701977,10,1,experiment,NA,NA,1,0.7,0.3,2,3,136,4,NA
fcp-trial,185,925150,0.0-146.0-0.0,voc_e2,12342,"[{""event"":""fullscreenenter"",""trial"":1,""time"":2131}]",NA,NA,NA,NA,NA,0,#D8271C,#741CD8,10,10,0,38,1,1263.2999999970198,39,0,1005.7999999970198,10,1,experiment,NA,NA,2,0.5,0.5,5,4,137,4,NA
fcp-trial,186,928215,0.0-147.0-0.0,voc_e2,12342,"[{""event"":""fullscreenenter"",""trial"":1,""time"":2131}]",NA,NA,NA,NA,NA,5,#D8271C,#741CD8,10,10,0,40,0,1060.7000000029802,37,1,497.8999999985099,10,0,experiment,NA,NA,2,0.5,0.5,5,4,138,4,NA
fcp-trial,187,931268,0.0-148.0-0.0,voc_e2,12342,"[{""event"":""fullscreenenter"",""trial"":1,""time"":2131}]",NA,NA,NA,NA,NA,0,#1CD855,#FA92F8,0,10,0,38,1,1145,39,0,402.5,10,1,experiment,NA,NA,0,0.1,0.9,1,0,139,4,NA
fcp-trial,188,934719,0.0-149.0-0.0,voc_e2,12342,"[{""event"":""fullscreenenter"",""trial"":1,""time"":2131}]",NA,NA,NA,NA,NA,1,#741CD8,#D8271C,0,10,1,38,1,1284.2000000029802,37,1,661.5,0,1,experiment,NA,NA,2,0.5,0.5,4,5,140,4,NA
fcp-trial,189,938281,0.0-150.0-0.0,voc_e2,12342,"[{""event"":""fullscreenenter"",""trial"":1,""time"":2131}]",NA,NA,NA,NA,NA,2,#3386FF,#D89F1C,10,0,1,38,1,1522.1000000014901,37,1,534.1000000014901,10,1,experiment,NA,NA,1,0.7,0.3,2,3,141,4,NA
fcp-trial,190,941206,0.0-151.0-0.0,voc_e2,12342,"[{""event"":""fullscreenenter"",""trial"":1,""time"":2131}]",NA,NA,NA,NA,NA,0,#3386FF,#D89F1C,0,0,1,38,1,996,37,1,422.3999999985099,0,1,experiment,NA,NA,1,0.7,0.3,2,3,142,4,NA
fcp-trial,191,944038,0.0-152.0-0.0,voc_e2,12342,"[{""event"":""fullscreenenter"",""trial"":1,""time"":2131}]",NA,NA,NA,NA,NA,2,#741CD8,#D8271C,10,0,1,38,1,959.5,37,1,366.70000000298023,10,1,experiment,NA,NA,2,0.5,0.5,4,5,143,4,NA
fcp-trial,192,947236,0.0-153.0-0.0,voc_e2,12342,"[{""event"":""fullscreenenter"",""trial"":1,""time"":2131}]",NA,NA,NA,NA,NA,6,#1CD855,#FA92F8,0,10,0,40,0,1180.8000000044703,37,1,511.3999999985099,0,0,experiment,NA,NA,0,0.1,0.9,1,0,144,4,NA
fcp-trial,193,950254,0.0-154.0-0.0,voc_e2,12342,"[{""event"":""fullscreenenter"",""trial"":1,""time"":2131}]",NA,NA,NA,NA,NA,3,#741CD8,#D8271C,0,10,1,38,1,1095.5,37,1,417,0,1,experiment,NA,NA,2,0.5,0.5,4,5,145,4,NA
fcp-trial,194,957131,0.0-155.0-0.0,voc_e2,12342,"[{""event"":""fullscreenenter"",""trial"":1,""time"":2131}]",NA,NA,NA,NA,NA,4,#3386FF,#D89F1C,10,0,1,40,0,4666.80000000447,39,0,705.5,0,0,experiment,NA,NA,1,0.7,0.3,2,3,146,4,NA
fcp-trial,195,960407,0.0-156.0-0.0,voc_e2,12342,"[{""event"":""fullscreenenter"",""trial"":1,""time"":2131}]",NA,NA,NA,NA,NA,2,#1CD855,#FA92F8,0,10,0,38,1,1157.2000000029802,39,0,610.7999999970198,10,1,experiment,NA,NA,0,0.1,0.9,1,0,147,4,NA
fcp-trial,196,963281,0.0-157.0-0.0,voc_e2,12342,"[{""event"":""fullscreenenter"",""trial"":1,""time"":2131}]",NA,NA,NA,NA,NA,0,#1CD855,#FA92F8,10,0,0,38,1,1116,39,0,253,0,1,experiment,NA,NA,0,0.1,0.9,1,0,148,4,NA
fcp-trial,197,966995,0.0-158.0-0.0,voc_e2,12342,"[{""event"":""fullscreenenter"",""trial"":1,""time"":2131}]",NA,NA,NA,NA,NA,1,#741CD8,#D8271C,0,10,1,38,1,1344.8999999985099,37,1,861,0,1,experiment,NA,NA,2,0.5,0.5,4,5,149,4,NA
fcp-trial,198,969947,0.0-159.0-0.0,voc_e2,12342,"[{""event"":""fullscreenenter"",""trial"":1,""time"":2131}]",NA,NA,NA,NA,NA,5,#1CD855,#FA92F8,0,10,0,40,0,947.7000000029802,39,0,499.20000000298023,10,1,experiment,NA,NA,0,0.1,0.9,1,0,150,4,NA
fcp-trial,199,973127,0.0-160.0-0.0,voc_e2,12342,"[{""event"":""fullscreenenter"",""trial"":1,""time"":2131}]",NA,NA,NA,NA,NA,3,#3386FF,#D89F1C,10,0,1,38,1,1215.7000000029802,37,1,459.8999999985099,10,1,experiment,NA,NA,1,0.7,0.3,2,3,151,4,NA
fcp-trial,200,976356,0.0-161.0-0.0,voc_e2,12342,"[{""event"":""fullscreenenter"",""trial"":1,""time"":2131}]",NA,NA,NA,NA,NA,2,#1CD855,#FA92F8,0,10,0,38,1,1189.5,39,0,532,10,1,experiment,NA,NA,0,0.1,0.9,1,0,152,4,NA
fcp-trial,201,979661,0.0-162.0-0.0,voc_e2,12342,"[{""event"":""fullscreenenter"",""trial"":1,""time"":2131}]",NA,NA,NA,NA,NA,4,#741CD8,#D8271C,0,10,1,38,1,1363.3999999985099,37,1,431.59999999403954,0,1,experiment,NA,NA,2,0.5,0.5,4,5,153,4,NA
fcp-trial,202,982790,0.0-163.0-0.0,voc_e2,12342,"[{""event"":""fullscreenenter"",""trial"":1,""time"":2131}]",NA,NA,NA,NA,NA,4,#D89F1C,#3386FF,0,10,0,40,0,1231.6000000014901,39,0,390.8999999985099,10,1,experiment,NA,NA,1,0.3,0.7,3,2,154,4,NA
fcp-trial,203,986387,0.0-164.0-0.0,voc_e2,12342,"[{""event"":""fullscreenenter"",""trial"":1,""time"":2131}]",NA,NA,NA,NA,NA,3,#D8271C,#741CD8,0,0,0,38,1,1188.1999999955297,37,1,902.3000000044703,0,0,experiment,NA,NA,2,0.5,0.5,5,4,155,4,NA
fcp-trial,204,989376,0.0-165.0-0.0,voc_e2,12342,"[{""event"":""fullscreenenter"",""trial"":1,""time"":2131}]",NA,NA,NA,NA,NA,5,#3386FF,#D89F1C,0,0,1,40,0,1094.1999999955297,37,1,388.3999999985099,0,1,experiment,NA,NA,1,0.7,0.3,2,3,156,4,NA
fcp-trial,205,993052,0.0-166.0-0.0,voc_e2,12342,"[{""event"":""fullscreenenter"",""trial"":1,""time"":2131}]",NA,NA,NA,NA,NA,3,#1CD855,#FA92F8,0,10,0,38,1,1887.7000000029802,39,0,281.70000000298023,10,1,experiment,NA,NA,0,0.1,0.9,1,0,157,4,NA
fcp-trial,206,996038,0.0-167.0-0.0,voc_e2,12342,"[{""event"":""fullscreenenter"",""trial"":1,""time"":2131}]",NA,NA,NA,NA,NA,6,#D8271C,#741CD8,0,0,0,40,0,1043.7000000029802,39,0,436.29999999701977,0,1,experiment,NA,NA,2,0.5,0.5,5,4,158,4,NA
fcp-trial,207,998978,0.0-168.0-0.0,voc_e2,12342,"[{""event"":""fullscreenenter"",""trial"":1,""time"":2131}]",NA,NA,NA,NA,NA,1,#3386FF,#D89F1C,10,0,1,38,1,1150,37,1,284.40000000596046,10,1,experiment,NA,NA,1,0.7,0.3,2,3,159,4,NA
fcp-trial,208,1002789,0.0-169.0-0.0,voc_e2,12342,"[{""event"":""fullscreenenter"",""trial"":1,""time"":2131}]",NA,NA,NA,NA,NA,2,#741CD8,#D8271C,10,10,1,40,0,1872.5,37,1,432.5,10,1,experiment,NA,NA,2,0.5,0.5,4,5,160,4,NA
fcp-trial,209,1006144,0.0-170.0-0.0,voc_e2,12342,"[{""event"":""fullscreenenter"",""trial"":1,""time"":2131}]",NA,NA,NA,NA,NA,6,#D89F1C,#3386FF,10,0,0,40,0,1195.9000000059605,37,1,653.2999999970198,10,0,experiment,NA,NA,1,0.3,0.7,3,2,161,4,NA
fcp-trial,210,1008964,0.0-171.0-0.0,voc_e2,12342,"[{""event"":""fullscreenenter"",""trial"":1,""time"":2131}]",NA,NA,NA,NA,NA,1,#FA92F8,#1CD855,10,0,1,38,1,1044.7999999970198,37,1,269,10,1,experiment,NA,NA,0,0.9,0.1,0,1,162,4,NA
fcp-trial,211,1011842,0.0-172.0-0.0,voc_e2,12342,"[{""event"":""fullscreenenter"",""trial"":1,""time"":2131}]",NA,NA,NA,NA,NA,6,#1CD855,#FA92F8,0,10,0,40,0,936.4000000059605,39,0,436.1000000014901,10,1,experiment,NA,NA,0,0.1,0.9,1,0,163,4,NA
fcp-trial,212,1015168,0.0-173.0-0.0,voc_e2,12342,"[{""event"":""fullscreenenter"",""trial"":1,""time"":2131}]",NA,NA,NA,NA,NA,2,#3386FF,#D89F1C,10,0,1,38,1,1501.8999999985099,37,1,317.20000000298023,10,1,experiment,NA,NA,1,0.7,0.3,2,3,164,4,NA
fcp-trial,213,1018249,0.0-174.0-0.0,voc_e2,12342,"[{""event"":""fullscreenenter"",""trial"":1,""time"":2131}]",NA,NA,NA,NA,NA,0,#741CD8,#D8271C,0,10,1,38,1,1140.2999999970198,37,1,434.6000000014901,0,1,experiment,NA,NA,2,0.5,0.5,4,5,165,4,NA
fcp-trial,214,1022314,0.0-175.0-0.0,voc_e2,12342,"[{""event"":""fullscreenenter"",""trial"":1,""time"":2131}]",NA,NA,NA,NA,NA,0,#3386FF,#D89F1C,10,0,1,38,1,2143.39999999851,37,1,414.79999999701977,10,1,experiment,NA,NA,1,0.7,0.3,2,3,166,4,NA
fcp-trial,215,1025561,0.0-176.0-0.0,voc_e2,12342,"[{""event"":""fullscreenenter"",""trial"":1,""time"":2131}]",NA,NA,NA,NA,NA,5,#D8271C,#741CD8,10,0,0,38,1,1435.1999999955297,39,0,305,0,1,experiment,NA,NA,2,0.5,0.5,5,4,167,4,NA
fcp-trial,216,1028886,0.0-177.0-0.0,voc_e2,12342,"[{""event"":""fullscreenenter"",""trial"":1,""time"":2131}]",NA,NA,NA,NA,NA,4,#FA92F8,#1CD855,10,0,1,40,0,1512.6000000014901,37,1,305.79999999701977,10,1,experiment,NA,NA,0,0.9,0.1,0,1,168,4,NA
fcp-trial,217,1032423,0.0-178.0-0.0,voc_e2,12342,"[{""event"":""fullscreenenter"",""trial"":1,""time"":2131}]",NA,NA,NA,NA,NA,5,#1CD855,#FA92F8,0,10,0,40,0,1525.6999999955297,37,1,503.5,0,0,experiment,NA,NA,0,0.1,0.9,1,0,169,4,NA
fcp-trial,218,1035784,0.0-179.0-0.0,voc_e2,12342,"[{""event"":""fullscreenenter"",""trial"":1,""time"":2131}]",NA,NA,NA,NA,NA,2,#D89F1C,#3386FF,0,0,0,38,1,1588.2000000029802,39,0,264.30000000447035,0,1,experiment,NA,NA,1,0.3,0.7,3,2,170,4,NA
fcp-trial,219,1039052,0.0-180.0-0.0,voc_e2,12342,"[{""event"":""fullscreenenter"",""trial"":1,""time"":2131}]",NA,NA,NA,NA,NA,4,#1CD855,#FA92F8,0,10,0,40,0,1354.3999999985099,39,0,407,10,1,experiment,NA,NA,0,0.1,0.9,1,0,171,4,NA
fcp-trial,220,1042402,0.0-181.0-0.0,voc_e2,12342,"[{""event"":""fullscreenenter"",""trial"":1,""time"":2131}]",NA,NA,NA,NA,NA,6,#741CD8,#D8271C,0,10,1,40,0,1348.2999999970198,39,0,495.1000000014901,10,0,experiment,NA,NA,2,0.5,0.5,4,5,172,4,NA
fcp-trial,221,1045421,0.0-182.0-0.0,voc_e2,12342,"[{""event"":""fullscreenenter"",""trial"":1,""time"":2131}]",NA,NA,NA,NA,NA,5,#D89F1C,#3386FF,0,10,0,40,0,1134.2000000029802,39,0,377.8999999985099,10,1,experiment,NA,NA,1,0.3,0.7,3,2,173,4,NA
fcp-trial,222,1048553,0.0-183.0-0.0,voc_e2,12342,"[{""event"":""fullscreenenter"",""trial"":1,""time"":2131}]",NA,NA,NA,NA,NA,3,#D8271C,#741CD8,0,0,0,38,1,1368.8000000044703,37,1,257.8999999985099,0,0,experiment,NA,NA,2,0.5,0.5,5,4,174,4,NA
fcp-trial,223,1053331,0.0-184.0-0.0,voc_e2,12342,"[{""event"":""fullscreenenter"",""trial"":1,""time"":2131}]",NA,NA,NA,NA,NA,1,#1CD855,#FA92F8,0,10,0,38,1,2623.1999999955297,39,0,648.6000000014901,10,1,experiment,NA,NA,0,0.1,0.9,1,0,175,4,NA
fcp-trial,224,1057830,0.0-185.0-0.0,voc_e2,12342,"[{""event"":""fullscreenenter"",""trial"":1,""time"":2131}]",NA,NA,NA,NA,NA,0,#D8271C,#741CD8,0,0,0,38,1,2490.3000000044703,37,1,500.8999999985099,0,0,experiment,NA,NA,2,0.5,0.5,5,4,176,4,NA
fcp-trial,225,1061307,0.0-186.0-0.0,voc_e2,12342,"[{""event"":""fullscreenenter"",""trial"":1,""time"":2131}]",NA,NA,NA,NA,NA,1,#3386FF,#D89F1C,10,0,1,38,1,1634.6999999955297,37,1,333.79999999701977,10,1,experiment,NA,NA,1,0.7,0.3,2,3,177,4,NA
fcp-trial,226,1064563,0.0-187.0-0.0,voc_e2,12342,"[{""event"":""fullscreenenter"",""trial"":1,""time"":2131}]",NA,NA,NA,NA,NA,6,#1CD855,#FA92F8,0,10,0,40,0,1270.5,39,0,478.20000000298023,10,1,experiment,NA,NA,0,0.1,0.9,1,0,178,4,NA
fcp-trial,227,1067464,0.0-188.0-0.0,voc_e2,12342,"[{""event"":""fullscreenenter"",""trial"":1,""time"":2131}]",NA,NA,NA,NA,NA,5,#D8271C,#741CD8,0,0,0,40,0,1010.7999999970198,39,0,384,0,1,experiment,NA,NA,2,0.5,0.5,5,4,179,4,NA
fcp-trial,228,1070577,0.0-189.0-0.0,voc_e2,12342,"[{""event"":""fullscreenenter"",""trial"":1,""time"":2131}]",NA,NA,NA,NA,NA,4,#741CD8,#D8271C,0,10,1,40,0,1169.8999999985099,39,0,437.70000000298023,10,0,experiment,NA,NA,2,0.5,0.5,4,5,180,4,NA
fcp-trial,229,1075830,0.0-190.0-0.0,voc_e2,12342,"[{""event"":""fullscreenenter"",""trial"":1,""time"":2131}]",NA,NA,NA,NA,NA,4,#D89F1C,#3386FF,0,0,0,40,0,3332.3000000044703,37,1,415.1000000014901,0,0,experiment,NA,NA,1,0.3,0.7,3,2,181,5,NA
fcp-trial,230,1078645,0.0-191.0-0.0,voc_e2,12342,"[{""event"":""fullscreenenter"",""trial"":1,""time"":2131}]",NA,NA,NA,NA,NA,0,#1CD855,#FA92F8,0,10,0,38,1,843.3999999985099,39,0,466.70000000298023,10,1,experiment,NA,NA,0,0.1,0.9,1,0,182,5,NA
fcp-trial,231,1083014,0.0-192.0-0.0,voc_e2,12342,"[{""event"":""fullscreenenter"",""trial"":1,""time"":2131}]",NA,NA,NA,NA,NA,0,#3386FF,#D89F1C,10,0,1,38,1,2378.60000000149,37,1,483.6000000014901,10,1,experiment,NA,NA,1,0.7,0.3,2,3,183,5,NA
fcp-trial,232,1086498,0.0-193.0-0.0,voc_e2,12342,"[{""event"":""fullscreenenter"",""trial"":1,""time"":2131}]",NA,NA,NA,NA,NA,3,#1CD855,#FA92F8,0,10,0,38,1,1199.5999999940395,39,0,777.7999999970198,10,1,experiment,NA,NA,0,0.1,0.9,1,0,184,5,NA
fcp-trial,233,1090117,0.0-194.0-0.0,voc_e2,12342,"[{""event"":""fullscreenenter"",""trial"":1,""time"":2131}]",NA,NA,NA,NA,NA,1,#741CD8,#D8271C,0,10,1,38,1,1081.5,39,0,1031.5999999940395,10,0,experiment,NA,NA,2,0.5,0.5,4,5,185,5,NA
fcp-trial,234,1093162,0.0-195.0-0.0,voc_e2,12342,"[{""event"":""fullscreenenter"",""trial"":1,""time"":2131}]",NA,NA,NA,NA,NA,3,#D89F1C,#3386FF,0,10,0,38,1,1216.7999999970198,39,0,321.3999999985099,10,1,experiment,NA,NA,1,0.3,0.7,3,2,186,5,NA
fcp-trial,235,1096558,0.0-196.0-0.0,voc_e2,12342,"[{""event"":""fullscreenenter"",""trial"":1,""time"":2131}]",NA,NA,NA,NA,NA,6,#3386FF,#D89F1C,10,0,1,40,0,1447.6999999955297,39,0,438.8999999985099,0,0,experiment,NA,NA,1,0.7,0.3,2,3,187,5,NA
fcp-trial,236,1099890,0.0-197.0-0.0,voc_e2,12342,"[{""event"":""fullscreenenter"",""trial"":1,""time"":2131}]",NA,NA,NA,NA,NA,2,#741CD8,#D8271C,10,0,1,38,1,1048.8999999985099,39,0,777.3999999985099,0,0,experiment,NA,NA,2,0.5,0.5,4,5,188,5,NA
fcp-trial,237,1102546,0.0-198.0-0.0,voc_e2,12342,"[{""event"":""fullscreenenter"",""trial"":1,""time"":2131}]",NA,NA,NA,NA,NA,2,#1CD855,#FA92F8,0,10,0,38,1,893.7999999970198,39,0,256.6000000014901,10,1,experiment,NA,NA,0,0.1,0.9,1,0,189,5,NA
fcp-trial,238,1105820,0.0-199.0-0.0,voc_e2,12342,"[{""event"":""fullscreenenter"",""trial"":1,""time"":2131}]",NA,NA,NA,NA,NA,3,#741CD8,#D8271C,10,0,1,38,1,1444.5999999940395,39,0,321.3999999985099,0,0,experiment,NA,NA,2,0.5,0.5,4,5,190,5,NA
fcp-trial,239,1108490,0.0-200.0-0.0,voc_e2,12342,"[{""event"":""fullscreenenter"",""trial"":1,""time"":2131}]",NA,NA,NA,NA,NA,6,#FA92F8,#1CD855,10,0,1,38,1,828.8000000044703,37,1,336.6000000014901,10,1,experiment,NA,NA,0,0.9,0.1,0,1,191,5,NA
fcp-trial,240,1111268,0.0-201.0-0.0,voc_e2,12342,"[{""event"":""fullscreenenter"",""trial"":1,""time"":2131}]",NA,NA,NA,NA,NA,1,#1CD855,#FA92F8,0,10,0,38,1,998.3999999985099,39,0,273,10,1,experiment,NA,NA,0,0.1,0.9,1,0,192,5,NA
fcp-trial,241,1115000,0.0-202.0-0.0,voc_e2,12342,"[{""event"":""fullscreenenter"",""trial"":1,""time"":2131}]",NA,NA,NA,NA,NA,2,#D89F1C,#3386FF,0,0,0,38,1,1132.6000000014901,39,0,1091.7000000029802,0,1,experiment,NA,NA,1,0.3,0.7,3,2,193,5,NA
fcp-trial,242,1118058,0.0-203.0-0.0,voc_e2,12342,"[{""event"":""fullscreenenter"",""trial"":1,""time"":2131}]",NA,NA,NA,NA,NA,4,#D8271C,#741CD8,10,10,0,40,0,1156.1000000014901,37,1,394.5,10,0,experiment,NA,NA,2,0.5,0.5,5,4,194,5,NA
fcp-trial,243,1120991,0.0-204.0-0.0,voc_e2,12342,"[{""event"":""fullscreenenter"",""trial"":1,""time"":2131}]",NA,NA,NA,NA,NA,4,#1CD855,#FA92F8,10,10,0,38,1,1158.7999999970198,39,0,267,10,1,experiment,NA,NA,0,0.1,0.9,1,0,195,5,NA
fcp-trial,244,1124198,0.0-205.0-0.0,voc_e2,12342,"[{""event"":""fullscreenenter"",""trial"":1,""time"":2131}]",NA,NA,NA,NA,NA,1,#3386FF,#D89F1C,10,0,1,38,1,1087.3999999985099,37,1,611.0999999940395,10,1,experiment,NA,NA,1,0.7,0.3,2,3,196,5,NA
fcp-trial,245,1126931,0.0-206.0-0.0,voc_e2,12342,"[{""event"":""fullscreenenter"",""trial"":1,""time"":2131}]",NA,NA,NA,NA,NA,0,#D89F1C,#3386FF,0,10,0,38,1,647.9000000059605,39,0,579.3999999985099,10,1,experiment,NA,NA,1,0.3,0.7,3,2,197,5,NA
fcp-trial,246,1130008,0.0-207.0-0.0,voc_e2,12342,"[{""event"":""fullscreenenter"",""trial"":1,""time"":2131}]",NA,NA,NA,NA,NA,6,#D89F1C,#3386FF,0,10,0,38,1,626.0999999940395,39,0,943.60000000149,10,1,experiment,NA,NA,1,0.3,0.7,3,2,198,5,NA
fcp-trial,247,1132972,0.0-208.0-0.0,voc_e2,12342,"[{""event"":""fullscreenenter"",""trial"":1,""time"":2131}]",NA,NA,NA,NA,NA,6,#D8271C,#741CD8,10,10,0,40,0,1044.1000000014901,39,0,412.5,10,1,experiment,NA,NA,2,0.5,0.5,5,4,199,5,NA
fcp-trial,248,1135932,0.0-209.0-0.0,voc_e2,12342,"[{""event"":""fullscreenenter"",""trial"":1,""time"":2131}]",NA,NA,NA,NA,NA,3,#1CD855,#FA92F8,0,10,0,38,1,1055.5,39,0,397.40000000596046,10,1,experiment,NA,NA,0,0.1,0.9,1,0,200,5,NA
fcp-trial,249,1139785,0.0-210.0-0.0,voc_e2,12342,"[{""event"":""fullscreenenter"",""trial"":1,""time"":2131}]",NA,NA,NA,NA,NA,5,#FA92F8,#1CD855,10,0,1,40,0,1882.6999999955297,39,0,464.6000000014901,0,0,experiment,NA,NA,0,0.9,0.1,0,1,201,5,NA
fcp-trial,250,1142772,0.0-211.0-0.0,voc_e2,12342,"[{""event"":""fullscreenenter"",""trial"":1,""time"":2131}]",NA,NA,NA,NA,NA,5,#3386FF,#D89F1C,0,0,1,40,0,1091.2999999970198,37,1,390.29999999701977,0,1,experiment,NA,NA,1,0.7,0.3,2,3,202,5,NA
fcp-trial,251,1146473,0.0-212.0-0.0,voc_e2,12342,"[{""event"":""fullscreenenter"",""trial"":1,""time"":2131}]",NA,NA,NA,NA,NA,0,#D8271C,#741CD8,0,0,0,38,1,1234,39,0,959.9000000059604,0,1,experiment,NA,NA,2,0.5,0.5,5,4,203,5,NA
fcp-trial,252,1149750,0.0-213.0-0.0,voc_e2,12342,"[{""event"":""fullscreenenter"",""trial"":1,""time"":2131}]",NA,NA,NA,NA,NA,0,#1CD855,#FA92F8,0,0,0,38,1,1379.7000000029802,39,0,391.5,0,1,experiment,NA,NA,0,0.1,0.9,1,0,204,5,NA
fcp-trial,253,1152886,0.0-214.0-0.0,voc_e2,12342,"[{""event"":""fullscreenenter"",""trial"":1,""time"":2131}]",NA,NA,NA,NA,NA,2,#741CD8,#D8271C,10,10,1,40,0,1204.6000000014901,39,0,423.69999999552965,10,0,experiment,NA,NA,2,0.5,0.5,4,5,205,5,NA
fcp-trial,254,1158272,0.0-215.0-0.0,voc_e2,12342,"[{""event"":""fullscreenenter"",""trial"":1,""time"":2131}]",NA,NA,NA,NA,NA,3,#D89F1C,#3386FF,0,10,0,40,0,3497.3000000044703,39,0,381.30000000447035,10,1,experiment,NA,NA,1,0.3,0.7,3,2,206,5,NA
fcp-trial,255,1161285,0.0-216.0-0.0,voc_e2,12342,"[{""event"":""fullscreenenter"",""trial"":1,""time"":2131}]",NA,NA,NA,NA,NA,2,#1CD855,#FA92F8,0,10,0,38,1,930.1000000014901,39,0,575.7999999970198,10,1,experiment,NA,NA,0,0.1,0.9,1,0,207,5,NA
fcp-trial,256,1164595,0.0-217.0-0.0,voc_e2,12342,"[{""event"":""fullscreenenter"",""trial"":1,""time"":2131}]",NA,NA,NA,NA,NA,4,#3386FF,#D89F1C,10,0,1,40,0,1400.1000000014901,37,1,398.70000000298023,10,1,experiment,NA,NA,1,0.7,0.3,2,3,208,5,NA
fcp-trial,257,1167416,0.0-218.0-0.0,voc_e2,12342,"[{""event"":""fullscreenenter"",""trial"":1,""time"":2131}]",NA,NA,NA,NA,NA,1,#741CD8,#D8271C,10,10,1,40,0,827.8999999985099,39,0,486.70000000298023,10,0,experiment,NA,NA,2,0.5,0.5,4,5,209,5,NA
fcp-trial,258,1170855,0.0-219.0-0.0,voc_e2,12342,"[{""event"":""fullscreenenter"",""trial"":1,""time"":2131}]",NA,NA,NA,NA,NA,5,#741CD8,#D8271C,0,0,1,40,0,1439.3999999985099,37,1,490.6000000014901,0,1,experiment,NA,NA,2,0.5,0.5,4,5,210,5,NA
audio-instructions,259,1176265,0.0-220.0,voc_e2,12342,"[{""event"":""fullscreenenter"",""trial"":1,""time"":2131}]",NA,549.7000000029802,static/audio/pause.wav,NA,0,NA,NA,NA,NA,NA,NA,NA,NA,NA,NA,NA,NA,NA,NA,NA,NA,NA,NA,NA,NA,NA,NA,NA,NA,NA
fcp-trial,260,1180660,0.0-221.0-0.0,voc_e2,12342,"[{""event"":""fullscreenenter"",""trial"":1,""time"":2131}]",NA,NA,NA,NA,NA,2,#3386FF,#D89F1C,10,0,1,38,1,2547.10000000149,37,1,343.8999999985099,10,1,experiment,NA,NA,1,0.7,0.3,2,3,211,5,NA
fcp-trial,261,1184280,0.0-222.0-0.0,voc_e2,12342,"[{""event"":""fullscreenenter"",""trial"":1,""time"":2131}]",NA,NA,NA,NA,NA,6,#741CD8,#D8271C,0,10,1,40,0,1479.8999999985099,37,1,632.1999999955297,0,1,experiment,NA,NA,2,0.5,0.5,4,5,212,5,NA
fcp-trial,262,1187701,0.0-223.0-0.0,voc_e2,12342,"[{""event"":""fullscreenenter"",""trial"":1,""time"":2131}]",NA,NA,NA,NA,NA,5,#D89F1C,#3386FF,10,0,0,40,0,1347.7000000029802,37,1,566,10,0,experiment,NA,NA,1,0.3,0.7,3,2,213,5,NA
fcp-trial,263,1191435,0.0-224.0-0.0,voc_e2,12342,"[{""event"":""fullscreenenter"",""trial"":1,""time"":2131}]",NA,NA,NA,NA,NA,5,#FA92F8,#1CD855,10,0,1,38,1,1909.6000000014901,37,1,318.29999999701977,10,1,experiment,NA,NA,0,0.9,0.1,0,1,214,5,NA
fcp-trial,264,1194766,0.0-225.0-0.0,voc_e2,12342,"[{""event"":""fullscreenenter"",""trial"":1,""time"":2131}]",NA,NA,NA,NA,NA,2,#D8271C,#741CD8,10,10,0,40,0,1422.8000000044703,37,1,401.70000000298023,10,0,experiment,NA,NA,2,0.5,0.5,5,4,215,5,NA
fcp-trial,265,1197960,0.0-226.0-0.0,voc_e2,12342,"[{""event"":""fullscreenenter"",""trial"":1,""time"":2131}]",NA,NA,NA,NA,NA,4,#D89F1C,#3386FF,0,10,0,40,0,1250.7999999970198,37,1,434.70000000298023,0,0,experiment,NA,NA,1,0.3,0.7,3,2,216,5,NA
fcp-trial,266,1201048,0.0-227.0-0.0,voc_e2,12342,"[{""event"":""fullscreenenter"",""trial"":1,""time"":2131}]",NA,NA,NA,NA,NA,3,#3386FF,#D89F1C,0,0,1,40,0,1130.3999999985099,39,0,450.8999999985099,0,0,experiment,NA,NA,1,0.7,0.3,2,3,217,5,NA
fcp-trial,267,1204167,0.0-228.0-0.0,voc_e2,12342,"[{""event"":""fullscreenenter"",""trial"":1,""time"":2131}]",NA,NA,NA,NA,NA,6,#FA92F8,#1CD855,10,0,1,38,1,1238.7999999970198,37,1,370,10,1,experiment,NA,NA,0,0.9,0.1,0,1,218,5,NA
fcp-trial,268,1207300,0.0-229.0-0.0,voc_e2,12342,"[{""event"":""fullscreenenter"",""trial"":1,""time"":2131}]",NA,NA,NA,NA,NA,1,#741CD8,#D8271C,10,0,1,40,0,1225.2999999970198,37,1,402.8999999985099,10,1,experiment,NA,NA,2,0.5,0.5,4,5,219,5,NA
fcp-trial,269,1210726,0.0-230.0-0.0,voc_e2,12342,"[{""event"":""fullscreenenter"",""trial"":1,""time"":2131}]",NA,NA,NA,NA,NA,2,#1CD855,#FA92F8,0,10,0,38,1,1589.3999999985099,39,0,325.6000000014901,10,1,experiment,NA,NA,0,0.1,0.9,1,0,220,5,NA
fcp-trial,270,1214102,0.0-231.0-0.0,voc_e2,12342,"[{""event"":""fullscreenenter"",""trial"":1,""time"":2131}]",NA,NA,NA,NA,NA,1,#D89F1C,#3386FF,10,10,0,38,1,1560.2000000029802,39,0,310.8999999985099,10,1,experiment,NA,NA,1,0.3,0.7,3,2,221,5,NA
fcp-trial,271,1216935,0.0-232.0-0.0,voc_e2,12342,"[{""event"":""fullscreenenter"",""trial"":1,""time"":2131}]",NA,NA,NA,NA,NA,0,#3386FF,#D89F1C,10,0,1,38,1,904,37,1,421.70000000298023,10,1,experiment,NA,NA,1,0.7,0.3,2,3,222,5,NA
fcp-trial,272,1219830,0.0-233.0-0.0,voc_e2,12342,"[{""event"":""fullscreenenter"",""trial"":1,""time"":2131}]",NA,NA,NA,NA,NA,0,#1CD855,#FA92F8,0,10,0,38,1,1034.3999999985099,39,0,354.80000000447035,10,1,experiment,NA,NA,0,0.1,0.9,1,0,223,5,NA
fcp-trial,273,1222852,0.0-234.0-0.0,voc_e2,12342,"[{""event"":""fullscreenenter"",""trial"":1,""time"":2131}]",NA,NA,NA,NA,NA,3,#D8271C,#741CD8,0,0,0,40,0,1042.6000000014901,39,0,473.19999999552965,0,1,experiment,NA,NA,2,0.5,0.5,5,4,224,5,NA
fcp-trial,274,1225448,0.0-235.0-0.0,voc_e2,12342,"[{""event"":""fullscreenenter"",""trial"":1,""time"":2131}]",NA,NA,NA,NA,NA,4,#D8271C,#741CD8,0,0,0,40,0,676.7999999970198,39,0,411.80000000447035,0,1,experiment,NA,NA,2,0.5,0.5,5,4,225,5,NA
fcp-trial,275,1228521,0.0-236.0-0.0,voc_e2,12342,"[{""event"":""fullscreenenter"",""trial"":1,""time"":2131}]",NA,NA,NA,NA,NA,4,#FA92F8,#1CD855,10,0,1,38,1,1051,37,1,514.7000000029802,10,1,experiment,NA,NA,0,0.9,0.1,0,1,226,6,NA
fcp-trial,276,1231993,0.0-237.0-0.0,voc_e2,12342,"[{""event"":""fullscreenenter"",""trial"":1,""time"":2131}]",NA,NA,NA,NA,NA,6,#3386FF,#D89F1C,10,0,1,40,0,1551.1000000014901,37,1,412.6000000014901,10,1,experiment,NA,NA,1,0.7,0.3,2,3,227,6,NA
fcp-trial,277,1234830,0.0-238.0-0.0,voc_e2,12342,"[{""event"":""fullscreenenter"",""trial"":1,""time"":2131}]",NA,NA,NA,NA,NA,0,#D8271C,#741CD8,0,0,0,40,0,713.0999999940395,37,1,615.2999999970198,0,0,experiment,NA,NA,2,0.5,0.5,5,4,228,6,NA
fcp-trial,278,1239682,0.0-239.0-0.0,voc_e2,12342,"[{""event"":""fullscreenenter"",""trial"":1,""time"":2131}]",NA,NA,NA,NA,NA,1,#1CD855,#FA92F8,0,10,0,38,1,2800.10000000149,39,0,545.8999999985099,10,1,experiment,NA,NA,0,0.1,0.9,1,0,229,6,NA
fcp-trial,279,1242644,0.0-240.0-0.0,voc_e2,12342,"[{""event"":""fullscreenenter"",""trial"":1,""time"":2131}]",NA,NA,NA,NA,NA,5,#741CD8,#D8271C,10,0,1,40,0,1047.7000000029802,37,1,408.5,10,1,experiment,NA,NA,2,0.5,0.5,4,5,230,6,NA
fcp-trial,280,1245479,0.0-241.0-0.0,voc_e2,12342,"[{""event"":""fullscreenenter"",""trial"":1,""time"":2131}]",NA,NA,NA,NA,NA,3,#FA92F8,#1CD855,10,0,1,38,1,987.8000000044703,37,1,341.40000000596046,10,1,experiment,NA,NA,0,0.9,0.1,0,1,231,6,NA
fcp-trial,281,1248414,0.0-242.0-0.0,voc_e2,12342,"[{""event"":""fullscreenenter"",""trial"":1,""time"":2131}]",NA,NA,NA,NA,NA,1,#D89F1C,#3386FF,0,10,0,38,1,1058.7000000029802,39,0,369.90000000596046,10,1,experiment,NA,NA,1,0.3,0.7,3,2,232,6,NA
fcp-trial,282,1251931,0.0-243.0-0.0,voc_e2,12342,"[{""event"":""fullscreenenter"",""trial"":1,""time"":2131}]",NA,NA,NA,NA,NA,5,#1CD855,#FA92F8,0,0,0,38,1,1751.8999999985099,39,0,257.8999999985099,0,1,experiment,NA,NA,0,0.1,0.9,1,0,233,6,NA
fcp-trial,283,1254653,0.0-244.0-0.0,voc_e2,12342,"[{""event"":""fullscreenenter"",""trial"":1,""time"":2131}]",NA,NA,NA,NA,NA,0,#1CD855,#FA92F8,0,0,0,38,1,867,39,0,347.70000000298023,0,1,experiment,NA,NA,0,0.1,0.9,1,0,234,6,NA
fcp-trial,284,1257706,0.0-245.0-0.0,voc_e2,12342,"[{""event"":""fullscreenenter"",""trial"":1,""time"":2131}]",NA,NA,NA,NA,NA,6,#741CD8,#D8271C,10,0,1,40,0,1047.7999999970198,39,0,499,0,0,experiment,NA,NA,2,0.5,0.5,4,5,235,6,NA
fcp-trial,285,1262180,0.0-246.0-0.0,voc_e2,12342,"[{""event"":""fullscreenenter"",""trial"":1,""time"":2131}]",NA,NA,NA,NA,NA,4,#3386FF,#D89F1C,10,0,1,40,0,2590.7999999970198,37,1,376,10,1,experiment,NA,NA,1,0.7,0.3,2,3,236,6,NA
fcp-trial,286,1265078,0.0-247.0-0.0,voc_e2,12342,"[{""event"":""fullscreenenter"",""trial"":1,""time"":2131}]",NA,NA,NA,NA,NA,5,#D8271C,#741CD8,10,10,0,40,0,1010.7999999970198,39,0,379.6000000014901,10,1,experiment,NA,NA,2,0.5,0.5,5,4,237,6,NA
fcp-trial,287,1268687,0.0-248.0-0.0,voc_e2,12342,"[{""event"":""fullscreenenter"",""trial"":1,""time"":2131}]",NA,NA,NA,NA,NA,5,#3386FF,#D89F1C,10,0,1,40,0,1550.6000000014901,39,0,552.1999999955297,0,0,experiment,NA,NA,1,0.7,0.3,2,3,238,6,NA
fcp-trial,288,1271581,0.0-249.0-0.0,voc_e2,12342,"[{""event"":""fullscreenenter"",""trial"":1,""time"":2131}]",NA,NA,NA,NA,NA,2,#FA92F8,#1CD855,10,10,1,38,1,866.7999999970198,37,1,517,10,1,experiment,NA,NA,0,0.9,0.1,0,1,239,6,NA
fcp-trial,289,1275106,0.0-250.0-0.0,voc_e2,12342,"[{""event"":""fullscreenenter"",""trial"":1,""time"":2131}]",NA,NA,NA,NA,NA,0,#3386FF,#D89F1C,10,10,1,38,1,1721.3999999985099,37,1,297.29999999701977,10,1,experiment,NA,NA,1,0.7,0.3,2,3,240,6,NA
fcp-trial,290,1278021,0.0-251.0-0.0,voc_e2,12342,"[{""event"":""fullscreenenter"",""trial"":1,""time"":2131}]",NA,NA,NA,NA,NA,4,#1CD855,#FA92F8,0,10,0,38,1,1109.7000000029802,39,0,296.5,10,1,experiment,NA,NA,0,0.1,0.9,1,0,241,6,NA
fcp-trial,291,1281416,0.0-252.0-0.0,voc_e2,12342,"[{""event"":""fullscreenenter"",""trial"":1,""time"":2131}]",NA,NA,NA,NA,NA,0,#D8271C,#741CD8,0,10,0,38,1,1482.5,39,0,404.5,10,1,experiment,NA,NA,2,0.5,0.5,5,4,242,6,NA
fcp-trial,292,1284385,0.0-253.0-0.0,voc_e2,12342,"[{""event"":""fullscreenenter"",""trial"":1,""time"":2131}]",NA,NA,NA,NA,NA,6,#1CD855,#FA92F8,0,10,0,38,1,1014.2999999970198,39,0,448.5,10,1,experiment,NA,NA,0,0.1,0.9,1,0,243,6,NA
fcp-trial,293,1287833,0.0-254.0-0.0,voc_e2,12342,"[{""event"":""fullscreenenter"",""trial"":1,""time"":2131}]",NA,NA,NA,NA,NA,3,#741CD8,#D8271C,10,10,1,40,0,1538.5,37,1,403.6000000014901,10,1,experiment,NA,NA,2,0.5,0.5,4,5,244,6,NA
fcp-trial,294,1291054,0.0-255.0-0.0,voc_e2,12342,"[{""event"":""fullscreenenter"",""trial"":1,""time"":2131}]",NA,NA,NA,NA,NA,6,#3386FF,#D89F1C,10,10,1,40,0,1339.3999999985099,39,0,375.1000000014901,10,0,experiment,NA,NA,1,0.7,0.3,2,3,245,6,NA
fcp-trial,295,1293879,0.0-256.0-0.0,voc_e2,12342,"[{""event"":""fullscreenenter"",""trial"":1,""time"":2131}]",NA,NA,NA,NA,NA,4,#741CD8,#D8271C,10,10,1,40,0,937.1000000014901,37,1,382.6000000014901,10,1,experiment,NA,NA,2,0.5,0.5,4,5,246,6,NA
fcp-trial,296,1298805,0.0-257.0-0.0,voc_e2,12342,"[{""event"":""fullscreenenter"",""trial"":1,""time"":2131}]",NA,NA,NA,NA,NA,3,#3386FF,#D89F1C,0,0,1,38,1,2777.39999999851,37,1,638.7000000029802,0,1,experiment,NA,NA,1,0.7,0.3,2,3,247,6,NA
fcp-trial,297,1301566,0.0-258.0-0.0,voc_e2,12342,"[{""event"":""fullscreenenter"",""trial"":1,""time"":2131}]",NA,NA,NA,NA,NA,3,#FA92F8,#1CD855,10,0,1,38,1,938.8000000044703,37,1,314.40000000596046,10,1,experiment,NA,NA,0,0.9,0.1,0,1,248,6,NA
fcp-trial,298,1304534,0.0-259.0-0.0,voc_e2,12342,"[{""event"":""fullscreenenter"",""trial"":1,""time"":2131}]",NA,NA,NA,NA,NA,2,#D8271C,#741CD8,0,10,0,40,0,1135,39,0,323.70000000298023,10,1,experiment,NA,NA,2,0.5,0.5,5,4,249,6,NA
fcp-trial,299,1307183,0.0-260.0-0.0,voc_e2,12342,"[{""event"":""fullscreenenter"",""trial"":1,""time"":2131}]",NA,NA,NA,NA,NA,1,#1CD855,#FA92F8,0,10,0,38,1,849.7000000029802,39,0,292.79999999701977,10,1,experiment,NA,NA,0,0.1,0.9,1,0,250,6,NA
fcp-trial,300,1309979,0.0-261.0-0.0,voc_e2,12342,"[{""event"":""fullscreenenter"",""trial"":1,""time"":2131}]",NA,NA,NA,NA,NA,2,#D89F1C,#3386FF,0,10,0,38,1,977,39,0,312.19999999552965,10,1,experiment,NA,NA,1,0.3,0.7,3,2,251,6,NA
fcp-trial,301,1312955,0.0-262.0-0.0,voc_e2,12342,"[{""event"":""fullscreenenter"",""trial"":1,""time"":2131}]",NA,NA,NA,NA,NA,1,#D8271C,#741CD8,0,10,0,40,0,1048.1000000014901,37,1,421.19999999552965,0,0,experiment,NA,NA,2,0.5,0.5,5,4,252,6,NA
fcp-trial,302,1315976,0.0-263.0-0.0,voc_e2,12342,"[{""event"":""fullscreenenter"",""trial"":1,""time"":2131}]",NA,NA,NA,NA,NA,0,#1CD855,#FA92F8,0,10,0,38,1,1207.2999999970198,39,0,308.20000000298023,10,1,experiment,NA,NA,0,0.1,0.9,1,0,253,6,NA
fcp-trial,303,1319220,0.0-264.0-0.0,voc_e2,12342,"[{""event"":""fullscreenenter"",""trial"":1,""time"":2131}]",NA,NA,NA,NA,NA,5,#FA92F8,#1CD855,10,0,1,38,1,1415.4000000059605,37,1,324,10,1,experiment,NA,NA,0,0.9,0.1,0,1,254,6,NA
fcp-trial,304,1322104,0.0-265.0-0.0,voc_e2,12342,"[{""event"":""fullscreenenter"",""trial"":1,""time"":2131}]",NA,NA,NA,NA,NA,2,#D8271C,#741CD8,0,10,0,40,0,1046.2999999970198,39,0,330.8999999985099,10,1,experiment,NA,NA,2,0.5,0.5,5,4,255,6,NA
fcp-trial,305,1325640,0.0-266.0-0.0,voc_e2,12342,"[{""event"":""fullscreenenter"",""trial"":1,""time"":2131}]",NA,NA,NA,NA,NA,5,#D89F1C,#3386FF,10,0,0,40,0,1625.7000000029802,39,0,404,0,1,experiment,NA,NA,1,0.3,0.7,3,2,256,6,NA
fcp-trial,306,1329086,0.0-267.0-0.0,voc_e2,12342,"[{""event"":""fullscreenenter"",""trial"":1,""time"":2131}]",NA,NA,NA,NA,NA,5,#741CD8,#D8271C,0,10,1,40,0,1395.2000000029802,39,0,542.4000000059605,10,0,experiment,NA,NA,2,0.5,0.5,4,5,257,6,NA
fcp-trial,307,1332528,0.0-268.0-0.0,voc_e2,12342,"[{""event"":""fullscreenenter"",""trial"":1,""time"":2131}]",NA,NA,NA,NA,NA,6,#1CD855,#FA92F8,0,10,0,40,0,1425.8999999985099,37,1,511.1000000014901,0,0,experiment,NA,NA,0,0.1,0.9,1,0,258,6,NA
fcp-trial,308,1335802,0.0-269.0-0.0,voc_e2,12342,"[{""event"":""fullscreenenter"",""trial"":1,""time"":2131}]",NA,NA,NA,NA,NA,1,#D8271C,#741CD8,0,10,0,40,0,1334.8999999985099,39,0,431.1000000014901,10,1,experiment,NA,NA,2,0.5,0.5,5,4,259,6,NA
fcp-trial,309,1338654,0.0-270.0-0.0,voc_e2,12342,"[{""event"":""fullscreenenter"",""trial"":1,""time"":2131}]",NA,NA,NA,NA,NA,4,#D8271C,#741CD8,10,0,0,40,0,986.3000000044703,39,0,359.70000000298023,0,1,experiment,NA,NA,2,0.5,0.5,5,4,260,6,NA
fcp-trial,310,1342747,0.0-271.0-0.0,voc_e2,12342,"[{""event"":""fullscreenenter"",""trial"":1,""time"":2131}]",NA,NA,NA,NA,NA,4,#D89F1C,#3386FF,0,0,0,40,0,2259.60000000149,39,0,327.8999999985099,0,1,experiment,NA,NA,1,0.3,0.7,3,2,261,6,NA
fcp-trial,311,1345720,0.0-272.0-0.0,voc_e2,12342,"[{""event"":""fullscreenenter"",""trial"":1,""time"":2131}]",NA,NA,NA,NA,NA,3,#1CD855,#FA92F8,0,10,0,38,1,1186.3999999985099,39,0,277.90000000596046,10,1,experiment,NA,NA,0,0.1,0.9,1,0,262,6,NA
fcp-trial,312,1348507,0.0-273.0-0.0,voc_e2,12342,"[{""event"":""fullscreenenter"",""trial"":1,""time"":2131}]",NA,NA,NA,NA,NA,2,#FA92F8,#1CD855,10,0,1,38,1,913.5,37,1,367.5,10,1,experiment,NA,NA,0,0.9,0.1,0,1,263,6,NA
fcp-trial,313,1351659,0.0-274.0-0.0,voc_e2,12342,"[{""event"":""fullscreenenter"",""trial"":1,""time"":2131}]",NA,NA,NA,NA,NA,6,#D89F1C,#3386FF,0,10,0,40,0,1173.7999999970198,37,1,469.8999999985099,0,0,experiment,NA,NA,1,0.3,0.7,3,2,264,6,NA
fcp-trial,314,1354797,0.0-275.0-0.0,voc_e2,12342,"[{""event"":""fullscreenenter"",""trial"":1,""time"":2131}]",NA,NA,NA,NA,NA,3,#741CD8,#D8271C,10,10,1,40,0,1189.1000000014901,37,1,443,10,1,experiment,NA,NA,2,0.5,0.5,4,5,265,6,NA
fcp-trial,315,1358024,0.0-276.0-0.0,voc_e2,12342,"[{""event"":""fullscreenenter"",""trial"":1,""time"":2131}]",NA,NA,NA,NA,NA,4,#FA92F8,#1CD855,10,0,1,38,1,1374.7999999970198,37,1,346.5,10,1,experiment,NA,NA,0,0.9,0.1,0,1,266,6,NA
fcp-trial,316,1361589,0.0-277.0-0.0,voc_e2,12342,"[{""event"":""fullscreenenter"",""trial"":1,""time"":2131}]",NA,NA,NA,NA,NA,0,#741CD8,#D8271C,0,10,1,38,1,1694.7999999970198,37,1,361.79999999701977,0,1,experiment,NA,NA,2,0.5,0.5,4,5,267,6,NA
fcp-trial,317,1365644,0.0-278.0-0.0,voc_e2,12342,"[{""event"":""fullscreenenter"",""trial"":1,""time"":2131}]",NA,NA,NA,NA,NA,3,#3386FF,#D89F1C,10,0,1,40,0,2014.5,37,1,535.6000000014901,10,1,experiment,NA,NA,1,0.7,0.3,2,3,268,6,NA
fcp-trial,318,1368304,0.0-279.0-0.0,voc_e2,12342,"[{""event"":""fullscreenenter"",""trial"":1,""time"":2131}]",NA,NA,NA,NA,NA,1,#FA92F8,#1CD855,10,0,1,38,1,843.6999999955297,37,1,309.19999999552965,10,1,experiment,NA,NA,0,0.9,0.1,0,1,269,6,NA
fcp-trial,319,1371193,0.0-280.0-0.0,voc_e2,12342,"[{""event"":""fullscreenenter"",""trial"":1,""time"":2131}]",NA,NA,NA,NA,NA,6,#D8271C,#741CD8,10,10,0,40,0,920,39,0,461.3999999985099,10,1,experiment,NA,NA,2,0.5,0.5,5,4,270,6,NA
fcp-trial,320,1374408,0.0-281.0-0.0,voc_e2,12342,"[{""event"":""fullscreenenter"",""trial"":1,""time"":2131}]",NA,NA,NA,NA,NA,1,#D89F1C,#3386FF,0,10,0,38,1,1448.3999999985099,39,0,261.70000000298023,10,1,experiment,NA,NA,1,0.3,0.7,3,2,271,7,NA
fcp-trial,321,1377157,0.0-282.0-0.0,voc_e2,12342,"[{""event"":""fullscreenenter"",""trial"":1,""time"":2131}]",NA,NA,NA,NA,NA,2,#D89F1C,#3386FF,0,10,0,38,1,968.1000000014901,39,0,274,10,1,experiment,NA,NA,1,0.3,0.7,3,2,272,7,NA
fcp-trial,322,1380028,0.0-283.0-0.0,voc_e2,12342,"[{""event"":""fullscreenenter"",""trial"":1,""time"":2131}]",NA,NA,NA,NA,NA,0,#3386FF,#D89F1C,0,0,1,38,1,1011.1999999955297,37,1,350.40000000596046,0,1,experiment,NA,NA,1,0.7,0.3,2,3,273,7,NA
fcp-trial,323,1382664,0.0-284.0-0.0,voc_e2,12342,"[{""event"":""fullscreenenter"",""trial"":1,""time"":2131}]",NA,NA,NA,NA,NA,0,#1CD855,#FA92F8,10,10,0,38,1,861.2000000029802,39,0,268.30000000447035,10,1,experiment,NA,NA,0,0.1,0.9,1,0,274,7,NA
fcp-trial,324,1386862,0.0-285.0-0.0,voc_e2,12342,"[{""event"":""fullscreenenter"",""trial"":1,""time"":2131}]",NA,NA,NA,NA,NA,3,#D89F1C,#3386FF,0,10,0,38,1,2031.8999999985099,39,0,660.6000000014901,10,1,experiment,NA,NA,1,0.3,0.7,3,2,275,7,NA
fcp-trial,325,1389931,0.0-286.0-0.0,voc_e2,12342,"[{""event"":""fullscreenenter"",""trial"":1,""time"":2131}]",NA,NA,NA,NA,NA,5,#1CD855,#FA92F8,0,10,0,38,1,1286.9000000059605,39,0,275.3999999985099,10,1,experiment,NA,NA,0,0.1,0.9,1,0,276,7,NA
fcp-trial,326,1392940,0.0-287.0-0.0,voc_e2,12342,"[{""event"":""fullscreenenter"",""trial"":1,""time"":2131}]",NA,NA,NA,NA,NA,0,#741CD8,#D8271C,0,0,1,38,1,1243.8999999985099,37,1,257.29999999701977,0,1,experiment,NA,NA,2,0.5,0.5,4,5,277,7,NA
fcp-trial,327,1396139,0.0-288.0-0.0,voc_e2,12342,"[{""event"":""fullscreenenter"",""trial"":1,""time"":2131}]",NA,NA,NA,NA,NA,1,#D89F1C,#3386FF,0,0,0,38,1,1358.2000000029802,39,0,331.90000000596046,0,1,experiment,NA,NA,1,0.3,0.7,3,2,278,7,NA
fcp-trial,328,1399426,0.0-289.0-0.0,voc_e2,12342,"[{""event"":""fullscreenenter"",""trial"":1,""time"":2131}]",NA,NA,NA,NA,NA,6,#1CD855,#FA92F8,0,10,0,40,0,1390.2000000029802,39,0,392.1000000014901,10,1,experiment,NA,NA,0,0.1,0.9,1,0,279,7,NA
fcp-trial,329,1404153,0.0-290.0-0.0,voc_e2,12342,"[{""event"":""fullscreenenter"",""trial"":1,""time"":2131}]",NA,NA,NA,NA,NA,3,#D8271C,#741CD8,0,10,0,40,0,2861.10000000149,39,0,358.69999999552965,10,1,experiment,NA,NA,2,0.5,0.5,5,4,280,7,NA
fcp-trial,330,1407431,0.0-291.0-0.0,voc_e2,12342,"[{""event"":""fullscreenenter"",""trial"":1,""time"":2131}]",NA,NA,NA,NA,NA,5,#3386FF,#D89F1C,10,0,1,40,0,1348.6000000014901,37,1,423.3999999985099,10,1,experiment,NA,NA,1,0.7,0.3,2,3,281,7,NA
fcp-trial,331,1410584,0.0-292.0-0.0,voc_e2,12342,"[{""event"":""fullscreenenter"",""trial"":1,""time"":2131}]",NA,NA,NA,NA,NA,2,#1CD855,#FA92F8,0,10,0,38,1,1378.8999999985099,39,0,265.30000000447035,10,1,experiment,NA,NA,0,0.1,0.9,1,0,282,7,NA
fcp-trial,332,1413615,0.0-293.0-0.0,voc_e2,12342,"[{""event"":""fullscreenenter"",""trial"":1,""time"":2131}]",NA,NA,NA,NA,NA,6,#D89F1C,#3386FF,10,10,0,40,0,1051,37,1,471.1000000014901,10,0,experiment,NA,NA,1,0.3,0.7,3,2,283,7,NA
fcp-trial,333,1416574,0.0-294.0-0.0,voc_e2,12342,"[{""event"":""fullscreenenter"",""trial"":1,""time"":2131}]",NA,NA,NA,NA,NA,5,#741CD8,#D8271C,10,10,1,40,0,1035.8999999985099,37,1,415.1000000014901,10,1,experiment,NA,NA,2,0.5,0.5,4,5,284,7,NA
fcp-trial,334,1419357,0.0-295.0-0.0,voc_e2,12342,"[{""event"":""fullscreenenter"",""trial"":1,""time"":2131}]",NA,NA,NA,NA,NA,6,#741CD8,#D8271C,10,10,1,40,0,837.7999999970198,37,1,438.40000000596046,10,1,experiment,NA,NA,2,0.5,0.5,4,5,285,7,NA
fcp-trial,335,1422273,0.0-296.0-0.0,voc_e2,12342,"[{""event"":""fullscreenenter"",""trial"":1,""time"":2131}]",NA,NA,NA,NA,NA,1,#FA92F8,#1CD855,10,0,1,38,1,1037,37,1,372.09999999403954,10,1,experiment,NA,NA,0,0.9,0.1,0,1,286,7,NA
fcp-trial,336,1426339,0.0-297.0-0.0,voc_e2,12342,"[{""event"":""fullscreenenter"",""trial"":1,""time"":2131}]",NA,NA,NA,NA,NA,0,#D89F1C,#3386FF,10,0,0,38,1,2241.2000000029802,39,0,314.29999999701977,0,1,experiment,NA,NA,1,0.3,0.7,3,2,287,7,NA
fcp-trial,337,1429115,0.0-298.0-0.0,voc_e2,12342,"[{""event"":""fullscreenenter"",""trial"":1,""time"":2131}]",NA,NA,NA,NA,NA,3,#FA92F8,#1CD855,10,0,1,38,1,867.5,37,1,401.8999999985099,10,1,experiment,NA,NA,0,0.9,0.1,0,1,288,7,NA
fcp-trial,338,1432884,0.0-299.0-0.0,voc_e2,12342,"[{""event"":""fullscreenenter"",""trial"":1,""time"":2131}]",NA,NA,NA,NA,NA,2,#D89F1C,#3386FF,10,10,0,38,1,1937.2000000029802,39,0,327.3999999985099,10,1,experiment,NA,NA,1,0.3,0.7,3,2,289,7,NA
fcp-trial,339,1435777,0.0-300.0-0.0,voc_e2,12342,"[{""event"":""fullscreenenter"",""trial"":1,""time"":2131}]",NA,NA,NA,NA,NA,4,#741CD8,#D8271C,10,10,1,40,0,1001.0999999940395,37,1,382.20000000298023,10,1,experiment,NA,NA,2,0.5,0.5,4,5,290,7,NA
fcp-trial,340,1438701,0.0-301.0-0.0,voc_e2,12342,"[{""event"":""fullscreenenter"",""trial"":1,""time"":2131}]",NA,NA,NA,NA,NA,4,#1CD855,#FA92F8,10,10,0,38,1,1161.7000000029802,39,0,257.3999999985099,10,1,experiment,NA,NA,0,0.1,0.9,1,0,291,7,NA
fcp-trial,341,1441584,0.0-302.0-0.0,voc_e2,12342,"[{""event"":""fullscreenenter"",""trial"":1,""time"":2131}]",NA,NA,NA,NA,NA,4,#3386FF,#D89F1C,10,0,1,38,1,1086.1000000014901,37,1,288.6000000014901,10,1,experiment,NA,NA,1,0.7,0.3,2,3,292,7,NA
fcp-trial,342,1445122,0.0-303.0-0.0,voc_e2,12342,"[{""event"":""fullscreenenter"",""trial"":1,""time"":2131}]",NA,NA,NA,NA,NA,2,#741CD8,#D8271C,0,0,1,38,1,1000.3999999985099,37,1,1030.8000000044703,0,1,experiment,NA,NA,2,0.5,0.5,4,5,293,7,NA
fcp-trial,343,1447930,0.0-304.0-0.0,voc_e2,12342,"[{""event"":""fullscreenenter"",""trial"":1,""time"":2131}]",NA,NA,NA,NA,NA,1,#741CD8,#D8271C,10,10,1,40,0,915.5,39,0,388,10,0,experiment,NA,NA,2,0.5,0.5,4,5,294,7,NA
fcp-trial,344,1451037,0.0-305.0-0.0,voc_e2,12342,"[{""event"":""fullscreenenter"",""trial"":1,""time"":2131}]",NA,NA,NA,NA,NA,3,#3386FF,#D89F1C,10,0,1,38,1,1289.6000000014901,37,1,306.79999999701977,10,1,experiment,NA,NA,1,0.7,0.3,2,3,295,7,NA
fcp-trial,345,1453743,0.0-306.0-0.0,voc_e2,12342,"[{""event"":""fullscreenenter"",""trial"":1,""time"":2131}]",NA,NA,NA,NA,NA,2,#D89F1C,#3386FF,0,0,0,38,1,919.2000000029802,39,0,280.1000000014901,0,1,experiment,NA,NA,1,0.3,0.7,3,2,296,7,NA
fcp-trial,346,1456522,0.0-307.0-0.0,voc_e2,12342,"[{""event"":""fullscreenenter"",""trial"":1,""time"":2131}]",NA,NA,NA,NA,NA,3,#FA92F8,#1CD855,10,10,1,38,1,705.6000000014901,37,1,565.3999999985099,10,1,experiment,NA,NA,0,0.9,0.1,0,1,297,7,NA
fcp-trial,347,1460101,0.0-308.0-0.0,voc_e2,12342,"[{""event"":""fullscreenenter"",""trial"":1,""time"":2131}]",NA,NA,NA,NA,NA,1,#FA92F8,#1CD855,10,0,1,38,1,1462.7999999970198,37,1,611.2999999970198,10,1,experiment,NA,NA,0,0.9,0.1,0,1,298,7,NA
fcp-trial,348,1463618,0.0-309.0-0.0,voc_e2,12342,"[{""event"":""fullscreenenter"",""trial"":1,""time"":2131}]",NA,NA,NA,NA,NA,5,#3386FF,#D89F1C,0,0,1,40,0,1570.1000000014901,37,1,438.5,0,1,experiment,NA,NA,1,0.7,0.3,2,3,299,7,NA
fcp-trial,349,1466396,0.0-310.0-0.0,voc_e2,12342,"[{""event"":""fullscreenenter"",""trial"":1,""time"":2131}]",NA,NA,NA,NA,NA,2,#741CD8,#D8271C,0,0,1,40,0,890.7999999970198,37,1,377.3999999985099,0,1,experiment,NA,NA,2,0.5,0.5,4,5,300,7,NA
fcp-trial,350,1472505,0.0-311.0-0.0,voc_e2,12342,"[{""event"":""fullscreenenter"",""trial"":1,""time"":2131}]",NA,NA,NA,NA,NA,4,#1CD855,#FA92F8,0,10,0,38,1,4002.7000000029802,39,0,600.7000000029802,10,1,experiment,NA,NA,0,0.1,0.9,1,0,301,7,NA
fcp-trial,351,1476736,0.0-312.0-0.0,voc_e2,12342,"[{""event"":""fullscreenenter"",""trial"":1,""time"":2131}]",NA,NA,NA,NA,NA,5,#1CD855,#FA92F8,0,10,0,38,1,2425.39999999851,39,0,294.5,10,1,experiment,NA,NA,0,0.1,0.9,1,0,302,7,NA
fcp-trial,352,1480003,0.0-313.0-0.0,voc_e2,12342,"[{""event"":""fullscreenenter"",""trial"":1,""time"":2131}]",NA,NA,NA,NA,NA,0,#3386FF,#D89F1C,10,0,1,38,1,1505.1000000014901,37,1,255.19999999552965,10,1,experiment,NA,NA,1,0.7,0.3,2,3,303,7,NA
fcp-trial,353,1482901,0.0-314.0-0.0,voc_e2,12342,"[{""event"":""fullscreenenter"",""trial"":1,""time"":2131}]",NA,NA,NA,NA,NA,3,#D8271C,#741CD8,10,0,0,40,0,905.8000000044703,37,1,485.6000000014901,10,0,experiment,NA,NA,2,0.5,0.5,5,4,304,7,NA
fcp-trial,354,1485799,0.0-315.0-0.0,voc_e2,12342,"[{""event"":""fullscreenenter"",""trial"":1,""time"":2131}]",NA,NA,NA,NA,NA,4,#741CD8,#D8271C,10,10,1,40,0,942.0999999940395,39,0,447,10,0,experiment,NA,NA,2,0.5,0.5,4,5,305,7,NA
fcp-trial,355,1489195,0.0-316.0-0.0,voc_e2,12342,"[{""event"":""fullscreenenter"",""trial"":1,""time"":2131}]",NA,NA,NA,NA,NA,6,#D89F1C,#3386FF,0,10,0,40,0,1388.9000000059605,37,1,501.29999999701977,0,0,experiment,NA,NA,1,0.3,0.7,3,2,306,7,NA
fcp-trial,356,1491988,0.0-317.0-0.0,voc_e2,12342,"[{""event"":""fullscreenenter"",""trial"":1,""time"":2131}]",NA,NA,NA,NA,NA,2,#1CD855,#FA92F8,0,10,0,38,1,963.8999999985099,39,0,323.5,10,1,experiment,NA,NA,0,0.1,0.9,1,0,307,7,NA
fcp-trial,357,1494709,0.0-318.0-0.0,voc_e2,12342,"[{""event"":""fullscreenenter"",""trial"":1,""time"":2131}]",NA,NA,NA,NA,NA,5,#D8271C,#741CD8,0,0,0,40,0,842.3000000044703,39,0,370.80000000447035,0,1,experiment,NA,NA,2,0.5,0.5,5,4,308,7,NA
fcp-trial,358,1497719,0.0-319.0-0.0,voc_e2,12342,"[{""event"":""fullscreenenter"",""trial"":1,""time"":2131}]",NA,NA,NA,NA,NA,0,#D8271C,#741CD8,10,10,0,38,1,1141.7999999970198,39,0,363.5,10,1,experiment,NA,NA,2,0.5,0.5,5,4,309,7,NA
fcp-trial,359,1500533,0.0-320.0-0.0,voc_e2,12342,"[{""event"":""fullscreenenter"",""trial"":1,""time"":2131}]",NA,NA,NA,NA,NA,1,#741CD8,#D8271C,0,0,1,40,0,881.9000000059605,37,1,426.19999999552965,0,1,experiment,NA,NA,2,0.5,0.5,4,5,310,7,NA
fcp-trial,360,1503505,0.0-321.0-0.0,voc_e2,12342,"[{""event"":""fullscreenenter"",""trial"":1,""time"":2131}]",NA,NA,NA,NA,NA,1,#3386FF,#D89F1C,10,0,1,38,1,1120.3000000044703,37,1,346.69999999552965,10,1,experiment,NA,NA,1,0.7,0.3,2,3,311,7,NA
fcp-trial,361,1506208,0.0-322.0-0.0,voc_e2,12342,"[{""event"":""fullscreenenter"",""trial"":1,""time"":2131}]",NA,NA,NA,NA,NA,0,#FA92F8,#1CD855,10,0,1,38,1,746.5,37,1,451,10,1,experiment,NA,NA,0,0.9,0.1,0,1,312,7,NA
fcp-trial,362,1510389,0.0-323.0-0.0,voc_e2,12342,"[{""event"":""fullscreenenter"",""trial"":1,""time"":2131}]",NA,NA,NA,NA,NA,6,#1CD855,#FA92F8,0,10,0,40,0,2309.2999999970198,39,0,366.29999999701977,10,1,experiment,NA,NA,0,0.1,0.9,1,0,313,7,NA
fcp-trial,363,1513315,0.0-324.0-0.0,voc_e2,12342,"[{""event"":""fullscreenenter"",""trial"":1,""time"":2131}]",NA,NA,NA,NA,NA,6,#D8271C,#741CD8,0,10,0,40,0,966.2000000029802,37,1,453.3999999985099,0,0,experiment,NA,NA,2,0.5,0.5,5,4,314,7,NA
fcp-trial,364,1516453,0.0-325.0-0.0,voc_e2,12342,"[{""event"":""fullscreenenter"",""trial"":1,""time"":2131}]",NA,NA,NA,NA,NA,4,#D89F1C,#3386FF,0,10,0,38,1,1298.6999999955297,39,0,331.8999999985099,10,1,experiment,NA,NA,1,0.3,0.7,3,2,315,7,NA
audio-instructions,365,1524311,0.0-326.0,voc_e2,12342,"[{""event"":""fullscreenenter"",""trial"":1,""time"":2131}]",NA,1799.4000000059605,static/audio/finished.wav,NA,0,NA,NA,NA,NA,NA,NA,NA,NA,NA,NA,NA,NA,NA,NA,NA,NA,NA,NA,NA,NA,NA,NA,NA,NA,NA
audio-instructions,366,1538565,0.0-327.0-0.0,voc_e2,12342,"[{""event"":""fullscreenenter"",""trial"":1,""time"":2131}]",NA,3417.5,static/audio/explicit1.wav,NA,0,NA,NA,NA,NA,NA,NA,NA,NA,NA,NA,NA,NA,NA,NA,NA,NA,NA,NA,NA,NA,NA,NA,NA,NA,NA
audio-instructions,367,1548527,0.0-327.0-1.0,voc_e2,12342,"[{""event"":""fullscreenenter"",""trial"":1,""time"":2131}]",NA,2361.6999999955297,static/audio/explicit2.wav,NA,0,NA,NA,NA,NA,NA,NA,NA,NA,NA,NA,NA,NA,NA,NA,NA,NA,NA,NA,NA,NA,NA,NA,NA,NA,NA
image-slider-response,368,1554273,0.0-328.0,voc_e2,12342,"[{""event"":""fullscreenenter"",""trial"":1,""time"":2131}]",NA,5742.89999999851,static/img/machines/machine4.png,NA,NA,NA,NA,NA,NA,NA,NA,NA,NA,NA,NA,NA,NA,NA,NA,explicit,NA,NA,NA,NA,NA,NA,NA,NA,NA,3
image-slider-response,369,1563285,0.0-329.0,voc_e2,12342,"[{""event"":""fullscreenenter"",""trial"":1,""time"":2131}]",NA,9010.89999999851,static/img/machines/machine5.png,NA,NA,NA,NA,NA,NA,NA,NA,NA,NA,NA,NA,NA,NA,NA,NA,explicit,NA,NA,NA,NA,NA,NA,NA,NA,NA,8
image-slider-response,370,1568225,0.0-330.0,voc_e2,12342,"[{""event"":""fullscreenenter"",""trial"":1,""time"":2131}]",NA,4938.10000000149,static/img/machines/machine6.png,NA,NA,NA,NA,NA,NA,NA,NA,NA,NA,NA,NA,NA,NA,NA,NA,explicit,NA,NA,NA,NA,NA,NA,NA,NA,NA,4
image-slider-response,371,1571499,0.0-331.0,voc_e2,12342,"[{""event"":""fullscreenenter"",""trial"":1,""time"":2131}]",NA,3271.29999999702,static/img/machines/machine2.png,NA,NA,NA,NA,NA,NA,NA,NA,NA,NA,NA,NA,NA,NA,NA,NA,explicit,NA,NA,NA,NA,NA,NA,NA,NA,NA,4
image-slider-response,372,1573050,0.0-332.0,voc_e2,12342,"[{""event"":""fullscreenenter"",""trial"":1,""time"":2131}]",NA,1549.5,static/img/machines/machine3.png,NA,NA,NA,NA,NA,NA,NA,NA,NA,NA,NA,NA,NA,NA,NA,NA,explicit,NA,NA,NA,NA,NA,NA,NA,NA,NA,5
image-slider-response,373,1577137,0.0-333.0,voc_e2,12342,"[{""event"":""fullscreenenter"",""trial"":1,""time"":2131}]",NA,4085,static/img/machines/machine1.png,NA,NA,NA,NA,NA,NA,NA,NA,NA,NA,NA,NA,NA,NA,NA,NA,explicit,NA,NA,NA,NA,NA,NA,NA,NA,NA,5
