trial_type,trial_index,time_elapsed,internal_node_id,task_version,subject_id,interactions,success,rt,stimulus,key_press,button_pressed,offer,arcade_color_L,arcade_color_R,arcade_outcome_L,arcade_outcome_R,correct,stage_1_key,stage_1_choice,stage_1_rt,stage_2_key,stage_2_choice,stage_2_rt,stage_3_outcome,accuracy,phase,responses,num_errors,context,reward_prob_L,reward_prob_R,arcade_id_L,arcade_id_R,trial,block,response
pavlovia,0,11,0.0-0.0,voc_e2,12290,[],NA,NA,NA,NA,NA,NA,NA,NA,NA,NA,NA,NA,NA,NA,NA,NA,NA,NA,NA,NA,NA,NA,NA,NA,NA,NA,NA,NA,NA,NA
fullscreen,1,120230,0.0-1.0,voc_e2,12290,"[{""event"":""focus"",""trial"":1,""time"":119003},{""event"":""fullscreenenter"",""trial"":1,""time"":119346}]",TRUE,NA,NA,NA,NA,NA,NA,NA,NA,NA,NA,NA,NA,NA,NA,NA,NA,NA,NA,NA,NA,NA,NA,NA,NA,NA,NA,NA,NA,NA
audio-keyboard-response,2,134458,0.0-2.0,voc_e2,12290,"[{""event"":""focus"",""trial"":1,""time"":119003},{""event"":""fullscreenenter"",""trial"":1,""time"":119346}]",NA,13261,static/audio/beep_loop.wav,32,NA,NA,NA,NA,NA,NA,NA,NA,NA,NA,NA,NA,NA,NA,NA,NA,NA,NA,NA,NA,NA,NA,NA,NA,NA,NA
audio-test,3,163758,0.0-3.0,voc_e2,12290,"[{""event"":""focus"",""trial"":1,""time"":119003},{""event"":""fullscreenenter"",""trial"":1,""time"":119346}]",NA,NA,static/audio/turtle.wav,NA,3,NA,NA,NA,NA,NA,NA,NA,NA,NA,NA,NA,NA,NA,NA,NA,NA,NA,NA,NA,NA,NA,NA,NA,NA,NA
audio-test,4,166872,0.0-4.0,voc_e2,12290,"[{""event"":""focus"",""trial"":1,""time"":119003},{""event"":""fullscreenenter"",""trial"":1,""time"":119346}]",NA,NA,static/audio/shark.wav,NA,2,NA,NA,NA,NA,NA,NA,NA,NA,NA,NA,NA,NA,NA,NA,NA,NA,NA,NA,NA,NA,NA,NA,NA,NA,NA
audio-instructions,5,173738,0.0-5.0-0.0,voc_e2,12290,"[{""event"":""focus"",""trial"":1,""time"":119003},{""event"":""fullscreenenter"",""trial"":1,""time"":119346}]",NA,1069.1000003814695,static/audio/instructions1.wav,NA,0,NA,NA,NA,NA,NA,NA,NA,NA,NA,NA,NA,NA,NA,NA,NA,NA,NA,NA,NA,NA,NA,NA,NA,NA,NA
audio-instructions,6,182529,0.0-5.0-1.0,voc_e2,12290,"[{""event"":""focus"",""trial"":1,""time"":119003},{""event"":""fullscreenenter"",""trial"":1,""time"":119346}]",NA,2041,static/audio/instructions2.wav,NA,0,NA,NA,NA,NA,NA,NA,NA,NA,NA,NA,NA,NA,NA,NA,NA,NA,NA,NA,NA,NA,NA,NA,NA,NA,NA
audio-instructions,7,201911,0.0-5.0-2.0,voc_e2,12290,"[{""event"":""focus"",""trial"":1,""time"":119003},{""event"":""fullscreenenter"",""trial"":1,""time"":119346}]",NA,13573.5,static/audio/instructions3.wav,NA,0,NA,NA,NA,NA,NA,NA,NA,NA,NA,NA,NA,NA,NA,NA,NA,NA,NA,NA,NA,NA,NA,NA,NA,NA,NA
audio-instructions,8,231667,0.0-5.0-3.0,voc_e2,12290,"[{""event"":""focus"",""trial"":1,""time"":119003},{""event"":""fullscreenenter"",""trial"":1,""time"":119346},{""event"":""blur"",""trial"":8,""time"":213145},{""event"":""focus"",""trial"":8,""time"":229200}]",NA,16529,static/audio/instructions4.wav,NA,0,NA,NA,NA,NA,NA,NA,NA,NA,NA,NA,NA,NA,NA,NA,NA,NA,NA,NA,NA,NA,NA,NA,NA,NA,NA
audio-instructions,9,242550,0.0-5.0-4.0,voc_e2,12290,"[{""event"":""focus"",""trial"":1,""time"":119003},{""event"":""fullscreenenter"",""trial"":1,""time"":119346},{""event"":""blur"",""trial"":8,""time"":213145},{""event"":""focus"",""trial"":8,""time"":229200}]",NA,1492.4000005722046,static/audio/instructions5.wav,NA,0,NA,NA,NA,NA,NA,NA,NA,NA,NA,NA,NA,NA,NA,NA,NA,NA,NA,NA,NA,NA,NA,NA,NA,NA,NA
fcp-practice,10,247977,0.0-5.0-5.0-0.0,voc_e2,12290,"[{""event"":""focus"",""trial"":1,""time"":119003},{""event"":""fullscreenenter"",""trial"":1,""time"":119346},{""event"":""blur"",""trial"":8,""time"":213145},{""event"":""focus"",""trial"":8,""time"":229200}]",NA,NA,NA,NA,NA,NA,#EDC948,#46d3c8,10,0,1,null,null,null,37,1,3843.699999809265,10,1,practice,NA,NA,NA,NA,NA,NA,NA,NA,NA,NA
fcp-practice,11,249542,0.0-5.0-5.0-1.0,voc_e2,12290,"[{""event"":""focus"",""trial"":1,""time"":119003},{""event"":""fullscreenenter"",""trial"":1,""time"":119346},{""event"":""blur"",""trial"":8,""time"":213145},{""event"":""focus"",""trial"":8,""time"":229200}]",NA,NA,NA,NA,NA,NA,#EDC948,#46d3c8,10,0,1,null,null,null,37,1,50.30000019073486,10,1,practice,NA,NA,NA,NA,NA,NA,NA,NA,NA,NA
fcp-practice,12,251259,0.0-5.0-5.0-2.0,voc_e2,12290,"[{""event"":""focus"",""trial"":1,""time"":119003},{""event"":""fullscreenenter"",""trial"":1,""time"":119346},{""event"":""blur"",""trial"":8,""time"":213145},{""event"":""focus"",""trial"":8,""time"":229200}]",NA,NA,NA,NA,NA,NA,#EDC948,#46d3c8,0,10,1,null,null,null,37,1,190.60000038146973,0,1,practice,NA,NA,NA,NA,NA,NA,NA,NA,NA,NA
fcp-practice,13,252859,0.0-5.0-5.0-3.0,voc_e2,12290,"[{""event"":""focus"",""trial"":1,""time"":119003},{""event"":""fullscreenenter"",""trial"":1,""time"":119346},{""event"":""blur"",""trial"":8,""time"":213145},{""event"":""focus"",""trial"":8,""time"":229200}]",NA,NA,NA,NA,NA,NA,#EDC948,#46d3c8,10,0,1,null,null,null,37,1,76.10000038146973,10,1,practice,NA,NA,NA,NA,NA,NA,NA,NA,NA,NA
fcp-practice,14,254409,0.0-5.0-5.0-4.0,voc_e2,12290,"[{""event"":""focus"",""trial"":1,""time"":119003},{""event"":""fullscreenenter"",""trial"":1,""time"":119346},{""event"":""blur"",""trial"":8,""time"":213145},{""event"":""focus"",""trial"":8,""time"":229200}]",NA,NA,NA,NA,NA,NA,#EDC948,#46d3c8,10,0,1,null,null,null,37,1,26.600000381469727,10,1,practice,NA,NA,NA,NA,NA,NA,NA,NA,NA,NA
audio-instructions,15,274528,0.0-5.0-6.0,voc_e2,12290,"[{""event"":""focus"",""trial"":1,""time"":119003},{""event"":""fullscreenenter"",""trial"":1,""time"":119346},{""event"":""blur"",""trial"":8,""time"":213145},{""event"":""focus"",""trial"":8,""time"":229200}]",NA,2109.5999994277954,static/audio/instructions6.wav,NA,0,NA,NA,NA,NA,NA,NA,NA,NA,NA,NA,NA,NA,NA,NA,NA,NA,NA,NA,NA,NA,NA,NA,NA,NA,NA
audio-instructions,16,295900,0.0-5.0-7.0,voc_e2,12290,"[{""event"":""focus"",""trial"":1,""time"":119003},{""event"":""fullscreenenter"",""trial"":1,""time"":119346},{""event"":""blur"",""trial"":8,""time"":213145},{""event"":""focus"",""trial"":8,""time"":229200}]",NA,2172.5999994277954,static/audio/instructions7.wav,NA,0,NA,NA,NA,NA,NA,NA,NA,NA,NA,NA,NA,NA,NA,NA,NA,NA,NA,NA,NA,NA,NA,NA,NA,NA,NA
audio-instructions,17,309793,0.0-5.0-8.0,voc_e2,12290,"[{""event"":""focus"",""trial"":1,""time"":119003},{""event"":""fullscreenenter"",""trial"":1,""time"":119346},{""event"":""blur"",""trial"":8,""time"":213145},{""event"":""focus"",""trial"":8,""time"":229200}]",NA,4415.599999427795,static/audio/instructions8.wav,NA,0,NA,NA,NA,NA,NA,NA,NA,NA,NA,NA,NA,NA,NA,NA,NA,NA,NA,NA,NA,NA,NA,NA,NA,NA,NA
fcp-comprehension,18,330134,0.0-5.0-9.0,voc_e2,12290,"[{""event"":""focus"",""trial"":1,""time"":119003},{""event"":""fullscreenenter"",""trial"":1,""time"":119346},{""event"":""blur"",""trial"":8,""time"":213145},{""event"":""focus"",""trial"":8,""time"":229200}]",NA,20334.599999427795,NA,NA,NA,NA,NA,NA,NA,NA,NA,NA,NA,NA,NA,NA,NA,NA,NA,NA,"true,true",0,NA,NA,NA,NA,NA,NA,NA,NA
audio-instructions,19,338742,0.0-6.0-0.0,voc_e2,12290,"[{""event"":""focus"",""trial"":1,""time"":119003},{""event"":""fullscreenenter"",""trial"":1,""time"":119346},{""event"":""blur"",""trial"":8,""time"":213145},{""event"":""focus"",""trial"":8,""time"":229200}]",NA,3055,static/audio/instructions9.wav,NA,0,NA,NA,NA,NA,NA,NA,NA,NA,NA,NA,NA,NA,NA,NA,NA,NA,NA,NA,NA,NA,NA,NA,NA,NA,NA
audio-instructions,20,355016,0.0-6.0-1.0,voc_e2,12290,"[{""event"":""focus"",""trial"":1,""time"":119003},{""event"":""fullscreenenter"",""trial"":1,""time"":119346},{""event"":""blur"",""trial"":8,""time"":213145},{""event"":""focus"",""trial"":8,""time"":229200}]",NA,4157.89999961853,static/audio/instructions10.wav,NA,0,NA,NA,NA,NA,NA,NA,NA,NA,NA,NA,NA,NA,NA,NA,NA,NA,NA,NA,NA,NA,NA,NA,NA,NA,NA
fcp-trial,21,365471,0.0-6.0-2.0,voc_e2,12290,"[{""event"":""focus"",""trial"":1,""time"":119003},{""event"":""fullscreenenter"",""trial"":1,""time"":119346},{""event"":""blur"",""trial"":8,""time"":213145},{""event"":""focus"",""trial"":8,""time"":229200}]",NA,NA,NA,NA,NA,0,#EDC948,#46d3c8,10,10,1,38,1,6617.700000762939,39,0,2168.699999809265,10,0,practice,NA,NA,NA,NA,NA,NA,NA,NA,NA,NA
audio-instructions,22,378971,0.0-6.0-3.0,voc_e2,12290,"[{""event"":""focus"",""trial"":1,""time"":119003},{""event"":""fullscreenenter"",""trial"":1,""time"":119346},{""event"":""blur"",""trial"":8,""time"":213145},{""event"":""focus"",""trial"":8,""time"":229200}]",NA,2493.7000007629395,static/audio/instructions11.wav,NA,0,NA,NA,NA,NA,NA,NA,NA,NA,NA,NA,NA,NA,NA,NA,NA,NA,NA,NA,NA,NA,NA,NA,NA,NA,NA
fcp-trial,23,383753,0.0-6.0-4.0,voc_e2,12290,"[{""event"":""focus"",""trial"":1,""time"":119003},{""event"":""fullscreenenter"",""trial"":1,""time"":119346},{""event"":""blur"",""trial"":8,""time"":213145},{""event"":""focus"",""trial"":8,""time"":229200}]",NA,NA,NA,NA,NA,6,#EDC948,#46d3c8,10,10,1,40,0,2383.300000190735,39,0,879.3000001907349,10,0,practice,NA,NA,NA,NA,NA,NA,NA,NA,NA,NA
audio-instructions,24,408990,0.0-6.0-5.0,voc_e2,12290,"[{""event"":""focus"",""trial"":1,""time"":119003},{""event"":""fullscreenenter"",""trial"":1,""time"":119346},{""event"":""blur"",""trial"":8,""time"":213145},{""event"":""focus"",""trial"":8,""time"":229200}]",NA,6542.300000190735,static/audio/instructions12.wav,NA,0,NA,NA,NA,NA,NA,NA,NA,NA,NA,NA,NA,NA,NA,NA,NA,NA,NA,NA,NA,NA,NA,NA,NA,NA,NA
audio-instructions,25,418164,0.0-6.0-6.0,voc_e2,12290,"[{""event"":""focus"",""trial"":1,""time"":119003},{""event"":""fullscreenenter"",""trial"":1,""time"":119346},{""event"":""blur"",""trial"":8,""time"":213145},{""event"":""focus"",""trial"":8,""time"":229200}]",NA,1577.6999998092651,static/audio/instructions13.wav,NA,0,NA,NA,NA,NA,NA,NA,NA,NA,NA,NA,NA,NA,NA,NA,NA,NA,NA,NA,NA,NA,NA,NA,NA,NA,NA
audio-instructions,26,428337,0.0-6.0-7.0,voc_e2,12290,"[{""event"":""focus"",""trial"":1,""time"":119003},{""event"":""fullscreenenter"",""trial"":1,""time"":119346},{""event"":""blur"",""trial"":8,""time"":213145},{""event"":""focus"",""trial"":8,""time"":229200}]",NA,1728.7999992370603,static/audio/instructions14.wav,NA,0,NA,NA,NA,NA,NA,NA,NA,NA,NA,NA,NA,NA,NA,NA,NA,NA,NA,NA,NA,NA,NA,NA,NA,NA,NA
audio-instructions,27,435607,0.0-7.0-0.0,voc_e2,12290,"[{""event"":""focus"",""trial"":1,""time"":119003},{""event"":""fullscreenenter"",""trial"":1,""time"":119346},{""event"":""blur"",""trial"":8,""time"":213145},{""event"":""focus"",""trial"":8,""time"":229200}]",NA,349.69999980926514,static/audio/instructions15.wav,NA,0,NA,NA,NA,NA,NA,NA,NA,NA,NA,NA,NA,NA,NA,NA,NA,NA,NA,NA,NA,NA,NA,NA,NA,NA,NA
audio-instructions,28,442998,0.0-7.0-1.0,voc_e2,12290,"[{""event"":""focus"",""trial"":1,""time"":119003},{""event"":""fullscreenenter"",""trial"":1,""time"":119346},{""event"":""blur"",""trial"":8,""time"":213145},{""event"":""focus"",""trial"":8,""time"":229200}]",NA,559.6999998092651,static/audio/instructions16.wav,NA,0,NA,NA,NA,NA,NA,NA,NA,NA,NA,NA,NA,NA,NA,NA,NA,NA,NA,NA,NA,NA,NA,NA,NA,NA,NA
audio-instructions,29,450941,0.0-7.0-2.0,voc_e2,12290,"[{""event"":""focus"",""trial"":1,""time"":119003},{""event"":""fullscreenenter"",""trial"":1,""time"":119346},{""event"":""blur"",""trial"":8,""time"":213145},{""event"":""focus"",""trial"":8,""time"":229200}]",NA,263.8999996185303,static/audio/instructions17.wav,NA,0,NA,NA,NA,NA,NA,NA,NA,NA,NA,NA,NA,NA,NA,NA,NA,NA,NA,NA,NA,NA,NA,NA,NA,NA,NA
audio-instructions,30,459555,0.0-7.0-3.0,voc_e2,12290,"[{""event"":""focus"",""trial"":1,""time"":119003},{""event"":""fullscreenenter"",""trial"":1,""time"":119346},{""event"":""blur"",""trial"":8,""time"":213145},{""event"":""focus"",""trial"":8,""time"":229200}]",NA,848.2999992370605,static/audio/instructions18.wav,NA,0,NA,NA,NA,NA,NA,NA,NA,NA,NA,NA,NA,NA,NA,NA,NA,NA,NA,NA,NA,NA,NA,NA,NA,NA,NA
audio-instructions,31,467742,0.0-7.0-4.0,voc_e2,12290,"[{""event"":""focus"",""trial"":1,""time"":119003},{""event"":""fullscreenenter"",""trial"":1,""time"":119346},{""event"":""blur"",""trial"":8,""time"":213145},{""event"":""focus"",""trial"":8,""time"":229200}]",NA,1445.7999992370603,static/audio/instructions19.wav,NA,0,NA,NA,NA,NA,NA,NA,NA,NA,NA,NA,NA,NA,NA,NA,NA,NA,NA,NA,NA,NA,NA,NA,NA,NA,NA
fcp-comprehension,32,488911,0.0-7.0-5.0,voc_e2,12290,"[{""event"":""focus"",""trial"":1,""time"":119003},{""event"":""fullscreenenter"",""trial"":1,""time"":119346},{""event"":""blur"",""trial"":8,""time"":213145},{""event"":""focus"",""trial"":8,""time"":229200}]",NA,21165.5,NA,NA,NA,NA,NA,NA,NA,NA,NA,NA,NA,NA,NA,NA,NA,NA,NA,NA,"false,false,false,true",0,NA,NA,NA,NA,NA,NA,NA,NA
audio-instructions,33,573436,0.0-8.0,voc_e2,12290,"[{""event"":""focus"",""trial"":1,""time"":119003},{""event"":""fullscreenenter"",""trial"":1,""time"":119346},{""event"":""blur"",""trial"":8,""time"":213145},{""event"":""focus"",""trial"":8,""time"":229200}]",NA,75297.69999980927,static/audio/ready.wav,NA,0,NA,NA,NA,NA,NA,NA,NA,NA,NA,NA,NA,NA,NA,NA,NA,NA,NA,NA,NA,NA,NA,NA,NA,NA,NA
fcp-trial,34,577625,0.0-9.0-0.0,voc_e2,12290,"[{""event"":""focus"",""trial"":1,""time"":119003},{""event"":""fullscreenenter"",""trial"":1,""time"":119346},{""event"":""blur"",""trial"":8,""time"":213145},{""event"":""focus"",""trial"":8,""time"":229200}]",NA,NA,NA,NA,NA,2,#D89F1C,#3386FF,10,10,1,40,0,1745.9000005722046,39,0,923.8000001907347,10,0,experiment,NA,NA,0,0.9,0.1,0,1,1,1,NA
fcp-trial,35,581041,0.0-10.0-0.0,voc_e2,12290,"[{""event"":""focus"",""trial"":1,""time"":119003},{""event"":""fullscreenenter"",""trial"":1,""time"":119346},{""event"":""blur"",""trial"":8,""time"":213145},{""event"":""focus"",""trial"":8,""time"":229200}]",NA,NA,NA,NA,NA,4,#741CD8,#D8271C,0,10,0,38,1,1518.6000003814697,39,0,372.80000019073486,10,1,experiment,NA,NA,1,0.3,0.7,3,2,2,1,NA
fcp-trial,36,583749,0.0-11.0-0.0,voc_e2,12290,"[{""event"":""focus"",""trial"":1,""time"":119003},{""event"":""fullscreenenter"",""trial"":1,""time"":119346},{""event"":""blur"",""trial"":8,""time"":213145},{""event"":""focus"",""trial"":8,""time"":229200}]",NA,NA,NA,NA,NA,6,#D8271C,#741CD8,10,0,1,38,1,691.1999998092651,37,1,496.8999996185303,10,1,experiment,NA,NA,1,0.7,0.3,2,3,3,1,NA
fcp-trial,37,586770,0.0-12.0-0.0,voc_e2,12290,"[{""event"":""focus"",""trial"":1,""time"":119003},{""event"":""fullscreenenter"",""trial"":1,""time"":119346},{""event"":""blur"",""trial"":8,""time"":213145},{""event"":""focus"",""trial"":8,""time"":229200}]",NA,NA,NA,NA,NA,5,#1CD855,#FA92F8,0,0,1,40,0,955.3000001907349,39,0,546.6000003814697,0,0,experiment,NA,NA,2,0.5,0.5,4,5,4,1,NA
fcp-trial,38,589466,0.0-13.0-0.0,voc_e2,12290,"[{""event"":""focus"",""trial"":1,""time"":119003},{""event"":""fullscreenenter"",""trial"":1,""time"":119346},{""event"":""blur"",""trial"":8,""time"":213145},{""event"":""focus"",""trial"":8,""time"":229200}]",NA,NA,NA,NA,NA,5,#741CD8,#D8271C,0,10,0,38,1,922.6000003814697,39,0,264.30000019073486,10,1,experiment,NA,NA,1,0.3,0.7,3,2,5,1,NA
fcp-trial,39,593192,0.0-14.0-0.0,voc_e2,12290,"[{""event"":""focus"",""trial"":1,""time"":119003},{""event"":""fullscreenenter"",""trial"":1,""time"":119346},{""event"":""blur"",""trial"":8,""time"":213145},{""event"":""focus"",""trial"":8,""time"":229200}]",NA,NA,NA,NA,NA,4,#3386FF,#D89F1C,0,10,0,40,0,1448.8999996185303,39,0,757.8999996185303,10,1,experiment,NA,NA,0,0.1,0.9,1,0,6,1,NA
fcp-trial,40,596849,0.0-15.0-0.0,voc_e2,12290,"[{""event"":""focus"",""trial"":1,""time"":119003},{""event"":""fullscreenenter"",""trial"":1,""time"":119346},{""event"":""blur"",""trial"":8,""time"":213145},{""event"":""focus"",""trial"":8,""time"":229200}]",NA,NA,NA,NA,NA,0,#741CD8,#D8271C,0,0,0,38,1,1879.8999996185303,39,0,253.39999961853027,0,1,experiment,NA,NA,1,0.3,0.7,3,2,7,1,NA
fcp-trial,41,600242,0.0-16.0-0.0,voc_e2,12290,"[{""event"":""focus"",""trial"":1,""time"":119003},{""event"":""fullscreenenter"",""trial"":1,""time"":119346},{""event"":""blur"",""trial"":8,""time"":213145},{""event"":""focus"",""trial"":8,""time"":229200}]",NA,NA,NA,NA,NA,6,#FA92F8,#1CD855,10,0,0,40,0,1223.2999992370605,37,1,648.5,10,0,experiment,NA,NA,2,0.5,0.5,5,4,8,1,NA
fcp-trial,42,603878,0.0-17.0-0.0,voc_e2,12290,"[{""event"":""focus"",""trial"":1,""time"":119003},{""event"":""fullscreenenter"",""trial"":1,""time"":119346},{""event"":""blur"",""trial"":8,""time"":213145},{""event"":""focus"",""trial"":8,""time"":229200}]",NA,NA,NA,NA,NA,6,#3386FF,#D89F1C,0,10,0,40,0,1557.2999992370605,37,1,557,0,0,experiment,NA,NA,0,0.1,0.9,1,0,9,1,NA
fcp-trial,43,607383,0.0-18.0-0.0,voc_e2,12290,"[{""event"":""focus"",""trial"":1,""time"":119003},{""event"":""fullscreenenter"",""trial"":1,""time"":119346},{""event"":""blur"",""trial"":8,""time"":213145},{""event"":""focus"",""trial"":8,""time"":229200}]",NA,NA,NA,NA,NA,1,#D89F1C,#3386FF,10,0,1,40,0,1325.8000001907349,37,1,653.6000003814697,10,1,experiment,NA,NA,0,0.9,0.1,0,1,10,1,NA
fcp-trial,44,611503,0.0-19.0-0.0,voc_e2,12290,"[{""event"":""focus"",""trial"":1,""time"":119003},{""event"":""fullscreenenter"",""trial"":1,""time"":119346},{""event"":""blur"",""trial"":8,""time"":213145},{""event"":""focus"",""trial"":8,""time"":229200}]",NA,NA,NA,NA,NA,3,#741CD8,#D8271C,0,10,0,40,0,2015.7000007629395,37,1,588.3999996185303,0,0,experiment,NA,NA,1,0.3,0.7,3,2,11,1,NA
fcp-trial,45,616859,0.0-20.0-0.0,voc_e2,12290,"[{""event"":""focus"",""trial"":1,""time"":119003},{""event"":""fullscreenenter"",""trial"":1,""time"":119346},{""event"":""blur"",""trial"":8,""time"":213145},{""event"":""focus"",""trial"":8,""time"":229200}]",NA,NA,NA,NA,NA,2,#1CD855,#FA92F8,10,10,1,40,0,2026,39,0,1803.9000005722048,10,0,experiment,NA,NA,2,0.5,0.5,4,5,12,1,NA
fcp-trial,46,621229,0.0-21.0-0.0,voc_e2,12290,"[{""event"":""focus"",""trial"":1,""time"":119003},{""event"":""fullscreenenter"",""trial"":1,""time"":119346},{""event"":""blur"",""trial"":8,""time"":213145},{""event"":""focus"",""trial"":8,""time"":229200}]",NA,NA,NA,NA,NA,0,#FA92F8,#1CD855,0,0,0,38,1,2209.5,37,1,643.1999998092651,0,0,experiment,NA,NA,2,0.5,0.5,5,4,13,1,NA
fcp-trial,47,627276,0.0-22.0-0.0,voc_e2,12290,"[{""event"":""focus"",""trial"":1,""time"":119003},{""event"":""fullscreenenter"",""trial"":1,""time"":119346},{""event"":""blur"",""trial"":8,""time"":213145},{""event"":""focus"",""trial"":8,""time"":229200}]",NA,NA,NA,NA,NA,5,#D89F1C,#3386FF,10,0,1,40,0,3613.1000003814697,39,0,906.1000003814696,0,0,experiment,NA,NA,0,0.9,0.1,0,1,14,1,NA
fcp-trial,48,632698,0.0-23.0-0.0,voc_e2,12290,"[{""event"":""focus"",""trial"":1,""time"":119003},{""event"":""fullscreenenter"",""trial"":1,""time"":119346},{""event"":""blur"",""trial"":8,""time"":213145},{""event"":""focus"",""trial"":8,""time"":229200}]",NA,NA,NA,NA,NA,2,#741CD8,#D8271C,10,10,0,38,1,3098.5999994277954,39,0,811.8999996185303,10,1,experiment,NA,NA,1,0.3,0.7,3,2,15,1,NA
fcp-trial,49,638450,0.0-24.0-0.0,voc_e2,12290,"[{""event"":""focus"",""trial"":1,""time"":119003},{""event"":""fullscreenenter"",""trial"":1,""time"":119346},{""event"":""blur"",""trial"":8,""time"":213145},{""event"":""focus"",""trial"":8,""time"":229200}]",NA,NA,NA,NA,NA,1,#FA92F8,#1CD855,10,10,0,38,1,3640.800000190735,37,1,601.5999994277954,10,0,experiment,NA,NA,2,0.5,0.5,5,4,16,1,NA
fcp-trial,50,644612,0.0-25.0-0.0,voc_e2,12290,"[{""event"":""focus"",""trial"":1,""time"":119003},{""event"":""fullscreenenter"",""trial"":1,""time"":119346},{""event"":""blur"",""trial"":8,""time"":213145},{""event"":""focus"",""trial"":8,""time"":229200}]",NA,NA,NA,NA,NA,0,#D89F1C,#3386FF,10,0,1,40,0,2585.3999996185303,37,1,2058.9000005722046,10,1,experiment,NA,NA,0,0.9,0.1,0,1,17,1,NA
fcp-trial,51,649310,0.0-26.0-0.0,voc_e2,12290,"[{""event"":""focus"",""trial"":1,""time"":119003},{""event"":""fullscreenenter"",""trial"":1,""time"":119346},{""event"":""blur"",""trial"":8,""time"":213145},{""event"":""focus"",""trial"":8,""time"":229200}]",NA,NA,NA,NA,NA,3,#D89F1C,#3386FF,10,0,1,38,1,2767.8999996185303,37,1,405.3999996185303,10,1,experiment,NA,NA,0,0.9,0.1,0,1,18,1,NA
fcp-trial,52,652968,0.0-27.0-0.0,voc_e2,12290,"[{""event"":""focus"",""trial"":1,""time"":119003},{""event"":""fullscreenenter"",""trial"":1,""time"":119346},{""event"":""blur"",""trial"":8,""time"":213145},{""event"":""focus"",""trial"":8,""time"":229200}]",NA,NA,NA,NA,NA,3,#FA92F8,#1CD855,10,10,0,40,0,1433.1000003814697,39,0,707.1999998092651,10,1,experiment,NA,NA,2,0.5,0.5,5,4,19,1,NA
fcp-trial,53,657115,0.0-28.0-0.0,voc_e2,12290,"[{""event"":""focus"",""trial"":1,""time"":119003},{""event"":""fullscreenenter"",""trial"":1,""time"":119346},{""event"":""blur"",""trial"":8,""time"":213145},{""event"":""focus"",""trial"":8,""time"":229200}]",NA,NA,NA,NA,NA,1,#D8271C,#741CD8,0,0,1,38,1,1726.7000007629395,37,1,898.8000001907349,0,1,experiment,NA,NA,1,0.7,0.3,2,3,20,1,NA
fcp-trial,54,661319,0.0-29.0-0.0,voc_e2,12290,"[{""event"":""focus"",""trial"":1,""time"":119003},{""event"":""fullscreenenter"",""trial"":1,""time"":119346},{""event"":""blur"",""trial"":8,""time"":213145},{""event"":""focus"",""trial"":8,""time"":229200}]",NA,NA,NA,NA,NA,4,#1CD855,#FA92F8,10,10,1,40,0,1725.4000005722046,37,1,960.4000005722046,10,1,experiment,NA,NA,2,0.5,0.5,4,5,21,1,NA
fcp-trial,55,666312,0.0-30.0-0.0,voc_e2,12290,"[{""event"":""focus"",""trial"":1,""time"":119003},{""event"":""fullscreenenter"",""trial"":1,""time"":119346},{""event"":""blur"",""trial"":8,""time"":213145},{""event"":""focus"",""trial"":8,""time"":229200}]",NA,NA,NA,NA,NA,0,#1CD855,#FA92F8,0,10,1,38,1,2875,37,1,595.5,0,1,experiment,NA,NA,2,0.5,0.5,4,5,22,1,NA
fcp-trial,56,670537,0.0-31.0-0.0,voc_e2,12290,"[{""event"":""focus"",""trial"":1,""time"":119003},{""event"":""fullscreenenter"",""trial"":1,""time"":119346},{""event"":""blur"",""trial"":8,""time"":213145},{""event"":""focus"",""trial"":8,""time"":229200}]",NA,NA,NA,NA,NA,3,#D8271C,#741CD8,10,10,1,40,0,1786.4000005722046,39,0,923.5,10,0,experiment,NA,NA,1,0.7,0.3,2,3,23,1,NA
fcp-trial,57,673832,0.0-32.0-0.0,voc_e2,12290,"[{""event"":""focus"",""trial"":1,""time"":119003},{""event"":""fullscreenenter"",""trial"":1,""time"":119346},{""event"":""blur"",""trial"":8,""time"":213145},{""event"":""focus"",""trial"":8,""time"":229200}]",NA,NA,NA,NA,NA,5,#741CD8,#D8271C,10,10,0,38,1,1267.6000003814697,39,0,509.8999996185303,10,1,experiment,NA,NA,1,0.3,0.7,3,2,24,1,NA
fcp-trial,58,677598,0.0-33.0-0.0,voc_e2,12290,"[{""event"":""focus"",""trial"":1,""time"":119003},{""event"":""fullscreenenter"",""trial"":1,""time"":119346},{""event"":""blur"",""trial"":8,""time"":213145},{""event"":""focus"",""trial"":8,""time"":229200}]",NA,NA,NA,NA,NA,1,#1CD855,#FA92F8,10,10,1,40,0,1678.1000003814697,37,1,558.1999998092651,10,1,experiment,NA,NA,2,0.5,0.5,4,5,25,1,NA
fcp-trial,59,681812,0.0-34.0-0.0,voc_e2,12290,"[{""event"":""focus"",""trial"":1,""time"":119003},{""event"":""fullscreenenter"",""trial"":1,""time"":119346},{""event"":""blur"",""trial"":8,""time"":213145},{""event"":""focus"",""trial"":8,""time"":229200}]",NA,NA,NA,NA,NA,1,#D89F1C,#3386FF,10,0,1,40,0,1769,39,0,921.3000001907347,0,0,experiment,NA,NA,0,0.9,0.1,0,1,26,1,NA
fcp-trial,60,685516,0.0-35.0-0.0,voc_e2,12290,"[{""event"":""focus"",""trial"":1,""time"":119003},{""event"":""fullscreenenter"",""trial"":1,""time"":119346},{""event"":""blur"",""trial"":8,""time"":213145},{""event"":""focus"",""trial"":8,""time"":229200}]",NA,NA,NA,NA,NA,2,#D89F1C,#3386FF,10,0,1,40,0,1627.9000005722046,37,1,563.1999998092651,10,1,experiment,NA,NA,0,0.9,0.1,0,1,27,1,NA
fcp-trial,61,689047,0.0-36.0-0.0,voc_e2,12290,"[{""event"":""focus"",""trial"":1,""time"":119003},{""event"":""fullscreenenter"",""trial"":1,""time"":119346},{""event"":""blur"",""trial"":8,""time"":213145},{""event"":""focus"",""trial"":8,""time"":229200}]",NA,NA,NA,NA,NA,0,#3386FF,#D89F1C,0,10,0,38,1,1428.1999998092651,39,0,572.0999994277954,10,1,experiment,NA,NA,0,0.1,0.9,1,0,28,1,NA
fcp-trial,62,693382,0.0-37.0-0.0,voc_e2,12290,"[{""event"":""focus"",""trial"":1,""time"":119003},{""event"":""fullscreenenter"",""trial"":1,""time"":119346},{""event"":""blur"",""trial"":8,""time"":213145},{""event"":""focus"",""trial"":8,""time"":229200}]",NA,NA,NA,NA,NA,2,#741CD8,#D8271C,10,0,0,40,0,2240.3999996185303,39,0,573,0,1,experiment,NA,NA,1,0.3,0.7,3,2,29,1,NA
fcp-trial,63,696803,0.0-38.0-0.0,voc_e2,12290,"[{""event"":""focus"",""trial"":1,""time"":119003},{""event"":""fullscreenenter"",""trial"":1,""time"":119346},{""event"":""blur"",""trial"":8,""time"":213145},{""event"":""focus"",""trial"":8,""time"":229200}]",NA,NA,NA,NA,NA,5,#1CD855,#FA92F8,10,0,1,40,0,1171.2999992370605,37,1,735.1999998092651,10,1,experiment,NA,NA,2,0.5,0.5,4,5,30,1,NA
fcp-trial,64,701371,0.0-39.0-0.0,voc_e2,12290,"[{""event"":""focus"",""trial"":1,""time"":119003},{""event"":""fullscreenenter"",""trial"":1,""time"":119346},{""event"":""blur"",""trial"":8,""time"":213145},{""event"":""focus"",""trial"":8,""time"":229200}]",NA,NA,NA,NA,NA,0,#741CD8,#D8271C,0,10,0,38,1,2269.699999809265,39,0,784.8000001907349,10,1,experiment,NA,NA,1,0.3,0.7,3,2,31,1,NA
fcp-trial,65,704315,0.0-40.0-0.0,voc_e2,12290,"[{""event"":""focus"",""trial"":1,""time"":119003},{""event"":""fullscreenenter"",""trial"":1,""time"":119346},{""event"":""blur"",""trial"":8,""time"":213145},{""event"":""focus"",""trial"":8,""time"":229200}]",NA,NA,NA,NA,NA,4,#FA92F8,#1CD855,0,10,0,40,0,970.3000001907349,39,0,448.1000003814697,10,1,experiment,NA,NA,2,0.5,0.5,5,4,32,1,NA
fcp-trial,66,707754,0.0-41.0-0.0,voc_e2,12290,"[{""event"":""focus"",""trial"":1,""time"":119003},{""event"":""fullscreenenter"",""trial"":1,""time"":119346},{""event"":""blur"",""trial"":8,""time"":213145},{""event"":""focus"",""trial"":8,""time"":229200}]",NA,NA,NA,NA,NA,4,#3386FF,#D89F1C,0,10,0,40,0,1383.3000001907349,39,0,535.9000005722046,10,1,experiment,NA,NA,0,0.1,0.9,1,0,33,1,NA
fcp-trial,67,710815,0.0-42.0-0.0,voc_e2,12290,"[{""event"":""focus"",""trial"":1,""time"":119003},{""event"":""fullscreenenter"",""trial"":1,""time"":119346},{""event"":""blur"",""trial"":8,""time"":213145},{""event"":""focus"",""trial"":8,""time"":229200}]",NA,NA,NA,NA,NA,2,#FA92F8,#1CD855,0,10,0,40,0,998.8000001907349,37,1,542.3999996185303,0,0,experiment,NA,NA,2,0.5,0.5,5,4,34,1,NA
fcp-trial,68,714084,0.0-43.0-0.0,voc_e2,12290,"[{""event"":""focus"",""trial"":1,""time"":119003},{""event"":""fullscreenenter"",""trial"":1,""time"":119346},{""event"":""blur"",""trial"":8,""time"":213145},{""event"":""focus"",""trial"":8,""time"":229200}]",NA,NA,NA,NA,NA,3,#D89F1C,#3386FF,10,0,1,40,0,1214.1999998092651,39,0,521.8999996185303,0,0,experiment,NA,NA,0,0.9,0.1,0,1,35,1,NA
fcp-trial,69,718685,0.0-44.0-0.0,voc_e2,12290,"[{""event"":""focus"",""trial"":1,""time"":119003},{""event"":""fullscreenenter"",""trial"":1,""time"":119346},{""event"":""blur"",""trial"":8,""time"":213145},{""event"":""focus"",""trial"":8,""time"":229200}]",NA,NA,NA,NA,NA,1,#D8271C,#741CD8,0,10,1,40,0,1725.6000003814697,37,1,1355.9000005722046,0,1,experiment,NA,NA,1,0.7,0.3,2,3,36,1,NA
fcp-trial,70,721972,0.0-45.0-0.0,voc_e2,12290,"[{""event"":""focus"",""trial"":1,""time"":119003},{""event"":""fullscreenenter"",""trial"":1,""time"":119346},{""event"":""blur"",""trial"":8,""time"":213145},{""event"":""focus"",""trial"":8,""time"":229200}]",NA,NA,NA,NA,NA,6,#FA92F8,#1CD855,10,10,0,40,0,875.6999998092651,39,0,894.3999996185303,10,1,experiment,NA,NA,2,0.5,0.5,5,4,37,1,NA
fcp-trial,71,725282,0.0-46.0-0.0,voc_e2,12290,"[{""event"":""focus"",""trial"":1,""time"":119003},{""event"":""fullscreenenter"",""trial"":1,""time"":119346},{""event"":""blur"",""trial"":8,""time"":213145},{""event"":""focus"",""trial"":8,""time"":229200}]",NA,NA,NA,NA,NA,6,#3386FF,#D89F1C,0,10,0,40,0,1145.1000003814697,37,1,647.6999998092651,0,0,experiment,NA,NA,0,0.1,0.9,1,0,38,1,NA
fcp-trial,72,729138,0.0-47.0-0.0,voc_e2,12290,"[{""event"":""focus"",""trial"":1,""time"":119003},{""event"":""fullscreenenter"",""trial"":1,""time"":119346},{""event"":""blur"",""trial"":8,""time"":213145},{""event"":""focus"",""trial"":8,""time"":229200}]",NA,NA,NA,NA,NA,5,#3386FF,#D89F1C,0,10,0,40,0,1111.5,37,1,1217.1000003814695,0,0,experiment,NA,NA,0,0.1,0.9,1,0,39,1,NA
fcp-trial,73,732992,0.0-48.0-0.0,voc_e2,12290,"[{""event"":""focus"",""trial"":1,""time"":119003},{""event"":""fullscreenenter"",""trial"":1,""time"":119346},{""event"":""blur"",""trial"":8,""time"":213145},{""event"":""focus"",""trial"":8,""time"":229200}]",NA,NA,NA,NA,NA,3,#FA92F8,#1CD855,0,0,0,40,0,1550.7000007629395,37,1,788.6999998092651,0,0,experiment,NA,NA,2,0.5,0.5,5,4,40,1,NA
fcp-trial,74,736626,0.0-49.0-0.0,voc_e2,12290,"[{""event"":""focus"",""trial"":1,""time"":119003},{""event"":""fullscreenenter"",""trial"":1,""time"":119346},{""event"":""blur"",""trial"":8,""time"":213145},{""event"":""focus"",""trial"":8,""time"":229200}]",NA,NA,NA,NA,NA,4,#741CD8,#D8271C,0,10,0,40,0,1517.1999998092651,39,0,600.3000001907349,10,1,experiment,NA,NA,1,0.3,0.7,3,2,41,1,NA
fcp-trial,75,740709,0.0-50.0-0.0,voc_e2,12290,"[{""event"":""focus"",""trial"":1,""time"":119003},{""event"":""fullscreenenter"",""trial"":1,""time"":119346},{""event"":""blur"",""trial"":8,""time"":213145},{""event"":""focus"",""trial"":8,""time"":229200}]",NA,NA,NA,NA,NA,6,#D8271C,#741CD8,0,10,1,40,0,1930.1000003814697,37,1,638.5,0,1,experiment,NA,NA,1,0.7,0.3,2,3,42,1,NA
fcp-trial,76,743795,0.0-51.0-0.0,voc_e2,12290,"[{""event"":""focus"",""trial"":1,""time"":119003},{""event"":""fullscreenenter"",""trial"":1,""time"":119346},{""event"":""blur"",""trial"":8,""time"":213145},{""event"":""focus"",""trial"":8,""time"":229200}]",NA,NA,NA,NA,NA,3,#1CD855,#FA92F8,10,10,1,40,0,176,39,0,1388.2000007629397,10,0,experiment,NA,NA,2,0.5,0.5,4,5,43,1,NA
fcp-trial,77,746717,0.0-52.0-0.0,voc_e2,12290,"[{""event"":""focus"",""trial"":1,""time"":119003},{""event"":""fullscreenenter"",""trial"":1,""time"":119346},{""event"":""blur"",""trial"":8,""time"":213145},{""event"":""focus"",""trial"":8,""time"":229200}]",NA,NA,NA,NA,NA,2,#3386FF,#D89F1C,0,10,0,40,0,1057.7999992370605,37,1,342.30000019073486,0,0,experiment,NA,NA,0,0.1,0.9,1,0,44,1,NA
fcp-trial,78,749450,0.0-53.0-0.0,voc_e2,12290,"[{""event"":""focus"",""trial"":1,""time"":119003},{""event"":""fullscreenenter"",""trial"":1,""time"":119346},{""event"":""blur"",""trial"":8,""time"":213145},{""event"":""focus"",""trial"":8,""time"":229200}]",NA,NA,NA,NA,NA,5,#3386FF,#D89F1C,0,10,0,40,0,725.3000001907349,39,0,483.30000019073486,10,1,experiment,NA,NA,0,0.1,0.9,1,0,45,1,NA
fcp-trial,79,752116,0.0-54.0-0.0,voc_e2,12290,"[{""event"":""focus"",""trial"":1,""time"":119003},{""event"":""fullscreenenter"",""trial"":1,""time"":119346},{""event"":""blur"",""trial"":8,""time"":213145},{""event"":""focus"",""trial"":8,""time"":229200}]",NA,NA,NA,NA,NA,2,#1CD855,#FA92F8,10,0,1,40,0,675.0999994277954,37,1,465.1000003814697,10,1,experiment,NA,NA,2,0.5,0.5,4,5,46,2,NA
fcp-trial,80,754852,0.0-55.0-0.0,voc_e2,12290,"[{""event"":""focus"",""trial"":1,""time"":119003},{""event"":""fullscreenenter"",""trial"":1,""time"":119346},{""event"":""blur"",""trial"":8,""time"":213145},{""event"":""focus"",""trial"":8,""time"":229200}]",NA,NA,NA,NA,NA,3,#741CD8,#D8271C,0,0,0,40,0,455,37,1,764.1000003814697,0,0,experiment,NA,NA,1,0.3,0.7,3,2,47,2,NA
fcp-trial,81,757843,0.0-56.0-0.0,voc_e2,12290,"[{""event"":""focus"",""trial"":1,""time"":119003},{""event"":""fullscreenenter"",""trial"":1,""time"":119346},{""event"":""blur"",""trial"":8,""time"":213145},{""event"":""focus"",""trial"":8,""time"":229200}]",NA,NA,NA,NA,NA,5,#FA92F8,#1CD855,0,10,0,40,0,783.5,37,1,688.0999994277954,0,0,experiment,NA,NA,2,0.5,0.5,5,4,48,2,NA
fcp-trial,82,761491,0.0-57.0-0.0,voc_e2,12290,"[{""event"":""focus"",""trial"":1,""time"":119003},{""event"":""fullscreenenter"",""trial"":1,""time"":119346},{""event"":""blur"",""trial"":8,""time"":213145},{""event"":""focus"",""trial"":8,""time"":229200}]",NA,NA,NA,NA,NA,0,#3386FF,#D89F1C,0,10,0,38,1,1207.5,39,0,927.6999998092653,10,1,experiment,NA,NA,0,0.1,0.9,1,0,49,2,NA
fcp-trial,83,765138,0.0-58.0-0.0,voc_e2,12290,"[{""event"":""focus"",""trial"":1,""time"":119003},{""event"":""fullscreenenter"",""trial"":1,""time"":119346},{""event"":""blur"",""trial"":8,""time"":213145},{""event"":""focus"",""trial"":8,""time"":229200}]",NA,NA,NA,NA,NA,0,#D8271C,#741CD8,10,10,1,38,1,1805.4000005722046,37,1,332.0999994277954,10,1,experiment,NA,NA,1,0.7,0.3,2,3,50,2,NA
fcp-trial,84,767988,0.0-59.0-0.0,voc_e2,12290,"[{""event"":""focus"",""trial"":1,""time"":119003},{""event"":""fullscreenenter"",""trial"":1,""time"":119346},{""event"":""blur"",""trial"":8,""time"":213145},{""event"":""focus"",""trial"":8,""time"":229200}]",NA,NA,NA,NA,NA,2,#741CD8,#D8271C,10,10,0,40,0,650.1999998092651,37,1,679.3000001907349,10,0,experiment,NA,NA,1,0.3,0.7,3,2,51,2,NA
fcp-trial,85,771612,0.0-60.0-0.0,voc_e2,12290,"[{""event"":""focus"",""trial"":1,""time"":119003},{""event"":""fullscreenenter"",""trial"":1,""time"":119346},{""event"":""blur"",""trial"":8,""time"":213145},{""event"":""focus"",""trial"":8,""time"":229200}]",NA,NA,NA,NA,NA,3,#D89F1C,#3386FF,10,10,1,40,0,1416.3000001907349,39,0,688.3000001907349,10,0,experiment,NA,NA,0,0.9,0.1,0,1,52,2,NA
fcp-trial,86,774602,0.0-61.0-0.0,voc_e2,12290,"[{""event"":""focus"",""trial"":1,""time"":119003},{""event"":""fullscreenenter"",""trial"":1,""time"":119346},{""event"":""blur"",""trial"":8,""time"":213145},{""event"":""focus"",""trial"":8,""time"":229200}]",NA,NA,NA,NA,NA,1,#FA92F8,#1CD855,10,0,0,40,0,1022.6999998092651,39,0,447.6000003814697,0,1,experiment,NA,NA,2,0.5,0.5,5,4,53,2,NA
fcp-trial,87,777835,0.0-62.0-0.0,voc_e2,12290,"[{""event"":""focus"",""trial"":1,""time"":119003},{""event"":""fullscreenenter"",""trial"":1,""time"":119346},{""event"":""blur"",""trial"":8,""time"":213145},{""event"":""focus"",""trial"":8,""time"":229200}]",NA,NA,NA,NA,NA,0,#1CD855,#FA92F8,0,0,1,38,1,1121.2000007629395,37,1,590.7000007629395,0,1,experiment,NA,NA,2,0.5,0.5,4,5,54,2,NA
fcp-trial,88,780472,0.0-63.0-0.0,voc_e2,12290,"[{""event"":""focus"",""trial"":1,""time"":119003},{""event"":""fullscreenenter"",""trial"":1,""time"":119346},{""event"":""blur"",""trial"":8,""time"":213145},{""event"":""focus"",""trial"":8,""time"":229200}]",NA,NA,NA,NA,NA,6,#741CD8,#D8271C,0,10,0,40,0,642.1000003814697,39,0,469,10,1,experiment,NA,NA,1,0.3,0.7,3,2,55,2,NA
fcp-trial,89,784039,0.0-64.0-0.0,voc_e2,12290,"[{""event"":""focus"",""trial"":1,""time"":119003},{""event"":""fullscreenenter"",""trial"":1,""time"":119346},{""event"":""blur"",""trial"":8,""time"":213145},{""event"":""focus"",""trial"":8,""time"":229200}]",NA,NA,NA,NA,NA,4,#D8271C,#741CD8,10,0,1,40,0,1439.3999996185303,39,0,606.6999998092651,0,0,experiment,NA,NA,1,0.7,0.3,2,3,56,2,NA
fcp-trial,90,789253,0.0-65.0-0.0,voc_e2,12290,"[{""event"":""focus"",""trial"":1,""time"":119003},{""event"":""fullscreenenter"",""trial"":1,""time"":119346},{""event"":""blur"",""trial"":8,""time"":213145},{""event"":""focus"",""trial"":8,""time"":229200}]",NA,NA,NA,NA,NA,1,#D89F1C,#3386FF,10,0,1,38,1,2641.8999996185303,37,1,1041.8000001907349,10,1,experiment,NA,NA,0,0.9,0.1,0,1,57,2,NA
fcp-trial,91,793771,0.0-66.0-0.0,voc_e2,12290,"[{""event"":""focus"",""trial"":1,""time"":119003},{""event"":""fullscreenenter"",""trial"":1,""time"":119346},{""event"":""blur"",""trial"":8,""time"":213145},{""event"":""focus"",""trial"":8,""time"":229200}]",NA,NA,NA,NA,NA,4,#1CD855,#FA92F8,10,10,1,40,0,2316.800000190735,39,0,677.1999998092651,10,0,experiment,NA,NA,2,0.5,0.5,4,5,58,2,NA
fcp-trial,92,796888,0.0-67.0-0.0,voc_e2,12290,"[{""event"":""focus"",""trial"":1,""time"":119003},{""event"":""fullscreenenter"",""trial"":1,""time"":119346},{""event"":""blur"",""trial"":8,""time"":213145},{""event"":""focus"",""trial"":8,""time"":229200}]",NA,NA,NA,NA,NA,1,#D8271C,#741CD8,0,0,1,40,0,941.3999996185303,39,0,650.1000003814697,0,0,experiment,NA,NA,1,0.7,0.3,2,3,59,2,NA
fcp-trial,93,799781,0.0-68.0-0.0,voc_e2,12290,"[{""event"":""focus"",""trial"":1,""time"":119003},{""event"":""fullscreenenter"",""trial"":1,""time"":119346},{""event"":""blur"",""trial"":8,""time"":213145},{""event"":""focus"",""trial"":8,""time"":229200}]",NA,NA,NA,NA,NA,6,#3386FF,#D89F1C,0,10,0,40,0,840.8000001907349,37,1,533.3999996185303,0,0,experiment,NA,NA,0,0.1,0.9,1,0,60,2,NA
fcp-trial,94,802839,0.0-69.0-0.0,voc_e2,12290,"[{""event"":""focus"",""trial"":1,""time"":119003},{""event"":""fullscreenenter"",""trial"":1,""time"":119346},{""event"":""blur"",""trial"":8,""time"":213145},{""event"":""focus"",""trial"":8,""time"":229200}]",NA,NA,NA,NA,NA,6,#FA92F8,#1CD855,0,10,0,40,0,1031.0999994277954,39,0,514.0999994277954,10,1,experiment,NA,NA,2,0.5,0.5,5,4,61,2,NA
fcp-trial,95,805573,0.0-70.0-0.0,voc_e2,12290,"[{""event"":""focus"",""trial"":1,""time"":119003},{""event"":""fullscreenenter"",""trial"":1,""time"":119346},{""event"":""blur"",""trial"":8,""time"":213145},{""event"":""focus"",""trial"":8,""time"":229200}]",NA,NA,NA,NA,NA,4,#3386FF,#D89F1C,0,10,0,40,0,701.0999994277954,39,0,509.8999996185303,10,1,experiment,NA,NA,0,0.1,0.9,1,0,62,2,NA
fcp-trial,96,808210,0.0-71.0-0.0,voc_e2,12290,"[{""event"":""focus"",""trial"":1,""time"":119003},{""event"":""fullscreenenter"",""trial"":1,""time"":119346},{""event"":""blur"",""trial"":8,""time"":213145},{""event"":""focus"",""trial"":8,""time"":229200}]",NA,NA,NA,NA,NA,5,#741CD8,#D8271C,10,10,0,40,0,659.5,39,0,458.5,10,1,experiment,NA,NA,1,0.3,0.7,3,2,63,2,NA
fcp-trial,97,810876,0.0-72.0-0.0,voc_e2,12290,"[{""event"":""focus"",""trial"":1,""time"":119003},{""event"":""fullscreenenter"",""trial"":1,""time"":119346},{""event"":""blur"",""trial"":8,""time"":213145},{""event"":""focus"",""trial"":8,""time"":229200}]",NA,NA,NA,NA,NA,3,#D8271C,#741CD8,10,0,1,40,0,502.69999980926514,39,0,653.1999998092651,0,0,experiment,NA,NA,1,0.7,0.3,2,3,64,2,NA
fcp-trial,98,814089,0.0-73.0-0.0,voc_e2,12290,"[{""event"":""focus"",""trial"":1,""time"":119003},{""event"":""fullscreenenter"",""trial"":1,""time"":119346},{""event"":""blur"",""trial"":8,""time"":213145},{""event"":""focus"",""trial"":8,""time"":229200}]",NA,NA,NA,NA,NA,5,#1CD855,#FA92F8,10,0,1,40,0,1328.3999996185303,39,0,357,0,0,experiment,NA,NA,2,0.5,0.5,4,5,65,2,NA
fcp-trial,99,817889,0.0-74.0-0.0,voc_e2,12290,"[{""event"":""focus"",""trial"":1,""time"":119003},{""event"":""fullscreenenter"",""trial"":1,""time"":119346},{""event"":""blur"",""trial"":8,""time"":213145},{""event"":""focus"",""trial"":8,""time"":229200}]",NA,NA,NA,NA,NA,6,#D89F1C,#3386FF,10,0,1,40,0,1777.8000001907349,39,0,496.5,0,0,experiment,NA,NA,0,0.9,0.1,0,1,66,2,NA
fcp-trial,100,820755,0.0-75.0-0.0,voc_e2,12290,"[{""event"":""focus"",""trial"":1,""time"":119003},{""event"":""fullscreenenter"",""trial"":1,""time"":119346},{""event"":""blur"",""trial"":8,""time"":213145},{""event"":""focus"",""trial"":8,""time"":229200}]",NA,NA,NA,NA,NA,4,#D89F1C,#3386FF,10,0,1,40,0,800.8000001907349,39,0,547,0,0,experiment,NA,NA,0,0.9,0.1,0,1,67,2,NA
fcp-trial,101,823575,0.0-76.0-0.0,voc_e2,12290,"[{""event"":""focus"",""trial"":1,""time"":119003},{""event"":""fullscreenenter"",""trial"":1,""time"":119346},{""event"":""blur"",""trial"":8,""time"":213145},{""event"":""focus"",""trial"":8,""time"":229200}]",NA,NA,NA,NA,NA,2,#D8271C,#741CD8,10,0,1,38,1,932.3999996185303,37,1,355,10,1,experiment,NA,NA,1,0.7,0.3,2,3,68,2,NA
fcp-trial,102,826074,0.0-77.0-0.0,voc_e2,12290,"[{""event"":""focus"",""trial"":1,""time"":119003},{""event"":""fullscreenenter"",""trial"":1,""time"":119346},{""event"":""blur"",""trial"":8,""time"":213145},{""event"":""focus"",""trial"":8,""time"":229200}]",NA,NA,NA,NA,NA,4,#D8271C,#741CD8,10,10,1,38,1,697,37,1,280,10,1,experiment,NA,NA,1,0.7,0.3,2,3,69,2,NA
fcp-trial,103,829958,0.0-78.0-0.0,voc_e2,12290,"[{""event"":""focus"",""trial"":1,""time"":119003},{""event"":""fullscreenenter"",""trial"":1,""time"":119346},{""event"":""blur"",""trial"":8,""time"":213145},{""event"":""focus"",""trial"":8,""time"":229200}]",NA,NA,NA,NA,NA,1,#1CD855,#FA92F8,0,0,1,38,1,2059.5,39,0,300,0,0,experiment,NA,NA,2,0.5,0.5,4,5,70,2,NA
fcp-trial,104,832490,0.0-79.0-0.0,voc_e2,12290,"[{""event"":""focus"",""trial"":1,""time"":119003},{""event"":""fullscreenenter"",""trial"":1,""time"":119346},{""event"":""blur"",""trial"":8,""time"":213145},{""event"":""focus"",""trial"":8,""time"":229200}]",NA,NA,NA,NA,NA,5,#D8271C,#741CD8,0,0,1,38,1,683.6999998092651,37,1,322.5999994277954,0,1,experiment,NA,NA,1,0.7,0.3,2,3,71,2,NA
fcp-trial,105,835409,0.0-80.0-0.0,voc_e2,12290,"[{""event"":""focus"",""trial"":1,""time"":119003},{""event"":""fullscreenenter"",""trial"":1,""time"":119346},{""event"":""blur"",""trial"":8,""time"":213145},{""event"":""focus"",""trial"":8,""time"":229200}]",NA,NA,NA,NA,NA,3,#3386FF,#D89F1C,0,10,0,38,1,1007.1999998092651,39,0,389.6000003814697,10,1,experiment,NA,NA,0,0.1,0.9,1,0,72,2,NA
fcp-trial,106,838759,0.0-81.0-0.0,voc_e2,12290,"[{""event"":""focus"",""trial"":1,""time"":119003},{""event"":""fullscreenenter"",""trial"":1,""time"":119346},{""event"":""blur"",""trial"":8,""time"":213145},{""event"":""focus"",""trial"":8,""time"":229200}]",NA,NA,NA,NA,NA,2,#FA92F8,#1CD855,0,0,0,40,0,1382.9000005722046,39,0,447.6000003814697,0,1,experiment,NA,NA,2,0.5,0.5,5,4,73,2,NA
fcp-trial,107,841809,0.0-82.0-0.0,voc_e2,12290,"[{""event"":""focus"",""trial"":1,""time"":119003},{""event"":""fullscreenenter"",""trial"":1,""time"":119346},{""event"":""blur"",""trial"":8,""time"":213145},{""event"":""focus"",""trial"":8,""time"":229200}]",NA,NA,NA,NA,NA,1,#3386FF,#D89F1C,0,10,0,38,1,1205.6999998092651,39,0,324.69999980926514,10,1,experiment,NA,NA,0,0.1,0.9,1,0,74,2,NA
fcp-trial,108,845257,0.0-83.0-0.0,voc_e2,12290,"[{""event"":""focus"",""trial"":1,""time"":119003},{""event"":""fullscreenenter"",""trial"":1,""time"":119346},{""event"":""blur"",""trial"":8,""time"":213145},{""event"":""focus"",""trial"":8,""time"":229200}]",NA,NA,NA,NA,NA,6,#FA92F8,#1CD855,0,0,0,40,0,1549.3999996185303,39,0,378.9000005722046,0,1,experiment,NA,NA,2,0.5,0.5,5,4,75,2,NA
fcp-trial,109,848330,0.0-84.0-0.0,voc_e2,12290,"[{""event"":""focus"",""trial"":1,""time"":119003},{""event"":""fullscreenenter"",""trial"":1,""time"":119346},{""event"":""blur"",""trial"":8,""time"":213145},{""event"":""focus"",""trial"":8,""time"":229200}]",NA,NA,NA,NA,NA,1,#D8271C,#741CD8,0,0,1,38,1,1302.3000001907349,37,1,251.10000038146973,0,1,experiment,NA,NA,1,0.7,0.3,2,3,76,2,NA
fcp-trial,110,851397,0.0-85.0-0.0,voc_e2,12290,"[{""event"":""focus"",""trial"":1,""time"":119003},{""event"":""fullscreenenter"",""trial"":1,""time"":119346},{""event"":""blur"",""trial"":8,""time"":213145},{""event"":""focus"",""trial"":8,""time"":229200}]",NA,NA,NA,NA,NA,4,#1CD855,#FA92F8,0,10,1,40,0,1108.6999998092651,39,0,438.3999996185303,10,0,experiment,NA,NA,2,0.5,0.5,4,5,77,2,NA
fcp-trial,111,855241,0.0-86.0-0.0,voc_e2,12290,"[{""event"":""focus"",""trial"":1,""time"":119003},{""event"":""fullscreenenter"",""trial"":1,""time"":119346},{""event"":""blur"",""trial"":8,""time"":213145},{""event"":""focus"",""trial"":8,""time"":229200}]",NA,NA,NA,NA,NA,0,#FA92F8,#1CD855,10,0,0,40,0,1423.9000005722046,37,1,905.3000001907347,10,0,experiment,NA,NA,2,0.5,0.5,5,4,78,2,NA
fcp-trial,112,859173,0.0-87.0-0.0,voc_e2,12290,"[{""event"":""focus"",""trial"":1,""time"":119003},{""event"":""fullscreenenter"",""trial"":1,""time"":119346},{""event"":""blur"",""trial"":8,""time"":213145},{""event"":""focus"",""trial"":8,""time"":229200}]",NA,NA,NA,NA,NA,2,#3386FF,#D89F1C,0,10,0,38,1,2157.699999809265,39,0,256.5,10,1,experiment,NA,NA,0,0.1,0.9,1,0,79,2,NA
fcp-trial,113,863314,0.0-88.0-0.0,voc_e2,12290,"[{""event"":""focus"",""trial"":1,""time"":119003},{""event"":""fullscreenenter"",""trial"":1,""time"":119346},{""event"":""blur"",""trial"":8,""time"":213145},{""event"":""focus"",""trial"":8,""time"":229200}]",NA,NA,NA,NA,NA,5,#D89F1C,#3386FF,10,0,1,40,0,1694.1999998092651,37,1,925.8000001907347,10,1,experiment,NA,NA,0,0.9,0.1,0,1,80,2,NA
fcp-trial,114,866589,0.0-89.0-0.0,voc_e2,12290,"[{""event"":""focus"",""trial"":1,""time"":119003},{""event"":""fullscreenenter"",""trial"":1,""time"":119346},{""event"":""blur"",""trial"":8,""time"":213145},{""event"":""focus"",""trial"":8,""time"":229200}]",NA,NA,NA,NA,NA,0,#741CD8,#D8271C,0,0,0,38,1,1372.8000001907349,39,0,384.4000005722046,0,1,experiment,NA,NA,1,0.3,0.7,3,2,81,2,NA
fcp-trial,115,872023,0.0-90.0-0.0,voc_e2,12290,"[{""event"":""focus"",""trial"":1,""time"":119003},{""event"":""fullscreenenter"",""trial"":1,""time"":119346},{""event"":""blur"",""trial"":8,""time"":213145},{""event"":""focus"",""trial"":8,""time"":229200}]",NA,NA,NA,NA,NA,6,#D8271C,#741CD8,0,0,1,40,0,3219,37,1,692,0,1,experiment,NA,NA,1,0.7,0.3,2,3,82,2,NA
fcp-trial,116,875058,0.0-91.0-0.0,voc_e2,12290,"[{""event"":""focus"",""trial"":1,""time"":119003},{""event"":""fullscreenenter"",""trial"":1,""time"":119346},{""event"":""blur"",""trial"":8,""time"":213145},{""event"":""focus"",""trial"":8,""time"":229200}]",NA,NA,NA,NA,NA,3,#FA92F8,#1CD855,10,10,0,40,0,1108.3000001907349,37,1,408.5,10,0,experiment,NA,NA,2,0.5,0.5,5,4,83,2,NA
fcp-trial,117,878140,0.0-92.0-0.0,voc_e2,12290,"[{""event"":""focus"",""trial"":1,""time"":119003},{""event"":""fullscreenenter"",""trial"":1,""time"":119346},{""event"":""blur"",""trial"":8,""time"":213145},{""event"":""focus"",""trial"":8,""time"":229200}]",NA,NA,NA,NA,NA,0,#3386FF,#D89F1C,0,10,0,38,1,1260.5999994277954,39,0,294.19999980926514,10,1,experiment,NA,NA,0,0.1,0.9,1,0,84,2,NA
fcp-trial,118,881194,0.0-93.0-0.0,voc_e2,12290,"[{""event"":""focus"",""trial"":1,""time"":119003},{""event"":""fullscreenenter"",""trial"":1,""time"":119346},{""event"":""blur"",""trial"":8,""time"":213145},{""event"":""focus"",""trial"":8,""time"":229200}]",NA,NA,NA,NA,NA,4,#D8271C,#741CD8,0,10,1,40,0,1086.1000003814697,37,1,450.19999980926514,0,1,experiment,NA,NA,1,0.7,0.3,2,3,85,2,NA
fcp-trial,119,884626,0.0-94.0-0.0,voc_e2,12290,"[{""event"":""focus"",""trial"":1,""time"":119003},{""event"":""fullscreenenter"",""trial"":1,""time"":119346},{""event"":""blur"",""trial"":8,""time"":213145},{""event"":""focus"",""trial"":8,""time"":229200}]",NA,NA,NA,NA,NA,4,#D89F1C,#3386FF,10,0,1,40,0,1279.6000003814697,37,1,623.9000005722046,10,1,experiment,NA,NA,0,0.9,0.1,0,1,86,2,NA
fcp-trial,120,887993,0.0-95.0-0.0,voc_e2,12290,"[{""event"":""focus"",""trial"":1,""time"":119003},{""event"":""fullscreenenter"",""trial"":1,""time"":119346},{""event"":""blur"",""trial"":8,""time"":213145},{""event"":""focus"",""trial"":8,""time"":229200}]",NA,NA,NA,NA,NA,6,#D89F1C,#3386FF,10,10,1,40,0,1152.6000003814697,39,0,691,10,0,experiment,NA,NA,0,0.9,0.1,0,1,87,2,NA
fcp-trial,121,890951,0.0-96.0-0.0,voc_e2,12290,"[{""event"":""focus"",""trial"":1,""time"":119003},{""event"":""fullscreenenter"",""trial"":1,""time"":119346},{""event"":""blur"",""trial"":8,""time"":213145},{""event"":""focus"",""trial"":8,""time"":229200}]",NA,NA,NA,NA,NA,2,#741CD8,#D8271C,0,0,0,40,0,953.1999998092651,39,0,483.6000003814697,0,1,experiment,NA,NA,1,0.3,0.7,3,2,88,2,NA
fcp-trial,122,893912,0.0-97.0-0.0,voc_e2,12290,"[{""event"":""focus"",""trial"":1,""time"":119003},{""event"":""fullscreenenter"",""trial"":1,""time"":119346},{""event"":""blur"",""trial"":8,""time"":213145},{""event"":""focus"",""trial"":8,""time"":229200}]",NA,NA,NA,NA,NA,5,#D89F1C,#3386FF,10,0,1,40,0,735,39,0,710,0,0,experiment,NA,NA,0,0.9,0.1,0,1,89,2,NA
fcp-trial,123,897376,0.0-98.0-0.0,voc_e2,12290,"[{""event"":""focus"",""trial"":1,""time"":119003},{""event"":""fullscreenenter"",""trial"":1,""time"":119346},{""event"":""blur"",""trial"":8,""time"":213145},{""event"":""focus"",""trial"":8,""time"":229200}]",NA,NA,NA,NA,NA,6,#FA92F8,#1CD855,10,10,0,40,0,1294.8000001907349,37,1,637.4000005722046,10,0,experiment,NA,NA,2,0.5,0.5,5,4,90,2,NA
fcp-trial,124,900275,0.0-99.0-0.0,voc_e2,12290,"[{""event"":""focus"",""trial"":1,""time"":119003},{""event"":""fullscreenenter"",""trial"":1,""time"":119346},{""event"":""blur"",""trial"":8,""time"":213145},{""event"":""focus"",""trial"":8,""time"":229200}]",NA,NA,NA,NA,NA,1,#D8271C,#741CD8,10,0,1,38,1,1022.6999998092651,37,1,353.1000003814697,10,1,experiment,NA,NA,1,0.7,0.3,2,3,91,3,NA
fcp-trial,125,903519,0.0-100.0-0.0,voc_e2,12290,"[{""event"":""focus"",""trial"":1,""time"":119003},{""event"":""fullscreenenter"",""trial"":1,""time"":119346},{""event"":""blur"",""trial"":8,""time"":213145},{""event"":""focus"",""trial"":8,""time"":229200}]",NA,NA,NA,NA,NA,6,#741CD8,#D8271C,0,10,0,40,0,982.1999998092651,37,1,752,0,0,experiment,NA,NA,1,0.3,0.7,3,2,92,3,NA
fcp-trial,126,906357,0.0-101.0-0.0,voc_e2,12290,"[{""event"":""focus"",""trial"":1,""time"":119003},{""event"":""fullscreenenter"",""trial"":1,""time"":119346},{""event"":""blur"",""trial"":8,""time"":213145},{""event"":""focus"",""trial"":8,""time"":229200}]",NA,NA,NA,NA,NA,4,#1CD855,#FA92F8,10,10,1,40,0,999.3000001907349,39,0,327.5,10,0,experiment,NA,NA,2,0.5,0.5,4,5,93,3,NA
fcp-trial,127,910210,0.0-102.0-0.0,voc_e2,12290,"[{""event"":""focus"",""trial"":1,""time"":119003},{""event"":""fullscreenenter"",""trial"":1,""time"":119346},{""event"":""blur"",""trial"":8,""time"":213145},{""event"":""focus"",""trial"":8,""time"":229200}]",NA,NA,NA,NA,NA,2,#3386FF,#D89F1C,0,10,0,40,0,1693.6999998092651,37,1,630.3999996185303,0,0,experiment,NA,NA,0,0.1,0.9,1,0,94,3,NA
fcp-trial,128,913782,0.0-103.0-0.0,voc_e2,12290,"[{""event"":""focus"",""trial"":1,""time"":119003},{""event"":""fullscreenenter"",""trial"":1,""time"":119346},{""event"":""blur"",""trial"":8,""time"":213145},{""event"":""focus"",""trial"":8,""time"":229200}]",NA,NA,NA,NA,NA,1,#3386FF,#D89F1C,0,10,0,38,1,1270.6999998092651,39,0,784.3000001907349,10,1,experiment,NA,NA,0,0.1,0.9,1,0,95,3,NA
fcp-trial,129,917533,0.0-104.0-0.0,voc_e2,12290,"[{""event"":""focus"",""trial"":1,""time"":119003},{""event"":""fullscreenenter"",""trial"":1,""time"":119346},{""event"":""blur"",""trial"":8,""time"":213145},{""event"":""focus"",""trial"":8,""time"":229200}]",NA,NA,NA,NA,NA,5,#D8271C,#741CD8,10,0,1,40,0,1603.3999996185303,37,1,567.5999994277954,10,1,experiment,NA,NA,1,0.7,0.3,2,3,96,3,NA
fcp-trial,130,920660,0.0-105.0-0.0,voc_e2,12290,"[{""event"":""focus"",""trial"":1,""time"":119003},{""event"":""fullscreenenter"",""trial"":1,""time"":119346},{""event"":""blur"",""trial"":8,""time"":213145},{""event"":""focus"",""trial"":8,""time"":229200}]",NA,NA,NA,NA,NA,0,#D8271C,#741CD8,10,0,1,38,1,1259.5,37,1,351.4000005722046,10,1,experiment,NA,NA,1,0.7,0.3,2,3,97,3,NA
fcp-trial,131,925151,0.0-106.0-0.0,voc_e2,12290,"[{""event"":""focus"",""trial"":1,""time"":119003},{""event"":""fullscreenenter"",""trial"":1,""time"":119346},{""event"":""blur"",""trial"":8,""time"":213145},{""event"":""focus"",""trial"":8,""time"":229200}]",NA,NA,NA,NA,NA,2,#FA92F8,#1CD855,10,0,0,40,0,2246.0999994277954,37,1,727.9000005722046,10,0,experiment,NA,NA,2,0.5,0.5,5,4,98,3,NA
fcp-trial,132,928500,0.0-107.0-0.0,voc_e2,12290,"[{""event"":""focus"",""trial"":1,""time"":119003},{""event"":""fullscreenenter"",""trial"":1,""time"":119346},{""event"":""blur"",""trial"":8,""time"":213145},{""event"":""focus"",""trial"":8,""time"":229200}]",NA,NA,NA,NA,NA,5,#FA92F8,#1CD855,10,10,0,40,0,1426.2000007629395,39,0,407.6000003814697,10,1,experiment,NA,NA,2,0.5,0.5,5,4,99,3,NA
fcp-trial,133,932651,0.0-108.0-0.0,voc_e2,12290,"[{""event"":""focus"",""trial"":1,""time"":119003},{""event"":""fullscreenenter"",""trial"":1,""time"":119346},{""event"":""blur"",""trial"":8,""time"":213145},{""event"":""focus"",""trial"":8,""time"":229200}]",NA,NA,NA,NA,NA,0,#D89F1C,#3386FF,0,0,1,38,1,2353.5,37,1,283.19999980926514,0,1,experiment,NA,NA,0,0.9,0.1,0,1,100,3,NA
fcp-trial,134,935628,0.0-109.0-0.0,voc_e2,12290,"[{""event"":""focus"",""trial"":1,""time"":119003},{""event"":""fullscreenenter"",""trial"":1,""time"":119346},{""event"":""blur"",""trial"":8,""time"":213145},{""event"":""focus"",""trial"":8,""time"":229200}]",NA,NA,NA,NA,NA,3,#D89F1C,#3386FF,10,0,1,40,0,1021.6999998092651,37,1,433.69999980926514,10,1,experiment,NA,NA,0,0.9,0.1,0,1,101,3,NA
fcp-trial,135,939465,0.0-110.0-0.0,voc_e2,12290,"[{""event"":""focus"",""trial"":1,""time"":119003},{""event"":""fullscreenenter"",""trial"":1,""time"":119346},{""event"":""blur"",""trial"":8,""time"":213145},{""event"":""focus"",""trial"":8,""time"":229200}]",NA,NA,NA,NA,NA,3,#D8271C,#741CD8,10,0,1,40,0,1538.3000001907349,39,0,780.8000001907349,0,0,experiment,NA,NA,1,0.7,0.3,2,3,102,3,NA
fcp-trial,136,942779,0.0-111.0-0.0,voc_e2,12290,"[{""event"":""focus"",""trial"":1,""time"":119003},{""event"":""fullscreenenter"",""trial"":1,""time"":119346},{""event"":""blur"",""trial"":8,""time"":213145},{""event"":""focus"",""trial"":8,""time"":229200}]",NA,NA,NA,NA,NA,0,#1CD855,#FA92F8,10,10,1,38,1,1350.6000003814697,37,1,443,10,1,experiment,NA,NA,2,0.5,0.5,4,5,103,3,NA
fcp-trial,137,946244,0.0-112.0-0.0,voc_e2,12290,"[{""event"":""focus"",""trial"":1,""time"":119003},{""event"":""fullscreenenter"",""trial"":1,""time"":119346},{""event"":""blur"",""trial"":8,""time"":213145},{""event"":""focus"",""trial"":8,""time"":229200}]",NA,NA,NA,NA,NA,1,#1CD855,#FA92F8,0,0,1,38,1,1690.5,37,1,252.39999961853027,0,1,experiment,NA,NA,2,0.5,0.5,4,5,104,3,NA
fcp-trial,138,948969,0.0-113.0-0.0,voc_e2,12290,"[{""event"":""focus"",""trial"":1,""time"":119003},{""event"":""fullscreenenter"",""trial"":1,""time"":119346},{""event"":""blur"",""trial"":8,""time"":213145},{""event"":""focus"",""trial"":8,""time"":229200}]",NA,NA,NA,NA,NA,3,#1CD855,#FA92F8,10,0,1,38,1,952.7999992370605,39,0,253.60000038146973,0,0,experiment,NA,NA,2,0.5,0.5,4,5,105,3,NA
audio-instructions,139,980748,0.0-114.0,voc_e2,12290,"[{""event"":""focus"",""trial"":1,""time"":119003},{""event"":""fullscreenenter"",""trial"":1,""time"":119346},{""event"":""blur"",""trial"":8,""time"":213145},{""event"":""focus"",""trial"":8,""time"":229200}]",NA,26521,static/audio/pause.wav,NA,0,NA,NA,NA,NA,NA,NA,NA,NA,NA,NA,NA,NA,NA,NA,NA,NA,NA,NA,NA,NA,NA,NA,NA,NA,NA
fcp-trial,140,985350,0.0-115.0-0.0,voc_e2,12290,"[{""event"":""focus"",""trial"":1,""time"":119003},{""event"":""fullscreenenter"",""trial"":1,""time"":119346},{""event"":""blur"",""trial"":8,""time"":213145},{""event"":""focus"",""trial"":8,""time"":229200}]",NA,NA,NA,NA,NA,2,#D89F1C,#3386FF,10,0,1,40,0,2502.800000190735,37,1,582.5,10,1,experiment,NA,NA,0,0.9,0.1,0,1,106,3,NA
fcp-trial,141,989458,0.0-116.0-0.0,voc_e2,12290,"[{""event"":""focus"",""trial"":1,""time"":119003},{""event"":""fullscreenenter"",""trial"":1,""time"":119346},{""event"":""blur"",""trial"":8,""time"":213145},{""event"":""focus"",""trial"":8,""time"":229200}]",NA,NA,NA,NA,NA,1,#1CD855,#FA92F8,0,0,1,40,0,2025.6000003814697,39,0,566.3000001907349,0,0,experiment,NA,NA,2,0.5,0.5,4,5,107,3,NA
fcp-trial,142,992635,0.0-117.0-0.0,voc_e2,12290,"[{""event"":""focus"",""trial"":1,""time"":119003},{""event"":""fullscreenenter"",""trial"":1,""time"":119346},{""event"":""blur"",""trial"":8,""time"":213145},{""event"":""focus"",""trial"":8,""time"":229200}]",NA,NA,NA,NA,NA,4,#D8271C,#741CD8,10,10,1,40,0,1120.2999992370605,39,0,542.8999996185303,10,0,experiment,NA,NA,1,0.7,0.3,2,3,108,3,NA
fcp-trial,143,995599,0.0-118.0-0.0,voc_e2,12290,"[{""event"":""focus"",""trial"":1,""time"":119003},{""event"":""fullscreenenter"",""trial"":1,""time"":119346},{""event"":""blur"",""trial"":8,""time"":213145},{""event"":""focus"",""trial"":8,""time"":229200}]",NA,NA,NA,NA,NA,3,#3386FF,#D89F1C,0,0,0,40,0,923,39,0,522.3999996185303,0,1,experiment,NA,NA,0,0.1,0.9,1,0,109,3,NA
fcp-trial,144,998701,0.0-119.0-0.0,voc_e2,12290,"[{""event"":""focus"",""trial"":1,""time"":119003},{""event"":""fullscreenenter"",""trial"":1,""time"":119346},{""event"":""blur"",""trial"":8,""time"":213145},{""event"":""focus"",""trial"":8,""time"":229200}]",NA,NA,NA,NA,NA,5,#FA92F8,#1CD855,0,10,0,40,0,842.3000001907349,39,0,738.8999996185303,10,1,experiment,NA,NA,2,0.5,0.5,5,4,110,3,NA
fcp-trial,145,1001666,0.0-120.0-0.0,voc_e2,12290,"[{""event"":""focus"",""trial"":1,""time"":119003},{""event"":""fullscreenenter"",""trial"":1,""time"":119346},{""event"":""blur"",""trial"":8,""time"":213145},{""event"":""focus"",""trial"":8,""time"":229200}]",NA,NA,NA,NA,NA,6,#1CD855,#FA92F8,0,10,1,40,0,946.8999996185303,37,1,494.5999994277954,0,1,experiment,NA,NA,2,0.5,0.5,4,5,111,3,NA
fcp-trial,146,1005052,0.0-121.0-0.0,voc_e2,12290,"[{""event"":""focus"",""trial"":1,""time"":119003},{""event"":""fullscreenenter"",""trial"":1,""time"":119346},{""event"":""blur"",""trial"":8,""time"":213145},{""event"":""focus"",""trial"":8,""time"":229200}]",NA,NA,NA,NA,NA,6,#3386FF,#D89F1C,0,10,0,40,0,1210.6000003814697,37,1,651.1999998092651,0,0,experiment,NA,NA,0,0.1,0.9,1,0,112,3,NA
fcp-trial,147,1008969,0.0-122.0-0.0,voc_e2,12290,"[{""event"":""focus"",""trial"":1,""time"":119003},{""event"":""fullscreenenter"",""trial"":1,""time"":119346},{""event"":""blur"",""trial"":8,""time"":213145},{""event"":""focus"",""trial"":8,""time"":229200}]",NA,NA,NA,NA,NA,3,#741CD8,#D8271C,0,0,0,40,0,1572.0999994277954,37,1,826.9000005722046,0,0,experiment,NA,NA,1,0.3,0.7,3,2,113,3,NA
fcp-trial,148,1011784,0.0-123.0-0.0,voc_e2,12290,"[{""event"":""focus"",""trial"":1,""time"":119003},{""event"":""fullscreenenter"",""trial"":1,""time"":119346},{""event"":""blur"",""trial"":8,""time"":213145},{""event"":""focus"",""trial"":8,""time"":229200}]",NA,NA,NA,NA,NA,3,#1CD855,#FA92F8,0,10,1,38,1,725.1000003814697,37,1,556.3000001907349,0,1,experiment,NA,NA,2,0.5,0.5,4,5,114,3,NA
fcp-trial,149,1015323,0.0-124.0-0.0,voc_e2,12290,"[{""event"":""focus"",""trial"":1,""time"":119003},{""event"":""fullscreenenter"",""trial"":1,""time"":119346},{""event"":""blur"",""trial"":8,""time"":213145},{""event"":""focus"",""trial"":8,""time"":229200}]",NA,NA,NA,NA,NA,4,#1CD855,#FA92F8,0,10,1,40,0,1414.5,39,0,601.7000007629395,10,0,experiment,NA,NA,2,0.5,0.5,4,5,115,3,NA
fcp-trial,150,1018863,0.0-125.0-0.0,voc_e2,12290,"[{""event"":""focus"",""trial"":1,""time"":119003},{""event"":""fullscreenenter"",""trial"":1,""time"":119346},{""event"":""blur"",""trial"":8,""time"":213145},{""event"":""focus"",""trial"":8,""time"":229200}]",NA,NA,NA,NA,NA,1,#3386FF,#D89F1C,0,10,0,40,0,1226.8999996185303,39,0,795.2000007629395,10,1,experiment,NA,NA,0,0.1,0.9,1,0,116,3,NA
fcp-trial,151,1021970,0.0-126.0-0.0,voc_e2,12290,"[{""event"":""focus"",""trial"":1,""time"":119003},{""event"":""fullscreenenter"",""trial"":1,""time"":119346},{""event"":""blur"",""trial"":8,""time"":213145},{""event"":""focus"",""trial"":8,""time"":229200}]",NA,NA,NA,NA,NA,0,#741CD8,#D8271C,0,10,0,38,1,1085.0999994277954,39,0,499.4000005722046,10,1,experiment,NA,NA,1,0.3,0.7,3,2,117,3,NA
fcp-trial,152,1026418,0.0-127.0-0.0,voc_e2,12290,"[{""event"":""focus"",""trial"":1,""time"":119003},{""event"":""fullscreenenter"",""trial"":1,""time"":119346},{""event"":""blur"",""trial"":8,""time"":213145},{""event"":""focus"",""trial"":8,""time"":229200}]",NA,NA,NA,NA,NA,0,#1CD855,#FA92F8,0,10,1,40,0,2327,39,0,606.1999998092651,10,0,experiment,NA,NA,2,0.5,0.5,4,5,118,3,NA
fcp-trial,153,1029823,0.0-128.0-0.0,voc_e2,12290,"[{""event"":""focus"",""trial"":1,""time"":119003},{""event"":""fullscreenenter"",""trial"":1,""time"":119346},{""event"":""blur"",""trial"":8,""time"":213145},{""event"":""focus"",""trial"":8,""time"":229200}]",NA,NA,NA,NA,NA,5,#3386FF,#D89F1C,0,10,0,40,0,1283.7000007629395,39,0,602.0999994277954,10,1,experiment,NA,NA,0,0.1,0.9,1,0,119,3,NA
fcp-trial,154,1033074,0.0-129.0-0.0,voc_e2,12290,"[{""event"":""focus"",""trial"":1,""time"":119003},{""event"":""fullscreenenter"",""trial"":1,""time"":119346},{""event"":""blur"",""trial"":8,""time"":213145},{""event"":""focus"",""trial"":8,""time"":229200}]",NA,NA,NA,NA,NA,0,#D89F1C,#3386FF,10,0,1,38,1,1199.8000001907349,37,1,534.5999994277954,10,1,experiment,NA,NA,0,0.9,0.1,0,1,120,3,NA
fcp-trial,155,1036393,0.0-130.0-0.0,voc_e2,12290,"[{""event"":""focus"",""trial"":1,""time"":119003},{""event"":""fullscreenenter"",""trial"":1,""time"":119346},{""event"":""blur"",""trial"":8,""time"":213145},{""event"":""focus"",""trial"":8,""time"":229200}]",NA,NA,NA,NA,NA,6,#D8271C,#741CD8,10,10,1,40,0,1199.5,39,0,602.1999998092651,10,0,experiment,NA,NA,1,0.7,0.3,2,3,121,3,NA
fcp-trial,156,1039419,0.0-131.0-0.0,voc_e2,12290,"[{""event"":""focus"",""trial"":1,""time"":119003},{""event"":""fullscreenenter"",""trial"":1,""time"":119346},{""event"":""blur"",""trial"":8,""time"":213145},{""event"":""focus"",""trial"":8,""time"":229200}]",NA,NA,NA,NA,NA,5,#741CD8,#D8271C,0,0,0,38,1,1031.8000001907349,39,0,478.80000019073486,0,1,experiment,NA,NA,1,0.3,0.7,3,2,122,3,NA
fcp-trial,157,1042685,0.0-132.0-0.0,voc_e2,12290,"[{""event"":""focus"",""trial"":1,""time"":119003},{""event"":""fullscreenenter"",""trial"":1,""time"":119346},{""event"":""blur"",""trial"":8,""time"":213145},{""event"":""focus"",""trial"":8,""time"":229200}]",NA,NA,NA,NA,NA,2,#FA92F8,#1CD855,0,10,0,40,0,1130.8999996185303,37,1,621.8999996185303,0,0,experiment,NA,NA,2,0.5,0.5,5,4,123,3,NA
fcp-trial,158,1046778,0.0-133.0-0.0,voc_e2,12290,"[{""event"":""focus"",""trial"":1,""time"":119003},{""event"":""fullscreenenter"",""trial"":1,""time"":119346},{""event"":""blur"",""trial"":8,""time"":213145},{""event"":""focus"",""trial"":8,""time"":229200}]",NA,NA,NA,NA,NA,1,#741CD8,#D8271C,0,0,0,38,1,2277.5,39,0,287.80000019073486,0,1,experiment,NA,NA,1,0.3,0.7,3,2,124,3,NA
fcp-trial,159,1050325,0.0-134.0-0.0,voc_e2,12290,"[{""event"":""focus"",""trial"":1,""time"":119003},{""event"":""fullscreenenter"",""trial"":1,""time"":119346},{""event"":""blur"",""trial"":8,""time"":213145},{""event"":""focus"",""trial"":8,""time"":229200}]",NA,NA,NA,NA,NA,4,#D89F1C,#3386FF,10,0,1,38,1,1232.4000005722046,37,1,803.6000003814697,10,1,experiment,NA,NA,0,0.9,0.1,0,1,125,3,NA
fcp-trial,160,1053718,0.0-135.0-0.0,voc_e2,12290,"[{""event"":""focus"",""trial"":1,""time"":119003},{""event"":""fullscreenenter"",""trial"":1,""time"":119346},{""event"":""blur"",""trial"":8,""time"":213145},{""event"":""focus"",""trial"":8,""time"":229200}]",NA,NA,NA,NA,NA,2,#D8271C,#741CD8,10,0,1,40,0,1174.7999992370605,39,0,699.5,0,0,experiment,NA,NA,1,0.7,0.3,2,3,126,3,NA
fcp-trial,161,1057405,0.0-136.0-0.0,voc_e2,12290,"[{""event"":""focus"",""trial"":1,""time"":119003},{""event"":""fullscreenenter"",""trial"":1,""time"":119346},{""event"":""blur"",""trial"":8,""time"":213145},{""event"":""focus"",""trial"":8,""time"":229200}]",NA,NA,NA,NA,NA,3,#741CD8,#D8271C,0,0,0,38,1,1318.3000001907349,39,0,845.1000003814697,0,1,experiment,NA,NA,1,0.3,0.7,3,2,127,3,NA
fcp-trial,162,1061092,0.0-137.0-0.0,voc_e2,12290,"[{""event"":""focus"",""trial"":1,""time"":119003},{""event"":""fullscreenenter"",""trial"":1,""time"":119346},{""event"":""blur"",""trial"":8,""time"":213145},{""event"":""focus"",""trial"":8,""time"":229200}]",NA,NA,NA,NA,NA,6,#3386FF,#D89F1C,0,10,0,40,0,1343.4000005722046,39,0,816.7000007629395,10,1,experiment,NA,NA,0,0.1,0.9,1,0,128,3,NA
fcp-trial,163,1064039,0.0-138.0-0.0,voc_e2,12290,"[{""event"":""focus"",""trial"":1,""time"":119003},{""event"":""fullscreenenter"",""trial"":1,""time"":119346},{""event"":""blur"",""trial"":8,""time"":213145},{""event"":""focus"",""trial"":8,""time"":229200}]",NA,NA,NA,NA,NA,2,#3386FF,#D89F1C,0,10,0,38,1,959.1999998092651,39,0,471.3999996185303,10,1,experiment,NA,NA,0,0.1,0.9,1,0,129,3,NA
fcp-trial,164,1068198,0.0-139.0-0.0,voc_e2,12290,"[{""event"":""focus"",""trial"":1,""time"":119003},{""event"":""fullscreenenter"",""trial"":1,""time"":119346},{""event"":""blur"",""trial"":8,""time"":213145},{""event"":""focus"",""trial"":8,""time"":229200}]",NA,NA,NA,NA,NA,0,#1CD855,#FA92F8,0,10,1,38,1,1992.6000003814697,39,0,642.3000001907349,10,0,experiment,NA,NA,2,0.5,0.5,4,5,130,3,NA
fcp-trial,165,1071703,0.0-140.0-0.0,voc_e2,12290,"[{""event"":""focus"",""trial"":1,""time"":119003},{""event"":""fullscreenenter"",""trial"":1,""time"":119346},{""event"":""blur"",""trial"":8,""time"":213145},{""event"":""focus"",""trial"":8,""time"":229200}]",NA,NA,NA,NA,NA,1,#FA92F8,#1CD855,0,0,0,38,1,1682.1000003814697,39,0,307.5999994277954,0,1,experiment,NA,NA,2,0.5,0.5,5,4,131,3,NA
fcp-trial,166,1075909,0.0-141.0-0.0,voc_e2,12290,"[{""event"":""focus"",""trial"":1,""time"":119003},{""event"":""fullscreenenter"",""trial"":1,""time"":119346},{""event"":""blur"",""trial"":8,""time"":213145},{""event"":""focus"",""trial"":8,""time"":229200}]",NA,NA,NA,NA,NA,1,#D8271C,#741CD8,10,0,1,38,1,1521.6999998092651,37,1,1164.8000001907349,10,1,experiment,NA,NA,1,0.7,0.3,2,3,132,3,NA
fcp-trial,167,1079839,0.0-142.0-0.0,voc_e2,12290,"[{""event"":""focus"",""trial"":1,""time"":119003},{""event"":""fullscreenenter"",""trial"":1,""time"":119346},{""event"":""blur"",""trial"":8,""time"":213145},{""event"":""focus"",""trial"":8,""time"":229200}]",NA,NA,NA,NA,NA,5,#D89F1C,#3386FF,10,0,1,38,1,2010.5999994277954,37,1,399,10,1,experiment,NA,NA,0,0.9,0.1,0,1,133,3,NA
fcp-trial,168,1083543,0.0-143.0-0.0,voc_e2,12290,"[{""event"":""focus"",""trial"":1,""time"":119003},{""event"":""fullscreenenter"",""trial"":1,""time"":119346},{""event"":""blur"",""trial"":8,""time"":213145},{""event"":""focus"",""trial"":8,""time"":229200}]",NA,NA,NA,NA,NA,2,#1CD855,#FA92F8,10,0,1,40,0,1557.3999996185303,39,0,629.3999996185303,0,0,experiment,NA,NA,2,0.5,0.5,4,5,134,3,NA
fcp-trial,169,1089289,0.0-144.0-0.0,voc_e2,12290,"[{""event"":""focus"",""trial"":1,""time"":119003},{""event"":""fullscreenenter"",""trial"":1,""time"":119346},{""event"":""blur"",""trial"":8,""time"":213145},{""event"":""focus"",""trial"":8,""time"":229200}]",NA,NA,NA,NA,NA,6,#1CD855,#FA92F8,10,10,1,40,0,2935.5,39,0,1285.1999998092651,10,0,experiment,NA,NA,2,0.5,0.5,4,5,135,3,NA
fcp-trial,170,1095357,0.0-145.0-0.0,voc_e2,12290,"[{""event"":""focus"",""trial"":1,""time"":119003},{""event"":""fullscreenenter"",""trial"":1,""time"":119346},{""event"":""blur"",""trial"":8,""time"":213145},{""event"":""focus"",""trial"":8,""time"":229200}]",NA,NA,NA,NA,NA,6,#741CD8,#D8271C,0,0,0,40,0,3384.199999809265,37,1,1164.5,0,0,experiment,NA,NA,1,0.3,0.7,3,2,136,4,NA
fcp-trial,171,1099132,0.0-146.0-0.0,voc_e2,12290,"[{""event"":""focus"",""trial"":1,""time"":119003},{""event"":""fullscreenenter"",""trial"":1,""time"":119346},{""event"":""blur"",""trial"":8,""time"":213145},{""event"":""focus"",""trial"":8,""time"":229200}]",NA,NA,NA,NA,NA,4,#1CD855,#FA92F8,0,10,1,40,0,1182.5999994277954,37,1,1081.8000001907349,0,1,experiment,NA,NA,2,0.5,0.5,4,5,137,4,NA
fcp-trial,172,1102338,0.0-147.0-0.0,voc_e2,12290,"[{""event"":""focus"",""trial"":1,""time"":119003},{""event"":""fullscreenenter"",""trial"":1,""time"":119346},{""event"":""blur"",""trial"":8,""time"":213145},{""event"":""focus"",""trial"":8,""time"":229200}]",NA,NA,NA,NA,NA,3,#D89F1C,#3386FF,0,0,1,38,1,1239.9000005722046,37,1,441.30000019073486,0,1,experiment,NA,NA,0,0.9,0.1,0,1,138,4,NA
fcp-trial,173,1105672,0.0-148.0-0.0,voc_e2,12290,"[{""event"":""focus"",""trial"":1,""time"":119003},{""event"":""fullscreenenter"",""trial"":1,""time"":119346},{""event"":""blur"",""trial"":8,""time"":213145},{""event"":""focus"",""trial"":8,""time"":229200}]",NA,NA,NA,NA,NA,3,#FA92F8,#1CD855,10,0,0,40,0,1039.8999996185303,37,1,766.5,10,0,experiment,NA,NA,2,0.5,0.5,5,4,139,4,NA
fcp-trial,174,1108438,0.0-149.0-0.0,voc_e2,12290,"[{""event"":""focus"",""trial"":1,""time"":119003},{""event"":""fullscreenenter"",""trial"":1,""time"":119346},{""event"":""blur"",""trial"":8,""time"":213145},{""event"":""focus"",""trial"":8,""time"":229200}]",NA,NA,NA,NA,NA,0,#D89F1C,#3386FF,10,10,1,38,1,910.6999998092651,37,1,333.80000019073486,10,1,experiment,NA,NA,0,0.9,0.1,0,1,140,4,NA
fcp-trial,175,1111404,0.0-150.0-0.0,voc_e2,12290,"[{""event"":""focus"",""trial"":1,""time"":119003},{""event"":""fullscreenenter"",""trial"":1,""time"":119346},{""event"":""blur"",""trial"":8,""time"":213145},{""event"":""focus"",""trial"":8,""time"":229200}]",NA,NA,NA,NA,NA,5,#D8271C,#741CD8,10,0,1,40,0,858.2000007629395,39,0,594.0999994277954,0,0,experiment,NA,NA,1,0.7,0.3,2,3,141,4,NA
fcp-trial,176,1114288,0.0-151.0-0.0,voc_e2,12290,"[{""event"":""focus"",""trial"":1,""time"":119003},{""event"":""fullscreenenter"",""trial"":1,""time"":119346},{""event"":""blur"",""trial"":8,""time"":213145},{""event"":""focus"",""trial"":8,""time"":229200}]",NA,NA,NA,NA,NA,2,#D8271C,#741CD8,0,10,1,38,1,1012.6999998092651,37,1,356.69999980926514,0,1,experiment,NA,NA,1,0.7,0.3,2,3,142,4,NA
fcp-trial,177,1118025,0.0-152.0-0.0,voc_e2,12290,"[{""event"":""focus"",""trial"":1,""time"":119003},{""event"":""fullscreenenter"",""trial"":1,""time"":119346},{""event"":""blur"",""trial"":8,""time"":213145},{""event"":""focus"",""trial"":8,""time"":229200}]",NA,NA,NA,NA,NA,1,#3386FF,#D89F1C,0,10,0,38,1,1956.1000003814697,39,0,254.6999998092651,10,1,experiment,NA,NA,0,0.1,0.9,1,0,143,4,NA
fcp-trial,178,1121879,0.0-153.0-0.0,voc_e2,12290,"[{""event"":""focus"",""trial"":1,""time"":119003},{""event"":""fullscreenenter"",""trial"":1,""time"":119346},{""event"":""blur"",""trial"":8,""time"":213145},{""event"":""focus"",""trial"":8,""time"":229200}]",NA,NA,NA,NA,NA,5,#1CD855,#FA92F8,10,0,1,40,0,1518.6000003814697,39,0,812.1000003814697,0,0,experiment,NA,NA,2,0.5,0.5,4,5,144,4,NA
fcp-trial,179,1125407,0.0-154.0-0.0,voc_e2,12290,"[{""event"":""focus"",""trial"":1,""time"":119003},{""event"":""fullscreenenter"",""trial"":1,""time"":119346},{""event"":""blur"",""trial"":8,""time"":213145},{""event"":""focus"",""trial"":8,""time"":229200}]",NA,NA,NA,NA,NA,4,#3386FF,#D89F1C,0,10,0,40,0,1043.5,37,1,966.6999998092653,0,0,experiment,NA,NA,0,0.1,0.9,1,0,145,4,NA
fcp-trial,180,1129159,0.0-155.0-0.0,voc_e2,12290,"[{""event"":""focus"",""trial"":1,""time"":119003},{""event"":""fullscreenenter"",""trial"":1,""time"":119346},{""event"":""blur"",""trial"":8,""time"":213145},{""event"":""focus"",""trial"":8,""time"":229200}]",NA,NA,NA,NA,NA,0,#D8271C,#741CD8,10,0,1,38,1,1863.1000003814697,37,1,367,10,1,experiment,NA,NA,1,0.7,0.3,2,3,146,4,NA
fcp-trial,181,1132957,0.0-156.0-0.0,voc_e2,12290,"[{""event"":""focus"",""trial"":1,""time"":119003},{""event"":""fullscreenenter"",""trial"":1,""time"":119346},{""event"":""blur"",""trial"":8,""time"":213145},{""event"":""focus"",""trial"":8,""time"":229200}]",NA,NA,NA,NA,NA,4,#741CD8,#D8271C,0,10,0,40,0,1375.1999998092651,37,1,895.1000003814697,0,0,experiment,NA,NA,1,0.3,0.7,3,2,147,4,NA
fcp-trial,182,1135907,0.0-157.0-0.0,voc_e2,12290,"[{""event"":""focus"",""trial"":1,""time"":119003},{""event"":""fullscreenenter"",""trial"":1,""time"":119346},{""event"":""blur"",""trial"":8,""time"":213145},{""event"":""focus"",""trial"":8,""time"":229200}]",NA,NA,NA,NA,NA,4,#D8271C,#741CD8,10,0,1,40,0,893.8000001907349,37,1,526.5999994277954,10,1,experiment,NA,NA,1,0.7,0.3,2,3,148,4,NA
fcp-trial,183,1138710,0.0-158.0-0.0,voc_e2,12290,"[{""event"":""focus"",""trial"":1,""time"":119003},{""event"":""fullscreenenter"",""trial"":1,""time"":119346},{""event"":""blur"",""trial"":8,""time"":213145},{""event"":""focus"",""trial"":8,""time"":229200}]",NA,NA,NA,NA,NA,6,#1CD855,#FA92F8,10,0,1,40,0,794,39,0,491.4000005722046,0,0,experiment,NA,NA,2,0.5,0.5,4,5,149,4,NA
fcp-trial,184,1141980,0.0-159.0-0.0,voc_e2,12290,"[{""event"":""focus"",""trial"":1,""time"":119003},{""event"":""fullscreenenter"",""trial"":1,""time"":119346},{""event"":""blur"",""trial"":8,""time"":213145},{""event"":""focus"",""trial"":8,""time"":229200}]",NA,NA,NA,NA,NA,5,#3386FF,#D89F1C,0,10,0,40,0,1207.5,39,0,542.4000005722046,10,1,experiment,NA,NA,0,0.1,0.9,1,0,150,4,NA
fcp-trial,185,1148541,0.0-160.0-0.0,voc_e2,12290,"[{""event"":""focus"",""trial"":1,""time"":119003},{""event"":""fullscreenenter"",""trial"":1,""time"":119346},{""event"":""blur"",""trial"":8,""time"":213145},{""event"":""focus"",""trial"":8,""time"":229200}]",NA,NA,NA,NA,NA,6,#D8271C,#741CD8,10,0,1,40,0,4071.8999996185303,37,1,970.3000001907347,10,1,experiment,NA,NA,1,0.7,0.3,2,3,151,4,NA
fcp-trial,186,1153242,0.0-161.0-0.0,voc_e2,12290,"[{""event"":""focus"",""trial"":1,""time"":119003},{""event"":""fullscreenenter"",""trial"":1,""time"":119346},{""event"":""blur"",""trial"":8,""time"":213145},{""event"":""focus"",""trial"":8,""time"":229200}]",NA,NA,NA,NA,NA,0,#1CD855,#FA92F8,0,10,1,38,1,2249.5,39,0,925.0999994277954,10,0,experiment,NA,NA,2,0.5,0.5,4,5,152,4,NA
fcp-trial,187,1156991,0.0-162.0-0.0,voc_e2,12290,"[{""event"":""focus"",""trial"":1,""time"":119003},{""event"":""fullscreenenter"",""trial"":1,""time"":119346},{""event"":""blur"",""trial"":8,""time"":213145},{""event"":""focus"",""trial"":8,""time"":229200}]",NA,NA,NA,NA,NA,0,#3386FF,#D89F1C,0,10,0,38,1,1193.3000001907349,39,0,1031.0999994277954,10,1,experiment,NA,NA,0,0.1,0.9,1,0,153,4,NA
fcp-trial,188,1161281,0.0-163.0-0.0,voc_e2,12290,"[{""event"":""focus"",""trial"":1,""time"":119003},{""event"":""fullscreenenter"",""trial"":1,""time"":119346},{""event"":""blur"",""trial"":8,""time"":213145},{""event"":""focus"",""trial"":8,""time"":229200}]",NA,NA,NA,NA,NA,3,#FA92F8,#1CD855,0,0,0,40,0,1875,37,1,900.3999996185303,0,0,experiment,NA,NA,2,0.5,0.5,5,4,154,4,NA
fcp-trial,189,1164091,0.0-164.0-0.0,voc_e2,12290,"[{""event"":""focus"",""trial"":1,""time"":119003},{""event"":""fullscreenenter"",""trial"":1,""time"":119346},{""event"":""blur"",""trial"":8,""time"":213145},{""event"":""focus"",""trial"":8,""time"":229200}]",NA,NA,NA,NA,NA,5,#D8271C,#741CD8,0,0,1,40,0,726.5,37,1,566.3000001907349,0,1,experiment,NA,NA,1,0.7,0.3,2,3,155,4,NA
fcp-trial,190,1167694,0.0-165.0-0.0,voc_e2,12290,"[{""event"":""focus"",""trial"":1,""time"":119003},{""event"":""fullscreenenter"",""trial"":1,""time"":119346},{""event"":""blur"",""trial"":8,""time"":213145},{""event"":""focus"",""trial"":8,""time"":229200}]",NA,NA,NA,NA,NA,1,#D89F1C,#3386FF,10,0,1,38,1,1296,37,1,778,10,1,experiment,NA,NA,0,0.9,0.1,0,1,156,4,NA
fcp-trial,191,1171028,0.0-166.0-0.0,voc_e2,12290,"[{""event"":""focus"",""trial"":1,""time"":119003},{""event"":""fullscreenenter"",""trial"":1,""time"":119346},{""event"":""blur"",""trial"":8,""time"":213145},{""event"":""focus"",""trial"":8,""time"":229200}]",NA,NA,NA,NA,NA,1,#1CD855,#FA92F8,10,10,1,38,1,744.5,37,1,1065.6999998092651,10,1,experiment,NA,NA,2,0.5,0.5,4,5,157,4,NA
fcp-trial,192,1173776,0.0-167.0-0.0,voc_e2,12290,"[{""event"":""focus"",""trial"":1,""time"":119003},{""event"":""fullscreenenter"",""trial"":1,""time"":119346},{""event"":""blur"",""trial"":8,""time"":213145},{""event"":""focus"",""trial"":8,""time"":229200}]",NA,NA,NA,NA,NA,1,#D8271C,#741CD8,10,0,1,38,1,874.8000001907349,37,1,344.5999994277954,10,1,experiment,NA,NA,1,0.7,0.3,2,3,158,4,NA
fcp-trial,193,1177129,0.0-168.0-0.0,voc_e2,12290,"[{""event"":""focus"",""trial"":1,""time"":119003},{""event"":""fullscreenenter"",""trial"":1,""time"":119346},{""event"":""blur"",""trial"":8,""time"":213145},{""event"":""focus"",""trial"":8,""time"":229200}]",NA,NA,NA,NA,NA,6,#3386FF,#D89F1C,0,0,0,40,0,950,37,1,873.6000003814697,0,0,experiment,NA,NA,0,0.1,0.9,1,0,159,4,NA
fcp-trial,194,1182278,0.0-169.0-0.0,voc_e2,12290,"[{""event"":""focus"",""trial"":1,""time"":119003},{""event"":""fullscreenenter"",""trial"":1,""time"":119346},{""event"":""blur"",""trial"":8,""time"":213145},{""event"":""focus"",""trial"":8,""time"":229200}]",NA,NA,NA,NA,NA,4,#FA92F8,#1CD855,0,10,0,38,1,1867.9000005722046,37,1,1751.1000003814695,0,0,experiment,NA,NA,2,0.5,0.5,5,4,160,4,NA
fcp-trial,195,1186139,0.0-170.0-0.0,voc_e2,12290,"[{""event"":""focus"",""trial"":1,""time"":119003},{""event"":""fullscreenenter"",""trial"":1,""time"":119346},{""event"":""blur"",""trial"":8,""time"":213145},{""event"":""focus"",""trial"":8,""time"":229200}]",NA,NA,NA,NA,NA,3,#741CD8,#D8271C,0,10,0,40,0,1528.9000005722046,37,1,812.1999998092651,0,0,experiment,NA,NA,1,0.3,0.7,3,2,161,4,NA
fcp-trial,196,1190446,0.0-171.0-0.0,voc_e2,12290,"[{""event"":""focus"",""trial"":1,""time"":119003},{""event"":""fullscreenenter"",""trial"":1,""time"":119346},{""event"":""blur"",""trial"":8,""time"":213145},{""event"":""focus"",""trial"":8,""time"":229200}]",NA,NA,NA,NA,NA,4,#D89F1C,#3386FF,10,10,1,38,1,2013.5,37,1,770,10,1,experiment,NA,NA,0,0.9,0.1,0,1,162,4,NA
fcp-trial,197,1193783,0.0-172.0-0.0,voc_e2,12290,"[{""event"":""focus"",""trial"":1,""time"":119003},{""event"":""fullscreenenter"",""trial"":1,""time"":119346},{""event"":""blur"",""trial"":8,""time"":213145},{""event"":""focus"",""trial"":8,""time"":229200}]",NA,NA,NA,NA,NA,2,#D8271C,#741CD8,10,0,1,40,0,1234.6000003814697,39,0,582.5,0,0,experiment,NA,NA,1,0.7,0.3,2,3,163,4,NA
fcp-trial,198,1196626,0.0-173.0-0.0,voc_e2,12290,"[{""event"":""focus"",""trial"":1,""time"":119003},{""event"":""fullscreenenter"",""trial"":1,""time"":119346},{""event"":""blur"",""trial"":8,""time"":213145},{""event"":""focus"",""trial"":8,""time"":229200}]",NA,NA,NA,NA,NA,2,#D89F1C,#3386FF,10,0,1,38,1,1042.5999994277954,37,1,287.0999994277954,10,1,experiment,NA,NA,0,0.9,0.1,0,1,164,4,NA
fcp-trial,199,1199214,0.0-174.0-0.0,voc_e2,12290,"[{""event"":""focus"",""trial"":1,""time"":119003},{""event"":""fullscreenenter"",""trial"":1,""time"":119346},{""event"":""blur"",""trial"":8,""time"":213145},{""event"":""focus"",""trial"":8,""time"":229200}]",NA,NA,NA,NA,NA,5,#FA92F8,#1CD855,10,0,0,40,0,591.6999998092651,37,1,479.30000019073486,10,0,experiment,NA,NA,2,0.5,0.5,5,4,165,4,NA
fcp-trial,200,1204294,0.0-175.0-0.0,voc_e2,12290,"[{""event"":""focus"",""trial"":1,""time"":119003},{""event"":""fullscreenenter"",""trial"":1,""time"":119346},{""event"":""blur"",""trial"":8,""time"":213145},{""event"":""focus"",""trial"":8,""time"":229200}]",NA,NA,NA,NA,NA,0,#D8271C,#741CD8,0,0,1,38,1,1377.3000001907349,37,1,2173.800000190735,0,1,experiment,NA,NA,1,0.7,0.3,2,3,166,4,NA
fcp-trial,201,1207214,0.0-176.0-0.0,voc_e2,12290,"[{""event"":""focus"",""trial"":1,""time"":119003},{""event"":""fullscreenenter"",""trial"":1,""time"":119346},{""event"":""blur"",""trial"":8,""time"":213145},{""event"":""focus"",""trial"":8,""time"":229200}]",NA,NA,NA,NA,NA,3,#3386FF,#D89F1C,10,0,0,38,1,1078.2999992370605,39,0,324.5,0,1,experiment,NA,NA,0,0.1,0.9,1,0,167,4,NA
fcp-trial,202,1210544,0.0-177.0-0.0,voc_e2,12290,"[{""event"":""focus"",""trial"":1,""time"":119003},{""event"":""fullscreenenter"",""trial"":1,""time"":119346},{""event"":""blur"",""trial"":8,""time"":213145},{""event"":""focus"",""trial"":8,""time"":229200}]",NA,NA,NA,NA,NA,2,#FA92F8,#1CD855,10,0,0,40,0,1337.5,37,1,468.0999994277954,10,0,experiment,NA,NA,2,0.5,0.5,5,4,168,4,NA
fcp-trial,203,1214429,0.0-178.0-0.0,voc_e2,12290,"[{""event"":""focus"",""trial"":1,""time"":119003},{""event"":""fullscreenenter"",""trial"":1,""time"":119346},{""event"":""blur"",""trial"":8,""time"":213145},{""event"":""focus"",""trial"":8,""time"":229200}]",NA,NA,NA,NA,NA,4,#D8271C,#741CD8,10,0,1,40,0,1844.0999994277954,39,0,515,0,0,experiment,NA,NA,1,0.7,0.3,2,3,169,4,NA
fcp-trial,204,1217327,0.0-179.0-0.0,voc_e2,12290,"[{""event"":""focus"",""trial"":1,""time"":119003},{""event"":""fullscreenenter"",""trial"":1,""time"":119346},{""event"":""blur"",""trial"":8,""time"":213145},{""event"":""focus"",""trial"":8,""time"":229200}]",NA,NA,NA,NA,NA,0,#FA92F8,#1CD855,0,10,0,38,1,1038,37,1,333,0,0,experiment,NA,NA,2,0.5,0.5,5,4,170,4,NA
fcp-trial,205,1220028,0.0-180.0-0.0,voc_e2,12290,"[{""event"":""focus"",""trial"":1,""time"":119003},{""event"":""fullscreenenter"",""trial"":1,""time"":119346},{""event"":""blur"",""trial"":8,""time"":213145},{""event"":""focus"",""trial"":8,""time"":229200}]",NA,NA,NA,NA,NA,4,#D89F1C,#3386FF,10,0,1,38,1,899.6999998092651,37,1,275.30000019073486,10,1,experiment,NA,NA,0,0.9,0.1,0,1,171,4,NA
fcp-trial,206,1223178,0.0-181.0-0.0,voc_e2,12290,"[{""event"":""focus"",""trial"":1,""time"":119003},{""event"":""fullscreenenter"",""trial"":1,""time"":119346},{""event"":""blur"",""trial"":8,""time"":213145},{""event"":""focus"",""trial"":8,""time"":229200}]",NA,NA,NA,NA,NA,6,#1CD855,#FA92F8,10,10,1,40,0,1194.5,37,1,432.5,10,1,experiment,NA,NA,2,0.5,0.5,4,5,172,4,NA
fcp-trial,207,1226478,0.0-182.0-0.0,voc_e2,12290,"[{""event"":""focus"",""trial"":1,""time"":119003},{""event"":""fullscreenenter"",""trial"":1,""time"":119346},{""event"":""blur"",""trial"":8,""time"":213145},{""event"":""focus"",""trial"":8,""time"":229200}]",NA,NA,NA,NA,NA,3,#D8271C,#741CD8,0,0,1,38,1,947,37,1,828.8999996185303,0,1,experiment,NA,NA,1,0.7,0.3,2,3,173,4,NA
fcp-trial,208,1229294,0.0-183.0-0.0,voc_e2,12290,"[{""event"":""focus"",""trial"":1,""time"":119003},{""event"":""fullscreenenter"",""trial"":1,""time"":119346},{""event"":""blur"",""trial"":8,""time"":213145},{""event"":""focus"",""trial"":8,""time"":229200}]",NA,NA,NA,NA,NA,5,#D8271C,#741CD8,0,0,1,40,0,796.1999998092651,39,0,495.80000019073486,0,0,experiment,NA,NA,1,0.7,0.3,2,3,174,4,NA
fcp-trial,209,1231971,0.0-184.0-0.0,voc_e2,12290,"[{""event"":""focus"",""trial"":1,""time"":119003},{""event"":""fullscreenenter"",""trial"":1,""time"":119346},{""event"":""blur"",""trial"":8,""time"":213145},{""event"":""focus"",""trial"":8,""time"":229200}]",NA,NA,NA,NA,NA,5,#D89F1C,#3386FF,10,0,1,38,1,894.0999994277954,37,1,264.80000019073486,10,1,experiment,NA,NA,0,0.9,0.1,0,1,175,4,NA
fcp-trial,210,1234910,0.0-185.0-0.0,voc_e2,12290,"[{""event"":""focus"",""trial"":1,""time"":119003},{""event"":""fullscreenenter"",""trial"":1,""time"":119346},{""event"":""blur"",""trial"":8,""time"":213145},{""event"":""focus"",""trial"":8,""time"":229200}]",NA,NA,NA,NA,NA,3,#FA92F8,#1CD855,0,10,0,38,1,1007.5999994277954,37,1,413,0,0,experiment,NA,NA,2,0.5,0.5,5,4,176,4,NA
fcp-trial,211,1238196,0.0-186.0-0.0,voc_e2,12290,"[{""event"":""focus"",""trial"":1,""time"":119003},{""event"":""fullscreenenter"",""trial"":1,""time"":119346},{""event"":""blur"",""trial"":8,""time"":213145},{""event"":""focus"",""trial"":8,""time"":229200}]",NA,NA,NA,NA,NA,2,#3386FF,#D89F1C,0,10,0,38,1,1253.8000001907349,39,0,521.6999998092651,10,1,experiment,NA,NA,0,0.1,0.9,1,0,177,4,NA
fcp-trial,212,1241014,0.0-187.0-0.0,voc_e2,12290,"[{""event"":""focus"",""trial"":1,""time"":119003},{""event"":""fullscreenenter"",""trial"":1,""time"":119346},{""event"":""blur"",""trial"":8,""time"":213145},{""event"":""focus"",""trial"":8,""time"":229200}]",NA,NA,NA,NA,NA,5,#1CD855,#FA92F8,10,10,1,40,0,801.3000001907349,39,0,488.3999996185303,10,0,experiment,NA,NA,2,0.5,0.5,4,5,178,4,NA
fcp-trial,213,1244315,0.0-188.0-0.0,voc_e2,12290,"[{""event"":""focus"",""trial"":1,""time"":119003},{""event"":""fullscreenenter"",""trial"":1,""time"":119346},{""event"":""blur"",""trial"":8,""time"":213145},{""event"":""focus"",""trial"":8,""time"":229200}]",NA,NA,NA,NA,NA,6,#D8271C,#741CD8,10,0,1,40,0,1138.6999998092651,39,0,637.5,0,0,experiment,NA,NA,1,0.7,0.3,2,3,179,4,NA
fcp-trial,214,1247163,0.0-189.0-0.0,voc_e2,12290,"[{""event"":""focus"",""trial"":1,""time"":119003},{""event"":""fullscreenenter"",""trial"":1,""time"":119346},{""event"":""blur"",""trial"":8,""time"":213145},{""event"":""focus"",""trial"":8,""time"":229200}]",NA,NA,NA,NA,NA,1,#741CD8,#D8271C,0,10,0,40,0,850.2999992370605,37,1,476.6000003814697,0,0,experiment,NA,NA,1,0.3,0.7,3,2,180,4,NA
fcp-trial,215,1249847,0.0-190.0-0.0,voc_e2,12290,"[{""event"":""focus"",""trial"":1,""time"":119003},{""event"":""fullscreenenter"",""trial"":1,""time"":119346},{""event"":""blur"",""trial"":8,""time"":213145},{""event"":""focus"",""trial"":8,""time"":229200}]",NA,NA,NA,NA,NA,3,#D89F1C,#3386FF,0,0,1,40,0,749.8999996185303,37,1,412.0999994277954,0,1,experiment,NA,NA,0,0.9,0.1,0,1,181,5,NA
fcp-trial,216,1253638,0.0-191.0-0.0,voc_e2,12290,"[{""event"":""focus"",""trial"":1,""time"":119003},{""event"":""fullscreenenter"",""trial"":1,""time"":119346},{""event"":""blur"",""trial"":8,""time"":213145},{""event"":""focus"",""trial"":8,""time"":229200}]",NA,NA,NA,NA,NA,2,#FA92F8,#1CD855,0,0,0,38,1,1732.7000007629395,39,0,536.3000001907349,0,1,experiment,NA,NA,2,0.5,0.5,5,4,182,5,NA
fcp-trial,217,1256466,0.0-192.0-0.0,voc_e2,12290,"[{""event"":""focus"",""trial"":1,""time"":119003},{""event"":""fullscreenenter"",""trial"":1,""time"":119346},{""event"":""blur"",""trial"":8,""time"":213145},{""event"":""focus"",""trial"":8,""time"":229200}]",NA,NA,NA,NA,NA,1,#3386FF,#D89F1C,0,10,0,38,1,1033.8000001907349,39,0,275.5999994277954,10,1,experiment,NA,NA,0,0.1,0.9,1,0,183,5,NA
fcp-trial,218,1259953,0.0-193.0-0.0,voc_e2,12290,"[{""event"":""focus"",""trial"":1,""time"":119003},{""event"":""fullscreenenter"",""trial"":1,""time"":119346},{""event"":""blur"",""trial"":8,""time"":213145},{""event"":""focus"",""trial"":8,""time"":229200}]",NA,NA,NA,NA,NA,2,#741CD8,#D8271C,0,10,0,38,1,1031.1999998092651,39,0,944.1999998092653,10,1,experiment,NA,NA,1,0.3,0.7,3,2,184,5,NA
fcp-trial,219,1263534,0.0-194.0-0.0,voc_e2,12290,"[{""event"":""focus"",""trial"":1,""time"":119003},{""event"":""fullscreenenter"",""trial"":1,""time"":119346},{""event"":""blur"",""trial"":8,""time"":213145},{""event"":""focus"",""trial"":8,""time"":229200}]",NA,NA,NA,NA,NA,1,#1CD855,#FA92F8,10,0,1,40,0,1597.5,37,1,468.3999996185303,10,1,experiment,NA,NA,2,0.5,0.5,4,5,185,5,NA
fcp-trial,220,1266447,0.0-195.0-0.0,voc_e2,12290,"[{""event"":""focus"",""trial"":1,""time"":119003},{""event"":""fullscreenenter"",""trial"":1,""time"":119346},{""event"":""blur"",""trial"":8,""time"":213145},{""event"":""focus"",""trial"":8,""time"":229200}]",NA,NA,NA,NA,NA,0,#741CD8,#D8271C,10,10,0,38,1,902.0999994277954,39,0,489,10,1,experiment,NA,NA,1,0.3,0.7,3,2,186,5,NA
fcp-trial,221,1269798,0.0-196.0-0.0,voc_e2,12290,"[{""event"":""focus"",""trial"":1,""time"":119003},{""event"":""fullscreenenter"",""trial"":1,""time"":119346},{""event"":""blur"",""trial"":8,""time"":213145},{""event"":""focus"",""trial"":8,""time"":229200}]",NA,NA,NA,NA,NA,0,#3386FF,#D89F1C,10,10,0,38,1,1505.3999996185303,39,0,323.8999996185303,10,1,experiment,NA,NA,0,0.1,0.9,1,0,187,5,NA
fcp-trial,222,1274330,0.0-197.0-0.0,voc_e2,12290,"[{""event"":""focus"",""trial"":1,""time"":119003},{""event"":""fullscreenenter"",""trial"":1,""time"":119346},{""event"":""blur"",""trial"":8,""time"":213145},{""event"":""focus"",""trial"":8,""time"":229200}]",NA,NA,NA,NA,NA,4,#1CD855,#FA92F8,0,0,1,40,0,2484.8999996185303,39,0,522.3000001907349,0,0,experiment,NA,NA,2,0.5,0.5,4,5,188,5,NA
fcp-trial,223,1277449,0.0-198.0-0.0,voc_e2,12290,"[{""event"":""focus"",""trial"":1,""time"":119003},{""event"":""fullscreenenter"",""trial"":1,""time"":119346},{""event"":""blur"",""trial"":8,""time"":213145},{""event"":""focus"",""trial"":8,""time"":229200}]",NA,NA,NA,NA,NA,6,#D89F1C,#3386FF,10,10,1,40,0,923.1999998092651,39,0,671.1000003814697,10,0,experiment,NA,NA,0,0.9,0.1,0,1,189,5,NA
fcp-trial,224,1280647,0.0-199.0-0.0,voc_e2,12290,"[{""event"":""focus"",""trial"":1,""time"":119003},{""event"":""fullscreenenter"",""trial"":1,""time"":119346},{""event"":""blur"",""trial"":8,""time"":213145},{""event"":""focus"",""trial"":8,""time"":229200}]",NA,NA,NA,NA,NA,3,#741CD8,#D8271C,0,10,0,38,1,1418.8000001907349,39,0,255.6999998092651,10,1,experiment,NA,NA,1,0.3,0.7,3,2,190,5,NA
fcp-trial,225,1284741,0.0-200.0-0.0,voc_e2,12290,"[{""event"":""focus"",""trial"":1,""time"":119003},{""event"":""fullscreenenter"",""trial"":1,""time"":119346},{""event"":""blur"",""trial"":8,""time"":213145},{""event"":""focus"",""trial"":8,""time"":229200}]",NA,NA,NA,NA,NA,5,#3386FF,#D89F1C,0,10,0,40,0,934.5,37,1,1641,0,0,experiment,NA,NA,0,0.1,0.9,1,0,191,5,NA
fcp-trial,226,1287588,0.0-201.0-0.0,voc_e2,12290,"[{""event"":""focus"",""trial"":1,""time"":119003},{""event"":""fullscreenenter"",""trial"":1,""time"":119346},{""event"":""blur"",""trial"":8,""time"":213145},{""event"":""focus"",""trial"":8,""time"":229200}]",NA,NA,NA,NA,NA,0,#3386FF,#D89F1C,0,0,0,38,1,1079.5999994277954,39,0,252.5999994277954,0,1,experiment,NA,NA,0,0.1,0.9,1,0,192,5,NA
fcp-trial,227,1291669,0.0-202.0-0.0,voc_e2,12290,"[{""event"":""focus"",""trial"":1,""time"":119003},{""event"":""fullscreenenter"",""trial"":1,""time"":119346},{""event"":""blur"",""trial"":8,""time"":213145},{""event"":""focus"",""trial"":8,""time"":229200}]",NA,NA,NA,NA,NA,4,#3386FF,#D89F1C,0,10,0,40,0,1023.3999996185303,37,1,1544,0,0,experiment,NA,NA,0,0.1,0.9,1,0,193,5,NA
fcp-trial,228,1294751,0.0-203.0-0.0,voc_e2,12290,"[{""event"":""focus"",""trial"":1,""time"":119003},{""event"":""fullscreenenter"",""trial"":1,""time"":119346},{""event"":""blur"",""trial"":8,""time"":213145},{""event"":""focus"",""trial"":8,""time"":229200}]",NA,NA,NA,NA,NA,6,#1CD855,#FA92F8,0,0,1,40,0,733.1999998092651,37,1,830.5,0,1,experiment,NA,NA,2,0.5,0.5,4,5,194,5,NA
fcp-trial,229,1298417,0.0-204.0-0.0,voc_e2,12290,"[{""event"":""focus"",""trial"":1,""time"":119003},{""event"":""fullscreenenter"",""trial"":1,""time"":119346},{""event"":""blur"",""trial"":8,""time"":213145},{""event"":""focus"",""trial"":8,""time"":229200}]",NA,NA,NA,NA,NA,2,#741CD8,#D8271C,0,10,0,38,1,1850.6999998092651,39,0,294.6000003814697,10,1,experiment,NA,NA,1,0.3,0.7,3,2,195,5,NA
fcp-trial,230,1301903,0.0-205.0-0.0,voc_e2,12290,"[{""event"":""focus"",""trial"":1,""time"":119003},{""event"":""fullscreenenter"",""trial"":1,""time"":119346},{""event"":""blur"",""trial"":8,""time"":213145},{""event"":""focus"",""trial"":8,""time"":229200}]",NA,NA,NA,NA,NA,6,#D8271C,#741CD8,0,0,1,40,0,1460.5999994277954,37,1,496.4000005722046,0,1,experiment,NA,NA,1,0.7,0.3,2,3,196,5,NA
fcp-trial,231,1306349,0.0-206.0-0.0,voc_e2,12290,"[{""event"":""focus"",""trial"":1,""time"":119003},{""event"":""fullscreenenter"",""trial"":1,""time"":119346},{""event"":""blur"",""trial"":8,""time"":213145},{""event"":""focus"",""trial"":8,""time"":229200}]",NA,NA,NA,NA,NA,1,#FA92F8,#1CD855,10,10,0,40,0,2274.300000190735,39,0,644.3999996185303,10,1,experiment,NA,NA,2,0.5,0.5,5,4,197,5,NA
fcp-trial,232,1310370,0.0-207.0-0.0,voc_e2,12290,"[{""event"":""focus"",""trial"":1,""time"":119003},{""event"":""fullscreenenter"",""trial"":1,""time"":119346},{""event"":""blur"",""trial"":8,""time"":213145},{""event"":""focus"",""trial"":8,""time"":229200}]",NA,NA,NA,NA,NA,1,#D89F1C,#3386FF,10,0,1,40,0,1944.1000003814697,37,1,544.2999992370605,10,1,experiment,NA,NA,0,0.9,0.1,0,1,198,5,NA
fcp-trial,233,1314891,0.0-208.0-0.0,voc_e2,12290,"[{""event"":""focus"",""trial"":1,""time"":119003},{""event"":""fullscreenenter"",""trial"":1,""time"":119346},{""event"":""blur"",""trial"":8,""time"":213145},{""event"":""focus"",""trial"":8,""time"":229200}]",NA,NA,NA,NA,NA,3,#FA92F8,#1CD855,10,0,0,40,0,2184.6000003814697,37,1,815.8999996185303,10,0,experiment,NA,NA,2,0.5,0.5,5,4,199,5,NA
fcp-trial,234,1317733,0.0-209.0-0.0,voc_e2,12290,"[{""event"":""focus"",""trial"":1,""time"":119003},{""event"":""fullscreenenter"",""trial"":1,""time"":119346},{""event"":""blur"",""trial"":8,""time"":213145},{""event"":""focus"",""trial"":8,""time"":229200}]",NA,NA,NA,NA,NA,4,#1CD855,#FA92F8,0,10,1,40,0,873.4000005722046,39,0,452.9000005722046,10,0,experiment,NA,NA,2,0.5,0.5,4,5,200,5,NA
fcp-trial,235,1320569,0.0-210.0-0.0,voc_e2,12290,"[{""event"":""focus"",""trial"":1,""time"":119003},{""event"":""fullscreenenter"",""trial"":1,""time"":119346},{""event"":""blur"",""trial"":8,""time"":213145},{""event"":""focus"",""trial"":8,""time"":229200}]",NA,NA,NA,NA,NA,4,#D8271C,#741CD8,10,0,1,40,0,839.5,37,1,468.5,10,1,experiment,NA,NA,1,0.7,0.3,2,3,201,5,NA
fcp-trial,236,1323350,0.0-211.0-0.0,voc_e2,12290,"[{""event"":""focus"",""trial"":1,""time"":119003},{""event"":""fullscreenenter"",""trial"":1,""time"":119346},{""event"":""blur"",""trial"":8,""time"":213145},{""event"":""focus"",""trial"":8,""time"":229200}]",NA,NA,NA,NA,NA,1,#D8271C,#741CD8,0,0,1,40,0,513.8999996185303,37,1,737.8999996185303,0,1,experiment,NA,NA,1,0.7,0.3,2,3,202,5,NA
fcp-trial,237,1327426,0.0-212.0-0.0,voc_e2,12290,"[{""event"":""focus"",""trial"":1,""time"":119003},{""event"":""fullscreenenter"",""trial"":1,""time"":119346},{""event"":""blur"",""trial"":8,""time"":213145},{""event"":""focus"",""trial"":8,""time"":229200}]",NA,NA,NA,NA,NA,6,#3386FF,#D89F1C,0,0,0,40,0,1832,37,1,720.7000007629395,0,0,experiment,NA,NA,0,0.1,0.9,1,0,203,5,NA
fcp-trial,238,1331145,0.0-213.0-0.0,voc_e2,12290,"[{""event"":""focus"",""trial"":1,""time"":119003},{""event"":""fullscreenenter"",""trial"":1,""time"":119346},{""event"":""blur"",""trial"":8,""time"":213145},{""event"":""focus"",""trial"":8,""time"":229200}]",NA,NA,NA,NA,NA,5,#FA92F8,#1CD855,10,10,0,40,0,1687.6999998092651,37,1,519.4000005722046,10,0,experiment,NA,NA,2,0.5,0.5,5,4,204,5,NA
fcp-trial,239,1342554,0.0-214.0-0.0,voc_e2,12290,"[{""event"":""focus"",""trial"":1,""time"":119003},{""event"":""fullscreenenter"",""trial"":1,""time"":119346},{""event"":""blur"",""trial"":8,""time"":213145},{""event"":""focus"",""trial"":8,""time"":229200}]",NA,NA,NA,NA,NA,3,#3386FF,#D89F1C,0,10,0,38,1,8895,39,0,996.3000001907347,10,1,experiment,NA,NA,0,0.1,0.9,1,0,205,5,NA
fcp-trial,240,1345555,0.0-215.0-0.0,voc_e2,12290,"[{""event"":""focus"",""trial"":1,""time"":119003},{""event"":""fullscreenenter"",""trial"":1,""time"":119346},{""event"":""blur"",""trial"":8,""time"":213145},{""event"":""focus"",""trial"":8,""time"":229200}]",NA,NA,NA,NA,NA,5,#741CD8,#D8271C,0,10,0,40,0,859,37,1,617.1999998092651,0,0,experiment,NA,NA,1,0.3,0.7,3,2,206,5,NA
fcp-trial,241,1348338,0.0-216.0-0.0,voc_e2,12290,"[{""event"":""focus"",""trial"":1,""time"":119003},{""event"":""fullscreenenter"",""trial"":1,""time"":119346},{""event"":""blur"",""trial"":8,""time"":213145},{""event"":""focus"",""trial"":8,""time"":229200}]",NA,NA,NA,NA,NA,0,#FA92F8,#1CD855,0,0,0,38,1,734.9000005722046,39,0,530.0999994277954,0,1,experiment,NA,NA,2,0.5,0.5,5,4,207,5,NA
fcp-trial,242,1353024,0.0-217.0-0.0,voc_e2,12290,"[{""event"":""focus"",""trial"":1,""time"":119003},{""event"":""fullscreenenter"",""trial"":1,""time"":119346},{""event"":""blur"",""trial"":8,""time"":213145},{""event"":""focus"",""trial"":8,""time"":229200}]",NA,NA,NA,NA,NA,0,#741CD8,#D8271C,0,0,0,38,1,812.8000001907349,39,0,2353.300000190735,0,1,experiment,NA,NA,1,0.3,0.7,3,2,208,5,NA
fcp-trial,243,1355921,0.0-218.0-0.0,voc_e2,12290,"[{""event"":""focus"",""trial"":1,""time"":119003},{""event"":""fullscreenenter"",""trial"":1,""time"":119346},{""event"":""blur"",""trial"":8,""time"":213145},{""event"":""focus"",""trial"":8,""time"":229200}]",NA,NA,NA,NA,NA,2,#FA92F8,#1CD855,0,10,0,38,1,752.1999998092651,37,1,631,0,0,experiment,NA,NA,2,0.5,0.5,5,4,209,5,NA
fcp-trial,244,1359419,0.0-219.0-0.0,voc_e2,12290,"[{""event"":""focus"",""trial"":1,""time"":119003},{""event"":""fullscreenenter"",""trial"":1,""time"":119346},{""event"":""blur"",""trial"":8,""time"":213145},{""event"":""focus"",""trial"":8,""time"":229200}]",NA,NA,NA,NA,NA,2,#3386FF,#D89F1C,0,10,0,40,0,1341.9000005722046,37,1,638.5,0,0,experiment,NA,NA,0,0.1,0.9,1,0,210,5,NA
audio-instructions,245,1388323,0.0-220.0,voc_e2,12290,"[{""event"":""focus"",""trial"":1,""time"":119003},{""event"":""fullscreenenter"",""trial"":1,""time"":119346},{""event"":""blur"",""trial"":8,""time"":213145},{""event"":""focus"",""trial"":8,""time"":229200}]",NA,23713.39999961853,static/audio/pause.wav,NA,0,NA,NA,NA,NA,NA,NA,NA,NA,NA,NA,NA,NA,NA,NA,NA,NA,NA,NA,NA,NA,NA,NA,NA,NA,NA
fcp-trial,246,1392823,0.0-221.0-0.0,voc_e2,12290,"[{""event"":""focus"",""trial"":1,""time"":119003},{""event"":""fullscreenenter"",""trial"":1,""time"":119346},{""event"":""blur"",""trial"":8,""time"":213145},{""event"":""focus"",""trial"":8,""time"":229200}]",NA,NA,NA,NA,NA,3,#1CD855,#FA92F8,0,0,1,40,0,2537.199999809265,37,1,443.6000003814697,0,1,experiment,NA,NA,2,0.5,0.5,4,5,211,5,NA
fcp-trial,247,1395915,0.0-222.0-0.0,voc_e2,12290,"[{""event"":""focus"",""trial"":1,""time"":119003},{""event"":""fullscreenenter"",""trial"":1,""time"":119346},{""event"":""blur"",""trial"":8,""time"":213145},{""event"":""focus"",""trial"":8,""time"":229200}]",NA,NA,NA,NA,NA,2,#D8271C,#741CD8,10,0,1,38,1,1247,37,1,325.3999996185303,10,1,experiment,NA,NA,1,0.7,0.3,2,3,212,5,NA
fcp-trial,248,1399502,0.0-223.0-0.0,voc_e2,12290,"[{""event"":""focus"",""trial"":1,""time"":119003},{""event"":""fullscreenenter"",""trial"":1,""time"":119346},{""event"":""blur"",""trial"":8,""time"":213145},{""event"":""focus"",""trial"":8,""time"":229200}]",NA,NA,NA,NA,NA,2,#3386FF,#D89F1C,0,10,0,38,1,1771.1999998092651,39,0,295.3999996185303,10,1,experiment,NA,NA,0,0.1,0.9,1,0,213,5,NA
fcp-trial,249,1403722,0.0-224.0-0.0,voc_e2,12290,"[{""event"":""focus"",""trial"":1,""time"":119003},{""event"":""fullscreenenter"",""trial"":1,""time"":119346},{""event"":""blur"",""trial"":8,""time"":213145},{""event"":""focus"",""trial"":8,""time"":229200}]",NA,NA,NA,NA,NA,0,#1CD855,#FA92F8,0,0,1,38,1,2362.8999996185303,37,1,345.29999923706055,0,1,experiment,NA,NA,2,0.5,0.5,4,5,214,5,NA
fcp-trial,250,1408157,0.0-225.0-0.0,voc_e2,12290,"[{""event"":""focus"",""trial"":1,""time"":119003},{""event"":""fullscreenenter"",""trial"":1,""time"":119346},{""event"":""blur"",""trial"":8,""time"":213145},{""event"":""focus"",""trial"":8,""time"":229200}]",NA,NA,NA,NA,NA,0,#D8271C,#741CD8,10,0,1,38,1,2625.5999994277954,37,1,291.9000005722046,10,1,experiment,NA,NA,1,0.7,0.3,2,3,215,5,NA
fcp-trial,251,1411608,0.0-226.0-0.0,voc_e2,12290,"[{""event"":""focus"",""trial"":1,""time"":119003},{""event"":""fullscreenenter"",""trial"":1,""time"":119346},{""event"":""blur"",""trial"":8,""time"":213145},{""event"":""focus"",""trial"":8,""time"":229200}]",NA,NA,NA,NA,NA,5,#D89F1C,#3386FF,10,0,1,38,1,1143.1999998092651,37,1,787.8999996185303,10,1,experiment,NA,NA,0,0.9,0.1,0,1,216,5,NA
fcp-trial,252,1414390,0.0-227.0-0.0,voc_e2,12290,"[{""event"":""focus"",""trial"":1,""time"":119003},{""event"":""fullscreenenter"",""trial"":1,""time"":119346},{""event"":""blur"",""trial"":8,""time"":213145},{""event"":""focus"",""trial"":8,""time"":229200}]",NA,NA,NA,NA,NA,2,#1CD855,#FA92F8,0,10,1,40,0,724.1000003814697,39,0,541.2999992370605,10,0,experiment,NA,NA,2,0.5,0.5,4,5,217,5,NA
fcp-trial,253,1417229,0.0-228.0-0.0,voc_e2,12290,"[{""event"":""focus"",""trial"":1,""time"":119003},{""event"":""fullscreenenter"",""trial"":1,""time"":119346},{""event"":""blur"",""trial"":8,""time"":213145},{""event"":""focus"",""trial"":8,""time"":229200}]",NA,NA,NA,NA,NA,1,#D8271C,#741CD8,10,0,1,38,1,1033.3000001907349,37,1,284.69999980926514,10,1,experiment,NA,NA,1,0.7,0.3,2,3,218,5,NA
fcp-trial,254,1421397,0.0-229.0-0.0,voc_e2,12290,"[{""event"":""focus"",""trial"":1,""time"":119003},{""event"":""fullscreenenter"",""trial"":1,""time"":119346},{""event"":""blur"",""trial"":8,""time"":213145},{""event"":""focus"",""trial"":8,""time"":229200}]",NA,NA,NA,NA,NA,6,#D8271C,#741CD8,10,0,1,40,0,1796.1000003814697,37,1,854,10,1,experiment,NA,NA,1,0.7,0.3,2,3,219,5,NA
fcp-trial,255,1424126,0.0-230.0-0.0,voc_e2,12290,"[{""event"":""focus"",""trial"":1,""time"":119003},{""event"":""fullscreenenter"",""trial"":1,""time"":119346},{""event"":""blur"",""trial"":8,""time"":213145},{""event"":""focus"",""trial"":8,""time"":229200}]",NA,NA,NA,NA,NA,1,#D89F1C,#3386FF,10,0,1,38,1,807.3999996185303,37,1,410.20000076293945,10,1,experiment,NA,NA,0,0.9,0.1,0,1,220,5,NA
fcp-trial,256,1427129,0.0-231.0-0.0,voc_e2,12290,"[{""event"":""focus"",""trial"":1,""time"":119003},{""event"":""fullscreenenter"",""trial"":1,""time"":119346},{""event"":""blur"",""trial"":8,""time"":213145},{""event"":""focus"",""trial"":8,""time"":229200}]",NA,NA,NA,NA,NA,3,#D8271C,#741CD8,0,0,1,40,0,1108.8999996185303,37,1,378.5,0,1,experiment,NA,NA,1,0.7,0.3,2,3,221,5,NA
fcp-trial,257,1429930,0.0-232.0-0.0,voc_e2,12290,"[{""event"":""focus"",""trial"":1,""time"":119003},{""event"":""fullscreenenter"",""trial"":1,""time"":119346},{""event"":""blur"",""trial"":8,""time"":213145},{""event"":""focus"",""trial"":8,""time"":229200}]",NA,NA,NA,NA,NA,6,#1CD855,#FA92F8,10,10,1,40,0,966,37,1,318.30000019073486,10,1,experiment,NA,NA,2,0.5,0.5,4,5,222,5,NA
fcp-trial,258,1432526,0.0-233.0-0.0,voc_e2,12290,"[{""event"":""focus"",""trial"":1,""time"":119003},{""event"":""fullscreenenter"",""trial"":1,""time"":119346},{""event"":""blur"",""trial"":8,""time"":213145},{""event"":""focus"",""trial"":8,""time"":229200}]",NA,NA,NA,NA,NA,1,#1CD855,#FA92F8,0,0,1,38,1,777.1999998092651,37,1,289.6000003814697,0,1,experiment,NA,NA,2,0.5,0.5,4,5,223,5,NA
