trial_type,trial_index,time_elapsed,internal_node_id,task_version,subject_id,interactions,success,rt,stimulus,key_press,button_pressed,offer,arcade_color_L,arcade_color_R,arcade_outcome_L,arcade_outcome_R,correct,stage_1_key,stage_1_choice,stage_1_rt,stage_2_key,stage_2_choice,stage_2_rt,stage_3_outcome,accuracy,phase,responses,num_errors,context,reward_prob_L,reward_prob_R,arcade_id_L,arcade_id_R,trial,block,response
pavlovia,0,6,0.0-0.0,voc_e2,12385,[],NA,NA,NA,NA,NA,NA,NA,NA,NA,NA,NA,NA,NA,NA,NA,NA,NA,NA,NA,NA,NA,NA,NA,NA,NA,NA,NA,NA,NA,NA
fullscreen,1,2820,0.0-1.0,voc_e2,12385,"[{""event"":""fullscreenenter"",""trial"":1,""time"":1838}]",TRUE,NA,NA,NA,NA,NA,NA,NA,NA,NA,NA,NA,NA,NA,NA,NA,NA,NA,NA,NA,NA,NA,NA,NA,NA,NA,NA,NA,NA,NA
audio-keyboard-response,2,4702,0.0-2.0,voc_e2,12385,"[{""event"":""fullscreenenter"",""trial"":1,""time"":1838}]",NA,240,static/audio/beep_loop.wav,32,NA,NA,NA,NA,NA,NA,NA,NA,NA,NA,NA,NA,NA,NA,NA,NA,NA,NA,NA,NA,NA,NA,NA,NA,NA,NA
audio-test,3,6800,0.0-3.0,voc_e2,12385,"[{""event"":""fullscreenenter"",""trial"":1,""time"":1838}]",NA,NA,static/audio/turtle.wav,NA,3,NA,NA,NA,NA,NA,NA,NA,NA,NA,NA,NA,NA,NA,NA,NA,NA,NA,NA,NA,NA,NA,NA,NA,NA,NA
audio-test,4,8675,0.0-4.0,voc_e2,12385,"[{""event"":""fullscreenenter"",""trial"":1,""time"":1838}]",NA,NA,static/audio/shark.wav,NA,2,NA,NA,NA,NA,NA,NA,NA,NA,NA,NA,NA,NA,NA,NA,NA,NA,NA,NA,NA,NA,NA,NA,NA,NA,NA
audio-instructions,5,15276,0.0-5.0-0.0,voc_e2,12385,"[{""event"":""fullscreenenter"",""trial"":1,""time"":1838}]",NA,825.0999999046326,static/audio/instructions1.wav,NA,0,NA,NA,NA,NA,NA,NA,NA,NA,NA,NA,NA,NA,NA,NA,NA,NA,NA,NA,NA,NA,NA,NA,NA,NA,NA
audio-instructions,6,23854,0.0-5.0-1.0,voc_e2,12385,"[{""event"":""fullscreenenter"",""trial"":1,""time"":1838}]",NA,1833,static/audio/instructions2.wav,NA,0,NA,NA,NA,NA,NA,NA,NA,NA,NA,NA,NA,NA,NA,NA,NA,NA,NA,NA,NA,NA,NA,NA,NA,NA,NA
audio-instructions,7,33906,0.0-5.0-2.0,voc_e2,12385,"[{""event"":""fullscreenenter"",""trial"":1,""time"":1838}]",NA,4244.900000095367,static/audio/instructions3.wav,NA,0,NA,NA,NA,NA,NA,NA,NA,NA,NA,NA,NA,NA,NA,NA,NA,NA,NA,NA,NA,NA,NA,NA,NA,NA,NA
audio-instructions,8,50428,0.0-5.0-3.0,voc_e2,12385,"[{""event"":""fullscreenenter"",""trial"":1,""time"":1838}]",NA,3297.199999809265,static/audio/instructions4.wav,NA,0,NA,NA,NA,NA,NA,NA,NA,NA,NA,NA,NA,NA,NA,NA,NA,NA,NA,NA,NA,NA,NA,NA,NA,NA,NA
audio-instructions,9,61400,0.0-5.0-4.0,voc_e2,12385,"[{""event"":""fullscreenenter"",""trial"":1,""time"":1838}]",NA,1588.0999999046326,static/audio/instructions5.wav,NA,0,NA,NA,NA,NA,NA,NA,NA,NA,NA,NA,NA,NA,NA,NA,NA,NA,NA,NA,NA,NA,NA,NA,NA,NA,NA
fcp-practice,10,63773,0.0-5.0-5.0-0.0,voc_e2,12385,"[{""event"":""fullscreenenter"",""trial"":1,""time"":1838}]",NA,NA,NA,NA,NA,NA,#EDC948,#46d3c8,10,0,1,null,null,null,37,1,862.9000000953674,10,1,practice,NA,NA,NA,NA,NA,NA,NA,NA,NA,NA
fcp-practice,11,65336,0.0-5.0-5.0-1.0,voc_e2,12385,"[{""event"":""fullscreenenter"",""trial"":1,""time"":1838}]",NA,NA,NA,NA,NA,NA,#EDC948,#46d3c8,10,0,1,null,null,null,37,1,59.69999980926514,10,1,practice,NA,NA,NA,NA,NA,NA,NA,NA,NA,NA
fcp-practice,12,67021,0.0-5.0-5.0-2.0,voc_e2,12385,"[{""event"":""fullscreenenter"",""trial"":1,""time"":1838}]",NA,NA,NA,NA,NA,NA,#EDC948,#46d3c8,0,10,1,null,null,null,37,1,173.59999990463257,0,1,practice,NA,NA,NA,NA,NA,NA,NA,NA,NA,NA
fcp-practice,13,68706,0.0-5.0-5.0-3.0,voc_e2,12385,"[{""event"":""fullscreenenter"",""trial"":1,""time"":1838}]",NA,NA,NA,NA,NA,NA,#EDC948,#46d3c8,10,0,1,null,null,null,37,1,180.8000001907349,10,1,practice,NA,NA,NA,NA,NA,NA,NA,NA,NA,NA
fcp-practice,14,70269,0.0-5.0-5.0-4.0,voc_e2,12385,"[{""event"":""fullscreenenter"",""trial"":1,""time"":1838}]",NA,NA,NA,NA,NA,NA,#EDC948,#46d3c8,10,0,1,null,null,null,37,1,46.200000286102295,10,1,practice,NA,NA,NA,NA,NA,NA,NA,NA,NA,NA
audio-instructions,15,88964,0.0-5.0-6.0,voc_e2,12385,"[{""event"":""fullscreenenter"",""trial"":1,""time"":1838}]",NA,682.5999999046326,static/audio/instructions6.wav,NA,0,NA,NA,NA,NA,NA,NA,NA,NA,NA,NA,NA,NA,NA,NA,NA,NA,NA,NA,NA,NA,NA,NA,NA,NA,NA
audio-instructions,16,108750,0.0-5.0-7.0,voc_e2,12385,"[{""event"":""fullscreenenter"",""trial"":1,""time"":1838}]",NA,589.4000000953674,static/audio/instructions7.wav,NA,0,NA,NA,NA,NA,NA,NA,NA,NA,NA,NA,NA,NA,NA,NA,NA,NA,NA,NA,NA,NA,NA,NA,NA,NA,NA
audio-instructions,17,118638,0.0-5.0-8.0,voc_e2,12385,"[{""event"":""fullscreenenter"",""trial"":1,""time"":1838}]",NA,407.19999980926514,static/audio/instructions8.wav,NA,0,NA,NA,NA,NA,NA,NA,NA,NA,NA,NA,NA,NA,NA,NA,NA,NA,NA,NA,NA,NA,NA,NA,NA,NA,NA
fcp-comprehension,18,127477,0.0-5.0-9.0,voc_e2,12385,"[{""event"":""fullscreenenter"",""trial"":1,""time"":1838}]",NA,8836.60000038147,NA,NA,NA,NA,NA,NA,NA,NA,NA,NA,NA,NA,NA,NA,NA,NA,NA,NA,"true,true",0,NA,NA,NA,NA,NA,NA,NA,NA
audio-instructions,19,136630,0.0-6.0-0.0,voc_e2,12385,"[{""event"":""fullscreenenter"",""trial"":1,""time"":1838}]",NA,3608.7000002861023,static/audio/instructions9.wav,NA,0,NA,NA,NA,NA,NA,NA,NA,NA,NA,NA,NA,NA,NA,NA,NA,NA,NA,NA,NA,NA,NA,NA,NA,NA,NA
audio-instructions,20,149780,0.0-6.0-1.0,voc_e2,12385,"[{""event"":""fullscreenenter"",""trial"":1,""time"":1838}]",NA,1028.5999999046326,static/audio/instructions10.wav,NA,0,NA,NA,NA,NA,NA,NA,NA,NA,NA,NA,NA,NA,NA,NA,NA,NA,NA,NA,NA,NA,NA,NA,NA,NA,NA
fcp-trial,21,156988,0.0-6.0-2.0,voc_e2,12385,"[{""event"":""fullscreenenter"",""trial"":1,""time"":1838}]",NA,NA,NA,NA,NA,0,#EDC948,#46d3c8,10,10,1,38,1,4066.5999999046326,39,0,1619.5999999046326,10,0,practice,NA,NA,NA,NA,NA,NA,NA,NA,NA,NA
audio-instructions,22,168400,0.0-6.0-3.0,voc_e2,12385,"[{""event"":""fullscreenenter"",""trial"":1,""time"":1838}]",NA,408.90000009536743,static/audio/instructions11.wav,NA,0,NA,NA,NA,NA,NA,NA,NA,NA,NA,NA,NA,NA,NA,NA,NA,NA,NA,NA,NA,NA,NA,NA,NA,NA,NA
fcp-trial,23,173507,0.0-6.0-4.0,voc_e2,12385,"[{""event"":""fullscreenenter"",""trial"":1,""time"":1838}]",NA,NA,NA,NA,NA,6,#EDC948,#46d3c8,10,10,1,40,0,2255.800000190735,37,1,1330.1999998092651,10,1,practice,NA,NA,NA,NA,NA,NA,NA,NA,NA,NA
audio-instructions,24,193258,0.0-6.0-5.0,voc_e2,12385,"[{""event"":""fullscreenenter"",""trial"":1,""time"":1838}]",NA,1066,static/audio/instructions12.wav,NA,0,NA,NA,NA,NA,NA,NA,NA,NA,NA,NA,NA,NA,NA,NA,NA,NA,NA,NA,NA,NA,NA,NA,NA,NA,NA
audio-instructions,25,201504,0.0-6.0-6.0,voc_e2,12385,"[{""event"":""fullscreenenter"",""trial"":1,""time"":1838}]",NA,653,static/audio/instructions13.wav,NA,0,NA,NA,NA,NA,NA,NA,NA,NA,NA,NA,NA,NA,NA,NA,NA,NA,NA,NA,NA,NA,NA,NA,NA,NA,NA
audio-instructions,26,210870,0.0-6.0-7.0,voc_e2,12385,"[{""event"":""fullscreenenter"",""trial"":1,""time"":1838}]",NA,918.5,static/audio/instructions14.wav,NA,0,NA,NA,NA,NA,NA,NA,NA,NA,NA,NA,NA,NA,NA,NA,NA,NA,NA,NA,NA,NA,NA,NA,NA,NA,NA
audio-instructions,27,218149,0.0-7.0-0.0,voc_e2,12385,"[{""event"":""fullscreenenter"",""trial"":1,""time"":1838}]",NA,357.5,static/audio/instructions15.wav,NA,0,NA,NA,NA,NA,NA,NA,NA,NA,NA,NA,NA,NA,NA,NA,NA,NA,NA,NA,NA,NA,NA,NA,NA,NA,NA
audio-instructions,28,225748,0.0-7.0-1.0,voc_e2,12385,"[{""event"":""fullscreenenter"",""trial"":1,""time"":1838}]",NA,776.9000000953674,static/audio/instructions16.wav,NA,0,NA,NA,NA,NA,NA,NA,NA,NA,NA,NA,NA,NA,NA,NA,NA,NA,NA,NA,NA,NA,NA,NA,NA,NA,NA
audio-instructions,29,234236,0.0-7.0-2.0,voc_e2,12385,"[{""event"":""fullscreenenter"",""trial"":1,""time"":1838}]",NA,814.9000000953674,static/audio/instructions17.wav,NA,0,NA,NA,NA,NA,NA,NA,NA,NA,NA,NA,NA,NA,NA,NA,NA,NA,NA,NA,NA,NA,NA,NA,NA,NA,NA
audio-instructions,30,242326,0.0-7.0-3.0,voc_e2,12385,"[{""event"":""fullscreenenter"",""trial"":1,""time"":1838}]",NA,324.6000003814697,static/audio/instructions18.wav,NA,0,NA,NA,NA,NA,NA,NA,NA,NA,NA,NA,NA,NA,NA,NA,NA,NA,NA,NA,NA,NA,NA,NA,NA,NA,NA
audio-instructions,31,249456,0.0-7.0-4.0,voc_e2,12385,"[{""event"":""fullscreenenter"",""trial"":1,""time"":1838}]",NA,384.7000002861023,static/audio/instructions19.wav,NA,0,NA,NA,NA,NA,NA,NA,NA,NA,NA,NA,NA,NA,NA,NA,NA,NA,NA,NA,NA,NA,NA,NA,NA,NA,NA
fcp-comprehension,32,262254,0.0-7.0-5.0,voc_e2,12385,"[{""event"":""fullscreenenter"",""trial"":1,""time"":1838}]",NA,12796.300000190737,NA,NA,NA,NA,NA,NA,NA,NA,NA,NA,NA,NA,NA,NA,NA,NA,NA,NA,"false,false,false,true",0,NA,NA,NA,NA,NA,NA,NA,NA
audio-instructions,33,272842,0.0-8.0,voc_e2,12385,"[{""event"":""fullscreenenter"",""trial"":1,""time"":1838}]",NA,1370.0999999046326,static/audio/ready.wav,NA,0,NA,NA,NA,NA,NA,NA,NA,NA,NA,NA,NA,NA,NA,NA,NA,NA,NA,NA,NA,NA,NA,NA,NA,NA,NA
fcp-trial,34,278525,0.0-9.0-0.0,voc_e2,12385,"[{""event"":""fullscreenenter"",""trial"":1,""time"":1838}]",NA,NA,NA,NA,NA,6,#1CD855,#FA92F8,0,0,0,40,0,3291.7000002861023,39,0,880.6999998092651,0,1,experiment,NA,NA,1,0.3,0.7,3,2,1,1,NA
fcp-trial,35,285821,0.0-10.0-0.0,voc_e2,12385,"[{""event"":""fullscreenenter"",""trial"":1,""time"":1838}]",NA,NA,NA,NA,NA,2,#D8271C,#741CD8,0,10,0,38,1,4720.400000095367,37,1,1058.5999999046326,0,0,experiment,NA,NA,0,0.1,0.9,1,0,2,1,NA
fcp-trial,36,289574,0.0-11.0-0.0,voc_e2,12385,"[{""event"":""fullscreenenter"",""trial"":1,""time"":1838}]",NA,NA,NA,NA,NA,3,#741CD8,#D8271C,10,0,1,40,0,1421.3000001907349,39,0,801.7999997138977,0,0,experiment,NA,NA,0,0.9,0.1,0,1,3,1,NA
fcp-trial,37,293043,0.0-12.0-0.0,voc_e2,12385,"[{""event"":""fullscreenenter"",""trial"":1,""time"":1838}]",NA,NA,NA,NA,NA,0,#741CD8,#D8271C,10,0,1,38,1,1619.8000001907349,37,1,326,10,1,experiment,NA,NA,0,0.9,0.1,0,1,4,1,NA
fcp-trial,38,296593,0.0-13.0-0.0,voc_e2,12385,"[{""event"":""fullscreenenter"",""trial"":1,""time"":1838}]",NA,NA,NA,NA,NA,5,#D8271C,#741CD8,0,10,0,40,0,1595.3000001907349,37,1,449.69999980926514,0,0,experiment,NA,NA,0,0.1,0.9,1,0,5,1,NA
fcp-trial,39,299592,0.0-14.0-0.0,voc_e2,12385,"[{""event"":""fullscreenenter"",""trial"":1,""time"":1838}]",NA,NA,NA,NA,NA,4,#FA92F8,#1CD855,0,10,1,38,1,1005.9000000953674,39,0,478,10,0,experiment,NA,NA,1,0.7,0.3,2,3,6,1,NA
fcp-trial,40,303267,0.0-15.0-0.0,voc_e2,12385,"[{""event"":""fullscreenenter"",""trial"":1,""time"":1838}]",NA,NA,NA,NA,NA,3,#3386FF,#D89F1C,0,10,1,38,1,1687.5999999046326,39,0,482,10,0,experiment,NA,NA,2,0.5,0.5,4,5,7,1,NA
fcp-trial,41,305845,0.0-16.0-0.0,voc_e2,12385,"[{""event"":""fullscreenenter"",""trial"":1,""time"":1838}]",NA,NA,NA,NA,NA,1,#D8271C,#741CD8,0,10,0,38,1,763.0999999046326,39,0,310.69999980926514,10,1,experiment,NA,NA,0,0.1,0.9,1,0,8,1,NA
fcp-trial,42,308813,0.0-17.0-0.0,voc_e2,12385,"[{""event"":""fullscreenenter"",""trial"":1,""time"":1838}]",NA,NA,NA,NA,NA,5,#FA92F8,#1CD855,10,10,1,38,1,344,39,0,1116.8000001907349,10,0,experiment,NA,NA,1,0.7,0.3,2,3,9,1,NA
fcp-trial,43,311433,0.0-18.0-0.0,voc_e2,12385,"[{""event"":""fullscreenenter"",""trial"":1,""time"":1838}]",NA,NA,NA,NA,NA,0,#1CD855,#FA92F8,0,0,0,38,1,725,37,1,389.09999990463257,0,0,experiment,NA,NA,1,0.3,0.7,3,2,10,1,NA
fcp-trial,44,314703,0.0-19.0-0.0,voc_e2,12385,"[{""event"":""fullscreenenter"",""trial"":1,""time"":1838}]",NA,NA,NA,NA,NA,1,#D89F1C,#3386FF,10,10,0,38,1,1045.5,37,1,717.8000001907349,10,0,experiment,NA,NA,2,0.5,0.5,5,4,11,1,NA
fcp-trial,45,317835,0.0-20.0-0.0,voc_e2,12385,"[{""event"":""fullscreenenter"",""trial"":1,""time"":1838}]",NA,NA,NA,NA,NA,4,#3386FF,#D89F1C,10,0,1,40,0,1052.4000000953674,37,1,574.9000000953674,10,1,experiment,NA,NA,2,0.5,0.5,4,5,12,1,NA
fcp-trial,46,322007,0.0-21.0-0.0,voc_e2,12385,"[{""event"":""fullscreenenter"",""trial"":1,""time"":1838}]",NA,NA,NA,NA,NA,4,#D8271C,#741CD8,0,10,0,38,1,2358.7000002861023,39,0,307.90000009536743,10,1,experiment,NA,NA,0,0.1,0.9,1,0,13,1,NA
fcp-trial,47,326093,0.0-22.0-0.0,voc_e2,12385,"[{""event"":""fullscreenenter"",""trial"":1,""time"":1838}]",NA,NA,NA,NA,NA,1,#1CD855,#FA92F8,0,10,0,38,1,1973.8000001907349,37,1,606,0,0,experiment,NA,NA,1,0.3,0.7,3,2,14,1,NA
fcp-trial,48,330294,0.0-23.0-0.0,voc_e2,12385,"[{""event"":""fullscreenenter"",""trial"":1,""time"":1838}]",NA,NA,NA,NA,NA,2,#1CD855,#FA92F8,0,0,0,40,0,1879.6999998092651,37,1,817.8000001907349,0,0,experiment,NA,NA,1,0.3,0.7,3,2,15,1,NA
fcp-trial,49,332956,0.0-24.0-0.0,voc_e2,12385,"[{""event"":""fullscreenenter"",""trial"":1,""time"":1838}]",NA,NA,NA,NA,NA,0,#3386FF,#D89F1C,10,10,1,38,1,570.3999996185303,39,0,584.3000001907349,10,0,experiment,NA,NA,2,0.5,0.5,4,5,16,1,NA
fcp-trial,50,335854,0.0-25.0-0.0,voc_e2,12385,"[{""event"":""fullscreenenter"",""trial"":1,""time"":1838}]",NA,NA,NA,NA,NA,5,#D89F1C,#3386FF,10,0,0,40,0,745,39,0,644.5,0,1,experiment,NA,NA,2,0.5,0.5,5,4,17,1,NA
fcp-trial,51,339163,0.0-26.0-0.0,voc_e2,12385,"[{""event"":""fullscreenenter"",""trial"":1,""time"":1838}]",NA,NA,NA,NA,NA,6,#741CD8,#D8271C,10,0,1,40,0,784.4000000953674,39,0,1017.5999999046326,0,0,experiment,NA,NA,0,0.9,0.1,0,1,18,1,NA
fcp-trial,52,341889,0.0-27.0-0.0,voc_e2,12385,"[{""event"":""fullscreenenter"",""trial"":1,""time"":1838}]",NA,NA,NA,NA,NA,3,#1CD855,#FA92F8,0,10,0,38,1,900.8999996185303,37,1,319.8999996185303,0,0,experiment,NA,NA,1,0.3,0.7,3,2,19,1,NA
fcp-trial,53,344574,0.0-28.0-0.0,voc_e2,12385,"[{""event"":""fullscreenenter"",""trial"":1,""time"":1838}]",NA,NA,NA,NA,NA,2,#D89F1C,#3386FF,10,10,0,40,0,760.5,39,0,413.2999997138977,10,1,experiment,NA,NA,2,0.5,0.5,5,4,20,1,NA
fcp-trial,54,347385,0.0-29.0-0.0,voc_e2,12385,"[{""event"":""fullscreenenter"",""trial"":1,""time"":1838}]",NA,NA,NA,NA,NA,6,#3386FF,#D89F1C,10,0,1,38,1,560.0999999046326,39,0,741.2999997138977,0,0,experiment,NA,NA,2,0.5,0.5,4,5,21,1,NA
fcp-trial,55,349381,0.0-30.0-0.0,voc_e2,12385,"[{""event"":""fullscreenenter"",""trial"":1,""time"":1838}]",NA,NA,NA,NA,NA,1,#3386FF,#D89F1C,0,0,1,40,0,149.69999980926514,37,1,341.40000009536743,0,1,experiment,NA,NA,2,0.5,0.5,4,5,22,1,NA
fcp-trial,56,351551,0.0-31.0-0.0,voc_e2,12385,"[{""event"":""fullscreenenter"",""trial"":1,""time"":1838}]",NA,NA,NA,NA,NA,1,#FA92F8,#1CD855,0,0,1,40,0,236.59999990463257,37,1,428.2999997138977,0,1,experiment,NA,NA,1,0.7,0.3,2,3,23,1,NA
fcp-trial,57,353520,0.0-32.0-0.0,voc_e2,12385,"[{""event"":""fullscreenenter"",""trial"":1,""time"":1838}]",NA,NA,NA,NA,NA,5,#3386FF,#D89F1C,10,10,1,38,1,17.200000286102295,39,0,445.59999990463257,10,0,experiment,NA,NA,2,0.5,0.5,4,5,24,1,NA
fcp-trial,58,355815,0.0-33.0-0.0,voc_e2,12385,"[{""event"":""fullscreenenter"",""trial"":1,""time"":1838}]",NA,NA,NA,NA,NA,0,#741CD8,#D8271C,10,0,1,38,1,472.5,37,1,317.40000009536743,10,1,experiment,NA,NA,0,0.9,0.1,0,1,25,1,NA
fcp-trial,59,358046,0.0-34.0-0.0,voc_e2,12385,"[{""event"":""fullscreenenter"",""trial"":1,""time"":1838}]",NA,NA,NA,NA,NA,3,#741CD8,#D8271C,10,0,1,38,1,349.09999990463257,37,1,368.2000002861023,10,1,experiment,NA,NA,0,0.9,0.1,0,1,26,1,NA
fcp-trial,60,361364,0.0-35.0-0.0,voc_e2,12385,"[{""event"":""fullscreenenter"",""trial"":1,""time"":1838}]",NA,NA,NA,NA,NA,5,#FA92F8,#1CD855,10,10,1,38,1,1175.2000002861023,39,0,637.2999997138977,10,0,experiment,NA,NA,1,0.7,0.3,2,3,27,1,NA
fcp-trial,61,364313,0.0-36.0-0.0,voc_e2,12385,"[{""event"":""fullscreenenter"",""trial"":1,""time"":1838}]",NA,NA,NA,NA,NA,0,#FA92F8,#1CD855,0,0,1,38,1,1165.0999999046326,39,0,278.59999990463257,0,0,experiment,NA,NA,1,0.7,0.3,2,3,28,1,NA
fcp-trial,62,366414,0.0-37.0-0.0,voc_e2,12385,"[{""event"":""fullscreenenter"",""trial"":1,""time"":1838}]",NA,NA,NA,NA,NA,2,#3386FF,#D89F1C,10,10,1,38,1,221.5,37,1,374.90000009536743,10,1,experiment,NA,NA,2,0.5,0.5,4,5,29,1,NA
fcp-trial,63,368948,0.0-38.0-0.0,voc_e2,12385,"[{""event"":""fullscreenenter"",""trial"":1,""time"":1838}]",NA,NA,NA,NA,NA,2,#741CD8,#D8271C,10,0,1,38,1,453,39,0,572.8000001907349,0,0,experiment,NA,NA,0,0.9,0.1,0,1,30,1,NA
fcp-trial,64,371113,0.0-39.0-0.0,voc_e2,12385,"[{""event"":""fullscreenenter"",""trial"":1,""time"":1838}]",NA,NA,NA,NA,NA,6,#1CD855,#FA92F8,10,0,0,38,1,316.90000009536743,37,1,336.5,10,0,experiment,NA,NA,1,0.3,0.7,3,2,31,1,NA
fcp-trial,65,373698,0.0-40.0-0.0,voc_e2,12385,"[{""event"":""fullscreenenter"",""trial"":1,""time"":1838}]",NA,NA,NA,NA,NA,3,#D89F1C,#3386FF,10,0,0,38,1,535.7999997138977,37,1,547.6000003814697,10,0,experiment,NA,NA,2,0.5,0.5,5,4,32,1,NA
fcp-trial,66,376173,0.0-41.0-0.0,voc_e2,12385,"[{""event"":""fullscreenenter"",""trial"":1,""time"":1838}]",NA,NA,NA,NA,NA,6,#D8271C,#741CD8,0,10,0,38,1,398.19999980926514,39,0,571.0999999046326,10,1,experiment,NA,NA,0,0.1,0.9,1,0,33,1,NA
fcp-trial,67,378627,0.0-42.0-0.0,voc_e2,12385,"[{""event"":""fullscreenenter"",""trial"":1,""time"":1838}]",NA,NA,NA,NA,NA,6,#D89F1C,#3386FF,10,10,0,38,1,430.40000009536743,37,1,511.30000019073486,10,0,experiment,NA,NA,2,0.5,0.5,5,4,34,1,NA
fcp-trial,68,380817,0.0-43.0-0.0,voc_e2,12385,"[{""event"":""fullscreenenter"",""trial"":1,""time"":1838}]",NA,NA,NA,NA,NA,3,#1CD855,#FA92F8,10,10,0,38,1,327,37,1,358,10,0,experiment,NA,NA,1,0.3,0.7,3,2,35,1,NA
fcp-trial,69,383349,0.0-44.0-0.0,voc_e2,12385,"[{""event"":""fullscreenenter"",""trial"":1,""time"":1838}]",NA,NA,NA,NA,NA,0,#D89F1C,#3386FF,0,10,0,38,1,500.1000003814697,37,1,525,0,0,experiment,NA,NA,2,0.5,0.5,5,4,36,1,NA
fcp-trial,70,385754,0.0-45.0-0.0,voc_e2,12385,"[{""event"":""fullscreenenter"",""trial"":1,""time"":1838}]",NA,NA,NA,NA,NA,4,#1CD855,#FA92F8,10,10,0,38,1,346.7999997138977,37,1,551.8000001907349,10,0,experiment,NA,NA,1,0.3,0.7,3,2,37,1,NA
fcp-trial,71,388286,0.0-46.0-0.0,voc_e2,12385,"[{""event"":""fullscreenenter"",""trial"":1,""time"":1838}]",NA,NA,NA,NA,NA,5,#D8271C,#741CD8,0,10,0,38,1,696.8999996185303,39,0,329.90000009536743,10,1,experiment,NA,NA,0,0.1,0.9,1,0,38,1,NA
fcp-trial,72,390651,0.0-47.0-0.0,voc_e2,12385,"[{""event"":""fullscreenenter"",""trial"":1,""time"":1838}]",NA,NA,NA,NA,NA,2,#1CD855,#FA92F8,0,10,0,38,1,498.09999990463257,37,1,362.7000002861023,0,0,experiment,NA,NA,1,0.3,0.7,3,2,39,1,NA
fcp-trial,73,392708,0.0-48.0-0.0,voc_e2,12385,"[{""event"":""fullscreenenter"",""trial"":1,""time"":1838}]",NA,NA,NA,NA,NA,1,#D8271C,#741CD8,0,10,0,38,1,236.30000019073486,39,0,316.19999980926514,10,1,experiment,NA,NA,0,0.1,0.9,1,0,40,1,NA
fcp-trial,74,395334,0.0-49.0-0.0,voc_e2,12385,"[{""event"":""fullscreenenter"",""trial"":1,""time"":1838}]",NA,NA,NA,NA,NA,4,#3386FF,#D89F1C,0,10,1,38,1,573.9000000953674,39,0,548.8999996185303,10,0,experiment,NA,NA,2,0.5,0.5,4,5,41,1,NA
fcp-trial,75,397621,0.0-50.0-0.0,voc_e2,12385,"[{""event"":""fullscreenenter"",""trial"":1,""time"":1838}]",NA,NA,NA,NA,NA,4,#D8271C,#741CD8,0,10,0,38,1,510.59999990463257,39,0,271.7000002861023,10,1,experiment,NA,NA,0,0.1,0.9,1,0,42,1,NA
fcp-trial,76,399757,0.0-51.0-0.0,voc_e2,12385,"[{""event"":""fullscreenenter"",""trial"":1,""time"":1838}]",NA,NA,NA,NA,NA,5,#FA92F8,#1CD855,0,10,1,38,1,306.2000002861023,39,0,325.7000002861023,10,0,experiment,NA,NA,1,0.7,0.3,2,3,43,1,NA
fcp-trial,77,402047,0.0-52.0-0.0,voc_e2,12385,"[{""event"":""fullscreenenter"",""trial"":1,""time"":1838}]",NA,NA,NA,NA,NA,2,#D8271C,#741CD8,0,10,0,38,1,528.2000002861023,39,0,252.7000002861023,10,1,experiment,NA,NA,0,0.1,0.9,1,0,44,1,NA
fcp-trial,78,404194,0.0-53.0-0.0,voc_e2,12385,"[{""event"":""fullscreenenter"",""trial"":1,""time"":1838}]",NA,NA,NA,NA,NA,5,#741CD8,#D8271C,10,0,1,38,1,382.5,37,1,260.30000019073486,10,1,experiment,NA,NA,0,0.9,0.1,0,1,45,1,NA
fcp-trial,79,406830,0.0-54.0-0.0,voc_e2,12385,"[{""event"":""fullscreenenter"",""trial"":1,""time"":1838}]",NA,NA,NA,NA,NA,3,#D89F1C,#3386FF,0,0,0,38,1,529.8000001907349,39,0,601.7000002861023,0,1,experiment,NA,NA,2,0.5,0.5,5,4,46,2,NA
fcp-trial,80,409629,0.0-55.0-0.0,voc_e2,12385,"[{""event"":""fullscreenenter"",""trial"":1,""time"":1838}]",NA,NA,NA,NA,NA,0,#FA92F8,#1CD855,10,10,1,38,1,249.30000019073486,39,0,1043.5999999046326,10,0,experiment,NA,NA,1,0.7,0.3,2,3,47,2,NA
fcp-trial,81,412099,0.0-56.0-0.0,voc_e2,12385,"[{""event"":""fullscreenenter"",""trial"":1,""time"":1838}]",NA,NA,NA,NA,NA,6,#D8271C,#741CD8,0,10,0,38,1,418.40000009536743,39,0,548.3999996185303,10,1,experiment,NA,NA,0,0.1,0.9,1,0,48,2,NA
fcp-trial,82,414420,0.0-57.0-0.0,voc_e2,12385,"[{""event"":""fullscreenenter"",""trial"":1,""time"":1838}]",NA,NA,NA,NA,NA,0,#D89F1C,#3386FF,0,0,0,38,1,482.5,37,1,333,0,0,experiment,NA,NA,2,0.5,0.5,5,4,49,2,NA
fcp-trial,83,417170,0.0-58.0-0.0,voc_e2,12385,"[{""event"":""fullscreenenter"",""trial"":1,""time"":1838}]",NA,NA,NA,NA,NA,0,#741CD8,#D8271C,10,0,1,38,1,753.5,37,1,483.90000009536743,10,1,experiment,NA,NA,0,0.9,0.1,0,1,50,2,NA
fcp-trial,84,420050,0.0-59.0-0.0,voc_e2,12385,"[{""event"":""fullscreenenter"",""trial"":1,""time"":1838}]",NA,NA,NA,NA,NA,1,#D8271C,#741CD8,0,10,0,38,1,1025.2999997138977,39,0,349.7999997138977,10,1,experiment,NA,NA,0,0.1,0.9,1,0,51,2,NA
fcp-trial,85,423004,0.0-60.0-0.0,voc_e2,12385,"[{""event"":""fullscreenenter"",""trial"":1,""time"":1838}]",NA,NA,NA,NA,NA,3,#FA92F8,#1CD855,10,0,1,40,0,996,39,0,452.19999980926514,0,0,experiment,NA,NA,1,0.7,0.3,2,3,52,2,NA
fcp-trial,86,426032,0.0-61.0-0.0,voc_e2,12385,"[{""event"":""fullscreenenter"",""trial"":1,""time"":1838}]",NA,NA,NA,NA,NA,4,#D89F1C,#3386FF,10,10,0,40,0,1079.9000000953674,39,0,442,10,1,experiment,NA,NA,2,0.5,0.5,5,4,53,2,NA
fcp-trial,87,429858,0.0-62.0-0.0,voc_e2,12385,"[{""event"":""fullscreenenter"",""trial"":1,""time"":1838}]",NA,NA,NA,NA,NA,2,#FA92F8,#1CD855,10,0,1,38,1,1984.6999998092651,39,0,335.40000009536743,0,0,experiment,NA,NA,1,0.7,0.3,2,3,54,2,NA
fcp-trial,88,432622,0.0-63.0-0.0,voc_e2,12385,"[{""event"":""fullscreenenter"",""trial"":1,""time"":1838}]",NA,NA,NA,NA,NA,3,#D8271C,#741CD8,0,10,0,40,0,751.9000000953674,39,0,505.09999990463257,10,1,experiment,NA,NA,0,0.1,0.9,1,0,55,2,NA
fcp-trial,89,435071,0.0-64.0-0.0,voc_e2,12385,"[{""event"":""fullscreenenter"",""trial"":1,""time"":1838}]",NA,NA,NA,NA,NA,2,#3386FF,#D89F1C,0,10,1,40,0,522.1999998092651,39,0,422,10,0,experiment,NA,NA,2,0.5,0.5,4,5,56,2,NA
fcp-trial,90,437541,0.0-65.0-0.0,voc_e2,12385,"[{""event"":""fullscreenenter"",""trial"":1,""time"":1838}]",NA,NA,NA,NA,NA,1,#3386FF,#D89F1C,0,0,1,40,0,474.7999997138977,39,0,490.5,0,0,experiment,NA,NA,2,0.5,0.5,4,5,57,2,NA
fcp-trial,91,440103,0.0-66.0-0.0,voc_e2,12385,"[{""event"":""fullscreenenter"",""trial"":1,""time"":1838}]",NA,NA,NA,NA,NA,1,#1CD855,#FA92F8,0,10,0,38,1,626.5999999046326,37,1,427,0,0,experiment,NA,NA,1,0.3,0.7,3,2,58,2,NA
fcp-trial,92,443224,0.0-67.0-0.0,voc_e2,12385,"[{""event"":""fullscreenenter"",""trial"":1,""time"":1838}]",NA,NA,NA,NA,NA,6,#D89F1C,#3386FF,10,10,0,40,0,941.2999997138977,37,1,674.1999998092651,10,0,experiment,NA,NA,2,0.5,0.5,5,4,59,2,NA
fcp-trial,93,445638,0.0-68.0-0.0,voc_e2,12385,"[{""event"":""fullscreenenter"",""trial"":1,""time"":1838}]",NA,NA,NA,NA,NA,4,#D8271C,#741CD8,0,10,0,40,0,545.9000000953674,39,0,362.30000019073486,10,1,experiment,NA,NA,0,0.1,0.9,1,0,60,2,NA
fcp-trial,94,448529,0.0-69.0-0.0,voc_e2,12385,"[{""event"":""fullscreenenter"",""trial"":1,""time"":1838}]",NA,NA,NA,NA,NA,4,#1CD855,#FA92F8,0,0,0,40,0,921.2999997138977,37,1,463.90000009536743,0,0,experiment,NA,NA,1,0.3,0.7,3,2,61,2,NA
fcp-trial,95,452216,0.0-70.0-0.0,voc_e2,12385,"[{""event"":""fullscreenenter"",""trial"":1,""time"":1838}]",NA,NA,NA,NA,NA,5,#3386FF,#D89F1C,0,0,1,40,0,1198.5,37,1,982.3000001907347,0,1,experiment,NA,NA,2,0.5,0.5,4,5,62,2,NA
fcp-trial,96,454724,0.0-71.0-0.0,voc_e2,12385,"[{""event"":""fullscreenenter"",""trial"":1,""time"":1838}]",NA,NA,NA,NA,NA,6,#FA92F8,#1CD855,0,0,1,38,1,713.4000000953674,39,0,289.40000009536743,0,0,experiment,NA,NA,1,0.7,0.3,2,3,63,2,NA
fcp-trial,97,457477,0.0-72.0-0.0,voc_e2,12385,"[{""event"":""fullscreenenter"",""trial"":1,""time"":1838}]",NA,NA,NA,NA,NA,6,#3386FF,#D89F1C,10,0,1,40,0,456.2999997138977,37,1,791.8999996185303,10,1,experiment,NA,NA,2,0.5,0.5,4,5,64,2,NA
fcp-trial,98,460345,0.0-73.0-0.0,voc_e2,12385,"[{""event"":""fullscreenenter"",""trial"":1,""time"":1838}]",NA,NA,NA,NA,NA,6,#D8271C,#741CD8,0,10,0,40,0,655,37,1,707,0,0,experiment,NA,NA,0,0.1,0.9,1,0,65,2,NA
fcp-trial,99,463171,0.0-74.0-0.0,voc_e2,12385,"[{""event"":""fullscreenenter"",""trial"":1,""time"":1838}]",NA,NA,NA,NA,NA,4,#1CD855,#FA92F8,0,10,0,40,0,629.7999997138977,39,0,690.5999999046326,10,1,experiment,NA,NA,1,0.3,0.7,3,2,66,2,NA
fcp-trial,100,467054,0.0-75.0-0.0,voc_e2,12385,"[{""event"":""fullscreenenter"",""trial"":1,""time"":1838}]",NA,NA,NA,NA,NA,1,#741CD8,#D8271C,10,10,1,38,1,1934.1999998092651,37,1,444.40000009536743,10,1,experiment,NA,NA,0,0.9,0.1,0,1,67,2,NA
fcp-trial,101,470953,0.0-76.0-0.0,voc_e2,12385,"[{""event"":""fullscreenenter"",""trial"":1,""time"":1838}]",NA,NA,NA,NA,NA,2,#1CD855,#FA92F8,0,10,0,38,1,1183.4000000953674,37,1,1210.9000000953674,0,0,experiment,NA,NA,1,0.3,0.7,3,2,68,2,NA
fcp-trial,102,473498,0.0-77.0-0.0,voc_e2,12385,"[{""event"":""fullscreenenter"",""trial"":1,""time"":1838}]",NA,NA,NA,NA,NA,1,#D89F1C,#3386FF,10,10,0,38,1,680.7999997138977,39,0,358.2000002861023,10,1,experiment,NA,NA,2,0.5,0.5,5,4,69,2,NA
fcp-trial,103,476358,0.0-78.0-0.0,voc_e2,12385,"[{""event"":""fullscreenenter"",""trial"":1,""time"":1838}]",NA,NA,NA,NA,NA,2,#D8271C,#741CD8,0,10,0,38,1,1067.5,39,0,287,10,1,experiment,NA,NA,0,0.1,0.9,1,0,70,2,NA
fcp-trial,104,480398,0.0-79.0-0.0,voc_e2,12385,"[{""event"":""fullscreenenter"",""trial"":1,""time"":1838}]",NA,NA,NA,NA,NA,4,#741CD8,#D8271C,10,0,1,40,0,2219,37,1,315.69999980926514,10,1,experiment,NA,NA,0,0.9,0.1,0,1,71,2,NA
fcp-trial,105,483827,0.0-80.0-0.0,voc_e2,12385,"[{""event"":""fullscreenenter"",""trial"":1,""time"":1838}]",NA,NA,NA,NA,NA,5,#1CD855,#FA92F8,0,0,0,40,0,1268.5999999046326,39,0,656.8000001907349,0,1,experiment,NA,NA,1,0.3,0.7,3,2,72,2,NA
fcp-trial,106,486740,0.0-81.0-0.0,voc_e2,12385,"[{""event"":""fullscreenenter"",""trial"":1,""time"":1838}]",NA,NA,NA,NA,NA,1,#1CD855,#FA92F8,0,10,0,38,1,992.9000000953674,37,1,413.7000002861023,0,0,experiment,NA,NA,1,0.3,0.7,3,2,73,2,NA
fcp-trial,107,490325,0.0-82.0-0.0,voc_e2,12385,"[{""event"":""fullscreenenter"",""trial"":1,""time"":1838}]",NA,NA,NA,NA,NA,4,#D89F1C,#3386FF,0,0,0,40,0,1443.1999998092651,37,1,637.2000002861023,0,0,experiment,NA,NA,2,0.5,0.5,5,4,74,2,NA
fcp-trial,108,493318,0.0-83.0-0.0,voc_e2,12385,"[{""event"":""fullscreenenter"",""trial"":1,""time"":1838}]",NA,NA,NA,NA,NA,5,#3386FF,#D89F1C,0,10,1,40,0,945.5999999046326,39,0,539.2000002861023,10,0,experiment,NA,NA,2,0.5,0.5,4,5,75,2,NA
fcp-trial,109,496745,0.0-84.0-0.0,voc_e2,12385,"[{""event"":""fullscreenenter"",""trial"":1,""time"":1838}]",NA,NA,NA,NA,NA,5,#D8271C,#741CD8,0,10,0,40,0,1494.3999996185303,37,1,427.90000009536743,0,0,experiment,NA,NA,0,0.1,0.9,1,0,76,2,NA
fcp-trial,110,499968,0.0-85.0-0.0,voc_e2,12385,"[{""event"":""fullscreenenter"",""trial"":1,""time"":1838}]",NA,NA,NA,NA,NA,6,#1CD855,#FA92F8,0,10,0,40,0,1085.2999997138977,39,0,632.5,10,1,experiment,NA,NA,1,0.3,0.7,3,2,77,2,NA
fcp-trial,111,502915,0.0-86.0-0.0,voc_e2,12385,"[{""event"":""fullscreenenter"",""trial"":1,""time"":1838}]",NA,NA,NA,NA,NA,3,#3386FF,#D89F1C,0,10,1,40,0,1062,39,0,379.59999990463257,10,0,experiment,NA,NA,2,0.5,0.5,4,5,78,2,NA
fcp-trial,112,505437,0.0-87.0-0.0,voc_e2,12385,"[{""event"":""fullscreenenter"",""trial"":1,""time"":1838}]",NA,NA,NA,NA,NA,3,#1CD855,#FA92F8,0,10,0,38,1,662.9000000953674,37,1,353,0,0,experiment,NA,NA,1,0.3,0.7,3,2,79,2,NA
fcp-trial,113,508000,0.0-88.0-0.0,voc_e2,12385,"[{""event"":""fullscreenenter"",""trial"":1,""time"":1838}]",NA,NA,NA,NA,NA,0,#3386FF,#D89F1C,10,10,1,40,0,666.8000001907349,39,0,389.09999990463257,10,0,experiment,NA,NA,2,0.5,0.5,4,5,80,2,NA
fcp-trial,114,512606,0.0-89.0-0.0,voc_e2,12385,"[{""event"":""fullscreenenter"",""trial"":1,""time"":1838}]",NA,NA,NA,NA,NA,0,#741CD8,#D8271C,10,0,1,38,1,1789.7999997138977,37,1,1311.6999998092651,10,1,experiment,NA,NA,0,0.9,0.1,0,1,81,2,NA
fcp-trial,115,516702,0.0-90.0-0.0,voc_e2,12385,"[{""event"":""fullscreenenter"",""trial"":1,""time"":1838}]",NA,NA,NA,NA,NA,3,#741CD8,#D8271C,10,0,1,40,0,2203.7999997138977,39,0,385.5,0,0,experiment,NA,NA,0,0.9,0.1,0,1,82,2,NA
fcp-trial,116,519934,0.0-91.0-0.0,voc_e2,12385,"[{""event"":""fullscreenenter"",""trial"":1,""time"":1838}]",NA,NA,NA,NA,NA,0,#FA92F8,#1CD855,10,0,1,38,1,1368.7000002861023,39,0,359.19999980926514,0,0,experiment,NA,NA,1,0.7,0.3,2,3,83,2,NA
fcp-trial,117,523330,0.0-92.0-0.0,voc_e2,12385,"[{""event"":""fullscreenenter"",""trial"":1,""time"":1838}]",NA,NA,NA,NA,NA,2,#3386FF,#D89F1C,10,10,1,40,0,1562.4000000953674,39,0,327.5,10,0,experiment,NA,NA,2,0.5,0.5,4,5,84,2,NA
fcp-trial,118,526525,0.0-93.0-0.0,voc_e2,12385,"[{""event"":""fullscreenenter"",""trial"":1,""time"":1838}]",NA,NA,NA,NA,NA,4,#1CD855,#FA92F8,0,10,0,40,0,982.8000001907349,37,1,707.1999998092651,0,0,experiment,NA,NA,1,0.3,0.7,3,2,85,2,NA
fcp-trial,119,529965,0.0-94.0-0.0,voc_e2,12385,"[{""event"":""fullscreenenter"",""trial"":1,""time"":1838}]",NA,NA,NA,NA,NA,5,#741CD8,#D8271C,10,0,1,38,1,693.5999999046326,37,1,1240.8000001907349,10,1,experiment,NA,NA,0,0.9,0.1,0,1,86,2,NA
fcp-trial,120,534040,0.0-95.0-0.0,voc_e2,12385,"[{""event"":""fullscreenenter"",""trial"":1,""time"":1838}]",NA,NA,NA,NA,NA,1,#D89F1C,#3386FF,0,10,0,38,1,1986.3000001907349,39,0,582.2000002861023,10,1,experiment,NA,NA,2,0.5,0.5,5,4,87,2,NA
fcp-trial,121,536930,0.0-96.0-0.0,voc_e2,12385,"[{""event"":""fullscreenenter"",""trial"":1,""time"":1838}]",NA,NA,NA,NA,NA,5,#FA92F8,#1CD855,0,10,1,38,1,767.6999998092651,39,0,616.5,10,0,experiment,NA,NA,1,0.7,0.3,2,3,88,2,NA
fcp-trial,122,540675,0.0-97.0-0.0,voc_e2,12385,"[{""event"":""fullscreenenter"",""trial"":1,""time"":1838}]",NA,NA,NA,NA,NA,3,#D89F1C,#3386FF,10,10,0,40,0,1658.6999998092651,37,1,580.3000001907349,10,0,experiment,NA,NA,2,0.5,0.5,5,4,89,2,NA
fcp-trial,123,543619,0.0-98.0-0.0,voc_e2,12385,"[{""event"":""fullscreenenter"",""trial"":1,""time"":1838}]",NA,NA,NA,NA,NA,2,#FA92F8,#1CD855,10,0,1,40,0,805.1999998092651,37,1,633.4000000953674,10,1,experiment,NA,NA,1,0.7,0.3,2,3,90,2,NA
fcp-trial,124,546784,0.0-99.0-0.0,voc_e2,12385,"[{""event"":""fullscreenenter"",""trial"":1,""time"":1838}]",NA,NA,NA,NA,NA,4,#D8271C,#741CD8,0,10,0,40,0,938.5999999046326,37,1,720.3000001907349,0,0,experiment,NA,NA,0,0.1,0.9,1,0,91,3,NA
fcp-trial,125,550710,0.0-100.0-0.0,voc_e2,12385,"[{""event"":""fullscreenenter"",""trial"":1,""time"":1838}]",NA,NA,NA,NA,NA,6,#741CD8,#D8271C,10,0,1,40,0,2008.7000002861023,37,1,412.2999997138977,10,1,experiment,NA,NA,0,0.9,0.1,0,1,92,3,NA
fcp-trial,126,554937,0.0-101.0-0.0,voc_e2,12385,"[{""event"":""fullscreenenter"",""trial"":1,""time"":1838}]",NA,NA,NA,NA,NA,3,#FA92F8,#1CD855,0,0,1,40,0,2266.0999999046326,39,0,455.5,0,0,experiment,NA,NA,1,0.7,0.3,2,3,93,3,NA
fcp-trial,127,559675,0.0-102.0-0.0,voc_e2,12385,"[{""event"":""fullscreenenter"",""trial"":1,""time"":1838}]",NA,NA,NA,NA,NA,4,#D89F1C,#3386FF,0,10,0,40,0,2662.5,39,0,571,10,1,experiment,NA,NA,2,0.5,0.5,5,4,94,3,NA
fcp-trial,128,563050,0.0-103.0-0.0,voc_e2,12385,"[{""event"":""fullscreenenter"",""trial"":1,""time"":1838}]",NA,NA,NA,NA,NA,2,#741CD8,#D8271C,0,0,1,40,0,1203.8000001907349,37,1,665.5,0,1,experiment,NA,NA,0,0.9,0.1,0,1,95,3,NA
fcp-trial,129,566633,0.0-104.0-0.0,voc_e2,12385,"[{""event"":""fullscreenenter"",""trial"":1,""time"":1838}]",NA,NA,NA,NA,NA,2,#3386FF,#D89F1C,0,10,1,38,1,1675.3000001907349,37,1,400,0,1,experiment,NA,NA,2,0.5,0.5,4,5,96,3,NA
fcp-trial,130,570085,0.0-105.0-0.0,voc_e2,12385,"[{""event"":""fullscreenenter"",""trial"":1,""time"":1838}]",NA,NA,NA,NA,NA,1,#1CD855,#FA92F8,0,10,0,40,0,1431.1999998092651,37,1,514.8000001907349,0,0,experiment,NA,NA,1,0.3,0.7,3,2,97,3,NA
fcp-trial,131,572790,0.0-106.0-0.0,voc_e2,12385,"[{""event"":""fullscreenenter"",""trial"":1,""time"":1838}]",NA,NA,NA,NA,NA,0,#1CD855,#FA92F8,0,10,0,38,1,718.0999999046326,39,0,482.90000009536743,10,1,experiment,NA,NA,1,0.3,0.7,3,2,98,3,NA
fcp-trial,132,575538,0.0-107.0-0.0,voc_e2,12385,"[{""event"":""fullscreenenter"",""trial"":1,""time"":1838}]",NA,NA,NA,NA,NA,0,#741CD8,#D8271C,10,0,1,38,1,850.0999999046326,37,1,394.09999990463257,10,1,experiment,NA,NA,0,0.9,0.1,0,1,99,3,NA
fcp-trial,133,578281,0.0-108.0-0.0,voc_e2,12385,"[{""event"":""fullscreenenter"",""trial"":1,""time"":1838}]",NA,NA,NA,NA,NA,3,#D8271C,#741CD8,0,10,0,40,0,745.9000000953674,39,0,489.90000009536743,10,1,experiment,NA,NA,0,0.1,0.9,1,0,100,3,NA
fcp-trial,134,581551,0.0-109.0-0.0,voc_e2,12385,"[{""event"":""fullscreenenter"",""trial"":1,""time"":1838}]",NA,NA,NA,NA,NA,5,#D89F1C,#3386FF,10,10,0,40,0,1315.3999996185303,39,0,448.7000002861023,10,1,experiment,NA,NA,2,0.5,0.5,5,4,101,3,NA
fcp-trial,135,584224,0.0-110.0-0.0,voc_e2,12385,"[{""event"":""fullscreenenter"",""trial"":1,""time"":1838}]",NA,NA,NA,NA,NA,6,#3386FF,#D89F1C,0,0,1,40,0,818.8000001907349,37,1,350.6000003814697,0,1,experiment,NA,NA,2,0.5,0.5,4,5,102,3,NA
fcp-trial,136,586882,0.0-111.0-0.0,voc_e2,12385,"[{""event"":""fullscreenenter"",""trial"":1,""time"":1838}]",NA,NA,NA,NA,NA,6,#FA92F8,#1CD855,10,0,1,40,0,716.5999999046326,39,0,435.19999980926514,0,0,experiment,NA,NA,1,0.7,0.3,2,3,103,3,NA
fcp-trial,137,589761,0.0-112.0-0.0,voc_e2,12385,"[{""event"":""fullscreenenter"",""trial"":1,""time"":1838}]",NA,NA,NA,NA,NA,1,#D8271C,#741CD8,0,10,0,38,1,1121.0999999046326,39,0,253.09999990463257,10,1,experiment,NA,NA,0,0.1,0.9,1,0,104,3,NA
fcp-trial,138,593318,0.0-113.0-0.0,voc_e2,12385,"[{""event"":""fullscreenenter"",""trial"":1,""time"":1838}]",NA,NA,NA,NA,NA,0,#3386FF,#D89F1C,0,0,1,38,1,1795.6999998092651,37,1,255.90000009536743,0,1,experiment,NA,NA,2,0.5,0.5,4,5,105,3,NA
audio-instructions,139,598888,0.0-114.0,voc_e2,12385,"[{""event"":""fullscreenenter"",""trial"":1,""time"":1838}]",NA,455.80000019073486,static/audio/pause.wav,NA,0,NA,NA,NA,NA,NA,NA,NA,NA,NA,NA,NA,NA,NA,NA,NA,NA,NA,NA,NA,NA,NA,NA,NA,NA,NA
fcp-trial,140,602413,0.0-115.0-0.0,voc_e2,12385,"[{""event"":""fullscreenenter"",""trial"":1,""time"":1838}]",NA,NA,NA,NA,NA,6,#1CD855,#FA92F8,0,0,0,40,0,1552,37,1,463.5,0,0,experiment,NA,NA,1,0.3,0.7,3,2,106,3,NA
fcp-trial,141,605332,0.0-116.0-0.0,voc_e2,12385,"[{""event"":""fullscreenenter"",""trial"":1,""time"":1838}]",NA,NA,NA,NA,NA,4,#741CD8,#D8271C,10,0,1,40,0,976.2999997138977,37,1,431.19999980926514,10,1,experiment,NA,NA,0,0.9,0.1,0,1,107,3,NA
fcp-trial,142,608000,0.0-117.0-0.0,voc_e2,12385,"[{""event"":""fullscreenenter"",""trial"":1,""time"":1838}]",NA,NA,NA,NA,NA,0,#1CD855,#FA92F8,0,0,0,40,0,628.3000001907349,37,1,534.5999999046326,0,0,experiment,NA,NA,1,0.3,0.7,3,2,108,3,NA
fcp-trial,143,610965,0.0-118.0-0.0,voc_e2,12385,"[{""event"":""fullscreenenter"",""trial"":1,""time"":1838}]",NA,NA,NA,NA,NA,4,#3386FF,#D89F1C,0,0,1,40,0,1050.3000001907349,37,1,401.30000019073486,0,1,experiment,NA,NA,2,0.5,0.5,4,5,109,3,NA
fcp-trial,144,613615,0.0-119.0-0.0,voc_e2,12385,"[{""event"":""fullscreenenter"",""trial"":1,""time"":1838}]",NA,NA,NA,NA,NA,0,#D89F1C,#3386FF,10,0,0,38,1,549.2999997138977,39,0,579.8999996185303,0,1,experiment,NA,NA,2,0.5,0.5,5,4,110,3,NA
fcp-trial,145,616013,0.0-120.0-0.0,voc_e2,12385,"[{""event"":""fullscreenenter"",""trial"":1,""time"":1838}]",NA,NA,NA,NA,NA,6,#D8271C,#741CD8,0,10,0,38,1,526.1000003814697,39,0,360.90000009536743,10,1,experiment,NA,NA,0,0.1,0.9,1,0,111,3,NA
fcp-trial,146,618940,0.0-121.0-0.0,voc_e2,12385,"[{""event"":""fullscreenenter"",""trial"":1,""time"":1838}]",NA,NA,NA,NA,NA,1,#741CD8,#D8271C,10,0,1,38,1,785.0999999046326,37,1,622.3000001907349,10,1,experiment,NA,NA,0,0.9,0.1,0,1,112,3,NA
fcp-trial,147,621990,0.0-122.0-0.0,voc_e2,12385,"[{""event"":""fullscreenenter"",""trial"":1,""time"":1838}]",NA,NA,NA,NA,NA,3,#FA92F8,#1CD855,0,10,1,40,0,1029,37,1,510.90000009536743,0,1,experiment,NA,NA,1,0.7,0.3,2,3,113,3,NA
fcp-trial,148,624875,0.0-123.0-0.0,voc_e2,12385,"[{""event"":""fullscreenenter"",""trial"":1,""time"":1838}]",NA,NA,NA,NA,NA,5,#D89F1C,#3386FF,0,10,0,38,1,924.0999999046326,39,0,440,10,1,experiment,NA,NA,2,0.5,0.5,5,4,114,3,NA
fcp-trial,149,628271,0.0-124.0-0.0,voc_e2,12385,"[{""event"":""fullscreenenter"",""trial"":1,""time"":1838}]",NA,NA,NA,NA,NA,5,#D8271C,#741CD8,0,10,0,40,0,1307.8000001907349,37,1,580,0,0,experiment,NA,NA,0,0.1,0.9,1,0,115,3,NA
fcp-trial,150,631194,0.0-125.0-0.0,voc_e2,12385,"[{""event"":""fullscreenenter"",""trial"":1,""time"":1838}]",NA,NA,NA,NA,NA,2,#741CD8,#D8271C,10,0,1,40,0,901.5,39,0,514.9000000953674,0,0,experiment,NA,NA,0,0.9,0.1,0,1,116,3,NA
fcp-trial,151,634156,0.0-126.0-0.0,voc_e2,12385,"[{""event"":""fullscreenenter"",""trial"":1,""time"":1838}]",NA,NA,NA,NA,NA,5,#FA92F8,#1CD855,10,10,1,40,0,1053.9000000953674,37,1,402.19999980926514,10,1,experiment,NA,NA,1,0.7,0.3,2,3,117,3,NA
fcp-trial,152,637234,0.0-127.0-0.0,voc_e2,12385,"[{""event"":""fullscreenenter"",""trial"":1,""time"":1838}]",NA,NA,NA,NA,NA,4,#1CD855,#FA92F8,0,10,0,40,0,1149.2000002861023,39,0,424.40000009536743,10,1,experiment,NA,NA,1,0.3,0.7,3,2,118,3,NA
fcp-trial,153,640010,0.0-128.0-0.0,voc_e2,12385,"[{""event"":""fullscreenenter"",""trial"":1,""time"":1838}]",NA,NA,NA,NA,NA,3,#3386FF,#D89F1C,0,10,1,40,0,916.5,37,1,354.8999996185303,0,1,experiment,NA,NA,2,0.5,0.5,4,5,119,3,NA
fcp-trial,154,643699,0.0-129.0-0.0,voc_e2,12385,"[{""event"":""fullscreenenter"",""trial"":1,""time"":1838}]",NA,NA,NA,NA,NA,0,#D8271C,#741CD8,0,10,0,38,1,1350.9000000953674,39,0,822,10,1,experiment,NA,NA,0,0.1,0.9,1,0,120,3,NA
fcp-trial,155,646704,0.0-130.0-0.0,voc_e2,12385,"[{""event"":""fullscreenenter"",""trial"":1,""time"":1838}]",NA,NA,NA,NA,NA,1,#3386FF,#D89F1C,0,10,1,38,1,1214.6999998092651,39,0,283,10,0,experiment,NA,NA,2,0.5,0.5,4,5,121,3,NA
fcp-trial,156,649309,0.0-131.0-0.0,voc_e2,12385,"[{""event"":""fullscreenenter"",""trial"":1,""time"":1838}]",NA,NA,NA,NA,NA,6,#D89F1C,#3386FF,10,10,0,38,1,695.5999999046326,37,1,404.59999990463257,10,0,experiment,NA,NA,2,0.5,0.5,5,4,122,3,NA
fcp-trial,157,653318,0.0-132.0-0.0,voc_e2,12385,"[{""event"":""fullscreenenter"",""trial"":1,""time"":1838}]",NA,NA,NA,NA,NA,2,#FA92F8,#1CD855,10,0,1,40,0,2062.199999809265,37,1,440,10,1,experiment,NA,NA,1,0.7,0.3,2,3,123,3,NA
fcp-trial,158,657161,0.0-133.0-0.0,voc_e2,12385,"[{""event"":""fullscreenenter"",""trial"":1,""time"":1838}]",NA,NA,NA,NA,NA,3,#741CD8,#D8271C,10,0,1,40,0,1999.3000001907349,37,1,338.30000019073486,10,1,experiment,NA,NA,0,0.9,0.1,0,1,124,3,NA
fcp-trial,159,659857,0.0-134.0-0.0,voc_e2,12385,"[{""event"":""fullscreenenter"",""trial"":1,""time"":1838}]",NA,NA,NA,NA,NA,2,#3386FF,#D89F1C,10,0,1,40,0,934.2000002861023,39,0,255.59999990463257,0,0,experiment,NA,NA,2,0.5,0.5,4,5,125,3,NA
fcp-trial,160,662319,0.0-135.0-0.0,voc_e2,12385,"[{""event"":""fullscreenenter"",""trial"":1,""time"":1838}]",NA,NA,NA,NA,NA,1,#FA92F8,#1CD855,10,0,1,38,1,490.40000009536743,37,1,466.1000003814697,10,1,experiment,NA,NA,1,0.7,0.3,2,3,126,3,NA
fcp-trial,161,664917,0.0-136.0-0.0,voc_e2,12385,"[{""event"":""fullscreenenter"",""trial"":1,""time"":1838}]",NA,NA,NA,NA,NA,6,#1CD855,#FA92F8,10,10,0,40,0,528.9000000953674,37,1,562.2000002861023,10,0,experiment,NA,NA,1,0.3,0.7,3,2,127,3,NA
fcp-trial,162,667964,0.0-137.0-0.0,voc_e2,12385,"[{""event"":""fullscreenenter"",""trial"":1,""time"":1838}]",NA,NA,NA,NA,NA,0,#1CD855,#FA92F8,0,10,0,38,1,1195.4000000953674,39,0,346.30000019073486,10,1,experiment,NA,NA,1,0.3,0.7,3,2,128,3,NA
fcp-trial,163,670833,0.0-138.0-0.0,voc_e2,12385,"[{""event"":""fullscreenenter"",""trial"":1,""time"":1838}]",NA,NA,NA,NA,NA,6,#3386FF,#D89F1C,0,10,1,40,0,984.9000000953674,37,1,376.80000019073486,0,1,experiment,NA,NA,2,0.5,0.5,4,5,129,3,NA
fcp-trial,164,673391,0.0-139.0-0.0,voc_e2,12385,"[{""event"":""fullscreenenter"",""trial"":1,""time"":1838}]",NA,NA,NA,NA,NA,4,#D8271C,#741CD8,0,0,0,38,1,746.1999998092651,39,0,306.3999996185303,0,1,experiment,NA,NA,0,0.1,0.9,1,0,130,3,NA
fcp-trial,165,676131,0.0-140.0-0.0,voc_e2,12385,"[{""event"":""fullscreenenter"",""trial"":1,""time"":1838}]",NA,NA,NA,NA,NA,4,#FA92F8,#1CD855,10,0,1,40,0,771.4000000953674,37,1,462.40000009536743,10,1,experiment,NA,NA,1,0.7,0.3,2,3,131,3,NA
fcp-trial,166,678714,0.0-141.0-0.0,voc_e2,12385,"[{""event"":""fullscreenenter"",""trial"":1,""time"":1838}]",NA,NA,NA,NA,NA,1,#741CD8,#D8271C,0,0,1,40,0,662.8999996185303,39,0,413,0,0,experiment,NA,NA,0,0.9,0.1,0,1,132,3,NA
fcp-trial,167,681101,0.0-142.0-0.0,voc_e2,12385,"[{""event"":""fullscreenenter"",""trial"":1,""time"":1838}]",NA,NA,NA,NA,NA,2,#D8271C,#741CD8,0,10,0,38,1,624,39,0,256.69999980926514,10,1,experiment,NA,NA,0,0.1,0.9,1,0,133,3,NA
fcp-trial,168,684302,0.0-143.0-0.0,voc_e2,12385,"[{""event"":""fullscreenenter"",""trial"":1,""time"":1838}]",NA,NA,NA,NA,NA,2,#3386FF,#D89F1C,0,10,1,40,0,1125.9000000953674,39,0,569.3999996185303,10,0,experiment,NA,NA,2,0.5,0.5,4,5,134,3,NA
fcp-trial,169,687869,0.0-144.0-0.0,voc_e2,12385,"[{""event"":""fullscreenenter"",""trial"":1,""time"":1838}]",NA,NA,NA,NA,NA,1,#3386FF,#D89F1C,0,10,1,38,1,1770.9000000953674,37,1,291.80000019073486,0,1,experiment,NA,NA,2,0.5,0.5,4,5,135,3,NA
fcp-trial,170,690691,0.0-145.0-0.0,voc_e2,12385,"[{""event"":""fullscreenenter"",""trial"":1,""time"":1838}]",NA,NA,NA,NA,NA,1,#1CD855,#FA92F8,0,10,0,38,1,840.5999999046326,39,0,477.80000019073486,10,1,experiment,NA,NA,1,0.3,0.7,3,2,136,4,NA
fcp-trial,171,693513,0.0-146.0-0.0,voc_e2,12385,"[{""event"":""fullscreenenter"",""trial"":1,""time"":1838}]",NA,NA,NA,NA,NA,5,#741CD8,#D8271C,10,0,1,38,1,622,37,1,695.8000001907349,10,1,experiment,NA,NA,0,0.9,0.1,0,1,137,4,NA
fcp-trial,172,695950,0.0-147.0-0.0,voc_e2,12385,"[{""event"":""fullscreenenter"",""trial"":1,""time"":1838}]",NA,NA,NA,NA,NA,5,#FA92F8,#1CD855,10,0,1,38,1,497.09999990463257,39,0,431.69999980926514,0,0,experiment,NA,NA,1,0.7,0.3,2,3,138,4,NA
fcp-trial,173,698847,0.0-148.0-0.0,voc_e2,12385,"[{""event"":""fullscreenenter"",""trial"":1,""time"":1838}]",NA,NA,NA,NA,NA,0,#D89F1C,#3386FF,10,10,0,38,1,558.1999998092651,37,1,832.6999998092651,10,0,experiment,NA,NA,2,0.5,0.5,5,4,139,4,NA
fcp-trial,174,701294,0.0-149.0-0.0,voc_e2,12385,"[{""event"":""fullscreenenter"",""trial"":1,""time"":1838}]",NA,NA,NA,NA,NA,6,#D8271C,#741CD8,0,10,0,38,1,597.0999999046326,39,0,343,10,1,experiment,NA,NA,0,0.1,0.9,1,0,140,4,NA
fcp-trial,175,704187,0.0-150.0-0.0,voc_e2,12385,"[{""event"":""fullscreenenter"",""trial"":1,""time"":1838}]",NA,NA,NA,NA,NA,3,#3386FF,#D89F1C,0,10,1,38,1,602,39,0,784.6999998092651,10,0,experiment,NA,NA,2,0.5,0.5,4,5,141,4,NA
fcp-trial,176,707972,0.0-151.0-0.0,voc_e2,12385,"[{""event"":""fullscreenenter"",""trial"":1,""time"":1838}]",NA,NA,NA,NA,NA,2,#1CD855,#FA92F8,10,10,0,38,1,902,39,0,1378.3999996185305,10,1,experiment,NA,NA,1,0.3,0.7,3,2,142,4,NA
fcp-trial,177,710703,0.0-152.0-0.0,voc_e2,12385,"[{""event"":""fullscreenenter"",""trial"":1,""time"":1838}]",NA,NA,NA,NA,NA,0,#741CD8,#D8271C,0,10,1,38,1,963,37,1,262.8999996185303,0,1,experiment,NA,NA,0,0.9,0.1,0,1,143,4,NA
fcp-trial,178,713272,0.0-153.0-0.0,voc_e2,12385,"[{""event"":""fullscreenenter"",""trial"":1,""time"":1838}]",NA,NA,NA,NA,NA,4,#D89F1C,#3386FF,10,0,0,38,1,717.3000001907349,37,1,346.7999997138977,10,0,experiment,NA,NA,2,0.5,0.5,5,4,144,4,NA
fcp-trial,179,715924,0.0-154.0-0.0,voc_e2,12385,"[{""event"":""fullscreenenter"",""trial"":1,""time"":1838}]",NA,NA,NA,NA,NA,3,#1CD855,#FA92F8,0,10,0,40,0,657.1999998092651,39,0,489.69999980926514,10,1,experiment,NA,NA,1,0.3,0.7,3,2,145,4,NA
fcp-trial,180,718553,0.0-155.0-0.0,voc_e2,12385,"[{""event"":""fullscreenenter"",""trial"":1,""time"":1838}]",NA,NA,NA,NA,NA,5,#D89F1C,#3386FF,10,0,0,40,0,706.4000000953674,37,1,417.59999990463257,10,0,experiment,NA,NA,2,0.5,0.5,5,4,146,4,NA
fcp-trial,181,721300,0.0-156.0-0.0,voc_e2,12385,"[{""event"":""fullscreenenter"",""trial"":1,""time"":1838}]",NA,NA,NA,NA,NA,3,#741CD8,#D8271C,10,0,1,40,0,954.3000001907349,37,1,286.69999980926514,10,1,experiment,NA,NA,0,0.9,0.1,0,1,147,4,NA
fcp-trial,182,725064,0.0-157.0-0.0,voc_e2,12385,"[{""event"":""fullscreenenter"",""trial"":1,""time"":1838}]",NA,NA,NA,NA,NA,1,#D8271C,#741CD8,0,10,0,38,1,1999.8000001907349,39,0,257.90000009536743,10,1,experiment,NA,NA,0,0.1,0.9,1,0,148,4,NA
fcp-trial,183,728257,0.0-158.0-0.0,voc_e2,12385,"[{""event"":""fullscreenenter"",""trial"":1,""time"":1838}]",NA,NA,NA,NA,NA,4,#FA92F8,#1CD855,10,0,1,40,0,1257.7999997138977,39,0,430.59999990463257,0,0,experiment,NA,NA,1,0.7,0.3,2,3,149,4,NA
fcp-trial,184,732070,0.0-159.0-0.0,voc_e2,12385,"[{""event"":""fullscreenenter"",""trial"":1,""time"":1838}]",NA,NA,NA,NA,NA,3,#3386FF,#D89F1C,10,0,1,40,0,1929.0999999046326,37,1,378.8999996185303,10,1,experiment,NA,NA,2,0.5,0.5,4,5,150,4,NA
fcp-trial,185,735462,0.0-160.0-0.0,voc_e2,12385,"[{""event"":""fullscreenenter"",""trial"":1,""time"":1838}]",NA,NA,NA,NA,NA,6,#741CD8,#D8271C,10,0,1,38,1,962.0999999046326,37,1,923.3999996185304,10,1,experiment,NA,NA,0,0.9,0.1,0,1,151,4,NA
fcp-trial,186,738446,0.0-161.0-0.0,voc_e2,12385,"[{""event"":""fullscreenenter"",""trial"":1,""time"":1838}]",NA,NA,NA,NA,NA,6,#3386FF,#D89F1C,0,10,1,40,0,587,37,1,892.4000000953674,0,1,experiment,NA,NA,2,0.5,0.5,4,5,152,4,NA
fcp-trial,187,741627,0.0-162.0-0.0,voc_e2,12385,"[{""event"":""fullscreenenter"",""trial"":1,""time"":1838}]",NA,NA,NA,NA,NA,3,#741CD8,#D8271C,10,0,1,38,1,1194.4000000953674,37,1,483.30000019073486,10,1,experiment,NA,NA,0,0.9,0.1,0,1,153,4,NA
fcp-trial,188,744832,0.0-163.0-0.0,voc_e2,12385,"[{""event"":""fullscreenenter"",""trial"":1,""time"":1838}]",NA,NA,NA,NA,NA,5,#1CD855,#FA92F8,0,0,0,40,0,1157.5,37,1,540.2000002861023,0,0,experiment,NA,NA,1,0.3,0.7,3,2,154,4,NA
fcp-trial,189,748000,0.0-164.0-0.0,voc_e2,12385,"[{""event"":""fullscreenenter"",""trial"":1,""time"":1838}]",NA,NA,NA,NA,NA,2,#D89F1C,#3386FF,0,0,0,40,0,1297.8000001907349,39,0,365.59999990463257,0,1,experiment,NA,NA,2,0.5,0.5,5,4,155,4,NA
fcp-trial,190,750467,0.0-165.0-0.0,voc_e2,12385,"[{""event"":""fullscreenenter"",""trial"":1,""time"":1838}]",NA,NA,NA,NA,NA,2,#741CD8,#D8271C,10,0,1,38,1,598.7000002861023,37,1,363.5,10,1,experiment,NA,NA,0,0.9,0.1,0,1,156,4,NA
fcp-trial,191,753642,0.0-166.0-0.0,voc_e2,12385,"[{""event"":""fullscreenenter"",""trial"":1,""time"":1838}]",NA,NA,NA,NA,NA,0,#1CD855,#FA92F8,10,10,0,38,1,1277.1000003814697,39,0,393.69999980926514,10,1,experiment,NA,NA,1,0.3,0.7,3,2,157,4,NA
fcp-trial,192,759995,0.0-167.0-0.0,voc_e2,12385,"[{""event"":""fullscreenenter"",""trial"":1,""time"":1838}]",NA,NA,NA,NA,NA,1,#FA92F8,#1CD855,0,0,1,38,1,4513.900000095367,37,1,335.5,0,1,experiment,NA,NA,1,0.7,0.3,2,3,158,4,NA
fcp-trial,193,762433,0.0-168.0-0.0,voc_e2,12385,"[{""event"":""fullscreenenter"",""trial"":1,""time"":1838}]",NA,NA,NA,NA,NA,6,#FA92F8,#1CD855,10,0,1,38,1,480.69999980926514,37,1,453.59999990463257,10,1,experiment,NA,NA,1,0.7,0.3,2,3,159,4,NA
fcp-trial,194,765015,0.0-169.0-0.0,voc_e2,12385,"[{""event"":""fullscreenenter"",""trial"":1,""time"":1838}]",NA,NA,NA,NA,NA,1,#D89F1C,#3386FF,0,0,0,38,1,608.2000002861023,37,1,468.09999990463257,0,0,experiment,NA,NA,2,0.5,0.5,5,4,160,4,NA
fcp-trial,195,767746,0.0-170.0-0.0,voc_e2,12385,"[{""event"":""fullscreenenter"",""trial"":1,""time"":1838}]",NA,NA,NA,NA,NA,4,#D8271C,#741CD8,0,10,0,40,0,924.9000000953674,39,0,299.7000002861023,10,1,experiment,NA,NA,0,0.1,0.9,1,0,161,4,NA
fcp-trial,196,771998,0.0-171.0-0.0,voc_e2,12385,"[{""event"":""fullscreenenter"",""trial"":1,""time"":1838}]",NA,NA,NA,NA,NA,4,#3386FF,#D89F1C,0,10,1,40,0,2257.199999809265,37,1,489.19999980926514,0,1,experiment,NA,NA,2,0.5,0.5,4,5,162,4,NA
fcp-trial,197,775135,0.0-172.0-0.0,voc_e2,12385,"[{""event"":""fullscreenenter"",""trial"":1,""time"":1838}]",NA,NA,NA,NA,NA,2,#FA92F8,#1CD855,10,10,1,40,0,1266.5999999046326,37,1,367.59999990463257,10,1,experiment,NA,NA,1,0.7,0.3,2,3,163,4,NA
fcp-trial,198,778066,0.0-173.0-0.0,voc_e2,12385,"[{""event"":""fullscreenenter"",""trial"":1,""time"":1838}]",NA,NA,NA,NA,NA,0,#3386FF,#D89F1C,0,10,1,38,1,1134.6999998092651,37,1,291.6000003814697,0,1,experiment,NA,NA,2,0.5,0.5,4,5,164,4,NA
fcp-trial,199,780327,0.0-174.0-0.0,voc_e2,12385,"[{""event"":""fullscreenenter"",""trial"":1,""time"":1838}]",NA,NA,NA,NA,NA,5,#D8271C,#741CD8,0,10,0,38,1,314.09999990463257,39,0,440.59999990463257,10,1,experiment,NA,NA,0,0.1,0.9,1,0,165,4,NA
fcp-trial,200,782855,0.0-175.0-0.0,voc_e2,12385,"[{""event"":""fullscreenenter"",""trial"":1,""time"":1838}]",NA,NA,NA,NA,NA,3,#1CD855,#FA92F8,0,0,0,38,1,744.3999996185303,39,0,278.7999997138977,0,1,experiment,NA,NA,1,0.3,0.7,3,2,166,4,NA
fcp-trial,201,786250,0.0-176.0-0.0,voc_e2,12385,"[{""event"":""fullscreenenter"",""trial"":1,""time"":1838}]",NA,NA,NA,NA,NA,0,#741CD8,#D8271C,10,10,1,38,1,1203.5,37,1,687.9000000953674,10,1,experiment,NA,NA,0,0.9,0.1,0,1,167,4,NA
fcp-trial,202,788758,0.0-177.0-0.0,voc_e2,12385,"[{""event"":""fullscreenenter"",""trial"":1,""time"":1838}]",NA,NA,NA,NA,NA,5,#3386FF,#D89F1C,10,0,1,38,1,581.3000001907349,39,0,423.09999990463257,0,0,experiment,NA,NA,2,0.5,0.5,4,5,168,4,NA
fcp-trial,203,792284,0.0-178.0-0.0,voc_e2,12385,"[{""event"":""fullscreenenter"",""trial"":1,""time"":1838}]",NA,NA,NA,NA,NA,1,#FA92F8,#1CD855,10,0,1,38,1,348.59999990463257,37,1,1674.6000003814695,10,1,experiment,NA,NA,1,0.7,0.3,2,3,169,4,NA
fcp-trial,204,794980,0.0-179.0-0.0,voc_e2,12385,"[{""event"":""fullscreenenter"",""trial"":1,""time"":1838}]",NA,NA,NA,NA,NA,3,#741CD8,#D8271C,10,0,1,38,1,739.8000001907349,37,1,450.5,10,1,experiment,NA,NA,0,0.9,0.1,0,1,170,4,NA
fcp-trial,205,797871,0.0-180.0-0.0,voc_e2,12385,"[{""event"":""fullscreenenter"",""trial"":1,""time"":1838}]",NA,NA,NA,NA,NA,5,#FA92F8,#1CD855,10,0,1,38,1,877.2999997138977,37,1,505.09999990463257,10,1,experiment,NA,NA,1,0.7,0.3,2,3,171,4,NA
fcp-trial,206,800541,0.0-181.0-0.0,voc_e2,12385,"[{""event"":""fullscreenenter"",""trial"":1,""time"":1838}]",NA,NA,NA,NA,NA,0,#FA92F8,#1CD855,0,10,1,38,1,429.40000009536743,37,1,735.9000000953674,0,1,experiment,NA,NA,1,0.7,0.3,2,3,172,4,NA
fcp-trial,207,803402,0.0-182.0-0.0,voc_e2,12385,"[{""event"":""fullscreenenter"",""trial"":1,""time"":1838}]",NA,NA,NA,NA,NA,2,#3386FF,#D89F1C,10,0,1,38,1,866.2999997138977,39,0,479.90000009536743,0,0,experiment,NA,NA,2,0.5,0.5,4,5,173,4,NA
fcp-trial,208,806516,0.0-183.0-0.0,voc_e2,12385,"[{""event"":""fullscreenenter"",""trial"":1,""time"":1838}]",NA,NA,NA,NA,NA,5,#741CD8,#D8271C,10,0,1,40,0,1009.7000002861023,39,0,598.8000001907349,0,0,experiment,NA,NA,0,0.9,0.1,0,1,174,4,NA
fcp-trial,209,809726,0.0-184.0-0.0,voc_e2,12385,"[{""event"":""fullscreenenter"",""trial"":1,""time"":1838}]",NA,NA,NA,NA,NA,0,#3386FF,#D89F1C,0,0,1,38,1,805,39,0,899.1000003814697,0,0,experiment,NA,NA,2,0.5,0.5,4,5,175,4,NA
fcp-trial,210,813371,0.0-185.0-0.0,voc_e2,12385,"[{""event"":""fullscreenenter"",""trial"":1,""time"":1838}]",NA,NA,NA,NA,NA,2,#1CD855,#FA92F8,0,0,0,38,1,1523.3000001907349,39,0,616.3000001907349,0,1,experiment,NA,NA,1,0.3,0.7,3,2,176,4,NA
fcp-trial,211,815775,0.0-186.0-0.0,voc_e2,12385,"[{""event"":""fullscreenenter"",""trial"":1,""time"":1838}]",NA,NA,NA,NA,NA,1,#741CD8,#D8271C,10,0,1,38,1,647.5,37,1,250.3000001907349,10,1,experiment,NA,NA,0,0.9,0.1,0,1,177,4,NA
fcp-trial,212,820839,0.0-187.0-0.0,voc_e2,12385,"[{""event"":""fullscreenenter"",""trial"":1,""time"":1838}]",NA,NA,NA,NA,NA,3,#1CD855,#FA92F8,0,10,0,40,0,2989.0999999046326,37,1,570.4000000953674,0,0,experiment,NA,NA,1,0.3,0.7,3,2,178,4,NA
fcp-trial,213,824565,0.0-188.0-0.0,voc_e2,12385,"[{""event"":""fullscreenenter"",""trial"":1,""time"":1838}]",NA,NA,NA,NA,NA,3,#3386FF,#D89F1C,0,0,1,40,0,1478.1999998092651,37,1,739.5,0,1,experiment,NA,NA,2,0.5,0.5,4,5,179,4,NA
fcp-trial,214,827904,0.0-189.0-0.0,voc_e2,12385,"[{""event"":""fullscreenenter"",""trial"":1,""time"":1838}]",NA,NA,NA,NA,NA,4,#FA92F8,#1CD855,10,0,1,38,1,1368.3999996185303,37,1,462.2999997138977,10,1,experiment,NA,NA,1,0.7,0.3,2,3,180,4,NA
fcp-trial,215,830239,0.0-190.0-0.0,voc_e2,12385,"[{""event"":""fullscreenenter"",""trial"":1,""time"":1838}]",NA,NA,NA,NA,NA,2,#D8271C,#741CD8,0,10,0,38,1,574.5999999046326,37,1,255.2999997138977,0,0,experiment,NA,NA,0,0.1,0.9,1,0,181,5,NA
fcp-trial,216,833215,0.0-191.0-0.0,voc_e2,12385,"[{""event"":""fullscreenenter"",""trial"":1,""time"":1838}]",NA,NA,NA,NA,NA,4,#3386FF,#D89F1C,0,10,1,40,0,1095.7000002861023,39,0,374.59999990463257,10,0,experiment,NA,NA,2,0.5,0.5,4,5,182,5,NA
fcp-trial,217,836021,0.0-192.0-0.0,voc_e2,12385,"[{""event"":""fullscreenenter"",""trial"":1,""time"":1838}]",NA,NA,NA,NA,NA,0,#D8271C,#741CD8,0,10,0,38,1,1031.9000000953674,39,0,266.5,10,1,experiment,NA,NA,0,0.1,0.9,1,0,183,5,NA
fcp-trial,218,839066,0.0-193.0-0.0,voc_e2,12385,"[{""event"":""fullscreenenter"",""trial"":1,""time"":1838}]",NA,NA,NA,NA,NA,4,#D8271C,#741CD8,10,10,0,40,0,1051,39,0,487.80000019073486,10,1,experiment,NA,NA,0,0.1,0.9,1,0,184,5,NA
fcp-trial,219,843474,0.0-194.0-0.0,voc_e2,12385,"[{""event"":""fullscreenenter"",""trial"":1,""time"":1838}]",NA,NA,NA,NA,NA,6,#FA92F8,#1CD855,10,0,1,40,0,2261.5,39,0,638.7000002861023,0,0,experiment,NA,NA,1,0.7,0.3,2,3,185,5,NA
fcp-trial,220,846394,0.0-195.0-0.0,voc_e2,12385,"[{""event"":""fullscreenenter"",""trial"":1,""time"":1838}]",NA,NA,NA,NA,NA,6,#D89F1C,#3386FF,0,10,0,40,0,1045.2999997138977,39,0,370.69999980926514,10,1,experiment,NA,NA,2,0.5,0.5,5,4,186,5,NA
fcp-trial,221,849105,0.0-196.0-0.0,voc_e2,12385,"[{""event"":""fullscreenenter"",""trial"":1,""time"":1838}]",NA,NA,NA,NA,NA,6,#741CD8,#D8271C,10,0,1,40,0,858.5,37,1,347.80000019073486,10,1,experiment,NA,NA,0,0.9,0.1,0,1,187,5,NA
fcp-trial,222,852523,0.0-197.0-0.0,voc_e2,12385,"[{""event"":""fullscreenenter"",""trial"":1,""time"":1838}]",NA,NA,NA,NA,NA,1,#D89F1C,#3386FF,0,10,0,38,1,1565.3000001907349,37,1,348.1000003814697,0,0,experiment,NA,NA,2,0.5,0.5,5,4,188,5,NA
fcp-trial,223,855588,0.0-198.0-0.0,voc_e2,12385,"[{""event"":""fullscreenenter"",""trial"":1,""time"":1838}]",NA,NA,NA,NA,NA,5,#3386FF,#D89F1C,10,0,1,40,0,874.4000000953674,37,1,685.6999998092651,10,1,experiment,NA,NA,2,0.5,0.5,4,5,189,5,NA
fcp-trial,224,859194,0.0-199.0-0.0,voc_e2,12385,"[{""event"":""fullscreenenter"",""trial"":1,""time"":1838}]",NA,NA,NA,NA,NA,2,#1CD855,#FA92F8,0,0,0,38,1,1779.5,39,0,323,0,1,experiment,NA,NA,1,0.3,0.7,3,2,190,5,NA
fcp-trial,225,862999,0.0-200.0-0.0,voc_e2,12385,"[{""event"":""fullscreenenter"",""trial"":1,""time"":1838}]",NA,NA,NA,NA,NA,1,#741CD8,#D8271C,10,0,1,38,1,1998.6999998092651,37,1,300.2999997138977,10,1,experiment,NA,NA,0,0.9,0.1,0,1,191,5,NA
fcp-trial,226,865966,0.0-201.0-0.0,voc_e2,12385,"[{""event"":""fullscreenenter"",""trial"":1,""time"":1838}]",NA,NA,NA,NA,NA,1,#1CD855,#FA92F8,0,0,0,40,0,1148.3999996185303,39,0,311.80000019073486,0,1,experiment,NA,NA,1,0.3,0.7,3,2,192,5,NA
fcp-trial,227,868730,0.0-202.0-0.0,voc_e2,12385,"[{""event"":""fullscreenenter"",""trial"":1,""time"":1838}]",NA,NA,NA,NA,NA,5,#741CD8,#D8271C,10,10,1,38,1,916.5,37,1,342,10,1,experiment,NA,NA,0,0.9,0.1,0,1,193,5,NA
fcp-trial,228,871836,0.0-203.0-0.0,voc_e2,12385,"[{""event"":""fullscreenenter"",""trial"":1,""time"":1838}]",NA,NA,NA,NA,NA,3,#3386FF,#D89F1C,0,0,1,40,0,1062,37,1,538.0999999046326,0,1,experiment,NA,NA,2,0.5,0.5,4,5,194,5,NA
fcp-trial,229,874835,0.0-204.0-0.0,voc_e2,12385,"[{""event"":""fullscreenenter"",""trial"":1,""time"":1838}]",NA,NA,NA,NA,NA,3,#1CD855,#FA92F8,0,10,0,40,0,1149.2000002861023,39,0,343.30000019073486,10,1,experiment,NA,NA,1,0.3,0.7,3,2,195,5,NA
fcp-trial,230,877887,0.0-205.0-0.0,voc_e2,12385,"[{""event"":""fullscreenenter"",""trial"":1,""time"":1838}]",NA,NA,NA,NA,NA,6,#D89F1C,#3386FF,10,10,0,40,0,1147.4000000953674,39,0,396.2000002861023,10,1,experiment,NA,NA,2,0.5,0.5,5,4,196,5,NA
fcp-trial,231,881021,0.0-206.0-0.0,voc_e2,12385,"[{""event"":""fullscreenenter"",""trial"":1,""time"":1838}]",NA,NA,NA,NA,NA,2,#D89F1C,#3386FF,0,10,0,38,1,1196.4000000953674,37,1,432.5,0,0,experiment,NA,NA,2,0.5,0.5,5,4,197,5,NA
fcp-trial,232,883868,0.0-207.0-0.0,voc_e2,12385,"[{""event"":""fullscreenenter"",""trial"":1,""time"":1838}]",NA,NA,NA,NA,NA,0,#741CD8,#D8271C,10,0,1,38,1,1082.8000001907349,37,1,258.1000003814697,10,1,experiment,NA,NA,0,0.9,0.1,0,1,198,5,NA
fcp-trial,233,887072,0.0-208.0-0.0,voc_e2,12385,"[{""event"":""fullscreenenter"",""trial"":1,""time"":1838}]",NA,NA,NA,NA,NA,5,#FA92F8,#1CD855,10,10,1,40,0,1199.6999998092651,37,1,494.5,10,1,experiment,NA,NA,1,0.7,0.3,2,3,199,5,NA
fcp-trial,234,890622,0.0-209.0-0.0,voc_e2,12385,"[{""event"":""fullscreenenter"",""trial"":1,""time"":1838}]",NA,NA,NA,NA,NA,1,#D89F1C,#3386FF,0,10,0,38,1,1293,37,1,751.0999999046326,0,0,experiment,NA,NA,2,0.5,0.5,5,4,200,5,NA
fcp-trial,235,893490,0.0-210.0-0.0,voc_e2,12385,"[{""event"":""fullscreenenter"",""trial"":1,""time"":1838}]",NA,NA,NA,NA,NA,3,#D8271C,#741CD8,0,10,0,40,0,982.5999999046326,37,1,380.5,0,0,experiment,NA,NA,0,0.1,0.9,1,0,201,5,NA
fcp-trial,236,896306,0.0-211.0-0.0,voc_e2,12385,"[{""event"":""fullscreenenter"",""trial"":1,""time"":1838}]",NA,NA,NA,NA,NA,4,#3386FF,#D89F1C,10,0,1,40,0,981.9000000953674,39,0,327.90000009536743,0,0,experiment,NA,NA,2,0.5,0.5,4,5,202,5,NA
fcp-trial,237,899726,0.0-212.0-0.0,voc_e2,12385,"[{""event"":""fullscreenenter"",""trial"":1,""time"":1838}]",NA,NA,NA,NA,NA,0,#D89F1C,#3386FF,0,0,0,38,1,915.3999996185303,37,1,1000.9000000953674,0,0,experiment,NA,NA,2,0.5,0.5,5,4,203,5,NA
fcp-trial,238,902573,0.0-213.0-0.0,voc_e2,12385,"[{""event"":""fullscreenenter"",""trial"":1,""time"":1838}]",NA,NA,NA,NA,NA,0,#1CD855,#FA92F8,0,10,0,38,1,1025.5,39,0,316.2000002861023,10,1,experiment,NA,NA,1,0.3,0.7,3,2,204,5,NA
fcp-trial,239,906104,0.0-214.0-0.0,voc_e2,12385,"[{""event"":""fullscreenenter"",""trial"":1,""time"":1838}]",NA,NA,NA,NA,NA,2,#D8271C,#741CD8,10,0,0,38,1,1175.5,39,0,849.5999999046326,0,1,experiment,NA,NA,0,0.1,0.9,1,0,205,5,NA
fcp-trial,240,908421,0.0-215.0-0.0,voc_e2,12385,"[{""event"":""fullscreenenter"",""trial"":1,""time"":1838}]",NA,NA,NA,NA,NA,5,#D89F1C,#3386FF,10,10,0,38,1,542.5,37,1,269.69999980926514,10,0,experiment,NA,NA,2,0.5,0.5,5,4,206,5,NA
fcp-trial,241,910804,0.0-216.0-0.0,voc_e2,12385,"[{""event"":""fullscreenenter"",""trial"":1,""time"":1838}]",NA,NA,NA,NA,NA,4,#D8271C,#741CD8,0,10,0,38,1,597.0999999046326,39,0,279.80000019073486,10,1,experiment,NA,NA,0,0.1,0.9,1,0,207,5,NA
fcp-trial,242,913513,0.0-217.0-0.0,voc_e2,12385,"[{""event"":""fullscreenenter"",""trial"":1,""time"":1838}]",NA,NA,NA,NA,NA,6,#1CD855,#FA92F8,10,10,0,38,1,640.3000001907349,39,0,564.3000001907349,10,1,experiment,NA,NA,1,0.3,0.7,3,2,208,5,NA
fcp-trial,243,916288,0.0-218.0-0.0,voc_e2,12385,"[{""event"":""fullscreenenter"",""trial"":1,""time"":1838}]",NA,NA,NA,NA,NA,6,#D8271C,#741CD8,0,10,0,40,0,580.5,37,1,687.8000001907349,0,0,experiment,NA,NA,0,0.1,0.9,1,0,209,5,NA
fcp-trial,244,919339,0.0-219.0-0.0,voc_e2,12385,"[{""event"":""fullscreenenter"",""trial"":1,""time"":1838}]",NA,NA,NA,NA,NA,4,#1CD855,#FA92F8,10,10,0,40,0,1076.3000001907349,39,0,469.40000009536743,10,1,experiment,NA,NA,1,0.3,0.7,3,2,210,5,NA
audio-instructions,245,924826,0.0-220.0,voc_e2,12385,"[{""event"":""fullscreenenter"",""trial"":1,""time"":1838}]",NA,383.6000003814697,static/audio/pause.wav,NA,0,NA,NA,NA,NA,NA,NA,NA,NA,NA,NA,NA,NA,NA,NA,NA,NA,NA,NA,NA,NA,NA,NA,NA,NA,NA
fcp-trial,246,928771,0.0-221.0-0.0,voc_e2,12385,"[{""event"":""fullscreenenter"",""trial"":1,""time"":1838}]",NA,NA,NA,NA,NA,0,#FA92F8,#1CD855,10,0,1,38,1,1914.3000001907349,37,1,506.80000019073486,10,1,experiment,NA,NA,1,0.7,0.3,2,3,211,5,NA
fcp-trial,247,931704,0.0-222.0-0.0,voc_e2,12385,"[{""event"":""fullscreenenter"",""trial"":1,""time"":1838}]",NA,NA,NA,NA,NA,0,#D89F1C,#3386FF,0,0,0,38,1,1055.6999998092651,37,1,363.09999990463257,0,0,experiment,NA,NA,2,0.5,0.5,5,4,212,5,NA
fcp-trial,248,934087,0.0-223.0-0.0,voc_e2,12385,"[{""event"":""fullscreenenter"",""trial"":1,""time"":1838}]",NA,NA,NA,NA,NA,4,#D89F1C,#3386FF,10,0,0,38,1,512,37,1,365.30000019073486,10,0,experiment,NA,NA,2,0.5,0.5,5,4,213,5,NA
fcp-trial,249,936837,0.0-224.0-0.0,voc_e2,12385,"[{""event"":""fullscreenenter"",""trial"":1,""time"":1838}]",NA,NA,NA,NA,NA,2,#3386FF,#D89F1C,10,10,1,40,0,779,37,1,461.7999997138977,10,1,experiment,NA,NA,2,0.5,0.5,4,5,214,5,NA
fcp-trial,250,940086,0.0-225.0-0.0,voc_e2,12385,"[{""event"":""fullscreenenter"",""trial"":1,""time"":1838}]",NA,NA,NA,NA,NA,1,#741CD8,#D8271C,10,0,1,38,1,1331.5999999046326,37,1,400.19999980926514,10,1,experiment,NA,NA,0,0.9,0.1,0,1,215,5,NA
fcp-trial,251,942888,0.0-226.0-0.0,voc_e2,12385,"[{""event"":""fullscreenenter"",""trial"":1,""time"":1838}]",NA,NA,NA,NA,NA,5,#1CD855,#FA92F8,0,10,0,40,0,934,39,0,338.5,10,1,experiment,NA,NA,1,0.3,0.7,3,2,216,5,NA
fcp-trial,252,945838,0.0-227.0-0.0,voc_e2,12385,"[{""event"":""fullscreenenter"",""trial"":1,""time"":1838}]",NA,NA,NA,NA,NA,4,#741CD8,#D8271C,10,0,1,40,0,1046.0999999046326,37,1,400.40000009536743,10,1,experiment,NA,NA,0,0.9,0.1,0,1,217,5,NA
fcp-trial,253,948787,0.0-228.0-0.0,voc_e2,12385,"[{""event"":""fullscreenenter"",""trial"":1,""time"":1838}]",NA,NA,NA,NA,NA,3,#3386FF,#D89F1C,0,0,1,40,0,1091.2999997138977,39,0,335.59999990463257,0,0,experiment,NA,NA,2,0.5,0.5,4,5,218,5,NA
fcp-trial,254,951404,0.0-229.0-0.0,voc_e2,12385,"[{""event"":""fullscreenenter"",""trial"":1,""time"":1838}]",NA,NA,NA,NA,NA,5,#D89F1C,#3386FF,10,10,0,38,1,769.3999996185303,37,1,323.7999997138977,10,0,experiment,NA,NA,2,0.5,0.5,5,4,219,5,NA
fcp-trial,255,954412,0.0-230.0-0.0,voc_e2,12385,"[{""event"":""fullscreenenter"",""trial"":1,""time"":1838}]",NA,NA,NA,NA,NA,3,#FA92F8,#1CD855,10,0,1,40,0,1088.6999998092651,37,1,408.59999990463257,10,1,experiment,NA,NA,1,0.7,0.3,2,3,220,5,NA
fcp-trial,256,957557,0.0-231.0-0.0,voc_e2,12385,"[{""event"":""fullscreenenter"",""trial"":1,""time"":1838}]",NA,NA,NA,NA,NA,3,#741CD8,#D8271C,10,0,1,40,0,1197.5,39,0,443.09999990463257,0,0,experiment,NA,NA,0,0.9,0.1,0,1,221,5,NA
fcp-trial,257,960115,0.0-232.0-0.0,voc_e2,12385,"[{""event"":""fullscreenenter"",""trial"":1,""time"":1838}]",NA,NA,NA,NA,NA,2,#FA92F8,#1CD855,10,10,1,38,1,574.5,37,1,478.90000009536743,10,1,experiment,NA,NA,1,0.7,0.3,2,3,222,5,NA
fcp-trial,258,962559,0.0-233.0-0.0,voc_e2,12385,"[{""event"":""fullscreenenter"",""trial"":1,""time"":1838}]",NA,NA,NA,NA,NA,6,#3386FF,#D89F1C,10,10,1,40,0,604.7000002861023,37,1,334.69999980926514,10,1,experiment,NA,NA,2,0.5,0.5,4,5,223,5,NA
fcp-trial,259,965358,0.0-234.0-0.0,voc_e2,12385,"[{""event"":""fullscreenenter"",""trial"":1,""time"":1838}]",NA,NA,NA,NA,NA,6,#741CD8,#D8271C,10,0,1,40,0,922.2000002861023,37,1,371.59999990463257,10,1,experiment,NA,NA,0,0.9,0.1,0,1,224,5,NA
fcp-trial,260,967981,0.0-235.0-0.0,voc_e2,12385,"[{""event"":""fullscreenenter"",""trial"":1,""time"":1838}]",NA,NA,NA,NA,NA,6,#FA92F8,#1CD855,10,0,1,40,0,664.4000000953674,37,1,448.30000019073486,10,1,experiment,NA,NA,1,0.7,0.3,2,3,225,5,NA
fcp-trial,261,970415,0.0-236.0-0.0,voc_e2,12385,"[{""event"":""fullscreenenter"",""trial"":1,""time"":1838}]",NA,NA,NA,NA,NA,0,#D8271C,#741CD8,0,0,0,38,1,611.5,39,0,316.7999997138977,0,1,experiment,NA,NA,0,0.1,0.9,1,0,226,6,NA
fcp-trial,262,973298,0.0-237.0-0.0,voc_e2,12385,"[{""event"":""fullscreenenter"",""trial"":1,""time"":1838}]",NA,NA,NA,NA,NA,1,#FA92F8,#1CD855,10,0,1,38,1,1108.2999997138977,37,1,267.7000002861023,10,1,experiment,NA,NA,1,0.7,0.3,2,3,227,6,NA
fcp-trial,263,976489,0.0-238.0-0.0,voc_e2,12385,"[{""event"":""fullscreenenter"",""trial"":1,""time"":1838}]",NA,NA,NA,NA,NA,1,#3386FF,#D89F1C,10,10,1,38,1,1022.3000001907349,39,0,662.7999997138977,10,0,experiment,NA,NA,2,0.5,0.5,4,5,228,6,NA
fcp-trial,264,979625,0.0-239.0-0.0,voc_e2,12385,"[{""event"":""fullscreenenter"",""trial"":1,""time"":1838}]",NA,NA,NA,NA,NA,4,#1CD855,#FA92F8,0,0,0,40,0,1281.5999999046326,37,1,350.09999990463257,0,0,experiment,NA,NA,1,0.3,0.7,3,2,229,6,NA
fcp-trial,265,983575,0.0-240.0-0.0,voc_e2,12385,"[{""event"":""fullscreenenter"",""trial"":1,""time"":1838}]",NA,NA,NA,NA,NA,5,#D8271C,#741CD8,0,0,0,40,0,1863.5999999046326,37,1,580.4000000953674,0,0,experiment,NA,NA,0,0.1,0.9,1,0,230,6,NA
fcp-trial,266,986198,0.0-241.0-0.0,voc_e2,12385,"[{""event"":""fullscreenenter"",""trial"":1,""time"":1838}]",NA,NA,NA,NA,NA,2,#D8271C,#741CD8,0,10,0,38,1,835.4000000953674,39,0,282.80000019073486,10,1,experiment,NA,NA,0,0.1,0.9,1,0,231,6,NA
fcp-trial,267,989138,0.0-242.0-0.0,voc_e2,12385,"[{""event"":""fullscreenenter"",""trial"":1,""time"":1838}]",NA,NA,NA,NA,NA,3,#FA92F8,#1CD855,10,0,1,40,0,1062.1000003814697,37,1,371.5,10,1,experiment,NA,NA,1,0.7,0.3,2,3,232,6,NA
fcp-trial,268,992040,0.0-243.0-0.0,voc_e2,12385,"[{""event"":""fullscreenenter"",""trial"":1,""time"":1838}]",NA,NA,NA,NA,NA,3,#741CD8,#D8271C,10,0,1,40,0,973.4000000953674,37,1,423,10,1,experiment,NA,NA,0,0.9,0.1,0,1,233,6,NA
fcp-trial,269,996977,0.0-244.0-0.0,voc_e2,12385,"[{""event"":""fullscreenenter"",""trial"":1,""time"":1838}]",NA,NA,NA,NA,NA,6,#3386FF,#D89F1C,10,10,1,40,0,3095.9000000953674,39,0,335.2999997138977,10,0,experiment,NA,NA,2,0.5,0.5,4,5,234,6,NA
fcp-trial,270,1000216,0.0-245.0-0.0,voc_e2,12385,"[{""event"":""fullscreenenter"",""trial"":1,""time"":1838}]",NA,NA,NA,NA,NA,1,#741CD8,#D8271C,10,0,1,38,1,1312.3000001907349,37,1,421,10,1,experiment,NA,NA,0,0.9,0.1,0,1,235,6,NA
fcp-trial,271,1003217,0.0-246.0-0.0,voc_e2,12385,"[{""event"":""fullscreenenter"",""trial"":1,""time"":1838}]",NA,NA,NA,NA,NA,6,#1CD855,#FA92F8,0,10,0,40,0,1074.8000001907349,37,1,421.80000019073486,0,0,experiment,NA,NA,1,0.3,0.7,3,2,236,6,NA
fcp-trial,272,1006078,0.0-247.0-0.0,voc_e2,12385,"[{""event"":""fullscreenenter"",""trial"":1,""time"":1838}]",NA,NA,NA,NA,NA,1,#FA92F8,#1CD855,10,0,1,38,1,1016.0999999046326,39,0,340.6000003814697,0,0,experiment,NA,NA,1,0.7,0.3,2,3,237,6,NA
fcp-trial,273,1008867,0.0-248.0-0.0,voc_e2,12385,"[{""event"":""fullscreenenter"",""trial"":1,""time"":1838}]",NA,NA,NA,NA,NA,1,#D89F1C,#3386FF,10,10,0,40,0,839.3000001907349,39,0,442.80000019073486,10,1,experiment,NA,NA,2,0.5,0.5,5,4,238,6,NA
fcp-trial,274,1011898,0.0-249.0-0.0,voc_e2,12385,"[{""event"":""fullscreenenter"",""trial"":1,""time"":1838}]",NA,NA,NA,NA,NA,5,#741CD8,#D8271C,10,0,1,40,0,1068.2000002861023,39,0,457.19999980926514,0,0,experiment,NA,NA,0,0.9,0.1,0,1,239,6,NA
fcp-trial,275,1014702,0.0-250.0-0.0,voc_e2,12385,"[{""event"":""fullscreenenter"",""trial"":1,""time"":1838}]",NA,NA,NA,NA,NA,4,#3386FF,#D89F1C,0,10,1,40,0,871.0999999046326,39,0,426.90000009536743,10,0,experiment,NA,NA,2,0.5,0.5,4,5,240,6,NA
fcp-trial,276,1018093,0.0-251.0-0.0,voc_e2,12385,"[{""event"":""fullscreenenter"",""trial"":1,""time"":1838}]",NA,NA,NA,NA,NA,0,#FA92F8,#1CD855,10,0,1,38,1,1233.2000002861023,37,1,652.1999998092651,10,1,experiment,NA,NA,1,0.7,0.3,2,3,241,6,NA
fcp-trial,277,1021163,0.0-252.0-0.0,voc_e2,12385,"[{""event"":""fullscreenenter"",""trial"":1,""time"":1838}]",NA,NA,NA,NA,NA,4,#741CD8,#D8271C,10,0,1,40,0,1207,37,1,357.7000002861023,10,1,experiment,NA,NA,0,0.9,0.1,0,1,242,6,NA
fcp-trial,278,1024294,0.0-253.0-0.0,voc_e2,12385,"[{""event"":""fullscreenenter"",""trial"":1,""time"":1838}]",NA,NA,NA,NA,NA,5,#D89F1C,#3386FF,10,10,0,40,0,1273.9000000953674,37,1,352.09999990463257,10,0,experiment,NA,NA,2,0.5,0.5,5,4,243,6,NA
fcp-trial,279,1027330,0.0-254.0-0.0,voc_e2,12385,"[{""event"":""fullscreenenter"",""trial"":1,""time"":1838}]",NA,NA,NA,NA,NA,2,#1CD855,#FA92F8,10,0,0,38,1,1177.9000000953674,37,1,354,10,0,experiment,NA,NA,1,0.3,0.7,3,2,244,6,NA
fcp-trial,280,1030268,0.0-255.0-0.0,voc_e2,12385,"[{""event"":""fullscreenenter"",""trial"":1,""time"":1838}]",NA,NA,NA,NA,NA,6,#D8271C,#741CD8,0,10,0,40,0,1098.6999998092651,39,0,335.09999990463257,10,1,experiment,NA,NA,0,0.1,0.9,1,0,245,6,NA
fcp-trial,281,1033951,0.0-256.0-0.0,voc_e2,12385,"[{""event"":""fullscreenenter"",""trial"":1,""time"":1838}]",NA,NA,NA,NA,NA,2,#D89F1C,#3386FF,0,10,0,38,1,1603.1999998092651,37,1,574.5999999046326,0,0,experiment,NA,NA,2,0.5,0.5,5,4,246,6,NA
fcp-trial,282,1036644,0.0-257.0-0.0,voc_e2,12385,"[{""event"":""fullscreenenter"",""trial"":1,""time"":1838}]",NA,NA,NA,NA,NA,4,#1CD855,#FA92F8,0,0,0,40,0,799.1999998092651,37,1,388.09999990463257,0,0,experiment,NA,NA,1,0.3,0.7,3,2,247,6,NA
fcp-trial,283,1040365,0.0-258.0-0.0,voc_e2,12385,"[{""event"":""fullscreenenter"",""trial"":1,""time"":1838}]",NA,NA,NA,NA,NA,2,#741CD8,#D8271C,10,0,1,38,1,1360.3000001907349,37,1,857.5999999046326,10,1,experiment,NA,NA,0,0.9,0.1,0,1,248,6,NA
fcp-trial,284,1043130,0.0-259.0-0.0,voc_e2,12385,"[{""event"":""fullscreenenter"",""trial"":1,""time"":1838}]",NA,NA,NA,NA,NA,0,#741CD8,#D8271C,10,0,1,38,1,987,37,1,272.40000009536743,10,1,experiment,NA,NA,0,0.9,0.1,0,1,249,6,NA
fcp-trial,285,1046608,0.0-260.0-0.0,voc_e2,12385,"[{""event"":""fullscreenenter"",""trial"":1,""time"":1838}]",NA,NA,NA,NA,NA,5,#1CD855,#FA92F8,0,10,0,40,0,1521.3000001907349,37,1,449.2000002861023,0,0,experiment,NA,NA,1,0.3,0.7,3,2,250,6,NA
fcp-trial,286,1049243,0.0-261.0-0.0,voc_e2,12385,"[{""event"":""fullscreenenter"",""trial"":1,""time"":1838}]",NA,NA,NA,NA,NA,3,#3386FF,#D89F1C,0,10,1,40,0,863.7999997138977,39,0,266.1000003814697,10,0,experiment,NA,NA,2,0.5,0.5,4,5,251,6,NA
fcp-trial,287,1052175,0.0-262.0-0.0,voc_e2,12385,"[{""event"":""fullscreenenter"",""trial"":1,""time"":1838}]",NA,NA,NA,NA,NA,0,#3386FF,#D89F1C,0,10,1,38,1,1035.0999999046326,37,1,391.1000003814697,0,1,experiment,NA,NA,2,0.5,0.5,4,5,252,6,NA
fcp-trial,288,1055027,0.0-263.0-0.0,voc_e2,12385,"[{""event"":""fullscreenenter"",""trial"":1,""time"":1838}]",NA,NA,NA,NA,NA,1,#D8271C,#741CD8,0,10,0,38,1,867.4000000953674,39,0,470.5,10,1,experiment,NA,NA,0,0.1,0.9,1,0,253,6,NA
fcp-trial,289,1057873,0.0-264.0-0.0,voc_e2,12385,"[{""event"":""fullscreenenter"",""trial"":1,""time"":1838}]",NA,NA,NA,NA,NA,2,#1CD855,#FA92F8,0,10,0,40,0,1026.5999999046326,39,0,313.40000009536743,10,1,experiment,NA,NA,1,0.3,0.7,3,2,254,6,NA
fcp-trial,290,1060641,0.0-265.0-0.0,voc_e2,12385,"[{""event"":""fullscreenenter"",""trial"":1,""time"":1838}]",NA,NA,NA,NA,NA,3,#3386FF,#D89F1C,10,10,1,40,0,950.1999998092651,39,0,311.5,10,0,experiment,NA,NA,2,0.5,0.5,4,5,255,6,NA
fcp-trial,291,1064096,0.0-266.0-0.0,voc_e2,12385,"[{""event"":""fullscreenenter"",""trial"":1,""time"":1838}]",NA,NA,NA,NA,NA,0,#1CD855,#FA92F8,10,10,0,38,1,1291.6000003814697,37,1,658.3999996185303,10,0,experiment,NA,NA,1,0.3,0.7,3,2,256,6,NA
fcp-trial,292,1067334,0.0-267.0-0.0,voc_e2,12385,"[{""event"":""fullscreenenter"",""trial"":1,""time"":1838}]",NA,NA,NA,NA,NA,5,#D8271C,#741CD8,0,10,0,40,0,1194.1000003814697,37,1,538.2999997138977,0,0,experiment,NA,NA,0,0.1,0.9,1,0,257,6,NA
fcp-trial,293,1070455,0.0-268.0-0.0,voc_e2,12385,"[{""event"":""fullscreenenter"",""trial"":1,""time"":1838}]",NA,NA,NA,NA,NA,3,#741CD8,#D8271C,10,0,1,40,0,928.6999998092651,39,0,686.7000002861023,0,0,experiment,NA,NA,0,0.9,0.1,0,1,258,6,NA
fcp-trial,294,1073964,0.0-269.0-0.0,voc_e2,12385,"[{""event"":""fullscreenenter"",""trial"":1,""time"":1838}]",NA,NA,NA,NA,NA,1,#D89F1C,#3386FF,10,0,0,38,1,855.6999998092651,37,1,1145.5,10,0,experiment,NA,NA,2,0.5,0.5,5,4,259,6,NA
fcp-trial,295,1076982,0.0-270.0-0.0,voc_e2,12385,"[{""event"":""fullscreenenter"",""trial"":1,""time"":1838}]",NA,NA,NA,NA,NA,5,#1CD855,#FA92F8,0,10,0,40,0,925.7999997138977,37,1,577.5,0,0,experiment,NA,NA,1,0.3,0.7,3,2,260,6,NA
fcp-trial,296,1079725,0.0-271.0-0.0,voc_e2,12385,"[{""event"":""fullscreenenter"",""trial"":1,""time"":1838}]",NA,NA,NA,NA,NA,4,#D89F1C,#3386FF,10,0,0,40,0,831.7999997138977,39,0,405.2000002861023,0,1,experiment,NA,NA,2,0.5,0.5,5,4,261,6,NA
fcp-trial,297,1083541,0.0-272.0-0.0,voc_e2,12385,"[{""event"":""fullscreenenter"",""trial"":1,""time"":1838}]",NA,NA,NA,NA,NA,2,#D8271C,#741CD8,0,10,0,38,1,978.5,39,0,1332.4000000953674,10,1,experiment,NA,NA,0,0.1,0.9,1,0,262,6,NA
fcp-trial,298,1086529,0.0-273.0-0.0,voc_e2,12385,"[{""event"":""fullscreenenter"",""trial"":1,""time"":1838}]",NA,NA,NA,NA,NA,6,#FA92F8,#1CD855,10,0,1,40,0,1146.5999999046326,37,1,335.90000009536743,10,1,experiment,NA,NA,1,0.7,0.3,2,3,263,6,NA
fcp-trial,299,1091265,0.0-274.0-0.0,voc_e2,12385,"[{""event"":""fullscreenenter"",""trial"":1,""time"":1838}]",NA,NA,NA,NA,NA,0,#741CD8,#D8271C,10,0,1,38,1,2548.5999999046326,37,1,681.1999998092651,10,1,experiment,NA,NA,0,0.9,0.1,0,1,264,6,NA
fcp-trial,300,1094510,0.0-275.0-0.0,voc_e2,12385,"[{""event"":""fullscreenenter"",""trial"":1,""time"":1838}]",NA,NA,NA,NA,NA,6,#3386FF,#D89F1C,10,10,1,40,0,1362.9000000953674,37,1,376.5,10,1,experiment,NA,NA,2,0.5,0.5,4,5,265,6,NA
fcp-trial,301,1097559,0.0-276.0-0.0,voc_e2,12385,"[{""event"":""fullscreenenter"",""trial"":1,""time"":1838}]",NA,NA,NA,NA,NA,4,#1CD855,#FA92F8,0,10,0,40,0,1161.5,39,0,382.7999997138977,10,1,experiment,NA,NA,1,0.3,0.7,3,2,266,6,NA
fcp-trial,302,1101858,0.0-277.0-0.0,voc_e2,12385,"[{""event"":""fullscreenenter"",""trial"":1,""time"":1838}]",NA,NA,NA,NA,NA,4,#D8271C,#741CD8,0,0,0,40,0,1299.7000002861023,37,1,1492.5999999046326,0,0,experiment,NA,NA,0,0.1,0.9,1,0,267,6,NA
fcp-trial,303,1105260,0.0-278.0-0.0,voc_e2,12385,"[{""event"":""fullscreenenter"",""trial"":1,""time"":1838}]",NA,NA,NA,NA,NA,2,#D89F1C,#3386FF,10,10,0,38,1,1220.9000000953674,39,0,677,10,1,experiment,NA,NA,2,0.5,0.5,5,4,268,6,NA
fcp-trial,304,1108147,0.0-279.0-0.0,voc_e2,12385,"[{""event"":""fullscreenenter"",""trial"":1,""time"":1838}]",NA,NA,NA,NA,NA,0,#D89F1C,#3386FF,0,10,0,38,1,1024.9000000953674,39,0,358.30000019073486,10,1,experiment,NA,NA,2,0.5,0.5,5,4,269,6,NA
fcp-trial,305,1111005,0.0-280.0-0.0,voc_e2,12385,"[{""event"":""fullscreenenter"",""trial"":1,""time"":1838}]",NA,NA,NA,NA,NA,3,#1CD855,#FA92F8,0,0,0,40,0,952.0999999046326,39,0,392.7999997138977,0,1,experiment,NA,NA,1,0.3,0.7,3,2,270,6,NA
fcp-trial,306,1114287,0.0-281.0-0.0,voc_e2,12385,"[{""event"":""fullscreenenter"",""trial"":1,""time"":1838}]",NA,NA,NA,NA,NA,1,#FA92F8,#1CD855,10,0,1,40,0,1371.5999999046326,37,1,402.69999980926514,10,1,experiment,NA,NA,1,0.7,0.3,2,3,271,7,NA
fcp-trial,307,1117509,0.0-282.0-0.0,voc_e2,12385,"[{""event"":""fullscreenenter"",""trial"":1,""time"":1838}]",NA,NA,NA,NA,NA,6,#741CD8,#D8271C,10,0,1,40,0,1386.7999997138977,39,0,332,0,0,experiment,NA,NA,0,0.9,0.1,0,1,272,7,NA
fcp-trial,308,1120425,0.0-283.0-0.0,voc_e2,12385,"[{""event"":""fullscreenenter"",""trial"":1,""time"":1838}]",NA,NA,NA,NA,NA,5,#D89F1C,#3386FF,10,10,0,40,0,843.0999999046326,37,1,566.7999997138977,10,0,experiment,NA,NA,2,0.5,0.5,5,4,273,7,NA
fcp-trial,309,1123858,0.0-284.0-0.0,voc_e2,12385,"[{""event"":""fullscreenenter"",""trial"":1,""time"":1838}]",NA,NA,NA,NA,NA,6,#3386FF,#D89F1C,10,0,1,40,0,1493.5999999046326,37,1,434.59999990463257,10,1,experiment,NA,NA,2,0.5,0.5,4,5,274,7,NA
fcp-trial,310,1127679,0.0-285.0-0.0,voc_e2,12385,"[{""event"":""fullscreenenter"",""trial"":1,""time"":1838}]",NA,NA,NA,NA,NA,0,#741CD8,#D8271C,10,0,1,38,1,1680.6999998092651,37,1,635.1000003814697,10,1,experiment,NA,NA,0,0.9,0.1,0,1,275,7,NA
fcp-trial,311,1134014,0.0-286.0-0.0,voc_e2,12385,"[{""event"":""fullscreenenter"",""trial"":1,""time"":1838}]",NA,NA,NA,NA,NA,1,#FA92F8,#1CD855,0,0,1,38,1,4235.400000095367,39,0,595.4000000953674,0,0,experiment,NA,NA,1,0.7,0.3,2,3,276,7,NA
fcp-trial,312,1137015,0.0-287.0-0.0,voc_e2,12385,"[{""event"":""fullscreenenter"",""trial"":1,""time"":1838}]",NA,NA,NA,NA,NA,5,#3386FF,#D89F1C,0,10,1,40,0,1112.3000001907349,37,1,384.40000009536743,0,1,experiment,NA,NA,2,0.5,0.5,4,5,277,7,NA
fcp-trial,313,1139827,0.0-288.0-0.0,voc_e2,12385,"[{""event"":""fullscreenenter"",""trial"":1,""time"":1838}]",NA,NA,NA,NA,NA,3,#741CD8,#D8271C,10,0,1,40,0,922.9000000953674,39,0,384.59999990463257,0,0,experiment,NA,NA,0,0.9,0.1,0,1,278,7,NA
fcp-trial,314,1142562,0.0-289.0-0.0,voc_e2,12385,"[{""event"":""fullscreenenter"",""trial"":1,""time"":1838}]",NA,NA,NA,NA,NA,2,#D89F1C,#3386FF,10,0,0,40,0,915.4000000953674,39,0,313.3999996185303,0,1,experiment,NA,NA,2,0.5,0.5,5,4,279,7,NA
fcp-trial,315,1145196,0.0-290.0-0.0,voc_e2,12385,"[{""event"":""fullscreenenter"",""trial"":1,""time"":1838}]",NA,NA,NA,NA,NA,6,#D8271C,#741CD8,0,10,0,38,1,667,37,1,460.69999980926514,0,0,experiment,NA,NA,0,0.1,0.9,1,0,280,7,NA
fcp-trial,316,1148321,0.0-291.0-0.0,voc_e2,12385,"[{""event"":""fullscreenenter"",""trial"":1,""time"":1838}]",NA,NA,NA,NA,NA,0,#FA92F8,#1CD855,10,0,1,38,1,910.6999998092651,37,1,709.5999999046326,10,1,experiment,NA,NA,1,0.7,0.3,2,3,281,7,NA
fcp-trial,317,1151947,0.0-292.0-0.0,voc_e2,12385,"[{""event"":""fullscreenenter"",""trial"":1,""time"":1838}]",NA,NA,NA,NA,NA,4,#D89F1C,#3386FF,10,10,0,40,0,1751.8000001907349,39,0,368.5,10,1,experiment,NA,NA,2,0.5,0.5,5,4,282,7,NA
fcp-trial,318,1154881,0.0-293.0-0.0,voc_e2,12385,"[{""event"":""fullscreenenter"",""trial"":1,""time"":1838}]",NA,NA,NA,NA,NA,3,#1CD855,#FA92F8,10,10,0,40,0,1025.3000001907349,37,1,403,10,0,experiment,NA,NA,1,0.3,0.7,3,2,283,7,NA
fcp-trial,319,1157631,0.0-294.0-0.0,voc_e2,12385,"[{""event"":""fullscreenenter"",""trial"":1,""time"":1838}]",NA,NA,NA,NA,NA,4,#D8271C,#741CD8,0,10,0,40,0,859,39,0,385.1000003814697,10,1,experiment,NA,NA,0,0.1,0.9,1,0,284,7,NA
fcp-trial,320,1160770,0.0-295.0-0.0,voc_e2,12385,"[{""event"":""fullscreenenter"",""trial"":1,""time"":1838}]",NA,NA,NA,NA,NA,1,#D8271C,#741CD8,0,10,0,38,1,1186.5,39,0,449,10,1,experiment,NA,NA,0,0.1,0.9,1,0,285,7,NA
fcp-trial,321,1164979,0.0-296.0-0.0,voc_e2,12385,"[{""event"":""fullscreenenter"",""trial"":1,""time"":1838}]",NA,NA,NA,NA,NA,0,#D89F1C,#3386FF,10,10,0,38,1,1887.5999999046326,37,1,817.3000001907349,10,0,experiment,NA,NA,2,0.5,0.5,5,4,286,7,NA
fcp-trial,322,1170810,0.0-297.0-0.0,voc_e2,12385,"[{""event"":""fullscreenenter"",""trial"":1,""time"":1838}]",NA,NA,NA,NA,NA,5,#FA92F8,#1CD855,10,0,1,40,0,1722.2999997138977,37,1,2604.300000190735,10,1,experiment,NA,NA,1,0.7,0.3,2,3,287,7,NA
fcp-trial,323,1173910,0.0-298.0-0.0,voc_e2,12385,"[{""event"":""fullscreenenter"",""trial"":1,""time"":1838}]",NA,NA,NA,NA,NA,6,#FA92F8,#1CD855,0,0,1,40,0,879.1000003814697,39,0,716.7000002861023,0,0,experiment,NA,NA,1,0.7,0.3,2,3,288,7,NA
fcp-trial,324,1176762,0.0-299.0-0.0,voc_e2,12385,"[{""event"":""fullscreenenter"",""trial"":1,""time"":1838}]",NA,NA,NA,NA,NA,5,#741CD8,#D8271C,10,0,1,40,0,880.2999997138977,37,1,466.1000003814697,10,1,experiment,NA,NA,0,0.9,0.1,0,1,289,7,NA
fcp-trial,325,1180421,0.0-300.0-0.0,voc_e2,12385,"[{""event"":""fullscreenenter"",""trial"":1,""time"":1838}]",NA,NA,NA,NA,NA,4,#FA92F8,#1CD855,10,0,1,40,0,1140.5999999046326,37,1,1014.3999996185304,10,1,experiment,NA,NA,1,0.7,0.3,2,3,290,7,NA
fcp-trial,326,1183727,0.0-301.0-0.0,voc_e2,12385,"[{""event"":""fullscreenenter"",""trial"":1,""time"":1838}]",NA,NA,NA,NA,NA,1,#3386FF,#D89F1C,0,0,1,38,1,1196.0999999046326,39,0,603.2000002861023,0,0,experiment,NA,NA,2,0.5,0.5,4,5,291,7,NA
fcp-trial,327,1186430,0.0-302.0-0.0,voc_e2,12385,"[{""event"":""fullscreenenter"",""trial"":1,""time"":1838}]",NA,NA,NA,NA,NA,3,#D89F1C,#3386FF,0,10,0,40,0,897.5999999046326,37,1,299.40000009536743,0,0,experiment,NA,NA,2,0.5,0.5,5,4,292,7,NA
fcp-trial,328,1189144,0.0-303.0-0.0,voc_e2,12385,"[{""event"":""fullscreenenter"",""trial"":1,""time"":1838}]",NA,NA,NA,NA,NA,2,#FA92F8,#1CD855,10,0,1,40,0,736.5,37,1,473.40000009536743,10,1,experiment,NA,NA,1,0.7,0.3,2,3,293,7,NA
fcp-trial,329,1191953,0.0-304.0-0.0,voc_e2,12385,"[{""event"":""fullscreenenter"",""trial"":1,""time"":1838}]",NA,NA,NA,NA,NA,2,#D8271C,#741CD8,0,10,0,40,0,906.6000003814697,39,0,395.90000009536743,10,1,experiment,NA,NA,0,0.1,0.9,1,0,294,7,NA
fcp-trial,330,1194939,0.0-305.0-0.0,voc_e2,12385,"[{""event"":""fullscreenenter"",""trial"":1,""time"":1838}]",NA,NA,NA,NA,NA,5,#D8271C,#741CD8,0,10,0,38,1,702.8999996185303,37,1,777.8000001907349,0,0,experiment,NA,NA,0,0.1,0.9,1,0,295,7,NA
fcp-trial,331,1197472,0.0-306.0-0.0,voc_e2,12385,"[{""event"":""fullscreenenter"",""trial"":1,""time"":1838}]",NA,NA,NA,NA,NA,1,#D8271C,#741CD8,0,10,0,40,0,584.1000003814697,37,1,442.09999990463257,0,0,experiment,NA,NA,0,0.1,0.9,1,0,296,7,NA
fcp-trial,332,1201051,0.0-307.0-0.0,voc_e2,12385,"[{""event"":""fullscreenenter"",""trial"":1,""time"":1838}]",NA,NA,NA,NA,NA,5,#FA92F8,#1CD855,0,0,1,40,0,1089.2000002861023,37,1,983.7000002861024,0,1,experiment,NA,NA,1,0.7,0.3,2,3,297,7,NA
fcp-trial,333,1203684,0.0-308.0-0.0,voc_e2,12385,"[{""event"":""fullscreenenter"",""trial"":1,""time"":1838}]",NA,NA,NA,NA,NA,5,#D89F1C,#3386FF,10,0,0,40,0,624.9000000953674,37,1,504.40000009536743,10,0,experiment,NA,NA,2,0.5,0.5,5,4,298,7,NA
fcp-trial,334,1206766,0.0-309.0-0.0,voc_e2,12385,"[{""event"":""fullscreenenter"",""trial"":1,""time"":1838}]",NA,NA,NA,NA,NA,4,#FA92F8,#1CD855,10,10,1,40,0,1074.0999999046326,39,0,503.8999996185303,10,0,experiment,NA,NA,1,0.7,0.3,2,3,299,7,NA
fcp-trial,335,1209550,0.0-310.0-0.0,voc_e2,12385,"[{""event"":""fullscreenenter"",""trial"":1,""time"":1838}]",NA,NA,NA,NA,NA,6,#1CD855,#FA92F8,0,10,0,40,0,980,37,1,298.30000019073486,0,0,experiment,NA,NA,1,0.3,0.7,3,2,300,7,NA
fcp-trial,336,1212117,0.0-311.0-0.0,voc_e2,12385,"[{""event"":""fullscreenenter"",""trial"":1,""time"":1838}]",NA,NA,NA,NA,NA,6,#D8271C,#741CD8,0,10,0,40,0,660.8999996185303,39,0,400.59999990463257,10,1,experiment,NA,NA,0,0.1,0.9,1,0,301,7,NA
fcp-trial,337,1214614,0.0-312.0-0.0,voc_e2,12385,"[{""event"":""fullscreenenter"",""trial"":1,""time"":1838}]",NA,NA,NA,NA,NA,2,#1CD855,#FA92F8,10,0,0,40,0,640.9000000953674,39,0,349.7999997138977,0,1,experiment,NA,NA,1,0.3,0.7,3,2,302,7,NA
fcp-trial,338,1217654,0.0-313.0-0.0,voc_e2,12385,"[{""event"":""fullscreenenter"",""trial"":1,""time"":1838}]",NA,NA,NA,NA,NA,1,#3386FF,#D89F1C,0,10,1,38,1,977.3000001907349,39,0,557.3000001907349,10,0,experiment,NA,NA,2,0.5,0.5,4,5,303,7,NA
fcp-trial,339,1220751,0.0-314.0-0.0,voc_e2,12385,"[{""event"":""fullscreenenter"",""trial"":1,""time"":1838}]",NA,NA,NA,NA,NA,3,#741CD8,#D8271C,10,0,1,38,1,967.5,37,1,624.2999997138977,10,1,experiment,NA,NA,0,0.9,0.1,0,1,304,7,NA
fcp-trial,340,1224009,0.0-315.0-0.0,voc_e2,12385,"[{""event"":""fullscreenenter"",""trial"":1,""time"":1838}]",NA,NA,NA,NA,NA,4,#741CD8,#D8271C,10,0,1,40,0,1421.2000002861023,37,1,329.80000019073486,10,1,experiment,NA,NA,0,0.9,0.1,0,1,305,7,NA
fcp-trial,341,1227082,0.0-316.0-0.0,voc_e2,12385,"[{""event"":""fullscreenenter"",""trial"":1,""time"":1838}]",NA,NA,NA,NA,NA,3,#FA92F8,#1CD855,10,0,1,40,0,1179.2000002861023,39,0,388.90000009536743,0,0,experiment,NA,NA,1,0.7,0.3,2,3,306,7,NA
fcp-trial,342,1229698,0.0-317.0-0.0,voc_e2,12385,"[{""event"":""fullscreenenter"",""trial"":1,""time"":1838}]",NA,NA,NA,NA,NA,3,#D89F1C,#3386FF,0,0,0,38,1,825.6999998092651,39,0,283.30000019073486,0,1,experiment,NA,NA,2,0.5,0.5,5,4,307,7,NA
fcp-trial,343,1233251,0.0-318.0-0.0,voc_e2,12385,"[{""event"":""fullscreenenter"",""trial"":1,""time"":1838}]",NA,NA,NA,NA,NA,1,#1CD855,#FA92F8,0,0,0,38,1,1443.4000000953674,39,0,605.2000002861023,0,1,experiment,NA,NA,1,0.3,0.7,3,2,308,7,NA
fcp-trial,344,1236575,0.0-319.0-0.0,voc_e2,12385,"[{""event"":""fullscreenenter"",""trial"":1,""time"":1838}]",NA,NA,NA,NA,NA,4,#D89F1C,#3386FF,0,10,0,40,0,1431,37,1,386.69999980926514,0,0,experiment,NA,NA,2,0.5,0.5,5,4,309,7,NA
fcp-trial,345,1239732,0.0-320.0-0.0,voc_e2,12385,"[{""event"":""fullscreenenter"",""trial"":1,""time"":1838}]",NA,NA,NA,NA,NA,2,#D8271C,#741CD8,10,10,0,40,0,1184.3000001907349,39,0,464.40000009536743,10,1,experiment,NA,NA,0,0.1,0.9,1,0,310,7,NA
fcp-trial,346,1243319,0.0-321.0-0.0,voc_e2,12385,"[{""event"":""fullscreenenter"",""trial"":1,""time"":1838}]",NA,NA,NA,NA,NA,0,#FA92F8,#1CD855,10,10,1,38,1,1169.2999997138977,37,1,911.9000000953674,10,1,experiment,NA,NA,1,0.7,0.3,2,3,311,7,NA
fcp-trial,347,1246644,0.0-322.0-0.0,voc_e2,12385,"[{""event"":""fullscreenenter"",""trial"":1,""time"":1838}]",NA,NA,NA,NA,NA,0,#D8271C,#741CD8,0,10,0,38,1,1125,39,0,695.3000001907349,10,1,experiment,NA,NA,0,0.1,0.9,1,0,312,7,NA
fcp-trial,348,1250315,0.0-323.0-0.0,voc_e2,12385,"[{""event"":""fullscreenenter"",""trial"":1,""time"":1838}]",NA,NA,NA,NA,NA,2,#3386FF,#D89F1C,0,0,1,38,1,1125.3999996185303,39,0,1039,0,0,experiment,NA,NA,2,0.5,0.5,4,5,313,7,NA
fcp-trial,349,1253296,0.0-324.0-0.0,voc_e2,12385,"[{""event"":""fullscreenenter"",""trial"":1,""time"":1838}]",NA,NA,NA,NA,NA,6,#D89F1C,#3386FF,10,0,0,40,0,920.5,37,1,555.5,10,0,experiment,NA,NA,2,0.5,0.5,5,4,314,7,NA
fcp-trial,350,1256966,0.0-325.0-0.0,voc_e2,12385,"[{""event"":""fullscreenenter"",""trial"":1,""time"":1838}]",NA,NA,NA,NA,NA,0,#D89F1C,#3386FF,10,0,0,38,1,1568.3999996185303,39,0,596.5999999046326,0,1,experiment,NA,NA,2,0.5,0.5,5,4,315,7,NA
audio-instructions,351,1265646,0.0-326.0,voc_e2,12385,"[{""event"":""fullscreenenter"",""trial"":1,""time"":1838}]",NA,2363.599999904633,static/audio/finished.wav,NA,0,NA,NA,NA,NA,NA,NA,NA,NA,NA,NA,NA,NA,NA,NA,NA,NA,NA,NA,NA,NA,NA,NA,NA,NA,NA
audio-instructions,352,1278054,0.0-327.0-0.0,voc_e2,12385,"[{""event"":""fullscreenenter"",""trial"":1,""time"":1838}]",NA,1572.6000003814695,static/audio/explicit1.wav,NA,0,NA,NA,NA,NA,NA,NA,NA,NA,NA,NA,NA,NA,NA,NA,NA,NA,NA,NA,NA,NA,NA,NA,NA,NA,NA
audio-instructions,353,1286142,0.0-327.0-1.0,voc_e2,12385,"[{""event"":""fullscreenenter"",""trial"":1,""time"":1838}]",NA,490.8999996185303,static/audio/explicit2.wav,NA,0,NA,NA,NA,NA,NA,NA,NA,NA,NA,NA,NA,NA,NA,NA,NA,NA,NA,NA,NA,NA,NA,NA,NA,NA,NA
image-slider-response,354,1290743,0.0-328.0,voc_e2,12385,"[{""event"":""fullscreenenter"",""trial"":1,""time"":1838}]",NA,4598.900000095367,static/img/machines/machine3.png,NA,NA,NA,NA,NA,NA,NA,NA,NA,NA,NA,NA,NA,NA,NA,NA,explicit,NA,NA,NA,NA,NA,NA,NA,NA,NA,7
image-slider-response,355,1294123,0.0-329.0,voc_e2,12385,"[{""event"":""fullscreenenter"",""trial"":1,""time"":1838}]",NA,3379,static/img/machines/machine1.png,NA,NA,NA,NA,NA,NA,NA,NA,NA,NA,NA,NA,NA,NA,NA,NA,explicit,NA,NA,NA,NA,NA,NA,NA,NA,NA,2
image-slider-response,356,1299236,0.0-330.0,voc_e2,12385,"[{""event"":""fullscreenenter"",""trial"":1,""time"":1838}]",NA,5111.199999809265,static/img/machines/machine6.png,NA,NA,NA,NA,NA,NA,NA,NA,NA,NA,NA,NA,NA,NA,NA,NA,explicit,NA,NA,NA,NA,NA,NA,NA,NA,NA,6
image-slider-response,357,1301640,0.0-331.0,voc_e2,12385,"[{""event"":""fullscreenenter"",""trial"":1,""time"":1838}]",NA,2402.900000095367,static/img/machines/machine5.png,NA,NA,NA,NA,NA,NA,NA,NA,NA,NA,NA,NA,NA,NA,NA,NA,explicit,NA,NA,NA,NA,NA,NA,NA,NA,NA,8
image-slider-response,358,1304601,0.0-332.0,voc_e2,12385,"[{""event"":""fullscreenenter"",""trial"":1,""time"":1838}]",NA,2959.7999997138977,static/img/machines/machine4.png,NA,NA,NA,NA,NA,NA,NA,NA,NA,NA,NA,NA,NA,NA,NA,NA,explicit,NA,NA,NA,NA,NA,NA,NA,NA,NA,8
image-slider-response,359,1307934,0.0-333.0,voc_e2,12385,"[{""event"":""fullscreenenter"",""trial"":1,""time"":1838}]",NA,3331.599999904633,static/img/machines/machine2.png,NA,NA,NA,NA,NA,NA,NA,NA,NA,NA,NA,NA,NA,NA,NA,NA,explicit,NA,NA,NA,NA,NA,NA,NA,NA,NA,6
