trial_type,trial_index,time_elapsed,internal_node_id,task_version,subject_id,interactions,success,rt,stimulus,key_press,button_pressed,offer,arcade_color_L,arcade_color_R,arcade_outcome_L,arcade_outcome_R,correct,stage_1_key,stage_1_choice,stage_1_rt,stage_2_key,stage_2_choice,stage_2_rt,stage_3_outcome,accuracy,phase,responses,num_errors,context,reward_prob_L,reward_prob_R,arcade_id_L,arcade_id_R,trial,block,response
pavlovia,0,8,0.0-0.0,voc_e2,12250,[],NA,NA,NA,NA,NA,NA,NA,NA,NA,NA,NA,NA,NA,NA,NA,NA,NA,NA,NA,NA,NA,NA,NA,NA,NA,NA,NA,NA,NA,NA
fullscreen,1,8151,0.0-1.0,voc_e2,12250,"[{""event"":""fullscreenenter"",""trial"":1,""time"":7152}]",TRUE,NA,NA,NA,NA,NA,NA,NA,NA,NA,NA,NA,NA,NA,NA,NA,NA,NA,NA,NA,NA,NA,NA,NA,NA,NA,NA,NA,NA,NA
audio-keyboard-response,2,10722,0.0-2.0,voc_e2,12250,"[{""event"":""fullscreenenter"",""trial"":1,""time"":7152}]",NA,2528,static/audio/beep_loop.wav,32,NA,NA,NA,NA,NA,NA,NA,NA,NA,NA,NA,NA,NA,NA,NA,NA,NA,NA,NA,NA,NA,NA,NA,NA,NA,NA
audio-test,3,12218,0.0-3.0,voc_e2,12250,"[{""event"":""fullscreenenter"",""trial"":1,""time"":7152}]",NA,NA,static/audio/turtle.wav,NA,3,NA,NA,NA,NA,NA,NA,NA,NA,NA,NA,NA,NA,NA,NA,NA,NA,NA,NA,NA,NA,NA,NA,NA,NA,NA
audio-test,4,14327,0.0-4.0,voc_e2,12250,"[{""event"":""fullscreenenter"",""trial"":1,""time"":7152}]",NA,NA,static/audio/shark.wav,NA,2,NA,NA,NA,NA,NA,NA,NA,NA,NA,NA,NA,NA,NA,NA,NA,NA,NA,NA,NA,NA,NA,NA,NA,NA,NA
audio-instructions,5,29821,0.0-5.0-0.0,voc_e2,12250,"[{""event"":""fullscreenenter"",""trial"":1,""time"":7152}]",NA,9710,static/audio/instructions1.wav,NA,0,NA,NA,NA,NA,NA,NA,NA,NA,NA,NA,NA,NA,NA,NA,NA,NA,NA,NA,NA,NA,NA,NA,NA,NA,NA
audio-instructions,6,40232,0.0-5.0-1.0,voc_e2,12250,"[{""event"":""fullscreenenter"",""trial"":1,""time"":7152}]",NA,3669.200000047684,static/audio/instructions2.wav,NA,0,NA,NA,NA,NA,NA,NA,NA,NA,NA,NA,NA,NA,NA,NA,NA,NA,NA,NA,NA,NA,NA,NA,NA,NA,NA
audio-instructions,7,47039,0.0-5.0-2.0,voc_e2,12250,"[{""event"":""fullscreenenter"",""trial"":1,""time"":7152}]",NA,1002.6999998092653,static/audio/instructions3.wav,NA,0,NA,NA,NA,NA,NA,NA,NA,NA,NA,NA,NA,NA,NA,NA,NA,NA,NA,NA,NA,NA,NA,NA,NA,NA,NA
audio-instructions,8,61656,0.0-5.0-3.0,voc_e2,12250,"[{""event"":""fullscreenenter"",""trial"":1,""time"":7152}]",NA,1391.7000000476835,static/audio/instructions4.wav,NA,0,NA,NA,NA,NA,NA,NA,NA,NA,NA,NA,NA,NA,NA,NA,NA,NA,NA,NA,NA,NA,NA,NA,NA,NA,NA
audio-instructions,9,71520,0.0-5.0-4.0,voc_e2,12250,"[{""event"":""fullscreenenter"",""trial"":1,""time"":7152}]",NA,474.60000014305115,static/audio/instructions5.wav,NA,0,NA,NA,NA,NA,NA,NA,NA,NA,NA,NA,NA,NA,NA,NA,NA,NA,NA,NA,NA,NA,NA,NA,NA,NA,NA
fcp-practice,10,73624,0.0-5.0-5.0-0.0,voc_e2,12250,"[{""event"":""fullscreenenter"",""trial"":1,""time"":7152}]",NA,NA,NA,NA,NA,NA,#EDC948,#46d3c8,10,0,1,null,null,null,37,1,590.3999998569489,10,1,practice,NA,NA,NA,NA,NA,NA,NA,NA,NA,NA
fcp-practice,11,75489,0.0-5.0-5.0-1.0,voc_e2,12250,"[{""event"":""fullscreenenter"",""trial"":1,""time"":7152}]",NA,NA,NA,NA,NA,NA,#EDC948,#46d3c8,10,0,1,null,null,null,37,1,360.7000000476837,10,1,practice,NA,NA,NA,NA,NA,NA,NA,NA,NA,NA
fcp-practice,12,77311,0.0-5.0-5.0-2.0,voc_e2,12250,"[{""event"":""fullscreenenter"",""trial"":1,""time"":7152}]",NA,NA,NA,NA,NA,NA,#EDC948,#46d3c8,0,10,1,null,null,null,37,1,318.2000000476837,0,1,practice,NA,NA,NA,NA,NA,NA,NA,NA,NA,NA
fcp-practice,13,79226,0.0-5.0-5.0-3.0,voc_e2,12250,"[{""event"":""fullscreenenter"",""trial"":1,""time"":7152}]",NA,NA,NA,NA,NA,NA,#EDC948,#46d3c8,10,0,1,null,null,null,37,1,411.5,10,1,practice,NA,NA,NA,NA,NA,NA,NA,NA,NA,NA
fcp-practice,14,81233,0.0-5.0-5.0-4.0,voc_e2,12250,"[{""event"":""fullscreenenter"",""trial"":1,""time"":7152}]",NA,NA,NA,NA,NA,NA,#EDC948,#46d3c8,10,0,1,null,null,null,37,1,500.59999990463257,10,1,practice,NA,NA,NA,NA,NA,NA,NA,NA,NA,NA
audio-instructions,15,101517,0.0-5.0-6.0,voc_e2,12250,"[{""event"":""fullscreenenter"",""trial"":1,""time"":7152}]",NA,2277.099999904633,static/audio/instructions6.wav,NA,0,NA,NA,NA,NA,NA,NA,NA,NA,NA,NA,NA,NA,NA,NA,NA,NA,NA,NA,NA,NA,NA,NA,NA,NA,NA
audio-instructions,16,121373,0.0-5.0-7.0,voc_e2,12250,"[{""event"":""fullscreenenter"",""trial"":1,""time"":7152}]",NA,655.7000000476837,static/audio/instructions7.wav,NA,0,NA,NA,NA,NA,NA,NA,NA,NA,NA,NA,NA,NA,NA,NA,NA,NA,NA,NA,NA,NA,NA,NA,NA,NA,NA
audio-instructions,17,131332,0.0-5.0-8.0,voc_e2,12250,"[{""event"":""fullscreenenter"",""trial"":1,""time"":7152}]",NA,487.2999999523163,static/audio/instructions8.wav,NA,0,NA,NA,NA,NA,NA,NA,NA,NA,NA,NA,NA,NA,NA,NA,NA,NA,NA,NA,NA,NA,NA,NA,NA,NA,NA
fcp-comprehension,18,144615,0.0-5.0-9.0,voc_e2,12250,"[{""event"":""fullscreenenter"",""trial"":1,""time"":7152}]",NA,13281.199999809263,NA,NA,NA,NA,NA,NA,NA,NA,NA,NA,NA,NA,NA,NA,NA,NA,NA,NA,"false,true",1,NA,NA,NA,NA,NA,NA,NA,NA
audio-instructions,19,157525,0.0-5.1-0.1,voc_e2,12250,"[{""event"":""fullscreenenter"",""trial"":1,""time"":7152}]",NA,8130.900000095367,static/audio/instructions1.wav,NA,0,NA,NA,NA,NA,NA,NA,NA,NA,NA,NA,NA,NA,NA,NA,NA,NA,NA,NA,NA,NA,NA,NA,NA,NA,NA
audio-instructions,20,164939,0.0-5.1-1.1,voc_e2,12250,"[{""event"":""fullscreenenter"",""trial"":1,""time"":7152}]",NA,670.6999998092651,static/audio/instructions2.wav,NA,0,NA,NA,NA,NA,NA,NA,NA,NA,NA,NA,NA,NA,NA,NA,NA,NA,NA,NA,NA,NA,NA,NA,NA,NA,NA
audio-instructions,21,171648,0.0-5.1-2.1,voc_e2,12250,"[{""event"":""fullscreenenter"",""trial"":1,""time"":7152}]",NA,905.4000000953674,static/audio/instructions3.wav,NA,0,NA,NA,NA,NA,NA,NA,NA,NA,NA,NA,NA,NA,NA,NA,NA,NA,NA,NA,NA,NA,NA,NA,NA,NA,NA
audio-instructions,22,185528,0.0-5.1-3.1,voc_e2,12250,"[{""event"":""fullscreenenter"",""trial"":1,""time"":7152}]",NA,652.5999999046326,static/audio/instructions4.wav,NA,0,NA,NA,NA,NA,NA,NA,NA,NA,NA,NA,NA,NA,NA,NA,NA,NA,NA,NA,NA,NA,NA,NA,NA,NA,NA
audio-instructions,23,195326,0.0-5.1-4.1,voc_e2,12250,"[{""event"":""fullscreenenter"",""trial"":1,""time"":7152}]",NA,407.7999999523163,static/audio/instructions5.wav,NA,0,NA,NA,NA,NA,NA,NA,NA,NA,NA,NA,NA,NA,NA,NA,NA,NA,NA,NA,NA,NA,NA,NA,NA,NA,NA
fcp-practice,24,197563,0.0-5.1-5.1-0.1,voc_e2,12250,"[{""event"":""fullscreenenter"",""trial"":1,""time"":7152}]",NA,NA,NA,NA,NA,NA,#EDC948,#46d3c8,10,0,1,null,null,null,37,1,731.7999999523163,10,1,practice,NA,NA,NA,NA,NA,NA,NA,NA,NA,NA
fcp-practice,25,199399,0.0-5.1-5.1-1.1,voc_e2,12250,"[{""event"":""fullscreenenter"",""trial"":1,""time"":7152}]",NA,NA,NA,NA,NA,NA,#EDC948,#46d3c8,10,0,1,null,null,null,37,1,329.30000019073486,10,1,practice,NA,NA,NA,NA,NA,NA,NA,NA,NA,NA
fcp-practice,26,201656,0.0-5.1-5.1-2.1,voc_e2,12250,"[{""event"":""fullscreenenter"",""trial"":1,""time"":7152}]",NA,NA,NA,NA,NA,NA,#EDC948,#46d3c8,0,10,1,null,null,null,37,1,752.1999998092651,0,1,practice,NA,NA,NA,NA,NA,NA,NA,NA,NA,NA
fcp-practice,27,203533,0.0-5.1-5.1-3.1,voc_e2,12250,"[{""event"":""fullscreenenter"",""trial"":1,""time"":7152}]",NA,NA,NA,NA,NA,NA,#EDC948,#46d3c8,10,0,1,null,null,null,37,1,372.5,10,1,practice,NA,NA,NA,NA,NA,NA,NA,NA,NA,NA
fcp-practice,28,205491,0.0-5.1-5.1-4.1,voc_e2,12250,"[{""event"":""fullscreenenter"",""trial"":1,""time"":7152}]",NA,NA,NA,NA,NA,NA,#EDC948,#46d3c8,10,0,1,null,null,null,37,1,453.2000000476837,10,1,practice,NA,NA,NA,NA,NA,NA,NA,NA,NA,NA
audio-instructions,29,225245,0.0-5.1-6.1,voc_e2,12250,"[{""event"":""fullscreenenter"",""trial"":1,""time"":7152}]",NA,1745.5,static/audio/instructions6.wav,NA,0,NA,NA,NA,NA,NA,NA,NA,NA,NA,NA,NA,NA,NA,NA,NA,NA,NA,NA,NA,NA,NA,NA,NA,NA,NA
audio-instructions,30,247665,0.0-5.1-7.1,voc_e2,12250,"[{""event"":""fullscreenenter"",""trial"":1,""time"":7152}]",NA,3215.7000000476837,static/audio/instructions7.wav,NA,0,NA,NA,NA,NA,NA,NA,NA,NA,NA,NA,NA,NA,NA,NA,NA,NA,NA,NA,NA,NA,NA,NA,NA,NA,NA
audio-instructions,31,258680,0.0-5.1-8.1,voc_e2,12250,"[{""event"":""fullscreenenter"",""trial"":1,""time"":7152}]",NA,1545.1999998092651,static/audio/instructions8.wav,NA,0,NA,NA,NA,NA,NA,NA,NA,NA,NA,NA,NA,NA,NA,NA,NA,NA,NA,NA,NA,NA,NA,NA,NA,NA,NA
fcp-comprehension,32,267581,0.0-5.1-9.1,voc_e2,12250,"[{""event"":""fullscreenenter"",""trial"":1,""time"":7152}]",NA,8898.599999904633,NA,NA,NA,NA,NA,NA,NA,NA,NA,NA,NA,NA,NA,NA,NA,NA,NA,NA,"false,true",1,NA,NA,NA,NA,NA,NA,NA,NA
audio-instructions,33,272823,0.0-5.2-0.2,voc_e2,12250,"[{""event"":""fullscreenenter"",""trial"":1,""time"":7152}]",NA,461.30000019073486,static/audio/instructions1.wav,NA,0,NA,NA,NA,NA,NA,NA,NA,NA,NA,NA,NA,NA,NA,NA,NA,NA,NA,NA,NA,NA,NA,NA,NA,NA,NA
audio-instructions,34,280884,0.0-5.2-1.2,voc_e2,12250,"[{""event"":""fullscreenenter"",""trial"":1,""time"":7152}]",NA,1316.8999998569489,static/audio/instructions2.wav,NA,0,NA,NA,NA,NA,NA,NA,NA,NA,NA,NA,NA,NA,NA,NA,NA,NA,NA,NA,NA,NA,NA,NA,NA,NA,NA
audio-instructions,35,287328,0.0-5.2-2.2,voc_e2,12250,"[{""event"":""fullscreenenter"",""trial"":1,""time"":7152}]",NA,641,static/audio/instructions3.wav,NA,0,NA,NA,NA,NA,NA,NA,NA,NA,NA,NA,NA,NA,NA,NA,NA,NA,NA,NA,NA,NA,NA,NA,NA,NA,NA
audio-instructions,36,309825,0.0-5.2-3.2,voc_e2,12250,"[{""event"":""fullscreenenter"",""trial"":1,""time"":7152}]",NA,9271.099999904633,static/audio/instructions4.wav,NA,0,NA,NA,NA,NA,NA,NA,NA,NA,NA,NA,NA,NA,NA,NA,NA,NA,NA,NA,NA,NA,NA,NA,NA,NA,NA
audio-instructions,37,319663,0.0-5.2-4.2,voc_e2,12250,"[{""event"":""fullscreenenter"",""trial"":1,""time"":7152}]",NA,446,static/audio/instructions5.wav,NA,0,NA,NA,NA,NA,NA,NA,NA,NA,NA,NA,NA,NA,NA,NA,NA,NA,NA,NA,NA,NA,NA,NA,NA,NA,NA
fcp-practice,38,324453,0.0-5.2-5.2-0.2,voc_e2,12250,"[{""event"":""fullscreenenter"",""trial"":1,""time"":7152}]",NA,NA,NA,NA,NA,NA,#EDC948,#46d3c8,10,0,1,null,null,null,37,1,3280.7999999523163,10,1,practice,NA,NA,NA,NA,NA,NA,NA,NA,NA,NA
fcp-practice,39,326041,0.0-5.2-5.2-1.2,voc_e2,12250,"[{""event"":""fullscreenenter"",""trial"":1,""time"":7152}]",NA,NA,NA,NA,NA,NA,#EDC948,#46d3c8,10,0,1,null,null,null,37,1,82.29999995231628,10,1,practice,NA,NA,NA,NA,NA,NA,NA,NA,NA,NA
fcp-practice,40,327575,0.0-5.2-5.2-2.2,voc_e2,12250,"[{""event"":""fullscreenenter"",""trial"":1,""time"":7152}]",NA,NA,NA,NA,NA,NA,#EDC948,#46d3c8,0,10,1,null,null,null,37,1,29.59999990463257,0,1,practice,NA,NA,NA,NA,NA,NA,NA,NA,NA,NA
fcp-practice,41,329406,0.0-5.2-5.2-3.2,voc_e2,12250,"[{""event"":""fullscreenenter"",""trial"":1,""time"":7152}]",NA,NA,NA,NA,NA,NA,#EDC948,#46d3c8,10,0,1,null,null,null,37,1,326.7000000476837,10,1,practice,NA,NA,NA,NA,NA,NA,NA,NA,NA,NA
fcp-practice,42,331283,0.0-5.2-5.2-4.2,voc_e2,12250,"[{""event"":""fullscreenenter"",""trial"":1,""time"":7152}]",NA,NA,NA,NA,NA,NA,#EDC948,#46d3c8,10,0,1,null,null,null,37,1,372.7999999523163,10,1,practice,NA,NA,NA,NA,NA,NA,NA,NA,NA,NA
audio-instructions,43,352151,0.0-5.2-6.2,voc_e2,12250,"[{""event"":""fullscreenenter"",""trial"":1,""time"":7152}]",NA,2862.7999999523163,static/audio/instructions6.wav,NA,0,NA,NA,NA,NA,NA,NA,NA,NA,NA,NA,NA,NA,NA,NA,NA,NA,NA,NA,NA,NA,NA,NA,NA,NA,NA
audio-instructions,44,372125,0.0-5.2-7.2,voc_e2,12250,"[{""event"":""fullscreenenter"",""trial"":1,""time"":7152}]",NA,771.5999999046326,static/audio/instructions7.wav,NA,0,NA,NA,NA,NA,NA,NA,NA,NA,NA,NA,NA,NA,NA,NA,NA,NA,NA,NA,NA,NA,NA,NA,NA,NA,NA
audio-instructions,45,382456,0.0-5.2-8.2,voc_e2,12250,"[{""event"":""fullscreenenter"",""trial"":1,""time"":7152}]",NA,858.6000001430511,static/audio/instructions8.wav,NA,0,NA,NA,NA,NA,NA,NA,NA,NA,NA,NA,NA,NA,NA,NA,NA,NA,NA,NA,NA,NA,NA,NA,NA,NA,NA
fcp-comprehension,46,390160,0.0-5.2-9.2,voc_e2,12250,"[{""event"":""fullscreenenter"",""trial"":1,""time"":7152}]",NA,7702.199999809265,NA,NA,NA,NA,NA,NA,NA,NA,NA,NA,NA,NA,NA,NA,NA,NA,NA,NA,"true,true",0,NA,NA,NA,NA,NA,NA,NA,NA
audio-instructions,47,403559,0.0-6.0-0.0,voc_e2,12250,"[{""event"":""fullscreenenter"",""trial"":1,""time"":7152}]",NA,7850.099999904633,static/audio/instructions9.wav,NA,0,NA,NA,NA,NA,NA,NA,NA,NA,NA,NA,NA,NA,NA,NA,NA,NA,NA,NA,NA,NA,NA,NA,NA,NA,NA
audio-instructions,48,416191,0.0-6.0-1.0,voc_e2,12250,"[{""event"":""fullscreenenter"",""trial"":1,""time"":7152}]",NA,514,static/audio/instructions10.wav,NA,0,NA,NA,NA,NA,NA,NA,NA,NA,NA,NA,NA,NA,NA,NA,NA,NA,NA,NA,NA,NA,NA,NA,NA,NA,NA
fcp-trial,49,420900,0.0-6.0-2.0,voc_e2,12250,"[{""event"":""fullscreenenter"",""trial"":1,""time"":7152}]",NA,NA,NA,NA,NA,0,#EDC948,#46d3c8,10,10,1,38,1,1916,37,1,1281.0999999046326,10,1,practice,NA,NA,NA,NA,NA,NA,NA,NA,NA,NA
audio-instructions,50,433624,0.0-6.0-3.0,voc_e2,12250,"[{""event"":""fullscreenenter"",""trial"":1,""time"":7152}]",NA,1712.7999999523165,static/audio/instructions11.wav,NA,0,NA,NA,NA,NA,NA,NA,NA,NA,NA,NA,NA,NA,NA,NA,NA,NA,NA,NA,NA,NA,NA,NA,NA,NA,NA
fcp-trial,51,436928,0.0-6.0-4.0,voc_e2,12250,"[{""event"":""fullscreenenter"",""trial"":1,""time"":7152}]",NA,NA,NA,NA,NA,6,#EDC948,#46d3c8,10,10,1,40,0,632.9000000953674,37,1,1164.4000000953674,10,1,practice,NA,NA,NA,NA,NA,NA,NA,NA,NA,NA
audio-instructions,52,460906,0.0-6.0-5.0,voc_e2,12250,"[{""event"":""fullscreenenter"",""trial"":1,""time"":7152}]",NA,5288.299999952316,static/audio/instructions12.wav,NA,0,NA,NA,NA,NA,NA,NA,NA,NA,NA,NA,NA,NA,NA,NA,NA,NA,NA,NA,NA,NA,NA,NA,NA,NA,NA
audio-instructions,53,469959,0.0-6.0-6.0,voc_e2,12250,"[{""event"":""fullscreenenter"",""trial"":1,""time"":7152}]",NA,1456.6999998092651,static/audio/instructions13.wav,NA,0,NA,NA,NA,NA,NA,NA,NA,NA,NA,NA,NA,NA,NA,NA,NA,NA,NA,NA,NA,NA,NA,NA,NA,NA,NA
audio-instructions,54,586559,0.0-6.0-7.0,voc_e2,12250,"[{""event"":""fullscreenenter"",""trial"":1,""time"":7152}]",NA,108154.09999990465,static/audio/instructions14.wav,NA,0,NA,NA,NA,NA,NA,NA,NA,NA,NA,NA,NA,NA,NA,NA,NA,NA,NA,NA,NA,NA,NA,NA,NA,NA,NA
audio-instructions,55,599553,0.0-7.0-0.0,voc_e2,12250,"[{""event"":""fullscreenenter"",""trial"":1,""time"":7152}]",NA,6044.300000190735,static/audio/instructions15.wav,NA,0,NA,NA,NA,NA,NA,NA,NA,NA,NA,NA,NA,NA,NA,NA,NA,NA,NA,NA,NA,NA,NA,NA,NA,NA,NA
audio-instructions,56,614059,0.0-7.0-1.0,voc_e2,12250,"[{""event"":""fullscreenenter"",""trial"":1,""time"":7152}]",NA,7676.900000095367,static/audio/instructions16.wav,NA,0,NA,NA,NA,NA,NA,NA,NA,NA,NA,NA,NA,NA,NA,NA,NA,NA,NA,NA,NA,NA,NA,NA,NA,NA,NA
audio-instructions,57,623061,0.0-7.0-2.0,voc_e2,12250,"[{""event"":""fullscreenenter"",""trial"":1,""time"":7152}]",NA,1318.8999998569489,static/audio/instructions17.wav,NA,0,NA,NA,NA,NA,NA,NA,NA,NA,NA,NA,NA,NA,NA,NA,NA,NA,NA,NA,NA,NA,NA,NA,NA,NA,NA
audio-instructions,58,631686,0.0-7.0-3.0,voc_e2,12250,"[{""event"":""fullscreenenter"",""trial"":1,""time"":7152}]",NA,861.0999999046326,static/audio/instructions18.wav,NA,0,NA,NA,NA,NA,NA,NA,NA,NA,NA,NA,NA,NA,NA,NA,NA,NA,NA,NA,NA,NA,NA,NA,NA,NA,NA
audio-instructions,59,638897,0.0-7.0-4.0,voc_e2,12250,"[{""event"":""fullscreenenter"",""trial"":1,""time"":7152}]",NA,467.5,static/audio/instructions19.wav,NA,0,NA,NA,NA,NA,NA,NA,NA,NA,NA,NA,NA,NA,NA,NA,NA,NA,NA,NA,NA,NA,NA,NA,NA,NA,NA
fcp-comprehension,60,647940,0.0-7.0-5.0,voc_e2,12250,"[{""event"":""fullscreenenter"",""trial"":1,""time"":7152}]",NA,9040.5,NA,NA,NA,NA,NA,NA,NA,NA,NA,NA,NA,NA,NA,NA,NA,NA,NA,NA,"false,false,false,true",0,NA,NA,NA,NA,NA,NA,NA,NA
audio-instructions,61,799940,0.0-8.0,voc_e2,12250,"[{""event"":""fullscreenenter"",""trial"":1,""time"":7152}]",NA,142786.70000004768,static/audio/ready.wav,NA,0,NA,NA,NA,NA,NA,NA,NA,NA,NA,NA,NA,NA,NA,NA,NA,NA,NA,NA,NA,NA,NA,NA,NA,NA,NA
fcp-trial,62,804338,0.0-9.0-0.0,voc_e2,12250,"[{""event"":""fullscreenenter"",""trial"":1,""time"":7152}]",NA,NA,NA,NA,NA,4,#D89F1C,#3386FF,10,10,1,38,1,2116.600000143051,37,1,775.7999999523163,10,1,experiment,NA,NA,2,0.5,0.5,4,5,1,1,NA
fcp-trial,63,809053,0.0-10.0-0.0,voc_e2,12250,"[{""event"":""fullscreenenter"",""trial"":1,""time"":7152}]",NA,NA,NA,NA,NA,1,#1CD855,#FA92F8,0,10,0,38,1,2418.5999999046326,39,0,785.7000000476837,10,1,experiment,NA,NA,0,0.1,0.9,1,0,2,1,NA
fcp-trial,64,812606,0.0-11.0-0.0,voc_e2,12250,"[{""event"":""fullscreenenter"",""trial"":1,""time"":7152}]",NA,NA,NA,NA,NA,2,#FA92F8,#1CD855,0,0,1,38,1,1189.3999998569489,37,1,854.9000000953674,0,1,experiment,NA,NA,0,0.9,0.1,0,1,3,1,NA
fcp-trial,65,816020,0.0-12.0-0.0,voc_e2,12250,"[{""event"":""fullscreenenter"",""trial"":1,""time"":7152}]",NA,NA,NA,NA,NA,6,#741CD8,#D8271C,10,0,0,38,1,1267.4000000953674,37,1,641,10,0,experiment,NA,NA,1,0.3,0.7,3,2,4,1,NA
fcp-trial,66,819637,0.0-13.0-0.0,voc_e2,12250,"[{""event"":""fullscreenenter"",""trial"":1,""time"":7152}]",NA,NA,NA,NA,NA,0,#3386FF,#D89F1C,10,0,0,38,1,1058,39,0,1051.9000000953674,0,1,experiment,NA,NA,2,0.5,0.5,5,4,5,1,NA
fcp-trial,67,823127,0.0-14.0-0.0,voc_e2,12250,"[{""event"":""fullscreenenter"",""trial"":1,""time"":7152}]",NA,NA,NA,NA,NA,2,#3386FF,#D89F1C,10,0,0,38,1,1061.2000000476837,39,0,921.5,0,1,experiment,NA,NA,2,0.5,0.5,5,4,6,1,NA
fcp-trial,68,826762,0.0-15.0-0.0,voc_e2,12250,"[{""event"":""fullscreenenter"",""trial"":1,""time"":7152}]",NA,NA,NA,NA,NA,4,#1CD855,#FA92F8,0,10,0,38,1,1334.2999999523163,37,1,793.5,0,0,experiment,NA,NA,0,0.1,0.9,1,0,7,1,NA
fcp-trial,69,830253,0.0-16.0-0.0,voc_e2,12250,"[{""event"":""fullscreenenter"",""trial"":1,""time"":7152}]",NA,NA,NA,NA,NA,6,#3386FF,#D89F1C,10,10,0,38,1,1265.5999999046326,37,1,718.6000001430511,10,0,experiment,NA,NA,2,0.5,0.5,5,4,8,1,NA
fcp-trial,70,833598,0.0-17.0-0.0,voc_e2,12250,"[{""event"":""fullscreenenter"",""trial"":1,""time"":7152}]",NA,NA,NA,NA,NA,4,#D8271C,#741CD8,10,0,1,38,1,1120.1999998092651,39,0,714.8999998569489,0,0,experiment,NA,NA,1,0.7,0.3,2,3,9,1,NA
fcp-trial,71,837007,0.0-18.0-0.0,voc_e2,12250,"[{""event"":""fullscreenenter"",""trial"":1,""time"":7152}]",NA,NA,NA,NA,NA,5,#D89F1C,#3386FF,10,0,1,38,1,1009.2000000476837,39,0,891.1000001430511,0,0,experiment,NA,NA,2,0.5,0.5,4,5,10,1,NA
fcp-trial,72,840711,0.0-19.0-0.0,voc_e2,12250,"[{""event"":""fullscreenenter"",""trial"":1,""time"":7152}]",NA,NA,NA,NA,NA,5,#FA92F8,#1CD855,10,0,1,40,0,1085.1000001430511,37,1,1110.6999998092651,10,1,experiment,NA,NA,0,0.9,0.1,0,1,11,1,NA
fcp-trial,73,844883,0.0-20.0-0.0,voc_e2,12250,"[{""event"":""fullscreenenter"",""trial"":1,""time"":7152}]",NA,NA,NA,NA,NA,1,#741CD8,#D8271C,10,0,0,38,1,1917.2999999523163,39,0,747.5999999046326,0,1,experiment,NA,NA,1,0.3,0.7,3,2,12,1,NA
fcp-trial,74,848725,0.0-21.0-0.0,voc_e2,12250,"[{""event"":""fullscreenenter"",""trial"":1,""time"":7152}]",NA,NA,NA,NA,NA,3,#741CD8,#D8271C,0,10,0,38,1,1765.9000000953674,37,1,565.9000000953674,0,0,experiment,NA,NA,1,0.3,0.7,3,2,13,1,NA
fcp-trial,75,852023,0.0-22.0-0.0,voc_e2,12250,"[{""event"":""fullscreenenter"",""trial"":1,""time"":7152}]",NA,NA,NA,NA,NA,3,#3386FF,#D89F1C,10,0,0,38,1,1192.7999999523163,37,1,597.7999999523163,10,0,experiment,NA,NA,2,0.5,0.5,5,4,14,1,NA
fcp-trial,76,856088,0.0-23.0-0.0,voc_e2,12250,"[{""event"":""fullscreenenter"",""trial"":1,""time"":7152}]",NA,NA,NA,NA,NA,2,#741CD8,#D8271C,10,10,0,38,1,1931.9000000953674,39,0,624.0999999046326,10,1,experiment,NA,NA,1,0.3,0.7,3,2,15,1,NA
fcp-trial,77,860963,0.0-24.0-0.0,voc_e2,12250,"[{""event"":""fullscreenenter"",""trial"":1,""time"":7152}]",NA,NA,NA,NA,NA,0,#1CD855,#FA92F8,0,10,0,38,1,2162.2999999523163,37,1,1205,0,0,experiment,NA,NA,0,0.1,0.9,1,0,16,1,NA
fcp-trial,78,865600,0.0-25.0-0.0,voc_e2,12250,"[{""event"":""fullscreenenter"",""trial"":1,""time"":7152}]",NA,NA,NA,NA,NA,0,#741CD8,#D8271C,0,10,0,38,1,2113.7999999523163,39,0,1015,10,1,experiment,NA,NA,1,0.3,0.7,3,2,17,1,NA
fcp-trial,79,870615,0.0-26.0-0.0,voc_e2,12250,"[{""event"":""fullscreenenter"",""trial"":1,""time"":7152}]",NA,NA,NA,NA,NA,6,#FA92F8,#1CD855,10,0,1,38,1,2256.0999999046326,37,1,1251.6999998092651,10,1,experiment,NA,NA,0,0.9,0.1,0,1,18,1,NA
fcp-trial,80,875229,0.0-27.0-0.0,voc_e2,12250,"[{""event"":""fullscreenenter"",""trial"":1,""time"":7152}]",NA,NA,NA,NA,NA,1,#D89F1C,#3386FF,10,10,1,38,1,2264.0999999046326,39,0,842.0999999046326,10,0,experiment,NA,NA,2,0.5,0.5,4,5,19,1,NA
fcp-trial,81,878871,0.0-28.0-0.0,voc_e2,12250,"[{""event"":""fullscreenenter"",""trial"":1,""time"":7152}]",NA,NA,NA,NA,NA,3,#1CD855,#FA92F8,0,10,0,38,1,1602.3999998569489,37,1,532.5999999046326,0,0,experiment,NA,NA,0,0.1,0.9,1,0,20,1,NA
fcp-trial,82,883105,0.0-29.0-0.0,voc_e2,12250,"[{""event"":""fullscreenenter"",""trial"":1,""time"":7152}]",NA,NA,NA,NA,NA,5,#D8271C,#741CD8,0,0,1,40,0,1822.0999999046326,39,0,904.9000000953674,0,0,experiment,NA,NA,1,0.7,0.3,2,3,21,1,NA
fcp-trial,83,887015,0.0-30.0-0.0,voc_e2,12250,"[{""event"":""fullscreenenter"",""trial"":1,""time"":7152}]",NA,NA,NA,NA,NA,2,#3386FF,#D89F1C,0,10,0,38,1,1808.9000000953674,37,1,595.4000000953674,0,0,experiment,NA,NA,2,0.5,0.5,5,4,22,1,NA
fcp-trial,84,890357,0.0-31.0-0.0,voc_e2,12250,"[{""event"":""fullscreenenter"",""trial"":1,""time"":7152}]",NA,NA,NA,NA,NA,6,#3386FF,#D89F1C,10,10,0,40,0,1280.7999999523163,39,0,554.6000001430511,10,1,experiment,NA,NA,2,0.5,0.5,5,4,23,1,NA
fcp-trial,85,893968,0.0-32.0-0.0,voc_e2,12250,"[{""event"":""fullscreenenter"",""trial"":1,""time"":7152}]",NA,NA,NA,NA,NA,0,#FA92F8,#1CD855,10,0,1,38,1,1372.2999999523163,37,1,732.7999999523163,10,1,experiment,NA,NA,0,0.9,0.1,0,1,24,1,NA
fcp-trial,86,897148,0.0-33.0-0.0,voc_e2,12250,"[{""event"":""fullscreenenter"",""trial"":1,""time"":7152}]",NA,NA,NA,NA,NA,6,#1CD855,#FA92F8,0,10,0,40,0,1100.3999998569489,39,0,572.7000000476837,10,1,experiment,NA,NA,0,0.1,0.9,1,0,25,1,NA
fcp-trial,87,900636,0.0-34.0-0.0,voc_e2,12250,"[{""event"":""fullscreenenter"",""trial"":1,""time"":7152}]",NA,NA,NA,NA,NA,5,#D8271C,#741CD8,10,0,1,40,0,1360.7999999523163,39,0,619.2999999523163,0,0,experiment,NA,NA,1,0.7,0.3,2,3,26,1,NA
fcp-trial,88,904117,0.0-35.0-0.0,voc_e2,12250,"[{""event"":""fullscreenenter"",""trial"":1,""time"":7152}]",NA,NA,NA,NA,NA,3,#D89F1C,#3386FF,0,0,1,38,1,1458.2999999523163,37,1,515.5,0,1,experiment,NA,NA,2,0.5,0.5,4,5,27,1,NA
fcp-trial,89,907882,0.0-36.0-0.0,voc_e2,12250,"[{""event"":""fullscreenenter"",""trial"":1,""time"":7152}]",NA,NA,NA,NA,NA,0,#741CD8,#D8271C,0,0,0,38,1,1345.3000001907349,39,0,912,0,1,experiment,NA,NA,1,0.3,0.7,3,2,28,1,NA
fcp-trial,90,911600,0.0-37.0-0.0,voc_e2,12250,"[{""event"":""fullscreenenter"",""trial"":1,""time"":7152}]",NA,NA,NA,NA,NA,3,#FA92F8,#1CD855,10,0,1,38,1,1430.7999999523163,37,1,780.5,10,1,experiment,NA,NA,0,0.9,0.1,0,1,29,1,NA
fcp-trial,91,915227,0.0-38.0-0.0,voc_e2,12250,"[{""event"":""fullscreenenter"",""trial"":1,""time"":7152}]",NA,NA,NA,NA,NA,3,#D8271C,#741CD8,10,0,1,38,1,1503.2999999523163,39,0,617.7999999523163,0,0,experiment,NA,NA,1,0.7,0.3,2,3,30,1,NA
fcp-trial,92,919574,0.0-39.0-0.0,voc_e2,12250,"[{""event"":""fullscreenenter"",""trial"":1,""time"":7152}]",NA,NA,NA,NA,NA,1,#741CD8,#D8271C,0,10,0,40,0,1607.8000001907349,37,1,1229.8999998569489,0,0,experiment,NA,NA,1,0.3,0.7,3,2,31,1,NA
fcp-trial,93,923527,0.0-40.0-0.0,voc_e2,12250,"[{""event"":""fullscreenenter"",""trial"":1,""time"":7152}]",NA,NA,NA,NA,NA,1,#D89F1C,#3386FF,10,10,1,38,1,1883,37,1,559.5,10,1,experiment,NA,NA,2,0.5,0.5,4,5,32,1,NA
fcp-trial,94,927533,0.0-41.0-0.0,voc_e2,12250,"[{""event"":""fullscreenenter"",""trial"":1,""time"":7152}]",NA,NA,NA,NA,NA,2,#1CD855,#FA92F8,0,10,0,38,1,2061.7999999523163,37,1,436.10000014305115,0,0,experiment,NA,NA,0,0.1,0.9,1,0,33,1,NA
fcp-trial,95,931342,0.0-42.0-0.0,voc_e2,12250,"[{""event"":""fullscreenenter"",""trial"":1,""time"":7152}]",NA,NA,NA,NA,NA,4,#D89F1C,#3386FF,10,10,1,40,0,1845.6000001430511,39,0,457.39999985694885,10,0,experiment,NA,NA,2,0.5,0.5,4,5,34,1,NA
fcp-trial,96,935241,0.0-43.0-0.0,voc_e2,12250,"[{""event"":""fullscreenenter"",""trial"":1,""time"":7152}]",NA,NA,NA,NA,NA,1,#FA92F8,#1CD855,0,0,1,38,1,1564.4000000953674,39,0,829.9000000953674,0,0,experiment,NA,NA,0,0.9,0.1,0,1,35,1,NA
fcp-trial,97,939772,0.0-44.0-0.0,voc_e2,12250,"[{""event"":""fullscreenenter"",""trial"":1,""time"":7152}]",NA,NA,NA,NA,NA,4,#741CD8,#D8271C,0,0,0,38,1,2347.7000000476837,37,1,675.6999998092651,0,0,experiment,NA,NA,1,0.3,0.7,3,2,36,1,NA
fcp-trial,98,943195,0.0-45.0-0.0,voc_e2,12250,"[{""event"":""fullscreenenter"",""trial"":1,""time"":7152}]",NA,NA,NA,NA,NA,5,#D89F1C,#3386FF,10,0,1,40,0,1314.7000000476837,39,0,600.5,0,0,experiment,NA,NA,2,0.5,0.5,4,5,37,1,NA
fcp-trial,99,946922,0.0-46.0-0.0,voc_e2,12250,"[{""event"":""fullscreenenter"",""trial"":1,""time"":7152}]",NA,NA,NA,NA,NA,2,#D8271C,#741CD8,10,0,1,38,1,1580.5,39,0,639.0999999046326,0,0,experiment,NA,NA,1,0.7,0.3,2,3,38,1,NA
fcp-trial,100,950630,0.0-47.0-0.0,voc_e2,12250,"[{""event"":""fullscreenenter"",""trial"":1,""time"":7152}]",NA,NA,NA,NA,NA,0,#D89F1C,#3386FF,0,10,1,38,1,1233.1000001430511,39,0,967.7000000476836,10,0,experiment,NA,NA,2,0.5,0.5,4,5,39,1,NA
fcp-trial,101,954123,0.0-48.0-0.0,voc_e2,12250,"[{""event"":""fullscreenenter"",""trial"":1,""time"":7152}]",NA,NA,NA,NA,NA,4,#FA92F8,#1CD855,10,0,1,38,1,1178.4000000953674,39,0,805.9000000953674,0,0,experiment,NA,NA,0,0.9,0.1,0,1,40,1,NA
fcp-trial,102,957981,0.0-49.0-0.0,voc_e2,12250,"[{""event"":""fullscreenenter"",""trial"":1,""time"":7152}]",NA,NA,NA,NA,NA,5,#FA92F8,#1CD855,10,10,1,40,0,1450.7999999523163,39,0,898.4000000953674,10,0,experiment,NA,NA,0,0.9,0.1,0,1,41,1,NA
fcp-trial,103,962617,0.0-50.0-0.0,voc_e2,12250,"[{""event"":""fullscreenenter"",""trial"":1,""time"":7152}]",NA,NA,NA,NA,NA,6,#741CD8,#D8271C,10,10,0,40,0,2155.899999856949,39,0,971.6000001430511,10,1,experiment,NA,NA,1,0.3,0.7,3,2,42,1,NA
fcp-trial,104,966935,0.0-51.0-0.0,voc_e2,12250,"[{""event"":""fullscreenenter"",""trial"":1,""time"":7152}]",NA,NA,NA,NA,NA,3,#741CD8,#D8271C,0,10,0,38,1,1794.5999999046326,37,1,1016,0,0,experiment,NA,NA,1,0.3,0.7,3,2,43,1,NA
fcp-trial,105,971261,0.0-52.0-0.0,voc_e2,12250,"[{""event"":""fullscreenenter"",""trial"":1,""time"":7152}]",NA,NA,NA,NA,NA,2,#D89F1C,#3386FF,0,10,1,38,1,1984.7000000476837,39,0,834.9000000953674,10,0,experiment,NA,NA,2,0.5,0.5,4,5,44,1,NA
fcp-trial,106,976713,0.0-53.0-0.0,voc_e2,12250,"[{""event"":""fullscreenenter"",""trial"":1,""time"":7152}]",NA,NA,NA,NA,NA,0,#1CD855,#FA92F8,0,10,0,38,1,3274.7000000476837,37,1,669.7999999523163,0,0,experiment,NA,NA,0,0.1,0.9,1,0,45,1,NA
fcp-trial,107,980695,0.0-54.0-0.0,voc_e2,12250,"[{""event"":""fullscreenenter"",""trial"":1,""time"":7152}]",NA,NA,NA,NA,NA,3,#D89F1C,#3386FF,10,10,1,38,1,1889.5,39,0,586.4000000953674,10,0,experiment,NA,NA,2,0.5,0.5,4,5,46,2,NA
fcp-trial,108,984627,0.0-55.0-0.0,voc_e2,12250,"[{""event"":""fullscreenenter"",""trial"":1,""time"":7152}]",NA,NA,NA,NA,NA,2,#D8271C,#741CD8,0,10,1,38,1,1153.0999999046326,37,1,1271.7000000476835,0,1,experiment,NA,NA,1,0.7,0.3,2,3,47,2,NA
fcp-trial,109,988166,0.0-56.0-0.0,voc_e2,12250,"[{""event"":""fullscreenenter"",""trial"":1,""time"":7152}]",NA,NA,NA,NA,NA,4,#FA92F8,#1CD855,0,0,1,40,0,1477.5999999046326,37,1,556.0999999046326,0,1,experiment,NA,NA,0,0.9,0.1,0,1,48,2,NA
fcp-trial,110,991470,0.0-57.0-0.0,voc_e2,12250,"[{""event"":""fullscreenenter"",""trial"":1,""time"":7152}]",NA,NA,NA,NA,NA,6,#3386FF,#D89F1C,0,0,0,40,0,1243.2999999523163,37,1,553.7999999523163,0,0,experiment,NA,NA,2,0.5,0.5,5,4,49,2,NA
fcp-trial,111,994748,0.0-58.0-0.0,voc_e2,12250,"[{""event"":""fullscreenenter"",""trial"":1,""time"":7152}]",NA,NA,NA,NA,NA,5,#1CD855,#FA92F8,0,0,0,40,0,1119.7000000476837,39,0,651,0,1,experiment,NA,NA,0,0.1,0.9,1,0,50,2,NA
fcp-trial,112,998199,0.0-59.0-0.0,voc_e2,12250,"[{""event"":""fullscreenenter"",""trial"":1,""time"":7152}]",NA,NA,NA,NA,NA,6,#D8271C,#741CD8,10,0,1,40,0,1278.8999998569489,37,1,663.7999999523163,10,1,experiment,NA,NA,1,0.7,0.3,2,3,51,2,NA
fcp-trial,113,1001556,0.0-60.0-0.0,voc_e2,12250,"[{""event"":""fullscreenenter"",""trial"":1,""time"":7152}]",NA,NA,NA,NA,NA,5,#3386FF,#D89F1C,10,0,0,40,0,1243.4000000953674,39,0,606.1000001430511,0,1,experiment,NA,NA,2,0.5,0.5,5,4,52,2,NA
fcp-trial,114,1005874,0.0-61.0-0.0,voc_e2,12250,"[{""event"":""fullscreenenter"",""trial"":1,""time"":7152}]",NA,NA,NA,NA,NA,2,#FA92F8,#1CD855,10,0,1,38,1,1733.6000001430511,39,0,1077.0999999046326,0,0,experiment,NA,NA,0,0.9,0.1,0,1,53,2,NA
fcp-trial,115,1010674,0.0-62.0-0.0,voc_e2,12250,"[{""event"":""fullscreenenter"",""trial"":1,""time"":7152}]",NA,NA,NA,NA,NA,3,#FA92F8,#1CD855,10,0,1,38,1,2320.2999999523163,37,1,970.7000000476836,10,1,experiment,NA,NA,0,0.9,0.1,0,1,54,2,NA
fcp-trial,116,1015101,0.0-63.0-0.0,voc_e2,12250,"[{""event"":""fullscreenenter"",""trial"":1,""time"":7152}]",NA,NA,NA,NA,NA,4,#741CD8,#D8271C,0,10,0,38,1,1690,37,1,1230.7000000476835,0,0,experiment,NA,NA,1,0.3,0.7,3,2,55,2,NA
fcp-trial,117,1018948,0.0-64.0-0.0,voc_e2,12250,"[{""event"":""fullscreenenter"",""trial"":1,""time"":7152}]",NA,NA,NA,NA,NA,4,#3386FF,#D89F1C,0,10,0,38,1,1723.2000000476837,39,0,617.2000000476837,10,1,experiment,NA,NA,2,0.5,0.5,5,4,56,2,NA
fcp-trial,118,1023337,0.0-65.0-0.0,voc_e2,12250,"[{""event"":""fullscreenenter"",""trial"":1,""time"":7152}]",NA,NA,NA,NA,NA,1,#FA92F8,#1CD855,10,0,1,38,1,1703.2999999523163,39,0,1178.2000000476835,0,0,experiment,NA,NA,0,0.9,0.1,0,1,57,2,NA
fcp-trial,119,1026737,0.0-66.0-0.0,voc_e2,12250,"[{""event"":""fullscreenenter"",""trial"":1,""time"":7152}]",NA,NA,NA,NA,NA,1,#741CD8,#D8271C,0,0,0,38,1,1263.5,39,0,628.2999999523163,0,1,experiment,NA,NA,1,0.3,0.7,3,2,58,2,NA
fcp-trial,120,1029850,0.0-67.0-0.0,voc_e2,12250,"[{""event"":""fullscreenenter"",""trial"":1,""time"":7152}]",NA,NA,NA,NA,NA,0,#D8271C,#741CD8,10,0,1,38,1,1055.8999998569489,37,1,549.1999998092651,10,1,experiment,NA,NA,1,0.7,0.3,2,3,59,2,NA
fcp-trial,121,1034976,0.0-68.0-0.0,voc_e2,12250,"[{""event"":""fullscreenenter"",""trial"":1,""time"":7152}]",NA,NA,NA,NA,NA,1,#D89F1C,#3386FF,0,0,1,38,1,2858,37,1,761.9000000953674,0,1,experiment,NA,NA,2,0.5,0.5,4,5,60,2,NA
fcp-trial,122,1039017,0.0-69.0-0.0,voc_e2,12250,"[{""event"":""fullscreenenter"",""trial"":1,""time"":7152}]",NA,NA,NA,NA,NA,6,#1CD855,#FA92F8,0,10,0,40,0,1593.8999998569489,37,1,939,0,0,experiment,NA,NA,0,0.1,0.9,1,0,61,2,NA
fcp-trial,123,1043054,0.0-70.0-0.0,voc_e2,12250,"[{""event"":""fullscreenenter"",""trial"":1,""time"":7152}]",NA,NA,NA,NA,NA,5,#D8271C,#741CD8,10,0,1,40,0,1794.2999999523163,39,0,734.5,0,0,experiment,NA,NA,1,0.7,0.3,2,3,62,2,NA
fcp-trial,124,1047610,0.0-71.0-0.0,voc_e2,12250,"[{""event"":""fullscreenenter"",""trial"":1,""time"":7152}]",NA,NA,NA,NA,NA,0,#D89F1C,#3386FF,0,0,1,38,1,2307.2000000476837,39,0,739.5999999046326,0,0,experiment,NA,NA,2,0.5,0.5,4,5,63,2,NA
fcp-trial,125,1051503,0.0-72.0-0.0,voc_e2,12250,"[{""event"":""fullscreenenter"",""trial"":1,""time"":7152}]",NA,NA,NA,NA,NA,6,#3386FF,#D89F1C,0,10,0,40,0,1879.7999999523163,37,1,505.89999985694885,0,0,experiment,NA,NA,2,0.5,0.5,5,4,64,2,NA
fcp-trial,126,1055981,0.0-73.0-0.0,voc_e2,12250,"[{""event"":""fullscreenenter"",""trial"":1,""time"":7152}]",NA,NA,NA,NA,NA,3,#D8271C,#741CD8,10,0,1,38,1,1266,37,1,1703.2000000476835,10,1,experiment,NA,NA,1,0.7,0.3,2,3,65,2,NA
fcp-trial,127,1059423,0.0-74.0-0.0,voc_e2,12250,"[{""event"":""fullscreenenter"",""trial"":1,""time"":7152}]",NA,NA,NA,NA,NA,1,#741CD8,#D8271C,0,10,0,38,1,1449.7999999523163,39,0,483.7000000476837,10,1,experiment,NA,NA,1,0.3,0.7,3,2,66,2,NA
fcp-trial,128,1063492,0.0-75.0-0.0,voc_e2,12250,"[{""event"":""fullscreenenter"",""trial"":1,""time"":7152}]",NA,NA,NA,NA,NA,3,#1CD855,#FA92F8,0,10,0,38,1,1769.7000000476837,37,1,792.5999999046326,0,0,experiment,NA,NA,0,0.1,0.9,1,0,67,2,NA
fcp-trial,129,1067924,0.0-76.0-0.0,voc_e2,12250,"[{""event"":""fullscreenenter"",""trial"":1,""time"":7152}]",NA,NA,NA,NA,NA,2,#3386FF,#D89F1C,10,10,0,38,1,2560.2999999523163,37,1,366,10,0,experiment,NA,NA,2,0.5,0.5,5,4,68,2,NA
fcp-trial,130,1072297,0.0-77.0-0.0,voc_e2,12250,"[{""event"":""fullscreenenter"",""trial"":1,""time"":7152}]",NA,NA,NA,NA,NA,5,#741CD8,#D8271C,0,0,0,38,1,1890.7000000476837,39,0,973.7000000476836,0,1,experiment,NA,NA,1,0.3,0.7,3,2,69,2,NA
fcp-trial,131,1076948,0.0-78.0-0.0,voc_e2,12250,"[{""event"":""fullscreenenter"",""trial"":1,""time"":7152}]",NA,NA,NA,NA,NA,6,#1CD855,#FA92F8,0,10,0,40,0,2194.7000000476837,39,0,947.7000000476836,10,1,experiment,NA,NA,0,0.1,0.9,1,0,70,2,NA
fcp-trial,132,1080522,0.0-79.0-0.0,voc_e2,12250,"[{""event"":""fullscreenenter"",""trial"":1,""time"":7152}]",NA,NA,NA,NA,NA,1,#1CD855,#FA92F8,0,10,0,38,1,1690.4000000953674,39,0,376.10000014305115,10,1,experiment,NA,NA,0,0.1,0.9,1,0,71,2,NA
fcp-trial,133,1084883,0.0-80.0-0.0,voc_e2,12250,"[{""event"":""fullscreenenter"",""trial"":1,""time"":7152}]",NA,NA,NA,NA,NA,2,#FA92F8,#1CD855,10,0,1,38,1,1779.7000000476837,37,1,1073.7000000476835,10,1,experiment,NA,NA,0,0.9,0.1,0,1,72,2,NA
fcp-trial,134,1088886,0.0-81.0-0.0,voc_e2,12250,"[{""event"":""fullscreenenter"",""trial"":1,""time"":7152}]",NA,NA,NA,NA,NA,5,#3386FF,#D89F1C,10,0,0,40,0,2072.7000000476837,39,0,421.5,0,1,experiment,NA,NA,2,0.5,0.5,5,4,73,2,NA
fcp-trial,135,1094172,0.0-82.0-0.0,voc_e2,12250,"[{""event"":""fullscreenenter"",""trial"":1,""time"":7152}]",NA,NA,NA,NA,NA,2,#741CD8,#D8271C,0,10,0,38,1,2339,39,0,1435.7999999523165,10,1,experiment,NA,NA,1,0.3,0.7,3,2,74,2,NA
fcp-trial,136,1098523,0.0-83.0-0.0,voc_e2,12250,"[{""event"":""fullscreenenter"",""trial"":1,""time"":7152}]",NA,NA,NA,NA,NA,0,#3386FF,#D89F1C,0,10,0,38,1,2425.399999856949,37,1,410.89999985694885,0,0,experiment,NA,NA,2,0.5,0.5,5,4,75,2,NA
fcp-trial,137,1102955,0.0-84.0-0.0,voc_e2,12250,"[{""event"":""fullscreenenter"",""trial"":1,""time"":7152}]",NA,NA,NA,NA,NA,4,#1CD855,#FA92F8,10,10,0,38,1,2086.7999999523163,37,1,837.7999999523163,10,0,experiment,NA,NA,0,0.1,0.9,1,0,76,2,NA
fcp-trial,138,1106275,0.0-85.0-0.0,voc_e2,12250,"[{""event"":""fullscreenenter"",""trial"":1,""time"":7152}]",NA,NA,NA,NA,NA,5,#FA92F8,#1CD855,10,0,1,40,0,1319.2000000476837,39,0,491.69999980926514,0,0,experiment,NA,NA,0,0.9,0.1,0,1,77,2,NA
fcp-trial,139,1110756,0.0-86.0-0.0,voc_e2,12250,"[{""event"":""fullscreenenter"",""trial"":1,""time"":7152}]",NA,NA,NA,NA,NA,6,#741CD8,#D8271C,0,10,0,38,1,2555.899999856949,39,0,418.2000000476837,10,1,experiment,NA,NA,1,0.3,0.7,3,2,78,2,NA
fcp-trial,140,1114504,0.0-87.0-0.0,voc_e2,12250,"[{""event"":""fullscreenenter"",""trial"":1,""time"":7152}]",NA,NA,NA,NA,NA,1,#D89F1C,#3386FF,0,0,1,38,1,1697.5,39,0,543.1000001430511,0,0,experiment,NA,NA,2,0.5,0.5,4,5,79,2,NA
fcp-trial,141,1118682,0.0-88.0-0.0,voc_e2,12250,"[{""event"":""fullscreenenter"",""trial"":1,""time"":7152}]",NA,NA,NA,NA,NA,0,#D8271C,#741CD8,0,0,1,38,1,2413.100000143051,39,0,257.69999980926514,0,0,experiment,NA,NA,1,0.7,0.3,2,3,80,2,NA
fcp-trial,142,1123595,0.0-89.0-0.0,voc_e2,12250,"[{""event"":""fullscreenenter"",""trial"":1,""time"":7152}]",NA,NA,NA,NA,NA,4,#D89F1C,#3386FF,0,10,1,40,0,2322.699999809265,37,1,1082.5,0,1,experiment,NA,NA,2,0.5,0.5,4,5,81,2,NA
fcp-trial,143,1128057,0.0-90.0-0.0,voc_e2,12250,"[{""event"":""fullscreenenter"",""trial"":1,""time"":7152}]",NA,NA,NA,NA,NA,0,#FA92F8,#1CD855,10,0,1,38,1,1957,39,0,998,0,0,experiment,NA,NA,0,0.9,0.1,0,1,82,2,NA
fcp-trial,144,1132173,0.0-91.0-0.0,voc_e2,12250,"[{""event"":""fullscreenenter"",""trial"":1,""time"":7152}]",NA,NA,NA,NA,NA,4,#741CD8,#D8271C,0,10,0,38,1,1743,37,1,865.9000000953674,0,0,experiment,NA,NA,1,0.3,0.7,3,2,83,2,NA
fcp-trial,145,1136729,0.0-92.0-0.0,voc_e2,12250,"[{""event"":""fullscreenenter"",""trial"":1,""time"":7152}]",NA,NA,NA,NA,NA,3,#3386FF,#D89F1C,10,10,0,38,1,2775.2999999523163,37,1,275.80000019073486,10,0,experiment,NA,NA,2,0.5,0.5,5,4,84,2,NA
fcp-trial,146,1140819,0.0-93.0-0.0,voc_e2,12250,"[{""event"":""fullscreenenter"",""trial"":1,""time"":7152}]",NA,NA,NA,NA,NA,3,#D8271C,#741CD8,0,10,1,38,1,2221.300000190735,37,1,356.5,0,1,experiment,NA,NA,1,0.7,0.3,2,3,85,2,NA
fcp-trial,147,1144564,0.0-94.0-0.0,voc_e2,12250,"[{""event"":""fullscreenenter"",""trial"":1,""time"":7152}]",NA,NA,NA,NA,NA,4,#D8271C,#741CD8,10,0,1,38,1,1889.7000000476837,37,1,348,10,1,experiment,NA,NA,1,0.7,0.3,2,3,86,2,NA
fcp-trial,148,1149871,0.0-95.0-0.0,voc_e2,12250,"[{""event"":""fullscreenenter"",""trial"":1,""time"":7152}]",NA,NA,NA,NA,NA,5,#1CD855,#FA92F8,10,0,0,40,0,3249.7000000476837,39,0,548,0,1,experiment,NA,NA,0,0.1,0.9,1,0,87,2,NA
fcp-trial,149,1154710,0.0-96.0-0.0,voc_e2,12250,"[{""event"":""fullscreenenter"",""trial"":1,""time"":7152}]",NA,NA,NA,NA,NA,4,#D89F1C,#3386FF,0,0,1,38,1,2896.7999999523163,39,0,432.7000000476837,0,0,experiment,NA,NA,2,0.5,0.5,4,5,88,2,NA
fcp-trial,150,1158993,0.0-97.0-0.0,voc_e2,12250,"[{""event"":""fullscreenenter"",""trial"":1,""time"":7152}]",NA,NA,NA,NA,NA,0,#D89F1C,#3386FF,10,10,1,38,1,2421,37,1,354.40000009536743,10,1,experiment,NA,NA,2,0.5,0.5,4,5,89,2,NA
fcp-trial,151,1162959,0.0-98.0-0.0,voc_e2,12250,"[{""event"":""fullscreenenter"",""trial"":1,""time"":7152}]",NA,NA,NA,NA,NA,6,#FA92F8,#1CD855,10,0,1,40,0,2010.1999998092651,39,0,448.10000014305115,0,0,experiment,NA,NA,0,0.9,0.1,0,1,90,2,NA
fcp-trial,152,1166593,0.0-99.0-0.0,voc_e2,12250,"[{""event"":""fullscreenenter"",""trial"":1,""time"":7152}]",NA,NA,NA,NA,NA,1,#D8271C,#741CD8,10,0,1,38,1,1520.4000000953674,37,1,604.0999999046326,10,1,experiment,NA,NA,1,0.7,0.3,2,3,91,3,NA
fcp-trial,153,1171283,0.0-100.0-0.0,voc_e2,12250,"[{""event"":""fullscreenenter"",""trial"":1,""time"":7152}]",NA,NA,NA,NA,NA,2,#3386FF,#D89F1C,0,10,0,38,1,2706.5,37,1,477.7999999523163,0,0,experiment,NA,NA,2,0.5,0.5,5,4,92,3,NA
fcp-trial,154,1175053,0.0-101.0-0.0,voc_e2,12250,"[{""event"":""fullscreenenter"",""trial"":1,""time"":7152}]",NA,NA,NA,NA,NA,0,#741CD8,#D8271C,0,10,0,38,1,1230.2999999523163,39,0,1031.8999998569489,10,1,experiment,NA,NA,1,0.3,0.7,3,2,93,3,NA
fcp-trial,155,1179885,0.0-102.0-0.0,voc_e2,12250,"[{""event"":""fullscreenenter"",""trial"":1,""time"":7152}]",NA,NA,NA,NA,NA,1,#FA92F8,#1CD855,0,0,1,38,1,2887.7000000476837,37,1,435.09999990463257,0,1,experiment,NA,NA,0,0.9,0.1,0,1,94,3,NA
fcp-trial,156,1184838,0.0-103.0-0.0,voc_e2,12250,"[{""event"":""fullscreenenter"",""trial"":1,""time"":7152}]",NA,NA,NA,NA,NA,3,#1CD855,#FA92F8,10,0,0,38,1,3105.399999856949,37,1,338.7000000476837,10,0,experiment,NA,NA,0,0.1,0.9,1,0,95,3,NA
fcp-trial,157,1189390,0.0-104.0-0.0,voc_e2,12250,"[{""event"":""fullscreenenter"",""trial"":1,""time"":7152}]",NA,NA,NA,NA,NA,4,#1CD855,#FA92F8,0,10,0,38,1,2698.7000000476837,37,1,347.89999985694885,0,0,experiment,NA,NA,0,0.1,0.9,1,0,96,3,NA
fcp-trial,158,1194512,0.0-105.0-0.0,voc_e2,12250,"[{""event"":""fullscreenenter"",""trial"":1,""time"":7152}]",NA,NA,NA,NA,NA,1,#3386FF,#D89F1C,10,10,0,38,1,2819.899999856949,37,1,796.1000001430511,10,0,experiment,NA,NA,2,0.5,0.5,5,4,97,3,NA
fcp-trial,159,1197471,0.0-106.0-0.0,voc_e2,12250,"[{""event"":""fullscreenenter"",""trial"":1,""time"":7152}]",NA,NA,NA,NA,NA,5,#D8271C,#741CD8,10,0,1,38,1,911.7999999523163,37,1,540.7000000476837,10,1,experiment,NA,NA,1,0.7,0.3,2,3,98,3,NA
fcp-trial,160,1200680,0.0-107.0-0.0,voc_e2,12250,"[{""event"":""fullscreenenter"",""trial"":1,""time"":7152}]",NA,NA,NA,NA,NA,6,#D8271C,#741CD8,10,0,1,40,0,1156.2000000476837,37,1,546.7999999523163,10,1,experiment,NA,NA,1,0.7,0.3,2,3,99,3,NA
fcp-trial,161,1204224,0.0-108.0-0.0,voc_e2,12250,"[{""event"":""fullscreenenter"",""trial"":1,""time"":7152}]",NA,NA,NA,NA,NA,0,#FA92F8,#1CD855,10,0,1,38,1,1469.8000001907349,37,1,568,10,1,experiment,NA,NA,0,0.9,0.1,0,1,100,3,NA
fcp-trial,162,1207418,0.0-109.0-0.0,voc_e2,12250,"[{""event"":""fullscreenenter"",""trial"":1,""time"":7152}]",NA,NA,NA,NA,NA,6,#3386FF,#D89F1C,0,10,0,40,0,1190.5999999046326,39,0,498.39999985694885,10,1,experiment,NA,NA,2,0.5,0.5,5,4,101,3,NA
fcp-trial,163,1210869,0.0-110.0-0.0,voc_e2,12250,"[{""event"":""fullscreenenter"",""trial"":1,""time"":7152}]",NA,NA,NA,NA,NA,2,#741CD8,#D8271C,10,10,0,38,1,1205.4000000953674,39,0,738.3000001907349,10,1,experiment,NA,NA,1,0.3,0.7,3,2,102,3,NA
fcp-trial,164,1214599,0.0-111.0-0.0,voc_e2,12250,"[{""event"":""fullscreenenter"",""trial"":1,""time"":7152}]",NA,NA,NA,NA,NA,3,#D89F1C,#3386FF,0,0,1,38,1,1642.4000000953674,37,1,579.2999999523163,0,1,experiment,NA,NA,2,0.5,0.5,4,5,103,3,NA
fcp-trial,165,1217961,0.0-112.0-0.0,voc_e2,12250,"[{""event"":""fullscreenenter"",""trial"":1,""time"":7152}]",NA,NA,NA,NA,NA,5,#3386FF,#D89F1C,0,10,0,40,0,1217.0999999046326,37,1,639.4000000953674,0,0,experiment,NA,NA,2,0.5,0.5,5,4,104,3,NA
fcp-trial,166,1221445,0.0-113.0-0.0,voc_e2,12250,"[{""event"":""fullscreenenter"",""trial"":1,""time"":7152}]",NA,NA,NA,NA,NA,2,#FA92F8,#1CD855,10,0,1,38,1,1195.2000000476837,39,0,782.9000000953674,0,0,experiment,NA,NA,0,0.9,0.1,0,1,105,3,NA
audio-instructions,167,1290622,0.0-114.0,voc_e2,12250,"[{""event"":""fullscreenenter"",""trial"":1,""time"":7152}]",NA,64701.59999990463,static/audio/pause.wav,NA,0,NA,NA,NA,NA,NA,NA,NA,NA,NA,NA,NA,NA,NA,NA,NA,NA,NA,NA,NA,NA,NA,NA,NA,NA,NA
fcp-trial,168,1294065,0.0-115.0-0.0,voc_e2,12250,"[{""event"":""fullscreenenter"",""trial"":1,""time"":7152}]",NA,NA,NA,NA,NA,4,#D8271C,#741CD8,0,10,1,40,0,1466.4000000953674,39,0,467.90000009536743,10,0,experiment,NA,NA,1,0.7,0.3,2,3,106,3,NA
fcp-trial,169,1297730,0.0-116.0-0.0,voc_e2,12250,"[{""event"":""fullscreenenter"",""trial"":1,""time"":7152}]",NA,NA,NA,NA,NA,3,#D89F1C,#3386FF,0,10,1,38,1,1144.8000001907349,39,0,1011.2999999523164,10,0,experiment,NA,NA,2,0.5,0.5,4,5,107,3,NA
fcp-trial,170,1301007,0.0-117.0-0.0,voc_e2,12250,"[{""event"":""fullscreenenter"",""trial"":1,""time"":7152}]",NA,NA,NA,NA,NA,6,#D89F1C,#3386FF,0,0,1,40,0,1121.4000000953674,37,1,647.2999999523163,0,1,experiment,NA,NA,2,0.5,0.5,4,5,108,3,NA
fcp-trial,171,1304115,0.0-118.0-0.0,voc_e2,12250,"[{""event"":""fullscreenenter"",""trial"":1,""time"":7152}]",NA,NA,NA,NA,NA,1,#3386FF,#D89F1C,0,0,0,38,1,1285.5,37,1,313.40000009536743,0,0,experiment,NA,NA,2,0.5,0.5,5,4,109,3,NA
fcp-trial,172,1308400,0.0-119.0-0.0,voc_e2,12250,"[{""event"":""fullscreenenter"",""trial"":1,""time"":7152}]",NA,NA,NA,NA,NA,0,#1CD855,#FA92F8,0,10,0,38,1,1877.2999999523163,39,0,900.4000000953674,10,1,experiment,NA,NA,0,0.1,0.9,1,0,110,3,NA
fcp-trial,173,1313150,0.0-120.0-0.0,voc_e2,12250,"[{""event"":""fullscreenenter"",""trial"":1,""time"":7152}]",NA,NA,NA,NA,NA,1,#741CD8,#D8271C,0,10,0,38,1,1853.7000000476837,39,0,1389.5,10,1,experiment,NA,NA,1,0.3,0.7,3,2,111,3,NA
fcp-trial,174,1317394,0.0-121.0-0.0,voc_e2,12250,"[{""event"":""fullscreenenter"",""trial"":1,""time"":7152}]",NA,NA,NA,NA,NA,3,#D8271C,#741CD8,10,0,1,38,1,1896,37,1,840.7999999523163,10,1,experiment,NA,NA,1,0.7,0.3,2,3,112,3,NA
fcp-trial,175,1321942,0.0-122.0-0.0,voc_e2,12250,"[{""event"":""fullscreenenter"",""trial"":1,""time"":7152}]",NA,NA,NA,NA,NA,5,#1CD855,#FA92F8,0,10,0,40,0,2356.5,39,0,684.2000000476837,10,1,experiment,NA,NA,0,0.1,0.9,1,0,113,3,NA
fcp-trial,176,1325946,0.0-123.0-0.0,voc_e2,12250,"[{""event"":""fullscreenenter"",""trial"":1,""time"":7152}]",NA,NA,NA,NA,NA,5,#D89F1C,#3386FF,10,0,1,40,0,1983.1999998092651,37,1,515.4000000953674,10,1,experiment,NA,NA,2,0.5,0.5,4,5,114,3,NA
fcp-trial,177,1332406,0.0-124.0-0.0,voc_e2,12250,"[{""event"":""fullscreenenter"",""trial"":1,""time"":7152}]",NA,NA,NA,NA,NA,2,#3386FF,#D89F1C,0,0,0,38,1,2506.600000143051,37,1,2447,0,0,experiment,NA,NA,2,0.5,0.5,5,4,115,3,NA
fcp-trial,178,1336015,0.0-125.0-0.0,voc_e2,12250,"[{""event"":""fullscreenenter"",""trial"":1,""time"":7152}]",NA,NA,NA,NA,NA,5,#D8271C,#741CD8,0,0,1,40,0,1698.9000000953674,37,1,401.7000000476837,0,1,experiment,NA,NA,1,0.7,0.3,2,3,116,3,NA
fcp-trial,179,1340853,0.0-126.0-0.0,voc_e2,12250,"[{""event"":""fullscreenenter"",""trial"":1,""time"":7152}]",NA,NA,NA,NA,NA,6,#FA92F8,#1CD855,10,0,1,40,0,2200,39,0,1130.8999998569489,0,0,experiment,NA,NA,0,0.9,0.1,0,1,117,3,NA
fcp-trial,180,1345776,0.0-127.0-0.0,voc_e2,12250,"[{""event"":""fullscreenenter"",""trial"":1,""time"":7152}]",NA,NA,NA,NA,NA,1,#1CD855,#FA92F8,0,10,0,38,1,2567.2999999523163,39,0,851,10,1,experiment,NA,NA,0,0.1,0.9,1,0,118,3,NA
fcp-trial,181,1350018,0.0-128.0-0.0,voc_e2,12250,"[{""event"":""fullscreenenter"",""trial"":1,""time"":7152}]",NA,NA,NA,NA,NA,4,#FA92F8,#1CD855,10,0,1,38,1,2318,37,1,418.2000000476837,10,1,experiment,NA,NA,0,0.9,0.1,0,1,119,3,NA
fcp-trial,182,1353525,0.0-129.0-0.0,voc_e2,12250,"[{""event"":""fullscreenenter"",""trial"":1,""time"":7152}]",NA,NA,NA,NA,NA,0,#D89F1C,#3386FF,10,10,1,38,1,1515.3000001907349,39,0,484.2999999523163,10,0,experiment,NA,NA,2,0.5,0.5,4,5,120,3,NA
fcp-trial,183,1358804,0.0-130.0-0.0,voc_e2,12250,"[{""event"":""fullscreenenter"",""trial"":1,""time"":7152}]",NA,NA,NA,NA,NA,2,#D8271C,#741CD8,10,10,1,38,1,2483.899999856949,37,1,1288,10,1,experiment,NA,NA,1,0.7,0.3,2,3,121,3,NA
fcp-trial,184,1363924,0.0-131.0-0.0,voc_e2,12250,"[{""event"":""fullscreenenter"",""trial"":1,""time"":7152}]",NA,NA,NA,NA,NA,2,#1CD855,#FA92F8,0,10,0,38,1,2298.7999999523163,39,0,1315.1000001430511,10,1,experiment,NA,NA,0,0.1,0.9,1,0,122,3,NA
fcp-trial,185,1370391,0.0-132.0-0.0,voc_e2,12250,"[{""event"":""fullscreenenter"",""trial"":1,""time"":7152}]",NA,NA,NA,NA,NA,4,#3386FF,#D89F1C,0,0,0,40,0,4053.7999999523163,39,0,905.5999999046326,0,1,experiment,NA,NA,2,0.5,0.5,5,4,123,3,NA
fcp-trial,186,1376716,0.0-133.0-0.0,voc_e2,12250,"[{""event"":""fullscreenenter"",""trial"":1,""time"":7152}]",NA,NA,NA,NA,NA,3,#FA92F8,#1CD855,10,0,1,38,1,4156.399999856949,37,1,662.0999999046326,10,1,experiment,NA,NA,0,0.9,0.1,0,1,124,3,NA
fcp-trial,187,1381954,0.0-134.0-0.0,voc_e2,12250,"[{""event"":""fullscreenenter"",""trial"":1,""time"":7152}]",NA,NA,NA,NA,NA,6,#D8271C,#741CD8,10,0,1,40,0,3129.7999999523163,37,1,599.8000001907349,10,1,experiment,NA,NA,1,0.7,0.3,2,3,125,3,NA
fcp-trial,188,1384978,0.0-135.0-0.0,voc_e2,12250,"[{""event"":""fullscreenenter"",""trial"":1,""time"":7152}]",NA,NA,NA,NA,NA,0,#741CD8,#D8271C,10,10,0,38,1,1029.1000001430511,39,0,487.40000009536743,10,1,experiment,NA,NA,1,0.3,0.7,3,2,126,3,NA
fcp-trial,189,1389363,0.0-136.0-0.0,voc_e2,12250,"[{""event"":""fullscreenenter"",""trial"":1,""time"":7152}]",NA,NA,NA,NA,NA,2,#1CD855,#FA92F8,10,10,0,38,1,1539.6000001430511,39,0,1338,10,1,experiment,NA,NA,0,0.1,0.9,1,0,127,3,NA
fcp-trial,190,1394596,0.0-137.0-0.0,voc_e2,12250,"[{""event"":""fullscreenenter"",""trial"":1,""time"":7152}]",NA,NA,NA,NA,NA,4,#741CD8,#D8271C,10,0,0,40,0,3256.2000000476837,37,1,468.7999999523163,10,0,experiment,NA,NA,1,0.3,0.7,3,2,128,3,NA
fcp-trial,191,1397847,0.0-138.0-0.0,voc_e2,12250,"[{""event"":""fullscreenenter"",""trial"":1,""time"":7152}]",NA,NA,NA,NA,NA,6,#1CD855,#FA92F8,0,10,0,40,0,1276.5999999046326,37,1,468.39999985694885,0,0,experiment,NA,NA,0,0.1,0.9,1,0,129,3,NA
fcp-trial,192,1401473,0.0-139.0-0.0,voc_e2,12250,"[{""event"":""fullscreenenter"",""trial"":1,""time"":7152}]",NA,NA,NA,NA,NA,6,#741CD8,#D8271C,0,0,0,40,0,1613.9000000953674,39,0,504.7000000476837,0,1,experiment,NA,NA,1,0.3,0.7,3,2,130,3,NA
fcp-trial,193,1405437,0.0-140.0-0.0,voc_e2,12250,"[{""event"":""fullscreenenter"",""trial"":1,""time"":7152}]",NA,NA,NA,NA,NA,0,#3386FF,#D89F1C,0,0,0,38,1,1581,37,1,874.2000000476837,0,0,experiment,NA,NA,2,0.5,0.5,5,4,131,3,NA
fcp-trial,194,1408557,0.0-141.0-0.0,voc_e2,12250,"[{""event"":""fullscreenenter"",""trial"":1,""time"":7152}]",NA,NA,NA,NA,NA,5,#1CD855,#FA92F8,0,10,0,40,0,1123.8000001907349,39,0,489.7999999523163,10,1,experiment,NA,NA,0,0.1,0.9,1,0,132,3,NA
fcp-trial,195,1411761,0.0-142.0-0.0,voc_e2,12250,"[{""event"":""fullscreenenter"",""trial"":1,""time"":7152}]",NA,NA,NA,NA,NA,4,#1CD855,#FA92F8,0,10,0,40,0,1270.9000000953674,37,1,427,0,0,experiment,NA,NA,0,0.1,0.9,1,0,133,3,NA
fcp-trial,196,1416854,0.0-143.0-0.0,voc_e2,12250,"[{""event"":""fullscreenenter"",""trial"":1,""time"":7152}]",NA,NA,NA,NA,NA,6,#D89F1C,#3386FF,0,0,1,40,0,2578.4000000953674,39,0,1008.0999999046326,0,0,experiment,NA,NA,2,0.5,0.5,4,5,134,3,NA
fcp-trial,197,1422391,0.0-144.0-0.0,voc_e2,12250,"[{""event"":""fullscreenenter"",""trial"":1,""time"":7152}]",NA,NA,NA,NA,NA,0,#D8271C,#741CD8,10,0,1,38,1,2631.399999856949,37,1,1400.0999999046326,10,1,experiment,NA,NA,1,0.7,0.3,2,3,135,3,NA
fcp-trial,198,1425462,0.0-145.0-0.0,voc_e2,12250,"[{""event"":""fullscreenenter"",""trial"":1,""time"":7152}]",NA,NA,NA,NA,NA,3,#D8271C,#741CD8,10,0,1,38,1,1062.5,37,1,503.09999990463257,10,1,experiment,NA,NA,1,0.7,0.3,2,3,136,4,NA
fcp-trial,199,1429053,0.0-146.0-0.0,voc_e2,12250,"[{""event"":""fullscreenenter"",""trial"":1,""time"":7152}]",NA,NA,NA,NA,NA,3,#1CD855,#FA92F8,0,10,0,38,1,1269.3999998569489,39,0,813.4000000953674,10,1,experiment,NA,NA,0,0.1,0.9,1,0,137,4,NA
fcp-trial,200,1432632,0.0-147.0-0.0,voc_e2,12250,"[{""event"":""fullscreenenter"",""trial"":1,""time"":7152}]",NA,NA,NA,NA,NA,5,#3386FF,#D89F1C,10,10,0,40,0,1517.7999999523163,39,0,554.2999999523163,10,1,experiment,NA,NA,2,0.5,0.5,5,4,138,4,NA
fcp-trial,201,1435991,0.0-148.0-0.0,voc_e2,12250,"[{""event"":""fullscreenenter"",""trial"":1,""time"":7152}]",NA,NA,NA,NA,NA,1,#D8271C,#741CD8,10,0,1,38,1,1180.9000000953674,37,1,669.7000000476837,10,1,experiment,NA,NA,1,0.7,0.3,2,3,139,4,NA
fcp-trial,202,1439323,0.0-149.0-0.0,voc_e2,12250,"[{""event"":""fullscreenenter"",""trial"":1,""time"":7152}]",NA,NA,NA,NA,NA,1,#1CD855,#FA92F8,0,10,0,38,1,1210.7000000476837,39,0,612.5999999046326,10,1,experiment,NA,NA,0,0.1,0.9,1,0,140,4,NA
fcp-trial,203,1443172,0.0-150.0-0.0,voc_e2,12250,"[{""event"":""fullscreenenter"",""trial"":1,""time"":7152}]",NA,NA,NA,NA,NA,1,#D89F1C,#3386FF,0,10,1,38,1,1335.0999999046326,39,0,1007.2000000476836,10,0,experiment,NA,NA,2,0.5,0.5,4,5,141,4,NA
fcp-trial,204,1446714,0.0-151.0-0.0,voc_e2,12250,"[{""event"":""fullscreenenter"",""trial"":1,""time"":7152}]",NA,NA,NA,NA,NA,2,#D8271C,#741CD8,10,0,1,38,1,1315.2000000476837,37,1,719.9000000953674,10,1,experiment,NA,NA,1,0.7,0.3,2,3,142,4,NA
fcp-trial,205,1450021,0.0-152.0-0.0,voc_e2,12250,"[{""event"":""fullscreenenter"",""trial"":1,""time"":7152}]",NA,NA,NA,NA,NA,2,#D89F1C,#3386FF,0,0,1,38,1,995,39,0,803.7000000476837,0,0,experiment,NA,NA,2,0.5,0.5,4,5,143,4,NA
fcp-trial,206,1453272,0.0-153.0-0.0,voc_e2,12250,"[{""event"":""fullscreenenter"",""trial"":1,""time"":7152}]",NA,NA,NA,NA,NA,5,#D8271C,#741CD8,0,0,1,40,0,1195.6000001430511,39,0,546.8999998569489,0,0,experiment,NA,NA,1,0.7,0.3,2,3,144,4,NA
fcp-trial,207,1456478,0.0-154.0-0.0,voc_e2,12250,"[{""event"":""fullscreenenter"",""trial"":1,""time"":7152}]",NA,NA,NA,NA,NA,0,#FA92F8,#1CD855,10,0,1,38,1,887.5999999046326,37,1,808.7000000476837,10,1,experiment,NA,NA,0,0.9,0.1,0,1,145,4,NA
fcp-trial,208,1460010,0.0-155.0-0.0,voc_e2,12250,"[{""event"":""fullscreenenter"",""trial"":1,""time"":7152}]",NA,NA,NA,NA,NA,4,#3386FF,#D89F1C,10,10,0,40,0,1499.5999999046326,39,0,525.1000001430511,10,1,experiment,NA,NA,2,0.5,0.5,5,4,146,4,NA
fcp-trial,209,1463513,0.0-156.0-0.0,voc_e2,12250,"[{""event"":""fullscreenenter"",""trial"":1,""time"":7152}]",NA,NA,NA,NA,NA,3,#D89F1C,#3386FF,0,10,1,38,1,948.5,39,0,1048.5,10,0,experiment,NA,NA,2,0.5,0.5,4,5,147,4,NA
fcp-trial,210,1466647,0.0-157.0-0.0,voc_e2,12250,"[{""event"":""fullscreenenter"",""trial"":1,""time"":7152}]",NA,NA,NA,NA,NA,1,#741CD8,#D8271C,0,10,0,38,1,899.2999999523163,37,1,725.6999998092651,0,0,experiment,NA,NA,1,0.3,0.7,3,2,148,4,NA
fcp-trial,211,1469711,0.0-158.0-0.0,voc_e2,12250,"[{""event"":""fullscreenenter"",""trial"":1,""time"":7152}]",NA,NA,NA,NA,NA,5,#FA92F8,#1CD855,10,0,1,40,0,1054,37,1,502.2999999523163,10,1,experiment,NA,NA,0,0.9,0.1,0,1,149,4,NA
fcp-trial,212,1473005,0.0-159.0-0.0,voc_e2,12250,"[{""event"":""fullscreenenter"",""trial"":1,""time"":7152}]",NA,NA,NA,NA,NA,4,#3386FF,#D89F1C,10,0,0,40,0,1274.5,37,1,511.2999999523163,10,0,experiment,NA,NA,2,0.5,0.5,5,4,150,4,NA
fcp-trial,213,1475986,0.0-160.0-0.0,voc_e2,12250,"[{""event"":""fullscreenenter"",""trial"":1,""time"":7152}]",NA,NA,NA,NA,NA,6,#1CD855,#FA92F8,0,10,0,40,0,923.7000000476837,39,0,547.5999999046326,10,1,experiment,NA,NA,0,0.1,0.9,1,0,151,4,NA
fcp-trial,214,1479936,0.0-161.0-0.0,voc_e2,12250,"[{""event"":""fullscreenenter"",""trial"":1,""time"":7152}]",NA,NA,NA,NA,NA,0,#3386FF,#D89F1C,10,10,0,38,1,967.6000001430511,37,1,1473.8000001907349,10,0,experiment,NA,NA,2,0.5,0.5,5,4,152,4,NA
fcp-trial,215,1483040,0.0-162.0-0.0,voc_e2,12250,"[{""event"":""fullscreenenter"",""trial"":1,""time"":7152}]",NA,NA,NA,NA,NA,0,#741CD8,#D8271C,0,10,0,38,1,942.1000001430511,39,0,655.9000000953674,10,1,experiment,NA,NA,1,0.3,0.7,3,2,153,4,NA
fcp-trial,216,1486460,0.0-163.0-0.0,voc_e2,12250,"[{""event"":""fullscreenenter"",""trial"":1,""time"":7152}]",NA,NA,NA,NA,NA,3,#1CD855,#FA92F8,0,10,0,38,1,727.3999998569489,39,0,1186.5,10,1,experiment,NA,NA,0,0.1,0.9,1,0,154,4,NA
fcp-trial,217,1490733,0.0-164.0-0.0,voc_e2,12250,"[{""event"":""fullscreenenter"",""trial"":1,""time"":7152}]",NA,NA,NA,NA,NA,6,#741CD8,#D8271C,0,10,0,40,0,2250,37,1,516.7999999523163,0,0,experiment,NA,NA,1,0.3,0.7,3,2,155,4,NA
fcp-trial,218,1493937,0.0-165.0-0.0,voc_e2,12250,"[{""event"":""fullscreenenter"",""trial"":1,""time"":7152}]",NA,NA,NA,NA,NA,5,#D89F1C,#3386FF,10,0,1,40,0,1054.7999999523163,37,1,641.6000001430511,10,1,experiment,NA,NA,2,0.5,0.5,4,5,156,4,NA
fcp-trial,219,1496888,0.0-166.0-0.0,voc_e2,12250,"[{""event"":""fullscreenenter"",""trial"":1,""time"":7152}]",NA,NA,NA,NA,NA,0,#1CD855,#FA92F8,0,10,0,40,0,565.4000000953674,39,0,877.5,10,1,experiment,NA,NA,0,0.1,0.9,1,0,157,4,NA
fcp-trial,220,1500221,0.0-167.0-0.0,voc_e2,12250,"[{""event"":""fullscreenenter"",""trial"":1,""time"":7152}]",NA,NA,NA,NA,NA,5,#741CD8,#D8271C,0,10,0,40,0,1233.0999999046326,37,1,593.5,0,0,experiment,NA,NA,1,0.3,0.7,3,2,158,4,NA
fcp-trial,221,1503389,0.0-168.0-0.0,voc_e2,12250,"[{""event"":""fullscreenenter"",""trial"":1,""time"":7152}]",NA,NA,NA,NA,NA,1,#1CD855,#FA92F8,0,10,0,38,1,979.4000000953674,39,0,682.7000000476837,10,1,experiment,NA,NA,0,0.1,0.9,1,0,159,4,NA
fcp-trial,222,1507065,0.0-169.0-0.0,voc_e2,12250,"[{""event"":""fullscreenenter"",""trial"":1,""time"":7152}]",NA,NA,NA,NA,NA,3,#D89F1C,#3386FF,10,10,1,38,1,828.7999999523163,39,0,1339.2000000476835,10,0,experiment,NA,NA,2,0.5,0.5,4,5,160,4,NA
fcp-trial,223,1512516,0.0-170.0-0.0,voc_e2,12250,"[{""event"":""fullscreenenter"",""trial"":1,""time"":7152}]",NA,NA,NA,NA,NA,4,#1CD855,#FA92F8,0,10,0,40,0,3160.7999999523163,37,1,783.0999999046326,0,0,experiment,NA,NA,0,0.1,0.9,1,0,161,4,NA
fcp-trial,224,1515293,0.0-171.0-0.0,voc_e2,12250,"[{""event"":""fullscreenenter"",""trial"":1,""time"":7152}]",NA,NA,NA,NA,NA,6,#3386FF,#D89F1C,10,0,0,40,0,812,39,0,457,0,1,experiment,NA,NA,2,0.5,0.5,5,4,162,4,NA
fcp-trial,225,1518411,0.0-172.0-0.0,voc_e2,12250,"[{""event"":""fullscreenenter"",""trial"":1,""time"":7152}]",NA,NA,NA,NA,NA,2,#D8271C,#741CD8,10,0,1,38,1,794.3999998569489,37,1,815.3999998569489,10,1,experiment,NA,NA,1,0.7,0.3,2,3,163,4,NA
fcp-trial,226,1521728,0.0-173.0-0.0,voc_e2,12250,"[{""event"":""fullscreenenter"",""trial"":1,""time"":7152}]",NA,NA,NA,NA,NA,2,#3386FF,#D89F1C,10,0,0,38,1,886.0999999046326,37,1,923.4000000953674,10,0,experiment,NA,NA,2,0.5,0.5,5,4,164,4,NA
fcp-trial,227,1524988,0.0-174.0-0.0,voc_e2,12250,"[{""event"":""fullscreenenter"",""trial"":1,""time"":7152}]",NA,NA,NA,NA,NA,4,#741CD8,#D8271C,0,10,0,38,1,1423.1999998092651,39,0,329.60000014305115,10,1,experiment,NA,NA,1,0.3,0.7,3,2,165,4,NA
fcp-trial,228,1528651,0.0-175.0-0.0,voc_e2,12250,"[{""event"":""fullscreenenter"",""trial"":1,""time"":7152}]",NA,NA,NA,NA,NA,2,#FA92F8,#1CD855,10,0,1,38,1,1833.1999998092651,37,1,322.09999990463257,10,1,experiment,NA,NA,0,0.9,0.1,0,1,166,4,NA
fcp-trial,229,1532531,0.0-176.0-0.0,voc_e2,12250,"[{""event"":""fullscreenenter"",""trial"":1,""time"":7152}]",NA,NA,NA,NA,NA,3,#741CD8,#D8271C,10,10,0,38,1,1904.5,39,0,467,10,1,experiment,NA,NA,1,0.3,0.7,3,2,167,4,NA
fcp-trial,230,1535797,0.0-177.0-0.0,voc_e2,12250,"[{""event"":""fullscreenenter"",""trial"":1,""time"":7152}]",NA,NA,NA,NA,NA,1,#D89F1C,#3386FF,0,0,1,38,1,1304.5999999046326,39,0,455.5,0,0,experiment,NA,NA,2,0.5,0.5,4,5,168,4,NA
fcp-trial,231,1539562,0.0-178.0-0.0,voc_e2,12250,"[{""event"":""fullscreenenter"",""trial"":1,""time"":7152}]",NA,NA,NA,NA,NA,2,#1CD855,#FA92F8,0,10,0,38,1,1656.2000000476837,39,0,599.7000000476837,10,1,experiment,NA,NA,0,0.1,0.9,1,0,169,4,NA
fcp-trial,232,1542654,0.0-179.0-0.0,voc_e2,12250,"[{""event"":""fullscreenenter"",""trial"":1,""time"":7152}]",NA,NA,NA,NA,NA,5,#D8271C,#741CD8,0,0,1,40,0,1092.5,37,1,492.39999985694885,0,1,experiment,NA,NA,1,0.7,0.3,2,3,170,4,NA
fcp-trial,233,1546876,0.0-180.0-0.0,voc_e2,12250,"[{""event"":""fullscreenenter"",""trial"":1,""time"":7152}]",NA,NA,NA,NA,NA,1,#741CD8,#D8271C,10,10,0,38,1,840.2000000476837,39,0,1871.2999999523165,10,1,experiment,NA,NA,1,0.3,0.7,3,2,171,4,NA
fcp-trial,234,1550249,0.0-181.0-0.0,voc_e2,12250,"[{""event"":""fullscreenenter"",""trial"":1,""time"":7152}]",NA,NA,NA,NA,NA,3,#D89F1C,#3386FF,10,0,1,38,1,994.9000000953674,39,0,869.7999999523163,0,0,experiment,NA,NA,2,0.5,0.5,4,5,172,4,NA
fcp-trial,235,1553391,0.0-182.0-0.0,voc_e2,12250,"[{""event"":""fullscreenenter"",""trial"":1,""time"":7152}]",NA,NA,NA,NA,NA,0,#D8271C,#741CD8,10,0,1,38,1,1186.7999999523163,37,1,448.30000019073486,10,1,experiment,NA,NA,1,0.7,0.3,2,3,173,4,NA
fcp-trial,236,1557203,0.0-183.0-0.0,voc_e2,12250,"[{""event"":""fullscreenenter"",""trial"":1,""time"":7152}]",NA,NA,NA,NA,NA,0,#FA92F8,#1CD855,10,0,1,38,1,1454.7999999523163,37,1,849.6000001430511,10,1,experiment,NA,NA,0,0.9,0.1,0,1,174,4,NA
fcp-trial,237,1560430,0.0-184.0-0.0,voc_e2,12250,"[{""event"":""fullscreenenter"",""trial"":1,""time"":7152}]",NA,NA,NA,NA,NA,6,#3386FF,#D89F1C,0,0,0,40,0,1220.3000001907349,39,0,500.5,0,1,experiment,NA,NA,2,0.5,0.5,5,4,175,4,NA
fcp-trial,238,1564159,0.0-185.0-0.0,voc_e2,12250,"[{""event"":""fullscreenenter"",""trial"":1,""time"":7152}]",NA,NA,NA,NA,NA,1,#1CD855,#FA92F8,0,10,0,38,1,1120.0999999046326,39,0,1102,10,1,experiment,NA,NA,0,0.1,0.9,1,0,176,4,NA
fcp-trial,239,1567325,0.0-186.0-0.0,voc_e2,12250,"[{""event"":""fullscreenenter"",""trial"":1,""time"":7152}]",NA,NA,NA,NA,NA,6,#741CD8,#D8271C,10,10,0,40,0,1151.3999998569489,39,0,507.7999999523163,10,1,experiment,NA,NA,1,0.3,0.7,3,2,177,4,NA
fcp-trial,240,1570481,0.0-187.0-0.0,voc_e2,12250,"[{""event"":""fullscreenenter"",""trial"":1,""time"":7152}]",NA,NA,NA,NA,NA,3,#D8271C,#741CD8,10,0,1,38,1,833.3999998569489,37,1,818.3999998569489,10,1,experiment,NA,NA,1,0.7,0.3,2,3,178,4,NA
fcp-trial,241,1573628,0.0-188.0-0.0,voc_e2,12250,"[{""event"":""fullscreenenter"",""trial"":1,""time"":7152}]",NA,NA,NA,NA,NA,3,#1CD855,#FA92F8,0,10,0,38,1,926.5999999046326,39,0,714.5999999046326,10,1,experiment,NA,NA,0,0.1,0.9,1,0,179,4,NA
fcp-trial,242,1577006,0.0-189.0-0.0,voc_e2,12250,"[{""event"":""fullscreenenter"",""trial"":1,""time"":7152}]",NA,NA,NA,NA,NA,0,#3386FF,#D89F1C,0,0,0,38,1,1068.6999998092651,37,1,801.3999998569489,0,0,experiment,NA,NA,2,0.5,0.5,5,4,180,4,NA
fcp-trial,243,1580012,0.0-190.0-0.0,voc_e2,12250,"[{""event"":""fullscreenenter"",""trial"":1,""time"":7152}]",NA,NA,NA,NA,NA,2,#3386FF,#D89F1C,0,0,0,38,1,983.9000000953674,37,1,515.8999998569489,0,0,experiment,NA,NA,2,0.5,0.5,5,4,181,5,NA
fcp-trial,244,1583233,0.0-191.0-0.0,voc_e2,12250,"[{""event"":""fullscreenenter"",""trial"":1,""time"":7152}]",NA,NA,NA,NA,NA,2,#D8271C,#741CD8,10,10,1,38,1,1199,37,1,514.7999999523163,10,1,experiment,NA,NA,1,0.7,0.3,2,3,182,5,NA
fcp-trial,245,1586249,0.0-192.0-0.0,voc_e2,12250,"[{""event"":""fullscreenenter"",""trial"":1,""time"":7152}]",NA,NA,NA,NA,NA,4,#3386FF,#D89F1C,10,10,0,40,0,1025.3000001907349,39,0,484.19999980926514,10,1,experiment,NA,NA,2,0.5,0.5,5,4,183,5,NA
fcp-trial,246,1589553,0.0-193.0-0.0,voc_e2,12250,"[{""event"":""fullscreenenter"",""trial"":1,""time"":7152}]",NA,NA,NA,NA,NA,6,#FA92F8,#1CD855,10,0,1,40,0,1136,37,1,663,10,1,experiment,NA,NA,0,0.9,0.1,0,1,184,5,NA
fcp-trial,247,1592311,0.0-194.0-0.0,voc_e2,12250,"[{""event"":""fullscreenenter"",""trial"":1,""time"":7152}]",NA,NA,NA,NA,NA,4,#FA92F8,#1CD855,10,0,1,40,0,829.9000000953674,37,1,421.10000014305115,10,1,experiment,NA,NA,0,0.9,0.1,0,1,185,5,NA
fcp-trial,248,1595823,0.0-195.0-0.0,voc_e2,12250,"[{""event"":""fullscreenenter"",""trial"":1,""time"":7152}]",NA,NA,NA,NA,NA,4,#D8271C,#741CD8,10,0,1,38,1,1459.0999999046326,37,1,546.2000000476837,10,1,experiment,NA,NA,1,0.7,0.3,2,3,186,5,NA
fcp-trial,249,1598927,0.0-196.0-0.0,voc_e2,12250,"[{""event"":""fullscreenenter"",""trial"":1,""time"":7152}]",NA,NA,NA,NA,NA,5,#1CD855,#FA92F8,0,10,0,40,0,1115.2999999523163,37,1,482,0,0,experiment,NA,NA,0,0.1,0.9,1,0,187,5,NA
fcp-trial,250,1602450,0.0-197.0-0.0,voc_e2,12250,"[{""event"":""fullscreenenter"",""trial"":1,""time"":7152}]",NA,NA,NA,NA,NA,1,#3386FF,#D89F1C,10,10,0,38,1,1151.9000000953674,37,1,861.5999999046326,10,0,experiment,NA,NA,2,0.5,0.5,5,4,188,5,NA
fcp-trial,251,1605690,0.0-198.0-0.0,voc_e2,12250,"[{""event"":""fullscreenenter"",""trial"":1,""time"":7152}]",NA,NA,NA,NA,NA,5,#D89F1C,#3386FF,0,10,1,40,0,1214.0999999046326,39,0,518,10,0,experiment,NA,NA,2,0.5,0.5,4,5,189,5,NA
fcp-trial,252,1608552,0.0-199.0-0.0,voc_e2,12250,"[{""event"":""fullscreenenter"",""trial"":1,""time"":7152}]",NA,NA,NA,NA,NA,2,#D8271C,#741CD8,10,0,1,38,1,833.1999998092651,37,1,522.2999999523163,10,1,experiment,NA,NA,1,0.7,0.3,2,3,190,5,NA
fcp-trial,253,1611894,0.0-200.0-0.0,voc_e2,12250,"[{""event"":""fullscreenenter"",""trial"":1,""time"":7152}]",NA,NA,NA,NA,NA,3,#FA92F8,#1CD855,10,0,1,38,1,1121.7999999523163,37,1,713,10,1,experiment,NA,NA,0,0.9,0.1,0,1,191,5,NA
fcp-trial,254,1614760,0.0-201.0-0.0,voc_e2,12250,"[{""event"":""fullscreenenter"",""trial"":1,""time"":7152}]",NA,NA,NA,NA,NA,2,#FA92F8,#1CD855,10,0,1,38,1,799.7999999523163,37,1,559.7000000476837,10,1,experiment,NA,NA,0,0.9,0.1,0,1,192,5,NA
fcp-trial,255,1617792,0.0-202.0-0.0,voc_e2,12250,"[{""event"":""fullscreenenter"",""trial"":1,""time"":7152}]",NA,NA,NA,NA,NA,0,#D8271C,#741CD8,10,0,1,38,1,1066.2000000476837,37,1,459.7999999523163,10,1,experiment,NA,NA,1,0.7,0.3,2,3,193,5,NA
fcp-trial,256,1620821,0.0-203.0-0.0,voc_e2,12250,"[{""event"":""fullscreenenter"",""trial"":1,""time"":7152}]",NA,NA,NA,NA,NA,6,#741CD8,#D8271C,0,0,0,38,1,225.90000009536743,37,1,1296.2000000476835,0,0,experiment,NA,NA,1,0.3,0.7,3,2,194,5,NA
fcp-trial,257,1624001,0.0-204.0-0.0,voc_e2,12250,"[{""event"":""fullscreenenter"",""trial"":1,""time"":7152}]",NA,NA,NA,NA,NA,5,#D89F1C,#3386FF,0,0,1,40,0,1161.7000000476837,39,0,510.5,0,0,experiment,NA,NA,2,0.5,0.5,4,5,195,5,NA
fcp-trial,258,1627584,0.0-205.0-0.0,voc_e2,12250,"[{""event"":""fullscreenenter"",""trial"":1,""time"":7152}]",NA,NA,NA,NA,NA,3,#3386FF,#D89F1C,10,10,0,38,1,916.8999998569489,39,0,1159.3999998569489,10,1,experiment,NA,NA,2,0.5,0.5,5,4,196,5,NA
fcp-trial,259,1630728,0.0-206.0-0.0,voc_e2,12250,"[{""event"":""fullscreenenter"",""trial"":1,""time"":7152}]",NA,NA,NA,NA,NA,1,#FA92F8,#1CD855,10,0,1,38,1,1134.3999998569489,37,1,503.5,10,1,experiment,NA,NA,0,0.9,0.1,0,1,197,5,NA
fcp-trial,260,1633952,0.0-207.0-0.0,voc_e2,12250,"[{""event"":""fullscreenenter"",""trial"":1,""time"":7152}]",NA,NA,NA,NA,NA,5,#1CD855,#FA92F8,0,10,0,40,0,1242.4000000953674,37,1,473.59999990463257,0,0,experiment,NA,NA,0,0.1,0.9,1,0,198,5,NA
fcp-trial,261,1637335,0.0-208.0-0.0,voc_e2,12250,"[{""event"":""fullscreenenter"",""trial"":1,""time"":7152}]",NA,NA,NA,NA,NA,3,#741CD8,#D8271C,0,10,0,38,1,1219.6000001430511,39,0,654,10,1,experiment,NA,NA,1,0.3,0.7,3,2,199,5,NA
fcp-trial,262,1641259,0.0-209.0-0.0,voc_e2,12250,"[{""event"":""fullscreenenter"",""trial"":1,""time"":7152}]",NA,NA,NA,NA,NA,1,#D89F1C,#3386FF,10,0,1,38,1,1319.7999999523163,37,1,1098.3000001907349,10,1,experiment,NA,NA,2,0.5,0.5,4,5,200,5,NA
fcp-trial,263,1644518,0.0-210.0-0.0,voc_e2,12250,"[{""event"":""fullscreenenter"",""trial"":1,""time"":7152}]",NA,NA,NA,NA,NA,0,#D89F1C,#3386FF,10,10,1,38,1,1083.2999999523163,37,1,666.7000000476837,10,1,experiment,NA,NA,2,0.5,0.5,4,5,201,5,NA
fcp-trial,264,1647934,0.0-211.0-0.0,voc_e2,12250,"[{""event"":""fullscreenenter"",""trial"":1,""time"":7152}]",NA,NA,NA,NA,NA,4,#D8271C,#741CD8,0,0,1,38,1,1386.7000000476837,37,1,518.9000000953674,0,1,experiment,NA,NA,1,0.7,0.3,2,3,202,5,NA
fcp-trial,265,1651330,0.0-212.0-0.0,voc_e2,12250,"[{""event"":""fullscreenenter"",""trial"":1,""time"":7152}]",NA,NA,NA,NA,NA,6,#FA92F8,#1CD855,10,0,1,40,0,1220.2999999523163,37,1,668.0999999046326,10,1,experiment,NA,NA,0,0.9,0.1,0,1,203,5,NA
fcp-trial,266,1654258,0.0-213.0-0.0,voc_e2,12250,"[{""event"":""fullscreenenter"",""trial"":1,""time"":7152}]",NA,NA,NA,NA,NA,2,#D89F1C,#3386FF,10,0,1,38,1,861.5999999046326,37,1,556.3999998569489,10,1,experiment,NA,NA,2,0.5,0.5,4,5,204,5,NA
fcp-trial,267,1657971,0.0-214.0-0.0,voc_e2,12250,"[{""event"":""fullscreenenter"",""trial"":1,""time"":7152}]",NA,NA,NA,NA,NA,0,#1CD855,#FA92F8,0,10,0,38,1,1113.8999998569489,39,0,1095,10,1,experiment,NA,NA,0,0.1,0.9,1,0,205,5,NA
fcp-trial,268,1661387,0.0-215.0-0.0,voc_e2,12250,"[{""event"":""fullscreenenter"",""trial"":1,""time"":7152}]",NA,NA,NA,NA,NA,5,#741CD8,#D8271C,0,10,0,40,0,1428.7000000476837,39,0,482.30000019073486,10,1,experiment,NA,NA,1,0.3,0.7,3,2,206,5,NA
fcp-trial,269,1664651,0.0-216.0-0.0,voc_e2,12250,"[{""event"":""fullscreenenter"",""trial"":1,""time"":7152}]",NA,NA,NA,NA,NA,4,#3386FF,#D89F1C,10,10,0,40,0,1331.6000001430511,37,1,424.59999990463257,10,0,experiment,NA,NA,2,0.5,0.5,5,4,207,5,NA
fcp-trial,270,1667529,0.0-217.0-0.0,voc_e2,12250,"[{""event"":""fullscreenenter"",""trial"":1,""time"":7152}]",NA,NA,NA,NA,NA,6,#3386FF,#D89F1C,0,10,0,40,0,879.5999999046326,37,1,490.09999990463257,0,0,experiment,NA,NA,2,0.5,0.5,5,4,208,5,NA
fcp-trial,271,1670756,0.0-218.0-0.0,voc_e2,12250,"[{""event"":""fullscreenenter"",""trial"":1,""time"":7152}]",NA,NA,NA,NA,NA,4,#1CD855,#FA92F8,0,10,0,40,0,1222.0999999046326,37,1,496.10000014305115,0,0,experiment,NA,NA,0,0.1,0.9,1,0,209,5,NA
fcp-trial,272,1673770,0.0-219.0-0.0,voc_e2,12250,"[{""event"":""fullscreenenter"",""trial"":1,""time"":7152}]",NA,NA,NA,NA,NA,1,#741CD8,#D8271C,10,0,0,38,1,1036,39,0,472.7000000476837,0,1,experiment,NA,NA,1,0.3,0.7,3,2,210,5,NA
audio-instructions,273,1888145,0.0-220.0,voc_e2,12250,"[{""event"":""fullscreenenter"",""trial"":1,""time"":7152}]",NA,209907,static/audio/pause.wav,NA,0,NA,NA,NA,NA,NA,NA,NA,NA,NA,NA,NA,NA,NA,NA,NA,NA,NA,NA,NA,NA,NA,NA,NA,NA,NA
fcp-trial,274,1891841,0.0-221.0-0.0,voc_e2,12250,"[{""event"":""fullscreenenter"",""trial"":1,""time"":7152}]",NA,NA,NA,NA,NA,2,#741CD8,#D8271C,0,10,0,38,1,1568.7000000476837,37,1,618.4000000953674,0,0,experiment,NA,NA,1,0.3,0.7,3,2,211,5,NA
fcp-trial,275,1894667,0.0-222.0-0.0,voc_e2,12250,"[{""event"":""fullscreenenter"",""trial"":1,""time"":7152}]",NA,NA,NA,NA,NA,3,#741CD8,#D8271C,0,10,0,38,1,1030.2000000476837,39,0,288.10000014305115,10,1,experiment,NA,NA,1,0.3,0.7,3,2,212,5,NA
fcp-trial,276,1897933,0.0-223.0-0.0,voc_e2,12250,"[{""event"":""fullscreenenter"",""trial"":1,""time"":7152}]",NA,NA,NA,NA,NA,2,#D89F1C,#3386FF,10,0,1,38,1,850.7000000476837,37,1,906.8999998569489,10,1,experiment,NA,NA,2,0.5,0.5,4,5,213,5,NA
fcp-trial,277,1901240,0.0-224.0-0.0,voc_e2,12250,"[{""event"":""fullscreenenter"",""trial"":1,""time"":7152}]",NA,NA,NA,NA,NA,3,#1CD855,#FA92F8,0,10,0,38,1,1151.2999999523163,39,0,649.4000000953674,10,1,experiment,NA,NA,0,0.1,0.9,1,0,214,5,NA
fcp-trial,278,1904864,0.0-225.0-0.0,voc_e2,12250,"[{""event"":""fullscreenenter"",""trial"":1,""time"":7152}]",NA,NA,NA,NA,NA,1,#FA92F8,#1CD855,10,0,1,38,1,1052.7999999523163,37,1,1063,10,1,experiment,NA,NA,0,0.9,0.1,0,1,215,5,NA
fcp-trial,279,1909001,0.0-226.0-0.0,voc_e2,12250,"[{""event"":""fullscreenenter"",""trial"":1,""time"":7152}]",NA,NA,NA,NA,NA,3,#3386FF,#D89F1C,0,10,0,38,1,2183.5,39,0,446.69999980926514,10,1,experiment,NA,NA,2,0.5,0.5,5,4,216,5,NA
fcp-trial,280,1912519,0.0-227.0-0.0,voc_e2,12250,"[{""event"":""fullscreenenter"",""trial"":1,""time"":7152}]",NA,NA,NA,NA,NA,5,#741CD8,#D8271C,10,10,0,38,1,1246.4000000953674,39,0,763.7999999523163,10,1,experiment,NA,NA,1,0.3,0.7,3,2,217,5,NA
fcp-trial,281,1915762,0.0-228.0-0.0,voc_e2,12250,"[{""event"":""fullscreenenter"",""trial"":1,""time"":7152}]",NA,NA,NA,NA,NA,5,#3386FF,#D89F1C,10,10,0,40,0,1073,39,0,663,10,1,experiment,NA,NA,2,0.5,0.5,5,4,218,5,NA
fcp-trial,282,1918930,0.0-229.0-0.0,voc_e2,12250,"[{""event"":""fullscreenenter"",""trial"":1,""time"":7152}]",NA,NA,NA,NA,NA,4,#FA92F8,#1CD855,10,0,1,40,0,1186.2999999523163,39,0,475.19999980926514,0,0,experiment,NA,NA,0,0.9,0.1,0,1,219,5,NA
fcp-trial,283,1922248,0.0-230.0-0.0,voc_e2,12250,"[{""event"":""fullscreenenter"",""trial"":1,""time"":7152}]",NA,NA,NA,NA,NA,0,#D8271C,#741CD8,10,0,1,38,1,1141,37,1,668.7000000476837,10,1,experiment,NA,NA,1,0.7,0.3,2,3,220,5,NA
fcp-trial,284,1926145,0.0-231.0-0.0,voc_e2,12250,"[{""event"":""fullscreenenter"",""trial"":1,""time"":7152}]",NA,NA,NA,NA,NA,2,#1CD855,#FA92F8,0,0,0,40,0,1739.5,39,0,648.9000000953674,0,1,experiment,NA,NA,0,0.1,0.9,1,0,221,5,NA
fcp-trial,285,1930980,0.0-232.0-0.0,voc_e2,12250,"[{""event"":""fullscreenenter"",""trial"":1,""time"":7152}]",NA,NA,NA,NA,NA,6,#D8271C,#741CD8,10,0,1,40,0,2799.7999999523163,39,0,525.7000000476837,0,0,experiment,NA,NA,1,0.7,0.3,2,3,222,5,NA
fcp-trial,286,1934753,0.0-233.0-0.0,voc_e2,12250,"[{""event"":""fullscreenenter"",""trial"":1,""time"":7152}]",NA,NA,NA,NA,NA,6,#3386FF,#D89F1C,10,0,0,40,0,1615.2000000476837,39,0,643.1999998092651,0,1,experiment,NA,NA,2,0.5,0.5,5,4,223,5,NA
fcp-trial,287,1938899,0.0-234.0-0.0,voc_e2,12250,"[{""event"":""fullscreenenter"",""trial"":1,""time"":7152}]",NA,NA,NA,NA,NA,6,#1CD855,#FA92F8,0,10,0,40,0,1994,37,1,642.2999999523163,0,0,experiment,NA,NA,0,0.1,0.9,1,0,224,5,NA
fcp-trial,288,1942305,0.0-235.0-0.0,voc_e2,12250,"[{""event"":""fullscreenenter"",""trial"":1,""time"":7152}]",NA,NA,NA,NA,NA,4,#D89F1C,#3386FF,0,10,1,38,1,1002.2000000476837,37,1,898.5,0,1,experiment,NA,NA,2,0.5,0.5,4,5,225,5,NA
fcp-trial,289,1945564,0.0-236.0-0.0,voc_e2,12250,"[{""event"":""fullscreenenter"",""trial"":1,""time"":7152}]",NA,NA,NA,NA,NA,0,#3386FF,#D89F1C,10,0,0,38,1,1095.7000000476837,37,1,656.9000000953674,10,0,experiment,NA,NA,2,0.5,0.5,5,4,226,6,NA
fcp-trial,290,1948462,0.0-237.0-0.0,voc_e2,12250,"[{""event"":""fullscreenenter"",""trial"":1,""time"":7152}]",NA,NA,NA,NA,NA,1,#741CD8,#D8271C,0,10,0,38,1,972.8000001907349,39,0,417.7000000476837,10,1,experiment,NA,NA,1,0.3,0.7,3,2,227,6,NA
fcp-trial,291,1951664,0.0-238.0-0.0,voc_e2,12250,"[{""event"":""fullscreenenter"",""trial"":1,""time"":7152}]",NA,NA,NA,NA,NA,5,#1CD855,#FA92F8,0,0,0,40,0,1000.3000001907349,37,1,693.8999998569489,0,0,experiment,NA,NA,0,0.1,0.9,1,0,228,6,NA
fcp-trial,292,1954901,0.0-239.0-0.0,voc_e2,12250,"[{""event"":""fullscreenenter"",""trial"":1,""time"":7152}]",NA,NA,NA,NA,NA,0,#1CD855,#FA92F8,0,10,0,38,1,1254.1000001430511,39,0,474.39999985694885,10,1,experiment,NA,NA,0,0.1,0.9,1,0,229,6,NA
fcp-trial,293,1958493,0.0-240.0-0.0,voc_e2,12250,"[{""event"":""fullscreenenter"",""trial"":1,""time"":7152}]",NA,NA,NA,NA,NA,4,#741CD8,#D8271C,0,0,0,40,0,1440.2999999523163,37,1,645,0,0,experiment,NA,NA,1,0.3,0.7,3,2,230,6,NA
fcp-trial,294,1962236,0.0-241.0-0.0,voc_e2,12250,"[{""event"":""fullscreenenter"",""trial"":1,""time"":7152}]",NA,NA,NA,NA,NA,1,#3386FF,#D89F1C,10,0,0,38,1,1462,37,1,773.7999999523163,10,0,experiment,NA,NA,2,0.5,0.5,5,4,231,6,NA
fcp-trial,295,1965107,0.0-242.0-0.0,voc_e2,12250,"[{""event"":""fullscreenenter"",""trial"":1,""time"":7152}]",NA,NA,NA,NA,NA,6,#741CD8,#D8271C,0,0,0,40,0,879.2999999523163,39,0,484.7000000476837,0,1,experiment,NA,NA,1,0.3,0.7,3,2,232,6,NA
fcp-trial,296,1968592,0.0-243.0-0.0,voc_e2,12250,"[{""event"":""fullscreenenter"",""trial"":1,""time"":7152}]",NA,NA,NA,NA,NA,2,#FA92F8,#1CD855,0,0,1,38,1,1368.4000000953674,37,1,611.5,0,1,experiment,NA,NA,0,0.9,0.1,0,1,233,6,NA
fcp-trial,297,1972729,0.0-244.0-0.0,voc_e2,12250,"[{""event"":""fullscreenenter"",""trial"":1,""time"":7152}]",NA,NA,NA,NA,NA,0,#FA92F8,#1CD855,10,10,1,38,1,851.3999998569489,37,1,1778,10,1,experiment,NA,NA,0,0.9,0.1,0,1,234,6,NA
fcp-trial,298,1975627,0.0-245.0-0.0,voc_e2,12250,"[{""event"":""fullscreenenter"",""trial"":1,""time"":7152}]",NA,NA,NA,NA,NA,6,#3386FF,#D89F1C,0,0,0,40,0,903.7000000476837,37,1,485.90000009536743,0,0,experiment,NA,NA,2,0.5,0.5,5,4,235,6,NA
fcp-trial,299,1979211,0.0-246.0-0.0,voc_e2,12250,"[{""event"":""fullscreenenter"",""trial"":1,""time"":7152}]",NA,NA,NA,NA,NA,1,#1CD855,#FA92F8,0,10,0,38,1,984.9000000953674,39,0,1090.4000000953674,10,1,experiment,NA,NA,0,0.1,0.9,1,0,236,6,NA
fcp-trial,300,1982794,0.0-247.0-0.0,voc_e2,12250,"[{""event"":""fullscreenenter"",""trial"":1,""time"":7152}]",NA,NA,NA,NA,NA,4,#D8271C,#741CD8,10,0,1,38,1,1593.7999999523163,37,1,481.7000000476837,10,1,experiment,NA,NA,1,0.7,0.3,2,3,237,6,NA
fcp-trial,301,1986169,0.0-248.0-0.0,voc_e2,12250,"[{""event"":""fullscreenenter"",""trial"":1,""time"":7152}]",NA,NA,NA,NA,NA,3,#D89F1C,#3386FF,0,0,1,38,1,1200.5,39,0,664.2999999523163,0,0,experiment,NA,NA,2,0.5,0.5,4,5,238,6,NA
fcp-trial,302,1991245,0.0-249.0-0.0,voc_e2,12250,"[{""event"":""fullscreenenter"",""trial"":1,""time"":7152}]",NA,NA,NA,NA,NA,2,#D8271C,#741CD8,0,0,1,38,1,2603.7000000476837,37,1,964.5999999046326,0,1,experiment,NA,NA,1,0.7,0.3,2,3,239,6,NA
fcp-trial,303,1994690,0.0-250.0-0.0,voc_e2,12250,"[{""event"":""fullscreenenter"",""trial"":1,""time"":7152}]",NA,NA,NA,NA,NA,3,#1CD855,#FA92F8,0,10,0,38,1,1207.9000000953674,39,0,729.1999998092651,10,1,experiment,NA,NA,0,0.1,0.9,1,0,240,6,NA
fcp-trial,304,1997897,0.0-251.0-0.0,voc_e2,12250,"[{""event"":""fullscreenenter"",""trial"":1,""time"":7152}]",NA,NA,NA,NA,NA,3,#D8271C,#741CD8,10,10,1,38,1,1132.3000001907349,37,1,567.2999999523163,10,1,experiment,NA,NA,1,0.7,0.3,2,3,241,6,NA
fcp-trial,305,2001838,0.0-252.0-0.0,voc_e2,12250,"[{""event"":""fullscreenenter"",""trial"":1,""time"":7152}]",NA,NA,NA,NA,NA,4,#3386FF,#D89F1C,10,0,0,38,1,1100.1000001430511,37,1,1334,10,0,experiment,NA,NA,2,0.5,0.5,5,4,242,6,NA
fcp-trial,306,2005161,0.0-253.0-0.0,voc_e2,12250,"[{""event"":""fullscreenenter"",""trial"":1,""time"":7152}]",NA,NA,NA,NA,NA,5,#3386FF,#D89F1C,10,10,0,40,0,1323.0999999046326,37,1,491.7000000476837,10,0,experiment,NA,NA,2,0.5,0.5,5,4,243,6,NA
fcp-trial,307,2008040,0.0-254.0-0.0,voc_e2,12250,"[{""event"":""fullscreenenter"",""trial"":1,""time"":7152}]",NA,NA,NA,NA,NA,5,#FA92F8,#1CD855,10,0,1,40,0,875.3000001907349,39,0,495.10000014305115,0,0,experiment,NA,NA,0,0.9,0.1,0,1,244,6,NA
fcp-trial,308,2011652,0.0-255.0-0.0,voc_e2,12250,"[{""event"":""fullscreenenter"",""trial"":1,""time"":7152}]",NA,NA,NA,NA,NA,2,#D89F1C,#3386FF,0,10,1,38,1,897.9000000953674,39,0,1206.8000001907349,10,0,experiment,NA,NA,2,0.5,0.5,4,5,245,6,NA
fcp-trial,309,2014730,0.0-256.0-0.0,voc_e2,12250,"[{""event"":""fullscreenenter"",""trial"":1,""time"":7152}]",NA,NA,NA,NA,NA,5,#741CD8,#D8271C,10,0,0,40,0,1046.7000000476837,39,0,523.7999999523163,0,1,experiment,NA,NA,1,0.3,0.7,3,2,246,6,NA
fcp-trial,310,2017962,0.0-257.0-0.0,voc_e2,12250,"[{""event"":""fullscreenenter"",""trial"":1,""time"":7152}]",NA,NA,NA,NA,NA,1,#741CD8,#D8271C,10,0,0,38,1,1193.1999998092651,39,0,531.2999999523163,0,1,experiment,NA,NA,1,0.3,0.7,3,2,247,6,NA
fcp-trial,311,2021510,0.0-258.0-0.0,voc_e2,12250,"[{""event"":""fullscreenenter"",""trial"":1,""time"":7152}]",NA,NA,NA,NA,NA,0,#D89F1C,#3386FF,10,0,1,38,1,1493.3999998569489,39,0,547.2999999523163,0,0,experiment,NA,NA,2,0.5,0.5,4,5,248,6,NA
fcp-trial,312,2024375,0.0-259.0-0.0,voc_e2,12250,"[{""event"":""fullscreenenter"",""trial"":1,""time"":7152}]",NA,NA,NA,NA,NA,6,#1CD855,#FA92F8,0,10,0,40,0,889.2000000476837,37,1,469.2999999523163,0,0,experiment,NA,NA,0,0.1,0.9,1,0,249,6,NA
fcp-trial,313,2028141,0.0-260.0-0.0,voc_e2,12250,"[{""event"":""fullscreenenter"",""trial"":1,""time"":7152}]",NA,NA,NA,NA,NA,1,#3386FF,#D89F1C,10,10,0,38,1,951.5999999046326,37,1,1307,10,0,experiment,NA,NA,2,0.5,0.5,5,4,250,6,NA
fcp-trial,314,2032030,0.0-261.0-0.0,voc_e2,12250,"[{""event"":""fullscreenenter"",""trial"":1,""time"":7152}]",NA,NA,NA,NA,NA,4,#FA92F8,#1CD855,10,0,1,38,1,1180.9000000953674,37,1,1200.9000000953674,10,1,experiment,NA,NA,0,0.9,0.1,0,1,251,6,NA
fcp-trial,315,2035847,0.0-262.0-0.0,voc_e2,12250,"[{""event"":""fullscreenenter"",""trial"":1,""time"":7152}]",NA,NA,NA,NA,NA,0,#741CD8,#D8271C,10,0,0,38,1,1265.0999999046326,39,0,1046,0,1,experiment,NA,NA,1,0.3,0.7,3,2,252,6,NA
fcp-trial,316,2038940,0.0-263.0-0.0,voc_e2,12250,"[{""event"":""fullscreenenter"",""trial"":1,""time"":7152}]",NA,NA,NA,NA,NA,6,#3386FF,#D89F1C,0,10,0,40,0,1026.2999999523163,37,1,561,0,0,experiment,NA,NA,2,0.5,0.5,5,4,253,6,NA
fcp-trial,317,2043732,0.0-264.0-0.0,voc_e2,12250,"[{""event"":""fullscreenenter"",""trial"":1,""time"":7152}]",NA,NA,NA,NA,NA,5,#1CD855,#FA92F8,0,10,0,40,0,2608.300000190735,37,1,675.2000000476837,0,0,experiment,NA,NA,0,0.1,0.9,1,0,254,6,NA
fcp-trial,318,2046670,0.0-265.0-0.0,voc_e2,12250,"[{""event"":""fullscreenenter"",""trial"":1,""time"":7152}]",NA,NA,NA,NA,NA,0,#741CD8,#D8271C,10,10,0,38,1,799.2000000476837,39,0,632.0999999046326,10,1,experiment,NA,NA,1,0.3,0.7,3,2,255,6,NA
fcp-trial,319,2051824,0.0-266.0-0.0,voc_e2,12250,"[{""event"":""fullscreenenter"",""trial"":1,""time"":7152}]",NA,NA,NA,NA,NA,5,#D89F1C,#3386FF,0,0,1,40,0,3329.4000000953674,37,1,317.89999985694885,0,1,experiment,NA,NA,2,0.5,0.5,4,5,256,6,NA
fcp-trial,320,2055197,0.0-267.0-0.0,voc_e2,12250,"[{""event"":""fullscreenenter"",""trial"":1,""time"":7152}]",NA,NA,NA,NA,NA,6,#FA92F8,#1CD855,10,0,1,40,0,924.5,37,1,940.2999999523164,10,1,experiment,NA,NA,0,0.9,0.1,0,1,257,6,NA
fcp-trial,321,2057882,0.0-268.0-0.0,voc_e2,12250,"[{""event"":""fullscreenenter"",""trial"":1,""time"":7152}]",NA,NA,NA,NA,NA,1,#741CD8,#D8271C,10,10,0,38,1,673.0999999046326,39,0,504.80000019073486,10,1,experiment,NA,NA,1,0.3,0.7,3,2,258,6,NA
fcp-trial,322,2061916,0.0-269.0-0.0,voc_e2,12250,"[{""event"":""fullscreenenter"",""trial"":1,""time"":7152}]",NA,NA,NA,NA,NA,1,#D89F1C,#3386FF,0,10,1,38,1,1148.5,39,0,1378.7999999523165,10,0,experiment,NA,NA,2,0.5,0.5,4,5,259,6,NA
fcp-trial,323,2065068,0.0-270.0-0.0,voc_e2,12250,"[{""event"":""fullscreenenter"",""trial"":1,""time"":7152}]",NA,NA,NA,NA,NA,4,#FA92F8,#1CD855,10,0,1,38,1,1149.7999999523163,37,1,494.5,10,1,experiment,NA,NA,0,0.9,0.1,0,1,260,6,NA
fcp-trial,324,2074069,0.0-271.0-0.0,voc_e2,12250,"[{""event"":""fullscreenenter"",""trial"":1,""time"":7152}]",NA,NA,NA,NA,NA,4,#3386FF,#D89F1C,10,10,0,38,1,6021.399999856949,37,1,1472.1999998092651,10,0,experiment,NA,NA,2,0.5,0.5,5,4,261,6,NA
fcp-trial,325,2077133,0.0-272.0-0.0,voc_e2,12250,"[{""event"":""fullscreenenter"",""trial"":1,""time"":7152}]",NA,NA,NA,NA,NA,4,#D8271C,#741CD8,10,10,1,38,1,1187.2000000476837,37,1,368,10,1,experiment,NA,NA,1,0.7,0.3,2,3,262,6,NA
fcp-trial,326,2079974,0.0-273.0-0.0,voc_e2,12250,"[{""event"":""fullscreenenter"",""trial"":1,""time"":7152}]",NA,NA,NA,NA,NA,2,#1CD855,#FA92F8,0,10,0,38,1,974.2999999523163,39,0,358.59999990463257,10,1,experiment,NA,NA,0,0.1,0.9,1,0,263,6,NA
fcp-trial,327,2082963,0.0-274.0-0.0,voc_e2,12250,"[{""event"":""fullscreenenter"",""trial"":1,""time"":7152}]",NA,NA,NA,NA,NA,6,#741CD8,#D8271C,10,10,0,40,0,1058.7000000476837,37,1,421.7999999523163,10,0,experiment,NA,NA,1,0.3,0.7,3,2,264,6,NA
fcp-trial,328,2086265,0.0-275.0-0.0,voc_e2,12250,"[{""event"":""fullscreenenter"",""trial"":1,""time"":7152}]",NA,NA,NA,NA,NA,1,#1CD855,#FA92F8,0,10,0,38,1,942.4000000953674,39,0,850.9000000953674,10,1,experiment,NA,NA,0,0.1,0.9,1,0,265,6,NA
fcp-trial,329,2089464,0.0-276.0-0.0,voc_e2,12250,"[{""event"":""fullscreenenter"",""trial"":1,""time"":7152}]",NA,NA,NA,NA,NA,2,#D89F1C,#3386FF,10,10,1,38,1,820.8999998569489,39,0,867.2999999523163,10,0,experiment,NA,NA,2,0.5,0.5,4,5,266,6,NA
fcp-trial,330,2092983,0.0-277.0-0.0,voc_e2,12250,"[{""event"":""fullscreenenter"",""trial"":1,""time"":7152}]",NA,NA,NA,NA,NA,2,#D8271C,#741CD8,10,0,1,38,1,1082.7999999523163,37,1,926,10,1,experiment,NA,NA,1,0.7,0.3,2,3,267,6,NA
fcp-trial,331,2096138,0.0-278.0-0.0,voc_e2,12250,"[{""event"":""fullscreenenter"",""trial"":1,""time"":7152}]",NA,NA,NA,NA,NA,3,#1CD855,#FA92F8,0,10,0,38,1,1010.9000000953674,39,0,635.7999999523163,10,1,experiment,NA,NA,0,0.1,0.9,1,0,268,6,NA
fcp-trial,332,2099277,0.0-279.0-0.0,voc_e2,12250,"[{""event"":""fullscreenenter"",""trial"":1,""time"":7152}]",NA,NA,NA,NA,NA,0,#1CD855,#FA92F8,0,10,0,38,1,1007.4000000953674,39,0,624.6000001430511,10,1,experiment,NA,NA,0,0.1,0.9,1,0,269,6,NA
fcp-trial,333,2102484,0.0-280.0-0.0,voc_e2,12250,"[{""event"":""fullscreenenter"",""trial"":1,""time"":7152}]",NA,NA,NA,NA,NA,3,#741CD8,#D8271C,0,0,0,38,1,1069.2000000476837,39,0,629.7000000476837,0,1,experiment,NA,NA,1,0.3,0.7,3,2,270,6,NA
fcp-trial,334,2105491,0.0-281.0-0.0,voc_e2,12250,"[{""event"":""fullscreenenter"",""trial"":1,""time"":7152}]",NA,NA,NA,NA,NA,3,#D89F1C,#3386FF,0,0,1,38,1,897.1999998092651,39,0,601,0,0,experiment,NA,NA,2,0.5,0.5,4,5,271,7,NA
fcp-trial,335,2108791,0.0-282.0-0.0,voc_e2,12250,"[{""event"":""fullscreenenter"",""trial"":1,""time"":7152}]",NA,NA,NA,NA,NA,5,#D8271C,#741CD8,10,10,1,40,0,1140.3000001907349,39,0,645,10,0,experiment,NA,NA,1,0.7,0.3,2,3,272,7,NA
fcp-trial,336,2112089,0.0-283.0-0.0,voc_e2,12250,"[{""event"":""fullscreenenter"",""trial"":1,""time"":7152}]",NA,NA,NA,NA,NA,0,#D89F1C,#3386FF,0,0,1,38,1,1186.7000000476837,39,0,604,0,0,experiment,NA,NA,2,0.5,0.5,4,5,273,7,NA
fcp-trial,337,2115227,0.0-284.0-0.0,voc_e2,12250,"[{""event"":""fullscreenenter"",""trial"":1,""time"":7152}]",NA,NA,NA,NA,NA,2,#741CD8,#D8271C,0,10,0,38,1,1053.7999999523163,39,0,577.2999999523163,10,1,experiment,NA,NA,1,0.3,0.7,3,2,274,7,NA
fcp-trial,338,2118588,0.0-285.0-0.0,voc_e2,12250,"[{""event"":""fullscreenenter"",""trial"":1,""time"":7152}]",NA,NA,NA,NA,NA,4,#3386FF,#D89F1C,0,0,0,38,1,1223.0999999046326,37,1,631.1000001430511,0,0,experiment,NA,NA,2,0.5,0.5,5,4,275,7,NA
fcp-trial,339,2121825,0.0-286.0-0.0,voc_e2,12250,"[{""event"":""fullscreenenter"",""trial"":1,""time"":7152}]",NA,NA,NA,NA,NA,3,#1CD855,#FA92F8,0,10,0,38,1,1112.8000001907349,39,0,614.5999999046326,10,1,experiment,NA,NA,0,0.1,0.9,1,0,276,7,NA
fcp-trial,340,2125069,0.0-287.0-0.0,voc_e2,12250,"[{""event"":""fullscreenenter"",""trial"":1,""time"":7152}]",NA,NA,NA,NA,NA,5,#D8271C,#741CD8,10,0,1,40,0,1152.2000000476837,39,0,582.7999999523163,0,0,experiment,NA,NA,1,0.7,0.3,2,3,277,7,NA
fcp-trial,341,2128492,0.0-288.0-0.0,voc_e2,12250,"[{""event"":""fullscreenenter"",""trial"":1,""time"":7152}]",NA,NA,NA,NA,NA,2,#1CD855,#FA92F8,0,10,0,38,1,882.2000000476837,39,0,1032.2000000476835,10,1,experiment,NA,NA,0,0.1,0.9,1,0,278,7,NA
fcp-trial,342,2133656,0.0-289.0-0.0,voc_e2,12250,"[{""event"":""fullscreenenter"",""trial"":1,""time"":7152}]",NA,NA,NA,NA,NA,2,#D89F1C,#3386FF,0,0,1,38,1,1172.5,39,0,2484.100000143051,0,0,experiment,NA,NA,2,0.5,0.5,4,5,279,7,NA
fcp-trial,343,2136867,0.0-290.0-0.0,voc_e2,12250,"[{""event"":""fullscreenenter"",""trial"":1,""time"":7152}]",NA,NA,NA,NA,NA,0,#741CD8,#D8271C,0,10,0,38,1,1115.5999999046326,39,0,588.7999999523163,10,1,experiment,NA,NA,1,0.3,0.7,3,2,280,7,NA
fcp-trial,344,2139803,0.0-291.0-0.0,voc_e2,12250,"[{""event"":""fullscreenenter"",""trial"":1,""time"":7152}]",NA,NA,NA,NA,NA,1,#1CD855,#FA92F8,0,10,0,38,1,924.2999999523163,39,0,505.59999990463257,10,1,experiment,NA,NA,0,0.1,0.9,1,0,281,7,NA
fcp-trial,345,2144098,0.0-292.0-0.0,voc_e2,12250,"[{""event"":""fullscreenenter"",""trial"":1,""time"":7152}]",NA,NA,NA,NA,NA,4,#D8271C,#741CD8,10,0,1,40,0,2163.899999856949,39,0,622.8999998569489,0,0,experiment,NA,NA,1,0.7,0.3,2,3,282,7,NA
fcp-trial,346,2147826,0.0-293.0-0.0,voc_e2,12250,"[{""event"":""fullscreenenter"",""trial"":1,""time"":7152}]",NA,NA,NA,NA,NA,1,#D89F1C,#3386FF,10,10,1,38,1,1012.9000000953674,37,1,1208.7000000476835,10,1,experiment,NA,NA,2,0.5,0.5,4,5,283,7,NA
fcp-trial,347,2151108,0.0-294.0-0.0,voc_e2,12250,"[{""event"":""fullscreenenter"",""trial"":1,""time"":7152}]",NA,NA,NA,NA,NA,6,#741CD8,#D8271C,0,10,0,40,0,1257.3000001907349,37,1,516,0,0,experiment,NA,NA,1,0.3,0.7,3,2,284,7,NA
fcp-trial,348,2154763,0.0-295.0-0.0,voc_e2,12250,"[{""event"":""fullscreenenter"",""trial"":1,""time"":7152}]",NA,NA,NA,NA,NA,5,#FA92F8,#1CD855,10,0,1,38,1,1693.5999999046326,37,1,453.2999999523163,10,1,experiment,NA,NA,0,0.9,0.1,0,1,285,7,NA
fcp-trial,349,2158300,0.0-296.0-0.0,voc_e2,12250,"[{""event"":""fullscreenenter"",""trial"":1,""time"":7152}]",NA,NA,NA,NA,NA,5,#3386FF,#D89F1C,0,0,0,40,0,1437.5999999046326,37,1,590,0,0,experiment,NA,NA,2,0.5,0.5,5,4,286,7,NA
fcp-trial,350,2161646,0.0-297.0-0.0,voc_e2,12250,"[{""event"":""fullscreenenter"",""trial"":1,""time"":7152}]",NA,NA,NA,NA,NA,0,#1CD855,#FA92F8,0,10,0,38,1,1258,39,0,579.5,10,1,experiment,NA,NA,0,0.1,0.9,1,0,287,7,NA
fcp-trial,351,2165702,0.0-298.0-0.0,voc_e2,12250,"[{""event"":""fullscreenenter"",""trial"":1,""time"":7152}]",NA,NA,NA,NA,NA,4,#1CD855,#FA92F8,0,0,0,38,1,2162.4000000953674,39,0,385.7999999523163,0,1,experiment,NA,NA,0,0.1,0.9,1,0,288,7,NA
fcp-trial,352,2168671,0.0-299.0-0.0,voc_e2,12250,"[{""event"":""fullscreenenter"",""trial"":1,""time"":7152}]",NA,NA,NA,NA,NA,3,#D8271C,#741CD8,10,0,1,38,1,1019.5999999046326,37,1,443.5,10,1,experiment,NA,NA,1,0.7,0.3,2,3,289,7,NA
fcp-trial,353,2172196,0.0-300.0-0.0,voc_e2,12250,"[{""event"":""fullscreenenter"",""trial"":1,""time"":7152}]",NA,NA,NA,NA,NA,6,#FA92F8,#1CD855,10,0,1,40,0,1529,37,1,488.39999985694885,10,1,experiment,NA,NA,0,0.9,0.1,0,1,290,7,NA
fcp-trial,354,2175282,0.0-301.0-0.0,voc_e2,12250,"[{""event"":""fullscreenenter"",""trial"":1,""time"":7152}]",NA,NA,NA,NA,NA,6,#D89F1C,#3386FF,10,10,1,40,0,1056.2999999523163,39,0,524.2000000476837,10,0,experiment,NA,NA,2,0.5,0.5,4,5,291,7,NA
fcp-trial,355,2178617,0.0-302.0-0.0,voc_e2,12250,"[{""event"":""fullscreenenter"",""trial"":1,""time"":7152}]",NA,NA,NA,NA,NA,1,#D8271C,#741CD8,10,0,1,38,1,992.5999999046326,37,1,834.4000000953674,10,1,experiment,NA,NA,1,0.7,0.3,2,3,292,7,NA
fcp-trial,356,2182652,0.0-303.0-0.0,voc_e2,12250,"[{""event"":""fullscreenenter"",""trial"":1,""time"":7152}]",NA,NA,NA,NA,NA,0,#D89F1C,#3386FF,10,10,1,38,1,1046.2999999523163,37,1,1483.4000000953674,10,1,experiment,NA,NA,2,0.5,0.5,4,5,293,7,NA
fcp-trial,357,2185714,0.0-304.0-0.0,voc_e2,12250,"[{""event"":""fullscreenenter"",""trial"":1,""time"":7152}]",NA,NA,NA,NA,NA,3,#D89F1C,#3386FF,0,10,1,38,1,932.4000000953674,39,0,620.7000000476837,10,0,experiment,NA,NA,2,0.5,0.5,4,5,294,7,NA
fcp-trial,358,2188729,0.0-305.0-0.0,voc_e2,12250,"[{""event"":""fullscreenenter"",""trial"":1,""time"":7152}]",NA,NA,NA,NA,NA,3,#D8271C,#741CD8,0,10,1,38,1,1096.5999999046326,37,1,411.2999999523163,0,1,experiment,NA,NA,1,0.7,0.3,2,3,295,7,NA
fcp-trial,359,2191605,0.0-306.0-0.0,voc_e2,12250,"[{""event"":""fullscreenenter"",""trial"":1,""time"":7152}]",NA,NA,NA,NA,NA,2,#D8271C,#741CD8,0,0,1,38,1,944.5999999046326,37,1,423.89999985694885,0,1,experiment,NA,NA,1,0.7,0.3,2,3,296,7,NA
fcp-trial,360,2194794,0.0-307.0-0.0,voc_e2,12250,"[{""event"":""fullscreenenter"",""trial"":1,""time"":7152}]",NA,NA,NA,NA,NA,4,#FA92F8,#1CD855,10,0,1,38,1,1204.1000001430511,37,1,478.60000014305115,10,1,experiment,NA,NA,0,0.9,0.1,0,1,297,7,NA
fcp-trial,361,2197826,0.0-308.0-0.0,voc_e2,12250,"[{""event"":""fullscreenenter"",""trial"":1,""time"":7152}]",NA,NA,NA,NA,NA,5,#3386FF,#D89F1C,0,0,0,40,0,1046.2999999523163,37,1,479.2999999523163,0,0,experiment,NA,NA,2,0.5,0.5,5,4,298,7,NA
fcp-trial,362,2200979,0.0-309.0-0.0,voc_e2,12250,"[{""event"":""fullscreenenter"",""trial"":1,""time"":7152}]",NA,NA,NA,NA,NA,4,#D8271C,#741CD8,10,10,1,40,0,1123.7000000476837,39,0,518.8999998569489,10,0,experiment,NA,NA,1,0.7,0.3,2,3,299,7,NA
fcp-trial,363,2203862,0.0-310.0-0.0,voc_e2,12250,"[{""event"":""fullscreenenter"",""trial"":1,""time"":7152}]",NA,NA,NA,NA,NA,6,#3386FF,#D89F1C,0,0,0,40,0,872.5,39,0,503.19999980926514,0,1,experiment,NA,NA,2,0.5,0.5,5,4,300,7,NA
fcp-trial,364,2207147,0.0-311.0-0.0,voc_e2,12250,"[{""event"":""fullscreenenter"",""trial"":1,""time"":7152}]",NA,NA,NA,NA,NA,0,#FA92F8,#1CD855,10,0,1,38,1,1365.9000000953674,37,1,411.5,10,1,experiment,NA,NA,0,0.9,0.1,0,1,301,7,NA
fcp-trial,365,2211649,0.0-312.0-0.0,voc_e2,12250,"[{""event"":""fullscreenenter"",""trial"":1,""time"":7152}]",NA,NA,NA,NA,NA,4,#3386FF,#D89F1C,10,0,0,38,1,2314.600000143051,37,1,680.2000000476837,10,0,experiment,NA,NA,2,0.5,0.5,5,4,302,7,NA
fcp-trial,366,2214799,0.0-313.0-0.0,voc_e2,12250,"[{""event"":""fullscreenenter"",""trial"":1,""time"":7152}]",NA,NA,NA,NA,NA,5,#D8271C,#741CD8,0,0,1,40,0,1063.0999999046326,37,1,580.0999999046326,0,1,experiment,NA,NA,1,0.7,0.3,2,3,303,7,NA
fcp-trial,367,2219017,0.0-314.0-0.0,voc_e2,12250,"[{""event"":""fullscreenenter"",""trial"":1,""time"":7152}]",NA,NA,NA,NA,NA,2,#FA92F8,#1CD855,10,0,1,38,1,2162.5,37,1,547.5,10,1,experiment,NA,NA,0,0.9,0.1,0,1,304,7,NA
fcp-trial,368,2221894,0.0-315.0-0.0,voc_e2,12250,"[{""event"":""fullscreenenter"",""trial"":1,""time"":7152}]",NA,NA,NA,NA,NA,1,#1CD855,#FA92F8,0,0,0,38,1,981.2999999523163,39,0,388.5,0,1,experiment,NA,NA,0,0.1,0.9,1,0,305,7,NA
fcp-trial,369,2225364,0.0-316.0-0.0,voc_e2,12250,"[{""event"":""fullscreenenter"",""trial"":1,""time"":7152}]",NA,NA,NA,NA,NA,3,#3386FF,#D89F1C,0,0,0,38,1,1196.8000001907349,37,1,766.9000000953674,0,0,experiment,NA,NA,2,0.5,0.5,5,4,306,7,NA
fcp-trial,370,2228298,0.0-317.0-0.0,voc_e2,12250,"[{""event"":""fullscreenenter"",""trial"":1,""time"":7152}]",NA,NA,NA,NA,NA,0,#741CD8,#D8271C,0,10,0,38,1,982.4000000953674,39,0,444.39999985694885,10,1,experiment,NA,NA,1,0.3,0.7,3,2,307,7,NA
fcp-trial,371,2231315,0.0-318.0-0.0,voc_e2,12250,"[{""event"":""fullscreenenter"",""trial"":1,""time"":7152}]",NA,NA,NA,NA,NA,2,#D89F1C,#3386FF,0,10,1,38,1,1043.3999998569489,37,1,466.59999990463257,0,1,experiment,NA,NA,2,0.5,0.5,4,5,308,7,NA
fcp-trial,372,2234155,0.0-319.0-0.0,voc_e2,12250,"[{""event"":""fullscreenenter"",""trial"":1,""time"":7152}]",NA,NA,NA,NA,NA,6,#FA92F8,#1CD855,10,0,1,40,0,882.6000001430511,37,1,447.7000000476837,10,1,experiment,NA,NA,0,0.9,0.1,0,1,309,7,NA
fcp-trial,373,2236873,0.0-320.0-0.0,voc_e2,12250,"[{""event"":""fullscreenenter"",""trial"":1,""time"":7152}]",NA,NA,NA,NA,NA,1,#741CD8,#D8271C,0,10,0,38,1,766.7999999523163,39,0,441.10000014305115,10,1,experiment,NA,NA,1,0.3,0.7,3,2,310,7,NA
fcp-trial,374,2240965,0.0-321.0-0.0,voc_e2,12250,"[{""event"":""fullscreenenter"",""trial"":1,""time"":7152}]",NA,NA,NA,NA,NA,1,#3386FF,#D89F1C,10,10,0,38,1,1158.0999999046326,39,0,1426.3000001907349,10,1,experiment,NA,NA,2,0.5,0.5,5,4,311,7,NA
fcp-trial,375,2243921,0.0-322.0-0.0,voc_e2,12250,"[{""event"":""fullscreenenter"",""trial"":1,""time"":7152}]",NA,NA,NA,NA,NA,0,#D89F1C,#3386FF,0,10,1,38,1,923.5,37,1,522.7000000476837,0,1,experiment,NA,NA,2,0.5,0.5,4,5,312,7,NA
fcp-trial,376,2247417,0.0-323.0-0.0,voc_e2,12250,"[{""event"":""fullscreenenter"",""trial"":1,""time"":7152}]",NA,NA,NA,NA,NA,3,#FA92F8,#1CD855,0,10,1,38,1,1455.0999999046326,37,1,532.9000000953674,0,1,experiment,NA,NA,0,0.9,0.1,0,1,313,7,NA
fcp-trial,377,2250501,0.0-324.0-0.0,voc_e2,12250,"[{""event"":""fullscreenenter"",""trial"":1,""time"":7152}]",NA,NA,NA,NA,NA,6,#D8271C,#741CD8,0,10,1,40,0,1135.2000000476837,37,1,441.7000000476837,0,1,experiment,NA,NA,1,0.7,0.3,2,3,314,7,NA
fcp-trial,378,2253395,0.0-325.0-0.0,voc_e2,12250,"[{""event"":""fullscreenenter"",""trial"":1,""time"":7152}]",NA,NA,NA,NA,NA,5,#1CD855,#FA92F8,0,10,0,40,0,966.2000000476837,37,1,420.7999999523163,0,0,experiment,NA,NA,0,0.1,0.9,1,0,315,7,NA
audio-instructions,379,2259761,0.0-326.0,voc_e2,12250,"[{""event"":""fullscreenenter"",""trial"":1,""time"":7152}]",NA,697.7999999523163,static/audio/finished.wav,NA,0,NA,NA,NA,NA,NA,NA,NA,NA,NA,NA,NA,NA,NA,NA,NA,NA,NA,NA,NA,NA,NA,NA,NA,NA,NA
audio-instructions,380,2271613,0.0-327.0-0.0,voc_e2,12250,"[{""event"":""fullscreenenter"",""trial"":1,""time"":7152}]",NA,1013.9000000953674,static/audio/explicit1.wav,NA,0,NA,NA,NA,NA,NA,NA,NA,NA,NA,NA,NA,NA,NA,NA,NA,NA,NA,NA,NA,NA,NA,NA,NA,NA,NA
audio-instructions,381,2279981,0.0-327.0-1.0,voc_e2,12250,"[{""event"":""fullscreenenter"",""trial"":1,""time"":7152}]",NA,773.7000000476837,static/audio/explicit2.wav,NA,0,NA,NA,NA,NA,NA,NA,NA,NA,NA,NA,NA,NA,NA,NA,NA,NA,NA,NA,NA,NA,NA,NA,NA,NA,NA
image-slider-response,382,2288773,0.0-328.0,voc_e2,12250,"[{""event"":""fullscreenenter"",""trial"":1,""time"":7152}]",NA,8789.5,static/img/machines/machine3.png,NA,NA,NA,NA,NA,NA,NA,NA,NA,NA,NA,NA,NA,NA,NA,NA,explicit,NA,NA,NA,NA,NA,NA,NA,NA,NA,6
image-slider-response,383,2291678,0.0-329.0,voc_e2,12250,"[{""event"":""fullscreenenter"",""trial"":1,""time"":7152}]",NA,2903.5,static/img/machines/machine4.png,NA,NA,NA,NA,NA,NA,NA,NA,NA,NA,NA,NA,NA,NA,NA,NA,explicit,NA,NA,NA,NA,NA,NA,NA,NA,NA,4
image-slider-response,384,2298201,0.0-330.0,voc_e2,12250,"[{""event"":""fullscreenenter"",""trial"":1,""time"":7152}]",NA,6520.400000095367,static/img/machines/machine1.png,NA,NA,NA,NA,NA,NA,NA,NA,NA,NA,NA,NA,NA,NA,NA,NA,explicit,NA,NA,NA,NA,NA,NA,NA,NA,NA,7
image-slider-response,385,2301921,0.0-331.0,voc_e2,12250,"[{""event"":""fullscreenenter"",""trial"":1,""time"":7152}]",NA,3718.300000190735,static/img/machines/machine6.png,NA,NA,NA,NA,NA,NA,NA,NA,NA,NA,NA,NA,NA,NA,NA,NA,explicit,NA,NA,NA,NA,NA,NA,NA,NA,NA,3
image-slider-response,386,2308400,0.0-332.0,voc_e2,12250,"[{""event"":""fullscreenenter"",""trial"":1,""time"":7152}]",NA,6476.700000047684,static/img/machines/machine2.png,NA,NA,NA,NA,NA,NA,NA,NA,NA,NA,NA,NA,NA,NA,NA,NA,explicit,NA,NA,NA,NA,NA,NA,NA,NA,NA,4
image-slider-response,387,2311679,0.0-333.0,voc_e2,12250,"[{""event"":""fullscreenenter"",""trial"":1,""time"":7152}]",NA,3276.599999904633,static/img/machines/machine5.png,NA,NA,NA,NA,NA,NA,NA,NA,NA,NA,NA,NA,NA,NA,NA,NA,explicit,NA,NA,NA,NA,NA,NA,NA,NA,NA,9
