trial_type,trial_index,time_elapsed,internal_node_id,task_version,subject_id,interactions,success,rt,stimulus,key_press,button_pressed,offer,arcade_color_L,arcade_color_R,arcade_outcome_L,arcade_outcome_R,correct,stage_1_key,stage_1_choice,stage_1_rt,stage_2_key,stage_2_choice,stage_2_rt,stage_3_outcome,accuracy,phase,responses,num_errors,context,reward_prob_L,reward_prob_R,arcade_id_L,arcade_id_R,trial,block,response
pavlovia,0,5,0.0-0.0,voc_e2,11703,[],NA,NA,NA,NA,NA,NA,NA,NA,NA,NA,NA,NA,NA,NA,NA,NA,NA,NA,NA,NA,NA,NA,NA,NA,NA,NA,NA,NA,NA,NA
fullscreen,1,184789,0.0-1.0,voc_e2,11703,"[{""event"":""fullscreenenter"",""trial"":1,""time"":183798}]",TRUE,NA,NA,NA,NA,NA,NA,NA,NA,NA,NA,NA,NA,NA,NA,NA,NA,NA,NA,NA,NA,NA,NA,NA,NA,NA,NA,NA,NA,NA
audio-keyboard-response,2,197291,0.0-2.0,voc_e2,11703,"[{""event"":""fullscreenenter"",""trial"":1,""time"":183798},{""event"":""fullscreenexit"",""trial"":2,""time"":195089}]",NA,12429,static/audio/beep_loop.wav,32,NA,NA,NA,NA,NA,NA,NA,NA,NA,NA,NA,NA,NA,NA,NA,NA,NA,NA,NA,NA,NA,NA,NA,NA,NA,NA
audio-test,3,198887,0.0-3.0,voc_e2,11703,"[{""event"":""fullscreenenter"",""trial"":1,""time"":183798},{""event"":""fullscreenexit"",""trial"":2,""time"":195089}]",NA,NA,static/audio/turtle.wav,NA,3,NA,NA,NA,NA,NA,NA,NA,NA,NA,NA,NA,NA,NA,NA,NA,NA,NA,NA,NA,NA,NA,NA,NA,NA,NA
audio-test,4,201155,0.0-4.0,voc_e2,11703,"[{""event"":""fullscreenenter"",""trial"":1,""time"":183798},{""event"":""fullscreenexit"",""trial"":2,""time"":195089}]",NA,NA,static/audio/shark.wav,NA,2,NA,NA,NA,NA,NA,NA,NA,NA,NA,NA,NA,NA,NA,NA,NA,NA,NA,NA,NA,NA,NA,NA,NA,NA,NA
audio-instructions,5,208029,0.0-5.0-0.0,voc_e2,11703,"[{""event"":""fullscreenenter"",""trial"":1,""time"":183798},{""event"":""fullscreenexit"",""trial"":2,""time"":195089}]",NA,1093.9000000059605,static/audio/instructions1.wav,NA,0,NA,NA,NA,NA,NA,NA,NA,NA,NA,NA,NA,NA,NA,NA,NA,NA,NA,NA,NA,NA,NA,NA,NA,NA,NA
audio-instructions,6,217164,0.0-5.0-1.0,voc_e2,11703,"[{""event"":""fullscreenenter"",""trial"":1,""time"":183798},{""event"":""fullscreenexit"",""trial"":2,""time"":195089}]",NA,2387.79999999702,static/audio/instructions2.wav,NA,0,NA,NA,NA,NA,NA,NA,NA,NA,NA,NA,NA,NA,NA,NA,NA,NA,NA,NA,NA,NA,NA,NA,NA,NA,NA
audio-instructions,7,227223,0.0-5.0-2.0,voc_e2,11703,"[{""event"":""fullscreenenter"",""trial"":1,""time"":183798},{""event"":""fullscreenexit"",""trial"":2,""time"":195089}]",NA,4256.29999999702,static/audio/instructions3.wav,NA,0,NA,NA,NA,NA,NA,NA,NA,NA,NA,NA,NA,NA,NA,NA,NA,NA,NA,NA,NA,NA,NA,NA,NA,NA,NA
audio-instructions,8,244915,0.0-5.0-3.0,voc_e2,11703,"[{""event"":""fullscreenenter"",""trial"":1,""time"":183798},{""event"":""fullscreenexit"",""trial"":2,""time"":195089}]",NA,4467.70000000298,static/audio/instructions4.wav,NA,0,NA,NA,NA,NA,NA,NA,NA,NA,NA,NA,NA,NA,NA,NA,NA,NA,NA,NA,NA,NA,NA,NA,NA,NA,NA
audio-instructions,9,255266,0.0-5.0-4.0,voc_e2,11703,"[{""event"":""fullscreenenter"",""trial"":1,""time"":183798},{""event"":""fullscreenexit"",""trial"":2,""time"":195089}]",NA,959.5,static/audio/instructions5.wav,NA,0,NA,NA,NA,NA,NA,NA,NA,NA,NA,NA,NA,NA,NA,NA,NA,NA,NA,NA,NA,NA,NA,NA,NA,NA,NA
fcp-practice,10,258859,0.0-5.0-5.0-0.0,voc_e2,11703,"[{""event"":""fullscreenenter"",""trial"":1,""time"":183798},{""event"":""fullscreenexit"",""trial"":2,""time"":195089}]",NA,NA,NA,NA,NA,NA,#EDC948,#46d3c8,10,0,1,null,null,null,37,1,2077.89999999851,10,1,practice,NA,NA,NA,NA,NA,NA,NA,NA,NA,NA
fcp-practice,11,260808,0.0-5.0-5.0-1.0,voc_e2,11703,"[{""event"":""fullscreenenter"",""trial"":1,""time"":183798},{""event"":""fullscreenexit"",""trial"":2,""time"":195089}]",NA,NA,NA,NA,NA,NA,#EDC948,#46d3c8,10,0,1,null,null,null,37,1,442.79999999701977,10,1,practice,NA,NA,NA,NA,NA,NA,NA,NA,NA,NA
fcp-practice,12,262602,0.0-5.0-5.0-2.0,voc_e2,11703,"[{""event"":""fullscreenenter"",""trial"":1,""time"":183798},{""event"":""fullscreenexit"",""trial"":2,""time"":195089}]",NA,NA,NA,NA,NA,NA,#EDC948,#46d3c8,0,10,1,null,null,null,37,1,288.1000000014901,0,1,practice,NA,NA,NA,NA,NA,NA,NA,NA,NA,NA
fcp-practice,13,264365,0.0-5.0-5.0-3.0,voc_e2,11703,"[{""event"":""fullscreenenter"",""trial"":1,""time"":183798},{""event"":""fullscreenexit"",""trial"":2,""time"":195089}]",NA,NA,NA,NA,NA,NA,#EDC948,#46d3c8,10,0,1,null,null,null,37,1,257.59999999403954,10,1,practice,NA,NA,NA,NA,NA,NA,NA,NA,NA,NA
fcp-practice,14,266097,0.0-5.0-5.0-4.0,voc_e2,11703,"[{""event"":""fullscreenenter"",""trial"":1,""time"":183798},{""event"":""fullscreenexit"",""trial"":2,""time"":195089}]",NA,NA,NA,NA,NA,NA,#EDC948,#46d3c8,10,0,1,null,null,null,37,1,223.79999999701977,10,1,practice,NA,NA,NA,NA,NA,NA,NA,NA,NA,NA
audio-instructions,15,285319,0.0-5.0-6.0,voc_e2,11703,"[{""event"":""fullscreenenter"",""trial"":1,""time"":183798},{""event"":""fullscreenexit"",""trial"":2,""time"":195089}]",NA,1212,static/audio/instructions6.wav,NA,0,NA,NA,NA,NA,NA,NA,NA,NA,NA,NA,NA,NA,NA,NA,NA,NA,NA,NA,NA,NA,NA,NA,NA,NA,NA
audio-instructions,16,305756,0.0-5.0-7.0,voc_e2,11703,"[{""event"":""fullscreenenter"",""trial"":1,""time"":183798},{""event"":""fullscreenexit"",""trial"":2,""time"":195089}]",NA,1239.10000000149,static/audio/instructions7.wav,NA,0,NA,NA,NA,NA,NA,NA,NA,NA,NA,NA,NA,NA,NA,NA,NA,NA,NA,NA,NA,NA,NA,NA,NA,NA,NA
audio-instructions,17,315879,0.0-5.0-8.0,voc_e2,11703,"[{""event"":""fullscreenenter"",""trial"":1,""time"":183798},{""event"":""fullscreenexit"",""trial"":2,""time"":195089}]",NA,643.2999999970198,static/audio/instructions8.wav,NA,0,NA,NA,NA,NA,NA,NA,NA,NA,NA,NA,NA,NA,NA,NA,NA,NA,NA,NA,NA,NA,NA,NA,NA,NA,NA
fcp-comprehension,18,328995,0.0-5.0-9.0,voc_e2,11703,"[{""event"":""fullscreenenter"",""trial"":1,""time"":183798},{""event"":""fullscreenexit"",""trial"":2,""time"":195089}]",NA,13114.5,NA,NA,NA,NA,NA,NA,NA,NA,NA,NA,NA,NA,NA,NA,NA,NA,NA,NA,"true,true",0,NA,NA,NA,NA,NA,NA,NA,NA
audio-instructions,19,335484,0.0-6.0-0.0,voc_e2,11703,"[{""event"":""fullscreenenter"",""trial"":1,""time"":183798},{""event"":""fullscreenexit"",""trial"":2,""time"":195089}]",NA,938.39999999851,static/audio/instructions9.wav,NA,0,NA,NA,NA,NA,NA,NA,NA,NA,NA,NA,NA,NA,NA,NA,NA,NA,NA,NA,NA,NA,NA,NA,NA,NA,NA
audio-instructions,20,348230,0.0-6.0-1.0,voc_e2,11703,"[{""event"":""fullscreenenter"",""trial"":1,""time"":183798},{""event"":""fullscreenexit"",""trial"":2,""time"":195089}]",NA,634.4000000059605,static/audio/instructions10.wav,NA,0,NA,NA,NA,NA,NA,NA,NA,NA,NA,NA,NA,NA,NA,NA,NA,NA,NA,NA,NA,NA,NA,NA,NA,NA,NA
fcp-trial,21,353836,0.0-6.0-2.0,voc_e2,11703,"[{""event"":""fullscreenenter"",""trial"":1,""time"":183798},{""event"":""fullscreenexit"",""trial"":2,""time"":195089}]",NA,NA,NA,NA,NA,0,#EDC948,#46d3c8,10,10,1,38,1,2673.10000000149,37,1,1415.5,10,1,practice,NA,NA,NA,NA,NA,NA,NA,NA,NA,NA
audio-instructions,22,367020,0.0-6.0-3.0,voc_e2,11703,"[{""event"":""fullscreenenter"",""trial"":1,""time"":183798},{""event"":""fullscreenexit"",""trial"":2,""time"":195089}]",NA,2174.5,static/audio/instructions11.wav,NA,0,NA,NA,NA,NA,NA,NA,NA,NA,NA,NA,NA,NA,NA,NA,NA,NA,NA,NA,NA,NA,NA,NA,NA,NA,NA
fcp-trial,23,373747,0.0-6.0-4.0,voc_e2,11703,"[{""event"":""fullscreenenter"",""trial"":1,""time"":183798},{""event"":""fullscreenexit"",""trial"":2,""time"":195089}]",NA,NA,NA,NA,NA,6,#EDC948,#46d3c8,10,10,1,40,0,2304.60000000149,37,1,2913.79999999702,10,1,practice,NA,NA,NA,NA,NA,NA,NA,NA,NA,NA
audio-instructions,24,394566,0.0-6.0-5.0,voc_e2,11703,"[{""event"":""fullscreenenter"",""trial"":1,""time"":183798},{""event"":""fullscreenexit"",""trial"":2,""time"":195089}]",NA,2128.5,static/audio/instructions12.wav,NA,0,NA,NA,NA,NA,NA,NA,NA,NA,NA,NA,NA,NA,NA,NA,NA,NA,NA,NA,NA,NA,NA,NA,NA,NA,NA
audio-instructions,25,402982,0.0-6.0-6.0,voc_e2,11703,"[{""event"":""fullscreenenter"",""trial"":1,""time"":183798},{""event"":""fullscreenexit"",""trial"":2,""time"":195089}]",NA,816,static/audio/instructions13.wav,NA,0,NA,NA,NA,NA,NA,NA,NA,NA,NA,NA,NA,NA,NA,NA,NA,NA,NA,NA,NA,NA,NA,NA,NA,NA,NA
audio-instructions,26,412336,0.0-6.0-7.0,voc_e2,11703,"[{""event"":""fullscreenenter"",""trial"":1,""time"":183798},{""event"":""fullscreenexit"",""trial"":2,""time"":195089}]",NA,909.39999999851,static/audio/instructions14.wav,NA,0,NA,NA,NA,NA,NA,NA,NA,NA,NA,NA,NA,NA,NA,NA,NA,NA,NA,NA,NA,NA,NA,NA,NA,NA,NA
audio-instructions,27,420284,0.0-7.0-0.0,voc_e2,11703,"[{""event"":""fullscreenenter"",""trial"":1,""time"":183798},{""event"":""fullscreenexit"",""trial"":2,""time"":195089}]",NA,1027.8000000044703,static/audio/instructions15.wav,NA,0,NA,NA,NA,NA,NA,NA,NA,NA,NA,NA,NA,NA,NA,NA,NA,NA,NA,NA,NA,NA,NA,NA,NA,NA,NA
audio-instructions,28,427698,0.0-7.0-1.0,voc_e2,11703,"[{""event"":""fullscreenenter"",""trial"":1,""time"":183798},{""event"":""fullscreenexit"",""trial"":2,""time"":195089}]",NA,581.5999999940395,static/audio/instructions16.wav,NA,0,NA,NA,NA,NA,NA,NA,NA,NA,NA,NA,NA,NA,NA,NA,NA,NA,NA,NA,NA,NA,NA,NA,NA,NA,NA
audio-instructions,29,437760,0.0-7.0-2.0,voc_e2,11703,"[{""event"":""fullscreenenter"",""trial"":1,""time"":183798},{""event"":""fullscreenexit"",""trial"":2,""time"":195089}]",NA,2384,static/audio/instructions17.wav,NA,0,NA,NA,NA,NA,NA,NA,NA,NA,NA,NA,NA,NA,NA,NA,NA,NA,NA,NA,NA,NA,NA,NA,NA,NA,NA
audio-instructions,30,447895,0.0-7.0-3.0,voc_e2,11703,"[{""event"":""fullscreenenter"",""trial"":1,""time"":183798},{""event"":""fullscreenexit"",""trial"":2,""time"":195089}]",NA,2368.10000000149,static/audio/instructions18.wav,NA,0,NA,NA,NA,NA,NA,NA,NA,NA,NA,NA,NA,NA,NA,NA,NA,NA,NA,NA,NA,NA,NA,NA,NA,NA,NA
audio-instructions,31,456681,0.0-7.0-4.0,voc_e2,11703,"[{""event"":""fullscreenenter"",""trial"":1,""time"":183798},{""event"":""fullscreenexit"",""trial"":2,""time"":195089}]",NA,2044.5,static/audio/instructions19.wav,NA,0,NA,NA,NA,NA,NA,NA,NA,NA,NA,NA,NA,NA,NA,NA,NA,NA,NA,NA,NA,NA,NA,NA,NA,NA,NA
fcp-comprehension,32,491459,0.0-7.0-5.0,voc_e2,11703,"[{""event"":""fullscreenenter"",""trial"":1,""time"":183798},{""event"":""fullscreenexit"",""trial"":2,""time"":195089}]",NA,34776.29999999702,NA,NA,NA,NA,NA,NA,NA,NA,NA,NA,NA,NA,NA,NA,NA,NA,NA,NA,"true,true,false,true",2,NA,NA,NA,NA,NA,NA,NA,NA
audio-instructions,33,499977,0.0-7.1-0.1,voc_e2,11703,"[{""event"":""fullscreenenter"",""trial"":1,""time"":183798},{""event"":""fullscreenexit"",""trial"":2,""time"":195089}]",NA,1582.7999999970198,static/audio/instructions15.wav,NA,0,NA,NA,NA,NA,NA,NA,NA,NA,NA,NA,NA,NA,NA,NA,NA,NA,NA,NA,NA,NA,NA,NA,NA,NA,NA
audio-instructions,34,508522,0.0-7.1-1.1,voc_e2,11703,"[{""event"":""fullscreenenter"",""trial"":1,""time"":183798},{""event"":""fullscreenexit"",""trial"":2,""time"":195089}]",NA,1717,static/audio/instructions16.wav,NA,0,NA,NA,NA,NA,NA,NA,NA,NA,NA,NA,NA,NA,NA,NA,NA,NA,NA,NA,NA,NA,NA,NA,NA,NA,NA
audio-instructions,35,516746,0.0-7.1-2.1,voc_e2,11703,"[{""event"":""fullscreenenter"",""trial"":1,""time"":183798},{""event"":""fullscreenexit"",""trial"":2,""time"":195089}]",NA,552.0999999940395,static/audio/instructions17.wav,NA,0,NA,NA,NA,NA,NA,NA,NA,NA,NA,NA,NA,NA,NA,NA,NA,NA,NA,NA,NA,NA,NA,NA,NA,NA,NA
audio-instructions,36,525164,0.0-7.1-3.1,voc_e2,11703,"[{""event"":""fullscreenenter"",""trial"":1,""time"":183798},{""event"":""fullscreenexit"",""trial"":2,""time"":195089}]",NA,649.8999999985099,static/audio/instructions18.wav,NA,0,NA,NA,NA,NA,NA,NA,NA,NA,NA,NA,NA,NA,NA,NA,NA,NA,NA,NA,NA,NA,NA,NA,NA,NA,NA
audio-instructions,37,532584,0.0-7.1-4.1,voc_e2,11703,"[{""event"":""fullscreenenter"",""trial"":1,""time"":183798},{""event"":""fullscreenexit"",""trial"":2,""time"":195089}]",NA,669.6000000014901,static/audio/instructions19.wav,NA,0,NA,NA,NA,NA,NA,NA,NA,NA,NA,NA,NA,NA,NA,NA,NA,NA,NA,NA,NA,NA,NA,NA,NA,NA,NA
fcp-comprehension,38,564119,0.0-7.1-5.1,voc_e2,11703,"[{""event"":""fullscreenenter"",""trial"":1,""time"":183798},{""event"":""fullscreenexit"",""trial"":2,""time"":195089}]",NA,31533.5,NA,NA,NA,NA,NA,NA,NA,NA,NA,NA,NA,NA,NA,NA,NA,NA,NA,NA,"false,false,true,true",1,NA,NA,NA,NA,NA,NA,NA,NA
audio-instructions,39,571837,0.0-7.2-0.2,voc_e2,11703,"[{""event"":""fullscreenenter"",""trial"":1,""time"":183798},{""event"":""fullscreenexit"",""trial"":2,""time"":195089}]",NA,803.2999999970198,static/audio/instructions15.wav,NA,0,NA,NA,NA,NA,NA,NA,NA,NA,NA,NA,NA,NA,NA,NA,NA,NA,NA,NA,NA,NA,NA,NA,NA,NA,NA
audio-instructions,40,601310,0.0-7.2-1.2,voc_e2,11703,"[{""event"":""fullscreenenter"",""trial"":1,""time"":183798},{""event"":""fullscreenexit"",""trial"":2,""time"":195089}]",NA,22646.10000000149,static/audio/instructions16.wav,NA,0,NA,NA,NA,NA,NA,NA,NA,NA,NA,NA,NA,NA,NA,NA,NA,NA,NA,NA,NA,NA,NA,NA,NA,NA,NA
audio-instructions,41,614547,0.0-7.2-2.2,voc_e2,11703,"[{""event"":""fullscreenenter"",""trial"":1,""time"":183798},{""event"":""fullscreenexit"",""trial"":2,""time"":195089}]",NA,5563.79999999702,static/audio/instructions17.wav,NA,0,NA,NA,NA,NA,NA,NA,NA,NA,NA,NA,NA,NA,NA,NA,NA,NA,NA,NA,NA,NA,NA,NA,NA,NA,NA
audio-instructions,42,622871,0.0-7.2-3.2,voc_e2,11703,"[{""event"":""fullscreenenter"",""trial"":1,""time"":183798},{""event"":""fullscreenexit"",""trial"":2,""time"":195089}]",NA,557.2999999970198,static/audio/instructions18.wav,NA,0,NA,NA,NA,NA,NA,NA,NA,NA,NA,NA,NA,NA,NA,NA,NA,NA,NA,NA,NA,NA,NA,NA,NA,NA,NA
audio-instructions,43,630169,0.0-7.2-4.2,voc_e2,11703,"[{""event"":""fullscreenenter"",""trial"":1,""time"":183798},{""event"":""fullscreenexit"",""trial"":2,""time"":195089}]",NA,555.3999999985099,static/audio/instructions19.wav,NA,0,NA,NA,NA,NA,NA,NA,NA,NA,NA,NA,NA,NA,NA,NA,NA,NA,NA,NA,NA,NA,NA,NA,NA,NA,NA
fcp-comprehension,44,653172,0.0-7.2-5.2,voc_e2,11703,"[{""event"":""fullscreenenter"",""trial"":1,""time"":183798},{""event"":""fullscreenexit"",""trial"":2,""time"":195089}]",NA,23001.30000000447,NA,NA,NA,NA,NA,NA,NA,NA,NA,NA,NA,NA,NA,NA,NA,NA,NA,NA,"true,false,false,true",1,NA,NA,NA,NA,NA,NA,NA,NA
audio-instructions,45,660872,0.0-7.3-0.3,voc_e2,11703,"[{""event"":""fullscreenenter"",""trial"":1,""time"":183798},{""event"":""fullscreenexit"",""trial"":2,""time"":195089}]",NA,780.1999999955297,static/audio/instructions15.wav,NA,0,NA,NA,NA,NA,NA,NA,NA,NA,NA,NA,NA,NA,NA,NA,NA,NA,NA,NA,NA,NA,NA,NA,NA,NA,NA
audio-instructions,46,688343,0.0-7.3-1.3,voc_e2,11703,"[{""event"":""fullscreenenter"",""trial"":1,""time"":183798},{""event"":""fullscreenexit"",""trial"":2,""time"":195089}]",NA,20638.89999999851,static/audio/instructions16.wav,NA,0,NA,NA,NA,NA,NA,NA,NA,NA,NA,NA,NA,NA,NA,NA,NA,NA,NA,NA,NA,NA,NA,NA,NA,NA,NA
audio-instructions,47,696824,0.0-7.3-2.3,voc_e2,11703,"[{""event"":""fullscreenenter"",""trial"":1,""time"":183798},{""event"":""fullscreenexit"",""trial"":2,""time"":195089}]",NA,799.6999999955297,static/audio/instructions17.wav,NA,0,NA,NA,NA,NA,NA,NA,NA,NA,NA,NA,NA,NA,NA,NA,NA,NA,NA,NA,NA,NA,NA,NA,NA,NA,NA
audio-instructions,48,705200,0.0-7.3-3.3,voc_e2,11703,"[{""event"":""fullscreenenter"",""trial"":1,""time"":183798},{""event"":""fullscreenexit"",""trial"":2,""time"":195089}]",NA,606,static/audio/instructions18.wav,NA,0,NA,NA,NA,NA,NA,NA,NA,NA,NA,NA,NA,NA,NA,NA,NA,NA,NA,NA,NA,NA,NA,NA,NA,NA,NA
audio-instructions,49,712692,0.0-7.3-4.3,voc_e2,11703,"[{""event"":""fullscreenenter"",""trial"":1,""time"":183798},{""event"":""fullscreenexit"",""trial"":2,""time"":195089}]",NA,749.2000000029802,static/audio/instructions19.wav,NA,0,NA,NA,NA,NA,NA,NA,NA,NA,NA,NA,NA,NA,NA,NA,NA,NA,NA,NA,NA,NA,NA,NA,NA,NA,NA
fcp-comprehension,50,803997,0.0-7.3-5.3,voc_e2,11703,"[{""event"":""fullscreenenter"",""trial"":1,""time"":183798},{""event"":""fullscreenexit"",""trial"":2,""time"":195089}]",NA,91303.89999999852,NA,NA,NA,NA,NA,NA,NA,NA,NA,NA,NA,NA,NA,NA,NA,NA,NA,NA,"false,true,false,true",1,NA,NA,NA,NA,NA,NA,NA,NA
audio-instructions,51,811822,0.0-7.4-0.4,voc_e2,11703,"[{""event"":""fullscreenenter"",""trial"":1,""time"":183798},{""event"":""fullscreenexit"",""trial"":2,""time"":195089}]",NA,900.7999999970198,static/audio/instructions15.wav,NA,0,NA,NA,NA,NA,NA,NA,NA,NA,NA,NA,NA,NA,NA,NA,NA,NA,NA,NA,NA,NA,NA,NA,NA,NA,NA
audio-instructions,52,819350,0.0-7.4-1.4,voc_e2,11703,"[{""event"":""fullscreenenter"",""trial"":1,""time"":183798},{""event"":""fullscreenexit"",""trial"":2,""time"":195089}]",NA,698.7000000029802,static/audio/instructions16.wav,NA,0,NA,NA,NA,NA,NA,NA,NA,NA,NA,NA,NA,NA,NA,NA,NA,NA,NA,NA,NA,NA,NA,NA,NA,NA,NA
audio-instructions,53,827344,0.0-7.4-2.4,voc_e2,11703,"[{""event"":""fullscreenenter"",""trial"":1,""time"":183798},{""event"":""fullscreenexit"",""trial"":2,""time"":195089}]",NA,311.8999999985099,static/audio/instructions17.wav,NA,0,NA,NA,NA,NA,NA,NA,NA,NA,NA,NA,NA,NA,NA,NA,NA,NA,NA,NA,NA,NA,NA,NA,NA,NA,NA
audio-instructions,54,835456,0.0-7.4-3.4,voc_e2,11703,"[{""event"":""fullscreenenter"",""trial"":1,""time"":183798},{""event"":""fullscreenexit"",""trial"":2,""time"":195089}]",NA,345.19999999552965,static/audio/instructions18.wav,NA,0,NA,NA,NA,NA,NA,NA,NA,NA,NA,NA,NA,NA,NA,NA,NA,NA,NA,NA,NA,NA,NA,NA,NA,NA,NA
audio-instructions,55,842815,0.0-7.4-4.4,voc_e2,11703,"[{""event"":""fullscreenenter"",""trial"":1,""time"":183798},{""event"":""fullscreenexit"",""trial"":2,""time"":195089}]",NA,622.7999999970198,static/audio/instructions19.wav,NA,0,NA,NA,NA,NA,NA,NA,NA,NA,NA,NA,NA,NA,NA,NA,NA,NA,NA,NA,NA,NA,NA,NA,NA,NA,NA
fcp-comprehension,56,914801,0.0-7.4-5.4,voc_e2,11703,"[{""event"":""fullscreenenter"",""trial"":1,""time"":183798},{""event"":""fullscreenexit"",""trial"":2,""time"":195089}]",NA,71983.80000000447,NA,NA,NA,NA,NA,NA,NA,NA,NA,NA,NA,NA,NA,NA,NA,NA,NA,NA,"false,false,false,true",0,NA,NA,NA,NA,NA,NA,NA,NA
audio-instructions,57,926916,0.0-8.0,voc_e2,11703,"[{""event"":""fullscreenenter"",""trial"":1,""time"":183798},{""event"":""fullscreenexit"",""trial"":2,""time"":195089}]",NA,2874.79999999702,static/audio/ready.wav,NA,0,NA,NA,NA,NA,NA,NA,NA,NA,NA,NA,NA,NA,NA,NA,NA,NA,NA,NA,NA,NA,NA,NA,NA,NA,NA
fcp-trial,58,934201,0.0-9.0-0.0,voc_e2,11703,"[{""event"":""fullscreenenter"",""trial"":1,""time"":183798},{""event"":""fullscreenexit"",""trial"":2,""time"":195089}]",NA,NA,NA,NA,NA,3,#1CD855,#FA92F8,0,0,1,40,0,4386.30000000447,37,1,1390.7999999970198,0,1,experiment,NA,NA,1,0.7,0.3,2,3,1,1,NA
fcp-trial,59,939052,0.0-10.0-0.0,voc_e2,11703,"[{""event"":""fullscreenenter"",""trial"":1,""time"":183798},{""event"":""fullscreenexit"",""trial"":2,""time"":195089}]",NA,NA,NA,NA,NA,3,#D8271C,#741CD8,10,10,0,38,1,2273.6999999955297,37,1,1066.7999999970198,10,0,experiment,NA,NA,2,0.5,0.5,5,4,2,1,NA
fcp-trial,60,941734,0.0-11.0-0.0,voc_e2,11703,"[{""event"":""fullscreenenter"",""trial"":1,""time"":183798},{""event"":""fullscreenexit"",""trial"":2,""time"":195089}]",NA,NA,NA,NA,NA,4,#3386FF,#D89F1C,0,10,0,38,1,629.5999999940395,39,0,539,10,1,experiment,NA,NA,0,0.1,0.9,1,0,3,1,NA
fcp-trial,61,945748,0.0-12.0-0.0,voc_e2,11703,"[{""event"":""fullscreenenter"",""trial"":1,""time"":183798},{""event"":""fullscreenexit"",""trial"":2,""time"":195089}]",NA,NA,NA,NA,NA,0,#3386FF,#D89F1C,0,10,0,38,1,1690.5,39,0,812.7000000029802,10,1,experiment,NA,NA,0,0.1,0.9,1,0,4,1,NA
fcp-trial,62,949931,0.0-13.0-0.0,voc_e2,11703,"[{""event"":""fullscreenenter"",""trial"":1,""time"":183798},{""event"":""fullscreenexit"",""trial"":2,""time"":195089}]",NA,NA,NA,NA,NA,1,#1CD855,#FA92F8,10,0,1,38,1,2232.10000000149,37,1,444.79999999701977,10,1,experiment,NA,NA,1,0.7,0.3,2,3,5,1,NA
fcp-trial,63,953793,0.0-14.0-0.0,voc_e2,11703,"[{""event"":""fullscreenenter"",""trial"":1,""time"":183798},{""event"":""fullscreenexit"",""trial"":2,""time"":195089}]",NA,NA,NA,NA,NA,0,#D8271C,#741CD8,10,0,0,38,1,1514.7000000029802,39,0,840.2999999970198,0,1,experiment,NA,NA,2,0.5,0.5,5,4,6,1,NA
fcp-trial,64,959288,0.0-15.0-0.0,voc_e2,11703,"[{""event"":""fullscreenenter"",""trial"":1,""time"":183798},{""event"":""fullscreenexit"",""trial"":2,""time"":195089}]",NA,NA,NA,NA,NA,1,#3386FF,#D89F1C,0,0,0,38,1,2719,37,1,1268.7000000029802,0,0,experiment,NA,NA,0,0.1,0.9,1,0,7,1,NA
fcp-trial,65,966191,0.0-16.0-0.0,voc_e2,11703,"[{""event"":""fullscreenenter"",""trial"":1,""time"":183798},{""event"":""fullscreenexit"",""trial"":2,""time"":195089}]",NA,NA,NA,NA,NA,2,#FA92F8,#1CD855,0,10,0,40,0,4200.10000000149,37,1,1197.39999999851,0,0,experiment,NA,NA,1,0.3,0.7,3,2,8,1,NA
fcp-trial,66,969176,0.0-17.0-0.0,voc_e2,11703,"[{""event"":""fullscreenenter"",""trial"":1,""time"":183798},{""event"":""fullscreenexit"",""trial"":2,""time"":195089}]",NA,NA,NA,NA,NA,2,#D8271C,#741CD8,0,0,0,38,1,1056.7999999970198,37,1,423.6000000014901,0,0,experiment,NA,NA,2,0.5,0.5,5,4,9,1,NA
fcp-trial,67,972241,0.0-18.0-0.0,voc_e2,11703,"[{""event"":""fullscreenenter"",""trial"":1,""time"":183798},{""event"":""fullscreenexit"",""trial"":2,""time"":195089}]",NA,NA,NA,NA,NA,6,#FA92F8,#1CD855,0,10,0,38,1,858.5,39,0,699,10,1,experiment,NA,NA,1,0.3,0.7,3,2,10,1,NA
fcp-trial,68,975802,0.0-19.0-0.0,voc_e2,11703,"[{""event"":""fullscreenenter"",""trial"":1,""time"":183798},{""event"":""fullscreenexit"",""trial"":2,""time"":195089}]",NA,NA,NA,NA,NA,1,#D8271C,#741CD8,10,10,0,38,1,1654.3999999985099,37,1,400.20000000298023,10,0,experiment,NA,NA,2,0.5,0.5,5,4,11,1,NA
fcp-trial,69,978881,0.0-20.0-0.0,voc_e2,11703,"[{""event"":""fullscreenenter"",""trial"":1,""time"":183798},{""event"":""fullscreenexit"",""trial"":2,""time"":195089}]",NA,NA,NA,NA,NA,3,#3386FF,#D89F1C,0,10,0,38,1,1144.4000000059605,37,1,431.6000000014901,0,0,experiment,NA,NA,0,0.1,0.9,1,0,12,1,NA
fcp-trial,70,981929,0.0-21.0-0.0,voc_e2,11703,"[{""event"":""fullscreenenter"",""trial"":1,""time"":183798},{""event"":""fullscreenexit"",""trial"":2,""time"":195089}]",NA,NA,NA,NA,NA,5,#FA92F8,#1CD855,0,10,0,40,0,990.7000000029802,37,1,550.3999999985099,0,0,experiment,NA,NA,1,0.3,0.7,3,2,13,1,NA
fcp-trial,71,984797,0.0-22.0-0.0,voc_e2,11703,"[{""event"":""fullscreenenter"",""trial"":1,""time"":183798},{""event"":""fullscreenexit"",""trial"":2,""time"":195089}]",NA,NA,NA,NA,NA,5,#3386FF,#D89F1C,0,10,0,40,0,682.8999999985099,39,0,678.3999999985099,10,1,experiment,NA,NA,0,0.1,0.9,1,0,14,1,NA
fcp-trial,72,989397,0.0-23.0-0.0,voc_e2,11703,"[{""event"":""fullscreenenter"",""trial"":1,""time"":183798},{""event"":""fullscreenexit"",""trial"":2,""time"":195089}]",NA,NA,NA,NA,NA,4,#D8271C,#741CD8,10,10,0,38,1,2728.9000000059605,37,1,366.5,10,0,experiment,NA,NA,2,0.5,0.5,5,4,15,1,NA
fcp-trial,73,993592,0.0-24.0-0.0,voc_e2,11703,"[{""event"":""fullscreenenter"",""trial"":1,""time"":183798},{""event"":""fullscreenexit"",""trial"":2,""time"":195089}]",NA,NA,NA,NA,NA,2,#D89F1C,#3386FF,0,0,1,38,1,2139.6999999955297,39,0,550.8999999985099,0,0,experiment,NA,NA,0,0.9,0.1,0,1,16,1,NA
fcp-trial,74,998084,0.0-25.0-0.0,voc_e2,11703,"[{""event"":""fullscreenenter"",""trial"":1,""time"":183798},{""event"":""fullscreenexit"",""trial"":2,""time"":195089}]",NA,NA,NA,NA,NA,0,#1CD855,#FA92F8,10,10,1,38,1,2517.60000000149,37,1,469.79999999701977,10,1,experiment,NA,NA,1,0.7,0.3,2,3,17,1,NA
fcp-trial,75,1001550,0.0-26.0-0.0,voc_e2,11703,"[{""event"":""fullscreenenter"",""trial"":1,""time"":183798},{""event"":""fullscreenexit"",""trial"":2,""time"":195089}]",NA,NA,NA,NA,NA,4,#FA92F8,#1CD855,0,10,0,40,0,1400.2000000029802,39,0,559.3000000044703,10,1,experiment,NA,NA,1,0.3,0.7,3,2,18,1,NA
fcp-trial,76,1004417,0.0-27.0-0.0,voc_e2,11703,"[{""event"":""fullscreenenter"",""trial"":1,""time"":183798},{""event"":""fullscreenexit"",""trial"":2,""time"":195089}]",NA,NA,NA,NA,NA,5,#D8271C,#741CD8,10,10,0,40,0,950.3000000044703,37,1,411.8999999985099,10,0,experiment,NA,NA,2,0.5,0.5,5,4,19,1,NA
fcp-trial,77,1006978,0.0-28.0-0.0,voc_e2,11703,"[{""event"":""fullscreenenter"",""trial"":1,""time"":183798},{""event"":""fullscreenexit"",""trial"":2,""time"":195089}]",NA,NA,NA,NA,NA,6,#741CD8,#D8271C,10,10,1,40,0,625.5,39,0,429.6000000014901,10,0,experiment,NA,NA,2,0.5,0.5,4,5,20,1,NA
fcp-trial,78,1009387,0.0-29.0-0.0,voc_e2,11703,"[{""event"":""fullscreenenter"",""trial"":1,""time"":183798},{""event"":""fullscreenexit"",""trial"":2,""time"":195089}]",NA,NA,NA,NA,NA,6,#D89F1C,#3386FF,10,0,1,40,0,510.79999999701977,37,1,393.70000000298023,10,1,experiment,NA,NA,0,0.9,0.1,0,1,21,1,NA
fcp-trial,79,1012373,0.0-30.0-0.0,voc_e2,11703,"[{""event"":""fullscreenenter"",""trial"":1,""time"":183798},{""event"":""fullscreenexit"",""trial"":2,""time"":195089}]",NA,NA,NA,NA,NA,3,#3386FF,#D89F1C,0,10,0,38,1,1029.7999999970198,37,1,450.1000000014901,0,0,experiment,NA,NA,0,0.1,0.9,1,0,22,1,NA
fcp-trial,80,1015571,0.0-31.0-0.0,voc_e2,11703,"[{""event"":""fullscreenenter"",""trial"":1,""time"":183798},{""event"":""fullscreenexit"",""trial"":2,""time"":195089}]",NA,NA,NA,NA,NA,1,#D8271C,#741CD8,10,0,0,38,1,1226.3000000044703,37,1,467.09999999403954,10,0,experiment,NA,NA,2,0.5,0.5,5,4,23,1,NA
fcp-trial,81,1018211,0.0-32.0-0.0,voc_e2,11703,"[{""event"":""fullscreenenter"",""trial"":1,""time"":183798},{""event"":""fullscreenexit"",""trial"":2,""time"":195089}]",NA,NA,NA,NA,NA,5,#3386FF,#D89F1C,0,10,0,40,0,696.5,39,0,437.5,10,1,experiment,NA,NA,0,0.1,0.9,1,0,24,1,NA
fcp-trial,82,1020963,0.0-33.0-0.0,voc_e2,11703,"[{""event"":""fullscreenenter"",""trial"":1,""time"":183798},{""event"":""fullscreenexit"",""trial"":2,""time"":195089}]",NA,NA,NA,NA,NA,4,#3386FF,#D89F1C,0,10,0,40,0,680.4000000059605,39,0,566.9000000059605,10,1,experiment,NA,NA,0,0.1,0.9,1,0,25,1,NA
fcp-trial,83,1023601,0.0-34.0-0.0,voc_e2,11703,"[{""event"":""fullscreenenter"",""trial"":1,""time"":183798},{""event"":""fullscreenexit"",""trial"":2,""time"":195089}]",NA,NA,NA,NA,NA,1,#FA92F8,#1CD855,10,10,0,40,0,738.1000000014901,39,0,395.5,10,1,experiment,NA,NA,1,0.3,0.7,3,2,26,1,NA
fcp-trial,84,1026235,0.0-35.0-0.0,voc_e2,11703,"[{""event"":""fullscreenenter"",""trial"":1,""time"":183798},{""event"":""fullscreenexit"",""trial"":2,""time"":195089}]",NA,NA,NA,NA,NA,5,#1CD855,#FA92F8,10,10,1,40,0,700.8999999985099,37,1,427.6000000014901,10,1,experiment,NA,NA,1,0.7,0.3,2,3,27,1,NA
fcp-trial,85,1029311,0.0-36.0-0.0,voc_e2,11703,"[{""event"":""fullscreenenter"",""trial"":1,""time"":183798},{""event"":""fullscreenexit"",""trial"":2,""time"":195089}]",NA,NA,NA,NA,NA,4,#D8271C,#741CD8,10,0,0,40,0,1268.6000000014901,37,1,301.5,10,0,experiment,NA,NA,2,0.5,0.5,5,4,28,1,NA
fcp-trial,86,1032083,0.0-37.0-0.0,voc_e2,11703,"[{""event"":""fullscreenenter"",""trial"":1,""time"":183798},{""event"":""fullscreenexit"",""trial"":2,""time"":195089}]",NA,NA,NA,NA,NA,6,#D89F1C,#3386FF,10,0,1,40,0,664.5999999940395,37,1,603.3999999985099,10,1,experiment,NA,NA,0,0.9,0.1,0,1,29,1,NA
fcp-trial,87,1034806,0.0-38.0-0.0,voc_e2,11703,"[{""event"":""fullscreenenter"",""trial"":1,""time"":183798},{""event"":""fullscreenexit"",""trial"":2,""time"":195089}]",NA,NA,NA,NA,NA,5,#D8271C,#741CD8,0,0,0,40,0,789.1999999955297,37,1,428,0,0,experiment,NA,NA,2,0.5,0.5,5,4,30,1,NA
fcp-trial,88,1038255,0.0-39.0-0.0,voc_e2,11703,"[{""event"":""fullscreenenter"",""trial"":1,""time"":183798},{""event"":""fullscreenexit"",""trial"":2,""time"":195089}]",NA,NA,NA,NA,NA,0,#741CD8,#D8271C,10,0,1,38,1,1475.3999999985099,37,1,467.19999999552965,10,1,experiment,NA,NA,2,0.5,0.5,4,5,31,1,NA
fcp-trial,89,1041511,0.0-40.0-0.0,voc_e2,11703,"[{""event"":""fullscreenenter"",""trial"":1,""time"":183798},{""event"":""fullscreenexit"",""trial"":2,""time"":195089}]",NA,NA,NA,NA,NA,0,#1CD855,#FA92F8,10,0,1,38,1,1054.8000000044703,37,1,693.1000000014901,10,1,experiment,NA,NA,1,0.7,0.3,2,3,32,1,NA
fcp-trial,90,1044060,0.0-41.0-0.0,voc_e2,11703,"[{""event"":""fullscreenenter"",""trial"":1,""time"":183798},{""event"":""fullscreenexit"",""trial"":2,""time"":195089}]",NA,NA,NA,NA,NA,0,#D89F1C,#3386FF,10,10,1,38,1,629,39,0,415,10,0,experiment,NA,NA,0,0.9,0.1,0,1,33,1,NA
fcp-trial,91,1049204,0.0-42.0-0.0,voc_e2,11703,"[{""event"":""fullscreenenter"",""trial"":1,""time"":183798},{""event"":""fullscreenexit"",""trial"":2,""time"":195089}]",NA,NA,NA,NA,NA,6,#FA92F8,#1CD855,10,10,0,40,0,3176.6999999955297,37,1,463.79999999701977,10,0,experiment,NA,NA,1,0.3,0.7,3,2,34,1,NA
fcp-trial,92,1054045,0.0-43.0-0.0,voc_e2,11703,"[{""event"":""fullscreenenter"",""trial"":1,""time"":183798},{""event"":""fullscreenexit"",""trial"":2,""time"":195089}]",NA,NA,NA,NA,NA,2,#741CD8,#D8271C,10,0,1,38,1,2960.2000000029802,39,0,376.20000000298023,0,0,experiment,NA,NA,2,0.5,0.5,4,5,35,1,NA
fcp-trial,93,1059099,0.0-44.0-0.0,voc_e2,11703,"[{""event"":""fullscreenenter"",""trial"":1,""time"":183798},{""event"":""fullscreenexit"",""trial"":2,""time"":195089}]",NA,NA,NA,NA,NA,1,#D89F1C,#3386FF,10,10,1,38,1,1415.7999999970198,39,0,2133,10,0,experiment,NA,NA,0,0.9,0.1,0,1,36,1,NA
fcp-trial,94,1061936,0.0-45.0-0.0,voc_e2,11703,"[{""event"":""fullscreenenter"",""trial"":1,""time"":183798},{""event"":""fullscreenexit"",""trial"":2,""time"":195089}]",NA,NA,NA,NA,NA,4,#FA92F8,#1CD855,0,10,0,40,0,766.4000000059605,37,1,563.1999999955297,0,0,experiment,NA,NA,1,0.3,0.7,3,2,37,1,NA
fcp-trial,95,1065624,0.0-46.0-0.0,voc_e2,11703,"[{""event"":""fullscreenenter"",""trial"":1,""time"":183798},{""event"":""fullscreenexit"",""trial"":2,""time"":195089}]",NA,NA,NA,NA,NA,3,#1CD855,#FA92F8,10,0,1,38,1,1151.5,37,1,1030.9000000059605,10,1,experiment,NA,NA,1,0.7,0.3,2,3,38,1,NA
fcp-trial,96,1069399,0.0-47.0-0.0,voc_e2,11703,"[{""event"":""fullscreenenter"",""trial"":1,""time"":183798},{""event"":""fullscreenexit"",""trial"":2,""time"":195089}]",NA,NA,NA,NA,NA,3,#741CD8,#D8271C,10,0,1,38,1,1991,39,0,278.19999999552965,0,0,experiment,NA,NA,2,0.5,0.5,4,5,39,1,NA
fcp-trial,97,1073008,0.0-48.0-0.0,voc_e2,11703,"[{""event"":""fullscreenenter"",""trial"":1,""time"":183798},{""event"":""fullscreenexit"",""trial"":2,""time"":195089}]",NA,NA,NA,NA,NA,2,#D89F1C,#3386FF,10,0,1,38,1,1280.3999999985099,39,0,825.5,0,0,experiment,NA,NA,0,0.9,0.1,0,1,40,1,NA
fcp-trial,98,1075990,0.0-49.0-0.0,voc_e2,11703,"[{""event"":""fullscreenenter"",""trial"":1,""time"":183798},{""event"":""fullscreenexit"",""trial"":2,""time"":195089}]",NA,NA,NA,NA,NA,2,#FA92F8,#1CD855,0,10,0,38,1,949.7999999970198,39,0,526.2000000029802,10,1,experiment,NA,NA,1,0.3,0.7,3,2,41,1,NA
fcp-trial,99,1078967,0.0-50.0-0.0,voc_e2,11703,"[{""event"":""fullscreenenter"",""trial"":1,""time"":183798},{""event"":""fullscreenexit"",""trial"":2,""time"":195089}]",NA,NA,NA,NA,NA,6,#D8271C,#741CD8,10,0,0,38,1,1054.9000000059605,37,1,419.3999999985099,10,0,experiment,NA,NA,2,0.5,0.5,5,4,42,1,NA
fcp-trial,100,1083663,0.0-51.0-0.0,voc_e2,11703,"[{""event"":""fullscreenenter"",""trial"":1,""time"":183798},{""event"":""fullscreenexit"",""trial"":2,""time"":195089}]",NA,NA,NA,NA,NA,0,#3386FF,#D89F1C,0,10,0,38,1,2020.0999999940395,39,0,1172.2000000029802,10,1,experiment,NA,NA,0,0.1,0.9,1,0,43,1,NA
fcp-trial,101,1086956,0.0-52.0-0.0,voc_e2,11703,"[{""event"":""fullscreenenter"",""trial"":1,""time"":183798},{""event"":""fullscreenexit"",""trial"":2,""time"":195089}]",NA,NA,NA,NA,NA,4,#1CD855,#FA92F8,10,10,1,40,0,1467.5,37,1,320.8999999985099,10,1,experiment,NA,NA,1,0.7,0.3,2,3,44,1,NA
fcp-trial,102,1089551,0.0-53.0-0.0,voc_e2,11703,"[{""event"":""fullscreenenter"",""trial"":1,""time"":183798},{""event"":""fullscreenexit"",""trial"":2,""time"":195089}]",NA,NA,NA,NA,NA,4,#D8271C,#741CD8,10,10,0,38,1,749.3999999985099,37,1,339.5,10,0,experiment,NA,NA,2,0.5,0.5,5,4,45,1,NA
fcp-trial,103,1093243,0.0-54.0-0.0,voc_e2,11703,"[{""event"":""fullscreenenter"",""trial"":1,""time"":183798},{""event"":""fullscreenexit"",""trial"":2,""time"":195089}]",NA,NA,NA,NA,NA,2,#D8271C,#741CD8,0,0,0,38,1,1872.1000000014901,37,1,314,0,0,experiment,NA,NA,2,0.5,0.5,5,4,46,2,NA
fcp-trial,104,1097602,0.0-55.0-0.0,voc_e2,11703,"[{""event"":""fullscreenenter"",""trial"":1,""time"":183798},{""event"":""fullscreenexit"",""trial"":2,""time"":195089}]",NA,NA,NA,NA,NA,1,#D8271C,#741CD8,10,10,0,40,0,2276.89999999851,39,0,574.1000000014901,10,1,experiment,NA,NA,2,0.5,0.5,5,4,47,2,NA
fcp-trial,105,1101815,0.0-56.0-0.0,voc_e2,11703,"[{""event"":""fullscreenenter"",""trial"":1,""time"":183798},{""event"":""fullscreenexit"",""trial"":2,""time"":195089}]",NA,NA,NA,NA,NA,1,#3386FF,#D89F1C,10,0,0,40,0,2047,37,1,660.1999999955297,10,0,experiment,NA,NA,0,0.1,0.9,1,0,48,2,NA
fcp-trial,106,1105278,0.0-57.0-0.0,voc_e2,11703,"[{""event"":""fullscreenenter"",""trial"":1,""time"":183798},{""event"":""fullscreenexit"",""trial"":2,""time"":195089}]",NA,NA,NA,NA,NA,0,#FA92F8,#1CD855,0,10,0,38,1,824.0999999940395,39,0,1132.89999999851,10,1,experiment,NA,NA,1,0.3,0.7,3,2,49,2,NA
fcp-trial,107,1108635,0.0-58.0-0.0,voc_e2,11703,"[{""event"":""fullscreenenter"",""trial"":1,""time"":183798},{""event"":""fullscreenexit"",""trial"":2,""time"":195089}]",NA,NA,NA,NA,NA,6,#D8271C,#741CD8,10,10,0,40,0,1296.3000000044703,39,0,554.8999999985099,10,1,experiment,NA,NA,2,0.5,0.5,5,4,50,2,NA
fcp-trial,108,1111842,0.0-59.0-0.0,voc_e2,11703,"[{""event"":""fullscreenenter"",""trial"":1,""time"":183798},{""event"":""fullscreenexit"",""trial"":2,""time"":195089}]",NA,NA,NA,NA,NA,6,#3386FF,#D89F1C,0,10,0,40,0,1226.3999999985099,39,0,475.20000000298023,10,1,experiment,NA,NA,0,0.1,0.9,1,0,51,2,NA
fcp-trial,109,1115710,0.0-60.0-0.0,voc_e2,11703,"[{""event"":""fullscreenenter"",""trial"":1,""time"":183798},{""event"":""fullscreenexit"",""trial"":2,""time"":195089}]",NA,NA,NA,NA,NA,3,#1CD855,#FA92F8,10,10,1,38,1,2014.0999999940395,37,1,346.69999999552965,10,1,experiment,NA,NA,1,0.7,0.3,2,3,52,2,NA
fcp-trial,110,1121386,0.0-61.0-0.0,voc_e2,11703,"[{""event"":""fullscreenenter"",""trial"":1,""time"":183798},{""event"":""fullscreenexit"",""trial"":2,""time"":195089}]",NA,NA,NA,NA,NA,2,#D89F1C,#3386FF,10,0,1,38,1,3598.5,39,0,571.2000000029802,0,0,experiment,NA,NA,0,0.9,0.1,0,1,53,2,NA
fcp-trial,111,1124108,0.0-62.0-0.0,voc_e2,11703,"[{""event"":""fullscreenenter"",""trial"":1,""time"":183798},{""event"":""fullscreenexit"",""trial"":2,""time"":195089}]",NA,NA,NA,NA,NA,0,#D8271C,#741CD8,0,0,0,38,1,853.8999999985099,37,1,363.5,0,0,experiment,NA,NA,2,0.5,0.5,5,4,54,2,NA
fcp-trial,112,1128113,0.0-63.0-0.0,voc_e2,11703,"[{""event"":""fullscreenenter"",""trial"":1,""time"":183798},{""event"":""fullscreenexit"",""trial"":2,""time"":195089}]",NA,NA,NA,NA,NA,2,#FA92F8,#1CD855,0,0,0,40,0,2042.8000000044703,37,1,455.29999999701977,0,0,experiment,NA,NA,1,0.3,0.7,3,2,55,2,NA
fcp-trial,113,1130946,0.0-64.0-0.0,voc_e2,11703,"[{""event"":""fullscreenenter"",""trial"":1,""time"":183798},{""event"":""fullscreenexit"",""trial"":2,""time"":195089}]",NA,NA,NA,NA,NA,6,#1CD855,#FA92F8,10,0,1,38,1,973.1000000014901,37,1,356.40000000596046,10,1,experiment,NA,NA,1,0.7,0.3,2,3,56,2,NA
fcp-trial,114,1134001,0.0-65.0-0.0,voc_e2,11703,"[{""event"":""fullscreenenter"",""trial"":1,""time"":183798},{""event"":""fullscreenexit"",""trial"":2,""time"":195089}]",NA,NA,NA,NA,NA,4,#3386FF,#D89F1C,0,10,0,40,0,1118.7999999970198,39,0,429.3999999985099,10,1,experiment,NA,NA,0,0.1,0.9,1,0,57,2,NA
fcp-trial,115,1136892,0.0-66.0-0.0,voc_e2,11703,"[{""event"":""fullscreenenter"",""trial"":1,""time"":183798},{""event"":""fullscreenexit"",""trial"":2,""time"":195089}]",NA,NA,NA,NA,NA,5,#741CD8,#D8271C,10,10,1,40,0,820.6000000014901,37,1,565.1000000014901,10,1,experiment,NA,NA,2,0.5,0.5,4,5,58,2,NA
fcp-trial,116,1141765,0.0-67.0-0.0,voc_e2,11703,"[{""event"":""fullscreenenter"",""trial"":1,""time"":183798},{""event"":""fullscreenexit"",""trial"":2,""time"":195089}]",NA,NA,NA,NA,NA,3,#D8271C,#741CD8,0,10,0,40,0,2823.10000000149,37,1,542.6000000014901,0,0,experiment,NA,NA,2,0.5,0.5,5,4,59,2,NA
fcp-trial,117,1144882,0.0-68.0-0.0,voc_e2,11703,"[{""event"":""fullscreenenter"",""trial"":1,""time"":183798},{""event"":""fullscreenexit"",""trial"":2,""time"":195089}]",NA,NA,NA,NA,NA,5,#FA92F8,#1CD855,0,10,0,40,0,1209.7000000029802,39,0,401.70000000298023,10,1,experiment,NA,NA,1,0.3,0.7,3,2,60,2,NA
fcp-trial,118,1147540,0.0-69.0-0.0,voc_e2,11703,"[{""event"":""fullscreenenter"",""trial"":1,""time"":183798},{""event"":""fullscreenexit"",""trial"":2,""time"":195089}]",NA,NA,NA,NA,NA,5,#3386FF,#D89F1C,0,10,0,40,0,703.7999999970198,37,1,447.5,0,0,experiment,NA,NA,0,0.1,0.9,1,0,61,2,NA
fcp-trial,119,1150324,0.0-70.0-0.0,voc_e2,11703,"[{""event"":""fullscreenenter"",""trial"":1,""time"":183798},{""event"":""fullscreenexit"",""trial"":2,""time"":195089}]",NA,NA,NA,NA,NA,3,#D89F1C,#3386FF,10,0,1,38,1,889.1000000014901,37,1,389.69999999552965,10,1,experiment,NA,NA,0,0.9,0.1,0,1,62,2,NA
fcp-trial,120,1153838,0.0-71.0-0.0,voc_e2,11703,"[{""event"":""fullscreenenter"",""trial"":1,""time"":183798},{""event"":""fullscreenexit"",""trial"":2,""time"":195089}]",NA,NA,NA,NA,NA,1,#1CD855,#FA92F8,10,0,1,38,1,783.1000000014901,37,1,1225.89999999851,10,1,experiment,NA,NA,1,0.7,0.3,2,3,63,2,NA
fcp-trial,121,1157736,0.0-72.0-0.0,voc_e2,11703,"[{""event"":""fullscreenenter"",""trial"":1,""time"":183798},{""event"":""fullscreenexit"",""trial"":2,""time"":195089}]",NA,NA,NA,NA,NA,2,#3386FF,#D89F1C,0,0,0,38,1,1917.8000000044703,39,0,476.5,0,1,experiment,NA,NA,0,0.1,0.9,1,0,64,2,NA
fcp-trial,122,1160470,0.0-73.0-0.0,voc_e2,11703,"[{""event"":""fullscreenenter"",""trial"":1,""time"":183798},{""event"":""fullscreenexit"",""trial"":2,""time"":195089}]",NA,NA,NA,NA,NA,0,#741CD8,#D8271C,0,0,1,38,1,915.7999999970198,39,0,312.1000000014901,0,0,experiment,NA,NA,2,0.5,0.5,4,5,65,2,NA
fcp-trial,123,1163398,0.0-74.0-0.0,voc_e2,11703,"[{""event"":""fullscreenenter"",""trial"":1,""time"":183798},{""event"":""fullscreenexit"",""trial"":2,""time"":195089}]",NA,NA,NA,NA,NA,1,#FA92F8,#1CD855,10,0,0,38,1,258.80000000447035,39,0,1163,0,1,experiment,NA,NA,1,0.3,0.7,3,2,66,2,NA
fcp-trial,124,1166227,0.0-75.0-0.0,voc_e2,11703,"[{""event"":""fullscreenenter"",""trial"":1,""time"":183798},{""event"":""fullscreenexit"",""trial"":2,""time"":195089}]",NA,NA,NA,NA,NA,6,#741CD8,#D8271C,0,10,1,40,0,818.7000000029802,39,0,505.79999999701977,10,0,experiment,NA,NA,2,0.5,0.5,4,5,67,2,NA
fcp-trial,125,1168835,0.0-76.0-0.0,voc_e2,11703,"[{""event"":""fullscreenenter"",""trial"":1,""time"":183798},{""event"":""fullscreenexit"",""trial"":2,""time"":195089}]",NA,NA,NA,NA,NA,5,#3386FF,#D89F1C,0,10,0,40,0,684.7000000029802,39,0,418.79999999701977,10,1,experiment,NA,NA,0,0.1,0.9,1,0,68,2,NA
fcp-trial,126,1172119,0.0-77.0-0.0,voc_e2,11703,"[{""event"":""fullscreenenter"",""trial"":1,""time"":183798},{""event"":""fullscreenexit"",""trial"":2,""time"":195089}]",NA,NA,NA,NA,NA,2,#D8271C,#741CD8,0,0,0,40,0,1319.1000000014901,39,0,458.8999999985099,0,1,experiment,NA,NA,2,0.5,0.5,5,4,69,2,NA
fcp-trial,127,1174887,0.0-78.0-0.0,voc_e2,11703,"[{""event"":""fullscreenenter"",""trial"":1,""time"":183798},{""event"":""fullscreenexit"",""trial"":2,""time"":195089}]",NA,NA,NA,NA,NA,4,#1CD855,#FA92F8,0,0,1,40,0,836,37,1,425.69999999552965,0,1,experiment,NA,NA,1,0.7,0.3,2,3,70,2,NA
fcp-trial,128,1178836,0.0-79.0-0.0,voc_e2,11703,"[{""event"":""fullscreenenter"",""trial"":1,""time"":183798},{""event"":""fullscreenexit"",""trial"":2,""time"":195089}]",NA,NA,NA,NA,NA,3,#3386FF,#D89F1C,0,10,0,38,1,996,39,0,1445.89999999851,10,1,experiment,NA,NA,0,0.1,0.9,1,0,71,2,NA
fcp-trial,129,1181827,0.0-80.0-0.0,voc_e2,11703,"[{""event"":""fullscreenenter"",""trial"":1,""time"":183798},{""event"":""fullscreenexit"",""trial"":2,""time"":195089}]",NA,NA,NA,NA,NA,3,#1CD855,#FA92F8,10,10,1,38,1,1187,37,1,299.69999999552965,10,1,experiment,NA,NA,1,0.7,0.3,2,3,72,2,NA
fcp-trial,130,1185729,0.0-81.0-0.0,voc_e2,11703,"[{""event"":""fullscreenenter"",""trial"":1,""time"":183798},{""event"":""fullscreenexit"",""trial"":2,""time"":195089}]",NA,NA,NA,NA,NA,0,#D89F1C,#3386FF,10,0,1,40,0,1751.2000000029802,37,1,645.3999999985099,10,1,experiment,NA,NA,0,0.9,0.1,0,1,73,2,NA
fcp-trial,131,1192301,0.0-82.0-0.0,voc_e2,11703,"[{""event"":""fullscreenenter"",""trial"":1,""time"":183798},{""event"":""fullscreenexit"",""trial"":2,""time"":195089}]",NA,NA,NA,NA,NA,5,#741CD8,#D8271C,10,10,1,40,0,4712.10000000149,39,0,354.8999999985099,10,0,experiment,NA,NA,2,0.5,0.5,4,5,74,2,NA
fcp-trial,132,1194807,0.0-83.0-0.0,voc_e2,11703,"[{""event"":""fullscreenenter"",""trial"":1,""time"":183798},{""event"":""fullscreenexit"",""trial"":2,""time"":195089}]",NA,NA,NA,NA,NA,5,#1CD855,#FA92F8,10,0,1,40,0,668.6999999955297,37,1,333.3999999985099,10,1,experiment,NA,NA,1,0.7,0.3,2,3,75,2,NA
fcp-trial,133,1200418,0.0-84.0-0.0,voc_e2,11703,"[{""event"":""fullscreenenter"",""trial"":1,""time"":183798},{""event"":""fullscreenexit"",""trial"":2,""time"":195089}]",NA,NA,NA,NA,NA,4,#D89F1C,#3386FF,10,0,1,40,0,3655.7999999970198,37,1,450.80000000447035,10,1,experiment,NA,NA,0,0.9,0.1,0,1,76,2,NA
fcp-trial,134,1204024,0.0-85.0-0.0,voc_e2,11703,"[{""event"":""fullscreenenter"",""trial"":1,""time"":183798},{""event"":""fullscreenexit"",""trial"":2,""time"":195089}]",NA,NA,NA,NA,NA,4,#D8271C,#741CD8,10,0,0,38,1,1809.7999999970198,37,1,289.79999999701977,10,0,experiment,NA,NA,2,0.5,0.5,5,4,77,2,NA
fcp-trial,135,1208961,0.0-86.0-0.0,voc_e2,11703,"[{""event"":""fullscreenenter"",""trial"":1,""time"":183798},{""event"":""fullscreenexit"",""trial"":2,""time"":195089}]",NA,NA,NA,NA,NA,3,#D8271C,#741CD8,0,0,0,38,1,3164.7999999970198,37,1,266.30000000447035,0,0,experiment,NA,NA,2,0.5,0.5,5,4,78,2,NA
fcp-trial,136,1212276,0.0-87.0-0.0,voc_e2,11703,"[{""event"":""fullscreenenter"",""trial"":1,""time"":183798},{""event"":""fullscreenexit"",""trial"":2,""time"":195089}]",NA,NA,NA,NA,NA,2,#1CD855,#FA92F8,10,0,1,38,1,1099.3000000044703,37,1,710.5,10,1,experiment,NA,NA,1,0.7,0.3,2,3,79,2,NA
fcp-trial,137,1215195,0.0-88.0-0.0,voc_e2,11703,"[{""event"":""fullscreenenter"",""trial"":1,""time"":183798},{""event"":""fullscreenexit"",""trial"":2,""time"":195089}]",NA,NA,NA,NA,NA,6,#FA92F8,#1CD855,0,0,0,40,0,943.2000000029802,39,0,469.8999999985099,0,1,experiment,NA,NA,1,0.3,0.7,3,2,80,2,NA
fcp-trial,138,1218534,0.0-89.0-0.0,voc_e2,11703,"[{""event"":""fullscreenenter"",""trial"":1,""time"":183798},{""event"":""fullscreenexit"",""trial"":2,""time"":195089}]",NA,NA,NA,NA,NA,6,#3386FF,#D89F1C,10,0,0,38,1,1070.3000000044703,39,0,765,0,1,experiment,NA,NA,0,0.1,0.9,1,0,81,2,NA
fcp-trial,139,1220903,0.0-90.0-0.0,voc_e2,11703,"[{""event"":""fullscreenenter"",""trial"":1,""time"":183798},{""event"":""fullscreenexit"",""trial"":2,""time"":195089}]",NA,NA,NA,NA,NA,1,#741CD8,#D8271C,0,10,1,38,1,501,39,0,363.5,10,0,experiment,NA,NA,2,0.5,0.5,4,5,82,2,NA
fcp-trial,140,1223771,0.0-91.0-0.0,voc_e2,11703,"[{""event"":""fullscreenenter"",""trial"":1,""time"":183798},{""event"":""fullscreenexit"",""trial"":2,""time"":195089}]",NA,NA,NA,NA,NA,0,#1CD855,#FA92F8,10,0,1,38,1,753.6999999955297,37,1,609.8999999985099,10,1,experiment,NA,NA,1,0.7,0.3,2,3,83,2,NA
fcp-trial,141,1226317,0.0-92.0-0.0,voc_e2,11703,"[{""event"":""fullscreenenter"",""trial"":1,""time"":183798},{""event"":""fullscreenexit"",""trial"":2,""time"":195089}]",NA,NA,NA,NA,NA,1,#D89F1C,#3386FF,10,0,1,38,1,766,37,1,275,10,1,experiment,NA,NA,0,0.9,0.1,0,1,84,2,NA
fcp-trial,142,1229324,0.0-93.0-0.0,voc_e2,11703,"[{""event"":""fullscreenenter"",""trial"":1,""time"":183798},{""event"":""fullscreenexit"",""trial"":2,""time"":195089}]",NA,NA,NA,NA,NA,0,#FA92F8,#1CD855,0,0,0,38,1,1205.7000000029802,39,0,296.20000000298023,0,1,experiment,NA,NA,1,0.3,0.7,3,2,85,2,NA
fcp-trial,143,1232412,0.0-94.0-0.0,voc_e2,11703,"[{""event"":""fullscreenenter"",""trial"":1,""time"":183798},{""event"":""fullscreenexit"",""trial"":2,""time"":195089}]",NA,NA,NA,NA,NA,2,#D89F1C,#3386FF,10,10,1,38,1,916.5999999940395,39,0,666.2999999970198,10,0,experiment,NA,NA,0,0.9,0.1,0,1,86,2,NA
fcp-trial,144,1237579,0.0-95.0-0.0,voc_e2,11703,"[{""event"":""fullscreenenter"",""trial"":1,""time"":183798},{""event"":""fullscreenexit"",""trial"":2,""time"":195089}]",NA,NA,NA,NA,NA,3,#FA92F8,#1CD855,0,0,0,38,1,1211.3000000044703,39,0,2452.60000000149,0,1,experiment,NA,NA,1,0.3,0.7,3,2,87,2,NA
fcp-trial,145,1240708,0.0-96.0-0.0,voc_e2,11703,"[{""event"":""fullscreenenter"",""trial"":1,""time"":183798},{""event"":""fullscreenexit"",""trial"":2,""time"":195089}]",NA,NA,NA,NA,NA,6,#3386FF,#D89F1C,0,10,0,40,0,1133.1999999955297,39,0,491.30000000447035,10,1,experiment,NA,NA,0,0.1,0.9,1,0,88,2,NA
fcp-trial,146,1243836,0.0-97.0-0.0,voc_e2,11703,"[{""event"":""fullscreenenter"",""trial"":1,""time"":183798},{""event"":""fullscreenexit"",""trial"":2,""time"":195089}]",NA,NA,NA,NA,NA,5,#741CD8,#D8271C,0,0,1,40,0,1343.6000000014901,39,0,280,0,0,experiment,NA,NA,2,0.5,0.5,4,5,89,2,NA
fcp-trial,147,1246836,0.0-98.0-0.0,voc_e2,11703,"[{""event"":""fullscreenenter"",""trial"":1,""time"":183798},{""event"":""fullscreenexit"",""trial"":2,""time"":195089}]",NA,NA,NA,NA,NA,2,#D8271C,#741CD8,0,0,0,38,1,962,37,1,534.6000000014901,0,0,experiment,NA,NA,2,0.5,0.5,5,4,90,2,NA
fcp-trial,148,1250410,0.0-99.0-0.0,voc_e2,11703,"[{""event"":""fullscreenenter"",""trial"":1,""time"":183798},{""event"":""fullscreenexit"",""trial"":2,""time"":195089}]",NA,NA,NA,NA,NA,2,#1CD855,#FA92F8,10,10,1,40,0,1650,37,1,418,10,1,experiment,NA,NA,1,0.7,0.3,2,3,91,3,NA
fcp-trial,149,1253219,0.0-100.0-0.0,voc_e2,11703,"[{""event"":""fullscreenenter"",""trial"":1,""time"":183798},{""event"":""fullscreenexit"",""trial"":2,""time"":195089}]",NA,NA,NA,NA,NA,6,#741CD8,#D8271C,10,10,1,40,0,557.7999999970198,37,1,746.8999999985099,10,1,experiment,NA,NA,2,0.5,0.5,4,5,92,3,NA
fcp-trial,150,1255420,0.0-101.0-0.0,voc_e2,11703,"[{""event"":""fullscreenenter"",""trial"":1,""time"":183798},{""event"":""fullscreenexit"",""trial"":2,""time"":195089}]",NA,NA,NA,NA,NA,5,#3386FF,#D89F1C,0,0,0,40,0,345.1000000014901,39,0,350.29999999701977,0,1,experiment,NA,NA,0,0.1,0.9,1,0,93,3,NA
fcp-trial,151,1258457,0.0-102.0-0.0,voc_e2,11703,"[{""event"":""fullscreenenter"",""trial"":1,""time"":183798},{""event"":""fullscreenexit"",""trial"":2,""time"":195089}]",NA,NA,NA,NA,NA,0,#741CD8,#D8271C,10,0,1,40,0,1040.3999999985099,37,1,492.29999999701977,10,1,experiment,NA,NA,2,0.5,0.5,4,5,94,3,NA
fcp-trial,152,1261344,0.0-103.0-0.0,voc_e2,11703,"[{""event"":""fullscreenenter"",""trial"":1,""time"":183798},{""event"":""fullscreenexit"",""trial"":2,""time"":195089}]",NA,NA,NA,NA,NA,6,#1CD855,#FA92F8,10,10,1,40,0,927.8999999985099,39,0,455.1000000014901,10,0,experiment,NA,NA,1,0.7,0.3,2,3,95,3,NA
fcp-trial,153,1263964,0.0-104.0-0.0,voc_e2,11703,"[{""event"":""fullscreenenter"",""trial"":1,""time"":183798},{""event"":""fullscreenexit"",""trial"":2,""time"":195089}]",NA,NA,NA,NA,NA,0,#D89F1C,#3386FF,10,0,1,38,1,775.4000000059605,37,1,338.70000000298023,10,1,experiment,NA,NA,0,0.9,0.1,0,1,96,3,NA
fcp-trial,154,1267481,0.0-105.0-0.0,voc_e2,11703,"[{""event"":""fullscreenenter"",""trial"":1,""time"":183798},{""event"":""fullscreenexit"",""trial"":2,""time"":195089}]",NA,NA,NA,NA,NA,1,#1CD855,#FA92F8,10,0,1,38,1,824.8000000044703,37,1,1187,10,1,experiment,NA,NA,1,0.7,0.3,2,3,97,3,NA
fcp-trial,155,1270065,0.0-106.0-0.0,voc_e2,11703,"[{""event"":""fullscreenenter"",""trial"":1,""time"":183798},{""event"":""fullscreenexit"",""trial"":2,""time"":195089}]",NA,NA,NA,NA,NA,4,#D89F1C,#3386FF,10,0,1,40,0,741.2000000029802,39,0,336.5,0,0,experiment,NA,NA,0,0.9,0.1,0,1,98,3,NA
fcp-trial,156,1272921,0.0-107.0-0.0,voc_e2,11703,"[{""event"":""fullscreenenter"",""trial"":1,""time"":183798},{""event"":""fullscreenexit"",""trial"":2,""time"":195089}]",NA,NA,NA,NA,NA,3,#D8271C,#741CD8,10,10,0,38,1,1098.8999999985099,37,1,253,10,0,experiment,NA,NA,2,0.5,0.5,5,4,99,3,NA
fcp-trial,157,1275771,0.0-108.0-0.0,voc_e2,11703,"[{""event"":""fullscreenenter"",""trial"":1,""time"":183798},{""event"":""fullscreenexit"",""trial"":2,""time"":195089}]",NA,NA,NA,NA,NA,3,#D89F1C,#3386FF,10,0,1,40,0,856.5,37,1,488.69999999552965,10,1,experiment,NA,NA,0,0.9,0.1,0,1,100,3,NA
fcp-trial,158,1278675,0.0-109.0-0.0,voc_e2,11703,"[{""event"":""fullscreenenter"",""trial"":1,""time"":183798},{""event"":""fullscreenexit"",""trial"":2,""time"":195089}]",NA,NA,NA,NA,NA,5,#1CD855,#FA92F8,10,0,1,40,0,909.3999999985099,39,0,490.1000000014901,0,0,experiment,NA,NA,1,0.7,0.3,2,3,101,3,NA
fcp-trial,159,1281597,0.0-110.0-0.0,voc_e2,11703,"[{""event"":""fullscreenenter"",""trial"":1,""time"":183798},{""event"":""fullscreenexit"",""trial"":2,""time"":195089}]",NA,NA,NA,NA,NA,4,#1CD855,#FA92F8,10,10,1,38,1,837.1999999955297,37,1,577.1000000014901,10,1,experiment,NA,NA,1,0.7,0.3,2,3,102,3,NA
fcp-trial,160,1284651,0.0-111.0-0.0,voc_e2,11703,"[{""event"":""fullscreenenter"",""trial"":1,""time"":183798},{""event"":""fullscreenexit"",""trial"":2,""time"":195089}]",NA,NA,NA,NA,NA,4,#D8271C,#741CD8,0,0,0,38,1,1258.1000000014901,37,1,291.30000000447035,0,0,experiment,NA,NA,2,0.5,0.5,5,4,103,3,NA
fcp-trial,161,1287562,0.0-112.0-0.0,voc_e2,11703,"[{""event"":""fullscreenenter"",""trial"":1,""time"":183798},{""event"":""fullscreenexit"",""trial"":2,""time"":195089}]",NA,NA,NA,NA,NA,1,#3386FF,#D89F1C,0,10,0,38,1,1035.3000000044703,39,0,368.5,10,1,experiment,NA,NA,0,0.1,0.9,1,0,104,3,NA
fcp-trial,162,1291587,0.0-113.0-0.0,voc_e2,11703,"[{""event"":""fullscreenenter"",""trial"":1,""time"":183798},{""event"":""fullscreenexit"",""trial"":2,""time"":195089}]",NA,NA,NA,NA,NA,1,#D8271C,#741CD8,0,10,0,40,0,1892.0999999940395,39,0,627.2999999970198,10,1,experiment,NA,NA,2,0.5,0.5,5,4,105,3,NA
audio-instructions,163,1298581,0.0-114.0,voc_e2,11703,"[{""event"":""fullscreenenter"",""trial"":1,""time"":183798},{""event"":""fullscreenexit"",""trial"":2,""time"":195089}]",NA,2510.70000000298,static/audio/pause.wav,NA,0,NA,NA,NA,NA,NA,NA,NA,NA,NA,NA,NA,NA,NA,NA,NA,NA,NA,NA,NA,NA,NA,NA,NA,NA,NA
fcp-trial,164,1302612,0.0-115.0-0.0,voc_e2,11703,"[{""event"":""fullscreenenter"",""trial"":1,""time"":183798},{""event"":""fullscreenexit"",""trial"":2,""time"":195089}]",NA,NA,NA,NA,NA,5,#3386FF,#D89F1C,0,10,0,40,0,1688.2999999970198,37,1,833.5,0,0,experiment,NA,NA,0,0.1,0.9,1,0,106,3,NA
fcp-trial,165,1305437,0.0-116.0-0.0,voc_e2,11703,"[{""event"":""fullscreenenter"",""trial"":1,""time"":183798},{""event"":""fullscreenexit"",""trial"":2,""time"":195089}]",NA,NA,NA,NA,NA,3,#D8271C,#741CD8,10,10,0,38,1,778.3000000044703,37,1,538.8999999985099,10,0,experiment,NA,NA,2,0.5,0.5,5,4,107,3,NA
fcp-trial,166,1308894,0.0-117.0-0.0,voc_e2,11703,"[{""event"":""fullscreenenter"",""trial"":1,""time"":183798},{""event"":""fullscreenexit"",""trial"":2,""time"":195089}]",NA,NA,NA,NA,NA,2,#741CD8,#D8271C,0,0,1,38,1,905.7999999970198,37,1,1045.5,0,1,experiment,NA,NA,2,0.5,0.5,4,5,108,3,NA
fcp-trial,167,1311226,0.0-118.0-0.0,voc_e2,11703,"[{""event"":""fullscreenenter"",""trial"":1,""time"":183798},{""event"":""fullscreenexit"",""trial"":2,""time"":195089}]",NA,NA,NA,NA,NA,6,#1CD855,#FA92F8,10,0,1,38,1,505.8999999985099,37,1,317.79999999701977,10,1,experiment,NA,NA,1,0.7,0.3,2,3,109,3,NA
fcp-trial,168,1313502,0.0-119.0-0.0,voc_e2,11703,"[{""event"":""fullscreenenter"",""trial"":1,""time"":183798},{""event"":""fullscreenexit"",""trial"":2,""time"":195089}]",NA,NA,NA,NA,NA,4,#D89F1C,#3386FF,10,0,1,38,1,266.6000000014901,39,0,501.30000000447035,0,0,experiment,NA,NA,0,0.9,0.1,0,1,110,3,NA
fcp-trial,169,1316290,0.0-120.0-0.0,voc_e2,11703,"[{""event"":""fullscreenenter"",""trial"":1,""time"":183798},{""event"":""fullscreenexit"",""trial"":2,""time"":195089}]",NA,NA,NA,NA,NA,0,#FA92F8,#1CD855,10,10,0,38,1,744.5,39,0,537.1000000014901,10,1,experiment,NA,NA,1,0.3,0.7,3,2,111,3,NA
fcp-trial,170,1318877,0.0-121.0-0.0,voc_e2,11703,"[{""event"":""fullscreenenter"",""trial"":1,""time"":183798},{""event"":""fullscreenexit"",""trial"":2,""time"":195089}]",NA,NA,NA,NA,NA,5,#741CD8,#D8271C,10,10,1,38,1,811.8999999985099,39,0,266.8999999985099,10,0,experiment,NA,NA,2,0.5,0.5,4,5,112,3,NA
fcp-trial,171,1321147,0.0-122.0-0.0,voc_e2,11703,"[{""event"":""fullscreenenter"",""trial"":1,""time"":183798},{""event"":""fullscreenexit"",""trial"":2,""time"":195089}]",NA,NA,NA,NA,NA,0,#D89F1C,#3386FF,10,0,1,38,1,425,37,1,335.59999999403954,10,1,experiment,NA,NA,0,0.9,0.1,0,1,113,3,NA
fcp-trial,172,1324007,0.0-123.0-0.0,voc_e2,11703,"[{""event"":""fullscreenenter"",""trial"":1,""time"":183798},{""event"":""fullscreenexit"",""trial"":2,""time"":195089}]",NA,NA,NA,NA,NA,6,#741CD8,#D8271C,10,0,1,40,0,817.3999999985099,39,0,533.7999999970198,0,0,experiment,NA,NA,2,0.5,0.5,4,5,114,3,NA
fcp-trial,173,1326719,0.0-124.0-0.0,voc_e2,11703,"[{""event"":""fullscreenenter"",""trial"":1,""time"":183798},{""event"":""fullscreenexit"",""trial"":2,""time"":195089}]",NA,NA,NA,NA,NA,2,#FA92F8,#1CD855,0,10,0,40,0,479.79999999701977,37,1,726.2000000029802,0,0,experiment,NA,NA,1,0.3,0.7,3,2,115,3,NA
fcp-trial,174,1329304,0.0-125.0-0.0,voc_e2,11703,"[{""event"":""fullscreenenter"",""trial"":1,""time"":183798},{""event"":""fullscreenexit"",""trial"":2,""time"":195089}]",NA,NA,NA,NA,NA,4,#FA92F8,#1CD855,10,10,0,38,1,627.6999999955297,37,1,452.8999999985099,10,0,experiment,NA,NA,1,0.3,0.7,3,2,116,3,NA
fcp-trial,175,1331663,0.0-126.0-0.0,voc_e2,11703,"[{""event"":""fullscreenenter"",""trial"":1,""time"":183798},{""event"":""fullscreenexit"",""trial"":2,""time"":195089}]",NA,NA,NA,NA,NA,3,#D89F1C,#3386FF,0,0,1,40,0,438.3999999985099,39,0,415.80000000447035,0,0,experiment,NA,NA,0,0.9,0.1,0,1,117,3,NA
fcp-trial,176,1335400,0.0-127.0-0.0,voc_e2,11703,"[{""event"":""fullscreenenter"",""trial"":1,""time"":183798},{""event"":""fullscreenexit"",""trial"":2,""time"":195089}]",NA,NA,NA,NA,NA,1,#741CD8,#D8271C,10,10,1,40,0,1751.1999999955297,37,1,480.69999999552965,10,1,experiment,NA,NA,2,0.5,0.5,4,5,118,3,NA
fcp-trial,177,1337807,0.0-128.0-0.0,voc_e2,11703,"[{""event"":""fullscreenenter"",""trial"":1,""time"":183798},{""event"":""fullscreenexit"",""trial"":2,""time"":195089}]",NA,NA,NA,NA,NA,6,#D89F1C,#3386FF,10,0,1,38,1,567.1999999955297,37,1,332.90000000596046,10,1,experiment,NA,NA,0,0.9,0.1,0,1,119,3,NA
fcp-trial,178,1340370,0.0-129.0-0.0,voc_e2,11703,"[{""event"":""fullscreenenter"",""trial"":1,""time"":183798},{""event"":""fullscreenexit"",""trial"":2,""time"":195089}]",NA,NA,NA,NA,NA,1,#1CD855,#FA92F8,10,0,1,38,1,707.3999999985099,39,0,349.8999999985099,0,0,experiment,NA,NA,1,0.7,0.3,2,3,120,3,NA
fcp-trial,179,1343462,0.0-130.0-0.0,voc_e2,11703,"[{""event"":""fullscreenenter"",""trial"":1,""time"":183798},{""event"":""fullscreenexit"",""trial"":2,""time"":195089}]",NA,NA,NA,NA,NA,5,#FA92F8,#1CD855,0,10,0,40,0,1010,39,0,577.2999999970198,10,1,experiment,NA,NA,1,0.3,0.7,3,2,121,3,NA
fcp-trial,180,1346215,0.0-131.0-0.0,voc_e2,11703,"[{""event"":""fullscreenenter"",""trial"":1,""time"":183798},{""event"":""fullscreenexit"",""trial"":2,""time"":195089}]",NA,NA,NA,NA,NA,4,#D8271C,#741CD8,0,0,0,40,0,725.1999999955297,37,1,522.2999999970198,0,0,experiment,NA,NA,2,0.5,0.5,5,4,122,3,NA
fcp-trial,181,1349079,0.0-132.0-0.0,voc_e2,11703,"[{""event"":""fullscreenenter"",""trial"":1,""time"":183798},{""event"":""fullscreenexit"",""trial"":2,""time"":195089}]",NA,NA,NA,NA,NA,1,#D89F1C,#3386FF,10,0,1,38,1,714,37,1,645.1999999955297,10,1,experiment,NA,NA,0,0.9,0.1,0,1,123,3,NA
fcp-trial,182,1352304,0.0-133.0-0.0,voc_e2,11703,"[{""event"":""fullscreenenter"",""trial"":1,""time"":183798},{""event"":""fullscreenexit"",""trial"":2,""time"":195089}]",NA,NA,NA,NA,NA,2,#3386FF,#D89F1C,0,10,0,38,1,663.5999999940395,37,1,1055.39999999851,0,0,experiment,NA,NA,0,0.1,0.9,1,0,124,3,NA
fcp-trial,183,1355031,0.0-134.0-0.0,voc_e2,11703,"[{""event"":""fullscreenenter"",""trial"":1,""time"":183798},{""event"":""fullscreenexit"",""trial"":2,""time"":195089}]",NA,NA,NA,NA,NA,0,#D8271C,#741CD8,0,0,0,38,1,796.7999999970198,37,1,424.09999999403954,0,0,experiment,NA,NA,2,0.5,0.5,5,4,125,3,NA
fcp-trial,184,1357906,0.0-135.0-0.0,voc_e2,11703,"[{""event"":""fullscreenenter"",""trial"":1,""time"":183798},{""event"":""fullscreenexit"",""trial"":2,""time"":195089}]",NA,NA,NA,NA,NA,3,#FA92F8,#1CD855,0,10,0,40,0,895.1000000014901,39,0,475.30000000447035,10,1,experiment,NA,NA,1,0.3,0.7,3,2,126,3,NA
fcp-trial,185,1362433,0.0-136.0-0.0,voc_e2,11703,"[{""event"":""fullscreenenter"",""trial"":1,""time"":183798},{""event"":""fullscreenexit"",""trial"":2,""time"":195089}]",NA,NA,NA,NA,NA,3,#FA92F8,#1CD855,0,10,0,38,1,2217,39,0,804.5,10,1,experiment,NA,NA,1,0.3,0.7,3,2,127,3,NA
fcp-trial,186,1365223,0.0-137.0-0.0,voc_e2,11703,"[{""event"":""fullscreenenter"",""trial"":1,""time"":183798},{""event"":""fullscreenexit"",""trial"":2,""time"":195089}]",NA,NA,NA,NA,NA,3,#D89F1C,#3386FF,10,0,1,40,0,818.2000000029802,37,1,467,10,1,experiment,NA,NA,0,0.9,0.1,0,1,128,3,NA
fcp-trial,187,1367974,0.0-138.0-0.0,voc_e2,11703,"[{""event"":""fullscreenenter"",""trial"":1,""time"":183798},{""event"":""fullscreenexit"",""trial"":2,""time"":195089}]",NA,NA,NA,NA,NA,4,#FA92F8,#1CD855,10,10,0,40,0,739,37,1,507.3999999985099,10,0,experiment,NA,NA,1,0.3,0.7,3,2,129,3,NA
fcp-trial,188,1370781,0.0-139.0-0.0,voc_e2,11703,"[{""event"":""fullscreenenter"",""trial"":1,""time"":183798},{""event"":""fullscreenexit"",""trial"":2,""time"":195089}]",NA,NA,NA,NA,NA,6,#D8271C,#741CD8,10,0,0,40,0,829.2000000029802,37,1,472,10,0,experiment,NA,NA,2,0.5,0.5,5,4,130,3,NA
fcp-trial,189,1373331,0.0-140.0-0.0,voc_e2,11703,"[{""event"":""fullscreenenter"",""trial"":1,""time"":183798},{""event"":""fullscreenexit"",""trial"":2,""time"":195089}]",NA,NA,NA,NA,NA,4,#3386FF,#D89F1C,0,10,0,38,1,683.5,37,1,363.20000000298023,0,0,experiment,NA,NA,0,0.1,0.9,1,0,131,3,NA
fcp-trial,190,1377199,0.0-141.0-0.0,voc_e2,11703,"[{""event"":""fullscreenenter"",""trial"":1,""time"":183798},{""event"":""fullscreenexit"",""trial"":2,""time"":195089}]",NA,NA,NA,NA,NA,2,#741CD8,#D8271C,0,10,1,38,1,1209.5,39,0,1154.2999999970198,10,0,experiment,NA,NA,2,0.5,0.5,4,5,132,3,NA
fcp-trial,191,1380552,0.0-142.0-0.0,voc_e2,11703,"[{""event"":""fullscreenenter"",""trial"":1,""time"":183798},{""event"":""fullscreenexit"",""trial"":2,""time"":195089}]",NA,NA,NA,NA,NA,1,#FA92F8,#1CD855,0,10,0,38,1,1373.7999999970198,39,0,473.3999999985099,10,1,experiment,NA,NA,1,0.3,0.7,3,2,133,3,NA
fcp-trial,192,1383026,0.0-143.0-0.0,voc_e2,11703,"[{""event"":""fullscreenenter"",""trial"":1,""time"":183798},{""event"":""fullscreenexit"",""trial"":2,""time"":195089}]",NA,NA,NA,NA,NA,6,#1CD855,#FA92F8,10,0,1,40,0,446.70000000298023,39,0,524.3999999985099,0,0,experiment,NA,NA,1,0.7,0.3,2,3,134,3,NA
fcp-trial,193,1385834,0.0-144.0-0.0,voc_e2,11703,"[{""event"":""fullscreenenter"",""trial"":1,""time"":183798},{""event"":""fullscreenexit"",""trial"":2,""time"":195089}]",NA,NA,NA,NA,NA,5,#741CD8,#D8271C,10,10,1,40,0,822.3999999985099,37,1,479,10,1,experiment,NA,NA,2,0.5,0.5,4,5,135,3,NA
fcp-trial,194,1388590,0.0-145.0-0.0,voc_e2,11703,"[{""event"":""fullscreenenter"",""trial"":1,""time"":183798},{""event"":""fullscreenexit"",""trial"":2,""time"":195089}]",NA,NA,NA,NA,NA,6,#3386FF,#D89F1C,0,10,0,40,0,496.80000000447035,39,0,755.2999999970198,10,1,experiment,NA,NA,0,0.1,0.9,1,0,136,4,NA
fcp-trial,195,1392003,0.0-146.0-0.0,voc_e2,11703,"[{""event"":""fullscreenenter"",""trial"":1,""time"":183798},{""event"":""fullscreenexit"",""trial"":2,""time"":195089}]",NA,NA,NA,NA,NA,3,#741CD8,#D8271C,10,0,1,40,0,1423.6999999955297,37,1,485.1000000014901,10,1,experiment,NA,NA,2,0.5,0.5,4,5,137,4,NA
fcp-trial,196,1394983,0.0-147.0-0.0,voc_e2,11703,"[{""event"":""fullscreenenter"",""trial"":1,""time"":183798},{""event"":""fullscreenexit"",""trial"":2,""time"":195089}]",NA,NA,NA,NA,NA,2,#D89F1C,#3386FF,10,0,1,38,1,1028.8000000044703,37,1,445.6000000014901,10,1,experiment,NA,NA,0,0.9,0.1,0,1,138,4,NA
fcp-trial,197,1398805,0.0-148.0-0.0,voc_e2,11703,"[{""event"":""fullscreenenter"",""trial"":1,""time"":183798},{""event"":""fullscreenexit"",""trial"":2,""time"":195089}]",NA,NA,NA,NA,NA,2,#1CD855,#FA92F8,0,0,1,38,1,1171,39,0,1146.5,0,0,experiment,NA,NA,1,0.7,0.3,2,3,139,4,NA
fcp-trial,198,1401460,0.0-149.0-0.0,voc_e2,11703,"[{""event"":""fullscreenenter"",""trial"":1,""time"":183798},{""event"":""fullscreenexit"",""trial"":2,""time"":195089}]",NA,NA,NA,NA,NA,1,#D89F1C,#3386FF,10,0,1,40,0,662.7000000029802,37,1,486.20000000298023,10,1,experiment,NA,NA,0,0.9,0.1,0,1,140,4,NA
fcp-trial,199,1404291,0.0-150.0-0.0,voc_e2,11703,"[{""event"":""fullscreenenter"",""trial"":1,""time"":183798},{""event"":""fullscreenexit"",""trial"":2,""time"":195089}]",NA,NA,NA,NA,NA,0,#1CD855,#FA92F8,10,0,1,38,1,927.5999999940395,37,1,399.1000000014901,10,1,experiment,NA,NA,1,0.7,0.3,2,3,141,4,NA
fcp-trial,200,1407121,0.0-151.0-0.0,voc_e2,11703,"[{""event"":""fullscreenenter"",""trial"":1,""time"":183798},{""event"":""fullscreenexit"",""trial"":2,""time"":195089}]",NA,NA,NA,NA,NA,4,#741CD8,#D8271C,10,10,1,38,1,773.1000000014901,39,0,550,10,0,experiment,NA,NA,2,0.5,0.5,4,5,142,4,NA
fcp-trial,201,1409515,0.0-152.0-0.0,voc_e2,11703,"[{""event"":""fullscreenenter"",""trial"":1,""time"":183798},{""event"":""fullscreenexit"",""trial"":2,""time"":195089}]",NA,NA,NA,NA,NA,5,#FA92F8,#1CD855,0,10,0,40,0,580.6999999955297,39,0,308.8999999985099,10,1,experiment,NA,NA,1,0.3,0.7,3,2,143,4,NA
fcp-trial,202,1413148,0.0-153.0-0.0,voc_e2,11703,"[{""event"":""fullscreenenter"",""trial"":1,""time"":183798},{""event"":""fullscreenexit"",""trial"":2,""time"":195089}]",NA,NA,NA,NA,NA,1,#741CD8,#D8271C,10,0,1,40,0,1382.0999999940395,39,0,746.5,0,0,experiment,NA,NA,2,0.5,0.5,4,5,144,4,NA
fcp-trial,203,1416771,0.0-154.0-0.0,voc_e2,11703,"[{""event"":""fullscreenenter"",""trial"":1,""time"":183798},{""event"":""fullscreenexit"",""trial"":2,""time"":195089}]",NA,NA,NA,NA,NA,0,#D89F1C,#3386FF,10,10,1,38,1,1513.3999999985099,37,1,605.0999999940395,10,1,experiment,NA,NA,0,0.9,0.1,0,1,145,4,NA
fcp-trial,204,1421433,0.0-155.0-0.0,voc_e2,11703,"[{""event"":""fullscreenenter"",""trial"":1,""time"":183798},{""event"":""fullscreenexit"",""trial"":2,""time"":195089}]",NA,NA,NA,NA,NA,0,#741CD8,#D8271C,10,10,1,38,1,2692.2000000029802,39,0,464.3999999985099,10,0,experiment,NA,NA,2,0.5,0.5,4,5,146,4,NA
fcp-trial,205,1423963,0.0-156.0-0.0,voc_e2,11703,"[{""event"":""fullscreenenter"",""trial"":1,""time"":183798},{""event"":""fullscreenexit"",""trial"":2,""time"":195089}]",NA,NA,NA,NA,NA,5,#3386FF,#D89F1C,0,0,0,40,0,530.7999999970198,39,0,493.20000000298023,0,1,experiment,NA,NA,0,0.1,0.9,1,0,147,4,NA
fcp-trial,206,1427206,0.0-157.0-0.0,voc_e2,11703,"[{""event"":""fullscreenenter"",""trial"":1,""time"":183798},{""event"":""fullscreenexit"",""trial"":2,""time"":195089}]",NA,NA,NA,NA,NA,5,#FA92F8,#1CD855,0,10,0,40,0,1246,37,1,493.6000000014901,0,0,experiment,NA,NA,1,0.3,0.7,3,2,148,4,NA
fcp-trial,207,1430052,0.0-158.0-0.0,voc_e2,11703,"[{""event"":""fullscreenenter"",""trial"":1,""time"":183798},{""event"":""fullscreenexit"",""trial"":2,""time"":195089}]",NA,NA,NA,NA,NA,4,#1CD855,#FA92F8,10,0,1,38,1,478.3999999985099,39,0,861.3999999985099,0,0,experiment,NA,NA,1,0.7,0.3,2,3,149,4,NA
fcp-trial,208,1432548,0.0-159.0-0.0,voc_e2,11703,"[{""event"":""fullscreenenter"",""trial"":1,""time"":183798},{""event"":""fullscreenexit"",""trial"":2,""time"":195089}]",NA,NA,NA,NA,NA,1,#1CD855,#FA92F8,10,0,1,38,1,672.2999999970198,37,1,319.20000000298023,10,1,experiment,NA,NA,1,0.7,0.3,2,3,150,4,NA
fcp-trial,209,1435133,0.0-160.0-0.0,voc_e2,11703,"[{""event"":""fullscreenenter"",""trial"":1,""time"":183798},{""event"":""fullscreenexit"",""trial"":2,""time"":195089}]",NA,NA,NA,NA,NA,6,#D8271C,#741CD8,0,10,0,38,1,597.1000000014901,37,1,483,0,0,experiment,NA,NA,2,0.5,0.5,5,4,151,4,NA
fcp-trial,210,1438643,0.0-161.0-0.0,voc_e2,11703,"[{""event"":""fullscreenenter"",""trial"":1,""time"":183798},{""event"":""fullscreenexit"",""trial"":2,""time"":195089}]",NA,NA,NA,NA,NA,3,#D89F1C,#3386FF,10,0,1,40,0,1382.3999999985099,37,1,622.7999999970198,10,1,experiment,NA,NA,0,0.9,0.1,0,1,152,4,NA
fcp-trial,211,1444733,0.0-162.0-0.0,voc_e2,11703,"[{""event"":""fullscreenenter"",""trial"":1,""time"":183798},{""event"":""fullscreenexit"",""trial"":2,""time"":195089}]",NA,NA,NA,NA,NA,5,#D8271C,#741CD8,10,0,0,38,1,991.7999999970198,37,1,3593.10000000149,10,0,experiment,NA,NA,2,0.5,0.5,5,4,153,4,NA
fcp-trial,212,1447696,0.0-163.0-0.0,voc_e2,11703,"[{""event"":""fullscreenenter"",""trial"":1,""time"":183798},{""event"":""fullscreenexit"",""trial"":2,""time"":195089}]",NA,NA,NA,NA,NA,0,#D89F1C,#3386FF,10,0,1,38,1,1069.6000000014901,39,0,388.20000000298023,0,0,experiment,NA,NA,0,0.9,0.1,0,1,154,4,NA
fcp-trial,213,1451271,0.0-164.0-0.0,voc_e2,11703,"[{""event"":""fullscreenenter"",""trial"":1,""time"":183798},{""event"":""fullscreenexit"",""trial"":2,""time"":195089}]",NA,NA,NA,NA,NA,3,#1CD855,#FA92F8,10,0,1,40,0,1698.6000000014901,37,1,370.69999999552965,10,1,experiment,NA,NA,1,0.7,0.3,2,3,155,4,NA
fcp-trial,214,1454042,0.0-165.0-0.0,voc_e2,11703,"[{""event"":""fullscreenenter"",""trial"":1,""time"":183798},{""event"":""fullscreenexit"",""trial"":2,""time"":195089}]",NA,NA,NA,NA,NA,4,#3386FF,#D89F1C,0,10,0,40,0,775.6000000014901,37,1,491.59999999403954,0,0,experiment,NA,NA,0,0.1,0.9,1,0,156,4,NA
fcp-trial,215,1456704,0.0-166.0-0.0,voc_e2,11703,"[{""event"":""fullscreenenter"",""trial"":1,""time"":183798},{""event"":""fullscreenexit"",""trial"":2,""time"":195089}]",NA,NA,NA,NA,NA,5,#3386FF,#D89F1C,0,10,0,40,0,748.7999999970198,39,0,408.59999999403954,10,1,experiment,NA,NA,0,0.1,0.9,1,0,157,4,NA
fcp-trial,216,1459623,0.0-167.0-0.0,voc_e2,11703,"[{""event"":""fullscreenenter"",""trial"":1,""time"":183798},{""event"":""fullscreenexit"",""trial"":2,""time"":195089}]",NA,NA,NA,NA,NA,0,#741CD8,#D8271C,0,10,1,38,1,637,39,0,774.8999999985099,10,0,experiment,NA,NA,2,0.5,0.5,4,5,158,4,NA
fcp-trial,217,1462346,0.0-168.0-0.0,voc_e2,11703,"[{""event"":""fullscreenenter"",""trial"":1,""time"":183798},{""event"":""fullscreenexit"",""trial"":2,""time"":195089}]",NA,NA,NA,NA,NA,0,#1CD855,#FA92F8,10,0,1,38,1,812.6000000014901,37,1,404.5,10,1,experiment,NA,NA,1,0.7,0.3,2,3,159,4,NA
fcp-trial,218,1466748,0.0-169.0-0.0,voc_e2,11703,"[{""event"":""fullscreenenter"",""trial"":1,""time"":183798},{""event"":""fullscreenexit"",""trial"":2,""time"":195089}]",NA,NA,NA,NA,NA,1,#741CD8,#D8271C,0,0,1,40,0,1958.5,37,1,938.5,0,1,experiment,NA,NA,2,0.5,0.5,4,5,160,4,NA
fcp-trial,219,1469495,0.0-170.0-0.0,voc_e2,11703,"[{""event"":""fullscreenenter"",""trial"":1,""time"":183798},{""event"":""fullscreenexit"",""trial"":2,""time"":195089}]",NA,NA,NA,NA,NA,4,#741CD8,#D8271C,10,10,1,40,0,755.2000000029802,39,0,488.5,10,0,experiment,NA,NA,2,0.5,0.5,4,5,161,4,NA
fcp-trial,220,1472368,0.0-171.0-0.0,voc_e2,11703,"[{""event"":""fullscreenenter"",""trial"":1,""time"":183798},{""event"":""fullscreenexit"",""trial"":2,""time"":195089}]",NA,NA,NA,NA,NA,1,#D89F1C,#3386FF,10,0,1,38,1,836.2999999970198,37,1,532,10,1,experiment,NA,NA,0,0.9,0.1,0,1,162,4,NA
fcp-trial,221,1475328,0.0-172.0-0.0,voc_e2,11703,"[{""event"":""fullscreenenter"",""trial"":1,""time"":183798},{""event"":""fullscreenexit"",""trial"":2,""time"":195089}]",NA,NA,NA,NA,NA,2,#D8271C,#741CD8,10,10,0,38,1,1164.7000000029802,37,1,290.20000000298023,10,0,experiment,NA,NA,2,0.5,0.5,5,4,163,4,NA
fcp-trial,222,1479320,0.0-173.0-0.0,voc_e2,11703,"[{""event"":""fullscreenenter"",""trial"":1,""time"":183798},{""event"":""fullscreenexit"",""trial"":2,""time"":195089}]",NA,NA,NA,NA,NA,2,#1CD855,#FA92F8,0,0,1,40,0,2016.5,37,1,472.3999999985099,0,1,experiment,NA,NA,1,0.7,0.3,2,3,164,4,NA
fcp-trial,223,1483028,0.0-174.0-0.0,voc_e2,11703,"[{""event"":""fullscreenenter"",""trial"":1,""time"":183798},{""event"":""fullscreenexit"",""trial"":2,""time"":195089}]",NA,NA,NA,NA,NA,3,#D8271C,#741CD8,10,10,0,38,1,1816.5999999940395,37,1,386.5,10,0,experiment,NA,NA,2,0.5,0.5,5,4,165,4,NA
fcp-trial,224,1486960,0.0-175.0-0.0,voc_e2,11703,"[{""event"":""fullscreenenter"",""trial"":1,""time"":183798},{""event"":""fullscreenexit"",""trial"":2,""time"":195089}]",NA,NA,NA,NA,NA,6,#3386FF,#D89F1C,0,10,0,40,0,2037,39,0,388.8999999985099,10,1,experiment,NA,NA,0,0.1,0.9,1,0,166,4,NA
fcp-trial,225,1489610,0.0-176.0-0.0,voc_e2,11703,"[{""event"":""fullscreenenter"",""trial"":1,""time"":183798},{""event"":""fullscreenexit"",""trial"":2,""time"":195089}]",NA,NA,NA,NA,NA,6,#1CD855,#FA92F8,0,0,1,40,0,763.3000000044703,37,1,382.6000000014901,0,1,experiment,NA,NA,1,0.7,0.3,2,3,167,4,NA
fcp-trial,226,1492907,0.0-177.0-0.0,voc_e2,11703,"[{""event"":""fullscreenenter"",""trial"":1,""time"":183798},{""event"":""fullscreenexit"",""trial"":2,""time"":195089}]",NA,NA,NA,NA,NA,2,#D89F1C,#3386FF,10,0,1,38,1,921.1000000014901,39,0,871.6000000014901,0,0,experiment,NA,NA,0,0.9,0.1,0,1,168,4,NA
fcp-trial,227,1495710,0.0-178.0-0.0,voc_e2,11703,"[{""event"":""fullscreenenter"",""trial"":1,""time"":183798},{""event"":""fullscreenexit"",""trial"":2,""time"":195089}]",NA,NA,NA,NA,NA,6,#D8271C,#741CD8,10,0,0,40,0,895.5999999940395,37,1,403.80000000447035,10,0,experiment,NA,NA,2,0.5,0.5,5,4,169,4,NA
fcp-trial,228,1498381,0.0-179.0-0.0,voc_e2,11703,"[{""event"":""fullscreenenter"",""trial"":1,""time"":183798},{""event"":""fullscreenexit"",""trial"":2,""time"":195089}]",NA,NA,NA,NA,NA,1,#3386FF,#D89F1C,0,10,0,38,1,830.7000000029802,39,0,335.8999999985099,10,1,experiment,NA,NA,0,0.1,0.9,1,0,170,4,NA
fcp-trial,229,1502247,0.0-180.0-0.0,voc_e2,11703,"[{""event"":""fullscreenenter"",""trial"":1,""time"":183798},{""event"":""fullscreenexit"",""trial"":2,""time"":195089}]",NA,NA,NA,NA,NA,6,#D89F1C,#3386FF,10,0,1,40,0,1819,39,0,541,0,0,experiment,NA,NA,0,0.9,0.1,0,1,171,4,NA
fcp-trial,230,1505210,0.0-181.0-0.0,voc_e2,11703,"[{""event"":""fullscreenenter"",""trial"":1,""time"":183798},{""event"":""fullscreenexit"",""trial"":2,""time"":195089}]",NA,NA,NA,NA,NA,5,#741CD8,#D8271C,0,10,1,40,0,918.1000000014901,37,1,539.5,0,1,experiment,NA,NA,2,0.5,0.5,4,5,172,4,NA
fcp-trial,231,1508360,0.0-182.0-0.0,voc_e2,11703,"[{""event"":""fullscreenenter"",""trial"":1,""time"":183798},{""event"":""fullscreenexit"",""trial"":2,""time"":195089}]",NA,NA,NA,NA,NA,2,#FA92F8,#1CD855,0,10,0,38,1,1179.7000000029802,39,0,465,10,1,experiment,NA,NA,1,0.3,0.7,3,2,173,4,NA
fcp-trial,232,1510594,0.0-183.0-0.0,voc_e2,11703,"[{""event"":""fullscreenenter"",""trial"":1,""time"":183798},{""event"":""fullscreenexit"",""trial"":2,""time"":195089}]",NA,NA,NA,NA,NA,4,#1CD855,#FA92F8,10,0,1,38,1,423,37,1,305.6000000014901,10,1,experiment,NA,NA,1,0.7,0.3,2,3,174,4,NA
fcp-trial,233,1512898,0.0-184.0-0.0,voc_e2,11703,"[{""event"":""fullscreenenter"",""trial"":1,""time"":183798},{""event"":""fullscreenexit"",""trial"":2,""time"":195089}]",NA,NA,NA,NA,NA,1,#741CD8,#D8271C,10,0,1,38,1,523.2999999970198,39,0,275.70000000298023,0,0,experiment,NA,NA,2,0.5,0.5,4,5,175,4,NA
fcp-trial,234,1516046,0.0-185.0-0.0,voc_e2,11703,"[{""event"":""fullscreenenter"",""trial"":1,""time"":183798},{""event"":""fullscreenexit"",""trial"":2,""time"":195089}]",NA,NA,NA,NA,NA,4,#3386FF,#D89F1C,0,10,0,40,0,1240.8999999985099,39,0,402.5,10,1,experiment,NA,NA,0,0.1,0.9,1,0,176,4,NA
fcp-trial,235,1518732,0.0-186.0-0.0,voc_e2,11703,"[{""event"":""fullscreenenter"",""trial"":1,""time"":183798},{""event"":""fullscreenexit"",""trial"":2,""time"":195089}]",NA,NA,NA,NA,NA,6,#1CD855,#FA92F8,0,0,1,40,0,862,37,1,320,0,1,experiment,NA,NA,1,0.7,0.3,2,3,177,4,NA
fcp-trial,236,1521761,0.0-187.0-0.0,voc_e2,11703,"[{""event"":""fullscreenenter"",""trial"":1,""time"":183798},{""event"":""fullscreenexit"",""trial"":2,""time"":195089}]",NA,NA,NA,NA,NA,4,#741CD8,#D8271C,10,10,1,40,0,961.5999999940395,39,0,560.8999999985099,10,0,experiment,NA,NA,2,0.5,0.5,4,5,178,4,NA
fcp-trial,237,1524991,0.0-188.0-0.0,voc_e2,11703,"[{""event"":""fullscreenenter"",""trial"":1,""time"":183798},{""event"":""fullscreenexit"",""trial"":2,""time"":195089}]",NA,NA,NA,NA,NA,2,#3386FF,#D89F1C,0,10,0,38,1,1058.7000000029802,39,0,667.2999999970198,10,1,experiment,NA,NA,0,0.1,0.9,1,0,179,4,NA
fcp-trial,238,1527764,0.0-189.0-0.0,voc_e2,11703,"[{""event"":""fullscreenenter"",""trial"":1,""time"":183798},{""event"":""fullscreenexit"",""trial"":2,""time"":195089}]",NA,NA,NA,NA,NA,0,#1CD855,#FA92F8,10,0,1,38,1,968.3999999985099,37,1,299.69999999552965,10,1,experiment,NA,NA,1,0.7,0.3,2,3,180,4,NA
fcp-trial,239,1530115,0.0-190.0-0.0,voc_e2,11703,"[{""event"":""fullscreenenter"",""trial"":1,""time"":183798},{""event"":""fullscreenexit"",""trial"":2,""time"":195089}]",NA,NA,NA,NA,NA,3,#1CD855,#FA92F8,10,0,1,38,1,580,37,1,261.70000000298023,10,1,experiment,NA,NA,1,0.7,0.3,2,3,181,5,NA
fcp-trial,240,1532739,0.0-191.0-0.0,voc_e2,11703,"[{""event"":""fullscreenenter"",""trial"":1,""time"":183798},{""event"":""fullscreenexit"",""trial"":2,""time"":195089}]",NA,NA,NA,NA,NA,0,#741CD8,#D8271C,10,10,1,38,1,782.7000000029802,39,0,335.6000000014901,10,0,experiment,NA,NA,2,0.5,0.5,4,5,182,5,NA
fcp-trial,241,1535517,0.0-192.0-0.0,voc_e2,11703,"[{""event"":""fullscreenenter"",""trial"":1,""time"":183798},{""event"":""fullscreenexit"",""trial"":2,""time"":195089}]",NA,NA,NA,NA,NA,1,#1CD855,#FA92F8,0,0,1,38,1,656.8000000044703,37,1,617.1000000014901,0,1,experiment,NA,NA,1,0.7,0.3,2,3,183,5,NA
fcp-trial,242,1537619,0.0-193.0-0.0,voc_e2,11703,"[{""event"":""fullscreenenter"",""trial"":1,""time"":183798},{""event"":""fullscreenexit"",""trial"":2,""time"":195089}]",NA,NA,NA,NA,NA,5,#3386FF,#D89F1C,0,10,0,38,1,278.70000000298023,39,0,319.20000000298023,10,1,experiment,NA,NA,0,0.1,0.9,1,0,184,5,NA
fcp-trial,243,1539720,0.0-194.0-0.0,voc_e2,11703,"[{""event"":""fullscreenenter"",""trial"":1,""time"":183798},{""event"":""fullscreenexit"",""trial"":2,""time"":195089}]",NA,NA,NA,NA,NA,0,#3386FF,#D89F1C,10,10,0,38,1,247.5,39,0,349.6000000014901,10,1,experiment,NA,NA,0,0.1,0.9,1,0,185,5,NA
fcp-trial,244,1542018,0.0-195.0-0.0,voc_e2,11703,"[{""event"":""fullscreenenter"",""trial"":1,""time"":183798},{""event"":""fullscreenexit"",""trial"":2,""time"":195089}]",NA,NA,NA,NA,NA,2,#741CD8,#D8271C,10,0,1,38,1,237.19999999552965,39,0,556.6999999955297,0,0,experiment,NA,NA,2,0.5,0.5,4,5,186,5,NA
fcp-trial,245,1544475,0.0-196.0-0.0,voc_e2,11703,"[{""event"":""fullscreenenter"",""trial"":1,""time"":183798},{""event"":""fullscreenexit"",""trial"":2,""time"":195089}]",NA,NA,NA,NA,NA,3,#D89F1C,#3386FF,10,0,1,38,1,693.6000000014901,37,1,259.1000000014901,10,1,experiment,NA,NA,0,0.9,0.1,0,1,187,5,NA
fcp-trial,246,1547130,0.0-197.0-0.0,voc_e2,11703,"[{""event"":""fullscreenenter"",""trial"":1,""time"":183798},{""event"":""fullscreenexit"",""trial"":2,""time"":195089}]",NA,NA,NA,NA,NA,5,#FA92F8,#1CD855,0,10,0,40,0,600.0999999940395,37,1,550,0,0,experiment,NA,NA,1,0.3,0.7,3,2,188,5,NA
fcp-trial,247,1549426,0.0-198.0-0.0,voc_e2,11703,"[{""event"":""fullscreenenter"",""trial"":1,""time"":183798},{""event"":""fullscreenexit"",""trial"":2,""time"":195089}]",NA,NA,NA,NA,NA,3,#741CD8,#D8271C,10,10,1,38,1,512.6000000014901,39,0,277.69999999552965,10,0,experiment,NA,NA,2,0.5,0.5,4,5,189,5,NA
fcp-trial,248,1552182,0.0-199.0-0.0,voc_e2,11703,"[{""event"":""fullscreenenter"",""trial"":1,""time"":183798},{""event"":""fullscreenexit"",""trial"":2,""time"":195089}]",NA,NA,NA,NA,NA,0,#3386FF,#D89F1C,0,10,0,38,1,708,39,0,543.2000000029802,10,1,experiment,NA,NA,0,0.1,0.9,1,0,190,5,NA
fcp-trial,249,1555761,0.0-200.0-0.0,voc_e2,11703,"[{""event"":""fullscreenenter"",""trial"":1,""time"":183798},{""event"":""fullscreenexit"",""trial"":2,""time"":195089}]",NA,NA,NA,NA,NA,0,#741CD8,#D8271C,10,0,1,40,0,1569.1000000014901,39,0,503.29999999701977,0,0,experiment,NA,NA,2,0.5,0.5,4,5,191,5,NA
fcp-trial,250,1559535,0.0-201.0-0.0,voc_e2,11703,"[{""event"":""fullscreenenter"",""trial"":1,""time"":183798},{""event"":""fullscreenexit"",""trial"":2,""time"":195089}]",NA,NA,NA,NA,NA,6,#1CD855,#FA92F8,10,0,1,40,0,1768.5999999940395,37,1,501.8999999985099,10,1,experiment,NA,NA,1,0.7,0.3,2,3,192,5,NA
fcp-trial,251,1562939,0.0-202.0-0.0,voc_e2,11703,"[{""event"":""fullscreenenter"",""trial"":1,""time"":183798},{""event"":""fullscreenexit"",""trial"":2,""time"":195089}]",NA,NA,NA,NA,NA,4,#D89F1C,#3386FF,10,0,1,40,0,1166.8999999985099,39,0,731.1999999955297,0,0,experiment,NA,NA,0,0.9,0.1,0,1,193,5,NA
fcp-trial,252,1566870,0.0-203.0-0.0,voc_e2,11703,"[{""event"":""fullscreenenter"",""trial"":1,""time"":183798},{""event"":""fullscreenexit"",""trial"":2,""time"":195089}]",NA,NA,NA,NA,NA,4,#FA92F8,#1CD855,0,0,0,40,0,1960.5,37,1,465.1000000014901,0,0,experiment,NA,NA,1,0.3,0.7,3,2,194,5,NA
fcp-trial,253,1569606,0.0-204.0-0.0,voc_e2,11703,"[{""event"":""fullscreenenter"",""trial"":1,""time"":183798},{""event"":""fullscreenexit"",""trial"":2,""time"":195089}]",NA,NA,NA,NA,NA,1,#741CD8,#D8271C,10,10,1,38,1,868.2000000029802,39,0,365.19999999552965,10,0,experiment,NA,NA,2,0.5,0.5,4,5,195,5,NA
fcp-trial,254,1572567,0.0-205.0-0.0,voc_e2,11703,"[{""event"":""fullscreenenter"",""trial"":1,""time"":183798},{""event"":""fullscreenexit"",""trial"":2,""time"":195089}]",NA,NA,NA,NA,NA,6,#3386FF,#D89F1C,10,10,0,38,1,1163,39,0,293.3999999985099,10,1,experiment,NA,NA,0,0.1,0.9,1,0,196,5,NA
fcp-trial,255,1575709,0.0-206.0-0.0,voc_e2,11703,"[{""event"":""fullscreenenter"",""trial"":1,""time"":183798},{""event"":""fullscreenexit"",""trial"":2,""time"":195089}]",NA,NA,NA,NA,NA,0,#FA92F8,#1CD855,0,10,0,40,0,1190.2999999970198,37,1,447.30000000447035,0,0,experiment,NA,NA,1,0.3,0.7,3,2,197,5,NA
fcp-trial,256,1578596,0.0-207.0-0.0,voc_e2,11703,"[{""event"":""fullscreenenter"",""trial"":1,""time"":183798},{""event"":""fullscreenexit"",""trial"":2,""time"":195089}]",NA,NA,NA,NA,NA,5,#FA92F8,#1CD855,10,10,0,38,1,1037.7999999970198,39,0,345.5,10,1,experiment,NA,NA,1,0.3,0.7,3,2,198,5,NA
fcp-trial,257,1580917,0.0-208.0-0.0,voc_e2,11703,"[{""event"":""fullscreenenter"",""trial"":1,""time"":183798},{""event"":""fullscreenexit"",""trial"":2,""time"":195089}]",NA,NA,NA,NA,NA,5,#741CD8,#D8271C,10,0,1,38,1,532.1000000014901,39,0,283.80000000447035,0,0,experiment,NA,NA,2,0.5,0.5,4,5,199,5,NA
fcp-trial,258,1583515,0.0-209.0-0.0,voc_e2,11703,"[{""event"":""fullscreenenter"",""trial"":1,""time"":183798},{""event"":""fullscreenexit"",""trial"":2,""time"":195089}]",NA,NA,NA,NA,NA,3,#1CD855,#FA92F8,0,0,1,38,1,572.1999999955297,37,1,519.5,0,1,experiment,NA,NA,1,0.7,0.3,2,3,200,5,NA
fcp-trial,259,1585833,0.0-210.0-0.0,voc_e2,11703,"[{""event"":""fullscreenenter"",""trial"":1,""time"":183798},{""event"":""fullscreenexit"",""trial"":2,""time"":195089}]",NA,NA,NA,NA,NA,1,#3386FF,#D89F1C,0,0,0,38,1,391.3999999985099,39,0,421.1000000014901,0,1,experiment,NA,NA,0,0.1,0.9,1,0,201,5,NA
fcp-trial,260,1588358,0.0-211.0-0.0,voc_e2,11703,"[{""event"":""fullscreenenter"",""trial"":1,""time"":183798},{""event"":""fullscreenexit"",""trial"":2,""time"":195089}]",NA,NA,NA,NA,NA,3,#741CD8,#D8271C,10,0,1,38,1,461.70000000298023,39,0,557.2000000029802,0,0,experiment,NA,NA,2,0.5,0.5,4,5,202,5,NA
fcp-trial,261,1590494,0.0-212.0-0.0,voc_e2,11703,"[{""event"":""fullscreenenter"",""trial"":1,""time"":183798},{""event"":""fullscreenexit"",""trial"":2,""time"":195089}]",NA,NA,NA,NA,NA,5,#3386FF,#D89F1C,0,10,0,38,1,328.8999999985099,39,0,302.69999999552965,10,1,experiment,NA,NA,0,0.1,0.9,1,0,203,5,NA
fcp-trial,262,1593505,0.0-213.0-0.0,voc_e2,11703,"[{""event"":""fullscreenenter"",""trial"":1,""time"":183798},{""event"":""fullscreenexit"",""trial"":2,""time"":195089}]",NA,NA,NA,NA,NA,6,#D8271C,#741CD8,0,10,0,38,1,1100.8000000044703,37,1,405.8999999985099,0,0,experiment,NA,NA,2,0.5,0.5,5,4,204,5,NA
fcp-trial,263,1597183,0.0-214.0-0.0,voc_e2,11703,"[{""event"":""fullscreenenter"",""trial"":1,""time"":183798},{""event"":""fullscreenexit"",""trial"":2,""time"":195089}]",NA,NA,NA,NA,NA,2,#FA92F8,#1CD855,0,0,0,38,1,1821.5,39,0,351.69999999552965,0,1,experiment,NA,NA,1,0.3,0.7,3,2,205,5,NA
fcp-trial,264,1600486,0.0-215.0-0.0,voc_e2,11703,"[{""event"":""fullscreenenter"",""trial"":1,""time"":183798},{""event"":""fullscreenexit"",""trial"":2,""time"":195089}]",NA,NA,NA,NA,NA,1,#FA92F8,#1CD855,0,10,0,38,1,689.4000000059605,39,0,1109.7000000029802,10,1,experiment,NA,NA,1,0.3,0.7,3,2,206,5,NA
fcp-trial,265,1604286,0.0-216.0-0.0,voc_e2,11703,"[{""event"":""fullscreenenter"",""trial"":1,""time"":183798},{""event"":""fullscreenexit"",""trial"":2,""time"":195089}]",NA,NA,NA,NA,NA,3,#D89F1C,#3386FF,10,0,1,40,0,1502.1000000014901,39,0,793.3999999985099,0,0,experiment,NA,NA,0,0.9,0.1,0,1,207,5,NA
fcp-trial,266,1607161,0.0-217.0-0.0,voc_e2,11703,"[{""event"":""fullscreenenter"",""trial"":1,""time"":183798},{""event"":""fullscreenexit"",""trial"":2,""time"":195089}]",NA,NA,NA,NA,NA,4,#D8271C,#741CD8,10,0,0,40,0,981.2000000029802,37,1,388,10,0,experiment,NA,NA,2,0.5,0.5,5,4,208,5,NA
fcp-trial,267,1609824,0.0-218.0-0.0,voc_e2,11703,"[{""event"":""fullscreenenter"",""trial"":1,""time"":183798},{""event"":""fullscreenexit"",""trial"":2,""time"":195089}]",NA,NA,NA,NA,NA,2,#3386FF,#D89F1C,0,0,0,38,1,756.5,37,1,402.19999999552965,0,0,experiment,NA,NA,0,0.1,0.9,1,0,209,5,NA
fcp-trial,268,1612772,0.0-219.0-0.0,voc_e2,11703,"[{""event"":""fullscreenenter"",""trial"":1,""time"":183798},{""event"":""fullscreenexit"",""trial"":2,""time"":195089}]",NA,NA,NA,NA,NA,2,#D8271C,#741CD8,10,0,0,38,1,1008.8999999985099,37,1,435.8999999985099,10,0,experiment,NA,NA,2,0.5,0.5,5,4,210,5,NA
audio-instructions,269,1618362,0.0-220.0,voc_e2,11703,"[{""event"":""fullscreenenter"",""trial"":1,""time"":183798},{""event"":""fullscreenexit"",""trial"":2,""time"":195089}]",NA,1131.9000000059605,static/audio/pause.wav,NA,0,NA,NA,NA,NA,NA,NA,NA,NA,NA,NA,NA,NA,NA,NA,NA,NA,NA,NA,NA,NA,NA,NA,NA,NA,NA
fcp-trial,270,1621342,0.0-221.0-0.0,voc_e2,11703,"[{""event"":""fullscreenenter"",""trial"":1,""time"":183798},{""event"":""fullscreenexit"",""trial"":2,""time"":195089}]",NA,NA,NA,NA,NA,1,#741CD8,#D8271C,0,10,1,38,1,1145.5,39,0,331.30000000447035,10,0,experiment,NA,NA,2,0.5,0.5,4,5,211,5,NA
fcp-trial,271,1624100,0.0-222.0-0.0,voc_e2,11703,"[{""event"":""fullscreenenter"",""trial"":1,""time"":183798},{""event"":""fullscreenexit"",""trial"":2,""time"":195089}]",NA,NA,NA,NA,NA,6,#3386FF,#D89F1C,0,10,0,40,0,773.8000000044703,39,0,475.8999999985099,10,1,experiment,NA,NA,0,0.1,0.9,1,0,212,5,NA
fcp-trial,272,1627350,0.0-223.0-0.0,voc_e2,11703,"[{""event"":""fullscreenenter"",""trial"":1,""time"":183798},{""event"":""fullscreenexit"",""trial"":2,""time"":195089}]",NA,NA,NA,NA,NA,2,#D8271C,#741CD8,10,0,0,38,1,1358.7999999970198,37,1,384,10,0,experiment,NA,NA,2,0.5,0.5,5,4,213,5,NA
fcp-trial,273,1630257,0.0-224.0-0.0,voc_e2,11703,"[{""event"":""fullscreenenter"",""trial"":1,""time"":183798},{""event"":""fullscreenexit"",""trial"":2,""time"":195089}]",NA,NA,NA,NA,NA,4,#D8271C,#741CD8,10,10,0,40,0,968.1999999955297,37,1,427,10,0,experiment,NA,NA,2,0.5,0.5,5,4,214,5,NA
fcp-trial,274,1632908,0.0-225.0-0.0,voc_e2,11703,"[{""event"":""fullscreenenter"",""trial"":1,""time"":183798},{""event"":""fullscreenexit"",""trial"":2,""time"":195089}]",NA,NA,NA,NA,NA,5,#1CD855,#FA92F8,0,0,1,40,0,650.3000000044703,39,0,489.70000000298023,0,0,experiment,NA,NA,1,0.7,0.3,2,3,215,5,NA
fcp-trial,275,1635458,0.0-226.0-0.0,voc_e2,11703,"[{""event"":""fullscreenenter"",""trial"":1,""time"":183798},{""event"":""fullscreenexit"",""trial"":2,""time"":195089}]",NA,NA,NA,NA,NA,6,#1CD855,#FA92F8,10,10,1,40,0,542.4000000059605,39,0,497.1000000014901,10,0,experiment,NA,NA,1,0.7,0.3,2,3,216,5,NA
fcp-trial,276,1638571,0.0-227.0-0.0,voc_e2,11703,"[{""event"":""fullscreenenter"",""trial"":1,""time"":183798},{""event"":""fullscreenexit"",""trial"":2,""time"":195089}]",NA,NA,NA,NA,NA,3,#D89F1C,#3386FF,10,0,1,38,1,869.7999999970198,37,1,736.6000000014901,10,1,experiment,NA,NA,0,0.9,0.1,0,1,217,5,NA
fcp-trial,277,1641743,0.0-228.0-0.0,voc_e2,11703,"[{""event"":""fullscreenenter"",""trial"":1,""time"":183798},{""event"":""fullscreenexit"",""trial"":2,""time"":195089}]",NA,NA,NA,NA,NA,0,#1CD855,#FA92F8,0,0,1,38,1,994.1999999955297,37,1,670.6999999955297,0,1,experiment,NA,NA,1,0.7,0.3,2,3,218,5,NA
fcp-trial,278,1644536,0.0-229.0-0.0,voc_e2,11703,"[{""event"":""fullscreenenter"",""trial"":1,""time"":183798},{""event"":""fullscreenexit"",""trial"":2,""time"":195089}]",NA,NA,NA,NA,NA,3,#D8271C,#741CD8,0,0,0,38,1,938.6000000014901,37,1,351.20000000298023,0,0,experiment,NA,NA,2,0.5,0.5,5,4,219,5,NA
fcp-trial,279,1646717,0.0-230.0-0.0,voc_e2,11703,"[{""event"":""fullscreenenter"",""trial"":1,""time"":183798},{""event"":""fullscreenexit"",""trial"":2,""time"":195089}]",NA,NA,NA,NA,NA,4,#3386FF,#D89F1C,0,10,0,38,1,325.20000000298023,37,1,349.20000000298023,0,0,experiment,NA,NA,0,0.1,0.9,1,0,220,5,NA
fcp-trial,280,1649708,0.0-231.0-0.0,voc_e2,11703,"[{""event"":""fullscreenenter"",""trial"":1,""time"":183798},{""event"":""fullscreenexit"",""trial"":2,""time"":195089}]",NA,NA,NA,NA,NA,4,#FA92F8,#1CD855,0,10,0,40,0,1030.2999999970198,39,0,454.80000000447035,10,1,experiment,NA,NA,1,0.3,0.7,3,2,221,5,NA
fcp-trial,281,1652384,0.0-232.0-0.0,voc_e2,11703,"[{""event"":""fullscreenenter"",""trial"":1,""time"":183798},{""event"":""fullscreenexit"",""trial"":2,""time"":195089}]",NA,NA,NA,NA,NA,6,#D8271C,#741CD8,0,10,0,40,0,755.1000000014901,39,0,418.1000000014901,10,1,experiment,NA,NA,2,0.5,0.5,5,4,222,5,NA
fcp-trial,282,1654868,0.0-233.0-0.0,voc_e2,11703,"[{""event"":""fullscreenenter"",""trial"":1,""time"":183798},{""event"":""fullscreenexit"",""trial"":2,""time"":195089}]",NA,NA,NA,NA,NA,5,#D89F1C,#3386FF,10,0,1,40,0,668.7999999970198,39,0,312.1000000014901,0,0,experiment,NA,NA,0,0.9,0.1,0,1,223,5,NA
fcp-trial,283,1657404,0.0-234.0-0.0,voc_e2,11703,"[{""event"":""fullscreenenter"",""trial"":1,""time"":183798},{""event"":""fullscreenexit"",""trial"":2,""time"":195089}]",NA,NA,NA,NA,NA,2,#FA92F8,#1CD855,0,10,0,38,1,590.1000000014901,39,0,439.8999999985099,10,1,experiment,NA,NA,1,0.3,0.7,3,2,224,5,NA
fcp-trial,284,1660003,0.0-235.0-0.0,voc_e2,11703,"[{""event"":""fullscreenenter"",""trial"":1,""time"":183798},{""event"":""fullscreenexit"",""trial"":2,""time"":195089}]",NA,NA,NA,NA,NA,0,#D8271C,#741CD8,0,0,0,38,1,770.2999999970198,37,1,325.69999999552965,0,0,experiment,NA,NA,2,0.5,0.5,5,4,225,5,NA
fcp-trial,285,1662935,0.0-236.0-0.0,voc_e2,11703,"[{""event"":""fullscreenenter"",""trial"":1,""time"":183798},{""event"":""fullscreenexit"",""trial"":2,""time"":195089}]",NA,NA,NA,NA,NA,1,#3386FF,#D89F1C,0,10,0,38,1,209.10000000149012,39,0,1220.2999999970198,10,1,experiment,NA,NA,0,0.1,0.9,1,0,226,6,NA
fcp-trial,286,1665671,0.0-237.0-0.0,voc_e2,11703,"[{""event"":""fullscreenenter"",""trial"":1,""time"":183798},{""event"":""fullscreenexit"",""trial"":2,""time"":195089}]",NA,NA,NA,NA,NA,5,#D8271C,#741CD8,10,0,0,40,0,791.9000000059605,39,0,439.90000000596046,0,1,experiment,NA,NA,2,0.5,0.5,5,4,227,6,NA
fcp-trial,287,1669276,0.0-238.0-0.0,voc_e2,11703,"[{""event"":""fullscreenenter"",""trial"":1,""time"":183798},{""event"":""fullscreenexit"",""trial"":2,""time"":195089}]",NA,NA,NA,NA,NA,3,#FA92F8,#1CD855,0,10,0,38,1,772.6999999955297,39,0,1328.10000000149,10,1,experiment,NA,NA,1,0.3,0.7,3,2,228,6,NA
fcp-trial,288,1671579,0.0-239.0-0.0,voc_e2,11703,"[{""event"":""fullscreenenter"",""trial"":1,""time"":183798},{""event"":""fullscreenexit"",""trial"":2,""time"":195089}]",NA,NA,NA,NA,NA,1,#FA92F8,#1CD855,0,10,0,38,1,485.30000000447035,37,1,314.20000000298023,0,0,experiment,NA,NA,1,0.3,0.7,3,2,229,6,NA
fcp-trial,289,1674770,0.0-240.0-0.0,voc_e2,11703,"[{""event"":""fullscreenenter"",""trial"":1,""time"":183798},{""event"":""fullscreenexit"",""trial"":2,""time"":195089}]",NA,NA,NA,NA,NA,2,#D89F1C,#3386FF,10,0,1,38,1,1265.2000000029802,37,1,421.09999999403954,10,1,experiment,NA,NA,0,0.9,0.1,0,1,230,6,NA
fcp-trial,290,1677598,0.0-241.0-0.0,voc_e2,11703,"[{""event"":""fullscreenenter"",""trial"":1,""time"":183798},{""event"":""fullscreenexit"",""trial"":2,""time"":195089}]",NA,NA,NA,NA,NA,0,#3386FF,#D89F1C,0,10,0,40,0,915.6000000014901,39,0,408.20000000298023,10,1,experiment,NA,NA,0,0.1,0.9,1,0,231,6,NA
fcp-trial,291,1681278,0.0-242.0-0.0,voc_e2,11703,"[{""event"":""fullscreenenter"",""trial"":1,""time"":183798},{""event"":""fullscreenexit"",""trial"":2,""time"":195089}]",NA,NA,NA,NA,NA,4,#1CD855,#FA92F8,10,10,1,40,0,1794.5,37,1,378.80000000447035,10,1,experiment,NA,NA,1,0.7,0.3,2,3,232,6,NA
fcp-trial,292,1684319,0.0-243.0-0.0,voc_e2,11703,"[{""event"":""fullscreenenter"",""trial"":1,""time"":183798},{""event"":""fullscreenexit"",""trial"":2,""time"":195089}]",NA,NA,NA,NA,NA,2,#D8271C,#741CD8,10,10,0,40,0,1008.1000000014901,39,0,528.8000000044703,10,1,experiment,NA,NA,2,0.5,0.5,5,4,233,6,NA
fcp-trial,293,1687093,0.0-244.0-0.0,voc_e2,11703,"[{""event"":""fullscreenenter"",""trial"":1,""time"":183798},{""event"":""fullscreenexit"",""trial"":2,""time"":195089}]",NA,NA,NA,NA,NA,1,#FA92F8,#1CD855,0,10,0,38,1,845.1000000014901,37,1,423.80000000447035,0,0,experiment,NA,NA,1,0.3,0.7,3,2,234,6,NA
fcp-trial,294,1689476,0.0-245.0-0.0,voc_e2,11703,"[{""event"":""fullscreenenter"",""trial"":1,""time"":183798},{""event"":""fullscreenexit"",""trial"":2,""time"":195089}]",NA,NA,NA,NA,NA,6,#D89F1C,#3386FF,10,10,1,40,0,561.2999999970198,39,0,318.1000000014901,10,0,experiment,NA,NA,0,0.9,0.1,0,1,235,6,NA
fcp-trial,295,1692411,0.0-246.0-0.0,voc_e2,11703,"[{""event"":""fullscreenenter"",""trial"":1,""time"":183798},{""event"":""fullscreenexit"",""trial"":2,""time"":195089}]",NA,NA,NA,NA,NA,2,#3386FF,#D89F1C,0,10,0,38,1,868.9000000059605,39,0,559.7000000029802,10,1,experiment,NA,NA,0,0.1,0.9,1,0,236,6,NA
fcp-trial,296,1694907,0.0-247.0-0.0,voc_e2,11703,"[{""event"":""fullscreenenter"",""trial"":1,""time"":183798},{""event"":""fullscreenexit"",""trial"":2,""time"":195089}]",NA,NA,NA,NA,NA,5,#D89F1C,#3386FF,10,0,1,40,0,548.7000000029802,37,1,442.70000000298023,10,1,experiment,NA,NA,0,0.9,0.1,0,1,237,6,NA
fcp-trial,297,1698340,0.0-248.0-0.0,voc_e2,11703,"[{""event"":""fullscreenenter"",""trial"":1,""time"":183798},{""event"":""fullscreenexit"",""trial"":2,""time"":195089}]",NA,NA,NA,NA,NA,4,#D8271C,#741CD8,10,0,0,40,0,1472,37,1,456,10,0,experiment,NA,NA,2,0.5,0.5,5,4,238,6,NA
fcp-trial,298,1700913,0.0-249.0-0.0,voc_e2,11703,"[{""event"":""fullscreenenter"",""trial"":1,""time"":183798},{""event"":""fullscreenexit"",""trial"":2,""time"":195089}]",NA,NA,NA,NA,NA,6,#1CD855,#FA92F8,0,0,1,40,0,636.5,39,0,429.6000000014901,0,0,experiment,NA,NA,1,0.7,0.3,2,3,239,6,NA
fcp-trial,299,1704415,0.0-250.0-0.0,voc_e2,11703,"[{""event"":""fullscreenenter"",""trial"":1,""time"":183798},{""event"":""fullscreenexit"",""trial"":2,""time"":195089}]",NA,NA,NA,NA,NA,1,#D89F1C,#3386FF,10,10,1,38,1,1183.2000000029802,37,1,816.2000000029802,10,1,experiment,NA,NA,0,0.9,0.1,0,1,240,6,NA
fcp-trial,300,1707322,0.0-251.0-0.0,voc_e2,11703,"[{""event"":""fullscreenenter"",""trial"":1,""time"":183798},{""event"":""fullscreenexit"",""trial"":2,""time"":195089}]",NA,NA,NA,NA,NA,0,#FA92F8,#1CD855,10,10,0,38,1,1022.6000000014901,39,0,380.29999999701977,10,1,experiment,NA,NA,1,0.3,0.7,3,2,241,6,NA
fcp-trial,301,1710156,0.0-252.0-0.0,voc_e2,11703,"[{""event"":""fullscreenenter"",""trial"":1,""time"":183798},{""event"":""fullscreenexit"",""trial"":2,""time"":195089}]",NA,NA,NA,NA,NA,1,#741CD8,#D8271C,0,0,1,40,0,950.5,39,0,380.1000000014901,0,0,experiment,NA,NA,2,0.5,0.5,4,5,242,6,NA
fcp-trial,302,1712780,0.0-253.0-0.0,voc_e2,11703,"[{""event"":""fullscreenenter"",""trial"":1,""time"":183798},{""event"":""fullscreenexit"",""trial"":2,""time"":195089}]",NA,NA,NA,NA,NA,0,#3386FF,#D89F1C,0,10,0,38,1,748.6999999955297,37,1,370.5,0,0,experiment,NA,NA,0,0.1,0.9,1,0,243,6,NA
fcp-trial,303,1715809,0.0-254.0-0.0,voc_e2,11703,"[{""event"":""fullscreenenter"",""trial"":1,""time"":183798},{""event"":""fullscreenexit"",""trial"":2,""time"":195089}]",NA,NA,NA,NA,NA,0,#D8271C,#741CD8,0,0,0,38,1,1185,37,1,340,0,0,experiment,NA,NA,2,0.5,0.5,5,4,244,6,NA
fcp-trial,304,1718650,0.0-255.0-0.0,voc_e2,11703,"[{""event"":""fullscreenenter"",""trial"":1,""time"":183798},{""event"":""fullscreenexit"",""trial"":2,""time"":195089}]",NA,NA,NA,NA,NA,3,#D8271C,#741CD8,10,0,0,40,0,869.6000000014901,37,1,467.20000000298023,10,0,experiment,NA,NA,2,0.5,0.5,5,4,245,6,NA
fcp-trial,305,1721379,0.0-256.0-0.0,voc_e2,11703,"[{""event"":""fullscreenenter"",""trial"":1,""time"":183798},{""event"":""fullscreenexit"",""trial"":2,""time"":195089}]",NA,NA,NA,NA,NA,5,#FA92F8,#1CD855,0,0,0,40,0,848.7999999970198,39,0,377.90000000596046,0,1,experiment,NA,NA,1,0.3,0.7,3,2,246,6,NA
fcp-trial,306,1724598,0.0-257.0-0.0,voc_e2,11703,"[{""event"":""fullscreenenter"",""trial"":1,""time"":183798},{""event"":""fullscreenexit"",""trial"":2,""time"":195089}]",NA,NA,NA,NA,NA,3,#3386FF,#D89F1C,0,10,0,38,1,1051.6000000014901,39,0,663.7999999970198,10,1,experiment,NA,NA,0,0.1,0.9,1,0,247,6,NA
fcp-trial,307,1727464,0.0-258.0-0.0,voc_e2,11703,"[{""event"":""fullscreenenter"",""trial"":1,""time"":183798},{""event"":""fullscreenexit"",""trial"":2,""time"":195089}]",NA,NA,NA,NA,NA,5,#741CD8,#D8271C,0,10,1,40,0,645.1000000014901,37,1,716.8999999985099,0,1,experiment,NA,NA,2,0.5,0.5,4,5,248,6,NA
fcp-trial,308,1730890,0.0-259.0-0.0,voc_e2,11703,"[{""event"":""fullscreenenter"",""trial"":1,""time"":183798},{""event"":""fullscreenexit"",""trial"":2,""time"":195089}]",NA,NA,NA,NA,NA,3,#1CD855,#FA92F8,10,10,1,38,1,1626.2999999970198,37,1,296.1000000014901,10,1,experiment,NA,NA,1,0.7,0.3,2,3,249,6,NA
fcp-trial,309,1734337,0.0-260.0-0.0,voc_e2,11703,"[{""event"":""fullscreenenter"",""trial"":1,""time"":183798},{""event"":""fullscreenexit"",""trial"":2,""time"":195089}]",NA,NA,NA,NA,NA,4,#D89F1C,#3386FF,10,10,1,40,0,1539.8000000044703,39,0,402.5,10,0,experiment,NA,NA,0,0.9,0.1,0,1,250,6,NA
fcp-trial,310,1737460,0.0-261.0-0.0,voc_e2,11703,"[{""event"":""fullscreenenter"",""trial"":1,""time"":183798},{""event"":""fullscreenexit"",""trial"":2,""time"":195089}]",NA,NA,NA,NA,NA,6,#D8271C,#741CD8,0,0,0,40,0,902.8000000044703,39,0,716.5,0,1,experiment,NA,NA,2,0.5,0.5,5,4,251,6,NA
fcp-trial,311,1740622,0.0-262.0-0.0,voc_e2,11703,"[{""event"":""fullscreenenter"",""trial"":1,""time"":183798},{""event"":""fullscreenexit"",""trial"":2,""time"":195089}]",NA,NA,NA,NA,NA,2,#FA92F8,#1CD855,0,10,0,38,1,1230.5,37,1,427.69999999552965,0,0,experiment,NA,NA,1,0.3,0.7,3,2,252,6,NA
fcp-trial,312,1743380,0.0-263.0-0.0,voc_e2,11703,"[{""event"":""fullscreenenter"",""trial"":1,""time"":183798},{""event"":""fullscreenexit"",""trial"":2,""time"":195089}]",NA,NA,NA,NA,NA,1,#1CD855,#FA92F8,10,0,1,38,1,733.1000000014901,37,1,521.1999999955297,10,1,experiment,NA,NA,1,0.7,0.3,2,3,253,6,NA
fcp-trial,313,1746163,0.0-264.0-0.0,voc_e2,11703,"[{""event"":""fullscreenenter"",""trial"":1,""time"":183798},{""event"":""fullscreenexit"",""trial"":2,""time"":195089}]",NA,NA,NA,NA,NA,6,#3386FF,#D89F1C,0,10,0,40,0,778.3999999985099,39,0,501.1000000014901,10,1,experiment,NA,NA,0,0.1,0.9,1,0,254,6,NA
fcp-trial,314,1748794,0.0-265.0-0.0,voc_e2,11703,"[{""event"":""fullscreenenter"",""trial"":1,""time"":183798},{""event"":""fullscreenexit"",""trial"":2,""time"":195089}]",NA,NA,NA,NA,NA,5,#D8271C,#741CD8,10,0,0,40,0,732.7999999970198,37,1,392.70000000298023,10,0,experiment,NA,NA,2,0.5,0.5,5,4,255,6,NA
fcp-trial,315,1751176,0.0-266.0-0.0,voc_e2,11703,"[{""event"":""fullscreenenter"",""trial"":1,""time"":183798},{""event"":""fullscreenexit"",""trial"":2,""time"":195089}]",NA,NA,NA,NA,NA,5,#1CD855,#FA92F8,10,10,1,40,0,526.1999999955297,37,1,351.6000000014901,10,1,experiment,NA,NA,1,0.7,0.3,2,3,256,6,NA
fcp-trial,316,1753729,0.0-267.0-0.0,voc_e2,11703,"[{""event"":""fullscreenenter"",""trial"":1,""time"":183798},{""event"":""fullscreenexit"",""trial"":2,""time"":195089}]",NA,NA,NA,NA,NA,0,#D8271C,#741CD8,10,0,0,38,1,675.1000000014901,37,1,375,10,0,experiment,NA,NA,2,0.5,0.5,5,4,257,6,NA
fcp-trial,317,1756433,0.0-268.0-0.0,voc_e2,11703,"[{""event"":""fullscreenenter"",""trial"":1,""time"":183798},{""event"":""fullscreenexit"",""trial"":2,""time"":195089}]",NA,NA,NA,NA,NA,6,#741CD8,#D8271C,10,10,1,40,0,781.6000000014901,39,0,418.5,10,0,experiment,NA,NA,2,0.5,0.5,4,5,258,6,NA
fcp-trial,318,1759021,0.0-269.0-0.0,voc_e2,11703,"[{""event"":""fullscreenenter"",""trial"":1,""time"":183798},{""event"":""fullscreenexit"",""trial"":2,""time"":195089}]",NA,NA,NA,NA,NA,5,#3386FF,#D89F1C,0,10,0,40,0,728.6000000014901,37,1,353.70000000298023,0,0,experiment,NA,NA,0,0.1,0.9,1,0,259,6,NA
fcp-trial,319,1761644,0.0-270.0-0.0,voc_e2,11703,"[{""event"":""fullscreenenter"",""trial"":1,""time"":183798},{""event"":""fullscreenexit"",""trial"":2,""time"":195089}]",NA,NA,NA,NA,NA,4,#1CD855,#FA92F8,10,0,1,40,0,755.5,37,1,364.1000000014901,10,1,experiment,NA,NA,1,0.7,0.3,2,3,260,6,NA
fcp-trial,320,1764226,0.0-271.0-0.0,voc_e2,11703,"[{""event"":""fullscreenenter"",""trial"":1,""time"":183798},{""event"":""fullscreenexit"",""trial"":2,""time"":195089}]",NA,NA,NA,NA,NA,1,#3386FF,#D89F1C,0,10,0,38,1,593.2999999970198,39,0,484.09999999403954,10,1,experiment,NA,NA,0,0.1,0.9,1,0,261,6,NA
fcp-trial,321,1767138,0.0-272.0-0.0,voc_e2,11703,"[{""event"":""fullscreenenter"",""trial"":1,""time"":183798},{""event"":""fullscreenexit"",""trial"":2,""time"":195089}]",NA,NA,NA,NA,NA,3,#741CD8,#D8271C,10,0,1,40,0,987.3999999985099,37,1,420.5,10,1,experiment,NA,NA,2,0.5,0.5,4,5,262,6,NA
fcp-trial,322,1769475,0.0-273.0-0.0,voc_e2,11703,"[{""event"":""fullscreenenter"",""trial"":1,""time"":183798},{""event"":""fullscreenexit"",""trial"":2,""time"":195089}]",NA,NA,NA,NA,NA,6,#1CD855,#FA92F8,0,0,1,40,0,555.6000000014901,37,1,275.79999999701977,0,1,experiment,NA,NA,1,0.7,0.3,2,3,263,6,NA
fcp-trial,323,1771857,0.0-274.0-0.0,voc_e2,11703,"[{""event"":""fullscreenenter"",""trial"":1,""time"":183798},{""event"":""fullscreenexit"",""trial"":2,""time"":195089}]",NA,NA,NA,NA,NA,1,#741CD8,#D8271C,10,0,1,40,0,478.20000000298023,37,1,400.5,10,1,experiment,NA,NA,2,0.5,0.5,4,5,264,6,NA
fcp-trial,324,1774517,0.0-275.0-0.0,voc_e2,11703,"[{""event"":""fullscreenenter"",""trial"":1,""time"":183798},{""event"":""fullscreenexit"",""trial"":2,""time"":195089}]",NA,NA,NA,NA,NA,0,#3386FF,#D89F1C,0,10,0,38,1,793.8999999985099,39,0,360.30000000447035,10,1,experiment,NA,NA,0,0.1,0.9,1,0,265,6,NA
fcp-trial,325,1778031,0.0-276.0-0.0,voc_e2,11703,"[{""event"":""fullscreenenter"",""trial"":1,""time"":183798},{""event"":""fullscreenexit"",""trial"":2,""time"":195089}]",NA,NA,NA,NA,NA,2,#FA92F8,#1CD855,10,0,0,38,1,854.3999999985099,39,0,1155.2999999970198,0,1,experiment,NA,NA,1,0.3,0.7,3,2,266,6,NA
fcp-trial,326,1780732,0.0-277.0-0.0,voc_e2,11703,"[{""event"":""fullscreenenter"",""trial"":1,""time"":183798},{""event"":""fullscreenexit"",""trial"":2,""time"":195089}]",NA,NA,NA,NA,NA,4,#741CD8,#D8271C,10,10,1,40,0,697.1000000014901,37,1,499,10,1,experiment,NA,NA,2,0.5,0.5,4,5,267,6,NA
fcp-trial,327,1783262,0.0-278.0-0.0,voc_e2,11703,"[{""event"":""fullscreenenter"",""trial"":1,""time"":183798},{""event"":""fullscreenexit"",""trial"":2,""time"":195089}]",NA,NA,NA,NA,NA,0,#1CD855,#FA92F8,0,0,1,38,1,692.6000000014901,37,1,335.09999999403954,0,1,experiment,NA,NA,1,0.7,0.3,2,3,268,6,NA
fcp-trial,328,1785923,0.0-279.0-0.0,voc_e2,11703,"[{""event"":""fullscreenenter"",""trial"":1,""time"":183798},{""event"":""fullscreenexit"",""trial"":2,""time"":195089}]",NA,NA,NA,NA,NA,4,#3386FF,#D89F1C,0,10,0,40,0,786.6000000014901,39,0,370.6000000014901,10,1,experiment,NA,NA,0,0.1,0.9,1,0,269,6,NA
fcp-trial,329,1788762,0.0-280.0-0.0,voc_e2,11703,"[{""event"":""fullscreenenter"",""trial"":1,""time"":183798},{""event"":""fullscreenexit"",""trial"":2,""time"":195089}]",NA,NA,NA,NA,NA,3,#FA92F8,#1CD855,0,0,0,40,0,974.7999999970198,39,0,356.79999999701977,0,1,experiment,NA,NA,1,0.3,0.7,3,2,270,6,NA
fcp-trial,330,1791480,0.0-281.0-0.0,voc_e2,11703,"[{""event"":""fullscreenenter"",""trial"":1,""time"":183798},{""event"":""fullscreenexit"",""trial"":2,""time"":195089}]",NA,NA,NA,NA,NA,2,#741CD8,#D8271C,10,0,1,40,0,804.2999999970198,37,1,408.69999999552965,10,1,experiment,NA,NA,2,0.5,0.5,4,5,271,7,NA
fcp-trial,331,1793954,0.0-282.0-0.0,voc_e2,11703,"[{""event"":""fullscreenenter"",""trial"":1,""time"":183798},{""event"":""fullscreenexit"",""trial"":2,""time"":195089}]",NA,NA,NA,NA,NA,2,#D89F1C,#3386FF,10,0,1,40,0,647.1000000014901,39,0,321.5,0,0,experiment,NA,NA,0,0.9,0.1,0,1,272,7,NA
fcp-trial,332,1796425,0.0-283.0-0.0,voc_e2,11703,"[{""event"":""fullscreenenter"",""trial"":1,""time"":183798},{""event"":""fullscreenexit"",""trial"":2,""time"":195089}]",NA,NA,NA,NA,NA,3,#3386FF,#D89F1C,0,10,0,40,0,638.2999999970198,39,0,327.8999999985099,10,1,experiment,NA,NA,0,0.1,0.9,1,0,273,7,NA
fcp-trial,333,1798757,0.0-284.0-0.0,voc_e2,11703,"[{""event"":""fullscreenenter"",""trial"":1,""time"":183798},{""event"":""fullscreenexit"",""trial"":2,""time"":195089}]",NA,NA,NA,NA,NA,4,#FA92F8,#1CD855,0,0,0,40,0,549,39,0,279.1000000014901,0,1,experiment,NA,NA,1,0.3,0.7,3,2,274,7,NA
fcp-trial,334,1801144,0.0-285.0-0.0,voc_e2,11703,"[{""event"":""fullscreenenter"",""trial"":1,""time"":183798},{""event"":""fullscreenexit"",""trial"":2,""time"":195089}]",NA,NA,NA,NA,NA,5,#1CD855,#FA92F8,10,0,1,40,0,606.8000000044703,39,0,274.3999999985099,0,0,experiment,NA,NA,1,0.7,0.3,2,3,275,7,NA
