trial_type,trial_index,time_elapsed,internal_node_id,task_version,subject_id,interactions,success,rt,stimulus,key_press,button_pressed,offer,arcade_color_L,arcade_color_R,arcade_outcome_L,arcade_outcome_R,correct,stage_1_key,stage_1_choice,stage_1_rt,stage_2_key,stage_2_choice,stage_2_rt,stage_3_outcome,accuracy,phase,responses,num_errors,context,reward_prob_L,reward_prob_R,arcade_id_L,arcade_id_R,trial,block,response
pavlovia,0,52,0.0-0.0,voc_e2,12259,[],NA,NA,NA,NA,NA,NA,NA,NA,NA,NA,NA,NA,NA,NA,NA,NA,NA,NA,NA,NA,NA,NA,NA,NA,NA,NA,NA,NA,NA,NA
fullscreen,1,4621,0.0-1.0,voc_e2,12259,"[{""event"":""fullscreenenter"",""trial"":1,""time"":3639},{""event"":""blur"",""trial"":1,""time"":4621}]",TRUE,NA,NA,NA,NA,NA,NA,NA,NA,NA,NA,NA,NA,NA,NA,NA,NA,NA,NA,NA,NA,NA,NA,NA,NA,NA,NA,NA,NA,NA
audio-keyboard-response,2,12125,0.0-2.0,voc_e2,12259,"[{""event"":""fullscreenenter"",""trial"":1,""time"":3639},{""event"":""blur"",""trial"":1,""time"":4621},{""event"":""focus"",""trial"":2,""time"":11086}]",NA,6939,static/audio/beep_loop.wav,32,NA,NA,NA,NA,NA,NA,NA,NA,NA,NA,NA,NA,NA,NA,NA,NA,NA,NA,NA,NA,NA,NA,NA,NA,NA,NA
audio-test,3,15168,0.0-3.0,voc_e2,12259,"[{""event"":""fullscreenenter"",""trial"":1,""time"":3639},{""event"":""blur"",""trial"":1,""time"":4621},{""event"":""focus"",""trial"":2,""time"":11086},{""event"":""fullscreenexit"",""trial"":3,""time"":13334}]",NA,NA,static/audio/turtle.wav,NA,3,NA,NA,NA,NA,NA,NA,NA,NA,NA,NA,NA,NA,NA,NA,NA,NA,NA,NA,NA,NA,NA,NA,NA,NA,NA
audio-test,4,18659,0.0-4.0,voc_e2,12259,"[{""event"":""fullscreenenter"",""trial"":1,""time"":3639},{""event"":""blur"",""trial"":1,""time"":4621},{""event"":""focus"",""trial"":2,""time"":11086},{""event"":""fullscreenexit"",""trial"":3,""time"":13334}]",NA,NA,static/audio/shark.wav,NA,2,NA,NA,NA,NA,NA,NA,NA,NA,NA,NA,NA,NA,NA,NA,NA,NA,NA,NA,NA,NA,NA,NA,NA,NA,NA
audio-instructions,5,25982,0.0-5.0-0.0,voc_e2,12259,"[{""event"":""fullscreenenter"",""trial"":1,""time"":3639},{""event"":""blur"",""trial"":1,""time"":4621},{""event"":""focus"",""trial"":2,""time"":11086},{""event"":""fullscreenexit"",""trial"":3,""time"":13334}]",NA,1528.0999999046326,static/audio/instructions1.wav,NA,0,NA,NA,NA,NA,NA,NA,NA,NA,NA,NA,NA,NA,NA,NA,NA,NA,NA,NA,NA,NA,NA,NA,NA,NA,NA
audio-instructions,6,34389,0.0-5.0-1.0,voc_e2,12259,"[{""event"":""fullscreenenter"",""trial"":1,""time"":3639},{""event"":""blur"",""trial"":1,""time"":4621},{""event"":""focus"",""trial"":2,""time"":11086},{""event"":""fullscreenexit"",""trial"":3,""time"":13334}]",NA,1663.2000002861023,static/audio/instructions2.wav,NA,0,NA,NA,NA,NA,NA,NA,NA,NA,NA,NA,NA,NA,NA,NA,NA,NA,NA,NA,NA,NA,NA,NA,NA,NA,NA
audio-instructions,7,40894,0.0-5.0-2.0,voc_e2,12259,"[{""event"":""fullscreenenter"",""trial"":1,""time"":3639},{""event"":""blur"",""trial"":1,""time"":4621},{""event"":""focus"",""trial"":2,""time"":11086},{""event"":""fullscreenexit"",""trial"":3,""time"":13334}]",NA,700.5,static/audio/instructions3.wav,NA,0,NA,NA,NA,NA,NA,NA,NA,NA,NA,NA,NA,NA,NA,NA,NA,NA,NA,NA,NA,NA,NA,NA,NA,NA,NA
audio-instructions,8,54865,0.0-5.0-3.0,voc_e2,12259,"[{""event"":""fullscreenenter"",""trial"":1,""time"":3639},{""event"":""blur"",""trial"":1,""time"":4621},{""event"":""focus"",""trial"":2,""time"":11086},{""event"":""fullscreenexit"",""trial"":3,""time"":13334}]",NA,740.8000001907349,static/audio/instructions4.wav,NA,0,NA,NA,NA,NA,NA,NA,NA,NA,NA,NA,NA,NA,NA,NA,NA,NA,NA,NA,NA,NA,NA,NA,NA,NA,NA
audio-instructions,9,65221,0.0-5.0-4.0,voc_e2,12259,"[{""event"":""fullscreenenter"",""trial"":1,""time"":3639},{""event"":""blur"",""trial"":1,""time"":4621},{""event"":""focus"",""trial"":2,""time"":11086},{""event"":""fullscreenexit"",""trial"":3,""time"":13334}]",NA,965.1000003814696,static/audio/instructions5.wav,NA,0,NA,NA,NA,NA,NA,NA,NA,NA,NA,NA,NA,NA,NA,NA,NA,NA,NA,NA,NA,NA,NA,NA,NA,NA,NA
fcp-practice,10,76860,0.0-5.0-5.0-0.0,voc_e2,12259,"[{""event"":""fullscreenenter"",""trial"":1,""time"":3639},{""event"":""blur"",""trial"":1,""time"":4621},{""event"":""focus"",""trial"":2,""time"":11086},{""event"":""fullscreenexit"",""trial"":3,""time"":13334}]",NA,NA,NA,NA,NA,NA,#EDC948,#46d3c8,10,0,1,null,null,null,37,1,10111.599999904633,10,1,practice,NA,NA,NA,NA,NA,NA,NA,NA,NA,NA
fcp-practice,11,78878,0.0-5.0-5.0-1.0,voc_e2,12259,"[{""event"":""fullscreenenter"",""trial"":1,""time"":3639},{""event"":""blur"",""trial"":1,""time"":4621},{""event"":""focus"",""trial"":2,""time"":11086},{""event"":""fullscreenexit"",""trial"":3,""time"":13334}]",NA,NA,NA,NA,NA,NA,#EDC948,#46d3c8,10,0,1,null,null,null,37,1,514.0999999046326,10,1,practice,NA,NA,NA,NA,NA,NA,NA,NA,NA,NA
fcp-practice,12,80421,0.0-5.0-5.0-2.0,voc_e2,12259,"[{""event"":""fullscreenenter"",""trial"":1,""time"":3639},{""event"":""blur"",""trial"":1,""time"":4621},{""event"":""focus"",""trial"":2,""time"":11086},{""event"":""fullscreenexit"",""trial"":3,""time"":13334}]",NA,NA,NA,NA,NA,NA,#EDC948,#46d3c8,0,10,1,null,null,null,37,1,38.39999961853027,0,1,practice,NA,NA,NA,NA,NA,NA,NA,NA,NA,NA
fcp-practice,13,82128,0.0-5.0-5.0-3.0,voc_e2,12259,"[{""event"":""fullscreenenter"",""trial"":1,""time"":3639},{""event"":""blur"",""trial"":1,""time"":4621},{""event"":""focus"",""trial"":2,""time"":11086},{""event"":""fullscreenexit"",""trial"":3,""time"":13334}]",NA,NA,NA,NA,NA,NA,#EDC948,#46d3c8,10,0,1,null,null,null,37,1,201.6999998092651,10,1,practice,NA,NA,NA,NA,NA,NA,NA,NA,NA,NA
fcp-practice,14,83861,0.0-5.0-5.0-4.0,voc_e2,12259,"[{""event"":""fullscreenenter"",""trial"":1,""time"":3639},{""event"":""blur"",""trial"":1,""time"":4621},{""event"":""focus"",""trial"":2,""time"":11086},{""event"":""fullscreenexit"",""trial"":3,""time"":13334}]",NA,NA,NA,NA,NA,NA,#EDC948,#46d3c8,10,0,1,null,null,null,37,1,227.09999990463257,10,1,practice,NA,NA,NA,NA,NA,NA,NA,NA,NA,NA
audio-instructions,15,104015,0.0-5.0-6.0,voc_e2,12259,"[{""event"":""fullscreenenter"",""trial"":1,""time"":3639},{""event"":""blur"",""trial"":1,""time"":4621},{""event"":""focus"",""trial"":2,""time"":11086},{""event"":""fullscreenexit"",""trial"":3,""time"":13334}]",NA,2147.2000002861023,static/audio/instructions6.wav,NA,0,NA,NA,NA,NA,NA,NA,NA,NA,NA,NA,NA,NA,NA,NA,NA,NA,NA,NA,NA,NA,NA,NA,NA,NA,NA
audio-instructions,16,124981,0.0-5.0-7.0,voc_e2,12259,"[{""event"":""fullscreenenter"",""trial"":1,""time"":3639},{""event"":""blur"",""trial"":1,""time"":4621},{""event"":""focus"",""trial"":2,""time"":11086},{""event"":""fullscreenexit"",""trial"":3,""time"":13334}]",NA,1764.6999998092651,static/audio/instructions7.wav,NA,0,NA,NA,NA,NA,NA,NA,NA,NA,NA,NA,NA,NA,NA,NA,NA,NA,NA,NA,NA,NA,NA,NA,NA,NA,NA
audio-instructions,17,135125,0.0-5.0-8.0,voc_e2,12259,"[{""event"":""fullscreenenter"",""trial"":1,""time"":3639},{""event"":""blur"",""trial"":1,""time"":4621},{""event"":""focus"",""trial"":2,""time"":11086},{""event"":""fullscreenexit"",""trial"":3,""time"":13334}]",NA,671.3999996185303,static/audio/instructions8.wav,NA,0,NA,NA,NA,NA,NA,NA,NA,NA,NA,NA,NA,NA,NA,NA,NA,NA,NA,NA,NA,NA,NA,NA,NA,NA,NA
fcp-comprehension,18,141962,0.0-5.0-9.0,voc_e2,12259,"[{""event"":""fullscreenenter"",""trial"":1,""time"":3639},{""event"":""blur"",""trial"":1,""time"":4621},{""event"":""focus"",""trial"":2,""time"":11086},{""event"":""fullscreenexit"",""trial"":3,""time"":13334}]",NA,6829.900000095367,NA,NA,NA,NA,NA,NA,NA,NA,NA,NA,NA,NA,NA,NA,NA,NA,NA,NA,"true,true",0,NA,NA,NA,NA,NA,NA,NA,NA
audio-instructions,19,148489,0.0-6.0-0.0,voc_e2,12259,"[{""event"":""fullscreenenter"",""trial"":1,""time"":3639},{""event"":""blur"",""trial"":1,""time"":4621},{""event"":""focus"",""trial"":2,""time"":11086},{""event"":""fullscreenexit"",""trial"":3,""time"":13334}]",NA,974.9000000953674,static/audio/instructions9.wav,NA,0,NA,NA,NA,NA,NA,NA,NA,NA,NA,NA,NA,NA,NA,NA,NA,NA,NA,NA,NA,NA,NA,NA,NA,NA,NA
audio-instructions,20,161238,0.0-6.0-1.0,voc_e2,12259,"[{""event"":""fullscreenenter"",""trial"":1,""time"":3639},{""event"":""blur"",""trial"":1,""time"":4621},{""event"":""focus"",""trial"":2,""time"":11086},{""event"":""fullscreenexit"",""trial"":3,""time"":13334}]",NA,630.8999996185303,static/audio/instructions10.wav,NA,0,NA,NA,NA,NA,NA,NA,NA,NA,NA,NA,NA,NA,NA,NA,NA,NA,NA,NA,NA,NA,NA,NA,NA,NA,NA
fcp-trial,21,166994,0.0-6.0-2.0,voc_e2,12259,"[{""event"":""fullscreenenter"",""trial"":1,""time"":3639},{""event"":""blur"",""trial"":1,""time"":4621},{""event"":""focus"",""trial"":2,""time"":11086},{""event"":""fullscreenexit"",""trial"":3,""time"":13334}]",NA,NA,NA,NA,NA,0,#EDC948,#46d3c8,10,10,1,38,1,3023.199999809265,37,1,1217.1999998092651,10,1,practice,NA,NA,NA,NA,NA,NA,NA,NA,NA,NA
audio-instructions,22,178552,0.0-6.0-3.0,voc_e2,12259,"[{""event"":""fullscreenenter"",""trial"":1,""time"":3639},{""event"":""blur"",""trial"":1,""time"":4621},{""event"":""focus"",""trial"":2,""time"":11086},{""event"":""fullscreenexit"",""trial"":3,""time"":13334}]",NA,547.3000001907349,static/audio/instructions11.wav,NA,0,NA,NA,NA,NA,NA,NA,NA,NA,NA,NA,NA,NA,NA,NA,NA,NA,NA,NA,NA,NA,NA,NA,NA,NA,NA
fcp-trial,23,181451,0.0-6.0-4.0,voc_e2,12259,"[{""event"":""fullscreenenter"",""trial"":1,""time"":3639},{""event"":""blur"",""trial"":1,""time"":4621},{""event"":""focus"",""trial"":2,""time"":11086},{""event"":""fullscreenexit"",""trial"":3,""time"":13334}]",NA,NA,NA,NA,NA,6,#EDC948,#46d3c8,10,10,1,40,0,533.5999999046326,39,0,855.5,10,0,practice,NA,NA,NA,NA,NA,NA,NA,NA,NA,NA
audio-instructions,24,201533,0.0-6.0-5.0,voc_e2,12259,"[{""event"":""fullscreenenter"",""trial"":1,""time"":3639},{""event"":""blur"",""trial"":1,""time"":4621},{""event"":""focus"",""trial"":2,""time"":11086},{""event"":""fullscreenexit"",""trial"":3,""time"":13334}]",NA,1395.1999998092651,static/audio/instructions12.wav,NA,0,NA,NA,NA,NA,NA,NA,NA,NA,NA,NA,NA,NA,NA,NA,NA,NA,NA,NA,NA,NA,NA,NA,NA,NA,NA
audio-instructions,25,210005,0.0-6.0-6.0,voc_e2,12259,"[{""event"":""fullscreenenter"",""trial"":1,""time"":3639},{""event"":""blur"",""trial"":1,""time"":4621},{""event"":""focus"",""trial"":2,""time"":11086},{""event"":""fullscreenexit"",""trial"":3,""time"":13334}]",NA,874.5999999046326,static/audio/instructions13.wav,NA,0,NA,NA,NA,NA,NA,NA,NA,NA,NA,NA,NA,NA,NA,NA,NA,NA,NA,NA,NA,NA,NA,NA,NA,NA,NA
audio-instructions,26,220062,0.0-6.0-7.0,voc_e2,12259,"[{""event"":""fullscreenenter"",""trial"":1,""time"":3639},{""event"":""blur"",""trial"":1,""time"":4621},{""event"":""focus"",""trial"":2,""time"":11086},{""event"":""fullscreenexit"",""trial"":3,""time"":13334}]",NA,1608.7999997138977,static/audio/instructions14.wav,NA,0,NA,NA,NA,NA,NA,NA,NA,NA,NA,NA,NA,NA,NA,NA,NA,NA,NA,NA,NA,NA,NA,NA,NA,NA,NA
audio-instructions,27,228459,0.0-7.0-0.0,voc_e2,12259,"[{""event"":""fullscreenenter"",""trial"":1,""time"":3639},{""event"":""blur"",""trial"":1,""time"":4621},{""event"":""focus"",""trial"":2,""time"":11086},{""event"":""fullscreenexit"",""trial"":3,""time"":13334}]",NA,1484.4000000953674,static/audio/instructions15.wav,NA,0,NA,NA,NA,NA,NA,NA,NA,NA,NA,NA,NA,NA,NA,NA,NA,NA,NA,NA,NA,NA,NA,NA,NA,NA,NA
audio-instructions,28,236290,0.0-7.0-1.0,voc_e2,12259,"[{""event"":""fullscreenenter"",""trial"":1,""time"":3639},{""event"":""blur"",""trial"":1,""time"":4621},{""event"":""focus"",""trial"":2,""time"":11086},{""event"":""fullscreenexit"",""trial"":3,""time"":13334}]",NA,1000.3000001907347,static/audio/instructions16.wav,NA,0,NA,NA,NA,NA,NA,NA,NA,NA,NA,NA,NA,NA,NA,NA,NA,NA,NA,NA,NA,NA,NA,NA,NA,NA,NA
audio-instructions,29,245066,0.0-7.0-2.0,voc_e2,12259,"[{""event"":""fullscreenenter"",""trial"":1,""time"":3639},{""event"":""blur"",""trial"":1,""time"":4621},{""event"":""focus"",""trial"":2,""time"":11086},{""event"":""fullscreenexit"",""trial"":3,""time"":13334}]",NA,1093.6000003814695,static/audio/instructions17.wav,NA,0,NA,NA,NA,NA,NA,NA,NA,NA,NA,NA,NA,NA,NA,NA,NA,NA,NA,NA,NA,NA,NA,NA,NA,NA,NA
audio-instructions,30,253260,0.0-7.0-3.0,voc_e2,12259,"[{""event"":""fullscreenenter"",""trial"":1,""time"":3639},{""event"":""blur"",""trial"":1,""time"":4621},{""event"":""focus"",""trial"":2,""time"":11086},{""event"":""fullscreenexit"",""trial"":3,""time"":13334}]",NA,428.40000009536743,static/audio/instructions18.wav,NA,0,NA,NA,NA,NA,NA,NA,NA,NA,NA,NA,NA,NA,NA,NA,NA,NA,NA,NA,NA,NA,NA,NA,NA,NA,NA
audio-instructions,31,260930,0.0-7.0-4.0,voc_e2,12259,"[{""event"":""fullscreenenter"",""trial"":1,""time"":3639},{""event"":""blur"",""trial"":1,""time"":4621},{""event"":""focus"",""trial"":2,""time"":11086},{""event"":""fullscreenexit"",""trial"":3,""time"":13334}]",NA,926.5999999046326,static/audio/instructions19.wav,NA,0,NA,NA,NA,NA,NA,NA,NA,NA,NA,NA,NA,NA,NA,NA,NA,NA,NA,NA,NA,NA,NA,NA,NA,NA,NA
fcp-comprehension,32,271852,0.0-7.0-5.0,voc_e2,12259,"[{""event"":""fullscreenenter"",""trial"":1,""time"":3639},{""event"":""blur"",""trial"":1,""time"":4621},{""event"":""focus"",""trial"":2,""time"":11086},{""event"":""fullscreenexit"",""trial"":3,""time"":13334}]",NA,10918.800000190737,NA,NA,NA,NA,NA,NA,NA,NA,NA,NA,NA,NA,NA,NA,NA,NA,NA,NA,"true,true,true,true",3,NA,NA,NA,NA,NA,NA,NA,NA
audio-instructions,33,279470,0.0-7.1-0.1,voc_e2,12259,"[{""event"":""fullscreenenter"",""trial"":1,""time"":3639},{""event"":""blur"",""trial"":1,""time"":4621},{""event"":""focus"",""trial"":2,""time"":11086},{""event"":""fullscreenexit"",""trial"":3,""time"":13334}]",NA,697.3000001907349,static/audio/instructions15.wav,NA,0,NA,NA,NA,NA,NA,NA,NA,NA,NA,NA,NA,NA,NA,NA,NA,NA,NA,NA,NA,NA,NA,NA,NA,NA,NA
audio-instructions,34,291234,0.0-7.1-1.1,voc_e2,12259,"[{""event"":""fullscreenenter"",""trial"":1,""time"":3639},{""event"":""blur"",""trial"":1,""time"":4621},{""event"":""focus"",""trial"":2,""time"":11086},{""event"":""fullscreenexit"",""trial"":3,""time"":13334}]",NA,4936.800000190735,static/audio/instructions16.wav,NA,0,NA,NA,NA,NA,NA,NA,NA,NA,NA,NA,NA,NA,NA,NA,NA,NA,NA,NA,NA,NA,NA,NA,NA,NA,NA
audio-instructions,35,299375,0.0-7.1-2.1,voc_e2,12259,"[{""event"":""fullscreenenter"",""trial"":1,""time"":3639},{""event"":""blur"",""trial"":1,""time"":4621},{""event"":""focus"",""trial"":2,""time"":11086},{""event"":""fullscreenexit"",""trial"":3,""time"":13334}]",NA,454.90000009536743,static/audio/instructions17.wav,NA,0,NA,NA,NA,NA,NA,NA,NA,NA,NA,NA,NA,NA,NA,NA,NA,NA,NA,NA,NA,NA,NA,NA,NA,NA,NA
audio-instructions,36,307551,0.0-7.1-3.1,voc_e2,12259,"[{""event"":""fullscreenenter"",""trial"":1,""time"":3639},{""event"":""blur"",""trial"":1,""time"":4621},{""event"":""focus"",""trial"":2,""time"":11086},{""event"":""fullscreenexit"",""trial"":3,""time"":13334}]",NA,410.40000009536743,static/audio/instructions18.wav,NA,0,NA,NA,NA,NA,NA,NA,NA,NA,NA,NA,NA,NA,NA,NA,NA,NA,NA,NA,NA,NA,NA,NA,NA,NA,NA
audio-instructions,37,314916,0.0-7.1-4.1,voc_e2,12259,"[{""event"":""fullscreenenter"",""trial"":1,""time"":3639},{""event"":""blur"",""trial"":1,""time"":4621},{""event"":""focus"",""trial"":2,""time"":11086},{""event"":""fullscreenexit"",""trial"":3,""time"":13334}]",NA,623.4000000953674,static/audio/instructions19.wav,NA,0,NA,NA,NA,NA,NA,NA,NA,NA,NA,NA,NA,NA,NA,NA,NA,NA,NA,NA,NA,NA,NA,NA,NA,NA,NA
fcp-comprehension,38,351013,0.0-7.1-5.1,voc_e2,12259,"[{""event"":""fullscreenenter"",""trial"":1,""time"":3639},{""event"":""blur"",""trial"":1,""time"":4621},{""event"":""focus"",""trial"":2,""time"":11086},{""event"":""fullscreenexit"",""trial"":3,""time"":13334}]",NA,36091.2000002861,NA,NA,NA,NA,NA,NA,NA,NA,NA,NA,NA,NA,NA,NA,NA,NA,NA,NA,"false,false,false,true",0,NA,NA,NA,NA,NA,NA,NA,NA
audio-instructions,39,361083,0.0-8.0,voc_e2,12259,"[{""event"":""fullscreenenter"",""trial"":1,""time"":3639},{""event"":""blur"",""trial"":1,""time"":4621},{""event"":""focus"",""trial"":2,""time"":11086},{""event"":""fullscreenexit"",""trial"":3,""time"":13334}]",NA,814.9000000953674,static/audio/ready.wav,NA,0,NA,NA,NA,NA,NA,NA,NA,NA,NA,NA,NA,NA,NA,NA,NA,NA,NA,NA,NA,NA,NA,NA,NA,NA,NA
fcp-trial,40,364689,0.0-9.0-0.0,voc_e2,12259,"[{""event"":""fullscreenenter"",""trial"":1,""time"":3639},{""event"":""blur"",""trial"":1,""time"":4621},{""event"":""focus"",""trial"":2,""time"":11086},{""event"":""fullscreenexit"",""trial"":3,""time"":13334}]",NA,NA,NA,NA,NA,2,#D89F1C,#3386FF,10,0,1,38,1,1448.5999999046326,39,0,641.9000000953674,0,0,experiment,NA,NA,0,0.9,0.1,0,1,1,1,NA
fcp-trial,41,368354,0.0-10.0-0.0,voc_e2,12259,"[{""event"":""fullscreenenter"",""trial"":1,""time"":3639},{""event"":""blur"",""trial"":1,""time"":4621},{""event"":""focus"",""trial"":2,""time"":11086},{""event"":""fullscreenexit"",""trial"":3,""time"":13334}]",NA,NA,NA,NA,NA,4,#3386FF,#D89F1C,0,10,0,40,0,1578,37,1,580.7999997138977,0,0,experiment,NA,NA,0,0.1,0.9,1,0,2,1,NA
fcp-trial,42,370778,0.0-11.0-0.0,voc_e2,12259,"[{""event"":""fullscreenenter"",""trial"":1,""time"":3639},{""event"":""blur"",""trial"":1,""time"":4621},{""event"":""focus"",""trial"":2,""time"":11086},{""event"":""fullscreenexit"",""trial"":3,""time"":13334}]",NA,NA,NA,NA,NA,0,#D89F1C,#3386FF,0,0,1,38,1,421.5,39,0,495.30000019073486,0,0,experiment,NA,NA,0,0.9,0.1,0,1,3,1,NA
fcp-trial,43,372966,0.0-12.0-0.0,voc_e2,12259,"[{""event"":""fullscreenenter"",""trial"":1,""time"":3639},{""event"":""blur"",""trial"":1,""time"":4621},{""event"":""focus"",""trial"":2,""time"":11086},{""event"":""fullscreenexit"",""trial"":3,""time"":13334}]",NA,NA,NA,NA,NA,4,#FA92F8,#1CD855,10,0,1,38,1,271,37,1,410.30000019073486,10,1,experiment,NA,NA,1,0.7,0.3,2,3,4,1,NA
fcp-trial,44,375077,0.0-13.0-0.0,voc_e2,12259,"[{""event"":""fullscreenenter"",""trial"":1,""time"":3639},{""event"":""blur"",""trial"":1,""time"":4621},{""event"":""focus"",""trial"":2,""time"":11086},{""event"":""fullscreenexit"",""trial"":3,""time"":13334}]",NA,NA,NA,NA,NA,1,#741CD8,#D8271C,10,0,0,38,1,289,37,1,316.40000009536743,10,0,experiment,NA,NA,2,0.5,0.5,5,4,5,1,NA
fcp-trial,45,377193,0.0-14.0-0.0,voc_e2,12259,"[{""event"":""fullscreenenter"",""trial"":1,""time"":3639},{""event"":""blur"",""trial"":1,""time"":4621},{""event"":""focus"",""trial"":2,""time"":11086},{""event"":""fullscreenexit"",""trial"":3,""time"":13334}]",NA,NA,NA,NA,NA,2,#FA92F8,#1CD855,0,10,1,38,1,222.59999990463257,37,1,388.19999980926514,0,1,experiment,NA,NA,1,0.7,0.3,2,3,6,1,NA
fcp-trial,46,379545,0.0-15.0-0.0,voc_e2,12259,"[{""event"":""fullscreenenter"",""trial"":1,""time"":3639},{""event"":""blur"",""trial"":1,""time"":4621},{""event"":""focus"",""trial"":2,""time"":11086},{""event"":""fullscreenexit"",""trial"":3,""time"":13334}]",NA,NA,NA,NA,NA,6,#741CD8,#D8271C,0,0,0,40,0,331.40000009536743,39,0,514.8000001907349,0,1,experiment,NA,NA,2,0.5,0.5,5,4,7,1,NA
fcp-trial,47,381884,0.0-16.0-0.0,voc_e2,12259,"[{""event"":""fullscreenenter"",""trial"":1,""time"":3639},{""event"":""blur"",""trial"":1,""time"":4621},{""event"":""focus"",""trial"":2,""time"":11086},{""event"":""fullscreenexit"",""trial"":3,""time"":13334}]",NA,NA,NA,NA,NA,1,#D89F1C,#3386FF,10,0,1,38,1,314.80000019073486,39,0,516.9000000953674,0,0,experiment,NA,NA,0,0.9,0.1,0,1,8,1,NA
fcp-trial,48,383852,0.0-17.0-0.0,voc_e2,12259,"[{""event"":""fullscreenenter"",""trial"":1,""time"":3639},{""event"":""blur"",""trial"":1,""time"":4621},{""event"":""focus"",""trial"":2,""time"":11086},{""event"":""fullscreenexit"",""trial"":3,""time"":13334}]",NA,NA,NA,NA,NA,6,#3386FF,#D89F1C,10,0,0,38,1,205.90000009536743,37,1,255.40000009536743,10,0,experiment,NA,NA,0,0.1,0.9,1,0,9,1,NA
fcp-trial,49,386283,0.0-18.0-0.0,voc_e2,12259,"[{""event"":""fullscreenenter"",""trial"":1,""time"":3639},{""event"":""blur"",""trial"":1,""time"":4621},{""event"":""focus"",""trial"":2,""time"":11086},{""event"":""fullscreenexit"",""trial"":3,""time"":13334}]",NA,NA,NA,NA,NA,5,#FA92F8,#1CD855,0,0,1,38,1,267.5,37,1,656.5999999046326,0,1,experiment,NA,NA,1,0.7,0.3,2,3,10,1,NA
fcp-trial,50,388420,0.0-19.0-0.0,voc_e2,12259,"[{""event"":""fullscreenenter"",""trial"":1,""time"":3639},{""event"":""blur"",""trial"":1,""time"":4621},{""event"":""focus"",""trial"":2,""time"":11086},{""event"":""fullscreenexit"",""trial"":3,""time"":13334}]",NA,NA,NA,NA,NA,4,#D8271C,#741CD8,0,0,1,38,1,299.19999980926514,37,1,331.5,0,1,experiment,NA,NA,2,0.5,0.5,4,5,11,1,NA
fcp-trial,51,390842,0.0-20.0-0.0,voc_e2,12259,"[{""event"":""fullscreenenter"",""trial"":1,""time"":3639},{""event"":""blur"",""trial"":1,""time"":4621},{""event"":""focus"",""trial"":2,""time"":11086},{""event"":""fullscreenexit"",""trial"":3,""time"":13334}]",NA,NA,NA,NA,NA,2,#741CD8,#D8271C,10,0,0,38,1,238,39,0,678.4000000953674,0,1,experiment,NA,NA,2,0.5,0.5,5,4,12,1,NA
fcp-trial,52,393343,0.0-21.0-0.0,voc_e2,12259,"[{""event"":""fullscreenenter"",""trial"":1,""time"":3639},{""event"":""blur"",""trial"":1,""time"":4621},{""event"":""focus"",""trial"":2,""time"":11086},{""event"":""fullscreenexit"",""trial"":3,""time"":13334}]",NA,NA,NA,NA,NA,0,#FA92F8,#1CD855,10,0,1,40,0,329.90000009536743,39,0,666.0999999046326,0,0,experiment,NA,NA,1,0.7,0.3,2,3,13,1,NA
fcp-trial,53,395533,0.0-22.0-0.0,voc_e2,12259,"[{""event"":""fullscreenenter"",""trial"":1,""time"":3639},{""event"":""blur"",""trial"":1,""time"":4621},{""event"":""focus"",""trial"":2,""time"":11086},{""event"":""fullscreenexit"",""trial"":3,""time"":13334}]",NA,NA,NA,NA,NA,5,#D89F1C,#3386FF,10,0,1,38,1,380.5,37,1,302.80000019073486,10,1,experiment,NA,NA,0,0.9,0.1,0,1,14,1,NA
fcp-trial,54,397667,0.0-23.0-0.0,voc_e2,12259,"[{""event"":""fullscreenenter"",""trial"":1,""time"":3639},{""event"":""blur"",""trial"":1,""time"":4621},{""event"":""focus"",""trial"":2,""time"":11086},{""event"":""fullscreenexit"",""trial"":3,""time"":13334}]",NA,NA,NA,NA,NA,6,#1CD855,#FA92F8,0,10,0,38,1,314.7999997138977,37,1,312.90000009536743,0,0,experiment,NA,NA,1,0.3,0.7,3,2,15,1,NA
fcp-trial,55,399727,0.0-24.0-0.0,voc_e2,12259,"[{""event"":""fullscreenenter"",""trial"":1,""time"":3639},{""event"":""blur"",""trial"":1,""time"":4621},{""event"":""focus"",""trial"":2,""time"":11086},{""event"":""fullscreenexit"",""trial"":3,""time"":13334}]",NA,NA,NA,NA,NA,3,#D8271C,#741CD8,10,10,1,38,1,267,39,0,288.2999997138977,10,0,experiment,NA,NA,2,0.5,0.5,4,5,16,1,NA
fcp-trial,56,402057,0.0-25.0-0.0,voc_e2,12259,"[{""event"":""fullscreenenter"",""trial"":1,""time"":3639},{""event"":""blur"",""trial"":1,""time"":4621},{""event"":""focus"",""trial"":2,""time"":11086},{""event"":""fullscreenexit"",""trial"":3,""time"":13334}]",NA,NA,NA,NA,NA,1,#1CD855,#FA92F8,10,10,0,38,1,244.30000019073486,39,0,581.4000000953674,10,1,experiment,NA,NA,1,0.3,0.7,3,2,17,1,NA
fcp-trial,57,404294,0.0-26.0-0.0,voc_e2,12259,"[{""event"":""fullscreenenter"",""trial"":1,""time"":3639},{""event"":""blur"",""trial"":1,""time"":4621},{""event"":""focus"",""trial"":2,""time"":11086},{""event"":""fullscreenexit"",""trial"":3,""time"":13334}]",NA,NA,NA,NA,NA,3,#1CD855,#FA92F8,0,10,0,38,1,409,39,0,324.69999980926514,10,1,experiment,NA,NA,1,0.3,0.7,3,2,18,1,NA
fcp-trial,58,406858,0.0-27.0-0.0,voc_e2,12259,"[{""event"":""fullscreenenter"",""trial"":1,""time"":3639},{""event"":""blur"",""trial"":1,""time"":4621},{""event"":""focus"",""trial"":2,""time"":11086},{""event"":""fullscreenexit"",""trial"":3,""time"":13334}]",NA,NA,NA,NA,NA,3,#3386FF,#D89F1C,0,10,0,38,1,628.9000000953674,37,1,429.90000009536743,0,0,experiment,NA,NA,0,0.1,0.9,1,0,19,1,NA
fcp-trial,59,408977,0.0-28.0-0.0,voc_e2,12259,"[{""event"":""fullscreenenter"",""trial"":1,""time"":3639},{""event"":""blur"",""trial"":1,""time"":4621},{""event"":""focus"",""trial"":2,""time"":11086},{""event"":""fullscreenexit"",""trial"":3,""time"":13334}]",NA,NA,NA,NA,NA,0,#741CD8,#D8271C,0,0,0,38,1,335,39,0,278.09999990463257,0,1,experiment,NA,NA,2,0.5,0.5,5,4,20,1,NA
fcp-trial,60,411043,0.0-29.0-0.0,voc_e2,12259,"[{""event"":""fullscreenenter"",""trial"":1,""time"":3639},{""event"":""blur"",""trial"":1,""time"":4621},{""event"":""focus"",""trial"":2,""time"":11086},{""event"":""fullscreenexit"",""trial"":3,""time"":13334}]",NA,NA,NA,NA,NA,5,#741CD8,#D8271C,0,0,0,38,1,285.6000003814697,37,1,274,0,0,experiment,NA,NA,2,0.5,0.5,5,4,21,1,NA
fcp-trial,61,413648,0.0-30.0-0.0,voc_e2,12259,"[{""event"":""fullscreenenter"",""trial"":1,""time"":3639},{""event"":""blur"",""trial"":1,""time"":4621},{""event"":""focus"",""trial"":2,""time"":11086},{""event"":""fullscreenexit"",""trial"":3,""time"":13334}]",NA,NA,NA,NA,NA,0,#1CD855,#FA92F8,0,10,0,38,1,789.4000000953674,39,0,309.09999990463257,10,1,experiment,NA,NA,1,0.3,0.7,3,2,22,1,NA
fcp-trial,62,416194,0.0-31.0-0.0,voc_e2,12259,"[{""event"":""fullscreenenter"",""trial"":1,""time"":3639},{""event"":""blur"",""trial"":1,""time"":4621},{""event"":""focus"",""trial"":2,""time"":11086},{""event"":""fullscreenexit"",""trial"":3,""time"":13334}]",NA,NA,NA,NA,NA,6,#3386FF,#D89F1C,0,0,0,38,1,626.0999999046326,39,0,413.80000019073486,0,1,experiment,NA,NA,0,0.1,0.9,1,0,23,1,NA
fcp-trial,63,418644,0.0-32.0-0.0,voc_e2,12259,"[{""event"":""fullscreenenter"",""trial"":1,""time"":3639},{""event"":""blur"",""trial"":1,""time"":4621},{""event"":""focus"",""trial"":2,""time"":11086},{""event"":""fullscreenexit"",""trial"":3,""time"":13334}]",NA,NA,NA,NA,NA,5,#741CD8,#D8271C,10,10,0,38,1,585.8000001907349,37,1,357.1000003814697,10,0,experiment,NA,NA,2,0.5,0.5,5,4,24,1,NA
fcp-trial,64,421320,0.0-33.0-0.0,voc_e2,12259,"[{""event"":""fullscreenenter"",""trial"":1,""time"":3639},{""event"":""blur"",""trial"":1,""time"":4621},{""event"":""focus"",""trial"":2,""time"":11086},{""event"":""fullscreenexit"",""trial"":3,""time"":13334}]",NA,NA,NA,NA,NA,1,#741CD8,#D8271C,10,10,0,38,1,561.2999997138977,37,1,611.3999996185303,10,0,experiment,NA,NA,2,0.5,0.5,5,4,25,1,NA
fcp-trial,65,424583,0.0-34.0-0.0,voc_e2,12259,"[{""event"":""fullscreenenter"",""trial"":1,""time"":3639},{""event"":""blur"",""trial"":1,""time"":4621},{""event"":""focus"",""trial"":2,""time"":11086},{""event"":""fullscreenexit"",""trial"":3,""time"":13334}]",NA,NA,NA,NA,NA,3,#D89F1C,#3386FF,10,0,1,40,0,1220.3000001907349,37,1,537.3000001907349,10,1,experiment,NA,NA,0,0.9,0.1,0,1,26,1,NA
fcp-trial,66,427138,0.0-35.0-0.0,voc_e2,12259,"[{""event"":""fullscreenenter"",""trial"":1,""time"":3639},{""event"":""blur"",""trial"":1,""time"":4621},{""event"":""focus"",""trial"":2,""time"":11086},{""event"":""fullscreenexit"",""trial"":3,""time"":13334}]",NA,NA,NA,NA,NA,4,#FA92F8,#1CD855,10,0,1,38,1,766.4000000953674,37,1,280.8999996185303,10,1,experiment,NA,NA,1,0.7,0.3,2,3,27,1,NA
fcp-trial,67,430020,0.0-36.0-0.0,voc_e2,12259,"[{""event"":""fullscreenenter"",""trial"":1,""time"":3639},{""event"":""blur"",""trial"":1,""time"":4621},{""event"":""focus"",""trial"":2,""time"":11086},{""event"":""fullscreenexit"",""trial"":3,""time"":13334}]",NA,NA,NA,NA,NA,0,#741CD8,#D8271C,10,10,0,38,1,901.5,37,1,472.7999997138977,10,0,experiment,NA,NA,2,0.5,0.5,5,4,28,1,NA
fcp-trial,68,432892,0.0-37.0-0.0,voc_e2,12259,"[{""event"":""fullscreenenter"",""trial"":1,""time"":3639},{""event"":""blur"",""trial"":1,""time"":4621},{""event"":""focus"",""trial"":2,""time"":11086},{""event"":""fullscreenexit"",""trial"":3,""time"":13334}]",NA,NA,NA,NA,NA,1,#D89F1C,#3386FF,10,0,1,38,1,730.8000001907349,39,0,635.5999999046326,0,0,experiment,NA,NA,0,0.9,0.1,0,1,29,1,NA
fcp-trial,69,435436,0.0-38.0-0.0,voc_e2,12259,"[{""event"":""fullscreenenter"",""trial"":1,""time"":3639},{""event"":""blur"",""trial"":1,""time"":4621},{""event"":""focus"",""trial"":2,""time"":11086},{""event"":""fullscreenexit"",""trial"":3,""time"":13334}]",NA,NA,NA,NA,NA,6,#1CD855,#FA92F8,0,10,0,38,1,646.3000001907349,39,0,392.30000019073486,10,1,experiment,NA,NA,1,0.3,0.7,3,2,30,1,NA
fcp-trial,70,437859,0.0-39.0-0.0,voc_e2,12259,"[{""event"":""fullscreenenter"",""trial"":1,""time"":3639},{""event"":""blur"",""trial"":1,""time"":4621},{""event"":""focus"",""trial"":2,""time"":11086},{""event"":""fullscreenexit"",""trial"":3,""time"":13334}]",NA,NA,NA,NA,NA,1,#FA92F8,#1CD855,0,10,1,38,1,640.0999999046326,37,1,276.19999980926514,0,1,experiment,NA,NA,1,0.7,0.3,2,3,31,1,NA
fcp-trial,71,440733,0.0-40.0-0.0,voc_e2,12259,"[{""event"":""fullscreenenter"",""trial"":1,""time"":3639},{""event"":""blur"",""trial"":1,""time"":4621},{""event"":""focus"",""trial"":2,""time"":11086},{""event"":""fullscreenexit"",""trial"":3,""time"":13334}]",NA,NA,NA,NA,NA,6,#741CD8,#D8271C,0,0,0,38,1,729.7999997138977,37,1,635.7999997138977,0,0,experiment,NA,NA,2,0.5,0.5,5,4,32,1,NA
fcp-trial,72,443892,0.0-41.0-0.0,voc_e2,12259,"[{""event"":""fullscreenenter"",""trial"":1,""time"":3639},{""event"":""blur"",""trial"":1,""time"":4621},{""event"":""focus"",""trial"":2,""time"":11086},{""event"":""fullscreenexit"",""trial"":3,""time"":13334}]",NA,NA,NA,NA,NA,2,#3386FF,#D89F1C,0,10,0,40,0,1140.3000001907349,37,1,513.1999998092651,0,0,experiment,NA,NA,0,0.1,0.9,1,0,33,1,NA
fcp-trial,73,446669,0.0-42.0-0.0,voc_e2,12259,"[{""event"":""fullscreenenter"",""trial"":1,""time"":3639},{""event"":""blur"",""trial"":1,""time"":4621},{""event"":""focus"",""trial"":2,""time"":11086},{""event"":""fullscreenexit"",""trial"":3,""time"":13334}]",NA,NA,NA,NA,NA,4,#D8271C,#741CD8,0,0,1,38,1,801,37,1,469.40000009536743,0,1,experiment,NA,NA,2,0.5,0.5,4,5,34,1,NA
fcp-trial,74,449075,0.0-43.0-0.0,voc_e2,12259,"[{""event"":""fullscreenenter"",""trial"":1,""time"":3639},{""event"":""blur"",""trial"":1,""time"":4621},{""event"":""focus"",""trial"":2,""time"":11086},{""event"":""fullscreenexit"",""trial"":3,""time"":13334}]",NA,NA,NA,NA,NA,5,#1CD855,#FA92F8,0,0,0,38,1,592.0999999046326,39,0,307.90000009536743,0,1,experiment,NA,NA,1,0.3,0.7,3,2,35,1,NA
fcp-trial,75,451455,0.0-44.0-0.0,voc_e2,12259,"[{""event"":""fullscreenenter"",""trial"":1,""time"":3639},{""event"":""blur"",""trial"":1,""time"":4621},{""event"":""focus"",""trial"":2,""time"":11086},{""event"":""fullscreenexit"",""trial"":3,""time"":13334}]",NA,NA,NA,NA,NA,2,#D8271C,#741CD8,0,10,1,38,1,462.90000009536743,37,1,412,0,1,experiment,NA,NA,2,0.5,0.5,4,5,36,1,NA
fcp-trial,76,453695,0.0-45.0-0.0,voc_e2,12259,"[{""event"":""fullscreenenter"",""trial"":1,""time"":3639},{""event"":""blur"",""trial"":1,""time"":4621},{""event"":""focus"",""trial"":2,""time"":11086},{""event"":""fullscreenexit"",""trial"":3,""time"":13334}]",NA,NA,NA,NA,NA,5,#D89F1C,#3386FF,10,0,1,38,1,415.09999990463257,37,1,316.30000019073486,10,1,experiment,NA,NA,0,0.9,0.1,0,1,37,1,NA
fcp-trial,77,455894,0.0-46.0-0.0,voc_e2,12259,"[{""event"":""fullscreenenter"",""trial"":1,""time"":3639},{""event"":""blur"",""trial"":1,""time"":4621},{""event"":""focus"",""trial"":2,""time"":11086},{""event"":""fullscreenexit"",""trial"":3,""time"":13334}]",NA,NA,NA,NA,NA,4,#D89F1C,#3386FF,10,0,1,38,1,415.90000009536743,37,1,277.09999990463257,10,1,experiment,NA,NA,0,0.9,0.1,0,1,38,1,NA
fcp-trial,78,458393,0.0-47.0-0.0,voc_e2,12259,"[{""event"":""fullscreenenter"",""trial"":1,""time"":3639},{""event"":""blur"",""trial"":1,""time"":4621},{""event"":""focus"",""trial"":2,""time"":11086},{""event"":""fullscreenexit"",""trial"":3,""time"":13334}]",NA,NA,NA,NA,NA,0,#3386FF,#D89F1C,0,0,0,38,1,444.59999990463257,39,0,550.4000000953674,0,1,experiment,NA,NA,0,0.1,0.9,1,0,39,1,NA
fcp-trial,79,460789,0.0-48.0-0.0,voc_e2,12259,"[{""event"":""fullscreenenter"",""trial"":1,""time"":3639},{""event"":""blur"",""trial"":1,""time"":4621},{""event"":""focus"",""trial"":2,""time"":11086},{""event"":""fullscreenexit"",""trial"":3,""time"":13334}]",NA,NA,NA,NA,NA,2,#FA92F8,#1CD855,10,0,1,38,1,394.80000019073486,37,1,495.69999980926514,10,1,experiment,NA,NA,1,0.7,0.3,2,3,40,1,NA
fcp-trial,80,463324,0.0-49.0-0.0,voc_e2,12259,"[{""event"":""fullscreenenter"",""trial"":1,""time"":3639},{""event"":""blur"",""trial"":1,""time"":4621},{""event"":""focus"",""trial"":2,""time"":11086},{""event"":""fullscreenexit"",""trial"":3,""time"":13334}]",NA,NA,NA,NA,NA,3,#741CD8,#D8271C,10,10,0,38,1,564.9000000953674,37,1,464,10,0,experiment,NA,NA,2,0.5,0.5,5,4,41,1,NA
fcp-trial,81,465559,0.0-50.0-0.0,voc_e2,12259,"[{""event"":""fullscreenenter"",""trial"":1,""time"":3639},{""event"":""blur"",""trial"":1,""time"":4621},{""event"":""focus"",""trial"":2,""time"":11086},{""event"":""fullscreenexit"",""trial"":3,""time"":13334}]",NA,NA,NA,NA,NA,3,#FA92F8,#1CD855,10,0,1,38,1,466.5,37,1,261.6000003814697,10,1,experiment,NA,NA,1,0.7,0.3,2,3,42,1,NA
fcp-trial,82,467835,0.0-51.0-0.0,voc_e2,12259,"[{""event"":""fullscreenenter"",""trial"":1,""time"":3639},{""event"":""blur"",""trial"":1,""time"":4621},{""event"":""focus"",""trial"":2,""time"":11086},{""event"":""fullscreenexit"",""trial"":3,""time"":13334}]",NA,NA,NA,NA,NA,0,#FA92F8,#1CD855,10,0,1,38,1,486.09999990463257,37,1,284.5,10,1,experiment,NA,NA,1,0.7,0.3,2,3,43,1,NA
fcp-trial,83,470633,0.0-52.0-0.0,voc_e2,12259,"[{""event"":""fullscreenenter"",""trial"":1,""time"":3639},{""event"":""blur"",""trial"":1,""time"":4621},{""event"":""focus"",""trial"":2,""time"":11086},{""event"":""fullscreenexit"",""trial"":3,""time"":13334}]",NA,NA,NA,NA,NA,5,#D8271C,#741CD8,10,10,1,38,1,386.69999980926514,39,0,905.1000003814696,10,0,experiment,NA,NA,2,0.5,0.5,4,5,44,1,NA
fcp-trial,84,473298,0.0-53.0-0.0,voc_e2,12259,"[{""event"":""fullscreenenter"",""trial"":1,""time"":3639},{""event"":""blur"",""trial"":1,""time"":4621},{""event"":""focus"",""trial"":2,""time"":11086},{""event"":""fullscreenexit"",""trial"":3,""time"":13334}]",NA,NA,NA,NA,NA,0,#3386FF,#D89F1C,0,10,0,38,1,580.5,39,0,577.7999997138977,10,1,experiment,NA,NA,0,0.1,0.9,1,0,45,1,NA
fcp-trial,85,475816,0.0-54.0-0.0,voc_e2,12259,"[{""event"":""fullscreenenter"",""trial"":1,""time"":3639},{""event"":""blur"",""trial"":1,""time"":4621},{""event"":""focus"",""trial"":2,""time"":11086},{""event"":""fullscreenexit"",""trial"":3,""time"":13334}]",NA,NA,NA,NA,NA,6,#D8271C,#741CD8,0,10,1,38,1,656.2999997138977,39,0,355.90000009536743,10,0,experiment,NA,NA,2,0.5,0.5,4,5,46,2,NA
fcp-trial,86,478170,0.0-55.0-0.0,voc_e2,12259,"[{""event"":""fullscreenenter"",""trial"":1,""time"":3639},{""event"":""blur"",""trial"":1,""time"":4621},{""event"":""focus"",""trial"":2,""time"":11086},{""event"":""fullscreenexit"",""trial"":3,""time"":13334}]",NA,NA,NA,NA,NA,1,#741CD8,#D8271C,0,0,0,38,1,550.0999999046326,37,1,297.7999997138977,0,0,experiment,NA,NA,2,0.5,0.5,5,4,47,2,NA
fcp-trial,87,480595,0.0-56.0-0.0,voc_e2,12259,"[{""event"":""fullscreenenter"",""trial"":1,""time"":3639},{""event"":""blur"",""trial"":1,""time"":4621},{""event"":""focus"",""trial"":2,""time"":11086},{""event"":""fullscreenexit"",""trial"":3,""time"":13334}]",NA,NA,NA,NA,NA,6,#1CD855,#FA92F8,0,10,0,38,1,646.7000002861023,39,0,272.69999980926514,10,1,experiment,NA,NA,1,0.3,0.7,3,2,48,2,NA
fcp-trial,88,482962,0.0-57.0-0.0,voc_e2,12259,"[{""event"":""fullscreenenter"",""trial"":1,""time"":3639},{""event"":""blur"",""trial"":1,""time"":4621},{""event"":""focus"",""trial"":2,""time"":11086},{""event"":""fullscreenexit"",""trial"":3,""time"":13334}]",NA,NA,NA,NA,NA,3,#FA92F8,#1CD855,10,10,1,38,1,559.4000000953674,37,1,299.5,10,1,experiment,NA,NA,1,0.7,0.3,2,3,49,2,NA
fcp-trial,89,485733,0.0-58.0-0.0,voc_e2,12259,"[{""event"":""fullscreenenter"",""trial"":1,""time"":3639},{""event"":""blur"",""trial"":1,""time"":4621},{""event"":""focus"",""trial"":2,""time"":11086},{""event"":""fullscreenexit"",""trial"":3,""time"":13334}]",NA,NA,NA,NA,NA,6,#3386FF,#D89F1C,10,10,0,38,1,727,39,0,537,10,1,experiment,NA,NA,0,0.1,0.9,1,0,50,2,NA
fcp-trial,90,488185,0.0-59.0-0.0,voc_e2,12259,"[{""event"":""fullscreenenter"",""trial"":1,""time"":3639},{""event"":""blur"",""trial"":1,""time"":4621},{""event"":""focus"",""trial"":2,""time"":11086},{""event"":""fullscreenexit"",""trial"":3,""time"":13334}]",NA,NA,NA,NA,NA,2,#1CD855,#FA92F8,0,10,0,38,1,406.69999980926514,39,0,539,10,1,experiment,NA,NA,1,0.3,0.7,3,2,51,2,NA
fcp-trial,91,490368,0.0-60.0-0.0,voc_e2,12259,"[{""event"":""fullscreenenter"",""trial"":1,""time"":3639},{""event"":""blur"",""trial"":1,""time"":4621},{""event"":""focus"",""trial"":2,""time"":11086},{""event"":""fullscreenexit"",""trial"":3,""time"":13334}]",NA,NA,NA,NA,NA,0,#741CD8,#D8271C,10,10,0,38,1,300.6000003814697,37,1,373.90000009536743,10,0,experiment,NA,NA,2,0.5,0.5,5,4,52,2,NA
fcp-trial,92,492561,0.0-61.0-0.0,voc_e2,12259,"[{""event"":""fullscreenenter"",""trial"":1,""time"":3639},{""event"":""blur"",""trial"":1,""time"":4621},{""event"":""focus"",""trial"":2,""time"":11086},{""event"":""fullscreenexit"",""trial"":3,""time"":13334}]",NA,NA,NA,NA,NA,3,#D89F1C,#3386FF,10,0,1,38,1,252.40000009536743,39,0,433.2000002861023,0,0,experiment,NA,NA,0,0.9,0.1,0,1,53,2,NA
fcp-trial,93,494990,0.0-62.0-0.0,voc_e2,12259,"[{""event"":""fullscreenenter"",""trial"":1,""time"":3639},{""event"":""blur"",""trial"":1,""time"":4621},{""event"":""focus"",""trial"":2,""time"":11086},{""event"":""fullscreenexit"",""trial"":3,""time"":13334}]",NA,NA,NA,NA,NA,1,#FA92F8,#1CD855,0,0,1,40,0,419.40000009536743,39,0,504.90000009536743,0,0,experiment,NA,NA,1,0.7,0.3,2,3,54,2,NA
fcp-trial,94,498774,0.0-63.0-0.0,voc_e2,12259,"[{""event"":""fullscreenenter"",""trial"":1,""time"":3639},{""event"":""blur"",""trial"":1,""time"":4621},{""event"":""focus"",""trial"":2,""time"":11086},{""event"":""fullscreenexit"",""trial"":3,""time"":13334}]",NA,NA,NA,NA,NA,2,#3386FF,#D89F1C,10,10,0,38,1,1424.2999997138977,39,0,854.3000001907349,10,1,experiment,NA,NA,0,0.1,0.9,1,0,55,2,NA
fcp-trial,95,501237,0.0-64.0-0.0,voc_e2,12259,"[{""event"":""fullscreenenter"",""trial"":1,""time"":3639},{""event"":""blur"",""trial"":1,""time"":4621},{""event"":""focus"",""trial"":2,""time"":11086},{""event"":""fullscreenexit"",""trial"":3,""time"":13334}]",NA,NA,NA,NA,NA,4,#D8271C,#741CD8,0,0,1,38,1,652.9000000953674,39,0,301.8999996185303,0,0,experiment,NA,NA,2,0.5,0.5,4,5,56,2,NA
fcp-trial,96,503403,0.0-65.0-0.0,voc_e2,12259,"[{""event"":""fullscreenenter"",""trial"":1,""time"":3639},{""event"":""blur"",""trial"":1,""time"":4621},{""event"":""focus"",""trial"":2,""time"":11086},{""event"":""fullscreenexit"",""trial"":3,""time"":13334}]",NA,NA,NA,NA,NA,4,#FA92F8,#1CD855,10,10,1,38,1,368.5,37,1,291,10,1,experiment,NA,NA,1,0.7,0.3,2,3,57,2,NA
fcp-trial,97,505640,0.0-66.0-0.0,voc_e2,12259,"[{""event"":""fullscreenenter"",""trial"":1,""time"":3639},{""event"":""blur"",""trial"":1,""time"":4621},{""event"":""focus"",""trial"":2,""time"":11086},{""event"":""fullscreenexit"",""trial"":3,""time"":13334}]",NA,NA,NA,NA,NA,5,#D89F1C,#3386FF,10,0,1,38,1,153.60000038146973,37,1,577.0999999046326,10,1,experiment,NA,NA,0,0.9,0.1,0,1,58,2,NA
fcp-trial,98,508318,0.0-67.0-0.0,voc_e2,12259,"[{""event"":""fullscreenenter"",""trial"":1,""time"":3639},{""event"":""blur"",""trial"":1,""time"":4621},{""event"":""focus"",""trial"":2,""time"":11086},{""event"":""fullscreenexit"",""trial"":3,""time"":13334}]",NA,NA,NA,NA,NA,5,#1CD855,#FA92F8,0,0,0,38,1,514.5999999046326,39,0,655.7999997138977,0,1,experiment,NA,NA,1,0.3,0.7,3,2,59,2,NA
fcp-trial,99,510554,0.0-68.0-0.0,voc_e2,12259,"[{""event"":""fullscreenenter"",""trial"":1,""time"":3639},{""event"":""blur"",""trial"":1,""time"":4621},{""event"":""focus"",""trial"":2,""time"":11086},{""event"":""fullscreenexit"",""trial"":3,""time"":13334}]",NA,NA,NA,NA,NA,4,#D89F1C,#3386FF,10,0,1,38,1,333.80000019073486,37,1,393,10,1,experiment,NA,NA,0,0.9,0.1,0,1,60,2,NA
fcp-trial,100,512975,0.0-69.0-0.0,voc_e2,12259,"[{""event"":""fullscreenenter"",""trial"":1,""time"":3639},{""event"":""blur"",""trial"":1,""time"":4621},{""event"":""focus"",""trial"":2,""time"":11086},{""event"":""fullscreenexit"",""trial"":3,""time"":13334}]",NA,NA,NA,NA,NA,2,#D8271C,#741CD8,10,0,1,38,1,400,39,0,514.8000001907349,0,0,experiment,NA,NA,2,0.5,0.5,4,5,61,2,NA
fcp-trial,101,515231,0.0-70.0-0.0,voc_e2,12259,"[{""event"":""fullscreenenter"",""trial"":1,""time"":3639},{""event"":""blur"",""trial"":1,""time"":4621},{""event"":""focus"",""trial"":2,""time"":11086},{""event"":""fullscreenexit"",""trial"":3,""time"":13334}]",NA,NA,NA,NA,NA,3,#D8271C,#741CD8,10,0,1,38,1,485,37,1,264.40000009536743,10,1,experiment,NA,NA,2,0.5,0.5,4,5,62,2,NA
fcp-trial,102,517680,0.0-71.0-0.0,voc_e2,12259,"[{""event"":""fullscreenenter"",""trial"":1,""time"":3639},{""event"":""blur"",""trial"":1,""time"":4621},{""event"":""focus"",""trial"":2,""time"":11086},{""event"":""fullscreenexit"",""trial"":3,""time"":13334}]",NA,NA,NA,NA,NA,1,#3386FF,#D89F1C,0,10,0,38,1,373.59999990463257,37,1,570,0,0,experiment,NA,NA,0,0.1,0.9,1,0,63,2,NA
fcp-trial,103,519830,0.0-72.0-0.0,voc_e2,12259,"[{""event"":""fullscreenenter"",""trial"":1,""time"":3639},{""event"":""blur"",""trial"":1,""time"":4621},{""event"":""focus"",""trial"":2,""time"":11086},{""event"":""fullscreenexit"",""trial"":3,""time"":13334}]",NA,NA,NA,NA,NA,6,#3386FF,#D89F1C,0,10,0,38,1,376.90000009536743,39,0,266.7999997138977,10,1,experiment,NA,NA,0,0.1,0.9,1,0,64,2,NA
fcp-trial,104,522925,0.0-73.0-0.0,voc_e2,12259,"[{""event"":""fullscreenenter"",""trial"":1,""time"":3639},{""event"":""blur"",""trial"":1,""time"":4621},{""event"":""focus"",""trial"":2,""time"":11086},{""event"":""fullscreenexit"",""trial"":3,""time"":13334}]",NA,NA,NA,NA,NA,5,#D8271C,#741CD8,10,0,1,38,1,778.1999998092651,37,1,811.4000000953674,10,1,experiment,NA,NA,2,0.5,0.5,4,5,65,2,NA
fcp-trial,105,525656,0.0-74.0-0.0,voc_e2,12259,"[{""event"":""fullscreenenter"",""trial"":1,""time"":3639},{""event"":""blur"",""trial"":1,""time"":4621},{""event"":""focus"",""trial"":2,""time"":11086},{""event"":""fullscreenexit"",""trial"":3,""time"":13334}]",NA,NA,NA,NA,NA,4,#FA92F8,#1CD855,10,0,1,38,1,667.6999998092651,37,1,557.8000001907349,10,1,experiment,NA,NA,1,0.7,0.3,2,3,66,2,NA
fcp-trial,106,527959,0.0-75.0-0.0,voc_e2,12259,"[{""event"":""fullscreenenter"",""trial"":1,""time"":3639},{""event"":""blur"",""trial"":1,""time"":4621},{""event"":""focus"",""trial"":2,""time"":11086},{""event"":""fullscreenexit"",""trial"":3,""time"":13334}]",NA,NA,NA,NA,NA,3,#1CD855,#FA92F8,0,10,0,38,1,515.4000000953674,39,0,281.7000002861023,10,1,experiment,NA,NA,1,0.3,0.7,3,2,67,2,NA
fcp-trial,107,530943,0.0-76.0-0.0,voc_e2,12259,"[{""event"":""fullscreenenter"",""trial"":1,""time"":3639},{""event"":""blur"",""trial"":1,""time"":4621},{""event"":""focus"",""trial"":2,""time"":11086},{""event"":""fullscreenexit"",""trial"":3,""time"":13334}]",NA,NA,NA,NA,NA,0,#D89F1C,#3386FF,10,0,1,38,1,410,37,1,1068.8000001907349,10,1,experiment,NA,NA,0,0.9,0.1,0,1,68,2,NA
fcp-trial,108,533109,0.0-77.0-0.0,voc_e2,12259,"[{""event"":""fullscreenenter"",""trial"":1,""time"":3639},{""event"":""blur"",""trial"":1,""time"":4621},{""event"":""focus"",""trial"":2,""time"":11086},{""event"":""fullscreenexit"",""trial"":3,""time"":13334}]",NA,NA,NA,NA,NA,1,#FA92F8,#1CD855,10,0,1,38,1,370.7999997138977,37,1,290.7999997138977,10,1,experiment,NA,NA,1,0.7,0.3,2,3,69,2,NA
fcp-trial,109,536149,0.0-78.0-0.0,voc_e2,12259,"[{""event"":""fullscreenenter"",""trial"":1,""time"":3639},{""event"":""blur"",""trial"":1,""time"":4621},{""event"":""focus"",""trial"":2,""time"":11086},{""event"":""fullscreenexit"",""trial"":3,""time"":13334}]",NA,NA,NA,NA,NA,4,#D8271C,#741CD8,0,0,1,38,1,323,37,1,1209.8000001907349,0,1,experiment,NA,NA,2,0.5,0.5,4,5,70,2,NA
fcp-trial,110,538252,0.0-79.0-0.0,voc_e2,12259,"[{""event"":""fullscreenenter"",""trial"":1,""time"":3639},{""event"":""blur"",""trial"":1,""time"":4621},{""event"":""focus"",""trial"":2,""time"":11086},{""event"":""fullscreenexit"",""trial"":3,""time"":13334}]",NA,NA,NA,NA,NA,6,#741CD8,#D8271C,10,10,0,38,1,54,39,0,542.5,10,1,experiment,NA,NA,2,0.5,0.5,5,4,71,2,NA
fcp-trial,111,540667,0.0-80.0-0.0,voc_e2,12259,"[{""event"":""fullscreenenter"",""trial"":1,""time"":3639},{""event"":""blur"",""trial"":1,""time"":4621},{""event"":""focus"",""trial"":2,""time"":11086},{""event"":""fullscreenexit"",""trial"":3,""time"":13334}]",NA,NA,NA,NA,NA,2,#3386FF,#D89F1C,0,10,0,38,1,186.5,39,0,724,10,1,experiment,NA,NA,0,0.1,0.9,1,0,72,2,NA
fcp-trial,112,542893,0.0-81.0-0.0,voc_e2,12259,"[{""event"":""fullscreenenter"",""trial"":1,""time"":3639},{""event"":""blur"",""trial"":1,""time"":4621},{""event"":""focus"",""trial"":2,""time"":11086},{""event"":""fullscreenexit"",""trial"":3,""time"":13334}]",NA,NA,NA,NA,NA,4,#D89F1C,#3386FF,10,0,1,38,1,357.2000002861023,37,1,362.7000002861023,10,1,experiment,NA,NA,0,0.9,0.1,0,1,73,2,NA
fcp-trial,113,545376,0.0-82.0-0.0,voc_e2,12259,"[{""event"":""fullscreenenter"",""trial"":1,""time"":3639},{""event"":""blur"",""trial"":1,""time"":4621},{""event"":""focus"",""trial"":2,""time"":11086},{""event"":""fullscreenexit"",""trial"":3,""time"":13334}]",NA,NA,NA,NA,NA,6,#FA92F8,#1CD855,0,0,1,38,1,445.7999997138977,37,1,530.8999996185303,0,1,experiment,NA,NA,1,0.7,0.3,2,3,74,2,NA
fcp-trial,114,547763,0.0-83.0-0.0,voc_e2,12259,"[{""event"":""fullscreenenter"",""trial"":1,""time"":3639},{""event"":""blur"",""trial"":1,""time"":4621},{""event"":""focus"",""trial"":2,""time"":11086},{""event"":""fullscreenexit"",""trial"":3,""time"":13334}]",NA,NA,NA,NA,NA,1,#D8271C,#741CD8,0,10,1,38,1,430.30000019073486,39,0,451,10,0,experiment,NA,NA,2,0.5,0.5,4,5,75,2,NA
fcp-trial,115,550052,0.0-84.0-0.0,voc_e2,12259,"[{""event"":""fullscreenenter"",""trial"":1,""time"":3639},{""event"":""blur"",""trial"":1,""time"":4621},{""event"":""focus"",""trial"":2,""time"":11086},{""event"":""fullscreenexit"",""trial"":3,""time"":13334}]",NA,NA,NA,NA,NA,2,#D8271C,#741CD8,0,10,1,38,1,425.8999996185303,39,0,356.90000009536743,10,0,experiment,NA,NA,2,0.5,0.5,4,5,76,2,NA
fcp-trial,116,552186,0.0-85.0-0.0,voc_e2,12259,"[{""event"":""fullscreenenter"",""trial"":1,""time"":3639},{""event"":""blur"",""trial"":1,""time"":4621},{""event"":""focus"",""trial"":2,""time"":11086},{""event"":""fullscreenexit"",""trial"":3,""time"":13334}]",NA,NA,NA,NA,NA,0,#FA92F8,#1CD855,0,10,1,38,1,357,39,0,272.09999990463257,10,0,experiment,NA,NA,1,0.7,0.3,2,3,77,2,NA
fcp-trial,117,554476,0.0-86.0-0.0,voc_e2,12259,"[{""event"":""fullscreenenter"",""trial"":1,""time"":3639},{""event"":""blur"",""trial"":1,""time"":4621},{""event"":""focus"",""trial"":2,""time"":11086},{""event"":""fullscreenexit"",""trial"":3,""time"":13334}]",NA,NA,NA,NA,NA,1,#D89F1C,#3386FF,10,0,1,38,1,367.40000009536743,37,1,416.19999980926514,10,1,experiment,NA,NA,0,0.9,0.1,0,1,78,2,NA
fcp-trial,118,556751,0.0-87.0-0.0,voc_e2,12259,"[{""event"":""fullscreenenter"",""trial"":1,""time"":3639},{""event"":""blur"",""trial"":1,""time"":4621},{""event"":""focus"",""trial"":2,""time"":11086},{""event"":""fullscreenexit"",""trial"":3,""time"":13334}]",NA,NA,NA,NA,NA,3,#D89F1C,#3386FF,10,0,1,38,1,423.7999997138977,37,1,346.80000019073486,10,1,experiment,NA,NA,0,0.9,0.1,0,1,79,2,NA
fcp-trial,119,559325,0.0-88.0-0.0,voc_e2,12259,"[{""event"":""fullscreenenter"",""trial"":1,""time"":3639},{""event"":""blur"",""trial"":1,""time"":4621},{""event"":""focus"",""trial"":2,""time"":11086},{""event"":""fullscreenexit"",""trial"":3,""time"":13334}]",NA,NA,NA,NA,NA,0,#741CD8,#D8271C,10,10,0,38,1,155.90000009536743,37,1,911.5999999046326,10,0,experiment,NA,NA,2,0.5,0.5,5,4,80,2,NA
fcp-trial,120,561494,0.0-89.0-0.0,voc_e2,12259,"[{""event"":""fullscreenenter"",""trial"":1,""time"":3639},{""event"":""blur"",""trial"":1,""time"":4621},{""event"":""focus"",""trial"":2,""time"":11086},{""event"":""fullscreenexit"",""trial"":3,""time"":13334}]",NA,NA,NA,NA,NA,3,#741CD8,#D8271C,0,10,0,38,1,371.80000019073486,37,1,289.80000019073486,0,0,experiment,NA,NA,2,0.5,0.5,5,4,81,2,NA
fcp-trial,121,564156,0.0-90.0-0.0,voc_e2,12259,"[{""event"":""fullscreenenter"",""trial"":1,""time"":3639},{""event"":""blur"",""trial"":1,""time"":4621},{""event"":""focus"",""trial"":2,""time"":11086},{""event"":""fullscreenexit"",""trial"":3,""time"":13334}]",NA,NA,NA,NA,NA,5,#FA92F8,#1CD855,10,0,1,38,1,499,39,0,655.2999997138977,0,0,experiment,NA,NA,1,0.7,0.3,2,3,82,2,NA
fcp-trial,122,566758,0.0-91.0-0.0,voc_e2,12259,"[{""event"":""fullscreenenter"",""trial"":1,""time"":3639},{""event"":""blur"",""trial"":1,""time"":4621},{""event"":""focus"",""trial"":2,""time"":11086},{""event"":""fullscreenexit"",""trial"":3,""time"":13334}]",NA,NA,NA,NA,NA,5,#3386FF,#D89F1C,0,10,0,38,1,416.30000019073486,37,1,681.3000001907349,0,0,experiment,NA,NA,0,0.1,0.9,1,0,83,2,NA
fcp-trial,123,569010,0.0-92.0-0.0,voc_e2,12259,"[{""event"":""fullscreenenter"",""trial"":1,""time"":3639},{""event"":""blur"",""trial"":1,""time"":4621},{""event"":""focus"",""trial"":2,""time"":11086},{""event"":""fullscreenexit"",""trial"":3,""time"":13334}]",NA,NA,NA,NA,NA,2,#1CD855,#FA92F8,10,0,0,38,1,412.69999980926514,39,0,333,0,1,experiment,NA,NA,1,0.3,0.7,3,2,84,2,NA
fcp-trial,124,571204,0.0-93.0-0.0,voc_e2,12259,"[{""event"":""fullscreenenter"",""trial"":1,""time"":3639},{""event"":""blur"",""trial"":1,""time"":4621},{""event"":""focus"",""trial"":2,""time"":11086},{""event"":""fullscreenexit"",""trial"":3,""time"":13334}]",NA,NA,NA,NA,NA,1,#1CD855,#FA92F8,10,10,0,38,1,331.09999990463257,37,1,358.19999980926514,10,0,experiment,NA,NA,1,0.3,0.7,3,2,85,2,NA
fcp-trial,125,573820,0.0-94.0-0.0,voc_e2,12259,"[{""event"":""fullscreenenter"",""trial"":1,""time"":3639},{""event"":""blur"",""trial"":1,""time"":4621},{""event"":""focus"",""trial"":2,""time"":11086},{""event"":""fullscreenexit"",""trial"":3,""time"":13334}]",NA,NA,NA,NA,NA,0,#741CD8,#D8271C,10,10,0,38,1,434.40000009536743,39,0,674.5,10,1,experiment,NA,NA,2,0.5,0.5,5,4,86,2,NA
fcp-trial,126,576175,0.0-95.0-0.0,voc_e2,12259,"[{""event"":""fullscreenenter"",""trial"":1,""time"":3639},{""event"":""blur"",""trial"":1,""time"":4621},{""event"":""focus"",""trial"":2,""time"":11086},{""event"":""fullscreenexit"",""trial"":3,""time"":13334}]",NA,NA,NA,NA,NA,2,#D8271C,#741CD8,10,10,1,38,1,450.2000002861023,37,1,399.40000009536743,10,1,experiment,NA,NA,2,0.5,0.5,4,5,87,2,NA
fcp-trial,127,578691,0.0-96.0-0.0,voc_e2,12259,"[{""event"":""fullscreenenter"",""trial"":1,""time"":3639},{""event"":""blur"",""trial"":1,""time"":4621},{""event"":""focus"",""trial"":2,""time"":11086},{""event"":""fullscreenexit"",""trial"":3,""time"":13334}]",NA,NA,NA,NA,NA,2,#D89F1C,#3386FF,10,0,1,38,1,530.5,37,1,480.09999990463257,10,1,experiment,NA,NA,0,0.9,0.1,0,1,88,2,NA
fcp-trial,128,581027,0.0-97.0-0.0,voc_e2,12259,"[{""event"":""fullscreenenter"",""trial"":1,""time"":3639},{""event"":""blur"",""trial"":1,""time"":4621},{""event"":""focus"",""trial"":2,""time"":11086},{""event"":""fullscreenexit"",""trial"":3,""time"":13334}]",NA,NA,NA,NA,NA,1,#3386FF,#D89F1C,0,10,0,38,1,478.3999996185303,39,0,351.69999980926514,10,1,experiment,NA,NA,0,0.1,0.9,1,0,89,2,NA
fcp-trial,129,583293,0.0-98.0-0.0,voc_e2,12259,"[{""event"":""fullscreenenter"",""trial"":1,""time"":3639},{""event"":""blur"",""trial"":1,""time"":4621},{""event"":""focus"",""trial"":2,""time"":11086},{""event"":""fullscreenexit"",""trial"":3,""time"":13334}]",NA,NA,NA,NA,NA,3,#FA92F8,#1CD855,10,10,1,38,1,396.5,39,0,364,10,0,experiment,NA,NA,1,0.7,0.3,2,3,90,2,NA
fcp-trial,130,585560,0.0-99.0-0.0,voc_e2,12259,"[{""event"":""fullscreenenter"",""trial"":1,""time"":3639},{""event"":""blur"",""trial"":1,""time"":4621},{""event"":""focus"",""trial"":2,""time"":11086},{""event"":""fullscreenexit"",""trial"":3,""time"":13334}]",NA,NA,NA,NA,NA,5,#D8271C,#741CD8,0,0,1,38,1,365.6000003814697,37,1,394.5,0,1,experiment,NA,NA,2,0.5,0.5,4,5,91,3,NA
fcp-trial,131,587793,0.0-100.0-0.0,voc_e2,12259,"[{""event"":""fullscreenenter"",""trial"":1,""time"":3639},{""event"":""blur"",""trial"":1,""time"":4621},{""event"":""focus"",""trial"":2,""time"":11086},{""event"":""fullscreenexit"",""trial"":3,""time"":13334}]",NA,NA,NA,NA,NA,0,#1CD855,#FA92F8,0,10,0,38,1,240.69999980926514,37,1,487.90000009536743,0,0,experiment,NA,NA,1,0.3,0.7,3,2,92,3,NA
fcp-trial,132,590003,0.0-101.0-0.0,voc_e2,12259,"[{""event"":""fullscreenenter"",""trial"":1,""time"":3639},{""event"":""blur"",""trial"":1,""time"":4621},{""event"":""focus"",""trial"":2,""time"":11086},{""event"":""fullscreenexit"",""trial"":3,""time"":13334}]",NA,NA,NA,NA,NA,0,#D89F1C,#3386FF,10,0,1,38,1,294.40000009536743,39,0,408.5,0,0,experiment,NA,NA,0,0.9,0.1,0,1,93,3,NA
fcp-trial,133,591992,0.0-102.0-0.0,voc_e2,12259,"[{""event"":""fullscreenenter"",""trial"":1,""time"":3639},{""event"":""blur"",""trial"":1,""time"":4621},{""event"":""focus"",""trial"":2,""time"":11086},{""event"":""fullscreenexit"",""trial"":3,""time"":13334}]",NA,NA,NA,NA,NA,2,#FA92F8,#1CD855,10,10,1,38,1,124.19999980926514,37,1,358.7000002861023,10,1,experiment,NA,NA,1,0.7,0.3,2,3,94,3,NA
fcp-trial,134,594260,0.0-103.0-0.0,voc_e2,12259,"[{""event"":""fullscreenenter"",""trial"":1,""time"":3639},{""event"":""blur"",""trial"":1,""time"":4621},{""event"":""focus"",""trial"":2,""time"":11086},{""event"":""fullscreenexit"",""trial"":3,""time"":13334}]",NA,NA,NA,NA,NA,3,#741CD8,#D8271C,0,0,0,38,1,417.5,37,1,343.30000019073486,0,0,experiment,NA,NA,2,0.5,0.5,5,4,95,3,NA
fcp-trial,135,596598,0.0-104.0-0.0,voc_e2,12259,"[{""event"":""fullscreenenter"",""trial"":1,""time"":3639},{""event"":""blur"",""trial"":1,""time"":4621},{""event"":""focus"",""trial"":2,""time"":11086},{""event"":""fullscreenexit"",""trial"":3,""time"":13334}]",NA,NA,NA,NA,NA,4,#D89F1C,#3386FF,0,0,1,38,1,422.2000002861023,37,1,409.90000009536743,0,1,experiment,NA,NA,0,0.9,0.1,0,1,96,3,NA
fcp-trial,136,599194,0.0-105.0-0.0,voc_e2,12259,"[{""event"":""fullscreenenter"",""trial"":1,""time"":3639},{""event"":""blur"",""trial"":1,""time"":4621},{""event"":""focus"",""trial"":2,""time"":11086},{""event"":""fullscreenexit"",""trial"":3,""time"":13334}]",NA,NA,NA,NA,NA,6,#3386FF,#D89F1C,10,0,0,38,1,607.5999999046326,37,1,482.09999990463257,10,0,experiment,NA,NA,0,0.1,0.9,1,0,97,3,NA
fcp-trial,137,601626,0.0-106.0-0.0,voc_e2,12259,"[{""event"":""fullscreenenter"",""trial"":1,""time"":3639},{""event"":""blur"",""trial"":1,""time"":4621},{""event"":""focus"",""trial"":2,""time"":11086},{""event"":""fullscreenexit"",""trial"":3,""time"":13334}]",NA,NA,NA,NA,NA,4,#FA92F8,#1CD855,10,0,1,38,1,572.8000001907349,39,0,354.19999980926514,0,0,experiment,NA,NA,1,0.7,0.3,2,3,98,3,NA
fcp-trial,138,604158,0.0-107.0-0.0,voc_e2,12259,"[{""event"":""fullscreenenter"",""trial"":1,""time"":3639},{""event"":""blur"",""trial"":1,""time"":4621},{""event"":""focus"",""trial"":2,""time"":11086},{""event"":""fullscreenexit"",""trial"":3,""time"":13334}]",NA,NA,NA,NA,NA,1,#D8271C,#741CD8,10,10,1,38,1,372.59999990463257,37,1,654.3000001907349,10,1,experiment,NA,NA,2,0.5,0.5,4,5,99,3,NA
fcp-trial,139,606936,0.0-108.0-0.0,voc_e2,12259,"[{""event"":""fullscreenenter"",""trial"":1,""time"":3639},{""event"":""blur"",""trial"":1,""time"":4621},{""event"":""focus"",""trial"":2,""time"":11086},{""event"":""fullscreenexit"",""trial"":3,""time"":13334}]",NA,NA,NA,NA,NA,4,#741CD8,#D8271C,0,10,0,38,1,589.6999998092651,37,1,682.9000000953674,0,0,experiment,NA,NA,2,0.5,0.5,5,4,100,3,NA
fcp-trial,140,610045,0.0-109.0-0.0,voc_e2,12259,"[{""event"":""fullscreenenter"",""trial"":1,""time"":3639},{""event"":""blur"",""trial"":1,""time"":4621},{""event"":""focus"",""trial"":2,""time"":11086},{""event"":""fullscreenexit"",""trial"":3,""time"":13334}]",NA,NA,NA,NA,NA,6,#D8271C,#741CD8,10,0,1,38,1,642.1000003814697,37,1,959.5999999046326,10,1,experiment,NA,NA,2,0.5,0.5,4,5,101,3,NA
fcp-trial,141,612811,0.0-110.0-0.0,voc_e2,12259,"[{""event"":""fullscreenenter"",""trial"":1,""time"":3639},{""event"":""blur"",""trial"":1,""time"":4621},{""event"":""focus"",""trial"":2,""time"":11086},{""event"":""fullscreenexit"",""trial"":3,""time"":13334}]",NA,NA,NA,NA,NA,5,#D89F1C,#3386FF,10,0,1,38,1,848,37,1,411.69999980926514,10,1,experiment,NA,NA,0,0.9,0.1,0,1,102,3,NA
fcp-trial,142,615657,0.0-111.0-0.0,voc_e2,12259,"[{""event"":""fullscreenenter"",""trial"":1,""time"":3639},{""event"":""blur"",""trial"":1,""time"":4621},{""event"":""focus"",""trial"":2,""time"":11086},{""event"":""fullscreenexit"",""trial"":3,""time"":13334}]",NA,NA,NA,NA,NA,6,#1CD855,#FA92F8,10,0,0,38,1,682.4000000953674,39,0,658.9000000953674,0,1,experiment,NA,NA,1,0.3,0.7,3,2,103,3,NA
fcp-trial,143,618550,0.0-112.0-0.0,voc_e2,12259,"[{""event"":""fullscreenenter"",""trial"":1,""time"":3639},{""event"":""blur"",""trial"":1,""time"":4621},{""event"":""focus"",""trial"":2,""time"":11086},{""event"":""fullscreenexit"",""trial"":3,""time"":13334}]",NA,NA,NA,NA,NA,5,#FA92F8,#1CD855,10,0,1,38,1,669.4000000953674,39,0,717.6999998092651,0,0,experiment,NA,NA,1,0.7,0.3,2,3,104,3,NA
fcp-trial,144,621651,0.0-113.0-0.0,voc_e2,12259,"[{""event"":""fullscreenenter"",""trial"":1,""time"":3639},{""event"":""blur"",""trial"":1,""time"":4621},{""event"":""focus"",""trial"":2,""time"":11086},{""event"":""fullscreenexit"",""trial"":3,""time"":13334}]",NA,NA,NA,NA,NA,3,#D89F1C,#3386FF,10,0,1,38,1,482.19999980926514,37,1,1112.0999999046326,10,1,experiment,NA,NA,0,0.9,0.1,0,1,105,3,NA
audio-instructions,145,626807,0.0-114.0,voc_e2,12259,"[{""event"":""fullscreenenter"",""trial"":1,""time"":3639},{""event"":""blur"",""trial"":1,""time"":4621},{""event"":""focus"",""trial"":2,""time"":11086},{""event"":""fullscreenexit"",""trial"":3,""time"":13334}]",NA,665.0999999046326,static/audio/pause.wav,NA,0,NA,NA,NA,NA,NA,NA,NA,NA,NA,NA,NA,NA,NA,NA,NA,NA,NA,NA,NA,NA,NA,NA,NA,NA,NA
fcp-trial,146,630827,0.0-115.0-0.0,voc_e2,12259,"[{""event"":""fullscreenenter"",""trial"":1,""time"":3639},{""event"":""blur"",""trial"":1,""time"":4621},{""event"":""focus"",""trial"":2,""time"":11086},{""event"":""fullscreenexit"",""trial"":3,""time"":13334}]",NA,NA,NA,NA,NA,5,#3386FF,#D89F1C,0,10,0,38,1,1661.2000002861023,39,0,848.8000001907349,10,1,experiment,NA,NA,0,0.1,0.9,1,0,106,3,NA
fcp-trial,147,633312,0.0-116.0-0.0,voc_e2,12259,"[{""event"":""fullscreenenter"",""trial"":1,""time"":3639},{""event"":""blur"",""trial"":1,""time"":4621},{""event"":""focus"",""trial"":2,""time"":11086},{""event"":""fullscreenexit"",""trial"":3,""time"":13334}]",NA,NA,NA,NA,NA,3,#D89F1C,#3386FF,10,0,1,38,1,661,37,1,319.30000019073486,10,1,experiment,NA,NA,0,0.9,0.1,0,1,107,3,NA
fcp-trial,148,635514,0.0-117.0-0.0,voc_e2,12259,"[{""event"":""fullscreenenter"",""trial"":1,""time"":3639},{""event"":""blur"",""trial"":1,""time"":4621},{""event"":""focus"",""trial"":2,""time"":11086},{""event"":""fullscreenexit"",""trial"":3,""time"":13334}]",NA,NA,NA,NA,NA,0,#D89F1C,#3386FF,10,0,1,38,1,356.5,37,1,341.09999990463257,10,1,experiment,NA,NA,0,0.9,0.1,0,1,108,3,NA
fcp-trial,149,638410,0.0-118.0-0.0,voc_e2,12259,"[{""event"":""fullscreenenter"",""trial"":1,""time"":3639},{""event"":""blur"",""trial"":1,""time"":4621},{""event"":""focus"",""trial"":2,""time"":11086},{""event"":""fullscreenexit"",""trial"":3,""time"":13334}]",NA,NA,NA,NA,NA,2,#D8271C,#741CD8,10,10,1,38,1,513.7000002861023,39,0,875.1999998092651,10,0,experiment,NA,NA,2,0.5,0.5,4,5,109,3,NA
fcp-trial,150,640742,0.0-119.0-0.0,voc_e2,12259,"[{""event"":""fullscreenenter"",""trial"":1,""time"":3639},{""event"":""blur"",""trial"":1,""time"":4621},{""event"":""focus"",""trial"":2,""time"":11086},{""event"":""fullscreenexit"",""trial"":3,""time"":13334}]",NA,NA,NA,NA,NA,4,#1CD855,#FA92F8,0,0,0,38,1,445.40000009536743,39,0,382.5,0,1,experiment,NA,NA,1,0.3,0.7,3,2,110,3,NA
fcp-trial,151,643254,0.0-120.0-0.0,voc_e2,12259,"[{""event"":""fullscreenenter"",""trial"":1,""time"":3639},{""event"":""blur"",""trial"":1,""time"":4621},{""event"":""focus"",""trial"":2,""time"":11086},{""event"":""fullscreenexit"",""trial"":3,""time"":13334}]",NA,NA,NA,NA,NA,1,#D89F1C,#3386FF,10,0,1,38,1,470,37,1,535,10,1,experiment,NA,NA,0,0.9,0.1,0,1,111,3,NA
fcp-trial,152,645475,0.0-121.0-0.0,voc_e2,12259,"[{""event"":""fullscreenenter"",""trial"":1,""time"":3639},{""event"":""blur"",""trial"":1,""time"":4621},{""event"":""focus"",""trial"":2,""time"":11086},{""event"":""fullscreenexit"",""trial"":3,""time"":13334}]",NA,NA,NA,NA,NA,3,#D8271C,#741CD8,10,10,1,38,1,281.40000009536743,37,1,433.8999996185303,10,1,experiment,NA,NA,2,0.5,0.5,4,5,112,3,NA
fcp-trial,153,648244,0.0-122.0-0.0,voc_e2,12259,"[{""event"":""fullscreenenter"",""trial"":1,""time"":3639},{""event"":""blur"",""trial"":1,""time"":4621},{""event"":""focus"",""trial"":2,""time"":11086},{""event"":""fullscreenexit"",""trial"":3,""time"":13334}]",NA,NA,NA,NA,NA,6,#1CD855,#FA92F8,0,10,0,38,1,600.8000001907349,39,0,660.9000000953674,10,1,experiment,NA,NA,1,0.3,0.7,3,2,113,3,NA
fcp-trial,154,650425,0.0-123.0-0.0,voc_e2,12259,"[{""event"":""fullscreenenter"",""trial"":1,""time"":3639},{""event"":""blur"",""trial"":1,""time"":4621},{""event"":""focus"",""trial"":2,""time"":11086},{""event"":""fullscreenexit"",""trial"":3,""time"":13334}]",NA,NA,NA,NA,NA,6,#D8271C,#741CD8,0,10,1,38,1,343.19999980926514,37,1,332.80000019073486,0,1,experiment,NA,NA,2,0.5,0.5,4,5,114,3,NA
fcp-trial,155,652733,0.0-124.0-0.0,voc_e2,12259,"[{""event"":""fullscreenenter"",""trial"":1,""time"":3639},{""event"":""blur"",""trial"":1,""time"":4621},{""event"":""focus"",""trial"":2,""time"":11086},{""event"":""fullscreenexit"",""trial"":3,""time"":13334}]",NA,NA,NA,NA,NA,5,#741CD8,#D8271C,0,0,0,38,1,400.1000003814697,39,0,401.30000019073486,0,1,experiment,NA,NA,2,0.5,0.5,5,4,115,3,NA
fcp-trial,156,655041,0.0-125.0-0.0,voc_e2,12259,"[{""event"":""fullscreenenter"",""trial"":1,""time"":3639},{""event"":""blur"",""trial"":1,""time"":4621},{""event"":""focus"",""trial"":2,""time"":11086},{""event"":""fullscreenexit"",""trial"":3,""time"":13334}]",NA,NA,NA,NA,NA,4,#D89F1C,#3386FF,10,0,1,38,1,439,37,1,362.59999990463257,10,1,experiment,NA,NA,0,0.9,0.1,0,1,116,3,NA
fcp-trial,157,657282,0.0-126.0-0.0,voc_e2,12259,"[{""event"":""fullscreenenter"",""trial"":1,""time"":3639},{""event"":""blur"",""trial"":1,""time"":4621},{""event"":""focus"",""trial"":2,""time"":11086},{""event"":""fullscreenexit"",""trial"":3,""time"":13334}]",NA,NA,NA,NA,NA,1,#FA92F8,#1CD855,10,0,1,38,1,271.7000002861023,37,1,464.40000009536743,10,1,experiment,NA,NA,1,0.7,0.3,2,3,117,3,NA
fcp-trial,158,659626,0.0-127.0-0.0,voc_e2,12259,"[{""event"":""fullscreenenter"",""trial"":1,""time"":3639},{""event"":""blur"",""trial"":1,""time"":4621},{""event"":""focus"",""trial"":2,""time"":11086},{""event"":""fullscreenexit"",""trial"":3,""time"":13334}]",NA,NA,NA,NA,NA,4,#D8271C,#741CD8,0,0,1,38,1,421.1000003814697,37,1,416.8999996185303,0,1,experiment,NA,NA,2,0.5,0.5,4,5,118,3,NA
fcp-trial,159,662528,0.0-128.0-0.0,voc_e2,12259,"[{""event"":""fullscreenenter"",""trial"":1,""time"":3639},{""event"":""blur"",""trial"":1,""time"":4621},{""event"":""focus"",""trial"":2,""time"":11086},{""event"":""fullscreenexit"",""trial"":3,""time"":13334}]",NA,NA,NA,NA,NA,2,#3386FF,#D89F1C,0,10,0,38,1,517.6999998092651,39,0,879.1999998092651,10,1,experiment,NA,NA,0,0.1,0.9,1,0,119,3,NA
fcp-trial,160,666573,0.0-129.0-0.0,voc_e2,12259,"[{""event"":""fullscreenenter"",""trial"":1,""time"":3639},{""event"":""blur"",""trial"":1,""time"":4621},{""event"":""focus"",""trial"":2,""time"":11086},{""event"":""fullscreenexit"",""trial"":3,""time"":13334}]",NA,NA,NA,NA,NA,1,#741CD8,#D8271C,10,10,0,38,1,461.5,37,1,2078.599999904633,10,0,experiment,NA,NA,2,0.5,0.5,5,4,120,3,NA
fcp-trial,161,669041,0.0-130.0-0.0,voc_e2,12259,"[{""event"":""fullscreenenter"",""trial"":1,""time"":3639},{""event"":""blur"",""trial"":1,""time"":4621},{""event"":""focus"",""trial"":2,""time"":11086},{""event"":""fullscreenexit"",""trial"":3,""time"":13334}]",NA,NA,NA,NA,NA,5,#FA92F8,#1CD855,10,10,1,38,1,603.4000000953674,37,1,359.5,10,1,experiment,NA,NA,1,0.7,0.3,2,3,121,3,NA
fcp-trial,162,671825,0.0-131.0-0.0,voc_e2,12259,"[{""event"":""fullscreenenter"",""trial"":1,""time"":3639},{""event"":""blur"",""trial"":1,""time"":4621},{""event"":""focus"",""trial"":2,""time"":11086},{""event"":""fullscreenexit"",""trial"":3,""time"":13334}]",NA,NA,NA,NA,NA,6,#D89F1C,#3386FF,10,0,1,38,1,507.40000009536743,37,1,770.5999999046326,10,1,experiment,NA,NA,0,0.9,0.1,0,1,122,3,NA
fcp-trial,163,674256,0.0-132.0-0.0,voc_e2,12259,"[{""event"":""fullscreenenter"",""trial"":1,""time"":3639},{""event"":""blur"",""trial"":1,""time"":4621},{""event"":""focus"",""trial"":2,""time"":11086},{""event"":""fullscreenexit"",""trial"":3,""time"":13334}]",NA,NA,NA,NA,NA,0,#FA92F8,#1CD855,10,0,1,38,1,488.59999990463257,37,1,437.2999997138977,10,1,experiment,NA,NA,1,0.7,0.3,2,3,123,3,NA
fcp-trial,164,678038,0.0-133.0-0.0,voc_e2,12259,"[{""event"":""fullscreenenter"",""trial"":1,""time"":3639},{""event"":""blur"",""trial"":1,""time"":4621},{""event"":""focus"",""trial"":2,""time"":11086},{""event"":""fullscreenexit"",""trial"":3,""time"":13334}]",NA,NA,NA,NA,NA,0,#D8271C,#741CD8,10,10,1,38,1,579.5,37,1,1697.0999999046326,10,1,experiment,NA,NA,2,0.5,0.5,4,5,124,3,NA
fcp-trial,165,680618,0.0-134.0-0.0,voc_e2,12259,"[{""event"":""fullscreenenter"",""trial"":1,""time"":3639},{""event"":""blur"",""trial"":1,""time"":4621},{""event"":""focus"",""trial"":2,""time"":11086},{""event"":""fullscreenexit"",""trial"":3,""time"":13334}]",NA,NA,NA,NA,NA,3,#FA92F8,#1CD855,10,0,1,38,1,716.7999997138977,37,1,359.7000002861023,10,1,experiment,NA,NA,1,0.7,0.3,2,3,125,3,NA
fcp-trial,166,682899,0.0-135.0-0.0,voc_e2,12259,"[{""event"":""fullscreenenter"",""trial"":1,""time"":3639},{""event"":""blur"",""trial"":1,""time"":4621},{""event"":""focus"",""trial"":2,""time"":11086},{""event"":""fullscreenexit"",""trial"":3,""time"":13334}]",NA,NA,NA,NA,NA,2,#1CD855,#FA92F8,0,10,0,38,1,499.59999990463257,39,0,277.5,10,1,experiment,NA,NA,1,0.3,0.7,3,2,126,3,NA
fcp-trial,167,685109,0.0-136.0-0.0,voc_e2,12259,"[{""event"":""fullscreenenter"",""trial"":1,""time"":3639},{""event"":""blur"",""trial"":1,""time"":4621},{""event"":""focus"",""trial"":2,""time"":11086},{""event"":""fullscreenexit"",""trial"":3,""time"":13334}]",NA,NA,NA,NA,NA,6,#D89F1C,#3386FF,10,0,1,38,1,339.19999980926514,37,1,366.30000019073486,10,1,experiment,NA,NA,0,0.9,0.1,0,1,127,3,NA
fcp-trial,168,687408,0.0-137.0-0.0,voc_e2,12259,"[{""event"":""fullscreenenter"",""trial"":1,""time"":3639},{""event"":""blur"",""trial"":1,""time"":4621},{""event"":""focus"",""trial"":2,""time"":11086},{""event"":""fullscreenexit"",""trial"":3,""time"":13334}]",NA,NA,NA,NA,NA,2,#1CD855,#FA92F8,0,10,0,38,1,362.7000002861023,39,0,431.59999990463257,10,1,experiment,NA,NA,1,0.3,0.7,3,2,128,3,NA
fcp-trial,169,691131,0.0-138.0-0.0,voc_e2,12259,"[{""event"":""fullscreenenter"",""trial"":1,""time"":3639},{""event"":""blur"",""trial"":1,""time"":4621},{""event"":""focus"",""trial"":2,""time"":11086},{""event"":""fullscreenexit"",""trial"":3,""time"":13334}]",NA,NA,NA,NA,NA,2,#741CD8,#D8271C,10,0,0,38,1,412.69999980926514,39,0,1803.7999997138977,0,1,experiment,NA,NA,2,0.5,0.5,5,4,129,3,NA
fcp-trial,170,694045,0.0-139.0-0.0,voc_e2,12259,"[{""event"":""fullscreenenter"",""trial"":1,""time"":3639},{""event"":""blur"",""trial"":1,""time"":4621},{""event"":""focus"",""trial"":2,""time"":11086},{""event"":""fullscreenexit"",""trial"":3,""time"":13334}]",NA,NA,NA,NA,NA,1,#FA92F8,#1CD855,10,0,1,38,1,606.8000001907349,37,1,800.1999998092651,10,1,experiment,NA,NA,1,0.7,0.3,2,3,130,3,NA
fcp-trial,171,696557,0.0-140.0-0.0,voc_e2,12259,"[{""event"":""fullscreenenter"",""trial"":1,""time"":3639},{""event"":""blur"",""trial"":1,""time"":4621},{""event"":""focus"",""trial"":2,""time"":11086},{""event"":""fullscreenexit"",""trial"":3,""time"":13334}]",NA,NA,NA,NA,NA,0,#D89F1C,#3386FF,10,0,1,38,1,288.09999990463257,37,1,719.5,10,1,experiment,NA,NA,0,0.9,0.1,0,1,131,3,NA
fcp-trial,172,698859,0.0-141.0-0.0,voc_e2,12259,"[{""event"":""fullscreenenter"",""trial"":1,""time"":3639},{""event"":""blur"",""trial"":1,""time"":4621},{""event"":""focus"",""trial"":2,""time"":11086},{""event"":""fullscreenexit"",""trial"":3,""time"":13334}]",NA,NA,NA,NA,NA,4,#D89F1C,#3386FF,10,0,1,38,1,380.09999990463257,37,1,416.19999980926514,10,1,experiment,NA,NA,0,0.9,0.1,0,1,132,3,NA
fcp-trial,173,701341,0.0-142.0-0.0,voc_e2,12259,"[{""event"":""fullscreenenter"",""trial"":1,""time"":3639},{""event"":""blur"",""trial"":1,""time"":4621},{""event"":""focus"",""trial"":2,""time"":11086},{""event"":""fullscreenexit"",""trial"":3,""time"":13334}]",NA,NA,NA,NA,NA,0,#1CD855,#FA92F8,0,0,0,38,1,307,39,0,669.0999999046326,0,1,experiment,NA,NA,1,0.3,0.7,3,2,133,3,NA
fcp-trial,174,703658,0.0-143.0-0.0,voc_e2,12259,"[{""event"":""fullscreenenter"",""trial"":1,""time"":3639},{""event"":""blur"",""trial"":1,""time"":4621},{""event"":""focus"",""trial"":2,""time"":11086},{""event"":""fullscreenexit"",""trial"":3,""time"":13334}]",NA,NA,NA,NA,NA,6,#741CD8,#D8271C,0,10,0,38,1,521.8999996185303,37,1,289.30000019073486,0,0,experiment,NA,NA,2,0.5,0.5,5,4,134,3,NA
fcp-trial,175,706032,0.0-144.0-0.0,voc_e2,12259,"[{""event"":""fullscreenenter"",""trial"":1,""time"":3639},{""event"":""blur"",""trial"":1,""time"":4621},{""event"":""focus"",""trial"":2,""time"":11086},{""event"":""fullscreenexit"",""trial"":3,""time"":13334}]",NA,NA,NA,NA,NA,4,#D8271C,#741CD8,10,0,1,38,1,535.1999998092651,37,1,332,10,1,experiment,NA,NA,2,0.5,0.5,4,5,135,3,NA
fcp-trial,176,708749,0.0-145.0-0.0,voc_e2,12259,"[{""event"":""fullscreenenter"",""trial"":1,""time"":3639},{""event"":""blur"",""trial"":1,""time"":4621},{""event"":""focus"",""trial"":2,""time"":11086},{""event"":""fullscreenexit"",""trial"":3,""time"":13334}]",NA,NA,NA,NA,NA,5,#3386FF,#D89F1C,0,10,0,38,1,806.2999997138977,37,1,403.69999980926514,0,0,experiment,NA,NA,0,0.1,0.9,1,0,136,4,NA
fcp-trial,177,711551,0.0-146.0-0.0,voc_e2,12259,"[{""event"":""fullscreenenter"",""trial"":1,""time"":3639},{""event"":""blur"",""trial"":1,""time"":4621},{""event"":""focus"",""trial"":2,""time"":11086},{""event"":""fullscreenexit"",""trial"":3,""time"":13334}]",NA,NA,NA,NA,NA,1,#D8271C,#741CD8,0,0,1,38,1,454.40000009536743,39,0,843,0,0,experiment,NA,NA,2,0.5,0.5,4,5,137,4,NA
fcp-trial,178,714311,0.0-147.0-0.0,voc_e2,12259,"[{""event"":""fullscreenenter"",""trial"":1,""time"":3639},{""event"":""blur"",""trial"":1,""time"":4621},{""event"":""focus"",""trial"":2,""time"":11086},{""event"":""fullscreenexit"",""trial"":3,""time"":13334}]",NA,NA,NA,NA,NA,3,#FA92F8,#1CD855,10,0,1,38,1,681.6000003814697,37,1,572.8000001907349,10,1,experiment,NA,NA,1,0.7,0.3,2,3,138,4,NA
fcp-trial,179,716891,0.0-148.0-0.0,voc_e2,12259,"[{""event"":""fullscreenenter"",""trial"":1,""time"":3639},{""event"":""blur"",""trial"":1,""time"":4621},{""event"":""focus"",""trial"":2,""time"":11086},{""event"":""fullscreenexit"",""trial"":3,""time"":13334}]",NA,NA,NA,NA,NA,0,#741CD8,#D8271C,10,0,0,38,1,467.69999980926514,37,1,606.2999997138977,10,0,experiment,NA,NA,2,0.5,0.5,5,4,139,4,NA
fcp-trial,180,719192,0.0-149.0-0.0,voc_e2,12259,"[{""event"":""fullscreenenter"",""trial"":1,""time"":3639},{""event"":""blur"",""trial"":1,""time"":4621},{""event"":""focus"",""trial"":2,""time"":11086},{""event"":""fullscreenexit"",""trial"":3,""time"":13334}]",NA,NA,NA,NA,NA,3,#D8271C,#741CD8,0,10,1,38,1,504.80000019073486,39,0,291.09999990463257,10,0,experiment,NA,NA,2,0.5,0.5,4,5,140,4,NA
fcp-trial,181,721591,0.0-150.0-0.0,voc_e2,12259,"[{""event"":""fullscreenenter"",""trial"":1,""time"":3639},{""event"":""blur"",""trial"":1,""time"":4621},{""event"":""focus"",""trial"":2,""time"":11086},{""event"":""fullscreenexit"",""trial"":3,""time"":13334}]",NA,NA,NA,NA,NA,2,#3386FF,#D89F1C,0,10,0,38,1,622.7000002861023,39,0,271.7999997138977,10,1,experiment,NA,NA,0,0.1,0.9,1,0,141,4,NA
fcp-trial,182,723858,0.0-151.0-0.0,voc_e2,12259,"[{""event"":""fullscreenenter"",""trial"":1,""time"":3639},{""event"":""blur"",""trial"":1,""time"":4621},{""event"":""focus"",""trial"":2,""time"":11086},{""event"":""fullscreenexit"",""trial"":3,""time"":13334}]",NA,NA,NA,NA,NA,5,#1CD855,#FA92F8,10,10,0,38,1,419.7999997138977,39,0,342.09999990463257,10,1,experiment,NA,NA,1,0.3,0.7,3,2,142,4,NA
fcp-trial,183,726166,0.0-152.0-0.0,voc_e2,12259,"[{""event"":""fullscreenenter"",""trial"":1,""time"":3639},{""event"":""blur"",""trial"":1,""time"":4621},{""event"":""focus"",""trial"":2,""time"":11086},{""event"":""fullscreenexit"",""trial"":3,""time"":13334}]",NA,NA,NA,NA,NA,6,#FA92F8,#1CD855,10,10,1,38,1,427.90000009536743,37,1,373.69999980926514,10,1,experiment,NA,NA,1,0.7,0.3,2,3,143,4,NA
fcp-trial,184,728409,0.0-153.0-0.0,voc_e2,12259,"[{""event"":""fullscreenenter"",""trial"":1,""time"":3639},{""event"":""blur"",""trial"":1,""time"":4621},{""event"":""focus"",""trial"":2,""time"":11086},{""event"":""fullscreenexit"",""trial"":3,""time"":13334}]",NA,NA,NA,NA,NA,5,#741CD8,#D8271C,0,0,0,38,1,336.7000002861023,37,1,399,0,0,experiment,NA,NA,2,0.5,0.5,5,4,144,4,NA
fcp-trial,185,730926,0.0-154.0-0.0,voc_e2,12259,"[{""event"":""fullscreenenter"",""trial"":1,""time"":3639},{""event"":""blur"",""trial"":1,""time"":4621},{""event"":""focus"",""trial"":2,""time"":11086},{""event"":""fullscreenexit"",""trial"":3,""time"":13334}]",NA,NA,NA,NA,NA,4,#1CD855,#FA92F8,10,0,0,38,1,662,39,0,350.2000002861023,0,1,experiment,NA,NA,1,0.3,0.7,3,2,145,4,NA
fcp-trial,186,733444,0.0-155.0-0.0,voc_e2,12259,"[{""event"":""fullscreenenter"",""trial"":1,""time"":3639},{""event"":""blur"",""trial"":1,""time"":4621},{""event"":""focus"",""trial"":2,""time"":11086},{""event"":""fullscreenexit"",""trial"":3,""time"":13334}]",NA,NA,NA,NA,NA,1,#D89F1C,#3386FF,10,0,1,38,1,318.19999980926514,39,0,694.5,0,0,experiment,NA,NA,0,0.9,0.1,0,1,146,4,NA
fcp-trial,187,736155,0.0-156.0-0.0,voc_e2,12259,"[{""event"":""fullscreenenter"",""trial"":1,""time"":3639},{""event"":""blur"",""trial"":1,""time"":4621},{""event"":""focus"",""trial"":2,""time"":11086},{""event"":""fullscreenexit"",""trial"":3,""time"":13334}]",NA,NA,NA,NA,NA,3,#3386FF,#D89F1C,0,10,0,38,1,609.3000001907349,39,0,596.2000002861023,10,1,experiment,NA,NA,0,0.1,0.9,1,0,147,4,NA
fcp-trial,188,738372,0.0-157.0-0.0,voc_e2,12259,"[{""event"":""fullscreenenter"",""trial"":1,""time"":3639},{""event"":""blur"",""trial"":1,""time"":4621},{""event"":""focus"",""trial"":2,""time"":11086},{""event"":""fullscreenexit"",""trial"":3,""time"":13334}]",NA,NA,NA,NA,NA,2,#FA92F8,#1CD855,10,10,1,38,1,389.69999980926514,39,0,321.5,10,0,experiment,NA,NA,1,0.7,0.3,2,3,148,4,NA
fcp-trial,189,740787,0.0-158.0-0.0,voc_e2,12259,"[{""event"":""fullscreenenter"",""trial"":1,""time"":3639},{""event"":""blur"",""trial"":1,""time"":4621},{""event"":""focus"",""trial"":2,""time"":11086},{""event"":""fullscreenexit"",""trial"":3,""time"":13334}]",NA,NA,NA,NA,NA,6,#1CD855,#FA92F8,10,0,0,38,1,563.9000000953674,37,1,344.59999990463257,10,0,experiment,NA,NA,1,0.3,0.7,3,2,149,4,NA
fcp-trial,190,743855,0.0-159.0-0.0,voc_e2,12259,"[{""event"":""fullscreenenter"",""trial"":1,""time"":3639},{""event"":""blur"",""trial"":1,""time"":4621},{""event"":""focus"",""trial"":2,""time"":11086},{""event"":""fullscreenexit"",""trial"":3,""time"":13334}]",NA,NA,NA,NA,NA,3,#3386FF,#D89F1C,0,10,0,38,1,352,37,1,1211.2000002861023,0,0,experiment,NA,NA,0,0.1,0.9,1,0,150,4,NA
fcp-trial,191,746807,0.0-160.0-0.0,voc_e2,12259,"[{""event"":""fullscreenenter"",""trial"":1,""time"":3639},{""event"":""blur"",""trial"":1,""time"":4621},{""event"":""focus"",""trial"":2,""time"":11086},{""event"":""fullscreenexit"",""trial"":3,""time"":13334}]",NA,NA,NA,NA,NA,4,#1CD855,#FA92F8,10,10,0,38,1,760,37,1,685.8999996185303,10,0,experiment,NA,NA,1,0.3,0.7,3,2,151,4,NA
fcp-trial,192,750652,0.0-161.0-0.0,voc_e2,12259,"[{""event"":""fullscreenenter"",""trial"":1,""time"":3639},{""event"":""blur"",""trial"":1,""time"":4621},{""event"":""focus"",""trial"":2,""time"":11086},{""event"":""fullscreenexit"",""trial"":3,""time"":13334}]",NA,NA,NA,NA,NA,1,#D8271C,#741CD8,10,10,1,38,1,731.0999999046326,39,0,1608.4000000953674,10,0,experiment,NA,NA,2,0.5,0.5,4,5,152,4,NA
fcp-trial,193,753703,0.0-162.0-0.0,voc_e2,12259,"[{""event"":""fullscreenenter"",""trial"":1,""time"":3639},{""event"":""blur"",""trial"":1,""time"":4621},{""event"":""focus"",""trial"":2,""time"":11086},{""event"":""fullscreenexit"",""trial"":3,""time"":13334}]",NA,NA,NA,NA,NA,6,#D89F1C,#3386FF,10,0,1,38,1,670.4000000953674,37,1,873.6999998092651,10,1,experiment,NA,NA,0,0.9,0.1,0,1,153,4,NA
fcp-trial,194,755907,0.0-163.0-0.0,voc_e2,12259,"[{""event"":""fullscreenenter"",""trial"":1,""time"":3639},{""event"":""blur"",""trial"":1,""time"":4621},{""event"":""focus"",""trial"":2,""time"":11086},{""event"":""fullscreenexit"",""trial"":3,""time"":13334}]",NA,NA,NA,NA,NA,0,#1CD855,#FA92F8,0,10,0,38,1,352.90000009536743,37,1,345.19999980926514,0,0,experiment,NA,NA,1,0.3,0.7,3,2,154,4,NA
fcp-trial,195,759193,0.0-164.0-0.0,voc_e2,12259,"[{""event"":""fullscreenenter"",""trial"":1,""time"":3639},{""event"":""blur"",""trial"":1,""time"":4621},{""event"":""focus"",""trial"":2,""time"":11086},{""event"":""fullscreenexit"",""trial"":3,""time"":13334}]",NA,NA,NA,NA,NA,2,#3386FF,#D89F1C,0,10,0,38,1,670.7000002861023,39,0,1109.0999999046326,10,1,experiment,NA,NA,0,0.1,0.9,1,0,155,4,NA
fcp-trial,196,761994,0.0-165.0-0.0,voc_e2,12259,"[{""event"":""fullscreenenter"",""trial"":1,""time"":3639},{""event"":""blur"",""trial"":1,""time"":4621},{""event"":""focus"",""trial"":2,""time"":11086},{""event"":""fullscreenexit"",""trial"":3,""time"":13334}]",NA,NA,NA,NA,NA,5,#741CD8,#D8271C,10,10,0,38,1,358.7999997138977,37,1,934.8999996185304,10,0,experiment,NA,NA,2,0.5,0.5,5,4,156,4,NA
fcp-trial,197,764573,0.0-166.0-0.0,voc_e2,12259,"[{""event"":""fullscreenenter"",""trial"":1,""time"":3639},{""event"":""blur"",""trial"":1,""time"":4621},{""event"":""focus"",""trial"":2,""time"":11086},{""event"":""fullscreenexit"",""trial"":3,""time"":13334}]",NA,NA,NA,NA,NA,5,#1CD855,#FA92F8,0,10,0,38,1,675.6999998092651,39,0,398.5,10,1,experiment,NA,NA,1,0.3,0.7,3,2,157,4,NA
fcp-trial,198,766824,0.0-167.0-0.0,voc_e2,12259,"[{""event"":""fullscreenenter"",""trial"":1,""time"":3639},{""event"":""blur"",""trial"":1,""time"":4621},{""event"":""focus"",""trial"":2,""time"":11086},{""event"":""fullscreenexit"",""trial"":3,""time"":13334}]",NA,NA,NA,NA,NA,6,#741CD8,#D8271C,10,10,0,38,1,396.7999997138977,37,1,347.59999990463257,10,0,experiment,NA,NA,2,0.5,0.5,5,4,158,4,NA
fcp-trial,199,769278,0.0-168.0-0.0,voc_e2,12259,"[{""event"":""fullscreenenter"",""trial"":1,""time"":3639},{""event"":""blur"",""trial"":1,""time"":4621},{""event"":""focus"",""trial"":2,""time"":11086},{""event"":""fullscreenexit"",""trial"":3,""time"":13334}]",NA,NA,NA,NA,NA,1,#D89F1C,#3386FF,0,10,1,38,1,346.90000009536743,37,1,602.1999998092651,0,1,experiment,NA,NA,0,0.9,0.1,0,1,159,4,NA
fcp-trial,200,771541,0.0-169.0-0.0,voc_e2,12259,"[{""event"":""fullscreenenter"",""trial"":1,""time"":3639},{""event"":""blur"",""trial"":1,""time"":4621},{""event"":""focus"",""trial"":2,""time"":11086},{""event"":""fullscreenexit"",""trial"":3,""time"":13334}]",NA,NA,NA,NA,NA,5,#D89F1C,#3386FF,10,0,1,38,1,426.90000009536743,39,0,331,0,0,experiment,NA,NA,0,0.9,0.1,0,1,160,4,NA
fcp-trial,201,774375,0.0-170.0-0.0,voc_e2,12259,"[{""event"":""fullscreenenter"",""trial"":1,""time"":3639},{""event"":""blur"",""trial"":1,""time"":4621},{""event"":""focus"",""trial"":2,""time"":11086},{""event"":""fullscreenexit"",""trial"":3,""time"":13334}]",NA,NA,NA,NA,NA,3,#1CD855,#FA92F8,10,10,0,38,1,425,39,0,904.5,10,1,experiment,NA,NA,1,0.3,0.7,3,2,161,4,NA
fcp-trial,202,776691,0.0-171.0-0.0,voc_e2,12259,"[{""event"":""fullscreenenter"",""trial"":1,""time"":3639},{""event"":""blur"",""trial"":1,""time"":4621},{""event"":""focus"",""trial"":2,""time"":11086},{""event"":""fullscreenexit"",""trial"":3,""time"":13334}]",NA,NA,NA,NA,NA,2,#741CD8,#D8271C,0,0,0,38,1,341,37,1,470.09999990463257,0,0,experiment,NA,NA,2,0.5,0.5,5,4,162,4,NA
fcp-trial,203,779035,0.0-172.0-0.0,voc_e2,12259,"[{""event"":""fullscreenenter"",""trial"":1,""time"":3639},{""event"":""blur"",""trial"":1,""time"":4621},{""event"":""focus"",""trial"":2,""time"":11086},{""event"":""fullscreenexit"",""trial"":3,""time"":13334}]",NA,NA,NA,NA,NA,3,#D8271C,#741CD8,0,10,1,38,1,430.80000019073486,37,1,408.69999980926514,0,1,experiment,NA,NA,2,0.5,0.5,4,5,163,4,NA
fcp-trial,204,781534,0.0-173.0-0.0,voc_e2,12259,"[{""event"":""fullscreenenter"",""trial"":1,""time"":3639},{""event"":""blur"",""trial"":1,""time"":4621},{""event"":""focus"",""trial"":2,""time"":11086},{""event"":""fullscreenexit"",""trial"":3,""time"":13334}]",NA,NA,NA,NA,NA,0,#D89F1C,#3386FF,10,0,1,38,1,336.19999980926514,37,1,656.9000000953674,10,1,experiment,NA,NA,0,0.9,0.1,0,1,164,4,NA
fcp-trial,205,783827,0.0-174.0-0.0,voc_e2,12259,"[{""event"":""fullscreenenter"",""trial"":1,""time"":3639},{""event"":""blur"",""trial"":1,""time"":4621},{""event"":""focus"",""trial"":2,""time"":11086},{""event"":""fullscreenexit"",""trial"":3,""time"":13334}]",NA,NA,NA,NA,NA,4,#D89F1C,#3386FF,10,0,1,38,1,373.19999980926514,37,1,412.80000019073486,10,1,experiment,NA,NA,0,0.9,0.1,0,1,165,4,NA
fcp-trial,206,786223,0.0-175.0-0.0,voc_e2,12259,"[{""event"":""fullscreenenter"",""trial"":1,""time"":3639},{""event"":""blur"",""trial"":1,""time"":4621},{""event"":""focus"",""trial"":2,""time"":11086},{""event"":""fullscreenexit"",""trial"":3,""time"":13334}]",NA,NA,NA,NA,NA,1,#FA92F8,#1CD855,10,10,1,38,1,546.7999997138977,37,1,343.8999996185303,10,1,experiment,NA,NA,1,0.7,0.3,2,3,166,4,NA
fcp-trial,207,788457,0.0-176.0-0.0,voc_e2,12259,"[{""event"":""fullscreenenter"",""trial"":1,""time"":3639},{""event"":""blur"",""trial"":1,""time"":4621},{""event"":""focus"",""trial"":2,""time"":11086},{""event"":""fullscreenexit"",""trial"":3,""time"":13334}]",NA,NA,NA,NA,NA,0,#741CD8,#D8271C,0,10,0,38,1,379.80000019073486,37,1,349.3999996185303,0,0,experiment,NA,NA,2,0.5,0.5,5,4,167,4,NA
fcp-trial,208,791052,0.0-177.0-0.0,voc_e2,12259,"[{""event"":""fullscreenenter"",""trial"":1,""time"":3639},{""event"":""blur"",""trial"":1,""time"":4621},{""event"":""focus"",""trial"":2,""time"":11086},{""event"":""fullscreenexit"",""trial"":3,""time"":13334}]",NA,NA,NA,NA,NA,4,#D8271C,#741CD8,0,0,1,38,1,495.7999997138977,37,1,593.2999997138977,0,1,experiment,NA,NA,2,0.5,0.5,4,5,168,4,NA
fcp-trial,209,793707,0.0-178.0-0.0,voc_e2,12259,"[{""event"":""fullscreenenter"",""trial"":1,""time"":3639},{""event"":""blur"",""trial"":1,""time"":4621},{""event"":""focus"",""trial"":2,""time"":11086},{""event"":""fullscreenexit"",""trial"":3,""time"":13334}]",NA,NA,NA,NA,NA,3,#3386FF,#D89F1C,10,10,0,38,1,642.8000001907349,39,0,507,10,1,experiment,NA,NA,0,0.1,0.9,1,0,169,4,NA
fcp-trial,210,795891,0.0-179.0-0.0,voc_e2,12259,"[{""event"":""fullscreenenter"",""trial"":1,""time"":3639},{""event"":""blur"",""trial"":1,""time"":4621},{""event"":""focus"",""trial"":2,""time"":11086},{""event"":""fullscreenexit"",""trial"":3,""time"":13334}]",NA,NA,NA,NA,NA,3,#FA92F8,#1CD855,10,10,1,38,1,406.90000009536743,37,1,270,10,1,experiment,NA,NA,1,0.7,0.3,2,3,170,4,NA
fcp-trial,211,798347,0.0-180.0-0.0,voc_e2,12259,"[{""event"":""fullscreenenter"",""trial"":1,""time"":3639},{""event"":""blur"",""trial"":1,""time"":4621},{""event"":""focus"",""trial"":2,""time"":11086},{""event"":""fullscreenexit"",""trial"":3,""time"":13334}]",NA,NA,NA,NA,NA,0,#D8271C,#741CD8,0,10,1,38,1,358.69999980926514,39,0,592.1999998092651,10,0,experiment,NA,NA,2,0.5,0.5,4,5,171,4,NA
fcp-trial,212,800676,0.0-181.0-0.0,voc_e2,12259,"[{""event"":""fullscreenenter"",""trial"":1,""time"":3639},{""event"":""blur"",""trial"":1,""time"":4621},{""event"":""focus"",""trial"":2,""time"":11086},{""event"":""fullscreenexit"",""trial"":3,""time"":13334}]",NA,NA,NA,NA,NA,5,#D89F1C,#3386FF,10,0,1,38,1,482.2999997138977,37,1,339.59999990463257,10,1,experiment,NA,NA,0,0.9,0.1,0,1,172,4,NA
fcp-trial,213,802930,0.0-182.0-0.0,voc_e2,12259,"[{""event"":""fullscreenenter"",""trial"":1,""time"":3639},{""event"":""blur"",""trial"":1,""time"":4621},{""event"":""focus"",""trial"":2,""time"":11086},{""event"":""fullscreenexit"",""trial"":3,""time"":13334}]",NA,NA,NA,NA,NA,3,#741CD8,#D8271C,10,10,0,38,1,362.2000002861023,37,1,386.90000009536743,10,0,experiment,NA,NA,2,0.5,0.5,5,4,173,4,NA
fcp-trial,214,805106,0.0-183.0-0.0,voc_e2,12259,"[{""event"":""fullscreenenter"",""trial"":1,""time"":3639},{""event"":""blur"",""trial"":1,""time"":4621},{""event"":""focus"",""trial"":2,""time"":11086},{""event"":""fullscreenexit"",""trial"":3,""time"":13334}]",NA,NA,NA,NA,NA,2,#FA92F8,#1CD855,0,0,1,38,1,59.59999990463257,37,1,611.8000001907349,0,1,experiment,NA,NA,1,0.7,0.3,2,3,174,4,NA
fcp-trial,215,807469,0.0-184.0-0.0,voc_e2,12259,"[{""event"":""fullscreenenter"",""trial"":1,""time"":3639},{""event"":""blur"",""trial"":1,""time"":4621},{""event"":""focus"",""trial"":2,""time"":11086},{""event"":""fullscreenexit"",""trial"":3,""time"":13334}]",NA,NA,NA,NA,NA,4,#FA92F8,#1CD855,0,10,1,38,1,446.8999996185303,39,0,410.30000019073486,10,0,experiment,NA,NA,1,0.7,0.3,2,3,175,4,NA
fcp-trial,216,809983,0.0-185.0-0.0,voc_e2,12259,"[{""event"":""fullscreenenter"",""trial"":1,""time"":3639},{""event"":""blur"",""trial"":1,""time"":4621},{""event"":""focus"",""trial"":2,""time"":11086},{""event"":""fullscreenexit"",""trial"":3,""time"":13334}]",NA,NA,NA,NA,NA,1,#D89F1C,#3386FF,10,0,1,38,1,711.1999998092651,37,1,295.80000019073486,10,1,experiment,NA,NA,0,0.9,0.1,0,1,176,4,NA
fcp-trial,217,812158,0.0-186.0-0.0,voc_e2,12259,"[{""event"":""fullscreenenter"",""trial"":1,""time"":3639},{""event"":""blur"",""trial"":1,""time"":4621},{""event"":""focus"",""trial"":2,""time"":11086},{""event"":""fullscreenexit"",""trial"":3,""time"":13334}]",NA,NA,NA,NA,NA,5,#741CD8,#D8271C,0,0,0,38,1,362.5,37,1,305.09999990463257,0,0,experiment,NA,NA,2,0.5,0.5,5,4,177,4,NA
fcp-trial,218,814308,0.0-187.0-0.0,voc_e2,12259,"[{""event"":""fullscreenenter"",""trial"":1,""time"":3639},{""event"":""blur"",""trial"":1,""time"":4621},{""event"":""focus"",""trial"":2,""time"":11086},{""event"":""fullscreenexit"",""trial"":3,""time"":13334}]",NA,NA,NA,NA,NA,2,#741CD8,#D8271C,10,0,0,38,1,252.60000038146973,39,0,392,0,1,experiment,NA,NA,2,0.5,0.5,5,4,178,4,NA
fcp-trial,219,816992,0.0-188.0-0.0,voc_e2,12259,"[{""event"":""fullscreenenter"",""trial"":1,""time"":3639},{""event"":""blur"",""trial"":1,""time"":4621},{""event"":""focus"",""trial"":2,""time"":11086},{""event"":""fullscreenexit"",""trial"":3,""time"":13334}]",NA,NA,NA,NA,NA,1,#FA92F8,#1CD855,10,0,1,38,1,536.8000001907349,37,1,640.2999997138977,10,1,experiment,NA,NA,1,0.7,0.3,2,3,179,4,NA
fcp-trial,220,819474,0.0-189.0-0.0,voc_e2,12259,"[{""event"":""fullscreenenter"",""trial"":1,""time"":3639},{""event"":""blur"",""trial"":1,""time"":4621},{""event"":""focus"",""trial"":2,""time"":11086},{""event"":""fullscreenexit"",""trial"":3,""time"":13334}]",NA,NA,NA,NA,NA,6,#3386FF,#D89F1C,0,10,0,38,1,405.7000002861023,39,0,570.7999997138977,10,1,experiment,NA,NA,0,0.1,0.9,1,0,180,4,NA
fcp-trial,221,821915,0.0-190.0-0.0,voc_e2,12259,"[{""event"":""fullscreenenter"",""trial"":1,""time"":3639},{""event"":""blur"",""trial"":1,""time"":4621},{""event"":""focus"",""trial"":2,""time"":11086},{""event"":""fullscreenexit"",""trial"":3,""time"":13334}]",NA,NA,NA,NA,NA,0,#3386FF,#D89F1C,0,10,0,38,1,439.59999990463257,39,0,496.19999980926514,10,1,experiment,NA,NA,0,0.1,0.9,1,0,181,5,NA
fcp-trial,222,824245,0.0-191.0-0.0,voc_e2,12259,"[{""event"":""fullscreenenter"",""trial"":1,""time"":3639},{""event"":""blur"",""trial"":1,""time"":4621},{""event"":""focus"",""trial"":2,""time"":11086},{""event"":""fullscreenexit"",""trial"":3,""time"":13334}]",NA,NA,NA,NA,NA,0,#1CD855,#FA92F8,10,10,0,38,1,437,39,0,386.1000003814697,10,1,experiment,NA,NA,1,0.3,0.7,3,2,182,5,NA
fcp-trial,223,826805,0.0-192.0-0.0,voc_e2,12259,"[{""event"":""fullscreenenter"",""trial"":1,""time"":3639},{""event"":""blur"",""trial"":1,""time"":4621},{""event"":""focus"",""trial"":2,""time"":11086},{""event"":""fullscreenexit"",""trial"":3,""time"":13334}]",NA,NA,NA,NA,NA,6,#D8271C,#741CD8,0,0,1,38,1,258.19999980926514,37,1,796.8000001907349,0,1,experiment,NA,NA,2,0.5,0.5,4,5,183,5,NA
fcp-trial,224,829174,0.0-193.0-0.0,voc_e2,12259,"[{""event"":""fullscreenenter"",""trial"":1,""time"":3639},{""event"":""blur"",""trial"":1,""time"":4621},{""event"":""focus"",""trial"":2,""time"":11086},{""event"":""fullscreenexit"",""trial"":3,""time"":13334}]",NA,NA,NA,NA,NA,1,#D8271C,#741CD8,0,10,1,38,1,582.7999997138977,39,0,282.40000009536743,10,0,experiment,NA,NA,2,0.5,0.5,4,5,184,5,NA
fcp-trial,225,832061,0.0-194.0-0.0,voc_e2,12259,"[{""event"":""fullscreenenter"",""trial"":1,""time"":3639},{""event"":""blur"",""trial"":1,""time"":4621},{""event"":""focus"",""trial"":2,""time"":11086},{""event"":""fullscreenexit"",""trial"":3,""time"":13334}]",NA,NA,NA,NA,NA,4,#D8271C,#741CD8,0,10,1,38,1,804.4000000953674,39,0,575.7000002861023,10,0,experiment,NA,NA,2,0.5,0.5,4,5,185,5,NA
fcp-trial,226,834424,0.0-195.0-0.0,voc_e2,12259,"[{""event"":""fullscreenenter"",""trial"":1,""time"":3639},{""event"":""blur"",""trial"":1,""time"":4621},{""event"":""focus"",""trial"":2,""time"":11086},{""event"":""fullscreenexit"",""trial"":3,""time"":13334}]",NA,NA,NA,NA,NA,4,#3386FF,#D89F1C,0,10,0,38,1,440.80000019073486,39,0,417.30000019073486,10,1,experiment,NA,NA,0,0.1,0.9,1,0,186,5,NA
fcp-trial,227,837156,0.0-196.0-0.0,voc_e2,12259,"[{""event"":""fullscreenenter"",""trial"":1,""time"":3639},{""event"":""blur"",""trial"":1,""time"":4621},{""event"":""focus"",""trial"":2,""time"":11086},{""event"":""fullscreenexit"",""trial"":3,""time"":13334}]",NA,NA,NA,NA,NA,5,#FA92F8,#1CD855,10,10,1,38,1,627.2000002861023,37,1,600.1999998092651,10,1,experiment,NA,NA,1,0.7,0.3,2,3,187,5,NA
fcp-trial,228,840106,0.0-197.0-0.0,voc_e2,12259,"[{""event"":""fullscreenenter"",""trial"":1,""time"":3639},{""event"":""blur"",""trial"":1,""time"":4621},{""event"":""focus"",""trial"":2,""time"":11086},{""event"":""fullscreenexit"",""trial"":3,""time"":13334}]",NA,NA,NA,NA,NA,2,#D89F1C,#3386FF,10,0,1,38,1,328.40000009536743,37,1,1115.2000002861023,10,1,experiment,NA,NA,0,0.9,0.1,0,1,188,5,NA
fcp-trial,229,842512,0.0-198.0-0.0,voc_e2,12259,"[{""event"":""fullscreenenter"",""trial"":1,""time"":3639},{""event"":""blur"",""trial"":1,""time"":4621},{""event"":""focus"",""trial"":2,""time"":11086},{""event"":""fullscreenexit"",""trial"":3,""time"":13334}]",NA,NA,NA,NA,NA,6,#1CD855,#FA92F8,0,0,0,38,1,431.7999997138977,39,0,469,0,1,experiment,NA,NA,1,0.3,0.7,3,2,189,5,NA
fcp-trial,230,844890,0.0-199.0-0.0,voc_e2,12259,"[{""event"":""fullscreenenter"",""trial"":1,""time"":3639},{""event"":""blur"",""trial"":1,""time"":4621},{""event"":""focus"",""trial"":2,""time"":11086},{""event"":""fullscreenexit"",""trial"":3,""time"":13334}]",NA,NA,NA,NA,NA,2,#FA92F8,#1CD855,10,10,1,38,1,292.40000009536743,39,0,579.5,10,0,experiment,NA,NA,1,0.7,0.3,2,3,190,5,NA
fcp-trial,231,847240,0.0-200.0-0.0,voc_e2,12259,"[{""event"":""fullscreenenter"",""trial"":1,""time"":3639},{""event"":""blur"",""trial"":1,""time"":4621},{""event"":""focus"",""trial"":2,""time"":11086},{""event"":""fullscreenexit"",""trial"":3,""time"":13334}]",NA,NA,NA,NA,NA,1,#FA92F8,#1CD855,10,0,1,38,1,391.90000009536743,39,0,452.5,0,0,experiment,NA,NA,1,0.7,0.3,2,3,191,5,NA
fcp-trial,232,849473,0.0-201.0-0.0,voc_e2,12259,"[{""event"":""fullscreenenter"",""trial"":1,""time"":3639},{""event"":""blur"",""trial"":1,""time"":4621},{""event"":""focus"",""trial"":2,""time"":11086},{""event"":""fullscreenexit"",""trial"":3,""time"":13334}]",NA,NA,NA,NA,NA,2,#3386FF,#D89F1C,10,10,0,38,1,263.59999990463257,37,1,464.59999990463257,10,0,experiment,NA,NA,0,0.1,0.9,1,0,192,5,NA
fcp-trial,233,852049,0.0-202.0-0.0,voc_e2,12259,"[{""event"":""fullscreenenter"",""trial"":1,""time"":3639},{""event"":""blur"",""trial"":1,""time"":4621},{""event"":""focus"",""trial"":2,""time"":11086},{""event"":""fullscreenexit"",""trial"":3,""time"":13334}]",NA,NA,NA,NA,NA,5,#1CD855,#FA92F8,10,10,0,38,1,471.2000002861023,39,0,598.6999998092651,10,1,experiment,NA,NA,1,0.3,0.7,3,2,193,5,NA
fcp-trial,234,854402,0.0-203.0-0.0,voc_e2,12259,"[{""event"":""fullscreenenter"",""trial"":1,""time"":3639},{""event"":""blur"",""trial"":1,""time"":4621},{""event"":""focus"",""trial"":2,""time"":11086},{""event"":""fullscreenexit"",""trial"":3,""time"":13334}]",NA,NA,NA,NA,NA,5,#D89F1C,#3386FF,0,0,1,38,1,502.5,39,0,345.7000002861023,0,0,experiment,NA,NA,0,0.9,0.1,0,1,194,5,NA
fcp-trial,235,857089,0.0-204.0-0.0,voc_e2,12259,"[{""event"":""fullscreenenter"",""trial"":1,""time"":3639},{""event"":""blur"",""trial"":1,""time"":4621},{""event"":""focus"",""trial"":2,""time"":11086},{""event"":""fullscreenexit"",""trial"":3,""time"":13334}]",NA,NA,NA,NA,NA,1,#741CD8,#D8271C,10,0,0,38,1,386.19999980926514,39,0,795.3999996185303,0,1,experiment,NA,NA,2,0.5,0.5,5,4,195,5,NA
fcp-trial,236,859789,0.0-205.0-0.0,voc_e2,12259,"[{""event"":""fullscreenenter"",""trial"":1,""time"":3639},{""event"":""blur"",""trial"":1,""time"":4621},{""event"":""focus"",""trial"":2,""time"":11086},{""event"":""fullscreenexit"",""trial"":3,""time"":13334}]",NA,NA,NA,NA,NA,6,#D89F1C,#3386FF,10,0,1,38,1,288.90000009536743,37,1,905.4000000953674,10,1,experiment,NA,NA,0,0.9,0.1,0,1,196,5,NA
fcp-trial,237,862443,0.0-206.0-0.0,voc_e2,12259,"[{""event"":""fullscreenenter"",""trial"":1,""time"":3639},{""event"":""blur"",""trial"":1,""time"":4621},{""event"":""focus"",""trial"":2,""time"":11086},{""event"":""fullscreenexit"",""trial"":3,""time"":13334}]",NA,NA,NA,NA,NA,0,#D8271C,#741CD8,0,10,1,38,1,674.1000003814697,37,1,474.40000009536743,0,1,experiment,NA,NA,2,0.5,0.5,4,5,197,5,NA
fcp-trial,238,865475,0.0-207.0-0.0,voc_e2,12259,"[{""event"":""fullscreenenter"",""trial"":1,""time"":3639},{""event"":""blur"",""trial"":1,""time"":4621},{""event"":""focus"",""trial"":2,""time"":11086},{""event"":""fullscreenexit"",""trial"":3,""time"":13334}]",NA,NA,NA,NA,NA,6,#1CD855,#FA92F8,0,0,0,38,1,1116.6999998092651,39,0,404.90000009536743,0,1,experiment,NA,NA,1,0.3,0.7,3,2,198,5,NA
fcp-trial,239,867876,0.0-208.0-0.0,voc_e2,12259,"[{""event"":""fullscreenenter"",""trial"":1,""time"":3639},{""event"":""blur"",""trial"":1,""time"":4621},{""event"":""focus"",""trial"":2,""time"":11086},{""event"":""fullscreenexit"",""trial"":3,""time"":13334}]",NA,NA,NA,NA,NA,3,#3386FF,#D89F1C,0,10,0,38,1,427.7000002861023,39,0,466.80000019073486,10,1,experiment,NA,NA,0,0.1,0.9,1,0,199,5,NA
fcp-trial,240,870473,0.0-209.0-0.0,voc_e2,12259,"[{""event"":""fullscreenenter"",""trial"":1,""time"":3639},{""event"":""blur"",""trial"":1,""time"":4621},{""event"":""focus"",""trial"":2,""time"":11086},{""event"":""fullscreenexit"",""trial"":3,""time"":13334}]",NA,NA,NA,NA,NA,2,#741CD8,#D8271C,0,0,0,38,1,568.3999996185303,37,1,521.4000000953674,0,0,experiment,NA,NA,2,0.5,0.5,5,4,200,5,NA
fcp-trial,241,872710,0.0-210.0-0.0,voc_e2,12259,"[{""event"":""fullscreenenter"",""trial"":1,""time"":3639},{""event"":""blur"",""trial"":1,""time"":4621},{""event"":""focus"",""trial"":2,""time"":11086},{""event"":""fullscreenexit"",""trial"":3,""time"":13334}]",NA,NA,NA,NA,NA,4,#1CD855,#FA92F8,0,0,0,38,1,71.09999990463257,39,0,660.5,0,1,experiment,NA,NA,1,0.3,0.7,3,2,201,5,NA
fcp-trial,242,875333,0.0-211.0-0.0,voc_e2,12259,"[{""event"":""fullscreenenter"",""trial"":1,""time"":3639},{""event"":""blur"",""trial"":1,""time"":4621},{""event"":""focus"",""trial"":2,""time"":11086},{""event"":""fullscreenexit"",""trial"":3,""time"":13334}]",NA,NA,NA,NA,NA,3,#1CD855,#FA92F8,10,10,0,38,1,651.7000002861023,37,1,464.2999997138977,10,0,experiment,NA,NA,1,0.3,0.7,3,2,202,5,NA
fcp-trial,243,877663,0.0-212.0-0.0,voc_e2,12259,"[{""event"":""fullscreenenter"",""trial"":1,""time"":3639},{""event"":""blur"",""trial"":1,""time"":4621},{""event"":""focus"",""trial"":2,""time"":11086},{""event"":""fullscreenexit"",""trial"":3,""time"":13334}]",NA,NA,NA,NA,NA,4,#D89F1C,#3386FF,10,0,1,38,1,353.80000019073486,39,0,471.30000019073486,0,0,experiment,NA,NA,0,0.9,0.1,0,1,203,5,NA
fcp-trial,244,880056,0.0-213.0-0.0,voc_e2,12259,"[{""event"":""fullscreenenter"",""trial"":1,""time"":3639},{""event"":""blur"",""trial"":1,""time"":4621},{""event"":""focus"",""trial"":2,""time"":11086},{""event"":""fullscreenexit"",""trial"":3,""time"":13334}]",NA,NA,NA,NA,NA,1,#D89F1C,#3386FF,10,0,1,38,1,378.30000019073486,37,1,508.40000009536743,10,1,experiment,NA,NA,0,0.9,0.1,0,1,204,5,NA
fcp-trial,245,883423,0.0-214.0-0.0,voc_e2,12259,"[{""event"":""fullscreenenter"",""trial"":1,""time"":3639},{""event"":""blur"",""trial"":1,""time"":4621},{""event"":""focus"",""trial"":2,""time"":11086},{""event"":""fullscreenexit"",""trial"":3,""time"":13334}]",NA,NA,NA,NA,NA,5,#741CD8,#D8271C,10,10,0,38,1,756.5,37,1,1106.1999998092651,10,0,experiment,NA,NA,2,0.5,0.5,5,4,205,5,NA
fcp-trial,246,885649,0.0-215.0-0.0,voc_e2,12259,"[{""event"":""fullscreenenter"",""trial"":1,""time"":3639},{""event"":""blur"",""trial"":1,""time"":4621},{""event"":""focus"",""trial"":2,""time"":11086},{""event"":""fullscreenexit"",""trial"":3,""time"":13334}]",NA,NA,NA,NA,NA,0,#D89F1C,#3386FF,10,10,1,38,1,93.80000019073486,37,1,626.5,10,1,experiment,NA,NA,0,0.9,0.1,0,1,206,5,NA
fcp-trial,247,888240,0.0-216.0-0.0,voc_e2,12259,"[{""event"":""fullscreenenter"",""trial"":1,""time"":3639},{""event"":""blur"",""trial"":1,""time"":4621},{""event"":""focus"",""trial"":2,""time"":11086},{""event"":""fullscreenexit"",""trial"":3,""time"":13334}]",NA,NA,NA,NA,NA,0,#FA92F8,#1CD855,0,0,1,38,1,704.5999999046326,37,1,380.5,0,1,experiment,NA,NA,1,0.7,0.3,2,3,207,5,NA
fcp-trial,248,890691,0.0-217.0-0.0,voc_e2,12259,"[{""event"":""fullscreenenter"",""trial"":1,""time"":3639},{""event"":""blur"",""trial"":1,""time"":4621},{""event"":""focus"",""trial"":2,""time"":11086},{""event"":""fullscreenexit"",""trial"":3,""time"":13334}]",NA,NA,NA,NA,NA,6,#741CD8,#D8271C,10,10,0,38,1,678.9000000953674,37,1,265.90000009536743,10,0,experiment,NA,NA,2,0.5,0.5,5,4,208,5,NA
fcp-trial,249,893110,0.0-218.0-0.0,voc_e2,12259,"[{""event"":""fullscreenenter"",""trial"":1,""time"":3639},{""event"":""blur"",""trial"":1,""time"":4621},{""event"":""focus"",""trial"":2,""time"":11086},{""event"":""fullscreenexit"",""trial"":3,""time"":13334}]",NA,NA,NA,NA,NA,3,#D8271C,#741CD8,10,10,1,38,1,654.4000000953674,39,0,258.40000009536743,10,0,experiment,NA,NA,2,0.5,0.5,4,5,209,5,NA
fcp-trial,250,895472,0.0-219.0-0.0,voc_e2,12259,"[{""event"":""fullscreenenter"",""trial"":1,""time"":3639},{""event"":""blur"",""trial"":1,""time"":4621},{""event"":""focus"",""trial"":2,""time"":11086},{""event"":""fullscreenexit"",""trial"":3,""time"":13334}]",NA,NA,NA,NA,NA,4,#741CD8,#D8271C,10,0,0,38,1,408.7999997138977,37,1,446.5,10,0,experiment,NA,NA,2,0.5,0.5,5,4,210,5,NA
audio-instructions,251,900510,0.0-220.0,voc_e2,12259,"[{""event"":""fullscreenenter"",""trial"":1,""time"":3639},{""event"":""blur"",""trial"":1,""time"":4621},{""event"":""focus"",""trial"":2,""time"":11086},{""event"":""fullscreenexit"",""trial"":3,""time"":13334}]",NA,561.0999999046326,static/audio/pause.wav,NA,0,NA,NA,NA,NA,NA,NA,NA,NA,NA,NA,NA,NA,NA,NA,NA,NA,NA,NA,NA,NA,NA,NA,NA,NA,NA
fcp-trial,252,903372,0.0-221.0-0.0,voc_e2,12259,"[{""event"":""fullscreenenter"",""trial"":1,""time"":3639},{""event"":""blur"",""trial"":1,""time"":4621},{""event"":""focus"",""trial"":2,""time"":11086},{""event"":""fullscreenexit"",""trial"":3,""time"":13334}]",NA,NA,NA,NA,NA,2,#D8271C,#741CD8,0,10,1,38,1,928.0999999046326,39,0,424.40000009536743,10,0,experiment,NA,NA,2,0.5,0.5,4,5,211,5,NA
fcp-trial,253,905741,0.0-222.0-0.0,voc_e2,12259,"[{""event"":""fullscreenenter"",""trial"":1,""time"":3639},{""event"":""blur"",""trial"":1,""time"":4621},{""event"":""focus"",""trial"":2,""time"":11086},{""event"":""fullscreenexit"",""trial"":3,""time"":13334}]",NA,NA,NA,NA,NA,5,#3386FF,#D89F1C,0,10,0,38,1,341.7999997138977,39,0,521.3000001907349,10,1,experiment,NA,NA,0,0.1,0.9,1,0,212,5,NA
fcp-trial,254,907990,0.0-223.0-0.0,voc_e2,12259,"[{""event"":""fullscreenenter"",""trial"":1,""time"":3639},{""event"":""blur"",""trial"":1,""time"":4621},{""event"":""focus"",""trial"":2,""time"":11086},{""event"":""fullscreenexit"",""trial"":3,""time"":13334}]",NA,NA,NA,NA,NA,2,#D89F1C,#3386FF,10,0,1,38,1,348,37,1,394.19999980926514,10,1,experiment,NA,NA,0,0.9,0.1,0,1,213,5,NA
fcp-trial,255,910290,0.0-224.0-0.0,voc_e2,12259,"[{""event"":""fullscreenenter"",""trial"":1,""time"":3639},{""event"":""blur"",""trial"":1,""time"":4621},{""event"":""focus"",""trial"":2,""time"":11086},{""event"":""fullscreenexit"",""trial"":3,""time"":13334}]",NA,NA,NA,NA,NA,1,#D89F1C,#3386FF,10,0,1,38,1,306,37,1,488.80000019073486,10,1,experiment,NA,NA,0,0.9,0.1,0,1,214,5,NA
