trial_type,trial_index,time_elapsed,internal_node_id,task_version,subject_id,interactions,success,rt,stimulus,key_press,button_pressed,offer,arcade_color_L,arcade_color_R,arcade_outcome_L,arcade_outcome_R,correct,stage_1_key,stage_1_choice,stage_1_rt,stage_2_key,stage_2_choice,stage_2_rt,stage_3_outcome,accuracy,phase,responses,num_errors,context,reward_prob_L,reward_prob_R,arcade_id_L,arcade_id_R,trial,block,response
pavlovia,0,23,0.0-0.0,voc_e2,11816,[],NA,NA,NA,NA,NA,NA,NA,NA,NA,NA,NA,NA,NA,NA,NA,NA,NA,NA,NA,NA,NA,NA,NA,NA,NA,NA,NA,NA,NA,NA
fullscreen,1,52465,0.0-1.0,voc_e2,11816,"[{""event"":""fullscreenenter"",""trial"":1,""time"":51566}]",TRUE,NA,NA,NA,NA,NA,NA,NA,NA,NA,NA,NA,NA,NA,NA,NA,NA,NA,NA,NA,NA,NA,NA,NA,NA,NA,NA,NA,NA,NA
audio-keyboard-response,2,65076,0.0-2.0,voc_e2,11816,"[{""event"":""fullscreenenter"",""trial"":1,""time"":51566}]",NA,12491,static/audio/beep_loop.wav,32,NA,NA,NA,NA,NA,NA,NA,NA,NA,NA,NA,NA,NA,NA,NA,NA,NA,NA,NA,NA,NA,NA,NA,NA,NA,NA
audio-test,3,93969,0.0-3.0,voc_e2,11816,"[{""event"":""fullscreenenter"",""trial"":1,""time"":51566}]",NA,NA,static/audio/turtle.wav,NA,3,NA,NA,NA,NA,NA,NA,NA,NA,NA,NA,NA,NA,NA,NA,NA,NA,NA,NA,NA,NA,NA,NA,NA,NA,NA
audio-test,4,96375,0.0-4.0,voc_e2,11816,"[{""event"":""fullscreenenter"",""trial"":1,""time"":51566}]",NA,NA,static/audio/shark.wav,NA,2,NA,NA,NA,NA,NA,NA,NA,NA,NA,NA,NA,NA,NA,NA,NA,NA,NA,NA,NA,NA,NA,NA,NA,NA,NA
audio-instructions,5,121506,0.0-5.0-0.0,voc_e2,11816,"[{""event"":""fullscreenenter"",""trial"":1,""time"":51566}]",NA,19353.800000000745,static/audio/instructions1.wav,NA,0,NA,NA,NA,NA,NA,NA,NA,NA,NA,NA,NA,NA,NA,NA,NA,NA,NA,NA,NA,NA,NA,NA,NA,NA,NA
audio-instructions,6,130045,0.0-5.0-1.0,voc_e2,11816,"[{""event"":""fullscreenenter"",""trial"":1,""time"":51566}]",NA,1803,static/audio/instructions2.wav,NA,0,NA,NA,NA,NA,NA,NA,NA,NA,NA,NA,NA,NA,NA,NA,NA,NA,NA,NA,NA,NA,NA,NA,NA,NA,NA
audio-instructions,7,136808,0.0-5.0-2.0,voc_e2,11816,"[{""event"":""fullscreenenter"",""trial"":1,""time"":51566}]",NA,960,static/audio/instructions3.wav,NA,0,NA,NA,NA,NA,NA,NA,NA,NA,NA,NA,NA,NA,NA,NA,NA,NA,NA,NA,NA,NA,NA,NA,NA,NA,NA
audio-instructions,8,151384,0.0-5.0-3.0,voc_e2,11816,"[{""event"":""fullscreenenter"",""trial"":1,""time"":51566}]",NA,1349.5,static/audio/instructions4.wav,NA,0,NA,NA,NA,NA,NA,NA,NA,NA,NA,NA,NA,NA,NA,NA,NA,NA,NA,NA,NA,NA,NA,NA,NA,NA,NA
audio-instructions,9,166830,0.0-5.0-4.0,voc_e2,11816,"[{""event"":""fullscreenenter"",""trial"":1,""time"":51566}]",NA,6065.5,static/audio/instructions5.wav,NA,0,NA,NA,NA,NA,NA,NA,NA,NA,NA,NA,NA,NA,NA,NA,NA,NA,NA,NA,NA,NA,NA,NA,NA,NA,NA
fcp-practice,10,238653,0.0-5.0-5.0-0.0,voc_e2,11816,"[{""event"":""fullscreenenter"",""trial"":1,""time"":51566},{""event"":""blur"",""trial"":10,""time"":196799},{""event"":""focus"",""trial"":10,""time"":198841},{""event"":""fullscreenexit"",""trial"":10,""time"":208923}]",NA,NA,NA,NA,NA,NA,#EDC948,#46d3c8,10,0,1,null,null,null,37,1,70291.69999999925,10,1,practice,NA,NA,NA,NA,NA,NA,NA,NA,NA,NA
fcp-practice,11,241100,0.0-5.0-5.0-1.0,voc_e2,11816,"[{""event"":""fullscreenenter"",""trial"":1,""time"":51566},{""event"":""blur"",""trial"":10,""time"":196799},{""event"":""focus"",""trial"":10,""time"":198841},{""event"":""fullscreenexit"",""trial"":10,""time"":208923}]",NA,NA,NA,NA,NA,NA,#EDC948,#46d3c8,10,0,1,null,null,null,37,1,938.6000000014901,10,1,practice,NA,NA,NA,NA,NA,NA,NA,NA,NA,NA
fcp-practice,12,243238,0.0-5.0-5.0-2.0,voc_e2,11816,"[{""event"":""fullscreenenter"",""trial"":1,""time"":51566},{""event"":""blur"",""trial"":10,""time"":196799},{""event"":""focus"",""trial"":10,""time"":198841},{""event"":""fullscreenexit"",""trial"":10,""time"":208923}]",NA,NA,NA,NA,NA,NA,#EDC948,#46d3c8,0,10,1,null,null,null,37,1,616.0999999977648,0,1,practice,NA,NA,NA,NA,NA,NA,NA,NA,NA,NA
fcp-practice,13,245410,0.0-5.0-5.0-3.0,voc_e2,11816,"[{""event"":""fullscreenenter"",""trial"":1,""time"":51566},{""event"":""blur"",""trial"":10,""time"":196799},{""event"":""focus"",""trial"":10,""time"":198841},{""event"":""fullscreenexit"",""trial"":10,""time"":208923}]",NA,NA,NA,NA,NA,NA,#EDC948,#46d3c8,10,0,1,null,null,null,37,1,658.6999999992549,10,1,practice,NA,NA,NA,NA,NA,NA,NA,NA,NA,NA
fcp-practice,14,247535,0.0-5.0-5.0-4.0,voc_e2,11816,"[{""event"":""fullscreenenter"",""trial"":1,""time"":51566},{""event"":""blur"",""trial"":10,""time"":196799},{""event"":""focus"",""trial"":10,""time"":198841},{""event"":""fullscreenexit"",""trial"":10,""time"":208923}]",NA,NA,NA,NA,NA,NA,#EDC948,#46d3c8,10,0,1,null,null,null,37,1,616.5,10,1,practice,NA,NA,NA,NA,NA,NA,NA,NA,NA,NA
audio-instructions,15,272309,0.0-5.0-6.0,voc_e2,11816,"[{""event"":""fullscreenenter"",""trial"":1,""time"":51566},{""event"":""blur"",""trial"":10,""time"":196799},{""event"":""focus"",""trial"":10,""time"":198841},{""event"":""fullscreenexit"",""trial"":10,""time"":208923}]",NA,6719.199999999255,static/audio/instructions6.wav,NA,0,NA,NA,NA,NA,NA,NA,NA,NA,NA,NA,NA,NA,NA,NA,NA,NA,NA,NA,NA,NA,NA,NA,NA,NA,NA
audio-instructions,16,293665,0.0-5.0-7.0,voc_e2,11816,"[{""event"":""fullscreenenter"",""trial"":1,""time"":51566},{""event"":""blur"",""trial"":10,""time"":196799},{""event"":""focus"",""trial"":10,""time"":198841},{""event"":""fullscreenexit"",""trial"":10,""time"":208923}]",NA,2154.900000002235,static/audio/instructions7.wav,NA,0,NA,NA,NA,NA,NA,NA,NA,NA,NA,NA,NA,NA,NA,NA,NA,NA,NA,NA,NA,NA,NA,NA,NA,NA,NA
audio-instructions,17,304017,0.0-5.0-8.0,voc_e2,11816,"[{""event"":""fullscreenenter"",""trial"":1,""time"":51566},{""event"":""blur"",""trial"":10,""time"":196799},{""event"":""focus"",""trial"":10,""time"":198841},{""event"":""fullscreenexit"",""trial"":10,""time"":208923}]",NA,877.4000000022352,static/audio/instructions8.wav,NA,0,NA,NA,NA,NA,NA,NA,NA,NA,NA,NA,NA,NA,NA,NA,NA,NA,NA,NA,NA,NA,NA,NA,NA,NA,NA
fcp-comprehension,18,315585,0.0-5.0-9.0,voc_e2,11816,"[{""event"":""fullscreenenter"",""trial"":1,""time"":51566},{""event"":""blur"",""trial"":10,""time"":196799},{""event"":""focus"",""trial"":10,""time"":198841},{""event"":""fullscreenexit"",""trial"":10,""time"":208923}]",NA,11564.89999999851,NA,NA,NA,NA,NA,NA,NA,NA,NA,NA,NA,NA,NA,NA,NA,NA,NA,NA,"true,true",0,NA,NA,NA,NA,NA,NA,NA,NA
audio-instructions,19,322956,0.0-6.0-0.0,voc_e2,11816,"[{""event"":""fullscreenenter"",""trial"":1,""time"":51566},{""event"":""blur"",""trial"":10,""time"":196799},{""event"":""focus"",""trial"":10,""time"":198841},{""event"":""fullscreenexit"",""trial"":10,""time"":208923}]",NA,1824.79999999702,static/audio/instructions9.wav,NA,0,NA,NA,NA,NA,NA,NA,NA,NA,NA,NA,NA,NA,NA,NA,NA,NA,NA,NA,NA,NA,NA,NA,NA,NA,NA
audio-instructions,20,336073,0.0-6.0-1.0,voc_e2,11816,"[{""event"":""fullscreenenter"",""trial"":1,""time"":51566},{""event"":""blur"",""trial"":10,""time"":196799},{""event"":""focus"",""trial"":10,""time"":198841},{""event"":""fullscreenexit"",""trial"":10,""time"":208923}]",NA,1000.7000000029802,static/audio/instructions10.wav,NA,0,NA,NA,NA,NA,NA,NA,NA,NA,NA,NA,NA,NA,NA,NA,NA,NA,NA,NA,NA,NA,NA,NA,NA,NA,NA
fcp-trial,21,342470,0.0-6.0-2.0,voc_e2,11816,"[{""event"":""fullscreenenter"",""trial"":1,""time"":51566},{""event"":""blur"",""trial"":10,""time"":196799},{""event"":""focus"",""trial"":10,""time"":198841},{""event"":""fullscreenexit"",""trial"":10,""time"":208923}]",NA,NA,NA,NA,NA,0,#EDC948,#46d3c8,10,10,1,38,1,3636.2999999970198,39,0,1244.1000000014901,10,0,practice,NA,NA,NA,NA,NA,NA,NA,NA,NA,NA
audio-instructions,22,355889,0.0-6.0-3.0,voc_e2,11816,"[{""event"":""fullscreenenter"",""trial"":1,""time"":51566},{""event"":""blur"",""trial"":10,""time"":196799},{""event"":""focus"",""trial"":10,""time"":198841},{""event"":""fullscreenexit"",""trial"":10,""time"":208923}]",NA,2416.5,static/audio/instructions11.wav,NA,0,NA,NA,NA,NA,NA,NA,NA,NA,NA,NA,NA,NA,NA,NA,NA,NA,NA,NA,NA,NA,NA,NA,NA,NA,NA
fcp-trial,23,361774,0.0-6.0-4.0,voc_e2,11816,"[{""event"":""fullscreenenter"",""trial"":1,""time"":51566},{""event"":""blur"",""trial"":10,""time"":196799},{""event"":""focus"",""trial"":10,""time"":198841},{""event"":""fullscreenexit"",""trial"":10,""time"":208923}]",NA,NA,NA,NA,NA,6,#EDC948,#46d3c8,10,10,1,40,0,1609.5999999977648,39,0,2765.300000000745,10,0,practice,NA,NA,NA,NA,NA,NA,NA,NA,NA,NA
audio-instructions,24,385000,0.0-6.0-5.0,voc_e2,11816,"[{""event"":""fullscreenenter"",""trial"":1,""time"":51566},{""event"":""blur"",""trial"":10,""time"":196799},{""event"":""focus"",""trial"":10,""time"":198841},{""event"":""fullscreenexit"",""trial"":10,""time"":208923}]",NA,4541,static/audio/instructions12.wav,NA,0,NA,NA,NA,NA,NA,NA,NA,NA,NA,NA,NA,NA,NA,NA,NA,NA,NA,NA,NA,NA,NA,NA,NA,NA,NA
audio-instructions,25,405850,0.0-6.0-6.0,voc_e2,11816,"[{""event"":""fullscreenenter"",""trial"":1,""time"":51566},{""event"":""blur"",""trial"":10,""time"":196799},{""event"":""focus"",""trial"":10,""time"":198841},{""event"":""fullscreenexit"",""trial"":10,""time"":208923}]",NA,13251.300000000743,static/audio/instructions13.wav,NA,0,NA,NA,NA,NA,NA,NA,NA,NA,NA,NA,NA,NA,NA,NA,NA,NA,NA,NA,NA,NA,NA,NA,NA,NA,NA
audio-instructions,26,417604,0.0-6.0-7.0,voc_e2,11816,"[{""event"":""fullscreenenter"",""trial"":1,""time"":51566},{""event"":""blur"",""trial"":10,""time"":196799},{""event"":""focus"",""trial"":10,""time"":198841},{""event"":""fullscreenexit"",""trial"":10,""time"":208923}]",NA,3310,static/audio/instructions14.wav,NA,0,NA,NA,NA,NA,NA,NA,NA,NA,NA,NA,NA,NA,NA,NA,NA,NA,NA,NA,NA,NA,NA,NA,NA,NA,NA
audio-instructions,27,425350,0.0-7.0-0.0,voc_e2,11816,"[{""event"":""fullscreenenter"",""trial"":1,""time"":51566},{""event"":""blur"",""trial"":10,""time"":196799},{""event"":""focus"",""trial"":10,""time"":198841},{""event"":""fullscreenexit"",""trial"":10,""time"":208923}]",NA,837,static/audio/instructions15.wav,NA,0,NA,NA,NA,NA,NA,NA,NA,NA,NA,NA,NA,NA,NA,NA,NA,NA,NA,NA,NA,NA,NA,NA,NA,NA,NA
audio-instructions,28,433638,0.0-7.0-1.0,voc_e2,11816,"[{""event"":""fullscreenenter"",""trial"":1,""time"":51566},{""event"":""blur"",""trial"":10,""time"":196799},{""event"":""focus"",""trial"":10,""time"":198841},{""event"":""fullscreenexit"",""trial"":10,""time"":208923}]",NA,1467.199999999255,static/audio/instructions16.wav,NA,0,NA,NA,NA,NA,NA,NA,NA,NA,NA,NA,NA,NA,NA,NA,NA,NA,NA,NA,NA,NA,NA,NA,NA,NA,NA
audio-instructions,29,441886,0.0-7.0-2.0,voc_e2,11816,"[{""event"":""fullscreenenter"",""trial"":1,""time"":51566},{""event"":""blur"",""trial"":10,""time"":196799},{""event"":""focus"",""trial"":10,""time"":198841},{""event"":""fullscreenexit"",""trial"":10,""time"":208923}]",NA,573.3999999985099,static/audio/instructions17.wav,NA,0,NA,NA,NA,NA,NA,NA,NA,NA,NA,NA,NA,NA,NA,NA,NA,NA,NA,NA,NA,NA,NA,NA,NA,NA,NA
audio-instructions,30,450123,0.0-7.0-3.0,voc_e2,11816,"[{""event"":""fullscreenenter"",""trial"":1,""time"":51566},{""event"":""blur"",""trial"":10,""time"":196799},{""event"":""focus"",""trial"":10,""time"":198841},{""event"":""fullscreenexit"",""trial"":10,""time"":208923}]",NA,468.69999999925494,static/audio/instructions18.wav,NA,0,NA,NA,NA,NA,NA,NA,NA,NA,NA,NA,NA,NA,NA,NA,NA,NA,NA,NA,NA,NA,NA,NA,NA,NA,NA
audio-instructions,31,457829,0.0-7.0-4.0,voc_e2,11816,"[{""event"":""fullscreenenter"",""trial"":1,""time"":51566},{""event"":""blur"",""trial"":10,""time"":196799},{""event"":""focus"",""trial"":10,""time"":198841},{""event"":""fullscreenexit"",""trial"":10,""time"":208923}]",NA,964.2999999970198,static/audio/instructions19.wav,NA,0,NA,NA,NA,NA,NA,NA,NA,NA,NA,NA,NA,NA,NA,NA,NA,NA,NA,NA,NA,NA,NA,NA,NA,NA,NA
fcp-comprehension,32,484247,0.0-7.0-5.0,voc_e2,11816,"[{""event"":""fullscreenenter"",""trial"":1,""time"":51566},{""event"":""blur"",""trial"":10,""time"":196799},{""event"":""focus"",""trial"":10,""time"":198841},{""event"":""fullscreenexit"",""trial"":10,""time"":208923}]",NA,26415.099999997765,NA,NA,NA,NA,NA,NA,NA,NA,NA,NA,NA,NA,NA,NA,NA,NA,NA,NA,"true,true,false,true",2,NA,NA,NA,NA,NA,NA,NA,NA
audio-instructions,33,491945,0.0-7.1-0.1,voc_e2,11816,"[{""event"":""fullscreenenter"",""trial"":1,""time"":51566},{""event"":""blur"",""trial"":10,""time"":196799},{""event"":""focus"",""trial"":10,""time"":198841},{""event"":""fullscreenexit"",""trial"":10,""time"":208923}]",NA,786.3000000007451,static/audio/instructions15.wav,NA,0,NA,NA,NA,NA,NA,NA,NA,NA,NA,NA,NA,NA,NA,NA,NA,NA,NA,NA,NA,NA,NA,NA,NA,NA,NA
audio-instructions,34,508287,0.0-7.1-1.1,voc_e2,11816,"[{""event"":""fullscreenenter"",""trial"":1,""time"":51566},{""event"":""blur"",""trial"":10,""time"":196799},{""event"":""focus"",""trial"":10,""time"":198841},{""event"":""fullscreenexit"",""trial"":10,""time"":208923}]",NA,9512.800000000743,static/audio/instructions16.wav,NA,0,NA,NA,NA,NA,NA,NA,NA,NA,NA,NA,NA,NA,NA,NA,NA,NA,NA,NA,NA,NA,NA,NA,NA,NA,NA
audio-instructions,35,517601,0.0-7.1-2.1,voc_e2,11816,"[{""event"":""fullscreenenter"",""trial"":1,""time"":51566},{""event"":""blur"",""trial"":10,""time"":196799},{""event"":""focus"",""trial"":10,""time"":198841},{""event"":""fullscreenexit"",""trial"":10,""time"":208923}]",NA,1632.5,static/audio/instructions17.wav,NA,0,NA,NA,NA,NA,NA,NA,NA,NA,NA,NA,NA,NA,NA,NA,NA,NA,NA,NA,NA,NA,NA,NA,NA,NA,NA
audio-instructions,36,528019,0.0-7.1-3.1,voc_e2,11816,"[{""event"":""fullscreenenter"",""trial"":1,""time"":51566},{""event"":""blur"",""trial"":10,""time"":196799},{""event"":""focus"",""trial"":10,""time"":198841},{""event"":""fullscreenexit"",""trial"":10,""time"":208923}]",NA,2653.400000002235,static/audio/instructions18.wav,NA,0,NA,NA,NA,NA,NA,NA,NA,NA,NA,NA,NA,NA,NA,NA,NA,NA,NA,NA,NA,NA,NA,NA,NA,NA,NA
audio-instructions,37,547300,0.0-7.1-4.1,voc_e2,11816,"[{""event"":""fullscreenenter"",""trial"":1,""time"":51566},{""event"":""blur"",""trial"":10,""time"":196799},{""event"":""focus"",""trial"":10,""time"":198841},{""event"":""fullscreenexit"",""trial"":10,""time"":208923}]",NA,12536.699999999257,static/audio/instructions19.wav,NA,0,NA,NA,NA,NA,NA,NA,NA,NA,NA,NA,NA,NA,NA,NA,NA,NA,NA,NA,NA,NA,NA,NA,NA,NA,NA
fcp-comprehension,38,581142,0.0-7.1-5.1,voc_e2,11816,"[{""event"":""fullscreenenter"",""trial"":1,""time"":51566},{""event"":""blur"",""trial"":10,""time"":196799},{""event"":""focus"",""trial"":10,""time"":198841},{""event"":""fullscreenexit"",""trial"":10,""time"":208923}]",NA,33838.199999999255,NA,NA,NA,NA,NA,NA,NA,NA,NA,NA,NA,NA,NA,NA,NA,NA,NA,NA,"false,false,false,true",0,NA,NA,NA,NA,NA,NA,NA,NA
audio-instructions,39,598465,0.0-8.0,voc_e2,11816,"[{""event"":""fullscreenenter"",""trial"":1,""time"":51566},{""event"":""blur"",""trial"":10,""time"":196799},{""event"":""focus"",""trial"":10,""time"":198841},{""event"":""fullscreenexit"",""trial"":10,""time"":208923}]",NA,8057.29999999702,static/audio/ready.wav,NA,0,NA,NA,NA,NA,NA,NA,NA,NA,NA,NA,NA,NA,NA,NA,NA,NA,NA,NA,NA,NA,NA,NA,NA,NA,NA
fcp-trial,40,602160,0.0-9.0-0.0,voc_e2,11816,"[{""event"":""fullscreenenter"",""trial"":1,""time"":51566},{""event"":""blur"",""trial"":10,""time"":196799},{""event"":""focus"",""trial"":10,""time"":198841},{""event"":""fullscreenexit"",""trial"":10,""time"":208923}]",NA,NA,NA,NA,NA,5,#3386FF,#D89F1C,10,0,0,38,1,1397.1000000014901,37,1,786.6999999992549,10,0,experiment,NA,NA,2,0.5,0.5,5,4,1,1,NA
fcp-trial,41,605460,0.0-10.0-0.0,voc_e2,11816,"[{""event"":""fullscreenenter"",""trial"":1,""time"":51566},{""event"":""blur"",""trial"":10,""time"":196799},{""event"":""focus"",""trial"":10,""time"":198841},{""event"":""fullscreenexit"",""trial"":10,""time"":208923}]",NA,NA,NA,NA,NA,2,#1CD855,#FA92F8,0,10,0,38,1,1122.9000000022352,39,0,667.1999999992549,10,1,experiment,NA,NA,1,0.3,0.7,3,2,2,1,NA
fcp-trial,42,608058,0.0-11.0-0.0,voc_e2,11816,"[{""event"":""fullscreenenter"",""trial"":1,""time"":51566},{""event"":""blur"",""trial"":10,""time"":196799},{""event"":""focus"",""trial"":10,""time"":198841},{""event"":""fullscreenexit"",""trial"":10,""time"":208923}]",NA,NA,NA,NA,NA,3,#3386FF,#D89F1C,10,10,0,38,1,538,37,1,550.1999999992549,10,0,experiment,NA,NA,2,0.5,0.5,5,4,3,1,NA
fcp-trial,43,610404,0.0-12.0-0.0,voc_e2,11816,"[{""event"":""fullscreenenter"",""trial"":1,""time"":51566},{""event"":""blur"",""trial"":10,""time"":196799},{""event"":""focus"",""trial"":10,""time"":198841},{""event"":""fullscreenexit"",""trial"":10,""time"":208923}]",NA,NA,NA,NA,NA,3,#741CD8,#D8271C,10,0,1,38,1,391.30000000074506,39,0,443.6000000014901,0,0,experiment,NA,NA,0,0.9,0.1,0,1,4,1,NA
fcp-trial,44,613620,0.0-13.0-0.0,voc_e2,11816,"[{""event"":""fullscreenenter"",""trial"":1,""time"":51566},{""event"":""blur"",""trial"":10,""time"":196799},{""event"":""focus"",""trial"":10,""time"":198841},{""event"":""fullscreenexit"",""trial"":10,""time"":208923}]",NA,NA,NA,NA,NA,5,#D8271C,#741CD8,0,10,0,40,0,840.8000000007451,37,1,870,0,0,experiment,NA,NA,0,0.1,0.9,1,0,5,1,NA
fcp-trial,45,617703,0.0-14.0-0.0,voc_e2,11816,"[{""event"":""fullscreenenter"",""trial"":1,""time"":51566},{""event"":""blur"",""trial"":10,""time"":196799},{""event"":""focus"",""trial"":10,""time"":198841},{""event"":""fullscreenexit"",""trial"":10,""time"":208923}]",NA,NA,NA,NA,NA,1,#3386FF,#D89F1C,0,0,0,40,0,1286.199999999255,37,1,1285.8999999985099,0,0,experiment,NA,NA,2,0.5,0.5,5,4,6,1,NA
fcp-trial,46,620780,0.0-15.0-0.0,voc_e2,11816,"[{""event"":""fullscreenenter"",""trial"":1,""time"":51566},{""event"":""blur"",""trial"":10,""time"":196799},{""event"":""focus"",""trial"":10,""time"":198841},{""event"":""fullscreenexit"",""trial"":10,""time"":208923}]",NA,NA,NA,NA,NA,5,#1CD855,#FA92F8,0,0,0,38,1,350,39,0,1221.5,0,1,experiment,NA,NA,1,0.3,0.7,3,2,7,1,NA
fcp-trial,47,624230,0.0-16.0-0.0,voc_e2,11816,"[{""event"":""fullscreenenter"",""trial"":1,""time"":51566},{""event"":""blur"",""trial"":10,""time"":196799},{""event"":""focus"",""trial"":10,""time"":198841},{""event"":""fullscreenexit"",""trial"":10,""time"":208923}]",NA,NA,NA,NA,NA,2,#D8271C,#741CD8,0,10,0,40,0,1198.300000000745,39,0,742.6000000014901,10,1,experiment,NA,NA,0,0.1,0.9,1,0,8,1,NA
fcp-trial,48,630133,0.0-17.0-0.0,voc_e2,11816,"[{""event"":""fullscreenenter"",""trial"":1,""time"":51566},{""event"":""blur"",""trial"":10,""time"":196799},{""event"":""focus"",""trial"":10,""time"":198841},{""event"":""fullscreenexit"",""trial"":10,""time"":208923}]",NA,NA,NA,NA,NA,0,#D8271C,#741CD8,0,0,0,40,0,2946.699999999255,39,0,1446.5999999977648,0,1,experiment,NA,NA,0,0.1,0.9,1,0,9,1,NA
fcp-trial,49,633302,0.0-18.0-0.0,voc_e2,11816,"[{""event"":""fullscreenenter"",""trial"":1,""time"":51566},{""event"":""blur"",""trial"":10,""time"":196799},{""event"":""focus"",""trial"":10,""time"":198841},{""event"":""fullscreenexit"",""trial"":10,""time"":208923}]",NA,NA,NA,NA,NA,6,#1CD855,#FA92F8,0,10,0,38,1,1194.800000000745,37,1,465.19999999925494,0,0,experiment,NA,NA,1,0.3,0.7,3,2,10,1,NA
fcp-trial,50,648312,0.0-19.0-0.0,voc_e2,11816,"[{""event"":""fullscreenenter"",""trial"":1,""time"":51566},{""event"":""blur"",""trial"":10,""time"":196799},{""event"":""focus"",""trial"":10,""time"":198841},{""event"":""fullscreenexit"",""trial"":10,""time"":208923}]",NA,NA,NA,NA,NA,0,#D89F1C,#3386FF,0,10,1,null,null,null,null,null,null,NA,0,experiment,NA,NA,2,0.5,0.5,4,5,11,1,NA
fcp-trial,51,652125,0.0-20.0-0.0,voc_e2,11816,"[{""event"":""fullscreenenter"",""trial"":1,""time"":51566},{""event"":""blur"",""trial"":10,""time"":196799},{""event"":""focus"",""trial"":10,""time"":198841},{""event"":""fullscreenexit"",""trial"":10,""time"":208923}]",NA,NA,NA,NA,NA,3,#1CD855,#FA92F8,10,10,0,38,1,1218.300000000745,37,1,1066.4000000022352,10,0,experiment,NA,NA,1,0.3,0.7,3,2,12,1,NA
fcp-trial,52,658042,0.0-21.0-0.0,voc_e2,11816,"[{""event"":""fullscreenenter"",""trial"":1,""time"":51566},{""event"":""blur"",""trial"":10,""time"":196799},{""event"":""focus"",""trial"":10,""time"":198841},{""event"":""fullscreenexit"",""trial"":10,""time"":208923}]",NA,NA,NA,NA,NA,0,#FA92F8,#1CD855,10,0,1,38,1,3145.400000002235,39,0,1261.3999999985099,0,0,experiment,NA,NA,1,0.7,0.3,2,3,13,1,NA
fcp-trial,53,661201,0.0-22.0-0.0,voc_e2,11816,"[{""event"":""fullscreenenter"",""trial"":1,""time"":51566},{""event"":""blur"",""trial"":10,""time"":196799},{""event"":""focus"",""trial"":10,""time"":198841},{""event"":""fullscreenexit"",""trial"":10,""time"":208923}]",NA,NA,NA,NA,NA,1,#D8271C,#741CD8,0,10,0,38,1,1038.699999999255,37,1,611,0,0,experiment,NA,NA,0,0.1,0.9,1,0,14,1,NA
fcp-trial,54,666530,0.0-23.0-0.0,voc_e2,11816,"[{""event"":""fullscreenenter"",""trial"":1,""time"":51566},{""event"":""blur"",""trial"":10,""time"":196799},{""event"":""focus"",""trial"":10,""time"":198841},{""event"":""fullscreenexit"",""trial"":10,""time"":208923}]",NA,NA,NA,NA,NA,4,#D89F1C,#3386FF,0,10,1,38,1,3071.699999999255,39,0,751.1999999992549,10,0,experiment,NA,NA,2,0.5,0.5,4,5,15,1,NA
fcp-trial,55,670555,0.0-24.0-0.0,voc_e2,11816,"[{""event"":""fullscreenenter"",""trial"":1,""time"":51566},{""event"":""blur"",""trial"":10,""time"":196799},{""event"":""focus"",""trial"":10,""time"":198841},{""event"":""fullscreenexit"",""trial"":10,""time"":208923}]",NA,NA,NA,NA,NA,4,#741CD8,#D8271C,0,0,1,40,0,1645.5999999977648,37,1,866.1999999992549,0,1,experiment,NA,NA,0,0.9,0.1,0,1,16,1,NA
fcp-trial,56,674545,0.0-25.0-0.0,voc_e2,11816,"[{""event"":""fullscreenenter"",""trial"":1,""time"":51566},{""event"":""blur"",""trial"":10,""time"":196799},{""event"":""focus"",""trial"":10,""time"":198841},{""event"":""fullscreenexit"",""trial"":10,""time"":208923}]",NA,NA,NA,NA,NA,6,#741CD8,#D8271C,10,0,1,40,0,1837.1000000014901,37,1,643.5,10,1,experiment,NA,NA,0,0.9,0.1,0,1,17,1,NA
fcp-trial,57,679138,0.0-26.0-0.0,voc_e2,11816,"[{""event"":""fullscreenenter"",""trial"":1,""time"":51566},{""event"":""blur"",""trial"":10,""time"":196799},{""event"":""focus"",""trial"":10,""time"":198841},{""event"":""fullscreenexit"",""trial"":10,""time"":208923}]",NA,NA,NA,NA,NA,4,#1CD855,#FA92F8,10,0,0,40,0,2317.199999999255,37,1,766.8000000007451,10,0,experiment,NA,NA,1,0.3,0.7,3,2,18,1,NA
fcp-trial,58,694147,0.0-27.0-0.0,voc_e2,11816,"[{""event"":""fullscreenenter"",""trial"":1,""time"":51566},{""event"":""blur"",""trial"":10,""time"":196799},{""event"":""focus"",""trial"":10,""time"":198841},{""event"":""fullscreenexit"",""trial"":10,""time"":208923}]",NA,NA,NA,NA,NA,2,#3386FF,#D89F1C,0,10,0,null,null,null,null,null,null,NA,0,experiment,NA,NA,2,0.5,0.5,5,4,19,1,NA
fcp-trial,59,709153,0.0-28.0-0.0,voc_e2,11816,"[{""event"":""fullscreenenter"",""trial"":1,""time"":51566},{""event"":""blur"",""trial"":10,""time"":196799},{""event"":""focus"",""trial"":10,""time"":198841},{""event"":""fullscreenexit"",""trial"":10,""time"":208923}]",NA,NA,NA,NA,NA,1,#1CD855,#FA92F8,0,0,0,null,null,null,null,null,null,NA,0,experiment,NA,NA,1,0.3,0.7,3,2,20,1,NA
fcp-trial,60,712301,0.0-29.0-0.0,voc_e2,11816,"[{""event"":""fullscreenenter"",""trial"":1,""time"":51566},{""event"":""blur"",""trial"":10,""time"":196799},{""event"":""focus"",""trial"":10,""time"":198841},{""event"":""fullscreenexit"",""trial"":10,""time"":208923}]",NA,NA,NA,NA,NA,6,#3386FF,#D89F1C,10,0,0,40,0,966.2000000029802,37,1,662.1999999992549,10,0,experiment,NA,NA,2,0.5,0.5,5,4,21,1,NA
fcp-trial,61,715013,0.0-30.0-0.0,voc_e2,11816,"[{""event"":""fullscreenenter"",""trial"":1,""time"":51566},{""event"":""blur"",""trial"":10,""time"":196799},{""event"":""focus"",""trial"":10,""time"":198841},{""event"":""fullscreenexit"",""trial"":10,""time"":208923}]",NA,NA,NA,NA,NA,6,#D8271C,#741CD8,0,10,0,40,0,505.80000000074506,39,0,682.8999999985099,10,1,experiment,NA,NA,0,0.1,0.9,1,0,22,1,NA
fcp-trial,62,717869,0.0-31.0-0.0,voc_e2,11816,"[{""event"":""fullscreenenter"",""trial"":1,""time"":51566},{""event"":""blur"",""trial"":10,""time"":196799},{""event"":""focus"",""trial"":10,""time"":198841},{""event"":""fullscreenexit"",""trial"":10,""time"":208923}]",NA,NA,NA,NA,NA,5,#741CD8,#D8271C,0,0,1,40,0,640,37,1,706.5999999977648,0,1,experiment,NA,NA,0,0.9,0.1,0,1,23,1,NA
fcp-trial,63,720652,0.0-32.0-0.0,voc_e2,11816,"[{""event"":""fullscreenenter"",""trial"":1,""time"":51566},{""event"":""blur"",""trial"":10,""time"":196799},{""event"":""focus"",""trial"":10,""time"":198841},{""event"":""fullscreenexit"",""trial"":10,""time"":208923}]",NA,NA,NA,NA,NA,2,#FA92F8,#1CD855,10,0,1,40,0,463.3999999985099,37,1,793.1000000014901,10,1,experiment,NA,NA,1,0.7,0.3,2,3,24,1,NA
fcp-trial,64,723468,0.0-33.0-0.0,voc_e2,11816,"[{""event"":""fullscreenenter"",""trial"":1,""time"":51566},{""event"":""blur"",""trial"":10,""time"":196799},{""event"":""focus"",""trial"":10,""time"":198841},{""event"":""fullscreenexit"",""trial"":10,""time"":208923}]",NA,NA,NA,NA,NA,0,#1CD855,#FA92F8,0,10,0,40,0,783.3999999985099,39,0,526.5,10,1,experiment,NA,NA,1,0.3,0.7,3,2,25,1,NA
fcp-trial,65,726564,0.0-34.0-0.0,voc_e2,11816,"[{""event"":""fullscreenenter"",""trial"":1,""time"":51566},{""event"":""blur"",""trial"":10,""time"":196799},{""event"":""focus"",""trial"":10,""time"":198841},{""event"":""fullscreenexit"",""trial"":10,""time"":208923}]",NA,NA,NA,NA,NA,5,#D89F1C,#3386FF,10,10,1,40,0,611.4000000022352,39,0,960.1000000014901,10,0,experiment,NA,NA,2,0.5,0.5,4,5,26,1,NA
fcp-trial,66,729735,0.0-35.0-0.0,voc_e2,11816,"[{""event"":""fullscreenenter"",""trial"":1,""time"":51566},{""event"":""blur"",""trial"":10,""time"":196799},{""event"":""focus"",""trial"":10,""time"":198841},{""event"":""fullscreenexit"",""trial"":10,""time"":208923}]",NA,NA,NA,NA,NA,1,#FA92F8,#1CD855,10,0,1,40,0,910.8000000007451,37,1,737.1000000014901,10,1,experiment,NA,NA,1,0.7,0.3,2,3,27,1,NA
fcp-trial,67,732241,0.0-36.0-0.0,voc_e2,11816,"[{""event"":""fullscreenenter"",""trial"":1,""time"":51566},{""event"":""blur"",""trial"":10,""time"":196799},{""event"":""focus"",""trial"":10,""time"":198841},{""event"":""fullscreenexit"",""trial"":10,""time"":208923}]",NA,NA,NA,NA,NA,0,#D8271C,#741CD8,0,0,0,40,0,295.0999999977648,39,0,688.3999999985099,0,1,experiment,NA,NA,0,0.1,0.9,1,0,28,1,NA
fcp-trial,68,735787,0.0-37.0-0.0,voc_e2,11816,"[{""event"":""fullscreenenter"",""trial"":1,""time"":51566},{""event"":""blur"",""trial"":10,""time"":196799},{""event"":""focus"",""trial"":10,""time"":198841},{""event"":""fullscreenexit"",""trial"":10,""time"":208923}]",NA,NA,NA,NA,NA,5,#FA92F8,#1CD855,10,0,1,40,0,1350.199999999255,39,0,685.6999999992549,0,0,experiment,NA,NA,1,0.7,0.3,2,3,29,1,NA
fcp-trial,69,739420,0.0-38.0-0.0,voc_e2,11816,"[{""event"":""fullscreenenter"",""trial"":1,""time"":51566},{""event"":""blur"",""trial"":10,""time"":196799},{""event"":""focus"",""trial"":10,""time"":198841},{""event"":""fullscreenexit"",""trial"":10,""time"":208923}]",NA,NA,NA,NA,NA,0,#D89F1C,#3386FF,0,0,1,40,0,1332,39,0,792.1999999992549,0,0,experiment,NA,NA,2,0.5,0.5,4,5,30,1,NA
fcp-trial,70,742882,0.0-39.0-0.0,voc_e2,11816,"[{""event"":""fullscreenenter"",""trial"":1,""time"":51566},{""event"":""blur"",""trial"":10,""time"":196799},{""event"":""focus"",""trial"":10,""time"":198841},{""event"":""fullscreenexit"",""trial"":10,""time"":208923}]",NA,NA,NA,NA,NA,6,#D89F1C,#3386FF,10,0,1,38,1,294.9000000022352,37,1,1658.2000000029802,10,1,experiment,NA,NA,2,0.5,0.5,4,5,31,1,NA
fcp-trial,71,746109,0.0-40.0-0.0,voc_e2,11816,"[{""event"":""fullscreenenter"",""trial"":1,""time"":51566},{""event"":""blur"",""trial"":10,""time"":196799},{""event"":""focus"",""trial"":10,""time"":198841},{""event"":""fullscreenexit"",""trial"":10,""time"":208923}]",NA,NA,NA,NA,NA,4,#1CD855,#FA92F8,0,10,0,38,1,856.1999999992549,39,0,860.6000000014901,10,1,experiment,NA,NA,1,0.3,0.7,3,2,32,1,NA
fcp-trial,72,749128,0.0-41.0-0.0,voc_e2,11816,"[{""event"":""fullscreenenter"",""trial"":1,""time"":51566},{""event"":""blur"",""trial"":10,""time"":196799},{""event"":""focus"",""trial"":10,""time"":198841},{""event"":""fullscreenexit"",""trial"":10,""time"":208923}]",NA,NA,NA,NA,NA,4,#D8271C,#741CD8,10,10,0,38,1,922.8000000007451,37,1,587.3000000007451,10,0,experiment,NA,NA,0,0.1,0.9,1,0,33,1,NA
fcp-trial,73,754094,0.0-42.0-0.0,voc_e2,11816,"[{""event"":""fullscreenenter"",""trial"":1,""time"":51566},{""event"":""blur"",""trial"":10,""time"":196799},{""event"":""focus"",""trial"":10,""time"":198841},{""event"":""fullscreenexit"",""trial"":10,""time"":208923}]",NA,NA,NA,NA,NA,2,#741CD8,#D8271C,10,0,1,38,1,2631.599999997765,39,0,806.5999999977648,0,0,experiment,NA,NA,0,0.9,0.1,0,1,34,1,NA
fcp-trial,74,759249,0.0-43.0-0.0,voc_e2,11816,"[{""event"":""fullscreenenter"",""trial"":1,""time"":51566},{""event"":""blur"",""trial"":10,""time"":196799},{""event"":""focus"",""trial"":10,""time"":198841},{""event"":""fullscreenexit"",""trial"":10,""time"":208923}]",NA,NA,NA,NA,NA,3,#FA92F8,#1CD855,10,10,1,38,1,2733.5,37,1,905.6000000014901,10,1,experiment,NA,NA,1,0.7,0.3,2,3,35,1,NA
fcp-trial,75,765347,0.0-44.0-0.0,voc_e2,11816,"[{""event"":""fullscreenenter"",""trial"":1,""time"":51566},{""event"":""blur"",""trial"":10,""time"":196799},{""event"":""focus"",""trial"":10,""time"":198841},{""event"":""fullscreenexit"",""trial"":10,""time"":208923}]",NA,NA,NA,NA,NA,4,#D89F1C,#3386FF,0,10,1,38,1,2173.900000002235,39,0,2414.5,10,0,experiment,NA,NA,2,0.5,0.5,4,5,36,1,NA
fcp-trial,76,769202,0.0-45.0-0.0,voc_e2,11816,"[{""event"":""fullscreenenter"",""trial"":1,""time"":51566},{""event"":""blur"",""trial"":10,""time"":196799},{""event"":""focus"",""trial"":10,""time"":198841},{""event"":""fullscreenexit"",""trial"":10,""time"":208923}]",NA,NA,NA,NA,NA,3,#D8271C,#741CD8,0,10,0,38,1,1547.800000000745,37,1,797.8000000007451,0,0,experiment,NA,NA,0,0.1,0.9,1,0,37,1,NA
fcp-trial,77,772592,0.0-46.0-0.0,voc_e2,11816,"[{""event"":""fullscreenenter"",""trial"":1,""time"":51566},{""event"":""blur"",""trial"":10,""time"":196799},{""event"":""focus"",""trial"":10,""time"":198841},{""event"":""fullscreenexit"",""trial"":10,""time"":208923}]",NA,NA,NA,NA,NA,6,#1CD855,#FA92F8,0,10,0,38,1,1131.5999999977648,39,0,742,10,1,experiment,NA,NA,1,0.3,0.7,3,2,38,1,NA
fcp-trial,78,776615,0.0-47.0-0.0,voc_e2,11816,"[{""event"":""fullscreenenter"",""trial"":1,""time"":51566},{""event"":""blur"",""trial"":10,""time"":196799},{""event"":""focus"",""trial"":10,""time"":198841},{""event"":""fullscreenexit"",""trial"":10,""time"":208923}]",NA,NA,NA,NA,NA,2,#D89F1C,#3386FF,0,0,1,38,1,1502.3999999985099,37,1,1009.1000000014901,0,1,experiment,NA,NA,2,0.5,0.5,4,5,39,1,NA
fcp-trial,79,783215,0.0-48.0-0.0,voc_e2,11816,"[{""event"":""fullscreenenter"",""trial"":1,""time"":51566},{""event"":""blur"",""trial"":10,""time"":196799},{""event"":""focus"",""trial"":10,""time"":198841},{""event"":""fullscreenexit"",""trial"":10,""time"":208923}]",NA,NA,NA,NA,NA,1,#D89F1C,#3386FF,10,0,1,38,1,4220.5,39,0,869.1000000014901,0,0,experiment,NA,NA,2,0.5,0.5,4,5,40,1,NA
fcp-trial,80,786188,0.0-49.0-0.0,voc_e2,11816,"[{""event"":""fullscreenenter"",""trial"":1,""time"":51566},{""event"":""blur"",""trial"":10,""time"":196799},{""event"":""focus"",""trial"":10,""time"":198841},{""event"":""fullscreenexit"",""trial"":10,""time"":208923}]",NA,NA,NA,NA,NA,3,#3386FF,#D89F1C,10,10,0,38,1,967.5,37,1,496.3999999985099,10,0,experiment,NA,NA,2,0.5,0.5,5,4,41,1,NA
fcp-trial,81,791813,0.0-50.0-0.0,voc_e2,11816,"[{""event"":""fullscreenenter"",""trial"":1,""time"":51566},{""event"":""blur"",""trial"":10,""time"":196799},{""event"":""focus"",""trial"":10,""time"":198841},{""event"":""fullscreenexit"",""trial"":10,""time"":208923}]",NA,NA,NA,NA,NA,1,#741CD8,#D8271C,10,0,1,38,1,2722.60000000149,39,0,1378.6000000014901,0,0,experiment,NA,NA,0,0.9,0.1,0,1,42,1,NA
fcp-trial,82,794274,0.0-51.0-0.0,voc_e2,11816,"[{""event"":""fullscreenenter"",""trial"":1,""time"":51566},{""event"":""blur"",""trial"":10,""time"":196799},{""event"":""focus"",""trial"":10,""time"":198841},{""event"":""fullscreenexit"",""trial"":10,""time"":208923}]",NA,NA,NA,NA,NA,4,#741CD8,#D8271C,10,0,1,38,1,461.6000000014901,37,1,490,10,1,experiment,NA,NA,0,0.9,0.1,0,1,43,1,NA
fcp-trial,83,798250,0.0-52.0-0.0,voc_e2,11816,"[{""event"":""fullscreenenter"",""trial"":1,""time"":51566},{""event"":""blur"",""trial"":10,""time"":196799},{""event"":""focus"",""trial"":10,""time"":198841},{""event"":""fullscreenexit"",""trial"":10,""time"":208923}]",NA,NA,NA,NA,NA,1,#1CD855,#FA92F8,0,10,0,38,1,1972.9000000022352,37,1,494.5,0,0,experiment,NA,NA,1,0.3,0.7,3,2,44,1,NA
fcp-trial,84,801062,0.0-53.0-0.0,voc_e2,11816,"[{""event"":""fullscreenenter"",""trial"":1,""time"":51566},{""event"":""blur"",""trial"":10,""time"":196799},{""event"":""focus"",""trial"":10,""time"":198841},{""event"":""fullscreenexit"",""trial"":10,""time"":208923}]",NA,NA,NA,NA,NA,0,#D8271C,#741CD8,0,0,0,38,1,781,39,0,507.79999999701977,0,1,experiment,NA,NA,0,0.1,0.9,1,0,45,1,NA
fcp-trial,85,803421,0.0-54.0-0.0,voc_e2,11816,"[{""event"":""fullscreenenter"",""trial"":1,""time"":51566},{""event"":""blur"",""trial"":10,""time"":196799},{""event"":""focus"",""trial"":10,""time"":198841},{""event"":""fullscreenexit"",""trial"":10,""time"":208923}]",NA,NA,NA,NA,NA,1,#741CD8,#D8271C,10,0,1,38,1,387,37,1,460.19999999925494,10,1,experiment,NA,NA,0,0.9,0.1,0,1,46,2,NA
fcp-trial,86,808294,0.0-55.0-0.0,voc_e2,11816,"[{""event"":""fullscreenenter"",""trial"":1,""time"":51566},{""event"":""blur"",""trial"":10,""time"":196799},{""event"":""focus"",""trial"":10,""time"":198841},{""event"":""fullscreenexit"",""trial"":10,""time"":208923}]",NA,NA,NA,NA,NA,6,#1CD855,#FA92F8,10,0,0,38,1,2780.10000000149,39,0,567.8999999985099,0,1,experiment,NA,NA,1,0.3,0.7,3,2,47,2,NA
fcp-trial,87,811496,0.0-56.0-0.0,voc_e2,11816,"[{""event"":""fullscreenenter"",""trial"":1,""time"":51566},{""event"":""blur"",""trial"":10,""time"":196799},{""event"":""focus"",""trial"":10,""time"":198841},{""event"":""fullscreenexit"",""trial"":10,""time"":208923}]",NA,NA,NA,NA,NA,0,#1CD855,#FA92F8,0,10,0,40,0,564.3000000007451,39,0,1127.800000000745,10,1,experiment,NA,NA,1,0.3,0.7,3,2,48,2,NA
fcp-trial,88,814093,0.0-57.0-0.0,voc_e2,11816,"[{""event"":""fullscreenenter"",""trial"":1,""time"":51566},{""event"":""blur"",""trial"":10,""time"":196799},{""event"":""focus"",""trial"":10,""time"":198841},{""event"":""fullscreenexit"",""trial"":10,""time"":208923}]",NA,NA,NA,NA,NA,5,#D8271C,#741CD8,0,0,0,38,1,476.70000000298023,37,1,612.1999999992549,0,0,experiment,NA,NA,0,0.1,0.9,1,0,49,2,NA
fcp-trial,89,816436,0.0-58.0-0.0,voc_e2,11816,"[{""event"":""fullscreenenter"",""trial"":1,""time"":51566},{""event"":""blur"",""trial"":10,""time"":196799},{""event"":""focus"",""trial"":10,""time"":198841},{""event"":""fullscreenexit"",""trial"":10,""time"":208923}]",NA,NA,NA,NA,NA,5,#3386FF,#D89F1C,0,0,0,38,1,373.8999999985099,39,0,461.3999999985099,0,1,experiment,NA,NA,2,0.5,0.5,5,4,50,2,NA
fcp-trial,90,819228,0.0-59.0-0.0,voc_e2,11816,"[{""event"":""fullscreenenter"",""trial"":1,""time"":51566},{""event"":""blur"",""trial"":10,""time"":196799},{""event"":""focus"",""trial"":10,""time"":198841},{""event"":""fullscreenexit"",""trial"":10,""time"":208923}]",NA,NA,NA,NA,NA,4,#3386FF,#D89F1C,10,0,0,38,1,438.80000000074506,37,1,847.1000000014901,10,0,experiment,NA,NA,2,0.5,0.5,5,4,51,2,NA
fcp-trial,91,824066,0.0-60.0-0.0,voc_e2,11816,"[{""event"":""fullscreenenter"",""trial"":1,""time"":51566},{""event"":""blur"",""trial"":10,""time"":196799},{""event"":""focus"",""trial"":10,""time"":198841},{""event"":""fullscreenexit"",""trial"":10,""time"":208923}]",NA,NA,NA,NA,NA,4,#FA92F8,#1CD855,10,0,1,38,1,1817.199999999255,37,1,1510.699999999255,10,1,experiment,NA,NA,1,0.7,0.3,2,3,52,2,NA
fcp-trial,92,828856,0.0-61.0-0.0,voc_e2,11816,"[{""event"":""fullscreenenter"",""trial"":1,""time"":51566},{""event"":""blur"",""trial"":10,""time"":196799},{""event"":""focus"",""trial"":10,""time"":198841},{""event"":""fullscreenexit"",""trial"":10,""time"":208923}]",NA,NA,NA,NA,NA,3,#3386FF,#D89F1C,10,0,0,38,1,2775.10000000149,37,1,506.5999999977648,10,0,experiment,NA,NA,2,0.5,0.5,5,4,53,2,NA
fcp-trial,93,832519,0.0-62.0-0.0,voc_e2,11816,"[{""event"":""fullscreenenter"",""trial"":1,""time"":51566},{""event"":""blur"",""trial"":10,""time"":196799},{""event"":""focus"",""trial"":10,""time"":198841},{""event"":""fullscreenexit"",""trial"":10,""time"":208923}]",NA,NA,NA,NA,NA,2,#D8271C,#741CD8,0,10,0,38,1,947.5999999977648,37,1,1211.800000000745,0,0,experiment,NA,NA,0,0.1,0.9,1,0,54,2,NA
fcp-trial,94,835260,0.0-63.0-0.0,voc_e2,11816,"[{""event"":""fullscreenenter"",""trial"":1,""time"":51566},{""event"":""blur"",""trial"":10,""time"":196799},{""event"":""focus"",""trial"":10,""time"":198841},{""event"":""fullscreenexit"",""trial"":10,""time"":208923}]",NA,NA,NA,NA,NA,6,#3386FF,#D89F1C,0,10,0,38,1,708.9000000022352,39,0,526,10,1,experiment,NA,NA,2,0.5,0.5,5,4,55,2,NA
fcp-trial,95,840290,0.0-64.0-0.0,voc_e2,11816,"[{""event"":""fullscreenenter"",""trial"":1,""time"":51566},{""event"":""blur"",""trial"":10,""time"":196799},{""event"":""focus"",""trial"":10,""time"":198841},{""event"":""fullscreenexit"",""trial"":10,""time"":208923}]",NA,NA,NA,NA,NA,3,#FA92F8,#1CD855,10,0,1,38,1,2371.800000000745,37,1,1147.5999999977648,10,1,experiment,NA,NA,1,0.7,0.3,2,3,56,2,NA
fcp-trial,96,843135,0.0-65.0-0.0,voc_e2,11816,"[{""event"":""fullscreenenter"",""trial"":1,""time"":51566},{""event"":""blur"",""trial"":10,""time"":196799},{""event"":""focus"",""trial"":10,""time"":198841},{""event"":""fullscreenexit"",""trial"":10,""time"":208923}]",NA,NA,NA,NA,NA,3,#741CD8,#D8271C,10,0,1,38,1,664.9000000022352,37,1,669,10,1,experiment,NA,NA,0,0.9,0.1,0,1,57,2,NA
fcp-trial,97,846943,0.0-66.0-0.0,voc_e2,11816,"[{""event"":""fullscreenenter"",""trial"":1,""time"":51566},{""event"":""blur"",""trial"":10,""time"":196799},{""event"":""focus"",""trial"":10,""time"":198841},{""event"":""fullscreenexit"",""trial"":10,""time"":208923}]",NA,NA,NA,NA,NA,1,#D89F1C,#3386FF,10,10,1,38,1,1524.5,37,1,774.1999999992549,10,1,experiment,NA,NA,2,0.5,0.5,4,5,58,2,NA
fcp-trial,98,851668,0.0-67.0-0.0,voc_e2,11816,"[{""event"":""fullscreenenter"",""trial"":1,""time"":51566},{""event"":""blur"",""trial"":10,""time"":196799},{""event"":""focus"",""trial"":10,""time"":198841},{""event"":""fullscreenexit"",""trial"":10,""time"":208923}]",NA,NA,NA,NA,NA,5,#FA92F8,#1CD855,0,0,1,38,1,2383.699999999255,39,0,824.6000000014901,0,0,experiment,NA,NA,1,0.7,0.3,2,3,59,2,NA
fcp-trial,99,854360,0.0-68.0-0.0,voc_e2,11816,"[{""event"":""fullscreenenter"",""trial"":1,""time"":51566},{""event"":""blur"",""trial"":10,""time"":196799},{""event"":""focus"",""trial"":10,""time"":198841},{""event"":""fullscreenexit"",""trial"":10,""time"":208923}]",NA,NA,NA,NA,NA,2,#FA92F8,#1CD855,0,0,1,38,1,721.3000000007451,37,1,462.1000000014901,0,1,experiment,NA,NA,1,0.7,0.3,2,3,60,2,NA
fcp-trial,100,857551,0.0-69.0-0.0,voc_e2,11816,"[{""event"":""fullscreenenter"",""trial"":1,""time"":51566},{""event"":""blur"",""trial"":10,""time"":196799},{""event"":""focus"",""trial"":10,""time"":198841},{""event"":""fullscreenexit"",""trial"":10,""time"":208923}]",NA,NA,NA,NA,NA,0,#D89F1C,#3386FF,0,10,1,38,1,1064,39,0,618.1999999992549,10,0,experiment,NA,NA,2,0.5,0.5,4,5,61,2,NA
fcp-trial,101,862379,0.0-70.0-0.0,voc_e2,11816,"[{""event"":""fullscreenenter"",""trial"":1,""time"":51566},{""event"":""blur"",""trial"":10,""time"":196799},{""event"":""focus"",""trial"":10,""time"":198841},{""event"":""fullscreenexit"",""trial"":10,""time"":208923}]",NA,NA,NA,NA,NA,6,#741CD8,#D8271C,10,0,1,38,1,2360.699999999255,37,1,959.0999999977648,10,1,experiment,NA,NA,0,0.9,0.1,0,1,62,2,NA
fcp-trial,102,865553,0.0-71.0-0.0,voc_e2,11816,"[{""event"":""fullscreenenter"",""trial"":1,""time"":51566},{""event"":""blur"",""trial"":10,""time"":196799},{""event"":""focus"",""trial"":10,""time"":198841},{""event"":""fullscreenexit"",""trial"":10,""time"":208923}]",NA,NA,NA,NA,NA,2,#D89F1C,#3386FF,10,0,1,38,1,1079.5999999977648,39,0,584.3000000007451,0,0,experiment,NA,NA,2,0.5,0.5,4,5,63,2,NA
fcp-trial,103,869293,0.0-72.0-0.0,voc_e2,11816,"[{""event"":""fullscreenenter"",""trial"":1,""time"":51566},{""event"":""blur"",""trial"":10,""time"":196799},{""event"":""focus"",""trial"":10,""time"":198841},{""event"":""fullscreenexit"",""trial"":10,""time"":208923}]",NA,NA,NA,NA,NA,6,#741CD8,#D8271C,10,0,1,38,1,1526.8999999985099,37,1,705.8999999985099,10,1,experiment,NA,NA,0,0.9,0.1,0,1,64,2,NA
fcp-trial,104,872387,0.0-73.0-0.0,voc_e2,11816,"[{""event"":""fullscreenenter"",""trial"":1,""time"":51566},{""event"":""blur"",""trial"":10,""time"":196799},{""event"":""focus"",""trial"":10,""time"":198841},{""event"":""fullscreenexit"",""trial"":10,""time"":208923}]",NA,NA,NA,NA,NA,3,#D89F1C,#3386FF,10,10,1,38,1,857.8000000007451,39,0,725.6999999992549,10,0,experiment,NA,NA,2,0.5,0.5,4,5,65,2,NA
fcp-trial,105,877162,0.0-74.0-0.0,voc_e2,11816,"[{""event"":""fullscreenenter"",""trial"":1,""time"":51566},{""event"":""blur"",""trial"":10,""time"":196799},{""event"":""focus"",""trial"":10,""time"":198841},{""event"":""fullscreenexit"",""trial"":10,""time"":208923}]",NA,NA,NA,NA,NA,1,#1CD855,#FA92F8,10,10,0,38,1,2383.800000000745,37,1,885.3000000007451,10,0,experiment,NA,NA,1,0.3,0.7,3,2,66,2,NA
fcp-trial,106,880371,0.0-75.0-0.0,voc_e2,11816,"[{""event"":""fullscreenenter"",""trial"":1,""time"":51566},{""event"":""blur"",""trial"":10,""time"":196799},{""event"":""focus"",""trial"":10,""time"":198841},{""event"":""fullscreenexit"",""trial"":10,""time"":208923}]",NA,NA,NA,NA,NA,5,#741CD8,#D8271C,10,0,1,38,1,1025.5999999977648,39,0,673.3999999985099,0,0,experiment,NA,NA,0,0.9,0.1,0,1,67,2,NA
fcp-trial,107,883966,0.0-76.0-0.0,voc_e2,11816,"[{""event"":""fullscreenenter"",""trial"":1,""time"":51566},{""event"":""blur"",""trial"":10,""time"":196799},{""event"":""focus"",""trial"":10,""time"":198841},{""event"":""fullscreenexit"",""trial"":10,""time"":208923}]",NA,NA,NA,NA,NA,1,#D8271C,#741CD8,0,10,0,38,1,1565.300000000745,37,1,504.70000000298023,0,0,experiment,NA,NA,0,0.1,0.9,1,0,68,2,NA
fcp-trial,108,887151,0.0-77.0-0.0,voc_e2,11816,"[{""event"":""fullscreenenter"",""trial"":1,""time"":51566},{""event"":""blur"",""trial"":10,""time"":196799},{""event"":""focus"",""trial"":10,""time"":198841},{""event"":""fullscreenexit"",""trial"":10,""time"":208923}]",NA,NA,NA,NA,NA,2,#D89F1C,#3386FF,10,0,1,38,1,925.6000000014901,39,0,737.0999999977648,0,0,experiment,NA,NA,2,0.5,0.5,4,5,69,2,NA
fcp-trial,109,890900,0.0-78.0-0.0,voc_e2,11816,"[{""event"":""fullscreenenter"",""trial"":1,""time"":51566},{""event"":""blur"",""trial"":10,""time"":196799},{""event"":""focus"",""trial"":10,""time"":198841},{""event"":""fullscreenexit"",""trial"":10,""time"":208923}]",NA,NA,NA,NA,NA,5,#3386FF,#D89F1C,0,10,0,38,1,29.699999999254942,37,1,2209.60000000149,0,0,experiment,NA,NA,2,0.5,0.5,5,4,70,2,NA
fcp-trial,110,893875,0.0-79.0-0.0,voc_e2,11816,"[{""event"":""fullscreenenter"",""trial"":1,""time"":51566},{""event"":""blur"",""trial"":10,""time"":196799},{""event"":""focus"",""trial"":10,""time"":198841},{""event"":""fullscreenexit"",""trial"":10,""time"":208923}]",NA,NA,NA,NA,NA,0,#FA92F8,#1CD855,0,0,1,40,0,607.6000000014901,37,1,845.1999999992549,0,1,experiment,NA,NA,1,0.7,0.3,2,3,71,2,NA
fcp-trial,111,897825,0.0-80.0-0.0,voc_e2,11816,"[{""event"":""fullscreenenter"",""trial"":1,""time"":51566},{""event"":""blur"",""trial"":10,""time"":196799},{""event"":""focus"",""trial"":10,""time"":198841},{""event"":""fullscreenexit"",""trial"":10,""time"":208923}]",NA,NA,NA,NA,NA,4,#FA92F8,#1CD855,0,10,1,38,1,1345.699999999255,39,0,1094.300000000745,10,0,experiment,NA,NA,1,0.7,0.3,2,3,72,2,NA
fcp-trial,112,901585,0.0-81.0-0.0,voc_e2,11816,"[{""event"":""fullscreenenter"",""trial"":1,""time"":51566},{""event"":""blur"",""trial"":10,""time"":196799},{""event"":""focus"",""trial"":10,""time"":198841},{""event"":""fullscreenexit"",""trial"":10,""time"":208923}]",NA,NA,NA,NA,NA,3,#D8271C,#741CD8,0,10,0,38,1,1480.300000000745,37,1,769.6000000014901,0,0,experiment,NA,NA,0,0.1,0.9,1,0,73,2,NA
fcp-trial,113,905574,0.0-82.0-0.0,voc_e2,11816,"[{""event"":""fullscreenenter"",""trial"":1,""time"":51566},{""event"":""blur"",""trial"":10,""time"":196799},{""event"":""focus"",""trial"":10,""time"":198841},{""event"":""fullscreenexit"",""trial"":10,""time"":208923}]",NA,NA,NA,NA,NA,6,#D89F1C,#3386FF,0,10,1,38,1,1327,39,0,1149.7000000029802,10,0,experiment,NA,NA,2,0.5,0.5,4,5,74,2,NA
fcp-trial,114,911045,0.0-83.0-0.0,voc_e2,11816,"[{""event"":""fullscreenenter"",""trial"":1,""time"":51566},{""event"":""blur"",""trial"":10,""time"":196799},{""event"":""focus"",""trial"":10,""time"":198841},{""event"":""fullscreenexit"",""trial"":10,""time"":208923}]",NA,NA,NA,NA,NA,4,#741CD8,#D8271C,10,0,1,38,1,1688.8999999985099,39,0,2271.800000000745,0,0,experiment,NA,NA,0,0.9,0.1,0,1,75,2,NA
fcp-trial,115,917103,0.0-84.0-0.0,voc_e2,11816,"[{""event"":""fullscreenenter"",""trial"":1,""time"":51566},{""event"":""blur"",""trial"":10,""time"":196799},{""event"":""focus"",""trial"":10,""time"":198841},{""event"":""fullscreenexit"",""trial"":10,""time"":208923}]",NA,NA,NA,NA,NA,5,#FA92F8,#1CD855,0,10,1,38,1,3671.300000000745,37,1,878,0,1,experiment,NA,NA,1,0.7,0.3,2,3,76,2,NA
fcp-trial,116,922730,0.0-85.0-0.0,voc_e2,11816,"[{""event"":""fullscreenenter"",""trial"":1,""time"":51566},{""event"":""blur"",""trial"":10,""time"":196799},{""event"":""focus"",""trial"":10,""time"":198841},{""event"":""fullscreenexit"",""trial"":10,""time"":208923}]",NA,NA,NA,NA,NA,3,#FA92F8,#1CD855,10,0,1,38,1,2742.300000000745,39,0,1376.1000000014901,0,0,experiment,NA,NA,1,0.7,0.3,2,3,77,2,NA
fcp-trial,117,926154,0.0-86.0-0.0,voc_e2,11816,"[{""event"":""fullscreenenter"",""trial"":1,""time"":51566},{""event"":""blur"",""trial"":10,""time"":196799},{""event"":""focus"",""trial"":10,""time"":198841},{""event"":""fullscreenexit"",""trial"":10,""time"":208923}]",NA,NA,NA,NA,NA,6,#1CD855,#FA92F8,10,10,0,38,1,1066.300000000745,37,1,851.1999999992549,10,0,experiment,NA,NA,1,0.3,0.7,3,2,78,2,NA
fcp-trial,118,932788,0.0-87.0-0.0,voc_e2,11816,"[{""event"":""fullscreenenter"",""trial"":1,""time"":51566},{""event"":""blur"",""trial"":10,""time"":196799},{""event"":""focus"",""trial"":10,""time"":198841},{""event"":""fullscreenexit"",""trial"":10,""time"":208923}]",NA,NA,NA,NA,NA,1,#D89F1C,#3386FF,0,10,1,40,0,4369.29999999702,39,0,756.6999999992549,10,0,experiment,NA,NA,2,0.5,0.5,4,5,79,2,NA
fcp-trial,119,945528,0.0-88.0-0.0,voc_e2,11816,"[{""event"":""fullscreenenter"",""trial"":1,""time"":51566},{""event"":""blur"",""trial"":10,""time"":196799},{""event"":""focus"",""trial"":10,""time"":198841},{""event"":""fullscreenexit"",""trial"":10,""time"":208923}]",NA,NA,NA,NA,NA,2,#D8271C,#741CD8,10,10,0,38,1,1300.199999999255,37,1,9933.800000000745,10,0,experiment,NA,NA,0,0.1,0.9,1,0,80,2,NA
fcp-trial,120,949486,0.0-89.0-0.0,voc_e2,11816,"[{""event"":""fullscreenenter"",""trial"":1,""time"":51566},{""event"":""blur"",""trial"":10,""time"":196799},{""event"":""focus"",""trial"":10,""time"":198841},{""event"":""fullscreenexit"",""trial"":10,""time"":208923}]",NA,NA,NA,NA,NA,0,#741CD8,#D8271C,10,10,1,40,0,1460.5,37,1,987.7999999970198,10,1,experiment,NA,NA,0,0.9,0.1,0,1,81,2,NA
fcp-trial,121,953008,0.0-90.0-0.0,voc_e2,11816,"[{""event"":""fullscreenenter"",""trial"":1,""time"":51566},{""event"":""blur"",""trial"":10,""time"":196799},{""event"":""focus"",""trial"":10,""time"":198841},{""event"":""fullscreenexit"",""trial"":10,""time"":208923}]",NA,NA,NA,NA,NA,4,#D89F1C,#3386FF,10,10,1,40,0,1194.199999999255,37,1,814.5,10,1,experiment,NA,NA,2,0.5,0.5,4,5,82,2,NA
fcp-trial,122,956497,0.0-91.0-0.0,voc_e2,11816,"[{""event"":""fullscreenenter"",""trial"":1,""time"":51566},{""event"":""blur"",""trial"":10,""time"":196799},{""event"":""focus"",""trial"":10,""time"":198841},{""event"":""fullscreenexit"",""trial"":10,""time"":208923}]",NA,NA,NA,NA,NA,2,#1CD855,#FA92F8,0,10,0,38,1,725.6000000014901,39,0,1252.5,10,1,experiment,NA,NA,1,0.3,0.7,3,2,83,2,NA
fcp-trial,123,965435,0.0-92.0-0.0,voc_e2,11816,"[{""event"":""fullscreenenter"",""trial"":1,""time"":51566},{""event"":""blur"",""trial"":10,""time"":196799},{""event"":""focus"",""trial"":10,""time"":198841},{""event"":""fullscreenexit"",""trial"":10,""time"":208923}]",NA,NA,NA,NA,NA,0,#D89F1C,#3386FF,0,0,1,38,1,6376.599999997765,37,1,1053.300000000745,0,1,experiment,NA,NA,2,0.5,0.5,4,5,84,2,NA
fcp-trial,124,967842,0.0-93.0-0.0,voc_e2,11816,"[{""event"":""fullscreenenter"",""trial"":1,""time"":51566},{""event"":""blur"",""trial"":10,""time"":196799},{""event"":""focus"",""trial"":10,""time"":198841},{""event"":""fullscreenexit"",""trial"":10,""time"":208923}]",NA,NA,NA,NA,NA,5,#FA92F8,#1CD855,0,10,1,38,1,394,39,0,498.0999999977648,10,0,experiment,NA,NA,1,0.7,0.3,2,3,85,2,NA
fcp-trial,125,970701,0.0-94.0-0.0,voc_e2,11816,"[{""event"":""fullscreenenter"",""trial"":1,""time"":51566},{""event"":""blur"",""trial"":10,""time"":196799},{""event"":""focus"",""trial"":10,""time"":198841},{""event"":""fullscreenexit"",""trial"":10,""time"":208923}]",NA,NA,NA,NA,NA,4,#D8271C,#741CD8,0,10,0,38,1,426,37,1,923.9000000022352,0,0,experiment,NA,NA,0,0.1,0.9,1,0,86,2,NA
fcp-trial,126,973598,0.0-95.0-0.0,voc_e2,11816,"[{""event"":""fullscreenenter"",""trial"":1,""time"":51566},{""event"":""blur"",""trial"":10,""time"":196799},{""event"":""focus"",""trial"":10,""time"":198841},{""event"":""fullscreenexit"",""trial"":10,""time"":208923}]",NA,NA,NA,NA,NA,4,#1CD855,#FA92F8,0,10,0,38,1,290.1000000014901,39,0,1097.7999999970198,10,1,experiment,NA,NA,1,0.3,0.7,3,2,87,2,NA
fcp-trial,127,985039,0.0-96.0-0.0,voc_e2,11816,"[{""event"":""fullscreenenter"",""trial"":1,""time"":51566},{""event"":""blur"",""trial"":10,""time"":196799},{""event"":""focus"",""trial"":10,""time"":198841},{""event"":""fullscreenexit"",""trial"":10,""time"":208923}]",NA,NA,NA,NA,NA,0,#3386FF,#D89F1C,10,0,0,38,1,9325.800000000745,39,0,606.5,0,1,experiment,NA,NA,2,0.5,0.5,5,4,88,2,NA
fcp-trial,128,991737,0.0-97.0-0.0,voc_e2,11816,"[{""event"":""fullscreenenter"",""trial"":1,""time"":51566},{""event"":""blur"",""trial"":10,""time"":196799},{""event"":""focus"",""trial"":10,""time"":198841},{""event"":""fullscreenexit"",""trial"":10,""time"":208923}]",NA,NA,NA,NA,NA,6,#3386FF,#D89F1C,0,0,0,40,0,4588.699999999255,39,0,602.8999999985099,0,1,experiment,NA,NA,2,0.5,0.5,5,4,89,2,NA
fcp-trial,129,995025,0.0-98.0-0.0,voc_e2,11816,"[{""event"":""fullscreenenter"",""trial"":1,""time"":51566},{""event"":""blur"",""trial"":10,""time"":196799},{""event"":""focus"",""trial"":10,""time"":198841},{""event"":""fullscreenexit"",""trial"":10,""time"":208923}]",NA,NA,NA,NA,NA,0,#741CD8,#D8271C,10,0,1,38,1,1310.5,37,1,468.3999999985099,10,1,experiment,NA,NA,0,0.9,0.1,0,1,90,2,NA
fcp-trial,130,998270,0.0-99.0-0.0,voc_e2,11816,"[{""event"":""fullscreenenter"",""trial"":1,""time"":51566},{""event"":""blur"",""trial"":10,""time"":196799},{""event"":""focus"",""trial"":10,""time"":198841},{""event"":""fullscreenexit"",""trial"":10,""time"":208923}]",NA,NA,NA,NA,NA,3,#D89F1C,#3386FF,0,0,1,38,1,972.3000000007451,39,0,766.5999999977648,0,0,experiment,NA,NA,2,0.5,0.5,4,5,91,3,NA
fcp-trial,131,1000920,0.0-100.0-0.0,voc_e2,11816,"[{""event"":""fullscreenenter"",""trial"":1,""time"":51566},{""event"":""blur"",""trial"":10,""time"":196799},{""event"":""focus"",""trial"":10,""time"":198841},{""event"":""fullscreenexit"",""trial"":10,""time"":208923}]",NA,NA,NA,NA,NA,6,#FA92F8,#1CD855,10,10,1,38,1,410.5,37,1,729.7000000029802,10,1,experiment,NA,NA,1,0.7,0.3,2,3,92,3,NA
fcp-trial,132,1004042,0.0-101.0-0.0,voc_e2,11816,"[{""event"":""fullscreenenter"",""trial"":1,""time"":51566},{""event"":""blur"",""trial"":10,""time"":196799},{""event"":""focus"",""trial"":10,""time"":198841},{""event"":""fullscreenexit"",""trial"":10,""time"":208923}]",NA,NA,NA,NA,NA,2,#3386FF,#D89F1C,0,0,0,40,0,932.8999999985099,39,0,680.8999999985099,0,1,experiment,NA,NA,2,0.5,0.5,5,4,93,3,NA
fcp-trial,133,1008026,0.0-102.0-0.0,voc_e2,11816,"[{""event"":""fullscreenenter"",""trial"":1,""time"":51566},{""event"":""blur"",""trial"":10,""time"":196799},{""event"":""focus"",""trial"":10,""time"":198841},{""event"":""fullscreenexit"",""trial"":10,""time"":208923}]",NA,NA,NA,NA,NA,6,#D8271C,#741CD8,0,10,0,40,0,1937.800000000745,37,1,535.0999999977648,0,0,experiment,NA,NA,0,0.1,0.9,1,0,94,3,NA
fcp-trial,134,1010663,0.0-103.0-0.0,voc_e2,11816,"[{""event"":""fullscreenenter"",""trial"":1,""time"":51566},{""event"":""blur"",""trial"":10,""time"":196799},{""event"":""focus"",""trial"":10,""time"":198841},{""event"":""fullscreenexit"",""trial"":10,""time"":208923}]",NA,NA,NA,NA,NA,0,#FA92F8,#1CD855,0,0,1,40,0,453.8999999985099,39,0,674.3000000007451,0,0,experiment,NA,NA,1,0.7,0.3,2,3,95,3,NA
fcp-trial,135,1014051,0.0-104.0-0.0,voc_e2,11816,"[{""event"":""fullscreenenter"",""trial"":1,""time"":51566},{""event"":""blur"",""trial"":10,""time"":196799},{""event"":""focus"",""trial"":10,""time"":198841},{""event"":""fullscreenexit"",""trial"":10,""time"":208923}]",NA,NA,NA,NA,NA,2,#741CD8,#D8271C,0,0,1,38,1,1461.699999999255,37,1,417.3999999985099,0,1,experiment,NA,NA,0,0.9,0.1,0,1,96,3,NA
fcp-trial,136,1017692,0.0-105.0-0.0,voc_e2,11816,"[{""event"":""fullscreenenter"",""trial"":1,""time"":51566},{""event"":""blur"",""trial"":10,""time"":196799},{""event"":""focus"",""trial"":10,""time"":198841},{""event"":""fullscreenexit"",""trial"":10,""time"":208923}]",NA,NA,NA,NA,NA,4,#D89F1C,#3386FF,0,0,1,40,0,1044.6000000014901,39,0,1086.9000000022352,0,0,experiment,NA,NA,2,0.5,0.5,4,5,97,3,NA
fcp-trial,137,1020448,0.0-106.0-0.0,voc_e2,11816,"[{""event"":""fullscreenenter"",""trial"":1,""time"":51566},{""event"":""blur"",""trial"":10,""time"":196799},{""event"":""focus"",""trial"":10,""time"":198841},{""event"":""fullscreenexit"",""trial"":10,""time"":208923}]",NA,NA,NA,NA,NA,3,#D8271C,#741CD8,0,10,0,38,1,436.69999999925494,37,1,810.5,0,0,experiment,NA,NA,0,0.1,0.9,1,0,98,3,NA
fcp-trial,138,1024112,0.0-107.0-0.0,voc_e2,11816,"[{""event"":""fullscreenenter"",""trial"":1,""time"":51566},{""event"":""blur"",""trial"":10,""time"":196799},{""event"":""focus"",""trial"":10,""time"":198841},{""event"":""fullscreenexit"",""trial"":10,""time"":208923}]",NA,NA,NA,NA,NA,2,#1CD855,#FA92F8,0,10,0,38,1,1223.3999999985099,39,0,931.8000000007451,10,1,experiment,NA,NA,1,0.3,0.7,3,2,99,3,NA
fcp-trial,139,1026870,0.0-108.0-0.0,voc_e2,11816,"[{""event"":""fullscreenenter"",""trial"":1,""time"":51566},{""event"":""blur"",""trial"":10,""time"":196799},{""event"":""focus"",""trial"":10,""time"":198841},{""event"":""fullscreenexit"",""trial"":10,""time"":208923}]",NA,NA,NA,NA,NA,1,#3386FF,#D89F1C,10,0,0,38,1,528.8000000007451,37,1,722.6999999992549,10,0,experiment,NA,NA,2,0.5,0.5,5,4,100,3,NA
fcp-trial,140,1029692,0.0-109.0-0.0,voc_e2,11816,"[{""event"":""fullscreenenter"",""trial"":1,""time"":51566},{""event"":""blur"",""trial"":10,""time"":196799},{""event"":""focus"",""trial"":10,""time"":198841},{""event"":""fullscreenexit"",""trial"":10,""time"":208923}]",NA,NA,NA,NA,NA,3,#1CD855,#FA92F8,0,10,0,38,1,456.5,39,0,853.3999999985099,10,1,experiment,NA,NA,1,0.3,0.7,3,2,101,3,NA
fcp-trial,141,1034745,0.0-110.0-0.0,voc_e2,11816,"[{""event"":""fullscreenenter"",""trial"":1,""time"":51566},{""event"":""blur"",""trial"":10,""time"":196799},{""event"":""focus"",""trial"":10,""time"":198841},{""event"":""fullscreenexit"",""trial"":10,""time"":208923}]",NA,NA,NA,NA,NA,1,#1CD855,#FA92F8,0,0,0,38,1,2587,37,1,957.2999999970198,0,0,experiment,NA,NA,1,0.3,0.7,3,2,102,3,NA
fcp-trial,142,1037496,0.0-111.0-0.0,voc_e2,11816,"[{""event"":""fullscreenenter"",""trial"":1,""time"":51566},{""event"":""blur"",""trial"":10,""time"":196799},{""event"":""focus"",""trial"":10,""time"":198841},{""event"":""fullscreenexit"",""trial"":10,""time"":208923}]",NA,NA,NA,NA,NA,1,#741CD8,#D8271C,10,0,1,38,1,696.6000000014901,39,0,545.6000000014901,0,0,experiment,NA,NA,0,0.9,0.1,0,1,103,3,NA
fcp-trial,143,1039985,0.0-112.0-0.0,voc_e2,11816,"[{""event"":""fullscreenenter"",""trial"":1,""time"":51566},{""event"":""blur"",""trial"":10,""time"":196799},{""event"":""focus"",""trial"":10,""time"":198841},{""event"":""fullscreenexit"",""trial"":10,""time"":208923}]",NA,NA,NA,NA,NA,5,#3386FF,#D89F1C,10,0,0,38,1,274.3999999985099,37,1,705.1000000014901,10,0,experiment,NA,NA,2,0.5,0.5,5,4,104,3,NA
fcp-trial,144,1042551,0.0-113.0-0.0,voc_e2,11816,"[{""event"":""fullscreenenter"",""trial"":1,""time"":51566},{""event"":""blur"",""trial"":10,""time"":196799},{""event"":""focus"",""trial"":10,""time"":198841},{""event"":""fullscreenexit"",""trial"":10,""time"":208923}]",NA,NA,NA,NA,NA,5,#D8271C,#741CD8,0,10,0,38,1,400.9000000022352,37,1,659.6999999992549,0,0,experiment,NA,NA,0,0.1,0.9,1,0,105,3,NA
audio-instructions,145,1105950,0.0-114.0,voc_e2,11816,"[{""event"":""fullscreenenter"",""trial"":1,""time"":51566},{""event"":""blur"",""trial"":10,""time"":196799},{""event"":""focus"",""trial"":10,""time"":198841},{""event"":""fullscreenexit"",""trial"":10,""time"":208923}]",NA,58912.300000000745,static/audio/pause.wav,NA,0,NA,NA,NA,NA,NA,NA,NA,NA,NA,NA,NA,NA,NA,NA,NA,NA,NA,NA,NA,NA,NA,NA,NA,NA,NA
fcp-trial,146,1111512,0.0-115.0-0.0,voc_e2,11816,"[{""event"":""fullscreenenter"",""trial"":1,""time"":51566},{""event"":""blur"",""trial"":10,""time"":196799},{""event"":""focus"",""trial"":10,""time"":198841},{""event"":""fullscreenexit"",""trial"":10,""time"":208923}]",NA,NA,NA,NA,NA,4,#741CD8,#D8271C,10,0,1,40,0,3426.5,39,0,623.9000000022352,0,0,experiment,NA,NA,0,0.9,0.1,0,1,106,3,NA
fcp-trial,147,1114615,0.0-116.0-0.0,voc_e2,11816,"[{""event"":""fullscreenenter"",""trial"":1,""time"":51566},{""event"":""blur"",""trial"":10,""time"":196799},{""event"":""focus"",""trial"":10,""time"":198841},{""event"":""fullscreenexit"",""trial"":10,""time"":208923}]",NA,NA,NA,NA,NA,3,#D89F1C,#3386FF,10,10,1,40,0,729.5999999977648,39,0,863.2000000029802,10,0,experiment,NA,NA,2,0.5,0.5,4,5,107,3,NA
fcp-trial,148,1118788,0.0-117.0-0.0,voc_e2,11816,"[{""event"":""fullscreenenter"",""trial"":1,""time"":51566},{""event"":""blur"",""trial"":10,""time"":196799},{""event"":""focus"",""trial"":10,""time"":198841},{""event"":""fullscreenexit"",""trial"":10,""time"":208923}]",NA,NA,NA,NA,NA,4,#1CD855,#FA92F8,0,10,0,40,0,1976.9000000022352,39,0,685.6000000014901,10,1,experiment,NA,NA,1,0.3,0.7,3,2,108,3,NA
fcp-trial,149,1121366,0.0-118.0-0.0,voc_e2,11816,"[{""event"":""fullscreenenter"",""trial"":1,""time"":51566},{""event"":""blur"",""trial"":10,""time"":196799},{""event"":""focus"",""trial"":10,""time"":198841},{""event"":""fullscreenexit"",""trial"":10,""time"":208923}]",NA,NA,NA,NA,NA,0,#3386FF,#D89F1C,10,0,0,40,0,241.80000000074506,37,1,827.3999999985099,10,0,experiment,NA,NA,2,0.5,0.5,5,4,109,3,NA
fcp-trial,150,1124692,0.0-119.0-0.0,voc_e2,11816,"[{""event"":""fullscreenenter"",""trial"":1,""time"":51566},{""event"":""blur"",""trial"":10,""time"":196799},{""event"":""focus"",""trial"":10,""time"":198841},{""event"":""fullscreenexit"",""trial"":10,""time"":208923}]",NA,NA,NA,NA,NA,5,#1CD855,#FA92F8,10,10,0,40,0,1122.5,39,0,678.6999999992549,10,1,experiment,NA,NA,1,0.3,0.7,3,2,110,3,NA
fcp-trial,151,1129410,0.0-120.0-0.0,voc_e2,11816,"[{""event"":""fullscreenenter"",""trial"":1,""time"":51566},{""event"":""blur"",""trial"":10,""time"":196799},{""event"":""focus"",""trial"":10,""time"":198841},{""event"":""fullscreenexit"",""trial"":10,""time"":208923}]",NA,NA,NA,NA,NA,3,#D8271C,#741CD8,0,0,0,40,0,2596.199999999255,37,1,611.3000000007451,0,0,experiment,NA,NA,0,0.1,0.9,1,0,111,3,NA
fcp-trial,152,1132410,0.0-121.0-0.0,voc_e2,11816,"[{""event"":""fullscreenenter"",""trial"":1,""time"":51566},{""event"":""blur"",""trial"":10,""time"":196799},{""event"":""focus"",""trial"":10,""time"":198841},{""event"":""fullscreenexit"",""trial"":10,""time"":208923}]",NA,NA,NA,NA,NA,2,#741CD8,#D8271C,0,0,1,40,0,797.6999999992549,37,1,694,0,1,experiment,NA,NA,0,0.9,0.1,0,1,112,3,NA
fcp-trial,153,1135739,0.0-122.0-0.0,voc_e2,11816,"[{""event"":""fullscreenenter"",""trial"":1,""time"":51566},{""event"":""blur"",""trial"":10,""time"":196799},{""event"":""focus"",""trial"":10,""time"":198841},{""event"":""fullscreenexit"",""trial"":10,""time"":208923}]",NA,NA,NA,NA,NA,2,#FA92F8,#1CD855,10,0,1,40,0,1038.1000000014901,39,0,782.0999999977648,0,0,experiment,NA,NA,1,0.7,0.3,2,3,113,3,NA
fcp-trial,154,1139643,0.0-123.0-0.0,voc_e2,11816,"[{""event"":""fullscreenenter"",""trial"":1,""time"":51566},{""event"":""blur"",""trial"":10,""time"":196799},{""event"":""focus"",""trial"":10,""time"":198841},{""event"":""fullscreenexit"",""trial"":10,""time"":208923}]",NA,NA,NA,NA,NA,6,#3386FF,#D89F1C,10,10,0,40,0,1563.3999999985099,37,1,832.1000000014901,10,0,experiment,NA,NA,2,0.5,0.5,5,4,114,3,NA
fcp-trial,155,1143438,0.0-124.0-0.0,voc_e2,11816,"[{""event"":""fullscreenenter"",""trial"":1,""time"":51566},{""event"":""blur"",""trial"":10,""time"":196799},{""event"":""focus"",""trial"":10,""time"":198841},{""event"":""fullscreenexit"",""trial"":10,""time"":208923}]",NA,NA,NA,NA,NA,0,#FA92F8,#1CD855,0,0,1,40,0,1593.5999999977648,39,0,696.1000000014901,0,0,experiment,NA,NA,1,0.7,0.3,2,3,115,3,NA
fcp-trial,156,1145770,0.0-125.0-0.0,voc_e2,11816,"[{""event"":""fullscreenenter"",""trial"":1,""time"":51566},{""event"":""blur"",""trial"":10,""time"":196799},{""event"":""focus"",""trial"":10,""time"":198841},{""event"":""fullscreenexit"",""trial"":10,""time"":208923}]",NA,NA,NA,NA,NA,1,#D8271C,#741CD8,0,10,0,38,1,359.5,37,1,467.1000000014901,0,0,experiment,NA,NA,0,0.1,0.9,1,0,116,3,NA
fcp-trial,157,1149358,0.0-126.0-0.0,voc_e2,11816,"[{""event"":""fullscreenenter"",""trial"":1,""time"":51566},{""event"":""blur"",""trial"":10,""time"":196799},{""event"":""focus"",""trial"":10,""time"":198841},{""event"":""fullscreenexit"",""trial"":10,""time"":208923}]",NA,NA,NA,NA,NA,4,#3386FF,#D89F1C,10,0,0,38,1,540,37,1,1539,10,0,experiment,NA,NA,2,0.5,0.5,5,4,117,3,NA
fcp-trial,158,1152453,0.0-127.0-0.0,voc_e2,11816,"[{""event"":""fullscreenenter"",""trial"":1,""time"":51566},{""event"":""blur"",""trial"":10,""time"":196799},{""event"":""focus"",""trial"":10,""time"":198841},{""event"":""fullscreenexit"",""trial"":10,""time"":208923}]",NA,NA,NA,NA,NA,0,#741CD8,#D8271C,10,0,1,38,1,701.8999999985099,39,0,869.3000000007451,0,0,experiment,NA,NA,0,0.9,0.1,0,1,118,3,NA
fcp-trial,159,1154819,0.0-128.0-0.0,voc_e2,11816,"[{""event"":""fullscreenenter"",""trial"":1,""time"":51566},{""event"":""blur"",""trial"":10,""time"":196799},{""event"":""focus"",""trial"":10,""time"":198841},{""event"":""fullscreenexit"",""trial"":10,""time"":208923}]",NA,NA,NA,NA,NA,6,#D8271C,#741CD8,0,10,0,38,1,348,37,1,512.2000000029802,0,0,experiment,NA,NA,0,0.1,0.9,1,0,119,3,NA
fcp-trial,160,1158651,0.0-129.0-0.0,voc_e2,11816,"[{""event"":""fullscreenenter"",""trial"":1,""time"":51566},{""event"":""blur"",""trial"":10,""time"":196799},{""event"":""focus"",""trial"":10,""time"":198841},{""event"":""fullscreenexit"",""trial"":10,""time"":208923}]",NA,NA,NA,NA,NA,3,#1CD855,#FA92F8,0,10,0,38,1,1240.300000000745,37,1,1082.5,0,0,experiment,NA,NA,1,0.3,0.7,3,2,120,3,NA
fcp-trial,161,1173657,0.0-130.0-0.0,voc_e2,11816,"[{""event"":""fullscreenenter"",""trial"":1,""time"":51566},{""event"":""blur"",""trial"":10,""time"":196799},{""event"":""focus"",""trial"":10,""time"":198841},{""event"":""fullscreenexit"",""trial"":10,""time"":208923}]",NA,NA,NA,NA,NA,6,#FA92F8,#1CD855,10,0,1,null,null,null,null,null,null,NA,0,experiment,NA,NA,1,0.7,0.3,2,3,121,3,NA
fcp-trial,162,1177765,0.0-131.0-0.0,voc_e2,11816,"[{""event"":""fullscreenenter"",""trial"":1,""time"":51566},{""event"":""blur"",""trial"":10,""time"":196799},{""event"":""focus"",""trial"":10,""time"":198841},{""event"":""fullscreenexit"",""trial"":10,""time"":208923}]",NA,NA,NA,NA,NA,2,#D89F1C,#3386FF,0,0,1,40,0,1867.199999999255,39,0,723.2999999970198,0,0,experiment,NA,NA,2,0.5,0.5,4,5,122,3,NA
fcp-trial,163,1181335,0.0-132.0-0.0,voc_e2,11816,"[{""event"":""fullscreenenter"",""trial"":1,""time"":51566},{""event"":""blur"",""trial"":10,""time"":196799},{""event"":""focus"",""trial"":10,""time"":198841},{""event"":""fullscreenexit"",""trial"":10,""time"":208923}]",NA,NA,NA,NA,NA,1,#1CD855,#FA92F8,0,10,0,40,0,1071.800000000745,39,0,987.9000000022352,10,1,experiment,NA,NA,1,0.3,0.7,3,2,123,3,NA
fcp-trial,164,1184130,0.0-133.0-0.0,voc_e2,11816,"[{""event"":""fullscreenenter"",""trial"":1,""time"":51566},{""event"":""blur"",""trial"":10,""time"":196799},{""event"":""focus"",""trial"":10,""time"":198841},{""event"":""fullscreenexit"",""trial"":10,""time"":208923}]",NA,NA,NA,NA,NA,5,#D8271C,#741CD8,0,10,0,40,0,579.5,39,0,705.6999999992549,10,1,experiment,NA,NA,0,0.1,0.9,1,0,124,3,NA
fcp-trial,165,1188172,0.0-134.0-0.0,voc_e2,11816,"[{""event"":""fullscreenenter"",""trial"":1,""time"":51566},{""event"":""blur"",""trial"":10,""time"":196799},{""event"":""focus"",""trial"":10,""time"":198841},{""event"":""fullscreenexit"",""trial"":10,""time"":208923}]",NA,NA,NA,NA,NA,1,#D89F1C,#3386FF,0,10,1,40,0,1703.800000000745,37,1,828.4000000022352,0,1,experiment,NA,NA,2,0.5,0.5,4,5,125,3,NA
fcp-trial,166,1191518,0.0-135.0-0.0,voc_e2,11816,"[{""event"":""fullscreenenter"",""trial"":1,""time"":51566},{""event"":""blur"",""trial"":10,""time"":196799},{""event"":""focus"",""trial"":10,""time"":198841},{""event"":""fullscreenexit"",""trial"":10,""time"":208923}]",NA,NA,NA,NA,NA,5,#3386FF,#D89F1C,10,10,0,40,0,979.6000000014901,39,0,858.6999999992549,10,1,experiment,NA,NA,2,0.5,0.5,5,4,126,3,NA
fcp-trial,167,1194079,0.0-136.0-0.0,voc_e2,11816,"[{""event"":""fullscreenenter"",""trial"":1,""time"":51566},{""event"":""blur"",""trial"":10,""time"":196799},{""event"":""focus"",""trial"":10,""time"":198841},{""event"":""fullscreenexit"",""trial"":10,""time"":208923}]",NA,NA,NA,NA,NA,2,#D89F1C,#3386FF,0,0,1,40,0,466.20000000298023,39,0,569.4000000022352,0,0,experiment,NA,NA,2,0.5,0.5,4,5,127,3,NA
fcp-trial,168,1196547,0.0-137.0-0.0,voc_e2,11816,"[{""event"":""fullscreenenter"",""trial"":1,""time"":51566},{""event"":""blur"",""trial"":10,""time"":196799},{""event"":""focus"",""trial"":10,""time"":198841},{""event"":""fullscreenexit"",""trial"":10,""time"":208923}]",NA,NA,NA,NA,NA,0,#1CD855,#FA92F8,10,10,0,40,0,458.8999999985099,39,0,498.6000000014901,10,1,experiment,NA,NA,1,0.3,0.7,3,2,128,3,NA
fcp-trial,169,1199268,0.0-138.0-0.0,voc_e2,11816,"[{""event"":""fullscreenenter"",""trial"":1,""time"":51566},{""event"":""blur"",""trial"":10,""time"":196799},{""event"":""focus"",""trial"":10,""time"":198841},{""event"":""fullscreenexit"",""trial"":10,""time"":208923}]",NA,NA,NA,NA,NA,4,#3386FF,#D89F1C,0,10,0,40,0,402.1000000014901,39,0,813.8999999985099,10,1,experiment,NA,NA,2,0.5,0.5,5,4,129,3,NA
fcp-trial,170,1203514,0.0-139.0-0.0,voc_e2,11816,"[{""event"":""fullscreenenter"",""trial"":1,""time"":51566},{""event"":""blur"",""trial"":10,""time"":196799},{""event"":""focus"",""trial"":10,""time"":198841},{""event"":""fullscreenexit"",""trial"":10,""time"":208923}]",NA,NA,NA,NA,NA,1,#D8271C,#741CD8,0,10,0,40,0,1651.800000000745,37,1,1087.0999999977648,0,0,experiment,NA,NA,0,0.1,0.9,1,0,130,3,NA
fcp-trial,171,1218522,0.0-140.0-0.0,voc_e2,11816,"[{""event"":""fullscreenenter"",""trial"":1,""time"":51566},{""event"":""blur"",""trial"":10,""time"":196799},{""event"":""focus"",""trial"":10,""time"":198841},{""event"":""fullscreenexit"",""trial"":10,""time"":208923}]",NA,NA,NA,NA,NA,2,#741CD8,#D8271C,0,0,1,null,null,null,null,null,null,NA,0,experiment,NA,NA,0,0.9,0.1,0,1,131,3,NA
fcp-trial,172,1221394,0.0-141.0-0.0,voc_e2,11816,"[{""event"":""fullscreenenter"",""trial"":1,""time"":51566},{""event"":""blur"",""trial"":10,""time"":196799},{""event"":""focus"",""trial"":10,""time"":198841},{""event"":""fullscreenexit"",""trial"":10,""time"":208923}]",NA,NA,NA,NA,NA,1,#1CD855,#FA92F8,0,10,0,40,0,753.0999999977648,39,0,599.6999999992549,10,1,experiment,NA,NA,1,0.3,0.7,3,2,132,3,NA
fcp-trial,173,1225236,0.0-142.0-0.0,voc_e2,11816,"[{""event"":""fullscreenenter"",""trial"":1,""time"":51566},{""event"":""blur"",""trial"":10,""time"":196799},{""event"":""focus"",""trial"":10,""time"":198841},{""event"":""fullscreenexit"",""trial"":10,""time"":208923}]",NA,NA,NA,NA,NA,3,#3386FF,#D89F1C,10,0,0,40,0,1452,37,1,880.1000000014901,10,0,experiment,NA,NA,2,0.5,0.5,5,4,133,3,NA
fcp-trial,174,1228113,0.0-143.0-0.0,voc_e2,11816,"[{""event"":""fullscreenenter"",""trial"":1,""time"":51566},{""event"":""blur"",""trial"":10,""time"":196799},{""event"":""focus"",""trial"":10,""time"":198841},{""event"":""fullscreenexit"",""trial"":10,""time"":208923}]",NA,NA,NA,NA,NA,5,#D89F1C,#3386FF,0,0,1,40,0,905.6000000014901,39,0,462.4000000022352,0,0,experiment,NA,NA,2,0.5,0.5,4,5,134,3,NA
fcp-trial,175,1230535,0.0-144.0-0.0,voc_e2,11816,"[{""event"":""fullscreenenter"",""trial"":1,""time"":51566},{""event"":""blur"",""trial"":10,""time"":196799},{""event"":""focus"",""trial"":10,""time"":198841},{""event"":""fullscreenexit"",""trial"":10,""time"":208923}]",NA,NA,NA,NA,NA,3,#1CD855,#FA92F8,0,10,0,40,0,343.5,37,1,554.3000000007451,0,0,experiment,NA,NA,1,0.3,0.7,3,2,135,3,NA
fcp-trial,176,1233052,0.0-145.0-0.0,voc_e2,11816,"[{""event"":""fullscreenenter"",""trial"":1,""time"":51566},{""event"":""blur"",""trial"":10,""time"":196799},{""event"":""focus"",""trial"":10,""time"":198841},{""event"":""fullscreenexit"",""trial"":10,""time"":208923}]",NA,NA,NA,NA,NA,4,#D8271C,#741CD8,0,10,0,40,0,90.80000000074506,37,1,916.5,0,0,experiment,NA,NA,0,0.1,0.9,1,0,136,4,NA
fcp-trial,177,1236344,0.0-146.0-0.0,voc_e2,11816,"[{""event"":""fullscreenenter"",""trial"":1,""time"":51566},{""event"":""blur"",""trial"":10,""time"":196799},{""event"":""focus"",""trial"":10,""time"":198841},{""event"":""fullscreenexit"",""trial"":10,""time"":208923}]",NA,NA,NA,NA,NA,3,#D8271C,#741CD8,0,10,0,38,1,1252.5,39,0,533.6999999992549,10,1,experiment,NA,NA,0,0.1,0.9,1,0,137,4,NA
fcp-trial,178,1240352,0.0-147.0-0.0,voc_e2,11816,"[{""event"":""fullscreenenter"",""trial"":1,""time"":51566},{""event"":""blur"",""trial"":10,""time"":196799},{""event"":""focus"",""trial"":10,""time"":198841},{""event"":""fullscreenexit"",""trial"":10,""time"":208923}]",NA,NA,NA,NA,NA,4,#1CD855,#FA92F8,10,0,0,40,0,1868.2000000029802,39,0,615.5999999977648,0,1,experiment,NA,NA,1,0.3,0.7,3,2,138,4,NA
fcp-trial,179,1243656,0.0-148.0-0.0,voc_e2,11816,"[{""event"":""fullscreenenter"",""trial"":1,""time"":51566},{""event"":""blur"",""trial"":10,""time"":196799},{""event"":""focus"",""trial"":10,""time"":198841},{""event"":""fullscreenexit"",""trial"":10,""time"":208923}]",NA,NA,NA,NA,NA,6,#D89F1C,#3386FF,10,0,1,40,0,1021,37,1,778.0999999977648,10,1,experiment,NA,NA,2,0.5,0.5,4,5,139,4,NA
fcp-trial,180,1246181,0.0-149.0-0.0,voc_e2,11816,"[{""event"":""fullscreenenter"",""trial"":1,""time"":51566},{""event"":""blur"",""trial"":10,""time"":196799},{""event"":""focus"",""trial"":10,""time"":198841},{""event"":""fullscreenexit"",""trial"":10,""time"":208923}]",NA,NA,NA,NA,NA,2,#FA92F8,#1CD855,0,0,1,40,0,595.5,39,0,423.80000000074506,0,0,experiment,NA,NA,1,0.7,0.3,2,3,140,4,NA
fcp-trial,181,1249317,0.0-150.0-0.0,voc_e2,11816,"[{""event"":""fullscreenenter"",""trial"":1,""time"":51566},{""event"":""blur"",""trial"":10,""time"":196799},{""event"":""focus"",""trial"":10,""time"":198841},{""event"":""fullscreenexit"",""trial"":10,""time"":208923}]",NA,NA,NA,NA,NA,6,#741CD8,#D8271C,10,0,1,40,0,1004.8999999985099,37,1,619.8000000007451,10,1,experiment,NA,NA,0,0.9,0.1,0,1,141,4,NA
fcp-trial,182,1260029,0.0-151.0-0.0,voc_e2,11816,"[{""event"":""fullscreenenter"",""trial"":1,""time"":51566},{""event"":""blur"",""trial"":10,""time"":196799},{""event"":""focus"",""trial"":10,""time"":198841},{""event"":""fullscreenexit"",""trial"":10,""time"":208923}]",NA,NA,NA,NA,NA,6,#1CD855,#FA92F8,0,10,0,40,0,5044.099999997765,39,0,4157.60000000149,10,1,experiment,NA,NA,1,0.3,0.7,3,2,142,4,NA
fcp-trial,183,1263089,0.0-152.0-0.0,voc_e2,11816,"[{""event"":""fullscreenenter"",""trial"":1,""time"":51566},{""event"":""blur"",""trial"":10,""time"":196799},{""event"":""focus"",""trial"":10,""time"":198841},{""event"":""fullscreenexit"",""trial"":10,""time"":208923}]",NA,NA,NA,NA,NA,1,#D89F1C,#3386FF,10,0,1,40,0,898.6999999992549,37,1,653,10,1,experiment,NA,NA,2,0.5,0.5,4,5,143,4,NA
fcp-trial,184,1265177,0.0-153.0-0.0,voc_e2,11816,"[{""event"":""fullscreenenter"",""trial"":1,""time"":51566},{""event"":""blur"",""trial"":10,""time"":196799},{""event"":""focus"",""trial"":10,""time"":198841},{""event"":""fullscreenexit"",""trial"":10,""time"":208923}]",NA,NA,NA,NA,NA,5,#741CD8,#D8271C,10,0,1,40,0,14.400000002235174,39,0,563,0,0,experiment,NA,NA,0,0.9,0.1,0,1,144,4,NA
fcp-trial,185,1268299,0.0-154.0-0.0,voc_e2,11816,"[{""event"":""fullscreenenter"",""trial"":1,""time"":51566},{""event"":""blur"",""trial"":10,""time"":196799},{""event"":""focus"",""trial"":10,""time"":198841},{""event"":""fullscreenexit"",""trial"":10,""time"":208923}]",NA,NA,NA,NA,NA,0,#3386FF,#D89F1C,0,10,0,38,1,992.8000000007451,39,0,619.0999999977648,10,1,experiment,NA,NA,2,0.5,0.5,5,4,145,4,NA
fcp-trial,186,1271777,0.0-155.0-0.0,voc_e2,11816,"[{""event"":""fullscreenenter"",""trial"":1,""time"":51566},{""event"":""blur"",""trial"":10,""time"":196799},{""event"":""focus"",""trial"":10,""time"":198841},{""event"":""fullscreenexit"",""trial"":10,""time"":208923}]",NA,NA,NA,NA,NA,0,#D8271C,#741CD8,0,10,0,38,1,1293,37,1,662.5,0,0,experiment,NA,NA,0,0.1,0.9,1,0,146,4,NA
fcp-trial,187,1274749,0.0-156.0-0.0,voc_e2,11816,"[{""event"":""fullscreenenter"",""trial"":1,""time"":51566},{""event"":""blur"",""trial"":10,""time"":196799},{""event"":""focus"",""trial"":10,""time"":198841},{""event"":""fullscreenexit"",""trial"":10,""time"":208923}]",NA,NA,NA,NA,NA,5,#1CD855,#FA92F8,0,10,0,38,1,614.8999999985099,39,0,850.8000000007451,10,1,experiment,NA,NA,1,0.3,0.7,3,2,147,4,NA
fcp-trial,188,1278012,0.0-157.0-0.0,voc_e2,11816,"[{""event"":""fullscreenenter"",""trial"":1,""time"":51566},{""event"":""blur"",""trial"":10,""time"":196799},{""event"":""focus"",""trial"":10,""time"":198841},{""event"":""fullscreenexit"",""trial"":10,""time"":208923}]",NA,NA,NA,NA,NA,1,#1CD855,#FA92F8,10,10,0,40,0,1020.8999999985099,37,1,732,10,0,experiment,NA,NA,1,0.3,0.7,3,2,148,4,NA
fcp-trial,189,1282192,0.0-158.0-0.0,voc_e2,11816,"[{""event"":""fullscreenenter"",""trial"":1,""time"":51566},{""event"":""blur"",""trial"":10,""time"":196799},{""event"":""focus"",""trial"":10,""time"":198841},{""event"":""fullscreenexit"",""trial"":10,""time"":208923}]",NA,NA,NA,NA,NA,4,#741CD8,#D8271C,10,0,1,38,1,1308.800000000745,39,0,1361.300000000745,0,0,experiment,NA,NA,0,0.9,0.1,0,1,149,4,NA
fcp-trial,190,1291118,0.0-159.0-0.0,voc_e2,11816,"[{""event"":""fullscreenenter"",""trial"":1,""time"":51566},{""event"":""blur"",""trial"":10,""time"":196799},{""event"":""focus"",""trial"":10,""time"":198841},{""event"":""fullscreenexit"",""trial"":10,""time"":208923}]",NA,NA,NA,NA,NA,0,#FA92F8,#1CD855,10,10,1,38,1,1710.699999999255,39,0,5707.199999999255,10,0,experiment,NA,NA,1,0.7,0.3,2,3,150,4,NA
fcp-trial,191,1296521,0.0-160.0-0.0,voc_e2,11816,"[{""event"":""fullscreenenter"",""trial"":1,""time"":51566},{""event"":""blur"",""trial"":10,""time"":196799},{""event"":""focus"",""trial"":10,""time"":198841},{""event"":""fullscreenexit"",""trial"":10,""time"":208923}]",NA,NA,NA,NA,NA,0,#741CD8,#D8271C,10,0,1,38,1,2840.5,37,1,1057.1000000014901,10,1,experiment,NA,NA,0,0.9,0.1,0,1,151,4,NA
fcp-trial,192,1299373,0.0-161.0-0.0,voc_e2,11816,"[{""event"":""fullscreenenter"",""trial"":1,""time"":51566},{""event"":""blur"",""trial"":10,""time"":196799},{""event"":""focus"",""trial"":10,""time"":198841},{""event"":""fullscreenexit"",""trial"":10,""time"":208923}]",NA,NA,NA,NA,NA,2,#3386FF,#D89F1C,10,0,0,38,1,671.4000000022352,39,0,675.3000000007451,0,1,experiment,NA,NA,2,0.5,0.5,5,4,152,4,NA
fcp-trial,193,1301580,0.0-162.0-0.0,voc_e2,11816,"[{""event"":""fullscreenenter"",""trial"":1,""time"":51566},{""event"":""blur"",""trial"":10,""time"":196799},{""event"":""focus"",""trial"":10,""time"":198841},{""event"":""fullscreenexit"",""trial"":10,""time"":208923}]",NA,NA,NA,NA,NA,2,#741CD8,#D8271C,10,0,1,38,1,214.90000000223517,37,1,487.80000000074506,10,1,experiment,NA,NA,0,0.9,0.1,0,1,153,4,NA
fcp-trial,194,1303832,0.0-163.0-0.0,voc_e2,11816,"[{""event"":""fullscreenenter"",""trial"":1,""time"":51566},{""event"":""blur"",""trial"":10,""time"":196799},{""event"":""focus"",""trial"":10,""time"":198841},{""event"":""fullscreenexit"",""trial"":10,""time"":208923}]",NA,NA,NA,NA,NA,3,#1CD855,#FA92F8,0,0,0,38,1,250.10000000149012,39,0,497,0,1,experiment,NA,NA,1,0.3,0.7,3,2,154,4,NA
fcp-trial,195,1305922,0.0-164.0-0.0,voc_e2,11816,"[{""event"":""fullscreenenter"",""trial"":1,""time"":51566},{""event"":""blur"",""trial"":10,""time"":196799},{""event"":""focus"",""trial"":10,""time"":198841},{""event"":""fullscreenexit"",""trial"":10,""time"":208923}]",NA,NA,NA,NA,NA,1,#3386FF,#D89F1C,0,10,0,38,1,60.69999999925494,37,1,524.2999999970198,0,0,experiment,NA,NA,2,0.5,0.5,5,4,155,4,NA
fcp-trial,196,1309087,0.0-165.0-0.0,voc_e2,11816,"[{""event"":""fullscreenenter"",""trial"":1,""time"":51566},{""event"":""blur"",""trial"":10,""time"":196799},{""event"":""focus"",""trial"":10,""time"":198841},{""event"":""fullscreenexit"",""trial"":10,""time"":208923}]",NA,NA,NA,NA,NA,2,#FA92F8,#1CD855,10,0,1,38,1,1080.9000000022352,39,0,578.2999999970198,0,0,experiment,NA,NA,1,0.7,0.3,2,3,156,4,NA
fcp-trial,197,1312087,0.0-166.0-0.0,voc_e2,11816,"[{""event"":""fullscreenenter"",""trial"":1,""time"":51566},{""event"":""blur"",""trial"":10,""time"":196799},{""event"":""focus"",""trial"":10,""time"":198841},{""event"":""fullscreenexit"",""trial"":10,""time"":208923}]",NA,NA,NA,NA,NA,5,#3386FF,#D89F1C,10,0,0,38,1,769.1999999992549,39,0,723.5,0,1,experiment,NA,NA,2,0.5,0.5,5,4,157,4,NA
fcp-trial,198,1316036,0.0-167.0-0.0,voc_e2,11816,"[{""event"":""fullscreenenter"",""trial"":1,""time"":51566},{""event"":""blur"",""trial"":10,""time"":196799},{""event"":""focus"",""trial"":10,""time"":198841},{""event"":""fullscreenexit"",""trial"":10,""time"":208923}]",NA,NA,NA,NA,NA,3,#741CD8,#D8271C,10,0,1,38,1,1076.9000000022352,37,1,1361.8999999985099,10,1,experiment,NA,NA,0,0.9,0.1,0,1,158,4,NA
fcp-trial,199,1318523,0.0-168.0-0.0,voc_e2,11816,"[{""event"":""fullscreenenter"",""trial"":1,""time"":51566},{""event"":""blur"",""trial"":10,""time"":196799},{""event"":""focus"",""trial"":10,""time"":198841},{""event"":""fullscreenexit"",""trial"":10,""time"":208923}]",NA,NA,NA,NA,NA,3,#D89F1C,#3386FF,0,0,1,38,1,560.6000000014901,39,0,417.19999999925494,0,0,experiment,NA,NA,2,0.5,0.5,4,5,159,4,NA
fcp-trial,200,1323114,0.0-169.0-0.0,voc_e2,11816,"[{""event"":""fullscreenenter"",""trial"":1,""time"":51566},{""event"":""blur"",""trial"":10,""time"":196799},{""event"":""focus"",""trial"":10,""time"":198841},{""event"":""fullscreenexit"",""trial"":10,""time"":208923}]",NA,NA,NA,NA,NA,4,#FA92F8,#1CD855,10,0,1,38,1,2248.5,37,1,828.5,10,1,experiment,NA,NA,1,0.7,0.3,2,3,160,4,NA
fcp-trial,201,1327079,0.0-170.0-0.0,voc_e2,11816,"[{""event"":""fullscreenenter"",""trial"":1,""time"":51566},{""event"":""blur"",""trial"":10,""time"":196799},{""event"":""focus"",""trial"":10,""time"":198841},{""event"":""fullscreenexit"",""trial"":10,""time"":208923}]",NA,NA,NA,NA,NA,1,#D8271C,#741CD8,0,0,0,38,1,1952.800000000745,39,0,505.1000000014901,0,1,experiment,NA,NA,0,0.1,0.9,1,0,161,4,NA
fcp-trial,202,1329893,0.0-171.0-0.0,voc_e2,11816,"[{""event"":""fullscreenenter"",""trial"":1,""time"":51566},{""event"":""blur"",""trial"":10,""time"":196799},{""event"":""focus"",""trial"":10,""time"":198841},{""event"":""fullscreenexit"",""trial"":10,""time"":208923}]",NA,NA,NA,NA,NA,5,#D8271C,#741CD8,10,10,0,38,1,628.6999999992549,37,1,679,10,0,experiment,NA,NA,0,0.1,0.9,1,0,162,4,NA
fcp-trial,203,1333180,0.0-172.0-0.0,voc_e2,11816,"[{""event"":""fullscreenenter"",""trial"":1,""time"":51566},{""event"":""blur"",""trial"":10,""time"":196799},{""event"":""focus"",""trial"":10,""time"":198841},{""event"":""fullscreenexit"",""trial"":10,""time"":208923}]",NA,NA,NA,NA,NA,0,#D89F1C,#3386FF,10,10,1,38,1,829.0999999977648,39,0,949.5999999977648,10,0,experiment,NA,NA,2,0.5,0.5,4,5,163,4,NA
fcp-trial,204,1336570,0.0-173.0-0.0,voc_e2,11816,"[{""event"":""fullscreenenter"",""trial"":1,""time"":51566},{""event"":""blur"",""trial"":10,""time"":196799},{""event"":""focus"",""trial"":10,""time"":198841},{""event"":""fullscreenexit"",""trial"":10,""time"":208923}]",NA,NA,NA,NA,NA,6,#D8271C,#741CD8,0,10,0,38,1,1068.6000000014901,37,1,815.6000000014901,0,0,experiment,NA,NA,0,0.1,0.9,1,0,164,4,NA
fcp-trial,205,1341172,0.0-174.0-0.0,voc_e2,11816,"[{""event"":""fullscreenenter"",""trial"":1,""time"":51566},{""event"":""blur"",""trial"":10,""time"":196799},{""event"":""focus"",""trial"":10,""time"":198841},{""event"":""fullscreenexit"",""trial"":10,""time"":208923}]",NA,NA,NA,NA,NA,5,#FA92F8,#1CD855,10,0,1,38,1,2048.89999999851,39,0,1043.7000000029802,0,0,experiment,NA,NA,1,0.7,0.3,2,3,165,4,NA
fcp-trial,206,1348180,0.0-175.0-0.0,voc_e2,11816,"[{""event"":""fullscreenenter"",""trial"":1,""time"":51566},{""event"":""blur"",""trial"":10,""time"":196799},{""event"":""focus"",""trial"":10,""time"":198841},{""event"":""fullscreenexit"",""trial"":10,""time"":208923}]",NA,NA,NA,NA,NA,4,#3386FF,#D89F1C,10,10,0,38,1,1734.0999999977648,37,1,3765.5,10,0,experiment,NA,NA,2,0.5,0.5,5,4,166,4,NA
fcp-trial,207,1353672,0.0-176.0-0.0,voc_e2,11816,"[{""event"":""fullscreenenter"",""trial"":1,""time"":51566},{""event"":""blur"",""trial"":10,""time"":196799},{""event"":""focus"",""trial"":10,""time"":198841},{""event"":""fullscreenexit"",""trial"":10,""time"":208923}]",NA,NA,NA,NA,NA,6,#1CD855,#FA92F8,0,10,0,38,1,3323.60000000149,39,0,659.3999999985099,10,1,experiment,NA,NA,1,0.3,0.7,3,2,167,4,NA
fcp-trial,208,1363430,0.0-177.0-0.0,voc_e2,11816,"[{""event"":""fullscreenenter"",""trial"":1,""time"":51566},{""event"":""blur"",""trial"":10,""time"":196799},{""event"":""focus"",""trial"":10,""time"":198841},{""event"":""fullscreenexit"",""trial"":10,""time"":208923}]",NA,NA,NA,NA,NA,6,#3386FF,#D89F1C,0,10,0,38,1,6467.70000000298,39,0,1784,10,1,experiment,NA,NA,2,0.5,0.5,5,4,168,4,NA
fcp-trial,209,1368249,0.0-178.0-0.0,voc_e2,11816,"[{""event"":""fullscreenenter"",""trial"":1,""time"":51566},{""event"":""blur"",""trial"":10,""time"":196799},{""event"":""focus"",""trial"":10,""time"":198841},{""event"":""fullscreenexit"",""trial"":10,""time"":208923}]",NA,NA,NA,NA,NA,2,#3386FF,#D89F1C,10,0,0,40,0,1917.800000000745,39,0,1391.199999999255,0,1,experiment,NA,NA,2,0.5,0.5,5,4,169,4,NA
fcp-trial,210,1371037,0.0-179.0-0.0,voc_e2,11816,"[{""event"":""fullscreenenter"",""trial"":1,""time"":51566},{""event"":""blur"",""trial"":10,""time"":196799},{""event"":""focus"",""trial"":10,""time"":198841},{""event"":""fullscreenexit"",""trial"":10,""time"":208923}]",NA,NA,NA,NA,NA,6,#FA92F8,#1CD855,10,10,1,38,1,634.6999999992549,37,1,630.1999999992549,10,1,experiment,NA,NA,1,0.7,0.3,2,3,170,4,NA
fcp-trial,211,1373695,0.0-180.0-0.0,voc_e2,11816,"[{""event"":""fullscreenenter"",""trial"":1,""time"":51566},{""event"":""blur"",""trial"":10,""time"":196799},{""event"":""focus"",""trial"":10,""time"":198841},{""event"":""fullscreenexit"",""trial"":10,""time"":208923}]",NA,NA,NA,NA,NA,0,#1CD855,#FA92F8,10,10,0,38,1,447.80000000074506,39,0,702.8000000007451,10,1,experiment,NA,NA,1,0.3,0.7,3,2,171,4,NA
fcp-trial,212,1376176,0.0-181.0-0.0,voc_e2,11816,"[{""event"":""fullscreenenter"",""trial"":1,""time"":51566},{""event"":""blur"",""trial"":10,""time"":196799},{""event"":""focus"",""trial"":10,""time"":198841},{""event"":""fullscreenexit"",""trial"":10,""time"":208923}]",NA,NA,NA,NA,NA,6,#741CD8,#D8271C,10,0,1,38,1,429.1000000014901,37,1,537.5,10,1,experiment,NA,NA,0,0.9,0.1,0,1,172,4,NA
fcp-trial,213,1378636,0.0-182.0-0.0,voc_e2,11816,"[{""event"":""fullscreenenter"",""trial"":1,""time"":51566},{""event"":""blur"",""trial"":10,""time"":196799},{""event"":""focus"",""trial"":10,""time"":198841},{""event"":""fullscreenexit"",""trial"":10,""time"":208923}]",NA,NA,NA,NA,NA,3,#D89F1C,#3386FF,0,0,1,38,1,400.9000000022352,39,0,536.6000000014901,0,0,experiment,NA,NA,2,0.5,0.5,4,5,173,4,NA
fcp-trial,214,1385719,0.0-183.0-0.0,voc_e2,11816,"[{""event"":""fullscreenenter"",""trial"":1,""time"":51566},{""event"":""blur"",""trial"":10,""time"":196799},{""event"":""focus"",""trial"":10,""time"":198841},{""event"":""fullscreenexit"",""trial"":10,""time"":208923}]",NA,NA,NA,NA,NA,2,#D8271C,#741CD8,10,10,0,38,1,4517.60000000149,39,0,1057.699999999255,10,1,experiment,NA,NA,0,0.1,0.9,1,0,174,4,NA
fcp-trial,215,1389627,0.0-184.0-0.0,voc_e2,11816,"[{""event"":""fullscreenenter"",""trial"":1,""time"":51566},{""event"":""blur"",""trial"":10,""time"":196799},{""event"":""focus"",""trial"":10,""time"":198841},{""event"":""fullscreenexit"",""trial"":10,""time"":208923}]",NA,NA,NA,NA,NA,3,#1CD855,#FA92F8,0,10,0,38,1,1038.199999999255,39,0,1358.0999999977648,10,1,experiment,NA,NA,1,0.3,0.7,3,2,175,4,NA
fcp-trial,216,1399599,0.0-185.0-0.0,voc_e2,11816,"[{""event"":""fullscreenenter"",""trial"":1,""time"":51566},{""event"":""blur"",""trial"":10,""time"":196799},{""event"":""focus"",""trial"":10,""time"":198841},{""event"":""fullscreenexit"",""trial"":10,""time"":208923}]",NA,NA,NA,NA,NA,0,#3386FF,#D89F1C,10,10,0,38,1,3829,39,0,4633.900000002235,10,1,experiment,NA,NA,2,0.5,0.5,5,4,176,4,NA
fcp-trial,217,1406474,0.0-186.0-0.0,voc_e2,11816,"[{""event"":""fullscreenenter"",""trial"":1,""time"":51566},{""event"":""blur"",""trial"":10,""time"":196799},{""event"":""focus"",""trial"":10,""time"":198841},{""event"":""fullscreenexit"",""trial"":10,""time"":208923}]",NA,NA,NA,NA,NA,4,#1CD855,#FA92F8,0,0,0,38,1,949.3000000007451,37,1,4416.800000000745,0,0,experiment,NA,NA,1,0.3,0.7,3,2,177,4,NA
fcp-trial,218,1414436,0.0-187.0-0.0,voc_e2,11816,"[{""event"":""fullscreenenter"",""trial"":1,""time"":51566},{""event"":""blur"",""trial"":10,""time"":196799},{""event"":""focus"",""trial"":10,""time"":198841},{""event"":""fullscreenexit"",""trial"":10,""time"":208923}]",NA,NA,NA,NA,NA,1,#3386FF,#D89F1C,0,10,0,40,0,5495.60000000149,37,1,953.8999999985099,0,0,experiment,NA,NA,2,0.5,0.5,5,4,178,4,NA
fcp-trial,219,1420032,0.0-188.0-0.0,voc_e2,11816,"[{""event"":""fullscreenenter"",""trial"":1,""time"":51566},{""event"":""blur"",""trial"":10,""time"":196799},{""event"":""focus"",""trial"":10,""time"":198841},{""event"":""fullscreenexit"",""trial"":10,""time"":208923}]",NA,NA,NA,NA,NA,1,#741CD8,#D8271C,10,0,1,40,0,3190.699999999255,39,0,899.3000000007451,0,0,experiment,NA,NA,0,0.9,0.1,0,1,179,4,NA
fcp-trial,220,1424392,0.0-189.0-0.0,voc_e2,11816,"[{""event"":""fullscreenenter"",""trial"":1,""time"":51566},{""event"":""blur"",""trial"":10,""time"":196799},{""event"":""focus"",""trial"":10,""time"":198841},{""event"":""fullscreenexit"",""trial"":10,""time"":208923}]",NA,NA,NA,NA,NA,3,#D8271C,#741CD8,0,10,0,40,0,2341.599999997765,37,1,512.2999999970198,0,0,experiment,NA,NA,0,0.1,0.9,1,0,180,4,NA
fcp-trial,221,1429415,0.0-190.0-0.0,voc_e2,11816,"[{""event"":""fullscreenenter"",""trial"":1,""time"":51566},{""event"":""blur"",""trial"":10,""time"":196799},{""event"":""focus"",""trial"":10,""time"":198841},{""event"":""fullscreenexit"",""trial"":10,""time"":208923}]",NA,NA,NA,NA,NA,2,#FA92F8,#1CD855,0,0,1,38,1,2889.699999999255,39,0,628.2000000029802,0,0,experiment,NA,NA,1,0.7,0.3,2,3,181,5,NA
fcp-trial,222,1434013,0.0-191.0-0.0,voc_e2,11816,"[{""event"":""fullscreenenter"",""trial"":1,""time"":51566},{""event"":""blur"",""trial"":10,""time"":196799},{""event"":""focus"",""trial"":10,""time"":198841},{""event"":""fullscreenexit"",""trial"":10,""time"":208923}]",NA,NA,NA,NA,NA,5,#FA92F8,#1CD855,0,0,1,40,0,2339.300000000745,39,0,751.6999999992549,0,0,experiment,NA,NA,1,0.7,0.3,2,3,182,5,NA
fcp-trial,223,1438368,0.0-192.0-0.0,voc_e2,11816,"[{""event"":""fullscreenenter"",""trial"":1,""time"":51566},{""event"":""blur"",""trial"":10,""time"":196799},{""event"":""focus"",""trial"":10,""time"":198841},{""event"":""fullscreenexit"",""trial"":10,""time"":208923}]",NA,NA,NA,NA,NA,5,#D89F1C,#3386FF,10,0,1,40,0,1926.800000000745,39,0,920.5999999977648,0,0,experiment,NA,NA,2,0.5,0.5,4,5,183,5,NA
fcp-trial,224,1443191,0.0-193.0-0.0,voc_e2,11816,"[{""event"":""fullscreenenter"",""trial"":1,""time"":51566},{""event"":""blur"",""trial"":10,""time"":196799},{""event"":""focus"",""trial"":10,""time"":198841},{""event"":""fullscreenexit"",""trial"":10,""time"":208923}]",NA,NA,NA,NA,NA,0,#741CD8,#D8271C,10,0,1,38,1,2009.5,37,1,1287.300000000745,10,1,experiment,NA,NA,0,0.9,0.1,0,1,184,5,NA
fcp-trial,225,1449631,0.0-194.0-0.0,voc_e2,11816,"[{""event"":""fullscreenenter"",""trial"":1,""time"":51566},{""event"":""blur"",""trial"":10,""time"":196799},{""event"":""focus"",""trial"":10,""time"":198841},{""event"":""fullscreenexit"",""trial"":10,""time"":208923}]",NA,NA,NA,NA,NA,4,#D8271C,#741CD8,10,10,0,40,0,4274.89999999851,37,1,655.1000000014901,10,0,experiment,NA,NA,0,0.1,0.9,1,0,185,5,NA
fcp-trial,226,1454918,0.0-195.0-0.0,voc_e2,11816,"[{""event"":""fullscreenenter"",""trial"":1,""time"":51566},{""event"":""blur"",""trial"":10,""time"":196799},{""event"":""focus"",""trial"":10,""time"":198841},{""event"":""fullscreenexit"",""trial"":10,""time"":208923}]",NA,NA,NA,NA,NA,1,#FA92F8,#1CD855,0,0,1,40,0,1562.6000000014901,37,1,2194.5,0,1,experiment,NA,NA,1,0.7,0.3,2,3,186,5,NA
fcp-trial,227,1462707,0.0-196.0-0.0,voc_e2,11816,"[{""event"":""fullscreenenter"",""trial"":1,""time"":51566},{""event"":""blur"",""trial"":10,""time"":196799},{""event"":""focus"",""trial"":10,""time"":198841},{""event"":""fullscreenexit"",""trial"":10,""time"":208923}]",NA,NA,NA,NA,NA,4,#3386FF,#D89F1C,0,0,0,40,0,5732.599999997765,39,0,546.6000000014901,0,1,experiment,NA,NA,2,0.5,0.5,5,4,187,5,NA
fcp-trial,228,1471873,0.0-197.0-0.0,voc_e2,11816,"[{""event"":""fullscreenenter"",""trial"":1,""time"":51566},{""event"":""blur"",""trial"":10,""time"":196799},{""event"":""focus"",""trial"":10,""time"":198841},{""event"":""fullscreenexit"",""trial"":10,""time"":208923}]",NA,NA,NA,NA,NA,5,#D8271C,#741CD8,0,10,0,40,0,6361.20000000298,39,0,1294,10,1,experiment,NA,NA,0,0.1,0.9,1,0,188,5,NA
fcp-trial,229,1486882,0.0-198.0-0.0,voc_e2,11816,"[{""event"":""fullscreenenter"",""trial"":1,""time"":51566},{""event"":""blur"",""trial"":10,""time"":196799},{""event"":""focus"",""trial"":10,""time"":198841},{""event"":""fullscreenexit"",""trial"":10,""time"":208923}]",NA,NA,NA,NA,NA,6,#3386FF,#D89F1C,0,10,0,null,null,null,null,null,null,NA,0,experiment,NA,NA,2,0.5,0.5,5,4,189,5,NA
fcp-trial,230,1491052,0.0-199.0-0.0,voc_e2,11816,"[{""event"":""fullscreenenter"",""trial"":1,""time"":51566},{""event"":""blur"",""trial"":10,""time"":196799},{""event"":""focus"",""trial"":10,""time"":198841},{""event"":""fullscreenexit"",""trial"":10,""time"":208923}]",NA,NA,NA,NA,NA,2,#1CD855,#FA92F8,0,0,0,40,0,1614.1000000014901,39,0,1036.4000000022352,0,1,experiment,NA,NA,1,0.3,0.7,3,2,190,5,NA
fcp-trial,231,1498746,0.0-200.0-0.0,voc_e2,11816,"[{""event"":""fullscreenenter"",""trial"":1,""time"":51566},{""event"":""blur"",""trial"":10,""time"":196799},{""event"":""focus"",""trial"":10,""time"":198841},{""event"":""fullscreenexit"",""trial"":10,""time"":208923}]",NA,NA,NA,NA,NA,6,#3386FF,#D89F1C,10,10,0,40,0,5135.300000000745,37,1,1049.4000000022352,10,0,experiment,NA,NA,2,0.5,0.5,5,4,191,5,NA
fcp-trial,232,1502258,0.0-201.0-0.0,voc_e2,11816,"[{""event"":""fullscreenenter"",""trial"":1,""time"":51566},{""event"":""blur"",""trial"":10,""time"":196799},{""event"":""focus"",""trial"":10,""time"":198841},{""event"":""fullscreenexit"",""trial"":10,""time"":208923}]",NA,NA,NA,NA,NA,5,#3386FF,#D89F1C,10,0,0,40,0,1284.0999999977648,37,1,716.5,10,0,experiment,NA,NA,2,0.5,0.5,5,4,192,5,NA
fcp-trial,233,1506354,0.0-202.0-0.0,voc_e2,11816,"[{""event"":""fullscreenenter"",""trial"":1,""time"":51566},{""event"":""blur"",""trial"":10,""time"":196799},{""event"":""focus"",""trial"":10,""time"":198841},{""event"":""fullscreenexit"",""trial"":10,""time"":208923}]",NA,NA,NA,NA,NA,4,#741CD8,#D8271C,10,0,1,40,0,1425.4000000022352,39,0,1161.5999999977648,0,0,experiment,NA,NA,0,0.9,0.1,0,1,193,5,NA
fcp-trial,234,1509590,0.0-203.0-0.0,voc_e2,11816,"[{""event"":""fullscreenenter"",""trial"":1,""time"":51566},{""event"":""blur"",""trial"":10,""time"":196799},{""event"":""focus"",""trial"":10,""time"":198841},{""event"":""fullscreenexit"",""trial"":10,""time"":208923}]",NA,NA,NA,NA,NA,0,#FA92F8,#1CD855,10,10,1,40,0,976.2999999970198,39,0,752.8000000007451,10,0,experiment,NA,NA,1,0.7,0.3,2,3,194,5,NA
fcp-trial,235,1513647,0.0-204.0-0.0,voc_e2,11816,"[{""event"":""fullscreenenter"",""trial"":1,""time"":51566},{""event"":""blur"",""trial"":10,""time"":196799},{""event"":""focus"",""trial"":10,""time"":198841},{""event"":""fullscreenexit"",""trial"":10,""time"":208923}]",NA,NA,NA,NA,NA,1,#FA92F8,#1CD855,10,10,1,40,0,1046.4000000022352,39,0,1501.300000000745,10,0,experiment,NA,NA,1,0.7,0.3,2,3,195,5,NA
fcp-trial,236,1517215,0.0-205.0-0.0,voc_e2,11816,"[{""event"":""fullscreenenter"",""trial"":1,""time"":51566},{""event"":""blur"",""trial"":10,""time"":196799},{""event"":""focus"",""trial"":10,""time"":198841},{""event"":""fullscreenexit"",""trial"":10,""time"":208923}]",NA,NA,NA,NA,NA,6,#D8271C,#741CD8,10,10,0,40,0,1167.6000000014901,39,0,890.6999999992549,10,1,experiment,NA,NA,0,0.1,0.9,1,0,196,5,NA
fcp-trial,237,1526898,0.0-206.0-0.0,voc_e2,11816,"[{""event"":""fullscreenenter"",""trial"":1,""time"":51566},{""event"":""blur"",""trial"":10,""time"":196799},{""event"":""focus"",""trial"":10,""time"":198841},{""event"":""fullscreenexit"",""trial"":10,""time"":208923}]",NA,NA,NA,NA,NA,1,#3386FF,#D89F1C,0,10,0,40,0,1443.300000000745,39,0,6731.10000000149,10,1,experiment,NA,NA,2,0.5,0.5,5,4,197,5,NA
fcp-trial,238,1531899,0.0-207.0-0.0,voc_e2,11816,"[{""event"":""fullscreenenter"",""trial"":1,""time"":51566},{""event"":""blur"",""trial"":10,""time"":196799},{""event"":""focus"",""trial"":10,""time"":198841},{""event"":""fullscreenexit"",""trial"":10,""time"":208923}]",NA,NA,NA,NA,NA,6,#1CD855,#FA92F8,10,10,0,40,0,2722.400000002235,39,0,765.8999999985099,10,1,experiment,NA,NA,1,0.3,0.7,3,2,198,5,NA
fcp-trial,239,1534819,0.0-208.0-0.0,voc_e2,11816,"[{""event"":""fullscreenenter"",""trial"":1,""time"":51566},{""event"":""blur"",""trial"":10,""time"":196799},{""event"":""focus"",""trial"":10,""time"":198841},{""event"":""fullscreenexit"",""trial"":10,""time"":208923}]",NA,NA,NA,NA,NA,3,#D8271C,#741CD8,0,10,0,40,0,615.3000000007451,37,1,784.8000000007451,0,0,experiment,NA,NA,0,0.1,0.9,1,0,199,5,NA
fcp-trial,240,1538958,0.0-209.0-0.0,voc_e2,11816,"[{""event"":""fullscreenenter"",""trial"":1,""time"":51566},{""event"":""blur"",""trial"":10,""time"":196799},{""event"":""focus"",""trial"":10,""time"":198841},{""event"":""fullscreenexit"",""trial"":10,""time"":208923}]",NA,NA,NA,NA,NA,1,#D8271C,#741CD8,0,10,0,38,1,2004.300000000745,39,0,625,10,1,experiment,NA,NA,0,0.1,0.9,1,0,200,5,NA
fcp-trial,241,1544771,0.0-210.0-0.0,voc_e2,11816,"[{""event"":""fullscreenenter"",""trial"":1,""time"":51566},{""event"":""blur"",""trial"":10,""time"":196799},{""event"":""focus"",""trial"":10,""time"":198841},{""event"":""fullscreenexit"",""trial"":10,""time"":208923}]",NA,NA,NA,NA,NA,4,#D89F1C,#3386FF,0,0,1,40,0,3138.10000000149,39,0,1149.5,0,0,experiment,NA,NA,2,0.5,0.5,4,5,201,5,NA
fcp-trial,242,1550385,0.0-211.0-0.0,voc_e2,11816,"[{""event"":""fullscreenenter"",""trial"":1,""time"":51566},{""event"":""blur"",""trial"":10,""time"":196799},{""event"":""focus"",""trial"":10,""time"":198841},{""event"":""fullscreenexit"",""trial"":10,""time"":208923}]",NA,NA,NA,NA,NA,3,#D89F1C,#3386FF,0,0,1,40,0,3430,37,1,674.8999999985099,0,1,experiment,NA,NA,2,0.5,0.5,4,5,202,5,NA
fcp-trial,243,1557176,0.0-212.0-0.0,voc_e2,11816,"[{""event"":""fullscreenenter"",""trial"":1,""time"":51566},{""event"":""blur"",""trial"":10,""time"":196799},{""event"":""focus"",""trial"":10,""time"":198841},{""event"":""fullscreenexit"",""trial"":10,""time"":208923}]",NA,NA,NA,NA,NA,3,#FA92F8,#1CD855,0,0,1,38,1,4720.599999997765,39,0,559.1000000014901,0,0,experiment,NA,NA,1,0.7,0.3,2,3,203,5,NA
fcp-trial,244,1572184,0.0-213.0-0.0,voc_e2,11816,"[{""event"":""fullscreenenter"",""trial"":1,""time"":51566},{""event"":""blur"",""trial"":10,""time"":196799},{""event"":""focus"",""trial"":10,""time"":198841},{""event"":""fullscreenexit"",""trial"":10,""time"":208923}]",NA,NA,NA,NA,NA,5,#741CD8,#D8271C,10,0,1,null,null,null,null,null,null,NA,0,experiment,NA,NA,0,0.9,0.1,0,1,204,5,NA
fcp-trial,245,1576562,0.0-214.0-0.0,voc_e2,11816,"[{""event"":""fullscreenenter"",""trial"":1,""time"":51566},{""event"":""blur"",""trial"":10,""time"":196799},{""event"":""focus"",""trial"":10,""time"":198841},{""event"":""fullscreenexit"",""trial"":10,""time"":208923}]",NA,NA,NA,NA,NA,2,#D8271C,#741CD8,0,0,0,38,1,2149.400000002235,39,0,718.6999999992549,0,1,experiment,NA,NA,0,0.1,0.9,1,0,205,5,NA
fcp-trial,246,1588947,0.0-215.0-0.0,voc_e2,11816,"[{""event"":""fullscreenenter"",""trial"":1,""time"":51566},{""event"":""blur"",""trial"":10,""time"":196799},{""event"":""focus"",""trial"":10,""time"":198841},{""event"":""fullscreenexit"",""trial"":10,""time"":208923}]",NA,NA,NA,NA,NA,0,#D8271C,#741CD8,0,10,0,38,1,5356.60000000149,37,1,5519.300000000745,0,0,experiment,NA,NA,0,0.1,0.9,1,0,206,5,NA
fcp-trial,247,1591149,0.0-216.0-0.0,voc_e2,11816,"[{""event"":""fullscreenenter"",""trial"":1,""time"":51566},{""event"":""blur"",""trial"":10,""time"":196799},{""event"":""focus"",""trial"":10,""time"":198841},{""event"":""fullscreenexit"",""trial"":10,""time"":208923}]",NA,NA,NA,NA,NA,0,#D89F1C,#3386FF,0,10,1,38,1,173.20000000298023,39,0,521.3999999985099,10,0,experiment,NA,NA,2,0.5,0.5,4,5,207,5,NA
fcp-trial,248,1594095,0.0-217.0-0.0,voc_e2,11816,"[{""event"":""fullscreenenter"",""trial"":1,""time"":51566},{""event"":""blur"",""trial"":10,""time"":196799},{""event"":""focus"",""trial"":10,""time"":198841},{""event"":""fullscreenexit"",""trial"":10,""time"":208923}]",NA,NA,NA,NA,NA,4,#FA92F8,#1CD855,10,0,1,40,0,778.1999999992549,39,0,659.4000000022352,0,0,experiment,NA,NA,1,0.7,0.3,2,3,208,5,NA
fcp-trial,249,1596906,0.0-218.0-0.0,voc_e2,11816,"[{""event"":""fullscreenenter"",""trial"":1,""time"":51566},{""event"":""blur"",""trial"":10,""time"":196799},{""event"":""focus"",""trial"":10,""time"":198841},{""event"":""fullscreenexit"",""trial"":10,""time"":208923}]",NA,NA,NA,NA,NA,5,#1CD855,#FA92F8,10,10,0,40,0,298.5,37,1,1002.1999999992549,10,0,experiment,NA,NA,1,0.3,0.7,3,2,209,5,NA
fcp-trial,250,1599572,0.0-219.0-0.0,voc_e2,11816,"[{""event"":""fullscreenenter"",""trial"":1,""time"":51566},{""event"":""blur"",""trial"":10,""time"":196799},{""event"":""focus"",""trial"":10,""time"":198841},{""event"":""fullscreenexit"",""trial"":10,""time"":208923}]",NA,NA,NA,NA,NA,2,#D89F1C,#3386FF,10,0,1,40,0,598.1999999992549,39,0,557.3000000007451,0,0,experiment,NA,NA,2,0.5,0.5,4,5,210,5,NA
audio-instructions,251,1705195,0.0-220.0,voc_e2,11816,"[{""event"":""fullscreenenter"",""trial"":1,""time"":51566},{""event"":""blur"",""trial"":10,""time"":196799},{""event"":""focus"",""trial"":10,""time"":198841},{""event"":""fullscreenexit"",""trial"":10,""time"":208923}]",NA,101128.09999999776,static/audio/pause.wav,NA,0,NA,NA,NA,NA,NA,NA,NA,NA,NA,NA,NA,NA,NA,NA,NA,NA,NA,NA,NA,NA,NA,NA,NA,NA,NA
fcp-trial,252,1710333,0.0-221.0-0.0,voc_e2,11816,"[{""event"":""fullscreenenter"",""trial"":1,""time"":51566},{""event"":""blur"",""trial"":10,""time"":196799},{""event"":""focus"",""trial"":10,""time"":198841},{""event"":""fullscreenexit"",""trial"":10,""time"":208923}]",NA,NA,NA,NA,NA,2,#D8271C,#741CD8,0,10,0,40,0,2980.199999999255,39,0,643.5,10,1,experiment,NA,NA,0,0.1,0.9,1,0,211,5,NA
fcp-trial,253,1712946,0.0-222.0-0.0,voc_e2,11816,"[{""event"":""fullscreenenter"",""trial"":1,""time"":51566},{""event"":""blur"",""trial"":10,""time"":196799},{""event"":""focus"",""trial"":10,""time"":198841},{""event"":""fullscreenexit"",""trial"":10,""time"":208923}]",NA,NA,NA,NA,NA,5,#D8271C,#741CD8,0,10,0,40,0,437.80000000074506,39,0,665.6999999992549,10,1,experiment,NA,NA,0,0.1,0.9,1,0,212,5,NA
