trial_type,trial_index,time_elapsed,internal_node_id,task_version,subject_id,interactions,success,rt,stimulus,key_press,button_pressed,offer,arcade_color_L,arcade_color_R,arcade_outcome_L,arcade_outcome_R,correct,stage_1_key,stage_1_choice,stage_1_rt,stage_2_key,stage_2_choice,stage_2_rt,stage_3_outcome,accuracy,phase,responses,num_errors,context,reward_prob_L,reward_prob_R,arcade_id_L,arcade_id_R,trial,block,response
pavlovia,0,6,0.0-0.0,voc_e2,12088,"[{""event"":""focus"",""trial"":0,""time"":0}]",NA,NA,NA,NA,NA,NA,NA,NA,NA,NA,NA,NA,NA,NA,NA,NA,NA,NA,NA,NA,NA,NA,NA,NA,NA,NA,NA,NA,NA,NA
fullscreen,1,2500,0.0-1.0,voc_e2,12088,"[{""event"":""focus"",""trial"":0,""time"":0},{""event"":""blur"",""trial"":1,""time"":1689},{""event"":""focus"",""trial"":1,""time"":1704},{""event"":""fullscreenenter"",""trial"":1,""time"":1707}]",TRUE,NA,NA,NA,NA,NA,NA,NA,NA,NA,NA,NA,NA,NA,NA,NA,NA,NA,NA,NA,NA,NA,NA,NA,NA,NA,NA,NA,NA,NA
audio-keyboard-response,2,4411,0.0-2.0,voc_e2,12088,"[{""event"":""focus"",""trial"":0,""time"":0},{""event"":""blur"",""trial"":1,""time"":1689},{""event"":""focus"",""trial"":1,""time"":1704},{""event"":""fullscreenenter"",""trial"":1,""time"":1707}]",NA,1858,static/audio/beep_loop.wav,32,NA,NA,NA,NA,NA,NA,NA,NA,NA,NA,NA,NA,NA,NA,NA,NA,NA,NA,NA,NA,NA,NA,NA,NA,NA,NA
audio-test,3,6510,0.0-3.0,voc_e2,12088,"[{""event"":""focus"",""trial"":0,""time"":0},{""event"":""blur"",""trial"":1,""time"":1689},{""event"":""focus"",""trial"":1,""time"":1704},{""event"":""fullscreenenter"",""trial"":1,""time"":1707}]",NA,NA,static/audio/turtle.wav,NA,3,NA,NA,NA,NA,NA,NA,NA,NA,NA,NA,NA,NA,NA,NA,NA,NA,NA,NA,NA,NA,NA,NA,NA,NA,NA
audio-test,4,8494,0.0-4.0,voc_e2,12088,"[{""event"":""focus"",""trial"":0,""time"":0},{""event"":""blur"",""trial"":1,""time"":1689},{""event"":""focus"",""trial"":1,""time"":1704},{""event"":""fullscreenenter"",""trial"":1,""time"":1707}]",NA,NA,static/audio/shark.wav,NA,2,NA,NA,NA,NA,NA,NA,NA,NA,NA,NA,NA,NA,NA,NA,NA,NA,NA,NA,NA,NA,NA,NA,NA,NA,NA
audio-instructions,5,16812,0.0-5.0-0.0,voc_e2,12088,"[{""event"":""focus"",""trial"":0,""time"":0},{""event"":""blur"",""trial"":1,""time"":1689},{""event"":""focus"",""trial"":1,""time"":1704},{""event"":""fullscreenenter"",""trial"":1,""time"":1707}]",NA,2519,static/audio/instructions1.wav,NA,0,NA,NA,NA,NA,NA,NA,NA,NA,NA,NA,NA,NA,NA,NA,NA,NA,NA,NA,NA,NA,NA,NA,NA,NA,NA
audio-instructions,6,31628,0.0-5.0-1.0,voc_e2,12088,"[{""event"":""focus"",""trial"":0,""time"":0},{""event"":""blur"",""trial"":1,""time"":1689},{""event"":""focus"",""trial"":1,""time"":1704},{""event"":""fullscreenenter"",""trial"":1,""time"":1707},{""event"":""blur"",""trial"":6,""time"":27133},{""event"":""focus"",""trial"":6,""time"":29055}]",NA,8060,static/audio/instructions2.wav,NA,0,NA,NA,NA,NA,NA,NA,NA,NA,NA,NA,NA,NA,NA,NA,NA,NA,NA,NA,NA,NA,NA,NA,NA,NA,NA
audio-instructions,7,37961,0.0-5.0-2.0,voc_e2,12088,"[{""event"":""focus"",""trial"":0,""time"":0},{""event"":""blur"",""trial"":1,""time"":1689},{""event"":""focus"",""trial"":1,""time"":1704},{""event"":""fullscreenenter"",""trial"":1,""time"":1707},{""event"":""blur"",""trial"":6,""time"":27133},{""event"":""focus"",""trial"":6,""time"":29055}]",NA,521,static/audio/instructions3.wav,NA,0,NA,NA,NA,NA,NA,NA,NA,NA,NA,NA,NA,NA,NA,NA,NA,NA,NA,NA,NA,NA,NA,NA,NA,NA,NA
audio-instructions,8,51896,0.0-5.0-3.0,voc_e2,12088,"[{""event"":""focus"",""trial"":0,""time"":0},{""event"":""blur"",""trial"":1,""time"":1689},{""event"":""focus"",""trial"":1,""time"":1704},{""event"":""fullscreenenter"",""trial"":1,""time"":1707},{""event"":""blur"",""trial"":6,""time"":27133},{""event"":""focus"",""trial"":6,""time"":29055}]",NA,684,static/audio/instructions4.wav,NA,0,NA,NA,NA,NA,NA,NA,NA,NA,NA,NA,NA,NA,NA,NA,NA,NA,NA,NA,NA,NA,NA,NA,NA,NA,NA
audio-instructions,9,62163,0.0-5.0-4.0,voc_e2,12088,"[{""event"":""focus"",""trial"":0,""time"":0},{""event"":""blur"",""trial"":1,""time"":1689},{""event"":""focus"",""trial"":1,""time"":1704},{""event"":""fullscreenenter"",""trial"":1,""time"":1707},{""event"":""blur"",""trial"":6,""time"":27133},{""event"":""focus"",""trial"":6,""time"":29055}]",NA,864,static/audio/instructions5.wav,NA,0,NA,NA,NA,NA,NA,NA,NA,NA,NA,NA,NA,NA,NA,NA,NA,NA,NA,NA,NA,NA,NA,NA,NA,NA,NA
fcp-practice,10,64377,0.0-5.0-5.0-0.0,voc_e2,12088,"[{""event"":""focus"",""trial"":0,""time"":0},{""event"":""blur"",""trial"":1,""time"":1689},{""event"":""focus"",""trial"":1,""time"":1704},{""event"":""fullscreenenter"",""trial"":1,""time"":1707},{""event"":""blur"",""trial"":6,""time"":27133},{""event"":""focus"",""trial"":6,""time"":29055}]",NA,NA,NA,NA,NA,NA,#EDC948,#46d3c8,10,0,1,null,null,null,37,1,708,10,1,practice,NA,NA,NA,NA,NA,NA,NA,NA,NA,NA
fcp-practice,11,66420,0.0-5.0-5.0-1.0,voc_e2,12088,"[{""event"":""focus"",""trial"":0,""time"":0},{""event"":""blur"",""trial"":1,""time"":1689},{""event"":""focus"",""trial"":1,""time"":1704},{""event"":""fullscreenenter"",""trial"":1,""time"":1707},{""event"":""blur"",""trial"":6,""time"":27133},{""event"":""focus"",""trial"":6,""time"":29055}]",NA,NA,NA,NA,NA,NA,#EDC948,#46d3c8,10,0,1,null,null,null,37,1,539,10,1,practice,NA,NA,NA,NA,NA,NA,NA,NA,NA,NA
fcp-practice,12,68340,0.0-5.0-5.0-2.0,voc_e2,12088,"[{""event"":""focus"",""trial"":0,""time"":0},{""event"":""blur"",""trial"":1,""time"":1689},{""event"":""focus"",""trial"":1,""time"":1704},{""event"":""fullscreenenter"",""trial"":1,""time"":1707},{""event"":""blur"",""trial"":6,""time"":27133},{""event"":""focus"",""trial"":6,""time"":29055}]",NA,NA,NA,NA,NA,NA,#EDC948,#46d3c8,0,10,1,null,null,null,37,1,410,0,1,practice,NA,NA,NA,NA,NA,NA,NA,NA,NA,NA
fcp-practice,13,70222,0.0-5.0-5.0-3.0,voc_e2,12088,"[{""event"":""focus"",""trial"":0,""time"":0},{""event"":""blur"",""trial"":1,""time"":1689},{""event"":""focus"",""trial"":1,""time"":1704},{""event"":""fullscreenenter"",""trial"":1,""time"":1707},{""event"":""blur"",""trial"":6,""time"":27133},{""event"":""focus"",""trial"":6,""time"":29055}]",NA,NA,NA,NA,NA,NA,#EDC948,#46d3c8,10,0,1,null,null,null,37,1,372,10,1,practice,NA,NA,NA,NA,NA,NA,NA,NA,NA,NA
fcp-practice,14,72116,0.0-5.0-5.0-4.0,voc_e2,12088,"[{""event"":""focus"",""trial"":0,""time"":0},{""event"":""blur"",""trial"":1,""time"":1689},{""event"":""focus"",""trial"":1,""time"":1704},{""event"":""fullscreenenter"",""trial"":1,""time"":1707},{""event"":""blur"",""trial"":6,""time"":27133},{""event"":""focus"",""trial"":6,""time"":29055}]",NA,NA,NA,NA,NA,NA,#EDC948,#46d3c8,10,0,1,null,null,null,37,1,387,10,1,practice,NA,NA,NA,NA,NA,NA,NA,NA,NA,NA
audio-instructions,15,94131,0.0-5.0-6.0,voc_e2,12088,"[{""event"":""focus"",""trial"":0,""time"":0},{""event"":""blur"",""trial"":1,""time"":1689},{""event"":""focus"",""trial"":1,""time"":1704},{""event"":""fullscreenenter"",""trial"":1,""time"":1707},{""event"":""blur"",""trial"":6,""time"":27133},{""event"":""focus"",""trial"":6,""time"":29055}]",NA,4003,static/audio/instructions6.wav,NA,0,NA,NA,NA,NA,NA,NA,NA,NA,NA,NA,NA,NA,NA,NA,NA,NA,NA,NA,NA,NA,NA,NA,NA,NA,NA
audio-instructions,16,114731,0.0-5.0-7.0,voc_e2,12088,"[{""event"":""focus"",""trial"":0,""time"":0},{""event"":""blur"",""trial"":1,""time"":1689},{""event"":""focus"",""trial"":1,""time"":1704},{""event"":""fullscreenenter"",""trial"":1,""time"":1707},{""event"":""blur"",""trial"":6,""time"":27133},{""event"":""focus"",""trial"":6,""time"":29055}]",NA,1385,static/audio/instructions7.wav,NA,0,NA,NA,NA,NA,NA,NA,NA,NA,NA,NA,NA,NA,NA,NA,NA,NA,NA,NA,NA,NA,NA,NA,NA,NA,NA
audio-instructions,17,125648,0.0-5.0-8.0,voc_e2,12088,"[{""event"":""focus"",""trial"":0,""time"":0},{""event"":""blur"",""trial"":1,""time"":1689},{""event"":""focus"",""trial"":1,""time"":1704},{""event"":""fullscreenenter"",""trial"":1,""time"":1707},{""event"":""blur"",""trial"":6,""time"":27133},{""event"":""focus"",""trial"":6,""time"":29055}]",NA,1435,static/audio/instructions8.wav,NA,0,NA,NA,NA,NA,NA,NA,NA,NA,NA,NA,NA,NA,NA,NA,NA,NA,NA,NA,NA,NA,NA,NA,NA,NA,NA
fcp-comprehension,18,133393,0.0-5.0-9.0,voc_e2,12088,"[{""event"":""focus"",""trial"":0,""time"":0},{""event"":""blur"",""trial"":1,""time"":1689},{""event"":""focus"",""trial"":1,""time"":1704},{""event"":""fullscreenenter"",""trial"":1,""time"":1707},{""event"":""blur"",""trial"":6,""time"":27133},{""event"":""focus"",""trial"":6,""time"":29055}]",NA,7742,NA,NA,NA,NA,NA,NA,NA,NA,NA,NA,NA,NA,NA,NA,NA,NA,NA,NA,"false,true",1,NA,NA,NA,NA,NA,NA,NA,NA
audio-instructions,19,139015,0.0-5.1-0.1,voc_e2,12088,"[{""event"":""focus"",""trial"":0,""time"":0},{""event"":""blur"",""trial"":1,""time"":1689},{""event"":""focus"",""trial"":1,""time"":1704},{""event"":""fullscreenenter"",""trial"":1,""time"":1707},{""event"":""blur"",""trial"":6,""time"":27133},{""event"":""focus"",""trial"":6,""time"":29055}]",NA,835,static/audio/instructions1.wav,NA,0,NA,NA,NA,NA,NA,NA,NA,NA,NA,NA,NA,NA,NA,NA,NA,NA,NA,NA,NA,NA,NA,NA,NA,NA,NA
audio-instructions,20,147712,0.0-5.1-1.1,voc_e2,12088,"[{""event"":""focus"",""trial"":0,""time"":0},{""event"":""blur"",""trial"":1,""time"":1689},{""event"":""focus"",""trial"":1,""time"":1704},{""event"":""fullscreenenter"",""trial"":1,""time"":1707},{""event"":""blur"",""trial"":6,""time"":27133},{""event"":""focus"",""trial"":6,""time"":29055}]",NA,1939,static/audio/instructions2.wav,NA,0,NA,NA,NA,NA,NA,NA,NA,NA,NA,NA,NA,NA,NA,NA,NA,NA,NA,NA,NA,NA,NA,NA,NA,NA,NA
audio-instructions,21,154066,0.0-5.1-2.1,voc_e2,12088,"[{""event"":""focus"",""trial"":0,""time"":0},{""event"":""blur"",""trial"":1,""time"":1689},{""event"":""focus"",""trial"":1,""time"":1704},{""event"":""fullscreenenter"",""trial"":1,""time"":1707},{""event"":""blur"",""trial"":6,""time"":27133},{""event"":""focus"",""trial"":6,""time"":29055}]",NA,537,static/audio/instructions3.wav,NA,0,NA,NA,NA,NA,NA,NA,NA,NA,NA,NA,NA,NA,NA,NA,NA,NA,NA,NA,NA,NA,NA,NA,NA,NA,NA
audio-instructions,22,167999,0.0-5.1-3.1,voc_e2,12088,"[{""event"":""focus"",""trial"":0,""time"":0},{""event"":""blur"",""trial"":1,""time"":1689},{""event"":""focus"",""trial"":1,""time"":1704},{""event"":""fullscreenenter"",""trial"":1,""time"":1707},{""event"":""blur"",""trial"":6,""time"":27133},{""event"":""focus"",""trial"":6,""time"":29055}]",NA,690,static/audio/instructions4.wav,NA,0,NA,NA,NA,NA,NA,NA,NA,NA,NA,NA,NA,NA,NA,NA,NA,NA,NA,NA,NA,NA,NA,NA,NA,NA,NA
audio-instructions,23,177900,0.0-5.1-4.1,voc_e2,12088,"[{""event"":""focus"",""trial"":0,""time"":0},{""event"":""blur"",""trial"":1,""time"":1689},{""event"":""focus"",""trial"":1,""time"":1704},{""event"":""fullscreenenter"",""trial"":1,""time"":1707},{""event"":""blur"",""trial"":6,""time"":27133},{""event"":""focus"",""trial"":6,""time"":29055}]",NA,501,static/audio/instructions5.wav,NA,0,NA,NA,NA,NA,NA,NA,NA,NA,NA,NA,NA,NA,NA,NA,NA,NA,NA,NA,NA,NA,NA,NA,NA,NA,NA
fcp-practice,24,180115,0.0-5.1-5.1-0.1,voc_e2,12088,"[{""event"":""focus"",""trial"":0,""time"":0},{""event"":""blur"",""trial"":1,""time"":1689},{""event"":""focus"",""trial"":1,""time"":1704},{""event"":""fullscreenenter"",""trial"":1,""time"":1707},{""event"":""blur"",""trial"":6,""time"":27133},{""event"":""focus"",""trial"":6,""time"":29055}]",NA,NA,NA,NA,NA,NA,#EDC948,#46d3c8,10,0,1,null,null,null,37,1,711,10,1,practice,NA,NA,NA,NA,NA,NA,NA,NA,NA,NA
fcp-practice,25,181955,0.0-5.1-5.1-1.1,voc_e2,12088,"[{""event"":""focus"",""trial"":0,""time"":0},{""event"":""blur"",""trial"":1,""time"":1689},{""event"":""focus"",""trial"":1,""time"":1704},{""event"":""fullscreenenter"",""trial"":1,""time"":1707},{""event"":""blur"",""trial"":6,""time"":27133},{""event"":""focus"",""trial"":6,""time"":29055}]",NA,NA,NA,NA,NA,NA,#EDC948,#46d3c8,10,0,1,null,null,null,37,1,332,10,1,practice,NA,NA,NA,NA,NA,NA,NA,NA,NA,NA
fcp-practice,26,183798,0.0-5.1-5.1-2.1,voc_e2,12088,"[{""event"":""focus"",""trial"":0,""time"":0},{""event"":""blur"",""trial"":1,""time"":1689},{""event"":""focus"",""trial"":1,""time"":1704},{""event"":""fullscreenenter"",""trial"":1,""time"":1707},{""event"":""blur"",""trial"":6,""time"":27133},{""event"":""focus"",""trial"":6,""time"":29055}]",NA,NA,NA,NA,NA,NA,#EDC948,#46d3c8,0,10,1,null,null,null,37,1,338,0,1,practice,NA,NA,NA,NA,NA,NA,NA,NA,NA,NA
fcp-practice,27,185630,0.0-5.1-5.1-3.1,voc_e2,12088,"[{""event"":""focus"",""trial"":0,""time"":0},{""event"":""blur"",""trial"":1,""time"":1689},{""event"":""focus"",""trial"":1,""time"":1704},{""event"":""fullscreenenter"",""trial"":1,""time"":1707},{""event"":""blur"",""trial"":6,""time"":27133},{""event"":""focus"",""trial"":6,""time"":29055}]",NA,NA,NA,NA,NA,NA,#EDC948,#46d3c8,10,0,1,null,null,null,37,1,324,10,1,practice,NA,NA,NA,NA,NA,NA,NA,NA,NA,NA
fcp-practice,28,187320,0.0-5.1-5.1-4.1,voc_e2,12088,"[{""event"":""focus"",""trial"":0,""time"":0},{""event"":""blur"",""trial"":1,""time"":1689},{""event"":""focus"",""trial"":1,""time"":1704},{""event"":""fullscreenenter"",""trial"":1,""time"":1707},{""event"":""blur"",""trial"":6,""time"":27133},{""event"":""focus"",""trial"":6,""time"":29055}]",NA,NA,NA,NA,NA,NA,#EDC948,#46d3c8,10,0,1,null,null,null,37,1,180,10,1,practice,NA,NA,NA,NA,NA,NA,NA,NA,NA,NA
audio-instructions,29,211451,0.0-5.1-6.1,voc_e2,12088,"[{""event"":""focus"",""trial"":0,""time"":0},{""event"":""blur"",""trial"":1,""time"":1689},{""event"":""focus"",""trial"":1,""time"":1704},{""event"":""fullscreenenter"",""trial"":1,""time"":1707},{""event"":""blur"",""trial"":6,""time"":27133},{""event"":""focus"",""trial"":6,""time"":29055}]",NA,6121,static/audio/instructions6.wav,NA,0,NA,NA,NA,NA,NA,NA,NA,NA,NA,NA,NA,NA,NA,NA,NA,NA,NA,NA,NA,NA,NA,NA,NA,NA,NA
audio-instructions,30,232652,0.0-5.1-7.1,voc_e2,12088,"[{""event"":""focus"",""trial"":0,""time"":0},{""event"":""blur"",""trial"":1,""time"":1689},{""event"":""focus"",""trial"":1,""time"":1704},{""event"":""fullscreenenter"",""trial"":1,""time"":1707},{""event"":""blur"",""trial"":6,""time"":27133},{""event"":""focus"",""trial"":6,""time"":29055}]",NA,1988,static/audio/instructions7.wav,NA,0,NA,NA,NA,NA,NA,NA,NA,NA,NA,NA,NA,NA,NA,NA,NA,NA,NA,NA,NA,NA,NA,NA,NA,NA,NA
audio-instructions,31,243218,0.0-5.1-8.1,voc_e2,12088,"[{""event"":""focus"",""trial"":0,""time"":0},{""event"":""blur"",""trial"":1,""time"":1689},{""event"":""focus"",""trial"":1,""time"":1704},{""event"":""fullscreenenter"",""trial"":1,""time"":1707},{""event"":""blur"",""trial"":6,""time"":27133},{""event"":""focus"",""trial"":6,""time"":29055}]",NA,1083,static/audio/instructions8.wav,NA,0,NA,NA,NA,NA,NA,NA,NA,NA,NA,NA,NA,NA,NA,NA,NA,NA,NA,NA,NA,NA,NA,NA,NA,NA,NA
fcp-comprehension,32,254887,0.0-5.1-9.1,voc_e2,12088,"[{""event"":""focus"",""trial"":0,""time"":0},{""event"":""blur"",""trial"":1,""time"":1689},{""event"":""focus"",""trial"":1,""time"":1704},{""event"":""fullscreenenter"",""trial"":1,""time"":1707},{""event"":""blur"",""trial"":6,""time"":27133},{""event"":""focus"",""trial"":6,""time"":29055}]",NA,11666,NA,NA,NA,NA,NA,NA,NA,NA,NA,NA,NA,NA,NA,NA,NA,NA,NA,NA,"true,true",0,NA,NA,NA,NA,NA,NA,NA,NA
audio-instructions,33,261270,0.0-6.0-0.0,voc_e2,12088,"[{""event"":""focus"",""trial"":0,""time"":0},{""event"":""blur"",""trial"":1,""time"":1689},{""event"":""focus"",""trial"":1,""time"":1704},{""event"":""fullscreenenter"",""trial"":1,""time"":1707},{""event"":""blur"",""trial"":6,""time"":27133},{""event"":""focus"",""trial"":6,""time"":29055}]",NA,827,static/audio/instructions9.wav,NA,0,NA,NA,NA,NA,NA,NA,NA,NA,NA,NA,NA,NA,NA,NA,NA,NA,NA,NA,NA,NA,NA,NA,NA,NA,NA
audio-instructions,34,274120,0.0-6.0-1.0,voc_e2,12088,"[{""event"":""focus"",""trial"":0,""time"":0},{""event"":""blur"",""trial"":1,""time"":1689},{""event"":""focus"",""trial"":1,""time"":1704},{""event"":""fullscreenenter"",""trial"":1,""time"":1707},{""event"":""blur"",""trial"":6,""time"":27133},{""event"":""focus"",""trial"":6,""time"":29055}]",NA,721,static/audio/instructions10.wav,NA,0,NA,NA,NA,NA,NA,NA,NA,NA,NA,NA,NA,NA,NA,NA,NA,NA,NA,NA,NA,NA,NA,NA,NA,NA,NA
fcp-trial,35,282401,0.0-6.0-2.0,voc_e2,12088,"[{""event"":""focus"",""trial"":0,""time"":0},{""event"":""blur"",""trial"":1,""time"":1689},{""event"":""focus"",""trial"":1,""time"":1704},{""event"":""fullscreenenter"",""trial"":1,""time"":1707},{""event"":""blur"",""trial"":6,""time"":27133},{""event"":""focus"",""trial"":6,""time"":29055}]",NA,NA,NA,NA,NA,0,#EDC948,#46d3c8,10,10,1,38,1,3921,37,1,2845,10,1,practice,NA,NA,NA,NA,NA,NA,NA,NA,NA,NA
audio-instructions,36,299320,0.0-6.0-3.0,voc_e2,12088,"[{""event"":""focus"",""trial"":0,""time"":0},{""event"":""blur"",""trial"":1,""time"":1689},{""event"":""focus"",""trial"":1,""time"":1704},{""event"":""fullscreenenter"",""trial"":1,""time"":1707},{""event"":""blur"",""trial"":6,""time"":27133},{""event"":""focus"",""trial"":6,""time"":29055}]",NA,5893,static/audio/instructions11.wav,NA,0,NA,NA,NA,NA,NA,NA,NA,NA,NA,NA,NA,NA,NA,NA,NA,NA,NA,NA,NA,NA,NA,NA,NA,NA,NA
fcp-trial,37,303826,0.0-6.0-4.0,voc_e2,12088,"[{""event"":""focus"",""trial"":0,""time"":0},{""event"":""blur"",""trial"":1,""time"":1689},{""event"":""focus"",""trial"":1,""time"":1704},{""event"":""fullscreenenter"",""trial"":1,""time"":1707},{""event"":""blur"",""trial"":6,""time"":27133},{""event"":""focus"",""trial"":6,""time"":29055}]",NA,NA,NA,NA,NA,6,#EDC948,#46d3c8,10,10,1,40,0,1675,37,1,1320,10,1,practice,NA,NA,NA,NA,NA,NA,NA,NA,NA,NA
audio-instructions,38,326972,0.0-6.0-5.0,voc_e2,12088,"[{""event"":""focus"",""trial"":0,""time"":0},{""event"":""blur"",""trial"":1,""time"":1689},{""event"":""focus"",""trial"":1,""time"":1704},{""event"":""fullscreenenter"",""trial"":1,""time"":1707},{""event"":""blur"",""trial"":6,""time"":27133},{""event"":""focus"",""trial"":6,""time"":29055}]",NA,4438,static/audio/instructions12.wav,NA,0,NA,NA,NA,NA,NA,NA,NA,NA,NA,NA,NA,NA,NA,NA,NA,NA,NA,NA,NA,NA,NA,NA,NA,NA,NA
audio-instructions,39,352256,0.0-6.0-6.0,voc_e2,12088,"[{""event"":""focus"",""trial"":0,""time"":0},{""event"":""blur"",""trial"":1,""time"":1689},{""event"":""focus"",""trial"":1,""time"":1704},{""event"":""fullscreenenter"",""trial"":1,""time"":1707},{""event"":""blur"",""trial"":6,""time"":27133},{""event"":""focus"",""trial"":6,""time"":29055}]",NA,17673,static/audio/instructions13.wav,NA,0,NA,NA,NA,NA,NA,NA,NA,NA,NA,NA,NA,NA,NA,NA,NA,NA,NA,NA,NA,NA,NA,NA,NA,NA,NA
audio-instructions,40,361173,0.0-6.0-7.0,voc_e2,12088,"[{""event"":""focus"",""trial"":0,""time"":0},{""event"":""blur"",""trial"":1,""time"":1689},{""event"":""focus"",""trial"":1,""time"":1704},{""event"":""fullscreenenter"",""trial"":1,""time"":1707},{""event"":""blur"",""trial"":6,""time"":27133},{""event"":""focus"",""trial"":6,""time"":29055}]",NA,455,static/audio/instructions14.wav,NA,0,NA,NA,NA,NA,NA,NA,NA,NA,NA,NA,NA,NA,NA,NA,NA,NA,NA,NA,NA,NA,NA,NA,NA,NA,NA
audio-instructions,41,368439,0.0-7.0-0.0,voc_e2,12088,"[{""event"":""focus"",""trial"":0,""time"":0},{""event"":""blur"",""trial"":1,""time"":1689},{""event"":""focus"",""trial"":1,""time"":1704},{""event"":""fullscreenenter"",""trial"":1,""time"":1707},{""event"":""blur"",""trial"":6,""time"":27133},{""event"":""focus"",""trial"":6,""time"":29055}]",NA,339,static/audio/instructions15.wav,NA,0,NA,NA,NA,NA,NA,NA,NA,NA,NA,NA,NA,NA,NA,NA,NA,NA,NA,NA,NA,NA,NA,NA,NA,NA,NA
audio-instructions,42,383940,0.0-7.0-1.0,voc_e2,12088,"[{""event"":""focus"",""trial"":0,""time"":0},{""event"":""blur"",""trial"":1,""time"":1689},{""event"":""focus"",""trial"":1,""time"":1704},{""event"":""fullscreenenter"",""trial"":1,""time"":1707},{""event"":""blur"",""trial"":6,""time"":27133},{""event"":""focus"",""trial"":6,""time"":29055}]",NA,8664,static/audio/instructions16.wav,NA,0,NA,NA,NA,NA,NA,NA,NA,NA,NA,NA,NA,NA,NA,NA,NA,NA,NA,NA,NA,NA,NA,NA,NA,NA,NA
audio-instructions,43,392040,0.0-7.0-2.0,voc_e2,12088,"[{""event"":""focus"",""trial"":0,""time"":0},{""event"":""blur"",""trial"":1,""time"":1689},{""event"":""focus"",""trial"":1,""time"":1704},{""event"":""fullscreenenter"",""trial"":1,""time"":1707},{""event"":""blur"",""trial"":6,""time"":27133},{""event"":""focus"",""trial"":6,""time"":29055}]",NA,407,static/audio/instructions17.wav,NA,0,NA,NA,NA,NA,NA,NA,NA,NA,NA,NA,NA,NA,NA,NA,NA,NA,NA,NA,NA,NA,NA,NA,NA,NA,NA
audio-instructions,44,400291,0.0-7.0-3.0,voc_e2,12088,"[{""event"":""focus"",""trial"":0,""time"":0},{""event"":""blur"",""trial"":1,""time"":1689},{""event"":""focus"",""trial"":1,""time"":1704},{""event"":""fullscreenenter"",""trial"":1,""time"":1707},{""event"":""blur"",""trial"":6,""time"":27133},{""event"":""focus"",""trial"":6,""time"":29055}]",NA,472,static/audio/instructions18.wav,NA,0,NA,NA,NA,NA,NA,NA,NA,NA,NA,NA,NA,NA,NA,NA,NA,NA,NA,NA,NA,NA,NA,NA,NA,NA,NA
audio-instructions,45,407774,0.0-7.0-4.0,voc_e2,12088,"[{""event"":""focus"",""trial"":0,""time"":0},{""event"":""blur"",""trial"":1,""time"":1689},{""event"":""focus"",""trial"":1,""time"":1704},{""event"":""fullscreenenter"",""trial"":1,""time"":1707},{""event"":""blur"",""trial"":6,""time"":27133},{""event"":""focus"",""trial"":6,""time"":29055}]",NA,734,static/audio/instructions19.wav,NA,0,NA,NA,NA,NA,NA,NA,NA,NA,NA,NA,NA,NA,NA,NA,NA,NA,NA,NA,NA,NA,NA,NA,NA,NA,NA
fcp-comprehension,46,421975,0.0-7.0-5.0,voc_e2,12088,"[{""event"":""focus"",""trial"":0,""time"":0},{""event"":""blur"",""trial"":1,""time"":1689},{""event"":""focus"",""trial"":1,""time"":1704},{""event"":""fullscreenenter"",""trial"":1,""time"":1707},{""event"":""blur"",""trial"":6,""time"":27133},{""event"":""focus"",""trial"":6,""time"":29055}]",NA,14199,NA,NA,NA,NA,NA,NA,NA,NA,NA,NA,NA,NA,NA,NA,NA,NA,NA,NA,"false,false,false,true",0,NA,NA,NA,NA,NA,NA,NA,NA
audio-instructions,47,433175,0.0-8.0,voc_e2,12088,"[{""event"":""focus"",""trial"":0,""time"":0},{""event"":""blur"",""trial"":1,""time"":1689},{""event"":""focus"",""trial"":1,""time"":1704},{""event"":""fullscreenenter"",""trial"":1,""time"":1707},{""event"":""blur"",""trial"":6,""time"":27133},{""event"":""focus"",""trial"":6,""time"":29055}]",NA,1975,static/audio/ready.wav,NA,0,NA,NA,NA,NA,NA,NA,NA,NA,NA,NA,NA,NA,NA,NA,NA,NA,NA,NA,NA,NA,NA,NA,NA,NA,NA
fcp-trial,48,438699,0.0-9.0-0.0,voc_e2,12088,"[{""event"":""focus"",""trial"":0,""time"":0},{""event"":""blur"",""trial"":1,""time"":1689},{""event"":""focus"",""trial"":1,""time"":1704},{""event"":""fullscreenenter"",""trial"":1,""time"":1707},{""event"":""blur"",""trial"":6,""time"":27133},{""event"":""focus"",""trial"":6,""time"":29055}]",NA,NA,NA,NA,NA,2,#FA92F8,#1CD855,10,10,1,40,0,2319,39,0,1693,10,0,experiment,NA,NA,2,0.5,0.5,4,5,1,1,NA
fcp-trial,49,443821,0.0-10.0-0.0,voc_e2,12088,"[{""event"":""focus"",""trial"":0,""time"":0},{""event"":""blur"",""trial"":1,""time"":1689},{""event"":""focus"",""trial"":1,""time"":1704},{""event"":""fullscreenenter"",""trial"":1,""time"":1707},{""event"":""blur"",""trial"":6,""time"":27133},{""event"":""focus"",""trial"":6,""time"":29055}]",NA,NA,NA,NA,NA,5,#741CD8,#D8271C,0,0,0,40,0,2398,39,0,1216,0,1,experiment,NA,NA,0,0.1,0.9,1,0,2,1,NA
fcp-trial,50,450131,0.0-11.0-0.0,voc_e2,12088,"[{""event"":""focus"",""trial"":0,""time"":0},{""event"":""blur"",""trial"":1,""time"":1689},{""event"":""focus"",""trial"":1,""time"":1704},{""event"":""fullscreenenter"",""trial"":1,""time"":1707},{""event"":""blur"",""trial"":6,""time"":27133},{""event"":""focus"",""trial"":6,""time"":29055}]",NA,NA,NA,NA,NA,0,#3386FF,#D89F1C,0,0,1,40,0,4031,39,0,768,0,0,experiment,NA,NA,1,0.7,0.3,2,3,3,1,NA
fcp-trial,51,455370,0.0-12.0-0.0,voc_e2,12088,"[{""event"":""focus"",""trial"":0,""time"":0},{""event"":""blur"",""trial"":1,""time"":1689},{""event"":""focus"",""trial"":1,""time"":1704},{""event"":""fullscreenenter"",""trial"":1,""time"":1707},{""event"":""blur"",""trial"":6,""time"":27133},{""event"":""focus"",""trial"":6,""time"":29055}]",NA,NA,NA,NA,NA,1,#3386FF,#D89F1C,0,0,1,38,1,2948,37,1,780,0,1,experiment,NA,NA,1,0.7,0.3,2,3,4,1,NA
fcp-trial,52,460694,0.0-13.0-0.0,voc_e2,12088,"[{""event"":""focus"",""trial"":0,""time"":0},{""event"":""blur"",""trial"":1,""time"":1689},{""event"":""focus"",""trial"":1,""time"":1704},{""event"":""fullscreenenter"",""trial"":1,""time"":1707},{""event"":""blur"",""trial"":6,""time"":27133},{""event"":""focus"",""trial"":6,""time"":29055}]",NA,NA,NA,NA,NA,1,#1CD855,#FA92F8,10,10,0,38,1,2941,39,0,872,10,1,experiment,NA,NA,2,0.5,0.5,5,4,5,1,NA
fcp-trial,53,464182,0.0-14.0-0.0,voc_e2,12088,"[{""event"":""focus"",""trial"":0,""time"":0},{""event"":""blur"",""trial"":1,""time"":1689},{""event"":""focus"",""trial"":1,""time"":1704},{""event"":""fullscreenenter"",""trial"":1,""time"":1707},{""event"":""blur"",""trial"":6,""time"":27133},{""event"":""focus"",""trial"":6,""time"":29055}]",NA,NA,NA,NA,NA,5,#FA92F8,#1CD855,10,0,1,40,0,1225,39,0,753,0,0,experiment,NA,NA,2,0.5,0.5,4,5,6,1,NA
fcp-trial,54,468157,0.0-15.0-0.0,voc_e2,12088,"[{""event"":""focus"",""trial"":0,""time"":0},{""event"":""blur"",""trial"":1,""time"":1689},{""event"":""focus"",""trial"":1,""time"":1704},{""event"":""fullscreenenter"",""trial"":1,""time"":1707},{""event"":""blur"",""trial"":6,""time"":27133},{""event"":""focus"",""trial"":6,""time"":29055}]",NA,NA,NA,NA,NA,3,#741CD8,#D8271C,0,10,0,40,0,1638,39,0,782,10,1,experiment,NA,NA,0,0.1,0.9,1,0,7,1,NA
fcp-trial,55,473371,0.0-16.0-0.0,voc_e2,12088,"[{""event"":""focus"",""trial"":0,""time"":0},{""event"":""blur"",""trial"":1,""time"":1689},{""event"":""focus"",""trial"":1,""time"":1704},{""event"":""fullscreenenter"",""trial"":1,""time"":1707},{""event"":""blur"",""trial"":6,""time"":27133},{""event"":""focus"",""trial"":6,""time"":29055}]",NA,NA,NA,NA,NA,0,#D8271C,#741CD8,10,0,1,38,1,3179,37,1,523,10,1,experiment,NA,NA,0,0.9,0.1,0,1,8,1,NA
fcp-trial,56,479194,0.0-17.0-0.0,voc_e2,12088,"[{""event"":""focus"",""trial"":0,""time"":0},{""event"":""blur"",""trial"":1,""time"":1689},{""event"":""focus"",""trial"":1,""time"":1704},{""event"":""fullscreenenter"",""trial"":1,""time"":1707},{""event"":""blur"",""trial"":6,""time"":27133},{""event"":""focus"",""trial"":6,""time"":29055}]",NA,NA,NA,NA,NA,2,#D89F1C,#3386FF,0,10,0,40,0,2939,39,0,1371,10,1,experiment,NA,NA,1,0.3,0.7,3,2,9,1,NA
fcp-trial,57,484849,0.0-18.0-0.0,voc_e2,12088,"[{""event"":""focus"",""trial"":0,""time"":0},{""event"":""blur"",""trial"":1,""time"":1689},{""event"":""focus"",""trial"":1,""time"":1704},{""event"":""fullscreenenter"",""trial"":1,""time"":1707},{""event"":""blur"",""trial"":6,""time"":27133},{""event"":""focus"",""trial"":6,""time"":29055}]",NA,NA,NA,NA,NA,1,#D8271C,#741CD8,10,0,1,38,1,3169,37,1,975,10,1,experiment,NA,NA,0,0.9,0.1,0,1,10,1,NA
fcp-trial,58,489187,0.0-19.0-0.0,voc_e2,12088,"[{""event"":""focus"",""trial"":0,""time"":0},{""event"":""blur"",""trial"":1,""time"":1689},{""event"":""focus"",""trial"":1,""time"":1704},{""event"":""fullscreenenter"",""trial"":1,""time"":1707},{""event"":""blur"",""trial"":6,""time"":27133},{""event"":""focus"",""trial"":6,""time"":29055}]",NA,NA,NA,NA,NA,0,#1CD855,#FA92F8,10,10,0,38,1,2321,37,1,507,10,0,experiment,NA,NA,2,0.5,0.5,5,4,11,1,NA
fcp-trial,59,494481,0.0-20.0-0.0,voc_e2,12088,"[{""event"":""focus"",""trial"":0,""time"":0},{""event"":""blur"",""trial"":1,""time"":1689},{""event"":""focus"",""trial"":1,""time"":1704},{""event"":""fullscreenenter"",""trial"":1,""time"":1707},{""event"":""blur"",""trial"":6,""time"":27133},{""event"":""focus"",""trial"":6,""time"":29055}]",NA,NA,NA,NA,NA,4,#D89F1C,#3386FF,0,0,0,40,0,3272,39,0,511,0,1,experiment,NA,NA,1,0.3,0.7,3,2,12,1,NA
fcp-trial,60,497829,0.0-21.0-0.0,voc_e2,12088,"[{""event"":""focus"",""trial"":0,""time"":0},{""event"":""blur"",""trial"":1,""time"":1689},{""event"":""focus"",""trial"":1,""time"":1704},{""event"":""fullscreenenter"",""trial"":1,""time"":1707},{""event"":""blur"",""trial"":6,""time"":27133},{""event"":""focus"",""trial"":6,""time"":29055}]",NA,NA,NA,NA,NA,5,#D89F1C,#3386FF,0,0,0,40,0,1298,39,0,544,0,1,experiment,NA,NA,1,0.3,0.7,3,2,13,1,NA
fcp-trial,61,504545,0.0-22.0-0.0,voc_e2,12088,"[{""event"":""focus"",""trial"":0,""time"":0},{""event"":""blur"",""trial"":1,""time"":1689},{""event"":""focus"",""trial"":1,""time"":1704},{""event"":""fullscreenenter"",""trial"":1,""time"":1707},{""event"":""blur"",""trial"":6,""time"":27133},{""event"":""focus"",""trial"":6,""time"":29055}]",NA,NA,NA,NA,NA,2,#D8271C,#741CD8,10,0,1,38,1,4743,37,1,469,10,1,experiment,NA,NA,0,0.9,0.1,0,1,14,1,NA
fcp-trial,62,509591,0.0-23.0-0.0,voc_e2,12088,"[{""event"":""focus"",""trial"":0,""time"":0},{""event"":""blur"",""trial"":1,""time"":1689},{""event"":""focus"",""trial"":1,""time"":1704},{""event"":""fullscreenenter"",""trial"":1,""time"":1707},{""event"":""blur"",""trial"":6,""time"":27133},{""event"":""focus"",""trial"":6,""time"":29055}]",NA,NA,NA,NA,NA,3,#1CD855,#FA92F8,0,10,0,40,0,2797,39,0,740,10,1,experiment,NA,NA,2,0.5,0.5,5,4,15,1,NA
fcp-trial,63,513671,0.0-24.0-0.0,voc_e2,12088,"[{""event"":""focus"",""trial"":0,""time"":0},{""event"":""blur"",""trial"":1,""time"":1689},{""event"":""focus"",""trial"":1,""time"":1704},{""event"":""fullscreenenter"",""trial"":1,""time"":1707},{""event"":""blur"",""trial"":6,""time"":27133},{""event"":""focus"",""trial"":6,""time"":29055}]",NA,NA,NA,NA,NA,6,#741CD8,#D8271C,0,10,0,40,0,1927,37,1,645,0,0,experiment,NA,NA,0,0.1,0.9,1,0,16,1,NA
fcp-trial,64,519089,0.0-25.0-0.0,voc_e2,12088,"[{""event"":""focus"",""trial"":0,""time"":0},{""event"":""blur"",""trial"":1,""time"":1689},{""event"":""focus"",""trial"":1,""time"":1704},{""event"":""fullscreenenter"",""trial"":1,""time"":1707},{""event"":""blur"",""trial"":6,""time"":27133},{""event"":""focus"",""trial"":6,""time"":29055}]",NA,NA,NA,NA,NA,4,#741CD8,#D8271C,10,10,0,40,0,3285,37,1,617,10,0,experiment,NA,NA,0,0.1,0.9,1,0,17,1,NA
fcp-trial,65,522054,0.0-26.0-0.0,voc_e2,12088,"[{""event"":""focus"",""trial"":0,""time"":0},{""event"":""blur"",""trial"":1,""time"":1689},{""event"":""focus"",""trial"":1,""time"":1704},{""event"":""fullscreenenter"",""trial"":1,""time"":1707},{""event"":""blur"",""trial"":6,""time"":27133},{""event"":""focus"",""trial"":6,""time"":29055}]",NA,NA,NA,NA,NA,6,#3386FF,#D89F1C,0,0,1,40,0,1020,37,1,435,0,1,experiment,NA,NA,1,0.7,0.3,2,3,18,1,NA
fcp-trial,66,527082,0.0-27.0-0.0,voc_e2,12088,"[{""event"":""focus"",""trial"":0,""time"":0},{""event"":""blur"",""trial"":1,""time"":1689},{""event"":""focus"",""trial"":1,""time"":1704},{""event"":""fullscreenenter"",""trial"":1,""time"":1707},{""event"":""blur"",""trial"":6,""time"":27133},{""event"":""focus"",""trial"":6,""time"":29055}]",NA,NA,NA,NA,NA,3,#3386FF,#D89F1C,10,0,1,38,1,3141,39,0,375,0,0,experiment,NA,NA,1,0.7,0.3,2,3,19,1,NA
fcp-trial,67,530332,0.0-28.0-0.0,voc_e2,12088,"[{""event"":""focus"",""trial"":0,""time"":0},{""event"":""blur"",""trial"":1,""time"":1689},{""event"":""focus"",""trial"":1,""time"":1704},{""event"":""fullscreenenter"",""trial"":1,""time"":1707},{""event"":""blur"",""trial"":6,""time"":27133},{""event"":""focus"",""trial"":6,""time"":29055}]",NA,NA,NA,NA,NA,4,#1CD855,#FA92F8,0,10,0,40,0,1198,37,1,540,0,0,experiment,NA,NA,2,0.5,0.5,5,4,20,1,NA
fcp-trial,68,533534,0.0-29.0-0.0,voc_e2,12088,"[{""event"":""focus"",""trial"":0,""time"":0},{""event"":""blur"",""trial"":1,""time"":1689},{""event"":""focus"",""trial"":1,""time"":1704},{""event"":""fullscreenenter"",""trial"":1,""time"":1707},{""event"":""blur"",""trial"":6,""time"":27133},{""event"":""focus"",""trial"":6,""time"":29055}]",NA,NA,NA,NA,NA,6,#FA92F8,#1CD855,10,0,1,40,0,1301,39,0,392,0,0,experiment,NA,NA,2,0.5,0.5,4,5,21,1,NA
fcp-trial,69,537278,0.0-30.0-0.0,voc_e2,12088,"[{""event"":""focus"",""trial"":0,""time"":0},{""event"":""blur"",""trial"":1,""time"":1689},{""event"":""focus"",""trial"":1,""time"":1704},{""event"":""fullscreenenter"",""trial"":1,""time"":1707},{""event"":""blur"",""trial"":6,""time"":27133},{""event"":""focus"",""trial"":6,""time"":29055}]",NA,NA,NA,NA,NA,3,#741CD8,#D8271C,0,10,0,40,0,1746,37,1,489,0,0,experiment,NA,NA,0,0.1,0.9,1,0,22,1,NA
fcp-trial,70,540900,0.0-31.0-0.0,voc_e2,12088,"[{""event"":""focus"",""trial"":0,""time"":0},{""event"":""blur"",""trial"":1,""time"":1689},{""event"":""focus"",""trial"":1,""time"":1704},{""event"":""fullscreenenter"",""trial"":1,""time"":1707},{""event"":""blur"",""trial"":6,""time"":27133},{""event"":""focus"",""trial"":6,""time"":29055}]",NA,NA,NA,NA,NA,5,#741CD8,#D8271C,0,0,0,40,0,1598,39,0,516,0,1,experiment,NA,NA,0,0.1,0.9,1,0,23,1,NA
fcp-trial,71,543355,0.0-32.0-0.0,voc_e2,12088,"[{""event"":""focus"",""trial"":0,""time"":0},{""event"":""blur"",""trial"":1,""time"":1689},{""event"":""focus"",""trial"":1,""time"":1704},{""event"":""fullscreenenter"",""trial"":1,""time"":1707},{""event"":""blur"",""trial"":6,""time"":27133},{""event"":""focus"",""trial"":6,""time"":29055}]",NA,NA,NA,NA,NA,6,#741CD8,#D8271C,0,10,0,40,0,274,37,1,672,0,0,experiment,NA,NA,0,0.1,0.9,1,0,24,1,NA
fcp-trial,72,547318,0.0-33.0-0.0,voc_e2,12088,"[{""event"":""focus"",""trial"":0,""time"":0},{""event"":""blur"",""trial"":1,""time"":1689},{""event"":""focus"",""trial"":1,""time"":1704},{""event"":""fullscreenenter"",""trial"":1,""time"":1707},{""event"":""blur"",""trial"":6,""time"":27133},{""event"":""focus"",""trial"":6,""time"":29055}]",NA,NA,NA,NA,NA,4,#1CD855,#FA92F8,10,10,0,40,0,1958,39,0,488,10,1,experiment,NA,NA,2,0.5,0.5,5,4,25,1,NA
fcp-trial,73,553817,0.0-34.0-0.0,voc_e2,12088,"[{""event"":""focus"",""trial"":0,""time"":0},{""event"":""blur"",""trial"":1,""time"":1689},{""event"":""focus"",""trial"":1,""time"":1704},{""event"":""fullscreenenter"",""trial"":1,""time"":1707},{""event"":""blur"",""trial"":6,""time"":27133},{""event"":""focus"",""trial"":6,""time"":29055}]",NA,NA,NA,NA,NA,4,#D89F1C,#3386FF,0,10,0,40,0,4465,37,1,522,0,0,experiment,NA,NA,1,0.3,0.7,3,2,26,1,NA
fcp-trial,74,557130,0.0-35.0-0.0,voc_e2,12088,"[{""event"":""focus"",""trial"":0,""time"":0},{""event"":""blur"",""trial"":1,""time"":1689},{""event"":""focus"",""trial"":1,""time"":1704},{""event"":""fullscreenenter"",""trial"":1,""time"":1707},{""event"":""blur"",""trial"":6,""time"":27133},{""event"":""focus"",""trial"":6,""time"":29055}]",NA,NA,NA,NA,NA,3,#FA92F8,#1CD855,10,10,1,40,0,1397,39,0,408,10,0,experiment,NA,NA,2,0.5,0.5,4,5,27,1,NA
fcp-trial,75,560231,0.0-36.0-0.0,voc_e2,12088,"[{""event"":""focus"",""trial"":0,""time"":0},{""event"":""blur"",""trial"":1,""time"":1689},{""event"":""focus"",""trial"":1,""time"":1704},{""event"":""fullscreenenter"",""trial"":1,""time"":1707},{""event"":""blur"",""trial"":6,""time"":27133},{""event"":""focus"",""trial"":6,""time"":29055}]",NA,NA,NA,NA,NA,6,#FA92F8,#1CD855,0,10,1,40,0,1103,37,1,488,0,1,experiment,NA,NA,2,0.5,0.5,4,5,28,1,NA
fcp-trial,76,565331,0.0-37.0-0.0,voc_e2,12088,"[{""event"":""focus"",""trial"":0,""time"":0},{""event"":""blur"",""trial"":1,""time"":1689},{""event"":""focus"",""trial"":1,""time"":1704},{""event"":""fullscreenenter"",""trial"":1,""time"":1707},{""event"":""blur"",""trial"":6,""time"":27133},{""event"":""focus"",""trial"":6,""time"":29055}]",NA,NA,NA,NA,NA,0,#741CD8,#D8271C,0,10,0,38,1,1159,39,0,2430,10,1,experiment,NA,NA,0,0.1,0.9,1,0,29,1,NA
fcp-trial,77,568213,0.0-38.0-0.0,voc_e2,12088,"[{""event"":""focus"",""trial"":0,""time"":0},{""event"":""blur"",""trial"":1,""time"":1689},{""event"":""focus"",""trial"":1,""time"":1704},{""event"":""fullscreenenter"",""trial"":1,""time"":1707},{""event"":""blur"",""trial"":6,""time"":27133},{""event"":""focus"",""trial"":6,""time"":29055}]",NA,NA,NA,NA,NA,5,#3386FF,#D89F1C,10,10,1,40,0,911,39,0,463,10,0,experiment,NA,NA,1,0.7,0.3,2,3,30,1,NA
fcp-trial,78,572104,0.0-39.0-0.0,voc_e2,12088,"[{""event"":""focus"",""trial"":0,""time"":0},{""event"":""blur"",""trial"":1,""time"":1689},{""event"":""focus"",""trial"":1,""time"":1704},{""event"":""fullscreenenter"",""trial"":1,""time"":1707},{""event"":""blur"",""trial"":6,""time"":27133},{""event"":""focus"",""trial"":6,""time"":29055}]",NA,NA,NA,NA,NA,2,#D89F1C,#3386FF,0,10,0,38,1,1997,37,1,383,0,0,experiment,NA,NA,1,0.3,0.7,3,2,31,1,NA
fcp-trial,79,575077,0.0-40.0-0.0,voc_e2,12088,"[{""event"":""focus"",""trial"":0,""time"":0},{""event"":""blur"",""trial"":1,""time"":1689},{""event"":""focus"",""trial"":1,""time"":1704},{""event"":""fullscreenenter"",""trial"":1,""time"":1707},{""event"":""blur"",""trial"":6,""time"":27133},{""event"":""focus"",""trial"":6,""time"":29055}]",NA,NA,NA,NA,NA,5,#1CD855,#FA92F8,10,0,0,40,0,1020,37,1,417,10,0,experiment,NA,NA,2,0.5,0.5,5,4,32,1,NA
fcp-trial,80,578189,0.0-41.0-0.0,voc_e2,12088,"[{""event"":""focus"",""trial"":0,""time"":0},{""event"":""blur"",""trial"":1,""time"":1689},{""event"":""focus"",""trial"":1,""time"":1704},{""event"":""fullscreenenter"",""trial"":1,""time"":1707},{""event"":""blur"",""trial"":6,""time"":27133},{""event"":""focus"",""trial"":6,""time"":29055}]",NA,NA,NA,NA,NA,4,#D8271C,#741CD8,10,0,1,40,0,1239,37,1,365,10,1,experiment,NA,NA,0,0.9,0.1,0,1,33,1,NA
fcp-trial,81,580524,0.0-42.0-0.0,voc_e2,12088,"[{""event"":""focus"",""trial"":0,""time"":0},{""event"":""blur"",""trial"":1,""time"":1689},{""event"":""focus"",""trial"":1,""time"":1704},{""event"":""fullscreenenter"",""trial"":1,""time"":1707},{""event"":""blur"",""trial"":6,""time"":27133},{""event"":""focus"",""trial"":6,""time"":29055}]",NA,NA,NA,NA,NA,6,#3386FF,#D89F1C,10,0,1,40,0,265,37,1,557,10,1,experiment,NA,NA,1,0.7,0.3,2,3,34,1,NA
fcp-trial,82,584447,0.0-43.0-0.0,voc_e2,12088,"[{""event"":""focus"",""trial"":0,""time"":0},{""event"":""blur"",""trial"":1,""time"":1689},{""event"":""focus"",""trial"":1,""time"":1704},{""event"":""fullscreenenter"",""trial"":1,""time"":1707},{""event"":""blur"",""trial"":6,""time"":27133},{""event"":""focus"",""trial"":6,""time"":29055}]",NA,NA,NA,NA,NA,3,#3386FF,#D89F1C,0,0,1,40,0,1824,39,0,592,0,0,experiment,NA,NA,1,0.7,0.3,2,3,35,1,NA
fcp-trial,83,588500,0.0-44.0-0.0,voc_e2,12088,"[{""event"":""focus"",""trial"":0,""time"":0},{""event"":""blur"",""trial"":1,""time"":1689},{""event"":""focus"",""trial"":1,""time"":1704},{""event"":""fullscreenenter"",""trial"":1,""time"":1707},{""event"":""blur"",""trial"":6,""time"":27133},{""event"":""focus"",""trial"":6,""time"":29055}]",NA,NA,NA,NA,NA,2,#FA92F8,#1CD855,10,0,1,38,1,2183,39,0,362,0,0,experiment,NA,NA,2,0.5,0.5,4,5,36,1,NA
fcp-trial,84,592038,0.0-45.0-0.0,voc_e2,12088,"[{""event"":""focus"",""trial"":0,""time"":0},{""event"":""blur"",""trial"":1,""time"":1689},{""event"":""focus"",""trial"":1,""time"":1704},{""event"":""fullscreenenter"",""trial"":1,""time"":1707},{""event"":""blur"",""trial"":6,""time"":27133},{""event"":""focus"",""trial"":6,""time"":29055}]",NA,NA,NA,NA,NA,1,#D8271C,#741CD8,10,0,1,38,1,1528,37,1,494,10,1,experiment,NA,NA,0,0.9,0.1,0,1,37,1,NA
fcp-trial,85,598218,0.0-46.0-0.0,voc_e2,12088,"[{""event"":""focus"",""trial"":0,""time"":0},{""event"":""blur"",""trial"":1,""time"":1689},{""event"":""focus"",""trial"":1,""time"":1704},{""event"":""fullscreenenter"",""trial"":1,""time"":1707},{""event"":""blur"",""trial"":6,""time"":27133},{""event"":""focus"",""trial"":6,""time"":29055}]",NA,NA,NA,NA,NA,1,#D89F1C,#3386FF,10,10,0,38,1,3344,37,1,1275,10,0,experiment,NA,NA,1,0.3,0.7,3,2,38,1,NA
fcp-trial,86,601302,0.0-47.0-0.0,voc_e2,12088,"[{""event"":""focus"",""trial"":0,""time"":0},{""event"":""blur"",""trial"":1,""time"":1689},{""event"":""focus"",""trial"":1,""time"":1704},{""event"":""fullscreenenter"",""trial"":1,""time"":1707},{""event"":""blur"",""trial"":6,""time"":27133},{""event"":""focus"",""trial"":6,""time"":29055}]",NA,NA,NA,NA,NA,0,#FA92F8,#1CD855,0,0,1,38,1,1090,39,0,481,0,0,experiment,NA,NA,2,0.5,0.5,4,5,39,1,NA
fcp-trial,87,604302,0.0-48.0-0.0,voc_e2,12088,"[{""event"":""focus"",""trial"":0,""time"":0},{""event"":""blur"",""trial"":1,""time"":1689},{""event"":""focus"",""trial"":1,""time"":1704},{""event"":""fullscreenenter"",""trial"":1,""time"":1707},{""event"":""blur"",""trial"":6,""time"":27133},{""event"":""focus"",""trial"":6,""time"":29055}]",NA,NA,NA,NA,NA,0,#3386FF,#D89F1C,0,0,1,38,1,966,37,1,521,0,1,experiment,NA,NA,1,0.7,0.3,2,3,40,1,NA
fcp-trial,88,607602,0.0-49.0-0.0,voc_e2,12088,"[{""event"":""focus"",""trial"":0,""time"":0},{""event"":""blur"",""trial"":1,""time"":1689},{""event"":""focus"",""trial"":1,""time"":1704},{""event"":""fullscreenenter"",""trial"":1,""time"":1707},{""event"":""blur"",""trial"":6,""time"":27133},{""event"":""focus"",""trial"":6,""time"":29055}]",NA,NA,NA,NA,NA,1,#1CD855,#FA92F8,10,10,0,38,1,966,37,1,824,10,0,experiment,NA,NA,2,0.5,0.5,5,4,41,1,NA
fcp-trial,89,612567,0.0-50.0-0.0,voc_e2,12088,"[{""event"":""focus"",""trial"":0,""time"":0},{""event"":""blur"",""trial"":1,""time"":1689},{""event"":""focus"",""trial"":1,""time"":1704},{""event"":""fullscreenenter"",""trial"":1,""time"":1707},{""event"":""blur"",""trial"":6,""time"":27133},{""event"":""focus"",""trial"":6,""time"":29055}]",NA,NA,NA,NA,NA,2,#D8271C,#741CD8,10,10,1,38,1,2573,39,0,883,10,0,experiment,NA,NA,0,0.9,0.1,0,1,42,1,NA
fcp-trial,90,615496,0.0-51.0-0.0,voc_e2,12088,"[{""event"":""focus"",""trial"":0,""time"":0},{""event"":""blur"",""trial"":1,""time"":1689},{""event"":""focus"",""trial"":1,""time"":1704},{""event"":""fullscreenenter"",""trial"":1,""time"":1707},{""event"":""blur"",""trial"":6,""time"":27133},{""event"":""focus"",""trial"":6,""time"":29055}]",NA,NA,NA,NA,NA,0,#741CD8,#D8271C,0,10,0,38,1,1057,37,1,365,0,0,experiment,NA,NA,0,0.1,0.9,1,0,43,1,NA
fcp-trial,91,619042,0.0-52.0-0.0,voc_e2,12088,"[{""event"":""focus"",""trial"":0,""time"":0},{""event"":""blur"",""trial"":1,""time"":1689},{""event"":""focus"",""trial"":1,""time"":1704},{""event"":""fullscreenenter"",""trial"":1,""time"":1707},{""event"":""blur"",""trial"":6,""time"":27133},{""event"":""focus"",""trial"":6,""time"":29055}]",NA,NA,NA,NA,NA,2,#D89F1C,#3386FF,10,0,0,38,1,986,37,1,1046,10,0,experiment,NA,NA,1,0.3,0.7,3,2,44,1,NA
fcp-trial,92,622682,0.0-53.0-0.0,voc_e2,12088,"[{""event"":""focus"",""trial"":0,""time"":0},{""event"":""blur"",""trial"":1,""time"":1689},{""event"":""focus"",""trial"":1,""time"":1704},{""event"":""fullscreenenter"",""trial"":1,""time"":1707},{""event"":""blur"",""trial"":6,""time"":27133},{""event"":""focus"",""trial"":6,""time"":29055}]",NA,NA,NA,NA,NA,5,#1CD855,#FA92F8,10,10,0,40,0,1550,39,0,584,10,1,experiment,NA,NA,2,0.5,0.5,5,4,45,1,NA
fcp-trial,93,625622,0.0-54.0-0.0,voc_e2,12088,"[{""event"":""focus"",""trial"":0,""time"":0},{""event"":""blur"",""trial"":1,""time"":1689},{""event"":""focus"",""trial"":1,""time"":1704},{""event"":""fullscreenenter"",""trial"":1,""time"":1707},{""event"":""blur"",""trial"":6,""time"":27133},{""event"":""focus"",""trial"":6,""time"":29055}]",NA,NA,NA,NA,NA,4,#1CD855,#FA92F8,10,0,0,40,0,1054,37,1,374,10,0,experiment,NA,NA,2,0.5,0.5,5,4,46,2,NA
fcp-trial,94,628319,0.0-55.0-0.0,voc_e2,12088,"[{""event"":""focus"",""trial"":0,""time"":0},{""event"":""blur"",""trial"":1,""time"":1689},{""event"":""focus"",""trial"":1,""time"":1704},{""event"":""fullscreenenter"",""trial"":1,""time"":1707},{""event"":""blur"",""trial"":6,""time"":27133},{""event"":""focus"",""trial"":6,""time"":29055}]",NA,NA,NA,NA,NA,5,#D89F1C,#3386FF,0,10,0,40,0,621,39,0,564,10,1,experiment,NA,NA,1,0.3,0.7,3,2,47,2,NA
fcp-trial,95,632019,0.0-56.0-0.0,voc_e2,12088,"[{""event"":""focus"",""trial"":0,""time"":0},{""event"":""blur"",""trial"":1,""time"":1689},{""event"":""focus"",""trial"":1,""time"":1704},{""event"":""fullscreenenter"",""trial"":1,""time"":1707},{""event"":""blur"",""trial"":6,""time"":27133},{""event"":""focus"",""trial"":6,""time"":29055}]",NA,NA,NA,NA,NA,1,#741CD8,#D8271C,0,10,0,38,1,775,39,0,1417,10,1,experiment,NA,NA,0,0.1,0.9,1,0,48,2,NA
fcp-trial,96,636078,0.0-57.0-0.0,voc_e2,12088,"[{""event"":""focus"",""trial"":0,""time"":0},{""event"":""blur"",""trial"":1,""time"":1689},{""event"":""focus"",""trial"":1,""time"":1704},{""event"":""fullscreenenter"",""trial"":1,""time"":1707},{""event"":""blur"",""trial"":6,""time"":27133},{""event"":""focus"",""trial"":6,""time"":29055}]",NA,NA,NA,NA,NA,0,#3386FF,#D89F1C,10,0,1,38,1,1508,39,0,1042,0,0,experiment,NA,NA,1,0.7,0.3,2,3,49,2,NA
fcp-trial,97,638870,0.0-58.0-0.0,voc_e2,12088,"[{""event"":""focus"",""trial"":0,""time"":0},{""event"":""blur"",""trial"":1,""time"":1689},{""event"":""focus"",""trial"":1,""time"":1704},{""event"":""fullscreenenter"",""trial"":1,""time"":1707},{""event"":""blur"",""trial"":6,""time"":27133},{""event"":""focus"",""trial"":6,""time"":29055}]",NA,NA,NA,NA,NA,0,#FA92F8,#1CD855,10,10,1,38,1,814,39,0,467,10,0,experiment,NA,NA,2,0.5,0.5,4,5,50,2,NA
fcp-trial,98,642468,0.0-59.0-0.0,voc_e2,12088,"[{""event"":""focus"",""trial"":0,""time"":0},{""event"":""blur"",""trial"":1,""time"":1689},{""event"":""focus"",""trial"":1,""time"":1704},{""event"":""fullscreenenter"",""trial"":1,""time"":1707},{""event"":""blur"",""trial"":6,""time"":27133},{""event"":""focus"",""trial"":6,""time"":29055}]",NA,NA,NA,NA,NA,3,#741CD8,#D8271C,0,10,0,40,0,1590,39,0,500,10,1,experiment,NA,NA,0,0.1,0.9,1,0,51,2,NA
fcp-trial,99,646508,0.0-60.0-0.0,voc_e2,12088,"[{""event"":""focus"",""trial"":0,""time"":0},{""event"":""blur"",""trial"":1,""time"":1689},{""event"":""focus"",""trial"":1,""time"":1704},{""event"":""fullscreenenter"",""trial"":1,""time"":1707},{""event"":""blur"",""trial"":6,""time"":27133},{""event"":""focus"",""trial"":6,""time"":29055}]",NA,NA,NA,NA,NA,4,#741CD8,#D8271C,0,10,0,40,0,1992,39,0,540,10,1,experiment,NA,NA,0,0.1,0.9,1,0,52,2,NA
fcp-trial,100,650289,0.0-61.0-0.0,voc_e2,12088,"[{""event"":""focus"",""trial"":0,""time"":0},{""event"":""blur"",""trial"":1,""time"":1689},{""event"":""focus"",""trial"":1,""time"":1704},{""event"":""fullscreenenter"",""trial"":1,""time"":1707},{""event"":""blur"",""trial"":6,""time"":27133},{""event"":""focus"",""trial"":6,""time"":29055}]",NA,NA,NA,NA,NA,3,#1CD855,#FA92F8,10,10,0,40,0,1736,37,1,528,10,0,experiment,NA,NA,2,0.5,0.5,5,4,53,2,NA
fcp-trial,101,653280,0.0-62.0-0.0,voc_e2,12088,"[{""event"":""focus"",""trial"":0,""time"":0},{""event"":""blur"",""trial"":1,""time"":1689},{""event"":""focus"",""trial"":1,""time"":1704},{""event"":""fullscreenenter"",""trial"":1,""time"":1707},{""event"":""blur"",""trial"":6,""time"":27133},{""event"":""focus"",""trial"":6,""time"":29055}]",NA,NA,NA,NA,NA,6,#D89F1C,#3386FF,10,10,0,40,0,888,37,1,599,10,0,experiment,NA,NA,1,0.3,0.7,3,2,54,2,NA
fcp-trial,102,656952,0.0-63.0-0.0,voc_e2,12088,"[{""event"":""focus"",""trial"":0,""time"":0},{""event"":""blur"",""trial"":1,""time"":1689},{""event"":""focus"",""trial"":1,""time"":1704},{""event"":""fullscreenenter"",""trial"":1,""time"":1707},{""event"":""blur"",""trial"":6,""time"":27133},{""event"":""focus"",""trial"":6,""time"":29055}]",NA,NA,NA,NA,NA,6,#741CD8,#D8271C,0,0,0,40,0,1633,39,0,528,0,1,experiment,NA,NA,0,0.1,0.9,1,0,55,2,NA
fcp-trial,103,661631,0.0-64.0-0.0,voc_e2,12088,"[{""event"":""focus"",""trial"":0,""time"":0},{""event"":""blur"",""trial"":1,""time"":1689},{""event"":""focus"",""trial"":1,""time"":1704},{""event"":""fullscreenenter"",""trial"":1,""time"":1707},{""event"":""blur"",""trial"":6,""time"":27133},{""event"":""focus"",""trial"":6,""time"":29055}]",NA,NA,NA,NA,NA,4,#D89F1C,#3386FF,0,10,0,40,0,2530,37,1,643,0,0,experiment,NA,NA,1,0.3,0.7,3,2,56,2,NA
fcp-trial,104,665127,0.0-65.0-0.0,voc_e2,12088,"[{""event"":""focus"",""trial"":0,""time"":0},{""event"":""blur"",""trial"":1,""time"":1689},{""event"":""focus"",""trial"":1,""time"":1704},{""event"":""fullscreenenter"",""trial"":1,""time"":1707},{""event"":""blur"",""trial"":6,""time"":27133},{""event"":""focus"",""trial"":6,""time"":29055}]",NA,NA,NA,NA,NA,2,#D8271C,#741CD8,10,0,1,38,1,1513,39,0,477,0,0,experiment,NA,NA,0,0.9,0.1,0,1,57,2,NA
fcp-trial,105,669394,0.0-66.0-0.0,voc_e2,12088,"[{""event"":""focus"",""trial"":0,""time"":0},{""event"":""blur"",""trial"":1,""time"":1689},{""event"":""focus"",""trial"":1,""time"":1704},{""event"":""fullscreenenter"",""trial"":1,""time"":1707},{""event"":""blur"",""trial"":6,""time"":27133},{""event"":""focus"",""trial"":6,""time"":29055}]",NA,NA,NA,NA,NA,1,#FA92F8,#1CD855,10,0,1,38,1,2265,39,0,490,0,0,experiment,NA,NA,2,0.5,0.5,4,5,58,2,NA
fcp-trial,106,672702,0.0-67.0-0.0,voc_e2,12088,"[{""event"":""focus"",""trial"":0,""time"":0},{""event"":""blur"",""trial"":1,""time"":1689},{""event"":""focus"",""trial"":1,""time"":1704},{""event"":""fullscreenenter"",""trial"":1,""time"":1707},{""event"":""blur"",""trial"":6,""time"":27133},{""event"":""focus"",""trial"":6,""time"":29055}]",NA,NA,NA,NA,NA,1,#D89F1C,#3386FF,0,10,0,38,1,878,39,0,922,10,1,experiment,NA,NA,1,0.3,0.7,3,2,59,2,NA
fcp-trial,107,675626,0.0-68.0-0.0,voc_e2,12088,"[{""event"":""focus"",""trial"":0,""time"":0},{""event"":""blur"",""trial"":1,""time"":1689},{""event"":""focus"",""trial"":1,""time"":1704},{""event"":""fullscreenenter"",""trial"":1,""time"":1707},{""event"":""blur"",""trial"":6,""time"":27133},{""event"":""focus"",""trial"":6,""time"":29055}]",NA,NA,NA,NA,NA,3,#3386FF,#D89F1C,0,0,1,40,0,867,39,0,544,0,0,experiment,NA,NA,1,0.7,0.3,2,3,60,2,NA
fcp-trial,108,680907,0.0-69.0-0.0,voc_e2,12088,"[{""event"":""focus"",""trial"":0,""time"":0},{""event"":""blur"",""trial"":1,""time"":1689},{""event"":""focus"",""trial"":1,""time"":1704},{""event"":""fullscreenenter"",""trial"":1,""time"":1707},{""event"":""blur"",""trial"":6,""time"":27133},{""event"":""focus"",""trial"":6,""time"":29055}]",NA,NA,NA,NA,NA,2,#1CD855,#FA92F8,10,10,0,38,1,3225,37,1,545,10,0,experiment,NA,NA,2,0.5,0.5,5,4,61,2,NA
fcp-trial,109,684466,0.0-70.0-0.0,voc_e2,12088,"[{""event"":""focus"",""trial"":0,""time"":0},{""event"":""blur"",""trial"":1,""time"":1689},{""event"":""focus"",""trial"":1,""time"":1704},{""event"":""fullscreenenter"",""trial"":1,""time"":1707},{""event"":""blur"",""trial"":6,""time"":27133},{""event"":""focus"",""trial"":6,""time"":29055}]",NA,NA,NA,NA,NA,5,#D8271C,#741CD8,10,0,1,40,0,1459,39,0,590,0,0,experiment,NA,NA,0,0.9,0.1,0,1,62,2,NA
fcp-trial,110,687388,0.0-71.0-0.0,voc_e2,12088,"[{""event"":""focus"",""trial"":0,""time"":0},{""event"":""blur"",""trial"":1,""time"":1689},{""event"":""focus"",""trial"":1,""time"":1704},{""event"":""fullscreenenter"",""trial"":1,""time"":1707},{""event"":""blur"",""trial"":6,""time"":27133},{""event"":""focus"",""trial"":6,""time"":29055}]",NA,NA,NA,NA,NA,6,#1CD855,#FA92F8,0,10,0,40,0,885,39,0,524,10,1,experiment,NA,NA,2,0.5,0.5,5,4,63,2,NA
fcp-trial,111,690317,0.0-72.0-0.0,voc_e2,12088,"[{""event"":""focus"",""trial"":0,""time"":0},{""event"":""blur"",""trial"":1,""time"":1689},{""event"":""focus"",""trial"":1,""time"":1704},{""event"":""fullscreenenter"",""trial"":1,""time"":1707},{""event"":""blur"",""trial"":6,""time"":27133},{""event"":""focus"",""trial"":6,""time"":29055}]",NA,NA,NA,NA,NA,4,#FA92F8,#1CD855,0,10,1,40,0,899,37,1,524,0,1,experiment,NA,NA,2,0.5,0.5,4,5,64,2,NA
fcp-trial,112,693903,0.0-73.0-0.0,voc_e2,12088,"[{""event"":""focus"",""trial"":0,""time"":0},{""event"":""blur"",""trial"":1,""time"":1689},{""event"":""focus"",""trial"":1,""time"":1704},{""event"":""fullscreenenter"",""trial"":1,""time"":1707},{""event"":""blur"",""trial"":6,""time"":27133},{""event"":""focus"",""trial"":6,""time"":29055}]",NA,NA,NA,NA,NA,2,#D89F1C,#3386FF,0,10,0,38,1,995,39,0,991,10,1,experiment,NA,NA,1,0.3,0.7,3,2,65,2,NA
fcp-trial,113,696835,0.0-74.0-0.0,voc_e2,12088,"[{""event"":""focus"",""trial"":0,""time"":0},{""event"":""blur"",""trial"":1,""time"":1689},{""event"":""focus"",""trial"":1,""time"":1704},{""event"":""fullscreenenter"",""trial"":1,""time"":1707},{""event"":""blur"",""trial"":6,""time"":27133},{""event"":""focus"",""trial"":6,""time"":29055}]",NA,NA,NA,NA,NA,0,#1CD855,#FA92F8,0,10,0,38,1,960,37,1,466,0,0,experiment,NA,NA,2,0.5,0.5,5,4,66,2,NA
fcp-trial,114,699583,0.0-75.0-0.0,voc_e2,12088,"[{""event"":""focus"",""trial"":0,""time"":0},{""event"":""blur"",""trial"":1,""time"":1689},{""event"":""focus"",""trial"":1,""time"":1704},{""event"":""fullscreenenter"",""trial"":1,""time"":1707},{""event"":""blur"",""trial"":6,""time"":27133},{""event"":""focus"",""trial"":6,""time"":29055}]",NA,NA,NA,NA,NA,5,#3386FF,#D89F1C,10,0,1,40,0,740,37,1,503,10,1,experiment,NA,NA,1,0.7,0.3,2,3,67,2,NA
fcp-trial,115,702770,0.0-76.0-0.0,voc_e2,12088,"[{""event"":""focus"",""trial"":0,""time"":0},{""event"":""blur"",""trial"":1,""time"":1689},{""event"":""focus"",""trial"":1,""time"":1704},{""event"":""fullscreenenter"",""trial"":1,""time"":1707},{""event"":""blur"",""trial"":6,""time"":27133},{""event"":""focus"",""trial"":6,""time"":29055}]",NA,NA,NA,NA,NA,3,#D8271C,#741CD8,10,0,1,40,0,1222,37,1,459,10,1,experiment,NA,NA,0,0.9,0.1,0,1,68,2,NA
fcp-trial,116,706438,0.0-77.0-0.0,voc_e2,12088,"[{""event"":""focus"",""trial"":0,""time"":0},{""event"":""blur"",""trial"":1,""time"":1689},{""event"":""focus"",""trial"":1,""time"":1704},{""event"":""fullscreenenter"",""trial"":1,""time"":1707},{""event"":""blur"",""trial"":6,""time"":27133},{""event"":""focus"",""trial"":6,""time"":29055}]",NA,NA,NA,NA,NA,3,#D89F1C,#3386FF,0,10,0,40,0,1594,39,0,563,10,1,experiment,NA,NA,1,0.3,0.7,3,2,69,2,NA
fcp-trial,117,708953,0.0-78.0-0.0,voc_e2,12088,"[{""event"":""focus"",""trial"":0,""time"":0},{""event"":""blur"",""trial"":1,""time"":1689},{""event"":""focus"",""trial"":1,""time"":1704},{""event"":""fullscreenenter"",""trial"":1,""time"":1707},{""event"":""blur"",""trial"":6,""time"":27133},{""event"":""focus"",""trial"":6,""time"":29055}]",NA,NA,NA,NA,NA,5,#741CD8,#D8271C,10,10,0,40,0,554,39,0,455,10,1,experiment,NA,NA,0,0.1,0.9,1,0,70,2,NA
fcp-trial,118,711471,0.0-79.0-0.0,voc_e2,12088,"[{""event"":""focus"",""trial"":0,""time"":0},{""event"":""blur"",""trial"":1,""time"":1689},{""event"":""focus"",""trial"":1,""time"":1704},{""event"":""fullscreenenter"",""trial"":1,""time"":1707},{""event"":""blur"",""trial"":6,""time"":27133},{""event"":""focus"",""trial"":6,""time"":29055}]",NA,NA,NA,NA,NA,6,#FA92F8,#1CD855,10,10,1,40,0,549,39,0,459,10,0,experiment,NA,NA,2,0.5,0.5,4,5,71,2,NA
fcp-trial,119,714285,0.0-80.0-0.0,voc_e2,12088,"[{""event"":""focus"",""trial"":0,""time"":0},{""event"":""blur"",""trial"":1,""time"":1689},{""event"":""focus"",""trial"":1,""time"":1704},{""event"":""fullscreenenter"",""trial"":1,""time"":1707},{""event"":""blur"",""trial"":6,""time"":27133},{""event"":""focus"",""trial"":6,""time"":29055}]",NA,NA,NA,NA,NA,4,#D89F1C,#3386FF,0,10,0,40,0,774,39,0,530,10,1,experiment,NA,NA,1,0.3,0.7,3,2,72,2,NA
fcp-trial,120,717752,0.0-81.0-0.0,voc_e2,12088,"[{""event"":""focus"",""trial"":0,""time"":0},{""event"":""blur"",""trial"":1,""time"":1689},{""event"":""focus"",""trial"":1,""time"":1704},{""event"":""fullscreenenter"",""trial"":1,""time"":1707},{""event"":""blur"",""trial"":6,""time"":27133},{""event"":""focus"",""trial"":6,""time"":29055}]",NA,NA,NA,NA,NA,2,#1CD855,#FA92F8,0,10,0,38,1,1318,39,0,640,10,1,experiment,NA,NA,2,0.5,0.5,5,4,73,2,NA
fcp-trial,121,720838,0.0-82.0-0.0,voc_e2,12088,"[{""event"":""focus"",""trial"":0,""time"":0},{""event"":""blur"",""trial"":1,""time"":1689},{""event"":""focus"",""trial"":1,""time"":1704},{""event"":""fullscreenenter"",""trial"":1,""time"":1707},{""event"":""blur"",""trial"":6,""time"":27133},{""event"":""focus"",""trial"":6,""time"":29055}]",NA,NA,NA,NA,NA,0,#D8271C,#741CD8,10,10,1,38,1,1138,37,1,436,10,1,experiment,NA,NA,0,0.9,0.1,0,1,74,2,NA
fcp-trial,122,724084,0.0-83.0-0.0,voc_e2,12088,"[{""event"":""focus"",""trial"":0,""time"":0},{""event"":""blur"",""trial"":1,""time"":1689},{""event"":""focus"",""trial"":1,""time"":1704},{""event"":""fullscreenenter"",""trial"":1,""time"":1707},{""event"":""blur"",""trial"":6,""time"":27133},{""event"":""focus"",""trial"":6,""time"":29055}]",NA,NA,NA,NA,NA,1,#FA92F8,#1CD855,0,10,1,38,1,890,37,1,849,0,1,experiment,NA,NA,2,0.5,0.5,4,5,75,2,NA
fcp-trial,123,726741,0.0-84.0-0.0,voc_e2,12088,"[{""event"":""focus"",""trial"":0,""time"":0},{""event"":""blur"",""trial"":1,""time"":1689},{""event"":""focus"",""trial"":1,""time"":1704},{""event"":""fullscreenenter"",""trial"":1,""time"":1707},{""event"":""blur"",""trial"":6,""time"":27133},{""event"":""focus"",""trial"":6,""time"":29055}]",NA,NA,NA,NA,NA,6,#D89F1C,#3386FF,10,10,0,40,0,722,39,0,426,10,1,experiment,NA,NA,1,0.3,0.7,3,2,76,2,NA
fcp-trial,124,729611,0.0-85.0-0.0,voc_e2,12088,"[{""event"":""focus"",""trial"":0,""time"":0},{""event"":""blur"",""trial"":1,""time"":1689},{""event"":""focus"",""trial"":1,""time"":1704},{""event"":""fullscreenenter"",""trial"":1,""time"":1707},{""event"":""blur"",""trial"":6,""time"":27133},{""event"":""focus"",""trial"":6,""time"":29055}]",NA,NA,NA,NA,NA,6,#741CD8,#D8271C,10,10,0,40,0,868,37,1,494,10,0,experiment,NA,NA,0,0.1,0.9,1,0,77,2,NA
fcp-trial,125,732345,0.0-86.0-0.0,voc_e2,12088,"[{""event"":""focus"",""trial"":0,""time"":0},{""event"":""blur"",""trial"":1,""time"":1689},{""event"":""focus"",""trial"":1,""time"":1704},{""event"":""fullscreenenter"",""trial"":1,""time"":1707},{""event"":""blur"",""trial"":6,""time"":27133},{""event"":""focus"",""trial"":6,""time"":29055}]",NA,NA,NA,NA,NA,4,#D8271C,#741CD8,10,0,1,40,0,773,37,1,445,10,1,experiment,NA,NA,0,0.9,0.1,0,1,78,2,NA
fcp-trial,126,735371,0.0-87.0-0.0,voc_e2,12088,"[{""event"":""focus"",""trial"":0,""time"":0},{""event"":""blur"",""trial"":1,""time"":1689},{""event"":""focus"",""trial"":1,""time"":1704},{""event"":""fullscreenenter"",""trial"":1,""time"":1707},{""event"":""blur"",""trial"":6,""time"":27133},{""event"":""focus"",""trial"":6,""time"":29055}]",NA,NA,NA,NA,NA,2,#D8271C,#741CD8,10,0,1,38,1,1021,37,1,492,10,1,experiment,NA,NA,0,0.9,0.1,0,1,79,2,NA
fcp-trial,127,738086,0.0-88.0-0.0,voc_e2,12088,"[{""event"":""focus"",""trial"":0,""time"":0},{""event"":""blur"",""trial"":1,""time"":1689},{""event"":""focus"",""trial"":1,""time"":1704},{""event"":""fullscreenenter"",""trial"":1,""time"":1707},{""event"":""blur"",""trial"":6,""time"":27133},{""event"":""focus"",""trial"":6,""time"":29055}]",NA,NA,NA,NA,NA,5,#1CD855,#FA92F8,10,10,0,40,0,702,39,0,505,10,1,experiment,NA,NA,2,0.5,0.5,5,4,80,2,NA
fcp-trial,128,741829,0.0-89.0-0.0,voc_e2,12088,"[{""event"":""focus"",""trial"":0,""time"":0},{""event"":""blur"",""trial"":1,""time"":1689},{""event"":""focus"",""trial"":1,""time"":1704},{""event"":""fullscreenenter"",""trial"":1,""time"":1707},{""event"":""blur"",""trial"":6,""time"":27133},{""event"":""focus"",""trial"":6,""time"":29055}]",NA,NA,NA,NA,NA,1,#D89F1C,#3386FF,0,10,0,38,1,942,37,1,1286,0,0,experiment,NA,NA,1,0.3,0.7,3,2,81,2,NA
fcp-trial,129,744568,0.0-90.0-0.0,voc_e2,12088,"[{""event"":""focus"",""trial"":0,""time"":0},{""event"":""blur"",""trial"":1,""time"":1689},{""event"":""focus"",""trial"":1,""time"":1704},{""event"":""fullscreenenter"",""trial"":1,""time"":1707},{""event"":""blur"",""trial"":6,""time"":27133},{""event"":""focus"",""trial"":6,""time"":29055}]",NA,NA,NA,NA,NA,3,#1CD855,#FA92F8,10,10,0,40,0,674,39,0,542,10,1,experiment,NA,NA,2,0.5,0.5,5,4,82,2,NA
fcp-trial,130,748365,0.0-91.0-0.0,voc_e2,12088,"[{""event"":""focus"",""trial"":0,""time"":0},{""event"":""blur"",""trial"":1,""time"":1689},{""event"":""focus"",""trial"":1,""time"":1704},{""event"":""fullscreenenter"",""trial"":1,""time"":1707},{""event"":""blur"",""trial"":6,""time"":27133},{""event"":""focus"",""trial"":6,""time"":29055}]",NA,NA,NA,NA,NA,0,#3386FF,#D89F1C,10,0,1,38,1,1178,37,1,1111,10,1,experiment,NA,NA,1,0.7,0.3,2,3,83,2,NA
fcp-trial,131,752028,0.0-92.0-0.0,voc_e2,12088,"[{""event"":""focus"",""trial"":0,""time"":0},{""event"":""blur"",""trial"":1,""time"":1689},{""event"":""focus"",""trial"":1,""time"":1704},{""event"":""fullscreenenter"",""trial"":1,""time"":1707},{""event"":""blur"",""trial"":6,""time"":27133},{""event"":""focus"",""trial"":6,""time"":29055}]",NA,NA,NA,NA,NA,1,#741CD8,#D8271C,0,10,0,38,1,1580,39,0,569,10,1,experiment,NA,NA,0,0.1,0.9,1,0,84,2,NA
fcp-trial,132,755243,0.0-93.0-0.0,voc_e2,12088,"[{""event"":""focus"",""trial"":0,""time"":0},{""event"":""blur"",""trial"":1,""time"":1689},{""event"":""focus"",""trial"":1,""time"":1704},{""event"":""fullscreenenter"",""trial"":1,""time"":1707},{""event"":""blur"",""trial"":6,""time"":27133},{""event"":""focus"",""trial"":6,""time"":29055}]",NA,NA,NA,NA,NA,4,#D8271C,#741CD8,10,0,1,40,0,742,37,1,961,10,1,experiment,NA,NA,0,0.9,0.1,0,1,85,2,NA
fcp-trial,133,758564,0.0-94.0-0.0,voc_e2,12088,"[{""event"":""focus"",""trial"":0,""time"":0},{""event"":""blur"",""trial"":1,""time"":1689},{""event"":""focus"",""trial"":1,""time"":1704},{""event"":""fullscreenenter"",""trial"":1,""time"":1707},{""event"":""blur"",""trial"":6,""time"":27133},{""event"":""focus"",""trial"":6,""time"":29055}]",NA,NA,NA,NA,NA,0,#741CD8,#D8271C,0,10,0,38,1,1217,37,1,593,0,0,experiment,NA,NA,0,0.1,0.9,1,0,86,2,NA
fcp-trial,134,761407,0.0-95.0-0.0,voc_e2,12088,"[{""event"":""focus"",""trial"":0,""time"":0},{""event"":""blur"",""trial"":1,""time"":1689},{""event"":""focus"",""trial"":1,""time"":1704},{""event"":""fullscreenenter"",""trial"":1,""time"":1707},{""event"":""blur"",""trial"":6,""time"":27133},{""event"":""focus"",""trial"":6,""time"":29055}]",NA,NA,NA,NA,NA,5,#D89F1C,#3386FF,10,0,0,40,0,881,39,0,452,0,1,experiment,NA,NA,1,0.3,0.7,3,2,87,2,NA
fcp-trial,135,764513,0.0-96.0-0.0,voc_e2,12088,"[{""event"":""focus"",""trial"":0,""time"":0},{""event"":""blur"",""trial"":1,""time"":1689},{""event"":""focus"",""trial"":1,""time"":1704},{""event"":""fullscreenenter"",""trial"":1,""time"":1707},{""event"":""blur"",""trial"":6,""time"":27133},{""event"":""focus"",""trial"":6,""time"":29055}]",NA,NA,NA,NA,NA,6,#741CD8,#D8271C,0,10,0,40,0,1064,39,0,469,10,1,experiment,NA,NA,0,0.1,0.9,1,0,88,2,NA
fcp-trial,136,767198,0.0-97.0-0.0,voc_e2,12088,"[{""event"":""focus"",""trial"":0,""time"":0},{""event"":""blur"",""trial"":1,""time"":1689},{""event"":""focus"",""trial"":1,""time"":1704},{""event"":""fullscreenenter"",""trial"":1,""time"":1707},{""event"":""blur"",""trial"":6,""time"":27133},{""event"":""focus"",""trial"":6,""time"":29055}]",NA,NA,NA,NA,NA,4,#D89F1C,#3386FF,10,0,0,40,0,708,39,0,461,0,1,experiment,NA,NA,1,0.3,0.7,3,2,89,2,NA
fcp-trial,137,769938,0.0-98.0-0.0,voc_e2,12088,"[{""event"":""focus"",""trial"":0,""time"":0},{""event"":""blur"",""trial"":1,""time"":1689},{""event"":""focus"",""trial"":1,""time"":1704},{""event"":""fullscreenenter"",""trial"":1,""time"":1707},{""event"":""blur"",""trial"":6,""time"":27133},{""event"":""focus"",""trial"":6,""time"":29055}]",NA,NA,NA,NA,NA,5,#741CD8,#D8271C,0,10,0,40,0,664,37,1,566,0,0,experiment,NA,NA,0,0.1,0.9,1,0,90,2,NA
fcp-trial,138,772906,0.0-99.0-0.0,voc_e2,12088,"[{""event"":""focus"",""trial"":0,""time"":0},{""event"":""blur"",""trial"":1,""time"":1689},{""event"":""focus"",""trial"":1,""time"":1704},{""event"":""fullscreenenter"",""trial"":1,""time"":1707},{""event"":""blur"",""trial"":6,""time"":27133},{""event"":""focus"",""trial"":6,""time"":29055}]",NA,NA,NA,NA,NA,2,#FA92F8,#1CD855,0,10,1,38,1,899,39,0,555,10,0,experiment,NA,NA,2,0.5,0.5,4,5,91,3,NA
fcp-trial,139,775546,0.0-100.0-0.0,voc_e2,12088,"[{""event"":""focus"",""trial"":0,""time"":0},{""event"":""blur"",""trial"":1,""time"":1689},{""event"":""focus"",""trial"":1,""time"":1704},{""event"":""fullscreenenter"",""trial"":1,""time"":1707},{""event"":""blur"",""trial"":6,""time"":27133},{""event"":""focus"",""trial"":6,""time"":29055}]",NA,NA,NA,NA,NA,6,#1CD855,#FA92F8,10,0,0,40,0,629,39,0,498,0,1,experiment,NA,NA,2,0.5,0.5,5,4,92,3,NA
fcp-trial,140,779232,0.0-101.0-0.0,voc_e2,12088,"[{""event"":""focus"",""trial"":0,""time"":0},{""event"":""blur"",""trial"":1,""time"":1689},{""event"":""focus"",""trial"":1,""time"":1704},{""event"":""fullscreenenter"",""trial"":1,""time"":1707},{""event"":""blur"",""trial"":6,""time"":27133},{""event"":""focus"",""trial"":6,""time"":29055}]",NA,NA,NA,NA,NA,2,#3386FF,#D89F1C,0,10,1,38,1,1026,39,0,1145,10,0,experiment,NA,NA,1,0.7,0.3,2,3,93,3,NA
fcp-trial,141,782540,0.0-102.0-0.0,voc_e2,12088,"[{""event"":""focus"",""trial"":0,""time"":0},{""event"":""blur"",""trial"":1,""time"":1689},{""event"":""focus"",""trial"":1,""time"":1704},{""event"":""fullscreenenter"",""trial"":1,""time"":1707},{""event"":""blur"",""trial"":6,""time"":27133},{""event"":""focus"",""trial"":6,""time"":29055}]",NA,NA,NA,NA,NA,3,#D8271C,#741CD8,10,10,1,40,0,1255,37,1,540,10,1,experiment,NA,NA,0,0.9,0.1,0,1,94,3,NA
fcp-trial,142,786885,0.0-103.0-0.0,voc_e2,12088,"[{""event"":""focus"",""trial"":0,""time"":0},{""event"":""blur"",""trial"":1,""time"":1689},{""event"":""focus"",""trial"":1,""time"":1704},{""event"":""fullscreenenter"",""trial"":1,""time"":1707},{""event"":""blur"",""trial"":6,""time"":27133},{""event"":""focus"",""trial"":6,""time"":29055}]",NA,NA,NA,NA,NA,6,#D89F1C,#3386FF,10,0,0,40,0,2272,39,0,556,0,1,experiment,NA,NA,1,0.3,0.7,3,2,95,3,NA
fcp-trial,143,790104,0.0-104.0-0.0,voc_e2,12088,"[{""event"":""focus"",""trial"":0,""time"":0},{""event"":""blur"",""trial"":1,""time"":1689},{""event"":""focus"",""trial"":1,""time"":1704},{""event"":""fullscreenenter"",""trial"":1,""time"":1707},{""event"":""blur"",""trial"":6,""time"":27133},{""event"":""focus"",""trial"":6,""time"":29055}]",NA,NA,NA,NA,NA,2,#741CD8,#D8271C,0,0,0,38,1,1179,39,0,531,0,1,experiment,NA,NA,0,0.1,0.9,1,0,96,3,NA
fcp-trial,144,793175,0.0-105.0-0.0,voc_e2,12088,"[{""event"":""focus"",""trial"":0,""time"":0},{""event"":""blur"",""trial"":1,""time"":1689},{""event"":""focus"",""trial"":1,""time"":1704},{""event"":""fullscreenenter"",""trial"":1,""time"":1707},{""event"":""blur"",""trial"":6,""time"":27133},{""event"":""focus"",""trial"":6,""time"":29055}]",NA,NA,NA,NA,NA,1,#FA92F8,#1CD855,10,10,1,38,1,1077,39,0,480,10,0,experiment,NA,NA,2,0.5,0.5,4,5,97,3,NA
fcp-trial,145,795940,0.0-106.0-0.0,voc_e2,12088,"[{""event"":""focus"",""trial"":0,""time"":0},{""event"":""blur"",""trial"":1,""time"":1689},{""event"":""focus"",""trial"":1,""time"":1704},{""event"":""fullscreenenter"",""trial"":1,""time"":1707},{""event"":""blur"",""trial"":6,""time"":27133},{""event"":""focus"",""trial"":6,""time"":29055}]",NA,NA,NA,NA,NA,4,#1CD855,#FA92F8,10,10,0,40,0,719,39,0,536,10,1,experiment,NA,NA,2,0.5,0.5,5,4,98,3,NA
fcp-trial,146,799584,0.0-107.0-0.0,voc_e2,12088,"[{""event"":""focus"",""trial"":0,""time"":0},{""event"":""blur"",""trial"":1,""time"":1689},{""event"":""focus"",""trial"":1,""time"":1704},{""event"":""fullscreenenter"",""trial"":1,""time"":1707},{""event"":""blur"",""trial"":6,""time"":27133},{""event"":""focus"",""trial"":6,""time"":29055}]",NA,NA,NA,NA,NA,3,#1CD855,#FA92F8,10,0,0,40,0,1584,39,0,514,0,1,experiment,NA,NA,2,0.5,0.5,5,4,99,3,NA
fcp-trial,147,802588,0.0-108.0-0.0,voc_e2,12088,"[{""event"":""focus"",""trial"":0,""time"":0},{""event"":""blur"",""trial"":1,""time"":1689},{""event"":""focus"",""trial"":1,""time"":1704},{""event"":""fullscreenenter"",""trial"":1,""time"":1707},{""event"":""blur"",""trial"":6,""time"":27133},{""event"":""focus"",""trial"":6,""time"":29055}]",NA,NA,NA,NA,NA,1,#3386FF,#D89F1C,0,0,1,38,1,897,39,0,599,0,0,experiment,NA,NA,1,0.7,0.3,2,3,100,3,NA
fcp-trial,148,805977,0.0-109.0-0.0,voc_e2,12088,"[{""event"":""focus"",""trial"":0,""time"":0},{""event"":""blur"",""trial"":1,""time"":1689},{""event"":""focus"",""trial"":1,""time"":1704},{""event"":""fullscreenenter"",""trial"":1,""time"":1707},{""event"":""blur"",""trial"":6,""time"":27133},{""event"":""focus"",""trial"":6,""time"":29055}]",NA,NA,NA,NA,NA,1,#D8271C,#741CD8,10,0,1,38,1,1413,37,1,466,10,1,experiment,NA,NA,0,0.9,0.1,0,1,101,3,NA
fcp-trial,149,808982,0.0-110.0-0.0,voc_e2,12088,"[{""event"":""focus"",""trial"":0,""time"":0},{""event"":""blur"",""trial"":1,""time"":1689},{""event"":""focus"",""trial"":1,""time"":1704},{""event"":""fullscreenenter"",""trial"":1,""time"":1707},{""event"":""blur"",""trial"":6,""time"":27133},{""event"":""focus"",""trial"":6,""time"":29055}]",NA,NA,NA,NA,NA,3,#D89F1C,#3386FF,0,10,0,40,0,1006,37,1,480,0,0,experiment,NA,NA,1,0.3,0.7,3,2,102,3,NA
fcp-trial,150,811809,0.0-111.0-0.0,voc_e2,12088,"[{""event"":""focus"",""trial"":0,""time"":0},{""event"":""blur"",""trial"":1,""time"":1689},{""event"":""focus"",""trial"":1,""time"":1704},{""event"":""fullscreenenter"",""trial"":1,""time"":1707},{""event"":""blur"",""trial"":6,""time"":27133},{""event"":""focus"",""trial"":6,""time"":29055}]",NA,NA,NA,NA,NA,0,#1CD855,#FA92F8,0,10,0,38,1,842,37,1,472,0,0,experiment,NA,NA,2,0.5,0.5,5,4,103,3,NA
fcp-trial,151,814392,0.0-112.0-0.0,voc_e2,12088,"[{""event"":""focus"",""trial"":0,""time"":0},{""event"":""blur"",""trial"":1,""time"":1689},{""event"":""focus"",""trial"":1,""time"":1704},{""event"":""fullscreenenter"",""trial"":1,""time"":1707},{""event"":""blur"",""trial"":6,""time"":27133},{""event"":""focus"",""trial"":6,""time"":29055}]",NA,NA,NA,NA,NA,5,#1CD855,#FA92F8,10,10,0,40,0,637,37,1,435,10,0,experiment,NA,NA,2,0.5,0.5,5,4,104,3,NA
fcp-trial,152,818205,0.0-113.0-0.0,voc_e2,12088,"[{""event"":""focus"",""trial"":0,""time"":0},{""event"":""blur"",""trial"":1,""time"":1689},{""event"":""focus"",""trial"":1,""time"":1704},{""event"":""fullscreenenter"",""trial"":1,""time"":1707},{""event"":""blur"",""trial"":6,""time"":27133},{""event"":""focus"",""trial"":6,""time"":29055}]",NA,NA,NA,NA,NA,0,#3386FF,#D89F1C,10,0,1,38,1,744,39,0,1560,0,0,experiment,NA,NA,1,0.7,0.3,2,3,105,3,NA
audio-instructions,153,825420,0.0-114.0,voc_e2,12088,"[{""event"":""focus"",""trial"":0,""time"":0},{""event"":""blur"",""trial"":1,""time"":1689},{""event"":""focus"",""trial"":1,""time"":1704},{""event"":""fullscreenenter"",""trial"":1,""time"":1707},{""event"":""blur"",""trial"":6,""time"":27133},{""event"":""focus"",""trial"":6,""time"":29055}]",NA,2761,static/audio/pause.wav,NA,0,NA,NA,NA,NA,NA,NA,NA,NA,NA,NA,NA,NA,NA,NA,NA,NA,NA,NA,NA,NA,NA,NA,NA,NA,NA
fcp-trial,154,828444,0.0-115.0-0.0,voc_e2,12088,"[{""event"":""focus"",""trial"":0,""time"":0},{""event"":""blur"",""trial"":1,""time"":1689},{""event"":""focus"",""trial"":1,""time"":1704},{""event"":""fullscreenenter"",""trial"":1,""time"":1707},{""event"":""blur"",""trial"":6,""time"":27133},{""event"":""focus"",""trial"":6,""time"":29055}]",NA,NA,NA,NA,NA,2,#FA92F8,#1CD855,10,10,1,38,1,1170,39,0,341,10,0,experiment,NA,NA,2,0.5,0.5,4,5,106,3,NA
fcp-trial,155,831316,0.0-116.0-0.0,voc_e2,12088,"[{""event"":""focus"",""trial"":0,""time"":0},{""event"":""blur"",""trial"":1,""time"":1689},{""event"":""focus"",""trial"":1,""time"":1704},{""event"":""fullscreenenter"",""trial"":1,""time"":1707},{""event"":""blur"",""trial"":6,""time"":27133},{""event"":""focus"",""trial"":6,""time"":29055}]",NA,NA,NA,NA,NA,1,#D8271C,#741CD8,10,10,1,38,1,992,37,1,361,10,1,experiment,NA,NA,0,0.9,0.1,0,1,107,3,NA
fcp-trial,156,834466,0.0-117.0-0.0,voc_e2,12088,"[{""event"":""focus"",""trial"":0,""time"":0},{""event"":""blur"",""trial"":1,""time"":1689},{""event"":""focus"",""trial"":1,""time"":1704},{""event"":""fullscreenenter"",""trial"":1,""time"":1707},{""event"":""blur"",""trial"":6,""time"":27133},{""event"":""focus"",""trial"":6,""time"":29055}]",NA,NA,NA,NA,NA,2,#741CD8,#D8271C,0,10,0,38,1,1266,39,0,375,10,1,experiment,NA,NA,0,0.1,0.9,1,0,108,3,NA
fcp-trial,157,837461,0.0-118.0-0.0,voc_e2,12088,"[{""event"":""focus"",""trial"":0,""time"":0},{""event"":""blur"",""trial"":1,""time"":1689},{""event"":""focus"",""trial"":1,""time"":1704},{""event"":""fullscreenenter"",""trial"":1,""time"":1707},{""event"":""blur"",""trial"":6,""time"":27133},{""event"":""focus"",""trial"":6,""time"":29055}]",NA,NA,NA,NA,NA,5,#741CD8,#D8271C,0,10,0,40,0,985,39,0,462,10,1,experiment,NA,NA,0,0.1,0.9,1,0,109,3,NA
fcp-trial,158,840271,0.0-119.0-0.0,voc_e2,12088,"[{""event"":""focus"",""trial"":0,""time"":0},{""event"":""blur"",""trial"":1,""time"":1689},{""event"":""focus"",""trial"":1,""time"":1704},{""event"":""fullscreenenter"",""trial"":1,""time"":1707},{""event"":""blur"",""trial"":6,""time"":27133},{""event"":""focus"",""trial"":6,""time"":29055}]",NA,NA,NA,NA,NA,5,#3386FF,#D89F1C,10,0,1,40,0,783,39,0,517,0,0,experiment,NA,NA,1,0.7,0.3,2,3,110,3,NA
fcp-trial,159,843158,0.0-120.0-0.0,voc_e2,12088,"[{""event"":""focus"",""trial"":0,""time"":0},{""event"":""blur"",""trial"":1,""time"":1689},{""event"":""focus"",""trial"":1,""time"":1704},{""event"":""fullscreenenter"",""trial"":1,""time"":1707},{""event"":""blur"",""trial"":6,""time"":27133},{""event"":""focus"",""trial"":6,""time"":29055}]",NA,NA,NA,NA,NA,0,#1CD855,#FA92F8,10,10,0,38,1,909,37,1,467,10,0,experiment,NA,NA,2,0.5,0.5,5,4,111,3,NA
fcp-trial,160,846609,0.0-121.0-0.0,voc_e2,12088,"[{""event"":""focus"",""trial"":0,""time"":0},{""event"":""blur"",""trial"":1,""time"":1689},{""event"":""focus"",""trial"":1,""time"":1704},{""event"":""fullscreenenter"",""trial"":1,""time"":1707},{""event"":""blur"",""trial"":6,""time"":27133},{""event"":""focus"",""trial"":6,""time"":29055}]",NA,NA,NA,NA,NA,1,#3386FF,#D89F1C,10,0,1,38,1,746,39,0,1191,0,0,experiment,NA,NA,1,0.7,0.3,2,3,112,3,NA
fcp-trial,161,850320,0.0-122.0-0.0,voc_e2,12088,"[{""event"":""focus"",""trial"":0,""time"":0},{""event"":""blur"",""trial"":1,""time"":1689},{""event"":""focus"",""trial"":1,""time"":1704},{""event"":""fullscreenenter"",""trial"":1,""time"":1707},{""event"":""blur"",""trial"":6,""time"":27133},{""event"":""focus"",""trial"":6,""time"":29055}]",NA,NA,NA,NA,NA,3,#D8271C,#741CD8,10,0,1,40,0,1539,37,1,660,10,1,experiment,NA,NA,0,0.9,0.1,0,1,113,3,NA
fcp-trial,162,853278,0.0-123.0-0.0,voc_e2,12088,"[{""event"":""focus"",""trial"":0,""time"":0},{""event"":""blur"",""trial"":1,""time"":1689},{""event"":""focus"",""trial"":1,""time"":1704},{""event"":""fullscreenenter"",""trial"":1,""time"":1707},{""event"":""blur"",""trial"":6,""time"":27133},{""event"":""focus"",""trial"":6,""time"":29055}]",NA,NA,NA,NA,NA,5,#FA92F8,#1CD855,0,0,1,40,0,1062,39,0,388,0,0,experiment,NA,NA,2,0.5,0.5,4,5,114,3,NA
fcp-trial,163,858160,0.0-124.0-0.0,voc_e2,12088,"[{""event"":""focus"",""trial"":0,""time"":0},{""event"":""blur"",""trial"":1,""time"":1689},{""event"":""focus"",""trial"":1,""time"":1704},{""event"":""fullscreenenter"",""trial"":1,""time"":1707},{""event"":""blur"",""trial"":6,""time"":27133},{""event"":""focus"",""trial"":6,""time"":29055}]",NA,NA,NA,NA,NA,0,#3386FF,#D89F1C,10,10,1,38,1,795,37,1,2575,10,1,experiment,NA,NA,1,0.7,0.3,2,3,115,3,NA
fcp-trial,164,860906,0.0-125.0-0.0,voc_e2,12088,"[{""event"":""focus"",""trial"":0,""time"":0},{""event"":""blur"",""trial"":1,""time"":1689},{""event"":""focus"",""trial"":1,""time"":1704},{""event"":""fullscreenenter"",""trial"":1,""time"":1707},{""event"":""blur"",""trial"":6,""time"":27133},{""event"":""focus"",""trial"":6,""time"":29055}]",NA,NA,NA,NA,NA,4,#1CD855,#FA92F8,0,0,0,40,0,792,37,1,450,0,0,experiment,NA,NA,2,0.5,0.5,5,4,116,3,NA
fcp-trial,165,863681,0.0-126.0-0.0,voc_e2,12088,"[{""event"":""focus"",""trial"":0,""time"":0},{""event"":""blur"",""trial"":1,""time"":1689},{""event"":""focus"",""trial"":1,""time"":1704},{""event"":""fullscreenenter"",""trial"":1,""time"":1707},{""event"":""blur"",""trial"":6,""time"":27133},{""event"":""focus"",""trial"":6,""time"":29055}]",NA,NA,NA,NA,NA,0,#741CD8,#D8271C,0,10,0,38,1,809,39,0,460,10,1,experiment,NA,NA,0,0.1,0.9,1,0,117,3,NA
fcp-trial,166,866592,0.0-127.0-0.0,voc_e2,12088,"[{""event"":""focus"",""trial"":0,""time"":0},{""event"":""blur"",""trial"":1,""time"":1689},{""event"":""focus"",""trial"":1,""time"":1704},{""event"":""fullscreenenter"",""trial"":1,""time"":1707},{""event"":""blur"",""trial"":6,""time"":27133},{""event"":""focus"",""trial"":6,""time"":29055}]",NA,NA,NA,NA,NA,4,#3386FF,#D89F1C,10,0,1,40,0,878,39,0,521,0,0,experiment,NA,NA,1,0.7,0.3,2,3,118,3,NA
fcp-trial,167,869501,0.0-128.0-0.0,voc_e2,12088,"[{""event"":""focus"",""trial"":0,""time"":0},{""event"":""blur"",""trial"":1,""time"":1689},{""event"":""focus"",""trial"":1,""time"":1704},{""event"":""fullscreenenter"",""trial"":1,""time"":1707},{""event"":""blur"",""trial"":6,""time"":27133},{""event"":""focus"",""trial"":6,""time"":29055}]",NA,NA,NA,NA,NA,6,#D89F1C,#3386FF,0,0,0,40,0,848,37,1,550,0,0,experiment,NA,NA,1,0.3,0.7,3,2,119,3,NA
fcp-trial,168,873707,0.0-129.0-0.0,voc_e2,12088,"[{""event"":""focus"",""trial"":0,""time"":0},{""event"":""blur"",""trial"":1,""time"":1689},{""event"":""focus"",""trial"":1,""time"":1704},{""event"":""fullscreenenter"",""trial"":1,""time"":1707},{""event"":""blur"",""trial"":6,""time"":27133},{""event"":""focus"",""trial"":6,""time"":29055}]",NA,NA,NA,NA,NA,3,#FA92F8,#1CD855,10,0,1,40,0,1619,37,1,1073,10,1,experiment,NA,NA,2,0.5,0.5,4,5,120,3,NA
fcp-trial,169,876481,0.0-130.0-0.0,voc_e2,12088,"[{""event"":""focus"",""trial"":0,""time"":0},{""event"":""blur"",""trial"":1,""time"":1689},{""event"":""focus"",""trial"":1,""time"":1704},{""event"":""fullscreenenter"",""trial"":1,""time"":1707},{""event"":""blur"",""trial"":6,""time"":27133},{""event"":""focus"",""trial"":6,""time"":29055}]",NA,NA,NA,NA,NA,6,#1CD855,#FA92F8,10,10,0,40,0,727,39,0,534,10,1,experiment,NA,NA,2,0.5,0.5,5,4,121,3,NA
fcp-trial,170,879884,0.0-131.0-0.0,voc_e2,12088,"[{""event"":""focus"",""trial"":0,""time"":0},{""event"":""blur"",""trial"":1,""time"":1689},{""event"":""focus"",""trial"":1,""time"":1704},{""event"":""fullscreenenter"",""trial"":1,""time"":1707},{""event"":""blur"",""trial"":6,""time"":27133},{""event"":""focus"",""trial"":6,""time"":29055}]",NA,NA,NA,NA,NA,6,#741CD8,#D8271C,0,10,0,40,0,1141,37,1,750,0,0,experiment,NA,NA,0,0.1,0.9,1,0,122,3,NA
fcp-trial,171,882855,0.0-132.0-0.0,voc_e2,12088,"[{""event"":""focus"",""trial"":0,""time"":0},{""event"":""blur"",""trial"":1,""time"":1689},{""event"":""focus"",""trial"":1,""time"":1704},{""event"":""fullscreenenter"",""trial"":1,""time"":1707},{""event"":""blur"",""trial"":6,""time"":27133},{""event"":""focus"",""trial"":6,""time"":29055}]",NA,NA,NA,NA,NA,1,#FA92F8,#1CD855,10,10,1,38,1,979,39,0,477,10,0,experiment,NA,NA,2,0.5,0.5,4,5,123,3,NA
fcp-trial,172,888072,0.0-133.0-0.0,voc_e2,12088,"[{""event"":""focus"",""trial"":0,""time"":0},{""event"":""blur"",""trial"":1,""time"":1689},{""event"":""focus"",""trial"":1,""time"":1704},{""event"":""fullscreenenter"",""trial"":1,""time"":1707},{""event"":""blur"",""trial"":6,""time"":27133},{""event"":""focus"",""trial"":6,""time"":29055}]",NA,NA,NA,NA,NA,2,#D89F1C,#3386FF,0,10,0,38,1,2039,39,0,1673,10,1,experiment,NA,NA,1,0.3,0.7,3,2,124,3,NA
fcp-trial,173,890866,0.0-134.0-0.0,voc_e2,12088,"[{""event"":""focus"",""trial"":0,""time"":0},{""event"":""blur"",""trial"":1,""time"":1689},{""event"":""focus"",""trial"":1,""time"":1704},{""event"":""fullscreenenter"",""trial"":1,""time"":1707},{""event"":""blur"",""trial"":6,""time"":27133},{""event"":""focus"",""trial"":6,""time"":29055}]",NA,NA,NA,NA,NA,4,#D8271C,#741CD8,10,10,1,40,0,835,37,1,447,10,1,experiment,NA,NA,0,0.9,0.1,0,1,125,3,NA
fcp-trial,174,893699,0.0-135.0-0.0,voc_e2,12088,"[{""event"":""focus"",""trial"":0,""time"":0},{""event"":""blur"",""trial"":1,""time"":1689},{""event"":""focus"",""trial"":1,""time"":1704},{""event"":""fullscreenenter"",""trial"":1,""time"":1707},{""event"":""blur"",""trial"":6,""time"":27133},{""event"":""focus"",""trial"":6,""time"":29055}]",NA,NA,NA,NA,NA,3,#3386FF,#D89F1C,0,0,1,40,0,849,37,1,472,0,1,experiment,NA,NA,1,0.7,0.3,2,3,126,3,NA
fcp-trial,175,896566,0.0-136.0-0.0,voc_e2,12088,"[{""event"":""focus"",""trial"":0,""time"":0},{""event"":""blur"",""trial"":1,""time"":1689},{""event"":""focus"",""trial"":1,""time"":1704},{""event"":""fullscreenenter"",""trial"":1,""time"":1707},{""event"":""blur"",""trial"":6,""time"":27133},{""event"":""focus"",""trial"":6,""time"":29055}]",NA,NA,NA,NA,NA,0,#1CD855,#FA92F8,0,0,0,38,1,982,37,1,368,0,0,experiment,NA,NA,2,0.5,0.5,5,4,127,3,NA
fcp-trial,176,899782,0.0-137.0-0.0,voc_e2,12088,"[{""event"":""focus"",""trial"":0,""time"":0},{""event"":""blur"",""trial"":1,""time"":1689},{""event"":""focus"",""trial"":1,""time"":1704},{""event"":""fullscreenenter"",""trial"":1,""time"":1707},{""event"":""blur"",""trial"":6,""time"":27133},{""event"":""focus"",""trial"":6,""time"":29055}]",NA,NA,NA,NA,NA,5,#1CD855,#FA92F8,0,0,0,40,0,1100,39,0,602,0,1,experiment,NA,NA,2,0.5,0.5,5,4,128,3,NA
fcp-trial,177,903837,0.0-138.0-0.0,voc_e2,12088,"[{""event"":""focus"",""trial"":0,""time"":0},{""event"":""blur"",""trial"":1,""time"":1689},{""event"":""focus"",""trial"":1,""time"":1704},{""event"":""fullscreenenter"",""trial"":1,""time"":1707},{""event"":""blur"",""trial"":6,""time"":27133},{""event"":""focus"",""trial"":6,""time"":29055}]",NA,NA,NA,NA,NA,3,#D8271C,#741CD8,10,0,1,40,0,2016,39,0,525,0,0,experiment,NA,NA,0,0.9,0.1,0,1,129,3,NA
fcp-trial,178,906646,0.0-139.0-0.0,voc_e2,12088,"[{""event"":""focus"",""trial"":0,""time"":0},{""event"":""blur"",""trial"":1,""time"":1689},{""event"":""focus"",""trial"":1,""time"":1704},{""event"":""fullscreenenter"",""trial"":1,""time"":1707},{""event"":""blur"",""trial"":6,""time"":27133},{""event"":""focus"",""trial"":6,""time"":29055}]",NA,NA,NA,NA,NA,6,#D89F1C,#3386FF,0,10,0,40,0,715,37,1,585,0,0,experiment,NA,NA,1,0.3,0.7,3,2,130,3,NA
fcp-trial,179,911099,0.0-140.0-0.0,voc_e2,12088,"[{""event"":""focus"",""trial"":0,""time"":0},{""event"":""blur"",""trial"":1,""time"":1689},{""event"":""focus"",""trial"":1,""time"":1704},{""event"":""fullscreenenter"",""trial"":1,""time"":1707},{""event"":""blur"",""trial"":6,""time"":27133},{""event"":""focus"",""trial"":6,""time"":29055}]",NA,NA,NA,NA,NA,4,#FA92F8,#1CD855,0,0,1,40,0,2421,37,1,516,0,1,experiment,NA,NA,2,0.5,0.5,4,5,131,3,NA
fcp-trial,180,913693,0.0-141.0-0.0,voc_e2,12088,"[{""event"":""focus"",""trial"":0,""time"":0},{""event"":""blur"",""trial"":1,""time"":1689},{""event"":""focus"",""trial"":1,""time"":1704},{""event"":""fullscreenenter"",""trial"":1,""time"":1707},{""event"":""blur"",""trial"":6,""time"":27133},{""event"":""focus"",""trial"":6,""time"":29055}]",NA,NA,NA,NA,NA,4,#D8271C,#741CD8,10,0,1,40,0,585,37,1,494,10,1,experiment,NA,NA,0,0.9,0.1,0,1,132,3,NA
fcp-trial,181,916477,0.0-142.0-0.0,voc_e2,12088,"[{""event"":""focus"",""trial"":0,""time"":0},{""event"":""blur"",""trial"":1,""time"":1689},{""event"":""focus"",""trial"":1,""time"":1704},{""event"":""fullscreenenter"",""trial"":1,""time"":1707},{""event"":""blur"",""trial"":6,""time"":27133},{""event"":""focus"",""trial"":6,""time"":29055}]",NA,NA,NA,NA,NA,5,#3386FF,#D89F1C,0,10,1,40,0,743,39,0,529,10,0,experiment,NA,NA,1,0.7,0.3,2,3,133,3,NA
fcp-trial,182,921051,0.0-143.0-0.0,voc_e2,12088,"[{""event"":""focus"",""trial"":0,""time"":0},{""event"":""blur"",""trial"":1,""time"":1689},{""event"":""focus"",""trial"":1,""time"":1704},{""event"":""fullscreenenter"",""trial"":1,""time"":1707},{""event"":""blur"",""trial"":6,""time"":27133},{""event"":""focus"",""trial"":6,""time"":29055}]",NA,NA,NA,NA,NA,1,#3386FF,#D89F1C,10,10,1,38,1,1829,37,1,1231,10,1,experiment,NA,NA,1,0.7,0.3,2,3,134,3,NA
fcp-trial,183,924017,0.0-144.0-0.0,voc_e2,12088,"[{""event"":""focus"",""trial"":0,""time"":0},{""event"":""blur"",""trial"":1,""time"":1689},{""event"":""focus"",""trial"":1,""time"":1704},{""event"":""fullscreenenter"",""trial"":1,""time"":1707},{""event"":""blur"",""trial"":6,""time"":27133},{""event"":""focus"",""trial"":6,""time"":29055}]",NA,NA,NA,NA,NA,0,#741CD8,#D8271C,0,0,0,38,1,957,39,0,495,0,1,experiment,NA,NA,0,0.1,0.9,1,0,135,3,NA
fcp-trial,184,926841,0.0-145.0-0.0,voc_e2,12088,"[{""event"":""focus"",""trial"":0,""time"":0},{""event"":""blur"",""trial"":1,""time"":1689},{""event"":""focus"",""trial"":1,""time"":1704},{""event"":""fullscreenenter"",""trial"":1,""time"":1707},{""event"":""blur"",""trial"":6,""time"":27133},{""event"":""focus"",""trial"":6,""time"":29055}]",NA,NA,NA,NA,NA,1,#1CD855,#FA92F8,0,0,0,38,1,864,37,1,433,0,0,experiment,NA,NA,2,0.5,0.5,5,4,136,4,NA
fcp-trial,185,929631,0.0-146.0-0.0,voc_e2,12088,"[{""event"":""focus"",""trial"":0,""time"":0},{""event"":""blur"",""trial"":1,""time"":1689},{""event"":""focus"",""trial"":1,""time"":1704},{""event"":""fullscreenenter"",""trial"":1,""time"":1707},{""event"":""blur"",""trial"":6,""time"":27133},{""event"":""focus"",""trial"":6,""time"":29055}]",NA,NA,NA,NA,NA,2,#1CD855,#FA92F8,10,0,0,38,1,826,37,1,456,10,0,experiment,NA,NA,2,0.5,0.5,5,4,137,4,NA
fcp-trial,186,932897,0.0-147.0-0.0,voc_e2,12088,"[{""event"":""focus"",""trial"":0,""time"":0},{""event"":""blur"",""trial"":1,""time"":1689},{""event"":""focus"",""trial"":1,""time"":1704},{""event"":""fullscreenenter"",""trial"":1,""time"":1707},{""event"":""blur"",""trial"":6,""time"":27133},{""event"":""focus"",""trial"":6,""time"":29055}]",NA,NA,NA,NA,NA,3,#3386FF,#D89F1C,0,0,1,40,0,1299,39,0,454,0,0,experiment,NA,NA,1,0.7,0.3,2,3,138,4,NA
fcp-trial,187,935672,0.0-148.0-0.0,voc_e2,12088,"[{""event"":""focus"",""trial"":0,""time"":0},{""event"":""blur"",""trial"":1,""time"":1689},{""event"":""focus"",""trial"":1,""time"":1704},{""event"":""fullscreenenter"",""trial"":1,""time"":1707},{""event"":""blur"",""trial"":6,""time"":27133},{""event"":""focus"",""trial"":6,""time"":29055}]",NA,NA,NA,NA,NA,4,#D89F1C,#3386FF,10,0,0,40,0,776,39,0,486,0,1,experiment,NA,NA,1,0.3,0.7,3,2,139,4,NA
fcp-trial,188,938362,0.0-149.0-0.0,voc_e2,12088,"[{""event"":""focus"",""trial"":0,""time"":0},{""event"":""blur"",""trial"":1,""time"":1689},{""event"":""focus"",""trial"":1,""time"":1704},{""event"":""fullscreenenter"",""trial"":1,""time"":1707},{""event"":""blur"",""trial"":6,""time"":27133},{""event"":""focus"",""trial"":6,""time"":29055}]",NA,NA,NA,NA,NA,1,#741CD8,#D8271C,0,10,0,38,1,714,39,0,465,10,1,experiment,NA,NA,0,0.1,0.9,1,0,140,4,NA
fcp-trial,189,941628,0.0-150.0-0.0,voc_e2,12088,"[{""event"":""focus"",""trial"":0,""time"":0},{""event"":""blur"",""trial"":1,""time"":1689},{""event"":""focus"",""trial"":1,""time"":1704},{""event"":""fullscreenenter"",""trial"":1,""time"":1707},{""event"":""blur"",""trial"":6,""time"":27133},{""event"":""focus"",""trial"":6,""time"":29055}]",NA,NA,NA,NA,NA,6,#741CD8,#D8271C,0,10,0,40,0,1240,39,0,512,10,1,experiment,NA,NA,0,0.1,0.9,1,0,141,4,NA
fcp-trial,190,944744,0.0-151.0-0.0,voc_e2,12088,"[{""event"":""focus"",""trial"":0,""time"":0},{""event"":""blur"",""trial"":1,""time"":1689},{""event"":""focus"",""trial"":1,""time"":1704},{""event"":""fullscreenenter"",""trial"":1,""time"":1707},{""event"":""blur"",""trial"":6,""time"":27133},{""event"":""focus"",""trial"":6,""time"":29055}]",NA,NA,NA,NA,NA,6,#1CD855,#FA92F8,0,10,0,40,0,1114,37,1,490,0,0,experiment,NA,NA,2,0.5,0.5,5,4,142,4,NA
fcp-trial,191,948178,0.0-152.0-0.0,voc_e2,12088,"[{""event"":""focus"",""trial"":0,""time"":0},{""event"":""blur"",""trial"":1,""time"":1689},{""event"":""focus"",""trial"":1,""time"":1704},{""event"":""fullscreenenter"",""trial"":1,""time"":1707},{""event"":""blur"",""trial"":6,""time"":27133},{""event"":""focus"",""trial"":6,""time"":29055}]",NA,NA,NA,NA,NA,0,#3386FF,#D89F1C,0,0,1,38,1,1476,37,1,447,0,1,experiment,NA,NA,1,0.7,0.3,2,3,143,4,NA
fcp-trial,192,951644,0.0-153.0-0.0,voc_e2,12088,"[{""event"":""focus"",""trial"":0,""time"":0},{""event"":""blur"",""trial"":1,""time"":1689},{""event"":""focus"",""trial"":1,""time"":1704},{""event"":""fullscreenenter"",""trial"":1,""time"":1707},{""event"":""blur"",""trial"":6,""time"":27133},{""event"":""focus"",""trial"":6,""time"":29055}]",NA,NA,NA,NA,NA,2,#741CD8,#D8271C,0,10,0,38,1,1007,39,0,945,10,1,experiment,NA,NA,0,0.1,0.9,1,0,144,4,NA
fcp-trial,193,955270,0.0-154.0-0.0,voc_e2,12088,"[{""event"":""focus"",""trial"":0,""time"":0},{""event"":""blur"",""trial"":1,""time"":1689},{""event"":""focus"",""trial"":1,""time"":1704},{""event"":""fullscreenenter"",""trial"":1,""time"":1707},{""event"":""blur"",""trial"":6,""time"":27133},{""event"":""focus"",""trial"":6,""time"":29055}]",NA,NA,NA,NA,NA,2,#D89F1C,#3386FF,10,10,0,38,1,1097,39,0,1004,10,1,experiment,NA,NA,1,0.3,0.7,3,2,145,4,NA
fcp-trial,194,958228,0.0-155.0-0.0,voc_e2,12088,"[{""event"":""focus"",""trial"":0,""time"":0},{""event"":""blur"",""trial"":1,""time"":1689},{""event"":""focus"",""trial"":1,""time"":1704},{""event"":""fullscreenenter"",""trial"":1,""time"":1707},{""event"":""blur"",""trial"":6,""time"":27133},{""event"":""focus"",""trial"":6,""time"":29055}]",NA,NA,NA,NA,NA,5,#D8271C,#741CD8,10,0,1,38,1,553,37,1,891,10,1,experiment,NA,NA,0,0.9,0.1,0,1,146,4,NA
fcp-trial,195,961278,0.0-156.0-0.0,voc_e2,12088,"[{""event"":""focus"",""trial"":0,""time"":0},{""event"":""blur"",""trial"":1,""time"":1689},{""event"":""focus"",""trial"":1,""time"":1704},{""event"":""fullscreenenter"",""trial"":1,""time"":1707},{""event"":""blur"",""trial"":6,""time"":27133},{""event"":""focus"",""trial"":6,""time"":29055}]",NA,NA,NA,NA,NA,3,#FA92F8,#1CD855,10,0,1,40,0,1108,39,0,428,0,0,experiment,NA,NA,2,0.5,0.5,4,5,147,4,NA
fcp-trial,196,964572,0.0-157.0-0.0,voc_e2,12088,"[{""event"":""focus"",""trial"":0,""time"":0},{""event"":""blur"",""trial"":1,""time"":1689},{""event"":""focus"",""trial"":1,""time"":1704},{""event"":""fullscreenenter"",""trial"":1,""time"":1707},{""event"":""blur"",""trial"":6,""time"":27133},{""event"":""focus"",""trial"":6,""time"":29055}]",NA,NA,NA,NA,NA,3,#D8271C,#741CD8,10,0,1,40,0,1330,37,1,451,10,1,experiment,NA,NA,0,0.9,0.1,0,1,148,4,NA
fcp-trial,197,967378,0.0-158.0-0.0,voc_e2,12088,"[{""event"":""focus"",""trial"":0,""time"":0},{""event"":""blur"",""trial"":1,""time"":1689},{""event"":""focus"",""trial"":1,""time"":1704},{""event"":""fullscreenenter"",""trial"":1,""time"":1707},{""event"":""blur"",""trial"":6,""time"":27133},{""event"":""focus"",""trial"":6,""time"":29055}]",NA,NA,NA,NA,NA,0,#741CD8,#D8271C,10,10,0,38,1,748,39,0,547,10,1,experiment,NA,NA,0,0.1,0.9,1,0,149,4,NA
fcp-trial,198,970696,0.0-159.0-0.0,voc_e2,12088,"[{""event"":""focus"",""trial"":0,""time"":0},{""event"":""blur"",""trial"":1,""time"":1689},{""event"":""focus"",""trial"":1,""time"":1704},{""event"":""fullscreenenter"",""trial"":1,""time"":1707},{""event"":""blur"",""trial"":6,""time"":27133},{""event"":""focus"",""trial"":6,""time"":29055}]",NA,NA,NA,NA,NA,1,#FA92F8,#1CD855,0,0,1,38,1,1292,39,0,516,0,0,experiment,NA,NA,2,0.5,0.5,4,5,150,4,NA
fcp-trial,199,974970,0.0-160.0-0.0,voc_e2,12088,"[{""event"":""focus"",""trial"":0,""time"":0},{""event"":""blur"",""trial"":1,""time"":1689},{""event"":""focus"",""trial"":1,""time"":1704},{""event"":""fullscreenenter"",""trial"":1,""time"":1707},{""event"":""blur"",""trial"":6,""time"":27133},{""event"":""focus"",""trial"":6,""time"":29055}]",NA,NA,NA,NA,NA,2,#D8271C,#741CD8,10,0,1,38,1,2330,37,1,426,10,1,experiment,NA,NA,0,0.9,0.1,0,1,151,4,NA
fcp-trial,200,978288,0.0-161.0-0.0,voc_e2,12088,"[{""event"":""focus"",""trial"":0,""time"":0},{""event"":""blur"",""trial"":1,""time"":1689},{""event"":""focus"",""trial"":1,""time"":1704},{""event"":""fullscreenenter"",""trial"":1,""time"":1707},{""event"":""blur"",""trial"":6,""time"":27133},{""event"":""focus"",""trial"":6,""time"":29055}]",NA,NA,NA,NA,NA,2,#D89F1C,#3386FF,0,10,0,38,1,1196,39,0,611,10,1,experiment,NA,NA,1,0.3,0.7,3,2,152,4,NA
fcp-trial,201,981137,0.0-162.0-0.0,voc_e2,12088,"[{""event"":""focus"",""trial"":0,""time"":0},{""event"":""blur"",""trial"":1,""time"":1689},{""event"":""focus"",""trial"":1,""time"":1704},{""event"":""fullscreenenter"",""trial"":1,""time"":1707},{""event"":""blur"",""trial"":6,""time"":27133},{""event"":""focus"",""trial"":6,""time"":29055}]",NA,NA,NA,NA,NA,1,#3386FF,#D89F1C,10,0,1,38,1,894,37,1,444,10,1,experiment,NA,NA,1,0.7,0.3,2,3,153,4,NA
fcp-trial,202,984045,0.0-163.0-0.0,voc_e2,12088,"[{""event"":""focus"",""trial"":0,""time"":0},{""event"":""blur"",""trial"":1,""time"":1689},{""event"":""focus"",""trial"":1,""time"":1704},{""event"":""fullscreenenter"",""trial"":1,""time"":1707},{""event"":""blur"",""trial"":6,""time"":27133},{""event"":""focus"",""trial"":6,""time"":29055}]",NA,NA,NA,NA,NA,4,#D8271C,#741CD8,10,0,1,40,0,912,39,0,486,0,0,experiment,NA,NA,0,0.9,0.1,0,1,154,4,NA
fcp-trial,203,986911,0.0-164.0-0.0,voc_e2,12088,"[{""event"":""focus"",""trial"":0,""time"":0},{""event"":""blur"",""trial"":1,""time"":1689},{""event"":""focus"",""trial"":1,""time"":1704},{""event"":""fullscreenenter"",""trial"":1,""time"":1707},{""event"":""blur"",""trial"":6,""time"":27133},{""event"":""focus"",""trial"":6,""time"":29055}]",NA,NA,NA,NA,NA,6,#1CD855,#FA92F8,10,10,0,40,0,942,37,1,418,10,0,experiment,NA,NA,2,0.5,0.5,5,4,155,4,NA
fcp-trial,204,990199,0.0-165.0-0.0,voc_e2,12088,"[{""event"":""focus"",""trial"":0,""time"":0},{""event"":""blur"",""trial"":1,""time"":1689},{""event"":""focus"",""trial"":1,""time"":1704},{""event"":""fullscreenenter"",""trial"":1,""time"":1707},{""event"":""blur"",""trial"":6,""time"":27133},{""event"":""focus"",""trial"":6,""time"":29055}]",NA,NA,NA,NA,NA,0,#3386FF,#D89F1C,0,0,1,38,1,977,37,1,799,0,1,experiment,NA,NA,1,0.7,0.3,2,3,156,4,NA
fcp-trial,205,992711,0.0-166.0-0.0,voc_e2,12088,"[{""event"":""focus"",""trial"":0,""time"":0},{""event"":""blur"",""trial"":1,""time"":1689},{""event"":""focus"",""trial"":1,""time"":1704},{""event"":""fullscreenenter"",""trial"":1,""time"":1707},{""event"":""blur"",""trial"":6,""time"":27133},{""event"":""focus"",""trial"":6,""time"":29055}]",NA,NA,NA,NA,NA,1,#D8271C,#741CD8,10,0,1,38,1,558,37,1,446,10,1,experiment,NA,NA,0,0.9,0.1,0,1,157,4,NA
fcp-trial,206,995360,0.0-167.0-0.0,voc_e2,12088,"[{""event"":""focus"",""trial"":0,""time"":0},{""event"":""blur"",""trial"":1,""time"":1689},{""event"":""focus"",""trial"":1,""time"":1704},{""event"":""fullscreenenter"",""trial"":1,""time"":1707},{""event"":""blur"",""trial"":6,""time"":27133},{""event"":""focus"",""trial"":6,""time"":29055}]",NA,NA,NA,NA,NA,5,#1CD855,#FA92F8,10,0,0,40,0,744,37,1,384,10,0,experiment,NA,NA,2,0.5,0.5,5,4,158,4,NA
fcp-trial,207,998150,0.0-168.0-0.0,voc_e2,12088,"[{""event"":""focus"",""trial"":0,""time"":0},{""event"":""blur"",""trial"":1,""time"":1689},{""event"":""focus"",""trial"":1,""time"":1704},{""event"":""fullscreenenter"",""trial"":1,""time"":1707},{""event"":""blur"",""trial"":6,""time"":27133},{""event"":""focus"",""trial"":6,""time"":29055}]",NA,NA,NA,NA,NA,6,#3386FF,#D89F1C,0,0,1,40,0,681,39,0,597,0,0,experiment,NA,NA,1,0.7,0.3,2,3,159,4,NA
fcp-trial,208,1001454,0.0-169.0-0.0,voc_e2,12088,"[{""event"":""focus"",""trial"":0,""time"":0},{""event"":""blur"",""trial"":1,""time"":1689},{""event"":""focus"",""trial"":1,""time"":1704},{""event"":""fullscreenenter"",""trial"":1,""time"":1707},{""event"":""blur"",""trial"":6,""time"":27133},{""event"":""focus"",""trial"":6,""time"":29055}]",NA,NA,NA,NA,NA,0,#1CD855,#FA92F8,10,10,0,38,1,1162,37,1,632,10,0,experiment,NA,NA,2,0.5,0.5,5,4,160,4,NA
fcp-trial,209,1004286,0.0-170.0-0.0,voc_e2,12088,"[{""event"":""focus"",""trial"":0,""time"":0},{""event"":""blur"",""trial"":1,""time"":1689},{""event"":""focus"",""trial"":1,""time"":1704},{""event"":""fullscreenenter"",""trial"":1,""time"":1707},{""event"":""blur"",""trial"":6,""time"":27133},{""event"":""focus"",""trial"":6,""time"":29055}]",NA,NA,NA,NA,NA,4,#1CD855,#FA92F8,0,0,0,40,0,831,39,0,488,0,1,experiment,NA,NA,2,0.5,0.5,5,4,161,4,NA
fcp-trial,210,1007238,0.0-171.0-0.0,voc_e2,12088,"[{""event"":""focus"",""trial"":0,""time"":0},{""event"":""blur"",""trial"":1,""time"":1689},{""event"":""focus"",""trial"":1,""time"":1704},{""event"":""fullscreenenter"",""trial"":1,""time"":1707},{""event"":""blur"",""trial"":6,""time"":27133},{""event"":""focus"",""trial"":6,""time"":29055}]",NA,NA,NA,NA,NA,5,#D8271C,#741CD8,10,0,1,40,0,604,39,0,839,0,0,experiment,NA,NA,0,0.9,0.1,0,1,162,4,NA
fcp-trial,211,1010179,0.0-172.0-0.0,voc_e2,12088,"[{""event"":""focus"",""trial"":0,""time"":0},{""event"":""blur"",""trial"":1,""time"":1689},{""event"":""focus"",""trial"":1,""time"":1704},{""event"":""fullscreenenter"",""trial"":1,""time"":1707},{""event"":""blur"",""trial"":6,""time"":27133},{""event"":""focus"",""trial"":6,""time"":29055}]",NA,NA,NA,NA,NA,3,#1CD855,#FA92F8,10,10,0,40,0,908,39,0,523,10,1,experiment,NA,NA,2,0.5,0.5,5,4,163,4,NA
fcp-trial,212,1013269,0.0-173.0-0.0,voc_e2,12088,"[{""event"":""focus"",""trial"":0,""time"":0},{""event"":""blur"",""trial"":1,""time"":1689},{""event"":""focus"",""trial"":1,""time"":1704},{""event"":""fullscreenenter"",""trial"":1,""time"":1707},{""event"":""blur"",""trial"":6,""time"":27133},{""event"":""focus"",""trial"":6,""time"":29055}]",NA,NA,NA,NA,NA,4,#3386FF,#D89F1C,10,10,1,40,0,994,39,0,589,10,0,experiment,NA,NA,1,0.7,0.3,2,3,164,4,NA
fcp-trial,213,1016379,0.0-174.0-0.0,voc_e2,12088,"[{""event"":""focus"",""trial"":0,""time"":0},{""event"":""blur"",""trial"":1,""time"":1689},{""event"":""focus"",""trial"":1,""time"":1704},{""event"":""fullscreenenter"",""trial"":1,""time"":1707},{""event"":""blur"",""trial"":6,""time"":27133},{""event"":""focus"",""trial"":6,""time"":29055}]",NA,NA,NA,NA,NA,6,#D8271C,#741CD8,10,0,1,40,0,1145,37,1,456,10,1,experiment,NA,NA,0,0.9,0.1,0,1,165,4,NA
fcp-trial,214,1019561,0.0-175.0-0.0,voc_e2,12088,"[{""event"":""focus"",""trial"":0,""time"":0},{""event"":""blur"",""trial"":1,""time"":1689},{""event"":""focus"",""trial"":1,""time"":1704},{""event"":""fullscreenenter"",""trial"":1,""time"":1707},{""event"":""blur"",""trial"":6,""time"":27133},{""event"":""focus"",""trial"":6,""time"":29055}]",NA,NA,NA,NA,NA,3,#3386FF,#D89F1C,10,10,1,40,0,1207,37,1,462,10,1,experiment,NA,NA,1,0.7,0.3,2,3,166,4,NA
fcp-trial,215,1022411,0.0-176.0-0.0,voc_e2,12088,"[{""event"":""focus"",""trial"":0,""time"":0},{""event"":""blur"",""trial"":1,""time"":1689},{""event"":""focus"",""trial"":1,""time"":1704},{""event"":""fullscreenenter"",""trial"":1,""time"":1707},{""event"":""blur"",""trial"":6,""time"":27133},{""event"":""focus"",""trial"":6,""time"":29055}]",NA,NA,NA,NA,NA,2,#1CD855,#FA92F8,10,0,0,38,1,786,37,1,555,10,0,experiment,NA,NA,2,0.5,0.5,5,4,167,4,NA
fcp-trial,216,1025084,0.0-177.0-0.0,voc_e2,12088,"[{""event"":""focus"",""trial"":0,""time"":0},{""event"":""blur"",""trial"":1,""time"":1689},{""event"":""focus"",""trial"":1,""time"":1704},{""event"":""fullscreenenter"",""trial"":1,""time"":1707},{""event"":""blur"",""trial"":6,""time"":27133},{""event"":""focus"",""trial"":6,""time"":29055}]",NA,NA,NA,NA,NA,5,#3386FF,#D89F1C,10,0,1,40,0,691,37,1,468,10,1,experiment,NA,NA,1,0.7,0.3,2,3,168,4,NA
fcp-trial,217,1027687,0.0-178.0-0.0,voc_e2,12088,"[{""event"":""focus"",""trial"":0,""time"":0},{""event"":""blur"",""trial"":1,""time"":1689},{""event"":""focus"",""trial"":1,""time"":1704},{""event"":""fullscreenenter"",""trial"":1,""time"":1707},{""event"":""blur"",""trial"":6,""time"":27133},{""event"":""focus"",""trial"":6,""time"":29055}]",NA,NA,NA,NA,NA,6,#D89F1C,#3386FF,0,10,0,40,0,550,37,1,537,0,0,experiment,NA,NA,1,0.3,0.7,3,2,169,4,NA
fcp-trial,218,1030394,0.0-179.0-0.0,voc_e2,12088,"[{""event"":""focus"",""trial"":0,""time"":0},{""event"":""blur"",""trial"":1,""time"":1689},{""event"":""focus"",""trial"":1,""time"":1704},{""event"":""fullscreenenter"",""trial"":1,""time"":1707},{""event"":""blur"",""trial"":6,""time"":27133},{""event"":""focus"",""trial"":6,""time"":29055}]",NA,NA,NA,NA,NA,4,#741CD8,#D8271C,0,10,0,40,0,730,39,0,464,10,1,experiment,NA,NA,0,0.1,0.9,1,0,170,4,NA
fcp-trial,219,1033097,0.0-180.0-0.0,voc_e2,12088,"[{""event"":""focus"",""trial"":0,""time"":0},{""event"":""blur"",""trial"":1,""time"":1689},{""event"":""focus"",""trial"":1,""time"":1704},{""event"":""fullscreenenter"",""trial"":1,""time"":1707},{""event"":""blur"",""trial"":6,""time"":27133},{""event"":""focus"",""trial"":6,""time"":29055}]",NA,NA,NA,NA,NA,1,#D8271C,#741CD8,10,0,1,38,1,694,37,1,499,10,1,experiment,NA,NA,0,0.9,0.1,0,1,171,4,NA
fcp-trial,220,1036195,0.0-181.0-0.0,voc_e2,12088,"[{""event"":""focus"",""trial"":0,""time"":0},{""event"":""blur"",""trial"":1,""time"":1689},{""event"":""focus"",""trial"":1,""time"":1704},{""event"":""fullscreenenter"",""trial"":1,""time"":1707},{""event"":""blur"",""trial"":6,""time"":27133},{""event"":""focus"",""trial"":6,""time"":29055}]",NA,NA,NA,NA,NA,3,#741CD8,#D8271C,0,10,0,40,0,930,37,1,660,0,0,experiment,NA,NA,0,0.1,0.9,1,0,172,4,NA
