trial_type,trial_index,time_elapsed,internal_node_id,task_version,subject_id,interactions,success,rt,stimulus,key_press,button_pressed,offer,arcade_color_L,arcade_color_R,arcade_outcome_L,arcade_outcome_R,correct,stage_1_key,stage_1_choice,stage_1_rt,stage_2_key,stage_2_choice,stage_2_rt,stage_3_outcome,accuracy,phase,responses,num_errors,context,reward_prob_L,reward_prob_R,arcade_id_L,arcade_id_R,trial,block,response
pavlovia,0,4,0.0-0.0,voc_e2,12167,[],NA,NA,NA,NA,NA,NA,NA,NA,NA,NA,NA,NA,NA,NA,NA,NA,NA,NA,NA,NA,NA,NA,NA,NA,NA,NA,NA,NA,NA,NA
fullscreen,1,8675,0.0-1.0,voc_e2,12167,"[{""event"":""fullscreenenter"",""trial"":1,""time"":7680}]",TRUE,NA,NA,NA,NA,NA,NA,NA,NA,NA,NA,NA,NA,NA,NA,NA,NA,NA,NA,NA,NA,NA,NA,NA,NA,NA,NA,NA,NA,NA
audio-keyboard-response,2,13435,0.0-2.0,voc_e2,12167,"[{""event"":""fullscreenenter"",""trial"":1,""time"":7680}]",NA,4427,static/audio/beep_loop.wav,32,NA,NA,NA,NA,NA,NA,NA,NA,NA,NA,NA,NA,NA,NA,NA,NA,NA,NA,NA,NA,NA,NA,NA,NA,NA,NA
audio-test,3,16091,0.0-3.0,voc_e2,12167,"[{""event"":""fullscreenenter"",""trial"":1,""time"":7680}]",NA,NA,static/audio/turtle.wav,NA,3,NA,NA,NA,NA,NA,NA,NA,NA,NA,NA,NA,NA,NA,NA,NA,NA,NA,NA,NA,NA,NA,NA,NA,NA,NA
audio-test,4,18909,0.0-4.0,voc_e2,12167,"[{""event"":""fullscreenenter"",""trial"":1,""time"":7680}]",NA,NA,static/audio/shark.wav,NA,2,NA,NA,NA,NA,NA,NA,NA,NA,NA,NA,NA,NA,NA,NA,NA,NA,NA,NA,NA,NA,NA,NA,NA,NA,NA
audio-instructions,5,27216,0.0-5.0-0.0,voc_e2,12167,"[{""event"":""fullscreenenter"",""trial"":1,""time"":7680}]",NA,2529.100000000093,static/audio/instructions1.wav,NA,0,NA,NA,NA,NA,NA,NA,NA,NA,NA,NA,NA,NA,NA,NA,NA,NA,NA,NA,NA,NA,NA,NA,NA,NA,NA
audio-instructions,6,36492,0.0-5.0-1.0,voc_e2,12167,"[{""event"":""fullscreenenter"",""trial"":1,""time"":7680}]",NA,2535.8000000002794,static/audio/instructions2.wav,NA,0,NA,NA,NA,NA,NA,NA,NA,NA,NA,NA,NA,NA,NA,NA,NA,NA,NA,NA,NA,NA,NA,NA,NA,NA,NA
audio-instructions,7,43959,0.0-5.0-2.0,voc_e2,12167,"[{""event"":""fullscreenenter"",""trial"":1,""time"":7680}]",NA,1672.1000000000931,static/audio/instructions3.wav,NA,0,NA,NA,NA,NA,NA,NA,NA,NA,NA,NA,NA,NA,NA,NA,NA,NA,NA,NA,NA,NA,NA,NA,NA,NA,NA
audio-instructions,8,58811,0.0-5.0-3.0,voc_e2,12167,"[{""event"":""fullscreenenter"",""trial"":1,""time"":7680}]",NA,1623.7000000001865,static/audio/instructions4.wav,NA,0,NA,NA,NA,NA,NA,NA,NA,NA,NA,NA,NA,NA,NA,NA,NA,NA,NA,NA,NA,NA,NA,NA,NA,NA,NA
audio-instructions,9,72483,0.0-5.0-4.0,voc_e2,12167,"[{""event"":""fullscreenenter"",""trial"":1,""time"":7680}]",NA,4287.200000000186,static/audio/instructions5.wav,NA,0,NA,NA,NA,NA,NA,NA,NA,NA,NA,NA,NA,NA,NA,NA,NA,NA,NA,NA,NA,NA,NA,NA,NA,NA,NA
fcp-practice,10,76593,0.0-5.0-5.0-0.0,voc_e2,12167,"[{""event"":""fullscreenenter"",""trial"":1,""time"":7680}]",NA,NA,NA,NA,NA,NA,#EDC948,#46d3c8,10,0,1,null,null,null,37,1,2601.899999999907,10,1,practice,NA,NA,NA,NA,NA,NA,NA,NA,NA,NA
fcp-practice,11,79449,0.0-5.0-5.0-1.0,voc_e2,12167,"[{""event"":""fullscreenenter"",""trial"":1,""time"":7680}]",NA,NA,NA,NA,NA,NA,#EDC948,#46d3c8,10,0,1,null,null,null,37,1,1348.6000000000931,10,1,practice,NA,NA,NA,NA,NA,NA,NA,NA,NA,NA
fcp-practice,12,82012,0.0-5.0-5.0-2.0,voc_e2,12167,"[{""event"":""fullscreenenter"",""trial"":1,""time"":7680}]",NA,NA,NA,NA,NA,NA,#EDC948,#46d3c8,0,10,1,null,null,null,37,1,1060,0,1,practice,NA,NA,NA,NA,NA,NA,NA,NA,NA,NA
fcp-practice,13,84659,0.0-5.0-5.0-3.0,voc_e2,12167,"[{""event"":""fullscreenenter"",""trial"":1,""time"":7680}]",NA,NA,NA,NA,NA,NA,#EDC948,#46d3c8,10,0,1,null,null,null,37,1,1143.5,10,1,practice,NA,NA,NA,NA,NA,NA,NA,NA,NA,NA
fcp-practice,14,86966,0.0-5.0-5.0-4.0,voc_e2,12167,"[{""event"":""fullscreenenter"",""trial"":1,""time"":7680}]",NA,NA,NA,NA,NA,NA,#EDC948,#46d3c8,10,0,1,null,null,null,37,1,797.2000000001863,10,1,practice,NA,NA,NA,NA,NA,NA,NA,NA,NA,NA
audio-instructions,15,112849,0.0-5.0-6.0,voc_e2,12167,"[{""event"":""fullscreenenter"",""trial"":1,""time"":7680}]",NA,7885.200000000186,static/audio/instructions6.wav,NA,0,NA,NA,NA,NA,NA,NA,NA,NA,NA,NA,NA,NA,NA,NA,NA,NA,NA,NA,NA,NA,NA,NA,NA,NA,NA
audio-instructions,16,133209,0.0-5.0-7.0,voc_e2,12167,"[{""event"":""fullscreenenter"",""trial"":1,""time"":7680}]",NA,1162.5,static/audio/instructions7.wav,NA,0,NA,NA,NA,NA,NA,NA,NA,NA,NA,NA,NA,NA,NA,NA,NA,NA,NA,NA,NA,NA,NA,NA,NA,NA,NA
audio-instructions,17,144304,0.0-5.0-8.0,voc_e2,12167,"[{""event"":""fullscreenenter"",""trial"":1,""time"":7680}]",NA,1622.3999999994412,static/audio/instructions8.wav,NA,0,NA,NA,NA,NA,NA,NA,NA,NA,NA,NA,NA,NA,NA,NA,NA,NA,NA,NA,NA,NA,NA,NA,NA,NA,NA
fcp-comprehension,18,160644,0.0-5.0-9.0,voc_e2,12167,"[{""event"":""fullscreenenter"",""trial"":1,""time"":7680}]",NA,16337.299999999814,NA,NA,NA,NA,NA,NA,NA,NA,NA,NA,NA,NA,NA,NA,NA,NA,NA,NA,"true,true",0,NA,NA,NA,NA,NA,NA,NA,NA
audio-instructions,19,170049,0.0-6.0-0.0,voc_e2,12167,"[{""event"":""fullscreenenter"",""trial"":1,""time"":7680}]",NA,3858.2999999998137,static/audio/instructions9.wav,NA,0,NA,NA,NA,NA,NA,NA,NA,NA,NA,NA,NA,NA,NA,NA,NA,NA,NA,NA,NA,NA,NA,NA,NA,NA,NA
audio-instructions,20,183427,0.0-6.0-1.0,voc_e2,12167,"[{""event"":""fullscreenenter"",""trial"":1,""time"":7680}]",NA,1268.5,static/audio/instructions10.wav,NA,0,NA,NA,NA,NA,NA,NA,NA,NA,NA,NA,NA,NA,NA,NA,NA,NA,NA,NA,NA,NA,NA,NA,NA,NA,NA
fcp-trial,21,198431,0.0-6.0-2.0,voc_e2,12167,"[{""event"":""fullscreenenter"",""trial"":1,""time"":7680}]",NA,NA,NA,NA,NA,0,#EDC948,#46d3c8,10,10,1,null,null,null,null,null,null,NA,0,practice,NA,NA,NA,NA,NA,NA,NA,NA,NA,NA
audio-instructions,22,211073,0.0-6.0-3.0,voc_e2,12167,"[{""event"":""fullscreenenter"",""trial"":1,""time"":7680}]",NA,1639,static/audio/instructions11.wav,NA,0,NA,NA,NA,NA,NA,NA,NA,NA,NA,NA,NA,NA,NA,NA,NA,NA,NA,NA,NA,NA,NA,NA,NA,NA,NA
fcp-trial,23,215500,0.0-6.0-4.0,voc_e2,12167,"[{""event"":""fullscreenenter"",""trial"":1,""time"":7680}]",NA,NA,NA,NA,NA,6,#EDC948,#46d3c8,10,10,1,40,0,785.0999999996275,37,1,2130.7999999998137,10,1,practice,NA,NA,NA,NA,NA,NA,NA,NA,NA,NA
audio-instructions,24,237373,0.0-6.0-5.0,voc_e2,12167,"[{""event"":""fullscreenenter"",""trial"":1,""time"":7680}]",NA,3182.2999999998137,static/audio/instructions12.wav,NA,0,NA,NA,NA,NA,NA,NA,NA,NA,NA,NA,NA,NA,NA,NA,NA,NA,NA,NA,NA,NA,NA,NA,NA,NA,NA
audio-instructions,25,250718,0.0-6.0-6.0,voc_e2,12167,"[{""event"":""fullscreenenter"",""trial"":1,""time"":7680}]",NA,5754.5,static/audio/instructions13.wav,NA,0,NA,NA,NA,NA,NA,NA,NA,NA,NA,NA,NA,NA,NA,NA,NA,NA,NA,NA,NA,NA,NA,NA,NA,NA,NA
audio-instructions,26,260826,0.0-6.0-7.0,voc_e2,12167,"[{""event"":""fullscreenenter"",""trial"":1,""time"":7680}]",NA,1664.800000000745,static/audio/instructions14.wav,NA,0,NA,NA,NA,NA,NA,NA,NA,NA,NA,NA,NA,NA,NA,NA,NA,NA,NA,NA,NA,NA,NA,NA,NA,NA,NA
audio-instructions,27,268464,0.0-7.0-0.0,voc_e2,12167,"[{""event"":""fullscreenenter"",""trial"":1,""time"":7680}]",NA,727,static/audio/instructions15.wav,NA,0,NA,NA,NA,NA,NA,NA,NA,NA,NA,NA,NA,NA,NA,NA,NA,NA,NA,NA,NA,NA,NA,NA,NA,NA,NA
audio-instructions,28,276134,0.0-7.0-1.0,voc_e2,12167,"[{""event"":""fullscreenenter"",""trial"":1,""time"":7680}]",NA,844.3999999994412,static/audio/instructions16.wav,NA,0,NA,NA,NA,NA,NA,NA,NA,NA,NA,NA,NA,NA,NA,NA,NA,NA,NA,NA,NA,NA,NA,NA,NA,NA,NA
audio-instructions,29,285109,0.0-7.0-2.0,voc_e2,12167,"[{""event"":""fullscreenenter"",""trial"":1,""time"":7680}]",NA,1296.2000000001865,static/audio/instructions17.wav,NA,0,NA,NA,NA,NA,NA,NA,NA,NA,NA,NA,NA,NA,NA,NA,NA,NA,NA,NA,NA,NA,NA,NA,NA,NA,NA
audio-instructions,30,296055,0.0-7.0-3.0,voc_e2,12167,"[{""event"":""fullscreenenter"",""trial"":1,""time"":7680}]",NA,3187.2000000001863,static/audio/instructions18.wav,NA,0,NA,NA,NA,NA,NA,NA,NA,NA,NA,NA,NA,NA,NA,NA,NA,NA,NA,NA,NA,NA,NA,NA,NA,NA,NA
audio-instructions,31,303902,0.0-7.0-4.0,voc_e2,12167,"[{""event"":""fullscreenenter"",""trial"":1,""time"":7680}]",NA,1103.5,static/audio/instructions19.wav,NA,0,NA,NA,NA,NA,NA,NA,NA,NA,NA,NA,NA,NA,NA,NA,NA,NA,NA,NA,NA,NA,NA,NA,NA,NA,NA
fcp-comprehension,32,330698,0.0-7.0-5.0,voc_e2,12167,"[{""event"":""fullscreenenter"",""trial"":1,""time"":7680}]",NA,26792.700000000183,NA,NA,NA,NA,NA,NA,NA,NA,NA,NA,NA,NA,NA,NA,NA,NA,NA,NA,"true,false,false,true",1,NA,NA,NA,NA,NA,NA,NA,NA
audio-instructions,33,338810,0.0-7.1-0.1,voc_e2,12167,"[{""event"":""fullscreenenter"",""trial"":1,""time"":7680}]",NA,1195.6000000005588,static/audio/instructions15.wav,NA,0,NA,NA,NA,NA,NA,NA,NA,NA,NA,NA,NA,NA,NA,NA,NA,NA,NA,NA,NA,NA,NA,NA,NA,NA,NA
audio-instructions,34,346459,0.0-7.1-1.1,voc_e2,12167,"[{""event"":""fullscreenenter"",""trial"":1,""time"":7680}]",NA,822.7000000001863,static/audio/instructions16.wav,NA,0,NA,NA,NA,NA,NA,NA,NA,NA,NA,NA,NA,NA,NA,NA,NA,NA,NA,NA,NA,NA,NA,NA,NA,NA,NA
audio-instructions,35,355219,0.0-7.1-2.1,voc_e2,12167,"[{""event"":""fullscreenenter"",""trial"":1,""time"":7680}]",NA,1081.8999999994412,static/audio/instructions17.wav,NA,0,NA,NA,NA,NA,NA,NA,NA,NA,NA,NA,NA,NA,NA,NA,NA,NA,NA,NA,NA,NA,NA,NA,NA,NA,NA
audio-instructions,36,367011,0.0-7.1-3.1,voc_e2,12167,"[{""event"":""fullscreenenter"",""trial"":1,""time"":7680}]",NA,4031.099999999627,static/audio/instructions18.wav,NA,0,NA,NA,NA,NA,NA,NA,NA,NA,NA,NA,NA,NA,NA,NA,NA,NA,NA,NA,NA,NA,NA,NA,NA,NA,NA
audio-instructions,37,376954,0.0-7.1-4.1,voc_e2,12167,"[{""event"":""fullscreenenter"",""trial"":1,""time"":7680}]",NA,3200.600000000559,static/audio/instructions19.wav,NA,0,NA,NA,NA,NA,NA,NA,NA,NA,NA,NA,NA,NA,NA,NA,NA,NA,NA,NA,NA,NA,NA,NA,NA,NA,NA
fcp-comprehension,38,387828,0.0-7.1-5.1,voc_e2,12167,"[{""event"":""fullscreenenter"",""trial"":1,""time"":7680}]",NA,10870.799999999814,NA,NA,NA,NA,NA,NA,NA,NA,NA,NA,NA,NA,NA,NA,NA,NA,NA,NA,"false,false,false,true",0,NA,NA,NA,NA,NA,NA,NA,NA
audio-instructions,39,397980,0.0-8.0,voc_e2,12167,"[{""event"":""fullscreenenter"",""trial"":1,""time"":7680}]",NA,941.5,static/audio/ready.wav,NA,0,NA,NA,NA,NA,NA,NA,NA,NA,NA,NA,NA,NA,NA,NA,NA,NA,NA,NA,NA,NA,NA,NA,NA,NA,NA
fcp-trial,40,403739,0.0-9.0-0.0,voc_e2,12167,"[{""event"":""fullscreenenter"",""trial"":1,""time"":7680}]",NA,NA,NA,NA,NA,3,#FA92F8,#1CD855,10,0,1,40,0,2772.7999999998137,39,0,1479.5999999996275,0,0,experiment,NA,NA,0,0.9,0.1,0,1,1,1,NA
fcp-trial,41,409933,0.0-10.0-0.0,voc_e2,12167,"[{""event"":""fullscreenenter"",""trial"":1,""time"":7680}]",NA,NA,NA,NA,NA,3,#D8271C,#741CD8,10,0,1,38,1,3303,39,0,1383.9000000003725,0,0,experiment,NA,NA,1,0.7,0.3,2,3,2,1,NA
fcp-trial,42,415377,0.0-11.0-0.0,voc_e2,12167,"[{""event"":""fullscreenenter"",""trial"":1,""time"":7680}]",NA,NA,NA,NA,NA,1,#D89F1C,#3386FF,10,10,1,38,1,2676.7000000001863,37,1,1262.7000000001863,10,1,experiment,NA,NA,2,0.5,0.5,4,5,3,1,NA
fcp-trial,43,419378,0.0-12.0-0.0,voc_e2,12167,"[{""event"":""fullscreenenter"",""trial"":1,""time"":7680}]",NA,NA,NA,NA,NA,6,#D89F1C,#3386FF,10,10,1,38,1,2014.6000000005588,37,1,483.09999999962747,10,1,experiment,NA,NA,2,0.5,0.5,4,5,4,1,NA
fcp-trial,44,423453,0.0-13.0-0.0,voc_e2,12167,"[{""event"":""fullscreenenter"",""trial"":1,""time"":7680}]",NA,NA,NA,NA,NA,0,#1CD855,#FA92F8,10,0,0,38,1,1327.7999999998137,37,1,1243.699999999255,10,0,experiment,NA,NA,0,0.1,0.9,1,0,5,1,NA
fcp-trial,45,427841,0.0-14.0-0.0,voc_e2,12167,"[{""event"":""fullscreenenter"",""trial"":1,""time"":7680}]",NA,NA,NA,NA,NA,5,#741CD8,#D8271C,0,0,0,38,1,2245.7000000001863,39,0,634.5,0,1,experiment,NA,NA,1,0.3,0.7,3,2,6,1,NA
fcp-trial,46,432043,0.0-15.0-0.0,voc_e2,12167,"[{""event"":""fullscreenenter"",""trial"":1,""time"":7680}]",NA,NA,NA,NA,NA,2,#D89F1C,#3386FF,0,0,1,38,1,1836.300000000745,37,1,861.3000000007451,0,1,experiment,NA,NA,2,0.5,0.5,4,5,7,1,NA
fcp-trial,47,435884,0.0-16.0-0.0,voc_e2,12167,"[{""event"":""fullscreenenter"",""trial"":1,""time"":7680}]",NA,NA,NA,NA,NA,4,#D8271C,#741CD8,0,0,1,38,1,838,37,1,1499.5,0,1,experiment,NA,NA,1,0.7,0.3,2,3,8,1,NA
fcp-trial,48,439145,0.0-17.0-0.0,voc_e2,12167,"[{""event"":""fullscreenenter"",""trial"":1,""time"":7680}]",NA,NA,NA,NA,NA,3,#D89F1C,#3386FF,0,10,1,38,1,1188.5999999996275,37,1,569.2000000001863,0,1,experiment,NA,NA,2,0.5,0.5,4,5,9,1,NA
fcp-trial,49,442315,0.0-18.0-0.0,voc_e2,12167,"[{""event"":""fullscreenenter"",""trial"":1,""time"":7680}]",NA,NA,NA,NA,NA,5,#1CD855,#FA92F8,0,10,0,38,1,901.2999999998137,39,0,764.3999999994412,10,1,experiment,NA,NA,0,0.1,0.9,1,0,10,1,NA
fcp-trial,50,446349,0.0-19.0-0.0,voc_e2,12167,"[{""event"":""fullscreenenter"",""trial"":1,""time"":7680}]",NA,NA,NA,NA,NA,4,#FA92F8,#1CD855,10,0,1,38,1,1344.5,37,1,1185.2999999998137,10,1,experiment,NA,NA,0,0.9,0.1,0,1,11,1,NA
fcp-trial,51,449523,0.0-20.0-0.0,voc_e2,12167,"[{""event"":""fullscreenenter"",""trial"":1,""time"":7680}]",NA,NA,NA,NA,NA,4,#D89F1C,#3386FF,0,10,1,38,1,874.7000000001863,37,1,796.5,0,1,experiment,NA,NA,2,0.5,0.5,4,5,12,1,NA
fcp-trial,52,453779,0.0-21.0-0.0,voc_e2,12167,"[{""event"":""fullscreenenter"",""trial"":1,""time"":7680}]",NA,NA,NA,NA,NA,6,#741CD8,#D8271C,0,10,0,38,1,830.5999999996275,37,1,1922,0,0,experiment,NA,NA,1,0.3,0.7,3,2,13,1,NA
fcp-trial,53,457239,0.0-22.0-0.0,voc_e2,12167,"[{""event"":""fullscreenenter"",""trial"":1,""time"":7680}]",NA,NA,NA,NA,NA,0,#741CD8,#D8271C,10,10,0,38,1,950.2000000001863,39,0,1003.1000000005588,10,1,experiment,NA,NA,1,0.3,0.7,3,2,14,1,NA
fcp-trial,54,460319,0.0-23.0-0.0,voc_e2,12167,"[{""event"":""fullscreenenter"",""trial"":1,""time"":7680}]",NA,NA,NA,NA,NA,2,#1CD855,#FA92F8,0,0,0,38,1,791,37,1,781.7999999998137,0,0,experiment,NA,NA,0,0.1,0.9,1,0,15,1,NA
fcp-trial,55,463766,0.0-24.0-0.0,voc_e2,12167,"[{""event"":""fullscreenenter"",""trial"":1,""time"":7680}]",NA,NA,NA,NA,NA,1,#1CD855,#FA92F8,0,10,0,38,1,436.09999999962747,39,0,1502.5,10,1,experiment,NA,NA,0,0.1,0.9,1,0,16,1,NA
fcp-trial,56,466584,0.0-25.0-0.0,voc_e2,12167,"[{""event"":""fullscreenenter"",""trial"":1,""time"":7680}]",NA,NA,NA,NA,NA,0,#D89F1C,#3386FF,0,10,1,38,1,944.8999999994412,37,1,365,0,1,experiment,NA,NA,2,0.5,0.5,4,5,17,1,NA
fcp-trial,57,469678,0.0-26.0-0.0,voc_e2,12167,"[{""event"":""fullscreenenter"",""trial"":1,""time"":7680}]",NA,NA,NA,NA,NA,2,#D8271C,#741CD8,10,0,1,38,1,1027.8999999994412,39,0,562.6999999992549,0,0,experiment,NA,NA,1,0.7,0.3,2,3,18,1,NA
fcp-trial,58,472544,0.0-27.0-0.0,voc_e2,12167,"[{""event"":""fullscreenenter"",""trial"":1,""time"":7680}]",NA,NA,NA,NA,NA,5,#3386FF,#D89F1C,0,0,0,38,1,936.9000000003725,39,0,424.79999999981374,0,1,experiment,NA,NA,2,0.5,0.5,5,4,19,1,NA
fcp-trial,59,475195,0.0-28.0-0.0,voc_e2,12167,"[{""event"":""fullscreenenter"",""trial"":1,""time"":7680}]",NA,NA,NA,NA,NA,1,#D8271C,#741CD8,10,0,1,38,1,568.3999999994412,39,0,579.2999999998137,0,0,experiment,NA,NA,1,0.7,0.3,2,3,20,1,NA
fcp-trial,60,479635,0.0-29.0-0.0,voc_e2,12167,"[{""event"":""fullscreenenter"",""trial"":1,""time"":7680}]",NA,NA,NA,NA,NA,6,#FA92F8,#1CD855,10,0,1,38,1,313.79999999981374,37,1,2622.899999999441,10,1,experiment,NA,NA,0,0.9,0.1,0,1,21,1,NA
fcp-trial,61,482439,0.0-30.0-0.0,voc_e2,12167,"[{""event"":""fullscreenenter"",""trial"":1,""time"":7680}]",NA,NA,NA,NA,NA,4,#741CD8,#D8271C,0,0,0,38,1,701.8000000007451,39,0,593.7000000001863,0,1,experiment,NA,NA,1,0.3,0.7,3,2,22,1,NA
fcp-trial,62,485356,0.0-31.0-0.0,voc_e2,12167,"[{""event"":""fullscreenenter"",""trial"":1,""time"":7680}]",NA,NA,NA,NA,NA,4,#3386FF,#D89F1C,10,0,0,38,1,892.8999999994412,39,0,520.7000000001863,0,1,experiment,NA,NA,2,0.5,0.5,5,4,23,1,NA
fcp-trial,63,487909,0.0-32.0-0.0,voc_e2,12167,"[{""event"":""fullscreenenter"",""trial"":1,""time"":7680}]",NA,NA,NA,NA,NA,2,#D89F1C,#3386FF,0,0,1,38,1,560.4000000003725,37,1,489.29999999981374,0,1,experiment,NA,NA,2,0.5,0.5,4,5,24,1,NA
fcp-trial,64,490783,0.0-33.0-0.0,voc_e2,12167,"[{""event"":""fullscreenenter"",""trial"":1,""time"":7680}]",NA,NA,NA,NA,NA,2,#1CD855,#FA92F8,0,10,0,38,1,660.5,39,0,709.8000000007451,10,1,experiment,NA,NA,0,0.1,0.9,1,0,25,1,NA
fcp-trial,65,493664,0.0-34.0-0.0,voc_e2,12167,"[{""event"":""fullscreenenter"",""trial"":1,""time"":7680}]",NA,NA,NA,NA,NA,6,#D8271C,#741CD8,10,0,1,38,1,558.4000000003725,37,1,818.7999999998137,10,1,experiment,NA,NA,1,0.7,0.3,2,3,26,1,NA
fcp-trial,66,496644,0.0-35.0-0.0,voc_e2,12167,"[{""event"":""fullscreenenter"",""trial"":1,""time"":7680}]",NA,NA,NA,NA,NA,4,#FA92F8,#1CD855,10,0,1,38,1,895.6999999992549,37,1,576.6999999992549,10,1,experiment,NA,NA,0,0.9,0.1,0,1,27,1,NA
fcp-trial,67,500174,0.0-36.0-0.0,voc_e2,12167,"[{""event"":""fullscreenenter"",""trial"":1,""time"":7680}]",NA,NA,NA,NA,NA,0,#FA92F8,#1CD855,10,0,1,38,1,1550.4000000003725,37,1,476.19999999925494,10,1,experiment,NA,NA,0,0.9,0.1,0,1,28,1,NA
fcp-trial,68,504308,0.0-37.0-0.0,voc_e2,12167,"[{""event"":""fullscreenenter"",""trial"":1,""time"":7680}]",NA,NA,NA,NA,NA,6,#3386FF,#D89F1C,0,0,0,38,1,1417.7999999998137,37,1,1212.7000000001863,0,0,experiment,NA,NA,2,0.5,0.5,5,4,29,1,NA
fcp-trial,69,507072,0.0-38.0-0.0,voc_e2,12167,"[{""event"":""fullscreenenter"",""trial"":1,""time"":7680}]",NA,NA,NA,NA,NA,5,#D89F1C,#3386FF,10,0,1,38,1,843.7000000001863,37,1,414.79999999981374,10,1,experiment,NA,NA,2,0.5,0.5,4,5,30,1,NA
fcp-trial,70,510534,0.0-39.0-0.0,voc_e2,12167,"[{""event"":""fullscreenenter"",""trial"":1,""time"":7680}]",NA,NA,NA,NA,NA,3,#741CD8,#D8271C,0,10,0,38,1,942.7999999998137,37,1,1015.0999999996275,0,0,experiment,NA,NA,1,0.3,0.7,3,2,31,1,NA
fcp-trial,71,513048,0.0-40.0-0.0,voc_e2,12167,"[{""event"":""fullscreenenter"",""trial"":1,""time"":7680}]",NA,NA,NA,NA,NA,2,#D8271C,#741CD8,0,0,1,38,1,670.5999999996275,37,1,334.40000000037253,0,1,experiment,NA,NA,1,0.7,0.3,2,3,32,1,NA
fcp-trial,72,515667,0.0-41.0-0.0,voc_e2,12167,"[{""event"":""fullscreenenter"",""trial"":1,""time"":7680}]",NA,NA,NA,NA,NA,5,#1CD855,#FA92F8,0,10,0,38,1,345.5,39,0,770,10,1,experiment,NA,NA,0,0.1,0.9,1,0,33,1,NA
fcp-trial,73,518563,0.0-42.0-0.0,voc_e2,12167,"[{""event"":""fullscreenenter"",""trial"":1,""time"":7680}]",NA,NA,NA,NA,NA,5,#741CD8,#D8271C,10,10,0,38,1,568.8999999994412,39,0,817,10,1,experiment,NA,NA,1,0.3,0.7,3,2,34,1,NA
fcp-trial,74,521691,0.0-43.0-0.0,voc_e2,12167,"[{""event"":""fullscreenenter"",""trial"":1,""time"":7680}]",NA,NA,NA,NA,NA,3,#3386FF,#D89F1C,0,10,0,38,1,1085.3999999994412,39,0,538.8000000007451,10,1,experiment,NA,NA,2,0.5,0.5,5,4,35,1,NA
fcp-trial,75,524758,0.0-44.0-0.0,voc_e2,12167,"[{""event"":""fullscreenenter"",""trial"":1,""time"":7680}]",NA,NA,NA,NA,NA,3,#1CD855,#FA92F8,10,10,0,38,1,1181,39,0,382.70000000018626,10,1,experiment,NA,NA,0,0.1,0.9,1,0,36,1,NA
fcp-trial,76,527369,0.0-45.0-0.0,voc_e2,12167,"[{""event"":""fullscreenenter"",""trial"":1,""time"":7680}]",NA,NA,NA,NA,NA,1,#FA92F8,#1CD855,10,0,1,38,1,712.2000000001863,37,1,394.70000000018626,10,1,experiment,NA,NA,0,0.9,0.1,0,1,37,1,NA
fcp-trial,77,531095,0.0-46.0-0.0,voc_e2,12167,"[{""event"":""fullscreenenter"",""trial"":1,""time"":7680}]",NA,NA,NA,NA,NA,0,#741CD8,#D8271C,0,10,0,38,1,740,39,0,1477.0999999996275,10,1,experiment,NA,NA,1,0.3,0.7,3,2,38,1,NA
fcp-trial,78,540394,0.0-47.0-0.0,voc_e2,12167,"[{""event"":""fullscreenenter"",""trial"":1,""time"":7680}]",NA,NA,NA,NA,NA,1,#741CD8,#D8271C,10,0,0,40,0,975.4000000003725,37,1,6819.9000000003725,10,0,experiment,NA,NA,1,0.3,0.7,3,2,39,1,NA
fcp-trial,79,544342,0.0-48.0-0.0,voc_e2,12167,"[{""event"":""fullscreenenter"",""trial"":1,""time"":7680}]",NA,NA,NA,NA,NA,1,#D89F1C,#3386FF,10,10,1,38,1,1057,37,1,1387.5999999996275,10,1,experiment,NA,NA,2,0.5,0.5,4,5,40,1,NA
fcp-trial,80,549488,0.0-49.0-0.0,voc_e2,12167,"[{""event"":""fullscreenenter"",""trial"":1,""time"":7680}]",NA,NA,NA,NA,NA,0,#D89F1C,#3386FF,0,10,1,38,1,2099.5,37,1,1540,0,1,experiment,NA,NA,2,0.5,0.5,4,5,41,1,NA
fcp-trial,81,552281,0.0-50.0-0.0,voc_e2,12167,"[{""event"":""fullscreenenter"",""trial"":1,""time"":7680}]",NA,NA,NA,NA,NA,6,#FA92F8,#1CD855,10,0,1,38,1,771.8999999994412,37,1,513,10,1,experiment,NA,NA,0,0.9,0.1,0,1,42,1,NA
fcp-trial,82,555067,0.0-51.0-0.0,voc_e2,12167,"[{""event"":""fullscreenenter"",""trial"":1,""time"":7680}]",NA,NA,NA,NA,NA,4,#1CD855,#FA92F8,0,10,0,38,1,489.5,39,0,789.4000000003725,10,1,experiment,NA,NA,0,0.1,0.9,1,0,43,1,NA
fcp-trial,83,557628,0.0-52.0-0.0,voc_e2,12167,"[{""event"":""fullscreenenter"",""trial"":1,""time"":7680}]",NA,NA,NA,NA,NA,3,#741CD8,#D8271C,0,10,0,38,1,392,39,0,661,10,1,experiment,NA,NA,1,0.3,0.7,3,2,44,1,NA
fcp-trial,84,560250,0.0-53.0-0.0,voc_e2,12167,"[{""event"":""fullscreenenter"",""trial"":1,""time"":7680}]",NA,NA,NA,NA,NA,6,#1CD855,#FA92F8,0,10,0,38,1,396.20000000018626,39,0,722.1999999992549,10,1,experiment,NA,NA,0,0.1,0.9,1,0,45,1,NA
fcp-trial,85,563336,0.0-54.0-0.0,voc_e2,12167,"[{""event"":""fullscreenenter"",""trial"":1,""time"":7680}]",NA,NA,NA,NA,NA,2,#741CD8,#D8271C,0,10,0,38,1,371.5,39,0,1205.4000000003725,10,1,experiment,NA,NA,1,0.3,0.7,3,2,46,2,NA
fcp-trial,86,565863,0.0-55.0-0.0,voc_e2,12167,"[{""event"":""fullscreenenter"",""trial"":1,""time"":7680}]",NA,NA,NA,NA,NA,5,#3386FF,#D89F1C,10,10,0,38,1,477.09999999962747,39,0,546.5,10,1,experiment,NA,NA,2,0.5,0.5,5,4,47,2,NA
fcp-trial,87,568755,0.0-56.0-0.0,voc_e2,12167,"[{""event"":""fullscreenenter"",""trial"":1,""time"":7680}]",NA,NA,NA,NA,NA,1,#741CD8,#D8271C,10,10,0,38,1,572,39,0,815.7000000001863,10,1,experiment,NA,NA,1,0.3,0.7,3,2,48,2,NA
fcp-trial,88,571428,0.0-57.0-0.0,voc_e2,12167,"[{""event"":""fullscreenenter"",""trial"":1,""time"":7680}]",NA,NA,NA,NA,NA,1,#D89F1C,#3386FF,0,0,1,38,1,449.09999999962747,37,1,720.7999999998137,0,1,experiment,NA,NA,2,0.5,0.5,4,5,49,2,NA
fcp-trial,89,574511,0.0-58.0-0.0,voc_e2,12167,"[{""event"":""fullscreenenter"",""trial"":1,""time"":7680}]",NA,NA,NA,NA,NA,1,#FA92F8,#1CD855,10,0,1,38,1,677.7000000001863,37,1,898.4000000003725,10,1,experiment,NA,NA,0,0.9,0.1,0,1,50,2,NA
fcp-trial,90,577256,0.0-59.0-0.0,voc_e2,12167,"[{""event"":""fullscreenenter"",""trial"":1,""time"":7680}]",NA,NA,NA,NA,NA,5,#D8271C,#741CD8,10,0,1,38,1,430.79999999981374,37,1,811.8999999994412,10,1,experiment,NA,NA,1,0.7,0.3,2,3,51,2,NA
fcp-trial,91,579764,0.0-60.0-0.0,voc_e2,12167,"[{""event"":""fullscreenenter"",""trial"":1,""time"":7680}]",NA,NA,NA,NA,NA,4,#D89F1C,#3386FF,0,0,1,38,1,421.79999999981374,37,1,581.7000000001863,0,1,experiment,NA,NA,2,0.5,0.5,4,5,52,2,NA
fcp-trial,92,582755,0.0-61.0-0.0,voc_e2,12167,"[{""event"":""fullscreenenter"",""trial"":1,""time"":7680}]",NA,NA,NA,NA,NA,6,#741CD8,#D8271C,0,10,0,38,1,1050.9000000003725,39,0,433,10,1,experiment,NA,NA,1,0.3,0.7,3,2,53,2,NA
fcp-trial,93,585403,0.0-62.0-0.0,voc_e2,12167,"[{""event"":""fullscreenenter"",""trial"":1,""time"":7680}]",NA,NA,NA,NA,NA,2,#D89F1C,#3386FF,0,10,1,38,1,643.0999999996275,37,1,497.40000000037253,0,1,experiment,NA,NA,2,0.5,0.5,4,5,54,2,NA
fcp-trial,94,588013,0.0-63.0-0.0,voc_e2,12167,"[{""event"":""fullscreenenter"",""trial"":1,""time"":7680}]",NA,NA,NA,NA,NA,5,#FA92F8,#1CD855,10,0,1,38,1,519.2000000001863,37,1,583.3999999994412,10,1,experiment,NA,NA,0,0.9,0.1,0,1,55,2,NA
fcp-trial,95,591123,0.0-64.0-0.0,voc_e2,12167,"[{""event"":""fullscreenenter"",""trial"":1,""time"":7680}]",NA,NA,NA,NA,NA,0,#741CD8,#D8271C,0,10,0,38,1,1179.1000000005588,39,0,424.29999999981374,10,1,experiment,NA,NA,1,0.3,0.7,3,2,56,2,NA
fcp-trial,96,595105,0.0-65.0-0.0,voc_e2,12167,"[{""event"":""fullscreenenter"",""trial"":1,""time"":7680}]",NA,NA,NA,NA,NA,3,#FA92F8,#1CD855,10,0,1,38,1,2011.5,37,1,464.5,10,1,experiment,NA,NA,0,0.9,0.1,0,1,57,2,NA
fcp-trial,97,598024,0.0-66.0-0.0,voc_e2,12167,"[{""event"":""fullscreenenter"",""trial"":1,""time"":7680}]",NA,NA,NA,NA,NA,0,#1CD855,#FA92F8,0,10,0,38,1,776,39,0,635.7999999998137,10,1,experiment,NA,NA,0,0.1,0.9,1,0,58,2,NA
fcp-trial,98,601303,0.0-67.0-0.0,voc_e2,12167,"[{""event"":""fullscreenenter"",""trial"":1,""time"":7680}]",NA,NA,NA,NA,NA,6,#3386FF,#D89F1C,10,0,0,38,1,1345.7999999998137,39,0,428.09999999962747,0,1,experiment,NA,NA,2,0.5,0.5,5,4,59,2,NA
fcp-trial,99,604399,0.0-68.0-0.0,voc_e2,12167,"[{""event"":""fullscreenenter"",""trial"":1,""time"":7680}]",NA,NA,NA,NA,NA,4,#741CD8,#D8271C,0,10,0,38,1,1314.7999999998137,39,0,277.20000000018626,10,1,experiment,NA,NA,1,0.3,0.7,3,2,60,2,NA
fcp-trial,100,606999,0.0-69.0-0.0,voc_e2,12167,"[{""event"":""fullscreenenter"",""trial"":1,""time"":7680}]",NA,NA,NA,NA,NA,2,#FA92F8,#1CD855,10,0,1,38,1,785.5999999996275,37,1,305,10,1,experiment,NA,NA,0,0.9,0.1,0,1,61,2,NA
fcp-trial,101,609843,0.0-70.0-0.0,voc_e2,12167,"[{""event"":""fullscreenenter"",""trial"":1,""time"":7680}]",NA,NA,NA,NA,NA,3,#3386FF,#D89F1C,0,10,0,38,1,457.79999999981374,39,0,877.2000000001863,10,1,experiment,NA,NA,2,0.5,0.5,5,4,62,2,NA
fcp-trial,102,613560,0.0-71.0-0.0,voc_e2,12167,"[{""event"":""fullscreenenter"",""trial"":1,""time"":7680}]",NA,NA,NA,NA,NA,0,#3386FF,#D89F1C,0,0,0,38,1,1035,39,0,1178.3999999994412,0,1,experiment,NA,NA,2,0.5,0.5,5,4,63,2,NA
fcp-trial,103,616355,0.0-72.0-0.0,voc_e2,12167,"[{""event"":""fullscreenenter"",""trial"":1,""time"":7680}]",NA,NA,NA,NA,NA,3,#3386FF,#D89F1C,0,10,0,38,1,848.2000000001863,39,0,442.40000000037253,10,1,experiment,NA,NA,2,0.5,0.5,5,4,64,2,NA
fcp-trial,104,619030,0.0-73.0-0.0,voc_e2,12167,"[{""event"":""fullscreenenter"",""trial"":1,""time"":7680}]",NA,NA,NA,NA,NA,2,#D89F1C,#3386FF,10,10,1,38,1,752.5999999996275,37,1,418.8999999994412,10,1,experiment,NA,NA,2,0.5,0.5,4,5,65,2,NA
fcp-trial,105,622883,0.0-74.0-0.0,voc_e2,12167,"[{""event"":""fullscreenenter"",""trial"":1,""time"":7680}]",NA,NA,NA,NA,NA,5,#D89F1C,#3386FF,0,0,1,38,1,42.299999999813735,37,1,2307.899999999441,0,1,experiment,NA,NA,2,0.5,0.5,4,5,66,2,NA
fcp-trial,106,630307,0.0-75.0-0.0,voc_e2,12167,"[{""event"":""fullscreenenter"",""trial"":1,""time"":7680}]",NA,NA,NA,NA,NA,1,#741CD8,#D8271C,0,10,0,40,0,3345.7999999998137,37,1,2570.2000000001863,0,0,experiment,NA,NA,1,0.3,0.7,3,2,67,2,NA
fcp-trial,107,636825,0.0-76.0-0.0,voc_e2,12167,"[{""event"":""fullscreenenter"",""trial"":1,""time"":7680}]",NA,NA,NA,NA,NA,3,#FA92F8,#1CD855,0,0,1,38,1,4327.5,37,1,686.0999999996275,0,1,experiment,NA,NA,0,0.9,0.1,0,1,68,2,NA
fcp-trial,108,639080,0.0-77.0-0.0,voc_e2,12167,"[{""event"":""fullscreenenter"",""trial"":1,""time"":7680}]",NA,NA,NA,NA,NA,0,#1CD855,#FA92F8,0,0,0,38,1,424.8999999994412,39,0,326.3999999994412,0,1,experiment,NA,NA,0,0.1,0.9,1,0,69,2,NA
fcp-trial,109,641481,0.0-78.0-0.0,voc_e2,12167,"[{""event"":""fullscreenenter"",""trial"":1,""time"":7680}]",NA,NA,NA,NA,NA,6,#D89F1C,#3386FF,10,10,1,38,1,420.29999999981374,37,1,477.20000000018626,10,1,experiment,NA,NA,2,0.5,0.5,4,5,70,2,NA
fcp-trial,110,644504,0.0-79.0-0.0,voc_e2,12167,"[{""event"":""fullscreenenter"",""trial"":1,""time"":7680}]",NA,NA,NA,NA,NA,0,#D8271C,#741CD8,0,0,1,38,1,649.3999999994412,37,1,867.1000000005588,0,1,experiment,NA,NA,1,0.7,0.3,2,3,71,2,NA
fcp-trial,111,649799,0.0-80.0-0.0,voc_e2,12167,"[{""event"":""fullscreenenter"",""trial"":1,""time"":7680}]",NA,NA,NA,NA,NA,6,#741CD8,#D8271C,0,10,0,40,0,1916.8999999994412,37,1,1874.5999999996275,0,0,experiment,NA,NA,1,0.3,0.7,3,2,72,2,NA
fcp-trial,112,654537,0.0-81.0-0.0,voc_e2,12167,"[{""event"":""fullscreenenter"",""trial"":1,""time"":7680}]",NA,NA,NA,NA,NA,0,#3386FF,#D89F1C,10,10,0,40,0,1023.3999999994412,39,0,2205.5,10,1,experiment,NA,NA,2,0.5,0.5,5,4,73,2,NA
fcp-trial,113,658531,0.0-82.0-0.0,voc_e2,12167,"[{""event"":""fullscreenenter"",""trial"":1,""time"":7680}]",NA,NA,NA,NA,NA,4,#FA92F8,#1CD855,10,0,1,40,0,1487.5,37,1,1003.3000000007451,10,1,experiment,NA,NA,0,0.9,0.1,0,1,74,2,NA
fcp-trial,114,662839,0.0-83.0-0.0,voc_e2,12167,"[{""event"":""fullscreenenter"",""trial"":1,""time"":7680}]",NA,NA,NA,NA,NA,1,#FA92F8,#1CD855,10,0,1,40,0,761.2999999998137,39,0,2043.8999999994412,0,0,experiment,NA,NA,0,0.9,0.1,0,1,75,2,NA
fcp-trial,115,668698,0.0-84.0-0.0,voc_e2,12167,"[{""event"":""fullscreenenter"",""trial"":1,""time"":7680}]",NA,NA,NA,NA,NA,2,#1CD855,#FA92F8,0,0,0,40,0,3406.9000000003725,37,1,947.7000000001863,0,0,experiment,NA,NA,0,0.1,0.9,1,0,76,2,NA
fcp-trial,116,673801,0.0-85.0-0.0,voc_e2,12167,"[{""event"":""fullscreenenter"",""trial"":1,""time"":7680}]",NA,NA,NA,NA,NA,2,#D8271C,#741CD8,10,10,1,38,1,2405.399999999441,37,1,1188.699999999255,10,1,experiment,NA,NA,1,0.7,0.3,2,3,77,2,NA
fcp-trial,117,676664,0.0-86.0-0.0,voc_e2,12167,"[{""event"":""fullscreenenter"",""trial"":1,""time"":7680}]",NA,NA,NA,NA,NA,1,#D89F1C,#3386FF,0,10,1,38,1,954.6999999992549,37,1,401.79999999981374,0,1,experiment,NA,NA,2,0.5,0.5,4,5,78,2,NA
fcp-trial,118,680816,0.0-87.0-0.0,voc_e2,12167,"[{""event"":""fullscreenenter"",""trial"":1,""time"":7680}]",NA,NA,NA,NA,NA,4,#D8271C,#741CD8,0,0,1,38,1,1699.800000000745,37,1,943.1999999992549,0,1,experiment,NA,NA,1,0.7,0.3,2,3,79,2,NA
fcp-trial,119,685270,0.0-88.0-0.0,voc_e2,12167,"[{""event"":""fullscreenenter"",""trial"":1,""time"":7680}]",NA,NA,NA,NA,NA,5,#741CD8,#D8271C,0,10,0,40,0,1066.5,39,0,1878.5999999996275,10,1,experiment,NA,NA,1,0.3,0.7,3,2,80,2,NA
fcp-trial,120,690534,0.0-89.0-0.0,voc_e2,12167,"[{""event"":""fullscreenenter"",""trial"":1,""time"":7680}]",NA,NA,NA,NA,NA,6,#1CD855,#FA92F8,0,10,0,40,0,994.7999999998137,37,1,2765.300000000745,0,0,experiment,NA,NA,0,0.1,0.9,1,0,81,2,NA
fcp-trial,121,693953,0.0-90.0-0.0,voc_e2,12167,"[{""event"":""fullscreenenter"",""trial"":1,""time"":7680}]",NA,NA,NA,NA,NA,4,#D89F1C,#3386FF,0,10,1,40,0,760.7999999998137,37,1,1154.2999999998137,0,1,experiment,NA,NA,2,0.5,0.5,4,5,82,2,NA
fcp-trial,122,697630,0.0-91.0-0.0,voc_e2,12167,"[{""event"":""fullscreenenter"",""trial"":1,""time"":7680}]",NA,NA,NA,NA,NA,3,#741CD8,#D8271C,10,0,0,38,1,1186,39,0,987.4000000003725,0,1,experiment,NA,NA,1,0.3,0.7,3,2,83,2,NA
fcp-trial,123,700248,0.0-92.0-0.0,voc_e2,12167,"[{""event"":""fullscreenenter"",""trial"":1,""time"":7680}]",NA,NA,NA,NA,NA,5,#FA92F8,#1CD855,10,10,1,38,1,380.59999999962747,37,1,733.7999999998137,10,1,experiment,NA,NA,0,0.9,0.1,0,1,84,2,NA
fcp-trial,124,704615,0.0-93.0-0.0,voc_e2,12167,"[{""event"":""fullscreenenter"",""trial"":1,""time"":7680}]",NA,NA,NA,NA,NA,5,#3386FF,#D89F1C,10,10,0,40,0,1228.0999999996275,37,1,1628.7000000001863,10,0,experiment,NA,NA,2,0.5,0.5,5,4,85,2,NA
fcp-trial,125,709070,0.0-94.0-0.0,voc_e2,12167,"[{""event"":""fullscreenenter"",""trial"":1,""time"":7680}]",NA,NA,NA,NA,NA,1,#D8271C,#741CD8,10,0,1,38,1,1920.300000000745,37,1,1027,10,1,experiment,NA,NA,1,0.7,0.3,2,3,86,2,NA
fcp-trial,126,713640,0.0-95.0-0.0,voc_e2,12167,"[{""event"":""fullscreenenter"",""trial"":1,""time"":7680}]",NA,NA,NA,NA,NA,0,#FA92F8,#1CD855,10,0,1,38,1,1318.6000000005588,37,1,1747.1000000005588,10,1,experiment,NA,NA,0,0.9,0.1,0,1,87,2,NA
fcp-trial,127,718706,0.0-96.0-0.0,voc_e2,12167,"[{""event"":""fullscreenenter"",""trial"":1,""time"":7680}]",NA,NA,NA,NA,NA,4,#D89F1C,#3386FF,10,10,1,40,0,2622.7000000001863,37,1,940.5,10,1,experiment,NA,NA,2,0.5,0.5,4,5,88,2,NA
fcp-trial,128,722640,0.0-97.0-0.0,voc_e2,12167,"[{""event"":""fullscreenenter"",""trial"":1,""time"":7680}]",NA,NA,NA,NA,NA,0,#741CD8,#D8271C,0,0,0,40,0,965.6000000005588,37,1,1464.5999999996275,0,0,experiment,NA,NA,1,0.3,0.7,3,2,89,2,NA
fcp-trial,129,726801,0.0-98.0-0.0,voc_e2,12167,"[{""event"":""fullscreenenter"",""trial"":1,""time"":7680}]",NA,NA,NA,NA,NA,4,#FA92F8,#1CD855,10,0,1,40,0,1619.2999999998137,37,1,1038.2999999998137,10,1,experiment,NA,NA,0,0.9,0.1,0,1,90,2,NA
fcp-trial,130,730686,0.0-99.0-0.0,voc_e2,12167,"[{""event"":""fullscreenenter"",""trial"":1,""time"":7680}]",NA,NA,NA,NA,NA,3,#D8271C,#741CD8,10,0,1,38,1,1353.2000000001863,37,1,1028.3999999994412,10,1,experiment,NA,NA,1,0.7,0.3,2,3,91,3,NA
fcp-trial,131,733878,0.0-100.0-0.0,voc_e2,12167,"[{""event"":""fullscreenenter"",""trial"":1,""time"":7680}]",NA,NA,NA,NA,NA,2,#FA92F8,#1CD855,10,0,1,38,1,1139.7000000001863,37,1,545.7999999998137,10,1,experiment,NA,NA,0,0.9,0.1,0,1,92,3,NA
fcp-trial,132,737444,0.0-101.0-0.0,voc_e2,12167,"[{""event"":""fullscreenenter"",""trial"":1,""time"":7680}]",NA,NA,NA,NA,NA,1,#3386FF,#D89F1C,10,10,0,38,1,789.2999999998137,39,0,1269.2999999998137,10,1,experiment,NA,NA,2,0.5,0.5,5,4,93,3,NA
fcp-trial,133,740313,0.0-102.0-0.0,voc_e2,12167,"[{""event"":""fullscreenenter"",""trial"":1,""time"":7680}]",NA,NA,NA,NA,NA,5,#741CD8,#D8271C,0,10,0,38,1,650.2000000001863,39,0,715.2999999998137,10,1,experiment,NA,NA,1,0.3,0.7,3,2,94,3,NA
fcp-trial,134,744635,0.0-103.0-0.0,voc_e2,12167,"[{""event"":""fullscreenenter"",""trial"":1,""time"":7680}]",NA,NA,NA,NA,NA,5,#FA92F8,#1CD855,0,0,1,38,1,2397.9000000003725,37,1,415.40000000037253,0,1,experiment,NA,NA,0,0.9,0.1,0,1,95,3,NA
fcp-trial,135,748603,0.0-104.0-0.0,voc_e2,12167,"[{""event"":""fullscreenenter"",""trial"":1,""time"":7680}]",NA,NA,NA,NA,NA,2,#3386FF,#D89F1C,0,0,0,38,1,1884.2999999998137,39,0,579.5,0,1,experiment,NA,NA,2,0.5,0.5,5,4,96,3,NA
fcp-trial,136,751890,0.0-105.0-0.0,voc_e2,12167,"[{""event"":""fullscreenenter"",""trial"":1,""time"":7680}]",NA,NA,NA,NA,NA,0,#D89F1C,#3386FF,10,10,1,38,1,1117.5,37,1,663.6000000005588,10,1,experiment,NA,NA,2,0.5,0.5,4,5,97,3,NA
fcp-trial,137,755058,0.0-106.0-0.0,voc_e2,12167,"[{""event"":""fullscreenenter"",""trial"":1,""time"":7680}]",NA,NA,NA,NA,NA,2,#741CD8,#D8271C,0,0,0,38,1,957.1999999992549,39,0,704.0999999996275,0,1,experiment,NA,NA,1,0.3,0.7,3,2,98,3,NA
fcp-trial,138,758186,0.0-107.0-0.0,voc_e2,12167,"[{""event"":""fullscreenenter"",""trial"":1,""time"":7680}]",NA,NA,NA,NA,NA,4,#D8271C,#741CD8,10,0,1,38,1,1177.9000000003725,37,1,445.59999999962747,10,1,experiment,NA,NA,1,0.7,0.3,2,3,99,3,NA
fcp-trial,139,761535,0.0-108.0-0.0,voc_e2,12167,"[{""event"":""fullscreenenter"",""trial"":1,""time"":7680}]",NA,NA,NA,NA,NA,1,#FA92F8,#1CD855,10,0,1,38,1,665.0999999996275,37,1,1177.4000000003725,10,1,experiment,NA,NA,0,0.9,0.1,0,1,100,3,NA
fcp-trial,140,765662,0.0-109.0-0.0,voc_e2,12167,"[{""event"":""fullscreenenter"",""trial"":1,""time"":7680}]",NA,NA,NA,NA,NA,6,#741CD8,#D8271C,0,10,0,40,0,1772.7999999998137,39,0,847.7000000001863,10,1,experiment,NA,NA,1,0.3,0.7,3,2,101,3,NA
fcp-trial,141,770881,0.0-110.0-0.0,voc_e2,12167,"[{""event"":""fullscreenenter"",""trial"":1,""time"":7680}]",NA,NA,NA,NA,NA,6,#3386FF,#D89F1C,10,10,0,38,1,2695,37,1,1019.5,10,0,experiment,NA,NA,2,0.5,0.5,5,4,102,3,NA
fcp-trial,142,774972,0.0-111.0-0.0,voc_e2,12167,"[{""event"":""fullscreenenter"",""trial"":1,""time"":7680}]",NA,NA,NA,NA,NA,6,#FA92F8,#1CD855,0,0,1,38,1,1325.2999999998137,39,0,1255,0,0,experiment,NA,NA,0,0.9,0.1,0,1,103,3,NA
fcp-trial,143,779051,0.0-112.0-0.0,voc_e2,12167,"[{""event"":""fullscreenenter"",""trial"":1,""time"":7680}]",NA,NA,NA,NA,NA,3,#D89F1C,#3386FF,10,0,1,40,0,1257.7000000001863,39,0,1315.800000000745,0,0,experiment,NA,NA,2,0.5,0.5,4,5,104,3,NA
fcp-trial,144,783034,0.0-113.0-0.0,voc_e2,12167,"[{""event"":""fullscreenenter"",""trial"":1,""time"":7680}]",NA,NA,NA,NA,NA,3,#1CD855,#FA92F8,0,10,0,38,1,2174.2000000001863,39,0,305.5,10,1,experiment,NA,NA,0,0.1,0.9,1,0,105,3,NA
audio-instructions,145,890673,0.0-114.0,voc_e2,12167,"[{""event"":""fullscreenenter"",""trial"":1,""time"":7680}]",NA,102872.10000000056,static/audio/pause.wav,NA,0,NA,NA,NA,NA,NA,NA,NA,NA,NA,NA,NA,NA,NA,NA,NA,NA,NA,NA,NA,NA,NA,NA,NA,NA,NA
fcp-trial,146,894855,0.0-115.0-0.0,voc_e2,12167,"[{""event"":""fullscreenenter"",""trial"":1,""time"":7680}]",NA,NA,NA,NA,NA,5,#741CD8,#D8271C,10,10,0,38,1,2234.2000000001863,39,0,438.29999999981374,10,1,experiment,NA,NA,1,0.3,0.7,3,2,106,3,NA
fcp-trial,147,898390,0.0-116.0-0.0,voc_e2,12167,"[{""event"":""fullscreenenter"",""trial"":1,""time"":7680}]",NA,NA,NA,NA,NA,6,#1CD855,#FA92F8,0,10,0,40,0,788.0999999996275,39,0,1241.2000000001863,10,1,experiment,NA,NA,0,0.1,0.9,1,0,107,3,NA
fcp-trial,148,902023,0.0-117.0-0.0,voc_e2,12167,"[{""event"":""fullscreenenter"",""trial"":1,""time"":7680}]",NA,NA,NA,NA,NA,2,#3386FF,#D89F1C,0,0,0,38,1,1393,39,0,732.8999999994412,0,1,experiment,NA,NA,2,0.5,0.5,5,4,108,3,NA
fcp-trial,149,905534,0.0-118.0-0.0,voc_e2,12167,"[{""event"":""fullscreenenter"",""trial"":1,""time"":7680}]",NA,NA,NA,NA,NA,2,#D8271C,#741CD8,10,0,1,38,1,777.8999999994412,37,1,1230.2000000001863,10,1,experiment,NA,NA,1,0.7,0.3,2,3,109,3,NA
fcp-trial,150,908649,0.0-119.0-0.0,voc_e2,12167,"[{""event"":""fullscreenenter"",""trial"":1,""time"":7680}]",NA,NA,NA,NA,NA,1,#FA92F8,#1CD855,0,0,1,40,0,1155.4000000003725,39,0,456.19999999925494,0,0,experiment,NA,NA,0,0.9,0.1,0,1,110,3,NA
fcp-trial,151,913248,0.0-120.0-0.0,voc_e2,12167,"[{""event"":""fullscreenenter"",""trial"":1,""time"":7680}]",NA,NA,NA,NA,NA,3,#3386FF,#D89F1C,10,0,0,40,0,1879,39,0,1216.699999999255,0,1,experiment,NA,NA,2,0.5,0.5,5,4,111,3,NA
fcp-trial,152,917011,0.0-121.0-0.0,voc_e2,12167,"[{""event"":""fullscreenenter"",""trial"":1,""time"":7680}]",NA,NA,NA,NA,NA,5,#D89F1C,#3386FF,10,0,1,38,1,1940.2000000001863,39,0,319.6000000005588,0,0,experiment,NA,NA,2,0.5,0.5,4,5,112,3,NA
fcp-trial,153,920508,0.0-122.0-0.0,voc_e2,12167,"[{""event"":""fullscreenenter"",""trial"":1,""time"":7680}]",NA,NA,NA,NA,NA,2,#1CD855,#FA92F8,10,10,0,38,1,1600,39,0,388.5,10,1,experiment,NA,NA,0,0.1,0.9,1,0,113,3,NA
fcp-trial,154,923740,0.0-123.0-0.0,voc_e2,12167,"[{""event"":""fullscreenenter"",""trial"":1,""time"":7680}]",NA,NA,NA,NA,NA,1,#741CD8,#D8271C,0,10,0,38,1,77.1000000005588,39,0,1651.800000000745,10,1,experiment,NA,NA,1,0.3,0.7,3,2,114,3,NA
fcp-trial,155,928532,0.0-124.0-0.0,voc_e2,12167,"[{""event"":""fullscreenenter"",""trial"":1,""time"":7680}]",NA,NA,NA,NA,NA,4,#3386FF,#D89F1C,0,0,0,40,0,1363.5999999996275,37,1,1924.1000000005588,0,0,experiment,NA,NA,2,0.5,0.5,5,4,115,3,NA
fcp-trial,156,931666,0.0-125.0-0.0,voc_e2,12167,"[{""event"":""fullscreenenter"",""trial"":1,""time"":7680}]",NA,NA,NA,NA,NA,0,#1CD855,#FA92F8,0,10,0,38,1,935.7000000001863,39,0,695.5999999996275,10,1,experiment,NA,NA,0,0.1,0.9,1,0,116,3,NA
fcp-trial,157,935103,0.0-126.0-0.0,voc_e2,12167,"[{""event"":""fullscreenenter"",""trial"":1,""time"":7680}]",NA,NA,NA,NA,NA,3,#D8271C,#741CD8,10,0,1,40,0,1055,37,1,878.0999999996275,10,1,experiment,NA,NA,1,0.7,0.3,2,3,117,3,NA
fcp-trial,158,939431,0.0-127.0-0.0,voc_e2,12167,"[{""event"":""fullscreenenter"",""trial"":1,""time"":7680}]",NA,NA,NA,NA,NA,6,#3386FF,#D89F1C,0,0,0,40,0,1992.7999999998137,37,1,832,0,0,experiment,NA,NA,2,0.5,0.5,5,4,118,3,NA
fcp-trial,159,943482,0.0-128.0-0.0,voc_e2,12167,"[{""event"":""fullscreenenter"",""trial"":1,""time"":7680}]",NA,NA,NA,NA,NA,6,#741CD8,#D8271C,0,10,0,38,1,1366.4000000003725,39,0,1181.2999999998137,10,1,experiment,NA,NA,1,0.3,0.7,3,2,119,3,NA
fcp-trial,160,946956,0.0-129.0-0.0,voc_e2,12167,"[{""event"":""fullscreenenter"",""trial"":1,""time"":7680}]",NA,NA,NA,NA,NA,4,#1CD855,#FA92F8,10,10,0,40,0,978.9000000003725,37,1,991,10,0,experiment,NA,NA,0,0.1,0.9,1,0,120,3,NA
fcp-trial,161,951905,0.0-130.0-0.0,voc_e2,12167,"[{""event"":""fullscreenenter"",""trial"":1,""time"":7680}]",NA,NA,NA,NA,NA,4,#D8271C,#741CD8,0,0,1,40,0,2184.0999999996275,37,1,1261.5999999996275,0,1,experiment,NA,NA,1,0.7,0.3,2,3,121,3,NA
fcp-trial,162,957323,0.0-131.0-0.0,voc_e2,12167,"[{""event"":""fullscreenenter"",""trial"":1,""time"":7680}]",NA,NA,NA,NA,NA,0,#3386FF,#D89F1C,10,10,0,38,1,3050.2000000001863,39,0,863.8000000007451,10,1,experiment,NA,NA,2,0.5,0.5,5,4,122,3,NA
fcp-trial,163,960461,0.0-132.0-0.0,voc_e2,12167,"[{""event"":""fullscreenenter"",""trial"":1,""time"":7680}]",NA,NA,NA,NA,NA,5,#1CD855,#FA92F8,0,10,0,38,1,604.2999999998137,39,0,1030,10,1,experiment,NA,NA,0,0.1,0.9,1,0,123,3,NA
fcp-trial,164,964092,0.0-133.0-0.0,voc_e2,12167,"[{""event"":""fullscreenenter"",""trial"":1,""time"":7680}]",NA,NA,NA,NA,NA,0,#D8271C,#741CD8,10,10,1,38,1,1522.7000000001863,37,1,599.2999999998137,10,1,experiment,NA,NA,1,0.7,0.3,2,3,124,3,NA
fcp-trial,165,966773,0.0-134.0-0.0,voc_e2,12167,"[{""event"":""fullscreenenter"",""trial"":1,""time"":7680}]",NA,NA,NA,NA,NA,1,#D89F1C,#3386FF,10,10,1,38,1,585.5999999996275,39,0,591.7999999998137,10,0,experiment,NA,NA,2,0.5,0.5,4,5,125,3,NA
fcp-trial,166,969540,0.0-135.0-0.0,voc_e2,12167,"[{""event"":""fullscreenenter"",""trial"":1,""time"":7680}]",NA,NA,NA,NA,NA,3,#1CD855,#FA92F8,0,10,0,38,1,780.3999999994412,39,0,482.90000000037253,10,1,experiment,NA,NA,0,0.1,0.9,1,0,126,3,NA
fcp-trial,167,972358,0.0-136.0-0.0,voc_e2,12167,"[{""event"":""fullscreenenter"",""trial"":1,""time"":7680}]",NA,NA,NA,NA,NA,5,#FA92F8,#1CD855,10,0,1,38,1,446.5,37,1,868.2000000001863,10,1,experiment,NA,NA,0,0.9,0.1,0,1,127,3,NA
fcp-trial,168,976261,0.0-137.0-0.0,voc_e2,12167,"[{""event"":""fullscreenenter"",""trial"":1,""time"":7680}]",NA,NA,NA,NA,NA,4,#D89F1C,#3386FF,0,0,1,40,0,504.70000000018626,39,0,1894.7999999998137,0,0,experiment,NA,NA,2,0.5,0.5,4,5,128,3,NA
fcp-trial,169,979855,0.0-138.0-0.0,voc_e2,12167,"[{""event"":""fullscreenenter"",""trial"":1,""time"":7680}]",NA,NA,NA,NA,NA,2,#FA92F8,#1CD855,0,0,1,40,0,1021.5,39,0,1063.0999999996275,0,0,experiment,NA,NA,0,0.9,0.1,0,1,129,3,NA
fcp-trial,170,983324,0.0-139.0-0.0,voc_e2,12167,"[{""event"":""fullscreenenter"",""trial"":1,""time"":7680}]",NA,NA,NA,NA,NA,5,#D8271C,#741CD8,10,0,1,40,0,1210.0999999996275,39,0,755.0999999996275,0,0,experiment,NA,NA,1,0.7,0.3,2,3,130,3,NA
fcp-trial,171,986922,0.0-140.0-0.0,voc_e2,12167,"[{""event"":""fullscreenenter"",""trial"":1,""time"":7680}]",NA,NA,NA,NA,NA,4,#FA92F8,#1CD855,10,0,1,40,0,1056.2999999998137,37,1,1038.5999999996275,10,1,experiment,NA,NA,0,0.9,0.1,0,1,131,3,NA
fcp-trial,172,990110,0.0-141.0-0.0,voc_e2,12167,"[{""event"":""fullscreenenter"",""trial"":1,""time"":7680}]",NA,NA,NA,NA,NA,3,#D89F1C,#3386FF,10,10,1,38,1,448.20000000018626,39,0,1235.7999999998137,10,0,experiment,NA,NA,2,0.5,0.5,4,5,132,3,NA
fcp-trial,173,993393,0.0-142.0-0.0,voc_e2,12167,"[{""event"":""fullscreenenter"",""trial"":1,""time"":7680}]",NA,NA,NA,NA,NA,6,#1CD855,#FA92F8,0,10,0,40,0,4,37,1,1771.0999999996275,0,0,experiment,NA,NA,0,0.1,0.9,1,0,133,3,NA
fcp-trial,174,997742,0.0-143.0-0.0,voc_e2,12167,"[{""event"":""fullscreenenter"",""trial"":1,""time"":7680}]",NA,NA,NA,NA,NA,1,#3386FF,#D89F1C,10,0,0,38,1,2453.7000000001863,39,0,387.20000000018626,0,1,experiment,NA,NA,2,0.5,0.5,5,4,134,3,NA
fcp-trial,175,1000430,0.0-144.0-0.0,voc_e2,12167,"[{""event"":""fullscreenenter"",""trial"":1,""time"":7680}]",NA,NA,NA,NA,NA,0,#741CD8,#D8271C,0,10,0,38,1,476.40000000037253,39,0,699.8999999994412,10,1,experiment,NA,NA,1,0.3,0.7,3,2,135,3,NA
fcp-trial,176,1003906,0.0-145.0-0.0,voc_e2,12167,"[{""event"":""fullscreenenter"",""trial"":1,""time"":7680}]",NA,NA,NA,NA,NA,6,#D8271C,#741CD8,10,0,1,38,1,450.20000000018626,37,1,1522.0999999996275,10,1,experiment,NA,NA,1,0.7,0.3,2,3,136,4,NA
fcp-trial,177,1006602,0.0-146.0-0.0,voc_e2,12167,"[{""event"":""fullscreenenter"",""trial"":1,""time"":7680}]",NA,NA,NA,NA,NA,5,#D89F1C,#3386FF,0,10,1,38,1,767.8999999994412,39,0,425.19999999925494,10,0,experiment,NA,NA,2,0.5,0.5,4,5,137,4,NA
fcp-trial,178,1010639,0.0-147.0-0.0,voc_e2,12167,"[{""event"":""fullscreenenter"",""trial"":1,""time"":7680}]",NA,NA,NA,NA,NA,3,#FA92F8,#1CD855,10,0,1,40,0,1501.1000000005588,39,0,1031.5999999996275,0,0,experiment,NA,NA,0,0.9,0.1,0,1,138,4,NA
fcp-trial,179,1014806,0.0-148.0-0.0,voc_e2,12167,"[{""event"":""fullscreenenter"",""trial"":1,""time"":7680}]",NA,NA,NA,NA,NA,1,#741CD8,#D8271C,10,0,0,38,1,724.1000000005588,37,1,1939.5,10,0,experiment,NA,NA,1,0.3,0.7,3,2,139,4,NA
fcp-trial,180,1018415,0.0-149.0-0.0,voc_e2,12167,"[{""event"":""fullscreenenter"",""trial"":1,""time"":7680}]",NA,NA,NA,NA,NA,3,#741CD8,#D8271C,0,10,0,38,1,1561.5,39,0,544.2000000001863,10,1,experiment,NA,NA,1,0.3,0.7,3,2,140,4,NA
fcp-trial,181,1021982,0.0-150.0-0.0,voc_e2,12167,"[{""event"":""fullscreenenter"",""trial"":1,""time"":7680}]",NA,NA,NA,NA,NA,1,#FA92F8,#1CD855,0,0,1,38,1,1223.7000000001863,37,1,840.4000000003725,0,1,experiment,NA,NA,0,0.9,0.1,0,1,141,4,NA
fcp-trial,182,1025024,0.0-151.0-0.0,voc_e2,12167,"[{""event"":""fullscreenenter"",""trial"":1,""time"":7680}]",NA,NA,NA,NA,NA,6,#3386FF,#D89F1C,10,10,0,38,1,1194.8999999994412,37,1,342.5,10,0,experiment,NA,NA,2,0.5,0.5,5,4,142,4,NA
fcp-trial,183,1027729,0.0-152.0-0.0,voc_e2,12167,"[{""event"":""fullscreenenter"",""trial"":1,""time"":7680}]",NA,NA,NA,NA,NA,2,#3386FF,#D89F1C,10,10,0,38,1,737.2000000001863,37,1,465.20000000018626,10,0,experiment,NA,NA,2,0.5,0.5,5,4,143,4,NA
fcp-trial,184,1031562,0.0-153.0-0.0,voc_e2,12167,"[{""event"":""fullscreenenter"",""trial"":1,""time"":7680}]",NA,NA,NA,NA,NA,0,#3386FF,#D89F1C,10,10,0,38,1,1585.5,37,1,743.5,10,0,experiment,NA,NA,2,0.5,0.5,5,4,144,4,NA
fcp-trial,185,1034296,0.0-154.0-0.0,voc_e2,12167,"[{""event"":""fullscreenenter"",""trial"":1,""time"":7680}]",NA,NA,NA,NA,NA,4,#741CD8,#D8271C,0,10,0,38,1,420.59999999962747,39,0,808.2000000001863,10,1,experiment,NA,NA,1,0.3,0.7,3,2,145,4,NA
fcp-trial,186,1036768,0.0-155.0-0.0,voc_e2,12167,"[{""event"":""fullscreenenter"",""trial"":1,""time"":7680}]",NA,NA,NA,NA,NA,0,#1CD855,#FA92F8,0,10,0,38,1,334.3999999994412,39,0,634.4000000003725,10,1,experiment,NA,NA,0,0.1,0.9,1,0,146,4,NA
fcp-trial,187,1039666,0.0-156.0-0.0,voc_e2,12167,"[{""event"":""fullscreenenter"",""trial"":1,""time"":7680}]",NA,NA,NA,NA,NA,2,#741CD8,#D8271C,0,10,0,38,1,308.59999999962747,39,0,1086.2000000001863,10,1,experiment,NA,NA,1,0.3,0.7,3,2,147,4,NA
fcp-trial,188,1043207,0.0-157.0-0.0,voc_e2,12167,"[{""event"":""fullscreenenter"",""trial"":1,""time"":7680}]",NA,NA,NA,NA,NA,5,#D89F1C,#3386FF,0,10,1,40,0,1057.5999999996275,37,1,978.4000000003725,0,1,experiment,NA,NA,2,0.5,0.5,4,5,148,4,NA
fcp-trial,189,1048563,0.0-158.0-0.0,voc_e2,12167,"[{""event"":""fullscreenenter"",""trial"":1,""time"":7680}]",NA,NA,NA,NA,NA,1,#D89F1C,#3386FF,0,10,1,38,1,2537.0999999996275,39,0,1314.4000000003725,10,0,experiment,NA,NA,2,0.5,0.5,4,5,149,4,NA
fcp-trial,190,1051803,0.0-159.0-0.0,voc_e2,12167,"[{""event"":""fullscreenenter"",""trial"":1,""time"":7680}]",NA,NA,NA,NA,NA,0,#FA92F8,#1CD855,10,0,1,38,1,842.4000000003725,37,1,893.8000000007451,10,1,experiment,NA,NA,0,0.9,0.1,0,1,150,4,NA
fcp-trial,191,1054663,0.0-160.0-0.0,voc_e2,12167,"[{""event"":""fullscreenenter"",""trial"":1,""time"":7680}]",NA,NA,NA,NA,NA,2,#D8271C,#741CD8,10,0,1,38,1,369.09999999962747,37,1,987.3999999994412,10,1,experiment,NA,NA,1,0.7,0.3,2,3,151,4,NA
fcp-trial,192,1057891,0.0-161.0-0.0,voc_e2,12167,"[{""event"":""fullscreenenter"",""trial"":1,""time"":7680}]",NA,NA,NA,NA,NA,1,#1CD855,#FA92F8,0,10,0,38,1,342.70000000018626,39,0,1382.0999999996275,10,1,experiment,NA,NA,0,0.1,0.9,1,0,152,4,NA
fcp-trial,193,1060915,0.0-162.0-0.0,voc_e2,12167,"[{""event"":""fullscreenenter"",""trial"":1,""time"":7680}]",NA,NA,NA,NA,NA,0,#741CD8,#D8271C,0,10,0,38,1,476,39,0,1035.9000000003725,10,1,experiment,NA,NA,1,0.3,0.7,3,2,153,4,NA
fcp-trial,194,1064338,0.0-163.0-0.0,voc_e2,12167,"[{""event"":""fullscreenenter"",""trial"":1,""time"":7680}]",NA,NA,NA,NA,NA,0,#D89F1C,#3386FF,10,10,1,38,1,658.7000000001863,39,0,1259.2000000001863,10,0,experiment,NA,NA,2,0.5,0.5,4,5,154,4,NA
fcp-trial,195,1067042,0.0-164.0-0.0,voc_e2,12167,"[{""event"":""fullscreenenter"",""trial"":1,""time"":7680}]",NA,NA,NA,NA,NA,6,#D89F1C,#3386FF,0,0,1,38,1,433.70000000018626,39,0,765.8999999994412,0,0,experiment,NA,NA,2,0.5,0.5,4,5,155,4,NA
fcp-trial,196,1069874,0.0-165.0-0.0,voc_e2,12167,"[{""event"":""fullscreenenter"",""trial"":1,""time"":7680}]",NA,NA,NA,NA,NA,6,#FA92F8,#1CD855,10,10,1,38,1,644.4000000003725,37,1,677.7000000001863,10,1,experiment,NA,NA,0,0.9,0.1,0,1,156,4,NA
fcp-trial,197,1073545,0.0-166.0-0.0,voc_e2,12167,"[{""event"":""fullscreenenter"",""trial"":1,""time"":7680}]",NA,NA,NA,NA,NA,6,#D8271C,#741CD8,10,0,1,38,1,809.6999999992549,37,1,1357.5,10,1,experiment,NA,NA,1,0.7,0.3,2,3,157,4,NA
fcp-trial,198,1076783,0.0-167.0-0.0,voc_e2,12167,"[{""event"":""fullscreenenter"",""trial"":1,""time"":7680}]",NA,NA,NA,NA,NA,5,#FA92F8,#1CD855,10,0,1,40,0,765.5999999996275,39,0,968.3999999994412,0,0,experiment,NA,NA,0,0.9,0.1,0,1,158,4,NA
fcp-trial,199,1079695,0.0-168.0-0.0,voc_e2,12167,"[{""event"":""fullscreenenter"",""trial"":1,""time"":7680}]",NA,NA,NA,NA,NA,4,#3386FF,#D89F1C,10,0,0,40,0,671.2999999998137,39,0,737.7000000001863,0,1,experiment,NA,NA,2,0.5,0.5,5,4,159,4,NA
fcp-trial,200,1084172,0.0-169.0-0.0,voc_e2,12167,"[{""event"":""fullscreenenter"",""trial"":1,""time"":7680}]",NA,NA,NA,NA,NA,4,#FA92F8,#1CD855,10,10,1,40,0,1745.7999999998137,37,1,1225.7000000001863,10,1,experiment,NA,NA,0,0.9,0.1,0,1,160,4,NA
fcp-trial,201,1088496,0.0-170.0-0.0,voc_e2,12167,"[{""event"":""fullscreenenter"",""trial"":1,""time"":7680}]",NA,NA,NA,NA,NA,1,#741CD8,#D8271C,0,0,0,38,1,1493.9000000003725,39,0,1326.7999999998137,0,1,experiment,NA,NA,1,0.3,0.7,3,2,161,4,NA
fcp-trial,202,1091925,0.0-171.0-0.0,voc_e2,12167,"[{""event"":""fullscreenenter"",""trial"":1,""time"":7680}]",NA,NA,NA,NA,NA,2,#FA92F8,#1CD855,10,10,1,38,1,721,37,1,1203.7000000001863,10,1,experiment,NA,NA,0,0.9,0.1,0,1,162,4,NA
fcp-trial,203,1094597,0.0-172.0-0.0,voc_e2,12167,"[{""event"":""fullscreenenter"",""trial"":1,""time"":7680}]",NA,NA,NA,NA,NA,2,#3386FF,#D89F1C,0,0,0,38,1,363.40000000037253,37,1,799.3000000007451,0,0,experiment,NA,NA,2,0.5,0.5,5,4,163,4,NA
fcp-trial,204,1098434,0.0-173.0-0.0,voc_e2,12167,"[{""event"":""fullscreenenter"",""trial"":1,""time"":7680}]",NA,NA,NA,NA,NA,3,#741CD8,#D8271C,0,10,0,40,0,1370.2000000001863,37,1,962.5999999996275,0,0,experiment,NA,NA,1,0.3,0.7,3,2,164,4,NA
fcp-trial,205,1104048,0.0-174.0-0.0,voc_e2,12167,"[{""event"":""fullscreenenter"",""trial"":1,""time"":7680}]",NA,NA,NA,NA,NA,3,#D89F1C,#3386FF,10,10,1,38,1,3179.7999999998137,39,0,930.5,10,0,experiment,NA,NA,2,0.5,0.5,4,5,165,4,NA
fcp-trial,206,1108249,0.0-175.0-0.0,voc_e2,12167,"[{""event"":""fullscreenenter"",""trial"":1,""time"":7680}]",NA,NA,NA,NA,NA,3,#FA92F8,#1CD855,0,0,1,38,1,1088.7999999998137,37,1,1607.8999999994412,0,1,experiment,NA,NA,0,0.9,0.1,0,1,166,4,NA
fcp-trial,207,1111672,0.0-176.0-0.0,voc_e2,12167,"[{""event"":""fullscreenenter"",""trial"":1,""time"":7680}]",NA,NA,NA,NA,NA,5,#741CD8,#D8271C,0,10,0,38,1,683.2999999998137,39,0,1235.5999999996275,10,1,experiment,NA,NA,1,0.3,0.7,3,2,167,4,NA
fcp-trial,208,1114322,0.0-177.0-0.0,voc_e2,12167,"[{""event"":""fullscreenenter"",""trial"":1,""time"":7680}]",NA,NA,NA,NA,NA,4,#741CD8,#D8271C,10,10,0,38,1,675.1000000005588,39,0,470.70000000018626,10,1,experiment,NA,NA,1,0.3,0.7,3,2,168,4,NA
fcp-trial,209,1117583,0.0-178.0-0.0,voc_e2,12167,"[{""event"":""fullscreenenter"",""trial"":1,""time"":7680}]",NA,NA,NA,NA,NA,2,#D8271C,#741CD8,10,0,1,38,1,642,37,1,1115.5999999996275,10,1,experiment,NA,NA,1,0.7,0.3,2,3,169,4,NA
fcp-trial,210,1121820,0.0-179.0-0.0,voc_e2,12167,"[{""event"":""fullscreenenter"",""trial"":1,""time"":7680}]",NA,NA,NA,NA,NA,5,#D89F1C,#3386FF,10,0,1,38,1,2370.7999999998137,39,0,363,0,0,experiment,NA,NA,2,0.5,0.5,4,5,170,4,NA
fcp-trial,211,1124895,0.0-180.0-0.0,voc_e2,12167,"[{""event"":""fullscreenenter"",""trial"":1,""time"":7680}]",NA,NA,NA,NA,NA,3,#FA92F8,#1CD855,10,0,1,40,0,823.8000000007451,37,1,746.9000000003725,10,1,experiment,NA,NA,0,0.9,0.1,0,1,171,4,NA
fcp-trial,212,1128545,0.0-181.0-0.0,voc_e2,12167,"[{""event"":""fullscreenenter"",""trial"":1,""time"":7680}]",NA,NA,NA,NA,NA,4,#D89F1C,#3386FF,0,10,1,38,1,1020.7999999998137,39,0,1125.6000000005588,10,0,experiment,NA,NA,2,0.5,0.5,4,5,172,4,NA
fcp-trial,213,1132641,0.0-182.0-0.0,voc_e2,12167,"[{""event"":""fullscreenenter"",""trial"":1,""time"":7680}]",NA,NA,NA,NA,NA,1,#D8271C,#741CD8,10,0,1,38,1,1406.7000000001863,37,1,1185.5,10,1,experiment,NA,NA,1,0.7,0.3,2,3,173,4,NA
fcp-trial,214,1136148,0.0-183.0-0.0,voc_e2,12167,"[{""event"":""fullscreenenter"",""trial"":1,""time"":7680}]",NA,NA,NA,NA,NA,0,#D89F1C,#3386FF,10,0,1,38,1,1058.3999999994412,39,0,939.3000000007451,0,0,experiment,NA,NA,2,0.5,0.5,4,5,174,4,NA
fcp-trial,215,1139561,0.0-184.0-0.0,voc_e2,12167,"[{""event"":""fullscreenenter"",""trial"":1,""time"":7680}]",NA,NA,NA,NA,NA,4,#741CD8,#D8271C,0,0,0,38,1,1394.2999999998137,39,0,512.8999999994412,0,1,experiment,NA,NA,1,0.3,0.7,3,2,175,4,NA
fcp-trial,216,1143516,0.0-185.0-0.0,voc_e2,12167,"[{""event"":""fullscreenenter"",""trial"":1,""time"":7680}]",NA,NA,NA,NA,NA,5,#FA92F8,#1CD855,10,0,1,38,1,99.5,37,1,2352.5,10,1,experiment,NA,NA,0,0.9,0.1,0,1,176,4,NA
fcp-trial,217,1146627,0.0-186.0-0.0,voc_e2,12167,"[{""event"":""fullscreenenter"",""trial"":1,""time"":7680}]",NA,NA,NA,NA,NA,1,#D89F1C,#3386FF,0,10,1,38,1,344.40000000037253,37,1,1260.5,0,1,experiment,NA,NA,2,0.5,0.5,4,5,177,4,NA
fcp-trial,218,1151010,0.0-187.0-0.0,voc_e2,12167,"[{""event"":""fullscreenenter"",""trial"":1,""time"":7680}]",NA,NA,NA,NA,NA,0,#D8271C,#741CD8,10,0,1,40,0,764.2999999998137,39,0,2114.2999999998137,0,0,experiment,NA,NA,1,0.7,0.3,2,3,178,4,NA
fcp-trial,219,1155611,0.0-188.0-0.0,voc_e2,12167,"[{""event"":""fullscreenenter"",""trial"":1,""time"":7680}]",NA,NA,NA,NA,NA,2,#3386FF,#D89F1C,0,10,0,38,1,109.59999999962747,37,1,2987.7000000001863,0,0,experiment,NA,NA,2,0.5,0.5,5,4,179,4,NA
fcp-trial,220,1160827,0.0-189.0-0.0,voc_e2,12167,"[{""event"":""fullscreenenter"",""trial"":1,""time"":7680}]",NA,NA,NA,NA,NA,4,#1CD855,#FA92F8,0,10,0,38,1,2850.399999999441,39,0,859.9000000003725,10,1,experiment,NA,NA,0,0.1,0.9,1,0,180,4,NA
fcp-trial,221,1164743,0.0-190.0-0.0,voc_e2,12167,"[{""event"":""fullscreenenter"",""trial"":1,""time"":7680}]",NA,NA,NA,NA,NA,3,#D8271C,#741CD8,10,10,1,38,1,664.7999999998137,37,1,1745.7000000001863,10,1,experiment,NA,NA,1,0.7,0.3,2,3,181,5,NA
fcp-trial,222,1169568,0.0-191.0-0.0,voc_e2,12167,"[{""event"":""fullscreenenter"",""trial"":1,""time"":7680}]",NA,NA,NA,NA,NA,3,#3386FF,#D89F1C,0,0,0,38,1,2075,39,0,1246.5999999996275,0,1,experiment,NA,NA,2,0.5,0.5,5,4,182,5,NA
fcp-trial,223,1173889,0.0-192.0-0.0,voc_e2,12167,"[{""event"":""fullscreenenter"",""trial"":1,""time"":7680}]",NA,NA,NA,NA,NA,1,#1CD855,#FA92F8,0,10,0,38,1,1952.6000000005588,37,1,864.3999999994412,0,0,experiment,NA,NA,0,0.1,0.9,1,0,183,5,NA
fcp-trial,224,1177723,0.0-193.0-0.0,voc_e2,12167,"[{""event"":""fullscreenenter"",""trial"":1,""time"":7680}]",NA,NA,NA,NA,NA,2,#FA92F8,#1CD855,0,0,1,38,1,1903,39,0,422.1000000005588,0,0,experiment,NA,NA,0,0.9,0.1,0,1,184,5,NA
fcp-trial,225,1187115,0.0-194.0-0.0,voc_e2,12167,"[{""event"":""fullscreenenter"",""trial"":1,""time"":7680}]",NA,NA,NA,NA,NA,6,#3386FF,#D89F1C,10,0,0,38,1,5897.0999999996275,37,1,1985.5,10,0,experiment,NA,NA,2,0.5,0.5,5,4,185,5,NA
fcp-trial,226,1202118,0.0-195.0-0.0,voc_e2,12167,"[{""event"":""fullscreenenter"",""trial"":1,""time"":7680}]",NA,NA,NA,NA,NA,6,#741CD8,#D8271C,0,10,0,null,null,null,null,null,null,NA,0,experiment,NA,NA,1,0.3,0.7,3,2,186,5,NA
fcp-trial,227,1205063,0.0-196.0-0.0,voc_e2,12167,"[{""event"":""fullscreenenter"",""trial"":1,""time"":7680}]",NA,NA,NA,NA,NA,6,#1CD855,#FA92F8,0,10,0,38,1,945.7000000001863,39,0,489.79999999981374,10,1,experiment,NA,NA,0,0.1,0.9,1,0,187,5,NA
fcp-trial,228,1208532,0.0-197.0-0.0,voc_e2,12167,"[{""event"":""fullscreenenter"",""trial"":1,""time"":7680}]",NA,NA,NA,NA,NA,5,#D8271C,#741CD8,10,10,1,40,0,871.1999999992549,37,1,1094.199999999255,10,1,experiment,NA,NA,1,0.7,0.3,2,3,188,5,NA
fcp-trial,229,1211776,0.0-198.0-0.0,voc_e2,12167,"[{""event"":""fullscreenenter"",""trial"":1,""time"":7680}]",NA,NA,NA,NA,NA,0,#FA92F8,#1CD855,10,10,1,38,1,842.3999999994412,39,0,896.7000000001863,10,0,experiment,NA,NA,0,0.9,0.1,0,1,189,5,NA
fcp-trial,230,1214365,0.0-199.0-0.0,voc_e2,12167,"[{""event"":""fullscreenenter"",""trial"":1,""time"":7680}]",NA,NA,NA,NA,NA,5,#D8271C,#741CD8,0,0,1,38,1,688.6000000005588,37,1,396.90000000037253,0,1,experiment,NA,NA,1,0.7,0.3,2,3,190,5,NA
fcp-trial,231,1217517,0.0-200.0-0.0,voc_e2,12167,"[{""event"":""fullscreenenter"",""trial"":1,""time"":7680}]",NA,NA,NA,NA,NA,5,#D89F1C,#3386FF,0,0,1,38,1,993.2000000001863,39,0,654.5,0,0,experiment,NA,NA,2,0.5,0.5,4,5,191,5,NA
fcp-trial,232,1220490,0.0-201.0-0.0,voc_e2,12167,"[{""event"":""fullscreenenter"",""trial"":1,""time"":7680}]",NA,NA,NA,NA,NA,0,#D89F1C,#3386FF,0,0,1,38,1,620.7999999998137,39,0,846.6999999992549,0,0,experiment,NA,NA,2,0.5,0.5,4,5,192,5,NA
fcp-trial,233,1224618,0.0-202.0-0.0,voc_e2,12167,"[{""event"":""fullscreenenter"",""trial"":1,""time"":7680}]",NA,NA,NA,NA,NA,5,#FA92F8,#1CD855,10,0,1,38,1,510.20000000018626,37,1,2107.399999999441,10,1,experiment,NA,NA,0,0.9,0.1,0,1,193,5,NA
fcp-trial,234,1227594,0.0-203.0-0.0,voc_e2,12167,"[{""event"":""fullscreenenter"",""trial"":1,""time"":7680}]",NA,NA,NA,NA,NA,0,#741CD8,#D8271C,10,10,0,38,1,374,39,0,1097.7999999998137,10,1,experiment,NA,NA,1,0.3,0.7,3,2,194,5,NA
fcp-trial,235,1230448,0.0-204.0-0.0,voc_e2,12167,"[{""event"":""fullscreenenter"",""trial"":1,""time"":7680}]",NA,NA,NA,NA,NA,1,#3386FF,#D89F1C,10,0,0,38,1,492.40000000037253,37,1,857.5999999996275,10,0,experiment,NA,NA,2,0.5,0.5,5,4,195,5,NA
fcp-trial,236,1233202,0.0-205.0-0.0,voc_e2,12167,"[{""event"":""fullscreenenter"",""trial"":1,""time"":7680}]",NA,NA,NA,NA,NA,6,#FA92F8,#1CD855,0,0,1,38,1,608.5999999996275,39,0,641.3000000007451,0,0,experiment,NA,NA,0,0.9,0.1,0,1,196,5,NA
fcp-trial,237,1235857,0.0-206.0-0.0,voc_e2,12167,"[{""event"":""fullscreenenter"",""trial"":1,""time"":7680}]",NA,NA,NA,NA,NA,6,#D8271C,#741CD8,10,0,1,38,1,567,37,1,584.5,10,1,experiment,NA,NA,1,0.7,0.3,2,3,197,5,NA
fcp-trial,238,1238552,0.0-207.0-0.0,voc_e2,12167,"[{""event"":""fullscreenenter"",""trial"":1,""time"":7680}]",NA,NA,NA,NA,NA,6,#D89F1C,#3386FF,10,0,1,38,1,523.2999999998137,39,0,663.2000000001863,0,0,experiment,NA,NA,2,0.5,0.5,4,5,198,5,NA
fcp-trial,239,1242122,0.0-208.0-0.0,voc_e2,12167,"[{""event"":""fullscreenenter"",""trial"":1,""time"":7680}]",NA,NA,NA,NA,NA,4,#FA92F8,#1CD855,10,0,1,38,1,1377.1000000005588,37,1,688.9000000003725,10,1,experiment,NA,NA,0,0.9,0.1,0,1,199,5,NA
fcp-trial,240,1245043,0.0-209.0-0.0,voc_e2,12167,"[{""event"":""fullscreenenter"",""trial"":1,""time"":7680}]",NA,NA,NA,NA,NA,2,#741CD8,#D8271C,10,10,0,38,1,481.79999999981374,39,0,930.4000000003725,10,1,experiment,NA,NA,1,0.3,0.7,3,2,200,5,NA
fcp-trial,241,1248394,0.0-210.0-0.0,voc_e2,12167,"[{""event"":""fullscreenenter"",""trial"":1,""time"":7680}]",NA,NA,NA,NA,NA,1,#FA92F8,#1CD855,10,0,1,38,1,345.8999999994412,39,0,1500.7999999998137,0,0,experiment,NA,NA,0,0.9,0.1,0,1,201,5,NA
fcp-trial,242,1251285,0.0-211.0-0.0,voc_e2,12167,"[{""event"":""fullscreenenter"",""trial"":1,""time"":7680}]",NA,NA,NA,NA,NA,0,#1CD855,#FA92F8,0,10,0,38,1,458.70000000018626,39,0,928.5,10,1,experiment,NA,NA,0,0.1,0.9,1,0,202,5,NA
fcp-trial,243,1253919,0.0-212.0-0.0,voc_e2,12167,"[{""event"":""fullscreenenter"",""trial"":1,""time"":7680}]",NA,NA,NA,NA,NA,2,#3386FF,#D89F1C,10,0,0,38,1,422.19999999925494,37,1,707.7999999998137,10,0,experiment,NA,NA,2,0.5,0.5,5,4,203,5,NA
fcp-trial,244,1256628,0.0-213.0-0.0,voc_e2,12167,"[{""event"":""fullscreenenter"",""trial"":1,""time"":7680}]",NA,NA,NA,NA,NA,3,#D89F1C,#3386FF,10,0,1,38,1,334.6000000005588,39,0,869.3000000007451,0,0,experiment,NA,NA,2,0.5,0.5,4,5,204,5,NA
fcp-trial,245,1259376,0.0-214.0-0.0,voc_e2,12167,"[{""event"":""fullscreenenter"",""trial"":1,""time"":7680}]",NA,NA,NA,NA,NA,3,#D8271C,#741CD8,0,10,1,38,1,371.90000000037253,37,1,872.3999999994412,0,1,experiment,NA,NA,1,0.7,0.3,2,3,205,5,NA
fcp-trial,246,1262056,0.0-215.0-0.0,voc_e2,12167,"[{""event"":""fullscreenenter"",""trial"":1,""time"":7680}]",NA,NA,NA,NA,NA,4,#3386FF,#D89F1C,10,0,0,38,1,316.40000000037253,39,0,858.9000000003725,0,1,experiment,NA,NA,2,0.5,0.5,5,4,206,5,NA
fcp-trial,247,1265177,0.0-216.0-0.0,voc_e2,12167,"[{""event"":""fullscreenenter"",""trial"":1,""time"":7680}]",NA,NA,NA,NA,NA,3,#FA92F8,#1CD855,10,0,1,40,0,329.79999999981374,39,0,1283,0,0,experiment,NA,NA,0,0.9,0.1,0,1,207,5,NA
fcp-trial,248,1268151,0.0-217.0-0.0,voc_e2,12167,"[{""event"":""fullscreenenter"",""trial"":1,""time"":7680}]",NA,NA,NA,NA,NA,4,#741CD8,#D8271C,10,0,0,40,0,753.9000000003725,39,0,715.7000000001863,0,1,experiment,NA,NA,1,0.3,0.7,3,2,208,5,NA
fcp-trial,249,1271577,0.0-218.0-0.0,voc_e2,12167,"[{""event"":""fullscreenenter"",""trial"":1,""time"":7680}]",NA,NA,NA,NA,NA,2,#1CD855,#FA92F8,0,0,0,40,0,881.2999999998137,37,1,1040.9000000003725,0,0,experiment,NA,NA,0,0.1,0.9,1,0,209,5,NA
fcp-trial,250,1274472,0.0-219.0-0.0,voc_e2,12167,"[{""event"":""fullscreenenter"",""trial"":1,""time"":7680}]",NA,NA,NA,NA,NA,1,#D8271C,#741CD8,10,10,1,38,1,804.5,37,1,586.3999999994412,10,1,experiment,NA,NA,1,0.7,0.3,2,3,210,5,NA
audio-instructions,251,1337057,0.0-220.0,voc_e2,12167,"[{""event"":""fullscreenenter"",""trial"":1,""time"":7680}]",NA,57822.700000000186,static/audio/pause.wav,NA,0,NA,NA,NA,NA,NA,NA,NA,NA,NA,NA,NA,NA,NA,NA,NA,NA,NA,NA,NA,NA,NA,NA,NA,NA,NA
fcp-trial,252,1340983,0.0-221.0-0.0,voc_e2,12167,"[{""event"":""fullscreenenter"",""trial"":1,""time"":7680}]",NA,NA,NA,NA,NA,2,#1CD855,#FA92F8,0,10,0,38,1,1765.2999999998137,39,0,655,10,1,experiment,NA,NA,0,0.1,0.9,1,0,211,5,NA
fcp-trial,253,1343465,0.0-222.0-0.0,voc_e2,12167,"[{""event"":""fullscreenenter"",""trial"":1,""time"":7680}]",NA,NA,NA,NA,NA,6,#1CD855,#FA92F8,0,10,0,38,1,571,39,0,407.6000000005588,10,1,experiment,NA,NA,0,0.1,0.9,1,0,212,5,NA
fcp-trial,254,1346044,0.0-223.0-0.0,voc_e2,12167,"[{""event"":""fullscreenenter"",""trial"":1,""time"":7680}]",NA,NA,NA,NA,NA,0,#D89F1C,#3386FF,10,10,1,38,1,685.7999999998137,39,0,389.20000000018626,10,0,experiment,NA,NA,2,0.5,0.5,4,5,213,5,NA
fcp-trial,255,1348350,0.0-224.0-0.0,voc_e2,12167,"[{""event"":""fullscreenenter"",""trial"":1,""time"":7680}]",NA,NA,NA,NA,NA,5,#3386FF,#D89F1C,10,0,0,38,1,350.19999999925494,37,1,452.40000000037253,10,0,experiment,NA,NA,2,0.5,0.5,5,4,214,5,NA
fcp-trial,256,1350907,0.0-225.0-0.0,voc_e2,12167,"[{""event"":""fullscreenenter"",""trial"":1,""time"":7680}]",NA,NA,NA,NA,NA,4,#D8271C,#741CD8,10,10,1,38,1,427.5,37,1,624.8999999994412,10,1,experiment,NA,NA,1,0.7,0.3,2,3,215,5,NA
fcp-trial,257,1353263,0.0-226.0-0.0,voc_e2,12167,"[{""event"":""fullscreenenter"",""trial"":1,""time"":7680}]",NA,NA,NA,NA,NA,0,#D8271C,#741CD8,10,10,1,38,1,65.6000000005588,37,1,786.6000000005588,10,1,experiment,NA,NA,1,0.7,0.3,2,3,216,5,NA
fcp-trial,258,1355570,0.0-227.0-0.0,voc_e2,12167,"[{""event"":""fullscreenenter"",""trial"":1,""time"":7680}]",NA,NA,NA,NA,NA,3,#FA92F8,#1CD855,10,0,1,38,1,286.70000000018626,37,1,516.8999999994412,10,1,experiment,NA,NA,0,0.9,0.1,0,1,217,5,NA
fcp-trial,259,1357894,0.0-228.0-0.0,voc_e2,12167,"[{""event"":""fullscreenenter"",""trial"":1,""time"":7680}]",NA,NA,NA,NA,NA,2,#D89F1C,#3386FF,0,0,1,38,1,360.79999999981374,39,0,453.5,0,0,experiment,NA,NA,2,0.5,0.5,4,5,218,5,NA
fcp-trial,260,1360336,0.0-229.0-0.0,voc_e2,12167,"[{""event"":""fullscreenenter"",""trial"":1,""time"":7680}]",NA,NA,NA,NA,NA,0,#FA92F8,#1CD855,10,0,1,38,1,448.59999999962747,37,1,489.8999999994412,10,1,experiment,NA,NA,0,0.9,0.1,0,1,219,5,NA
fcp-trial,261,1362735,0.0-230.0-0.0,voc_e2,12167,"[{""event"":""fullscreenenter"",""trial"":1,""time"":7680}]",NA,NA,NA,NA,NA,1,#D8271C,#741CD8,10,0,1,38,1,366.5,37,1,522.7999999998137,10,1,experiment,NA,NA,1,0.7,0.3,2,3,220,5,NA
fcp-trial,262,1365174,0.0-231.0-0.0,voc_e2,12167,"[{""event"":""fullscreenenter"",""trial"":1,""time"":7680}]",NA,NA,NA,NA,NA,5,#741CD8,#D8271C,10,10,0,38,1,128.20000000018626,39,0,806,10,1,experiment,NA,NA,1,0.3,0.7,3,2,221,5,NA
fcp-trial,263,1367717,0.0-232.0-0.0,voc_e2,12167,"[{""event"":""fullscreenenter"",""trial"":1,""time"":7680}]",NA,NA,NA,NA,NA,6,#D89F1C,#3386FF,0,10,1,38,1,477.59999999962747,39,0,562.1999999992549,10,0,experiment,NA,NA,2,0.5,0.5,4,5,222,5,NA
fcp-trial,264,1370070,0.0-233.0-0.0,voc_e2,12167,"[{""event"":""fullscreenenter"",""trial"":1,""time"":7680}]",NA,NA,NA,NA,NA,2,#D8271C,#741CD8,10,0,1,38,1,297,37,1,551.9000000003725,10,1,experiment,NA,NA,1,0.7,0.3,2,3,223,5,NA
fcp-trial,265,1372458,0.0-234.0-0.0,voc_e2,12167,"[{""event"":""fullscreenenter"",""trial"":1,""time"":7680}]",NA,NA,NA,NA,NA,4,#FA92F8,#1CD855,10,0,1,38,1,308.20000000018626,39,0,571.2999999998137,0,0,experiment,NA,NA,0,0.9,0.1,0,1,224,5,NA
fcp-trial,266,1374999,0.0-235.0-0.0,voc_e2,12167,"[{""event"":""fullscreenenter"",""trial"":1,""time"":7680}]",NA,NA,NA,NA,NA,1,#D89F1C,#3386FF,0,0,1,38,1,427.6000000005588,39,0,608,0,0,experiment,NA,NA,2,0.5,0.5,4,5,225,5,NA
fcp-trial,267,1377700,0.0-236.0-0.0,voc_e2,12167,"[{""event"":""fullscreenenter"",""trial"":1,""time"":7680}]",NA,NA,NA,NA,NA,6,#D8271C,#741CD8,0,10,1,38,1,392.90000000037253,37,1,805,0,1,experiment,NA,NA,1,0.7,0.3,2,3,226,6,NA
fcp-trial,268,1380577,0.0-237.0-0.0,voc_e2,12167,"[{""event"":""fullscreenenter"",""trial"":1,""time"":7680}]",NA,NA,NA,NA,NA,4,#3386FF,#D89F1C,0,10,0,38,1,411.6000000005588,37,1,961.5,0,0,experiment,NA,NA,2,0.5,0.5,5,4,227,6,NA
fcp-trial,269,1383208,0.0-238.0-0.0,voc_e2,12167,"[{""event"":""fullscreenenter"",""trial"":1,""time"":7680}]",NA,NA,NA,NA,NA,3,#741CD8,#D8271C,0,0,0,38,1,361.40000000037253,39,0,765.4000000003725,0,1,experiment,NA,NA,1,0.3,0.7,3,2,228,6,NA
fcp-trial,270,1385999,0.0-239.0-0.0,voc_e2,12167,"[{""event"":""fullscreenenter"",""trial"":1,""time"":7680}]",NA,NA,NA,NA,NA,5,#FA92F8,#1CD855,10,10,1,38,1,671.3999999994412,39,0,615.9000000003725,10,0,experiment,NA,NA,0,0.9,0.1,0,1,229,6,NA
fcp-trial,271,1389098,0.0-240.0-0.0,voc_e2,12167,"[{""event"":""fullscreenenter"",""trial"":1,""time"":7680}]",NA,NA,NA,NA,NA,3,#D89F1C,#3386FF,10,0,1,38,1,1136.2000000001863,37,1,457.79999999981374,10,1,experiment,NA,NA,2,0.5,0.5,4,5,230,6,NA
fcp-trial,272,1392434,0.0-241.0-0.0,voc_e2,12167,"[{""event"":""fullscreenenter"",""trial"":1,""time"":7680}]",NA,NA,NA,NA,NA,1,#FA92F8,#1CD855,10,0,1,38,1,791.3999999994412,39,0,1040.7999999998137,0,0,experiment,NA,NA,0,0.9,0.1,0,1,231,6,NA
fcp-trial,273,1395285,0.0-242.0-0.0,voc_e2,12167,"[{""event"":""fullscreenenter"",""trial"":1,""time"":7680}]",NA,NA,NA,NA,NA,0,#741CD8,#D8271C,0,10,0,38,1,764.2000000001863,39,0,583,10,1,experiment,NA,NA,1,0.3,0.7,3,2,232,6,NA
fcp-trial,274,1397323,0.0-243.0-0.0,voc_e2,12167,"[{""event"":""fullscreenenter"",""trial"":1,""time"":7680}]",NA,NA,NA,NA,NA,6,#1CD855,#FA92F8,10,10,0,38,1,97.1000000005588,39,0,429.29999999981374,10,1,experiment,NA,NA,0,0.1,0.9,1,0,233,6,NA
fcp-trial,275,1399571,0.0-244.0-0.0,voc_e2,12167,"[{""event"":""fullscreenenter"",""trial"":1,""time"":7680}]",NA,NA,NA,NA,NA,4,#741CD8,#D8271C,0,10,0,38,1,359.90000000037253,39,0,383.79999999981374,10,1,experiment,NA,NA,1,0.3,0.7,3,2,234,6,NA
fcp-trial,276,1402802,0.0-245.0-0.0,voc_e2,12167,"[{""event"":""fullscreenenter"",""trial"":1,""time"":7680}]",NA,NA,NA,NA,NA,1,#FA92F8,#1CD855,10,0,1,38,1,1300.199999999255,39,0,421.79999999981374,0,0,experiment,NA,NA,0,0.9,0.1,0,1,235,6,NA
fcp-trial,277,1405464,0.0-246.0-0.0,voc_e2,12167,"[{""event"":""fullscreenenter"",""trial"":1,""time"":7680}]",NA,NA,NA,NA,NA,0,#3386FF,#D89F1C,10,0,0,38,1,195.6000000005588,37,1,956.6999999992549,10,0,experiment,NA,NA,2,0.5,0.5,5,4,236,6,NA
fcp-trial,278,1408103,0.0-247.0-0.0,voc_e2,12167,"[{""event"":""fullscreenenter"",""trial"":1,""time"":7680}]",NA,NA,NA,NA,NA,1,#D89F1C,#3386FF,0,10,1,38,1,381.59999999962747,39,0,753.7999999998137,10,0,experiment,NA,NA,2,0.5,0.5,4,5,237,6,NA
fcp-trial,279,1411462,0.0-248.0-0.0,voc_e2,12167,"[{""event"":""fullscreenenter"",""trial"":1,""time"":7680}]",NA,NA,NA,NA,NA,5,#D8271C,#741CD8,0,0,1,38,1,430,37,1,1419.300000000745,0,1,experiment,NA,NA,1,0.7,0.3,2,3,238,6,NA
fcp-trial,280,1413885,0.0-249.0-0.0,voc_e2,12167,"[{""event"":""fullscreenenter"",""trial"":1,""time"":7680}]",NA,NA,NA,NA,NA,3,#D89F1C,#3386FF,0,10,1,38,1,531.7000000001863,39,0,386.80000000074506,10,0,experiment,NA,NA,2,0.5,0.5,4,5,239,6,NA
fcp-trial,281,1416554,0.0-250.0-0.0,voc_e2,12167,"[{""event"":""fullscreenenter"",""trial"":1,""time"":7680}]",NA,NA,NA,NA,NA,3,#FA92F8,#1CD855,10,0,1,38,1,359.5,39,0,800.1000000005588,0,0,experiment,NA,NA,0,0.9,0.1,0,1,240,6,NA
fcp-trial,282,1418981,0.0-251.0-0.0,voc_e2,12167,"[{""event"":""fullscreenenter"",""trial"":1,""time"":7680}]",NA,NA,NA,NA,NA,5,#3386FF,#D89F1C,0,10,0,38,1,260.79999999981374,39,0,657,10,1,experiment,NA,NA,2,0.5,0.5,5,4,241,6,NA
fcp-trial,283,1421361,0.0-252.0-0.0,voc_e2,12167,"[{""event"":""fullscreenenter"",""trial"":1,""time"":7680}]",NA,NA,NA,NA,NA,6,#D8271C,#741CD8,10,0,1,38,1,357.40000000037253,37,1,518.3999999994412,10,1,experiment,NA,NA,1,0.7,0.3,2,3,242,6,NA
fcp-trial,284,1424583,0.0-253.0-0.0,voc_e2,12167,"[{""event"":""fullscreenenter"",""trial"":1,""time"":7680}]",NA,NA,NA,NA,NA,2,#741CD8,#D8271C,0,10,0,40,0,380.40000000037253,39,0,1337.5999999996275,10,1,experiment,NA,NA,1,0.3,0.7,3,2,243,6,NA
fcp-trial,285,1428744,0.0-254.0-0.0,voc_e2,12167,"[{""event"":""fullscreenenter"",""trial"":1,""time"":7680}]",NA,NA,NA,NA,NA,5,#FA92F8,#1CD855,10,0,1,40,0,1603.300000000745,39,0,1053.6000000005588,0,0,experiment,NA,NA,0,0.9,0.1,0,1,244,6,NA
fcp-trial,286,1432106,0.0-255.0-0.0,voc_e2,12167,"[{""event"":""fullscreenenter"",""trial"":1,""time"":7680}]",NA,NA,NA,NA,NA,2,#1CD855,#FA92F8,0,0,0,40,0,1092.9000000003725,39,0,765.7000000001863,0,1,experiment,NA,NA,0,0.1,0.9,1,0,245,6,NA
fcp-trial,287,1435296,0.0-256.0-0.0,voc_e2,12167,"[{""event"":""fullscreenenter"",""trial"":1,""time"":7680}]",NA,NA,NA,NA,NA,2,#D89F1C,#3386FF,10,0,1,40,0,984,39,0,701.5,0,0,experiment,NA,NA,2,0.5,0.5,4,5,246,6,NA
fcp-trial,288,1438682,0.0-257.0-0.0,voc_e2,12167,"[{""event"":""fullscreenenter"",""trial"":1,""time"":7680}]",NA,NA,NA,NA,NA,4,#1CD855,#FA92F8,0,10,0,40,0,582.1000000005588,37,1,1300.4000000003725,0,0,experiment,NA,NA,0,0.1,0.9,1,0,247,6,NA
fcp-trial,289,1441147,0.0-258.0-0.0,voc_e2,12167,"[{""event"":""fullscreenenter"",""trial"":1,""time"":7680}]",NA,NA,NA,NA,NA,3,#D8271C,#741CD8,0,10,1,38,1,447,39,0,514.2000000001863,10,0,experiment,NA,NA,1,0.7,0.3,2,3,248,6,NA
fcp-trial,290,1443708,0.0-259.0-0.0,voc_e2,12167,"[{""event"":""fullscreenenter"",""trial"":1,""time"":7680}]",NA,NA,NA,NA,NA,1,#741CD8,#D8271C,0,10,0,38,1,452.20000000018626,39,0,604.2999999998137,10,1,experiment,NA,NA,1,0.3,0.7,3,2,249,6,NA
fcp-trial,291,1446126,0.0-260.0-0.0,voc_e2,12167,"[{""event"":""fullscreenenter"",""trial"":1,""time"":7680}]",NA,NA,NA,NA,NA,6,#D89F1C,#3386FF,0,10,1,38,1,404.20000000018626,39,0,510.19999999925494,10,0,experiment,NA,NA,2,0.5,0.5,4,5,250,6,NA
fcp-trial,292,1448617,0.0-261.0-0.0,voc_e2,12167,"[{""event"":""fullscreenenter"",""trial"":1,""time"":7680}]",NA,NA,NA,NA,NA,0,#1CD855,#FA92F8,0,10,0,38,1,473.6000000005588,39,0,513.2999999998137,10,1,experiment,NA,NA,0,0.1,0.9,1,0,251,6,NA
fcp-trial,293,1450999,0.0-262.0-0.0,voc_e2,12167,"[{""event"":""fullscreenenter"",""trial"":1,""time"":7680}]",NA,NA,NA,NA,NA,4,#D89F1C,#3386FF,0,10,1,38,1,386,39,0,492.40000000037253,10,0,experiment,NA,NA,2,0.5,0.5,4,5,252,6,NA
fcp-trial,294,1453367,0.0-263.0-0.0,voc_e2,12167,"[{""event"":""fullscreenenter"",""trial"":1,""time"":7680}]",NA,NA,NA,NA,NA,3,#D89F1C,#3386FF,0,0,1,40,0,359.90000000037253,39,0,504.40000000037253,0,0,experiment,NA,NA,2,0.5,0.5,4,5,253,6,NA
fcp-trial,295,1456244,0.0-264.0-0.0,voc_e2,12167,"[{""event"":""fullscreenenter"",""trial"":1,""time"":7680}]",NA,NA,NA,NA,NA,5,#3386FF,#D89F1C,0,0,0,38,1,852.8999999994412,37,1,514.7999999998137,0,0,experiment,NA,NA,2,0.5,0.5,5,4,254,6,NA
fcp-trial,296,1458957,0.0-265.0-0.0,voc_e2,12167,"[{""event"":""fullscreenenter"",""trial"":1,""time"":7680}]",NA,NA,NA,NA,NA,6,#D8271C,#741CD8,10,0,1,38,1,342.1000000005588,39,0,866.5,0,0,experiment,NA,NA,1,0.7,0.3,2,3,255,6,NA
fcp-trial,297,1463448,0.0-266.0-0.0,voc_e2,12167,"[{""event"":""fullscreenenter"",""trial"":1,""time"":7680}]",NA,NA,NA,NA,NA,1,#741CD8,#D8271C,10,10,0,38,1,23.299999999813735,39,0,2962.7999999998137,10,1,experiment,NA,NA,1,0.3,0.7,3,2,256,6,NA
fcp-trial,298,1466159,0.0-267.0-0.0,voc_e2,12167,"[{""event"":""fullscreenenter"",""trial"":1,""time"":7680}]",NA,NA,NA,NA,NA,5,#FA92F8,#1CD855,10,0,1,38,1,331.80000000074506,39,0,876.3000000007451,0,0,experiment,NA,NA,0,0.9,0.1,0,1,257,6,NA
fcp-trial,299,1468592,0.0-268.0-0.0,voc_e2,12167,"[{""event"":""fullscreenenter"",""trial"":1,""time"":7680}]",NA,NA,NA,NA,NA,0,#3386FF,#D89F1C,10,0,0,38,1,385.3999999994412,37,1,543.7000000001863,10,0,experiment,NA,NA,2,0.5,0.5,5,4,258,6,NA
fcp-trial,300,1471113,0.0-269.0-0.0,voc_e2,12167,"[{""event"":""fullscreenenter"",""trial"":1,""time"":7680}]",NA,NA,NA,NA,NA,3,#D8271C,#741CD8,0,0,1,38,1,345.59999999962747,37,1,671.2000000001863,0,1,experiment,NA,NA,1,0.7,0.3,2,3,259,6,NA
fcp-trial,301,1474094,0.0-270.0-0.0,voc_e2,12167,"[{""event"":""fullscreenenter"",""trial"":1,""time"":7680}]",NA,NA,NA,NA,NA,6,#FA92F8,#1CD855,10,10,1,38,1,442.6000000005588,37,1,1034.7999999998137,10,1,experiment,NA,NA,0,0.9,0.1,0,1,260,6,NA
fcp-trial,302,1476474,0.0-271.0-0.0,voc_e2,12167,"[{""event"":""fullscreenenter"",""trial"":1,""time"":7680}]",NA,NA,NA,NA,NA,2,#D8271C,#741CD8,10,10,1,38,1,368.09999999962747,37,1,507.29999999981374,10,1,experiment,NA,NA,1,0.7,0.3,2,3,261,6,NA
fcp-trial,303,1479492,0.0-272.0-0.0,voc_e2,12167,"[{""event"":""fullscreenenter"",""trial"":1,""time"":7680}]",NA,NA,NA,NA,NA,6,#D89F1C,#3386FF,10,0,1,38,1,355.79999999981374,39,0,1158.699999999255,0,0,experiment,NA,NA,2,0.5,0.5,4,5,262,6,NA
fcp-trial,304,1482123,0.0-273.0-0.0,voc_e2,12167,"[{""event"":""fullscreenenter"",""trial"":1,""time"":7680}]",NA,NA,NA,NA,NA,1,#FA92F8,#1CD855,10,10,1,38,1,290.1000000005588,37,1,836.5,10,1,experiment,NA,NA,0,0.9,0.1,0,1,263,6,NA
fcp-trial,305,1486517,0.0-274.0-0.0,voc_e2,12167,"[{""event"":""fullscreenenter"",""trial"":1,""time"":7680}]",NA,NA,NA,NA,NA,4,#FA92F8,#1CD855,10,0,1,38,1,108.70000000018626,37,1,2782.5,10,1,experiment,NA,NA,0,0.9,0.1,0,1,264,6,NA
fcp-trial,306,1489126,0.0-275.0-0.0,voc_e2,12167,"[{""event"":""fullscreenenter"",""trial"":1,""time"":7680}]",NA,NA,NA,NA,NA,1,#D89F1C,#3386FF,0,10,1,38,1,266.09999999962747,39,0,832.9000000003725,10,0,experiment,NA,NA,2,0.5,0.5,4,5,265,6,NA
fcp-trial,307,1491602,0.0-276.0-0.0,voc_e2,12167,"[{""event"":""fullscreenenter"",""trial"":1,""time"":7680}]",NA,NA,NA,NA,NA,5,#741CD8,#D8271C,10,10,0,38,1,330.79999999981374,37,1,641,10,0,experiment,NA,NA,1,0.3,0.7,3,2,266,6,NA
fcp-trial,308,1494051,0.0-277.0-0.0,voc_e2,12167,"[{""event"":""fullscreenenter"",""trial"":1,""time"":7680}]",NA,NA,NA,NA,NA,0,#1CD855,#FA92F8,0,10,0,38,1,338.40000000037253,39,0,601.5,10,1,experiment,NA,NA,0,0.1,0.9,1,0,267,6,NA
fcp-trial,309,1496901,0.0-278.0-0.0,voc_e2,12167,"[{""event"":""fullscreenenter"",""trial"":1,""time"":7680}]",NA,NA,NA,NA,NA,2,#3386FF,#D89F1C,0,10,0,38,1,407.3999999994412,39,0,933.7000000001863,10,1,experiment,NA,NA,2,0.5,0.5,5,4,268,6,NA
fcp-trial,310,1499838,0.0-279.0-0.0,voc_e2,12167,"[{""event"":""fullscreenenter"",""trial"":1,""time"":7680}]",NA,NA,NA,NA,NA,4,#D8271C,#741CD8,10,0,1,38,1,447.79999999981374,39,0,979.8999999994412,0,0,experiment,NA,NA,1,0.7,0.3,2,3,269,6,NA
fcp-trial,311,1502138,0.0-280.0-0.0,voc_e2,12167,"[{""event"":""fullscreenenter"",""trial"":1,""time"":7680}]",NA,NA,NA,NA,NA,3,#FA92F8,#1CD855,10,0,1,38,1,167.70000000018626,39,0,625.7999999998137,0,0,experiment,NA,NA,0,0.9,0.1,0,1,270,6,NA
fcp-trial,312,1504458,0.0-281.0-0.0,voc_e2,12167,"[{""event"":""fullscreenenter"",""trial"":1,""time"":7680}]",NA,NA,NA,NA,NA,0,#D8271C,#741CD8,10,0,1,38,1,331.40000000037253,37,1,485.70000000018626,10,1,experiment,NA,NA,1,0.7,0.3,2,3,271,7,NA
fcp-trial,313,1506813,0.0-282.0-0.0,voc_e2,12167,"[{""event"":""fullscreenenter"",""trial"":1,""time"":7680}]",NA,NA,NA,NA,NA,4,#D89F1C,#3386FF,0,0,1,38,1,344.6000000005588,39,0,506.40000000037253,0,0,experiment,NA,NA,2,0.5,0.5,4,5,272,7,NA
fcp-trial,314,1509609,0.0-283.0-0.0,voc_e2,12167,"[{""event"":""fullscreenenter"",""trial"":1,""time"":7680}]",NA,NA,NA,NA,NA,2,#FA92F8,#1CD855,10,0,1,38,1,332.1000000005588,39,0,959.9000000003725,0,0,experiment,NA,NA,0,0.9,0.1,0,1,273,7,NA
fcp-trial,315,1512231,0.0-284.0-0.0,voc_e2,12167,"[{""event"":""fullscreenenter"",""trial"":1,""time"":7680}]",NA,NA,NA,NA,NA,4,#D8271C,#741CD8,10,0,1,38,1,310.09999999962747,37,1,808.0999999996275,10,1,experiment,NA,NA,1,0.7,0.3,2,3,274,7,NA
fcp-trial,316,1514929,0.0-285.0-0.0,voc_e2,12167,"[{""event"":""fullscreenenter"",""trial"":1,""time"":7680}]",NA,NA,NA,NA,NA,1,#D8271C,#741CD8,10,0,1,38,1,398.90000000037253,37,1,794.7000000001863,10,1,experiment,NA,NA,1,0.7,0.3,2,3,275,7,NA
fcp-trial,317,1518172,0.0-286.0-0.0,voc_e2,12167,"[{""event"":""fullscreenenter"",""trial"":1,""time"":7680}]",NA,NA,NA,NA,NA,5,#1CD855,#FA92F8,0,10,0,38,1,332.20000000018626,39,0,1407.0999999996275,10,1,experiment,NA,NA,0,0.1,0.9,1,0,276,7,NA
fcp-trial,318,1520754,0.0-287.0-0.0,voc_e2,12167,"[{""event"":""fullscreenenter"",""trial"":1,""time"":7680}]",NA,NA,NA,NA,NA,0,#3386FF,#D89F1C,10,10,0,38,1,691.7999999998137,37,1,385.79999999981374,10,0,experiment,NA,NA,2,0.5,0.5,5,4,277,7,NA
fcp-trial,319,1523526,0.0-288.0-0.0,voc_e2,12167,"[{""event"":""fullscreenenter"",""trial"":1,""time"":7680}]",NA,NA,NA,NA,NA,2,#D8271C,#741CD8,10,0,1,38,1,665.4000000003725,37,1,602.4000000003725,10,1,experiment,NA,NA,1,0.7,0.3,2,3,278,7,NA
fcp-trial,320,1527788,0.0-289.0-0.0,voc_e2,12167,"[{""event"":""fullscreenenter"",""trial"":1,""time"":7680}]",NA,NA,NA,NA,NA,3,#FA92F8,#1CD855,10,0,1,38,1,1736.4000000003725,37,1,1022,10,1,experiment,NA,NA,0,0.9,0.1,0,1,279,7,NA
fcp-trial,321,1533863,0.0-290.0-0.0,voc_e2,12167,"[{""event"":""fullscreenenter"",""trial"":1,""time"":7680}]",NA,NA,NA,NA,NA,1,#3386FF,#D89F1C,10,10,0,38,1,4039.5999999996275,39,0,530.9000000003725,10,1,experiment,NA,NA,2,0.5,0.5,5,4,280,7,NA
fcp-trial,322,1536779,0.0-291.0-0.0,voc_e2,12167,"[{""event"":""fullscreenenter"",""trial"":1,""time"":7680}]",NA,NA,NA,NA,NA,5,#D8271C,#741CD8,10,0,1,38,1,396,37,1,1016.5999999996275,10,1,experiment,NA,NA,1,0.7,0.3,2,3,281,7,NA
fcp-trial,323,1539347,0.0-292.0-0.0,voc_e2,12167,"[{""event"":""fullscreenenter"",""trial"":1,""time"":7680}]",NA,NA,NA,NA,NA,4,#1CD855,#FA92F8,0,10,0,38,1,636.6000000005588,39,0,424.5,10,1,experiment,NA,NA,0,0.1,0.9,1,0,282,7,NA
fcp-trial,324,1542109,0.0-293.0-0.0,voc_e2,12167,"[{""event"":""fullscreenenter"",""trial"":1,""time"":7680}]",NA,NA,NA,NA,NA,0,#FA92F8,#1CD855,10,0,1,38,1,152.1000000005588,37,1,1105.2000000001863,10,1,experiment,NA,NA,0,0.9,0.1,0,1,283,7,NA
fcp-trial,325,1544547,0.0-294.0-0.0,voc_e2,12167,"[{""event"":""fullscreenenter"",""trial"":1,""time"":7680}]",NA,NA,NA,NA,NA,6,#D8271C,#741CD8,10,0,1,38,1,425.29999999981374,37,1,508.59999999962747,10,1,experiment,NA,NA,1,0.7,0.3,2,3,284,7,NA
fcp-trial,326,1546895,0.0-295.0-0.0,voc_e2,12167,"[{""event"":""fullscreenenter"",""trial"":1,""time"":7680}]",NA,NA,NA,NA,NA,6,#3386FF,#D89F1C,0,0,0,38,1,438.70000000018626,37,1,405.20000000018626,0,0,experiment,NA,NA,2,0.5,0.5,5,4,285,7,NA
fcp-trial,327,1550095,0.0-296.0-0.0,voc_e2,12167,"[{""event"":""fullscreenenter"",""trial"":1,""time"":7680}]",NA,NA,NA,NA,NA,6,#FA92F8,#1CD855,10,0,1,38,1,324.1000000005588,39,0,1371.6000000005588,0,0,experiment,NA,NA,0,0.9,0.1,0,1,286,7,NA
fcp-trial,328,1552493,0.0-297.0-0.0,voc_e2,12167,"[{""event"":""fullscreenenter"",""trial"":1,""time"":7680}]",NA,NA,NA,NA,NA,3,#D89F1C,#3386FF,0,0,1,38,1,329.70000000018626,39,0,564.6000000005588,0,0,experiment,NA,NA,2,0.5,0.5,4,5,287,7,NA
fcp-trial,329,1555272,0.0-298.0-0.0,voc_e2,12167,"[{""event"":""fullscreenenter"",""trial"":1,""time"":7680}]",NA,NA,NA,NA,NA,3,#741CD8,#D8271C,0,10,0,38,1,383.29999999981374,39,0,891.3000000007451,10,1,experiment,NA,NA,1,0.3,0.7,3,2,288,7,NA
fcp-trial,330,1558632,0.0-299.0-0.0,voc_e2,12167,"[{""event"":""fullscreenenter"",""trial"":1,""time"":7680}]",NA,NA,NA,NA,NA,4,#3386FF,#D89F1C,0,0,0,38,1,1254.7999999998137,37,1,601.7000000001863,0,0,experiment,NA,NA,2,0.5,0.5,5,4,289,7,NA
fcp-trial,331,1560892,0.0-300.0-0.0,voc_e2,12167,"[{""event"":""fullscreenenter"",""trial"":1,""time"":7680}]",NA,NA,NA,NA,NA,5,#3386FF,#D89F1C,10,0,0,38,1,438.79999999981374,37,1,317.90000000037253,10,0,experiment,NA,NA,2,0.5,0.5,5,4,290,7,NA
fcp-trial,332,1563477,0.0-301.0-0.0,voc_e2,12167,"[{""event"":""fullscreenenter"",""trial"":1,""time"":7680}]",NA,NA,NA,NA,NA,2,#FA92F8,#1CD855,10,0,1,38,1,4.5,37,1,1076.199999999255,10,1,experiment,NA,NA,0,0.9,0.1,0,1,291,7,NA
fcp-trial,333,1568200,0.0-302.0-0.0,voc_e2,12167,"[{""event"":""fullscreenenter"",""trial"":1,""time"":7680}]",NA,NA,NA,NA,NA,0,#741CD8,#D8271C,0,10,0,38,1,2832.5,39,0,387.20000000018626,10,1,experiment,NA,NA,1,0.3,0.7,3,2,292,7,NA
fcp-trial,334,1571649,0.0-303.0-0.0,voc_e2,12167,"[{""event"":""fullscreenenter"",""trial"":1,""time"":7680}]",NA,NA,NA,NA,NA,2,#D89F1C,#3386FF,0,10,1,40,0,1262.5999999996275,37,1,676.0999999996275,0,1,experiment,NA,NA,2,0.5,0.5,4,5,293,7,NA
fcp-trial,335,1574759,0.0-304.0-0.0,voc_e2,12167,"[{""event"":""fullscreenenter"",""trial"":1,""time"":7680}]",NA,NA,NA,NA,NA,1,#FA92F8,#1CD855,10,0,1,38,1,564.7000000001863,39,0,1035.2999999998137,0,0,experiment,NA,NA,0,0.9,0.1,0,1,294,7,NA
fcp-trial,336,1577780,0.0-305.0-0.0,voc_e2,12167,"[{""event"":""fullscreenenter"",""trial"":1,""time"":7680}]",NA,NA,NA,NA,NA,1,#1CD855,#FA92F8,0,10,0,38,1,371.70000000018626,39,0,1142.5,10,1,experiment,NA,NA,0,0.1,0.9,1,0,295,7,NA
fcp-trial,337,1580744,0.0-306.0-0.0,voc_e2,12167,"[{""event"":""fullscreenenter"",""trial"":1,""time"":7680}]",NA,NA,NA,NA,NA,4,#FA92F8,#1CD855,10,0,1,40,0,508.5,37,1,952.5,10,1,experiment,NA,NA,0,0.9,0.1,0,1,296,7,NA
fcp-trial,338,1583353,0.0-307.0-0.0,voc_e2,12167,"[{""event"":""fullscreenenter"",""trial"":1,""time"":7680}]",NA,NA,NA,NA,NA,2,#741CD8,#D8271C,10,10,0,38,1,374.70000000018626,39,0,729.5,10,1,experiment,NA,NA,1,0.3,0.7,3,2,297,7,NA
fcp-trial,339,1586290,0.0-308.0-0.0,voc_e2,12167,"[{""event"":""fullscreenenter"",""trial"":1,""time"":7680}]",NA,NA,NA,NA,NA,3,#1CD855,#FA92F8,0,10,0,38,1,376.70000000018626,39,0,1056.5,10,1,experiment,NA,NA,0,0.1,0.9,1,0,298,7,NA
fcp-trial,340,1588610,0.0-309.0-0.0,voc_e2,12167,"[{""event"":""fullscreenenter"",""trial"":1,""time"":7680}]",NA,NA,NA,NA,NA,5,#1CD855,#FA92F8,0,10,0,38,1,332.40000000037253,39,0,483.70000000018626,10,1,experiment,NA,NA,0,0.1,0.9,1,0,299,7,NA
fcp-trial,341,1593392,0.0-310.0-0.0,voc_e2,12167,"[{""event"":""fullscreenenter"",""trial"":1,""time"":7680}]",NA,NA,NA,NA,NA,4,#D8271C,#741CD8,10,0,1,38,1,2827.2000000001863,37,1,450.3999999994412,10,1,experiment,NA,NA,1,0.7,0.3,2,3,300,7,NA
fcp-trial,342,1596648,0.0-311.0-0.0,voc_e2,12167,"[{""event"":""fullscreenenter"",""trial"":1,""time"":7680}]",NA,NA,NA,NA,NA,6,#3386FF,#D89F1C,10,10,0,38,1,1333.0999999996275,37,1,419.1000000005588,10,0,experiment,NA,NA,2,0.5,0.5,5,4,301,7,NA
fcp-trial,343,1600580,0.0-312.0-0.0,voc_e2,12167,"[{""event"":""fullscreenenter"",""trial"":1,""time"":7680}]",NA,NA,NA,NA,NA,3,#D89F1C,#3386FF,0,0,1,38,1,1962.7999999998137,39,0,460,0,0,experiment,NA,NA,2,0.5,0.5,4,5,302,7,NA
fcp-trial,344,1603008,0.0-313.0-0.0,voc_e2,12167,"[{""event"":""fullscreenenter"",""trial"":1,""time"":7680}]",NA,NA,NA,NA,NA,1,#D89F1C,#3386FF,10,0,1,38,1,577.5,39,0,346.79999999981374,0,0,experiment,NA,NA,2,0.5,0.5,4,5,303,7,NA
fcp-trial,345,1605982,0.0-314.0-0.0,voc_e2,12167,"[{""event"":""fullscreenenter"",""trial"":1,""time"":7680}]",NA,NA,NA,NA,NA,2,#1CD855,#FA92F8,0,10,0,38,1,939.2000000001863,39,0,528.4000000003725,10,1,experiment,NA,NA,0,0.1,0.9,1,0,304,7,NA
fcp-trial,346,1608957,0.0-315.0-0.0,voc_e2,12167,"[{""event"":""fullscreenenter"",""trial"":1,""time"":7680}]",NA,NA,NA,NA,NA,1,#D8271C,#741CD8,10,0,1,38,1,97.29999999981374,37,1,1369.5,10,1,experiment,NA,NA,1,0.7,0.3,2,3,305,7,NA
fcp-trial,347,1613019,0.0-316.0-0.0,voc_e2,12167,"[{""event"":""fullscreenenter"",""trial"":1,""time"":7680}]",NA,NA,NA,NA,NA,0,#D89F1C,#3386FF,0,0,1,38,1,1821.7999999998137,39,0,735.5,0,0,experiment,NA,NA,2,0.5,0.5,4,5,306,7,NA
fcp-trial,348,1615806,0.0-317.0-0.0,voc_e2,12167,"[{""event"":""fullscreenenter"",""trial"":1,""time"":7680}]",NA,NA,NA,NA,NA,0,#D8271C,#741CD8,0,0,1,38,1,189.5,39,0,1093.7999999998137,0,0,experiment,NA,NA,1,0.7,0.3,2,3,307,7,NA
fcp-trial,349,1618220,0.0-318.0-0.0,voc_e2,12167,"[{""event"":""fullscreenenter"",""trial"":1,""time"":7680}]",NA,NA,NA,NA,NA,6,#1CD855,#FA92F8,0,10,0,38,1,562.8999999994412,39,0,347.79999999981374,10,1,experiment,NA,NA,0,0.1,0.9,1,0,308,7,NA
fcp-trial,350,1620903,0.0-319.0-0.0,voc_e2,12167,"[{""event"":""fullscreenenter"",""trial"":1,""time"":7680}]",NA,NA,NA,NA,NA,6,#D8271C,#741CD8,10,10,1,38,1,129.79999999981374,37,1,1049.2000000001863,10,1,experiment,NA,NA,1,0.7,0.3,2,3,309,7,NA
fcp-trial,351,1623799,0.0-320.0-0.0,voc_e2,12167,"[{""event"":""fullscreenenter"",""trial"":1,""time"":7680}]",NA,NA,NA,NA,NA,2,#D89F1C,#3386FF,10,0,1,38,1,756.2999999998137,39,0,636.0999999996275,0,0,experiment,NA,NA,2,0.5,0.5,4,5,310,7,NA
fcp-trial,352,1626981,0.0-321.0-0.0,voc_e2,12167,"[{""event"":""fullscreenenter"",""trial"":1,""time"":7680}]",NA,NA,NA,NA,NA,3,#741CD8,#D8271C,10,0,0,38,1,574.3999999994412,39,0,1098.7000000001863,0,1,experiment,NA,NA,1,0.3,0.7,3,2,311,7,NA
fcp-trial,353,1630107,0.0-322.0-0.0,voc_e2,12167,"[{""event"":""fullscreenenter"",""trial"":1,""time"":7680}]",NA,NA,NA,NA,NA,0,#1CD855,#FA92F8,0,10,0,38,1,828.7999999998137,39,0,787.5999999996275,10,1,experiment,NA,NA,0,0.1,0.9,1,0,312,7,NA
fcp-trial,354,1632372,0.0-323.0-0.0,voc_e2,12167,"[{""event"":""fullscreenenter"",""trial"":1,""time"":7680}]",NA,NA,NA,NA,NA,5,#741CD8,#D8271C,0,0,0,38,1,332.90000000037253,37,1,428,0,0,experiment,NA,NA,1,0.3,0.7,3,2,313,7,NA
fcp-trial,355,1634603,0.0-324.0-0.0,voc_e2,12167,"[{""event"":""fullscreenenter"",""trial"":1,""time"":7680}]",NA,NA,NA,NA,NA,5,#D89F1C,#3386FF,0,0,1,38,1,332.5,39,0,395.09999999962747,0,0,experiment,NA,NA,2,0.5,0.5,4,5,314,7,NA
fcp-trial,356,1637696,0.0-325.0-0.0,voc_e2,12167,"[{""event"":""fullscreenenter"",""trial"":1,""time"":7680}]",NA,NA,NA,NA,NA,4,#D89F1C,#3386FF,0,10,1,38,1,958.3999999994412,39,0,630.0999999996275,10,0,experiment,NA,NA,2,0.5,0.5,4,5,315,7,NA
audio-instructions,357,1645862,0.0-326.0,voc_e2,12167,"[{""event"":""fullscreenenter"",""trial"":1,""time"":7680}]",NA,2198.7999999998137,static/audio/finished.wav,NA,0,NA,NA,NA,NA,NA,NA,NA,NA,NA,NA,NA,NA,NA,NA,NA,NA,NA,NA,NA,NA,NA,NA,NA,NA,NA
audio-instructions,358,1660018,0.0-327.0-0.0,voc_e2,12167,"[{""event"":""fullscreenenter"",""trial"":1,""time"":7680}]",NA,3320.399999999441,static/audio/explicit1.wav,NA,0,NA,NA,NA,NA,NA,NA,NA,NA,NA,NA,NA,NA,NA,NA,NA,NA,NA,NA,NA,NA,NA,NA,NA,NA,NA
audio-instructions,359,1668334,0.0-327.0-1.0,voc_e2,12167,"[{""event"":""fullscreenenter"",""trial"":1,""time"":7680}]",NA,724,static/audio/explicit2.wav,NA,0,NA,NA,NA,NA,NA,NA,NA,NA,NA,NA,NA,NA,NA,NA,NA,NA,NA,NA,NA,NA,NA,NA,NA,NA,NA
image-slider-response,360,1671841,0.0-328.0,voc_e2,12167,"[{""event"":""fullscreenenter"",""trial"":1,""time"":7680}]",NA,3503.5,static/img/machines/machine5.png,NA,NA,NA,NA,NA,NA,NA,NA,NA,NA,NA,NA,NA,NA,NA,NA,explicit,NA,NA,NA,NA,NA,NA,NA,NA,NA,4
image-slider-response,361,1678337,0.0-329.0,voc_e2,12167,"[{""event"":""fullscreenenter"",""trial"":1,""time"":7680}]",NA,6494.299999999814,static/img/machines/machine1.png,NA,NA,NA,NA,NA,NA,NA,NA,NA,NA,NA,NA,NA,NA,NA,NA,explicit,NA,NA,NA,NA,NA,NA,NA,NA,NA,5
image-slider-response,362,1682288,0.0-330.0,voc_e2,12167,"[{""event"":""fullscreenenter"",""trial"":1,""time"":7680}]",NA,3948.5,static/img/machines/machine2.png,NA,NA,NA,NA,NA,NA,NA,NA,NA,NA,NA,NA,NA,NA,NA,NA,explicit,NA,NA,NA,NA,NA,NA,NA,NA,NA,3
image-slider-response,363,1684895,0.0-331.0,voc_e2,12167,"[{""event"":""fullscreenenter"",""trial"":1,""time"":7680}]",NA,2604.5,static/img/machines/machine3.png,NA,NA,NA,NA,NA,NA,NA,NA,NA,NA,NA,NA,NA,NA,NA,NA,explicit,NA,NA,NA,NA,NA,NA,NA,NA,NA,5
image-slider-response,364,1688542,0.0-332.0,voc_e2,12167,"[{""event"":""fullscreenenter"",""trial"":1,""time"":7680}]",NA,3645.100000000559,static/img/machines/machine4.png,NA,NA,NA,NA,NA,NA,NA,NA,NA,NA,NA,NA,NA,NA,NA,NA,explicit,NA,NA,NA,NA,NA,NA,NA,NA,NA,4
image-slider-response,365,1691806,0.0-333.0,voc_e2,12167,"[{""event"":""fullscreenenter"",""trial"":1,""time"":7680}]",NA,3261.5,static/img/machines/machine6.png,NA,NA,NA,NA,NA,NA,NA,NA,NA,NA,NA,NA,NA,NA,NA,NA,explicit,NA,NA,NA,NA,NA,NA,NA,NA,NA,3
