trial_type,trial_index,time_elapsed,internal_node_id,task_version,subject_id,interactions,success,rt,stimulus,key_press,button_pressed,offer,arcade_color_L,arcade_color_R,arcade_outcome_L,arcade_outcome_R,correct,stage_1_key,stage_1_choice,stage_1_rt,stage_2_key,stage_2_choice,stage_2_rt,stage_3_outcome,accuracy,phase,responses,num_errors,context,reward_prob_L,reward_prob_R,arcade_id_L,arcade_id_R,trial,block,response
pavlovia,0,6,0.0-0.0,voc_e2,12186,[],NA,NA,NA,NA,NA,NA,NA,NA,NA,NA,NA,NA,NA,NA,NA,NA,NA,NA,NA,NA,NA,NA,NA,NA,NA,NA,NA,NA,NA,NA
fullscreen,1,2223,0.0-1.0,voc_e2,12186,"[{""event"":""fullscreenenter"",""trial"":1,""time"":1235}]",TRUE,NA,NA,NA,NA,NA,NA,NA,NA,NA,NA,NA,NA,NA,NA,NA,NA,NA,NA,NA,NA,NA,NA,NA,NA,NA,NA,NA,NA,NA
audio-keyboard-response,2,4951,0.0-2.0,voc_e2,12186,"[{""event"":""fullscreenenter"",""trial"":1,""time"":1235}]",NA,2571,static/audio/beep_loop.wav,32,NA,NA,NA,NA,NA,NA,NA,NA,NA,NA,NA,NA,NA,NA,NA,NA,NA,NA,NA,NA,NA,NA,NA,NA,NA,NA
audio-test,3,6820,0.0-3.0,voc_e2,12186,"[{""event"":""fullscreenenter"",""trial"":1,""time"":1235}]",NA,NA,static/audio/turtle.wav,NA,3,NA,NA,NA,NA,NA,NA,NA,NA,NA,NA,NA,NA,NA,NA,NA,NA,NA,NA,NA,NA,NA,NA,NA,NA,NA
audio-test,4,8897,0.0-4.0,voc_e2,12186,"[{""event"":""fullscreenenter"",""trial"":1,""time"":1235}]",NA,NA,static/audio/shark.wav,NA,2,NA,NA,NA,NA,NA,NA,NA,NA,NA,NA,NA,NA,NA,NA,NA,NA,NA,NA,NA,NA,NA,NA,NA,NA,NA
audio-instructions,5,16411,0.0-5.0-0.0,voc_e2,12186,"[{""event"":""fullscreenenter"",""trial"":1,""time"":1235}]",NA,1719.3000000715256,static/audio/instructions1.wav,NA,0,NA,NA,NA,NA,NA,NA,NA,NA,NA,NA,NA,NA,NA,NA,NA,NA,NA,NA,NA,NA,NA,NA,NA,NA,NA
audio-instructions,6,24723,0.0-5.0-1.0,voc_e2,12186,"[{""event"":""fullscreenenter"",""trial"":1,""time"":1235}]",NA,1570.2000000476835,static/audio/instructions2.wav,NA,0,NA,NA,NA,NA,NA,NA,NA,NA,NA,NA,NA,NA,NA,NA,NA,NA,NA,NA,NA,NA,NA,NA,NA,NA,NA
audio-instructions,7,32442,0.0-5.0-2.0,voc_e2,12186,"[{""event"":""fullscreenenter"",""trial"":1,""time"":1235}]",NA,1909.3000000715256,static/audio/instructions3.wav,NA,0,NA,NA,NA,NA,NA,NA,NA,NA,NA,NA,NA,NA,NA,NA,NA,NA,NA,NA,NA,NA,NA,NA,NA,NA,NA
audio-instructions,8,46658,0.0-5.0-3.0,voc_e2,12186,"[{""event"":""fullscreenenter"",""trial"":1,""time"":1235}]",NA,985.7000000476836,static/audio/instructions4.wav,NA,0,NA,NA,NA,NA,NA,NA,NA,NA,NA,NA,NA,NA,NA,NA,NA,NA,NA,NA,NA,NA,NA,NA,NA,NA,NA
audio-instructions,9,58506,0.0-5.0-4.0,voc_e2,12186,"[{""event"":""fullscreenenter"",""trial"":1,""time"":1235}]",NA,2463.099999904633,static/audio/instructions5.wav,NA,0,NA,NA,NA,NA,NA,NA,NA,NA,NA,NA,NA,NA,NA,NA,NA,NA,NA,NA,NA,NA,NA,NA,NA,NA,NA
fcp-practice,10,61213,0.0-5.0-5.0-0.0,voc_e2,12186,"[{""event"":""fullscreenenter"",""trial"":1,""time"":1235}]",NA,NA,NA,NA,NA,NA,#EDC948,#46d3c8,10,0,1,null,null,null,37,1,1200.3000000715256,10,1,practice,NA,NA,NA,NA,NA,NA,NA,NA,NA,NA
fcp-practice,11,63513,0.0-5.0-5.0-1.0,voc_e2,12186,"[{""event"":""fullscreenenter"",""trial"":1,""time"":1235}]",NA,NA,NA,NA,NA,NA,#EDC948,#46d3c8,10,0,1,null,null,null,37,1,792.1000000238419,10,1,practice,NA,NA,NA,NA,NA,NA,NA,NA,NA,NA
fcp-practice,12,65683,0.0-5.0-5.0-2.0,voc_e2,12186,"[{""event"":""fullscreenenter"",""trial"":1,""time"":1235}]",NA,NA,NA,NA,NA,NA,#EDC948,#46d3c8,0,10,1,null,null,null,37,1,658.8000000715256,0,1,practice,NA,NA,NA,NA,NA,NA,NA,NA,NA,NA
fcp-practice,13,67702,0.0-5.0-5.0-3.0,voc_e2,12186,"[{""event"":""fullscreenenter"",""trial"":1,""time"":1235}]",NA,NA,NA,NA,NA,NA,#EDC948,#46d3c8,10,0,1,null,null,null,37,1,513.8999999761581,10,1,practice,NA,NA,NA,NA,NA,NA,NA,NA,NA,NA
fcp-practice,14,70101,0.0-5.0-5.0-4.0,voc_e2,12186,"[{""event"":""fullscreenenter"",""trial"":1,""time"":1235}]",NA,NA,NA,NA,NA,NA,#EDC948,#46d3c8,10,0,1,null,null,null,37,1,896.2999999523163,10,1,practice,NA,NA,NA,NA,NA,NA,NA,NA,NA,NA
audio-instructions,15,91660,0.0-5.0-6.0,voc_e2,12186,"[{""event"":""fullscreenenter"",""trial"":1,""time"":1235}]",NA,3557.2000000476837,static/audio/instructions6.wav,NA,0,NA,NA,NA,NA,NA,NA,NA,NA,NA,NA,NA,NA,NA,NA,NA,NA,NA,NA,NA,NA,NA,NA,NA,NA,NA
audio-instructions,16,112076,0.0-5.0-7.0,voc_e2,12186,"[{""event"":""fullscreenenter"",""trial"":1,""time"":1235}]",NA,1223.5,static/audio/instructions7.wav,NA,0,NA,NA,NA,NA,NA,NA,NA,NA,NA,NA,NA,NA,NA,NA,NA,NA,NA,NA,NA,NA,NA,NA,NA,NA,NA
audio-instructions,17,122384,0.0-5.0-8.0,voc_e2,12186,"[{""event"":""fullscreenenter"",""trial"":1,""time"":1235}]",NA,831.5,static/audio/instructions8.wav,NA,0,NA,NA,NA,NA,NA,NA,NA,NA,NA,NA,NA,NA,NA,NA,NA,NA,NA,NA,NA,NA,NA,NA,NA,NA,NA
fcp-comprehension,18,131224,0.0-5.0-9.0,voc_e2,12186,"[{""event"":""fullscreenenter"",""trial"":1,""time"":1235}]",NA,8838.700000047684,NA,NA,NA,NA,NA,NA,NA,NA,NA,NA,NA,NA,NA,NA,NA,NA,NA,NA,"true,true",0,NA,NA,NA,NA,NA,NA,NA,NA
audio-instructions,19,139139,0.0-6.0-0.0,voc_e2,12186,"[{""event"":""fullscreenenter"",""trial"":1,""time"":1235}]",NA,2365.600000023842,static/audio/instructions9.wav,NA,0,NA,NA,NA,NA,NA,NA,NA,NA,NA,NA,NA,NA,NA,NA,NA,NA,NA,NA,NA,NA,NA,NA,NA,NA,NA
audio-instructions,20,152499,0.0-6.0-1.0,voc_e2,12186,"[{""event"":""fullscreenenter"",""trial"":1,""time"":1235}]",NA,1247.1999999284744,static/audio/instructions10.wav,NA,0,NA,NA,NA,NA,NA,NA,NA,NA,NA,NA,NA,NA,NA,NA,NA,NA,NA,NA,NA,NA,NA,NA,NA,NA,NA
fcp-trial,21,159733,0.0-6.0-2.0,voc_e2,12186,"[{""event"":""fullscreenenter"",""trial"":1,""time"":1235}]",NA,NA,NA,NA,NA,0,#EDC948,#46d3c8,10,10,1,38,1,3675.2000000476837,37,1,2039.899999976158,10,1,practice,NA,NA,NA,NA,NA,NA,NA,NA,NA,NA
audio-instructions,22,172446,0.0-6.0-3.0,voc_e2,12186,"[{""event"":""fullscreenenter"",""trial"":1,""time"":1235}]",NA,1703.600000023842,static/audio/instructions11.wav,NA,0,NA,NA,NA,NA,NA,NA,NA,NA,NA,NA,NA,NA,NA,NA,NA,NA,NA,NA,NA,NA,NA,NA,NA,NA,NA
fcp-trial,23,179029,0.0-6.0-4.0,voc_e2,12186,"[{""event"":""fullscreenenter"",""trial"":1,""time"":1235}]",NA,NA,NA,NA,NA,6,#EDC948,#46d3c8,10,10,1,40,0,1955.1000000238419,39,0,3116.5,10,0,practice,NA,NA,NA,NA,NA,NA,NA,NA,NA,NA
audio-instructions,24,198758,0.0-6.0-5.0,voc_e2,12186,"[{""event"":""fullscreenenter"",""trial"":1,""time"":1235}]",NA,1045.100000023842,static/audio/instructions12.wav,NA,0,NA,NA,NA,NA,NA,NA,NA,NA,NA,NA,NA,NA,NA,NA,NA,NA,NA,NA,NA,NA,NA,NA,NA,NA,NA
audio-instructions,25,206985,0.0-6.0-6.0,voc_e2,12186,"[{""event"":""fullscreenenter"",""trial"":1,""time"":1235}]",NA,632.3000000715256,static/audio/instructions13.wav,NA,0,NA,NA,NA,NA,NA,NA,NA,NA,NA,NA,NA,NA,NA,NA,NA,NA,NA,NA,NA,NA,NA,NA,NA,NA,NA
audio-instructions,26,216087,0.0-6.0-7.0,voc_e2,12186,"[{""event"":""fullscreenenter"",""trial"":1,""time"":1235}]",NA,653.3999999761581,static/audio/instructions14.wav,NA,0,NA,NA,NA,NA,NA,NA,NA,NA,NA,NA,NA,NA,NA,NA,NA,NA,NA,NA,NA,NA,NA,NA,NA,NA,NA
audio-instructions,27,223676,0.0-7.0-0.0,voc_e2,12186,"[{""event"":""fullscreenenter"",""trial"":1,""time"":1235}]",NA,682.6999999284744,static/audio/instructions15.wav,NA,0,NA,NA,NA,NA,NA,NA,NA,NA,NA,NA,NA,NA,NA,NA,NA,NA,NA,NA,NA,NA,NA,NA,NA,NA,NA
audio-instructions,28,231248,0.0-7.0-1.0,voc_e2,12186,"[{""event"":""fullscreenenter"",""trial"":1,""time"":1235}]",NA,744.7000000476837,static/audio/instructions16.wav,NA,0,NA,NA,NA,NA,NA,NA,NA,NA,NA,NA,NA,NA,NA,NA,NA,NA,NA,NA,NA,NA,NA,NA,NA,NA,NA
audio-instructions,29,239798,0.0-7.0-2.0,voc_e2,12186,"[{""event"":""fullscreenenter"",""trial"":1,""time"":1235}]",NA,874.5999999046326,static/audio/instructions17.wav,NA,0,NA,NA,NA,NA,NA,NA,NA,NA,NA,NA,NA,NA,NA,NA,NA,NA,NA,NA,NA,NA,NA,NA,NA,NA,NA
audio-instructions,30,248179,0.0-7.0-3.0,voc_e2,12186,"[{""event"":""fullscreenenter"",""trial"":1,""time"":1235}]",NA,616.3999999761581,static/audio/instructions18.wav,NA,0,NA,NA,NA,NA,NA,NA,NA,NA,NA,NA,NA,NA,NA,NA,NA,NA,NA,NA,NA,NA,NA,NA,NA,NA,NA
audio-instructions,31,255642,0.0-7.0-4.0,voc_e2,12186,"[{""event"":""fullscreenenter"",""trial"":1,""time"":1235}]",NA,728.3999999761581,static/audio/instructions19.wav,NA,0,NA,NA,NA,NA,NA,NA,NA,NA,NA,NA,NA,NA,NA,NA,NA,NA,NA,NA,NA,NA,NA,NA,NA,NA,NA
fcp-comprehension,32,267805,0.0-7.0-5.0,voc_e2,12186,"[{""event"":""fullscreenenter"",""trial"":1,""time"":1235}]",NA,12161.799999952316,NA,NA,NA,NA,NA,NA,NA,NA,NA,NA,NA,NA,NA,NA,NA,NA,NA,NA,"false,false,false,true",0,NA,NA,NA,NA,NA,NA,NA,NA
audio-instructions,33,281348,0.0-8.0,voc_e2,12186,"[{""event"":""fullscreenenter"",""trial"":1,""time"":1235}]",NA,4325.5,static/audio/ready.wav,NA,0,NA,NA,NA,NA,NA,NA,NA,NA,NA,NA,NA,NA,NA,NA,NA,NA,NA,NA,NA,NA,NA,NA,NA,NA,NA
fcp-trial,34,287175,0.0-9.0-0.0,voc_e2,12186,"[{""event"":""fullscreenenter"",""trial"":1,""time"":1235}]",NA,NA,NA,NA,NA,5,#1CD855,#FA92F8,0,10,0,40,0,3121.5,39,0,1188.4000000953674,10,1,experiment,NA,NA,1,0.3,0.7,3,2,1,1,NA
fcp-trial,35,292703,0.0-10.0-0.0,voc_e2,12186,"[{""event"":""fullscreenenter"",""trial"":1,""time"":1235}]",NA,NA,NA,NA,NA,3,#D89F1C,#3386FF,10,0,1,40,0,1914.2999999523163,37,1,2103,10,1,experiment,NA,NA,2,0.5,0.5,4,5,2,1,NA
fcp-trial,36,301476,0.0-11.0-0.0,voc_e2,12186,"[{""event"":""fullscreenenter"",""trial"":1,""time"":1235}]",NA,NA,NA,NA,NA,4,#741CD8,#D8271C,10,10,0,40,0,5303.699999928474,37,1,1966.2000000476835,10,0,experiment,NA,NA,0,0.1,0.9,1,0,3,1,NA
fcp-trial,37,309383,0.0-12.0-0.0,voc_e2,12186,"[{""event"":""fullscreenenter"",""trial"":1,""time"":1235}]",NA,NA,NA,NA,NA,2,#1CD855,#FA92F8,0,10,0,38,1,5372.699999928474,37,1,1029.7999999523165,0,0,experiment,NA,NA,1,0.3,0.7,3,2,4,1,NA
fcp-trial,38,316095,0.0-13.0-0.0,voc_e2,12186,"[{""event"":""fullscreenenter"",""trial"":1,""time"":1235}]",NA,NA,NA,NA,NA,3,#D8271C,#741CD8,10,0,1,38,1,4573.100000023842,39,0,635.5999999046326,0,0,experiment,NA,NA,0,0.9,0.1,0,1,5,1,NA
fcp-trial,39,320478,0.0-14.0-0.0,voc_e2,12186,"[{""event"":""fullscreenenter"",""trial"":1,""time"":1235}]",NA,NA,NA,NA,NA,1,#3386FF,#D89F1C,0,0,0,38,1,1745.7999999523163,39,0,1132.7000000476835,0,1,experiment,NA,NA,2,0.5,0.5,5,4,6,1,NA
fcp-trial,40,325093,0.0-15.0-0.0,voc_e2,12186,"[{""event"":""fullscreenenter"",""trial"":1,""time"":1235}]",NA,NA,NA,NA,NA,1,#FA92F8,#1CD855,10,0,1,38,1,2159.7000000476837,37,1,951.600000023842,10,1,experiment,NA,NA,1,0.7,0.3,2,3,7,1,NA
fcp-trial,41,332070,0.0-16.0-0.0,voc_e2,12186,"[{""event"":""fullscreenenter"",""trial"":1,""time"":1235}]",NA,NA,NA,NA,NA,6,#D89F1C,#3386FF,10,0,1,38,1,3910.0999999046326,37,1,1561,10,1,experiment,NA,NA,2,0.5,0.5,4,5,8,1,NA
fcp-trial,42,336873,0.0-17.0-0.0,voc_e2,12186,"[{""event"":""fullscreenenter"",""trial"":1,""time"":1235}]",NA,NA,NA,NA,NA,5,#741CD8,#D8271C,0,10,0,38,1,2076.3000000715256,37,1,1221.600000023842,0,0,experiment,NA,NA,0,0.1,0.9,1,0,9,1,NA
fcp-trial,43,341140,0.0-18.0-0.0,voc_e2,12186,"[{""event"":""fullscreenenter"",""trial"":1,""time"":1235}]",NA,NA,NA,NA,NA,2,#D89F1C,#3386FF,0,0,1,38,1,1348.1000000238419,37,1,1413.9000000953674,0,1,experiment,NA,NA,2,0.5,0.5,4,5,10,1,NA
fcp-trial,44,346366,0.0-19.0-0.0,voc_e2,12186,"[{""event"":""fullscreenenter"",""trial"":1,""time"":1235}]",NA,NA,NA,NA,NA,4,#FA92F8,#1CD855,10,0,1,38,1,1167.3999999761581,39,0,2553.600000023842,0,0,experiment,NA,NA,1,0.7,0.3,2,3,11,1,NA
fcp-trial,45,350446,0.0-20.0-0.0,voc_e2,12186,"[{""event"":""fullscreenenter"",""trial"":1,""time"":1235}]",NA,NA,NA,NA,NA,0,#D8271C,#741CD8,10,0,1,38,1,1072.5,39,0,1504,0,0,experiment,NA,NA,0,0.9,0.1,0,1,12,1,NA
fcp-trial,46,354418,0.0-21.0-0.0,voc_e2,12186,"[{""event"":""fullscreenenter"",""trial"":1,""time"":1235}]",NA,NA,NA,NA,NA,0,#D89F1C,#3386FF,10,0,1,38,1,1575.2999999523163,37,1,894,10,1,experiment,NA,NA,2,0.5,0.5,4,5,13,1,NA
fcp-trial,47,359209,0.0-22.0-0.0,voc_e2,12186,"[{""event"":""fullscreenenter"",""trial"":1,""time"":1235}]",NA,NA,NA,NA,NA,0,#1CD855,#FA92F8,0,10,0,38,1,1507.3000000715256,39,0,1778.0999999046326,10,1,experiment,NA,NA,1,0.3,0.7,3,2,14,1,NA
fcp-trial,48,364011,0.0-23.0-0.0,voc_e2,12186,"[{""event"":""fullscreenenter"",""trial"":1,""time"":1235}]",NA,NA,NA,NA,NA,5,#D89F1C,#3386FF,0,0,1,38,1,1869,37,1,1429.0999999046326,0,1,experiment,NA,NA,2,0.5,0.5,4,5,15,1,NA
fcp-trial,49,368111,0.0-24.0-0.0,voc_e2,12186,"[{""event"":""fullscreenenter"",""trial"":1,""time"":1235}]",NA,NA,NA,NA,NA,2,#D8271C,#741CD8,10,0,1,38,1,910.3000000715256,37,1,1686.399999976158,10,1,experiment,NA,NA,0,0.9,0.1,0,1,16,1,NA
fcp-trial,50,372597,0.0-25.0-0.0,voc_e2,12186,"[{""event"":""fullscreenenter"",""trial"":1,""time"":1235}]",NA,NA,NA,NA,NA,4,#3386FF,#D89F1C,10,10,0,38,1,2270.6999999284744,39,0,712.2000000476837,10,1,experiment,NA,NA,2,0.5,0.5,5,4,17,1,NA
fcp-trial,51,376506,0.0-26.0-0.0,voc_e2,12186,"[{""event"":""fullscreenenter"",""trial"":1,""time"":1235}]",NA,NA,NA,NA,NA,6,#1CD855,#FA92F8,10,10,0,38,1,2117.2000000476837,39,0,286.39999997615814,10,1,experiment,NA,NA,1,0.3,0.7,3,2,18,1,NA
fcp-trial,52,380241,0.0-27.0-0.0,voc_e2,12186,"[{""event"":""fullscreenenter"",""trial"":1,""time"":1235}]",NA,NA,NA,NA,NA,1,#D8271C,#741CD8,0,0,1,38,1,1805.8999999761581,37,1,418.5,0,1,experiment,NA,NA,0,0.9,0.1,0,1,19,1,NA
fcp-trial,53,383567,0.0-28.0-0.0,voc_e2,12186,"[{""event"":""fullscreenenter"",""trial"":1,""time"":1235}]",NA,NA,NA,NA,NA,6,#741CD8,#D8271C,0,0,0,38,1,1301.7000000476837,39,0,520.2999999523163,0,1,experiment,NA,NA,0,0.1,0.9,1,0,20,1,NA
fcp-trial,54,386319,0.0-29.0-0.0,voc_e2,12186,"[{""event"":""fullscreenenter"",""trial"":1,""time"":1235}]",NA,NA,NA,NA,NA,3,#FA92F8,#1CD855,10,0,1,38,1,855.3000000715256,37,1,390.89999997615814,10,1,experiment,NA,NA,1,0.7,0.3,2,3,21,1,NA
fcp-trial,55,389060,0.0-30.0-0.0,voc_e2,12186,"[{""event"":""fullscreenenter"",""trial"":1,""time"":1235}]",NA,NA,NA,NA,NA,0,#1CD855,#FA92F8,10,0,0,38,1,922.5,39,0,311.89999997615814,0,1,experiment,NA,NA,1,0.3,0.7,3,2,22,1,NA
fcp-trial,56,391806,0.0-31.0-0.0,voc_e2,12186,"[{""event"":""fullscreenenter"",""trial"":1,""time"":1235}]",NA,NA,NA,NA,NA,2,#3386FF,#D89F1C,0,0,0,38,1,641.0999999046326,39,0,600.2999999523163,0,1,experiment,NA,NA,2,0.5,0.5,5,4,23,1,NA
fcp-trial,57,395636,0.0-32.0-0.0,voc_e2,12186,"[{""event"":""fullscreenenter"",""trial"":1,""time"":1235}]",NA,NA,NA,NA,NA,1,#1CD855,#FA92F8,0,10,0,38,1,1551.2000000476837,39,0,775.6000000238419,10,1,experiment,NA,NA,1,0.3,0.7,3,2,24,1,NA
fcp-trial,58,399664,0.0-33.0-0.0,voc_e2,12186,"[{""event"":""fullscreenenter"",""trial"":1,""time"":1235}]",NA,NA,NA,NA,NA,6,#3386FF,#D89F1C,10,0,0,38,1,2092.8000000715256,37,1,428.5,10,0,experiment,NA,NA,2,0.5,0.5,5,4,25,1,NA
fcp-trial,59,406364,0.0-34.0-0.0,voc_e2,12186,"[{""event"":""fullscreenenter"",""trial"":1,""time"":1235}]",NA,NA,NA,NA,NA,1,#D8271C,#741CD8,10,0,1,38,1,2554.1999999284744,39,0,2642.7000000476837,0,0,experiment,NA,NA,0,0.9,0.1,0,1,26,1,NA
fcp-trial,60,409493,0.0-35.0-0.0,voc_e2,12186,"[{""event"":""fullscreenenter"",""trial"":1,""time"":1235}]",NA,NA,NA,NA,NA,3,#1CD855,#FA92F8,0,10,0,38,1,1331.6000000238419,39,0,293.39999997615814,10,1,experiment,NA,NA,1,0.3,0.7,3,2,27,1,NA
fcp-trial,61,414471,0.0-36.0-0.0,voc_e2,12186,"[{""event"":""fullscreenenter"",""trial"":1,""time"":1235}]",NA,NA,NA,NA,NA,1,#D89F1C,#3386FF,10,10,1,38,1,2368.399999976158,39,0,1106.5,10,0,experiment,NA,NA,2,0.5,0.5,4,5,28,1,NA
fcp-trial,62,420136,0.0-37.0-0.0,voc_e2,12186,"[{""event"":""fullscreenenter"",""trial"":1,""time"":1235}]",NA,NA,NA,NA,NA,3,#741CD8,#D8271C,0,10,0,38,1,1044.7000000476837,39,0,3105.7999999523163,10,1,experiment,NA,NA,0,0.1,0.9,1,0,29,1,NA
fcp-trial,63,423260,0.0-38.0-0.0,voc_e2,12186,"[{""event"":""fullscreenenter"",""trial"":1,""time"":1235}]",NA,NA,NA,NA,NA,2,#741CD8,#D8271C,0,0,0,38,1,1289.3000000715256,39,0,328.60000002384186,0,1,experiment,NA,NA,0,0.1,0.9,1,0,30,1,NA
fcp-trial,64,426097,0.0-39.0-0.0,voc_e2,12186,"[{""event"":""fullscreenenter"",""trial"":1,""time"":1235}]",NA,NA,NA,NA,NA,2,#FA92F8,#1CD855,10,0,1,38,1,962.5,37,1,370.7999999523163,10,1,experiment,NA,NA,1,0.7,0.3,2,3,31,1,NA
fcp-trial,65,430737,0.0-40.0-0.0,voc_e2,12186,"[{""event"":""fullscreenenter"",""trial"":1,""time"":1235}]",NA,NA,NA,NA,NA,5,#3386FF,#D89F1C,0,10,0,38,1,2778.6999999284744,37,1,356.2999999523163,0,0,experiment,NA,NA,2,0.5,0.5,5,4,32,1,NA
fcp-trial,66,435726,0.0-41.0-0.0,voc_e2,12186,"[{""event"":""fullscreenenter"",""trial"":1,""time"":1235}]",NA,NA,NA,NA,NA,5,#D8271C,#741CD8,10,0,1,38,1,1485.8999999761581,37,1,1999.399999976158,10,1,experiment,NA,NA,0,0.9,0.1,0,1,33,1,NA
fcp-trial,67,439118,0.0-42.0-0.0,voc_e2,12186,"[{""event"":""fullscreenenter"",""trial"":1,""time"":1235}]",NA,NA,NA,NA,NA,6,#1CD855,#FA92F8,0,0,0,38,1,1528.6999999284744,39,0,359.2000000476837,0,1,experiment,NA,NA,1,0.3,0.7,3,2,34,1,NA
fcp-trial,68,443010,0.0-43.0-0.0,voc_e2,12186,"[{""event"":""fullscreenenter"",""trial"":1,""time"":1235}]",NA,NA,NA,NA,NA,0,#D8271C,#741CD8,10,0,1,38,1,1239.7000000476837,37,1,1148.8000000715256,10,1,experiment,NA,NA,0,0.9,0.1,0,1,35,1,NA
fcp-trial,69,448743,0.0-44.0-0.0,voc_e2,12186,"[{""event"":""fullscreenenter"",""trial"":1,""time"":1235}]",NA,NA,NA,NA,NA,0,#D89F1C,#3386FF,10,10,1,38,1,1674,39,0,2554.899999976158,10,0,experiment,NA,NA,2,0.5,0.5,4,5,36,1,NA
fcp-trial,70,452663,0.0-45.0-0.0,voc_e2,12186,"[{""event"":""fullscreenenter"",""trial"":1,""time"":1235}]",NA,NA,NA,NA,NA,6,#D8271C,#741CD8,0,10,1,38,1,1001.7000000476837,37,1,1416.4000000953674,0,1,experiment,NA,NA,0,0.9,0.1,0,1,37,1,NA
fcp-trial,71,455763,0.0-46.0-0.0,voc_e2,12186,"[{""event"":""fullscreenenter"",""trial"":1,""time"":1235}]",NA,NA,NA,NA,NA,4,#741CD8,#D8271C,0,10,0,38,1,1003.1000000238419,39,0,593.8000000715256,10,1,experiment,NA,NA,0,0.1,0.9,1,0,38,1,NA
fcp-trial,72,458311,0.0-47.0-0.0,voc_e2,12186,"[{""event"":""fullscreenenter"",""trial"":1,""time"":1235}]",NA,NA,NA,NA,NA,5,#1CD855,#FA92F8,0,10,0,38,1,714.1000000238419,39,0,330,10,1,experiment,NA,NA,1,0.3,0.7,3,2,39,1,NA
fcp-trial,73,461831,0.0-48.0-0.0,voc_e2,12186,"[{""event"":""fullscreenenter"",""trial"":1,""time"":1235}]",NA,NA,NA,NA,NA,3,#D89F1C,#3386FF,0,10,1,38,1,1548.7000000476837,39,0,466.89999997615814,10,0,experiment,NA,NA,2,0.5,0.5,4,5,40,1,NA
fcp-trial,74,464889,0.0-49.0-0.0,voc_e2,12186,"[{""event"":""fullscreenenter"",""trial"":1,""time"":1235}]",NA,NA,NA,NA,NA,4,#3386FF,#D89F1C,0,0,0,38,1,1011.9000000953674,37,1,541.8999999761581,0,0,experiment,NA,NA,2,0.5,0.5,5,4,41,1,NA
fcp-trial,75,468028,0.0-50.0-0.0,voc_e2,12186,"[{""event"":""fullscreenenter"",""trial"":1,""time"":1235}]",NA,NA,NA,NA,NA,4,#FA92F8,#1CD855,10,10,1,38,1,1324.6999999284744,37,1,310.40000009536743,10,1,experiment,NA,NA,1,0.7,0.3,2,3,42,1,NA
fcp-trial,76,470585,0.0-51.0-0.0,voc_e2,12186,"[{""event"":""fullscreenenter"",""trial"":1,""time"":1235}]",NA,NA,NA,NA,NA,5,#D89F1C,#3386FF,0,10,1,38,1,659.3999999761581,39,0,394.6999999284744,10,0,experiment,NA,NA,2,0.5,0.5,4,5,43,1,NA
fcp-trial,77,473969,0.0-52.0-0.0,voc_e2,12186,"[{""event"":""fullscreenenter"",""trial"":1,""time"":1235}]",NA,NA,NA,NA,NA,4,#D8271C,#741CD8,10,0,1,38,1,1450.3999999761581,37,1,429.2999999523163,10,1,experiment,NA,NA,0,0.9,0.1,0,1,44,1,NA
fcp-trial,78,477380,0.0-53.0-0.0,voc_e2,12186,"[{""event"":""fullscreenenter"",""trial"":1,""time"":1235}]",NA,NA,NA,NA,NA,3,#1CD855,#FA92F8,0,10,0,38,1,1557.4000000953674,39,0,350,10,1,experiment,NA,NA,1,0.3,0.7,3,2,45,1,NA
fcp-trial,79,480017,0.0-54.0-0.0,voc_e2,12186,"[{""event"":""fullscreenenter"",""trial"":1,""time"":1235}]",NA,NA,NA,NA,NA,2,#1CD855,#FA92F8,0,0,0,38,1,658.8999999761581,39,0,468.1999999284744,0,1,experiment,NA,NA,1,0.3,0.7,3,2,46,2,NA
fcp-trial,80,484878,0.0-55.0-0.0,voc_e2,12186,"[{""event"":""fullscreenenter"",""trial"":1,""time"":1235}]",NA,NA,NA,NA,NA,3,#741CD8,#D8271C,0,10,0,38,1,972.3999999761581,39,0,2385.2000000476837,10,1,experiment,NA,NA,0,0.1,0.9,1,0,47,2,NA
fcp-trial,81,488706,0.0-56.0-0.0,voc_e2,12186,"[{""event"":""fullscreenenter"",""trial"":1,""time"":1235}]",NA,NA,NA,NA,NA,2,#3386FF,#D89F1C,0,0,0,38,1,822.5,37,1,1502.100000023842,0,0,experiment,NA,NA,2,0.5,0.5,5,4,48,2,NA
fcp-trial,82,491780,0.0-57.0-0.0,voc_e2,12186,"[{""event"":""fullscreenenter"",""trial"":1,""time"":1235}]",NA,NA,NA,NA,NA,1,#D8271C,#741CD8,10,0,1,38,1,794.7999999523163,37,1,776.1999999284744,10,1,experiment,NA,NA,0,0.9,0.1,0,1,49,2,NA
fcp-trial,83,495469,0.0-58.0-0.0,voc_e2,12186,"[{""event"":""fullscreenenter"",""trial"":1,""time"":1235}]",NA,NA,NA,NA,NA,1,#D89F1C,#3386FF,0,0,1,38,1,797.6000000238419,39,0,1387.5,0,0,experiment,NA,NA,2,0.5,0.5,4,5,50,2,NA
fcp-trial,84,498019,0.0-59.0-0.0,voc_e2,12186,"[{""event"":""fullscreenenter"",""trial"":1,""time"":1235}]",NA,NA,NA,NA,NA,4,#FA92F8,#1CD855,10,10,1,38,1,632.4000000953674,37,1,414.89999997615814,10,1,experiment,NA,NA,1,0.7,0.3,2,3,51,2,NA
fcp-trial,85,500715,0.0-60.0-0.0,voc_e2,12186,"[{""event"":""fullscreenenter"",""trial"":1,""time"":1235}]",NA,NA,NA,NA,NA,5,#1CD855,#FA92F8,10,0,0,38,1,736.5,39,0,456.2999999523163,0,1,experiment,NA,NA,1,0.3,0.7,3,2,52,2,NA
fcp-trial,86,503168,0.0-61.0-0.0,voc_e2,12186,"[{""event"":""fullscreenenter"",""trial"":1,""time"":1235}]",NA,NA,NA,NA,NA,1,#1CD855,#FA92F8,10,10,0,38,1,543.8999999761581,39,0,405.10000002384186,10,1,experiment,NA,NA,1,0.3,0.7,3,2,53,2,NA
fcp-trial,87,507883,0.0-62.0-0.0,voc_e2,12186,"[{""event"":""fullscreenenter"",""trial"":1,""time"":1235}]",NA,NA,NA,NA,NA,5,#741CD8,#D8271C,10,10,0,38,1,643.1999999284744,39,0,2568.5,10,1,experiment,NA,NA,0,0.1,0.9,1,0,54,2,NA
fcp-trial,88,511242,0.0-63.0-0.0,voc_e2,12186,"[{""event"":""fullscreenenter"",""trial"":1,""time"":1235}]",NA,NA,NA,NA,NA,4,#D89F1C,#3386FF,10,0,1,38,1,614.6999999284744,39,0,1238.6999999284744,0,0,experiment,NA,NA,2,0.5,0.5,4,5,55,2,NA
fcp-trial,89,513678,0.0-64.0-0.0,voc_e2,12186,"[{""event"":""fullscreenenter"",""trial"":1,""time"":1235}]",NA,NA,NA,NA,NA,0,#FA92F8,#1CD855,0,0,1,38,1,530.1000000238419,37,1,402.2999999523163,0,1,experiment,NA,NA,1,0.7,0.3,2,3,56,2,NA
fcp-trial,90,517134,0.0-65.0-0.0,voc_e2,12186,"[{""event"":""fullscreenenter"",""trial"":1,""time"":1235}]",NA,NA,NA,NA,NA,3,#3386FF,#D89F1C,0,10,0,38,1,631.5,39,0,1320.0999999046326,10,1,experiment,NA,NA,2,0.5,0.5,5,4,57,2,NA
fcp-trial,91,519758,0.0-66.0-0.0,voc_e2,12186,"[{""event"":""fullscreenenter"",""trial"":1,""time"":1235}]",NA,NA,NA,NA,NA,6,#D89F1C,#3386FF,10,10,1,38,1,845.1000000238419,37,1,275.10000002384186,10,1,experiment,NA,NA,2,0.5,0.5,4,5,58,2,NA
fcp-trial,92,523287,0.0-67.0-0.0,voc_e2,12186,"[{""event"":""fullscreenenter"",""trial"":1,""time"":1235}]",NA,NA,NA,NA,NA,2,#D8271C,#741CD8,10,0,1,38,1,1489.6000000238419,39,0,537.6000000238419,0,0,experiment,NA,NA,0,0.9,0.1,0,1,59,2,NA
fcp-trial,93,526496,0.0-68.0-0.0,voc_e2,12186,"[{""event"":""fullscreenenter"",""trial"":1,""time"":1235}]",NA,NA,NA,NA,NA,6,#1CD855,#FA92F8,0,10,0,38,1,1380.4000000953674,39,0,325.39999997615814,10,1,experiment,NA,NA,1,0.3,0.7,3,2,60,2,NA
fcp-trial,94,532347,0.0-69.0-0.0,voc_e2,12186,"[{""event"":""fullscreenenter"",""trial"":1,""time"":1235}]",NA,NA,NA,NA,NA,6,#741CD8,#D8271C,0,10,0,38,1,617.5,37,1,3730.399999976158,0,0,experiment,NA,NA,0,0.1,0.9,1,0,61,2,NA
fcp-trial,95,535203,0.0-70.0-0.0,voc_e2,12186,"[{""event"":""fullscreenenter"",""trial"":1,""time"":1235}]",NA,NA,NA,NA,NA,0,#741CD8,#D8271C,0,10,0,38,1,959.2000000476837,39,0,391.8000000715256,10,1,experiment,NA,NA,0,0.1,0.9,1,0,62,2,NA
fcp-trial,96,538885,0.0-71.0-0.0,voc_e2,12186,"[{""event"":""fullscreenenter"",""trial"":1,""time"":1235}]",NA,NA,NA,NA,NA,0,#D89F1C,#3386FF,10,10,1,38,1,696.7000000476837,37,1,1481.1999999284744,10,1,experiment,NA,NA,2,0.5,0.5,4,5,63,2,NA
fcp-trial,97,541706,0.0-72.0-0.0,voc_e2,12186,"[{""event"":""fullscreenenter"",""trial"":1,""time"":1235}]",NA,NA,NA,NA,NA,2,#FA92F8,#1CD855,10,10,1,38,1,714.8999999761581,37,1,600.5,10,1,experiment,NA,NA,1,0.7,0.3,2,3,64,2,NA
fcp-trial,98,544913,0.0-73.0-0.0,voc_e2,12186,"[{""event"":""fullscreenenter"",""trial"":1,""time"":1235}]",NA,NA,NA,NA,NA,0,#3386FF,#D89F1C,10,0,0,38,1,1002.2999999523163,39,0,700.5,0,1,experiment,NA,NA,2,0.5,0.5,5,4,65,2,NA
fcp-trial,99,547474,0.0-74.0-0.0,voc_e2,12186,"[{""event"":""fullscreenenter"",""trial"":1,""time"":1235}]",NA,NA,NA,NA,NA,3,#FA92F8,#1CD855,10,0,1,38,1,685,37,1,371.59999990463257,10,1,experiment,NA,NA,1,0.7,0.3,2,3,66,2,NA
fcp-trial,100,551613,0.0-75.0-0.0,voc_e2,12186,"[{""event"":""fullscreenenter"",""trial"":1,""time"":1235}]",NA,NA,NA,NA,NA,5,#D8271C,#741CD8,10,0,1,38,1,643.1000000238419,37,1,1993.9000000953672,10,1,experiment,NA,NA,0,0.9,0.1,0,1,67,2,NA
fcp-trial,101,554090,0.0-76.0-0.0,voc_e2,12186,"[{""event"":""fullscreenenter"",""trial"":1,""time"":1235}]",NA,NA,NA,NA,NA,5,#1CD855,#FA92F8,10,10,0,38,1,579.1000000238419,39,0,390.7999999523163,10,1,experiment,NA,NA,1,0.3,0.7,3,2,68,2,NA
fcp-trial,102,556546,0.0-77.0-0.0,voc_e2,12186,"[{""event"":""fullscreenenter"",""trial"":1,""time"":1235}]",NA,NA,NA,NA,NA,6,#D89F1C,#3386FF,0,10,1,38,1,501.60000002384186,37,1,450.8000000715256,0,1,experiment,NA,NA,2,0.5,0.5,4,5,69,2,NA
fcp-trial,103,560591,0.0-78.0-0.0,voc_e2,12186,"[{""event"":""fullscreenenter"",""trial"":1,""time"":1235}]",NA,NA,NA,NA,NA,6,#741CD8,#D8271C,10,10,0,38,1,597.8999999761581,39,0,1942.100000023842,10,1,experiment,NA,NA,0,0.1,0.9,1,0,70,2,NA
fcp-trial,104,563407,0.0-79.0-0.0,voc_e2,12186,"[{""event"":""fullscreenenter"",""trial"":1,""time"":1235}]",NA,NA,NA,NA,NA,0,#741CD8,#D8271C,10,10,0,38,1,728.2999999523163,39,0,584.6000000238419,10,1,experiment,NA,NA,0,0.1,0.9,1,0,71,2,NA
fcp-trial,105,565869,0.0-80.0-0.0,voc_e2,12186,"[{""event"":""fullscreenenter"",""trial"":1,""time"":1235}]",NA,NA,NA,NA,NA,4,#1CD855,#FA92F8,10,10,0,38,1,484.2000000476837,39,0,474.3000000715256,10,1,experiment,NA,NA,1,0.3,0.7,3,2,72,2,NA
fcp-trial,106,568388,0.0-81.0-0.0,voc_e2,12186,"[{""event"":""fullscreenenter"",""trial"":1,""time"":1235}]",NA,NA,NA,NA,NA,4,#741CD8,#D8271C,0,10,0,38,1,539.8999999761581,39,0,475.09999990463257,10,1,experiment,NA,NA,0,0.1,0.9,1,0,73,2,NA
fcp-trial,107,572980,0.0-82.0-0.0,voc_e2,12186,"[{""event"":""fullscreenenter"",""trial"":1,""time"":1235}]",NA,NA,NA,NA,NA,1,#D89F1C,#3386FF,0,10,1,38,1,1637.5,37,1,1451.5,0,1,experiment,NA,NA,2,0.5,0.5,4,5,74,2,NA
fcp-trial,108,577303,0.0-83.0-0.0,voc_e2,12186,"[{""event"":""fullscreenenter"",""trial"":1,""time"":1235}]",NA,NA,NA,NA,NA,6,#FA92F8,#1CD855,0,10,1,38,1,2126,37,1,693.1000000238419,0,1,experiment,NA,NA,1,0.7,0.3,2,3,75,2,NA
fcp-trial,109,581080,0.0-84.0-0.0,voc_e2,12186,"[{""event"":""fullscreenenter"",""trial"":1,""time"":1235}]",NA,NA,NA,NA,NA,4,#D89F1C,#3386FF,0,10,1,38,1,1785.1000000238419,37,1,488.39999997615814,0,1,experiment,NA,NA,2,0.5,0.5,4,5,76,2,NA
fcp-trial,110,584092,0.0-85.0-0.0,voc_e2,12186,"[{""event"":""fullscreenenter"",""trial"":1,""time"":1235}]",NA,NA,NA,NA,NA,2,#741CD8,#D8271C,0,10,0,38,1,588.3999999761581,39,0,920.100000023842,10,1,experiment,NA,NA,0,0.1,0.9,1,0,77,2,NA
fcp-trial,111,587643,0.0-86.0-0.0,voc_e2,12186,"[{""event"":""fullscreenenter"",""trial"":1,""time"":1235}]",NA,NA,NA,NA,NA,3,#D89F1C,#3386FF,10,10,1,38,1,734.1000000238419,37,1,1313.399999976158,10,1,experiment,NA,NA,2,0.5,0.5,4,5,78,2,NA
fcp-trial,112,590313,0.0-87.0-0.0,voc_e2,12186,"[{""event"":""fullscreenenter"",""trial"":1,""time"":1235}]",NA,NA,NA,NA,NA,1,#FA92F8,#1CD855,10,10,1,38,1,682.2000000476837,37,1,484.7000000476837,10,1,experiment,NA,NA,1,0.7,0.3,2,3,79,2,NA
fcp-trial,113,594429,0.0-88.0-0.0,voc_e2,12186,"[{""event"":""fullscreenenter"",""trial"":1,""time"":1235}]",NA,NA,NA,NA,NA,2,#D89F1C,#3386FF,10,10,1,38,1,631.1000000238419,37,1,1981,10,1,experiment,NA,NA,2,0.5,0.5,4,5,80,2,NA
fcp-trial,114,597417,0.0-89.0-0.0,voc_e2,12186,"[{""event"":""fullscreenenter"",""trial"":1,""time"":1235}]",NA,NA,NA,NA,NA,3,#D8271C,#741CD8,10,0,1,38,1,594.5,37,1,889.5,10,1,experiment,NA,NA,0,0.9,0.1,0,1,81,2,NA
fcp-trial,115,599906,0.0-90.0-0.0,voc_e2,12186,"[{""event"":""fullscreenenter"",""trial"":1,""time"":1235}]",NA,NA,NA,NA,NA,0,#FA92F8,#1CD855,10,0,1,38,1,627.8000000715256,37,1,357.39999997615814,10,1,experiment,NA,NA,1,0.7,0.3,2,3,82,2,NA
fcp-trial,116,602467,0.0-91.0-0.0,voc_e2,12186,"[{""event"":""fullscreenenter"",""trial"":1,""time"":1235}]",NA,NA,NA,NA,NA,5,#D89F1C,#3386FF,0,0,1,38,1,497.10000002384186,37,1,558.5,0,1,experiment,NA,NA,2,0.5,0.5,4,5,83,2,NA
fcp-trial,117,606799,0.0-92.0-0.0,voc_e2,12186,"[{""event"":""fullscreenenter"",""trial"":1,""time"":1235}]",NA,NA,NA,NA,NA,1,#D8271C,#741CD8,10,0,1,38,1,563.5,37,1,2265.900000095367,10,1,experiment,NA,NA,0,0.9,0.1,0,1,84,2,NA
fcp-trial,118,609632,0.0-93.0-0.0,voc_e2,12186,"[{""event"":""fullscreenenter"",""trial"":1,""time"":1235}]",NA,NA,NA,NA,NA,6,#D89F1C,#3386FF,0,0,1,38,1,480.60000002384186,37,1,848.2999999523163,0,1,experiment,NA,NA,2,0.5,0.5,4,5,85,2,NA
fcp-trial,119,612305,0.0-94.0-0.0,voc_e2,12186,"[{""event"":""fullscreenenter"",""trial"":1,""time"":1235}]",NA,NA,NA,NA,NA,2,#1CD855,#FA92F8,10,10,0,38,1,780.2999999523163,39,0,389.39999997615814,10,1,experiment,NA,NA,1,0.3,0.7,3,2,86,2,NA
fcp-trial,120,615623,0.0-95.0-0.0,voc_e2,12186,"[{""event"":""fullscreenenter"",""trial"":1,""time"":1235}]",NA,NA,NA,NA,NA,1,#1CD855,#FA92F8,10,10,0,38,1,1353.6999999284744,39,0,461.10000002384186,10,1,experiment,NA,NA,1,0.3,0.7,3,2,87,2,NA
fcp-trial,121,618546,0.0-96.0-0.0,voc_e2,12186,"[{""event"":""fullscreenenter"",""trial"":1,""time"":1235}]",NA,NA,NA,NA,NA,5,#741CD8,#D8271C,0,10,0,38,1,789.6999999284744,39,0,630.3000000715256,10,1,experiment,NA,NA,0,0.1,0.9,1,0,88,2,NA
fcp-trial,122,621112,0.0-97.0-0.0,voc_e2,12186,"[{""event"":""fullscreenenter"",""trial"":1,""time"":1235}]",NA,NA,NA,NA,NA,3,#D89F1C,#3386FF,0,10,1,38,1,595.1999999284744,37,1,466.10000002384186,0,1,experiment,NA,NA,2,0.5,0.5,4,5,89,2,NA
fcp-trial,123,623835,0.0-98.0-0.0,voc_e2,12186,"[{""event"":""fullscreenenter"",""trial"":1,""time"":1235}]",NA,NA,NA,NA,NA,3,#FA92F8,#1CD855,10,0,1,38,1,435.6999999284744,37,1,783,10,1,experiment,NA,NA,1,0.7,0.3,2,3,90,2,NA
fcp-trial,124,626718,0.0-99.0-0.0,voc_e2,12186,"[{""event"":""fullscreenenter"",""trial"":1,""time"":1235}]",NA,NA,NA,NA,NA,6,#D8271C,#741CD8,10,0,1,38,1,657.2000000476837,37,1,720.1000000238419,10,1,experiment,NA,NA,0,0.9,0.1,0,1,91,3,NA
fcp-trial,125,630064,0.0-100.0-0.0,voc_e2,12186,"[{""event"":""fullscreenenter"",""trial"":1,""time"":1235}]",NA,NA,NA,NA,NA,4,#3386FF,#D89F1C,0,0,0,38,1,598.9000000953674,39,0,1243.5,0,1,experiment,NA,NA,2,0.5,0.5,5,4,92,3,NA
fcp-trial,126,632714,0.0-101.0-0.0,voc_e2,12186,"[{""event"":""fullscreenenter"",""trial"":1,""time"":1235}]",NA,NA,NA,NA,NA,4,#FA92F8,#1CD855,10,0,1,38,1,550.5,37,1,595.8999999761581,10,1,experiment,NA,NA,1,0.7,0.3,2,3,93,3,NA
fcp-trial,127,636310,0.0-102.0-0.0,voc_e2,12186,"[{""event"":""fullscreenenter"",""trial"":1,""time"":1235}]",NA,NA,NA,NA,NA,1,#3386FF,#D89F1C,0,10,0,38,1,539,39,0,1553.7999999523165,10,1,experiment,NA,NA,2,0.5,0.5,5,4,94,3,NA
fcp-trial,128,643179,0.0-103.0-0.0,voc_e2,12186,"[{""event"":""fullscreenenter"",""trial"":1,""time"":1235}]",NA,NA,NA,NA,NA,0,#D8271C,#741CD8,10,0,1,38,1,687.6000000238419,37,1,4673,10,1,experiment,NA,NA,0,0.9,0.1,0,1,95,3,NA
fcp-trial,129,647027,0.0-104.0-0.0,voc_e2,12186,"[{""event"":""fullscreenenter"",""trial"":1,""time"":1235}]",NA,NA,NA,NA,NA,6,#FA92F8,#1CD855,10,0,1,38,1,587.1000000238419,37,1,1756.5999999046326,10,1,experiment,NA,NA,1,0.7,0.3,2,3,96,3,NA
fcp-trial,130,650713,0.0-105.0-0.0,voc_e2,12186,"[{""event"":""fullscreenenter"",""trial"":1,""time"":1235}]",NA,NA,NA,NA,NA,3,#741CD8,#D8271C,0,10,0,38,1,674.1999999284744,39,0,1508.399999976158,10,1,experiment,NA,NA,0,0.1,0.9,1,0,97,3,NA
fcp-trial,131,653557,0.0-106.0-0.0,voc_e2,12186,"[{""event"":""fullscreenenter"",""trial"":1,""time"":1235}]",NA,NA,NA,NA,NA,1,#D8271C,#741CD8,10,0,1,38,1,748.8999999761581,39,0,581.9000000953674,0,0,experiment,NA,NA,0,0.9,0.1,0,1,98,3,NA
fcp-trial,132,656985,0.0-107.0-0.0,voc_e2,12186,"[{""event"":""fullscreenenter"",""trial"":1,""time"":1235}]",NA,NA,NA,NA,NA,5,#3386FF,#D89F1C,10,10,0,38,1,606.2999999523163,39,0,1318.600000023842,10,1,experiment,NA,NA,2,0.5,0.5,5,4,99,3,NA
fcp-trial,133,660032,0.0-108.0-0.0,voc_e2,12186,"[{""event"":""fullscreenenter"",""trial"":1,""time"":1235}]",NA,NA,NA,NA,NA,5,#FA92F8,#1CD855,0,0,1,38,1,1083.6000000238419,37,1,460.2999999523163,0,1,experiment,NA,NA,1,0.7,0.3,2,3,100,3,NA
fcp-trial,134,663669,0.0-109.0-0.0,voc_e2,12186,"[{""event"":""fullscreenenter"",""trial"":1,""time"":1235}]",NA,NA,NA,NA,NA,2,#3386FF,#D89F1C,0,0,0,38,1,941.5999999046326,39,0,1193,0,1,experiment,NA,NA,2,0.5,0.5,5,4,101,3,NA
fcp-trial,135,666101,0.0-110.0-0.0,voc_e2,12186,"[{""event"":""fullscreenenter"",""trial"":1,""time"":1235}]",NA,NA,NA,NA,NA,0,#FA92F8,#1CD855,0,10,1,38,1,534.7999999523163,37,1,393.39999997615814,0,1,experiment,NA,NA,1,0.7,0.3,2,3,102,3,NA
fcp-trial,136,668835,0.0-111.0-0.0,voc_e2,12186,"[{""event"":""fullscreenenter"",""trial"":1,""time"":1235}]",NA,NA,NA,NA,NA,2,#741CD8,#D8271C,0,10,0,38,1,634.0999999046326,39,0,595.6000000238419,10,1,experiment,NA,NA,0,0.1,0.9,1,0,103,3,NA
fcp-trial,137,671619,0.0-112.0-0.0,voc_e2,12186,"[{""event"":""fullscreenenter"",""trial"":1,""time"":1235}]",NA,NA,NA,NA,NA,4,#741CD8,#D8271C,0,10,0,38,1,676.1000000238419,39,0,606.3000000715256,10,1,experiment,NA,NA,0,0.1,0.9,1,0,104,3,NA
fcp-trial,138,674076,0.0-113.0-0.0,voc_e2,12186,"[{""event"":""fullscreenenter"",""trial"":1,""time"":1235}]",NA,NA,NA,NA,NA,0,#D89F1C,#3386FF,0,0,1,38,1,481.59999990463257,37,1,471.7999999523163,0,1,experiment,NA,NA,2,0.5,0.5,4,5,105,3,NA
audio-instructions,139,680636,0.0-114.0,voc_e2,12186,"[{""event"":""fullscreenenter"",""trial"":1,""time"":1235}]",NA,1731.1999999284744,static/audio/pause.wav,NA,0,NA,NA,NA,NA,NA,NA,NA,NA,NA,NA,NA,NA,NA,NA,NA,NA,NA,NA,NA,NA,NA,NA,NA,NA,NA
fcp-trial,140,684695,0.0-115.0-0.0,voc_e2,12186,"[{""event"":""fullscreenenter"",""trial"":1,""time"":1235}]",NA,NA,NA,NA,NA,6,#3386FF,#D89F1C,0,0,0,38,1,1277.8999999761581,37,1,1262.1999999284744,0,0,experiment,NA,NA,2,0.5,0.5,5,4,106,3,NA
fcp-trial,141,687278,0.0-116.0-0.0,voc_e2,12186,"[{""event"":""fullscreenenter"",""trial"":1,""time"":1235}]",NA,NA,NA,NA,NA,2,#FA92F8,#1CD855,0,0,1,38,1,735.8999999761581,37,1,336.5,0,1,experiment,NA,NA,1,0.7,0.3,2,3,107,3,NA
fcp-trial,142,689828,0.0-117.0-0.0,voc_e2,12186,"[{""event"":""fullscreenenter"",""trial"":1,""time"":1235}]",NA,NA,NA,NA,NA,3,#1CD855,#FA92F8,0,10,0,38,1,660.6000000238419,39,0,379.2999999523163,10,1,experiment,NA,NA,1,0.3,0.7,3,2,108,3,NA
fcp-trial,143,692870,0.0-118.0-0.0,voc_e2,12186,"[{""event"":""fullscreenenter"",""trial"":1,""time"":1235}]",NA,NA,NA,NA,NA,5,#3386FF,#D89F1C,10,10,0,38,1,541.8999999761581,37,1,991,10,0,experiment,NA,NA,2,0.5,0.5,5,4,109,3,NA
fcp-trial,144,696027,0.0-119.0-0.0,voc_e2,12186,"[{""event"":""fullscreenenter"",""trial"":1,""time"":1235}]",NA,NA,NA,NA,NA,6,#D8271C,#741CD8,10,0,1,38,1,674.6000000238419,37,1,967.5999999046326,10,1,experiment,NA,NA,0,0.9,0.1,0,1,110,3,NA
fcp-trial,145,698389,0.0-120.0-0.0,voc_e2,12186,"[{""event"":""fullscreenenter"",""trial"":1,""time"":1235}]",NA,NA,NA,NA,NA,1,#FA92F8,#1CD855,10,0,1,38,1,427.39999997615814,37,1,423,10,1,experiment,NA,NA,1,0.7,0.3,2,3,111,3,NA
fcp-trial,146,701333,0.0-121.0-0.0,voc_e2,12186,"[{""event"":""fullscreenenter"",""trial"":1,""time"":1235}]",NA,NA,NA,NA,NA,0,#3386FF,#D89F1C,10,0,0,38,1,438.2000000476837,37,1,987.7000000476836,10,0,experiment,NA,NA,2,0.5,0.5,5,4,112,3,NA
fcp-trial,147,703732,0.0-122.0-0.0,voc_e2,12186,"[{""event"":""fullscreenenter"",""trial"":1,""time"":1235}]",NA,NA,NA,NA,NA,6,#1CD855,#FA92F8,0,10,0,38,1,509.7999999523163,39,0,382.2000000476837,10,1,experiment,NA,NA,1,0.3,0.7,3,2,113,3,NA
fcp-trial,148,706388,0.0-123.0-0.0,voc_e2,12186,"[{""event"":""fullscreenenter"",""trial"":1,""time"":1235}]",NA,NA,NA,NA,NA,2,#D8271C,#741CD8,10,0,1,38,1,444.39999997615814,37,1,706.5999999046326,10,1,experiment,NA,NA,0,0.9,0.1,0,1,114,3,NA
fcp-trial,149,709080,0.0-124.0-0.0,voc_e2,12186,"[{""event"":""fullscreenenter"",""trial"":1,""time"":1235}]",NA,NA,NA,NA,NA,4,#741CD8,#D8271C,0,10,0,38,1,806.5,39,0,372.60000002384186,10,1,experiment,NA,NA,0,0.1,0.9,1,0,115,3,NA
fcp-trial,150,712660,0.0-125.0-0.0,voc_e2,12186,"[{""event"":""fullscreenenter"",""trial"":1,""time"":1235}]",NA,NA,NA,NA,NA,1,#3386FF,#D89F1C,10,10,0,38,1,649.2999999523163,37,1,1427.5,10,0,experiment,NA,NA,2,0.5,0.5,5,4,116,3,NA
fcp-trial,151,715669,0.0-126.0-0.0,voc_e2,12186,"[{""event"":""fullscreenenter"",""trial"":1,""time"":1235}]",NA,NA,NA,NA,NA,1,#741CD8,#D8271C,0,10,0,38,1,855.3000000715256,39,0,648.5,10,1,experiment,NA,NA,0,0.1,0.9,1,0,117,3,NA
fcp-trial,152,718173,0.0-127.0-0.0,voc_e2,12186,"[{""event"":""fullscreenenter"",""trial"":1,""time"":1235}]",NA,NA,NA,NA,NA,4,#1CD855,#FA92F8,0,10,0,38,1,592.8999999761581,39,0,408,10,1,experiment,NA,NA,1,0.3,0.7,3,2,118,3,NA
fcp-trial,153,721178,0.0-128.0-0.0,voc_e2,12186,"[{""event"":""fullscreenenter"",""trial"":1,""time"":1235}]",NA,NA,NA,NA,NA,3,#741CD8,#D8271C,0,10,0,38,1,706.5,39,0,793,10,1,experiment,NA,NA,0,0.1,0.9,1,0,119,3,NA
fcp-trial,154,723532,0.0-129.0-0.0,voc_e2,12186,"[{""event"":""fullscreenenter"",""trial"":1,""time"":1235}]",NA,NA,NA,NA,NA,5,#741CD8,#D8271C,0,10,0,38,1,466.5,39,0,383.40000009536743,10,1,experiment,NA,NA,0,0.1,0.9,1,0,120,3,NA
fcp-trial,155,726786,0.0-130.0-0.0,voc_e2,12186,"[{""event"":""fullscreenenter"",""trial"":1,""time"":1235}]",NA,NA,NA,NA,NA,4,#3386FF,#D89F1C,0,10,0,38,1,842.5999999046326,37,1,908.0999999046326,0,0,experiment,NA,NA,2,0.5,0.5,5,4,121,3,NA
fcp-trial,156,729198,0.0-131.0-0.0,voc_e2,12186,"[{""event"":""fullscreenenter"",""trial"":1,""time"":1235}]",NA,NA,NA,NA,NA,2,#3386FF,#D89F1C,0,10,0,38,1,537,37,1,371,0,0,experiment,NA,NA,2,0.5,0.5,5,4,122,3,NA
fcp-trial,157,731876,0.0-132.0-0.0,voc_e2,12186,"[{""event"":""fullscreenenter"",""trial"":1,""time"":1235}]",NA,NA,NA,NA,NA,5,#FA92F8,#1CD855,10,0,1,38,1,467.6999999284744,37,1,704.5,10,1,experiment,NA,NA,1,0.7,0.3,2,3,123,3,NA
fcp-trial,158,734275,0.0-133.0-0.0,voc_e2,12186,"[{""event"":""fullscreenenter"",""trial"":1,""time"":1235}]",NA,NA,NA,NA,NA,0,#FA92F8,#1CD855,10,10,1,38,1,456,37,1,438.39999997615814,10,1,experiment,NA,NA,1,0.7,0.3,2,3,124,3,NA
fcp-trial,159,737149,0.0-134.0-0.0,voc_e2,12186,"[{""event"":""fullscreenenter"",""trial"":1,""time"":1235}]",NA,NA,NA,NA,NA,0,#741CD8,#D8271C,10,10,0,38,1,375.40000009536743,39,0,988.7999999523164,10,1,experiment,NA,NA,0,0.1,0.9,1,0,125,3,NA
fcp-trial,160,739934,0.0-135.0-0.0,voc_e2,12186,"[{""event"":""fullscreenenter"",""trial"":1,""time"":1235}]",NA,NA,NA,NA,NA,3,#3386FF,#D89F1C,10,10,0,38,1,436.10000002384186,37,1,845.9000000953674,10,0,experiment,NA,NA,2,0.5,0.5,5,4,126,3,NA
fcp-trial,161,743348,0.0-136.0-0.0,voc_e2,12186,"[{""event"":""fullscreenenter"",""trial"":1,""time"":1235}]",NA,NA,NA,NA,NA,0,#741CD8,#D8271C,0,10,0,38,1,558.6000000238419,39,0,1350.399999976158,10,1,experiment,NA,NA,0,0.1,0.9,1,0,127,3,NA
fcp-trial,162,746675,0.0-137.0-0.0,voc_e2,12186,"[{""event"":""fullscreenenter"",""trial"":1,""time"":1235}]",NA,NA,NA,NA,NA,6,#FA92F8,#1CD855,10,0,1,38,1,530,37,1,1292.4000000953674,10,1,experiment,NA,NA,1,0.7,0.3,2,3,128,3,NA
fcp-trial,163,749472,0.0-138.0-0.0,voc_e2,12186,"[{""event"":""fullscreenenter"",""trial"":1,""time"":1235}]",NA,NA,NA,NA,NA,3,#1CD855,#FA92F8,10,10,0,38,1,650.6000000238419,39,0,641.6000000238419,10,1,experiment,NA,NA,1,0.3,0.7,3,2,129,3,NA
fcp-trial,164,754127,0.0-139.0-0.0,voc_e2,12186,"[{""event"":""fullscreenenter"",""trial"":1,""time"":1235}]",NA,NA,NA,NA,NA,1,#741CD8,#D8271C,0,10,0,38,1,1347.1000000238419,37,1,1801.7999999523165,0,0,experiment,NA,NA,0,0.1,0.9,1,0,130,3,NA
fcp-trial,165,757214,0.0-140.0-0.0,voc_e2,12186,"[{""event"":""fullscreenenter"",""trial"":1,""time"":1235}]",NA,NA,NA,NA,NA,6,#D89F1C,#3386FF,0,0,1,38,1,532.7000000476837,39,0,1050.2999999523165,0,0,experiment,NA,NA,2,0.5,0.5,4,5,131,3,NA
fcp-trial,166,759657,0.0-141.0-0.0,voc_e2,12186,"[{""event"":""fullscreenenter"",""trial"":1,""time"":1235}]",NA,NA,NA,NA,NA,4,#1CD855,#FA92F8,10,10,0,38,1,596.4000000953674,39,0,340.60000002384186,10,1,experiment,NA,NA,1,0.3,0.7,3,2,132,3,NA
fcp-trial,167,763001,0.0-142.0-0.0,voc_e2,12186,"[{""event"":""fullscreenenter"",""trial"":1,""time"":1235}]",NA,NA,NA,NA,NA,4,#D89F1C,#3386FF,0,10,1,38,1,456.6999999284744,39,0,1380.4000000953674,10,0,experiment,NA,NA,2,0.5,0.5,4,5,133,3,NA
fcp-trial,168,765951,0.0-143.0-0.0,voc_e2,12186,"[{""event"":""fullscreenenter"",""trial"":1,""time"":1235}]",NA,NA,NA,NA,NA,6,#D8271C,#741CD8,10,0,1,38,1,522.8999999761581,37,1,923.100000023842,10,1,experiment,NA,NA,0,0.9,0.1,0,1,134,3,NA
fcp-trial,169,769560,0.0-144.0-0.0,voc_e2,12186,"[{""event"":""fullscreenenter"",""trial"":1,""time"":1235}]",NA,NA,NA,NA,NA,5,#3386FF,#D89F1C,10,0,0,38,1,426.5,39,0,1677.5,0,1,experiment,NA,NA,2,0.5,0.5,5,4,135,3,NA
fcp-trial,170,771982,0.0-145.0-0.0,voc_e2,12186,"[{""event"":""fullscreenenter"",""trial"":1,""time"":1235}]",NA,NA,NA,NA,NA,1,#D89F1C,#3386FF,10,10,1,38,1,414.89999997615814,39,0,502.7999999523163,10,0,experiment,NA,NA,2,0.5,0.5,4,5,136,4,NA
fcp-trial,171,774400,0.0-146.0-0.0,voc_e2,12186,"[{""event"":""fullscreenenter"",""trial"":1,""time"":1235}]",NA,NA,NA,NA,NA,1,#1CD855,#FA92F8,0,10,0,38,1,471.7000000476837,37,1,441.89999997615814,0,0,experiment,NA,NA,1,0.3,0.7,3,2,137,4,NA
fcp-trial,172,777471,0.0-147.0-0.0,voc_e2,12186,"[{""event"":""fullscreenenter"",""trial"":1,""time"":1235}]",NA,NA,NA,NA,NA,3,#D8271C,#741CD8,10,0,1,38,1,322.2000000476837,37,1,1243.9000000953674,10,1,experiment,NA,NA,0,0.9,0.1,0,1,138,4,NA
fcp-trial,173,780378,0.0-148.0-0.0,voc_e2,12186,"[{""event"":""fullscreenenter"",""trial"":1,""time"":1235}]",NA,NA,NA,NA,NA,3,#D89F1C,#3386FF,0,10,1,38,1,636.6000000238419,39,0,766.6000000238419,10,0,experiment,NA,NA,2,0.5,0.5,4,5,139,4,NA
fcp-trial,174,783202,0.0-149.0-0.0,voc_e2,12186,"[{""event"":""fullscreenenter"",""trial"":1,""time"":1235}]",NA,NA,NA,NA,NA,0,#3386FF,#D89F1C,0,0,0,38,1,447,37,1,872.5,0,0,experiment,NA,NA,2,0.5,0.5,5,4,140,4,NA
fcp-trial,175,786256,0.0-150.0-0.0,voc_e2,12186,"[{""event"":""fullscreenenter"",""trial"":1,""time"":1235}]",NA,NA,NA,NA,NA,5,#741CD8,#D8271C,10,10,0,38,1,392.89999997615814,39,0,1155.3000000715256,10,1,experiment,NA,NA,0,0.1,0.9,1,0,141,4,NA
fcp-trial,176,789778,0.0-151.0-0.0,voc_e2,12186,"[{""event"":""fullscreenenter"",""trial"":1,""time"":1235}]",NA,NA,NA,NA,NA,2,#FA92F8,#1CD855,0,0,1,38,1,1100.1000000238419,37,1,914.399999976158,0,1,experiment,NA,NA,1,0.7,0.3,2,3,142,4,NA
fcp-trial,177,792595,0.0-152.0-0.0,voc_e2,12186,"[{""event"":""fullscreenenter"",""trial"":1,""time"":1235}]",NA,NA,NA,NA,NA,4,#D8271C,#741CD8,10,0,1,38,1,428.5,37,1,885.8000000715256,10,1,experiment,NA,NA,0,0.9,0.1,0,1,143,4,NA
fcp-trial,178,795696,0.0-153.0-0.0,voc_e2,12186,"[{""event"":""fullscreenenter"",""trial"":1,""time"":1235}]",NA,NA,NA,NA,NA,2,#3386FF,#D89F1C,10,10,0,38,1,373.7000000476837,37,1,1223,10,0,experiment,NA,NA,2,0.5,0.5,5,4,144,4,NA
fcp-trial,179,798307,0.0-154.0-0.0,voc_e2,12186,"[{""event"":""fullscreenenter"",""trial"":1,""time"":1235}]",NA,NA,NA,NA,NA,0,#1CD855,#FA92F8,10,10,0,38,1,628.9000000953674,39,0,478.5,10,1,experiment,NA,NA,1,0.3,0.7,3,2,145,4,NA
fcp-trial,180,801279,0.0-155.0-0.0,voc_e2,12186,"[{""event"":""fullscreenenter"",""trial"":1,""time"":1235}]",NA,NA,NA,NA,NA,2,#741CD8,#D8271C,0,10,0,38,1,620.5,39,0,843.2999999523163,10,1,experiment,NA,NA,0,0.1,0.9,1,0,146,4,NA
fcp-trial,181,803926,0.0-156.0-0.0,voc_e2,12186,"[{""event"":""fullscreenenter"",""trial"":1,""time"":1235}]",NA,NA,NA,NA,NA,5,#1CD855,#FA92F8,0,10,0,38,1,581.7999999523163,39,0,562.1000000238419,10,1,experiment,NA,NA,1,0.3,0.7,3,2,147,4,NA
fcp-trial,182,807375,0.0-157.0-0.0,voc_e2,12186,"[{""event"":""fullscreenenter"",""trial"":1,""time"":1235}]",NA,NA,NA,NA,NA,3,#D89F1C,#3386FF,0,10,1,38,1,605,37,1,1340.100000023842,0,1,experiment,NA,NA,2,0.5,0.5,4,5,148,4,NA
fcp-trial,183,809847,0.0-158.0-0.0,voc_e2,12186,"[{""event"":""fullscreenenter"",""trial"":1,""time"":1235}]",NA,NA,NA,NA,NA,3,#FA92F8,#1CD855,10,0,1,38,1,396.7000000476837,37,1,571.7000000476837,10,1,experiment,NA,NA,1,0.7,0.3,2,3,149,4,NA
fcp-trial,184,812205,0.0-159.0-0.0,voc_e2,12186,"[{""event"":""fullscreenenter"",""trial"":1,""time"":1235}]",NA,NA,NA,NA,NA,1,#FA92F8,#1CD855,10,0,1,38,1,431.60000002384186,37,1,421.39999997615814,10,1,experiment,NA,NA,1,0.7,0.3,2,3,150,4,NA
fcp-trial,185,815714,0.0-160.0-0.0,voc_e2,12186,"[{""event"":""fullscreenenter"",""trial"":1,""time"":1235}]",NA,NA,NA,NA,NA,5,#741CD8,#D8271C,0,10,0,38,1,568.7999999523163,39,0,1434.600000023842,10,1,experiment,NA,NA,0,0.1,0.9,1,0,151,4,NA
fcp-trial,186,818389,0.0-161.0-0.0,voc_e2,12186,"[{""event"":""fullscreenenter"",""trial"":1,""time"":1235}]",NA,NA,NA,NA,NA,5,#FA92F8,#1CD855,10,0,1,38,1,543.3000000715256,37,1,629.2000000476837,10,1,experiment,NA,NA,1,0.7,0.3,2,3,152,4,NA
fcp-trial,187,821658,0.0-162.0-0.0,voc_e2,12186,"[{""event"":""fullscreenenter"",""trial"":1,""time"":1235}]",NA,NA,NA,NA,NA,6,#D89F1C,#3386FF,0,10,1,38,1,444.2999999523163,39,0,1321,10,0,experiment,NA,NA,2,0.5,0.5,4,5,153,4,NA
fcp-trial,188,824282,0.0-163.0-0.0,voc_e2,12186,"[{""event"":""fullscreenenter"",""trial"":1,""time"":1235}]",NA,NA,NA,NA,NA,2,#1CD855,#FA92F8,10,10,0,38,1,379.6999999284744,39,0,740.8999999761581,10,1,experiment,NA,NA,1,0.3,0.7,3,2,154,4,NA
fcp-trial,189,826816,0.0-164.0-0.0,voc_e2,12186,"[{""event"":""fullscreenenter"",""trial"":1,""time"":1235}]",NA,NA,NA,NA,NA,4,#741CD8,#D8271C,0,10,0,38,1,574.2000000476837,39,0,455.89999997615814,10,1,experiment,NA,NA,0,0.1,0.9,1,0,155,4,NA
fcp-trial,190,829589,0.0-165.0-0.0,voc_e2,12186,"[{""event"":""fullscreenenter"",""trial"":1,""time"":1235}]",NA,NA,NA,NA,NA,4,#D89F1C,#3386FF,10,0,1,38,1,571.8999999761581,39,0,696.5999999046326,0,0,experiment,NA,NA,2,0.5,0.5,4,5,156,4,NA
fcp-trial,191,831954,0.0-166.0-0.0,voc_e2,12186,"[{""event"":""fullscreenenter"",""trial"":1,""time"":1235}]",NA,NA,NA,NA,NA,4,#FA92F8,#1CD855,0,10,1,38,1,464.89999997615814,37,1,396.60000002384186,0,1,experiment,NA,NA,1,0.7,0.3,2,3,157,4,NA
fcp-trial,192,834789,0.0-167.0-0.0,voc_e2,12186,"[{""event"":""fullscreenenter"",""trial"":1,""time"":1235}]",NA,NA,NA,NA,NA,6,#D8271C,#741CD8,0,10,1,38,1,527.6000000238419,37,1,802.6000000238419,0,1,experiment,NA,NA,0,0.9,0.1,0,1,158,4,NA
fcp-trial,193,837066,0.0-168.0-0.0,voc_e2,12186,"[{""event"":""fullscreenenter"",""trial"":1,""time"":1235}]",NA,NA,NA,NA,NA,0,#D8271C,#741CD8,10,0,1,38,1,392.2999999523163,37,1,382.10000002384186,10,1,experiment,NA,NA,0,0.9,0.1,0,1,159,4,NA
fcp-trial,194,839589,0.0-169.0-0.0,voc_e2,12186,"[{""event"":""fullscreenenter"",""trial"":1,""time"":1235}]",NA,NA,NA,NA,NA,0,#1CD855,#FA92F8,10,10,0,38,1,499.40000009536743,39,0,519.2999999523163,10,1,experiment,NA,NA,1,0.3,0.7,3,2,160,4,NA
fcp-trial,195,843636,0.0-170.0-0.0,voc_e2,12186,"[{""event"":""fullscreenenter"",""trial"":1,""time"":1235}]",NA,NA,NA,NA,NA,5,#D89F1C,#3386FF,0,0,1,38,1,563.1000000238419,39,0,1979.899999976158,0,0,experiment,NA,NA,2,0.5,0.5,4,5,161,4,NA
fcp-trial,196,847793,0.0-171.0-0.0,voc_e2,12186,"[{""event"":""fullscreenenter"",""trial"":1,""time"":1235}]",NA,NA,NA,NA,NA,2,#D8271C,#741CD8,10,0,1,38,1,571.5,37,1,2077.099999904633,10,1,experiment,NA,NA,0,0.9,0.1,0,1,162,4,NA
fcp-trial,197,850969,0.0-172.0-0.0,voc_e2,12186,"[{""event"":""fullscreenenter"",""trial"":1,""time"":1235}]",NA,NA,NA,NA,NA,3,#D8271C,#741CD8,10,0,1,38,1,1006.6000000238419,37,1,666.2999999523163,10,1,experiment,NA,NA,0,0.9,0.1,0,1,163,4,NA
fcp-trial,198,853838,0.0-173.0-0.0,voc_e2,12186,"[{""event"":""fullscreenenter"",""trial"":1,""time"":1235}]",NA,NA,NA,NA,NA,2,#D89F1C,#3386FF,0,10,1,38,1,659.5,39,0,702.6000000238419,10,0,experiment,NA,NA,2,0.5,0.5,4,5,164,4,NA
fcp-trial,199,856450,0.0-174.0-0.0,voc_e2,12186,"[{""event"":""fullscreenenter"",""trial"":1,""time"":1235}]",NA,NA,NA,NA,NA,6,#1CD855,#FA92F8,0,0,0,38,1,584,39,0,523.2000000476837,0,1,experiment,NA,NA,1,0.3,0.7,3,2,165,4,NA
fcp-trial,200,858893,0.0-175.0-0.0,voc_e2,12186,"[{""event"":""fullscreenenter"",""trial"":1,""time"":1235}]",NA,NA,NA,NA,NA,1,#D89F1C,#3386FF,0,10,1,38,1,368,39,0,571.5,10,0,experiment,NA,NA,2,0.5,0.5,4,5,166,4,NA
fcp-trial,201,861969,0.0-176.0-0.0,voc_e2,12186,"[{""event"":""fullscreenenter"",""trial"":1,""time"":1235}]",NA,NA,NA,NA,NA,0,#D89F1C,#3386FF,10,0,1,38,1,572.1999999284744,39,0,1000.1999999284744,0,0,experiment,NA,NA,2,0.5,0.5,4,5,167,4,NA
fcp-trial,202,864419,0.0-177.0-0.0,voc_e2,12186,"[{""event"":""fullscreenenter"",""trial"":1,""time"":1235}]",NA,NA,NA,NA,NA,1,#D8271C,#741CD8,10,0,1,38,1,399.60000002384186,37,1,545.2999999523163,10,1,experiment,NA,NA,0,0.9,0.1,0,1,168,4,NA
fcp-trial,203,867029,0.0-178.0-0.0,voc_e2,12186,"[{""event"":""fullscreenenter"",""trial"":1,""time"":1235}]",NA,NA,NA,NA,NA,4,#1CD855,#FA92F8,10,10,0,38,1,420.2999999523163,39,0,684.5,10,1,experiment,NA,NA,1,0.3,0.7,3,2,169,4,NA
fcp-trial,204,870017,0.0-179.0-0.0,voc_e2,12186,"[{""event"":""fullscreenenter"",""trial"":1,""time"":1235}]",NA,NA,NA,NA,NA,2,#1CD855,#FA92F8,0,0,0,38,1,404.10000002384186,39,0,1080.1999999284744,0,1,experiment,NA,NA,1,0.3,0.7,3,2,170,4,NA
fcp-trial,205,872899,0.0-180.0-0.0,voc_e2,12186,"[{""event"":""fullscreenenter"",""trial"":1,""time"":1235}]",NA,NA,NA,NA,NA,3,#D89F1C,#3386FF,10,0,1,38,1,413,39,0,964.7000000476836,0,0,experiment,NA,NA,2,0.5,0.5,4,5,171,4,NA
fcp-trial,206,875467,0.0-181.0-0.0,voc_e2,12186,"[{""event"":""fullscreenenter"",""trial"":1,""time"":1235}]",NA,NA,NA,NA,NA,6,#FA92F8,#1CD855,10,0,1,38,1,411,37,1,651.3999999761581,10,1,experiment,NA,NA,1,0.7,0.3,2,3,172,4,NA
fcp-trial,207,878381,0.0-182.0-0.0,voc_e2,12186,"[{""event"":""fullscreenenter"",""trial"":1,""time"":1235}]",NA,NA,NA,NA,NA,1,#D8271C,#741CD8,10,0,1,38,1,424,37,1,986,10,1,experiment,NA,NA,0,0.9,0.1,0,1,173,4,NA
fcp-trial,208,881667,0.0-183.0-0.0,voc_e2,12186,"[{""event"":""fullscreenenter"",""trial"":1,""time"":1235}]",NA,NA,NA,NA,NA,4,#3386FF,#D89F1C,0,0,0,38,1,438.09999990463257,37,1,1343.399999976158,0,0,experiment,NA,NA,2,0.5,0.5,5,4,174,4,NA
fcp-trial,209,884534,0.0-184.0-0.0,voc_e2,12186,"[{""event"":""fullscreenenter"",""trial"":1,""time"":1235}]",NA,NA,NA,NA,NA,5,#1CD855,#FA92F8,10,0,0,38,1,587.9000000953674,39,0,773.8000000715256,0,1,experiment,NA,NA,1,0.3,0.7,3,2,175,4,NA
fcp-trial,210,887132,0.0-185.0-0.0,voc_e2,12186,"[{""event"":""fullscreenenter"",""trial"":1,""time"":1235}]",NA,NA,NA,NA,NA,0,#3386FF,#D89F1C,10,0,0,38,1,409.2000000476837,37,1,683.6000000238419,10,0,experiment,NA,NA,2,0.5,0.5,5,4,176,4,NA
fcp-trial,211,889571,0.0-186.0-0.0,voc_e2,12186,"[{""event"":""fullscreenenter"",""trial"":1,""time"":1235}]",NA,NA,NA,NA,NA,4,#D8271C,#741CD8,10,10,1,38,1,522.6000000238419,37,1,412.8000000715256,10,1,experiment,NA,NA,0,0.9,0.1,0,1,177,4,NA
fcp-trial,212,892471,0.0-187.0-0.0,voc_e2,12186,"[{""event"":""fullscreenenter"",""trial"":1,""time"":1235}]",NA,NA,NA,NA,NA,5,#D89F1C,#3386FF,0,10,1,38,1,468.2999999523163,39,0,921,10,0,experiment,NA,NA,2,0.5,0.5,4,5,178,4,NA
fcp-trial,213,894982,0.0-188.0-0.0,voc_e2,12186,"[{""event"":""fullscreenenter"",""trial"":1,""time"":1235}]",NA,NA,NA,NA,NA,6,#3386FF,#D89F1C,0,0,0,38,1,432.90000009536743,37,1,573.8999999761581,0,0,experiment,NA,NA,2,0.5,0.5,5,4,179,4,NA
fcp-trial,214,897487,0.0-189.0-0.0,voc_e2,12186,"[{""event"":""fullscreenenter"",""trial"":1,""time"":1235}]",NA,NA,NA,NA,NA,1,#1CD855,#FA92F8,0,10,0,38,1,398.3000000715256,39,0,603.2000000476837,10,1,experiment,NA,NA,1,0.3,0.7,3,2,180,4,NA
fcp-trial,215,900047,0.0-190.0-0.0,voc_e2,12186,"[{""event"":""fullscreenenter"",""trial"":1,""time"":1235}]",NA,NA,NA,NA,NA,1,#3386FF,#D89F1C,0,0,0,38,1,498.2000000476837,37,1,556.8999999761581,0,0,experiment,NA,NA,2,0.5,0.5,5,4,181,5,NA
fcp-trial,216,903485,0.0-191.0-0.0,voc_e2,12186,"[{""event"":""fullscreenenter"",""trial"":1,""time"":1235}]",NA,NA,NA,NA,NA,0,#D8271C,#741CD8,10,0,1,38,1,421.6999999284744,37,1,1513.7999999523165,10,1,experiment,NA,NA,0,0.9,0.1,0,1,182,5,NA
fcp-trial,217,906033,0.0-192.0-0.0,voc_e2,12186,"[{""event"":""fullscreenenter"",""trial"":1,""time"":1235}]",NA,NA,NA,NA,NA,3,#741CD8,#D8271C,0,10,0,38,1,433,39,0,609.1999999284744,10,1,experiment,NA,NA,0,0.1,0.9,1,0,183,5,NA
fcp-trial,218,908747,0.0-193.0-0.0,voc_e2,12186,"[{""event"":""fullscreenenter"",""trial"":1,""time"":1235}]",NA,NA,NA,NA,NA,6,#741CD8,#D8271C,0,0,0,38,1,455.10000002384186,39,0,753.5999999046326,0,1,experiment,NA,NA,0,0.1,0.9,1,0,184,5,NA
fcp-trial,219,911580,0.0-194.0-0.0,voc_e2,12186,"[{""event"":""fullscreenenter"",""trial"":1,""time"":1235}]",NA,NA,NA,NA,NA,0,#1CD855,#FA92F8,0,10,0,38,1,606.2999999523163,39,0,722.8999999761581,10,1,experiment,NA,NA,1,0.3,0.7,3,2,185,5,NA
fcp-trial,220,914414,0.0-195.0-0.0,voc_e2,12186,"[{""event"":""fullscreenenter"",""trial"":1,""time"":1235}]",NA,NA,NA,NA,NA,2,#D89F1C,#3386FF,0,10,1,38,1,484.39999997615814,37,1,845.7999999523163,0,1,experiment,NA,NA,2,0.5,0.5,4,5,186,5,NA
fcp-trial,221,917548,0.0-196.0-0.0,voc_e2,12186,"[{""event"":""fullscreenenter"",""trial"":1,""time"":1235}]",NA,NA,NA,NA,NA,5,#D8271C,#741CD8,10,0,1,38,1,491.39999997615814,37,1,1138.7000000476835,10,1,experiment,NA,NA,0,0.9,0.1,0,1,187,5,NA
fcp-trial,222,921528,0.0-197.0-0.0,voc_e2,12186,"[{""event"":""fullscreenenter"",""trial"":1,""time"":1235}]",NA,NA,NA,NA,NA,3,#1CD855,#FA92F8,10,0,0,38,1,1013.7000000476837,39,0,1462.8000000715256,0,1,experiment,NA,NA,1,0.3,0.7,3,2,188,5,NA
fcp-trial,223,924694,0.0-198.0-0.0,voc_e2,12186,"[{""event"":""fullscreenenter"",""trial"":1,""time"":1235}]",NA,NA,NA,NA,NA,2,#D8271C,#741CD8,10,0,1,38,1,552.8999999761581,37,1,1109.600000023842,10,1,experiment,NA,NA,0,0.9,0.1,0,1,189,5,NA
fcp-trial,224,928040,0.0-199.0-0.0,voc_e2,12186,"[{""event"":""fullscreenenter"",""trial"":1,""time"":1235}]",NA,NA,NA,NA,NA,2,#D8271C,#741CD8,10,10,1,38,1,515.3999999761581,37,1,1325.600000023842,10,1,experiment,NA,NA,0,0.9,0.1,0,1,190,5,NA
fcp-trial,225,930866,0.0-200.0-0.0,voc_e2,12186,"[{""event"":""fullscreenenter"",""trial"":1,""time"":1235}]",NA,NA,NA,NA,NA,6,#1CD855,#FA92F8,0,0,0,38,1,631.8000000715256,39,0,690.2000000476837,0,1,experiment,NA,NA,1,0.3,0.7,3,2,191,5,NA
fcp-trial,226,933599,0.0-201.0-0.0,voc_e2,12186,"[{""event"":""fullscreenenter"",""trial"":1,""time"":1235}]",NA,NA,NA,NA,NA,0,#3386FF,#D89F1C,0,10,0,38,1,441.2999999523163,37,1,787,0,0,experiment,NA,NA,2,0.5,0.5,5,4,192,5,NA
fcp-trial,227,935902,0.0-202.0-0.0,voc_e2,12186,"[{""event"":""fullscreenenter"",""trial"":1,""time"":1235}]",NA,NA,NA,NA,NA,1,#D89F1C,#3386FF,0,10,1,38,1,357.60000002384186,39,0,441.10000002384186,10,0,experiment,NA,NA,2,0.5,0.5,4,5,193,5,NA
fcp-trial,228,938426,0.0-203.0-0.0,voc_e2,12186,"[{""event"":""fullscreenenter"",""trial"":1,""time"":1235}]",NA,NA,NA,NA,NA,3,#D89F1C,#3386FF,10,0,1,38,1,508.2999999523163,39,0,513.7000000476837,0,0,experiment,NA,NA,2,0.5,0.5,4,5,194,5,NA
fcp-trial,229,940905,0.0-204.0-0.0,voc_e2,12186,"[{""event"":""fullscreenenter"",""trial"":1,""time"":1235}]",NA,NA,NA,NA,NA,6,#D8271C,#741CD8,10,0,1,38,1,381,37,1,593.2999999523163,10,1,experiment,NA,NA,0,0.9,0.1,0,1,195,5,NA
fcp-trial,230,943274,0.0-205.0-0.0,voc_e2,12186,"[{""event"":""fullscreenenter"",""trial"":1,""time"":1235}]",NA,NA,NA,NA,NA,5,#FA92F8,#1CD855,10,10,1,38,1,314.89999997615814,37,1,550.3999999761581,10,1,experiment,NA,NA,1,0.7,0.3,2,3,196,5,NA
fcp-trial,231,945646,0.0-206.0-0.0,voc_e2,12186,"[{""event"":""fullscreenenter"",""trial"":1,""time"":1235}]",NA,NA,NA,NA,NA,1,#1CD855,#FA92F8,0,10,0,38,1,505.5,39,0,362.7000000476837,10,1,experiment,NA,NA,1,0.3,0.7,3,2,197,5,NA
fcp-trial,232,948672,0.0-207.0-0.0,voc_e2,12186,"[{""event"":""fullscreenenter"",""trial"":1,""time"":1235}]",NA,NA,NA,NA,NA,4,#D89F1C,#3386FF,10,0,1,38,1,497.3000000715256,39,0,1024.2000000476835,0,0,experiment,NA,NA,2,0.5,0.5,4,5,198,5,NA
fcp-trial,233,951261,0.0-208.0-0.0,voc_e2,12186,"[{""event"":""fullscreenenter"",""trial"":1,""time"":1235}]",NA,NA,NA,NA,NA,3,#FA92F8,#1CD855,10,0,1,38,1,432.60000002384186,37,1,653,10,1,experiment,NA,NA,1,0.7,0.3,2,3,199,5,NA
fcp-trial,234,954069,0.0-209.0-0.0,voc_e2,12186,"[{""event"":""fullscreenenter"",""trial"":1,""time"":1235}]",NA,NA,NA,NA,NA,3,#741CD8,#D8271C,0,10,0,38,1,553.8999999761581,39,0,750.3000000715256,10,1,experiment,NA,NA,0,0.1,0.9,1,0,200,5,NA
fcp-trial,235,956895,0.0-210.0-0.0,voc_e2,12186,"[{""event"":""fullscreenenter"",""trial"":1,""time"":1235}]",NA,NA,NA,NA,NA,2,#1CD855,#FA92F8,0,10,0,38,1,765.2999999523163,39,0,557.3999999761581,10,1,experiment,NA,NA,1,0.3,0.7,3,2,201,5,NA
fcp-trial,236,960156,0.0-211.0-0.0,voc_e2,12186,"[{""event"":""fullscreenenter"",""trial"":1,""time"":1235}]",NA,NA,NA,NA,NA,2,#D89F1C,#3386FF,10,10,1,38,1,486.39999997615814,39,0,1269.5,10,0,experiment,NA,NA,2,0.5,0.5,4,5,202,5,NA
fcp-trial,237,963156,0.0-212.0-0.0,voc_e2,12186,"[{""event"":""fullscreenenter"",""trial"":1,""time"":1235}]",NA,NA,NA,NA,NA,0,#741CD8,#D8271C,0,10,0,38,1,510.60000002384186,39,0,985.100000023842,10,1,experiment,NA,NA,0,0.1,0.9,1,0,203,5,NA
fcp-trial,238,965881,0.0-213.0-0.0,voc_e2,12186,"[{""event"":""fullscreenenter"",""trial"":1,""time"":1235}]",NA,NA,NA,NA,NA,1,#741CD8,#D8271C,0,10,0,38,1,624.0999999046326,39,0,597.9000000953674,10,1,experiment,NA,NA,0,0.1,0.9,1,0,204,5,NA
fcp-trial,239,968728,0.0-214.0-0.0,voc_e2,12186,"[{""event"":""fullscreenenter"",""trial"":1,""time"":1235}]",NA,NA,NA,NA,NA,0,#FA92F8,#1CD855,10,10,1,38,1,632.7000000476837,37,1,708.8000000715256,10,1,experiment,NA,NA,1,0.7,0.3,2,3,205,5,NA
fcp-trial,240,972468,0.0-215.0-0.0,voc_e2,12186,"[{""event"":""fullscreenenter"",""trial"":1,""time"":1235}]",NA,NA,NA,NA,NA,6,#3386FF,#D89F1C,10,0,0,38,1,509,37,1,1727,10,0,experiment,NA,NA,2,0.5,0.5,5,4,206,5,NA
fcp-trial,241,975407,0.0-216.0-0.0,voc_e2,12186,"[{""event"":""fullscreenenter"",""trial"":1,""time"":1235}]",NA,NA,NA,NA,NA,5,#D8271C,#741CD8,10,0,1,38,1,523.1999999284744,39,0,913.5,0,0,experiment,NA,NA,0,0.9,0.1,0,1,207,5,NA
fcp-trial,242,978234,0.0-217.0-0.0,voc_e2,12186,"[{""event"":""fullscreenenter"",""trial"":1,""time"":1235}]",NA,NA,NA,NA,NA,5,#3386FF,#D89F1C,10,10,0,38,1,441.3000000715256,37,1,881.7999999523163,10,0,experiment,NA,NA,2,0.5,0.5,5,4,208,5,NA
fcp-trial,243,981970,0.0-218.0-0.0,voc_e2,12186,"[{""event"":""fullscreenenter"",""trial"":1,""time"":1235}]",NA,NA,NA,NA,NA,4,#741CD8,#D8271C,0,10,0,38,1,469.7999999523163,39,0,1761.399999976158,10,1,experiment,NA,NA,0,0.1,0.9,1,0,209,5,NA
fcp-trial,244,984740,0.0-219.0-0.0,voc_e2,12186,"[{""event"":""fullscreenenter"",""trial"":1,""time"":1235}]",NA,NA,NA,NA,NA,4,#FA92F8,#1CD855,10,10,1,38,1,467.2999999523163,39,0,799.1000000238419,10,0,experiment,NA,NA,1,0.7,0.3,2,3,210,5,NA
audio-instructions,245,990281,0.0-220.0,voc_e2,12186,"[{""event"":""fullscreenenter"",""trial"":1,""time"":1235}]",NA,705.7999999523163,static/audio/pause.wav,NA,0,NA,NA,NA,NA,NA,NA,NA,NA,NA,NA,NA,NA,NA,NA,NA,NA,NA,NA,NA,NA,NA,NA,NA,NA,NA
fcp-trial,246,994473,0.0-221.0-0.0,voc_e2,12186,"[{""event"":""fullscreenenter"",""trial"":1,""time"":1235}]",NA,NA,NA,NA,NA,6,#741CD8,#D8271C,0,10,0,38,1,1588.0999999046326,39,0,1088.2999999523165,10,1,experiment,NA,NA,0,0.1,0.9,1,0,211,5,NA
fcp-trial,247,997366,0.0-222.0-0.0,voc_e2,12186,"[{""event"":""fullscreenenter"",""trial"":1,""time"":1235}]",NA,NA,NA,NA,NA,5,#FA92F8,#1CD855,10,10,1,38,1,585.1000000238419,37,1,792.2999999523163,10,1,experiment,NA,NA,1,0.7,0.3,2,3,212,5,NA
fcp-trial,248,999633,0.0-223.0-0.0,voc_e2,12186,"[{""event"":""fullscreenenter"",""trial"":1,""time"":1235}]",NA,NA,NA,NA,NA,6,#FA92F8,#1CD855,10,10,1,38,1,339.3000000715256,37,1,405.09999990463257,10,1,experiment,NA,NA,1,0.7,0.3,2,3,213,5,NA
fcp-trial,249,1003916,0.0-224.0-0.0,voc_e2,12186,"[{""event"":""fullscreenenter"",""trial"":1,""time"":1235}]",NA,NA,NA,NA,NA,6,#D89F1C,#3386FF,10,10,1,38,1,441.7999999523163,39,0,2332.2000000476837,10,0,experiment,NA,NA,2,0.5,0.5,4,5,214,5,NA
fcp-trial,250,1006282,0.0-225.0-0.0,voc_e2,12186,"[{""event"":""fullscreenenter"",""trial"":1,""time"":1235}]",NA,NA,NA,NA,NA,0,#D8271C,#741CD8,10,10,1,38,1,335.89999997615814,37,1,507,10,1,experiment,NA,NA,0,0.9,0.1,0,1,215,5,NA
fcp-trial,251,1010334,0.0-226.0-0.0,voc_e2,12186,"[{""event"":""fullscreenenter"",""trial"":1,""time"":1235}]",NA,NA,NA,NA,NA,4,#3386FF,#D89F1C,0,0,0,38,1,460.89999997615814,37,1,2085.2999999523163,0,0,experiment,NA,NA,2,0.5,0.5,5,4,216,5,NA
fcp-trial,252,1013150,0.0-227.0-0.0,voc_e2,12186,"[{""event"":""fullscreenenter"",""trial"":1,""time"":1235}]",NA,NA,NA,NA,NA,3,#FA92F8,#1CD855,10,0,1,38,1,535.2999999523163,37,1,769.2000000476837,10,1,experiment,NA,NA,1,0.7,0.3,2,3,217,5,NA
fcp-trial,253,1015865,0.0-228.0-0.0,voc_e2,12186,"[{""event"":""fullscreenenter"",""trial"":1,""time"":1235}]",NA,NA,NA,NA,NA,2,#741CD8,#D8271C,0,0,0,38,1,501.5,39,0,705.6999999284744,0,1,experiment,NA,NA,0,0.1,0.9,1,0,218,5,NA
fcp-trial,254,1018894,0.0-229.0-0.0,voc_e2,12186,"[{""event"":""fullscreenenter"",""trial"":1,""time"":1235}]",NA,NA,NA,NA,NA,0,#3386FF,#D89F1C,0,0,0,38,1,525.4000000953674,37,1,984.7000000476836,0,0,experiment,NA,NA,2,0.5,0.5,5,4,219,5,NA
fcp-trial,255,1021205,0.0-230.0-0.0,voc_e2,12186,"[{""event"":""fullscreenenter"",""trial"":1,""time"":1235}]",NA,NA,NA,NA,NA,2,#FA92F8,#1CD855,0,0,1,38,1,428.39999997615814,37,1,379.2000000476837,0,1,experiment,NA,NA,1,0.7,0.3,2,3,220,5,NA
fcp-trial,256,1023979,0.0-231.0-0.0,voc_e2,12186,"[{""event"":""fullscreenenter"",""trial"":1,""time"":1235}]",NA,NA,NA,NA,NA,3,#741CD8,#D8271C,0,10,0,38,1,329.1999999284744,37,1,940.899999976158,0,0,experiment,NA,NA,0,0.1,0.9,1,0,221,5,NA
fcp-trial,257,1026413,0.0-232.0-0.0,voc_e2,12186,"[{""event"":""fullscreenenter"",""trial"":1,""time"":1235}]",NA,NA,NA,NA,NA,0,#1CD855,#FA92F8,0,10,0,38,1,313.5,39,0,615.7999999523163,10,1,experiment,NA,NA,1,0.3,0.7,3,2,222,5,NA
fcp-trial,258,1028817,0.0-233.0-0.0,voc_e2,12186,"[{""event"":""fullscreenenter"",""trial"":1,""time"":1235}]",NA,NA,NA,NA,NA,2,#3386FF,#D89F1C,10,0,0,38,1,377.60000002384186,37,1,521,10,0,experiment,NA,NA,2,0.5,0.5,5,4,223,5,NA
fcp-trial,259,1031274,0.0-234.0-0.0,voc_e2,12186,"[{""event"":""fullscreenenter"",""trial"":1,""time"":1235}]",NA,NA,NA,NA,NA,4,#FA92F8,#1CD855,0,0,1,38,1,259.7000000476837,37,1,693.5,0,1,experiment,NA,NA,1,0.7,0.3,2,3,224,5,NA
fcp-trial,260,1034159,0.0-235.0-0.0,voc_e2,12186,"[{""event"":""fullscreenenter"",""trial"":1,""time"":1235}]",NA,NA,NA,NA,NA,4,#741CD8,#D8271C,0,10,0,38,1,567.8999999761581,39,0,813.7999999523163,10,1,experiment,NA,NA,0,0.1,0.9,1,0,225,5,NA
fcp-trial,261,1036914,0.0-236.0-0.0,voc_e2,12186,"[{""event"":""fullscreenenter"",""trial"":1,""time"":1235}]",NA,NA,NA,NA,NA,1,#D8271C,#741CD8,10,0,1,38,1,576.2000000476837,37,1,674.5,10,1,experiment,NA,NA,0,0.9,0.1,0,1,226,6,NA
fcp-trial,262,1039633,0.0-237.0-0.0,voc_e2,12186,"[{""event"":""fullscreenenter"",""trial"":1,""time"":1235}]",NA,NA,NA,NA,NA,1,#FA92F8,#1CD855,0,0,1,38,1,737.8999999761581,37,1,475.60000002384186,0,1,experiment,NA,NA,1,0.7,0.3,2,3,227,6,NA
fcp-trial,263,1048343,0.0-238.0-0.0,voc_e2,12186,"[{""event"":""fullscreenenter"",""trial"":1,""time"":1235}]",NA,NA,NA,NA,NA,3,#3386FF,#D89F1C,10,0,0,38,1,5805.600000023842,37,1,1401.2999999523165,10,0,experiment,NA,NA,2,0.5,0.5,5,4,228,6,NA
fcp-trial,264,1050893,0.0-239.0-0.0,voc_e2,12186,"[{""event"":""fullscreenenter"",""trial"":1,""time"":1235}]",NA,NA,NA,NA,NA,1,#D89F1C,#3386FF,10,0,1,38,1,657.5,39,0,387.5,0,0,experiment,NA,NA,2,0.5,0.5,4,5,229,6,NA
fcp-trial,265,1055643,0.0-240.0-0.0,voc_e2,12186,"[{""event"":""fullscreenenter"",""trial"":1,""time"":1235}]",NA,NA,NA,NA,NA,5,#D8271C,#741CD8,10,0,1,38,1,2790.5,39,0,454.59999990463257,0,0,experiment,NA,NA,0,0.9,0.1,0,1,230,6,NA
fcp-trial,266,1059207,0.0-241.0-0.0,voc_e2,12186,"[{""event"":""fullscreenenter"",""trial"":1,""time"":1235}]",NA,NA,NA,NA,NA,5,#3386FF,#D89F1C,0,0,0,38,1,1672,37,1,386.89999997615814,0,0,experiment,NA,NA,2,0.5,0.5,5,4,231,6,NA
fcp-trial,267,1061783,0.0-242.0-0.0,voc_e2,12186,"[{""event"":""fullscreenenter"",""trial"":1,""time"":1235}]",NA,NA,NA,NA,NA,5,#741CD8,#D8271C,0,10,0,38,1,400.3000000715256,39,0,672.2000000476837,10,1,experiment,NA,NA,0,0.1,0.9,1,0,232,6,NA
fcp-trial,268,1064794,0.0-243.0-0.0,voc_e2,12186,"[{""event"":""fullscreenenter"",""trial"":1,""time"":1235}]",NA,NA,NA,NA,NA,1,#D89F1C,#3386FF,0,10,1,38,1,432.7999999523163,39,0,1074.899999976158,10,0,experiment,NA,NA,2,0.5,0.5,4,5,233,6,NA
fcp-trial,269,1067128,0.0-244.0-0.0,voc_e2,12186,"[{""event"":""fullscreenenter"",""trial"":1,""time"":1235}]",NA,NA,NA,NA,NA,0,#D89F1C,#3386FF,0,0,1,38,1,348,39,0,480.7999999523163,0,0,experiment,NA,NA,2,0.5,0.5,4,5,234,6,NA
fcp-trial,270,1069394,0.0-245.0-0.0,voc_e2,12186,"[{""event"":""fullscreenenter"",""trial"":1,""time"":1235}]",NA,NA,NA,NA,NA,6,#FA92F8,#1CD855,0,0,1,38,1,382.8000000715256,37,1,376.39999997615814,0,1,experiment,NA,NA,1,0.7,0.3,2,3,235,6,NA
fcp-trial,271,1072531,0.0-246.0-0.0,voc_e2,12186,"[{""event"":""fullscreenenter"",""trial"":1,""time"":1235}]",NA,NA,NA,NA,NA,1,#741CD8,#D8271C,0,10,0,38,1,349.39999997615814,39,0,1281.600000023842,10,1,experiment,NA,NA,0,0.1,0.9,1,0,236,6,NA
fcp-trial,272,1075818,0.0-247.0-0.0,voc_e2,12186,"[{""event"":""fullscreenenter"",""trial"":1,""time"":1235}]",NA,NA,NA,NA,NA,3,#1CD855,#FA92F8,10,10,0,38,1,640.7000000476837,39,0,1141.399999976158,10,1,experiment,NA,NA,1,0.3,0.7,3,2,237,6,NA
fcp-trial,273,1078401,0.0-248.0-0.0,voc_e2,12186,"[{""event"":""fullscreenenter"",""trial"":1,""time"":1235}]",NA,NA,NA,NA,NA,4,#3386FF,#D89F1C,10,0,0,38,1,440.7000000476837,37,1,638.8000000715256,10,0,experiment,NA,NA,2,0.5,0.5,5,4,238,6,NA
fcp-trial,274,1081962,0.0-249.0-0.0,voc_e2,12186,"[{""event"":""fullscreenenter"",""trial"":1,""time"":1235}]",NA,NA,NA,NA,NA,6,#D8271C,#741CD8,10,0,1,38,1,369.8000000715256,37,1,1687.5,10,1,experiment,NA,NA,0,0.9,0.1,0,1,239,6,NA
fcp-trial,275,1087005,0.0-250.0-0.0,voc_e2,12186,"[{""event"":""fullscreenenter"",""trial"":1,""time"":1235}]",NA,NA,NA,NA,NA,0,#741CD8,#D8271C,10,10,0,38,1,878.6999999284744,39,0,2659.900000095367,10,1,experiment,NA,NA,0,0.1,0.9,1,0,240,6,NA
fcp-trial,276,1089593,0.0-251.0-0.0,voc_e2,12186,"[{""event"":""fullscreenenter"",""trial"":1,""time"":1235}]",NA,NA,NA,NA,NA,4,#1CD855,#FA92F8,0,10,0,38,1,546.8999999761581,39,0,535.7999999523163,10,1,experiment,NA,NA,1,0.3,0.7,3,2,241,6,NA
fcp-trial,277,1093368,0.0-252.0-0.0,voc_e2,12186,"[{""event"":""fullscreenenter"",""trial"":1,""time"":1235}]",NA,NA,NA,NA,NA,6,#D89F1C,#3386FF,0,0,1,38,1,552.7000000476837,39,0,1717.399999976158,0,0,experiment,NA,NA,2,0.5,0.5,4,5,242,6,NA
fcp-trial,278,1096579,0.0-253.0-0.0,voc_e2,12186,"[{""event"":""fullscreenenter"",""trial"":1,""time"":1235}]",NA,NA,NA,NA,NA,0,#1CD855,#FA92F8,0,0,0,38,1,319.39999997615814,39,0,1388.2999999523165,0,1,experiment,NA,NA,1,0.3,0.7,3,2,243,6,NA
fcp-trial,279,1098879,0.0-254.0-0.0,voc_e2,12186,"[{""event"":""fullscreenenter"",""trial"":1,""time"":1235}]",NA,NA,NA,NA,NA,2,#1CD855,#FA92F8,0,10,0,38,1,335.3000000715256,39,0,448,10,1,experiment,NA,NA,1,0.3,0.7,3,2,244,6,NA
fcp-trial,280,1102489,0.0-255.0-0.0,voc_e2,12186,"[{""event"":""fullscreenenter"",""trial"":1,""time"":1235}]",NA,NA,NA,NA,NA,4,#741CD8,#D8271C,0,10,0,38,1,417.60000002384186,39,0,1686.100000023842,10,1,experiment,NA,NA,0,0.1,0.9,1,0,245,6,NA
fcp-trial,281,1105428,0.0-256.0-0.0,voc_e2,12186,"[{""event"":""fullscreenenter"",""trial"":1,""time"":1235}]",NA,NA,NA,NA,NA,1,#1CD855,#FA92F8,10,10,0,38,1,834.8999999761581,37,1,599.1999999284744,10,0,experiment,NA,NA,1,0.3,0.7,3,2,246,6,NA
fcp-trial,282,1109269,0.0-257.0-0.0,voc_e2,12186,"[{""event"":""fullscreenenter"",""trial"":1,""time"":1235}]",NA,NA,NA,NA,NA,2,#3386FF,#D89F1C,10,0,0,38,1,468.10000002384186,37,1,1866,10,0,experiment,NA,NA,2,0.5,0.5,5,4,247,6,NA
fcp-trial,283,1111511,0.0-258.0-0.0,voc_e2,12186,"[{""event"":""fullscreenenter"",""trial"":1,""time"":1235}]",NA,NA,NA,NA,NA,5,#D89F1C,#3386FF,10,0,1,38,1,327.59999990463257,39,0,409.90000009536743,0,0,experiment,NA,NA,2,0.5,0.5,4,5,248,6,NA
fcp-trial,284,1115292,0.0-259.0-0.0,voc_e2,12186,"[{""event"":""fullscreenenter"",""trial"":1,""time"":1235}]",NA,NA,NA,NA,NA,3,#D8271C,#741CD8,10,0,1,38,1,468.2999999523163,37,1,1807,10,1,experiment,NA,NA,0,0.9,0.1,0,1,249,6,NA
fcp-trial,285,1119435,0.0-260.0-0.0,voc_e2,12186,"[{""event"":""fullscreenenter"",""trial"":1,""time"":1235}]",NA,NA,NA,NA,NA,5,#1CD855,#FA92F8,0,0,0,38,1,685.5,39,0,1950.6999999284744,0,1,experiment,NA,NA,1,0.3,0.7,3,2,250,6,NA
fcp-trial,286,1122070,0.0-261.0-0.0,voc_e2,12186,"[{""event"":""fullscreenenter"",""trial"":1,""time"":1235}]",NA,NA,NA,NA,NA,3,#3386FF,#D89F1C,10,10,0,38,1,379.2999999523163,37,1,751,10,0,experiment,NA,NA,2,0.5,0.5,5,4,251,6,NA
fcp-trial,287,1125342,0.0-262.0-0.0,voc_e2,12186,"[{""event"":""fullscreenenter"",""trial"":1,""time"":1235}]",NA,NA,NA,NA,NA,2,#D8271C,#741CD8,10,0,1,38,1,468.7000000476837,37,1,1297.600000023842,10,1,experiment,NA,NA,0,0.9,0.1,0,1,252,6,NA
fcp-trial,288,1127811,0.0-263.0-0.0,voc_e2,12186,"[{""event"":""fullscreenenter"",""trial"":1,""time"":1235}]",NA,NA,NA,NA,NA,4,#1CD855,#FA92F8,0,0,0,38,1,534.1000000238419,37,1,430.7999999523163,0,0,experiment,NA,NA,1,0.3,0.7,3,2,253,6,NA
fcp-trial,289,1130446,0.0-264.0-0.0,voc_e2,12186,"[{""event"":""fullscreenenter"",""trial"":1,""time"":1235}]",NA,NA,NA,NA,NA,3,#D8271C,#741CD8,10,0,1,38,1,389.90000009536743,37,1,738.6999999284744,10,1,experiment,NA,NA,0,0.9,0.1,0,1,254,6,NA
fcp-trial,290,1133213,0.0-265.0-0.0,voc_e2,12186,"[{""event"":""fullscreenenter"",""trial"":1,""time"":1235}]",NA,NA,NA,NA,NA,6,#3386FF,#D89F1C,10,0,0,38,1,542,37,1,721.1000000238419,10,0,experiment,NA,NA,2,0.5,0.5,5,4,255,6,NA
fcp-trial,291,1136319,0.0-266.0-0.0,voc_e2,12186,"[{""event"":""fullscreenenter"",""trial"":1,""time"":1235}]",NA,NA,NA,NA,NA,3,#1CD855,#FA92F8,0,10,0,38,1,594.8999999761581,39,0,1007.899999976158,10,1,experiment,NA,NA,1,0.3,0.7,3,2,256,6,NA
fcp-trial,292,1139809,0.0-267.0-0.0,voc_e2,12186,"[{""event"":""fullscreenenter"",""trial"":1,""time"":1235}]",NA,NA,NA,NA,NA,5,#D89F1C,#3386FF,10,0,1,38,1,579.3999999761581,39,0,1407.5,0,0,experiment,NA,NA,2,0.5,0.5,4,5,257,6,NA
fcp-trial,293,1143847,0.0-268.0-0.0,voc_e2,12186,"[{""event"":""fullscreenenter"",""trial"":1,""time"":1235}]",NA,NA,NA,NA,NA,0,#D8271C,#741CD8,0,0,1,38,1,1362.2000000476837,37,1,1170.7000000476835,0,1,experiment,NA,NA,0,0.9,0.1,0,1,258,6,NA
fcp-trial,294,1147217,0.0-269.0-0.0,voc_e2,12186,"[{""event"":""fullscreenenter"",""trial"":1,""time"":1235}]",NA,NA,NA,NA,NA,2,#1CD855,#FA92F8,10,0,0,38,1,714.2000000476837,39,0,1151.3000000715256,0,1,experiment,NA,NA,1,0.3,0.7,3,2,259,6,NA
fcp-trial,295,1149809,0.0-270.0-0.0,voc_e2,12186,"[{""event"":""fullscreenenter"",""trial"":1,""time"":1235}]",NA,NA,NA,NA,NA,2,#D8271C,#741CD8,10,0,1,38,1,358.39999997615814,37,1,729.5999999046326,10,1,experiment,NA,NA,0,0.9,0.1,0,1,260,6,NA
fcp-trial,296,1152617,0.0-271.0-0.0,voc_e2,12186,"[{""event"":""fullscreenenter"",""trial"":1,""time"":1235}]",NA,NA,NA,NA,NA,6,#FA92F8,#1CD855,10,0,1,38,1,804.3999999761581,37,1,498.2999999523163,10,1,experiment,NA,NA,1,0.7,0.3,2,3,261,6,NA
fcp-trial,297,1155110,0.0-272.0-0.0,voc_e2,12186,"[{""event"":""fullscreenenter"",""trial"":1,""time"":1235}]",NA,NA,NA,NA,NA,0,#3386FF,#D89F1C,10,0,0,38,1,576.2000000476837,37,1,415.3000000715256,10,0,experiment,NA,NA,2,0.5,0.5,5,4,262,6,NA
fcp-trial,298,1158066,0.0-273.0-0.0,voc_e2,12186,"[{""event"":""fullscreenenter"",""trial"":1,""time"":1235}]",NA,NA,NA,NA,NA,4,#D8271C,#741CD8,10,0,1,38,1,523.1999999284744,39,0,929.2000000476836,0,0,experiment,NA,NA,0,0.9,0.1,0,1,263,6,NA
fcp-trial,299,1160714,0.0-274.0-0.0,voc_e2,12186,"[{""event"":""fullscreenenter"",""trial"":1,""time"":1235}]",NA,NA,NA,NA,NA,1,#FA92F8,#1CD855,10,10,1,38,1,351.60000002384186,37,1,792.7000000476837,10,1,experiment,NA,NA,1,0.7,0.3,2,3,264,6,NA
fcp-trial,300,1163079,0.0-275.0-0.0,voc_e2,12186,"[{""event"":""fullscreenenter"",""trial"":1,""time"":1235}]",NA,NA,NA,NA,NA,3,#D89F1C,#3386FF,0,0,1,38,1,408.60000002384186,39,0,452.60000002384186,0,0,experiment,NA,NA,2,0.5,0.5,4,5,265,6,NA
fcp-trial,301,1166990,0.0-276.0-0.0,voc_e2,12186,"[{""event"":""fullscreenenter"",""trial"":1,""time"":1235}]",NA,NA,NA,NA,NA,1,#741CD8,#D8271C,0,10,0,38,1,502.6999999284744,39,0,1906,10,1,experiment,NA,NA,0,0.1,0.9,1,0,266,6,NA
fcp-trial,302,1171335,0.0-277.0-0.0,voc_e2,12186,"[{""event"":""fullscreenenter"",""trial"":1,""time"":1235}]",NA,NA,NA,NA,NA,6,#D8271C,#741CD8,10,0,1,38,1,426.6999999284744,37,1,2413.1999999284744,10,1,experiment,NA,NA,0,0.9,0.1,0,1,267,6,NA
fcp-trial,303,1173709,0.0-278.0-0.0,voc_e2,12186,"[{""event"":""fullscreenenter"",""trial"":1,""time"":1235}]",NA,NA,NA,NA,NA,4,#3386FF,#D89F1C,10,10,0,38,1,307.39999997615814,37,1,562.3000000715256,10,0,experiment,NA,NA,2,0.5,0.5,5,4,268,6,NA
fcp-trial,304,1176048,0.0-279.0-0.0,voc_e2,12186,"[{""event"":""fullscreenenter"",""trial"":1,""time"":1235}]",NA,NA,NA,NA,NA,5,#FA92F8,#1CD855,10,0,1,38,1,393,37,1,442.3000000715256,10,1,experiment,NA,NA,1,0.7,0.3,2,3,269,6,NA
fcp-trial,305,1178868,0.0-280.0-0.0,voc_e2,12186,"[{""event"":""fullscreenenter"",""trial"":1,""time"":1235}]",NA,NA,NA,NA,NA,1,#3386FF,#D89F1C,0,0,0,38,1,307.2000000476837,37,1,1009.5,0,0,experiment,NA,NA,2,0.5,0.5,5,4,270,6,NA
fcp-trial,306,1181056,0.0-281.0-0.0,voc_e2,12186,"[{""event"":""fullscreenenter"",""trial"":1,""time"":1235}]",NA,NA,NA,NA,NA,2,#3386FF,#D89F1C,10,10,0,38,1,284,37,1,400.40000009536743,10,0,experiment,NA,NA,2,0.5,0.5,5,4,271,7,NA
fcp-trial,307,1184658,0.0-282.0-0.0,voc_e2,12186,"[{""event"":""fullscreenenter"",""trial"":1,""time"":1235}]",NA,NA,NA,NA,NA,5,#D8271C,#741CD8,10,0,1,38,1,310.2999999523163,37,1,1786.899999976158,10,1,experiment,NA,NA,0,0.9,0.1,0,1,272,7,NA
fcp-trial,308,1188021,0.0-283.0-0.0,voc_e2,12186,"[{""event"":""fullscreenenter"",""trial"":1,""time"":1235}]",NA,NA,NA,NA,NA,0,#FA92F8,#1CD855,10,0,1,38,1,572.5,37,1,1286.5,10,1,experiment,NA,NA,1,0.7,0.3,2,3,273,7,NA
fcp-trial,309,1190759,0.0-284.0-0.0,voc_e2,12186,"[{""event"":""fullscreenenter"",""trial"":1,""time"":1235}]",NA,NA,NA,NA,NA,5,#741CD8,#D8271C,10,10,0,38,1,448.60000002384186,37,1,784.2000000476837,10,0,experiment,NA,NA,0,0.1,0.9,1,0,274,7,NA
fcp-trial,310,1193484,0.0-285.0-0.0,voc_e2,12186,"[{""event"":""fullscreenenter"",""trial"":1,""time"":1235}]",NA,NA,NA,NA,NA,0,#FA92F8,#1CD855,0,0,1,38,1,493.39999997615814,37,1,728.2999999523163,0,1,experiment,NA,NA,1,0.7,0.3,2,3,275,7,NA
fcp-trial,311,1197070,0.0-286.0-0.0,voc_e2,12186,"[{""event"":""fullscreenenter"",""trial"":1,""time"":1235}]",NA,NA,NA,NA,NA,1,#D8271C,#741CD8,10,0,1,38,1,386,37,1,1696.5,10,1,experiment,NA,NA,0,0.9,0.1,0,1,276,7,NA
fcp-trial,312,1199725,0.0-287.0-0.0,voc_e2,12186,"[{""event"":""fullscreenenter"",""trial"":1,""time"":1235}]",NA,NA,NA,NA,NA,5,#1CD855,#FA92F8,0,10,0,38,1,431,39,0,719.8999999761581,10,1,experiment,NA,NA,1,0.3,0.7,3,2,277,7,NA
fcp-trial,313,1202205,0.0-288.0-0.0,voc_e2,12186,"[{""event"":""fullscreenenter"",""trial"":1,""time"":1235}]",NA,NA,NA,NA,NA,3,#FA92F8,#1CD855,10,0,1,38,1,519.6000000238419,37,1,455.89999997615814,10,1,experiment,NA,NA,1,0.7,0.3,2,3,278,7,NA
fcp-trial,314,1204512,0.0-289.0-0.0,voc_e2,12186,"[{""event"":""fullscreenenter"",""trial"":1,""time"":1235}]",NA,NA,NA,NA,NA,3,#D89F1C,#3386FF,10,10,1,38,1,334.7999999523163,39,0,468.7999999523163,10,0,experiment,NA,NA,2,0.5,0.5,4,5,279,7,NA
fcp-trial,315,1208332,0.0-290.0-0.0,voc_e2,12186,"[{""event"":""fullscreenenter"",""trial"":1,""time"":1235}]",NA,NA,NA,NA,NA,2,#D8271C,#741CD8,10,0,1,38,1,466.60000002384186,37,1,1850.2999999523165,10,1,experiment,NA,NA,0,0.9,0.1,0,1,280,7,NA
fcp-trial,316,1211037,0.0-291.0-0.0,voc_e2,12186,"[{""event"":""fullscreenenter"",""trial"":1,""time"":1235}]",NA,NA,NA,NA,NA,6,#D89F1C,#3386FF,0,10,1,38,1,293.89999997615814,39,0,903.600000023842,10,0,experiment,NA,NA,2,0.5,0.5,4,5,281,7,NA
fcp-trial,317,1213598,0.0-292.0-0.0,voc_e2,12186,"[{""event"":""fullscreenenter"",""trial"":1,""time"":1235}]",NA,NA,NA,NA,NA,6,#1CD855,#FA92F8,10,10,0,38,1,330.8000000715256,39,0,728.1000000238419,10,1,experiment,NA,NA,1,0.3,0.7,3,2,282,7,NA
fcp-trial,318,1216653,0.0-293.0-0.0,voc_e2,12186,"[{""event"":""fullscreenenter"",""trial"":1,""time"":1235}]",NA,NA,NA,NA,NA,3,#741CD8,#D8271C,10,10,0,38,1,466.7999999523163,39,0,1084.2000000476835,10,1,experiment,NA,NA,0,0.1,0.9,1,0,283,7,NA
fcp-trial,319,1219122,0.0-294.0-0.0,voc_e2,12186,"[{""event"":""fullscreenenter"",""trial"":1,""time"":1235}]",NA,NA,NA,NA,NA,0,#D89F1C,#3386FF,0,0,1,38,1,342.10000002384186,39,0,622.7000000476837,0,0,experiment,NA,NA,2,0.5,0.5,4,5,284,7,NA
fcp-trial,320,1223062,0.0-295.0-0.0,voc_e2,12186,"[{""event"":""fullscreenenter"",""trial"":1,""time"":1235}]",NA,NA,NA,NA,NA,0,#D8271C,#741CD8,10,0,1,38,1,350.10000002384186,39,0,2082.5,0,0,experiment,NA,NA,0,0.9,0.1,0,1,285,7,NA
fcp-trial,321,1225415,0.0-296.0-0.0,voc_e2,12186,"[{""event"":""fullscreenenter"",""trial"":1,""time"":1235}]",NA,NA,NA,NA,NA,2,#FA92F8,#1CD855,10,0,1,38,1,389.89999997615814,37,1,459,10,1,experiment,NA,NA,1,0.7,0.3,2,3,286,7,NA
fcp-trial,322,1227992,0.0-297.0-0.0,voc_e2,12186,"[{""event"":""fullscreenenter"",""trial"":1,""time"":1235}]",NA,NA,NA,NA,NA,1,#D89F1C,#3386FF,0,0,1,38,1,305.5,39,0,767.6000000238419,0,0,experiment,NA,NA,2,0.5,0.5,4,5,287,7,NA
fcp-trial,323,1230269,0.0-298.0-0.0,voc_e2,12186,"[{""event"":""fullscreenenter"",""trial"":1,""time"":1235}]",NA,NA,NA,NA,NA,4,#D89F1C,#3386FF,0,10,1,38,1,337.89999997615814,39,0,435.60000002384186,10,0,experiment,NA,NA,2,0.5,0.5,4,5,288,7,NA
fcp-trial,324,1233167,0.0-299.0-0.0,voc_e2,12186,"[{""event"":""fullscreenenter"",""trial"":1,""time"":1235}]",NA,NA,NA,NA,NA,1,#1CD855,#FA92F8,10,0,0,38,1,337.60000002384186,39,0,1058.600000023842,0,1,experiment,NA,NA,1,0.3,0.7,3,2,289,7,NA
fcp-trial,325,1235958,0.0-300.0-0.0,voc_e2,12186,"[{""event"":""fullscreenenter"",""trial"":1,""time"":1235}]",NA,NA,NA,NA,NA,4,#741CD8,#D8271C,0,0,0,38,1,347.1999999284744,39,0,938.600000023842,0,1,experiment,NA,NA,0,0.1,0.9,1,0,290,7,NA
fcp-trial,326,1238316,0.0-301.0-0.0,voc_e2,12186,"[{""event"":""fullscreenenter"",""trial"":1,""time"":1235}]",NA,NA,NA,NA,NA,2,#3386FF,#D89F1C,0,0,0,38,1,314.7999999523163,37,1,540.1999999284744,0,0,experiment,NA,NA,2,0.5,0.5,5,4,291,7,NA
fcp-trial,327,1241536,0.0-302.0-0.0,voc_e2,12186,"[{""event"":""fullscreenenter"",""trial"":1,""time"":1235}]",NA,NA,NA,NA,NA,6,#D8271C,#741CD8,10,0,1,38,1,489.7000000476837,39,0,1226.600000023842,0,0,experiment,NA,NA,0,0.9,0.1,0,1,292,7,NA
fcp-trial,328,1243883,0.0-303.0-0.0,voc_e2,12186,"[{""event"":""fullscreenenter"",""trial"":1,""time"":1235}]",NA,NA,NA,NA,NA,4,#1CD855,#FA92F8,0,10,0,38,1,268,39,0,575.3000000715256,10,1,experiment,NA,NA,1,0.3,0.7,3,2,293,7,NA
fcp-trial,329,1246259,0.0-304.0-0.0,voc_e2,12186,"[{""event"":""fullscreenenter"",""trial"":1,""time"":1235}]",NA,NA,NA,NA,NA,5,#3386FF,#D89F1C,0,0,0,38,1,435.8000000715256,37,1,435.1999999284744,0,0,experiment,NA,NA,2,0.5,0.5,5,4,294,7,NA
fcp-trial,330,1248494,0.0-305.0-0.0,voc_e2,12186,"[{""event"":""fullscreenenter"",""trial"":1,""time"":1235}]",NA,NA,NA,NA,NA,5,#D89F1C,#3386FF,0,10,1,38,1,309.2999999523163,39,0,421.89999997615814,10,0,experiment,NA,NA,2,0.5,0.5,4,5,295,7,NA
fcp-trial,331,1250978,0.0-306.0-0.0,voc_e2,12186,"[{""event"":""fullscreenenter"",""trial"":1,""time"":1235}]",NA,NA,NA,NA,NA,5,#FA92F8,#1CD855,0,10,1,38,1,421.6999999284744,37,1,559.7999999523163,0,1,experiment,NA,NA,1,0.7,0.3,2,3,296,7,NA
fcp-trial,332,1253931,0.0-307.0-0.0,voc_e2,12186,"[{""event"":""fullscreenenter"",""trial"":1,""time"":1235}]",NA,NA,NA,NA,NA,0,#D8271C,#741CD8,10,10,1,38,1,323,37,1,1123.5,10,1,experiment,NA,NA,0,0.9,0.1,0,1,297,7,NA
fcp-trial,333,1258427,0.0-308.0-0.0,voc_e2,12186,"[{""event"":""fullscreenenter"",""trial"":1,""time"":1235}]",NA,NA,NA,NA,NA,1,#FA92F8,#1CD855,10,0,1,38,1,411.60000002384186,37,1,2581.8000000715256,10,1,experiment,NA,NA,1,0.7,0.3,2,3,298,7,NA
fcp-trial,334,1261583,0.0-309.0-0.0,voc_e2,12186,"[{""event"":""fullscreenenter"",""trial"":1,""time"":1235}]",NA,NA,NA,NA,NA,1,#3386FF,#D89F1C,0,10,0,38,1,407.7999999523163,37,1,1236.7999999523165,0,0,experiment,NA,NA,2,0.5,0.5,5,4,299,7,NA
fcp-trial,335,1264364,0.0-310.0-0.0,voc_e2,12186,"[{""event"":""fullscreenenter"",""trial"":1,""time"":1235}]",NA,NA,NA,NA,NA,4,#FA92F8,#1CD855,10,10,1,38,1,375.7000000476837,37,1,900.1000000238419,10,1,experiment,NA,NA,1,0.7,0.3,2,3,300,7,NA
fcp-trial,336,1267869,0.0-311.0-0.0,voc_e2,12186,"[{""event"":""fullscreenenter"",""trial"":1,""time"":1235}]",NA,NA,NA,NA,NA,6,#D8271C,#741CD8,10,0,1,38,1,514.4000000953674,37,1,1486.5,10,1,experiment,NA,NA,0,0.9,0.1,0,1,301,7,NA
fcp-trial,337,1271398,0.0-312.0-0.0,voc_e2,12186,"[{""event"":""fullscreenenter"",""trial"":1,""time"":1235}]",NA,NA,NA,NA,NA,3,#FA92F8,#1CD855,10,0,1,38,1,445.7000000476837,37,1,1579.1999999284744,10,1,experiment,NA,NA,1,0.7,0.3,2,3,302,7,NA
fcp-trial,338,1274023,0.0-313.0-0.0,voc_e2,12186,"[{""event"":""fullscreenenter"",""trial"":1,""time"":1235}]",NA,NA,NA,NA,NA,2,#D89F1C,#3386FF,0,0,1,38,1,276.3000000715256,39,0,846.1999999284744,0,0,experiment,NA,NA,2,0.5,0.5,4,5,303,7,NA
fcp-trial,339,1276856,0.0-314.0-0.0,voc_e2,12186,"[{""event"":""fullscreenenter"",""trial"":1,""time"":1235}]",NA,NA,NA,NA,NA,5,#741CD8,#D8271C,0,10,0,38,1,338.39999997615814,37,1,991.9000000953674,0,0,experiment,NA,NA,0,0.1,0.9,1,0,304,7,NA
fcp-trial,340,1279304,0.0-315.0-0.0,voc_e2,12186,"[{""event"":""fullscreenenter"",""trial"":1,""time"":1235}]",NA,NA,NA,NA,NA,0,#D89F1C,#3386FF,10,10,1,38,1,333.5,37,1,609.8999999761581,10,1,experiment,NA,NA,2,0.5,0.5,4,5,305,7,NA
fcp-trial,341,1282119,0.0-316.0-0.0,voc_e2,12186,"[{""event"":""fullscreenenter"",""trial"":1,""time"":1235}]",NA,NA,NA,NA,NA,6,#1CD855,#FA92F8,0,0,0,38,1,339.10000002384186,39,0,970,0,1,experiment,NA,NA,1,0.3,0.7,3,2,306,7,NA
fcp-trial,342,1284698,0.0-317.0-0.0,voc_e2,12186,"[{""event"":""fullscreenenter"",""trial"":1,""time"":1235}]",NA,NA,NA,NA,NA,6,#3386FF,#D89F1C,10,0,0,38,1,312.7999999523163,37,1,760.8999999761581,10,0,experiment,NA,NA,2,0.5,0.5,5,4,307,7,NA
fcp-trial,343,1287962,0.0-318.0-0.0,voc_e2,12186,"[{""event"":""fullscreenenter"",""trial"":1,""time"":1235}]",NA,NA,NA,NA,NA,0,#FA92F8,#1CD855,10,10,1,38,1,342.59999990463257,37,1,1418,10,1,experiment,NA,NA,1,0.7,0.3,2,3,308,7,NA
fcp-trial,344,1291281,0.0-319.0-0.0,voc_e2,12186,"[{""event"":""fullscreenenter"",""trial"":1,""time"":1235}]",NA,NA,NA,NA,NA,1,#D8271C,#741CD8,10,0,1,38,1,465.90000009536743,37,1,1349.899999976158,10,1,experiment,NA,NA,0,0.9,0.1,0,1,309,7,NA
fcp-trial,345,1295981,0.0-320.0-0.0,voc_e2,12186,"[{""event"":""fullscreenenter"",""trial"":1,""time"":1235}]",NA,NA,NA,NA,NA,4,#D89F1C,#3386FF,0,10,1,38,1,599.8999999761581,39,0,2594,10,0,experiment,NA,NA,2,0.5,0.5,4,5,310,7,NA
fcp-trial,346,1299144,0.0-321.0-0.0,voc_e2,12186,"[{""event"":""fullscreenenter"",""trial"":1,""time"":1235}]",NA,NA,NA,NA,NA,2,#741CD8,#D8271C,0,0,0,38,1,440.2000000476837,39,0,1219.7999999523165,0,1,experiment,NA,NA,0,0.1,0.9,1,0,311,7,NA
fcp-trial,347,1302727,0.0-322.0-0.0,voc_e2,12186,"[{""event"":""fullscreenenter"",""trial"":1,""time"":1235}]",NA,NA,NA,NA,NA,3,#741CD8,#D8271C,0,10,0,38,1,733.8999999761581,39,0,1346.600000023842,10,1,experiment,NA,NA,0,0.1,0.9,1,0,312,7,NA
fcp-trial,348,1305268,0.0-323.0-0.0,voc_e2,12186,"[{""event"":""fullscreenenter"",""trial"":1,""time"":1235}]",NA,NA,NA,NA,NA,2,#1CD855,#FA92F8,0,10,0,38,1,633.6000000238419,37,1,402,0,0,experiment,NA,NA,1,0.3,0.7,3,2,313,7,NA
fcp-trial,349,1307524,0.0-324.0-0.0,voc_e2,12186,"[{""event"":""fullscreenenter"",""trial"":1,""time"":1235}]",NA,NA,NA,NA,NA,3,#D89F1C,#3386FF,10,0,1,38,1,334.2999999523163,39,0,417,0,0,experiment,NA,NA,2,0.5,0.5,4,5,314,7,NA
fcp-trial,350,1310049,0.0-325.0-0.0,voc_e2,12186,"[{""event"":""fullscreenenter"",""trial"":1,""time"":1235}]",NA,NA,NA,NA,NA,4,#741CD8,#D8271C,0,10,0,38,1,346.6999999284744,39,0,674.8999999761581,10,1,experiment,NA,NA,0,0.1,0.9,1,0,315,7,NA
audio-instructions,351,1318482,0.0-326.0,voc_e2,12186,"[{""event"":""fullscreenenter"",""trial"":1,""time"":1235}]",NA,2412.5,static/audio/finished.wav,NA,0,NA,NA,NA,NA,NA,NA,NA,NA,NA,NA,NA,NA,NA,NA,NA,NA,NA,NA,NA,NA,NA,NA,NA,NA,NA
audio-instructions,352,1330082,0.0-327.0-0.0,voc_e2,12186,"[{""event"":""fullscreenenter"",""trial"":1,""time"":1235}]",NA,763.5,static/audio/explicit1.wav,NA,0,NA,NA,NA,NA,NA,NA,NA,NA,NA,NA,NA,NA,NA,NA,NA,NA,NA,NA,NA,NA,NA,NA,NA,NA,NA
audio-instructions,353,1338338,0.0-327.0-1.0,voc_e2,12186,"[{""event"":""fullscreenenter"",""trial"":1,""time"":1235}]",NA,660.2000000476837,static/audio/explicit2.wav,NA,0,NA,NA,NA,NA,NA,NA,NA,NA,NA,NA,NA,NA,NA,NA,NA,NA,NA,NA,NA,NA,NA,NA,NA,NA,NA
image-slider-response,354,1346914,0.0-328.0,voc_e2,12186,"[{""event"":""fullscreenenter"",""trial"":1,""time"":1235}]",NA,8574.700000047684,static/img/machines/machine4.png,NA,NA,NA,NA,NA,NA,NA,NA,NA,NA,NA,NA,NA,NA,NA,NA,explicit,NA,NA,NA,NA,NA,NA,NA,NA,NA,4
image-slider-response,355,1351099,0.0-329.0,voc_e2,12186,"[{""event"":""fullscreenenter"",""trial"":1,""time"":1235}]",NA,4183,static/img/machines/machine3.png,NA,NA,NA,NA,NA,NA,NA,NA,NA,NA,NA,NA,NA,NA,NA,NA,explicit,NA,NA,NA,NA,NA,NA,NA,NA,NA,6
image-slider-response,356,1360273,0.0-330.0,voc_e2,12186,"[{""event"":""fullscreenenter"",""trial"":1,""time"":1235}]",NA,9173.400000095367,static/img/machines/machine1.png,NA,NA,NA,NA,NA,NA,NA,NA,NA,NA,NA,NA,NA,NA,NA,NA,explicit,NA,NA,NA,NA,NA,NA,NA,NA,NA,7
image-slider-response,357,1363978,0.0-331.0,voc_e2,12186,"[{""event"":""fullscreenenter"",""trial"":1,""time"":1235}]",NA,3703.899999976158,static/img/machines/machine5.png,NA,NA,NA,NA,NA,NA,NA,NA,NA,NA,NA,NA,NA,NA,NA,NA,explicit,NA,NA,NA,NA,NA,NA,NA,NA,NA,8
image-slider-response,358,1368915,0.0-332.0,voc_e2,12186,"[{""event"":""fullscreenenter"",""trial"":1,""time"":1235}]",NA,4935.5,static/img/machines/machine2.png,NA,NA,NA,NA,NA,NA,NA,NA,NA,NA,NA,NA,NA,NA,NA,NA,explicit,NA,NA,NA,NA,NA,NA,NA,NA,NA,2
image-slider-response,359,1373627,0.0-333.0,voc_e2,12186,"[{""event"":""fullscreenenter"",""trial"":1,""time"":1235}]",NA,4710.300000071526,static/img/machines/machine6.png,NA,NA,NA,NA,NA,NA,NA,NA,NA,NA,NA,NA,NA,NA,NA,NA,explicit,NA,NA,NA,NA,NA,NA,NA,NA,NA,2
