trial_type,trial_index,time_elapsed,internal_node_id,task_version,subject_id,interactions,success,rt,stimulus,key_press,button_pressed,offer,arcade_color_L,arcade_color_R,arcade_outcome_L,arcade_outcome_R,correct,stage_1_key,stage_1_choice,stage_1_rt,stage_2_key,stage_2_choice,stage_2_rt,stage_3_outcome,accuracy,phase,responses,num_errors,context,reward_prob_L,reward_prob_R,arcade_id_L,arcade_id_R,trial,block,response
pavlovia,0,6,0.0-0.0,voc_e2,12273,[],NA,NA,NA,NA,NA,NA,NA,NA,NA,NA,NA,NA,NA,NA,NA,NA,NA,NA,NA,NA,NA,NA,NA,NA,NA,NA,NA,NA,NA,NA
fullscreen,1,3264,0.0-1.0,voc_e2,12273,"[{""event"":""fullscreenenter"",""trial"":1,""time"":2279}]",TRUE,NA,NA,NA,NA,NA,NA,NA,NA,NA,NA,NA,NA,NA,NA,NA,NA,NA,NA,NA,NA,NA,NA,NA,NA,NA,NA,NA,NA,NA
audio-keyboard-response,2,6508,0.0-2.0,voc_e2,12273,"[{""event"":""fullscreenenter"",""trial"":1,""time"":2279}]",NA,3141,static/audio/beep_loop.wav,32,NA,NA,NA,NA,NA,NA,NA,NA,NA,NA,NA,NA,NA,NA,NA,NA,NA,NA,NA,NA,NA,NA,NA,NA,NA,NA
audio-test,3,10714,0.0-3.0,voc_e2,12273,"[{""event"":""fullscreenenter"",""trial"":1,""time"":2279}]",NA,NA,static/audio/turtle.wav,NA,3,NA,NA,NA,NA,NA,NA,NA,NA,NA,NA,NA,NA,NA,NA,NA,NA,NA,NA,NA,NA,NA,NA,NA,NA,NA
audio-test,4,17377,0.0-4.0,voc_e2,12273,"[{""event"":""fullscreenenter"",""trial"":1,""time"":2279}]",NA,NA,static/audio/shark.wav,NA,2,NA,NA,NA,NA,NA,NA,NA,NA,NA,NA,NA,NA,NA,NA,NA,NA,NA,NA,NA,NA,NA,NA,NA,NA,NA
audio-instructions,5,24437,0.0-5.0-0.0,voc_e2,12273,"[{""event"":""fullscreenenter"",""trial"":1,""time"":2279}]",NA,1281.5,static/audio/instructions1.wav,NA,0,NA,NA,NA,NA,NA,NA,NA,NA,NA,NA,NA,NA,NA,NA,NA,NA,NA,NA,NA,NA,NA,NA,NA,NA,NA
audio-instructions,6,33835,0.0-5.0-1.0,voc_e2,12273,"[{""event"":""fullscreenenter"",""trial"":1,""time"":2279}]",NA,2659.5999999996275,static/audio/instructions2.wav,NA,0,NA,NA,NA,NA,NA,NA,NA,NA,NA,NA,NA,NA,NA,NA,NA,NA,NA,NA,NA,NA,NA,NA,NA,NA,NA
audio-instructions,7,40754,0.0-5.0-2.0,voc_e2,12273,"[{""event"":""fullscreenenter"",""trial"":1,""time"":2279}]",NA,1108.5,static/audio/instructions3.wav,NA,0,NA,NA,NA,NA,NA,NA,NA,NA,NA,NA,NA,NA,NA,NA,NA,NA,NA,NA,NA,NA,NA,NA,NA,NA,NA
audio-instructions,8,55517,0.0-5.0-3.0,voc_e2,12273,"[{""event"":""fullscreenenter"",""trial"":1,""time"":2279}]",NA,1533.2000000011176,static/audio/instructions4.wav,NA,0,NA,NA,NA,NA,NA,NA,NA,NA,NA,NA,NA,NA,NA,NA,NA,NA,NA,NA,NA,NA,NA,NA,NA,NA,NA
audio-instructions,9,66187,0.0-5.0-4.0,voc_e2,12273,"[{""event"":""fullscreenenter"",""trial"":1,""time"":2279}]",NA,1282.5999999996277,static/audio/instructions5.wav,NA,0,NA,NA,NA,NA,NA,NA,NA,NA,NA,NA,NA,NA,NA,NA,NA,NA,NA,NA,NA,NA,NA,NA,NA,NA,NA
fcp-practice,10,71378,0.0-5.0-5.0-0.0,voc_e2,12273,"[{""event"":""fullscreenenter"",""trial"":1,""time"":2279}]",NA,NA,NA,NA,NA,NA,#EDC948,#46d3c8,10,0,1,null,null,null,37,1,3670.7999999988824,10,1,practice,NA,NA,NA,NA,NA,NA,NA,NA,NA,NA
fcp-practice,11,77013,0.0-5.0-5.0-1.0,voc_e2,12273,"[{""event"":""fullscreenenter"",""trial"":1,""time"":2279}]",NA,NA,NA,NA,NA,NA,#EDC948,#46d3c8,10,0,1,null,null,null,37,1,4116.199999999255,10,1,practice,NA,NA,NA,NA,NA,NA,NA,NA,NA,NA
fcp-practice,12,79113,0.0-5.0-5.0-2.0,voc_e2,12273,"[{""event"":""fullscreenenter"",""trial"":1,""time"":2279}]",NA,NA,NA,NA,NA,NA,#EDC948,#46d3c8,0,10,1,null,null,null,37,1,594.4000000003725,0,1,practice,NA,NA,NA,NA,NA,NA,NA,NA,NA,NA
fcp-practice,13,81131,0.0-5.0-5.0-3.0,voc_e2,12273,"[{""event"":""fullscreenenter"",""trial"":1,""time"":2279}]",NA,NA,NA,NA,NA,NA,#EDC948,#46d3c8,10,0,1,null,null,null,37,1,513,10,1,practice,NA,NA,NA,NA,NA,NA,NA,NA,NA,NA
fcp-practice,14,83345,0.0-5.0-5.0-4.0,voc_e2,12273,"[{""event"":""fullscreenenter"",""trial"":1,""time"":2279}]",NA,NA,NA,NA,NA,NA,#EDC948,#46d3c8,10,0,1,null,null,null,37,1,708.0999999996275,10,1,practice,NA,NA,NA,NA,NA,NA,NA,NA,NA,NA
audio-instructions,15,103163,0.0-5.0-6.0,voc_e2,12273,"[{""event"":""fullscreenenter"",""trial"":1,""time"":2279}]",NA,1808.2999999988824,static/audio/instructions6.wav,NA,0,NA,NA,NA,NA,NA,NA,NA,NA,NA,NA,NA,NA,NA,NA,NA,NA,NA,NA,NA,NA,NA,NA,NA,NA,NA
audio-instructions,16,125811,0.0-5.0-7.0,voc_e2,12273,"[{""event"":""fullscreenenter"",""trial"":1,""time"":2279}]",NA,3447.199999999255,static/audio/instructions7.wav,NA,0,NA,NA,NA,NA,NA,NA,NA,NA,NA,NA,NA,NA,NA,NA,NA,NA,NA,NA,NA,NA,NA,NA,NA,NA,NA
audio-instructions,17,153261,0.0-5.0-8.0,voc_e2,12273,"[{""event"":""fullscreenenter"",""trial"":1,""time"":2279}]",NA,17975.900000000373,static/audio/instructions8.wav,NA,0,NA,NA,NA,NA,NA,NA,NA,NA,NA,NA,NA,NA,NA,NA,NA,NA,NA,NA,NA,NA,NA,NA,NA,NA,NA
fcp-comprehension,18,162436,0.0-5.0-9.0,voc_e2,12273,"[{""event"":""fullscreenenter"",""trial"":1,""time"":2279}]",NA,9173.599999999627,NA,NA,NA,NA,NA,NA,NA,NA,NA,NA,NA,NA,NA,NA,NA,NA,NA,NA,"true,true",0,NA,NA,NA,NA,NA,NA,NA,NA
audio-instructions,19,171517,0.0-6.0-0.0,voc_e2,12273,"[{""event"":""fullscreenenter"",""trial"":1,""time"":2279}]",NA,3532.4000000003725,static/audio/instructions9.wav,NA,0,NA,NA,NA,NA,NA,NA,NA,NA,NA,NA,NA,NA,NA,NA,NA,NA,NA,NA,NA,NA,NA,NA,NA,NA,NA
audio-instructions,20,184577,0.0-6.0-1.0,voc_e2,12273,"[{""event"":""fullscreenenter"",""trial"":1,""time"":2279}]",NA,942.2999999988824,static/audio/instructions10.wav,NA,0,NA,NA,NA,NA,NA,NA,NA,NA,NA,NA,NA,NA,NA,NA,NA,NA,NA,NA,NA,NA,NA,NA,NA,NA,NA
fcp-trial,21,191690,0.0-6.0-2.0,voc_e2,12273,"[{""event"":""fullscreenenter"",""trial"":1,""time"":2279}]",NA,NA,NA,NA,NA,0,#EDC948,#46d3c8,10,10,1,38,1,4069.699999999255,37,1,1516.9000000003723,10,1,practice,NA,NA,NA,NA,NA,NA,NA,NA,NA,NA
audio-instructions,22,204724,0.0-6.0-3.0,voc_e2,12273,"[{""event"":""fullscreenenter"",""trial"":1,""time"":2279}]",NA,2029.7999999988824,static/audio/instructions11.wav,NA,0,NA,NA,NA,NA,NA,NA,NA,NA,NA,NA,NA,NA,NA,NA,NA,NA,NA,NA,NA,NA,NA,NA,NA,NA,NA
fcp-trial,23,208940,0.0-6.0-4.0,voc_e2,12273,"[{""event"":""fullscreenenter"",""trial"":1,""time"":2279}]",NA,NA,NA,NA,NA,6,#EDC948,#46d3c8,10,10,1,40,0,1201.5999999996275,37,1,1498.5,10,1,practice,NA,NA,NA,NA,NA,NA,NA,NA,NA,NA
audio-instructions,24,229502,0.0-6.0-5.0,voc_e2,12273,"[{""event"":""fullscreenenter"",""trial"":1,""time"":2279}]",NA,1877.5999999996277,static/audio/instructions12.wav,NA,0,NA,NA,NA,NA,NA,NA,NA,NA,NA,NA,NA,NA,NA,NA,NA,NA,NA,NA,NA,NA,NA,NA,NA,NA,NA
audio-instructions,25,238002,0.0-6.0-6.0,voc_e2,12273,"[{""event"":""fullscreenenter"",""trial"":1,""time"":2279}]",NA,897.9000000003725,static/audio/instructions13.wav,NA,0,NA,NA,NA,NA,NA,NA,NA,NA,NA,NA,NA,NA,NA,NA,NA,NA,NA,NA,NA,NA,NA,NA,NA,NA,NA
audio-instructions,26,246979,0.0-6.0-7.0,voc_e2,12273,"[{""event"":""fullscreenenter"",""trial"":1,""time"":2279}]",NA,524.3000000007451,static/audio/instructions14.wav,NA,0,NA,NA,NA,NA,NA,NA,NA,NA,NA,NA,NA,NA,NA,NA,NA,NA,NA,NA,NA,NA,NA,NA,NA,NA,NA
audio-instructions,27,254620,0.0-7.0-0.0,voc_e2,12273,"[{""event"":""fullscreenenter"",""trial"":1,""time"":2279}]",NA,726,static/audio/instructions15.wav,NA,0,NA,NA,NA,NA,NA,NA,NA,NA,NA,NA,NA,NA,NA,NA,NA,NA,NA,NA,NA,NA,NA,NA,NA,NA,NA
audio-instructions,28,261902,0.0-7.0-1.0,voc_e2,12273,"[{""event"":""fullscreenenter"",""trial"":1,""time"":2279}]",NA,457.80000000074506,static/audio/instructions16.wav,NA,0,NA,NA,NA,NA,NA,NA,NA,NA,NA,NA,NA,NA,NA,NA,NA,NA,NA,NA,NA,NA,NA,NA,NA,NA,NA
audio-instructions,29,270000,0.0-7.0-2.0,voc_e2,12273,"[{""event"":""fullscreenenter"",""trial"":1,""time"":2279}]",NA,416.7999999988824,static/audio/instructions17.wav,NA,0,NA,NA,NA,NA,NA,NA,NA,NA,NA,NA,NA,NA,NA,NA,NA,NA,NA,NA,NA,NA,NA,NA,NA,NA,NA
audio-instructions,30,278220,0.0-7.0-3.0,voc_e2,12273,"[{""event"":""fullscreenenter"",""trial"":1,""time"":2279}]",NA,456,static/audio/instructions18.wav,NA,0,NA,NA,NA,NA,NA,NA,NA,NA,NA,NA,NA,NA,NA,NA,NA,NA,NA,NA,NA,NA,NA,NA,NA,NA,NA
audio-instructions,31,286933,0.0-7.0-4.0,voc_e2,12273,"[{""event"":""fullscreenenter"",""trial"":1,""time"":2279}]",NA,1968.9000000003723,static/audio/instructions19.wav,NA,0,NA,NA,NA,NA,NA,NA,NA,NA,NA,NA,NA,NA,NA,NA,NA,NA,NA,NA,NA,NA,NA,NA,NA,NA,NA
fcp-comprehension,32,307573,0.0-7.0-5.0,voc_e2,12273,"[{""event"":""fullscreenenter"",""trial"":1,""time"":2279}]",NA,20638.5,NA,NA,NA,NA,NA,NA,NA,NA,NA,NA,NA,NA,NA,NA,NA,NA,NA,NA,"false,true,false,true",1,NA,NA,NA,NA,NA,NA,NA,NA
audio-instructions,33,316886,0.0-7.1-0.1,voc_e2,12273,"[{""event"":""fullscreenenter"",""trial"":1,""time"":2279}]",NA,2392.0999999996275,static/audio/instructions15.wav,NA,0,NA,NA,NA,NA,NA,NA,NA,NA,NA,NA,NA,NA,NA,NA,NA,NA,NA,NA,NA,NA,NA,NA,NA,NA,NA
audio-instructions,34,324684,0.0-7.1-1.1,voc_e2,12273,"[{""event"":""fullscreenenter"",""trial"":1,""time"":2279}]",NA,970.2999999988824,static/audio/instructions16.wav,NA,0,NA,NA,NA,NA,NA,NA,NA,NA,NA,NA,NA,NA,NA,NA,NA,NA,NA,NA,NA,NA,NA,NA,NA,NA,NA
audio-instructions,35,333090,0.0-7.1-2.1,voc_e2,12273,"[{""event"":""fullscreenenter"",""trial"":1,""time"":2279}]",NA,726.2000000011176,static/audio/instructions17.wav,NA,0,NA,NA,NA,NA,NA,NA,NA,NA,NA,NA,NA,NA,NA,NA,NA,NA,NA,NA,NA,NA,NA,NA,NA,NA,NA
audio-instructions,36,341292,0.0-7.1-3.1,voc_e2,12273,"[{""event"":""fullscreenenter"",""trial"":1,""time"":2279}]",NA,438.30000000074506,static/audio/instructions18.wav,NA,0,NA,NA,NA,NA,NA,NA,NA,NA,NA,NA,NA,NA,NA,NA,NA,NA,NA,NA,NA,NA,NA,NA,NA,NA,NA
audio-instructions,37,348514,0.0-7.1-4.1,voc_e2,12273,"[{""event"":""fullscreenenter"",""trial"":1,""time"":2279}]",NA,470.0999999996274,static/audio/instructions19.wav,NA,0,NA,NA,NA,NA,NA,NA,NA,NA,NA,NA,NA,NA,NA,NA,NA,NA,NA,NA,NA,NA,NA,NA,NA,NA,NA
fcp-comprehension,38,366989,0.0-7.1-5.1,voc_e2,12273,"[{""event"":""fullscreenenter"",""trial"":1,""time"":2279}]",NA,18472.900000000373,NA,NA,NA,NA,NA,NA,NA,NA,NA,NA,NA,NA,NA,NA,NA,NA,NA,NA,"false,false,false,true",0,NA,NA,NA,NA,NA,NA,NA,NA
audio-instructions,39,377626,0.0-8.0,voc_e2,12273,"[{""event"":""fullscreenenter"",""trial"":1,""time"":2279}]",NA,1422.39999999851,static/audio/ready.wav,NA,0,NA,NA,NA,NA,NA,NA,NA,NA,NA,NA,NA,NA,NA,NA,NA,NA,NA,NA,NA,NA,NA,NA,NA,NA,NA
fcp-trial,40,383895,0.0-9.0-0.0,voc_e2,12273,"[{""event"":""fullscreenenter"",""trial"":1,""time"":2279}]",NA,NA,NA,NA,NA,5,#FA92F8,#1CD855,10,0,1,40,0,3915.4000000003725,37,1,845.0999999996275,10,1,experiment,NA,NA,1,0.7,0.3,2,3,1,1,NA
fcp-trial,41,386945,0.0-10.0-0.0,voc_e2,12273,"[{""event"":""fullscreenenter"",""trial"":1,""time"":2279}]",NA,NA,NA,NA,NA,5,#741CD8,#D8271C,10,0,1,40,0,959.8000000007451,37,1,580.5999999996275,10,1,experiment,NA,NA,2,0.5,0.5,4,5,2,1,NA
fcp-trial,42,389881,0.0-11.0-0.0,voc_e2,12273,"[{""event"":""fullscreenenter"",""trial"":1,""time"":2279}]",NA,NA,NA,NA,NA,4,#3386FF,#D89F1C,0,10,0,40,0,709.3999999985099,37,1,716.6000000014901,0,0,experiment,NA,NA,0,0.1,0.9,1,0,3,1,NA
fcp-trial,43,393478,0.0-12.0-0.0,voc_e2,12273,"[{""event"":""fullscreenenter"",""trial"":1,""time"":2279}]",NA,NA,NA,NA,NA,0,#D8271C,#741CD8,10,0,0,38,1,1564.4000000003725,39,0,527.3000000007451,0,1,experiment,NA,NA,2,0.5,0.5,5,4,4,1,NA
fcp-trial,44,396760,0.0-13.0-0.0,voc_e2,12273,"[{""event"":""fullscreenenter"",""trial"":1,""time"":2279}]",NA,NA,NA,NA,NA,4,#D8271C,#741CD8,0,0,0,40,0,1079.300000000745,39,0,687.2000000011176,0,1,experiment,NA,NA,2,0.5,0.5,5,4,5,1,NA
fcp-trial,45,399927,0.0-14.0-0.0,voc_e2,12273,"[{""event"":""fullscreenenter"",""trial"":1,""time"":2279}]",NA,NA,NA,NA,NA,6,#1CD855,#FA92F8,10,10,0,40,0,1100.800000000745,37,1,539,10,0,experiment,NA,NA,1,0.3,0.7,3,2,6,1,NA
fcp-trial,46,404710,0.0-15.0-0.0,voc_e2,12273,"[{""event"":""fullscreenenter"",""trial"":1,""time"":2279}]",NA,NA,NA,NA,NA,2,#1CD855,#FA92F8,10,10,0,38,1,2822.9000000003725,37,1,448,10,0,experiment,NA,NA,1,0.3,0.7,3,2,7,1,NA
fcp-trial,47,409526,0.0-16.0-0.0,voc_e2,12273,"[{""event"":""fullscreenenter"",""trial"":1,""time"":2279}]",NA,NA,NA,NA,NA,2,#3386FF,#D89F1C,0,10,0,38,1,2751.2999999988824,39,0,559.3000000007451,10,1,experiment,NA,NA,0,0.1,0.9,1,0,8,1,NA
fcp-trial,48,413972,0.0-17.0-0.0,voc_e2,12273,"[{""event"":""fullscreenenter"",""trial"":1,""time"":2279}]",NA,NA,NA,NA,NA,3,#D8271C,#741CD8,10,0,0,38,1,2472.5999999996275,37,1,470.30000000074506,10,0,experiment,NA,NA,2,0.5,0.5,5,4,9,1,NA
fcp-trial,49,417134,0.0-18.0-0.0,voc_e2,12273,"[{""event"":""fullscreenenter"",""trial"":1,""time"":2279}]",NA,NA,NA,NA,NA,6,#D8271C,#741CD8,0,10,0,40,0,1105.5,37,1,551.0999999996275,0,0,experiment,NA,NA,2,0.5,0.5,5,4,10,1,NA
fcp-trial,50,420732,0.0-19.0-0.0,voc_e2,12273,"[{""event"":""fullscreenenter"",""trial"":1,""time"":2279}]",NA,NA,NA,NA,NA,4,#1CD855,#FA92F8,10,0,0,40,0,1607.5,37,1,486.9000000003726,10,0,experiment,NA,NA,1,0.3,0.7,3,2,11,1,NA
fcp-trial,51,424366,0.0-20.0-0.0,voc_e2,12273,"[{""event"":""fullscreenenter"",""trial"":1,""time"":2279}]",NA,NA,NA,NA,NA,5,#D89F1C,#3386FF,10,0,1,40,0,1698.5999999996275,37,1,432.19999999925494,10,1,experiment,NA,NA,0,0.9,0.1,0,1,12,1,NA
fcp-trial,52,428637,0.0-21.0-0.0,voc_e2,12273,"[{""event"":""fullscreenenter"",""trial"":1,""time"":2279}]",NA,NA,NA,NA,NA,2,#D8271C,#741CD8,10,0,0,38,1,1335.0999999996275,39,0,1430.5,0,1,experiment,NA,NA,2,0.5,0.5,5,4,13,1,NA
fcp-trial,53,432420,0.0-22.0-0.0,voc_e2,12273,"[{""event"":""fullscreenenter"",""trial"":1,""time"":2279}]",NA,NA,NA,NA,NA,1,#D89F1C,#3386FF,10,0,1,38,1,1264.0999999996275,37,1,1014.1999999992548,10,1,experiment,NA,NA,0,0.9,0.1,0,1,14,1,NA
fcp-trial,54,436422,0.0-23.0-0.0,voc_e2,12273,"[{""event"":""fullscreenenter"",""trial"":1,""time"":2279}]",NA,NA,NA,NA,NA,3,#FA92F8,#1CD855,10,0,1,38,1,2106.0999999996275,39,0,391.3999999985099,0,0,experiment,NA,NA,1,0.7,0.3,2,3,15,1,NA
fcp-trial,55,439631,0.0-24.0-0.0,voc_e2,12273,"[{""event"":""fullscreenenter"",""trial"":1,""time"":2279}]",NA,NA,NA,NA,NA,6,#3386FF,#D89F1C,0,10,0,40,0,1054.4000000003725,39,0,646.1999999992549,10,1,experiment,NA,NA,0,0.1,0.9,1,0,16,1,NA
fcp-trial,56,443214,0.0-25.0-0.0,voc_e2,12273,"[{""event"":""fullscreenenter"",""trial"":1,""time"":2279}]",NA,NA,NA,NA,NA,1,#741CD8,#D8271C,0,0,1,38,1,1039.5,39,0,1038.800000000745,0,0,experiment,NA,NA,2,0.5,0.5,4,5,17,1,NA
fcp-trial,57,446486,0.0-26.0-0.0,voc_e2,12273,"[{""event"":""fullscreenenter"",""trial"":1,""time"":2279}]",NA,NA,NA,NA,NA,0,#FA92F8,#1CD855,10,10,1,38,1,1086.4000000003725,39,0,679,10,0,experiment,NA,NA,1,0.7,0.3,2,3,18,1,NA
fcp-trial,58,449974,0.0-27.0-0.0,voc_e2,12273,"[{""event"":""fullscreenenter"",""trial"":1,""time"":2279}]",NA,NA,NA,NA,NA,0,#3386FF,#D89F1C,0,10,0,38,1,1158.7000000011176,39,0,824,10,1,experiment,NA,NA,0,0.1,0.9,1,0,19,1,NA
fcp-trial,59,452958,0.0-28.0-0.0,voc_e2,12273,"[{""event"":""fullscreenenter"",""trial"":1,""time"":2279}]",NA,NA,NA,NA,NA,1,#1CD855,#FA92F8,10,10,0,38,1,1062.0999999996275,37,1,413,10,0,experiment,NA,NA,1,0.3,0.7,3,2,20,1,NA
fcp-trial,60,457263,0.0-29.0-0.0,voc_e2,12273,"[{""event"":""fullscreenenter"",""trial"":1,""time"":2279}]",NA,NA,NA,NA,NA,3,#3386FF,#D89F1C,0,10,0,40,0,2207.800000000745,37,1,593,0,0,experiment,NA,NA,0,0.1,0.9,1,0,21,1,NA
fcp-trial,61,459966,0.0-30.0-0.0,voc_e2,12273,"[{""event"":""fullscreenenter"",""trial"":1,""time"":2279}]",NA,NA,NA,NA,NA,6,#1CD855,#FA92F8,10,0,0,40,0,734.0999999996275,37,1,463.5999999996274,10,0,experiment,NA,NA,1,0.3,0.7,3,2,22,1,NA
fcp-trial,62,463255,0.0-31.0-0.0,voc_e2,12273,"[{""event"":""fullscreenenter"",""trial"":1,""time"":2279}]",NA,NA,NA,NA,NA,2,#3386FF,#D89F1C,10,10,0,38,1,1264.199999999255,39,0,519.7000000011176,10,1,experiment,NA,NA,0,0.1,0.9,1,0,23,1,NA
fcp-trial,63,466470,0.0-32.0-0.0,voc_e2,12273,"[{""event"":""fullscreenenter"",""trial"":1,""time"":2279}]",NA,NA,NA,NA,NA,3,#D89F1C,#3386FF,10,0,1,40,0,1132.300000000745,39,0,574.7000000011176,0,0,experiment,NA,NA,0,0.9,0.1,0,1,24,1,NA
fcp-trial,64,469096,0.0-33.0-0.0,voc_e2,12273,"[{""event"":""fullscreenenter"",""trial"":1,""time"":2279}]",NA,NA,NA,NA,NA,5,#FA92F8,#1CD855,10,10,1,40,0,700.9000000003725,39,0,417.30000000074506,10,0,experiment,NA,NA,1,0.7,0.3,2,3,25,1,NA
fcp-trial,65,472009,0.0-34.0-0.0,voc_e2,12273,"[{""event"":""fullscreenenter"",""trial"":1,""time"":2279}]",NA,NA,NA,NA,NA,3,#FA92F8,#1CD855,10,0,1,40,0,861.6999999992549,37,1,544.4000000003725,10,1,experiment,NA,NA,1,0.7,0.3,2,3,26,1,NA
fcp-trial,66,475182,0.0-35.0-0.0,voc_e2,12273,"[{""event"":""fullscreenenter"",""trial"":1,""time"":2279}]",NA,NA,NA,NA,NA,1,#D89F1C,#3386FF,10,0,1,38,1,1108.300000000745,37,1,559.2000000011176,10,1,experiment,NA,NA,0,0.9,0.1,0,1,27,1,NA
fcp-trial,67,479061,0.0-36.0-0.0,voc_e2,12273,"[{""event"":""fullscreenenter"",""trial"":1,""time"":2279}]",NA,NA,NA,NA,NA,2,#1CD855,#FA92F8,0,10,0,38,1,2063.0999999996275,37,1,310,0,0,experiment,NA,NA,1,0.3,0.7,3,2,28,1,NA
fcp-trial,68,482926,0.0-37.0-0.0,voc_e2,12273,"[{""event"":""fullscreenenter"",""trial"":1,""time"":2279}]",NA,NA,NA,NA,NA,1,#D8271C,#741CD8,0,0,0,38,1,1705.7999999988824,37,1,653.5,0,0,experiment,NA,NA,2,0.5,0.5,5,4,29,1,NA
fcp-trial,69,485734,0.0-38.0-0.0,voc_e2,12273,"[{""event"":""fullscreenenter"",""trial"":1,""time"":2279}]",NA,NA,NA,NA,NA,4,#FA92F8,#1CD855,0,0,1,40,0,919.5,37,1,383.0999999996274,0,1,experiment,NA,NA,1,0.7,0.3,2,3,30,1,NA
fcp-trial,70,489094,0.0-39.0-0.0,voc_e2,12273,"[{""event"":""fullscreenenter"",""trial"":1,""time"":2279}]",NA,NA,NA,NA,NA,6,#D89F1C,#3386FF,10,0,1,40,0,1094.1000000014901,39,0,759.2000000011176,0,0,experiment,NA,NA,0,0.9,0.1,0,1,31,1,NA
fcp-trial,71,491924,0.0-40.0-0.0,voc_e2,12273,"[{""event"":""fullscreenenter"",""trial"":1,""time"":2279}]",NA,NA,NA,NA,NA,5,#741CD8,#D8271C,10,0,1,40,0,911,37,1,414.5,10,1,experiment,NA,NA,2,0.5,0.5,4,5,32,1,NA
fcp-trial,72,495161,0.0-41.0-0.0,voc_e2,12273,"[{""event"":""fullscreenenter"",""trial"":1,""time"":2279}]",NA,NA,NA,NA,NA,0,#3386FF,#D89F1C,0,0,0,38,1,1232.5999999996275,39,0,496.5,0,1,experiment,NA,NA,0,0.1,0.9,1,0,33,1,NA
fcp-trial,73,498087,0.0-42.0-0.0,voc_e2,12273,"[{""event"":""fullscreenenter"",""trial"":1,""time"":2279}]",NA,NA,NA,NA,NA,4,#741CD8,#D8271C,10,10,1,40,0,959,39,0,460.80000000074506,10,0,experiment,NA,NA,2,0.5,0.5,4,5,34,1,NA
fcp-trial,74,501943,0.0-43.0-0.0,voc_e2,12273,"[{""event"":""fullscreenenter"",""trial"":1,""time"":2279}]",NA,NA,NA,NA,NA,1,#FA92F8,#1CD855,10,0,1,38,1,1939.800000000745,37,1,407.69999999925494,10,1,experiment,NA,NA,1,0.7,0.3,2,3,35,1,NA
fcp-trial,75,504809,0.0-44.0-0.0,voc_e2,12273,"[{""event"":""fullscreenenter"",""trial"":1,""time"":2279}]",NA,NA,NA,NA,NA,4,#D89F1C,#3386FF,10,0,1,40,0,902.1999999992549,39,0,456.9000000003726,0,0,experiment,NA,NA,0,0.9,0.1,0,1,36,1,NA
fcp-trial,76,508040,0.0-45.0-0.0,voc_e2,12273,"[{""event"":""fullscreenenter"",""trial"":1,""time"":2279}]",NA,NA,NA,NA,NA,2,#741CD8,#D8271C,0,0,1,38,1,1284.9000000003725,37,1,438.9000000003726,0,1,experiment,NA,NA,2,0.5,0.5,4,5,37,1,NA
fcp-trial,77,511391,0.0-46.0-0.0,voc_e2,12273,"[{""event"":""fullscreenenter"",""trial"":1,""time"":2279}]",NA,NA,NA,NA,NA,0,#D8271C,#741CD8,10,10,0,38,1,1293.5,39,0,550,10,1,experiment,NA,NA,2,0.5,0.5,5,4,38,1,NA
fcp-trial,78,514624,0.0-47.0-0.0,voc_e2,12273,"[{""event"":""fullscreenenter"",""trial"":1,""time"":2279}]",NA,NA,NA,NA,NA,5,#D89F1C,#3386FF,10,0,1,40,0,1327.199999999255,37,1,400.0999999996274,10,1,experiment,NA,NA,0,0.9,0.1,0,1,39,1,NA
fcp-trial,79,517655,0.0-48.0-0.0,voc_e2,12273,"[{""event"":""fullscreenenter"",""trial"":1,""time"":2279}]",NA,NA,NA,NA,NA,0,#FA92F8,#1CD855,10,0,1,38,1,1030.199999999255,39,0,493,0,0,experiment,NA,NA,1,0.7,0.3,2,3,40,1,NA
fcp-trial,80,520374,0.0-49.0-0.0,voc_e2,12273,"[{""event"":""fullscreenenter"",""trial"":1,""time"":2279}]",NA,NA,NA,NA,NA,3,#741CD8,#D8271C,10,0,1,40,0,829.8000000007451,37,1,383.0999999996274,10,1,experiment,NA,NA,2,0.5,0.5,4,5,41,1,NA
fcp-trial,81,523135,0.0-50.0-0.0,voc_e2,12273,"[{""event"":""fullscreenenter"",""trial"":1,""time"":2279}]",NA,NA,NA,NA,NA,6,#741CD8,#D8271C,10,10,1,40,0,767.3000000007451,37,1,487,10,1,experiment,NA,NA,2,0.5,0.5,4,5,42,1,NA
fcp-trial,82,525877,0.0-51.0-0.0,voc_e2,12273,"[{""event"":""fullscreenenter"",""trial"":1,""time"":2279}]",NA,NA,NA,NA,NA,1,#1CD855,#FA92F8,0,0,0,40,0,788.2000000011176,39,0,447.69999999925494,0,1,experiment,NA,NA,1,0.3,0.7,3,2,43,1,NA
fcp-trial,83,528613,0.0-52.0-0.0,voc_e2,12273,"[{""event"":""fullscreenenter"",""trial"":1,""time"":2279}]",NA,NA,NA,NA,NA,1,#D89F1C,#3386FF,10,0,1,40,0,759.5,39,0,471,0,0,experiment,NA,NA,0,0.9,0.1,0,1,44,1,NA
fcp-trial,84,531909,0.0-53.0-0.0,voc_e2,12273,"[{""event"":""fullscreenenter"",""trial"":1,""time"":2279}]",NA,NA,NA,NA,NA,0,#D8271C,#741CD8,0,10,0,38,1,991.6999999992549,37,1,799.4000000003725,0,0,experiment,NA,NA,2,0.5,0.5,5,4,45,1,NA
fcp-trial,85,534718,0.0-54.0-0.0,voc_e2,12273,"[{""event"":""fullscreenenter"",""trial"":1,""time"":2279}]",NA,NA,NA,NA,NA,4,#D8271C,#741CD8,0,10,0,40,0,895.8000000007451,37,1,408.69999999925494,0,0,experiment,NA,NA,2,0.5,0.5,5,4,46,2,NA
fcp-trial,86,537799,0.0-55.0-0.0,voc_e2,12273,"[{""event"":""fullscreenenter"",""trial"":1,""time"":2279}]",NA,NA,NA,NA,NA,0,#FA92F8,#1CD855,0,10,1,38,1,987.6000000014901,39,0,582.2999999988824,10,0,experiment,NA,NA,1,0.7,0.3,2,3,47,2,NA
fcp-trial,87,541157,0.0-56.0-0.0,voc_e2,12273,"[{""event"":""fullscreenenter"",""trial"":1,""time"":2279}]",NA,NA,NA,NA,NA,3,#D89F1C,#3386FF,10,0,1,40,0,1300.4000000003725,39,0,551.0999999996275,0,0,experiment,NA,NA,0,0.9,0.1,0,1,48,2,NA
fcp-trial,88,544055,0.0-57.0-0.0,voc_e2,12273,"[{""event"":""fullscreenenter"",""trial"":1,""time"":2279}]",NA,NA,NA,NA,NA,4,#FA92F8,#1CD855,10,10,1,40,0,984,39,0,407.9000000003726,10,0,experiment,NA,NA,1,0.7,0.3,2,3,49,2,NA
fcp-trial,89,546558,0.0-58.0-0.0,voc_e2,12273,"[{""event"":""fullscreenenter"",""trial"":1,""time"":2279}]",NA,NA,NA,NA,NA,6,#FA92F8,#1CD855,10,0,1,40,0,598,37,1,398.7999999988824,10,1,experiment,NA,NA,1,0.7,0.3,2,3,50,2,NA
fcp-trial,90,549661,0.0-59.0-0.0,voc_e2,12273,"[{""event"":""fullscreenenter"",""trial"":1,""time"":2279}]",NA,NA,NA,NA,NA,1,#741CD8,#D8271C,0,0,1,40,0,1194.5,39,0,404.5999999996274,0,0,experiment,NA,NA,2,0.5,0.5,4,5,51,2,NA
fcp-trial,91,552255,0.0-60.0-0.0,voc_e2,12273,"[{""event"":""fullscreenenter"",""trial"":1,""time"":2279}]",NA,NA,NA,NA,NA,3,#1CD855,#FA92F8,0,10,0,40,0,648.5,39,0,439,10,1,experiment,NA,NA,1,0.3,0.7,3,2,52,2,NA
fcp-trial,92,554860,0.0-61.0-0.0,voc_e2,12273,"[{""event"":""fullscreenenter"",""trial"":1,""time"":2279}]",NA,NA,NA,NA,NA,6,#D89F1C,#3386FF,10,0,1,40,0,678,39,0,421.7999999988824,0,0,experiment,NA,NA,0,0.9,0.1,0,1,53,2,NA
fcp-trial,93,557862,0.0-62.0-0.0,voc_e2,12273,"[{""event"":""fullscreenenter"",""trial"":1,""time"":2279}]",NA,NA,NA,NA,NA,5,#741CD8,#D8271C,10,10,1,40,0,1008.6999999992549,37,1,487.69999999925494,10,1,experiment,NA,NA,2,0.5,0.5,4,5,54,2,NA
fcp-trial,94,560711,0.0-63.0-0.0,voc_e2,12273,"[{""event"":""fullscreenenter"",""trial"":1,""time"":2279}]",NA,NA,NA,NA,NA,2,#D89F1C,#3386FF,10,0,1,40,0,910.0999999996275,39,0,424.30000000074506,0,0,experiment,NA,NA,0,0.9,0.1,0,1,55,2,NA
fcp-trial,95,563325,0.0-64.0-0.0,voc_e2,12273,"[{""event"":""fullscreenenter"",""trial"":1,""time"":2279}]",NA,NA,NA,NA,NA,5,#1CD855,#FA92F8,10,10,0,40,0,639,39,0,468.2999999988824,10,1,experiment,NA,NA,1,0.3,0.7,3,2,56,2,NA
fcp-trial,96,565982,0.0-65.0-0.0,voc_e2,12273,"[{""event"":""fullscreenenter"",""trial"":1,""time"":2279}]",NA,NA,NA,NA,NA,2,#741CD8,#D8271C,0,10,1,40,0,695.9000000003725,37,1,456.19999999925494,0,1,experiment,NA,NA,2,0.5,0.5,4,5,57,2,NA
fcp-trial,97,568582,0.0-66.0-0.0,voc_e2,12273,"[{""event"":""fullscreenenter"",""trial"":1,""time"":2279}]",NA,NA,NA,NA,NA,5,#D89F1C,#3386FF,10,0,1,40,0,622.0999999996275,37,1,472.30000000074506,10,1,experiment,NA,NA,0,0.9,0.1,0,1,58,2,NA
fcp-trial,98,571055,0.0-67.0-0.0,voc_e2,12273,"[{""event"":""fullscreenenter"",""trial"":1,""time"":2279}]",NA,NA,NA,NA,NA,3,#741CD8,#D8271C,10,10,1,40,0,582.1999999992549,39,0,382.7000000011176,10,0,experiment,NA,NA,2,0.5,0.5,4,5,59,2,NA
fcp-trial,99,573566,0.0-68.0-0.0,voc_e2,12273,"[{""event"":""fullscreenenter"",""trial"":1,""time"":2279}]",NA,NA,NA,NA,NA,2,#1CD855,#FA92F8,0,10,0,40,0,622.8000000007451,37,1,382.5999999996274,0,0,experiment,NA,NA,1,0.3,0.7,3,2,60,2,NA
fcp-trial,100,576278,0.0-69.0-0.0,voc_e2,12273,"[{""event"":""fullscreenenter"",""trial"":1,""time"":2279}]",NA,NA,NA,NA,NA,6,#D8271C,#741CD8,10,0,0,40,0,676.6999999992549,37,1,526.4000000003725,10,0,experiment,NA,NA,2,0.5,0.5,5,4,61,2,NA
fcp-trial,101,579022,0.0-70.0-0.0,voc_e2,12273,"[{""event"":""fullscreenenter"",""trial"":1,""time"":2279}]",NA,NA,NA,NA,NA,4,#3386FF,#D89F1C,0,10,0,40,0,767,39,0,472.30000000074506,10,1,experiment,NA,NA,0,0.1,0.9,1,0,62,2,NA
fcp-trial,102,582720,0.0-71.0-0.0,voc_e2,12273,"[{""event"":""fullscreenenter"",""trial"":1,""time"":2279}]",NA,NA,NA,NA,NA,0,#D89F1C,#3386FF,10,0,1,38,1,1178.199999999255,37,1,1012.9000000003724,10,1,experiment,NA,NA,0,0.9,0.1,0,1,63,2,NA
fcp-trial,103,585815,0.0-72.0-0.0,voc_e2,12273,"[{""event"":""fullscreenenter"",""trial"":1,""time"":2279}]",NA,NA,NA,NA,NA,5,#D89F1C,#3386FF,10,0,1,40,0,1148.9000000003725,37,1,439.9000000003726,10,1,experiment,NA,NA,0,0.9,0.1,0,1,64,2,NA
fcp-trial,104,588558,0.0-73.0-0.0,voc_e2,12273,"[{""event"":""fullscreenenter"",""trial"":1,""time"":2279}]",NA,NA,NA,NA,NA,1,#1CD855,#FA92F8,0,10,0,40,0,765.4000000003725,39,0,470,10,1,experiment,NA,NA,1,0.3,0.7,3,2,65,2,NA
fcp-trial,105,591141,0.0-74.0-0.0,voc_e2,12273,"[{""event"":""fullscreenenter"",""trial"":1,""time"":2279}]",NA,NA,NA,NA,NA,3,#D89F1C,#3386FF,10,0,1,40,0,641.7999999988824,37,1,436.0999999996274,10,1,experiment,NA,NA,0,0.9,0.1,0,1,66,2,NA
fcp-trial,106,593790,0.0-75.0-0.0,voc_e2,12273,"[{""event"":""fullscreenenter"",""trial"":1,""time"":2279}]",NA,NA,NA,NA,NA,5,#D8271C,#741CD8,0,10,0,40,0,673.0999999996275,39,0,469.2999999988824,10,1,experiment,NA,NA,2,0.5,0.5,5,4,67,2,NA
fcp-trial,107,596582,0.0-76.0-0.0,voc_e2,12273,"[{""event"":""fullscreenenter"",""trial"":1,""time"":2279}]",NA,NA,NA,NA,NA,4,#D8271C,#741CD8,10,0,0,40,0,841,39,0,445.4000000003726,0,1,experiment,NA,NA,2,0.5,0.5,5,4,68,2,NA
fcp-trial,108,599383,0.0-77.0-0.0,voc_e2,12273,"[{""event"":""fullscreenenter"",""trial"":1,""time"":2279}]",NA,NA,NA,NA,NA,2,#1CD855,#FA92F8,0,10,0,40,0,861.5999999996275,39,0,430.69999999925494,10,1,experiment,NA,NA,1,0.3,0.7,3,2,69,2,NA
fcp-trial,109,602553,0.0-78.0-0.0,voc_e2,12273,"[{""event"":""fullscreenenter"",""trial"":1,""time"":2279}]",NA,NA,NA,NA,NA,0,#1CD855,#FA92F8,0,10,0,38,1,1059.4000000003725,37,1,596.5,0,0,experiment,NA,NA,1,0.3,0.7,3,2,70,2,NA
fcp-trial,110,605262,0.0-79.0-0.0,voc_e2,12273,"[{""event"":""fullscreenenter"",""trial"":1,""time"":2279}]",NA,NA,NA,NA,NA,6,#D89F1C,#3386FF,10,0,1,40,0,755.7999999988824,37,1,442.9000000003726,10,1,experiment,NA,NA,0,0.9,0.1,0,1,71,2,NA
fcp-trial,111,608078,0.0-80.0-0.0,voc_e2,12273,"[{""event"":""fullscreenenter"",""trial"":1,""time"":2279}]",NA,NA,NA,NA,NA,3,#D8271C,#741CD8,0,10,0,40,0,857.5,39,0,453.4000000003726,10,1,experiment,NA,NA,2,0.5,0.5,5,4,72,2,NA
fcp-trial,112,610822,0.0-81.0-0.0,voc_e2,12273,"[{""event"":""fullscreenenter"",""trial"":1,""time"":2279}]",NA,NA,NA,NA,NA,2,#3386FF,#D89F1C,0,10,0,40,0,800,39,0,437,10,1,experiment,NA,NA,0,0.1,0.9,1,0,73,2,NA
fcp-trial,113,613445,0.0-82.0-0.0,voc_e2,12273,"[{""event"":""fullscreenenter"",""trial"":1,""time"":2279}]",NA,NA,NA,NA,NA,4,#1CD855,#FA92F8,0,10,0,40,0,728.4000000003725,37,1,390,0,0,experiment,NA,NA,1,0.3,0.7,3,2,74,2,NA
fcp-trial,114,616590,0.0-83.0-0.0,voc_e2,12273,"[{""event"":""fullscreenenter"",""trial"":1,""time"":2279}]",NA,NA,NA,NA,NA,5,#FA92F8,#1CD855,10,0,1,40,0,1137.4000000003725,37,1,501.80000000074506,10,1,experiment,NA,NA,1,0.7,0.3,2,3,75,2,NA
fcp-trial,115,619319,0.0-84.0-0.0,voc_e2,12273,"[{""event"":""fullscreenenter"",""trial"":1,""time"":2279}]",NA,NA,NA,NA,NA,4,#D89F1C,#3386FF,10,0,1,40,0,759.4000000003725,39,0,465.5,0,0,experiment,NA,NA,0,0.9,0.1,0,1,76,2,NA
fcp-trial,116,622086,0.0-85.0-0.0,voc_e2,12273,"[{""event"":""fullscreenenter"",""trial"":1,""time"":2279}]",NA,NA,NA,NA,NA,1,#D8271C,#741CD8,0,10,0,40,0,879.7000000011176,37,1,383.5,0,0,experiment,NA,NA,2,0.5,0.5,5,4,77,2,NA
fcp-trial,117,624845,0.0-86.0-0.0,voc_e2,12273,"[{""event"":""fullscreenenter"",""trial"":1,""time"":2279}]",NA,NA,NA,NA,NA,2,#D8271C,#741CD8,10,0,0,40,0,825.9000000003725,39,0,429.7999999988824,0,1,experiment,NA,NA,2,0.5,0.5,5,4,78,2,NA
fcp-trial,118,627406,0.0-87.0-0.0,voc_e2,12273,"[{""event"":""fullscreenenter"",""trial"":1,""time"":2279}]",NA,NA,NA,NA,NA,3,#FA92F8,#1CD855,0,0,1,40,0,638.4000000003725,37,1,414.6000000014901,0,1,experiment,NA,NA,1,0.7,0.3,2,3,79,2,NA
fcp-trial,119,630789,0.0-88.0-0.0,voc_e2,12273,"[{""event"":""fullscreenenter"",""trial"":1,""time"":2279}]",NA,NA,NA,NA,NA,0,#D8271C,#741CD8,10,0,0,38,1,943.4000000003725,39,0,934.2000000011176,0,1,experiment,NA,NA,2,0.5,0.5,5,4,80,2,NA
fcp-trial,120,633910,0.0-89.0-0.0,voc_e2,12273,"[{""event"":""fullscreenenter"",""trial"":1,""time"":2279}]",NA,NA,NA,NA,NA,0,#3386FF,#D89F1C,0,10,0,38,1,1105.4000000003725,39,0,511.4000000003726,10,1,experiment,NA,NA,0,0.1,0.9,1,0,81,2,NA
fcp-trial,121,636711,0.0-90.0-0.0,voc_e2,12273,"[{""event"":""fullscreenenter"",""trial"":1,""time"":2279}]",NA,NA,NA,NA,NA,6,#D8271C,#741CD8,0,0,0,40,0,861.6999999992549,39,0,431.5999999996274,0,1,experiment,NA,NA,2,0.5,0.5,5,4,82,2,NA
fcp-trial,122,639352,0.0-91.0-0.0,voc_e2,12273,"[{""event"":""fullscreenenter"",""trial"":1,""time"":2279}]",NA,NA,NA,NA,NA,1,#3386FF,#D89F1C,0,10,0,40,0,702.7000000011176,39,0,432.5,10,1,experiment,NA,NA,0,0.1,0.9,1,0,83,2,NA
fcp-trial,123,642422,0.0-92.0-0.0,voc_e2,12273,"[{""event"":""fullscreenenter"",""trial"":1,""time"":2279}]",NA,NA,NA,NA,NA,6,#FA92F8,#1CD855,10,0,1,40,0,1094.1000000014901,39,0,468.5999999996274,0,0,experiment,NA,NA,1,0.7,0.3,2,3,84,2,NA
fcp-trial,124,645662,0.0-93.0-0.0,voc_e2,12273,"[{""event"":""fullscreenenter"",""trial"":1,""time"":2279}]",NA,NA,NA,NA,NA,2,#741CD8,#D8271C,0,0,1,40,0,1079.5999999996275,39,0,654.6999999992549,0,0,experiment,NA,NA,2,0.5,0.5,4,5,85,2,NA
fcp-trial,125,648463,0.0-94.0-0.0,voc_e2,12273,"[{""event"":""fullscreenenter"",""trial"":1,""time"":2279}]",NA,NA,NA,NA,NA,3,#FA92F8,#1CD855,10,0,1,40,0,829.7000000011176,39,0,461.19999999925494,0,0,experiment,NA,NA,1,0.7,0.3,2,3,86,2,NA
fcp-trial,126,651086,0.0-95.0-0.0,voc_e2,12273,"[{""event"":""fullscreenenter"",""trial"":1,""time"":2279}]",NA,NA,NA,NA,NA,5,#D89F1C,#3386FF,10,0,1,40,0,659,39,0,455.0999999996274,0,0,experiment,NA,NA,0,0.9,0.1,0,1,87,2,NA
fcp-trial,127,653822,0.0-96.0-0.0,voc_e2,12273,"[{""event"":""fullscreenenter"",""trial"":1,""time"":2279}]",NA,NA,NA,NA,NA,3,#D8271C,#741CD8,0,0,0,40,0,711.6999999992549,37,1,518.6999999992549,0,0,experiment,NA,NA,2,0.5,0.5,5,4,88,2,NA
fcp-trial,128,656757,0.0-97.0-0.0,voc_e2,12273,"[{""event"":""fullscreenenter"",""trial"":1,""time"":2279}]",NA,NA,NA,NA,NA,6,#D8271C,#741CD8,10,10,0,40,0,1008,39,0,421.7000000011176,10,1,experiment,NA,NA,2,0.5,0.5,5,4,89,2,NA
fcp-trial,129,659518,0.0-98.0-0.0,voc_e2,12273,"[{""event"":""fullscreenenter"",""trial"":1,""time"":2279}]",NA,NA,NA,NA,NA,6,#1CD855,#FA92F8,10,10,0,40,0,758.8000000007451,37,1,495.5999999996274,10,0,experiment,NA,NA,1,0.3,0.7,3,2,90,2,NA
fcp-trial,130,662264,0.0-99.0-0.0,voc_e2,12273,"[{""event"":""fullscreenenter"",""trial"":1,""time"":2279}]",NA,NA,NA,NA,NA,1,#FA92F8,#1CD855,10,0,1,40,0,839,39,0,399,0,0,experiment,NA,NA,1,0.7,0.3,2,3,91,3,NA
fcp-trial,131,664833,0.0-100.0-0.0,voc_e2,12273,"[{""event"":""fullscreenenter"",""trial"":1,""time"":2279}]",NA,NA,NA,NA,NA,4,#D89F1C,#3386FF,10,0,1,40,0,612.2999999988824,37,1,446.5999999996274,10,1,experiment,NA,NA,0,0.9,0.1,0,1,92,3,NA
fcp-trial,132,667584,0.0-101.0-0.0,voc_e2,12273,"[{""event"":""fullscreenenter"",""trial"":1,""time"":2279}]",NA,NA,NA,NA,NA,4,#1CD855,#FA92F8,0,10,0,40,0,772.5999999996275,39,0,471.7000000011176,10,1,experiment,NA,NA,1,0.3,0.7,3,2,93,3,NA
fcp-trial,133,670254,0.0-102.0-0.0,voc_e2,12273,"[{""event"":""fullscreenenter"",""trial"":1,""time"":2279}]",NA,NA,NA,NA,NA,1,#741CD8,#D8271C,10,0,1,40,0,676.5,39,0,486.3999999985099,0,0,experiment,NA,NA,2,0.5,0.5,4,5,94,3,NA
fcp-trial,134,672869,0.0-103.0-0.0,voc_e2,12273,"[{""event"":""fullscreenenter"",""trial"":1,""time"":2279}]",NA,NA,NA,NA,NA,2,#FA92F8,#1CD855,10,0,1,40,0,654.3999999985099,39,0,452.9000000003726,0,0,experiment,NA,NA,1,0.7,0.3,2,3,95,3,NA
fcp-trial,135,675431,0.0-104.0-0.0,voc_e2,12273,"[{""event"":""fullscreenenter"",""trial"":1,""time"":2279}]",NA,NA,NA,NA,NA,6,#3386FF,#D89F1C,0,10,0,40,0,615.4000000003725,37,1,439.30000000074506,0,0,experiment,NA,NA,0,0.1,0.9,1,0,96,3,NA
fcp-trial,136,678046,0.0-105.0-0.0,voc_e2,12273,"[{""event"":""fullscreenenter"",""trial"":1,""time"":2279}]",NA,NA,NA,NA,NA,5,#741CD8,#D8271C,0,0,1,40,0,638.1000000014901,37,1,470.4000000003726,0,1,experiment,NA,NA,2,0.5,0.5,4,5,97,3,NA
fcp-trial,137,680830,0.0-106.0-0.0,voc_e2,12273,"[{""event"":""fullscreenenter"",""trial"":1,""time"":2279}]",NA,NA,NA,NA,NA,1,#D89F1C,#3386FF,10,0,1,40,0,813.5,39,0,461.0999999996274,0,0,experiment,NA,NA,0,0.9,0.1,0,1,98,3,NA
fcp-trial,138,683367,0.0-107.0-0.0,voc_e2,12273,"[{""event"":""fullscreenenter"",""trial"":1,""time"":2279}]",NA,NA,NA,NA,NA,3,#3386FF,#D89F1C,0,10,0,40,0,607.5999999996275,37,1,423.9000000003726,0,0,experiment,NA,NA,0,0.1,0.9,1,0,99,3,NA
fcp-trial,139,686157,0.0-108.0-0.0,voc_e2,12273,"[{""event"":""fullscreenenter"",""trial"":1,""time"":2279}]",NA,NA,NA,NA,NA,0,#FA92F8,#1CD855,0,0,1,38,1,870.2999999988824,39,0,413.5999999996274,0,0,experiment,NA,NA,1,0.7,0.3,2,3,100,3,NA
fcp-trial,140,688908,0.0-109.0-0.0,voc_e2,12273,"[{""event"":""fullscreenenter"",""trial"":1,""time"":2279}]",NA,NA,NA,NA,NA,2,#3386FF,#D89F1C,0,0,0,40,0,816.0999999996275,39,0,429.5,0,1,experiment,NA,NA,0,0.1,0.9,1,0,101,3,NA
fcp-trial,141,691893,0.0-110.0-0.0,voc_e2,12273,"[{""event"":""fullscreenenter"",""trial"":1,""time"":2279}]",NA,NA,NA,NA,NA,0,#741CD8,#D8271C,10,10,1,38,1,800.8000000007451,39,0,677.6999999992549,10,0,experiment,NA,NA,2,0.5,0.5,4,5,102,3,NA
fcp-trial,142,695021,0.0-111.0-0.0,voc_e2,12273,"[{""event"":""fullscreenenter"",""trial"":1,""time"":2279}]",NA,NA,NA,NA,NA,0,#D89F1C,#3386FF,10,0,1,38,1,823.5999999996275,37,1,799.4000000003725,10,1,experiment,NA,NA,0,0.9,0.1,0,1,103,3,NA
fcp-trial,143,697815,0.0-112.0-0.0,voc_e2,12273,"[{""event"":""fullscreenenter"",""trial"":1,""time"":2279}]",NA,NA,NA,NA,NA,5,#1CD855,#FA92F8,10,10,0,40,0,872.6999999992549,39,0,415.5,10,1,experiment,NA,NA,1,0.3,0.7,3,2,104,3,NA
fcp-trial,144,700469,0.0-113.0-0.0,voc_e2,12273,"[{""event"":""fullscreenenter"",""trial"":1,""time"":2279}]",NA,NA,NA,NA,NA,4,#741CD8,#D8271C,0,10,1,40,0,757.0999999996275,37,1,387.69999999925494,0,1,experiment,NA,NA,2,0.5,0.5,4,5,105,3,NA
audio-instructions,145,705940,0.0-114.0,voc_e2,12273,"[{""event"":""fullscreenenter"",""trial"":1,""time"":2279}]",NA,957.10000000149,static/audio/pause.wav,NA,0,NA,NA,NA,NA,NA,NA,NA,NA,NA,NA,NA,NA,NA,NA,NA,NA,NA,NA,NA,NA,NA,NA,NA,NA,NA
fcp-trial,146,708931,0.0-115.0-0.0,voc_e2,12273,"[{""event"":""fullscreenenter"",""trial"":1,""time"":2279}]",NA,NA,NA,NA,NA,2,#D8271C,#741CD8,0,10,0,40,0,1056.300000000745,37,1,414,0,0,experiment,NA,NA,2,0.5,0.5,5,4,106,3,NA
fcp-trial,147,711745,0.0-116.0-0.0,voc_e2,12273,"[{""event"":""fullscreenenter"",""trial"":1,""time"":2279}]",NA,NA,NA,NA,NA,2,#1CD855,#FA92F8,0,0,0,40,0,929.5999999996275,37,1,362.2000000011176,0,0,experiment,NA,NA,1,0.3,0.7,3,2,107,3,NA
fcp-trial,148,714411,0.0-117.0-0.0,voc_e2,12273,"[{""event"":""fullscreenenter"",""trial"":1,""time"":2279}]",NA,NA,NA,NA,NA,5,#741CD8,#D8271C,10,0,1,40,0,744.0999999996275,37,1,386.5,10,1,experiment,NA,NA,2,0.5,0.5,4,5,108,3,NA
fcp-trial,149,716997,0.0-118.0-0.0,voc_e2,12273,"[{""event"":""fullscreenenter"",""trial"":1,""time"":2279}]",NA,NA,NA,NA,NA,4,#D89F1C,#3386FF,10,0,1,40,0,622.7999999988824,39,0,436.5,0,0,experiment,NA,NA,0,0.9,0.1,0,1,109,3,NA
fcp-trial,150,719547,0.0-119.0-0.0,voc_e2,12273,"[{""event"":""fullscreenenter"",""trial"":1,""time"":2279}]",NA,NA,NA,NA,NA,3,#1CD855,#FA92F8,0,10,0,40,0,622.4000000003725,37,1,414.4000000003726,0,0,experiment,NA,NA,1,0.3,0.7,3,2,110,3,NA
fcp-trial,151,722394,0.0-120.0-0.0,voc_e2,12273,"[{""event"":""fullscreenenter"",""trial"":1,""time"":2279}]",NA,NA,NA,NA,NA,1,#741CD8,#D8271C,10,0,1,40,0,865.1999999992549,37,1,453.4000000003726,10,1,experiment,NA,NA,2,0.5,0.5,4,5,111,3,NA
fcp-trial,152,725029,0.0-121.0-0.0,voc_e2,12273,"[{""event"":""fullscreenenter"",""trial"":1,""time"":2279}]",NA,NA,NA,NA,NA,5,#3386FF,#D89F1C,0,10,0,40,0,688.1999999992549,37,1,432.5,0,0,experiment,NA,NA,0,0.1,0.9,1,0,112,3,NA
fcp-trial,153,727794,0.0-122.0-0.0,voc_e2,12273,"[{""event"":""fullscreenenter"",""trial"":1,""time"":2279}]",NA,NA,NA,NA,NA,1,#3386FF,#D89F1C,0,10,0,40,0,696.2999999988824,39,0,545,10,1,experiment,NA,NA,0,0.1,0.9,1,0,113,3,NA
fcp-trial,154,730644,0.0-123.0-0.0,voc_e2,12273,"[{""event"":""fullscreenenter"",""trial"":1,""time"":2279}]",NA,NA,NA,NA,NA,3,#D8271C,#741CD8,10,10,0,40,0,794.3999999985099,37,1,540.2000000011176,10,0,experiment,NA,NA,2,0.5,0.5,5,4,114,3,NA
fcp-trial,155,733410,0.0-124.0-0.0,voc_e2,12273,"[{""event"":""fullscreenenter"",""trial"":1,""time"":2279}]",NA,NA,NA,NA,NA,1,#1CD855,#FA92F8,0,10,0,40,0,790,37,1,453.7999999988824,0,0,experiment,NA,NA,1,0.3,0.7,3,2,115,3,NA
fcp-trial,156,735999,0.0-125.0-0.0,voc_e2,12273,"[{""event"":""fullscreenenter"",""trial"":1,""time"":2279}]",NA,NA,NA,NA,NA,6,#1CD855,#FA92F8,0,10,0,40,0,625.3000000007451,39,0,451.9000000003726,10,1,experiment,NA,NA,1,0.3,0.7,3,2,116,3,NA
fcp-trial,157,738886,0.0-126.0-0.0,voc_e2,12273,"[{""event"":""fullscreenenter"",""trial"":1,""time"":2279}]",NA,NA,NA,NA,NA,2,#3386FF,#D89F1C,10,10,0,40,0,796.8999999985099,37,1,583.5999999996275,10,0,experiment,NA,NA,0,0.1,0.9,1,0,117,3,NA
fcp-trial,158,741893,0.0-127.0-0.0,voc_e2,12273,"[{""event"":""fullscreenenter"",""trial"":1,""time"":2279}]",NA,NA,NA,NA,NA,4,#1CD855,#FA92F8,0,10,0,40,0,887.2999999988824,39,0,613,10,1,experiment,NA,NA,1,0.3,0.7,3,2,118,3,NA
fcp-trial,159,744949,0.0-128.0-0.0,voc_e2,12273,"[{""event"":""fullscreenenter"",""trial"":1,""time"":2279}]",NA,NA,NA,NA,NA,4,#741CD8,#D8271C,0,0,1,40,0,702.5,39,0,846.5,0,0,experiment,NA,NA,2,0.5,0.5,4,5,119,3,NA
fcp-trial,160,747758,0.0-129.0-0.0,voc_e2,12273,"[{""event"":""fullscreenenter"",""trial"":1,""time"":2279}]",NA,NA,NA,NA,NA,5,#FA92F8,#1CD855,10,10,1,40,0,694.2999999988824,37,1,608.0999999996275,10,1,experiment,NA,NA,1,0.7,0.3,2,3,120,3,NA
fcp-trial,161,750615,0.0-130.0-0.0,voc_e2,12273,"[{""event"":""fullscreenenter"",""trial"":1,""time"":2279}]",NA,NA,NA,NA,NA,3,#3386FF,#D89F1C,0,10,0,40,0,815.5,37,1,534.6000000014901,0,0,experiment,NA,NA,0,0.1,0.9,1,0,121,3,NA
fcp-trial,162,753502,0.0-131.0-0.0,voc_e2,12273,"[{""event"":""fullscreenenter"",""trial"":1,""time"":2279}]",NA,NA,NA,NA,NA,0,#1CD855,#FA92F8,0,0,0,38,1,918,39,0,462.30000000074506,0,1,experiment,NA,NA,1,0.3,0.7,3,2,122,3,NA
fcp-trial,163,756333,0.0-132.0-0.0,voc_e2,12273,"[{""event"":""fullscreenenter"",""trial"":1,""time"":2279}]",NA,NA,NA,NA,NA,6,#D89F1C,#3386FF,10,0,1,40,0,877.2000000011176,39,0,446.5,0,0,experiment,NA,NA,0,0.9,0.1,0,1,123,3,NA
fcp-trial,164,758957,0.0-133.0-0.0,voc_e2,12273,"[{""event"":""fullscreenenter"",""trial"":1,""time"":2279}]",NA,NA,NA,NA,NA,6,#741CD8,#D8271C,10,0,1,40,0,647.9000000003725,39,0,470.19999999925494,0,0,experiment,NA,NA,2,0.5,0.5,4,5,124,3,NA
fcp-trial,165,761927,0.0-134.0-0.0,voc_e2,12273,"[{""event"":""fullscreenenter"",""trial"":1,""time"":2279}]",NA,NA,NA,NA,NA,0,#3386FF,#D89F1C,0,10,0,38,1,782.4000000003725,37,1,677.9000000003725,0,0,experiment,NA,NA,0,0.1,0.9,1,0,125,3,NA
fcp-trial,166,764701,0.0-135.0-0.0,voc_e2,12273,"[{""event"":""fullscreenenter"",""trial"":1,""time"":2279}]",NA,NA,NA,NA,NA,0,#741CD8,#D8271C,10,0,1,38,1,646.2999999988824,39,0,621.6999999992549,0,0,experiment,NA,NA,2,0.5,0.5,4,5,126,3,NA
fcp-trial,167,767405,0.0-136.0-0.0,voc_e2,12273,"[{""event"":""fullscreenenter"",""trial"":1,""time"":2279}]",NA,NA,NA,NA,NA,3,#D89F1C,#3386FF,10,0,1,40,0,758.4000000003725,39,0,438.30000000074506,0,0,experiment,NA,NA,0,0.9,0.1,0,1,127,3,NA
fcp-trial,168,770478,0.0-137.0-0.0,voc_e2,12273,"[{""event"":""fullscreenenter"",""trial"":1,""time"":2279}]",NA,NA,NA,NA,NA,0,#3386FF,#D89F1C,0,10,0,38,1,1046.699999999255,37,1,518.8999999985099,0,0,experiment,NA,NA,0,0.1,0.9,1,0,128,3,NA
fcp-trial,169,773296,0.0-138.0-0.0,voc_e2,12273,"[{""event"":""fullscreenenter"",""trial"":1,""time"":2279}]",NA,NA,NA,NA,NA,5,#FA92F8,#1CD855,0,10,1,40,0,847.5999999996275,39,0,462.9000000003726,10,0,experiment,NA,NA,1,0.7,0.3,2,3,129,3,NA
fcp-trial,170,776190,0.0-139.0-0.0,voc_e2,12273,"[{""event"":""fullscreenenter"",""trial"":1,""time"":2279}]",NA,NA,NA,NA,NA,4,#1CD855,#FA92F8,0,0,0,40,0,916.6999999992549,37,1,471.4000000003726,0,0,experiment,NA,NA,1,0.3,0.7,3,2,130,3,NA
fcp-trial,171,778941,0.0-140.0-0.0,voc_e2,12273,"[{""event"":""fullscreenenter"",""trial"":1,""time"":2279}]",NA,NA,NA,NA,NA,2,#741CD8,#D8271C,10,0,1,40,0,778.5999999996275,37,1,463.30000000074506,10,1,experiment,NA,NA,2,0.5,0.5,4,5,131,3,NA
fcp-trial,172,781669,0.0-141.0-0.0,voc_e2,12273,"[{""event"":""fullscreenenter"",""trial"":1,""time"":2279}]",NA,NA,NA,NA,NA,5,#D89F1C,#3386FF,10,0,1,40,0,719.9000000003725,37,1,502.5999999996274,10,1,experiment,NA,NA,0,0.9,0.1,0,1,132,3,NA
fcp-trial,173,784406,0.0-142.0-0.0,voc_e2,12273,"[{""event"":""fullscreenenter"",""trial"":1,""time"":2279}]",NA,NA,NA,NA,NA,5,#741CD8,#D8271C,0,10,1,40,0,737.2000000011176,39,0,494.0999999996274,10,0,experiment,NA,NA,2,0.5,0.5,4,5,133,3,NA
fcp-trial,174,787460,0.0-143.0-0.0,voc_e2,12273,"[{""event"":""fullscreenenter"",""trial"":1,""time"":2279}]",NA,NA,NA,NA,NA,0,#FA92F8,#1CD855,10,0,1,38,1,949.3000000007451,39,0,598.2000000011176,0,0,experiment,NA,NA,1,0.7,0.3,2,3,134,3,NA
fcp-trial,175,791213,0.0-144.0-0.0,voc_e2,12273,"[{""event"":""fullscreenenter"",""trial"":1,""time"":2279}]",NA,NA,NA,NA,NA,0,#741CD8,#D8271C,10,0,1,38,1,1496.4000000003725,39,0,750.4000000003725,0,0,experiment,NA,NA,2,0.5,0.5,4,5,135,3,NA
fcp-trial,176,795022,0.0-145.0-0.0,voc_e2,12273,"[{""event"":""fullscreenenter"",""trial"":1,""time"":2279}]",NA,NA,NA,NA,NA,1,#1CD855,#FA92F8,10,10,0,38,1,1688.7000000011176,37,1,614.5999999996275,10,0,experiment,NA,NA,1,0.3,0.7,3,2,136,4,NA
fcp-trial,177,798359,0.0-146.0-0.0,voc_e2,12273,"[{""event"":""fullscreenenter"",""trial"":1,""time"":2279}]",NA,NA,NA,NA,NA,1,#D89F1C,#3386FF,10,0,1,38,1,797.1000000014901,37,1,1032.300000000745,10,1,experiment,NA,NA,0,0.9,0.1,0,1,137,4,NA
fcp-trial,178,801484,0.0-147.0-0.0,voc_e2,12273,"[{""event"":""fullscreenenter"",""trial"":1,""time"":2279}]",NA,NA,NA,NA,NA,3,#741CD8,#D8271C,0,0,1,40,0,964.6999999992549,37,1,653.5999999996275,0,1,experiment,NA,NA,2,0.5,0.5,4,5,138,4,NA
fcp-trial,179,804438,0.0-148.0-0.0,voc_e2,12273,"[{""event"":""fullscreenenter"",""trial"":1,""time"":2279}]",NA,NA,NA,NA,NA,4,#3386FF,#D89F1C,0,10,0,40,0,888.6999999992549,39,0,558.7000000011176,10,1,experiment,NA,NA,0,0.1,0.9,1,0,139,4,NA
fcp-trial,180,807071,0.0-149.0-0.0,voc_e2,12273,"[{""event"":""fullscreenenter"",""trial"":1,""time"":2279}]",NA,NA,NA,NA,NA,6,#3386FF,#D89F1C,0,10,0,40,0,676.4000000003725,37,1,447.5999999996274,0,0,experiment,NA,NA,0,0.1,0.9,1,0,140,4,NA
fcp-trial,181,809806,0.0-150.0-0.0,voc_e2,12273,"[{""event"":""fullscreenenter"",""trial"":1,""time"":2279}]",NA,NA,NA,NA,NA,3,#1CD855,#FA92F8,0,10,0,40,0,756.2000000011176,39,0,470.69999999925494,10,1,experiment,NA,NA,1,0.3,0.7,3,2,141,4,NA
fcp-trial,182,812711,0.0-151.0-0.0,voc_e2,12273,"[{""event"":""fullscreenenter"",""trial"":1,""time"":2279}]",NA,NA,NA,NA,NA,6,#1CD855,#FA92F8,10,10,0,40,0,764.8999999985099,39,0,629.9000000003725,10,1,experiment,NA,NA,1,0.3,0.7,3,2,142,4,NA
fcp-trial,183,815711,0.0-152.0-0.0,voc_e2,12273,"[{""event"":""fullscreenenter"",""trial"":1,""time"":2279}]",NA,NA,NA,NA,NA,6,#D8271C,#741CD8,0,10,0,40,0,877.3999999985099,39,0,615.0999999996275,10,1,experiment,NA,NA,2,0.5,0.5,5,4,143,4,NA
fcp-trial,184,818439,0.0-153.0-0.0,voc_e2,12273,"[{""event"":""fullscreenenter"",""trial"":1,""time"":2279}]",NA,NA,NA,NA,NA,2,#3386FF,#D89F1C,0,10,0,40,0,813.5999999996275,39,0,406.7999999988824,10,1,experiment,NA,NA,0,0.1,0.9,1,0,144,4,NA
fcp-trial,185,820980,0.0-154.0-0.0,voc_e2,12273,"[{""event"":""fullscreenenter"",""trial"":1,""time"":2279}]",NA,NA,NA,NA,NA,2,#1CD855,#FA92F8,0,10,0,40,0,588.7000000011176,39,0,444.8999999985099,10,1,experiment,NA,NA,1,0.3,0.7,3,2,145,4,NA
fcp-trial,186,823533,0.0-155.0-0.0,voc_e2,12273,"[{""event"":""fullscreenenter"",""trial"":1,""time"":2279}]",NA,NA,NA,NA,NA,4,#741CD8,#D8271C,0,10,1,40,0,639.1000000014901,37,1,407,0,1,experiment,NA,NA,2,0.5,0.5,4,5,146,4,NA
fcp-trial,187,826239,0.0-156.0-0.0,voc_e2,12273,"[{""event"":""fullscreenenter"",""trial"":1,""time"":2279}]",NA,NA,NA,NA,NA,1,#D8271C,#741CD8,10,0,0,40,0,758.0999999996275,37,1,439.4000000003726,10,0,experiment,NA,NA,2,0.5,0.5,5,4,147,4,NA
fcp-trial,188,828854,0.0-157.0-0.0,voc_e2,12273,"[{""event"":""fullscreenenter"",""trial"":1,""time"":2279}]",NA,NA,NA,NA,NA,5,#D89F1C,#3386FF,0,0,1,40,0,674.5999999996275,37,1,430.4000000003726,0,1,experiment,NA,NA,0,0.9,0.1,0,1,148,4,NA
fcp-trial,189,831598,0.0-158.0-0.0,voc_e2,12273,"[{""event"":""fullscreenenter"",""trial"":1,""time"":2279}]",NA,NA,NA,NA,NA,3,#D8271C,#741CD8,0,0,0,40,0,836,37,1,398.7000000011176,0,0,experiment,NA,NA,2,0.5,0.5,5,4,149,4,NA
fcp-trial,190,834727,0.0-159.0-0.0,voc_e2,12273,"[{""event"":""fullscreenenter"",""trial"":1,""time"":2279}]",NA,NA,NA,NA,NA,0,#3386FF,#D89F1C,0,10,0,38,1,812.9000000003725,37,1,807.9000000003725,0,0,experiment,NA,NA,0,0.1,0.9,1,0,150,4,NA
fcp-trial,191,837454,0.0-160.0-0.0,voc_e2,12273,"[{""event"":""fullscreenenter"",""trial"":1,""time"":2279}]",NA,NA,NA,NA,NA,6,#FA92F8,#1CD855,10,0,1,40,0,797.5999999996275,39,0,422.6000000014901,0,0,experiment,NA,NA,1,0.7,0.3,2,3,151,4,NA
fcp-trial,192,840845,0.0-161.0-0.0,voc_e2,12273,"[{""event"":""fullscreenenter"",""trial"":1,""time"":2279}]",NA,NA,NA,NA,NA,1,#1CD855,#FA92F8,10,10,0,38,1,1548.300000000745,39,0,334.2999999988824,10,1,experiment,NA,NA,1,0.3,0.7,3,2,152,4,NA
fcp-trial,193,843798,0.0-162.0-0.0,voc_e2,12273,"[{""event"":""fullscreenenter"",""trial"":1,""time"":2279}]",NA,NA,NA,NA,NA,6,#D89F1C,#3386FF,10,0,1,40,0,975.8000000007451,37,1,469.6000000014901,10,1,experiment,NA,NA,0,0.9,0.1,0,1,153,4,NA
fcp-trial,194,846997,0.0-163.0-0.0,voc_e2,12273,"[{""event"":""fullscreenenter"",""trial"":1,""time"":2279}]",NA,NA,NA,NA,NA,1,#D8271C,#741CD8,0,10,0,38,1,973.6999999992549,39,0,705.7999999988824,10,1,experiment,NA,NA,2,0.5,0.5,5,4,154,4,NA
fcp-trial,195,850318,0.0-164.0-0.0,voc_e2,12273,"[{""event"":""fullscreenenter"",""trial"":1,""time"":2279}]",NA,NA,NA,NA,NA,4,#D8271C,#741CD8,0,0,0,40,0,1304.5,39,0,508.5,0,1,experiment,NA,NA,2,0.5,0.5,5,4,155,4,NA
fcp-trial,196,853102,0.0-165.0-0.0,voc_e2,12273,"[{""event"":""fullscreenenter"",""trial"":1,""time"":2279}]",NA,NA,NA,NA,NA,4,#D89F1C,#3386FF,10,0,1,40,0,790,39,0,488,0,0,experiment,NA,NA,0,0.9,0.1,0,1,156,4,NA
fcp-trial,197,855815,0.0-166.0-0.0,voc_e2,12273,"[{""event"":""fullscreenenter"",""trial"":1,""time"":2279}]",NA,NA,NA,NA,NA,2,#1CD855,#FA92F8,0,0,0,40,0,797.1999999992549,37,1,405.4000000003726,0,0,experiment,NA,NA,1,0.3,0.7,3,2,157,4,NA
fcp-trial,198,858518,0.0-167.0-0.0,voc_e2,12273,"[{""event"":""fullscreenenter"",""trial"":1,""time"":2279}]",NA,NA,NA,NA,NA,2,#D8271C,#741CD8,10,0,0,40,0,748.5999999996275,37,1,446.5999999996274,10,0,experiment,NA,NA,2,0.5,0.5,5,4,158,4,NA
fcp-trial,199,861319,0.0-168.0-0.0,voc_e2,12273,"[{""event"":""fullscreenenter"",""trial"":1,""time"":2279}]",NA,NA,NA,NA,NA,6,#D8271C,#741CD8,0,0,0,40,0,829.3999999985099,37,1,460.80000000074506,0,0,experiment,NA,NA,2,0.5,0.5,5,4,159,4,NA
fcp-trial,200,864278,0.0-169.0-0.0,voc_e2,12273,"[{""event"":""fullscreenenter"",""trial"":1,""time"":2279}]",NA,NA,NA,NA,NA,0,#FA92F8,#1CD855,10,0,1,38,1,986.5999999996275,39,0,462.69999999925494,0,0,experiment,NA,NA,1,0.7,0.3,2,3,160,4,NA
fcp-trial,201,867398,0.0-170.0-0.0,voc_e2,12273,"[{""event"":""fullscreenenter"",""trial"":1,""time"":2279}]",NA,NA,NA,NA,NA,2,#D89F1C,#3386FF,10,0,1,40,0,1134.7999999988824,39,0,478.19999999925494,0,0,experiment,NA,NA,0,0.9,0.1,0,1,161,4,NA
fcp-trial,202,870261,0.0-171.0-0.0,voc_e2,12273,"[{""event"":""fullscreenenter"",""trial"":1,""time"":2279}]",NA,NA,NA,NA,NA,4,#1CD855,#FA92F8,0,10,0,40,0,940.8000000007451,39,0,414.5,10,1,experiment,NA,NA,1,0.3,0.7,3,2,162,4,NA
fcp-trial,203,872894,0.0-172.0-0.0,voc_e2,12273,"[{""event"":""fullscreenenter"",""trial"":1,""time"":2279}]",NA,NA,NA,NA,NA,3,#FA92F8,#1CD855,10,0,1,40,0,686.8999999985099,39,0,438.7999999988824,0,0,experiment,NA,NA,1,0.7,0.3,2,3,163,4,NA
fcp-trial,204,875877,0.0-173.0-0.0,voc_e2,12273,"[{""event"":""fullscreenenter"",""trial"":1,""time"":2279}]",NA,NA,NA,NA,NA,0,#D8271C,#741CD8,0,0,0,38,1,1030.199999999255,37,1,445.5999999996274,0,0,experiment,NA,NA,2,0.5,0.5,5,4,164,4,NA
fcp-trial,205,878725,0.0-174.0-0.0,voc_e2,12273,"[{""event"":""fullscreenenter"",""trial"":1,""time"":2279}]",NA,NA,NA,NA,NA,5,#741CD8,#D8271C,0,0,1,40,0,854.4000000003725,37,1,485.0999999996274,0,1,experiment,NA,NA,2,0.5,0.5,4,5,165,4,NA
fcp-trial,206,881639,0.0-175.0-0.0,voc_e2,12273,"[{""event"":""fullscreenenter"",""trial"":1,""time"":2279}]",NA,NA,NA,NA,NA,3,#D89F1C,#3386FF,10,0,1,40,0,943.5,39,0,464,0,0,experiment,NA,NA,0,0.9,0.1,0,1,166,4,NA
fcp-trial,207,884381,0.0-176.0-0.0,voc_e2,12273,"[{""event"":""fullscreenenter"",""trial"":1,""time"":2279}]",NA,NA,NA,NA,NA,1,#D89F1C,#3386FF,10,0,1,38,1,772.7999999988824,39,0,461.69999999925494,0,0,experiment,NA,NA,0,0.9,0.1,0,1,167,4,NA
fcp-trial,208,887078,0.0-177.0-0.0,voc_e2,12273,"[{""event"":""fullscreenenter"",""trial"":1,""time"":2279}]",NA,NA,NA,NA,NA,5,#FA92F8,#1CD855,10,10,1,40,0,773,39,0,415.3999999985099,10,0,experiment,NA,NA,1,0.7,0.3,2,3,168,4,NA
fcp-trial,209,889909,0.0-178.0-0.0,voc_e2,12273,"[{""event"":""fullscreenenter"",""trial"":1,""time"":2279}]",NA,NA,NA,NA,NA,4,#D89F1C,#3386FF,10,0,1,40,0,903.0999999996275,37,1,419.69999999925494,10,1,experiment,NA,NA,0,0.9,0.1,0,1,169,4,NA
fcp-trial,210,893591,0.0-179.0-0.0,voc_e2,12273,"[{""event"":""fullscreenenter"",""trial"":1,""time"":2279}]",NA,NA,NA,NA,NA,6,#741CD8,#D8271C,0,10,1,40,0,1559.5999999996275,37,1,614.4000000003725,0,1,experiment,NA,NA,2,0.5,0.5,4,5,170,4,NA
fcp-trial,211,896061,0.0-180.0-0.0,voc_e2,12273,"[{""event"":""fullscreenenter"",""trial"":1,""time"":2279}]",NA,NA,NA,NA,NA,6,#3386FF,#D89F1C,0,0,0,40,0,573.4000000003725,37,1,388.30000000074506,0,0,experiment,NA,NA,0,0.1,0.9,1,0,171,4,NA
fcp-trial,212,899272,0.0-181.0-0.0,voc_e2,12273,"[{""event"":""fullscreenenter"",""trial"":1,""time"":2279}]",NA,NA,NA,NA,NA,0,#1CD855,#FA92F8,0,10,0,38,1,814,37,1,889.2000000011176,0,0,experiment,NA,NA,1,0.3,0.7,3,2,172,4,NA
fcp-trial,213,902141,0.0-182.0-0.0,voc_e2,12273,"[{""event"":""fullscreenenter"",""trial"":1,""time"":2279}]",NA,NA,NA,NA,NA,2,#741CD8,#D8271C,10,0,1,40,0,972.7000000011176,37,1,389.80000000074506,10,1,experiment,NA,NA,2,0.5,0.5,4,5,173,4,NA
fcp-trial,214,904904,0.0-183.0-0.0,voc_e2,12273,"[{""event"":""fullscreenenter"",""trial"":1,""time"":2279}]",NA,NA,NA,NA,NA,5,#FA92F8,#1CD855,10,0,1,40,0,809.5,39,0,446.1000000014901,0,0,experiment,NA,NA,1,0.7,0.3,2,3,174,4,NA
fcp-trial,215,907636,0.0-184.0-0.0,voc_e2,12273,"[{""event"":""fullscreenenter"",""trial"":1,""time"":2279}]",NA,NA,NA,NA,NA,2,#FA92F8,#1CD855,10,0,1,40,0,812.5999999996275,39,0,414.30000000074506,0,0,experiment,NA,NA,1,0.7,0.3,2,3,175,4,NA
fcp-trial,216,910456,0.0-185.0-0.0,voc_e2,12273,"[{""event"":""fullscreenenter"",""trial"":1,""time"":2279}]",NA,NA,NA,NA,NA,5,#3386FF,#D89F1C,0,10,0,40,0,777.5999999996275,37,1,534.1999999992549,0,0,experiment,NA,NA,0,0.1,0.9,1,0,176,4,NA
fcp-trial,217,913542,0.0-186.0-0.0,voc_e2,12273,"[{""event"":""fullscreenenter"",""trial"":1,""time"":2279}]",NA,NA,NA,NA,NA,1,#1CD855,#FA92F8,10,10,0,38,1,1149.4000000003725,39,0,429.5,10,1,experiment,NA,NA,1,0.3,0.7,3,2,177,4,NA
fcp-trial,218,916519,0.0-187.0-0.0,voc_e2,12273,"[{""event"":""fullscreenenter"",""trial"":1,""time"":2279}]",NA,NA,NA,NA,NA,4,#741CD8,#D8271C,0,0,1,40,0,958.8000000007451,39,0,509.9000000003726,0,0,experiment,NA,NA,2,0.5,0.5,4,5,178,4,NA
fcp-trial,219,919509,0.0-188.0-0.0,voc_e2,12273,"[{""event"":""fullscreenenter"",""trial"":1,""time"":2279}]",NA,NA,NA,NA,NA,1,#D89F1C,#3386FF,0,0,1,38,1,1014.8000000007451,37,1,469,0,1,experiment,NA,NA,0,0.9,0.1,0,1,179,4,NA
fcp-trial,220,922141,0.0-189.0-0.0,voc_e2,12273,"[{""event"":""fullscreenenter"",""trial"":1,""time"":2279}]",NA,NA,NA,NA,NA,4,#FA92F8,#1CD855,10,10,1,40,0,694,39,0,431.5,10,0,experiment,NA,NA,1,0.7,0.3,2,3,180,4,NA
fcp-trial,221,924941,0.0-190.0-0.0,voc_e2,12273,"[{""event"":""fullscreenenter"",""trial"":1,""time"":2279}]",NA,NA,NA,NA,NA,3,#D8271C,#741CD8,10,10,0,40,0,865.1999999992549,37,1,431.5,10,0,experiment,NA,NA,2,0.5,0.5,5,4,181,5,NA
fcp-trial,222,928062,0.0-191.0-0.0,voc_e2,12273,"[{""event"":""fullscreenenter"",""trial"":1,""time"":2279}]",NA,NA,NA,NA,NA,2,#D89F1C,#3386FF,10,0,1,38,1,1151.199999999255,39,0,462.2999999988824,0,0,experiment,NA,NA,0,0.9,0.1,0,1,182,5,NA
fcp-trial,223,930972,0.0-192.0-0.0,voc_e2,12273,"[{""event"":""fullscreenenter"",""trial"":1,""time"":2279}]",NA,NA,NA,NA,NA,0,#741CD8,#D8271C,10,10,1,38,1,870.1999999992549,39,0,534.5999999996275,10,0,experiment,NA,NA,2,0.5,0.5,4,5,183,5,NA
fcp-trial,224,934172,0.0-193.0-0.0,voc_e2,12273,"[{""event"":""fullscreenenter"",""trial"":1,""time"":2279}]",NA,NA,NA,NA,NA,3,#FA92F8,#1CD855,0,0,1,40,0,888.4000000003725,37,1,806,0,1,experiment,NA,NA,1,0.7,0.3,2,3,184,5,NA
fcp-trial,225,937980,0.0-194.0-0.0,voc_e2,12273,"[{""event"":""fullscreenenter"",""trial"":1,""time"":2279}]",NA,NA,NA,NA,NA,0,#3386FF,#D89F1C,0,10,0,38,1,856.2999999988824,37,1,1443,0,0,experiment,NA,NA,0,0.1,0.9,1,0,185,5,NA
fcp-trial,226,940990,0.0-195.0-0.0,voc_e2,12273,"[{""event"":""fullscreenenter"",""trial"":1,""time"":2279}]",NA,NA,NA,NA,NA,6,#FA92F8,#1CD855,10,0,1,40,0,1052.199999999255,39,0,449.3999999985099,0,0,experiment,NA,NA,1,0.7,0.3,2,3,186,5,NA
fcp-trial,227,943653,0.0-196.0-0.0,voc_e2,12273,"[{""event"":""fullscreenenter"",""trial"":1,""time"":2279}]",NA,NA,NA,NA,NA,1,#D8271C,#741CD8,10,0,0,38,1,725.2999999988824,39,0,431.1000000014901,0,1,experiment,NA,NA,2,0.5,0.5,5,4,187,5,NA
fcp-trial,228,946372,0.0-197.0-0.0,voc_e2,12273,"[{""event"":""fullscreenenter"",""trial"":1,""time"":2279}]",NA,NA,NA,NA,NA,3,#D89F1C,#3386FF,10,0,1,40,0,839,39,0,373.3999999985099,0,0,experiment,NA,NA,0,0.9,0.1,0,1,188,5,NA
fcp-trial,229,948893,0.0-198.0-0.0,voc_e2,12273,"[{""event"":""fullscreenenter"",""trial"":1,""time"":2279}]",NA,NA,NA,NA,NA,5,#D8271C,#741CD8,10,10,0,40,0,663.5,39,0,349.69999999925494,10,1,experiment,NA,NA,2,0.5,0.5,5,4,189,5,NA
fcp-trial,230,951702,0.0-199.0-0.0,voc_e2,12273,"[{""event"":""fullscreenenter"",""trial"":1,""time"":2279}]",NA,NA,NA,NA,NA,4,#741CD8,#D8271C,10,0,1,40,0,656.8999999985099,37,1,647.0999999996275,10,1,experiment,NA,NA,2,0.5,0.5,4,5,190,5,NA
fcp-trial,231,954918,0.0-200.0-0.0,voc_e2,12273,"[{""event"":""fullscreenenter"",""trial"":1,""time"":2279}]",NA,NA,NA,NA,NA,1,#D89F1C,#3386FF,10,0,1,38,1,1165.7999999988824,37,1,543.4000000003725,10,1,experiment,NA,NA,0,0.9,0.1,0,1,191,5,NA
fcp-trial,232,958870,0.0-201.0-0.0,voc_e2,12273,"[{""event"":""fullscreenenter"",""trial"":1,""time"":2279}]",NA,NA,NA,NA,NA,3,#3386FF,#D89F1C,0,0,0,40,0,1022.8000000007451,37,1,1423.2999999988824,0,0,experiment,NA,NA,0,0.1,0.9,1,0,192,5,NA
fcp-trial,233,962053,0.0-202.0-0.0,voc_e2,12273,"[{""event"":""fullscreenenter"",""trial"":1,""time"":2279}]",NA,NA,NA,NA,NA,0,#741CD8,#D8271C,10,0,1,38,1,1082,37,1,595.7999999988824,10,1,experiment,NA,NA,2,0.5,0.5,4,5,193,5,NA
fcp-trial,234,965183,0.0-203.0-0.0,voc_e2,12273,"[{""event"":""fullscreenenter"",""trial"":1,""time"":2279}]",NA,NA,NA,NA,NA,1,#1CD855,#FA92F8,0,10,0,38,1,1056.199999999255,37,1,566.7000000011176,0,0,experiment,NA,NA,1,0.3,0.7,3,2,194,5,NA
fcp-trial,235,968246,0.0-204.0-0.0,voc_e2,12273,"[{""event"":""fullscreenenter"",""trial"":1,""time"":2279}]",NA,NA,NA,NA,NA,4,#3386FF,#D89F1C,0,10,0,40,0,878.0999999996275,37,1,677.2000000011176,0,0,experiment,NA,NA,0,0.1,0.9,1,0,195,5,NA
fcp-trial,236,971430,0.0-205.0-0.0,voc_e2,12273,"[{""event"":""fullscreenenter"",""trial"":1,""time"":2279}]",NA,NA,NA,NA,NA,6,#3386FF,#D89F1C,10,10,0,40,0,1091,37,1,582.5,10,0,experiment,NA,NA,0,0.1,0.9,1,0,196,5,NA
fcp-trial,237,974157,0.0-206.0-0.0,voc_e2,12273,"[{""event"":""fullscreenenter"",""trial"":1,""time"":2279}]",NA,NA,NA,NA,NA,4,#1CD855,#FA92F8,10,10,0,40,0,745.2999999988824,37,1,469.1000000014901,10,0,experiment,NA,NA,1,0.3,0.7,3,2,197,5,NA
fcp-trial,238,977340,0.0-207.0-0.0,voc_e2,12273,"[{""event"":""fullscreenenter"",""trial"":1,""time"":2279}]",NA,NA,NA,NA,NA,1,#D8271C,#741CD8,0,10,0,38,1,903,39,0,771.7000000011176,10,1,experiment,NA,NA,2,0.5,0.5,5,4,198,5,NA
fcp-trial,239,980389,0.0-208.0-0.0,voc_e2,12273,"[{""event"":""fullscreenenter"",""trial"":1,""time"":2279}]",NA,NA,NA,NA,NA,0,#1CD855,#FA92F8,10,0,0,38,1,878.9000000003725,37,1,662.4000000003725,10,0,experiment,NA,NA,1,0.3,0.7,3,2,199,5,NA
fcp-trial,240,983741,0.0-209.0-0.0,voc_e2,12273,"[{""event"":""fullscreenenter"",""trial"":1,""time"":2279}]",NA,NA,NA,NA,NA,3,#FA92F8,#1CD855,10,0,1,40,0,1151.4000000003725,37,1,693.2999999988824,10,1,experiment,NA,NA,1,0.7,0.3,2,3,200,5,NA
fcp-trial,241,988542,0.0-210.0-0.0,voc_e2,12273,"[{""event"":""fullscreenenter"",""trial"":1,""time"":2279}]",NA,NA,NA,NA,NA,2,#3386FF,#D89F1C,0,10,0,38,1,2189.4000000003725,39,0,1102.7000000011176,10,1,experiment,NA,NA,0,0.1,0.9,1,0,201,5,NA
fcp-trial,242,991853,0.0-211.0-0.0,voc_e2,12273,"[{""event"":""fullscreenenter"",""trial"":1,""time"":2279}]",NA,NA,NA,NA,NA,3,#741CD8,#D8271C,10,0,1,40,0,1333.5999999996275,37,1,468.9000000003726,10,1,experiment,NA,NA,2,0.5,0.5,4,5,202,5,NA
fcp-trial,243,994869,0.0-212.0-0.0,voc_e2,12273,"[{""event"":""fullscreenenter"",""trial"":1,""time"":2279}]",NA,NA,NA,NA,NA,6,#D8271C,#741CD8,0,10,0,40,0,998.5999999996275,39,0,510.5999999996274,10,1,experiment,NA,NA,2,0.5,0.5,5,4,203,5,NA
fcp-trial,244,997732,0.0-213.0-0.0,voc_e2,12273,"[{""event"":""fullscreenenter"",""trial"":1,""time"":2279}]",NA,NA,NA,NA,NA,6,#1CD855,#FA92F8,0,10,0,40,0,934.4000000003725,37,1,422.0999999996274,0,0,experiment,NA,NA,1,0.3,0.7,3,2,204,5,NA
fcp-trial,245,1000836,0.0-214.0-0.0,voc_e2,12273,"[{""event"":""fullscreenenter"",""trial"":1,""time"":2279}]",NA,NA,NA,NA,NA,5,#D89F1C,#3386FF,10,0,1,40,0,1146.0999999996275,39,0,452.0999999996274,0,0,experiment,NA,NA,0,0.9,0.1,0,1,205,5,NA
fcp-trial,246,1003733,0.0-215.0-0.0,voc_e2,12273,"[{""event"":""fullscreenenter"",""trial"":1,""time"":2279}]",NA,NA,NA,NA,NA,5,#741CD8,#D8271C,10,0,1,40,0,967.0999999996275,39,0,423.5,0,0,experiment,NA,NA,2,0.5,0.5,4,5,206,5,NA
fcp-trial,247,1007646,0.0-216.0-0.0,voc_e2,12273,"[{""event"":""fullscreenenter"",""trial"":1,""time"":2279}]",NA,NA,NA,NA,NA,0,#D89F1C,#3386FF,10,0,1,38,1,934.4000000003725,37,1,1470.5,10,1,experiment,NA,NA,0,0.9,0.1,0,1,207,5,NA
fcp-trial,248,1010989,0.0-217.0-0.0,voc_e2,12273,"[{""event"":""fullscreenenter"",""trial"":1,""time"":2279}]",NA,NA,NA,NA,NA,2,#1CD855,#FA92F8,0,10,0,38,1,1186.4000000003725,37,1,646.5,0,0,experiment,NA,NA,1,0.3,0.7,3,2,208,5,NA
fcp-trial,249,1014429,0.0-218.0-0.0,voc_e2,12273,"[{""event"":""fullscreenenter"",""trial"":1,""time"":2279}]",NA,NA,NA,NA,NA,2,#D8271C,#741CD8,10,10,0,38,1,1198.1000000014901,39,0,734.4000000003725,10,1,experiment,NA,NA,2,0.5,0.5,5,4,209,5,NA
fcp-trial,250,1017416,0.0-219.0-0.0,voc_e2,12273,"[{""event"":""fullscreenenter"",""trial"":1,""time"":2279}]",NA,NA,NA,NA,NA,5,#1CD855,#FA92F8,0,10,0,40,0,942.4000000003725,39,0,534.5,10,1,experiment,NA,NA,1,0.3,0.7,3,2,210,5,NA
audio-instructions,251,1023873,0.0-220.0,voc_e2,12273,"[{""event"":""fullscreenenter"",""trial"":1,""time"":2279}]",NA,1909.5999999996277,static/audio/pause.wav,NA,0,NA,NA,NA,NA,NA,NA,NA,NA,NA,NA,NA,NA,NA,NA,NA,NA,NA,NA,NA,NA,NA,NA,NA,NA,NA
fcp-trial,252,1026898,0.0-221.0-0.0,voc_e2,12273,"[{""event"":""fullscreenenter"",""trial"":1,""time"":2279}]",NA,NA,NA,NA,NA,6,#D89F1C,#3386FF,10,10,1,40,0,1113.699999999255,39,0,396.5,10,0,experiment,NA,NA,0,0.9,0.1,0,1,211,5,NA
fcp-trial,253,1029982,0.0-222.0-0.0,voc_e2,12273,"[{""event"":""fullscreenenter"",""trial"":1,""time"":2279}]",NA,NA,NA,NA,NA,1,#D8271C,#741CD8,0,0,0,38,1,1129.699999999255,37,1,427.0999999996274,0,0,experiment,NA,NA,2,0.5,0.5,5,4,212,5,NA
fcp-trial,254,1033115,0.0-223.0-0.0,voc_e2,12273,"[{""event"":""fullscreenenter"",""trial"":1,""time"":2279}]",NA,NA,NA,NA,NA,0,#D8271C,#741CD8,0,10,0,38,1,869,39,0,743,10,1,experiment,NA,NA,2,0.5,0.5,5,4,213,5,NA
fcp-trial,255,1036065,0.0-224.0-0.0,voc_e2,12273,"[{""event"":""fullscreenenter"",""trial"":1,""time"":2279}]",NA,NA,NA,NA,NA,2,#1CD855,#FA92F8,0,10,0,38,1,799,37,1,631.5,0,0,experiment,NA,NA,1,0.3,0.7,3,2,214,5,NA
fcp-trial,256,1038731,0.0-225.0-0.0,voc_e2,12273,"[{""event"":""fullscreenenter"",""trial"":1,""time"":2279}]",NA,NA,NA,NA,NA,1,#D89F1C,#3386FF,10,0,1,38,1,618.5,39,0,520.8000000007451,0,0,experiment,NA,NA,0,0.9,0.1,0,1,215,5,NA
fcp-trial,257,1041763,0.0-226.0-0.0,voc_e2,12273,"[{""event"":""fullscreenenter"",""trial"":1,""time"":2279}]",NA,NA,NA,NA,NA,5,#1CD855,#FA92F8,10,10,0,40,0,1064.5999999996275,39,0,454,10,1,experiment,NA,NA,1,0.3,0.7,3,2,216,5,NA
fcp-trial,258,1044328,0.0-227.0-0.0,voc_e2,12273,"[{""event"":""fullscreenenter"",""trial"":1,""time"":2279}]",NA,NA,NA,NA,NA,5,#D8271C,#741CD8,0,10,0,40,0,656.4000000003725,37,1,395.80000000074506,0,0,experiment,NA,NA,2,0.5,0.5,5,4,217,5,NA
fcp-trial,259,1047063,0.0-228.0-0.0,voc_e2,12273,"[{""event"":""fullscreenenter"",""trial"":1,""time"":2279}]",NA,NA,NA,NA,NA,2,#D89F1C,#3386FF,10,0,1,40,0,766.1999999992549,37,1,462.80000000074506,10,1,experiment,NA,NA,0,0.9,0.1,0,1,218,5,NA
fcp-trial,260,1049880,0.0-229.0-0.0,voc_e2,12273,"[{""event"":""fullscreenenter"",""trial"":1,""time"":2279}]",NA,NA,NA,NA,NA,4,#3386FF,#D89F1C,0,10,0,40,0,804.3999999985099,39,0,489.2000000011176,10,1,experiment,NA,NA,0,0.1,0.9,1,0,219,5,NA
fcp-trial,261,1052620,0.0-230.0-0.0,voc_e2,12273,"[{""event"":""fullscreenenter"",""trial"":1,""time"":2279}]",NA,NA,NA,NA,NA,2,#D8271C,#741CD8,10,10,0,40,0,780.2999999988824,39,0,453.5,10,1,experiment,NA,NA,2,0.5,0.5,5,4,220,5,NA
fcp-trial,262,1055709,0.0-231.0-0.0,voc_e2,12273,"[{""event"":""fullscreenenter"",""trial"":1,""time"":2279}]",NA,NA,NA,NA,NA,1,#FA92F8,#1CD855,10,0,1,38,1,758.3999999985099,37,1,824.0999999996275,10,1,experiment,NA,NA,1,0.7,0.3,2,3,221,5,NA
fcp-trial,263,1059549,0.0-232.0-0.0,voc_e2,12273,"[{""event"":""fullscreenenter"",""trial"":1,""time"":2279}]",NA,NA,NA,NA,NA,3,#3386FF,#D89F1C,0,10,0,40,0,1907.9000000003725,37,1,423.9000000003726,0,0,experiment,NA,NA,0,0.1,0.9,1,0,222,5,NA
fcp-trial,264,1062316,0.0-233.0-0.0,voc_e2,12273,"[{""event"":""fullscreenenter"",""trial"":1,""time"":2279}]",NA,NA,NA,NA,NA,3,#D8271C,#741CD8,10,0,0,40,0,878.1999999992549,37,1,384,10,0,experiment,NA,NA,2,0.5,0.5,5,4,223,5,NA
fcp-trial,265,1064916,0.0-234.0-0.0,voc_e2,12273,"[{""event"":""fullscreenenter"",""trial"":1,""time"":2279}]",NA,NA,NA,NA,NA,6,#1CD855,#FA92F8,0,0,0,40,0,783.8999999985099,37,1,311.40000000037253,0,0,experiment,NA,NA,1,0.3,0.7,3,2,224,5,NA
fcp-trial,266,1067509,0.0-235.0-0.0,voc_e2,12273,"[{""event"":""fullscreenenter"",""trial"":1,""time"":2279}]",NA,NA,NA,NA,NA,4,#FA92F8,#1CD855,10,0,1,40,0,776.8000000007451,37,1,310.90000000037253,10,1,experiment,NA,NA,1,0.7,0.3,2,3,225,5,NA
fcp-trial,267,1070613,0.0-236.0-0.0,voc_e2,12273,"[{""event"":""fullscreenenter"",""trial"":1,""time"":2279}]",NA,NA,NA,NA,NA,0,#D89F1C,#3386FF,10,10,1,38,1,1050.7999999988824,37,1,544.5999999996275,10,1,experiment,NA,NA,0,0.9,0.1,0,1,226,6,NA
fcp-trial,268,1073245,0.0-237.0-0.0,voc_e2,12273,"[{""event"":""fullscreenenter"",""trial"":1,""time"":2279}]",NA,NA,NA,NA,NA,3,#FA92F8,#1CD855,10,0,1,40,0,728.4000000003725,37,1,396.30000000074506,10,1,experiment,NA,NA,1,0.7,0.3,2,3,227,6,NA
fcp-trial,269,1075997,0.0-238.0-0.0,voc_e2,12273,"[{""event"":""fullscreenenter"",""trial"":1,""time"":2279}]",NA,NA,NA,NA,NA,6,#741CD8,#D8271C,10,0,1,40,0,725.4000000003725,39,0,518.6999999992549,0,0,experiment,NA,NA,2,0.5,0.5,4,5,228,6,NA
fcp-trial,270,1078924,0.0-239.0-0.0,voc_e2,12273,"[{""event"":""fullscreenenter"",""trial"":1,""time"":2279}]",NA,NA,NA,NA,NA,0,#1CD855,#FA92F8,0,10,0,38,1,911.1999999992549,37,1,511.19999999925494,0,0,experiment,NA,NA,1,0.3,0.7,3,2,229,6,NA
fcp-trial,271,1081799,0.0-240.0-0.0,voc_e2,12273,"[{""event"":""fullscreenenter"",""trial"":1,""time"":2279}]",NA,NA,NA,NA,NA,5,#3386FF,#D89F1C,0,10,0,40,0,800.7999999988824,39,0,567.8000000007451,10,1,experiment,NA,NA,0,0.1,0.9,1,0,230,6,NA
fcp-trial,272,1085003,0.0-241.0-0.0,voc_e2,12273,"[{""event"":""fullscreenenter"",""trial"":1,""time"":2279}]",NA,NA,NA,NA,NA,4,#D8271C,#741CD8,10,0,0,40,0,1109.7999999988824,37,1,589.5,10,0,experiment,NA,NA,2,0.5,0.5,5,4,231,6,NA
fcp-trial,273,1087931,0.0-242.0-0.0,voc_e2,12273,"[{""event"":""fullscreenenter"",""trial"":1,""time"":2279}]",NA,NA,NA,NA,NA,4,#D89F1C,#3386FF,10,0,1,40,0,974.8000000007451,37,1,446.5,10,1,experiment,NA,NA,0,0.9,0.1,0,1,232,6,NA
fcp-trial,274,1090820,0.0-243.0-0.0,voc_e2,12273,"[{""event"":""fullscreenenter"",""trial"":1,""time"":2279}]",NA,NA,NA,NA,NA,5,#D8271C,#741CD8,0,10,0,40,0,824.6999999992549,37,1,558.9000000003725,0,0,experiment,NA,NA,2,0.5,0.5,5,4,233,6,NA
fcp-trial,275,1094204,0.0-244.0-0.0,voc_e2,12273,"[{""event"":""fullscreenenter"",""trial"":1,""time"":2279}]",NA,NA,NA,NA,NA,1,#3386FF,#D89F1C,0,10,0,38,1,1022,39,0,854.9000000003725,10,1,experiment,NA,NA,0,0.1,0.9,1,0,234,6,NA
fcp-trial,276,1097357,0.0-245.0-0.0,voc_e2,12273,"[{""event"":""fullscreenenter"",""trial"":1,""time"":2279}]",NA,NA,NA,NA,NA,0,#1CD855,#FA92F8,0,0,0,38,1,958.7999999988824,39,0,687.5,0,1,experiment,NA,NA,1,0.3,0.7,3,2,235,6,NA
fcp-trial,277,1100219,0.0-246.0-0.0,voc_e2,12273,"[{""event"":""fullscreenenter"",""trial"":1,""time"":2279}]",NA,NA,NA,NA,NA,3,#741CD8,#D8271C,10,10,1,40,0,772.4000000003725,39,0,584.5,10,0,experiment,NA,NA,2,0.5,0.5,4,5,236,6,NA
fcp-trial,278,1103149,0.0-247.0-0.0,voc_e2,12273,"[{""event"":""fullscreenenter"",""trial"":1,""time"":2279}]",NA,NA,NA,NA,NA,5,#1CD855,#FA92F8,10,10,0,40,0,879.1999999992549,37,1,542.3999999985099,10,0,experiment,NA,NA,1,0.3,0.7,3,2,237,6,NA
fcp-trial,279,1106726,0.0-248.0-0.0,voc_e2,12273,"[{""event"":""fullscreenenter"",""trial"":1,""time"":2279}]",NA,NA,NA,NA,NA,2,#D89F1C,#3386FF,10,0,1,38,1,1055.300000000745,37,1,1015.3000000007452,10,1,experiment,NA,NA,0,0.9,0.1,0,1,238,6,NA
fcp-trial,280,1110396,0.0-249.0-0.0,voc_e2,12273,"[{""event"":""fullscreenenter"",""trial"":1,""time"":2279}]",NA,NA,NA,NA,NA,5,#3386FF,#D89F1C,0,10,0,40,0,1604.1000000014901,37,1,558.3999999985099,0,0,experiment,NA,NA,0,0.1,0.9,1,0,239,6,NA
fcp-trial,281,1113542,0.0-250.0-0.0,voc_e2,12273,"[{""event"":""fullscreenenter"",""trial"":1,""time"":2279}]",NA,NA,NA,NA,NA,4,#1CD855,#FA92F8,10,10,0,40,0,1040.300000000745,39,0,598.9000000003725,10,1,experiment,NA,NA,1,0.3,0.7,3,2,240,6,NA
fcp-trial,282,1116428,0.0-251.0-0.0,voc_e2,12273,"[{""event"":""fullscreenenter"",""trial"":1,""time"":2279}]",NA,NA,NA,NA,NA,4,#741CD8,#D8271C,10,10,1,40,0,863.1000000014901,39,0,518.1999999992549,10,0,experiment,NA,NA,2,0.5,0.5,4,5,241,6,NA
fcp-trial,283,1119451,0.0-252.0-0.0,voc_e2,12273,"[{""event"":""fullscreenenter"",""trial"":1,""time"":2279}]",NA,NA,NA,NA,NA,6,#3386FF,#D89F1C,0,10,0,40,0,1014.8999999985099,37,1,503,0,0,experiment,NA,NA,0,0.1,0.9,1,0,242,6,NA
fcp-trial,284,1122644,0.0-253.0-0.0,voc_e2,12273,"[{""event"":""fullscreenenter"",""trial"":1,""time"":2279}]",NA,NA,NA,NA,NA,6,#1CD855,#FA92F8,0,0,0,40,0,1007.1999999992549,39,0,680.2000000011176,0,1,experiment,NA,NA,1,0.3,0.7,3,2,243,6,NA
fcp-trial,285,1125836,0.0-254.0-0.0,voc_e2,12273,"[{""event"":""fullscreenenter"",""trial"":1,""time"":2279}]",NA,NA,NA,NA,NA,2,#D8271C,#741CD8,0,10,0,38,1,935.4000000003725,37,1,744.5,0,0,experiment,NA,NA,2,0.5,0.5,5,4,244,6,NA
fcp-trial,286,1128812,0.0-255.0-0.0,voc_e2,12273,"[{""event"":""fullscreenenter"",""trial"":1,""time"":2279}]",NA,NA,NA,NA,NA,1,#741CD8,#D8271C,10,10,1,38,1,695.4000000003725,37,1,773.8999999985099,10,1,experiment,NA,NA,2,0.5,0.5,4,5,245,6,NA
fcp-trial,287,1132012,0.0-256.0-0.0,voc_e2,12273,"[{""event"":""fullscreenenter"",""trial"":1,""time"":2279}]",NA,NA,NA,NA,NA,3,#3386FF,#D89F1C,0,10,0,40,0,1047,39,0,647.0999999996275,10,1,experiment,NA,NA,0,0.1,0.9,1,0,246,6,NA
fcp-trial,288,1135045,0.0-257.0-0.0,voc_e2,12273,"[{""event"":""fullscreenenter"",""trial"":1,""time"":2279}]",NA,NA,NA,NA,NA,0,#741CD8,#D8271C,0,10,1,38,1,830.8000000007451,39,0,695.1000000014901,10,0,experiment,NA,NA,2,0.5,0.5,4,5,247,6,NA
fcp-trial,289,1138388,0.0-258.0-0.0,voc_e2,12273,"[{""event"":""fullscreenenter"",""trial"":1,""time"":2279}]",NA,NA,NA,NA,NA,2,#FA92F8,#1CD855,10,0,1,38,1,837.1000000014901,37,1,999,10,1,experiment,NA,NA,1,0.7,0.3,2,3,248,6,NA
fcp-trial,290,1141579,0.0-259.0-0.0,voc_e2,12273,"[{""event"":""fullscreenenter"",""trial"":1,""time"":2279}]",NA,NA,NA,NA,NA,6,#D8271C,#741CD8,0,0,0,40,0,1126.0999999996275,37,1,558.3000000007451,0,0,experiment,NA,NA,2,0.5,0.5,5,4,249,6,NA
fcp-trial,291,1144444,0.0-260.0-0.0,voc_e2,12273,"[{""event"":""fullscreenenter"",""trial"":1,""time"":2279}]",NA,NA,NA,NA,NA,1,#1CD855,#FA92F8,10,0,0,38,1,801.0999999996275,39,0,558.3000000007451,0,1,experiment,NA,NA,1,0.3,0.7,3,2,250,6,NA
fcp-trial,292,1147611,0.0-261.0-0.0,voc_e2,12273,"[{""event"":""fullscreenenter"",""trial"":1,""time"":2279}]",NA,NA,NA,NA,NA,0,#3386FF,#D89F1C,0,10,0,38,1,894.6000000014901,39,0,767.2000000011176,10,1,experiment,NA,NA,0,0.1,0.9,1,0,251,6,NA
fcp-trial,293,1151589,0.0-262.0-0.0,voc_e2,12273,"[{""event"":""fullscreenenter"",""trial"":1,""time"":2279}]",NA,NA,NA,NA,NA,3,#FA92F8,#1CD855,10,10,1,40,0,1887.800000000745,39,0,582.2999999988824,10,0,experiment,NA,NA,1,0.7,0.3,2,3,252,6,NA
fcp-trial,294,1154805,0.0-263.0-0.0,voc_e2,12273,"[{""event"":""fullscreenenter"",""trial"":1,""time"":2279}]",NA,NA,NA,NA,NA,5,#D89F1C,#3386FF,0,0,1,40,0,1198.5999999996275,39,0,509.8999999985099,0,0,experiment,NA,NA,0,0.9,0.1,0,1,253,6,NA
fcp-trial,295,1157660,0.0-264.0-0.0,voc_e2,12273,"[{""event"":""fullscreenenter"",""trial"":1,""time"":2279}]",NA,NA,NA,NA,NA,4,#3386FF,#D89F1C,0,10,0,40,0,900.5999999996275,37,1,447.5999999996274,0,0,experiment,NA,NA,0,0.1,0.9,1,0,254,6,NA
fcp-trial,296,1160595,0.0-265.0-0.0,voc_e2,12273,"[{""event"":""fullscreenenter"",""trial"":1,""time"":2279}]",NA,NA,NA,NA,NA,4,#741CD8,#D8271C,0,0,1,40,0,807.1999999992549,37,1,620,0,1,experiment,NA,NA,2,0.5,0.5,4,5,255,6,NA
fcp-trial,297,1163581,0.0-266.0-0.0,voc_e2,12273,"[{""event"":""fullscreenenter"",""trial"":1,""time"":2279}]",NA,NA,NA,NA,NA,0,#D8271C,#741CD8,0,0,0,38,1,1000.0999999996275,39,0,479,0,1,experiment,NA,NA,2,0.5,0.5,5,4,256,6,NA
fcp-trial,298,1166411,0.0-267.0-0.0,voc_e2,12273,"[{""event"":""fullscreenenter"",""trial"":1,""time"":2279}]",NA,NA,NA,NA,NA,2,#1CD855,#FA92F8,10,10,0,40,0,949.8000000007451,37,1,374.0999999996274,10,0,experiment,NA,NA,1,0.3,0.7,3,2,257,6,NA
fcp-trial,299,1169084,0.0-268.0-0.0,voc_e2,12273,"[{""event"":""fullscreenenter"",""trial"":1,""time"":2279}]",NA,NA,NA,NA,NA,3,#1CD855,#FA92F8,10,10,0,40,0,671,37,1,496.30000000074506,10,0,experiment,NA,NA,1,0.3,0.7,3,2,258,6,NA
fcp-trial,300,1171740,0.0-269.0-0.0,voc_e2,12273,"[{""event"":""fullscreenenter"",""trial"":1,""time"":2279}]",NA,NA,NA,NA,NA,6,#3386FF,#D89F1C,0,10,0,40,0,718.4000000003725,37,1,431.5999999996274,0,0,experiment,NA,NA,0,0.1,0.9,1,0,259,6,NA
fcp-trial,301,1174875,0.0-270.0-0.0,voc_e2,12273,"[{""event"":""fullscreenenter"",""trial"":1,""time"":2279}]",NA,NA,NA,NA,NA,6,#D8271C,#741CD8,10,10,0,40,0,917.7999999988824,37,1,704.1999999992549,10,0,experiment,NA,NA,2,0.5,0.5,5,4,260,6,NA
fcp-trial,302,1178051,0.0-271.0-0.0,voc_e2,12273,"[{""event"":""fullscreenenter"",""trial"":1,""time"":2279}]",NA,NA,NA,NA,NA,3,#D8271C,#741CD8,10,10,0,40,0,1160.199999999255,39,0,509.5999999996274,10,1,experiment,NA,NA,2,0.5,0.5,5,4,261,6,NA
fcp-trial,303,1180842,0.0-272.0-0.0,voc_e2,12273,"[{""event"":""fullscreenenter"",""trial"":1,""time"":2279}]",NA,NA,NA,NA,NA,0,#FA92F8,#1CD855,0,0,1,38,1,757,39,0,526.8000000007451,0,0,experiment,NA,NA,1,0.7,0.3,2,3,262,6,NA
fcp-trial,304,1183725,0.0-273.0-0.0,voc_e2,12273,"[{""event"":""fullscreenenter"",""trial"":1,""time"":2279}]",NA,NA,NA,NA,NA,5,#D8271C,#741CD8,10,0,0,40,0,826.1999999992549,37,1,549.8000000007451,10,0,experiment,NA,NA,2,0.5,0.5,5,4,263,6,NA
fcp-trial,305,1186828,0.0-274.0-0.0,voc_e2,12273,"[{""event"":""fullscreenenter"",""trial"":1,""time"":2279}]",NA,NA,NA,NA,NA,1,#3386FF,#D89F1C,0,10,0,38,1,959,39,0,636.5999999996275,10,1,experiment,NA,NA,0,0.1,0.9,1,0,264,6,NA
fcp-trial,306,1189627,0.0-275.0-0.0,voc_e2,12273,"[{""event"":""fullscreenenter"",""trial"":1,""time"":2279}]",NA,NA,NA,NA,NA,6,#FA92F8,#1CD855,0,0,1,40,0,909.2999999988824,37,1,383.5,0,1,experiment,NA,NA,1,0.7,0.3,2,3,265,6,NA
fcp-trial,307,1192517,0.0-276.0-0.0,voc_e2,12273,"[{""event"":""fullscreenenter"",""trial"":1,""time"":2279}]",NA,NA,NA,NA,NA,5,#1CD855,#FA92F8,0,10,0,40,0,846.8000000007451,39,0,535.8000000007451,10,1,experiment,NA,NA,1,0.3,0.7,3,2,266,6,NA
fcp-trial,308,1195389,0.0-277.0-0.0,voc_e2,12273,"[{""event"":""fullscreenenter"",""trial"":1,""time"":2279}]",NA,NA,NA,NA,NA,3,#D89F1C,#3386FF,10,10,1,40,0,842.9000000003725,39,0,520.1999999992549,10,0,experiment,NA,NA,0,0.9,0.1,0,1,267,6,NA
fcp-trial,309,1198364,0.0-278.0-0.0,voc_e2,12273,"[{""event"":""fullscreenenter"",""trial"":1,""time"":2279}]",NA,NA,NA,NA,NA,2,#D8271C,#741CD8,0,0,0,40,0,998.1000000014901,39,0,471,0,1,experiment,NA,NA,2,0.5,0.5,5,4,268,6,NA
fcp-trial,310,1200990,0.0-279.0-0.0,voc_e2,12273,"[{""event"":""fullscreenenter"",""trial"":1,""time"":2279}]",NA,NA,NA,NA,NA,4,#FA92F8,#1CD855,10,0,1,40,0,703.6999999992549,37,1,415.69999999925494,10,1,experiment,NA,NA,1,0.7,0.3,2,3,269,6,NA
fcp-trial,311,1203925,0.0-280.0-0.0,voc_e2,12273,"[{""event"":""fullscreenenter"",""trial"":1,""time"":2279}]",NA,NA,NA,NA,NA,0,#D89F1C,#3386FF,10,10,1,38,1,796.0999999996275,39,0,633,10,0,experiment,NA,NA,0,0.9,0.1,0,1,270,6,NA
fcp-trial,312,1206973,0.0-281.0-0.0,voc_e2,12273,"[{""event"":""fullscreenenter"",""trial"":1,""time"":2279}]",NA,NA,NA,NA,NA,1,#D8271C,#741CD8,0,0,0,38,1,926.5,39,0,614.7000000011176,0,1,experiment,NA,NA,2,0.5,0.5,5,4,271,7,NA
fcp-trial,313,1210170,0.0-282.0-0.0,voc_e2,12273,"[{""event"":""fullscreenenter"",""trial"":1,""time"":2279}]",NA,NA,NA,NA,NA,1,#1CD855,#FA92F8,0,0,0,38,1,1149.4000000003725,37,1,542.0999999996275,0,0,experiment,NA,NA,1,0.3,0.7,3,2,272,7,NA
fcp-trial,314,1212988,0.0-283.0-0.0,voc_e2,12273,"[{""event"":""fullscreenenter"",""trial"":1,""time"":2279}]",NA,NA,NA,NA,NA,2,#D89F1C,#3386FF,10,0,1,40,0,856.1999999992549,39,0,455.5999999996274,0,0,experiment,NA,NA,0,0.9,0.1,0,1,273,7,NA
fcp-trial,315,1215716,0.0-284.0-0.0,voc_e2,12273,"[{""event"":""fullscreenenter"",""trial"":1,""time"":2279}]",NA,NA,NA,NA,NA,4,#741CD8,#D8271C,10,0,1,40,0,831.5999999996275,37,1,388.69999999925494,10,1,experiment,NA,NA,2,0.5,0.5,4,5,274,7,NA
fcp-trial,316,1218467,0.0-285.0-0.0,voc_e2,12273,"[{""event"":""fullscreenenter"",""trial"":1,""time"":2279}]",NA,NA,NA,NA,NA,4,#3386FF,#D89F1C,0,10,0,40,0,788.1999999992549,39,0,455.7999999988824,10,1,experiment,NA,NA,0,0.1,0.9,1,0,275,7,NA
fcp-trial,317,1221147,0.0-286.0-0.0,voc_e2,12273,"[{""event"":""fullscreenenter"",""trial"":1,""time"":2279}]",NA,NA,NA,NA,NA,3,#FA92F8,#1CD855,0,0,1,40,0,670,37,1,503.19999999925494,0,1,experiment,NA,NA,1,0.7,0.3,2,3,276,7,NA
fcp-trial,318,1224015,0.0-287.0-0.0,voc_e2,12273,"[{""event"":""fullscreenenter"",""trial"":1,""time"":2279}]",NA,NA,NA,NA,NA,2,#FA92F8,#1CD855,10,0,1,40,0,847.4000000003725,37,1,510.2999999988824,10,1,experiment,NA,NA,1,0.7,0.3,2,3,277,7,NA
fcp-trial,319,1226932,0.0-288.0-0.0,voc_e2,12273,"[{""event"":""fullscreenenter"",""trial"":1,""time"":2279}]",NA,NA,NA,NA,NA,1,#FA92F8,#1CD855,0,0,1,38,1,985.5999999996275,39,0,421.2999999988824,0,0,experiment,NA,NA,1,0.7,0.3,2,3,278,7,NA
fcp-trial,320,1229670,0.0-289.0-0.0,voc_e2,12273,"[{""event"":""fullscreenenter"",""trial"":1,""time"":2279}]",NA,NA,NA,NA,NA,6,#D8271C,#741CD8,0,10,0,40,0,787.9000000003725,39,0,439.5,10,1,experiment,NA,NA,2,0.5,0.5,5,4,279,7,NA
fcp-trial,321,1232331,0.0-290.0-0.0,voc_e2,12273,"[{""event"":""fullscreenenter"",""trial"":1,""time"":2279}]",NA,NA,NA,NA,NA,3,#3386FF,#D89F1C,0,10,0,40,0,748.9000000003725,37,1,406,0,0,experiment,NA,NA,0,0.1,0.9,1,0,280,7,NA
fcp-trial,322,1234836,0.0-291.0-0.0,voc_e2,12273,"[{""event"":""fullscreenenter"",""trial"":1,""time"":2279}]",NA,NA,NA,NA,NA,2,#3386FF,#D89F1C,0,10,0,40,0,603.2999999988824,39,0,390.9000000003726,10,1,experiment,NA,NA,0,0.1,0.9,1,0,281,7,NA
fcp-trial,323,1237523,0.0-292.0-0.0,voc_e2,12273,"[{""event"":""fullscreenenter"",""trial"":1,""time"":2279}]",NA,NA,NA,NA,NA,6,#1CD855,#FA92F8,10,10,0,40,0,806.7000000011176,37,1,374.19999999925494,10,0,experiment,NA,NA,1,0.3,0.7,3,2,282,7,NA
fcp-trial,324,1240332,0.0-293.0-0.0,voc_e2,12273,"[{""event"":""fullscreenenter"",""trial"":1,""time"":2279}]",NA,NA,NA,NA,NA,3,#741CD8,#D8271C,10,10,1,40,0,800.0999999996275,37,1,503.1000000014901,10,1,experiment,NA,NA,2,0.5,0.5,4,5,283,7,NA
fcp-trial,325,1242869,0.0-294.0-0.0,voc_e2,12273,"[{""event"":""fullscreenenter"",""trial"":1,""time"":2279}]",NA,NA,NA,NA,NA,1,#D8271C,#741CD8,0,10,0,40,0,627,39,0,400,10,1,experiment,NA,NA,2,0.5,0.5,5,4,284,7,NA
fcp-trial,326,1245717,0.0-295.0-0.0,voc_e2,12273,"[{""event"":""fullscreenenter"",""trial"":1,""time"":2279}]",NA,NA,NA,NA,NA,0,#D89F1C,#3386FF,10,0,1,38,1,879.5,39,0,461.4000000003726,0,0,experiment,NA,NA,0,0.9,0.1,0,1,285,7,NA
fcp-trial,327,1248486,0.0-296.0-0.0,voc_e2,12273,"[{""event"":""fullscreenenter"",""trial"":1,""time"":2279}]",NA,NA,NA,NA,NA,5,#1CD855,#FA92F8,0,0,0,40,0,812.8000000007451,37,1,447.2000000011176,0,0,experiment,NA,NA,1,0.3,0.7,3,2,286,7,NA
fcp-trial,328,1251443,0.0-297.0-0.0,voc_e2,12273,"[{""event"":""fullscreenenter"",""trial"":1,""time"":2279}]",NA,NA,NA,NA,NA,2,#D8271C,#741CD8,0,0,0,40,0,915.3999999985099,39,0,536.5999999996275,0,1,experiment,NA,NA,2,0.5,0.5,5,4,287,7,NA
fcp-trial,329,1254260,0.0-298.0-0.0,voc_e2,12273,"[{""event"":""fullscreenenter"",""trial"":1,""time"":2279}]",NA,NA,NA,NA,NA,4,#1CD855,#FA92F8,10,0,0,40,0,815.3000000007451,39,0,494.2000000011176,0,1,experiment,NA,NA,1,0.3,0.7,3,2,288,7,NA
fcp-trial,330,1257548,0.0-299.0-0.0,voc_e2,12273,"[{""event"":""fullscreenenter"",""trial"":1,""time"":2279}]",NA,NA,NA,NA,NA,0,#741CD8,#D8271C,10,0,1,38,1,1167.0999999996275,39,0,615.2000000011176,0,0,experiment,NA,NA,2,0.5,0.5,4,5,289,7,NA
fcp-trial,331,1260614,0.0-300.0-0.0,voc_e2,12273,"[{""event"":""fullscreenenter"",""trial"":1,""time"":2279}]",NA,NA,NA,NA,NA,6,#D89F1C,#3386FF,0,0,1,40,0,996.2000000011176,37,1,551.5,0,1,experiment,NA,NA,0,0.9,0.1,0,1,290,7,NA
fcp-trial,332,1263501,0.0-301.0-0.0,voc_e2,12273,"[{""event"":""fullscreenenter"",""trial"":1,""time"":2279}]",NA,NA,NA,NA,NA,5,#741CD8,#D8271C,10,10,1,40,0,801.5,37,1,577.7000000011176,10,1,experiment,NA,NA,2,0.5,0.5,4,5,291,7,NA
fcp-trial,333,1266548,0.0-302.0-0.0,voc_e2,12273,"[{""event"":""fullscreenenter"",""trial"":1,""time"":2279}]",NA,NA,NA,NA,NA,0,#1CD855,#FA92F8,0,10,0,38,1,1037,39,0,502.30000000074506,10,1,experiment,NA,NA,1,0.3,0.7,3,2,292,7,NA
fcp-trial,334,1269523,0.0-303.0-0.0,voc_e2,12273,"[{""event"":""fullscreenenter"",""trial"":1,""time"":2279}]",NA,NA,NA,NA,NA,5,#D89F1C,#3386FF,0,10,1,40,0,923.5,39,0,543,10,0,experiment,NA,NA,0,0.9,0.1,0,1,293,7,NA
fcp-trial,335,1272771,0.0-304.0-0.0,voc_e2,12273,"[{""event"":""fullscreenenter"",""trial"":1,""time"":2279}]",NA,NA,NA,NA,NA,1,#D89F1C,#3386FF,10,10,1,38,1,1182.5,39,0,559.6000000014901,10,0,experiment,NA,NA,0,0.9,0.1,0,1,294,7,NA
fcp-trial,336,1275581,0.0-305.0-0.0,voc_e2,12273,"[{""event"":""fullscreenenter"",""trial"":1,""time"":2279}]",NA,NA,NA,NA,NA,3,#FA92F8,#1CD855,10,0,1,40,0,839.0999999996275,39,0,463.5,0,0,experiment,NA,NA,1,0.7,0.3,2,3,295,7,NA
fcp-trial,337,1278468,0.0-306.0-0.0,voc_e2,12273,"[{""event"":""fullscreenenter"",""trial"":1,""time"":2279}]",NA,NA,NA,NA,NA,6,#741CD8,#D8271C,0,0,1,40,0,844,37,1,535.7999999988824,0,1,experiment,NA,NA,2,0.5,0.5,4,5,296,7,NA
fcp-trial,338,1281339,0.0-307.0-0.0,voc_e2,12273,"[{""event"":""fullscreenenter"",""trial"":1,""time"":2279}]",NA,NA,NA,NA,NA,3,#741CD8,#D8271C,0,10,1,40,0,901.7999999988824,37,1,462.9000000003726,0,1,experiment,NA,NA,2,0.5,0.5,4,5,297,7,NA
fcp-trial,339,1284317,0.0-308.0-0.0,voc_e2,12273,"[{""event"":""fullscreenenter"",""trial"":1,""time"":2279}]",NA,NA,NA,NA,NA,1,#FA92F8,#1CD855,10,0,1,38,1,1047.2000000011176,39,0,424.9000000003726,0,0,experiment,NA,NA,1,0.7,0.3,2,3,298,7,NA
fcp-trial,340,1287291,0.0-309.0-0.0,voc_e2,12273,"[{""event"":""fullscreenenter"",""trial"":1,""time"":2279}]",NA,NA,NA,NA,NA,2,#D89F1C,#3386FF,10,0,1,40,0,829.7999999988824,37,1,637.3999999985099,10,1,experiment,NA,NA,0,0.9,0.1,0,1,299,7,NA
fcp-trial,341,1290548,0.0-310.0-0.0,voc_e2,12273,"[{""event"":""fullscreenenter"",""trial"":1,""time"":2279}]",NA,NA,NA,NA,NA,0,#D89F1C,#3386FF,10,0,1,38,1,935.3000000007451,37,1,816.4000000003725,10,1,experiment,NA,NA,0,0.9,0.1,0,1,300,7,NA
fcp-trial,342,1293522,0.0-311.0-0.0,voc_e2,12273,"[{""event"":""fullscreenenter"",""trial"":1,""time"":2279}]",NA,NA,NA,NA,NA,2,#741CD8,#D8271C,10,10,1,38,1,948.5999999996275,39,0,518.6999999992549,10,0,experiment,NA,NA,2,0.5,0.5,4,5,301,7,NA
fcp-trial,343,1296659,0.0-312.0-0.0,voc_e2,12273,"[{""event"":""fullscreenenter"",""trial"":1,""time"":2279}]",NA,NA,NA,NA,NA,4,#D8271C,#741CD8,0,0,0,40,0,873.6000000014901,39,0,757.3999999985099,0,1,experiment,NA,NA,2,0.5,0.5,5,4,302,7,NA
fcp-trial,344,1299922,0.0-313.0-0.0,voc_e2,12273,"[{""event"":""fullscreenenter"",""trial"":1,""time"":2279}]",NA,NA,NA,NA,NA,0,#1CD855,#FA92F8,0,0,0,38,1,1022.7999999988824,39,0,734.0999999996275,0,1,experiment,NA,NA,1,0.3,0.7,3,2,303,7,NA
fcp-trial,345,1303019,0.0-314.0-0.0,voc_e2,12273,"[{""event"":""fullscreenenter"",""trial"":1,""time"":2279}]",NA,NA,NA,NA,NA,4,#1CD855,#FA92F8,0,10,0,40,0,824.6999999992549,39,0,767.5999999996275,10,1,experiment,NA,NA,1,0.3,0.7,3,2,304,7,NA
fcp-trial,346,1305718,0.0-315.0-0.0,voc_e2,12273,"[{""event"":""fullscreenenter"",""trial"":1,""time"":2279}]",NA,NA,NA,NA,NA,5,#3386FF,#D89F1C,10,10,0,40,0,734.2999999988824,39,0,457.0999999996274,10,1,experiment,NA,NA,0,0.1,0.9,1,0,305,7,NA
fcp-trial,347,1308355,0.0-316.0-0.0,voc_e2,12273,"[{""event"":""fullscreenenter"",""trial"":1,""time"":2279}]",NA,NA,NA,NA,NA,6,#D89F1C,#3386FF,0,0,1,40,0,676.5999999996275,37,1,453.30000000074506,0,1,experiment,NA,NA,0,0.9,0.1,0,1,306,7,NA
fcp-trial,348,1311107,0.0-317.0-0.0,voc_e2,12273,"[{""event"":""fullscreenenter"",""trial"":1,""time"":2279}]",NA,NA,NA,NA,NA,5,#741CD8,#D8271C,0,10,1,40,0,758.6999999992549,39,0,486.69999999925494,10,0,experiment,NA,NA,2,0.5,0.5,4,5,307,7,NA
fcp-trial,349,1313966,0.0-318.0-0.0,voc_e2,12273,"[{""event"":""fullscreenenter"",""trial"":1,""time"":2279}]",NA,NA,NA,NA,NA,5,#FA92F8,#1CD855,10,0,1,40,0,885.9000000003725,37,1,466.2000000011176,10,1,experiment,NA,NA,1,0.7,0.3,2,3,308,7,NA
fcp-trial,350,1316722,0.0-319.0-0.0,voc_e2,12273,"[{""event"":""fullscreenenter"",""trial"":1,""time"":2279}]",NA,NA,NA,NA,NA,1,#741CD8,#D8271C,0,10,1,40,0,802.5999999996275,39,0,448.19999999925494,10,0,experiment,NA,NA,2,0.5,0.5,4,5,309,7,NA
fcp-trial,351,1319507,0.0-320.0-0.0,voc_e2,12273,"[{""event"":""fullscreenenter"",""trial"":1,""time"":2279}]",NA,NA,NA,NA,NA,4,#3386FF,#D89F1C,0,10,0,40,0,840.5,37,1,436.7000000011176,0,0,experiment,NA,NA,0,0.1,0.9,1,0,310,7,NA
fcp-trial,352,1322260,0.0-321.0-0.0,voc_e2,12273,"[{""event"":""fullscreenenter"",""trial"":1,""time"":2279}]",NA,NA,NA,NA,NA,1,#D89F1C,#3386FF,10,0,1,40,0,831.2000000011176,39,0,415.3999999985099,0,0,experiment,NA,NA,0,0.9,0.1,0,1,311,7,NA
fcp-trial,353,1325426,0.0-322.0-0.0,voc_e2,12273,"[{""event"":""fullscreenenter"",""trial"":1,""time"":2279}]",NA,NA,NA,NA,NA,6,#FA92F8,#1CD855,10,0,1,40,0,1181.300000000745,39,0,476.9000000003726,0,0,experiment,NA,NA,1,0.7,0.3,2,3,312,7,NA
fcp-trial,354,1328667,0.0-323.0-0.0,voc_e2,12273,"[{""event"":""fullscreenenter"",""trial"":1,""time"":2279}]",NA,NA,NA,NA,NA,0,#D8271C,#741CD8,10,10,0,38,1,1155.5999999996275,37,1,575.6999999992549,10,0,experiment,NA,NA,2,0.5,0.5,5,4,313,7,NA
fcp-trial,355,1331684,0.0-324.0-0.0,voc_e2,12273,"[{""event"":""fullscreenenter"",""trial"":1,""time"":2279}]",NA,NA,NA,NA,NA,3,#3386FF,#D89F1C,0,10,0,40,0,1045.5999999996275,37,1,463.69999999925494,0,0,experiment,NA,NA,0,0.1,0.9,1,0,314,7,NA
fcp-trial,356,1334563,0.0-325.0-0.0,voc_e2,12273,"[{""event"":""fullscreenenter"",""trial"":1,""time"":2279}]",NA,NA,NA,NA,NA,2,#1CD855,#FA92F8,0,10,0,40,0,982,37,1,391.5,0,0,experiment,NA,NA,1,0.3,0.7,3,2,315,7,NA
audio-instructions,357,1342759,0.0-326.0,voc_e2,12273,"[{""event"":""fullscreenenter"",""trial"":1,""time"":2279}]",NA,2496,static/audio/finished.wav,NA,0,NA,NA,NA,NA,NA,NA,NA,NA,NA,NA,NA,NA,NA,NA,NA,NA,NA,NA,NA,NA,NA,NA,NA,NA,NA
audio-instructions,358,1354532,0.0-327.0-0.0,voc_e2,12273,"[{""event"":""fullscreenenter"",""trial"":1,""time"":2279}]",NA,938.7999999988824,static/audio/explicit1.wav,NA,0,NA,NA,NA,NA,NA,NA,NA,NA,NA,NA,NA,NA,NA,NA,NA,NA,NA,NA,NA,NA,NA,NA,NA,NA,NA
audio-instructions,359,1362893,0.0-327.0-1.0,voc_e2,12273,"[{""event"":""fullscreenenter"",""trial"":1,""time"":2279}]",NA,761,static/audio/explicit2.wav,NA,0,NA,NA,NA,NA,NA,NA,NA,NA,NA,NA,NA,NA,NA,NA,NA,NA,NA,NA,NA,NA,NA,NA,NA,NA,NA
image-slider-response,360,1366346,0.0-328.0,voc_e2,12273,"[{""event"":""fullscreenenter"",""trial"":1,""time"":2279}]",NA,3450.0999999996275,static/img/machines/machine5.png,NA,NA,NA,NA,NA,NA,NA,NA,NA,NA,NA,NA,NA,NA,NA,NA,explicit,NA,NA,NA,NA,NA,NA,NA,NA,NA,6
image-slider-response,361,1369096,0.0-329.0,voc_e2,12273,"[{""event"":""fullscreenenter"",""trial"":1,""time"":2279}]",NA,2748.4000000003725,static/img/machines/machine3.png,NA,NA,NA,NA,NA,NA,NA,NA,NA,NA,NA,NA,NA,NA,NA,NA,explicit,NA,NA,NA,NA,NA,NA,NA,NA,NA,4
image-slider-response,362,1370761,0.0-330.0,voc_e2,12273,"[{""event"":""fullscreenenter"",""trial"":1,""time"":2279}]",NA,1664.0999999996277,static/img/machines/machine4.png,NA,NA,NA,NA,NA,NA,NA,NA,NA,NA,NA,NA,NA,NA,NA,NA,explicit,NA,NA,NA,NA,NA,NA,NA,NA,NA,6
image-slider-response,363,1372415,0.0-331.0,voc_e2,12273,"[{""event"":""fullscreenenter"",""trial"":1,""time"":2279}]",NA,1652.60000000149,static/img/machines/machine6.png,NA,NA,NA,NA,NA,NA,NA,NA,NA,NA,NA,NA,NA,NA,NA,NA,explicit,NA,NA,NA,NA,NA,NA,NA,NA,NA,5
image-slider-response,364,1373950,0.0-332.0,voc_e2,12273,"[{""event"":""fullscreenenter"",""trial"":1,""time"":2279}]",NA,1532.89999999851,static/img/machines/machine2.png,NA,NA,NA,NA,NA,NA,NA,NA,NA,NA,NA,NA,NA,NA,NA,NA,explicit,NA,NA,NA,NA,NA,NA,NA,NA,NA,5
image-slider-response,365,1374502,0.0-333.0,voc_e2,12273,"[{""event"":""fullscreenenter"",""trial"":1,""time"":2279}]",NA,550.4000000003725,static/img/machines/machine1.png,NA,NA,NA,NA,NA,NA,NA,NA,NA,NA,NA,NA,NA,NA,NA,NA,explicit,NA,NA,NA,NA,NA,NA,NA,NA,NA,5
