trial_type,trial_index,time_elapsed,internal_node_id,task_version,subject_id,interactions,success,rt,stimulus,key_press,button_pressed,offer,arcade_color_L,arcade_color_R,arcade_outcome_L,arcade_outcome_R,correct,stage_1_key,stage_1_choice,stage_1_rt,stage_2_key,stage_2_choice,stage_2_rt,stage_3_outcome,accuracy,phase,responses,num_errors,context,reward_prob_L,reward_prob_R,arcade_id_L,arcade_id_R,trial,block,response
pavlovia,0,10,0.0-0.0,voc_e2,12383,[],NA,NA,NA,NA,NA,NA,NA,NA,NA,NA,NA,NA,NA,NA,NA,NA,NA,NA,NA,NA,NA,NA,NA,NA,NA,NA,NA,NA,NA,NA
fullscreen,1,3487,0.0-1.0,voc_e2,12383,"[{""event"":""fullscreenenter"",""trial"":1,""time"":2534}]",TRUE,NA,NA,NA,NA,NA,NA,NA,NA,NA,NA,NA,NA,NA,NA,NA,NA,NA,NA,NA,NA,NA,NA,NA,NA,NA,NA,NA,NA,NA
audio-keyboard-response,2,6560,0.0-2.0,voc_e2,12383,"[{""event"":""fullscreenenter"",""trial"":1,""time"":2534}]",NA,2749,static/audio/beep_loop.wav,32,NA,NA,NA,NA,NA,NA,NA,NA,NA,NA,NA,NA,NA,NA,NA,NA,NA,NA,NA,NA,NA,NA,NA,NA,NA,NA
audio-test,3,8452,0.0-3.0,voc_e2,12383,"[{""event"":""fullscreenenter"",""trial"":1,""time"":2534}]",NA,NA,static/audio/turtle.wav,NA,3,NA,NA,NA,NA,NA,NA,NA,NA,NA,NA,NA,NA,NA,NA,NA,NA,NA,NA,NA,NA,NA,NA,NA,NA,NA
audio-test,4,10828,0.0-4.0,voc_e2,12383,"[{""event"":""fullscreenenter"",""trial"":1,""time"":2534}]",NA,NA,static/audio/shark.wav,NA,2,NA,NA,NA,NA,NA,NA,NA,NA,NA,NA,NA,NA,NA,NA,NA,NA,NA,NA,NA,NA,NA,NA,NA,NA,NA
audio-instructions,5,17750,0.0-5.0-0.0,voc_e2,12383,"[{""event"":""fullscreenenter"",""trial"":1,""time"":2534}]",NA,1138.5,static/audio/instructions1.wav,NA,0,NA,NA,NA,NA,NA,NA,NA,NA,NA,NA,NA,NA,NA,NA,NA,NA,NA,NA,NA,NA,NA,NA,NA,NA,NA
audio-instructions,6,28581,0.0-5.0-1.0,voc_e2,12383,"[{""event"":""fullscreenenter"",""trial"":1,""time"":2534}]",NA,4089.2999999821186,static/audio/instructions2.wav,NA,0,NA,NA,NA,NA,NA,NA,NA,NA,NA,NA,NA,NA,NA,NA,NA,NA,NA,NA,NA,NA,NA,NA,NA,NA,NA
audio-instructions,7,37046,0.0-5.0-2.0,voc_e2,12383,"[{""event"":""fullscreenenter"",""trial"":1,""time"":2534}]",NA,2653.300000011921,static/audio/instructions3.wav,NA,0,NA,NA,NA,NA,NA,NA,NA,NA,NA,NA,NA,NA,NA,NA,NA,NA,NA,NA,NA,NA,NA,NA,NA,NA,NA
audio-instructions,8,60134,0.0-5.0-3.0,voc_e2,12383,"[{""event"":""fullscreenenter"",""trial"":1,""time"":2534}]",NA,9861,static/audio/instructions4.wav,NA,0,NA,NA,NA,NA,NA,NA,NA,NA,NA,NA,NA,NA,NA,NA,NA,NA,NA,NA,NA,NA,NA,NA,NA,NA,NA
audio-instructions,9,70885,0.0-5.0-4.0,voc_e2,12383,"[{""event"":""fullscreenenter"",""trial"":1,""time"":2534}]",NA,1362.9000000059605,static/audio/instructions5.wav,NA,0,NA,NA,NA,NA,NA,NA,NA,NA,NA,NA,NA,NA,NA,NA,NA,NA,NA,NA,NA,NA,NA,NA,NA,NA,NA
fcp-practice,10,74551,0.0-5.0-5.0-0.0,voc_e2,12383,"[{""event"":""fullscreenenter"",""trial"":1,""time"":2534}]",NA,NA,NA,NA,NA,NA,#EDC948,#46d3c8,10,0,1,null,null,null,37,1,2143.199999988079,10,1,practice,NA,NA,NA,NA,NA,NA,NA,NA,NA,NA
fcp-practice,11,78982,0.0-5.0-5.0-1.0,voc_e2,12383,"[{""event"":""fullscreenenter"",""trial"":1,""time"":2534}]",NA,NA,NA,NA,NA,NA,#EDC948,#46d3c8,10,0,1,null,null,null,37,1,2925.2000000178814,10,1,practice,NA,NA,NA,NA,NA,NA,NA,NA,NA,NA
fcp-practice,12,80921,0.0-5.0-5.0-2.0,voc_e2,12383,"[{""event"":""fullscreenenter"",""trial"":1,""time"":2534}]",NA,NA,NA,NA,NA,NA,#EDC948,#46d3c8,0,10,1,null,null,null,37,1,427.7000000178814,0,1,practice,NA,NA,NA,NA,NA,NA,NA,NA,NA,NA
fcp-practice,13,82725,0.0-5.0-5.0-3.0,voc_e2,12383,"[{""event"":""fullscreenenter"",""trial"":1,""time"":2534}]",NA,NA,NA,NA,NA,NA,#EDC948,#46d3c8,10,0,1,null,null,null,37,1,293.19999998807907,10,1,practice,NA,NA,NA,NA,NA,NA,NA,NA,NA,NA
fcp-practice,14,84625,0.0-5.0-5.0-4.0,voc_e2,12383,"[{""event"":""fullscreenenter"",""trial"":1,""time"":2534}]",NA,NA,NA,NA,NA,NA,#EDC948,#46d3c8,10,0,1,null,null,null,37,1,394.89999997615814,10,1,practice,NA,NA,NA,NA,NA,NA,NA,NA,NA,NA
audio-instructions,15,107332,0.0-5.0-6.0,voc_e2,12383,"[{""event"":""fullscreenenter"",""trial"":1,""time"":2534}]",NA,4698.800000011921,static/audio/instructions6.wav,NA,0,NA,NA,NA,NA,NA,NA,NA,NA,NA,NA,NA,NA,NA,NA,NA,NA,NA,NA,NA,NA,NA,NA,NA,NA,NA
audio-instructions,16,130051,0.0-5.0-7.0,voc_e2,12383,"[{""event"":""fullscreenenter"",""trial"":1,""time"":2534}]",NA,3518.899999976158,static/audio/instructions7.wav,NA,0,NA,NA,NA,NA,NA,NA,NA,NA,NA,NA,NA,NA,NA,NA,NA,NA,NA,NA,NA,NA,NA,NA,NA,NA,NA
audio-instructions,17,141035,0.0-5.0-8.0,voc_e2,12383,"[{""event"":""fullscreenenter"",""trial"":1,""time"":2534}]",NA,1504.5,static/audio/instructions8.wav,NA,0,NA,NA,NA,NA,NA,NA,NA,NA,NA,NA,NA,NA,NA,NA,NA,NA,NA,NA,NA,NA,NA,NA,NA,NA,NA
fcp-comprehension,18,159540,0.0-5.0-9.0,voc_e2,12383,"[{""event"":""fullscreenenter"",""trial"":1,""time"":2534}]",NA,18503.20000001788,NA,NA,NA,NA,NA,NA,NA,NA,NA,NA,NA,NA,NA,NA,NA,NA,NA,NA,"false,true",1,NA,NA,NA,NA,NA,NA,NA,NA
audio-instructions,19,165603,0.0-5.1-0.1,voc_e2,12383,"[{""event"":""fullscreenenter"",""trial"":1,""time"":2534}]",NA,1281.4000000059605,static/audio/instructions1.wav,NA,0,NA,NA,NA,NA,NA,NA,NA,NA,NA,NA,NA,NA,NA,NA,NA,NA,NA,NA,NA,NA,NA,NA,NA,NA,NA
audio-instructions,20,173596,0.0-5.1-1.1,voc_e2,12383,"[{""event"":""fullscreenenter"",""trial"":1,""time"":2534}]",NA,1253.9000000059605,static/audio/instructions2.wav,NA,0,NA,NA,NA,NA,NA,NA,NA,NA,NA,NA,NA,NA,NA,NA,NA,NA,NA,NA,NA,NA,NA,NA,NA,NA,NA
audio-instructions,21,180251,0.0-5.1-2.1,voc_e2,12383,"[{""event"":""fullscreenenter"",""trial"":1,""time"":2534}]",NA,849.2000000178814,static/audio/instructions3.wav,NA,0,NA,NA,NA,NA,NA,NA,NA,NA,NA,NA,NA,NA,NA,NA,NA,NA,NA,NA,NA,NA,NA,NA,NA,NA,NA
audio-instructions,22,194957,0.0-5.1-3.1,voc_e2,12383,"[{""event"":""fullscreenenter"",""trial"":1,""time"":2534}]",NA,1474.7999999821186,static/audio/instructions4.wav,NA,0,NA,NA,NA,NA,NA,NA,NA,NA,NA,NA,NA,NA,NA,NA,NA,NA,NA,NA,NA,NA,NA,NA,NA,NA,NA
audio-instructions,23,205796,0.0-5.1-4.1,voc_e2,12383,"[{""event"":""fullscreenenter"",""trial"":1,""time"":2534}]",NA,1453.7000000178814,static/audio/instructions5.wav,NA,0,NA,NA,NA,NA,NA,NA,NA,NA,NA,NA,NA,NA,NA,NA,NA,NA,NA,NA,NA,NA,NA,NA,NA,NA,NA
fcp-practice,24,208169,0.0-5.1-5.1-0.1,voc_e2,12383,"[{""event"":""fullscreenenter"",""trial"":1,""time"":2534}]",NA,NA,NA,NA,NA,NA,#EDC948,#46d3c8,10,0,1,null,null,null,37,1,859.2999999821186,10,1,practice,NA,NA,NA,NA,NA,NA,NA,NA,NA,NA
fcp-practice,25,210076,0.0-5.1-5.1-1.1,voc_e2,12383,"[{""event"":""fullscreenenter"",""trial"":1,""time"":2534}]",NA,NA,NA,NA,NA,NA,#EDC948,#46d3c8,10,0,1,null,null,null,37,1,394.2999999821186,10,1,practice,NA,NA,NA,NA,NA,NA,NA,NA,NA,NA
fcp-practice,26,211952,0.0-5.1-5.1-2.1,voc_e2,12383,"[{""event"":""fullscreenenter"",""trial"":1,""time"":2534}]",NA,NA,NA,NA,NA,NA,#EDC948,#46d3c8,0,10,1,null,null,null,37,1,367.80000001192093,0,1,practice,NA,NA,NA,NA,NA,NA,NA,NA,NA,NA
fcp-practice,27,213816,0.0-5.1-5.1-3.1,voc_e2,12383,"[{""event"":""fullscreenenter"",""trial"":1,""time"":2534}]",NA,NA,NA,NA,NA,NA,#EDC948,#46d3c8,10,0,1,null,null,null,37,1,350,10,1,practice,NA,NA,NA,NA,NA,NA,NA,NA,NA,NA
fcp-practice,28,215471,0.0-5.1-5.1-4.1,voc_e2,12383,"[{""event"":""fullscreenenter"",""trial"":1,""time"":2534}]",NA,NA,NA,NA,NA,NA,#EDC948,#46d3c8,10,0,1,null,null,null,37,1,141.40000000596046,10,1,practice,NA,NA,NA,NA,NA,NA,NA,NA,NA,NA
audio-instructions,29,238030,0.0-5.1-6.1,voc_e2,12383,"[{""event"":""fullscreenenter"",""trial"":1,""time"":2534}]",NA,4547.5999999940395,static/audio/instructions6.wav,NA,0,NA,NA,NA,NA,NA,NA,NA,NA,NA,NA,NA,NA,NA,NA,NA,NA,NA,NA,NA,NA,NA,NA,NA,NA,NA
audio-instructions,30,262795,0.0-5.1-7.1,voc_e2,12383,"[{""event"":""fullscreenenter"",""trial"":1,""time"":2534}]",NA,5564.9000000059605,static/audio/instructions7.wav,NA,0,NA,NA,NA,NA,NA,NA,NA,NA,NA,NA,NA,NA,NA,NA,NA,NA,NA,NA,NA,NA,NA,NA,NA,NA,NA
audio-instructions,31,274197,0.0-5.1-8.1,voc_e2,12383,"[{""event"":""fullscreenenter"",""trial"":1,""time"":2534}]",NA,1934.7999999821184,static/audio/instructions8.wav,NA,0,NA,NA,NA,NA,NA,NA,NA,NA,NA,NA,NA,NA,NA,NA,NA,NA,NA,NA,NA,NA,NA,NA,NA,NA,NA
fcp-comprehension,32,283077,0.0-5.1-9.1,voc_e2,12383,"[{""event"":""fullscreenenter"",""trial"":1,""time"":2534}]",NA,8878.90000000596,NA,NA,NA,NA,NA,NA,NA,NA,NA,NA,NA,NA,NA,NA,NA,NA,NA,NA,"true,true",0,NA,NA,NA,NA,NA,NA,NA,NA
audio-instructions,33,289980,0.0-6.0-0.0,voc_e2,12383,"[{""event"":""fullscreenenter"",""trial"":1,""time"":2534}]",NA,1358.399999976158,static/audio/instructions9.wav,NA,0,NA,NA,NA,NA,NA,NA,NA,NA,NA,NA,NA,NA,NA,NA,NA,NA,NA,NA,NA,NA,NA,NA,NA,NA,NA
audio-instructions,34,304931,0.0-6.0-1.0,voc_e2,12383,"[{""event"":""fullscreenenter"",""trial"":1,""time"":2534}]",NA,2829.699999988079,static/audio/instructions10.wav,NA,0,NA,NA,NA,NA,NA,NA,NA,NA,NA,NA,NA,NA,NA,NA,NA,NA,NA,NA,NA,NA,NA,NA,NA,NA,NA
fcp-trial,35,319940,0.0-6.0-2.0,voc_e2,12383,"[{""event"":""fullscreenenter"",""trial"":1,""time"":2534}]",NA,NA,NA,NA,NA,0,#EDC948,#46d3c8,10,10,1,null,null,null,null,null,null,NA,0,practice,NA,NA,NA,NA,NA,NA,NA,NA,NA,NA
audio-instructions,36,333060,0.0-6.0-3.0,voc_e2,12383,"[{""event"":""fullscreenenter"",""trial"":1,""time"":2534}]",NA,2108.5,static/audio/instructions11.wav,NA,0,NA,NA,NA,NA,NA,NA,NA,NA,NA,NA,NA,NA,NA,NA,NA,NA,NA,NA,NA,NA,NA,NA,NA,NA,NA
fcp-trial,37,336806,0.0-6.0-4.0,voc_e2,12383,"[{""event"":""fullscreenenter"",""trial"":1,""time"":2534}]",NA,NA,NA,NA,NA,6,#EDC948,#46d3c8,10,10,1,40,0,418.19999998807907,37,1,1812.699999988079,10,1,practice,NA,NA,NA,NA,NA,NA,NA,NA,NA,NA
audio-instructions,38,372125,0.0-6.0-5.0,voc_e2,12383,"[{""event"":""fullscreenenter"",""trial"":1,""time"":2534}]",NA,16633.80000001192,static/audio/instructions12.wav,NA,0,NA,NA,NA,NA,NA,NA,NA,NA,NA,NA,NA,NA,NA,NA,NA,NA,NA,NA,NA,NA,NA,NA,NA,NA,NA
audio-instructions,39,383116,0.0-6.0-6.0,voc_e2,12383,"[{""event"":""fullscreenenter"",""trial"":1,""time"":2534}]",NA,3394.5,static/audio/instructions13.wav,NA,0,NA,NA,NA,NA,NA,NA,NA,NA,NA,NA,NA,NA,NA,NA,NA,NA,NA,NA,NA,NA,NA,NA,NA,NA,NA
audio-instructions,40,395380,0.0-6.0-7.0,voc_e2,12383,"[{""event"":""fullscreenenter"",""trial"":1,""time"":2534}]",NA,3819.2000000178814,static/audio/instructions14.wav,NA,0,NA,NA,NA,NA,NA,NA,NA,NA,NA,NA,NA,NA,NA,NA,NA,NA,NA,NA,NA,NA,NA,NA,NA,NA,NA
audio-instructions,41,404883,0.0-7.0-0.0,voc_e2,12383,"[{""event"":""fullscreenenter"",""trial"":1,""time"":2534}]",NA,2582.5999999940395,static/audio/instructions15.wav,NA,0,NA,NA,NA,NA,NA,NA,NA,NA,NA,NA,NA,NA,NA,NA,NA,NA,NA,NA,NA,NA,NA,NA,NA,NA,NA
audio-instructions,42,414845,0.0-7.0-1.0,voc_e2,12383,"[{""event"":""fullscreenenter"",""trial"":1,""time"":2534}]",NA,3134.9000000059605,static/audio/instructions16.wav,NA,0,NA,NA,NA,NA,NA,NA,NA,NA,NA,NA,NA,NA,NA,NA,NA,NA,NA,NA,NA,NA,NA,NA,NA,NA,NA
audio-instructions,43,427548,0.0-7.0-2.0,voc_e2,12383,"[{""event"":""fullscreenenter"",""trial"":1,""time"":2534}]",NA,5026.200000017881,static/audio/instructions17.wav,NA,0,NA,NA,NA,NA,NA,NA,NA,NA,NA,NA,NA,NA,NA,NA,NA,NA,NA,NA,NA,NA,NA,NA,NA,NA,NA
audio-instructions,44,437572,0.0-7.0-3.0,voc_e2,12383,"[{""event"":""fullscreenenter"",""trial"":1,""time"":2534}]",NA,2260.5,static/audio/instructions18.wav,NA,0,NA,NA,NA,NA,NA,NA,NA,NA,NA,NA,NA,NA,NA,NA,NA,NA,NA,NA,NA,NA,NA,NA,NA,NA,NA
audio-instructions,45,446476,0.0-7.0-4.0,voc_e2,12383,"[{""event"":""fullscreenenter"",""trial"":1,""time"":2534}]",NA,2155.5,static/audio/instructions19.wav,NA,0,NA,NA,NA,NA,NA,NA,NA,NA,NA,NA,NA,NA,NA,NA,NA,NA,NA,NA,NA,NA,NA,NA,NA,NA,NA
fcp-comprehension,46,471205,0.0-7.0-5.0,voc_e2,12383,"[{""event"":""fullscreenenter"",""trial"":1,""time"":2534}]",NA,24727,NA,NA,NA,NA,NA,NA,NA,NA,NA,NA,NA,NA,NA,NA,NA,NA,NA,NA,"false,false,false,true",0,NA,NA,NA,NA,NA,NA,NA,NA
audio-instructions,47,482748,0.0-8.0,voc_e2,12383,"[{""event"":""fullscreenenter"",""trial"":1,""time"":2534}]",NA,2317.2000000178814,static/audio/ready.wav,NA,0,NA,NA,NA,NA,NA,NA,NA,NA,NA,NA,NA,NA,NA,NA,NA,NA,NA,NA,NA,NA,NA,NA,NA,NA,NA
fcp-trial,48,487785,0.0-9.0-0.0,voc_e2,12383,"[{""event"":""fullscreenenter"",""trial"":1,""time"":2534}]",NA,NA,NA,NA,NA,6,#3386FF,#D89F1C,0,10,0,38,1,2516.699999988079,37,1,1005.4000000059605,0,0,experiment,NA,NA,0,0.1,0.9,1,0,1,1,NA
fcp-trial,49,490977,0.0-10.0-0.0,voc_e2,12383,"[{""event"":""fullscreenenter"",""trial"":1,""time"":2534}]",NA,NA,NA,NA,NA,5,#D8271C,#741CD8,0,0,0,38,1,1129.300000011921,39,0,556.3999999761581,0,1,experiment,NA,NA,1,0.3,0.7,3,2,2,1,NA
fcp-trial,50,494508,0.0-11.0-0.0,voc_e2,12383,"[{""event"":""fullscreenenter"",""trial"":1,""time"":2534}]",NA,NA,NA,NA,NA,2,#D8271C,#741CD8,0,0,0,40,0,1206.199999988079,37,1,815.1999999880791,0,0,experiment,NA,NA,1,0.3,0.7,3,2,3,1,NA
fcp-trial,51,498757,0.0-12.0-0.0,voc_e2,12383,"[{""event"":""fullscreenenter"",""trial"":1,""time"":2534}]",NA,NA,NA,NA,NA,2,#D89F1C,#3386FF,10,10,1,38,1,2041.7000000178814,37,1,695.3000000119209,10,1,experiment,NA,NA,0,0.9,0.1,0,1,4,1,NA
fcp-trial,52,501923,0.0-13.0-0.0,voc_e2,12383,"[{""event"":""fullscreenenter"",""trial"":1,""time"":2534}]",NA,NA,NA,NA,NA,0,#D8271C,#741CD8,10,10,0,38,1,1169.699999988079,37,1,472.69999998807907,10,0,experiment,NA,NA,1,0.3,0.7,3,2,5,1,NA
fcp-trial,53,505040,0.0-14.0-0.0,voc_e2,12383,"[{""event"":""fullscreenenter"",""trial"":1,""time"":2534}]",NA,NA,NA,NA,NA,5,#D89F1C,#3386FF,10,0,1,38,1,1066.199999988079,37,1,536.3999999761581,10,1,experiment,NA,NA,0,0.9,0.1,0,1,6,1,NA
fcp-trial,54,508076,0.0-15.0-0.0,voc_e2,12383,"[{""event"":""fullscreenenter"",""trial"":1,""time"":2534}]",NA,NA,NA,NA,NA,1,#D8271C,#741CD8,0,0,0,38,1,1104.0999999940395,37,1,425.7999999821186,0,0,experiment,NA,NA,1,0.3,0.7,3,2,7,1,NA
fcp-trial,55,511294,0.0-16.0-0.0,voc_e2,12383,"[{""event"":""fullscreenenter"",""trial"":1,""time"":2534}]",NA,NA,NA,NA,NA,4,#1CD855,#FA92F8,0,0,1,40,0,1094.4000000059605,37,1,615,0,1,experiment,NA,NA,2,0.5,0.5,4,5,8,1,NA
fcp-trial,56,514696,0.0-17.0-0.0,voc_e2,12383,"[{""event"":""fullscreenenter"",""trial"":1,""time"":2534}]",NA,NA,NA,NA,NA,0,#D89F1C,#3386FF,10,0,1,38,1,1276.7000000178814,39,0,617.5999999940395,0,0,experiment,NA,NA,0,0.9,0.1,0,1,9,1,NA
fcp-trial,57,518083,0.0-18.0-0.0,voc_e2,12383,"[{""event"":""fullscreenenter"",""trial"":1,""time"":2534}]",NA,NA,NA,NA,NA,3,#FA92F8,#1CD855,10,10,0,40,0,1210.699999988079,37,1,670.5,10,0,experiment,NA,NA,2,0.5,0.5,5,4,10,1,NA
fcp-trial,58,521331,0.0-19.0-0.0,voc_e2,12383,"[{""event"":""fullscreenenter"",""trial"":1,""time"":2534}]",NA,NA,NA,NA,NA,6,#1CD855,#FA92F8,10,0,1,40,0,1266.699999988079,37,1,470.2999999821186,10,1,experiment,NA,NA,2,0.5,0.5,4,5,11,1,NA
fcp-trial,59,524181,0.0-20.0-0.0,voc_e2,12383,"[{""event"":""fullscreenenter"",""trial"":1,""time"":2534}]",NA,NA,NA,NA,NA,6,#741CD8,#D8271C,10,10,1,40,0,859.2999999821186,37,1,487.09999999403954,10,1,experiment,NA,NA,1,0.7,0.3,2,3,12,1,NA
fcp-trial,60,527161,0.0-21.0-0.0,voc_e2,12383,"[{""event"":""fullscreenenter"",""trial"":1,""time"":2534}]",NA,NA,NA,NA,NA,1,#FA92F8,#1CD855,10,0,0,38,1,1108.9000000059605,37,1,364.19999998807907,10,0,experiment,NA,NA,2,0.5,0.5,5,4,13,1,NA
fcp-trial,61,530758,0.0-22.0-0.0,voc_e2,12383,"[{""event"":""fullscreenenter"",""trial"":1,""time"":2534}]",NA,NA,NA,NA,NA,3,#3386FF,#D89F1C,0,10,0,40,0,1113.699999988079,39,0,978.5999999940395,10,1,experiment,NA,NA,0,0.1,0.9,1,0,14,1,NA
fcp-trial,62,533380,0.0-23.0-0.0,voc_e2,12383,"[{""event"":""fullscreenenter"",""trial"":1,""time"":2534}]",NA,NA,NA,NA,NA,4,#D8271C,#741CD8,0,10,0,40,0,595.5,39,0,519.6999999880791,10,1,experiment,NA,NA,1,0.3,0.7,3,2,15,1,NA
fcp-trial,63,536012,0.0-24.0-0.0,voc_e2,12383,"[{""event"":""fullscreenenter"",""trial"":1,""time"":2534}]",NA,NA,NA,NA,NA,1,#3386FF,#D89F1C,0,10,0,40,0,478.59999999403954,37,1,647.6999999880791,0,0,experiment,NA,NA,0,0.1,0.9,1,0,16,1,NA
fcp-trial,64,539231,0.0-25.0-0.0,voc_e2,12383,"[{""event"":""fullscreenenter"",""trial"":1,""time"":2534}]",NA,NA,NA,NA,NA,2,#1CD855,#FA92F8,10,0,1,40,0,1202.4000000059605,39,0,508.30000001192093,0,0,experiment,NA,NA,2,0.5,0.5,4,5,17,1,NA
fcp-trial,65,541856,0.0-26.0-0.0,voc_e2,12383,"[{""event"":""fullscreenenter"",""trial"":1,""time"":2534}]",NA,NA,NA,NA,NA,4,#D89F1C,#3386FF,10,0,1,40,0,615.2999999821186,37,1,501.09999999403954,10,1,experiment,NA,NA,0,0.9,0.1,0,1,18,1,NA
fcp-trial,66,544390,0.0-27.0-0.0,voc_e2,12383,"[{""event"":""fullscreenenter"",""trial"":1,""time"":2534}]",NA,NA,NA,NA,NA,3,#D8271C,#741CD8,10,10,0,40,0,472.2000000178814,39,0,546.6999999880791,10,1,experiment,NA,NA,1,0.3,0.7,3,2,19,1,NA
fcp-trial,67,547034,0.0-28.0-0.0,voc_e2,12383,"[{""event"":""fullscreenenter"",""trial"":1,""time"":2534}]",NA,NA,NA,NA,NA,0,#1CD855,#FA92F8,0,0,1,38,1,776.3999999761581,37,1,361.40000000596046,0,1,experiment,NA,NA,2,0.5,0.5,4,5,20,1,NA
fcp-trial,68,550171,0.0-29.0-0.0,voc_e2,12383,"[{""event"":""fullscreenenter"",""trial"":1,""time"":2534}]",NA,NA,NA,NA,NA,5,#FA92F8,#1CD855,0,10,0,40,0,1231.4000000059605,39,0,398,10,1,experiment,NA,NA,2,0.5,0.5,5,4,21,1,NA
fcp-trial,69,553129,0.0-30.0-0.0,voc_e2,12383,"[{""event"":""fullscreenenter"",""trial"":1,""time"":2534}]",NA,NA,NA,NA,NA,0,#D89F1C,#3386FF,10,0,1,38,1,1124.4000000059605,37,1,328,10,1,experiment,NA,NA,0,0.9,0.1,0,1,22,1,NA
fcp-trial,70,555869,0.0-31.0-0.0,voc_e2,12383,"[{""event"":""fullscreenenter"",""trial"":1,""time"":2534}]",NA,NA,NA,NA,NA,6,#FA92F8,#1CD855,0,10,0,40,0,616.5999999940395,39,0,619.1999999880791,10,1,experiment,NA,NA,2,0.5,0.5,5,4,23,1,NA
fcp-trial,71,558520,0.0-32.0-0.0,voc_e2,12383,"[{""event"":""fullscreenenter"",""trial"":1,""time"":2534}]",NA,NA,NA,NA,NA,5,#3386FF,#D89F1C,0,0,0,40,0,539.2000000178814,39,0,607.7000000178814,0,1,experiment,NA,NA,0,0.1,0.9,1,0,24,1,NA
fcp-trial,72,561365,0.0-33.0-0.0,voc_e2,12383,"[{""event"":""fullscreenenter"",""trial"":1,""time"":2534}]",NA,NA,NA,NA,NA,1,#D8271C,#741CD8,0,10,0,38,1,1000,37,1,341.7000000178814,0,0,experiment,NA,NA,1,0.3,0.7,3,2,25,1,NA
fcp-trial,73,563721,0.0-34.0-0.0,voc_e2,12383,"[{""event"":""fullscreenenter"",""trial"":1,""time"":2534}]",NA,NA,NA,NA,NA,3,#FA92F8,#1CD855,10,10,0,40,0,492.69999998807907,39,0,357.59999999403954,10,1,experiment,NA,NA,2,0.5,0.5,5,4,26,1,NA
fcp-trial,74,566050,0.0-35.0-0.0,voc_e2,12383,"[{""event"":""fullscreenenter"",""trial"":1,""time"":2534}]",NA,NA,NA,NA,NA,2,#D8271C,#741CD8,0,10,0,40,0,430.19999998807907,37,1,394.5,0,0,experiment,NA,NA,1,0.3,0.7,3,2,27,1,NA
fcp-trial,75,568562,0.0-36.0-0.0,voc_e2,12383,"[{""event"":""fullscreenenter"",""trial"":1,""time"":2534}]",NA,NA,NA,NA,NA,6,#3386FF,#D89F1C,0,10,0,40,0,350.30000001192093,37,1,654.3000000119209,0,0,experiment,NA,NA,0,0.1,0.9,1,0,28,1,NA
fcp-trial,76,571375,0.0-37.0-0.0,voc_e2,12383,"[{""event"":""fullscreenenter"",""trial"":1,""time"":2534}]",NA,NA,NA,NA,NA,5,#741CD8,#D8271C,10,0,1,40,0,784.5999999940395,37,1,523.9000000059605,10,1,experiment,NA,NA,1,0.7,0.3,2,3,29,1,NA
fcp-trial,77,574669,0.0-38.0-0.0,voc_e2,12383,"[{""event"":""fullscreenenter"",""trial"":1,""time"":2534}]",NA,NA,NA,NA,NA,0,#1CD855,#FA92F8,0,10,1,38,1,1481.5,39,0,307,10,0,experiment,NA,NA,2,0.5,0.5,4,5,30,1,NA
fcp-trial,78,578591,0.0-39.0-0.0,voc_e2,12383,"[{""event"":""fullscreenenter"",""trial"":1,""time"":2534}]",NA,NA,NA,NA,NA,1,#FA92F8,#1CD855,0,10,0,40,0,1183.5,39,0,1233.0999999940395,10,1,experiment,NA,NA,2,0.5,0.5,5,4,31,1,NA
fcp-trial,79,581324,0.0-40.0-0.0,voc_e2,12383,"[{""event"":""fullscreenenter"",""trial"":1,""time"":2534}]",NA,NA,NA,NA,NA,5,#FA92F8,#1CD855,0,0,0,40,0,811,37,1,415.2000000178814,0,0,experiment,NA,NA,2,0.5,0.5,5,4,32,1,NA
fcp-trial,80,583962,0.0-41.0-0.0,voc_e2,12383,"[{""event"":""fullscreenenter"",""trial"":1,""time"":2534}]",NA,NA,NA,NA,NA,4,#3386FF,#D89F1C,10,10,0,40,0,693,37,1,438,10,0,experiment,NA,NA,0,0.1,0.9,1,0,33,1,NA
fcp-trial,81,587145,0.0-42.0-0.0,voc_e2,12383,"[{""event"":""fullscreenenter"",""trial"":1,""time"":2534}]",NA,NA,NA,NA,NA,0,#741CD8,#D8271C,0,0,1,38,1,1339.800000011921,37,1,339.69999998807907,0,1,experiment,NA,NA,1,0.7,0.3,2,3,34,1,NA
fcp-trial,82,589644,0.0-43.0-0.0,voc_e2,12383,"[{""event"":""fullscreenenter"",""trial"":1,""time"":2534}]",NA,NA,NA,NA,NA,3,#D89F1C,#3386FF,10,0,1,40,0,569.6999999880791,39,0,423.7000000178814,0,0,experiment,NA,NA,0,0.9,0.1,0,1,35,1,NA
fcp-trial,83,592489,0.0-44.0-0.0,voc_e2,12383,"[{""event"":""fullscreenenter"",""trial"":1,""time"":2534}]",NA,NA,NA,NA,NA,2,#FA92F8,#1CD855,10,10,0,40,0,681.5999999940395,39,0,659.2000000178814,10,1,experiment,NA,NA,2,0.5,0.5,5,4,36,1,NA
fcp-trial,84,595339,0.0-45.0-0.0,voc_e2,12383,"[{""event"":""fullscreenenter"",""trial"":1,""time"":2534}]",NA,NA,NA,NA,NA,3,#741CD8,#D8271C,10,10,1,40,0,1045.9000000059605,37,1,297.2999999821186,10,1,experiment,NA,NA,1,0.7,0.3,2,3,37,1,NA
fcp-trial,85,597964,0.0-46.0-0.0,voc_e2,12383,"[{""event"":""fullscreenenter"",""trial"":1,""time"":2534}]",NA,NA,NA,NA,NA,1,#D89F1C,#3386FF,10,10,1,40,0,695.4000000059605,37,1,418.80000001192093,10,1,experiment,NA,NA,0,0.9,0.1,0,1,38,1,NA
fcp-trial,86,600609,0.0-47.0-0.0,voc_e2,12383,"[{""event"":""fullscreenenter"",""trial"":1,""time"":2534}]",NA,NA,NA,NA,NA,6,#741CD8,#D8271C,10,0,1,40,0,593.7999999821186,39,0,539.5999999940395,0,0,experiment,NA,NA,1,0.7,0.3,2,3,39,1,NA
fcp-trial,87,604423,0.0-48.0-0.0,voc_e2,12383,"[{""event"":""fullscreenenter"",""trial"":1,""time"":2534}]",NA,NA,NA,NA,NA,4,#1CD855,#FA92F8,0,10,1,40,0,1541.699999988079,39,0,759.5999999940395,10,0,experiment,NA,NA,2,0.5,0.5,4,5,40,1,NA
fcp-trial,88,607416,0.0-49.0-0.0,voc_e2,12383,"[{""event"":""fullscreenenter"",""trial"":1,""time"":2534}]",NA,NA,NA,NA,NA,2,#3386FF,#D89F1C,0,10,0,40,0,785.4000000059605,39,0,700.3999999761581,10,1,experiment,NA,NA,0,0.1,0.9,1,0,41,1,NA
fcp-trial,89,610166,0.0-50.0-0.0,voc_e2,12383,"[{""event"":""fullscreenenter"",""trial"":1,""time"":2534}]",NA,NA,NA,NA,NA,4,#741CD8,#D8271C,10,0,1,40,0,646.7999999821186,39,0,593,0,0,experiment,NA,NA,1,0.7,0.3,2,3,42,1,NA
fcp-trial,90,613206,0.0-51.0-0.0,voc_e2,12383,"[{""event"":""fullscreenenter"",""trial"":1,""time"":2534}]",NA,NA,NA,NA,NA,5,#3386FF,#D89F1C,0,10,0,40,0,744.1999999880791,37,1,791.9000000059605,0,0,experiment,NA,NA,0,0.1,0.9,1,0,43,1,NA
fcp-trial,91,616032,0.0-52.0-0.0,voc_e2,12383,"[{""event"":""fullscreenenter"",""trial"":1,""time"":2534}]",NA,NA,NA,NA,NA,5,#741CD8,#D8271C,10,10,1,40,0,772.5,39,0,545.9000000059605,10,0,experiment,NA,NA,1,0.7,0.3,2,3,44,1,NA
fcp-trial,92,619674,0.0-53.0-0.0,voc_e2,12383,"[{""event"":""fullscreenenter"",""trial"":1,""time"":2534}]",NA,NA,NA,NA,NA,0,#D89F1C,#3386FF,10,0,1,38,1,1361.300000011921,37,1,773.5999999940395,10,1,experiment,NA,NA,0,0.9,0.1,0,1,45,1,NA
fcp-trial,93,622602,0.0-54.0-0.0,voc_e2,12383,"[{""event"":""fullscreenenter"",""trial"":1,""time"":2534}]",NA,NA,NA,NA,NA,1,#D8271C,#741CD8,0,10,0,40,0,931.5,39,0,484,10,1,experiment,NA,NA,1,0.3,0.7,3,2,46,2,NA
fcp-trial,94,626836,0.0-55.0-0.0,voc_e2,12383,"[{""event"":""fullscreenenter"",""trial"":1,""time"":2534}]",NA,NA,NA,NA,NA,2,#FA92F8,#1CD855,0,10,0,40,0,2025.7000000178814,39,0,698.5,10,1,experiment,NA,NA,2,0.5,0.5,5,4,47,2,NA
fcp-trial,95,629671,0.0-56.0-0.0,voc_e2,12383,"[{""event"":""fullscreenenter"",""trial"":1,""time"":2534}]",NA,NA,NA,NA,NA,2,#D89F1C,#3386FF,10,0,1,40,0,821.2999999821186,39,0,499.5,0,0,experiment,NA,NA,0,0.9,0.1,0,1,48,2,NA
fcp-trial,96,632492,0.0-57.0-0.0,voc_e2,12383,"[{""event"":""fullscreenenter"",""trial"":1,""time"":2534}]",NA,NA,NA,NA,NA,6,#741CD8,#D8271C,10,0,1,40,0,673,37,1,636.8000000119209,10,1,experiment,NA,NA,1,0.7,0.3,2,3,49,2,NA
fcp-trial,97,635032,0.0-58.0-0.0,voc_e2,12383,"[{""event"":""fullscreenenter"",""trial"":1,""time"":2534}]",NA,NA,NA,NA,NA,5,#1CD855,#FA92F8,0,10,1,40,0,627.0999999940395,37,1,402.7999999821186,0,1,experiment,NA,NA,2,0.5,0.5,4,5,50,2,NA
fcp-trial,98,637665,0.0-59.0-0.0,voc_e2,12383,"[{""event"":""fullscreenenter"",""trial"":1,""time"":2534}]",NA,NA,NA,NA,NA,2,#741CD8,#D8271C,10,0,1,40,0,474,39,0,647.1999999880791,0,0,experiment,NA,NA,1,0.7,0.3,2,3,51,2,NA
fcp-trial,99,640205,0.0-60.0-0.0,voc_e2,12383,"[{""event"":""fullscreenenter"",""trial"":1,""time"":2534}]",NA,NA,NA,NA,NA,4,#1CD855,#FA92F8,0,0,1,40,0,209.30000001192093,37,1,823.1999999880791,0,1,experiment,NA,NA,2,0.5,0.5,4,5,52,2,NA
fcp-trial,100,642560,0.0-61.0-0.0,voc_e2,12383,"[{""event"":""fullscreenenter"",""trial"":1,""time"":2534}]",NA,NA,NA,NA,NA,4,#3386FF,#D89F1C,0,10,0,40,0,525.5,37,1,324.69999998807907,0,0,experiment,NA,NA,0,0.1,0.9,1,0,53,2,NA
fcp-trial,101,644974,0.0-62.0-0.0,voc_e2,12383,"[{""event"":""fullscreenenter"",""trial"":1,""time"":2534}]",NA,NA,NA,NA,NA,3,#1CD855,#FA92F8,10,0,1,40,0,486.59999999403954,37,1,419.7000000178814,10,1,experiment,NA,NA,2,0.5,0.5,4,5,54,2,NA
fcp-trial,102,648205,0.0-63.0-0.0,voc_e2,12383,"[{""event"":""fullscreenenter"",""trial"":1,""time"":2534}]",NA,NA,NA,NA,NA,1,#3386FF,#D89F1C,0,10,0,40,0,907.6999999880791,37,1,814.9000000059605,0,0,experiment,NA,NA,0,0.1,0.9,1,0,55,2,NA
fcp-trial,103,650723,0.0-64.0-0.0,voc_e2,12383,"[{""event"":""fullscreenenter"",""trial"":1,""time"":2534}]",NA,NA,NA,NA,NA,4,#D8271C,#741CD8,0,0,0,40,0,415.69999998807907,37,1,598,0,0,experiment,NA,NA,1,0.3,0.7,3,2,56,2,NA
fcp-trial,104,653494,0.0-65.0-0.0,voc_e2,12383,"[{""event"":""fullscreenenter"",""trial"":1,""time"":2534}]",NA,NA,NA,NA,NA,6,#1CD855,#FA92F8,0,0,1,40,0,932.6999999880791,37,1,329.2000000178814,0,1,experiment,NA,NA,2,0.5,0.5,4,5,57,2,NA
fcp-trial,105,655770,0.0-66.0-0.0,voc_e2,12383,"[{""event"":""fullscreenenter"",""trial"":1,""time"":2534}]",NA,NA,NA,NA,NA,6,#D89F1C,#3386FF,10,0,1,40,0,460.40000000596046,37,1,303.90000000596046,10,1,experiment,NA,NA,0,0.9,0.1,0,1,58,2,NA
fcp-trial,106,658014,0.0-67.0-0.0,voc_e2,12383,"[{""event"":""fullscreenenter"",""trial"":1,""time"":2534}]",NA,NA,NA,NA,NA,3,#741CD8,#D8271C,10,0,1,40,0,486.7999999821186,37,1,250.2000000178814,10,1,experiment,NA,NA,1,0.7,0.3,2,3,59,2,NA
fcp-trial,107,660914,0.0-68.0-0.0,voc_e2,12383,"[{""event"":""fullscreenenter"",""trial"":1,""time"":2534}]",NA,NA,NA,NA,NA,1,#FA92F8,#1CD855,10,0,0,40,0,517.0999999940395,39,0,878.0999999940395,0,1,experiment,NA,NA,2,0.5,0.5,5,4,60,2,NA
fcp-trial,108,664526,0.0-69.0-0.0,voc_e2,12383,"[{""event"":""fullscreenenter"",""trial"":1,""time"":2534}]",NA,NA,NA,NA,NA,0,#741CD8,#D8271C,0,0,1,38,1,1511.7999999821186,37,1,595.7000000178814,0,1,experiment,NA,NA,1,0.7,0.3,2,3,61,2,NA
fcp-trial,109,667583,0.0-70.0-0.0,voc_e2,12383,"[{""event"":""fullscreenenter"",""trial"":1,""time"":2534}]",NA,NA,NA,NA,NA,0,#1CD855,#FA92F8,10,10,1,38,1,1102.699999988079,39,0,442.09999999403954,10,0,experiment,NA,NA,2,0.5,0.5,4,5,62,2,NA
fcp-trial,110,670188,0.0-71.0-0.0,voc_e2,12383,"[{""event"":""fullscreenenter"",""trial"":1,""time"":2534}]",NA,NA,NA,NA,NA,3,#3386FF,#D89F1C,0,10,0,40,0,718.3999999761581,39,0,378,10,1,experiment,NA,NA,0,0.1,0.9,1,0,63,2,NA
fcp-trial,111,672823,0.0-72.0-0.0,voc_e2,12383,"[{""event"":""fullscreenenter"",""trial"":1,""time"":2534}]",NA,NA,NA,NA,NA,4,#FA92F8,#1CD855,0,0,0,40,0,741.1999999880791,39,0,377.40000000596046,0,1,experiment,NA,NA,2,0.5,0.5,5,4,64,2,NA
fcp-trial,112,676481,0.0-73.0-0.0,voc_e2,12383,"[{""event"":""fullscreenenter"",""trial"":1,""time"":2534}]",NA,NA,NA,NA,NA,0,#D8271C,#741CD8,0,0,0,38,1,1389.199999988079,39,0,762.5,0,1,experiment,NA,NA,1,0.3,0.7,3,2,65,2,NA
fcp-trial,113,679868,0.0-74.0-0.0,voc_e2,12383,"[{""event"":""fullscreenenter"",""trial"":1,""time"":2534}]",NA,NA,NA,NA,NA,0,#3386FF,#D89F1C,0,10,0,38,1,1530.7000000178814,39,0,352.10000002384186,10,1,experiment,NA,NA,0,0.1,0.9,1,0,66,2,NA
fcp-trial,114,682701,0.0-75.0-0.0,voc_e2,12383,"[{""event"":""fullscreenenter"",""trial"":1,""time"":2534}]",NA,NA,NA,NA,NA,3,#FA92F8,#1CD855,10,10,0,38,1,920.8999999761581,39,0,406.69999998807907,10,1,experiment,NA,NA,2,0.5,0.5,5,4,67,2,NA
fcp-trial,115,686340,0.0-76.0-0.0,voc_e2,12383,"[{""event"":""fullscreenenter"",""trial"":1,""time"":2534}]",NA,NA,NA,NA,NA,3,#3386FF,#D89F1C,0,10,0,40,0,1402.3999999761581,39,0,726.5999999940395,10,1,experiment,NA,NA,0,0.1,0.9,1,0,68,2,NA
fcp-trial,116,689159,0.0-77.0-0.0,voc_e2,12383,"[{""event"":""fullscreenenter"",""trial"":1,""time"":2534}]",NA,NA,NA,NA,NA,6,#741CD8,#D8271C,10,0,1,40,0,781.5,39,0,527.5,0,0,experiment,NA,NA,1,0.7,0.3,2,3,69,2,NA
fcp-trial,117,692351,0.0-78.0-0.0,voc_e2,12383,"[{""event"":""fullscreenenter"",""trial"":1,""time"":2534}]",NA,NA,NA,NA,NA,6,#1CD855,#FA92F8,10,10,1,40,0,628.4000000059605,37,1,1053,10,1,experiment,NA,NA,2,0.5,0.5,4,5,70,2,NA
fcp-trial,118,695781,0.0-79.0-0.0,voc_e2,12383,"[{""event"":""fullscreenenter"",""trial"":1,""time"":2534}]",NA,NA,NA,NA,NA,2,#1CD855,#FA92F8,10,10,1,38,1,1333.199999988079,39,0,586,10,0,experiment,NA,NA,2,0.5,0.5,4,5,71,2,NA
fcp-trial,119,699152,0.0-80.0-0.0,voc_e2,12383,"[{""event"":""fullscreenenter"",""trial"":1,""time"":2534}]",NA,NA,NA,NA,NA,1,#D8271C,#741CD8,10,10,0,38,1,1194.300000011921,39,0,671.6999999880791,10,1,experiment,NA,NA,1,0.3,0.7,3,2,72,2,NA
fcp-trial,120,701883,0.0-81.0-0.0,voc_e2,12383,"[{""event"":""fullscreenenter"",""trial"":1,""time"":2534}]",NA,NA,NA,NA,NA,5,#D89F1C,#3386FF,10,0,1,40,0,694.2999999821186,37,1,522.5999999940395,10,1,experiment,NA,NA,0,0.9,0.1,0,1,73,2,NA
fcp-trial,121,704599,0.0-82.0-0.0,voc_e2,12383,"[{""event"":""fullscreenenter"",""trial"":1,""time"":2534}]",NA,NA,NA,NA,NA,5,#1CD855,#FA92F8,10,10,1,40,0,709.0999999940395,39,0,495.80000001192093,10,0,experiment,NA,NA,2,0.5,0.5,4,5,74,2,NA
fcp-trial,122,707427,0.0-83.0-0.0,voc_e2,12383,"[{""event"":""fullscreenenter"",""trial"":1,""time"":2534}]",NA,NA,NA,NA,NA,6,#D89F1C,#3386FF,10,0,1,40,0,418.5,39,0,900.4000000059605,0,0,experiment,NA,NA,0,0.9,0.1,0,1,75,2,NA
fcp-trial,123,710554,0.0-84.0-0.0,voc_e2,12383,"[{""event"":""fullscreenenter"",""trial"":1,""time"":2534}]",NA,NA,NA,NA,NA,2,#741CD8,#D8271C,10,0,1,40,0,582,37,1,1036.300000011921,10,1,experiment,NA,NA,1,0.7,0.3,2,3,76,2,NA
fcp-trial,124,713080,0.0-85.0-0.0,voc_e2,12383,"[{""event"":""fullscreenenter"",""trial"":1,""time"":2534}]",NA,NA,NA,NA,NA,1,#1CD855,#FA92F8,0,0,1,40,0,571.4000000059605,39,0,451.2000000178814,0,0,experiment,NA,NA,2,0.5,0.5,4,5,77,2,NA
fcp-trial,125,715706,0.0-86.0-0.0,voc_e2,12383,"[{""event"":""fullscreenenter"",""trial"":1,""time"":2534}]",NA,NA,NA,NA,NA,4,#D8271C,#741CD8,10,10,0,40,0,630.6000000238419,39,0,490.19999998807907,10,1,experiment,NA,NA,1,0.3,0.7,3,2,78,2,NA
fcp-trial,126,718795,0.0-87.0-0.0,voc_e2,12383,"[{""event"":""fullscreenenter"",""trial"":1,""time"":2534}]",NA,NA,NA,NA,NA,2,#3386FF,#D89F1C,0,10,0,40,0,832,37,1,753.1999999880791,0,0,experiment,NA,NA,0,0.1,0.9,1,0,79,2,NA
fcp-trial,127,721814,0.0-88.0-0.0,voc_e2,12383,"[{""event"":""fullscreenenter"",""trial"":1,""time"":2534}]",NA,NA,NA,NA,NA,0,#1CD855,#FA92F8,10,0,1,38,1,1053.7999999821186,37,1,458.90000000596046,10,1,experiment,NA,NA,2,0.5,0.5,4,5,80,2,NA
fcp-trial,128,724879,0.0-89.0-0.0,voc_e2,12383,"[{""event"":""fullscreenenter"",""trial"":1,""time"":2534}]",NA,NA,NA,NA,NA,5,#D8271C,#741CD8,0,0,0,40,0,1059.9000000059605,37,1,495.59999999403954,0,0,experiment,NA,NA,1,0.3,0.7,3,2,81,2,NA
fcp-trial,129,727859,0.0-90.0-0.0,voc_e2,12383,"[{""event"":""fullscreenenter"",""trial"":1,""time"":2534}]",NA,NA,NA,NA,NA,1,#3386FF,#D89F1C,0,10,0,38,1,1087.199999988079,39,0,379.60000002384186,10,1,experiment,NA,NA,0,0.1,0.9,1,0,82,2,NA
fcp-trial,130,731088,0.0-91.0-0.0,voc_e2,12383,"[{""event"":""fullscreenenter"",""trial"":1,""time"":2534}]",NA,NA,NA,NA,NA,3,#D8271C,#741CD8,0,0,0,40,0,871.3000000119209,39,0,846,0,1,experiment,NA,NA,1,0.3,0.7,3,2,83,2,NA
fcp-trial,131,734085,0.0-92.0-0.0,voc_e2,12383,"[{""event"":""fullscreenenter"",""trial"":1,""time"":2534}]",NA,NA,NA,NA,NA,4,#3386FF,#D89F1C,0,10,0,40,0,816.8000000119209,37,1,667.1999999880791,0,0,experiment,NA,NA,0,0.1,0.9,1,0,84,2,NA
fcp-trial,132,737194,0.0-93.0-0.0,voc_e2,12383,"[{""event"":""fullscreenenter"",""trial"":1,""time"":2534}]",NA,NA,NA,NA,NA,1,#1CD855,#FA92F8,10,0,1,38,1,1197.300000011921,37,1,399.60000002384186,10,1,experiment,NA,NA,2,0.5,0.5,4,5,85,2,NA
fcp-trial,133,741511,0.0-94.0-0.0,voc_e2,12383,"[{""event"":""fullscreenenter"",""trial"":1,""time"":2534}]",NA,NA,NA,NA,NA,2,#1CD855,#FA92F8,10,10,1,38,1,1969.699999988079,37,1,825,10,1,experiment,NA,NA,2,0.5,0.5,4,5,86,2,NA
fcp-trial,134,745003,0.0-95.0-0.0,voc_e2,12383,"[{""event"":""fullscreenenter"",""trial"":1,""time"":2534}]",NA,NA,NA,NA,NA,2,#D8271C,#741CD8,0,10,0,38,1,1274.699999988079,37,1,704.6999999880791,0,0,experiment,NA,NA,1,0.3,0.7,3,2,87,2,NA
fcp-trial,135,747928,0.0-96.0-0.0,voc_e2,12383,"[{""event"":""fullscreenenter"",""trial"":1,""time"":2534}]",NA,NA,NA,NA,NA,0,#D8271C,#741CD8,0,10,0,38,1,1023,39,0,390,10,1,experiment,NA,NA,1,0.3,0.7,3,2,88,2,NA
fcp-trial,136,751103,0.0-97.0-0.0,voc_e2,12383,"[{""event"":""fullscreenenter"",""trial"":1,""time"":2534}]",NA,NA,NA,NA,NA,6,#3386FF,#D89F1C,0,10,0,40,0,1212.300000011921,39,0,455.2000000178814,10,1,experiment,NA,NA,0,0.1,0.9,1,0,89,2,NA
fcp-trial,137,753872,0.0-98.0-0.0,voc_e2,12383,"[{""event"":""fullscreenenter"",""trial"":1,""time"":2534}]",NA,NA,NA,NA,NA,6,#D8271C,#741CD8,0,0,0,40,0,795.4000000059605,39,0,466.09999999403954,0,1,experiment,NA,NA,1,0.3,0.7,3,2,90,2,NA
fcp-trial,138,756687,0.0-99.0-0.0,voc_e2,12383,"[{""event"":""fullscreenenter"",""trial"":1,""time"":2534}]",NA,NA,NA,NA,NA,5,#FA92F8,#1CD855,10,10,0,40,0,557.5,37,1,751.0999999940395,10,0,experiment,NA,NA,2,0.5,0.5,5,4,91,3,NA
fcp-trial,139,759656,0.0-100.0-0.0,voc_e2,12383,"[{""event"":""fullscreenenter"",""trial"":1,""time"":2534}]",NA,NA,NA,NA,NA,2,#3386FF,#D89F1C,0,10,0,40,0,862.2999999821186,39,0,602.3000000119209,10,1,experiment,NA,NA,0,0.1,0.9,1,0,92,3,NA
fcp-trial,140,762782,0.0-101.0-0.0,voc_e2,12383,"[{""event"":""fullscreenenter"",""trial"":1,""time"":2534}]",NA,NA,NA,NA,NA,0,#D89F1C,#3386FF,0,0,1,38,1,1220.3999999761581,37,1,396.2999999821186,0,1,experiment,NA,NA,0,0.9,0.1,0,1,93,3,NA
fcp-trial,141,765989,0.0-102.0-0.0,voc_e2,12383,"[{""event"":""fullscreenenter"",""trial"":1,""time"":2534}]",NA,NA,NA,NA,NA,0,#1CD855,#FA92F8,10,10,1,38,1,1145.5,37,1,556.2000000178814,10,1,experiment,NA,NA,2,0.5,0.5,4,5,94,3,NA
fcp-trial,142,768867,0.0-103.0-0.0,voc_e2,12383,"[{""event"":""fullscreenenter"",""trial"":1,""time"":2534}]",NA,NA,NA,NA,NA,1,#D8271C,#741CD8,0,10,0,38,1,743.9000000059605,39,0,629.1000000238419,10,1,experiment,NA,NA,1,0.3,0.7,3,2,95,3,NA
fcp-trial,143,771751,0.0-104.0-0.0,voc_e2,12383,"[{""event"":""fullscreenenter"",""trial"":1,""time"":2534}]",NA,NA,NA,NA,NA,5,#D8271C,#741CD8,0,10,0,40,0,857.0999999940395,39,0,516.1999999880791,10,1,experiment,NA,NA,1,0.3,0.7,3,2,96,3,NA
fcp-trial,144,774671,0.0-105.0-0.0,voc_e2,12383,"[{""event"":""fullscreenenter"",""trial"":1,""time"":2534}]",NA,NA,NA,NA,NA,4,#D89F1C,#3386FF,10,0,1,40,0,997.9000000059605,37,1,409.30000001192093,10,1,experiment,NA,NA,0,0.9,0.1,0,1,97,3,NA
fcp-trial,145,777391,0.0-106.0-0.0,voc_e2,12383,"[{""event"":""fullscreenenter"",""trial"":1,""time"":2534}]",NA,NA,NA,NA,NA,1,#3386FF,#D89F1C,0,10,0,40,0,843.9000000059605,39,0,370.5,10,1,experiment,NA,NA,0,0.1,0.9,1,0,98,3,NA
fcp-trial,146,780077,0.0-107.0-0.0,voc_e2,12383,"[{""event"":""fullscreenenter"",""trial"":1,""time"":2534}]",NA,NA,NA,NA,NA,4,#FA92F8,#1CD855,10,10,0,40,0,604.9000000059605,39,0,573.6999999880791,10,1,experiment,NA,NA,2,0.5,0.5,5,4,99,3,NA
fcp-trial,147,782790,0.0-108.0-0.0,voc_e2,12383,"[{""event"":""fullscreenenter"",""trial"":1,""time"":2534}]",NA,NA,NA,NA,NA,4,#741CD8,#D8271C,10,0,1,40,0,428.2999999821186,37,1,771.4000000059605,10,1,experiment,NA,NA,1,0.7,0.3,2,3,100,3,NA
fcp-trial,148,785364,0.0-109.0-0.0,voc_e2,12383,"[{""event"":""fullscreenenter"",""trial"":1,""time"":2534}]",NA,NA,NA,NA,NA,5,#3386FF,#D89F1C,0,10,0,40,0,719.6999999880791,39,0,342.90000000596046,10,1,experiment,NA,NA,0,0.1,0.9,1,0,101,3,NA
fcp-trial,149,788075,0.0-110.0-0.0,voc_e2,12383,"[{""event"":""fullscreenenter"",""trial"":1,""time"":2534}]",NA,NA,NA,NA,NA,3,#D89F1C,#3386FF,10,0,1,40,0,797.5,37,1,399,10,1,experiment,NA,NA,0,0.9,0.1,0,1,102,3,NA
fcp-trial,150,790684,0.0-111.0-0.0,voc_e2,12383,"[{""event"":""fullscreenenter"",""trial"":1,""time"":2534}]",NA,NA,NA,NA,NA,6,#1CD855,#FA92F8,0,10,1,40,0,650.9000000059605,39,0,448.2000000178814,10,0,experiment,NA,NA,2,0.5,0.5,4,5,103,3,NA
fcp-trial,151,793253,0.0-112.0-0.0,voc_e2,12383,"[{""event"":""fullscreenenter"",""trial"":1,""time"":2534}]",NA,NA,NA,NA,NA,3,#741CD8,#D8271C,10,0,1,40,0,492.60000002384186,39,0,566.2999999821186,0,0,experiment,NA,NA,1,0.7,0.3,2,3,104,3,NA
fcp-trial,152,795587,0.0-113.0-0.0,voc_e2,12383,"[{""event"":""fullscreenenter"",""trial"":1,""time"":2534}]",NA,NA,NA,NA,NA,3,#FA92F8,#1CD855,10,0,0,40,0,487.2000000178814,39,0,333.5,0,1,experiment,NA,NA,2,0.5,0.5,5,4,105,3,NA
audio-instructions,153,807578,0.0-114.0,voc_e2,12383,"[{""event"":""fullscreenenter"",""trial"":1,""time"":2534}]",NA,7219.899999976158,static/audio/pause.wav,NA,0,NA,NA,NA,NA,NA,NA,NA,NA,NA,NA,NA,NA,NA,NA,NA,NA,NA,NA,NA,NA,NA,NA,NA,NA,NA
fcp-trial,154,811098,0.0-115.0-0.0,voc_e2,12383,"[{""event"":""fullscreenenter"",""trial"":1,""time"":2534}]",NA,NA,NA,NA,NA,2,#FA92F8,#1CD855,10,10,0,40,0,1541.4000000059605,39,0,468.90000000596046,10,1,experiment,NA,NA,2,0.5,0.5,5,4,106,3,NA
fcp-trial,155,814134,0.0-116.0-0.0,voc_e2,12383,"[{""event"":""fullscreenenter"",""trial"":1,""time"":2534}]",NA,NA,NA,NA,NA,5,#1CD855,#FA92F8,10,0,1,40,0,675.2999999821186,37,1,851.3000000119209,10,1,experiment,NA,NA,2,0.5,0.5,4,5,107,3,NA
fcp-trial,156,816782,0.0-117.0-0.0,voc_e2,12383,"[{""event"":""fullscreenenter"",""trial"":1,""time"":2534}]",NA,NA,NA,NA,NA,6,#741CD8,#D8271C,10,10,1,40,0,771.7000000178814,39,0,362.59999999403954,10,0,experiment,NA,NA,1,0.7,0.3,2,3,108,3,NA
fcp-trial,157,819799,0.0-118.0-0.0,voc_e2,12383,"[{""event"":""fullscreenenter"",""trial"":1,""time"":2534}]",NA,NA,NA,NA,NA,5,#3386FF,#D89F1C,0,10,0,40,0,1130.5999999940395,39,0,367.5,10,1,experiment,NA,NA,0,0.1,0.9,1,0,109,3,NA
fcp-trial,158,822530,0.0-119.0-0.0,voc_e2,12383,"[{""event"":""fullscreenenter"",""trial"":1,""time"":2534}]",NA,NA,NA,NA,NA,1,#3386FF,#D89F1C,0,10,0,40,0,745.5,39,0,464.5,10,1,experiment,NA,NA,0,0.1,0.9,1,0,110,3,NA
fcp-trial,159,824848,0.0-120.0-0.0,voc_e2,12383,"[{""event"":""fullscreenenter"",""trial"":1,""time"":2534}]",NA,NA,NA,NA,NA,4,#FA92F8,#1CD855,10,0,0,40,0,450.5,37,1,355.10000002384186,10,0,experiment,NA,NA,2,0.5,0.5,5,4,111,3,NA
fcp-trial,160,827913,0.0-121.0-0.0,voc_e2,12383,"[{""event"":""fullscreenenter"",""trial"":1,""time"":2534}]",NA,NA,NA,NA,NA,0,#741CD8,#D8271C,10,0,1,38,1,1012.9000000059605,39,0,533.2999999821186,0,0,experiment,NA,NA,1,0.7,0.3,2,3,112,3,NA
fcp-trial,161,830710,0.0-122.0-0.0,voc_e2,12383,"[{""event"":""fullscreenenter"",""trial"":1,""time"":2534}]",NA,NA,NA,NA,NA,6,#FA92F8,#1CD855,10,0,0,40,0,936.4000000059605,37,1,347.19999998807907,10,0,experiment,NA,NA,2,0.5,0.5,5,4,113,3,NA
fcp-trial,162,833911,0.0-123.0-0.0,voc_e2,12383,"[{""event"":""fullscreenenter"",""trial"":1,""time"":2534}]",NA,NA,NA,NA,NA,0,#3386FF,#D89F1C,0,10,0,38,1,1243.4000000059605,39,0,452,10,1,experiment,NA,NA,0,0.1,0.9,1,0,114,3,NA
fcp-trial,163,836966,0.0-124.0-0.0,voc_e2,12383,"[{""event"":""fullscreenenter"",""trial"":1,""time"":2534}]",NA,NA,NA,NA,NA,2,#741CD8,#D8271C,10,0,1,40,0,957.5999999940395,37,1,587.1999999880791,10,1,experiment,NA,NA,1,0.7,0.3,2,3,115,3,NA
fcp-trial,164,839626,0.0-125.0-0.0,voc_e2,12383,"[{""event"":""fullscreenenter"",""trial"":1,""time"":2534}]",NA,NA,NA,NA,NA,6,#D89F1C,#3386FF,10,0,1,40,0,589.5999999940395,37,1,565.8000000119209,10,1,experiment,NA,NA,0,0.9,0.1,0,1,116,3,NA
fcp-trial,165,842511,0.0-126.0-0.0,voc_e2,12383,"[{""event"":""fullscreenenter"",""trial"":1,""time"":2534}]",NA,NA,NA,NA,NA,0,#1CD855,#FA92F8,10,0,1,40,0,585.4000000059605,39,0,793.0999999940395,0,0,experiment,NA,NA,2,0.5,0.5,4,5,117,3,NA
fcp-trial,166,845597,0.0-127.0-0.0,voc_e2,12383,"[{""event"":""fullscreenenter"",""trial"":1,""time"":2534}]",NA,NA,NA,NA,NA,5,#D8271C,#741CD8,0,0,0,38,1,1138.2000000178814,37,1,443.19999998807907,0,0,experiment,NA,NA,1,0.3,0.7,3,2,118,3,NA
fcp-trial,167,848478,0.0-128.0-0.0,voc_e2,12383,"[{""event"":""fullscreenenter"",""trial"":1,""time"":2534}]",NA,NA,NA,NA,NA,2,#3386FF,#D89F1C,0,10,0,40,0,917,39,0,458.39999997615814,10,1,experiment,NA,NA,0,0.1,0.9,1,0,119,3,NA
fcp-trial,168,851422,0.0-129.0-0.0,voc_e2,12383,"[{""event"":""fullscreenenter"",""trial"":1,""time"":2534}]",NA,NA,NA,NA,NA,3,#3386FF,#D89F1C,0,10,0,40,0,718.0999999940395,37,1,720.8000000119209,0,0,experiment,NA,NA,0,0.1,0.9,1,0,120,3,NA
fcp-trial,169,855095,0.0-130.0-0.0,voc_e2,12383,"[{""event"":""fullscreenenter"",""trial"":1,""time"":2534}]",NA,NA,NA,NA,NA,3,#FA92F8,#1CD855,0,10,0,40,0,1354.7000000178814,37,1,814.2999999821186,0,0,experiment,NA,NA,2,0.5,0.5,5,4,121,3,NA
fcp-trial,170,857839,0.0-131.0-0.0,voc_e2,12383,"[{""event"":""fullscreenenter"",""trial"":1,""time"":2534}]",NA,NA,NA,NA,NA,4,#741CD8,#D8271C,10,10,1,40,0,777.1000000238419,39,0,456.5,10,0,experiment,NA,NA,1,0.7,0.3,2,3,122,3,NA
fcp-trial,171,860654,0.0-132.0-0.0,voc_e2,12383,"[{""event"":""fullscreenenter"",""trial"":1,""time"":2534}]",NA,NA,NA,NA,NA,4,#3386FF,#D89F1C,0,10,0,40,0,617.5,37,1,691.9000000059605,0,0,experiment,NA,NA,0,0.1,0.9,1,0,123,3,NA
fcp-trial,172,863852,0.0-133.0-0.0,voc_e2,12383,"[{""event"":""fullscreenenter"",""trial"":1,""time"":2534}]",NA,NA,NA,NA,NA,1,#741CD8,#D8271C,0,10,1,38,1,1218.300000011921,39,0,474.30000001192093,10,0,experiment,NA,NA,1,0.7,0.3,2,3,124,3,NA
fcp-trial,173,866835,0.0-134.0-0.0,voc_e2,12383,"[{""event"":""fullscreenenter"",""trial"":1,""time"":2534}]",NA,NA,NA,NA,NA,3,#D8271C,#741CD8,0,0,0,40,0,888.5,37,1,589.6999999880791,0,0,experiment,NA,NA,1,0.3,0.7,3,2,125,3,NA
fcp-trial,174,869874,0.0-135.0-0.0,voc_e2,12383,"[{""event"":""fullscreenenter"",""trial"":1,""time"":2534}]",NA,NA,NA,NA,NA,1,#FA92F8,#1CD855,10,0,0,38,1,1050.699999988079,39,0,476.59999999403954,0,1,experiment,NA,NA,2,0.5,0.5,5,4,126,3,NA
fcp-trial,175,872522,0.0-136.0-0.0,voc_e2,12383,"[{""event"":""fullscreenenter"",""trial"":1,""time"":2534}]",NA,NA,NA,NA,NA,6,#D8271C,#741CD8,0,10,0,40,0,637.0999999940395,37,1,502.90000000596046,0,0,experiment,NA,NA,1,0.3,0.7,3,2,127,3,NA
fcp-trial,176,875052,0.0-137.0-0.0,voc_e2,12383,"[{""event"":""fullscreenenter"",""trial"":1,""time"":2534}]",NA,NA,NA,NA,NA,3,#741CD8,#D8271C,10,0,1,40,0,638.6000000238419,39,0,383.40000000596046,0,0,experiment,NA,NA,1,0.7,0.3,2,3,128,3,NA
fcp-trial,177,878650,0.0-138.0-0.0,voc_e2,12383,"[{""event"":""fullscreenenter"",""trial"":1,""time"":2534}]",NA,NA,NA,NA,NA,1,#3386FF,#D89F1C,10,0,0,40,0,1138.5999999940395,37,1,949.8000000119209,10,0,experiment,NA,NA,0,0.1,0.9,1,0,129,3,NA
fcp-trial,178,881519,0.0-139.0-0.0,voc_e2,12383,"[{""event"":""fullscreenenter"",""trial"":1,""time"":2534}]",NA,NA,NA,NA,NA,6,#FA92F8,#1CD855,0,10,0,40,0,858.3000000119209,39,0,504.59999999403954,10,1,experiment,NA,NA,2,0.5,0.5,5,4,130,3,NA
fcp-trial,179,884094,0.0-140.0-0.0,voc_e2,12383,"[{""event"":""fullscreenenter"",""trial"":1,""time"":2534}]",NA,NA,NA,NA,NA,4,#741CD8,#D8271C,10,0,1,40,0,586.4000000059605,37,1,483.59999999403954,10,1,experiment,NA,NA,1,0.7,0.3,2,3,131,3,NA
fcp-trial,180,887044,0.0-141.0-0.0,voc_e2,12383,"[{""event"":""fullscreenenter"",""trial"":1,""time"":2534}]",NA,NA,NA,NA,NA,5,#741CD8,#D8271C,10,0,1,40,0,871.7000000178814,37,1,572.7999999821186,10,1,experiment,NA,NA,1,0.7,0.3,2,3,132,3,NA
fcp-trial,181,890293,0.0-142.0-0.0,voc_e2,12383,"[{""event"":""fullscreenenter"",""trial"":1,""time"":2534}]",NA,NA,NA,NA,NA,0,#D89F1C,#3386FF,10,0,1,38,1,1344.9000000059605,37,1,397.7999999821186,10,1,experiment,NA,NA,0,0.9,0.1,0,1,133,3,NA
fcp-trial,182,893286,0.0-143.0-0.0,voc_e2,12383,"[{""event"":""fullscreenenter"",""trial"":1,""time"":2534}]",NA,NA,NA,NA,NA,3,#1CD855,#FA92F8,0,10,1,40,0,840.3000000119209,39,0,643.6999999880791,10,0,experiment,NA,NA,2,0.5,0.5,4,5,134,3,NA
fcp-trial,183,896486,0.0-144.0-0.0,voc_e2,12383,"[{""event"":""fullscreenenter"",""trial"":1,""time"":2534}]",NA,NA,NA,NA,NA,6,#D89F1C,#3386FF,10,0,1,40,0,652.8000000119209,39,0,1038.199999988079,0,0,experiment,NA,NA,0,0.9,0.1,0,1,135,3,NA
fcp-trial,184,899141,0.0-145.0-0.0,voc_e2,12383,"[{""event"":""fullscreenenter"",""trial"":1,""time"":2534}]",NA,NA,NA,NA,NA,2,#741CD8,#D8271C,0,0,1,40,0,678.3000000119209,39,0,468,0,0,experiment,NA,NA,1,0.7,0.3,2,3,136,4,NA
fcp-trial,185,902327,0.0-146.0-0.0,voc_e2,12383,"[{""event"":""fullscreenenter"",""trial"":1,""time"":2534}]",NA,NA,NA,NA,NA,2,#3386FF,#D89F1C,0,10,0,40,0,990.9000000059605,37,1,689.9000000059605,0,0,experiment,NA,NA,0,0.1,0.9,1,0,137,4,NA
fcp-trial,186,905418,0.0-147.0-0.0,voc_e2,12383,"[{""event"":""fullscreenenter"",""trial"":1,""time"":2534}]",NA,NA,NA,NA,NA,1,#1CD855,#FA92F8,0,10,1,40,0,1074.0999999940395,39,0,505.59999999403954,10,0,experiment,NA,NA,2,0.5,0.5,4,5,138,4,NA
fcp-trial,187,908737,0.0-148.0-0.0,voc_e2,12383,"[{""event"":""fullscreenenter"",""trial"":1,""time"":2534}]",NA,NA,NA,NA,NA,0,#1CD855,#FA92F8,0,10,1,38,1,1388.7000000178814,39,0,421.69999998807907,10,0,experiment,NA,NA,2,0.5,0.5,4,5,139,4,NA
fcp-trial,188,912212,0.0-149.0-0.0,voc_e2,12383,"[{""event"":""fullscreenenter"",""trial"":1,""time"":2534}]",NA,NA,NA,NA,NA,0,#741CD8,#D8271C,0,0,1,38,1,865.9000000059605,37,1,1105.300000011921,0,1,experiment,NA,NA,1,0.7,0.3,2,3,140,4,NA
fcp-trial,189,915823,0.0-150.0-0.0,voc_e2,12383,"[{""event"":""fullscreenenter"",""trial"":1,""time"":2534}]",NA,NA,NA,NA,NA,3,#D89F1C,#3386FF,10,0,1,40,0,1421,39,0,681.0999999940395,0,0,experiment,NA,NA,0,0.9,0.1,0,1,141,4,NA
fcp-trial,190,919317,0.0-151.0-0.0,voc_e2,12383,"[{""event"":""fullscreenenter"",""trial"":1,""time"":2534}]",NA,NA,NA,NA,NA,2,#FA92F8,#1CD855,0,10,0,38,1,1186.0999999940395,39,0,793.6000000238419,10,1,experiment,NA,NA,2,0.5,0.5,5,4,142,4,NA
fcp-trial,191,923125,0.0-152.0-0.0,voc_e2,12383,"[{""event"":""fullscreenenter"",""trial"":1,""time"":2534}]",NA,NA,NA,NA,NA,1,#D8271C,#741CD8,0,10,0,38,1,1532.9000000059605,39,0,766.8000000119209,10,1,experiment,NA,NA,1,0.3,0.7,3,2,143,4,NA
fcp-trial,192,926100,0.0-153.0-0.0,voc_e2,12383,"[{""event"":""fullscreenenter"",""trial"":1,""time"":2534}]",NA,NA,NA,NA,NA,5,#1CD855,#FA92F8,10,0,1,40,0,974.3000000119209,37,1,495.5,10,1,experiment,NA,NA,2,0.5,0.5,4,5,144,4,NA
fcp-trial,193,929156,0.0-154.0-0.0,voc_e2,12383,"[{""event"":""fullscreenenter"",""trial"":1,""time"":2534}]",NA,NA,NA,NA,NA,5,#3386FF,#D89F1C,0,10,0,40,0,1094.199999988079,39,0,457.40000000596046,10,1,experiment,NA,NA,0,0.1,0.9,1,0,145,4,NA
fcp-trial,194,932153,0.0-155.0-0.0,voc_e2,12383,"[{""event"":""fullscreenenter"",""trial"":1,""time"":2534}]",NA,NA,NA,NA,NA,4,#3386FF,#D89F1C,0,10,0,40,0,811.6999999880791,37,1,680.7000000178814,0,0,experiment,NA,NA,0,0.1,0.9,1,0,146,4,NA
fcp-trial,195,935321,0.0-156.0-0.0,voc_e2,12383,"[{""event"":""fullscreenenter"",""trial"":1,""time"":2534}]",NA,NA,NA,NA,NA,4,#1CD855,#FA92F8,0,0,1,40,0,954.6999999880791,37,1,705.1999999880791,0,1,experiment,NA,NA,2,0.5,0.5,4,5,147,4,NA
fcp-trial,196,938106,0.0-157.0-0.0,voc_e2,12383,"[{""event"":""fullscreenenter"",""trial"":1,""time"":2534}]",NA,NA,NA,NA,NA,6,#D89F1C,#3386FF,10,0,1,40,0,746.4000000059605,39,0,533.3000000119209,0,0,experiment,NA,NA,0,0.9,0.1,0,1,148,4,NA
fcp-trial,197,941335,0.0-158.0-0.0,voc_e2,12383,"[{""event"":""fullscreenenter"",""trial"":1,""time"":2534}]",NA,NA,NA,NA,NA,0,#D8271C,#741CD8,0,10,0,38,1,1056.199999988079,39,0,666.1999999880791,10,1,experiment,NA,NA,1,0.3,0.7,3,2,149,4,NA
fcp-trial,198,944102,0.0-159.0-0.0,voc_e2,12383,"[{""event"":""fullscreenenter"",""trial"":1,""time"":2534}]",NA,NA,NA,NA,NA,6,#D8271C,#741CD8,0,10,0,40,0,677,37,1,582.7000000178814,0,0,experiment,NA,NA,1,0.3,0.7,3,2,150,4,NA
fcp-trial,199,946642,0.0-160.0-0.0,voc_e2,12383,"[{""event"":""fullscreenenter"",""trial"":1,""time"":2534}]",NA,NA,NA,NA,NA,3,#D89F1C,#3386FF,10,0,1,40,0,475,39,0,560.2000000178814,0,0,experiment,NA,NA,0,0.9,0.1,0,1,151,4,NA
fcp-trial,200,949390,0.0-161.0-0.0,voc_e2,12383,"[{""event"":""fullscreenenter"",""trial"":1,""time"":2534}]",NA,NA,NA,NA,NA,5,#D89F1C,#3386FF,10,0,1,40,0,695,39,0,548.4000000059605,0,0,experiment,NA,NA,0,0.9,0.1,0,1,152,4,NA
fcp-trial,201,951987,0.0-162.0-0.0,voc_e2,12383,"[{""event"":""fullscreenenter"",""trial"":1,""time"":2534}]",NA,NA,NA,NA,NA,6,#FA92F8,#1CD855,10,0,0,40,0,584.0999999940395,37,1,506.80000001192093,10,0,experiment,NA,NA,2,0.5,0.5,5,4,153,4,NA
fcp-trial,202,954833,0.0-163.0-0.0,voc_e2,12383,"[{""event"":""fullscreenenter"",""trial"":1,""time"":2534}]",NA,NA,NA,NA,NA,0,#3386FF,#D89F1C,0,10,0,38,1,1062.0999999940395,39,0,275.40000000596046,10,1,experiment,NA,NA,0,0.1,0.9,1,0,154,4,NA
fcp-trial,203,958104,0.0-164.0-0.0,voc_e2,12383,"[{""event"":""fullscreenenter"",""trial"":1,""time"":2534}]",NA,NA,NA,NA,NA,2,#D8271C,#741CD8,0,10,0,38,1,1341.7999999821186,37,1,423.40000000596046,0,0,experiment,NA,NA,1,0.3,0.7,3,2,155,4,NA
fcp-trial,204,960906,0.0-165.0-0.0,voc_e2,12383,"[{""event"":""fullscreenenter"",""trial"":1,""time"":2534}]",NA,NA,NA,NA,NA,1,#1CD855,#FA92F8,0,10,1,38,1,809.3000000119209,39,0,485.40000000596046,10,0,experiment,NA,NA,2,0.5,0.5,4,5,156,4,NA
fcp-trial,205,963892,0.0-166.0-0.0,voc_e2,12383,"[{""event"":""fullscreenenter"",""trial"":1,""time"":2534}]",NA,NA,NA,NA,NA,3,#741CD8,#D8271C,10,0,1,40,0,896.1000000238419,37,1,584.1999999880791,10,1,experiment,NA,NA,1,0.7,0.3,2,3,157,4,NA
fcp-trial,206,966876,0.0-167.0-0.0,voc_e2,12383,"[{""event"":""fullscreenenter"",""trial"":1,""time"":2534}]",NA,NA,NA,NA,NA,2,#3386FF,#D89F1C,0,0,0,38,1,1183.5,39,0,295,0,1,experiment,NA,NA,0,0.1,0.9,1,0,158,4,NA
fcp-trial,207,969461,0.0-168.0-0.0,voc_e2,12383,"[{""event"":""fullscreenenter"",""trial"":1,""time"":2534}]",NA,NA,NA,NA,NA,2,#1CD855,#FA92F8,0,10,1,40,0,704.5999999940395,37,1,370.19999998807907,0,1,experiment,NA,NA,2,0.5,0.5,4,5,159,4,NA
fcp-trial,208,972333,0.0-169.0-0.0,voc_e2,12383,"[{""event"":""fullscreenenter"",""trial"":1,""time"":2534}]",NA,NA,NA,NA,NA,4,#3386FF,#D89F1C,0,10,0,40,0,1018.9000000059605,39,0,346.19999998807907,10,1,experiment,NA,NA,0,0.1,0.9,1,0,160,4,NA
fcp-trial,209,975243,0.0-170.0-0.0,voc_e2,12383,"[{""event"":""fullscreenenter"",""trial"":1,""time"":2534}]",NA,NA,NA,NA,NA,0,#FA92F8,#1CD855,10,0,0,38,1,719.1999999880791,39,0,686.4000000059605,0,1,experiment,NA,NA,2,0.5,0.5,5,4,161,4,NA
fcp-trial,210,977756,0.0-171.0-0.0,voc_e2,12383,"[{""event"":""fullscreenenter"",""trial"":1,""time"":2534}]",NA,NA,NA,NA,NA,1,#D8271C,#741CD8,10,10,0,38,1,638.1999999880791,37,1,366.69999998807907,10,0,experiment,NA,NA,1,0.3,0.7,3,2,162,4,NA
fcp-trial,211,980464,0.0-172.0-0.0,voc_e2,12383,"[{""event"":""fullscreenenter"",""trial"":1,""time"":2534}]",NA,NA,NA,NA,NA,4,#1CD855,#FA92F8,0,0,1,40,0,806.2999999821186,37,1,393.90000000596046,0,1,experiment,NA,NA,2,0.5,0.5,4,5,163,4,NA
fcp-trial,212,983583,0.0-173.0-0.0,voc_e2,12383,"[{""event"":""fullscreenenter"",""trial"":1,""time"":2534}]",NA,NA,NA,NA,NA,5,#1CD855,#FA92F8,10,10,1,40,0,1237.9000000059605,39,0,373.10000002384186,10,0,experiment,NA,NA,2,0.5,0.5,4,5,164,4,NA
fcp-trial,213,986256,0.0-174.0-0.0,voc_e2,12383,"[{""event"":""fullscreenenter"",""trial"":1,""time"":2534}]",NA,NA,NA,NA,NA,1,#D89F1C,#3386FF,10,0,1,38,1,747.5999999940395,37,1,420.09999999403954,10,1,experiment,NA,NA,0,0.9,0.1,0,1,165,4,NA
fcp-trial,214,989220,0.0-175.0-0.0,voc_e2,12383,"[{""event"":""fullscreenenter"",""trial"":1,""time"":2534}]",NA,NA,NA,NA,NA,5,#741CD8,#D8271C,0,0,1,40,0,868.2999999821186,37,1,590.3000000119209,0,1,experiment,NA,NA,1,0.7,0.3,2,3,166,4,NA
fcp-trial,215,991808,0.0-176.0-0.0,voc_e2,12383,"[{""event"":""fullscreenenter"",""trial"":1,""time"":2534}]",NA,NA,NA,NA,NA,4,#741CD8,#D8271C,0,10,1,40,0,616.0999999940395,39,0,466.19999998807907,10,0,experiment,NA,NA,1,0.7,0.3,2,3,167,4,NA
fcp-trial,216,995220,0.0-177.0-0.0,voc_e2,12383,"[{""event"":""fullscreenenter"",""trial"":1,""time"":2534}]",NA,NA,NA,NA,NA,3,#FA92F8,#1CD855,0,10,0,40,0,1321.9000000059605,37,1,582.9000000059605,0,0,experiment,NA,NA,2,0.5,0.5,5,4,168,4,NA
fcp-trial,217,997956,0.0-178.0-0.0,voc_e2,12383,"[{""event"":""fullscreenenter"",""trial"":1,""time"":2534}]",NA,NA,NA,NA,NA,6,#D89F1C,#3386FF,10,0,1,40,0,802.1999999880791,37,1,424.80000001192093,10,1,experiment,NA,NA,0,0.9,0.1,0,1,169,4,NA
fcp-trial,218,1000481,0.0-179.0-0.0,voc_e2,12383,"[{""event"":""fullscreenenter"",""trial"":1,""time"":2534}]",NA,NA,NA,NA,NA,4,#1CD855,#FA92F8,0,10,1,40,0,691.0999999940395,37,1,325.90000000596046,0,1,experiment,NA,NA,2,0.5,0.5,4,5,170,4,NA
fcp-trial,219,1003499,0.0-180.0-0.0,voc_e2,12383,"[{""event"":""fullscreenenter"",""trial"":1,""time"":2534}]",NA,NA,NA,NA,NA,0,#741CD8,#D8271C,10,10,1,38,1,1047.4000000059605,39,0,454.90000000596046,10,0,experiment,NA,NA,1,0.7,0.3,2,3,171,4,NA
fcp-trial,220,1006364,0.0-181.0-0.0,voc_e2,12383,"[{""event"":""fullscreenenter"",""trial"":1,""time"":2534}]",NA,NA,NA,NA,NA,1,#741CD8,#D8271C,0,0,1,38,1,1007.2000000178814,37,1,346.59999999403954,0,1,experiment,NA,NA,1,0.7,0.3,2,3,172,4,NA
fcp-trial,221,1009088,0.0-182.0-0.0,voc_e2,12383,"[{""event"":""fullscreenenter"",""trial"":1,""time"":2534}]",NA,NA,NA,NA,NA,2,#D89F1C,#3386FF,10,0,1,38,1,830,37,1,384.19999998807907,10,1,experiment,NA,NA,0,0.9,0.1,0,1,173,4,NA
fcp-trial,222,1011874,0.0-183.0-0.0,voc_e2,12383,"[{""event"":""fullscreenenter"",""trial"":1,""time"":2534}]",NA,NA,NA,NA,NA,5,#FA92F8,#1CD855,0,0,0,40,0,755.9000000059605,39,0,525.9000000059605,0,1,experiment,NA,NA,2,0.5,0.5,5,4,174,4,NA
fcp-trial,223,1014656,0.0-184.0-0.0,voc_e2,12383,"[{""event"":""fullscreenenter"",""trial"":1,""time"":2534}]",NA,NA,NA,NA,NA,4,#D89F1C,#3386FF,10,0,1,40,0,535,39,0,741.9000000059605,0,0,experiment,NA,NA,0,0.9,0.1,0,1,175,4,NA
fcp-trial,224,1017382,0.0-185.0-0.0,voc_e2,12383,"[{""event"":""fullscreenenter"",""trial"":1,""time"":2534}]",NA,NA,NA,NA,NA,6,#1CD855,#FA92F8,10,10,1,40,0,812.2999999821186,37,1,402.60000002384186,10,1,experiment,NA,NA,2,0.5,0.5,4,5,176,4,NA
fcp-trial,225,1020155,0.0-186.0-0.0,voc_e2,12383,"[{""event"":""fullscreenenter"",""trial"":1,""time"":2534}]",NA,NA,NA,NA,NA,4,#D8271C,#741CD8,10,10,0,40,0,833,37,1,434.5,10,0,experiment,NA,NA,1,0.3,0.7,3,2,177,4,NA
fcp-trial,226,1023211,0.0-187.0-0.0,voc_e2,12383,"[{""event"":""fullscreenenter"",""trial"":1,""time"":2534}]",NA,NA,NA,NA,NA,2,#FA92F8,#1CD855,10,10,0,38,1,1097.199999988079,37,1,453.30000001192093,10,0,experiment,NA,NA,2,0.5,0.5,5,4,178,4,NA
fcp-trial,227,1025900,0.0-188.0-0.0,voc_e2,12383,"[{""event"":""fullscreenenter"",""trial"":1,""time"":2534}]",NA,NA,NA,NA,NA,3,#D8271C,#741CD8,10,0,0,40,0,648,39,0,531.8000000119209,0,1,experiment,NA,NA,1,0.3,0.7,3,2,179,4,NA
fcp-trial,228,1028875,0.0-189.0-0.0,voc_e2,12383,"[{""event"":""fullscreenenter"",""trial"":1,""time"":2534}]",NA,NA,NA,NA,NA,1,#3386FF,#D89F1C,0,10,0,38,1,989,39,0,478.5,10,1,experiment,NA,NA,0,0.1,0.9,1,0,180,4,NA
fcp-trial,229,1031743,0.0-190.0-0.0,voc_e2,12383,"[{""event"":""fullscreenenter"",""trial"":1,""time"":2534}]",NA,NA,NA,NA,NA,1,#FA92F8,#1CD855,10,10,0,38,1,1051.4000000059605,39,0,304.80000001192093,10,1,experiment,NA,NA,2,0.5,0.5,5,4,181,5,NA
fcp-trial,230,1034404,0.0-191.0-0.0,voc_e2,12383,"[{""event"":""fullscreenenter"",""trial"":1,""time"":2534}]",NA,NA,NA,NA,NA,5,#741CD8,#D8271C,0,0,1,40,0,768.6999999880791,39,0,388.59999999403954,0,0,experiment,NA,NA,1,0.7,0.3,2,3,182,5,NA
fcp-trial,231,1037111,0.0-192.0-0.0,voc_e2,12383,"[{""event"":""fullscreenenter"",""trial"":1,""time"":2534}]",NA,NA,NA,NA,NA,3,#1CD855,#FA92F8,10,0,1,38,1,842.4000000059605,39,0,360.40000000596046,0,0,experiment,NA,NA,2,0.5,0.5,4,5,183,5,NA
fcp-trial,232,1039972,0.0-193.0-0.0,voc_e2,12383,"[{""event"":""fullscreenenter"",""trial"":1,""time"":2534}]",NA,NA,NA,NA,NA,5,#D89F1C,#3386FF,0,10,1,40,0,862.3000000119209,37,1,493.39999997615814,0,1,experiment,NA,NA,0,0.9,0.1,0,1,184,5,NA
fcp-trial,233,1044421,0.0-194.0-0.0,voc_e2,12383,"[{""event"":""fullscreenenter"",""trial"":1,""time"":2534}]",NA,NA,NA,NA,NA,3,#D89F1C,#3386FF,10,0,1,40,0,2223.4000000059605,39,0,715.5999999940395,0,0,experiment,NA,NA,0,0.9,0.1,0,1,185,5,NA
fcp-trial,234,1047226,0.0-195.0-0.0,voc_e2,12383,"[{""event"":""fullscreenenter"",""trial"":1,""time"":2534}]",NA,NA,NA,NA,NA,0,#1CD855,#FA92F8,10,0,1,38,1,847.5999999940395,37,1,452,10,1,experiment,NA,NA,2,0.5,0.5,4,5,186,5,NA
fcp-trial,235,1050029,0.0-196.0-0.0,voc_e2,12383,"[{""event"":""fullscreenenter"",""trial"":1,""time"":2534}]",NA,NA,NA,NA,NA,6,#D8271C,#741CD8,10,10,0,40,0,824.1999999880791,37,1,474.2000000178814,10,0,experiment,NA,NA,1,0.3,0.7,3,2,187,5,NA
fcp-trial,236,1052814,0.0-197.0-0.0,voc_e2,12383,"[{""event"":""fullscreenenter"",""trial"":1,""time"":2534}]",NA,NA,NA,NA,NA,2,#D8271C,#741CD8,10,0,0,38,1,912.1000000238419,37,1,363.90000000596046,10,0,experiment,NA,NA,1,0.3,0.7,3,2,188,5,NA
fcp-trial,237,1055613,0.0-198.0-0.0,voc_e2,12383,"[{""event"":""fullscreenenter"",""trial"":1,""time"":2534}]",NA,NA,NA,NA,NA,0,#3386FF,#D89F1C,10,10,0,38,1,923.5,39,0,370.5,10,1,experiment,NA,NA,0,0.1,0.9,1,0,189,5,NA
fcp-trial,238,1058224,0.0-199.0-0.0,voc_e2,12383,"[{""event"":""fullscreenenter"",""trial"":1,""time"":2534}]",NA,NA,NA,NA,NA,4,#FA92F8,#1CD855,0,0,0,40,0,595.0999999940395,37,1,506.19999998807907,0,0,experiment,NA,NA,2,0.5,0.5,5,4,190,5,NA
fcp-trial,239,1061884,0.0-200.0-0.0,voc_e2,12383,"[{""event"":""fullscreenenter"",""trial"":1,""time"":2534}]",NA,NA,NA,NA,NA,0,#741CD8,#D8271C,0,0,1,38,1,1060.1000000238419,37,1,1093.300000011921,0,1,experiment,NA,NA,1,0.7,0.3,2,3,191,5,NA
fcp-trial,240,1064730,0.0-201.0-0.0,voc_e2,12383,"[{""event"":""fullscreenenter"",""trial"":1,""time"":2534}]",NA,NA,NA,NA,NA,2,#D8271C,#741CD8,10,10,0,38,1,903.8000000119209,39,0,435.09999999403954,10,1,experiment,NA,NA,1,0.3,0.7,3,2,192,5,NA
fcp-trial,241,1067459,0.0-202.0-0.0,voc_e2,12383,"[{""event"":""fullscreenenter"",""trial"":1,""time"":2534}]",NA,NA,NA,NA,NA,6,#3386FF,#D89F1C,10,10,0,40,0,710.2999999821186,37,1,515.9000000059605,10,0,experiment,NA,NA,0,0.1,0.9,1,0,193,5,NA
fcp-trial,242,1070411,0.0-203.0-0.0,voc_e2,12383,"[{""event"":""fullscreenenter"",""trial"":1,""time"":2534}]",NA,NA,NA,NA,NA,0,#FA92F8,#1CD855,10,0,0,38,1,1083.699999988079,39,0,362.90000000596046,0,1,experiment,NA,NA,2,0.5,0.5,5,4,194,5,NA
fcp-trial,243,1073356,0.0-204.0-0.0,voc_e2,12383,"[{""event"":""fullscreenenter"",""trial"":1,""time"":2534}]",NA,NA,NA,NA,NA,6,#FA92F8,#1CD855,0,0,0,40,0,660.7999999821186,39,0,775.3000000119209,0,1,experiment,NA,NA,2,0.5,0.5,5,4,195,5,NA
fcp-trial,244,1076098,0.0-205.0-0.0,voc_e2,12383,"[{""event"":""fullscreenenter"",""trial"":1,""time"":2534}]",NA,NA,NA,NA,NA,1,#741CD8,#D8271C,10,0,1,38,1,756.9000000059605,37,1,470.90000000596046,10,1,experiment,NA,NA,1,0.7,0.3,2,3,196,5,NA
fcp-trial,245,1078963,0.0-206.0-0.0,voc_e2,12383,"[{""event"":""fullscreenenter"",""trial"":1,""time"":2534}]",NA,NA,NA,NA,NA,4,#3386FF,#D89F1C,0,10,0,40,0,687.5999999940395,37,1,670.3000000119209,0,0,experiment,NA,NA,0,0.1,0.9,1,0,197,5,NA
fcp-trial,246,1081462,0.0-207.0-0.0,voc_e2,12383,"[{""event"":""fullscreenenter"",""trial"":1,""time"":2534}]",NA,NA,NA,NA,NA,2,#FA92F8,#1CD855,10,0,0,38,1,723.5999999940395,39,0,267.69999998807907,0,1,experiment,NA,NA,2,0.5,0.5,5,4,198,5,NA
fcp-trial,247,1084399,0.0-208.0-0.0,voc_e2,12383,"[{""event"":""fullscreenenter"",""trial"":1,""time"":2534}]",NA,NA,NA,NA,NA,2,#3386FF,#D89F1C,0,10,0,38,1,1119.7999999821186,39,0,308.7999999821186,10,1,experiment,NA,NA,0,0.1,0.9,1,0,199,5,NA
fcp-trial,248,1087266,0.0-209.0-0.0,voc_e2,12383,"[{""event"":""fullscreenenter"",""trial"":1,""time"":2534}]",NA,NA,NA,NA,NA,6,#741CD8,#D8271C,10,10,1,40,0,901.9000000059605,37,1,459.69999998807907,10,1,experiment,NA,NA,1,0.7,0.3,2,3,200,5,NA
fcp-trial,249,1090021,0.0-210.0-0.0,voc_e2,12383,"[{""event"":""fullscreenenter"",""trial"":1,""time"":2534}]",NA,NA,NA,NA,NA,1,#3386FF,#D89F1C,0,10,0,38,1,907.5,39,0,336.80000001192093,10,1,experiment,NA,NA,0,0.1,0.9,1,0,201,5,NA
fcp-trial,250,1093199,0.0-211.0-0.0,voc_e2,12383,"[{""event"":""fullscreenenter"",""trial"":1,""time"":2534}]",NA,NA,NA,NA,NA,5,#1CD855,#FA92F8,0,0,1,40,0,1265.3999999761581,39,0,394.7000000178814,0,0,experiment,NA,NA,2,0.5,0.5,4,5,202,5,NA
fcp-trial,251,1096382,0.0-212.0-0.0,voc_e2,12383,"[{""event"":""fullscreenenter"",""trial"":1,""time"":2534}]",NA,NA,NA,NA,NA,3,#D89F1C,#3386FF,0,0,1,38,1,1310.3999999761581,37,1,365.40000000596046,0,1,experiment,NA,NA,0,0.9,0.1,0,1,203,5,NA
fcp-trial,252,1099272,0.0-213.0-0.0,voc_e2,12383,"[{""event"":""fullscreenenter"",""trial"":1,""time"":2534}]",NA,NA,NA,NA,NA,3,#D8271C,#741CD8,10,10,0,40,0,799.5,39,0,580.0999999940395,10,1,experiment,NA,NA,1,0.3,0.7,3,2,204,5,NA
fcp-trial,253,1102129,0.0-214.0-0.0,voc_e2,12383,"[{""event"":""fullscreenenter"",""trial"":1,""time"":2534}]",NA,NA,NA,NA,NA,0,#D89F1C,#3386FF,10,0,1,38,1,925.7000000178814,37,1,422.2999999821186,10,1,experiment,NA,NA,0,0.9,0.1,0,1,205,5,NA
fcp-trial,254,1104779,0.0-215.0-0.0,voc_e2,12383,"[{""event"":""fullscreenenter"",""trial"":1,""time"":2534}]",NA,NA,NA,NA,NA,5,#3386FF,#D89F1C,0,10,0,40,0,643.4000000059605,39,0,502.09999999403954,10,1,experiment,NA,NA,0,0.1,0.9,1,0,206,5,NA
fcp-trial,255,1107743,0.0-216.0-0.0,voc_e2,12383,"[{""event"":""fullscreenenter"",""trial"":1,""time"":2534}]",NA,NA,NA,NA,NA,3,#1CD855,#FA92F8,10,10,1,40,0,1001.7999999821186,37,1,453.90000000596046,10,1,experiment,NA,NA,2,0.5,0.5,4,5,207,5,NA
fcp-trial,256,1110411,0.0-217.0-0.0,voc_e2,12383,"[{""event"":""fullscreenenter"",""trial"":1,""time"":2534}]",NA,NA,NA,NA,NA,4,#D8271C,#741CD8,0,10,0,40,0,642.5,39,0,519,10,1,experiment,NA,NA,1,0.3,0.7,3,2,208,5,NA
fcp-trial,257,1113239,0.0-218.0-0.0,voc_e2,12383,"[{""event"":""fullscreenenter"",""trial"":1,""time"":2534}]",NA,NA,NA,NA,NA,1,#1CD855,#FA92F8,10,10,1,38,1,904.0999999940395,37,1,414.60000002384186,10,1,experiment,NA,NA,2,0.5,0.5,4,5,209,5,NA
fcp-trial,258,1115776,0.0-219.0-0.0,voc_e2,12383,"[{""event"":""fullscreenenter"",""trial"":1,""time"":2534}]",NA,NA,NA,NA,NA,5,#D8271C,#741CD8,0,10,0,40,0,532.2999999821186,37,1,500.2999999821186,0,0,experiment,NA,NA,1,0.3,0.7,3,2,210,5,NA
audio-instructions,259,1123032,0.0-220.0,voc_e2,12383,"[{""event"":""fullscreenenter"",""trial"":1,""time"":2534}]",NA,2467.5999999940395,static/audio/pause.wav,NA,0,NA,NA,NA,NA,NA,NA,NA,NA,NA,NA,NA,NA,NA,NA,NA,NA,NA,NA,NA,NA,NA,NA,NA,NA,NA
fcp-trial,260,1126419,0.0-221.0-0.0,voc_e2,12383,"[{""event"":""fullscreenenter"",""trial"":1,""time"":2534}]",NA,NA,NA,NA,NA,3,#1CD855,#FA92F8,0,10,1,40,0,1079.300000011921,39,0,788.7999999821186,10,0,experiment,NA,NA,2,0.5,0.5,4,5,211,5,NA
fcp-trial,261,1129202,0.0-222.0-0.0,voc_e2,12383,"[{""event"":""fullscreenenter"",""trial"":1,""time"":2534}]",NA,NA,NA,NA,NA,0,#D89F1C,#3386FF,10,10,1,40,0,385.09999999403954,39,0,873.1999999880791,10,0,experiment,NA,NA,0,0.9,0.1,0,1,212,5,NA
fcp-trial,262,1132256,0.0-223.0-0.0,voc_e2,12383,"[{""event"":""fullscreenenter"",""trial"":1,""time"":2534}]",NA,NA,NA,NA,NA,6,#D8271C,#741CD8,0,0,0,40,0,945.5999999940395,39,0,586.8000000119209,0,1,experiment,NA,NA,1,0.3,0.7,3,2,213,5,NA
fcp-trial,263,1135152,0.0-224.0-0.0,voc_e2,12383,"[{""event"":""fullscreenenter"",""trial"":1,""time"":2534}]",NA,NA,NA,NA,NA,6,#D89F1C,#3386FF,10,0,1,40,0,847.6999999880791,39,0,524.6999999880791,0,0,experiment,NA,NA,0,0.9,0.1,0,1,214,5,NA
fcp-trial,264,1137804,0.0-225.0-0.0,voc_e2,12383,"[{""event"":""fullscreenenter"",""trial"":1,""time"":2534}]",NA,NA,NA,NA,NA,1,#D89F1C,#3386FF,0,0,1,38,1,812.7000000178814,37,1,328.09999999403954,0,1,experiment,NA,NA,0,0.9,0.1,0,1,215,5,NA
fcp-trial,265,1140828,0.0-226.0-0.0,voc_e2,12383,"[{""event"":""fullscreenenter"",""trial"":1,""time"":2534}]",NA,NA,NA,NA,NA,6,#1CD855,#FA92F8,0,10,1,40,0,761,37,1,742.2999999821186,0,1,experiment,NA,NA,2,0.5,0.5,4,5,216,5,NA
fcp-trial,266,1143746,0.0-227.0-0.0,voc_e2,12383,"[{""event"":""fullscreenenter"",""trial"":1,""time"":2534}]",NA,NA,NA,NA,NA,5,#D8271C,#741CD8,0,10,0,40,0,593.5,37,1,806.0999999940395,0,0,experiment,NA,NA,1,0.3,0.7,3,2,217,5,NA
fcp-trial,267,1147058,0.0-228.0-0.0,voc_e2,12383,"[{""event"":""fullscreenenter"",""trial"":1,""time"":2534}]",NA,NA,NA,NA,NA,5,#1CD855,#FA92F8,0,0,1,40,0,821.6999999880791,37,1,975.5,0,1,experiment,NA,NA,2,0.5,0.5,4,5,218,5,NA
fcp-trial,268,1149987,0.0-229.0-0.0,voc_e2,12383,"[{""event"":""fullscreenenter"",""trial"":1,""time"":2534}]",NA,NA,NA,NA,NA,2,#D89F1C,#3386FF,0,0,1,38,1,1064.4000000059605,37,1,337.7000000178814,0,1,experiment,NA,NA,0,0.9,0.1,0,1,219,5,NA
fcp-trial,269,1152793,0.0-230.0-0.0,voc_e2,12383,"[{""event"":""fullscreenenter"",""trial"":1,""time"":2534}]",NA,NA,NA,NA,NA,2,#1CD855,#FA92F8,10,10,1,40,0,772.7999999821186,37,1,524,10,1,experiment,NA,NA,2,0.5,0.5,4,5,220,5,NA
fcp-trial,270,1155595,0.0-231.0-0.0,voc_e2,12383,"[{""event"":""fullscreenenter"",""trial"":1,""time"":2534}]",NA,NA,NA,NA,NA,4,#D8271C,#741CD8,0,10,0,40,0,921.2999999821186,37,1,375.90000000596046,0,0,experiment,NA,NA,1,0.3,0.7,3,2,221,5,NA
fcp-trial,271,1158266,0.0-232.0-0.0,voc_e2,12383,"[{""event"":""fullscreenenter"",""trial"":1,""time"":2534}]",NA,NA,NA,NA,NA,2,#D8271C,#741CD8,0,0,0,40,0,652.9000000059605,39,0,505.19999998807907,0,1,experiment,NA,NA,1,0.3,0.7,3,2,222,5,NA
fcp-trial,272,1161592,0.0-233.0-0.0,voc_e2,12383,"[{""event"":""fullscreenenter"",""trial"":1,""time"":2534}]",NA,NA,NA,NA,NA,0,#FA92F8,#1CD855,0,10,0,38,1,1110.0999999940395,37,1,708.8000000119209,0,0,experiment,NA,NA,2,0.5,0.5,5,4,223,5,NA
fcp-trial,273,1164220,0.0-234.0-0.0,voc_e2,12383,"[{""event"":""fullscreenenter"",""trial"":1,""time"":2534}]",NA,NA,NA,NA,NA,3,#3386FF,#D89F1C,0,0,0,40,0,708.2999999821186,39,0,408.59999999403954,0,1,experiment,NA,NA,0,0.1,0.9,1,0,224,5,NA
fcp-trial,274,1167129,0.0-235.0-0.0,voc_e2,12383,"[{""event"":""fullscreenenter"",""trial"":1,""time"":2534}]",NA,NA,NA,NA,NA,5,#3386FF,#D89F1C,0,10,0,40,0,1005.1999999880791,37,1,396,0,0,experiment,NA,NA,0,0.1,0.9,1,0,225,5,NA
fcp-trial,275,1169842,0.0-236.0-0.0,voc_e2,12383,"[{""event"":""fullscreenenter"",""trial"":1,""time"":2534}]",NA,NA,NA,NA,NA,4,#1CD855,#FA92F8,10,10,1,40,0,770.5999999940395,39,0,427.7000000178814,10,0,experiment,NA,NA,2,0.5,0.5,4,5,226,6,NA
fcp-trial,276,1172687,0.0-237.0-0.0,voc_e2,12383,"[{""event"":""fullscreenenter"",""trial"":1,""time"":2534}]",NA,NA,NA,NA,NA,1,#D8271C,#741CD8,0,10,0,38,1,959.2999999821186,37,1,372.90000000596046,0,0,experiment,NA,NA,1,0.3,0.7,3,2,227,6,NA
fcp-trial,277,1175218,0.0-238.0-0.0,voc_e2,12383,"[{""event"":""fullscreenenter"",""trial"":1,""time"":2534}]",NA,NA,NA,NA,NA,1,#1CD855,#FA92F8,10,0,1,40,0,626.8000000119209,39,0,388.2999999821186,0,0,experiment,NA,NA,2,0.5,0.5,4,5,228,6,NA
fcp-trial,278,1178061,0.0-239.0-0.0,voc_e2,12383,"[{""event"":""fullscreenenter"",""trial"":1,""time"":2534}]",NA,NA,NA,NA,NA,3,#D8271C,#741CD8,0,10,0,40,0,642.4000000059605,39,0,686.5999999940395,10,1,experiment,NA,NA,1,0.3,0.7,3,2,229,6,NA
fcp-trial,279,1180744,0.0-240.0-0.0,voc_e2,12383,"[{""event"":""fullscreenenter"",""trial"":1,""time"":2534}]",NA,NA,NA,NA,NA,4,#D89F1C,#3386FF,10,0,1,40,0,796.1999999880791,37,1,376,10,1,experiment,NA,NA,0,0.9,0.1,0,1,230,6,NA
fcp-trial,280,1183587,0.0-241.0-0.0,voc_e2,12383,"[{""event"":""fullscreenenter"",""trial"":1,""time"":2534}]",NA,NA,NA,NA,NA,0,#D8271C,#741CD8,10,10,0,38,1,975.7999999821186,37,1,353.10000002384186,10,0,experiment,NA,NA,1,0.3,0.7,3,2,231,6,NA
fcp-trial,281,1186433,0.0-242.0-0.0,voc_e2,12383,"[{""event"":""fullscreenenter"",""trial"":1,""time"":2534}]",NA,NA,NA,NA,NA,1,#741CD8,#D8271C,10,0,1,38,1,854.7000000178814,39,0,475.30000001192093,0,0,experiment,NA,NA,1,0.7,0.3,2,3,232,6,NA
fcp-trial,282,1189385,0.0-243.0-0.0,voc_e2,12383,"[{""event"":""fullscreenenter"",""trial"":1,""time"":2534}]",NA,NA,NA,NA,NA,1,#1CD855,#FA92F8,10,0,1,40,0,665.3000000119209,39,0,773,0,0,experiment,NA,NA,2,0.5,0.5,4,5,233,6,NA
fcp-trial,283,1191980,0.0-244.0-0.0,voc_e2,12383,"[{""event"":""fullscreenenter"",""trial"":1,""time"":2534}]",NA,NA,NA,NA,NA,5,#D89F1C,#3386FF,10,0,1,40,0,721,37,1,368.7999999821186,10,1,experiment,NA,NA,0,0.9,0.1,0,1,234,6,NA
fcp-trial,284,1194724,0.0-245.0-0.0,voc_e2,12383,"[{""event"":""fullscreenenter"",""trial"":1,""time"":2534}]",NA,NA,NA,NA,NA,6,#741CD8,#D8271C,10,0,1,40,0,723.9000000059605,39,0,513.7999999821186,0,0,experiment,NA,NA,1,0.7,0.3,2,3,235,6,NA
fcp-trial,285,1197995,0.0-246.0-0.0,voc_e2,12383,"[{""event"":""fullscreenenter"",""trial"":1,""time"":2534}]",NA,NA,NA,NA,NA,3,#D89F1C,#3386FF,10,10,1,38,1,1265.5999999940395,37,1,499.5,10,1,experiment,NA,NA,0,0.9,0.1,0,1,236,6,NA
fcp-trial,286,1200914,0.0-247.0-0.0,voc_e2,12383,"[{""event"":""fullscreenenter"",""trial"":1,""time"":2534}]",NA,NA,NA,NA,NA,5,#FA92F8,#1CD855,0,0,0,40,0,863.5,37,1,542.7000000178814,0,0,experiment,NA,NA,2,0.5,0.5,5,4,237,6,NA
fcp-trial,287,1203794,0.0-248.0-0.0,voc_e2,12383,"[{""event"":""fullscreenenter"",""trial"":1,""time"":2534}]",NA,NA,NA,NA,NA,4,#D8271C,#741CD8,0,0,0,40,0,884.5,37,1,481,0,0,experiment,NA,NA,1,0.3,0.7,3,2,238,6,NA
fcp-trial,288,1206358,0.0-249.0-0.0,voc_e2,12383,"[{""event"":""fullscreenenter"",""trial"":1,""time"":2534}]",NA,NA,NA,NA,NA,4,#D89F1C,#3386FF,10,0,1,40,0,585.2000000178814,37,1,467,10,1,experiment,NA,NA,0,0.9,0.1,0,1,239,6,NA
fcp-trial,289,1211016,0.0-250.0-0.0,voc_e2,12383,"[{""event"":""fullscreenenter"",""trial"":1,""time"":2534}]",NA,NA,NA,NA,NA,2,#3386FF,#D89F1C,10,10,0,38,1,2814.2999999821186,39,0,326.80000001192093,10,1,experiment,NA,NA,0,0.1,0.9,1,0,240,6,NA
fcp-trial,290,1214076,0.0-251.0-0.0,voc_e2,12383,"[{""event"":""fullscreenenter"",""trial"":1,""time"":2534}]",NA,NA,NA,NA,NA,2,#FA92F8,#1CD855,0,0,0,38,1,1124.199999988079,39,0,422.19999998807907,0,1,experiment,NA,NA,2,0.5,0.5,5,4,241,6,NA
fcp-trial,291,1216704,0.0-252.0-0.0,voc_e2,12383,"[{""event"":""fullscreenenter"",""trial"":1,""time"":2534}]",NA,NA,NA,NA,NA,0,#D8271C,#741CD8,0,0,0,38,1,705.3000000119209,37,1,410.69999998807907,0,0,experiment,NA,NA,1,0.3,0.7,3,2,242,6,NA
fcp-trial,292,1219927,0.0-253.0-0.0,voc_e2,12383,"[{""event"":""fullscreenenter"",""trial"":1,""time"":2534}]",NA,NA,NA,NA,NA,4,#FA92F8,#1CD855,10,0,0,38,1,707.4000000059605,39,0,999.3000000119209,0,1,experiment,NA,NA,2,0.5,0.5,5,4,243,6,NA
fcp-trial,293,1222843,0.0-254.0-0.0,voc_e2,12383,"[{""event"":""fullscreenenter"",""trial"":1,""time"":2534}]",NA,NA,NA,NA,NA,0,#FA92F8,#1CD855,0,10,0,38,1,889,37,1,521,0,0,experiment,NA,NA,2,0.5,0.5,5,4,244,6,NA
fcp-trial,294,1225882,0.0-255.0-0.0,voc_e2,12383,"[{""event"":""fullscreenenter"",""trial"":1,""time"":2534}]",NA,NA,NA,NA,NA,0,#3386FF,#D89F1C,10,10,0,38,1,1162.9000000059605,39,0,365.40000000596046,10,1,experiment,NA,NA,0,0.1,0.9,1,0,245,6,NA
fcp-trial,295,1228885,0.0-256.0-0.0,voc_e2,12383,"[{""event"":""fullscreenenter"",""trial"":1,""time"":2534}]",NA,NA,NA,NA,NA,6,#D89F1C,#3386FF,10,0,1,40,0,774.0999999940395,39,0,723.0999999940395,0,0,experiment,NA,NA,0,0.9,0.1,0,1,246,6,NA
fcp-trial,296,1233058,0.0-257.0-0.0,voc_e2,12383,"[{""event"":""fullscreenenter"",""trial"":1,""time"":2534}]",NA,NA,NA,NA,NA,3,#D8271C,#741CD8,0,0,0,38,1,1741.4000000059605,37,1,916.5999999940395,0,0,experiment,NA,NA,1,0.3,0.7,3,2,247,6,NA
fcp-trial,297,1235671,0.0-258.0-0.0,voc_e2,12383,"[{""event"":""fullscreenenter"",""trial"":1,""time"":2534}]",NA,NA,NA,NA,NA,3,#1CD855,#FA92F8,0,0,1,40,0,577.2999999821186,37,1,522.8000000119209,0,1,experiment,NA,NA,2,0.5,0.5,4,5,248,6,NA
fcp-trial,298,1239766,0.0-259.0-0.0,voc_e2,12383,"[{""event"":""fullscreenenter"",""trial"":1,""time"":2534}]",NA,NA,NA,NA,NA,1,#D89F1C,#3386FF,10,0,1,38,1,1300.8999999761581,37,1,1278.4000000059605,10,1,experiment,NA,NA,0,0.9,0.1,0,1,249,6,NA
fcp-trial,299,1242756,0.0-260.0-0.0,voc_e2,12383,"[{""event"":""fullscreenenter"",""trial"":1,""time"":2534}]",NA,NA,NA,NA,NA,5,#D8271C,#741CD8,10,0,0,40,0,922.7999999821186,37,1,555.2000000178814,10,0,experiment,NA,NA,1,0.3,0.7,3,2,250,6,NA
fcp-trial,300,1245452,0.0-261.0-0.0,voc_e2,12383,"[{""event"":""fullscreenenter"",""trial"":1,""time"":2534}]",NA,NA,NA,NA,NA,6,#1CD855,#FA92F8,0,0,1,40,0,596.5999999940395,39,0,583.5,0,0,experiment,NA,NA,2,0.5,0.5,4,5,251,6,NA
fcp-trial,301,1248472,0.0-262.0-0.0,voc_e2,12383,"[{""event"":""fullscreenenter"",""trial"":1,""time"":2534}]",NA,NA,NA,NA,NA,2,#D8271C,#741CD8,10,10,0,40,0,1197.699999988079,37,1,304.40000000596046,10,0,experiment,NA,NA,1,0.3,0.7,3,2,252,6,NA
fcp-trial,302,1251414,0.0-263.0-0.0,voc_e2,12383,"[{""event"":""fullscreenenter"",""trial"":1,""time"":2534}]",NA,NA,NA,NA,NA,6,#3386FF,#D89F1C,0,10,0,40,0,798.8999999761581,37,1,637.8000000119209,0,0,experiment,NA,NA,0,0.1,0.9,1,0,253,6,NA
fcp-trial,303,1254271,0.0-264.0-0.0,voc_e2,12383,"[{""event"":""fullscreenenter"",""trial"":1,""time"":2534}]",NA,NA,NA,NA,NA,4,#741CD8,#D8271C,10,10,1,40,0,808.4000000059605,37,1,544,10,1,experiment,NA,NA,1,0.7,0.3,2,3,254,6,NA
fcp-trial,304,1256934,0.0-265.0-0.0,voc_e2,12383,"[{""event"":""fullscreenenter"",""trial"":1,""time"":2534}]",NA,NA,NA,NA,NA,5,#D89F1C,#3386FF,10,0,1,40,0,848.4000000059605,37,1,306.7000000178814,10,1,experiment,NA,NA,0,0.9,0.1,0,1,255,6,NA
fcp-trial,305,1259813,0.0-266.0-0.0,voc_e2,12383,"[{""event"":""fullscreenenter"",""trial"":1,""time"":2534}]",NA,NA,NA,NA,NA,1,#FA92F8,#1CD855,10,0,0,40,0,892.5,37,1,466.90000000596046,10,0,experiment,NA,NA,2,0.5,0.5,5,4,256,6,NA
fcp-trial,306,1262478,0.0-267.0-0.0,voc_e2,12383,"[{""event"":""fullscreenenter"",""trial"":1,""time"":2534}]",NA,NA,NA,NA,NA,5,#741CD8,#D8271C,10,10,1,40,0,694.5999999940395,37,1,457.19999998807907,10,1,experiment,NA,NA,1,0.7,0.3,2,3,257,6,NA
fcp-trial,307,1265176,0.0-268.0-0.0,voc_e2,12383,"[{""event"":""fullscreenenter"",""trial"":1,""time"":2534}]",NA,NA,NA,NA,NA,6,#1CD855,#FA92F8,10,10,1,40,0,775.0999999940395,37,1,412.2999999821186,10,1,experiment,NA,NA,2,0.5,0.5,4,5,258,6,NA
fcp-trial,308,1267934,0.0-269.0-0.0,voc_e2,12383,"[{""event"":""fullscreenenter"",""trial"":1,""time"":2534}]",NA,NA,NA,NA,NA,3,#3386FF,#D89F1C,0,10,0,40,0,746.6999999880791,39,0,502.40000000596046,10,1,experiment,NA,NA,0,0.1,0.9,1,0,259,6,NA
fcp-trial,309,1270510,0.0-270.0-0.0,voc_e2,12383,"[{""event"":""fullscreenenter"",""trial"":1,""time"":2534}]",NA,NA,NA,NA,NA,2,#1CD855,#FA92F8,0,0,1,40,0,593.9000000059605,39,0,467.19999998807907,0,0,experiment,NA,NA,2,0.5,0.5,4,5,260,6,NA
fcp-trial,310,1274100,0.0-271.0-0.0,voc_e2,12383,"[{""event"":""fullscreenenter"",""trial"":1,""time"":2534}]",NA,NA,NA,NA,NA,1,#3386FF,#D89F1C,0,10,0,38,1,1622.800000011921,39,0,458.69999998807907,10,1,experiment,NA,NA,0,0.1,0.9,1,0,261,6,NA
fcp-trial,311,1277843,0.0-272.0-0.0,voc_e2,12383,"[{""event"":""fullscreenenter"",""trial"":1,""time"":2534}]",NA,NA,NA,NA,NA,2,#741CD8,#D8271C,0,10,1,40,0,1435.5,37,1,794.4000000059605,0,1,experiment,NA,NA,1,0.7,0.3,2,3,262,6,NA
fcp-trial,312,1280531,0.0-273.0-0.0,voc_e2,12383,"[{""event"":""fullscreenenter"",""trial"":1,""time"":2534}]",NA,NA,NA,NA,NA,6,#741CD8,#D8271C,10,0,1,40,0,684,39,0,492.90000000596046,0,0,experiment,NA,NA,1,0.7,0.3,2,3,263,6,NA
fcp-trial,313,1284006,0.0-274.0-0.0,voc_e2,12383,"[{""event"":""fullscreenenter"",""trial"":1,""time"":2534}]",NA,NA,NA,NA,NA,3,#1CD855,#FA92F8,10,10,1,40,0,1074.800000011921,37,1,888.1999999880791,10,1,experiment,NA,NA,2,0.5,0.5,4,5,264,6,NA
fcp-trial,314,1287068,0.0-275.0-0.0,voc_e2,12383,"[{""event"":""fullscreenenter"",""trial"":1,""time"":2534}]",NA,NA,NA,NA,NA,1,#741CD8,#D8271C,10,0,1,38,1,1195.7999999821186,39,0,352.19999998807907,0,0,experiment,NA,NA,1,0.7,0.3,2,3,265,6,NA
fcp-trial,315,1290010,0.0-276.0-0.0,voc_e2,12383,"[{""event"":""fullscreenenter"",""trial"":1,""time"":2534}]",NA,NA,NA,NA,NA,0,#3386FF,#D89F1C,0,0,0,38,1,1136.5,39,0,297.69999998807907,0,1,experiment,NA,NA,0,0.1,0.9,1,0,266,6,NA
fcp-trial,316,1293213,0.0-277.0-0.0,voc_e2,12383,"[{""event"":""fullscreenenter"",""trial"":1,""time"":2534}]",NA,NA,NA,NA,NA,5,#FA92F8,#1CD855,10,0,0,40,0,901.8000000119209,37,1,789.5999999940395,10,0,experiment,NA,NA,2,0.5,0.5,5,4,267,6,NA
fcp-trial,317,1296084,0.0-278.0-0.0,voc_e2,12383,"[{""event"":""fullscreenenter"",""trial"":1,""time"":2534}]",NA,NA,NA,NA,NA,4,#D89F1C,#3386FF,10,0,1,40,0,987.3999999761581,37,1,369.7000000178814,10,1,experiment,NA,NA,0,0.9,0.1,0,1,268,6,NA
fcp-trial,318,1299033,0.0-279.0-0.0,voc_e2,12383,"[{""event"":""fullscreenenter"",""trial"":1,""time"":2534}]",NA,NA,NA,NA,NA,4,#1CD855,#FA92F8,0,10,1,40,0,821.2000000178814,39,0,614.4000000059605,10,0,experiment,NA,NA,2,0.5,0.5,4,5,269,6,NA
fcp-trial,319,1302396,0.0-280.0-0.0,voc_e2,12383,"[{""event"":""fullscreenenter"",""trial"":1,""time"":2534}]",NA,NA,NA,NA,NA,3,#D8271C,#741CD8,0,10,0,40,0,1231.1000000238419,39,0,616.3000000119209,10,1,experiment,NA,NA,1,0.3,0.7,3,2,270,6,NA
fcp-trial,320,1305431,0.0-281.0-0.0,voc_e2,12383,"[{""event"":""fullscreenenter"",""trial"":1,""time"":2534}]",NA,NA,NA,NA,NA,2,#D89F1C,#3386FF,0,0,1,38,1,1144.6000000238419,37,1,380.30000001192093,0,1,experiment,NA,NA,0,0.9,0.1,0,1,271,7,NA
fcp-trial,321,1308295,0.0-282.0-0.0,voc_e2,12383,"[{""event"":""fullscreenenter"",""trial"":1,""time"":2534}]",NA,NA,NA,NA,NA,0,#1CD855,#FA92F8,0,10,1,38,1,911.2000000178814,39,0,442.80000001192093,10,0,experiment,NA,NA,2,0.5,0.5,4,5,272,7,NA
fcp-trial,322,1311144,0.0-283.0-0.0,voc_e2,12383,"[{""event"":""fullscreenenter"",""trial"":1,""time"":2534}]",NA,NA,NA,NA,NA,0,#741CD8,#D8271C,10,0,1,38,1,727.6999999880791,37,1,615,10,1,experiment,NA,NA,1,0.7,0.3,2,3,273,7,NA
fcp-trial,323,1314214,0.0-284.0-0.0,voc_e2,12383,"[{""event"":""fullscreenenter"",""trial"":1,""time"":2534}]",NA,NA,NA,NA,NA,5,#D89F1C,#3386FF,10,0,1,40,0,1025,39,0,540.0999999940395,0,0,experiment,NA,NA,0,0.9,0.1,0,1,274,7,NA
fcp-trial,324,1317018,0.0-285.0-0.0,voc_e2,12383,"[{""event"":""fullscreenenter"",""trial"":1,""time"":2534}]",NA,NA,NA,NA,NA,3,#741CD8,#D8271C,10,0,1,38,1,977.1999999880791,37,1,313.40000000596046,10,1,experiment,NA,NA,1,0.7,0.3,2,3,275,7,NA
fcp-trial,325,1319765,0.0-286.0-0.0,voc_e2,12383,"[{""event"":""fullscreenenter"",""trial"":1,""time"":2534}]",NA,NA,NA,NA,NA,4,#FA92F8,#1CD855,0,0,0,40,0,597,37,1,643.6000000238419,0,0,experiment,NA,NA,2,0.5,0.5,5,4,276,7,NA
fcp-trial,326,1322395,0.0-287.0-0.0,voc_e2,12383,"[{""event"":""fullscreenenter"",""trial"":1,""time"":2534}]",NA,NA,NA,NA,NA,4,#D89F1C,#3386FF,10,0,1,40,0,718.7000000178814,37,1,400.80000001192093,10,1,experiment,NA,NA,0,0.9,0.1,0,1,277,7,NA
fcp-trial,327,1325070,0.0-288.0-0.0,voc_e2,12383,"[{""event"":""fullscreenenter"",""trial"":1,""time"":2534}]",NA,NA,NA,NA,NA,0,#3386FF,#D89F1C,10,10,0,38,1,871.3000000119209,39,0,291.39999997615814,10,1,experiment,NA,NA,0,0.1,0.9,1,0,278,7,NA
fcp-trial,328,1328117,0.0-289.0-0.0,voc_e2,12383,"[{""event"":""fullscreenenter"",""trial"":1,""time"":2534}]",NA,NA,NA,NA,NA,5,#741CD8,#D8271C,10,10,1,40,0,1044.2000000178814,39,0,475.5,10,0,experiment,NA,NA,1,0.7,0.3,2,3,279,7,NA
fcp-trial,329,1331079,0.0-290.0-0.0,voc_e2,12383,"[{""event"":""fullscreenenter"",""trial"":1,""time"":2534}]",NA,NA,NA,NA,NA,2,#D89F1C,#3386FF,10,0,1,38,1,1029.300000011921,37,1,423,10,1,experiment,NA,NA,0,0.9,0.1,0,1,280,7,NA
fcp-trial,330,1333968,0.0-291.0-0.0,voc_e2,12383,"[{""event"":""fullscreenenter"",""trial"":1,""time"":2534}]",NA,NA,NA,NA,NA,1,#1CD855,#FA92F8,0,0,1,38,1,809.5999999940395,39,0,570.0999999940395,0,0,experiment,NA,NA,2,0.5,0.5,4,5,281,7,NA
fcp-trial,331,1336824,0.0-292.0-0.0,voc_e2,12383,"[{""event"":""fullscreenenter"",""trial"":1,""time"":2534}]",NA,NA,NA,NA,NA,0,#D8271C,#741CD8,0,0,0,38,1,927.2999999821186,37,1,410.40000000596046,0,0,experiment,NA,NA,1,0.3,0.7,3,2,282,7,NA
fcp-trial,332,1339829,0.0-293.0-0.0,voc_e2,12383,"[{""event"":""fullscreenenter"",""trial"":1,""time"":2534}]",NA,NA,NA,NA,NA,6,#1CD855,#FA92F8,10,10,1,40,0,932.7000000178814,39,0,561.2999999821186,10,0,experiment,NA,NA,2,0.5,0.5,4,5,283,7,NA
fcp-trial,333,1343378,0.0-294.0-0.0,voc_e2,12383,"[{""event"":""fullscreenenter"",""trial"":1,""time"":2534}]",NA,NA,NA,NA,NA,1,#3386FF,#D89F1C,0,10,0,38,1,832.5999999940395,39,0,1203,10,1,experiment,NA,NA,0,0.1,0.9,1,0,284,7,NA
fcp-trial,334,1346529,0.0-295.0-0.0,voc_e2,12383,"[{""event"":""fullscreenenter"",""trial"":1,""time"":2534}]",NA,NA,NA,NA,NA,1,#741CD8,#D8271C,0,10,1,38,1,1141.699999988079,39,0,497.69999998807907,10,0,experiment,NA,NA,1,0.7,0.3,2,3,285,7,NA
fcp-trial,335,1349489,0.0-296.0-0.0,voc_e2,12383,"[{""event"":""fullscreenenter"",""trial"":1,""time"":2534}]",NA,NA,NA,NA,NA,6,#741CD8,#D8271C,10,10,1,40,0,995.5999999940395,39,0,456.30000001192093,10,0,experiment,NA,NA,1,0.7,0.3,2,3,286,7,NA
fcp-trial,336,1352670,0.0-297.0-0.0,voc_e2,12383,"[{""event"":""fullscreenenter"",""trial"":1,""time"":2534}]",NA,NA,NA,NA,NA,2,#FA92F8,#1CD855,10,0,0,38,1,919.1999999880791,39,0,748.5,0,1,experiment,NA,NA,2,0.5,0.5,5,4,287,7,NA
fcp-trial,337,1355328,0.0-298.0-0.0,voc_e2,12383,"[{""event"":""fullscreenenter"",""trial"":1,""time"":2534}]",NA,NA,NA,NA,NA,3,#3386FF,#D89F1C,0,0,0,38,1,774.1999999880791,37,1,379.19999998807907,0,0,experiment,NA,NA,0,0.1,0.9,1,0,288,7,NA
fcp-trial,338,1358216,0.0-299.0-0.0,voc_e2,12383,"[{""event"":""fullscreenenter"",""trial"":1,""time"":2534}]",NA,NA,NA,NA,NA,4,#D8271C,#741CD8,0,10,0,40,0,683.1000000238419,37,1,697.5999999940395,0,0,experiment,NA,NA,1,0.3,0.7,3,2,289,7,NA
fcp-trial,339,1361150,0.0-300.0-0.0,voc_e2,12383,"[{""event"":""fullscreenenter"",""trial"":1,""time"":2534}]",NA,NA,NA,NA,NA,5,#FA92F8,#1CD855,10,10,0,40,0,717.6999999880791,37,1,702.4000000059605,10,0,experiment,NA,NA,2,0.5,0.5,5,4,290,7,NA
fcp-trial,340,1363831,0.0-301.0-0.0,voc_e2,12383,"[{""event"":""fullscreenenter"",""trial"":1,""time"":2534}]",NA,NA,NA,NA,NA,3,#FA92F8,#1CD855,0,0,0,40,0,579.9000000059605,37,1,589,0,0,experiment,NA,NA,2,0.5,0.5,5,4,291,7,NA
fcp-trial,341,1367378,0.0-302.0-0.0,voc_e2,12383,"[{""event"":""fullscreenenter"",""trial"":1,""time"":2534}]",NA,NA,NA,NA,NA,0,#FA92F8,#1CD855,10,0,0,38,1,1763,39,0,278.80000001192093,0,1,experiment,NA,NA,2,0.5,0.5,5,4,292,7,NA
fcp-trial,342,1370076,0.0-303.0-0.0,voc_e2,12383,"[{""event"":""fullscreenenter"",""trial"":1,""time"":2534}]",NA,NA,NA,NA,NA,6,#D89F1C,#3386FF,10,0,1,40,0,818.7999999821186,37,1,372,10,1,experiment,NA,NA,0,0.9,0.1,0,1,293,7,NA
fcp-trial,343,1373296,0.0-304.0-0.0,voc_e2,12383,"[{""event"":""fullscreenenter"",""trial"":1,""time"":2534}]",NA,NA,NA,NA,NA,2,#D8271C,#741CD8,0,10,0,38,1,1337.5,37,1,364.40000000596046,0,0,experiment,NA,NA,1,0.3,0.7,3,2,294,7,NA
fcp-trial,344,1376946,0.0-305.0-0.0,voc_e2,12383,"[{""event"":""fullscreenenter"",""trial"":1,""time"":2534}]",NA,NA,NA,NA,NA,2,#D8271C,#741CD8,0,10,0,40,0,1374.7999999821186,37,1,763.4000000059605,0,0,experiment,NA,NA,1,0.3,0.7,3,2,295,7,NA
fcp-trial,345,1379772,0.0-306.0-0.0,voc_e2,12383,"[{""event"":""fullscreenenter"",""trial"":1,""time"":2534}]",NA,NA,NA,NA,NA,1,#3386FF,#D89F1C,0,10,0,38,1,911.2000000178814,39,0,402.7999999821186,10,1,experiment,NA,NA,0,0.1,0.9,1,0,296,7,NA
fcp-trial,346,1382632,0.0-307.0-0.0,voc_e2,12383,"[{""event"":""fullscreenenter"",""trial"":1,""time"":2534}]",NA,NA,NA,NA,NA,0,#3386FF,#D89F1C,0,10,0,38,1,968.8000000119209,39,0,376,10,1,experiment,NA,NA,0,0.1,0.9,1,0,297,7,NA
fcp-trial,347,1385275,0.0-308.0-0.0,voc_e2,12383,"[{""event"":""fullscreenenter"",""trial"":1,""time"":2534}]",NA,NA,NA,NA,NA,4,#D89F1C,#3386FF,0,0,1,38,1,729.6999999880791,37,1,399.59999999403954,0,1,experiment,NA,NA,0,0.9,0.1,0,1,298,7,NA
fcp-trial,348,1387957,0.0-309.0-0.0,voc_e2,12383,"[{""event"":""fullscreenenter"",""trial"":1,""time"":2534}]",NA,NA,NA,NA,NA,3,#D8271C,#741CD8,0,0,0,38,1,738.6000000238419,37,1,425.89999997615814,0,0,experiment,NA,NA,1,0.3,0.7,3,2,299,7,NA
fcp-trial,349,1391383,0.0-310.0-0.0,voc_e2,12383,"[{""event"":""fullscreenenter"",""trial"":1,""time"":2534}]",NA,NA,NA,NA,NA,1,#FA92F8,#1CD855,10,10,0,40,0,921.5,37,1,988.0999999940395,10,0,experiment,NA,NA,2,0.5,0.5,5,4,300,7,NA
fcp-trial,350,1394102,0.0-311.0-0.0,voc_e2,12383,"[{""event"":""fullscreenenter"",""trial"":1,""time"":2534}]",NA,NA,NA,NA,NA,0,#D8271C,#741CD8,10,0,0,38,1,764.0999999940395,37,1,440.80000001192093,10,0,experiment,NA,NA,1,0.3,0.7,3,2,301,7,NA
fcp-trial,351,1396628,0.0-312.0-0.0,voc_e2,12383,"[{""event"":""fullscreenenter"",""trial"":1,""time"":2534}]",NA,NA,NA,NA,NA,2,#FA92F8,#1CD855,0,10,0,38,1,731.3000000119209,39,0,281.90000000596046,10,1,experiment,NA,NA,2,0.5,0.5,5,4,302,7,NA
fcp-trial,352,1399252,0.0-313.0-0.0,voc_e2,12383,"[{""event"":""fullscreenenter"",""trial"":1,""time"":2534}]",NA,NA,NA,NA,NA,3,#D89F1C,#3386FF,10,0,1,38,1,675.4000000059605,37,1,444.5,10,1,experiment,NA,NA,0,0.9,0.1,0,1,303,7,NA
fcp-trial,353,1402301,0.0-314.0-0.0,voc_e2,12383,"[{""event"":""fullscreenenter"",""trial"":1,""time"":2534}]",NA,NA,NA,NA,NA,5,#1CD855,#FA92F8,10,0,1,40,0,1067.0999999940395,39,0,467.09999999403954,0,0,experiment,NA,NA,2,0.5,0.5,4,5,304,7,NA
fcp-trial,354,1405267,0.0-315.0-0.0,voc_e2,12383,"[{""event"":""fullscreenenter"",""trial"":1,""time"":2534}]",NA,NA,NA,NA,NA,5,#D8271C,#741CD8,0,0,0,40,0,918.5,39,0,533.7000000178814,0,1,experiment,NA,NA,1,0.3,0.7,3,2,305,7,NA
fcp-trial,355,1408122,0.0-316.0-0.0,voc_e2,12383,"[{""event"":""fullscreenenter"",""trial"":1,""time"":2534}]",NA,NA,NA,NA,NA,6,#D8271C,#741CD8,0,10,0,40,0,858.7999999821186,39,0,484.19999998807907,10,1,experiment,NA,NA,1,0.3,0.7,3,2,306,7,NA
fcp-trial,356,1411236,0.0-317.0-0.0,voc_e2,12383,"[{""event"":""fullscreenenter"",""trial"":1,""time"":2534}]",NA,NA,NA,NA,NA,3,#1CD855,#FA92F8,10,0,1,40,0,832.8000000119209,37,1,773.5,10,1,experiment,NA,NA,2,0.5,0.5,4,5,307,7,NA
fcp-trial,357,1414150,0.0-318.0-0.0,voc_e2,12383,"[{""event"":""fullscreenenter"",""trial"":1,""time"":2534}]",NA,NA,NA,NA,NA,6,#D89F1C,#3386FF,10,0,1,40,0,848.2999999821186,39,0,552.8000000119209,0,0,experiment,NA,NA,0,0.9,0.1,0,1,308,7,NA
fcp-trial,358,1416840,0.0-319.0-0.0,voc_e2,12383,"[{""event"":""fullscreenenter"",""trial"":1,""time"":2534}]",NA,NA,NA,NA,NA,4,#FA92F8,#1CD855,0,0,0,40,0,651.2000000178814,39,0,525.6999999880791,0,1,experiment,NA,NA,2,0.5,0.5,5,4,309,7,NA
fcp-trial,359,1420305,0.0-320.0-0.0,voc_e2,12383,"[{""event"":""fullscreenenter"",""trial"":1,""time"":2534}]",NA,NA,NA,NA,NA,6,#1CD855,#FA92F8,0,0,1,40,0,1312,37,1,638.0999999940395,0,1,experiment,NA,NA,2,0.5,0.5,4,5,310,7,NA
fcp-trial,360,1423527,0.0-321.0-0.0,voc_e2,12383,"[{""event"":""fullscreenenter"",""trial"":1,""time"":2534}]",NA,NA,NA,NA,NA,1,#741CD8,#D8271C,10,10,1,40,0,572,37,1,1144.5999999940395,10,1,experiment,NA,NA,1,0.7,0.3,2,3,311,7,NA
fcp-trial,361,1426967,0.0-322.0-0.0,voc_e2,12383,"[{""event"":""fullscreenenter"",""trial"":1,""time"":2534}]",NA,NA,NA,NA,NA,0,#FA92F8,#1CD855,10,0,0,38,1,1364.5999999940395,39,0,559.6999999880791,0,1,experiment,NA,NA,2,0.5,0.5,5,4,312,7,NA
fcp-trial,362,1430148,0.0-323.0-0.0,voc_e2,12383,"[{""event"":""fullscreenenter"",""trial"":1,""time"":2534}]",NA,NA,NA,NA,NA,2,#3386FF,#D89F1C,0,10,0,40,0,1018.5999999940395,37,1,651.5,0,0,experiment,NA,NA,0,0.1,0.9,1,0,313,7,NA
fcp-trial,363,1433087,0.0-324.0-0.0,voc_e2,12383,"[{""event"":""fullscreenenter"",""trial"":1,""time"":2534}]",NA,NA,NA,NA,NA,5,#3386FF,#D89F1C,0,10,0,40,0,812.2999999821186,37,1,621.0999999940395,0,0,experiment,NA,NA,0,0.1,0.9,1,0,314,7,NA
fcp-trial,364,1435659,0.0-325.0-0.0,voc_e2,12383,"[{""event"":""fullscreenenter"",""trial"":1,""time"":2534}]",NA,NA,NA,NA,NA,4,#D8271C,#741CD8,10,0,0,40,0,644,37,1,411.60000002384186,10,0,experiment,NA,NA,1,0.3,0.7,3,2,315,7,NA
audio-instructions,365,1443329,0.0-326.0,voc_e2,12383,"[{""event"":""fullscreenenter"",""trial"":1,""time"":2534}]",NA,1730.300000011921,static/audio/finished.wav,NA,0,NA,NA,NA,NA,NA,NA,NA,NA,NA,NA,NA,NA,NA,NA,NA,NA,NA,NA,NA,NA,NA,NA,NA,NA,NA
audio-instructions,366,1455664,0.0-327.0-0.0,voc_e2,12383,"[{""event"":""fullscreenenter"",""trial"":1,""time"":2534}]",NA,1494.7999999821186,static/audio/explicit1.wav,NA,0,NA,NA,NA,NA,NA,NA,NA,NA,NA,NA,NA,NA,NA,NA,NA,NA,NA,NA,NA,NA,NA,NA,NA,NA,NA
audio-instructions,367,1464320,0.0-327.0-1.0,voc_e2,12383,"[{""event"":""fullscreenenter"",""trial"":1,""time"":2534}]",NA,1062.899999976158,static/audio/explicit2.wav,NA,0,NA,NA,NA,NA,NA,NA,NA,NA,NA,NA,NA,NA,NA,NA,NA,NA,NA,NA,NA,NA,NA,NA,NA,NA,NA
image-slider-response,368,1470352,0.0-328.0,voc_e2,12383,"[{""event"":""fullscreenenter"",""trial"":1,""time"":2534}]",NA,6029.5,static/img/machines/machine1.png,NA,NA,NA,NA,NA,NA,NA,NA,NA,NA,NA,NA,NA,NA,NA,NA,explicit,NA,NA,NA,NA,NA,NA,NA,NA,NA,5
image-slider-response,369,1475783,0.0-329.0,voc_e2,12383,"[{""event"":""fullscreenenter"",""trial"":1,""time"":2534}]",NA,5429.300000011921,static/img/machines/machine5.png,NA,NA,NA,NA,NA,NA,NA,NA,NA,NA,NA,NA,NA,NA,NA,NA,explicit,NA,NA,NA,NA,NA,NA,NA,NA,NA,3
image-slider-response,370,1479384,0.0-330.0,voc_e2,12383,"[{""event"":""fullscreenenter"",""trial"":1,""time"":2534}]",NA,3599.9000000059605,static/img/machines/machine6.png,NA,NA,NA,NA,NA,NA,NA,NA,NA,NA,NA,NA,NA,NA,NA,NA,explicit,NA,NA,NA,NA,NA,NA,NA,NA,NA,6
image-slider-response,371,1483424,0.0-331.0,voc_e2,12383,"[{""event"":""fullscreenenter"",""trial"":1,""time"":2534}]",NA,4038.400000005961,static/img/machines/machine2.png,NA,NA,NA,NA,NA,NA,NA,NA,NA,NA,NA,NA,NA,NA,NA,NA,explicit,NA,NA,NA,NA,NA,NA,NA,NA,NA,4
image-slider-response,372,1495025,0.0-332.0,voc_e2,12383,"[{""event"":""fullscreenenter"",""trial"":1,""time"":2534}]",NA,11598.20000001788,static/img/machines/machine3.png,NA,NA,NA,NA,NA,NA,NA,NA,NA,NA,NA,NA,NA,NA,NA,NA,explicit,NA,NA,NA,NA,NA,NA,NA,NA,NA,1
image-slider-response,373,1498249,0.0-333.0,voc_e2,12383,"[{""event"":""fullscreenenter"",""trial"":1,""time"":2534}]",NA,3221.800000011921,static/img/machines/machine4.png,NA,NA,NA,NA,NA,NA,NA,NA,NA,NA,NA,NA,NA,NA,NA,NA,explicit,NA,NA,NA,NA,NA,NA,NA,NA,NA,9
