trial_type,trial_index,time_elapsed,internal_node_id,task_version,subject_id,interactions,success,rt,stimulus,key_press,button_pressed,offer,arcade_color_L,arcade_color_R,arcade_outcome_L,arcade_outcome_R,correct,stage_1_key,stage_1_choice,stage_1_rt,stage_2_key,stage_2_choice,stage_2_rt,stage_3_outcome,accuracy,phase,responses,num_errors,context,reward_prob_L,reward_prob_R,arcade_id_L,arcade_id_R,trial,block,response
pavlovia,0,10,0.0-0.0,voc_e2,12014,[],NA,NA,NA,NA,NA,NA,NA,NA,NA,NA,NA,NA,NA,NA,NA,NA,NA,NA,NA,NA,NA,NA,NA,NA,NA,NA,NA,NA,NA,NA
fullscreen,1,2136,0.0-1.0,voc_e2,12014,"[{""event"":""fullscreenenter"",""trial"":1,""time"":1152}]",TRUE,NA,NA,NA,NA,NA,NA,NA,NA,NA,NA,NA,NA,NA,NA,NA,NA,NA,NA,NA,NA,NA,NA,NA,NA,NA,NA,NA,NA,NA
audio-keyboard-response,2,4305,0.0-2.0,voc_e2,12014,"[{""event"":""fullscreenenter"",""trial"":1,""time"":1152}]",NA,1960,static/audio/beep_loop.wav,32,NA,NA,NA,NA,NA,NA,NA,NA,NA,NA,NA,NA,NA,NA,NA,NA,NA,NA,NA,NA,NA,NA,NA,NA,NA,NA
audio-test,3,5575,0.0-3.0,voc_e2,12014,"[{""event"":""fullscreenenter"",""trial"":1,""time"":1152}]",NA,NA,static/audio/turtle.wav,NA,3,NA,NA,NA,NA,NA,NA,NA,NA,NA,NA,NA,NA,NA,NA,NA,NA,NA,NA,NA,NA,NA,NA,NA,NA,NA
audio-test,4,7695,0.0-4.0,voc_e2,12014,"[{""event"":""fullscreenenter"",""trial"":1,""time"":1152}]",NA,NA,static/audio/shark.wav,NA,2,NA,NA,NA,NA,NA,NA,NA,NA,NA,NA,NA,NA,NA,NA,NA,NA,NA,NA,NA,NA,NA,NA,NA,NA,NA
audio-instructions,5,14256,0.0-5.0-0.0,voc_e2,12014,"[{""event"":""fullscreenenter"",""trial"":1,""time"":1152}]",NA,774,static/audio/instructions1.wav,NA,0,NA,NA,NA,NA,NA,NA,NA,NA,NA,NA,NA,NA,NA,NA,NA,NA,NA,NA,NA,NA,NA,NA,NA,NA,NA
audio-instructions,6,34736,0.0-5.0-1.0,voc_e2,12014,"[{""event"":""fullscreenenter"",""trial"":1,""time"":1152}]",NA,13743.69999998808,static/audio/instructions2.wav,NA,0,NA,NA,NA,NA,NA,NA,NA,NA,NA,NA,NA,NA,NA,NA,NA,NA,NA,NA,NA,NA,NA,NA,NA,NA,NA
audio-instructions,7,41087,0.0-5.0-2.0,voc_e2,12014,"[{""event"":""fullscreenenter"",""trial"":1,""time"":1152}]",NA,544.4000000059605,static/audio/instructions3.wav,NA,0,NA,NA,NA,NA,NA,NA,NA,NA,NA,NA,NA,NA,NA,NA,NA,NA,NA,NA,NA,NA,NA,NA,NA,NA,NA
audio-instructions,8,55832,0.0-5.0-3.0,voc_e2,12014,"[{""event"":""fullscreenenter"",""trial"":1,""time"":1152}]",NA,1519.5,static/audio/instructions4.wav,NA,0,NA,NA,NA,NA,NA,NA,NA,NA,NA,NA,NA,NA,NA,NA,NA,NA,NA,NA,NA,NA,NA,NA,NA,NA,NA
audio-instructions,9,67296,0.0-5.0-4.0,voc_e2,12014,"[{""event"":""fullscreenenter"",""trial"":1,""time"":1152}]",NA,2072.800000011921,static/audio/instructions5.wav,NA,0,NA,NA,NA,NA,NA,NA,NA,NA,NA,NA,NA,NA,NA,NA,NA,NA,NA,NA,NA,NA,NA,NA,NA,NA,NA
fcp-practice,10,71277,0.0-5.0-5.0-0.0,voc_e2,12014,"[{""event"":""fullscreenenter"",""trial"":1,""time"":1152}]",NA,NA,NA,NA,NA,NA,#EDC948,#46d3c8,10,0,1,null,null,null,37,1,2469.2999999821186,10,1,practice,NA,NA,NA,NA,NA,NA,NA,NA,NA,NA
fcp-practice,11,73238,0.0-5.0-5.0-1.0,voc_e2,12014,"[{""event"":""fullscreenenter"",""trial"":1,""time"":1152}]",NA,NA,NA,NA,NA,NA,#EDC948,#46d3c8,10,0,1,null,null,null,37,1,445.59999999403954,10,1,practice,NA,NA,NA,NA,NA,NA,NA,NA,NA,NA
fcp-practice,12,75055,0.0-5.0-5.0-2.0,voc_e2,12014,"[{""event"":""fullscreenenter"",""trial"":1,""time"":1152}]",NA,NA,NA,NA,NA,NA,#EDC948,#46d3c8,0,10,1,null,null,null,37,1,306.89999997615814,0,1,practice,NA,NA,NA,NA,NA,NA,NA,NA,NA,NA
fcp-practice,13,76955,0.0-5.0-5.0-3.0,voc_e2,12014,"[{""event"":""fullscreenenter"",""trial"":1,""time"":1152}]",NA,NA,NA,NA,NA,NA,#EDC948,#46d3c8,10,0,1,null,null,null,37,1,389.300000011921,10,1,practice,NA,NA,NA,NA,NA,NA,NA,NA,NA,NA
fcp-practice,14,78872,0.0-5.0-5.0-4.0,voc_e2,12014,"[{""event"":""fullscreenenter"",""trial"":1,""time"":1152}]",NA,NA,NA,NA,NA,NA,#EDC948,#46d3c8,10,0,1,null,null,null,37,1,404.5,10,1,practice,NA,NA,NA,NA,NA,NA,NA,NA,NA,NA
audio-instructions,15,109168,0.0-5.0-6.0,voc_e2,12014,"[{""event"":""fullscreenenter"",""trial"":1,""time"":1152}]",NA,12284.5,static/audio/instructions6.wav,NA,0,NA,NA,NA,NA,NA,NA,NA,NA,NA,NA,NA,NA,NA,NA,NA,NA,NA,NA,NA,NA,NA,NA,NA,NA,NA
audio-instructions,16,132183,0.0-5.0-7.0,voc_e2,12014,"[{""event"":""fullscreenenter"",""trial"":1,""time"":1152}]",NA,3820.899999976158,static/audio/instructions7.wav,NA,0,NA,NA,NA,NA,NA,NA,NA,NA,NA,NA,NA,NA,NA,NA,NA,NA,NA,NA,NA,NA,NA,NA,NA,NA,NA
audio-instructions,17,142112,0.0-5.0-8.0,voc_e2,12014,"[{""event"":""fullscreenenter"",""trial"":1,""time"":1152}]",NA,449,static/audio/instructions8.wav,NA,0,NA,NA,NA,NA,NA,NA,NA,NA,NA,NA,NA,NA,NA,NA,NA,NA,NA,NA,NA,NA,NA,NA,NA,NA,NA
fcp-comprehension,18,153656,0.0-5.0-9.0,voc_e2,12014,"[{""event"":""fullscreenenter"",""trial"":1,""time"":1152}]",NA,11543.09999999404,NA,NA,NA,NA,NA,NA,NA,NA,NA,NA,NA,NA,NA,NA,NA,NA,NA,NA,"false,true",1,NA,NA,NA,NA,NA,NA,NA,NA
audio-instructions,19,158960,0.0-5.1-0.1,voc_e2,12014,"[{""event"":""fullscreenenter"",""trial"":1,""time"":1152}]",NA,527.1999999880791,static/audio/instructions1.wav,NA,0,NA,NA,NA,NA,NA,NA,NA,NA,NA,NA,NA,NA,NA,NA,NA,NA,NA,NA,NA,NA,NA,NA,NA,NA,NA
audio-instructions,20,166512,0.0-5.1-1.1,voc_e2,12014,"[{""event"":""fullscreenenter"",""trial"":1,""time"":1152}]",NA,809,static/audio/instructions2.wav,NA,0,NA,NA,NA,NA,NA,NA,NA,NA,NA,NA,NA,NA,NA,NA,NA,NA,NA,NA,NA,NA,NA,NA,NA,NA,NA
audio-instructions,21,172687,0.0-5.1-2.1,voc_e2,12014,"[{""event"":""fullscreenenter"",""trial"":1,""time"":1152}]",NA,364.09999999403954,static/audio/instructions3.wav,NA,0,NA,NA,NA,NA,NA,NA,NA,NA,NA,NA,NA,NA,NA,NA,NA,NA,NA,NA,NA,NA,NA,NA,NA,NA,NA
audio-instructions,22,186463,0.0-5.1-3.1,voc_e2,12014,"[{""event"":""fullscreenenter"",""trial"":1,""time"":1152}]",NA,550.4000000059605,static/audio/instructions4.wav,NA,0,NA,NA,NA,NA,NA,NA,NA,NA,NA,NA,NA,NA,NA,NA,NA,NA,NA,NA,NA,NA,NA,NA,NA,NA,NA
audio-instructions,23,197119,0.0-5.1-4.1,voc_e2,12014,"[{""event"":""fullscreenenter"",""trial"":1,""time"":1152}]",NA,1265.7999999821186,static/audio/instructions5.wav,NA,0,NA,NA,NA,NA,NA,NA,NA,NA,NA,NA,NA,NA,NA,NA,NA,NA,NA,NA,NA,NA,NA,NA,NA,NA,NA
fcp-practice,24,199580,0.0-5.1-5.1-0.1,voc_e2,12014,"[{""event"":""fullscreenenter"",""trial"":1,""time"":1152}]",NA,NA,NA,NA,NA,NA,#EDC948,#46d3c8,10,0,1,null,null,null,37,1,955.2000000178814,10,1,practice,NA,NA,NA,NA,NA,NA,NA,NA,NA,NA
fcp-practice,25,201561,0.0-5.1-5.1-1.1,voc_e2,12014,"[{""event"":""fullscreenenter"",""trial"":1,""time"":1152}]",NA,NA,NA,NA,NA,NA,#EDC948,#46d3c8,10,0,1,null,null,null,37,1,463.699999988079,10,1,practice,NA,NA,NA,NA,NA,NA,NA,NA,NA,NA
fcp-practice,26,203648,0.0-5.1-5.1-2.1,voc_e2,12014,"[{""event"":""fullscreenenter"",""trial"":1,""time"":1152}]",NA,NA,NA,NA,NA,NA,#EDC948,#46d3c8,0,10,1,null,null,null,37,1,576.7999999821186,0,1,practice,NA,NA,NA,NA,NA,NA,NA,NA,NA,NA
fcp-practice,27,205474,0.0-5.1-5.1-3.1,voc_e2,12014,"[{""event"":""fullscreenenter"",""trial"":1,""time"":1152}]",NA,NA,NA,NA,NA,NA,#EDC948,#46d3c8,10,0,1,null,null,null,37,1,314.5,10,1,practice,NA,NA,NA,NA,NA,NA,NA,NA,NA,NA
fcp-practice,28,207370,0.0-5.1-5.1-4.1,voc_e2,12014,"[{""event"":""fullscreenenter"",""trial"":1,""time"":1152}]",NA,NA,NA,NA,NA,NA,#EDC948,#46d3c8,10,0,1,null,null,null,37,1,390.699999988079,10,1,practice,NA,NA,NA,NA,NA,NA,NA,NA,NA,NA
audio-instructions,29,226703,0.0-5.1-6.1,voc_e2,12014,"[{""event"":""fullscreenenter"",""trial"":1,""time"":1152}]",NA,1320.5999999940395,static/audio/instructions6.wav,NA,0,NA,NA,NA,NA,NA,NA,NA,NA,NA,NA,NA,NA,NA,NA,NA,NA,NA,NA,NA,NA,NA,NA,NA,NA,NA
audio-instructions,30,248559,0.0-5.1-7.1,voc_e2,12014,"[{""event"":""fullscreenenter"",""trial"":1,""time"":1152}]",NA,2657.5,static/audio/instructions7.wav,NA,0,NA,NA,NA,NA,NA,NA,NA,NA,NA,NA,NA,NA,NA,NA,NA,NA,NA,NA,NA,NA,NA,NA,NA,NA,NA
audio-instructions,31,259240,0.0-5.1-8.1,voc_e2,12014,"[{""event"":""fullscreenenter"",""trial"":1,""time"":1152}]",NA,1207.399999976158,static/audio/instructions8.wav,NA,0,NA,NA,NA,NA,NA,NA,NA,NA,NA,NA,NA,NA,NA,NA,NA,NA,NA,NA,NA,NA,NA,NA,NA,NA,NA
fcp-comprehension,32,264727,0.0-5.1-9.1,voc_e2,12014,"[{""event"":""fullscreenenter"",""trial"":1,""time"":1152}]",NA,5486.5999999940395,NA,NA,NA,NA,NA,NA,NA,NA,NA,NA,NA,NA,NA,NA,NA,NA,NA,NA,"true,true",0,NA,NA,NA,NA,NA,NA,NA,NA
audio-instructions,33,271239,0.0-6.0-0.0,voc_e2,12014,"[{""event"":""fullscreenenter"",""trial"":1,""time"":1152}]",NA,966.9000000059604,static/audio/instructions9.wav,NA,0,NA,NA,NA,NA,NA,NA,NA,NA,NA,NA,NA,NA,NA,NA,NA,NA,NA,NA,NA,NA,NA,NA,NA,NA,NA
audio-instructions,34,284199,0.0-6.0-1.0,voc_e2,12014,"[{""event"":""fullscreenenter"",""trial"":1,""time"":1152}]",NA,847.6999999880791,static/audio/instructions10.wav,NA,0,NA,NA,NA,NA,NA,NA,NA,NA,NA,NA,NA,NA,NA,NA,NA,NA,NA,NA,NA,NA,NA,NA,NA,NA,NA
fcp-trial,35,289811,0.0-6.0-2.0,voc_e2,12014,"[{""event"":""fullscreenenter"",""trial"":1,""time"":1152}]",NA,NA,NA,NA,NA,0,#EDC948,#46d3c8,10,10,1,38,1,1536.2999999821186,37,1,2554.5,10,1,practice,NA,NA,NA,NA,NA,NA,NA,NA,NA,NA
audio-instructions,36,301200,0.0-6.0-3.0,voc_e2,12014,"[{""event"":""fullscreenenter"",""trial"":1,""time"":1152}]",NA,377.7999999821186,static/audio/instructions11.wav,NA,0,NA,NA,NA,NA,NA,NA,NA,NA,NA,NA,NA,NA,NA,NA,NA,NA,NA,NA,NA,NA,NA,NA,NA,NA,NA
fcp-trial,37,304726,0.0-6.0-4.0,voc_e2,12014,"[{""event"":""fullscreenenter"",""trial"":1,""time"":1152}]",NA,NA,NA,NA,NA,6,#EDC948,#46d3c8,10,10,1,40,0,922.1999999880791,37,1,1086.5999999940395,10,1,practice,NA,NA,NA,NA,NA,NA,NA,NA,NA,NA
audio-instructions,38,323760,0.0-6.0-5.0,voc_e2,12014,"[{""event"":""fullscreenenter"",""trial"":1,""time"":1152}]",NA,347.09999999403954,static/audio/instructions12.wav,NA,0,NA,NA,NA,NA,NA,NA,NA,NA,NA,NA,NA,NA,NA,NA,NA,NA,NA,NA,NA,NA,NA,NA,NA,NA,NA
audio-instructions,39,331896,0.0-6.0-6.0,voc_e2,12014,"[{""event"":""fullscreenenter"",""trial"":1,""time"":1152}]",NA,542.8000000119209,static/audio/instructions13.wav,NA,0,NA,NA,NA,NA,NA,NA,NA,NA,NA,NA,NA,NA,NA,NA,NA,NA,NA,NA,NA,NA,NA,NA,NA,NA,NA
audio-instructions,40,340728,0.0-6.0-7.0,voc_e2,12014,"[{""event"":""fullscreenenter"",""trial"":1,""time"":1152}]",NA,384.40000000596046,static/audio/instructions14.wav,NA,0,NA,NA,NA,NA,NA,NA,NA,NA,NA,NA,NA,NA,NA,NA,NA,NA,NA,NA,NA,NA,NA,NA,NA,NA,NA
audio-instructions,41,348016,0.0-7.0-0.0,voc_e2,12014,"[{""event"":""fullscreenenter"",""trial"":1,""time"":1152}]",NA,372.199999988079,static/audio/instructions15.wav,NA,0,NA,NA,NA,NA,NA,NA,NA,NA,NA,NA,NA,NA,NA,NA,NA,NA,NA,NA,NA,NA,NA,NA,NA,NA,NA
audio-instructions,42,355247,0.0-7.0-1.0,voc_e2,12014,"[{""event"":""fullscreenenter"",""trial"":1,""time"":1152}]",NA,404.5,static/audio/instructions16.wav,NA,0,NA,NA,NA,NA,NA,NA,NA,NA,NA,NA,NA,NA,NA,NA,NA,NA,NA,NA,NA,NA,NA,NA,NA,NA,NA
audio-instructions,43,363536,0.0-7.0-2.0,voc_e2,12014,"[{""event"":""fullscreenenter"",""trial"":1,""time"":1152}]",NA,613.5,static/audio/instructions17.wav,NA,0,NA,NA,NA,NA,NA,NA,NA,NA,NA,NA,NA,NA,NA,NA,NA,NA,NA,NA,NA,NA,NA,NA,NA,NA,NA
audio-instructions,44,372703,0.0-7.0-3.0,voc_e2,12014,"[{""event"":""fullscreenenter"",""trial"":1,""time"":1152}]",NA,1400.199999988079,static/audio/instructions18.wav,NA,0,NA,NA,NA,NA,NA,NA,NA,NA,NA,NA,NA,NA,NA,NA,NA,NA,NA,NA,NA,NA,NA,NA,NA,NA,NA
audio-instructions,45,640327,0.0-7.0-4.0,voc_e2,12014,"[{""event"":""fullscreenenter"",""trial"":1,""time"":1152}]",NA,260884.59999999404,static/audio/instructions19.wav,NA,0,NA,NA,NA,NA,NA,NA,NA,NA,NA,NA,NA,NA,NA,NA,NA,NA,NA,NA,NA,NA,NA,NA,NA,NA,NA
fcp-comprehension,46,649984,0.0-7.0-5.0,voc_e2,12014,"[{""event"":""fullscreenenter"",""trial"":1,""time"":1152}]",NA,9655.09999999404,NA,NA,NA,NA,NA,NA,NA,NA,NA,NA,NA,NA,NA,NA,NA,NA,NA,NA,"false,false,false,true",0,NA,NA,NA,NA,NA,NA,NA,NA
audio-instructions,47,660055,0.0-8.0,voc_e2,12014,"[{""event"":""fullscreenenter"",""trial"":1,""time"":1152}]",NA,614.5,static/audio/ready.wav,NA,0,NA,NA,NA,NA,NA,NA,NA,NA,NA,NA,NA,NA,NA,NA,NA,NA,NA,NA,NA,NA,NA,NA,NA,NA,NA
fcp-trial,48,669004,0.0-9.0-0.0,voc_e2,12014,"[{""event"":""fullscreenenter"",""trial"":1,""time"":1152}]",NA,NA,NA,NA,NA,1,#D8271C,#741CD8,10,10,1,40,0,5489.300000011921,39,0,1951.9000000059605,10,0,experiment,NA,NA,1,0.7,0.3,2,3,1,1,NA
fcp-trial,49,674930,0.0-10.0-0.0,voc_e2,12014,"[{""event"":""fullscreenenter"",""trial"":1,""time"":1152}]",NA,NA,NA,NA,NA,4,#D89F1C,#3386FF,0,10,0,40,0,3484,37,1,929.7999999821186,0,0,experiment,NA,NA,0,0.1,0.9,1,0,2,1,NA
fcp-trial,50,679665,0.0-11.0-0.0,voc_e2,12014,"[{""event"":""fullscreenenter"",""trial"":1,""time"":1152}]",NA,NA,NA,NA,NA,5,#D8271C,#741CD8,10,0,1,40,0,2498.4000000059605,39,0,726.9000000059605,0,0,experiment,NA,NA,1,0.7,0.3,2,3,3,1,NA
fcp-trial,51,686724,0.0-12.0-0.0,voc_e2,12014,"[{""event"":""fullscreenenter"",""trial"":1,""time"":1152}]",NA,NA,NA,NA,NA,0,#D8271C,#741CD8,10,0,1,38,1,1997.9000000059605,37,1,3544.5999999940395,10,1,experiment,NA,NA,1,0.7,0.3,2,3,4,1,NA
fcp-trial,52,694208,0.0-13.0-0.0,voc_e2,12014,"[{""event"":""fullscreenenter"",""trial"":1,""time"":1152}]",NA,NA,NA,NA,NA,1,#FA92F8,#1CD855,10,0,1,40,0,5247.300000011921,39,0,733.6999999880791,0,0,experiment,NA,NA,2,0.5,0.5,4,5,5,1,NA
fcp-trial,53,698756,0.0-14.0-0.0,voc_e2,12014,"[{""event"":""fullscreenenter"",""trial"":1,""time"":1152}]",NA,NA,NA,NA,NA,2,#FA92F8,#1CD855,0,10,1,40,0,2430.300000011921,37,1,609.5999999940395,0,1,experiment,NA,NA,2,0.5,0.5,4,5,6,1,NA
fcp-trial,54,702886,0.0-15.0-0.0,voc_e2,12014,"[{""event"":""fullscreenenter"",""trial"":1,""time"":1152}]",NA,NA,NA,NA,NA,1,#D89F1C,#3386FF,0,10,0,38,1,1795,39,0,828.5,10,1,experiment,NA,NA,0,0.1,0.9,1,0,7,1,NA
fcp-trial,55,709735,0.0-16.0-0.0,voc_e2,12014,"[{""event"":""fullscreenenter"",""trial"":1,""time"":1152}]",NA,NA,NA,NA,NA,6,#741CD8,#D8271C,0,10,0,40,0,4613.800000011921,37,1,729.7999999821186,0,0,experiment,NA,NA,1,0.3,0.7,3,2,8,1,NA
fcp-trial,56,713306,0.0-17.0-0.0,voc_e2,12014,"[{""event"":""fullscreenenter"",""trial"":1,""time"":1152}]",NA,NA,NA,NA,NA,2,#3386FF,#D89F1C,10,0,1,38,1,1261.7000000178814,37,1,801.5,10,1,experiment,NA,NA,0,0.9,0.1,0,1,9,1,NA
fcp-trial,57,717919,0.0-18.0-0.0,voc_e2,12014,"[{""event"":""fullscreenenter"",""trial"":1,""time"":1152}]",NA,NA,NA,NA,NA,5,#D89F1C,#3386FF,0,10,0,38,1,2641.699999988079,39,0,463.2999999821186,10,1,experiment,NA,NA,0,0.1,0.9,1,0,10,1,NA
fcp-trial,58,722418,0.0-19.0-0.0,voc_e2,12014,"[{""event"":""fullscreenenter"",""trial"":1,""time"":1152}]",NA,NA,NA,NA,NA,6,#1CD855,#FA92F8,10,0,0,40,0,2422.100000023842,39,0,569.5,0,1,experiment,NA,NA,2,0.5,0.5,5,4,11,1,NA
fcp-trial,59,725876,0.0-20.0-0.0,voc_e2,12014,"[{""event"":""fullscreenenter"",""trial"":1,""time"":1152}]",NA,NA,NA,NA,NA,2,#741CD8,#D8271C,0,0,0,38,1,1194,39,0,756.0999999940395,0,1,experiment,NA,NA,1,0.3,0.7,3,2,12,1,NA
fcp-trial,60,729126,0.0-21.0-0.0,voc_e2,12014,"[{""event"":""fullscreenenter"",""trial"":1,""time"":1152}]",NA,NA,NA,NA,NA,4,#741CD8,#D8271C,0,10,0,40,0,1179.8999999761581,37,1,563.5,0,0,experiment,NA,NA,1,0.3,0.7,3,2,13,1,NA
fcp-trial,61,733474,0.0-22.0-0.0,voc_e2,12014,"[{""event"":""fullscreenenter"",""trial"":1,""time"":1152}]",NA,NA,NA,NA,NA,3,#FA92F8,#1CD855,10,10,1,40,0,2113.5999999940395,37,1,727.3000000119209,10,1,experiment,NA,NA,2,0.5,0.5,4,5,14,1,NA
fcp-trial,62,736622,0.0-23.0-0.0,voc_e2,12014,"[{""event"":""fullscreenenter"",""trial"":1,""time"":1152}]",NA,NA,NA,NA,NA,0,#D89F1C,#3386FF,0,10,0,38,1,1227.699999988079,39,0,414.59999999403954,10,1,experiment,NA,NA,0,0.1,0.9,1,0,15,1,NA
fcp-trial,63,739913,0.0-24.0-0.0,voc_e2,12014,"[{""event"":""fullscreenenter"",""trial"":1,""time"":1152}]",NA,NA,NA,NA,NA,3,#3386FF,#D89F1C,10,0,1,38,1,1271.7999999821186,37,1,510.699999988079,10,1,experiment,NA,NA,0,0.9,0.1,0,1,16,1,NA
fcp-trial,64,744570,0.0-25.0-0.0,voc_e2,12014,"[{""event"":""fullscreenenter"",""trial"":1,""time"":1152}]",NA,NA,NA,NA,NA,0,#1CD855,#FA92F8,10,0,0,38,1,1891.0999999940395,39,0,1254,0,1,experiment,NA,NA,2,0.5,0.5,5,4,17,1,NA
fcp-trial,65,748221,0.0-26.0-0.0,voc_e2,12014,"[{""event"":""fullscreenenter"",""trial"":1,""time"":1152}]",NA,NA,NA,NA,NA,3,#741CD8,#D8271C,10,10,0,40,0,1567.9000000059605,37,1,575.3000000119209,10,0,experiment,NA,NA,1,0.3,0.7,3,2,18,1,NA
fcp-trial,66,752868,0.0-27.0-0.0,voc_e2,12014,"[{""event"":""fullscreenenter"",""trial"":1,""time"":1152}]",NA,NA,NA,NA,NA,4,#FA92F8,#1CD855,0,10,1,40,0,2512.9000000059605,39,0,626.2999999821186,10,0,experiment,NA,NA,2,0.5,0.5,4,5,19,1,NA
fcp-trial,67,756815,0.0-28.0-0.0,voc_e2,12014,"[{""event"":""fullscreenenter"",""trial"":1,""time"":1152}]",NA,NA,NA,NA,NA,6,#3386FF,#D89F1C,10,0,1,40,0,1862.5,37,1,573.7999999821186,10,1,experiment,NA,NA,0,0.9,0.1,0,1,20,1,NA
fcp-trial,68,762356,0.0-29.0-0.0,voc_e2,12014,"[{""event"":""fullscreenenter"",""trial"":1,""time"":1152}]",NA,NA,NA,NA,NA,5,#FA92F8,#1CD855,0,10,1,40,0,3524.800000011921,39,0,510.59999999403954,10,0,experiment,NA,NA,2,0.5,0.5,4,5,21,1,NA
fcp-trial,69,765565,0.0-30.0-0.0,voc_e2,12014,"[{""event"":""fullscreenenter"",""trial"":1,""time"":1152}]",NA,NA,NA,NA,NA,6,#1CD855,#FA92F8,0,10,0,40,0,1129.199999988079,39,0,572.7999999821186,10,1,experiment,NA,NA,2,0.5,0.5,5,4,22,1,NA
fcp-trial,70,770779,0.0-31.0-0.0,voc_e2,12014,"[{""event"":""fullscreenenter"",""trial"":1,""time"":1152}]",NA,NA,NA,NA,NA,4,#D8271C,#741CD8,0,0,1,40,0,3229.0999999940395,37,1,476.2999999821186,0,1,experiment,NA,NA,1,0.7,0.3,2,3,23,1,NA
fcp-trial,71,774128,0.0-32.0-0.0,voc_e2,12014,"[{""event"":""fullscreenenter"",""trial"":1,""time"":1152}]",NA,NA,NA,NA,NA,0,#3386FF,#D89F1C,10,0,1,38,1,1257.9000000059605,37,1,583.4000000059605,10,1,experiment,NA,NA,0,0.9,0.1,0,1,24,1,NA
fcp-trial,72,777683,0.0-33.0-0.0,voc_e2,12014,"[{""event"":""fullscreenenter"",""trial"":1,""time"":1152}]",NA,NA,NA,NA,NA,5,#D8271C,#741CD8,10,10,1,40,0,1423.9000000059605,39,0,624.8999999761581,10,0,experiment,NA,NA,1,0.7,0.3,2,3,25,1,NA
fcp-trial,73,784226,0.0-34.0-0.0,voc_e2,12014,"[{""event"":""fullscreenenter"",""trial"":1,""time"":1152}]",NA,NA,NA,NA,NA,3,#1CD855,#FA92F8,0,0,0,40,0,4533.899999976158,39,0,500.59999999403954,0,1,experiment,NA,NA,2,0.5,0.5,5,4,26,1,NA
fcp-trial,74,787550,0.0-35.0-0.0,voc_e2,12014,"[{""event"":""fullscreenenter"",""trial"":1,""time"":1152}]",NA,NA,NA,NA,NA,3,#3386FF,#D89F1C,0,10,1,38,1,1189.199999988079,37,1,629.8000000119209,0,1,experiment,NA,NA,0,0.9,0.1,0,1,27,1,NA
fcp-trial,75,791954,0.0-36.0-0.0,voc_e2,12014,"[{""event"":""fullscreenenter"",""trial"":1,""time"":1152}]",NA,NA,NA,NA,NA,0,#1CD855,#FA92F8,0,10,0,38,1,1283.1000000238419,37,1,1617.2000000178814,0,0,experiment,NA,NA,2,0.5,0.5,5,4,28,1,NA
fcp-trial,76,796759,0.0-37.0-0.0,voc_e2,12014,"[{""event"":""fullscreenenter"",""trial"":1,""time"":1152}]",NA,NA,NA,NA,NA,0,#741CD8,#D8271C,0,10,0,38,1,2057.0999999940395,37,1,1240.899999976158,0,0,experiment,NA,NA,1,0.3,0.7,3,2,29,1,NA
fcp-trial,77,800742,0.0-38.0-0.0,voc_e2,12014,"[{""event"":""fullscreenenter"",""trial"":1,""time"":1152}]",NA,NA,NA,NA,NA,4,#D89F1C,#3386FF,0,10,0,38,1,1999.8999999761581,39,0,476.699999988079,10,1,experiment,NA,NA,0,0.1,0.9,1,0,30,1,NA
fcp-trial,78,807596,0.0-39.0-0.0,voc_e2,12014,"[{""event"":""fullscreenenter"",""trial"":1,""time"":1152}]",NA,NA,NA,NA,NA,2,#1CD855,#FA92F8,10,0,0,38,1,1989.2999999821186,37,1,3359,10,0,experiment,NA,NA,2,0.5,0.5,5,4,31,1,NA
fcp-trial,79,810960,0.0-40.0-0.0,voc_e2,12014,"[{""event"":""fullscreenenter"",""trial"":1,""time"":1152}]",NA,NA,NA,NA,NA,5,#FA92F8,#1CD855,0,0,1,40,0,1163.8999999761581,37,1,694.7000000178814,0,1,experiment,NA,NA,2,0.5,0.5,4,5,32,1,NA
fcp-trial,80,816060,0.0-41.0-0.0,voc_e2,12014,"[{""event"":""fullscreenenter"",""trial"":1,""time"":1152}]",NA,NA,NA,NA,NA,6,#D8271C,#741CD8,10,0,1,40,0,3003.9000000059605,37,1,589.8000000119209,10,1,experiment,NA,NA,1,0.7,0.3,2,3,33,1,NA
fcp-trial,81,823686,0.0-42.0-0.0,voc_e2,12014,"[{""event"":""fullscreenenter"",""trial"":1,""time"":1152}]",NA,NA,NA,NA,NA,2,#D8271C,#741CD8,10,0,1,40,0,5615.5,37,1,502.5,10,1,experiment,NA,NA,1,0.7,0.3,2,3,34,1,NA
fcp-trial,82,827014,0.0-43.0-0.0,voc_e2,12014,"[{""event"":""fullscreenenter"",""trial"":1,""time"":1152}]",NA,NA,NA,NA,NA,6,#3386FF,#D89F1C,10,0,1,40,0,1149.800000011921,37,1,671.8000000119209,10,1,experiment,NA,NA,0,0.9,0.1,0,1,35,1,NA
fcp-trial,83,830461,0.0-44.0-0.0,voc_e2,12014,"[{""event"":""fullscreenenter"",""trial"":1,""time"":1152}]",NA,NA,NA,NA,NA,5,#D89F1C,#3386FF,0,10,0,40,0,1371.699999988079,37,1,569.7000000178814,0,0,experiment,NA,NA,0,0.1,0.9,1,0,36,1,NA
fcp-trial,84,834869,0.0-45.0-0.0,voc_e2,12014,"[{""event"":""fullscreenenter"",""trial"":1,""time"":1152}]",NA,NA,NA,NA,NA,4,#1CD855,#FA92F8,10,10,0,40,0,2398.0999999940395,37,1,505.699999988079,10,0,experiment,NA,NA,2,0.5,0.5,5,4,37,1,NA
fcp-trial,85,837915,0.0-46.0-0.0,voc_e2,12014,"[{""event"":""fullscreenenter"",""trial"":1,""time"":1152}]",NA,NA,NA,NA,NA,1,#3386FF,#D89F1C,10,0,1,38,1,937.9000000059605,37,1,604.0999999940395,10,1,experiment,NA,NA,0,0.9,0.1,0,1,38,1,NA
fcp-trial,86,845688,0.0-47.0-0.0,voc_e2,12014,"[{""event"":""fullscreenenter"",""trial"":1,""time"":1152}]",NA,NA,NA,NA,NA,3,#D8271C,#741CD8,10,10,1,38,1,5757.5,37,1,510.90000000596046,10,1,experiment,NA,NA,1,0.7,0.3,2,3,39,1,NA
fcp-trial,87,849284,0.0-48.0-0.0,voc_e2,12014,"[{""event"":""fullscreenenter"",""trial"":1,""time"":1152}]",NA,NA,NA,NA,NA,2,#3386FF,#D89F1C,10,0,1,38,1,1612.800000011921,37,1,475.699999988079,10,1,experiment,NA,NA,0,0.9,0.1,0,1,40,1,NA
fcp-trial,88,853514,0.0-49.0-0.0,voc_e2,12014,"[{""event"":""fullscreenenter"",""trial"":1,""time"":1152}]",NA,NA,NA,NA,NA,1,#1CD855,#FA92F8,10,0,0,40,0,2201,37,1,524.2000000178814,10,0,experiment,NA,NA,2,0.5,0.5,5,4,41,1,NA
fcp-trial,89,858956,0.0-50.0-0.0,voc_e2,12014,"[{""event"":""fullscreenenter"",""trial"":1,""time"":1152}]",NA,NA,NA,NA,NA,1,#741CD8,#D8271C,0,10,0,40,0,3426,39,0,509.2000000178814,10,1,experiment,NA,NA,1,0.3,0.7,3,2,42,1,NA
fcp-trial,90,863167,0.0-51.0-0.0,voc_e2,12014,"[{""event"":""fullscreenenter"",""trial"":1,""time"":1152}]",NA,NA,NA,NA,NA,2,#FA92F8,#1CD855,10,0,1,40,0,2225.300000011921,39,0,481.40000000596046,0,0,experiment,NA,NA,2,0.5,0.5,4,5,43,1,NA
fcp-trial,91,867178,0.0-52.0-0.0,voc_e2,12014,"[{""event"":""fullscreenenter"",""trial"":1,""time"":1152}]",NA,NA,NA,NA,NA,0,#741CD8,#D8271C,0,0,0,38,1,1183.4000000059605,39,0,1321.9000000059605,0,1,experiment,NA,NA,1,0.3,0.7,3,2,44,1,NA
fcp-trial,92,870330,0.0-53.0-0.0,voc_e2,12014,"[{""event"":""fullscreenenter"",""trial"":1,""time"":1152}]",NA,NA,NA,NA,NA,6,#D8271C,#741CD8,10,10,1,40,0,1104.300000011921,39,0,541.7000000178814,10,0,experiment,NA,NA,1,0.7,0.3,2,3,45,1,NA
fcp-trial,93,873829,0.0-54.0-0.0,voc_e2,12014,"[{""event"":""fullscreenenter"",""trial"":1,""time"":1152}]",NA,NA,NA,NA,NA,2,#3386FF,#D89F1C,10,10,1,38,1,1470.199999988079,37,1,521.5999999940395,10,1,experiment,NA,NA,0,0.9,0.1,0,1,46,2,NA
fcp-trial,94,878204,0.0-55.0-0.0,voc_e2,12014,"[{""event"":""fullscreenenter"",""trial"":1,""time"":1152}]",NA,NA,NA,NA,NA,3,#D8271C,#741CD8,10,0,1,40,0,2425.0999999940395,37,1,443.40000000596046,10,1,experiment,NA,NA,1,0.7,0.3,2,3,47,2,NA
fcp-trial,95,881748,0.0-56.0-0.0,voc_e2,12014,"[{""event"":""fullscreenenter"",""trial"":1,""time"":1152}]",NA,NA,NA,NA,NA,5,#FA92F8,#1CD855,0,10,1,40,0,1439.699999988079,39,0,598.4000000059605,10,0,experiment,NA,NA,2,0.5,0.5,4,5,48,2,NA
fcp-trial,96,887100,0.0-57.0-0.0,voc_e2,12014,"[{""event"":""fullscreenenter"",""trial"":1,""time"":1152}]",NA,NA,NA,NA,NA,5,#D89F1C,#3386FF,0,10,0,40,0,3336.899999976158,39,0,511.2999999821186,10,1,experiment,NA,NA,0,0.1,0.9,1,0,49,2,NA
fcp-trial,97,893070,0.0-58.0-0.0,voc_e2,12014,"[{""event"":""fullscreenenter"",""trial"":1,""time"":1152}]",NA,NA,NA,NA,NA,1,#741CD8,#D8271C,0,0,0,38,1,2834.7000000178814,39,0,1630,0,1,experiment,NA,NA,1,0.3,0.7,3,2,50,2,NA
fcp-trial,98,897038,0.0-59.0-0.0,voc_e2,12014,"[{""event"":""fullscreenenter"",""trial"":1,""time"":1152}]",NA,NA,NA,NA,NA,0,#1CD855,#FA92F8,0,0,0,38,1,1640.199999988079,37,1,820.6000000238419,0,0,experiment,NA,NA,2,0.5,0.5,5,4,51,2,NA
fcp-trial,99,899848,0.0-60.0-0.0,voc_e2,12014,"[{""event"":""fullscreenenter"",""trial"":1,""time"":1152}]",NA,NA,NA,NA,NA,1,#3386FF,#D89F1C,10,0,1,38,1,804.5,37,1,500.90000000596046,10,1,experiment,NA,NA,0,0.9,0.1,0,1,52,2,NA
fcp-trial,100,903160,0.0-61.0-0.0,voc_e2,12014,"[{""event"":""fullscreenenter"",""trial"":1,""time"":1152}]",NA,NA,NA,NA,NA,4,#741CD8,#D8271C,0,10,0,40,0,1319.4000000059605,39,0,487.09999999403954,10,1,experiment,NA,NA,1,0.3,0.7,3,2,53,2,NA
fcp-trial,101,907827,0.0-62.0-0.0,voc_e2,12014,"[{""event"":""fullscreenenter"",""trial"":1,""time"":1152}]",NA,NA,NA,NA,NA,6,#FA92F8,#1CD855,0,10,1,40,0,2561.100000023842,37,1,598,0,1,experiment,NA,NA,2,0.5,0.5,4,5,54,2,NA
fcp-trial,102,910902,0.0-63.0-0.0,voc_e2,12014,"[{""event"":""fullscreenenter"",""trial"":1,""time"":1152}]",NA,NA,NA,NA,NA,4,#FA92F8,#1CD855,10,10,1,40,0,1101,37,1,467.40000000596046,10,1,experiment,NA,NA,2,0.5,0.5,4,5,55,2,NA
fcp-trial,103,914783,0.0-64.0-0.0,voc_e2,12014,"[{""event"":""fullscreenenter"",""trial"":1,""time"":1152}]",NA,NA,NA,NA,NA,1,#FA92F8,#1CD855,10,10,1,40,0,1917.4000000059605,37,1,457.800000011921,10,1,experiment,NA,NA,2,0.5,0.5,4,5,56,2,NA
fcp-trial,104,918270,0.0-65.0-0.0,voc_e2,12014,"[{""event"":""fullscreenenter"",""trial"":1,""time"":1152}]",NA,NA,NA,NA,NA,3,#D89F1C,#3386FF,0,10,0,38,1,1435,39,0,546.3999999761581,10,1,experiment,NA,NA,0,0.1,0.9,1,0,57,2,NA
fcp-trial,105,922042,0.0-66.0-0.0,voc_e2,12014,"[{""event"":""fullscreenenter"",""trial"":1,""time"":1152}]",NA,NA,NA,NA,NA,5,#741CD8,#D8271C,10,10,0,40,0,1815.800000011921,39,0,450.90000000596046,10,1,experiment,NA,NA,1,0.3,0.7,3,2,58,2,NA
fcp-trial,106,927136,0.0-67.0-0.0,voc_e2,12014,"[{""event"":""fullscreenenter"",""trial"":1,""time"":1152}]",NA,NA,NA,NA,NA,2,#D8271C,#741CD8,10,0,1,40,0,3034.300000011921,37,1,553.2000000178814,10,1,experiment,NA,NA,1,0.7,0.3,2,3,59,2,NA
fcp-trial,107,931170,0.0-68.0-0.0,voc_e2,12014,"[{""event"":""fullscreenenter"",""trial"":1,""time"":1152}]",NA,NA,NA,NA,NA,3,#FA92F8,#1CD855,0,0,1,40,0,2041.4000000059605,37,1,488.09999999403954,0,1,experiment,NA,NA,2,0.5,0.5,4,5,60,2,NA
fcp-trial,108,934519,0.0-69.0-0.0,voc_e2,12014,"[{""event"":""fullscreenenter"",""trial"":1,""time"":1152}]",NA,NA,NA,NA,NA,0,#D89F1C,#3386FF,0,10,0,38,1,1403.7999999821186,39,0,440.7999999821186,10,1,experiment,NA,NA,0,0.1,0.9,1,0,61,2,NA
fcp-trial,109,937985,0.0-70.0-0.0,voc_e2,12014,"[{""event"":""fullscreenenter"",""trial"":1,""time"":1152}]",NA,NA,NA,NA,NA,6,#3386FF,#D89F1C,10,0,1,40,0,1393.9000000059605,39,0,567.6999999880791,0,0,experiment,NA,NA,0,0.9,0.1,0,1,62,2,NA
fcp-trial,110,940906,0.0-71.0-0.0,voc_e2,12014,"[{""event"":""fullscreenenter"",""trial"":1,""time"":1152}]",NA,NA,NA,NA,NA,4,#3386FF,#D89F1C,10,0,1,38,1,1008.5,37,1,406.90000000596046,10,1,experiment,NA,NA,0,0.9,0.1,0,1,63,2,NA
fcp-trial,111,946850,0.0-72.0-0.0,voc_e2,12014,"[{""event"":""fullscreenenter"",""trial"":1,""time"":1152}]",NA,NA,NA,NA,NA,0,#1CD855,#FA92F8,10,10,0,38,1,2902,39,0,1534.7999999821186,10,1,experiment,NA,NA,2,0.5,0.5,5,4,64,2,NA
fcp-trial,112,950347,0.0-73.0-0.0,voc_e2,12014,"[{""event"":""fullscreenenter"",""trial"":1,""time"":1152}]",NA,NA,NA,NA,NA,5,#3386FF,#D89F1C,10,0,1,40,0,1397.800000011921,39,0,591.3999999761581,0,0,experiment,NA,NA,0,0.9,0.1,0,1,65,2,NA
fcp-trial,113,953955,0.0-74.0-0.0,voc_e2,12014,"[{""event"":""fullscreenenter"",""trial"":1,""time"":1152}]",NA,NA,NA,NA,NA,2,#1CD855,#FA92F8,10,10,0,40,0,1597.4000000059605,37,1,501.300000011921,10,0,experiment,NA,NA,2,0.5,0.5,5,4,66,2,NA
fcp-trial,114,957103,0.0-75.0-0.0,voc_e2,12014,"[{""event"":""fullscreenenter"",""trial"":1,""time"":1152}]",NA,NA,NA,NA,NA,6,#741CD8,#D8271C,0,10,0,40,0,1051.0999999940395,37,1,590.5999999940395,0,0,experiment,NA,NA,1,0.3,0.7,3,2,67,2,NA
fcp-trial,115,960026,0.0-76.0-0.0,voc_e2,12014,"[{""event"":""fullscreenenter"",""trial"":1,""time"":1152}]",NA,NA,NA,NA,NA,0,#3386FF,#D89F1C,10,0,1,38,1,924.8999999761581,37,1,492.59999999403954,10,1,experiment,NA,NA,0,0.9,0.1,0,1,68,2,NA
fcp-trial,116,965959,0.0-77.0-0.0,voc_e2,12014,"[{""event"":""fullscreenenter"",""trial"":1,""time"":1152}]",NA,NA,NA,NA,NA,1,#741CD8,#D8271C,0,10,0,38,1,2271.9000000059605,39,0,2153.699999988079,10,1,experiment,NA,NA,1,0.3,0.7,3,2,69,2,NA
fcp-trial,117,968719,0.0-78.0-0.0,voc_e2,12014,"[{""event"":""fullscreenenter"",""trial"":1,""time"":1152}]",NA,NA,NA,NA,NA,4,#3386FF,#D89F1C,10,0,1,38,1,852.4000000059605,37,1,403.199999988079,10,1,experiment,NA,NA,0,0.9,0.1,0,1,70,2,NA
fcp-trial,118,974246,0.0-79.0-0.0,voc_e2,12014,"[{""event"":""fullscreenenter"",""trial"":1,""time"":1152}]",NA,NA,NA,NA,NA,1,#1CD855,#FA92F8,10,0,0,40,0,3609.4000000059605,37,1,413.7000000178814,10,0,experiment,NA,NA,2,0.5,0.5,5,4,71,2,NA
fcp-trial,119,978816,0.0-80.0-0.0,voc_e2,12014,"[{""event"":""fullscreenenter"",""trial"":1,""time"":1152}]",NA,NA,NA,NA,NA,4,#741CD8,#D8271C,0,0,0,40,0,2549.7999999821186,39,0,513.6999999880791,0,1,experiment,NA,NA,1,0.3,0.7,3,2,72,2,NA
fcp-trial,120,981891,0.0-81.0-0.0,voc_e2,12014,"[{""event"":""fullscreenenter"",""trial"":1,""time"":1152}]",NA,NA,NA,NA,NA,4,#FA92F8,#1CD855,10,0,1,40,0,1113.800000011921,37,1,454.7000000178814,10,1,experiment,NA,NA,2,0.5,0.5,4,5,73,2,NA
fcp-trial,121,984652,0.0-82.0-0.0,voc_e2,12014,"[{""event"":""fullscreenenter"",""trial"":1,""time"":1152}]",NA,NA,NA,NA,NA,1,#3386FF,#D89F1C,10,10,1,38,1,798.5,37,1,456.59999999403954,10,1,experiment,NA,NA,0,0.9,0.1,0,1,74,2,NA
fcp-trial,122,988423,0.0-83.0-0.0,voc_e2,12014,"[{""event"":""fullscreenenter"",""trial"":1,""time"":1152}]",NA,NA,NA,NA,NA,5,#741CD8,#D8271C,0,10,0,40,0,1818.4000000059605,39,0,445.2000000178814,10,1,experiment,NA,NA,1,0.3,0.7,3,2,75,2,NA
fcp-trial,123,991257,0.0-84.0-0.0,voc_e2,12014,"[{""event"":""fullscreenenter"",""trial"":1,""time"":1152}]",NA,NA,NA,NA,NA,6,#1CD855,#FA92F8,10,10,0,40,0,879.0999999940395,39,0,449.2999999821186,10,1,experiment,NA,NA,2,0.5,0.5,5,4,76,2,NA
fcp-trial,124,994993,0.0-85.0-0.0,voc_e2,12014,"[{""event"":""fullscreenenter"",""trial"":1,""time"":1152}]",NA,NA,NA,NA,NA,2,#D8271C,#741CD8,10,0,1,38,1,1187,37,1,1045.0999999940395,10,1,experiment,NA,NA,1,0.7,0.3,2,3,77,2,NA
fcp-trial,125,998529,0.0-86.0-0.0,voc_e2,12014,"[{""event"":""fullscreenenter"",""trial"":1,""time"":1152}]",NA,NA,NA,NA,NA,0,#741CD8,#D8271C,0,10,0,38,1,1285.0999999940395,39,0,745.8000000119209,10,1,experiment,NA,NA,1,0.3,0.7,3,2,78,2,NA
fcp-trial,126,1001640,0.0-87.0-0.0,voc_e2,12014,"[{""event"":""fullscreenenter"",""trial"":1,""time"":1152}]",NA,NA,NA,NA,NA,2,#D89F1C,#3386FF,0,10,0,38,1,919.8000000119209,39,0,686.5999999940395,10,1,experiment,NA,NA,0,0.1,0.9,1,0,79,2,NA
fcp-trial,127,1006471,0.0-88.0-0.0,voc_e2,12014,"[{""event"":""fullscreenenter"",""trial"":1,""time"":1152}]",NA,NA,NA,NA,NA,3,#741CD8,#D8271C,0,0,0,40,0,2753.9000000059605,37,1,573.4000000059605,0,0,experiment,NA,NA,1,0.3,0.7,3,2,80,2,NA
fcp-trial,128,1009550,0.0-89.0-0.0,voc_e2,12014,"[{""event"":""fullscreenenter"",""trial"":1,""time"":1152}]",NA,NA,NA,NA,NA,3,#1CD855,#FA92F8,10,0,0,40,0,1081,37,1,492.40000000596046,10,0,experiment,NA,NA,2,0.5,0.5,5,4,81,2,NA
fcp-trial,129,1012439,0.0-90.0-0.0,voc_e2,12014,"[{""event"":""fullscreenenter"",""trial"":1,""time"":1152}]",NA,NA,NA,NA,NA,5,#1CD855,#FA92F8,0,10,0,40,0,890.3000000119209,37,1,493.40000000596046,0,0,experiment,NA,NA,2,0.5,0.5,5,4,82,2,NA
fcp-trial,130,1015326,0.0-91.0-0.0,voc_e2,12014,"[{""event"":""fullscreenenter"",""trial"":1,""time"":1152}]",NA,NA,NA,NA,NA,3,#3386FF,#D89F1C,10,10,1,38,1,883.5,37,1,498.2999999821186,10,1,experiment,NA,NA,0,0.9,0.1,0,1,83,2,NA
fcp-trial,131,1018601,0.0-92.0-0.0,voc_e2,12014,"[{""event"":""fullscreenenter"",""trial"":1,""time"":1152}]",NA,NA,NA,NA,NA,6,#3386FF,#D89F1C,10,0,1,40,0,1225.699999988079,37,1,542.4000000059605,10,1,experiment,NA,NA,0,0.9,0.1,0,1,84,2,NA
fcp-trial,132,1022013,0.0-93.0-0.0,voc_e2,12014,"[{""event"":""fullscreenenter"",""trial"":1,""time"":1152}]",NA,NA,NA,NA,NA,4,#741CD8,#D8271C,10,10,0,40,0,1433,39,0,467.7000000178814,10,1,experiment,NA,NA,1,0.3,0.7,3,2,85,2,NA
fcp-trial,133,1025545,0.0-94.0-0.0,voc_e2,12014,"[{""event"":""fullscreenenter"",""trial"":1,""time"":1152}]",NA,NA,NA,NA,NA,3,#1CD855,#FA92F8,10,0,0,38,1,1041.2999999821186,39,0,983.4000000059604,0,1,experiment,NA,NA,2,0.5,0.5,5,4,86,2,NA
fcp-trial,134,1030519,0.0-95.0-0.0,voc_e2,12014,"[{""event"":""fullscreenenter"",""trial"":1,""time"":1152}]",NA,NA,NA,NA,NA,4,#D89F1C,#3386FF,0,10,0,38,1,2690.800000011921,39,0,774,10,1,experiment,NA,NA,0,0.1,0.9,1,0,87,2,NA
fcp-trial,135,1033765,0.0-96.0-0.0,voc_e2,12014,"[{""event"":""fullscreenenter"",""trial"":1,""time"":1152}]",NA,NA,NA,NA,NA,6,#D89F1C,#3386FF,0,10,0,40,0,1158.199999988079,39,0,579.4000000059605,10,1,experiment,NA,NA,0,0.1,0.9,1,0,88,2,NA
fcp-trial,136,1037786,0.0-97.0-0.0,voc_e2,12014,"[{""event"":""fullscreenenter"",""trial"":1,""time"":1152}]",NA,NA,NA,NA,NA,1,#741CD8,#D8271C,10,10,0,38,1,1154.0999999940395,39,0,1358.100000023842,10,1,experiment,NA,NA,1,0.3,0.7,3,2,89,2,NA
fcp-trial,137,1041868,0.0-98.0-0.0,voc_e2,12014,"[{""event"":""fullscreenenter"",""trial"":1,""time"":1152}]",NA,NA,NA,NA,NA,0,#1CD855,#FA92F8,10,0,0,38,1,1667.199999988079,39,0,903,0,1,experiment,NA,NA,2,0.5,0.5,5,4,90,2,NA
fcp-trial,138,1045192,0.0-99.0-0.0,voc_e2,12014,"[{""event"":""fullscreenenter"",""trial"":1,""time"":1152}]",NA,NA,NA,NA,NA,3,#D8271C,#741CD8,0,0,1,40,0,1337,37,1,479.5,0,1,experiment,NA,NA,1,0.7,0.3,2,3,91,3,NA
fcp-trial,139,1048386,0.0-100.0-0.0,voc_e2,12014,"[{""event"":""fullscreenenter"",""trial"":1,""time"":1152}]",NA,NA,NA,NA,NA,4,#1CD855,#FA92F8,0,0,0,40,0,1147.8999999761581,39,0,537.9000000059605,0,1,experiment,NA,NA,2,0.5,0.5,5,4,92,3,NA
fcp-trial,140,1051708,0.0-101.0-0.0,voc_e2,12014,"[{""event"":""fullscreenenter"",""trial"":1,""time"":1152}]",NA,NA,NA,NA,NA,2,#3386FF,#D89F1C,10,0,1,38,1,1229.7999999821186,37,1,581.8999999761581,10,1,experiment,NA,NA,0,0.9,0.1,0,1,93,3,NA
fcp-trial,141,1055135,0.0-102.0-0.0,voc_e2,12014,"[{""event"":""fullscreenenter"",""trial"":1,""time"":1152}]",NA,NA,NA,NA,NA,1,#3386FF,#D89F1C,10,0,1,38,1,1462.199999988079,37,1,454.7000000178814,10,1,experiment,NA,NA,0,0.9,0.1,0,1,94,3,NA
fcp-trial,142,1058743,0.0-103.0-0.0,voc_e2,12014,"[{""event"":""fullscreenenter"",""trial"":1,""time"":1152}]",NA,NA,NA,NA,NA,1,#1CD855,#FA92F8,0,10,0,40,0,1612.699999988079,37,1,488.300000011921,0,0,experiment,NA,NA,2,0.5,0.5,5,4,95,3,NA
fcp-trial,143,1063110,0.0-104.0-0.0,voc_e2,12014,"[{""event"":""fullscreenenter"",""trial"":1,""time"":1152}]",NA,NA,NA,NA,NA,2,#D8271C,#741CD8,10,0,1,38,1,2379,37,1,479.5,10,1,experiment,NA,NA,1,0.7,0.3,2,3,96,3,NA
fcp-trial,144,1067009,0.0-105.0-0.0,voc_e2,12014,"[{""event"":""fullscreenenter"",""trial"":1,""time"":1152}]",NA,NA,NA,NA,NA,2,#FA92F8,#1CD855,10,0,1,40,0,1766.800000011921,37,1,624,10,1,experiment,NA,NA,2,0.5,0.5,4,5,97,3,NA
fcp-trial,145,1070854,0.0-106.0-0.0,voc_e2,12014,"[{""event"":""fullscreenenter"",""trial"":1,""time"":1152}]",NA,NA,NA,NA,NA,5,#D89F1C,#3386FF,0,10,0,40,0,1814.7999999821186,37,1,522.5,0,0,experiment,NA,NA,0,0.1,0.9,1,0,98,3,NA
fcp-trial,146,1074110,0.0-107.0-0.0,voc_e2,12014,"[{""event"":""fullscreenenter"",""trial"":1,""time"":1152}]",NA,NA,NA,NA,NA,6,#1CD855,#FA92F8,10,0,0,40,0,1239.800000011921,39,0,507.5,0,1,experiment,NA,NA,2,0.5,0.5,5,4,99,3,NA
fcp-trial,147,1077871,0.0-108.0-0.0,voc_e2,12014,"[{""event"":""fullscreenenter"",""trial"":1,""time"":1152}]",NA,NA,NA,NA,NA,0,#741CD8,#D8271C,10,10,0,38,1,985.5,39,0,1262.7000000178814,10,1,experiment,NA,NA,1,0.3,0.7,3,2,100,3,NA
fcp-trial,148,1081606,0.0-109.0-0.0,voc_e2,12014,"[{""event"":""fullscreenenter"",""trial"":1,""time"":1152}]",NA,NA,NA,NA,NA,6,#D8271C,#741CD8,10,10,1,40,0,1613.8999999761581,39,0,609.0999999940395,10,0,experiment,NA,NA,1,0.7,0.3,2,3,101,3,NA
fcp-trial,149,1084675,0.0-110.0-0.0,voc_e2,12014,"[{""event"":""fullscreenenter"",""trial"":1,""time"":1152}]",NA,NA,NA,NA,NA,5,#FA92F8,#1CD855,0,0,1,40,0,1018.5,39,0,539.9000000059605,0,0,experiment,NA,NA,2,0.5,0.5,4,5,102,3,NA
fcp-trial,150,1087656,0.0-111.0-0.0,voc_e2,12014,"[{""event"":""fullscreenenter"",""trial"":1,""time"":1152}]",NA,NA,NA,NA,NA,3,#D89F1C,#3386FF,10,10,0,38,1,908.1000000238419,39,0,562.1999999880791,10,1,experiment,NA,NA,0,0.1,0.9,1,0,103,3,NA
fcp-trial,151,1090381,0.0-112.0-0.0,voc_e2,12014,"[{""event"":""fullscreenenter"",""trial"":1,""time"":1152}]",NA,NA,NA,NA,NA,0,#3386FF,#D89F1C,10,0,1,38,1,763,37,1,451.800000011921,10,1,experiment,NA,NA,0,0.9,0.1,0,1,104,3,NA
fcp-trial,152,1093724,0.0-113.0-0.0,voc_e2,12014,"[{""event"":""fullscreenenter"",""trial"":1,""time"":1152}]",NA,NA,NA,NA,NA,5,#741CD8,#D8271C,0,10,0,40,0,1314.699999988079,39,0,521.6999999880791,10,1,experiment,NA,NA,1,0.3,0.7,3,2,105,3,NA
audio-instructions,153,1306057,0.0-114.0,voc_e2,12014,"[{""event"":""fullscreenenter"",""trial"":1,""time"":1152}]",NA,207605,static/audio/pause.wav,NA,0,NA,NA,NA,NA,NA,NA,NA,NA,NA,NA,NA,NA,NA,NA,NA,NA,NA,NA,NA,NA,NA,NA,NA,NA,NA
fcp-trial,154,1310072,0.0-115.0-0.0,voc_e2,12014,"[{""event"":""fullscreenenter"",""trial"":1,""time"":1152}]",NA,NA,NA,NA,NA,2,#FA92F8,#1CD855,10,10,1,40,0,2104.199999988079,39,0,404,10,0,experiment,NA,NA,2,0.5,0.5,4,5,106,3,NA
fcp-trial,155,1313094,0.0-116.0-0.0,voc_e2,12014,"[{""event"":""fullscreenenter"",""trial"":1,""time"":1152}]",NA,NA,NA,NA,NA,5,#741CD8,#D8271C,0,0,0,40,0,1056.5,37,1,451.5,0,0,experiment,NA,NA,1,0.3,0.7,3,2,107,3,NA
fcp-trial,156,1315686,0.0-117.0-0.0,voc_e2,12014,"[{""event"":""fullscreenenter"",""trial"":1,""time"":1152}]",NA,NA,NA,NA,NA,1,#D89F1C,#3386FF,0,10,0,38,1,736.7000000178814,39,0,348.90000000596046,10,1,experiment,NA,NA,0,0.1,0.9,1,0,108,3,NA
fcp-trial,157,1320780,0.0-118.0-0.0,voc_e2,12014,"[{""event"":""fullscreenenter"",""trial"":1,""time"":1152}]",NA,NA,NA,NA,NA,0,#1CD855,#FA92F8,10,0,0,38,1,1143.2999999821186,39,0,2442.300000011921,0,1,experiment,NA,NA,2,0.5,0.5,5,4,109,3,NA
fcp-trial,158,1324495,0.0-119.0-0.0,voc_e2,12014,"[{""event"":""fullscreenenter"",""trial"":1,""time"":1152}]",NA,NA,NA,NA,NA,6,#3386FF,#D89F1C,10,10,1,40,0,1737.199999988079,37,1,470.199999988079,10,1,experiment,NA,NA,0,0.9,0.1,0,1,110,3,NA
fcp-trial,159,1328067,0.0-120.0-0.0,voc_e2,12014,"[{""event"":""fullscreenenter"",""trial"":1,""time"":1152}]",NA,NA,NA,NA,NA,3,#741CD8,#D8271C,0,10,0,38,1,1220,39,0,843.5999999940395,10,1,experiment,NA,NA,1,0.3,0.7,3,2,111,3,NA
fcp-trial,160,1330828,0.0-121.0-0.0,voc_e2,12014,"[{""event"":""fullscreenenter"",""trial"":1,""time"":1152}]",NA,NA,NA,NA,NA,1,#741CD8,#D8271C,0,10,0,38,1,881,39,0,372.40000000596046,10,1,experiment,NA,NA,1,0.3,0.7,3,2,112,3,NA
fcp-trial,161,1333363,0.0-122.0-0.0,voc_e2,12014,"[{""event"":""fullscreenenter"",""trial"":1,""time"":1152}]",NA,NA,NA,NA,NA,5,#3386FF,#D89F1C,10,0,1,38,1,609.8000000119209,37,1,415.90000000596046,10,1,experiment,NA,NA,0,0.9,0.1,0,1,113,3,NA
fcp-trial,162,1336711,0.0-123.0-0.0,voc_e2,12014,"[{""event"":""fullscreenenter"",""trial"":1,""time"":1152}]",NA,NA,NA,NA,NA,5,#1CD855,#FA92F8,10,0,0,40,0,1402.3999999761581,39,0,438,0,1,experiment,NA,NA,2,0.5,0.5,5,4,114,3,NA
fcp-trial,163,1340515,0.0-124.0-0.0,voc_e2,12014,"[{""event"":""fullscreenenter"",""trial"":1,""time"":1152}]",NA,NA,NA,NA,NA,1,#1CD855,#FA92F8,0,10,0,40,0,1646.300000011921,39,0,649.3000000119209,10,1,experiment,NA,NA,2,0.5,0.5,5,4,115,3,NA
fcp-trial,164,1343367,0.0-125.0-0.0,voc_e2,12014,"[{""event"":""fullscreenenter"",""trial"":1,""time"":1152}]",NA,NA,NA,NA,NA,2,#3386FF,#D89F1C,10,0,1,38,1,932.5999999940395,37,1,401.2000000178814,10,1,experiment,NA,NA,0,0.9,0.1,0,1,116,3,NA
fcp-trial,165,1346401,0.0-126.0-0.0,voc_e2,12014,"[{""event"":""fullscreenenter"",""trial"":1,""time"":1152}]",NA,NA,NA,NA,NA,6,#741CD8,#D8271C,0,10,0,40,0,1061.5999999940395,39,0,465.60000002384186,10,1,experiment,NA,NA,1,0.3,0.7,3,2,117,3,NA
fcp-trial,166,1349570,0.0-127.0-0.0,voc_e2,12014,"[{""event"":""fullscreenenter"",""trial"":1,""time"":1152}]",NA,NA,NA,NA,NA,0,#D89F1C,#3386FF,0,10,0,38,1,1189,39,0,471.2999999821186,10,1,experiment,NA,NA,0,0.1,0.9,1,0,118,3,NA
fcp-trial,167,1352738,0.0-128.0-0.0,voc_e2,12014,"[{""event"":""fullscreenenter"",""trial"":1,""time"":1152}]",NA,NA,NA,NA,NA,4,#3386FF,#D89F1C,10,10,1,40,0,1235.1000000238419,37,1,424.5,10,1,experiment,NA,NA,0,0.9,0.1,0,1,119,3,NA
fcp-trial,168,1355847,0.0-129.0-0.0,voc_e2,12014,"[{""event"":""fullscreenenter"",""trial"":1,""time"":1152}]",NA,NA,NA,NA,NA,6,#1CD855,#FA92F8,10,0,0,40,0,952.7999999821186,39,0,648.4000000059605,0,1,experiment,NA,NA,2,0.5,0.5,5,4,120,3,NA
fcp-trial,169,1359453,0.0-130.0-0.0,voc_e2,12014,"[{""event"":""fullscreenenter"",""trial"":1,""time"":1152}]",NA,NA,NA,NA,NA,3,#1CD855,#FA92F8,10,0,0,40,0,1680.4000000059605,37,1,417.5,10,0,experiment,NA,NA,2,0.5,0.5,5,4,121,3,NA
fcp-trial,170,1362987,0.0-131.0-0.0,voc_e2,12014,"[{""event"":""fullscreenenter"",""trial"":1,""time"":1152}]",NA,NA,NA,NA,NA,4,#D8271C,#741CD8,10,10,1,40,0,1535.699999988079,39,0,489.09999999403954,10,0,experiment,NA,NA,1,0.7,0.3,2,3,122,3,NA
fcp-trial,171,1366240,0.0-132.0-0.0,voc_e2,12014,"[{""event"":""fullscreenenter"",""trial"":1,""time"":1152}]",NA,NA,NA,NA,NA,2,#D8271C,#741CD8,0,10,1,38,1,1379.699999988079,37,1,366.5,0,1,experiment,NA,NA,1,0.7,0.3,2,3,123,3,NA
fcp-trial,172,1368924,0.0-133.0-0.0,voc_e2,12014,"[{""event"":""fullscreenenter"",""trial"":1,""time"":1152}]",NA,NA,NA,NA,NA,3,#3386FF,#D89F1C,10,10,1,38,1,841.5,37,1,334.40000000596046,10,1,experiment,NA,NA,0,0.9,0.1,0,1,124,3,NA
fcp-trial,173,1371984,0.0-134.0-0.0,voc_e2,12014,"[{""event"":""fullscreenenter"",""trial"":1,""time"":1152}]",NA,NA,NA,NA,NA,4,#FA92F8,#1CD855,0,0,1,40,0,1199.2000000178814,39,0,350.5,0,0,experiment,NA,NA,2,0.5,0.5,4,5,125,3,NA
fcp-trial,174,1375417,0.0-135.0-0.0,voc_e2,12014,"[{""event"":""fullscreenenter"",""trial"":1,""time"":1152}]",NA,NA,NA,NA,NA,0,#741CD8,#D8271C,10,0,0,38,1,1109.7999999821186,39,0,817,0,1,experiment,NA,NA,1,0.3,0.7,3,2,126,3,NA
fcp-trial,175,1378397,0.0-136.0-0.0,voc_e2,12014,"[{""event"":""fullscreenenter"",""trial"":1,""time"":1152}]",NA,NA,NA,NA,NA,4,#1CD855,#FA92F8,0,0,0,40,0,1102.5999999940395,39,0,370.59999999403954,0,1,experiment,NA,NA,2,0.5,0.5,5,4,127,3,NA
fcp-trial,176,1381270,0.0-137.0-0.0,voc_e2,12014,"[{""event"":""fullscreenenter"",""trial"":1,""time"":1152}]",NA,NA,NA,NA,NA,6,#1CD855,#FA92F8,10,0,0,40,0,904.7999999821186,37,1,460,10,0,experiment,NA,NA,2,0.5,0.5,5,4,128,3,NA
fcp-trial,177,1384466,0.0-138.0-0.0,voc_e2,12014,"[{""event"":""fullscreenenter"",""trial"":1,""time"":1152}]",NA,NA,NA,NA,NA,6,#3386FF,#D89F1C,10,0,1,40,0,1139.4000000059605,39,0,548.0999999940395,0,0,experiment,NA,NA,0,0.9,0.1,0,1,129,3,NA
fcp-trial,178,1387426,0.0-139.0-0.0,voc_e2,12014,"[{""event"":""fullscreenenter"",""trial"":1,""time"":1152}]",NA,NA,NA,NA,NA,4,#D8271C,#741CD8,0,0,1,38,1,981,39,0,471.199999988079,0,0,experiment,NA,NA,1,0.7,0.3,2,3,130,3,NA
fcp-trial,179,1391109,0.0-140.0-0.0,voc_e2,12014,"[{""event"":""fullscreenenter"",""trial"":1,""time"":1152}]",NA,NA,NA,NA,NA,6,#741CD8,#D8271C,0,10,0,40,0,1005.1999999880791,37,1,1164.7000000178814,0,0,experiment,NA,NA,1,0.3,0.7,3,2,131,3,NA
fcp-trial,180,1395357,0.0-141.0-0.0,voc_e2,12014,"[{""event"":""fullscreenenter"",""trial"":1,""time"":1152}]",NA,NA,NA,NA,NA,2,#FA92F8,#1CD855,10,10,1,40,0,2169.9000000059605,37,1,571.4000000059605,10,1,experiment,NA,NA,2,0.5,0.5,4,5,132,3,NA
fcp-trial,181,1397885,0.0-142.0-0.0,voc_e2,12014,"[{""event"":""fullscreenenter"",""trial"":1,""time"":1152}]",NA,NA,NA,NA,NA,1,#3386FF,#D89F1C,0,10,1,38,1,667.5999999940395,37,1,351.5,0,1,experiment,NA,NA,0,0.9,0.1,0,1,133,3,NA
fcp-trial,182,1403025,0.0-143.0-0.0,voc_e2,12014,"[{""event"":""fullscreenenter"",""trial"":1,""time"":1152}]",NA,NA,NA,NA,NA,1,#741CD8,#D8271C,0,10,0,40,0,3214.5999999940395,39,0,419.40000000596046,10,1,experiment,NA,NA,1,0.3,0.7,3,2,134,3,NA
fcp-trial,183,1408432,0.0-144.0-0.0,voc_e2,12014,"[{""event"":""fullscreenenter"",""trial"":1,""time"":1152}]",NA,NA,NA,NA,NA,1,#1CD855,#FA92F8,0,0,0,40,0,3441.5999999940395,39,0,457.5,0,1,experiment,NA,NA,2,0.5,0.5,5,4,135,3,NA
fcp-trial,184,1413586,0.0-145.0-0.0,voc_e2,12014,"[{""event"":""fullscreenenter"",""trial"":1,""time"":1152}]",NA,NA,NA,NA,NA,3,#741CD8,#D8271C,10,0,0,38,1,3337.5,39,0,309.30000001192093,0,1,experiment,NA,NA,1,0.3,0.7,3,2,136,4,NA
fcp-trial,185,1417220,0.0-146.0-0.0,voc_e2,12014,"[{""event"":""fullscreenenter"",""trial"":1,""time"":1152}]",NA,NA,NA,NA,NA,4,#D89F1C,#3386FF,0,10,0,38,1,1842.6000000238419,39,0,285.69999998807907,10,1,experiment,NA,NA,0,0.1,0.9,1,0,137,4,NA
fcp-trial,186,1420471,0.0-147.0-0.0,voc_e2,12014,"[{""event"":""fullscreenenter"",""trial"":1,""time"":1152}]",NA,NA,NA,NA,NA,5,#741CD8,#D8271C,10,10,0,40,0,1224,39,0,522.2999999821186,10,1,experiment,NA,NA,1,0.3,0.7,3,2,138,4,NA
fcp-trial,187,1424067,0.0-148.0-0.0,voc_e2,12014,"[{""event"":""fullscreenenter"",""trial"":1,""time"":1152}]",NA,NA,NA,NA,NA,3,#FA92F8,#1CD855,10,10,1,40,0,1701.800000011921,39,0,389.90000000596046,10,0,experiment,NA,NA,2,0.5,0.5,4,5,139,4,NA
fcp-trial,188,1427017,0.0-149.0-0.0,voc_e2,12014,"[{""event"":""fullscreenenter"",""trial"":1,""time"":1152}]",NA,NA,NA,NA,NA,5,#D89F1C,#3386FF,0,10,0,40,0,967.7000000178814,39,0,475.5,10,1,experiment,NA,NA,0,0.1,0.9,1,0,140,4,NA
fcp-trial,189,1431505,0.0-150.0-0.0,voc_e2,12014,"[{""event"":""fullscreenenter"",""trial"":1,""time"":1152}]",NA,NA,NA,NA,NA,2,#741CD8,#D8271C,10,0,0,38,1,1304.5999999940395,39,0,1677.9000000059605,0,1,experiment,NA,NA,1,0.3,0.7,3,2,141,4,NA
fcp-trial,190,1434680,0.0-151.0-0.0,voc_e2,12014,"[{""event"":""fullscreenenter"",""trial"":1,""time"":1152}]",NA,NA,NA,NA,NA,0,#3386FF,#D89F1C,10,10,1,38,1,1354.699999988079,37,1,314.59999999403954,10,1,experiment,NA,NA,0,0.9,0.1,0,1,142,4,NA
fcp-trial,191,1438630,0.0-152.0-0.0,voc_e2,12014,"[{""event"":""fullscreenenter"",""trial"":1,""time"":1152}]",NA,NA,NA,NA,NA,0,#1CD855,#FA92F8,0,0,0,38,1,1952.4000000059605,37,1,490.40000000596046,0,0,experiment,NA,NA,2,0.5,0.5,5,4,143,4,NA
fcp-trial,192,1441604,0.0-153.0-0.0,voc_e2,12014,"[{""event"":""fullscreenenter"",""trial"":1,""time"":1152}]",NA,NA,NA,NA,NA,2,#3386FF,#D89F1C,10,0,1,38,1,791.7000000178814,37,1,677.5,10,1,experiment,NA,NA,0,0.9,0.1,0,1,144,4,NA
fcp-trial,193,1444761,0.0-154.0-0.0,voc_e2,12014,"[{""event"":""fullscreenenter"",""trial"":1,""time"":1152}]",NA,NA,NA,NA,NA,0,#D8271C,#741CD8,10,0,1,38,1,1213.5,37,1,438.7000000178814,10,1,experiment,NA,NA,1,0.7,0.3,2,3,145,4,NA
fcp-trial,194,1447670,0.0-155.0-0.0,voc_e2,12014,"[{""event"":""fullscreenenter"",""trial"":1,""time"":1152}]",NA,NA,NA,NA,NA,5,#1CD855,#FA92F8,0,0,0,40,0,1015.6999999880791,37,1,386.2999999821186,0,0,experiment,NA,NA,2,0.5,0.5,5,4,146,4,NA
fcp-trial,195,1451256,0.0-156.0-0.0,voc_e2,12014,"[{""event"":""fullscreenenter"",""trial"":1,""time"":1152}]",NA,NA,NA,NA,NA,3,#D89F1C,#3386FF,0,10,0,38,1,1725.800000011921,39,0,355.30000001192093,10,1,experiment,NA,NA,0,0.1,0.9,1,0,147,4,NA
fcp-trial,196,1455603,0.0-157.0-0.0,voc_e2,12014,"[{""event"":""fullscreenenter"",""trial"":1,""time"":1152}]",NA,NA,NA,NA,NA,1,#741CD8,#D8271C,0,0,0,40,0,2459.899999976158,39,0,380.7999999821186,0,1,experiment,NA,NA,1,0.3,0.7,3,2,148,4,NA
fcp-trial,197,1459361,0.0-158.0-0.0,voc_e2,12014,"[{""event"":""fullscreenenter"",""trial"":1,""time"":1152}]",NA,NA,NA,NA,NA,4,#741CD8,#D8271C,10,10,0,40,0,1795.4000000059605,39,0,455.800000011921,10,1,experiment,NA,NA,1,0.3,0.7,3,2,149,4,NA
fcp-trial,198,1462319,0.0-159.0-0.0,voc_e2,12014,"[{""event"":""fullscreenenter"",""trial"":1,""time"":1152}]",NA,NA,NA,NA,NA,3,#D89F1C,#3386FF,10,10,0,38,1,1055.800000011921,39,0,394.800000011921,10,1,experiment,NA,NA,0,0.1,0.9,1,0,150,4,NA
fcp-trial,199,1465464,0.0-160.0-0.0,voc_e2,12014,"[{""event"":""fullscreenenter"",""trial"":1,""time"":1152}]",NA,NA,NA,NA,NA,6,#3386FF,#D89F1C,10,0,1,40,0,1112,37,1,524,10,1,experiment,NA,NA,0,0.9,0.1,0,1,151,4,NA
fcp-trial,200,1469173,0.0-161.0-0.0,voc_e2,12014,"[{""event"":""fullscreenenter"",""trial"":1,""time"":1152}]",NA,NA,NA,NA,NA,4,#1CD855,#FA92F8,10,0,0,40,0,1726.300000011921,37,1,473.800000011921,10,0,experiment,NA,NA,2,0.5,0.5,5,4,152,4,NA
fcp-trial,201,1472126,0.0-162.0-0.0,voc_e2,12014,"[{""event"":""fullscreenenter"",""trial"":1,""time"":1152}]",NA,NA,NA,NA,NA,3,#741CD8,#D8271C,0,10,0,40,0,939,39,0,506.7000000178814,10,1,experiment,NA,NA,1,0.3,0.7,3,2,153,4,NA
fcp-trial,202,1474959,0.0-163.0-0.0,voc_e2,12014,"[{""event"":""fullscreenenter"",""trial"":1,""time"":1152}]",NA,NA,NA,NA,NA,5,#1CD855,#FA92F8,0,10,0,40,0,788.4000000059605,39,0,538,10,1,experiment,NA,NA,2,0.5,0.5,5,4,154,4,NA
fcp-trial,203,1477763,0.0-164.0-0.0,voc_e2,12014,"[{""event"":""fullscreenenter"",""trial"":1,""time"":1152}]",NA,NA,NA,NA,NA,3,#1CD855,#FA92F8,0,0,0,40,0,886.5,37,1,410.5,0,0,experiment,NA,NA,2,0.5,0.5,5,4,155,4,NA
fcp-trial,204,1480458,0.0-165.0-0.0,voc_e2,12014,"[{""event"":""fullscreenenter"",""trial"":1,""time"":1152}]",NA,NA,NA,NA,NA,0,#3386FF,#D89F1C,10,10,1,38,1,823.9000000059605,37,1,363.699999988079,10,1,experiment,NA,NA,0,0.9,0.1,0,1,156,4,NA
fcp-trial,205,1483767,0.0-166.0-0.0,voc_e2,12014,"[{""event"":""fullscreenenter"",""trial"":1,""time"":1152}]",NA,NA,NA,NA,NA,0,#D8271C,#741CD8,10,0,1,38,1,1440.0999999940395,37,1,361.5,10,1,experiment,NA,NA,1,0.7,0.3,2,3,157,4,NA
fcp-trial,206,1490129,0.0-167.0-0.0,voc_e2,12014,"[{""event"":""fullscreenenter"",""trial"":1,""time"":1152}]",NA,NA,NA,NA,NA,1,#FA92F8,#1CD855,0,0,1,40,0,4494,39,0,356.40000000596046,0,0,experiment,NA,NA,2,0.5,0.5,4,5,158,4,NA
fcp-trial,207,1493666,0.0-168.0-0.0,voc_e2,12014,"[{""event"":""fullscreenenter"",""trial"":1,""time"":1152}]",NA,NA,NA,NA,NA,5,#3386FF,#D89F1C,10,0,1,40,0,1562.699999988079,37,1,466.40000000596046,10,1,experiment,NA,NA,0,0.9,0.1,0,1,159,4,NA
fcp-trial,208,1496904,0.0-169.0-0.0,voc_e2,12014,"[{""event"":""fullscreenenter"",""trial"":1,""time"":1152}]",NA,NA,NA,NA,NA,0,#FA92F8,#1CD855,0,0,1,38,1,885.4000000059605,39,0,843.2999999821186,0,0,experiment,NA,NA,2,0.5,0.5,4,5,160,4,NA
fcp-trial,209,1499824,0.0-170.0-0.0,voc_e2,12014,"[{""event"":""fullscreenenter"",""trial"":1,""time"":1152}]",NA,NA,NA,NA,NA,5,#741CD8,#D8271C,10,10,0,40,0,934.9000000059605,39,0,475.40000000596046,10,1,experiment,NA,NA,1,0.3,0.7,3,2,161,4,NA
fcp-trial,210,1502590,0.0-171.0-0.0,voc_e2,12014,"[{""event"":""fullscreenenter"",""trial"":1,""time"":1152}]",NA,NA,NA,NA,NA,6,#1CD855,#FA92F8,10,10,0,40,0,892.4000000059605,37,1,366.40000000596046,10,0,experiment,NA,NA,2,0.5,0.5,5,4,162,4,NA
fcp-trial,211,1505301,0.0-172.0-0.0,voc_e2,12014,"[{""event"":""fullscreenenter"",""trial"":1,""time"":1152}]",NA,NA,NA,NA,NA,2,#3386FF,#D89F1C,10,0,1,38,1,830,37,1,373.199999988079,10,1,experiment,NA,NA,0,0.9,0.1,0,1,163,4,NA
fcp-trial,212,1509384,0.0-173.0-0.0,voc_e2,12014,"[{""event"":""fullscreenenter"",""trial"":1,""time"":1152}]",NA,NA,NA,NA,NA,4,#3386FF,#D89F1C,10,0,1,38,1,2193.699999988079,37,1,381.199999988079,10,1,experiment,NA,NA,0,0.9,0.1,0,1,164,4,NA
fcp-trial,213,1512274,0.0-174.0-0.0,voc_e2,12014,"[{""event"":""fullscreenenter"",""trial"":1,""time"":1152}]",NA,NA,NA,NA,NA,6,#D8271C,#741CD8,10,0,1,40,0,948.6999999880791,37,1,430.300000011921,10,1,experiment,NA,NA,1,0.7,0.3,2,3,165,4,NA
fcp-trial,214,1515203,0.0-175.0-0.0,voc_e2,12014,"[{""event"":""fullscreenenter"",""trial"":1,""time"":1152}]",NA,NA,NA,NA,NA,1,#D89F1C,#3386FF,0,10,0,38,1,1065.4000000059605,39,0,356.30000001192093,10,1,experiment,NA,NA,0,0.1,0.9,1,0,166,4,NA
fcp-trial,215,1518770,0.0-176.0-0.0,voc_e2,12014,"[{""event"":""fullscreenenter"",""trial"":1,""time"":1152}]",NA,NA,NA,NA,NA,2,#1CD855,#FA92F8,0,10,0,40,0,1640.5999999940395,37,1,416.59999999403954,0,0,experiment,NA,NA,2,0.5,0.5,5,4,167,4,NA
fcp-trial,216,1522103,0.0-177.0-0.0,voc_e2,12014,"[{""event"":""fullscreenenter"",""trial"":1,""time"":1152}]",NA,NA,NA,NA,NA,2,#741CD8,#D8271C,0,10,0,40,0,1325.4000000059605,37,1,497,0,0,experiment,NA,NA,1,0.3,0.7,3,2,168,4,NA
fcp-trial,217,1524810,0.0-178.0-0.0,voc_e2,12014,"[{""event"":""fullscreenenter"",""trial"":1,""time"":1152}]",NA,NA,NA,NA,NA,5,#741CD8,#D8271C,0,10,0,40,0,780.5999999940395,37,1,406.89999997615814,0,0,experiment,NA,NA,1,0.3,0.7,3,2,169,4,NA
fcp-trial,218,1527971,0.0-179.0-0.0,voc_e2,12014,"[{""event"":""fullscreenenter"",""trial"":1,""time"":1152}]",NA,NA,NA,NA,NA,6,#D8271C,#741CD8,0,0,1,40,0,1258.199999988079,37,1,395.300000011921,0,1,experiment,NA,NA,1,0.7,0.3,2,3,170,4,NA
fcp-trial,219,1530859,0.0-180.0-0.0,voc_e2,12014,"[{""event"":""fullscreenenter"",""trial"":1,""time"":1152}]",NA,NA,NA,NA,NA,6,#D89F1C,#3386FF,0,10,0,40,0,993.2999999821186,39,0,383.2999999821186,10,1,experiment,NA,NA,0,0.1,0.9,1,0,171,4,NA
fcp-trial,220,1534070,0.0-181.0-0.0,voc_e2,12014,"[{""event"":""fullscreenenter"",""trial"":1,""time"":1152}]",NA,NA,NA,NA,NA,1,#1CD855,#FA92F8,10,10,0,38,1,1078.5,37,1,624.2999999821186,10,0,experiment,NA,NA,2,0.5,0.5,5,4,172,4,NA
fcp-trial,221,1537025,0.0-182.0-0.0,voc_e2,12014,"[{""event"":""fullscreenenter"",""trial"":1,""time"":1152}]",NA,NA,NA,NA,NA,6,#1CD855,#FA92F8,10,10,0,40,0,1017.7999999821186,37,1,428.89999997615814,10,0,experiment,NA,NA,2,0.5,0.5,5,4,173,4,NA
fcp-trial,222,1540005,0.0-183.0-0.0,voc_e2,12014,"[{""event"":""fullscreenenter"",""trial"":1,""time"":1152}]",NA,NA,NA,NA,NA,3,#1CD855,#FA92F8,10,0,0,40,0,908.6999999880791,39,0,557.5,0,1,experiment,NA,NA,2,0.5,0.5,5,4,174,4,NA
fcp-trial,223,1542950,0.0-184.0-0.0,voc_e2,12014,"[{""event"":""fullscreenenter"",""trial"":1,""time"":1152}]",NA,NA,NA,NA,NA,3,#741CD8,#D8271C,10,10,0,40,0,1019.8000000119209,37,1,415,10,0,experiment,NA,NA,1,0.3,0.7,3,2,175,4,NA
fcp-trial,224,1546671,0.0-185.0-0.0,voc_e2,12014,"[{""event"":""fullscreenenter"",""trial"":1,""time"":1152}]",NA,NA,NA,NA,NA,3,#3386FF,#D89F1C,10,0,1,38,1,1821.699999988079,37,1,391.199999988079,10,1,experiment,NA,NA,0,0.9,0.1,0,1,176,4,NA
fcp-trial,225,1552277,0.0-186.0-0.0,voc_e2,12014,"[{""event"":""fullscreenenter"",""trial"":1,""time"":1152}]",NA,NA,NA,NA,NA,0,#D8271C,#741CD8,0,0,1,38,1,3388.300000011921,37,1,704.2999999821186,0,1,experiment,NA,NA,1,0.7,0.3,2,3,177,4,NA
fcp-trial,226,1555529,0.0-187.0-0.0,voc_e2,12014,"[{""event"":""fullscreenenter"",""trial"":1,""time"":1152}]",NA,NA,NA,NA,NA,0,#D89F1C,#3386FF,0,10,0,38,1,1391.5,39,0,351.19999998807907,10,1,experiment,NA,NA,0,0.1,0.9,1,0,178,4,NA
fcp-trial,227,1558829,0.0-188.0-0.0,voc_e2,12014,"[{""event"":""fullscreenenter"",""trial"":1,""time"":1152}]",NA,NA,NA,NA,NA,2,#FA92F8,#1CD855,10,0,1,40,0,1365.300000011921,39,0,428.699999988079,0,0,experiment,NA,NA,2,0.5,0.5,4,5,179,4,NA
fcp-trial,228,1561466,0.0-189.0-0.0,voc_e2,12014,"[{""event"":""fullscreenenter"",""trial"":1,""time"":1152}]",NA,NA,NA,NA,NA,4,#D8271C,#741CD8,10,0,1,40,0,770.3000000119209,37,1,360.59999999403954,10,1,experiment,NA,NA,1,0.7,0.3,2,3,180,4,NA
fcp-trial,229,1564155,0.0-190.0-0.0,voc_e2,12014,"[{""event"":""fullscreenenter"",""trial"":1,""time"":1152}]",NA,NA,NA,NA,NA,4,#1CD855,#FA92F8,10,10,0,40,0,739.5,39,0,442.300000011921,10,1,experiment,NA,NA,2,0.5,0.5,5,4,181,5,NA
fcp-trial,230,1567760,0.0-191.0-0.0,voc_e2,12014,"[{""event"":""fullscreenenter"",""trial"":1,""time"":1152}]",NA,NA,NA,NA,NA,5,#D89F1C,#3386FF,0,0,0,40,0,1621.2999999821186,39,0,473.199999988079,0,1,experiment,NA,NA,0,0.1,0.9,1,0,182,5,NA
fcp-trial,231,1572748,0.0-192.0-0.0,voc_e2,12014,"[{""event"":""fullscreenenter"",""trial"":1,""time"":1152}]",NA,NA,NA,NA,NA,0,#FA92F8,#1CD855,10,0,1,38,1,1147.2999999821186,39,0,2333.199999988079,0,0,experiment,NA,NA,2,0.5,0.5,4,5,183,5,NA
fcp-trial,232,1575502,0.0-193.0-0.0,voc_e2,12014,"[{""event"":""fullscreenenter"",""trial"":1,""time"":1152}]",NA,NA,NA,NA,NA,2,#3386FF,#D89F1C,10,0,1,38,1,881.5,37,1,365.59999999403954,10,1,experiment,NA,NA,0,0.9,0.1,0,1,184,5,NA
fcp-trial,233,1578862,0.0-194.0-0.0,voc_e2,12014,"[{""event"":""fullscreenenter"",""trial"":1,""time"":1152}]",NA,NA,NA,NA,NA,2,#D8271C,#741CD8,10,10,1,38,1,1501.199999988079,37,1,347.5,10,1,experiment,NA,NA,1,0.7,0.3,2,3,185,5,NA
fcp-trial,234,1581741,0.0-195.0-0.0,voc_e2,12014,"[{""event"":""fullscreenenter"",""trial"":1,""time"":1152}]",NA,NA,NA,NA,NA,5,#1CD855,#FA92F8,0,0,0,40,0,934.4000000059605,39,0,437.7000000178814,0,1,experiment,NA,NA,2,0.5,0.5,5,4,186,5,NA
fcp-trial,235,1584872,0.0-196.0-0.0,voc_e2,12014,"[{""event"":""fullscreenenter"",""trial"":1,""time"":1152}]",NA,NA,NA,NA,NA,4,#D89F1C,#3386FF,0,10,0,40,0,1114.2999999821186,37,1,505.09999999403954,0,0,experiment,NA,NA,0,0.1,0.9,1,0,187,5,NA
fcp-trial,236,1587666,0.0-197.0-0.0,voc_e2,12014,"[{""event"":""fullscreenenter"",""trial"":1,""time"":1152}]",NA,NA,NA,NA,NA,1,#D8271C,#741CD8,10,0,1,38,1,840.3999999761581,37,1,446.10000002384186,10,1,experiment,NA,NA,1,0.7,0.3,2,3,188,5,NA
fcp-trial,237,1590434,0.0-198.0-0.0,voc_e2,12014,"[{""event"":""fullscreenenter"",""trial"":1,""time"":1152}]",NA,NA,NA,NA,NA,1,#3386FF,#D89F1C,10,0,1,38,1,930.2999999821186,37,1,333.59999999403954,10,1,experiment,NA,NA,0,0.9,0.1,0,1,189,5,NA
fcp-trial,238,1593812,0.0-199.0-0.0,voc_e2,12014,"[{""event"":""fullscreenenter"",""trial"":1,""time"":1152}]",NA,NA,NA,NA,NA,5,#D89F1C,#3386FF,0,10,0,40,0,1499.199999988079,39,0,372,10,1,experiment,NA,NA,0,0.1,0.9,1,0,190,5,NA
fcp-trial,239,1596696,0.0-200.0-0.0,voc_e2,12014,"[{""event"":""fullscreenenter"",""trial"":1,""time"":1152}]",NA,NA,NA,NA,NA,5,#D8271C,#741CD8,10,0,1,40,0,977.2999999821186,37,1,398.5,10,1,experiment,NA,NA,1,0.7,0.3,2,3,191,5,NA
fcp-trial,240,1599913,0.0-201.0-0.0,voc_e2,12014,"[{""event"":""fullscreenenter"",""trial"":1,""time"":1152}]",NA,NA,NA,NA,NA,6,#3386FF,#D89F1C,10,0,1,40,0,841.8999999761581,39,0,865.3000000119209,0,0,experiment,NA,NA,0,0.9,0.1,0,1,192,5,NA
fcp-trial,241,1603572,0.0-202.0-0.0,voc_e2,12014,"[{""event"":""fullscreenenter"",""trial"":1,""time"":1152}]",NA,NA,NA,NA,NA,3,#741CD8,#D8271C,0,0,0,40,0,1763.5,39,0,387.89999997615814,0,1,experiment,NA,NA,1,0.3,0.7,3,2,193,5,NA
fcp-trial,242,1606183,0.0-203.0-0.0,voc_e2,12014,"[{""event"":""fullscreenenter"",""trial"":1,""time"":1152}]",NA,NA,NA,NA,NA,3,#3386FF,#D89F1C,10,0,1,38,1,808.2000000178814,37,1,295.40000000596046,10,1,experiment,NA,NA,0,0.9,0.1,0,1,194,5,NA
fcp-trial,243,1610034,0.0-204.0-0.0,voc_e2,12014,"[{""event"":""fullscreenenter"",""trial"":1,""time"":1152}]",NA,NA,NA,NA,NA,1,#D8271C,#741CD8,0,0,1,40,0,1892.9000000059605,39,0,450.800000011921,0,0,experiment,NA,NA,1,0.7,0.3,2,3,195,5,NA
fcp-trial,244,1614052,0.0-205.0-0.0,voc_e2,12014,"[{""event"":""fullscreenenter"",""trial"":1,""time"":1152}]",NA,NA,NA,NA,NA,4,#3386FF,#D89F1C,10,0,1,38,1,2156.2000000178814,37,1,353.80000001192093,10,1,experiment,NA,NA,0,0.9,0.1,0,1,196,5,NA
fcp-trial,245,1617925,0.0-206.0-0.0,voc_e2,12014,"[{""event"":""fullscreenenter"",""trial"":1,""time"":1152}]",NA,NA,NA,NA,NA,4,#741CD8,#D8271C,0,10,0,40,0,1985.4000000059605,39,0,380.699999988079,10,1,experiment,NA,NA,1,0.3,0.7,3,2,197,5,NA
fcp-trial,246,1621290,0.0-207.0-0.0,voc_e2,12014,"[{""event"":""fullscreenenter"",""trial"":1,""time"":1152}]",NA,NA,NA,NA,NA,1,#FA92F8,#1CD855,10,0,1,40,0,1472.4000000059605,39,0,382.7000000178814,0,0,experiment,NA,NA,2,0.5,0.5,4,5,198,5,NA
fcp-trial,247,1624589,0.0-208.0-0.0,voc_e2,12014,"[{""event"":""fullscreenenter"",""trial"":1,""time"":1152}]",NA,NA,NA,NA,NA,6,#D8271C,#741CD8,10,0,1,40,0,1258.7000000178814,39,0,532.8000000119209,0,0,experiment,NA,NA,1,0.7,0.3,2,3,199,5,NA
fcp-trial,248,1627084,0.0-209.0-0.0,voc_e2,12014,"[{""event"":""fullscreenenter"",""trial"":1,""time"":1152}]",NA,NA,NA,NA,NA,1,#3386FF,#D89F1C,10,0,1,38,1,642.4000000059605,37,1,348.10000002384186,10,1,experiment,NA,NA,0,0.9,0.1,0,1,200,5,NA
fcp-trial,249,1629988,0.0-210.0-0.0,voc_e2,12014,"[{""event"":""fullscreenenter"",""trial"":1,""time"":1152}]",NA,NA,NA,NA,NA,6,#FA92F8,#1CD855,0,0,1,40,0,1012.7000000178814,37,1,387.300000011921,0,1,experiment,NA,NA,2,0.5,0.5,4,5,201,5,NA
fcp-trial,250,1632997,0.0-211.0-0.0,voc_e2,12014,"[{""event"":""fullscreenenter"",""trial"":1,""time"":1152}]",NA,NA,NA,NA,NA,2,#D8271C,#741CD8,0,0,1,38,1,1189.300000011921,37,1,312.7999999821186,0,1,experiment,NA,NA,1,0.7,0.3,2,3,202,5,NA
fcp-trial,251,1635884,0.0-212.0-0.0,voc_e2,12014,"[{""event"":""fullscreenenter"",""trial"":1,""time"":1152}]",NA,NA,NA,NA,NA,3,#1CD855,#FA92F8,10,10,0,40,0,1032,39,0,351,10,1,experiment,NA,NA,2,0.5,0.5,5,4,203,5,NA
fcp-trial,252,1638455,0.0-213.0-0.0,voc_e2,12014,"[{""event"":""fullscreenenter"",""trial"":1,""time"":1152}]",NA,NA,NA,NA,NA,2,#FA92F8,#1CD855,10,0,1,40,0,640.5999999940395,39,0,426.09999999403954,0,0,experiment,NA,NA,2,0.5,0.5,4,5,204,5,NA
fcp-trial,253,1641017,0.0-214.0-0.0,voc_e2,12014,"[{""event"":""fullscreenenter"",""trial"":1,""time"":1152}]",NA,NA,NA,NA,NA,0,#3386FF,#D89F1C,0,10,1,38,1,696.2999999821186,37,1,360.2999999821186,0,1,experiment,NA,NA,0,0.9,0.1,0,1,205,5,NA
fcp-trial,254,1643904,0.0-215.0-0.0,voc_e2,12014,"[{""event"":""fullscreenenter"",""trial"":1,""time"":1152}]",NA,NA,NA,NA,NA,5,#FA92F8,#1CD855,0,0,1,40,0,1063.4000000059605,39,0,319.09999999403954,0,0,experiment,NA,NA,2,0.5,0.5,4,5,206,5,NA
fcp-trial,255,1646860,0.0-216.0-0.0,voc_e2,12014,"[{""event"":""fullscreenenter"",""trial"":1,""time"":1152}]",NA,NA,NA,NA,NA,0,#D8271C,#741CD8,10,0,1,38,1,1201.3999999761581,37,1,250.30000001192093,10,1,experiment,NA,NA,1,0.7,0.3,2,3,207,5,NA
fcp-trial,256,1649984,0.0-217.0-0.0,voc_e2,12014,"[{""event"":""fullscreenenter"",""trial"":1,""time"":1152}]",NA,NA,NA,NA,NA,0,#1CD855,#FA92F8,10,0,0,38,1,1317.5999999940395,37,1,300.10000002384186,10,0,experiment,NA,NA,2,0.5,0.5,5,4,208,5,NA
fcp-trial,257,1652755,0.0-218.0-0.0,voc_e2,12014,"[{""event"":""fullscreenenter"",""trial"":1,""time"":1152}]",NA,NA,NA,NA,NA,4,#1CD855,#FA92F8,0,10,0,40,0,884.7999999821186,39,0,381.199999988079,10,1,experiment,NA,NA,2,0.5,0.5,5,4,209,5,NA
fcp-trial,258,1655775,0.0-219.0-0.0,voc_e2,12014,"[{""event"":""fullscreenenter"",""trial"":1,""time"":1152}]",NA,NA,NA,NA,NA,2,#D89F1C,#3386FF,0,10,0,38,1,1093.2000000178814,39,0,422,10,1,experiment,NA,NA,0,0.1,0.9,1,0,210,5,NA
audio-instructions,259,1664400,0.0-220.0,voc_e2,12014,"[{""event"":""fullscreenenter"",""trial"":1,""time"":1152}]",NA,3911.900000005961,static/audio/pause.wav,NA,0,NA,NA,NA,NA,NA,NA,NA,NA,NA,NA,NA,NA,NA,NA,NA,NA,NA,NA,NA,NA,NA,NA,NA,NA,NA
fcp-trial,260,1668901,0.0-221.0-0.0,voc_e2,12014,"[{""event"":""fullscreenenter"",""trial"":1,""time"":1152}]",NA,NA,NA,NA,NA,4,#D89F1C,#3386FF,0,10,0,40,0,2658,39,0,335.09999999403954,10,1,experiment,NA,NA,0,0.1,0.9,1,0,211,5,NA
fcp-trial,261,1671698,0.0-222.0-0.0,voc_e2,12014,"[{""event"":""fullscreenenter"",""trial"":1,""time"":1152}]",NA,NA,NA,NA,NA,6,#1CD855,#FA92F8,0,10,0,40,0,841.1999999880791,37,1,441.59999999403954,0,0,experiment,NA,NA,2,0.5,0.5,5,4,212,5,NA
fcp-trial,262,1674646,0.0-223.0-0.0,voc_e2,12014,"[{""event"":""fullscreenenter"",""trial"":1,""time"":1152}]",NA,NA,NA,NA,NA,3,#D8271C,#741CD8,10,0,1,38,1,1114.800000011921,37,1,321.7999999821186,10,1,experiment,NA,NA,1,0.7,0.3,2,3,213,5,NA
fcp-trial,263,1677810,0.0-224.0-0.0,voc_e2,12014,"[{""event"":""fullscreenenter"",""trial"":1,""time"":1152}]",NA,NA,NA,NA,NA,2,#FA92F8,#1CD855,0,0,1,40,0,1094,37,1,558.6999999880791,0,1,experiment,NA,NA,2,0.5,0.5,4,5,214,5,NA
fcp-trial,264,1680385,0.0-225.0-0.0,voc_e2,12014,"[{""event"":""fullscreenenter"",""trial"":1,""time"":1152}]",NA,NA,NA,NA,NA,3,#3386FF,#D89F1C,10,0,1,38,1,701,37,1,368.199999988079,10,1,experiment,NA,NA,0,0.9,0.1,0,1,215,5,NA
fcp-trial,265,1683230,0.0-226.0-0.0,voc_e2,12014,"[{""event"":""fullscreenenter"",""trial"":1,""time"":1152}]",NA,NA,NA,NA,NA,1,#D89F1C,#3386FF,0,10,0,38,1,980.5,39,0,343,10,1,experiment,NA,NA,0,0.1,0.9,1,0,216,5,NA
fcp-trial,266,1686614,0.0-227.0-0.0,voc_e2,12014,"[{""event"":""fullscreenenter"",""trial"":1,""time"":1152}]",NA,NA,NA,NA,NA,0,#1CD855,#FA92F8,0,10,0,38,1,1109.300000011921,37,1,762.5,0,0,experiment,NA,NA,2,0.5,0.5,5,4,217,5,NA
fcp-trial,267,1689595,0.0-228.0-0.0,voc_e2,12014,"[{""event"":""fullscreenenter"",""trial"":1,""time"":1152}]",NA,NA,NA,NA,NA,4,#741CD8,#D8271C,10,0,0,40,0,1107.2999999821186,39,0,352.90000000596046,0,1,experiment,NA,NA,1,0.3,0.7,3,2,218,5,NA
fcp-trial,268,1692602,0.0-229.0-0.0,voc_e2,12014,"[{""event"":""fullscreenenter"",""trial"":1,""time"":1152}]",NA,NA,NA,NA,NA,6,#D89F1C,#3386FF,0,10,0,40,0,987.5,37,1,512.2000000178814,0,0,experiment,NA,NA,0,0.1,0.9,1,0,219,5,NA
fcp-trial,269,1695583,0.0-230.0-0.0,voc_e2,12014,"[{""event"":""fullscreenenter"",""trial"":1,""time"":1152}]",NA,NA,NA,NA,NA,4,#1CD855,#FA92F8,0,0,0,40,0,879.8999999761581,39,0,594.8000000119209,0,1,experiment,NA,NA,2,0.5,0.5,5,4,220,5,NA
fcp-trial,270,1698482,0.0-231.0-0.0,voc_e2,12014,"[{""event"":""fullscreenenter"",""trial"":1,""time"":1152}]",NA,NA,NA,NA,NA,5,#3386FF,#D89F1C,10,0,1,38,1,1119.5999999940395,37,1,271.90000000596046,10,1,experiment,NA,NA,0,0.9,0.1,0,1,221,5,NA
fcp-trial,271,1701510,0.0-232.0-0.0,voc_e2,12014,"[{""event"":""fullscreenenter"",""trial"":1,""time"":1152}]",NA,NA,NA,NA,NA,0,#D89F1C,#3386FF,0,0,0,38,1,1179.2000000178814,39,0,340.39999997615814,0,1,experiment,NA,NA,0,0.1,0.9,1,0,222,5,NA
fcp-trial,272,1704467,0.0-233.0-0.0,voc_e2,12014,"[{""event"":""fullscreenenter"",""trial"":1,""time"":1152}]",NA,NA,NA,NA,NA,6,#741CD8,#D8271C,0,0,0,40,0,922.5,37,1,530.6000000238419,0,0,experiment,NA,NA,1,0.3,0.7,3,2,223,5,NA
fcp-trial,273,1707471,0.0-234.0-0.0,voc_e2,12014,"[{""event"":""fullscreenenter"",""trial"":1,""time"":1152}]",NA,NA,NA,NA,NA,2,#D8271C,#741CD8,0,0,1,38,1,1210.9000000059605,37,1,286.69999998807907,0,1,experiment,NA,NA,1,0.7,0.3,2,3,224,5,NA
fcp-trial,274,1710078,0.0-235.0-0.0,voc_e2,12014,"[{""event"":""fullscreenenter"",""trial"":1,""time"":1152}]",NA,NA,NA,NA,NA,5,#1CD855,#FA92F8,10,10,0,40,0,728.7000000178814,39,0,371.7000000178814,10,1,experiment,NA,NA,2,0.5,0.5,5,4,225,5,NA
fcp-trial,275,1713498,0.0-236.0-0.0,voc_e2,12014,"[{""event"":""fullscreenenter"",""trial"":1,""time"":1152}]",NA,NA,NA,NA,NA,0,#741CD8,#D8271C,10,10,0,38,1,1555,39,0,360.19999998807907,10,1,experiment,NA,NA,1,0.3,0.7,3,2,226,6,NA
fcp-trial,276,1716097,0.0-237.0-0.0,voc_e2,12014,"[{""event"":""fullscreenenter"",""trial"":1,""time"":1152}]",NA,NA,NA,NA,NA,2,#D89F1C,#3386FF,0,10,0,38,1,698.0999999940395,39,0,392.89999997615814,10,1,experiment,NA,NA,0,0.1,0.9,1,0,227,6,NA
fcp-trial,277,1719437,0.0-238.0-0.0,voc_e2,12014,"[{""event"":""fullscreenenter"",""trial"":1,""time"":1152}]",NA,NA,NA,NA,NA,3,#1CD855,#FA92F8,10,10,0,40,0,1486.5999999940395,37,1,346.80000001192093,10,0,experiment,NA,NA,2,0.5,0.5,5,4,228,6,NA
fcp-trial,278,1722964,0.0-239.0-0.0,voc_e2,12014,"[{""event"":""fullscreenenter"",""trial"":1,""time"":1152}]",NA,NA,NA,NA,NA,1,#1CD855,#FA92F8,0,10,0,38,1,1712.9000000059605,37,1,305.09999999403954,0,0,experiment,NA,NA,2,0.5,0.5,5,4,229,6,NA
fcp-trial,279,1725948,0.0-240.0-0.0,voc_e2,12014,"[{""event"":""fullscreenenter"",""trial"":1,""time"":1152}]",NA,NA,NA,NA,NA,5,#741CD8,#D8271C,0,10,0,40,0,1063.5999999940395,37,1,416.09999999403954,0,0,experiment,NA,NA,1,0.3,0.7,3,2,230,6,NA
fcp-trial,280,1729019,0.0-241.0-0.0,voc_e2,12014,"[{""event"":""fullscreenenter"",""trial"":1,""time"":1152}]",NA,NA,NA,NA,NA,1,#741CD8,#D8271C,10,0,0,38,1,1247.5999999940395,39,0,317,0,1,experiment,NA,NA,1,0.3,0.7,3,2,231,6,NA
fcp-trial,281,1731861,0.0-242.0-0.0,voc_e2,12014,"[{""event"":""fullscreenenter"",""trial"":1,""time"":1152}]",NA,NA,NA,NA,NA,5,#D89F1C,#3386FF,0,10,0,38,1,955.6999999880791,39,0,379,10,1,experiment,NA,NA,0,0.1,0.9,1,0,232,6,NA
fcp-trial,282,1734575,0.0-243.0-0.0,voc_e2,12014,"[{""event"":""fullscreenenter"",""trial"":1,""time"":1152}]",NA,NA,NA,NA,NA,4,#D89F1C,#3386FF,0,10,0,40,0,779.5,39,0,425.800000011921,10,1,experiment,NA,NA,0,0.1,0.9,1,0,233,6,NA
fcp-trial,283,1737406,0.0-244.0-0.0,voc_e2,12014,"[{""event"":""fullscreenenter"",""trial"":1,""time"":1152}]",NA,NA,NA,NA,NA,5,#741CD8,#D8271C,10,0,0,40,0,820.5,39,0,500.40000000596046,0,1,experiment,NA,NA,1,0.3,0.7,3,2,234,6,NA
fcp-trial,284,1741066,0.0-245.0-0.0,voc_e2,12014,"[{""event"":""fullscreenenter"",""trial"":1,""time"":1152}]",NA,NA,NA,NA,NA,1,#741CD8,#D8271C,10,10,0,38,1,1781.7999999821186,39,0,370.7000000178814,10,1,experiment,NA,NA,1,0.3,0.7,3,2,235,6,NA
fcp-trial,285,1743892,0.0-246.0-0.0,voc_e2,12014,"[{""event"":""fullscreenenter"",""trial"":1,""time"":1152}]",NA,NA,NA,NA,NA,3,#D8271C,#741CD8,0,0,1,38,1,918.0999999940395,37,1,399.800000011921,0,1,experiment,NA,NA,1,0.7,0.3,2,3,236,6,NA
fcp-trial,286,1746620,0.0-247.0-0.0,voc_e2,12014,"[{""event"":""fullscreenenter"",""trial"":1,""time"":1152}]",NA,NA,NA,NA,NA,3,#FA92F8,#1CD855,10,0,1,40,0,888.0999999940395,39,0,332.90000000596046,0,0,experiment,NA,NA,2,0.5,0.5,4,5,237,6,NA
fcp-trial,287,1749416,0.0-248.0-0.0,voc_e2,12014,"[{""event"":""fullscreenenter"",""trial"":1,""time"":1152}]",NA,NA,NA,NA,NA,1,#3386FF,#D89F1C,10,0,1,38,1,941.0999999940395,37,1,346.5,10,1,experiment,NA,NA,0,0.9,0.1,0,1,238,6,NA
fcp-trial,288,1752110,0.0-249.0-0.0,voc_e2,12014,"[{""event"":""fullscreenenter"",""trial"":1,""time"":1152}]",NA,NA,NA,NA,NA,5,#FA92F8,#1CD855,0,0,1,40,0,833.5,39,0,354.09999999403954,0,0,experiment,NA,NA,2,0.5,0.5,4,5,239,6,NA
fcp-trial,289,1754932,0.0-250.0-0.0,voc_e2,12014,"[{""event"":""fullscreenenter"",""trial"":1,""time"":1152}]",NA,NA,NA,NA,NA,6,#D8271C,#741CD8,0,0,1,40,0,916.2000000178814,39,0,400.800000011921,0,0,experiment,NA,NA,1,0.7,0.3,2,3,240,6,NA
fcp-trial,290,1757581,0.0-251.0-0.0,voc_e2,12014,"[{""event"":""fullscreenenter"",""trial"":1,""time"":1152}]",NA,NA,NA,NA,NA,4,#741CD8,#D8271C,0,10,0,40,0,701.6999999880791,39,0,440.5,10,1,experiment,NA,NA,1,0.3,0.7,3,2,241,6,NA
fcp-trial,291,1760280,0.0-252.0-0.0,voc_e2,12014,"[{""event"":""fullscreenenter"",""trial"":1,""time"":1152}]",NA,NA,NA,NA,NA,6,#FA92F8,#1CD855,0,0,1,40,0,724.3999999761581,37,1,469.199999988079,0,1,experiment,NA,NA,2,0.5,0.5,4,5,242,6,NA
fcp-trial,292,1763041,0.0-253.0-0.0,voc_e2,12014,"[{""event"":""fullscreenenter"",""trial"":1,""time"":1152}]",NA,NA,NA,NA,NA,0,#3386FF,#D89F1C,0,0,1,38,1,882.1999999880791,37,1,374,0,1,experiment,NA,NA,0,0.9,0.1,0,1,243,6,NA
fcp-trial,293,1765786,0.0-254.0-0.0,voc_e2,12014,"[{""event"":""fullscreenenter"",""trial"":1,""time"":1152}]",NA,NA,NA,NA,NA,2,#D8271C,#741CD8,10,0,1,40,0,834.5,37,1,403.300000011921,10,1,experiment,NA,NA,1,0.7,0.3,2,3,244,6,NA
fcp-trial,294,1769581,0.0-255.0-0.0,voc_e2,12014,"[{""event"":""fullscreenenter"",""trial"":1,""time"":1152}]",NA,NA,NA,NA,NA,0,#FA92F8,#1CD855,0,10,1,38,1,1908.7000000178814,39,0,376,10,0,experiment,NA,NA,2,0.5,0.5,4,5,245,6,NA
fcp-trial,295,1772550,0.0-256.0-0.0,voc_e2,12014,"[{""event"":""fullscreenenter"",""trial"":1,""time"":1152}]",NA,NA,NA,NA,NA,2,#1CD855,#FA92F8,0,0,0,40,0,1048.9000000059605,39,0,413.2000000178814,0,1,experiment,NA,NA,2,0.5,0.5,5,4,246,6,NA
fcp-trial,296,1775112,0.0-257.0-0.0,voc_e2,12014,"[{""event"":""fullscreenenter"",""trial"":1,""time"":1152}]",NA,NA,NA,NA,NA,4,#1CD855,#FA92F8,0,0,0,40,0,634.0999999940395,39,0,418.09999999403954,0,1,experiment,NA,NA,2,0.5,0.5,5,4,247,6,NA
fcp-trial,297,1778145,0.0-258.0-0.0,voc_e2,12014,"[{""event"":""fullscreenenter"",""trial"":1,""time"":1152}]",NA,NA,NA,NA,NA,6,#3386FF,#D89F1C,10,0,1,40,0,1048,37,1,477.09999999403954,10,1,experiment,NA,NA,0,0.9,0.1,0,1,248,6,NA
fcp-trial,298,1781410,0.0-259.0-0.0,voc_e2,12014,"[{""event"":""fullscreenenter"",""trial"":1,""time"":1152}]",NA,NA,NA,NA,NA,0,#D8271C,#741CD8,10,0,1,38,1,1396.800000011921,37,1,360.59999999403954,10,1,experiment,NA,NA,1,0.7,0.3,2,3,249,6,NA
fcp-trial,299,1784183,0.0-260.0-0.0,voc_e2,12014,"[{""event"":""fullscreenenter"",""trial"":1,""time"":1152}]",NA,NA,NA,NA,NA,1,#FA92F8,#1CD855,0,0,1,40,0,886.9000000059605,39,0,378,0,0,experiment,NA,NA,2,0.5,0.5,4,5,250,6,NA
fcp-trial,300,1788064,0.0-261.0-0.0,voc_e2,12014,"[{""event"":""fullscreenenter"",""trial"":1,""time"":1152}]",NA,NA,NA,NA,NA,3,#D89F1C,#3386FF,10,10,0,38,1,2010.5,39,0,363.2000000178814,10,1,experiment,NA,NA,0,0.1,0.9,1,0,251,6,NA
fcp-trial,301,1790926,0.0-262.0-0.0,voc_e2,12014,"[{""event"":""fullscreenenter"",""trial"":1,""time"":1152}]",NA,NA,NA,NA,NA,2,#D89F1C,#3386FF,0,10,0,38,1,957.7000000178814,39,0,398.199999988079,10,1,experiment,NA,NA,0,0.1,0.9,1,0,252,6,NA
fcp-trial,302,1793613,0.0-263.0-0.0,voc_e2,12014,"[{""event"":""fullscreenenter"",""trial"":1,""time"":1152}]",NA,NA,NA,NA,NA,6,#FA92F8,#1CD855,0,10,1,40,0,780.5,39,0,398.199999988079,10,0,experiment,NA,NA,2,0.5,0.5,4,5,253,6,NA
fcp-trial,303,1796851,0.0-264.0-0.0,voc_e2,12014,"[{""event"":""fullscreenenter"",""trial"":1,""time"":1152}]",NA,NA,NA,NA,NA,3,#FA92F8,#1CD855,0,0,1,40,0,1025,37,1,705.8999999761581,0,1,experiment,NA,NA,2,0.5,0.5,4,5,254,6,NA
fcp-trial,304,1799771,0.0-265.0-0.0,voc_e2,12014,"[{""event"":""fullscreenenter"",""trial"":1,""time"":1152}]",NA,NA,NA,NA,NA,3,#D8271C,#741CD8,10,0,1,40,0,948.5,37,1,463,10,1,experiment,NA,NA,1,0.7,0.3,2,3,255,6,NA
fcp-trial,305,1802325,0.0-266.0-0.0,voc_e2,12014,"[{""event"":""fullscreenenter"",""trial"":1,""time"":1152}]",NA,NA,NA,NA,NA,1,#3386FF,#D89F1C,10,10,1,38,1,700,37,1,345.19999998807907,10,1,experiment,NA,NA,0,0.9,0.1,0,1,256,6,NA
fcp-trial,306,1805644,0.0-267.0-0.0,voc_e2,12014,"[{""event"":""fullscreenenter"",""trial"":1,""time"":1152}]",NA,NA,NA,NA,NA,6,#D8271C,#741CD8,0,10,1,40,0,1378.4000000059605,39,0,431,10,0,experiment,NA,NA,1,0.7,0.3,2,3,257,6,NA
fcp-trial,307,1808741,0.0-268.0-0.0,voc_e2,12014,"[{""event"":""fullscreenenter"",""trial"":1,""time"":1152}]",NA,NA,NA,NA,NA,2,#D8271C,#741CD8,10,0,1,38,1,1328.5999999940395,37,1,260.09999999403954,10,1,experiment,NA,NA,1,0.7,0.3,2,3,258,6,NA
fcp-trial,308,1812622,0.0-269.0-0.0,voc_e2,12014,"[{""event"":""fullscreenenter"",""trial"":1,""time"":1152}]",NA,NA,NA,NA,NA,0,#1CD855,#FA92F8,0,10,0,38,1,2078.800000011921,37,1,294.39999997615814,0,0,experiment,NA,NA,2,0.5,0.5,5,4,259,6,NA
fcp-trial,309,1815738,0.0-270.0-0.0,voc_e2,12014,"[{""event"":""fullscreenenter"",""trial"":1,""time"":1152}]",NA,NA,NA,NA,NA,5,#D89F1C,#3386FF,0,0,0,40,0,1197,39,0,409.2999999821186,0,1,experiment,NA,NA,0,0.1,0.9,1,0,260,6,NA
fcp-trial,310,1820188,0.0-271.0-0.0,voc_e2,12014,"[{""event"":""fullscreenenter"",""trial"":1,""time"":1152}]",NA,NA,NA,NA,NA,1,#D8271C,#741CD8,10,0,1,38,1,2531.0999999940395,37,1,411,10,1,experiment,NA,NA,1,0.7,0.3,2,3,261,6,NA
fcp-trial,311,1822958,0.0-272.0-0.0,voc_e2,12014,"[{""event"":""fullscreenenter"",""trial"":1,""time"":1152}]",NA,NA,NA,NA,NA,1,#FA92F8,#1CD855,10,10,1,40,0,876.0999999940395,37,1,386.2999999821186,10,1,experiment,NA,NA,2,0.5,0.5,4,5,262,6,NA
fcp-trial,312,1825883,0.0-273.0-0.0,voc_e2,12014,"[{""event"":""fullscreenenter"",""trial"":1,""time"":1152}]",NA,NA,NA,NA,NA,3,#D89F1C,#3386FF,0,10,0,38,1,1126.5999999940395,39,0,289.7000000178814,10,1,experiment,NA,NA,0,0.1,0.9,1,0,263,6,NA
fcp-trial,313,1828855,0.0-274.0-0.0,voc_e2,12014,"[{""event"":""fullscreenenter"",""trial"":1,""time"":1152}]",NA,NA,NA,NA,NA,2,#1CD855,#FA92F8,0,10,0,40,0,1129.699999988079,39,0,335.19999998807907,10,1,experiment,NA,NA,2,0.5,0.5,5,4,264,6,NA
fcp-trial,314,1831724,0.0-275.0-0.0,voc_e2,12014,"[{""event"":""fullscreenenter"",""trial"":1,""time"":1152}]",NA,NA,NA,NA,NA,0,#D89F1C,#3386FF,0,10,0,38,1,1033,39,0,332,10,1,experiment,NA,NA,0,0.1,0.9,1,0,265,6,NA
fcp-trial,315,1834592,0.0-276.0-0.0,voc_e2,12014,"[{""event"":""fullscreenenter"",""trial"":1,""time"":1152}]",NA,NA,NA,NA,NA,4,#D8271C,#741CD8,0,0,1,40,0,980.5,37,1,379.199999988079,0,1,experiment,NA,NA,1,0.7,0.3,2,3,266,6,NA
fcp-trial,316,1837292,0.0-277.0-0.0,voc_e2,12014,"[{""event"":""fullscreenenter"",""trial"":1,""time"":1152}]",NA,NA,NA,NA,NA,5,#1CD855,#FA92F8,0,10,0,40,0,781.9000000059605,37,1,410.40000000596046,0,0,experiment,NA,NA,2,0.5,0.5,5,4,267,6,NA
fcp-trial,317,1840211,0.0-278.0-0.0,voc_e2,12014,"[{""event"":""fullscreenenter"",""trial"":1,""time"":1152}]",NA,NA,NA,NA,NA,2,#D89F1C,#3386FF,0,10,0,38,1,1080.4000000059605,39,0,328.09999999403954,10,1,experiment,NA,NA,0,0.1,0.9,1,0,268,6,NA
fcp-trial,318,1842988,0.0-279.0-0.0,voc_e2,12014,"[{""event"":""fullscreenenter"",""trial"":1,""time"":1152}]",NA,NA,NA,NA,NA,4,#D89F1C,#3386FF,0,10,0,40,0,864.3999999761581,39,0,404.199999988079,10,1,experiment,NA,NA,0,0.1,0.9,1,0,269,6,NA
fcp-trial,319,1845766,0.0-280.0-0.0,voc_e2,12014,"[{""event"":""fullscreenenter"",""trial"":1,""time"":1152}]",NA,NA,NA,NA,NA,5,#741CD8,#D8271C,10,10,0,40,0,811.5,39,0,459.800000011921,10,1,experiment,NA,NA,1,0.3,0.7,3,2,270,6,NA
fcp-trial,320,1848846,0.0-281.0-0.0,voc_e2,12014,"[{""event"":""fullscreenenter"",""trial"":1,""time"":1152}]",NA,NA,NA,NA,NA,0,#741CD8,#D8271C,0,10,0,38,1,1161.300000011921,39,0,412,10,1,experiment,NA,NA,1,0.3,0.7,3,2,271,7,NA
fcp-trial,321,1851757,0.0-282.0-0.0,voc_e2,12014,"[{""event"":""fullscreenenter"",""trial"":1,""time"":1152}]",NA,NA,NA,NA,NA,4,#1CD855,#FA92F8,10,10,0,40,0,989.4000000059605,39,0,415.199999988079,10,1,experiment,NA,NA,2,0.5,0.5,5,4,272,7,NA
fcp-trial,322,1854881,0.0-283.0-0.0,voc_e2,12014,"[{""event"":""fullscreenenter"",""trial"":1,""time"":1152}]",NA,NA,NA,NA,NA,6,#3386FF,#D89F1C,10,0,1,40,0,1107.199999988079,39,0,506.59999999403954,0,0,experiment,NA,NA,0,0.9,0.1,0,1,273,7,NA
fcp-trial,323,1857414,0.0-284.0-0.0,voc_e2,12014,"[{""event"":""fullscreenenter"",""trial"":1,""time"":1152}]",NA,NA,NA,NA,NA,6,#FA92F8,#1CD855,0,10,1,40,0,663.7000000178814,37,1,358.80000001192093,0,1,experiment,NA,NA,2,0.5,0.5,4,5,274,7,NA
fcp-trial,324,1861942,0.0-285.0-0.0,voc_e2,12014,"[{""event"":""fullscreenenter"",""trial"":1,""time"":1152}]",NA,NA,NA,NA,NA,1,#FA92F8,#1CD855,0,0,1,40,0,2508.5999999940395,39,0,509.7999999821186,0,0,experiment,NA,NA,2,0.5,0.5,4,5,275,7,NA
fcp-trial,325,1865022,0.0-286.0-0.0,voc_e2,12014,"[{""event"":""fullscreenenter"",""trial"":1,""time"":1152}]",NA,NA,NA,NA,NA,0,#D8271C,#741CD8,10,0,1,38,1,1258.0999999940395,37,1,314.89999997615814,10,1,experiment,NA,NA,1,0.7,0.3,2,3,276,7,NA
fcp-trial,326,1867821,0.0-287.0-0.0,voc_e2,12014,"[{""event"":""fullscreenenter"",""trial"":1,""time"":1152}]",NA,NA,NA,NA,NA,4,#1CD855,#FA92F8,10,0,0,40,0,905.5,37,1,385.5,10,0,experiment,NA,NA,2,0.5,0.5,5,4,277,7,NA
fcp-trial,327,1870909,0.0-288.0-0.0,voc_e2,12014,"[{""event"":""fullscreenenter"",""trial"":1,""time"":1152}]",NA,NA,NA,NA,NA,4,#3386FF,#D89F1C,10,0,1,38,1,1224.300000011921,37,1,356.19999998807907,10,1,experiment,NA,NA,0,0.9,0.1,0,1,278,7,NA
fcp-trial,328,1873608,0.0-289.0-0.0,voc_e2,12014,"[{""event"":""fullscreenenter"",""trial"":1,""time"":1152}]",NA,NA,NA,NA,NA,0,#3386FF,#D89F1C,10,0,1,38,1,779.0999999940395,37,1,410.09999999403954,10,1,experiment,NA,NA,0,0.9,0.1,0,1,279,7,NA
fcp-trial,329,1876468,0.0-290.0-0.0,voc_e2,12014,"[{""event"":""fullscreenenter"",""trial"":1,""time"":1152}]",NA,NA,NA,NA,NA,6,#D89F1C,#3386FF,0,10,0,40,0,983.0999999940395,39,0,371.199999988079,10,1,experiment,NA,NA,0,0.1,0.9,1,0,280,7,NA
fcp-trial,330,1879883,0.0-291.0-0.0,voc_e2,12014,"[{""event"":""fullscreenenter"",""trial"":1,""time"":1152}]",NA,NA,NA,NA,NA,3,#D8271C,#741CD8,10,0,1,38,1,1552.9000000059605,37,1,354.59999999403954,10,1,experiment,NA,NA,1,0.7,0.3,2,3,281,7,NA
fcp-trial,331,1883438,0.0-292.0-0.0,voc_e2,12014,"[{""event"":""fullscreenenter"",""trial"":1,""time"":1152}]",NA,NA,NA,NA,NA,2,#1CD855,#FA92F8,0,10,0,38,1,909.1999999880791,37,1,1141.5999999940395,0,0,experiment,NA,NA,2,0.5,0.5,5,4,282,7,NA
fcp-trial,332,1886253,0.0-293.0-0.0,voc_e2,12014,"[{""event"":""fullscreenenter"",""trial"":1,""time"":1152}]",NA,NA,NA,NA,NA,2,#D8271C,#741CD8,0,0,1,38,1,1041.300000011921,37,1,268.60000002384186,0,1,experiment,NA,NA,1,0.7,0.3,2,3,283,7,NA
fcp-trial,333,1889528,0.0-294.0-0.0,voc_e2,12014,"[{""event"":""fullscreenenter"",""trial"":1,""time"":1152}]",NA,NA,NA,NA,NA,3,#D89F1C,#3386FF,0,10,0,38,1,1473.5,39,0,295.69999998807907,10,1,experiment,NA,NA,0,0.1,0.9,1,0,284,7,NA
fcp-trial,334,1892686,0.0-295.0-0.0,voc_e2,12014,"[{""event"":""fullscreenenter"",""trial"":1,""time"":1152}]",NA,NA,NA,NA,NA,1,#D8271C,#741CD8,10,0,1,38,1,1336.7999999821186,37,1,312.60000002384186,10,1,experiment,NA,NA,1,0.7,0.3,2,3,285,7,NA
fcp-trial,335,1895493,0.0-296.0-0.0,voc_e2,12014,"[{""event"":""fullscreenenter"",""trial"":1,""time"":1152}]",NA,NA,NA,NA,NA,5,#1CD855,#FA92F8,0,0,0,40,0,856.8000000119209,37,1,444.699999988079,0,0,experiment,NA,NA,2,0.5,0.5,5,4,286,7,NA
fcp-trial,336,1898351,0.0-297.0-0.0,voc_e2,12014,"[{""event"":""fullscreenenter"",""trial"":1,""time"":1152}]",NA,NA,NA,NA,NA,2,#3386FF,#D89F1C,10,0,1,38,1,1052.4000000059605,37,1,300.2000000178814,10,1,experiment,NA,NA,0,0.9,0.1,0,1,287,7,NA
fcp-trial,337,1901151,0.0-298.0-0.0,voc_e2,12014,"[{""event"":""fullscreenenter"",""trial"":1,""time"":1152}]",NA,NA,NA,NA,NA,4,#D8271C,#741CD8,0,0,1,40,0,876.8000000119209,39,0,415.800000011921,0,0,experiment,NA,NA,1,0.7,0.3,2,3,288,7,NA
fcp-trial,338,1904143,0.0-299.0-0.0,voc_e2,12014,"[{""event"":""fullscreenenter"",""trial"":1,""time"":1152}]",NA,NA,NA,NA,NA,0,#FA92F8,#1CD855,0,0,1,38,1,811.2000000178814,39,0,673.5,0,0,experiment,NA,NA,2,0.5,0.5,4,5,289,7,NA
fcp-trial,339,1907248,0.0-300.0-0.0,voc_e2,12014,"[{""event"":""fullscreenenter"",""trial"":1,""time"":1152}]",NA,NA,NA,NA,NA,1,#D89F1C,#3386FF,0,0,0,38,1,1314.5,39,0,283.80000001192093,0,1,experiment,NA,NA,0,0.1,0.9,1,0,290,7,NA
fcp-trial,340,1910494,0.0-301.0-0.0,voc_e2,12014,"[{""event"":""fullscreenenter"",""trial"":1,""time"":1152}]",NA,NA,NA,NA,NA,3,#1CD855,#FA92F8,10,10,0,40,0,1367.7000000178814,37,1,370.7999999821186,10,0,experiment,NA,NA,2,0.5,0.5,5,4,291,7,NA
fcp-trial,341,1913432,0.0-302.0-0.0,voc_e2,12014,"[{""event"":""fullscreenenter"",""trial"":1,""time"":1152}]",NA,NA,NA,NA,NA,5,#D89F1C,#3386FF,0,10,0,40,0,939.5999999940395,37,1,491.199999988079,0,0,experiment,NA,NA,0,0.1,0.9,1,0,292,7,NA
fcp-trial,342,1916163,0.0-303.0-0.0,voc_e2,12014,"[{""event"":""fullscreenenter"",""trial"":1,""time"":1152}]",NA,NA,NA,NA,NA,5,#D8271C,#741CD8,10,10,1,40,0,823.4000000059605,39,0,400.2000000178814,10,0,experiment,NA,NA,1,0.7,0.3,2,3,293,7,NA
fcp-trial,343,1919297,0.0-304.0-0.0,voc_e2,12014,"[{""event"":""fullscreenenter"",""trial"":1,""time"":1152}]",NA,NA,NA,NA,NA,6,#D8271C,#741CD8,10,0,1,40,0,1162.2000000178814,37,1,462.40000000596046,10,1,experiment,NA,NA,1,0.7,0.3,2,3,294,7,NA
fcp-trial,344,1922450,0.0-305.0-0.0,voc_e2,12014,"[{""event"":""fullscreenenter"",""trial"":1,""time"":1152}]",NA,NA,NA,NA,NA,1,#741CD8,#D8271C,0,10,0,38,1,1353.800000011921,39,0,291.5,10,1,experiment,NA,NA,1,0.3,0.7,3,2,295,7,NA
fcp-trial,345,1925427,0.0-306.0-0.0,voc_e2,12014,"[{""event"":""fullscreenenter"",""trial"":1,""time"":1152}]",NA,NA,NA,NA,NA,4,#D8271C,#741CD8,0,0,1,40,0,1066,37,1,403.300000011921,0,1,experiment,NA,NA,1,0.7,0.3,2,3,296,7,NA
fcp-trial,346,1930173,0.0-307.0-0.0,voc_e2,12014,"[{""event"":""fullscreenenter"",""trial"":1,""time"":1152}]",NA,NA,NA,NA,NA,4,#D89F1C,#3386FF,0,10,0,38,1,2919.5999999940395,39,0,318.09999999403954,10,1,experiment,NA,NA,0,0.1,0.9,1,0,297,7,NA
fcp-trial,347,1933278,0.0-308.0-0.0,voc_e2,12014,"[{""event"":""fullscreenenter"",""trial"":1,""time"":1152}]",NA,NA,NA,NA,NA,2,#741CD8,#D8271C,0,10,0,38,1,1050.0999999940395,37,1,542.9000000059605,0,0,experiment,NA,NA,1,0.3,0.7,3,2,298,7,NA
fcp-trial,348,1936320,0.0-309.0-0.0,voc_e2,12014,"[{""event"":""fullscreenenter"",""trial"":1,""time"":1152}]",NA,NA,NA,NA,NA,0,#3386FF,#D89F1C,10,0,1,38,1,1116.2999999821186,37,1,420.2999999821186,10,1,experiment,NA,NA,0,0.9,0.1,0,1,299,7,NA
fcp-trial,349,1939146,0.0-310.0-0.0,voc_e2,12014,"[{""event"":""fullscreenenter"",""trial"":1,""time"":1152}]",NA,NA,NA,NA,NA,6,#741CD8,#D8271C,10,0,0,40,0,892.5,37,1,419.199999988079,10,0,experiment,NA,NA,1,0.3,0.7,3,2,300,7,NA
fcp-trial,350,1942028,0.0-311.0-0.0,voc_e2,12014,"[{""event"":""fullscreenenter"",""trial"":1,""time"":1152}]",NA,NA,NA,NA,NA,1,#D89F1C,#3386FF,0,0,0,38,1,1013.1000000238419,39,0,360.59999999403954,0,1,experiment,NA,NA,0,0.1,0.9,1,0,301,7,NA
fcp-trial,351,1945426,0.0-312.0-0.0,voc_e2,12014,"[{""event"":""fullscreenenter"",""trial"":1,""time"":1152}]",NA,NA,NA,NA,NA,1,#FA92F8,#1CD855,10,10,1,40,0,1515,39,0,374.2999999821186,10,0,experiment,NA,NA,2,0.5,0.5,4,5,302,7,NA
fcp-trial,352,1949056,0.0-313.0-0.0,voc_e2,12014,"[{""event"":""fullscreenenter"",""trial"":1,""time"":1152}]",NA,NA,NA,NA,NA,5,#D8271C,#741CD8,0,0,1,40,0,1468.5,37,1,654.5999999940395,0,1,experiment,NA,NA,1,0.7,0.3,2,3,303,7,NA
fcp-trial,353,1952612,0.0-314.0-0.0,voc_e2,12014,"[{""event"":""fullscreenenter"",""trial"":1,""time"":1152}]",NA,NA,NA,NA,NA,0,#1CD855,#FA92F8,0,0,0,38,1,1735.800000011921,37,1,315.2000000178814,0,0,experiment,NA,NA,2,0.5,0.5,5,4,304,7,NA
fcp-trial,354,1955341,0.0-315.0-0.0,voc_e2,12014,"[{""event"":""fullscreenenter"",""trial"":1,""time"":1152}]",NA,NA,NA,NA,NA,3,#FA92F8,#1CD855,10,0,1,40,0,849.5999999940395,39,0,374.2999999821186,0,0,experiment,NA,NA,2,0.5,0.5,4,5,305,7,NA
fcp-trial,355,1958114,0.0-316.0-0.0,voc_e2,12014,"[{""event"":""fullscreenenter"",""trial"":1,""time"":1152}]",NA,NA,NA,NA,NA,2,#D89F1C,#3386FF,0,10,0,38,1,900.3000000119209,39,0,366.39999997615814,10,1,experiment,NA,NA,0,0.1,0.9,1,0,306,7,NA
fcp-trial,356,1961224,0.0-317.0-0.0,voc_e2,12014,"[{""event"":""fullscreenenter"",""trial"":1,""time"":1152}]",NA,NA,NA,NA,NA,3,#741CD8,#D8271C,10,10,0,40,0,1224.300000011921,39,0,377.59999999403954,10,1,experiment,NA,NA,1,0.3,0.7,3,2,307,7,NA
fcp-trial,357,1964048,0.0-318.0-0.0,voc_e2,12014,"[{""event"":""fullscreenenter"",""trial"":1,""time"":1152}]",NA,NA,NA,NA,NA,3,#D89F1C,#3386FF,0,10,0,38,1,961.3000000119209,39,0,354,10,1,experiment,NA,NA,0,0.1,0.9,1,0,308,7,NA
fcp-trial,358,1968605,0.0-319.0-0.0,voc_e2,12014,"[{""event"":""fullscreenenter"",""trial"":1,""time"":1152}]",NA,NA,NA,NA,NA,5,#3386FF,#D89F1C,0,0,1,40,0,2549.800000011921,37,1,493.09999999403954,0,1,experiment,NA,NA,0,0.9,0.1,0,1,309,7,NA
fcp-trial,359,1971401,0.0-320.0-0.0,voc_e2,12014,"[{""event"":""fullscreenenter"",""trial"":1,""time"":1152}]",NA,NA,NA,NA,NA,6,#1CD855,#FA92F8,10,10,0,40,0,920.6999999880791,39,0,367,10,1,experiment,NA,NA,2,0.5,0.5,5,4,310,7,NA
fcp-trial,360,1974291,0.0-321.0-0.0,voc_e2,12014,"[{""event"":""fullscreenenter"",""trial"":1,""time"":1152}]",NA,NA,NA,NA,NA,0,#741CD8,#D8271C,0,10,0,38,1,996.0999999940395,39,0,385.09999999403954,10,1,experiment,NA,NA,1,0.3,0.7,3,2,311,7,NA
fcp-trial,361,1977335,0.0-322.0-0.0,voc_e2,12014,"[{""event"":""fullscreenenter"",""trial"":1,""time"":1152}]",NA,NA,NA,NA,NA,6,#D89F1C,#3386FF,0,10,0,40,0,1095.5,39,0,443.5,10,1,experiment,NA,NA,0,0.1,0.9,1,0,312,7,NA
fcp-trial,362,1980145,0.0-323.0-0.0,voc_e2,12014,"[{""event"":""fullscreenenter"",""trial"":1,""time"":1152}]",NA,NA,NA,NA,NA,4,#FA92F8,#1CD855,0,0,1,40,0,910.7000000178814,37,1,389.2000000178814,0,1,experiment,NA,NA,2,0.5,0.5,4,5,313,7,NA
fcp-trial,363,1982749,0.0-324.0-0.0,voc_e2,12014,"[{""event"":""fullscreenenter"",""trial"":1,""time"":1152}]",NA,NA,NA,NA,NA,2,#1CD855,#FA92F8,10,10,0,40,0,653.6999999880791,37,1,441,10,0,experiment,NA,NA,2,0.5,0.5,5,4,314,7,NA
fcp-trial,364,1985472,0.0-325.0-0.0,voc_e2,12014,"[{""event"":""fullscreenenter"",""trial"":1,""time"":1152}]",NA,NA,NA,NA,NA,5,#FA92F8,#1CD855,10,0,1,40,0,763.3999999761581,39,0,450.7999999821186,0,0,experiment,NA,NA,2,0.5,0.5,4,5,315,7,NA
audio-instructions,365,1991881,0.0-326.0,voc_e2,12014,"[{""event"":""fullscreenenter"",""trial"":1,""time"":1152}]",NA,549.1000000238419,static/audio/finished.wav,NA,0,NA,NA,NA,NA,NA,NA,NA,NA,NA,NA,NA,NA,NA,NA,NA,NA,NA,NA,NA,NA,NA,NA,NA,NA,NA
audio-instructions,366,2003240,0.0-327.0-0.0,voc_e2,12014,"[{""event"":""fullscreenenter"",""trial"":1,""time"":1152}]",NA,518.8000000119209,static/audio/explicit1.wav,NA,0,NA,NA,NA,NA,NA,NA,NA,NA,NA,NA,NA,NA,NA,NA,NA,NA,NA,NA,NA,NA,NA,NA,NA,NA,NA
audio-instructions,367,2011385,0.0-327.0-1.0,voc_e2,12014,"[{""event"":""fullscreenenter"",""trial"":1,""time"":1152}]",NA,543.7999999821186,static/audio/explicit2.wav,NA,0,NA,NA,NA,NA,NA,NA,NA,NA,NA,NA,NA,NA,NA,NA,NA,NA,NA,NA,NA,NA,NA,NA,NA,NA,NA
image-slider-response,368,2014977,0.0-328.0,voc_e2,12014,"[{""event"":""fullscreenenter"",""trial"":1,""time"":1152}]",NA,3590.2000000178814,static/img/machines/machine3.png,NA,NA,NA,NA,NA,NA,NA,NA,NA,NA,NA,NA,NA,NA,NA,NA,explicit,NA,NA,NA,NA,NA,NA,NA,NA,NA,9
image-slider-response,369,2021721,0.0-329.0,voc_e2,12014,"[{""event"":""fullscreenenter"",""trial"":1,""time"":1152}]",NA,6742.399999976158,static/img/machines/machine5.png,NA,NA,NA,NA,NA,NA,NA,NA,NA,NA,NA,NA,NA,NA,NA,NA,explicit,NA,NA,NA,NA,NA,NA,NA,NA,NA,4
image-slider-response,370,2024057,0.0-330.0,voc_e2,12014,"[{""event"":""fullscreenenter"",""trial"":1,""time"":1152}]",NA,2334.800000011921,static/img/machines/machine6.png,NA,NA,NA,NA,NA,NA,NA,NA,NA,NA,NA,NA,NA,NA,NA,NA,explicit,NA,NA,NA,NA,NA,NA,NA,NA,NA,5
image-slider-response,371,2027457,0.0-331.0,voc_e2,12014,"[{""event"":""fullscreenenter"",""trial"":1,""time"":1152}]",NA,3398.800000011921,static/img/machines/machine1.png,NA,NA,NA,NA,NA,NA,NA,NA,NA,NA,NA,NA,NA,NA,NA,NA,explicit,NA,NA,NA,NA,NA,NA,NA,NA,NA,7
image-slider-response,372,2033544,0.0-332.0,voc_e2,12014,"[{""event"":""fullscreenenter"",""trial"":1,""time"":1152}]",NA,6086.4000000059605,static/img/machines/machine2.png,NA,NA,NA,NA,NA,NA,NA,NA,NA,NA,NA,NA,NA,NA,NA,NA,explicit,NA,NA,NA,NA,NA,NA,NA,NA,NA,4
image-slider-response,373,2035952,0.0-333.0,voc_e2,12014,"[{""event"":""fullscreenenter"",""trial"":1,""time"":1152}]",NA,2407,static/img/machines/machine4.png,NA,NA,NA,NA,NA,NA,NA,NA,NA,NA,NA,NA,NA,NA,NA,NA,explicit,NA,NA,NA,NA,NA,NA,NA,NA,NA,1
