trial_type,trial_index,time_elapsed,internal_node_id,task_version,subject_id,interactions,success,rt,stimulus,key_press,button_pressed,offer,arcade_color_L,arcade_color_R,arcade_outcome_L,arcade_outcome_R,correct,stage_1_key,stage_1_choice,stage_1_rt,stage_2_key,stage_2_choice,stage_2_rt,stage_3_outcome,accuracy,phase,responses,num_errors,context,reward_prob_L,reward_prob_R,arcade_id_L,arcade_id_R,trial,block,response
pavlovia,0,5,0.0-0.0,voc_e2,11757,[],NA,NA,NA,NA,NA,NA,NA,NA,NA,NA,NA,NA,NA,NA,NA,NA,NA,NA,NA,NA,NA,NA,NA,NA,NA,NA,NA,NA,NA,NA
fullscreen,1,5329,0.0-1.0,voc_e2,11757,"[{""event"":""fullscreenenter"",""trial"":1,""time"":4293}]",TRUE,NA,NA,NA,NA,NA,NA,NA,NA,NA,NA,NA,NA,NA,NA,NA,NA,NA,NA,NA,NA,NA,NA,NA,NA,NA,NA,NA,NA,NA
audio-keyboard-response,2,12831,0.0-2.0,voc_e2,11757,"[{""event"":""fullscreenenter"",""trial"":1,""time"":4293}]",NA,7036,static/audio/beep_loop.wav,32,NA,NA,NA,NA,NA,NA,NA,NA,NA,NA,NA,NA,NA,NA,NA,NA,NA,NA,NA,NA,NA,NA,NA,NA,NA,NA
audio-test,3,15422,0.0-3.0,voc_e2,11757,"[{""event"":""fullscreenenter"",""trial"":1,""time"":4293}]",NA,NA,static/audio/turtle.wav,NA,3,NA,NA,NA,NA,NA,NA,NA,NA,NA,NA,NA,NA,NA,NA,NA,NA,NA,NA,NA,NA,NA,NA,NA,NA,NA
audio-test,4,17547,0.0-4.0,voc_e2,11757,"[{""event"":""fullscreenenter"",""trial"":1,""time"":4293}]",NA,NA,static/audio/shark.wav,NA,2,NA,NA,NA,NA,NA,NA,NA,NA,NA,NA,NA,NA,NA,NA,NA,NA,NA,NA,NA,NA,NA,NA,NA,NA,NA
audio-instructions,5,25235,0.0-5.0-0.0,voc_e2,11757,"[{""event"":""fullscreenenter"",""trial"":1,""time"":4293}]",NA,1898.20000000298,static/audio/instructions1.wav,NA,0,NA,NA,NA,NA,NA,NA,NA,NA,NA,NA,NA,NA,NA,NA,NA,NA,NA,NA,NA,NA,NA,NA,NA,NA,NA
audio-instructions,6,36002,0.0-5.0-1.0,voc_e2,11757,"[{""event"":""fullscreenenter"",""trial"":1,""time"":4293}]",NA,4023,static/audio/instructions2.wav,NA,0,NA,NA,NA,NA,NA,NA,NA,NA,NA,NA,NA,NA,NA,NA,NA,NA,NA,NA,NA,NA,NA,NA,NA,NA,NA
audio-instructions,7,43625,0.0-5.0-2.0,voc_e2,11757,"[{""event"":""fullscreenenter"",""trial"":1,""time"":4293}]",NA,1818,static/audio/instructions3.wav,NA,0,NA,NA,NA,NA,NA,NA,NA,NA,NA,NA,NA,NA,NA,NA,NA,NA,NA,NA,NA,NA,NA,NA,NA,NA,NA
audio-instructions,8,58940,0.0-5.0-3.0,voc_e2,11757,"[{""event"":""fullscreenenter"",""trial"":1,""time"":4293}]",NA,2086.10000000149,static/audio/instructions4.wav,NA,0,NA,NA,NA,NA,NA,NA,NA,NA,NA,NA,NA,NA,NA,NA,NA,NA,NA,NA,NA,NA,NA,NA,NA,NA,NA
audio-instructions,9,69017,0.0-5.0-4.0,voc_e2,11757,"[{""event"":""fullscreenenter"",""trial"":1,""time"":4293}]",NA,692.6000000014901,static/audio/instructions5.wav,NA,0,NA,NA,NA,NA,NA,NA,NA,NA,NA,NA,NA,NA,NA,NA,NA,NA,NA,NA,NA,NA,NA,NA,NA,NA,NA
fcp-practice,10,71714,0.0-5.0-5.0-0.0,voc_e2,11757,"[{""event"":""fullscreenenter"",""trial"":1,""time"":4293}]",NA,NA,NA,NA,NA,NA,#EDC948,#46d3c8,10,0,1,null,null,null,37,1,1179.7000000029802,10,1,practice,NA,NA,NA,NA,NA,NA,NA,NA,NA,NA
fcp-practice,11,74115,0.0-5.0-5.0-1.0,voc_e2,11757,"[{""event"":""fullscreenenter"",""trial"":1,""time"":4293}]",NA,NA,NA,NA,NA,NA,#EDC948,#46d3c8,10,0,1,null,null,null,37,1,896,10,1,practice,NA,NA,NA,NA,NA,NA,NA,NA,NA,NA
fcp-practice,12,76115,0.0-5.0-5.0-2.0,voc_e2,11757,"[{""event"":""fullscreenenter"",""trial"":1,""time"":4293}]",NA,NA,NA,NA,NA,NA,#EDC948,#46d3c8,0,10,1,null,null,null,37,1,493.29999999701977,0,1,practice,NA,NA,NA,NA,NA,NA,NA,NA,NA,NA
fcp-practice,13,77665,0.0-5.0-5.0-3.0,voc_e2,11757,"[{""event"":""fullscreenenter"",""trial"":1,""time"":4293}]",NA,NA,NA,NA,NA,NA,#EDC948,#46d3c8,10,0,1,null,null,null,37,1,43.5,10,1,practice,NA,NA,NA,NA,NA,NA,NA,NA,NA,NA
fcp-practice,14,80346,0.0-5.0-5.0-4.0,voc_e2,11757,"[{""event"":""fullscreenenter"",""trial"":1,""time"":4293}]",NA,NA,NA,NA,NA,NA,#EDC948,#46d3c8,10,0,1,null,null,null,37,1,1175.8999999985099,10,1,practice,NA,NA,NA,NA,NA,NA,NA,NA,NA,NA
audio-instructions,15,99649,0.0-5.0-6.0,voc_e2,11757,"[{""event"":""fullscreenenter"",""trial"":1,""time"":4293}]",NA,1295.39999999851,static/audio/instructions6.wav,NA,0,NA,NA,NA,NA,NA,NA,NA,NA,NA,NA,NA,NA,NA,NA,NA,NA,NA,NA,NA,NA,NA,NA,NA,NA,NA
audio-instructions,16,119874,0.0-5.0-7.0,voc_e2,11757,"[{""event"":""fullscreenenter"",""trial"":1,""time"":4293}]",NA,1022.5999999940396,static/audio/instructions7.wav,NA,0,NA,NA,NA,NA,NA,NA,NA,NA,NA,NA,NA,NA,NA,NA,NA,NA,NA,NA,NA,NA,NA,NA,NA,NA,NA
audio-instructions,17,132084,0.0-5.0-8.0,voc_e2,11757,"[{""event"":""fullscreenenter"",""trial"":1,""time"":4293}]",NA,2737.79999999702,static/audio/instructions8.wav,NA,0,NA,NA,NA,NA,NA,NA,NA,NA,NA,NA,NA,NA,NA,NA,NA,NA,NA,NA,NA,NA,NA,NA,NA,NA,NA
fcp-comprehension,18,145782,0.0-5.0-9.0,voc_e2,11757,"[{""event"":""fullscreenenter"",""trial"":1,""time"":4293}]",NA,13695.80000000447,NA,NA,NA,NA,NA,NA,NA,NA,NA,NA,NA,NA,NA,NA,NA,NA,NA,NA,"true,true",0,NA,NA,NA,NA,NA,NA,NA,NA
audio-instructions,19,153413,0.0-6.0-0.0,voc_e2,11757,"[{""event"":""fullscreenenter"",""trial"":1,""time"":4293}]",NA,2077.29999999702,static/audio/instructions9.wav,NA,0,NA,NA,NA,NA,NA,NA,NA,NA,NA,NA,NA,NA,NA,NA,NA,NA,NA,NA,NA,NA,NA,NA,NA,NA,NA
audio-instructions,20,167263,0.0-6.0-1.0,voc_e2,11757,"[{""event"":""fullscreenenter"",""trial"":1,""time"":4293}]",NA,1728.60000000149,static/audio/instructions10.wav,NA,0,NA,NA,NA,NA,NA,NA,NA,NA,NA,NA,NA,NA,NA,NA,NA,NA,NA,NA,NA,NA,NA,NA,NA,NA,NA
fcp-trial,21,182271,0.0-6.0-2.0,voc_e2,11757,"[{""event"":""fullscreenenter"",""trial"":1,""time"":4293}]",NA,NA,NA,NA,NA,0,#EDC948,#46d3c8,10,10,1,null,null,null,null,null,null,NA,0,practice,NA,NA,NA,NA,NA,NA,NA,NA,NA,NA
audio-instructions,22,196612,0.0-6.0-3.0,voc_e2,11757,"[{""event"":""fullscreenenter"",""trial"":1,""time"":4293}]",NA,3329.20000000298,static/audio/instructions11.wav,NA,0,NA,NA,NA,NA,NA,NA,NA,NA,NA,NA,NA,NA,NA,NA,NA,NA,NA,NA,NA,NA,NA,NA,NA,NA,NA
fcp-trial,23,201670,0.0-6.0-4.0,voc_e2,11757,"[{""event"":""fullscreenenter"",""trial"":1,""time"":4293}]",NA,NA,NA,NA,NA,6,#EDC948,#46d3c8,10,10,1,40,0,1382.5,39,0,2162.6999999955297,10,0,practice,NA,NA,NA,NA,NA,NA,NA,NA,NA,NA
audio-instructions,24,222271,0.0-6.0-5.0,voc_e2,11757,"[{""event"":""fullscreenenter"",""trial"":1,""time"":4293}]",NA,1907.60000000149,static/audio/instructions12.wav,NA,0,NA,NA,NA,NA,NA,NA,NA,NA,NA,NA,NA,NA,NA,NA,NA,NA,NA,NA,NA,NA,NA,NA,NA,NA,NA
audio-instructions,25,230879,0.0-6.0-6.0,voc_e2,11757,"[{""event"":""fullscreenenter"",""trial"":1,""time"":4293}]",NA,1012.89999999851,static/audio/instructions13.wav,NA,0,NA,NA,NA,NA,NA,NA,NA,NA,NA,NA,NA,NA,NA,NA,NA,NA,NA,NA,NA,NA,NA,NA,NA,NA,NA
audio-instructions,26,240693,0.0-6.0-7.0,voc_e2,11757,"[{""event"":""fullscreenenter"",""trial"":1,""time"":4293}]",NA,1365.7000000029802,static/audio/instructions14.wav,NA,0,NA,NA,NA,NA,NA,NA,NA,NA,NA,NA,NA,NA,NA,NA,NA,NA,NA,NA,NA,NA,NA,NA,NA,NA,NA
audio-instructions,27,254561,0.0-7.0-0.0,voc_e2,11757,"[{""event"":""fullscreenenter"",""trial"":1,""time"":4293}]",NA,6955,static/audio/instructions15.wav,NA,0,NA,NA,NA,NA,NA,NA,NA,NA,NA,NA,NA,NA,NA,NA,NA,NA,NA,NA,NA,NA,NA,NA,NA,NA,NA
audio-instructions,28,262189,0.0-7.0-1.0,voc_e2,11757,"[{""event"":""fullscreenenter"",""trial"":1,""time"":4293}]",NA,802.2999999970198,static/audio/instructions16.wav,NA,0,NA,NA,NA,NA,NA,NA,NA,NA,NA,NA,NA,NA,NA,NA,NA,NA,NA,NA,NA,NA,NA,NA,NA,NA,NA
audio-instructions,29,270744,0.0-7.0-2.0,voc_e2,11757,"[{""event"":""fullscreenenter"",""trial"":1,""time"":4293}]",NA,876.3999999985099,static/audio/instructions17.wav,NA,0,NA,NA,NA,NA,NA,NA,NA,NA,NA,NA,NA,NA,NA,NA,NA,NA,NA,NA,NA,NA,NA,NA,NA,NA,NA
audio-instructions,30,279694,0.0-7.0-3.0,voc_e2,11757,"[{""event"":""fullscreenenter"",""trial"":1,""time"":4293}]",NA,1148.60000000149,static/audio/instructions18.wav,NA,0,NA,NA,NA,NA,NA,NA,NA,NA,NA,NA,NA,NA,NA,NA,NA,NA,NA,NA,NA,NA,NA,NA,NA,NA,NA
audio-instructions,31,287071,0.0-7.0-4.0,voc_e2,11757,"[{""event"":""fullscreenenter"",""trial"":1,""time"":4293}]",NA,631.5999999940395,static/audio/instructions19.wav,NA,0,NA,NA,NA,NA,NA,NA,NA,NA,NA,NA,NA,NA,NA,NA,NA,NA,NA,NA,NA,NA,NA,NA,NA,NA,NA
fcp-comprehension,32,318269,0.0-7.0-5.0,voc_e2,11757,"[{""event"":""fullscreenenter"",""trial"":1,""time"":4293}]",NA,31196,NA,NA,NA,NA,NA,NA,NA,NA,NA,NA,NA,NA,NA,NA,NA,NA,NA,NA,"false,false,false,true",0,NA,NA,NA,NA,NA,NA,NA,NA
audio-instructions,33,330647,0.0-8.0,voc_e2,11757,"[{""event"":""fullscreenenter"",""trial"":1,""time"":4293}]",NA,3147.79999999702,static/audio/ready.wav,NA,0,NA,NA,NA,NA,NA,NA,NA,NA,NA,NA,NA,NA,NA,NA,NA,NA,NA,NA,NA,NA,NA,NA,NA,NA,NA
fcp-trial,34,335978,0.0-9.0-0.0,voc_e2,11757,"[{""event"":""fullscreenenter"",""trial"":1,""time"":4293}]",NA,NA,NA,NA,NA,6,#1CD855,#FA92F8,0,10,1,40,0,2475.39999999851,37,1,1335.2999999970198,0,1,experiment,NA,NA,1,0.7,0.3,2,3,1,1,NA
fcp-trial,35,340457,0.0-10.0-0.0,voc_e2,11757,"[{""event"":""fullscreenenter"",""trial"":1,""time"":4293}]",NA,NA,NA,NA,NA,0,#D8271C,#741CD8,10,10,1,40,0,2018.8000000044703,39,0,946.3999999985099,10,0,experiment,NA,NA,0,0.9,0.1,0,1,2,1,NA
fcp-trial,36,343809,0.0-11.0-0.0,voc_e2,11757,"[{""event"":""fullscreenenter"",""trial"":1,""time"":4293}]",NA,NA,NA,NA,NA,2,#3386FF,#D89F1C,0,10,1,40,0,902.1000000014901,39,0,938.1000000014901,10,0,experiment,NA,NA,2,0.5,0.5,4,5,3,1,NA
fcp-trial,37,347977,0.0-12.0-0.0,voc_e2,11757,"[{""event"":""fullscreenenter"",""trial"":1,""time"":4293}]",NA,NA,NA,NA,NA,5,#1CD855,#FA92F8,10,0,1,40,0,1113.2000000029802,39,0,1547,0,0,experiment,NA,NA,1,0.7,0.3,2,3,4,1,NA
fcp-trial,38,352298,0.0-13.0-0.0,voc_e2,11757,"[{""event"":""fullscreenenter"",""trial"":1,""time"":4293}]",NA,NA,NA,NA,NA,1,#D8271C,#741CD8,10,0,1,40,0,1297.3999999985099,37,1,1516.9000000059605,10,1,experiment,NA,NA,0,0.9,0.1,0,1,5,1,NA
fcp-trial,39,356803,0.0-14.0-0.0,voc_e2,11757,"[{""event"":""fullscreenenter"",""trial"":1,""time"":4293}]",NA,NA,NA,NA,NA,4,#D89F1C,#3386FF,0,0,0,40,0,1224.9000000059605,37,1,1767.8999999985099,0,0,experiment,NA,NA,2,0.5,0.5,5,4,6,1,NA
fcp-trial,40,361501,0.0-15.0-0.0,voc_e2,11757,"[{""event"":""fullscreenenter"",""trial"":1,""time"":4293}]",NA,NA,NA,NA,NA,1,#3386FF,#D89F1C,0,10,1,40,0,1386.6000000014901,37,1,1801.1000000014901,0,1,experiment,NA,NA,2,0.5,0.5,4,5,7,1,NA
fcp-trial,41,365167,0.0-16.0-0.0,voc_e2,11757,"[{""event"":""fullscreenenter"",""trial"":1,""time"":4293}]",NA,NA,NA,NA,NA,4,#D8271C,#741CD8,10,0,1,40,0,650.9000000059605,39,0,1508.7999999970198,0,0,experiment,NA,NA,0,0.9,0.1,0,1,8,1,NA
fcp-trial,42,368139,0.0-17.0-0.0,voc_e2,11757,"[{""event"":""fullscreenenter"",""trial"":1,""time"":4293}]",NA,NA,NA,NA,NA,3,#FA92F8,#1CD855,0,0,0,38,1,682.6999999955297,37,1,780.5999999940395,0,0,experiment,NA,NA,1,0.3,0.7,3,2,9,1,NA
fcp-trial,43,371505,0.0-18.0-0.0,voc_e2,11757,"[{""event"":""fullscreenenter"",""trial"":1,""time"":4293}]",NA,NA,NA,NA,NA,6,#741CD8,#D8271C,10,10,0,40,0,1277.3999999985099,39,0,582.1000000014901,10,1,experiment,NA,NA,0,0.1,0.9,1,0,10,1,NA
fcp-trial,44,375127,0.0-19.0-0.0,voc_e2,11757,"[{""event"":""fullscreenenter"",""trial"":1,""time"":4293}]",NA,NA,NA,NA,NA,2,#FA92F8,#1CD855,0,10,0,40,0,1249.8000000044703,39,0,865.1000000014901,10,1,experiment,NA,NA,1,0.3,0.7,3,2,11,1,NA
fcp-trial,45,378246,0.0-20.0-0.0,voc_e2,11757,"[{""event"":""fullscreenenter"",""trial"":1,""time"":4293}]",NA,NA,NA,NA,NA,5,#D89F1C,#3386FF,0,0,0,40,0,844.1000000014901,39,0,769.3999999985099,0,1,experiment,NA,NA,2,0.5,0.5,5,4,12,1,NA
fcp-trial,46,382105,0.0-21.0-0.0,voc_e2,11757,"[{""event"":""fullscreenenter"",""trial"":1,""time"":4293}]",NA,NA,NA,NA,NA,4,#FA92F8,#1CD855,0,10,0,40,0,1389.3000000044703,39,0,958.5,10,1,experiment,NA,NA,1,0.3,0.7,3,2,13,1,NA
fcp-trial,47,385802,0.0-22.0-0.0,voc_e2,11757,"[{""event"":""fullscreenenter"",""trial"":1,""time"":4293}]",NA,NA,NA,NA,NA,0,#1CD855,#FA92F8,10,0,1,40,0,807.7999999970198,37,1,1379.1000000014901,10,1,experiment,NA,NA,1,0.7,0.3,2,3,14,1,NA
fcp-trial,48,389467,0.0-23.0-0.0,voc_e2,11757,"[{""event"":""fullscreenenter"",""trial"":1,""time"":4293}]",NA,NA,NA,NA,NA,3,#741CD8,#D8271C,0,10,0,40,0,668.5,39,0,1487.0999999940395,10,1,experiment,NA,NA,0,0.1,0.9,1,0,15,1,NA
fcp-trial,49,392399,0.0-24.0-0.0,voc_e2,11757,"[{""event"":""fullscreenenter"",""trial"":1,""time"":4293}]",NA,NA,NA,NA,NA,0,#3386FF,#D89F1C,0,0,1,40,0,589.3999999985099,39,0,730.6000000014901,0,0,experiment,NA,NA,2,0.5,0.5,4,5,16,1,NA
fcp-trial,50,395949,0.0-25.0-0.0,voc_e2,11757,"[{""event"":""fullscreenenter"",""trial"":1,""time"":4293}]",NA,NA,NA,NA,NA,3,#D89F1C,#3386FF,10,0,0,40,0,949,39,0,1094.7000000029802,0,1,experiment,NA,NA,2,0.5,0.5,5,4,17,1,NA
fcp-trial,51,398941,0.0-26.0-0.0,voc_e2,11757,"[{""event"":""fullscreenenter"",""trial"":1,""time"":4293}]",NA,NA,NA,NA,NA,5,#D8271C,#741CD8,0,0,1,40,0,810.1999999955297,37,1,674.8999999985099,0,1,experiment,NA,NA,0,0.9,0.1,0,1,18,1,NA
fcp-trial,52,402255,0.0-27.0-0.0,voc_e2,11757,"[{""event"":""fullscreenenter"",""trial"":1,""time"":4293}]",NA,NA,NA,NA,NA,1,#1CD855,#FA92F8,0,0,1,40,0,1209.8000000044703,39,0,594.8999999985099,0,0,experiment,NA,NA,1,0.7,0.3,2,3,19,1,NA
fcp-trial,53,405125,0.0-28.0-0.0,voc_e2,11757,"[{""event"":""fullscreenenter"",""trial"":1,""time"":4293}]",NA,NA,NA,NA,NA,6,#3386FF,#D89F1C,10,10,1,40,0,726.8000000044703,39,0,638.5999999940395,10,0,experiment,NA,NA,2,0.5,0.5,4,5,20,1,NA
fcp-trial,54,408486,0.0-29.0-0.0,voc_e2,11757,"[{""event"":""fullscreenenter"",""trial"":1,""time"":4293}]",NA,NA,NA,NA,NA,2,#741CD8,#D8271C,0,10,0,40,0,1240.0999999940395,39,0,616,10,1,experiment,NA,NA,0,0.1,0.9,1,0,21,1,NA
fcp-trial,55,411398,0.0-30.0-0.0,voc_e2,11757,"[{""event"":""fullscreenenter"",""trial"":1,""time"":4293}]",NA,NA,NA,NA,NA,1,#3386FF,#D89F1C,10,0,1,40,0,836.5,39,0,567,0,0,experiment,NA,NA,2,0.5,0.5,4,5,22,1,NA
fcp-trial,56,414433,0.0-31.0-0.0,voc_e2,11757,"[{""event"":""fullscreenenter"",""trial"":1,""time"":4293}]",NA,NA,NA,NA,NA,2,#FA92F8,#1CD855,0,10,0,40,0,575.1999999955297,37,1,949.8999999985099,0,0,experiment,NA,NA,1,0.3,0.7,3,2,23,1,NA
fcp-trial,57,416996,0.0-32.0-0.0,voc_e2,11757,"[{""event"":""fullscreenenter"",""trial"":1,""time"":4293}]",NA,NA,NA,NA,NA,2,#D8271C,#741CD8,10,0,1,40,0,483.79999999701977,39,0,568,0,0,experiment,NA,NA,0,0.9,0.1,0,1,24,1,NA
fcp-trial,58,419699,0.0-33.0-0.0,voc_e2,11757,"[{""event"":""fullscreenenter"",""trial"":1,""time"":4293}]",NA,NA,NA,NA,NA,4,#FA92F8,#1CD855,0,10,0,38,1,493.3999999985099,37,1,703.7999999970198,0,0,experiment,NA,NA,1,0.3,0.7,3,2,25,1,NA
fcp-trial,59,422718,0.0-34.0-0.0,voc_e2,11757,"[{""event"":""fullscreenenter"",""trial"":1,""time"":4293}]",NA,NA,NA,NA,NA,3,#D8271C,#741CD8,10,0,1,38,1,976.8999999985099,39,0,536.3999999985099,0,0,experiment,NA,NA,0,0.9,0.1,0,1,26,1,NA
fcp-trial,60,426621,0.0-35.0-0.0,voc_e2,11757,"[{""event"":""fullscreenenter"",""trial"":1,""time"":4293}]",NA,NA,NA,NA,NA,2,#3386FF,#D89F1C,10,10,1,40,0,1298.6000000014901,39,0,1085.3999999985099,10,0,experiment,NA,NA,2,0.5,0.5,4,5,27,1,NA
fcp-trial,61,429330,0.0-36.0-0.0,voc_e2,11757,"[{""event"":""fullscreenenter"",""trial"":1,""time"":4293}]",NA,NA,NA,NA,NA,1,#D8271C,#741CD8,0,0,1,38,1,569.5,37,1,633.8999999985099,0,1,experiment,NA,NA,0,0.9,0.1,0,1,28,1,NA
fcp-trial,62,431889,0.0-37.0-0.0,voc_e2,11757,"[{""event"":""fullscreenenter"",""trial"":1,""time"":4293}]",NA,NA,NA,NA,NA,6,#1CD855,#FA92F8,10,0,1,40,0,570.7999999970198,39,0,482.3999999985099,0,0,experiment,NA,NA,1,0.7,0.3,2,3,29,1,NA
fcp-trial,63,434899,0.0-38.0-0.0,voc_e2,11757,"[{""event"":""fullscreenenter"",""trial"":1,""time"":4293}]",NA,NA,NA,NA,NA,3,#D89F1C,#3386FF,0,10,0,40,0,949.9000000059605,39,0,545.1000000014901,10,1,experiment,NA,NA,2,0.5,0.5,5,4,30,1,NA
fcp-trial,64,440607,0.0-39.0-0.0,voc_e2,11757,"[{""event"":""fullscreenenter"",""trial"":1,""time"":4293}]",NA,NA,NA,NA,NA,5,#D8271C,#741CD8,10,0,1,38,1,1538.8999999985099,37,1,2648.2000000029802,10,1,experiment,NA,NA,0,0.9,0.1,0,1,31,1,NA
fcp-trial,65,443793,0.0-40.0-0.0,voc_e2,11757,"[{""event"":""fullscreenenter"",""trial"":1,""time"":4293}]",NA,NA,NA,NA,NA,6,#3386FF,#D89F1C,0,0,1,40,0,1184.3000000044703,39,0,495,0,0,experiment,NA,NA,2,0.5,0.5,4,5,32,1,NA
fcp-trial,66,448038,0.0-41.0-0.0,voc_e2,11757,"[{""event"":""fullscreenenter"",""trial"":1,""time"":4293}]",NA,NA,NA,NA,NA,3,#FA92F8,#1CD855,0,0,0,40,0,2177.39999999851,39,0,556.5,0,1,experiment,NA,NA,1,0.3,0.7,3,2,33,1,NA
fcp-trial,67,450546,0.0-42.0-0.0,voc_e2,11757,"[{""event"":""fullscreenenter"",""trial"":1,""time"":4293}]",NA,NA,NA,NA,NA,0,#741CD8,#D8271C,0,0,0,38,1,583.5,37,1,418.1000000014901,0,0,experiment,NA,NA,0,0.1,0.9,1,0,34,1,NA
fcp-trial,68,452745,0.0-43.0-0.0,voc_e2,11757,"[{""event"":""fullscreenenter"",""trial"":1,""time"":4293}]",NA,NA,NA,NA,NA,4,#D89F1C,#3386FF,0,10,0,40,0,146.5,39,0,543.2000000029802,10,1,experiment,NA,NA,2,0.5,0.5,5,4,35,1,NA
fcp-trial,69,456340,0.0-44.0-0.0,voc_e2,11757,"[{""event"":""fullscreenenter"",""trial"":1,""time"":4293}]",NA,NA,NA,NA,NA,0,#1CD855,#FA92F8,0,0,1,40,0,627.3000000044703,37,1,1458,0,1,experiment,NA,NA,1,0.7,0.3,2,3,36,1,NA
fcp-trial,70,460817,0.0-45.0-0.0,voc_e2,11757,"[{""event"":""fullscreenenter"",""trial"":1,""time"":4293}]",NA,NA,NA,NA,NA,6,#D8271C,#741CD8,0,0,1,40,0,2154.89999999851,37,1,813.1000000014901,0,1,experiment,NA,NA,0,0.9,0.1,0,1,37,1,NA
fcp-trial,71,463779,0.0-46.0-0.0,voc_e2,11757,"[{""event"":""fullscreenenter"",""trial"":1,""time"":4293}]",NA,NA,NA,NA,NA,0,#3386FF,#D89F1C,10,0,1,40,0,828.2000000029802,39,0,623.7000000029802,0,0,experiment,NA,NA,2,0.5,0.5,4,5,38,1,NA
fcp-trial,72,466637,0.0-47.0-0.0,voc_e2,11757,"[{""event"":""fullscreenenter"",""trial"":1,""time"":4293}]",NA,NA,NA,NA,NA,5,#FA92F8,#1CD855,0,0,0,40,0,447.59999999403954,39,0,903.1000000014901,0,1,experiment,NA,NA,1,0.3,0.7,3,2,39,1,NA
fcp-trial,73,469803,0.0-48.0-0.0,voc_e2,11757,"[{""event"":""fullscreenenter"",""trial"":1,""time"":4293}]",NA,NA,NA,NA,NA,4,#D8271C,#741CD8,0,0,1,40,0,917.1000000014901,37,1,719.3000000044703,0,1,experiment,NA,NA,0,0.9,0.1,0,1,40,1,NA
fcp-trial,74,472403,0.0-49.0-0.0,voc_e2,11757,"[{""event"":""fullscreenenter"",""trial"":1,""time"":4293}]",NA,NA,NA,NA,NA,1,#FA92F8,#1CD855,0,10,0,40,0,580.3000000044703,39,0,514.2000000029802,10,1,experiment,NA,NA,1,0.3,0.7,3,2,41,1,NA
fcp-trial,75,475525,0.0-50.0-0.0,voc_e2,11757,"[{""event"":""fullscreenenter"",""trial"":1,""time"":4293}]",NA,NA,NA,NA,NA,5,#3386FF,#D89F1C,10,0,1,40,0,833.3999999985099,39,0,779.6000000014901,0,0,experiment,NA,NA,2,0.5,0.5,4,5,42,1,NA
fcp-trial,76,478558,0.0-51.0-0.0,voc_e2,11757,"[{""event"":""fullscreenenter"",""trial"":1,""time"":4293}]",NA,NA,NA,NA,NA,1,#FA92F8,#1CD855,10,10,0,40,0,974.5,39,0,551.8999999985099,10,1,experiment,NA,NA,1,0.3,0.7,3,2,43,1,NA
fcp-trial,77,482720,0.0-52.0-0.0,voc_e2,11757,"[{""event"":""fullscreenenter"",""trial"":1,""time"":4293}]",NA,NA,NA,NA,NA,0,#3386FF,#D89F1C,10,0,1,40,0,1883.8999999985099,39,0,772.3999999985099,0,0,experiment,NA,NA,2,0.5,0.5,4,5,44,1,NA
fcp-trial,78,485678,0.0-53.0-0.0,voc_e2,11757,"[{""event"":""fullscreenenter"",""trial"":1,""time"":4293}]",NA,NA,NA,NA,NA,2,#741CD8,#D8271C,0,10,0,40,0,544.3999999985099,39,0,905.1000000014901,10,1,experiment,NA,NA,0,0.1,0.9,1,0,45,1,NA
fcp-trial,79,488965,0.0-54.0-0.0,voc_e2,11757,"[{""event"":""fullscreenenter"",""trial"":1,""time"":4293}]",NA,NA,NA,NA,NA,1,#3386FF,#D89F1C,0,0,1,40,0,896.3999999985099,39,0,878.2000000029802,0,0,experiment,NA,NA,2,0.5,0.5,4,5,46,2,NA
fcp-trial,80,491982,0.0-55.0-0.0,voc_e2,11757,"[{""event"":""fullscreenenter"",""trial"":1,""time"":4293}]",NA,NA,NA,NA,NA,0,#D8271C,#741CD8,10,0,1,40,0,705.3999999985099,37,1,800.1000000014901,10,1,experiment,NA,NA,0,0.9,0.1,0,1,47,2,NA
fcp-trial,81,494950,0.0-56.0-0.0,voc_e2,11757,"[{""event"":""fullscreenenter"",""trial"":1,""time"":4293}]",NA,NA,NA,NA,NA,4,#1CD855,#FA92F8,10,0,1,40,0,642.5,39,0,818.7999999970198,0,0,experiment,NA,NA,1,0.7,0.3,2,3,48,2,NA
fcp-trial,82,497516,0.0-57.0-0.0,voc_e2,11757,"[{""event"":""fullscreenenter"",""trial"":1,""time"":4293}]",NA,NA,NA,NA,NA,2,#3386FF,#D89F1C,10,10,1,40,0,296.19999999552965,39,0,758.7999999970198,10,0,experiment,NA,NA,2,0.5,0.5,4,5,49,2,NA
fcp-trial,83,500668,0.0-58.0-0.0,voc_e2,11757,"[{""event"":""fullscreenenter"",""trial"":1,""time"":4293}]",NA,NA,NA,NA,NA,1,#741CD8,#D8271C,0,10,0,40,0,750.5,37,1,895.1999999955297,0,0,experiment,NA,NA,0,0.1,0.9,1,0,50,2,NA
fcp-trial,84,505084,0.0-59.0-0.0,voc_e2,11757,"[{""event"":""fullscreenenter"",""trial"":1,""time"":4293}]",NA,NA,NA,NA,NA,6,#1CD855,#FA92F8,0,10,1,40,0,912.5,37,1,1997.2000000029802,0,1,experiment,NA,NA,1,0.7,0.3,2,3,51,2,NA
fcp-trial,85,509045,0.0-60.0-0.0,voc_e2,11757,"[{""event"":""fullscreenenter"",""trial"":1,""time"":4293}]",NA,NA,NA,NA,NA,4,#3386FF,#D89F1C,10,0,1,40,0,611,37,1,1839.7000000029802,10,1,experiment,NA,NA,2,0.5,0.5,4,5,52,2,NA
fcp-trial,86,511707,0.0-61.0-0.0,voc_e2,11757,"[{""event"":""fullscreenenter"",""trial"":1,""time"":4293}]",NA,NA,NA,NA,NA,5,#741CD8,#D8271C,0,10,0,38,1,497.20000000298023,39,0,655.0999999940395,10,1,experiment,NA,NA,0,0.1,0.9,1,0,53,2,NA
fcp-trial,87,515292,0.0-62.0-0.0,voc_e2,11757,"[{""event"":""fullscreenenter"",""trial"":1,""time"":4293}]",NA,NA,NA,NA,NA,3,#1CD855,#FA92F8,10,10,1,40,0,1377.3999999985099,37,1,703.1000000014901,10,1,experiment,NA,NA,1,0.7,0.3,2,3,54,2,NA
fcp-trial,88,518772,0.0-63.0-0.0,voc_e2,11757,"[{""event"":""fullscreenenter"",""trial"":1,""time"":4293}]",NA,NA,NA,NA,NA,3,#D8271C,#741CD8,10,0,1,40,0,1112.3999999985099,37,1,859.5,10,1,experiment,NA,NA,0,0.9,0.1,0,1,55,2,NA
fcp-trial,89,523152,0.0-64.0-0.0,voc_e2,11757,"[{""event"":""fullscreenenter"",""trial"":1,""time"":4293}]",NA,NA,NA,NA,NA,5,#3386FF,#D89F1C,0,10,1,40,0,1763.7999999970198,39,0,1105.7999999970198,10,0,experiment,NA,NA,2,0.5,0.5,4,5,56,2,NA
fcp-trial,90,527502,0.0-65.0-0.0,voc_e2,11757,"[{""event"":""fullscreenenter"",""trial"":1,""time"":4293}]",NA,NA,NA,NA,NA,0,#1CD855,#FA92F8,10,0,1,40,0,901.1000000014901,39,0,1938.2000000029802,0,0,experiment,NA,NA,1,0.7,0.3,2,3,57,2,NA
fcp-trial,91,532129,0.0-66.0-0.0,voc_e2,11757,"[{""event"":""fullscreenenter"",""trial"":1,""time"":4293}]",NA,NA,NA,NA,NA,5,#1CD855,#FA92F8,10,0,1,40,0,2497.5,37,1,617.3000000044703,10,1,experiment,NA,NA,1,0.7,0.3,2,3,58,2,NA
fcp-trial,92,537463,0.0-67.0-0.0,voc_e2,11757,"[{""event"":""fullscreenenter"",""trial"":1,""time"":4293}]",NA,NA,NA,NA,NA,3,#3386FF,#D89F1C,10,10,1,40,0,2987.2000000029802,39,0,838.7000000029802,10,0,experiment,NA,NA,2,0.5,0.5,4,5,59,2,NA
fcp-trial,93,540767,0.0-68.0-0.0,voc_e2,11757,"[{""event"":""fullscreenenter"",""trial"":1,""time"":4293}]",NA,NA,NA,NA,NA,6,#741CD8,#D8271C,0,10,0,40,0,985.7999999970198,39,0,809.2000000029802,10,1,experiment,NA,NA,0,0.1,0.9,1,0,60,2,NA
fcp-trial,94,543803,0.0-69.0-0.0,voc_e2,11757,"[{""event"":""fullscreenenter"",""trial"":1,""time"":4293}]",NA,NA,NA,NA,NA,2,#1CD855,#FA92F8,10,0,1,40,0,785.7999999970198,37,1,743.1000000014901,10,1,experiment,NA,NA,1,0.7,0.3,2,3,61,2,NA
fcp-trial,95,547340,0.0-70.0-0.0,voc_e2,11757,"[{""event"":""fullscreenenter"",""trial"":1,""time"":4293}]",NA,NA,NA,NA,NA,6,#3386FF,#D89F1C,10,0,1,40,0,562.7999999970198,37,1,1468.5,10,1,experiment,NA,NA,2,0.5,0.5,4,5,62,2,NA
fcp-trial,96,550959,0.0-71.0-0.0,voc_e2,11757,"[{""event"":""fullscreenenter"",""trial"":1,""time"":4293}]",NA,NA,NA,NA,NA,4,#D8271C,#741CD8,10,0,1,40,0,1201.1000000014901,37,1,905.6999999955297,10,1,experiment,NA,NA,0,0.9,0.1,0,1,63,2,NA
fcp-trial,97,553809,0.0-72.0-0.0,voc_e2,11757,"[{""event"":""fullscreenenter"",""trial"":1,""time"":4293}]",NA,NA,NA,NA,NA,3,#3386FF,#D89F1C,0,10,1,40,0,501.69999999552965,37,1,841.5,0,1,experiment,NA,NA,2,0.5,0.5,4,5,64,2,NA
fcp-trial,98,557001,0.0-73.0-0.0,voc_e2,11757,"[{""event"":""fullscreenenter"",""trial"":1,""time"":4293}]",NA,NA,NA,NA,NA,2,#1CD855,#FA92F8,0,0,1,40,0,733.2999999970198,39,0,951.2999999970198,0,0,experiment,NA,NA,1,0.7,0.3,2,3,65,2,NA
fcp-trial,99,561013,0.0-74.0-0.0,voc_e2,11757,"[{""event"":""fullscreenenter"",""trial"":1,""time"":4293}]",NA,NA,NA,NA,NA,1,#741CD8,#D8271C,0,10,0,40,0,680.1999999955297,37,1,1819.6000000014901,0,0,experiment,NA,NA,0,0.1,0.9,1,0,66,2,NA
fcp-trial,100,565183,0.0-75.0-0.0,voc_e2,11757,"[{""event"":""fullscreenenter"",""trial"":1,""time"":4293}]",NA,NA,NA,NA,NA,0,#FA92F8,#1CD855,10,0,0,40,0,1764.7999999970198,39,0,899.5,0,1,experiment,NA,NA,1,0.3,0.7,3,2,67,2,NA
fcp-trial,101,567855,0.0-76.0-0.0,voc_e2,11757,"[{""event"":""fullscreenenter"",""trial"":1,""time"":4293}]",NA,NA,NA,NA,NA,1,#D89F1C,#3386FF,0,10,0,40,0,562.7999999970198,39,0,595.5,10,1,experiment,NA,NA,2,0.5,0.5,5,4,68,2,NA
fcp-trial,102,570797,0.0-77.0-0.0,voc_e2,11757,"[{""event"":""fullscreenenter"",""trial"":1,""time"":4293}]",NA,NA,NA,NA,NA,4,#D89F1C,#3386FF,10,0,0,40,0,471,37,1,958.8000000044703,10,0,experiment,NA,NA,2,0.5,0.5,5,4,69,2,NA
fcp-trial,103,574638,0.0-78.0-0.0,voc_e2,11757,"[{""event"":""fullscreenenter"",""trial"":1,""time"":4293}]",NA,NA,NA,NA,NA,3,#D8271C,#741CD8,10,10,1,40,0,862.6000000014901,37,1,1468.3000000044703,10,1,experiment,NA,NA,0,0.9,0.1,0,1,70,2,NA
fcp-trial,104,578099,0.0-79.0-0.0,voc_e2,11757,"[{""event"":""fullscreenenter"",""trial"":1,""time"":4293}]",NA,NA,NA,NA,NA,2,#D89F1C,#3386FF,0,10,0,40,0,884.7000000029802,39,0,1022.8999999985099,10,1,experiment,NA,NA,2,0.5,0.5,5,4,71,2,NA
fcp-trial,105,581256,0.0-80.0-0.0,voc_e2,11757,"[{""event"":""fullscreenenter"",""trial"":1,""time"":4293}]",NA,NA,NA,NA,NA,5,#1CD855,#FA92F8,10,0,1,40,0,797.6999999955297,37,1,850.2999999970198,10,1,experiment,NA,NA,1,0.7,0.3,2,3,72,2,NA
fcp-trial,106,585598,0.0-81.0-0.0,voc_e2,11757,"[{""event"":""fullscreenenter"",""trial"":1,""time"":4293}]",NA,NA,NA,NA,NA,6,#1CD855,#FA92F8,0,0,1,40,0,1369.5,39,0,1461.7999999970198,0,0,experiment,NA,NA,1,0.7,0.3,2,3,73,2,NA
fcp-trial,107,588944,0.0-82.0-0.0,voc_e2,11757,"[{""event"":""fullscreenenter"",""trial"":1,""time"":4293}]",NA,NA,NA,NA,NA,6,#741CD8,#D8271C,0,10,0,40,0,999,37,1,813.6000000014901,0,0,experiment,NA,NA,0,0.1,0.9,1,0,74,2,NA
fcp-trial,108,592610,0.0-83.0-0.0,voc_e2,11757,"[{""event"":""fullscreenenter"",""trial"":1,""time"":4293}]",NA,NA,NA,NA,NA,3,#FA92F8,#1CD855,0,0,0,40,0,600.3999999985099,39,0,1555.0999999940395,0,1,experiment,NA,NA,1,0.3,0.7,3,2,75,2,NA
fcp-trial,109,595983,0.0-84.0-0.0,voc_e2,11757,"[{""event"":""fullscreenenter"",""trial"":1,""time"":4293}]",NA,NA,NA,NA,NA,6,#D89F1C,#3386FF,0,0,0,40,0,766.6000000014901,39,0,1097.5,0,1,experiment,NA,NA,2,0.5,0.5,5,4,76,2,NA
fcp-trial,110,599027,0.0-85.0-0.0,voc_e2,11757,"[{""event"":""fullscreenenter"",""trial"":1,""time"":4293}]",NA,NA,NA,NA,NA,4,#1CD855,#FA92F8,10,10,1,40,0,652.5999999940395,39,0,876.8999999985099,10,0,experiment,NA,NA,1,0.7,0.3,2,3,77,2,NA
fcp-trial,111,602366,0.0-86.0-0.0,voc_e2,11757,"[{""event"":""fullscreenenter"",""trial"":1,""time"":4293}]",NA,NA,NA,NA,NA,0,#D89F1C,#3386FF,10,10,0,40,0,734.2999999970198,39,0,1097.2000000029802,10,1,experiment,NA,NA,2,0.5,0.5,5,4,78,2,NA
fcp-trial,112,605474,0.0-87.0-0.0,voc_e2,11757,"[{""event"":""fullscreenenter"",""trial"":1,""time"":4293}]",NA,NA,NA,NA,NA,5,#741CD8,#D8271C,0,10,0,40,0,881.7000000029802,39,0,716.8000000044703,10,1,experiment,NA,NA,0,0.1,0.9,1,0,79,2,NA
fcp-trial,113,610374,0.0-88.0-0.0,voc_e2,11757,"[{""event"":""fullscreenenter"",""trial"":1,""time"":4293}]",NA,NA,NA,NA,NA,5,#D89F1C,#3386FF,10,0,0,40,0,2459.7000000029802,37,1,924.6000000014901,10,0,experiment,NA,NA,2,0.5,0.5,5,4,80,2,NA
fcp-trial,114,614358,0.0-89.0-0.0,voc_e2,11757,"[{""event"":""fullscreenenter"",""trial"":1,""time"":4293}]",NA,NA,NA,NA,NA,1,#FA92F8,#1CD855,10,10,0,40,0,1884.3999999985099,39,0,590.0999999940395,10,1,experiment,NA,NA,1,0.3,0.7,3,2,81,2,NA
fcp-trial,115,618556,0.0-90.0-0.0,voc_e2,11757,"[{""event"":""fullscreenenter"",""trial"":1,""time"":4293}]",NA,NA,NA,NA,NA,4,#741CD8,#D8271C,0,10,0,40,0,1565.5,37,1,1118.8999999985099,0,0,experiment,NA,NA,0,0.1,0.9,1,0,82,2,NA
fcp-trial,116,623309,0.0-91.0-0.0,voc_e2,11757,"[{""event"":""fullscreenenter"",""trial"":1,""time"":4293}]",NA,NA,NA,NA,NA,0,#741CD8,#D8271C,0,10,0,40,0,2329,39,0,916.7000000029802,10,1,experiment,NA,NA,0,0.1,0.9,1,0,83,2,NA
fcp-trial,117,628477,0.0-92.0-0.0,voc_e2,11757,"[{""event"":""fullscreenenter"",""trial"":1,""time"":4293}]",NA,NA,NA,NA,NA,2,#D8271C,#741CD8,10,0,1,40,0,2880.2999999970198,37,1,780.2000000029802,10,1,experiment,NA,NA,0,0.9,0.1,0,1,84,2,NA
fcp-trial,118,632174,0.0-93.0-0.0,voc_e2,11757,"[{""event"":""fullscreenenter"",""trial"":1,""time"":4293}]",NA,NA,NA,NA,NA,1,#1CD855,#FA92F8,10,0,1,38,1,1300.2000000029802,39,0,888.5,0,0,experiment,NA,NA,1,0.7,0.3,2,3,85,2,NA
fcp-trial,119,636222,0.0-94.0-0.0,voc_e2,11757,"[{""event"":""fullscreenenter"",""trial"":1,""time"":4293}]",NA,NA,NA,NA,NA,4,#FA92F8,#1CD855,10,10,0,40,0,1620.1999999955297,39,0,920.2999999970198,10,1,experiment,NA,NA,1,0.3,0.7,3,2,86,2,NA
fcp-trial,120,641364,0.0-95.0-0.0,voc_e2,11757,"[{""event"":""fullscreenenter"",""trial"":1,""time"":4293}]",NA,NA,NA,NA,NA,6,#D8271C,#741CD8,10,0,1,40,0,2910.1999999955297,39,0,715.7000000029802,0,0,experiment,NA,NA,0,0.9,0.1,0,1,87,2,NA
fcp-trial,121,644581,0.0-96.0-0.0,voc_e2,11757,"[{""event"":""fullscreenenter"",""trial"":1,""time"":4293}]",NA,NA,NA,NA,NA,6,#D89F1C,#3386FF,0,10,0,40,0,1002.3000000044703,39,0,708.1999999955297,10,1,experiment,NA,NA,2,0.5,0.5,5,4,88,2,NA
fcp-trial,122,648392,0.0-97.0-0.0,voc_e2,11757,"[{""event"":""fullscreenenter"",""trial"":1,""time"":4293}]",NA,NA,NA,NA,NA,2,#741CD8,#D8271C,0,10,0,40,0,1656.3999999985099,37,1,632.3000000044703,0,0,experiment,NA,NA,0,0.1,0.9,1,0,89,2,NA
fcp-trial,123,651476,0.0-98.0-0.0,voc_e2,11757,"[{""event"":""fullscreenenter"",""trial"":1,""time"":4293}]",NA,NA,NA,NA,NA,6,#1CD855,#FA92F8,10,10,1,40,0,1017.7999999970198,39,0,555.3999999985099,10,0,experiment,NA,NA,1,0.7,0.3,2,3,90,2,NA
fcp-trial,124,655046,0.0-99.0-0.0,voc_e2,11757,"[{""event"":""fullscreenenter"",""trial"":1,""time"":4293}]",NA,NA,NA,NA,NA,0,#D8271C,#741CD8,10,0,1,40,0,1322.7000000029802,39,0,736,0,0,experiment,NA,NA,0,0.9,0.1,0,1,91,3,NA
fcp-trial,125,660615,0.0-100.0-0.0,voc_e2,11757,"[{""event"":""fullscreenenter"",""trial"":1,""time"":4293}]",NA,NA,NA,NA,NA,0,#1CD855,#FA92F8,10,10,1,40,0,1141.1000000014901,39,0,2917,10,0,experiment,NA,NA,1,0.7,0.3,2,3,92,3,NA
fcp-trial,126,666084,0.0-101.0-0.0,voc_e2,11757,"[{""event"":""fullscreenenter"",""trial"":1,""time"":4293}]",NA,NA,NA,NA,NA,4,#3386FF,#D89F1C,0,0,1,40,0,2863.39999999851,37,1,1085.8000000044703,0,1,experiment,NA,NA,2,0.5,0.5,4,5,93,3,NA
fcp-trial,127,671405,0.0-102.0-0.0,voc_e2,11757,"[{""event"":""fullscreenenter"",""trial"":1,""time"":4293}]",NA,NA,NA,NA,NA,2,#1CD855,#FA92F8,0,10,1,40,0,3036.7999999970198,37,1,773,0,1,experiment,NA,NA,1,0.7,0.3,2,3,94,3,NA
fcp-trial,128,676989,0.0-103.0-0.0,voc_e2,11757,"[{""event"":""fullscreenenter"",""trial"":1,""time"":4293}]",NA,NA,NA,NA,NA,3,#741CD8,#D8271C,0,10,0,40,0,2334,37,1,1730.7999999970198,0,0,experiment,NA,NA,0,0.1,0.9,1,0,95,3,NA
fcp-trial,129,681019,0.0-104.0-0.0,voc_e2,11757,"[{""event"":""fullscreenenter"",""trial"":1,""time"":4293}]",NA,NA,NA,NA,NA,5,#D8271C,#741CD8,0,0,1,40,0,1702.6000000014901,39,0,795.1000000014901,0,0,experiment,NA,NA,0,0.9,0.1,0,1,96,3,NA
fcp-trial,130,685103,0.0-105.0-0.0,voc_e2,11757,"[{""event"":""fullscreenenter"",""trial"":1,""time"":4293}]",NA,NA,NA,NA,NA,1,#D89F1C,#3386FF,0,0,0,40,0,1725.1000000014901,37,1,850.7999999970198,0,0,experiment,NA,NA,2,0.5,0.5,5,4,97,3,NA
fcp-trial,131,687979,0.0-106.0-0.0,voc_e2,11757,"[{""event"":""fullscreenenter"",""trial"":1,""time"":4293}]",NA,NA,NA,NA,NA,3,#1CD855,#FA92F8,10,0,1,38,1,898.2000000029802,39,0,469.69999999552965,0,0,experiment,NA,NA,1,0.7,0.3,2,3,98,3,NA
fcp-trial,132,690540,0.0-107.0-0.0,voc_e2,11757,"[{""event"":""fullscreenenter"",""trial"":1,""time"":4293}]",NA,NA,NA,NA,NA,5,#3386FF,#D89F1C,0,10,1,38,1,292.3999999985099,37,1,749.7999999970198,0,1,experiment,NA,NA,2,0.5,0.5,4,5,99,3,NA
fcp-trial,133,693839,0.0-108.0-0.0,voc_e2,11757,"[{""event"":""fullscreenenter"",""trial"":1,""time"":4293}]",NA,NA,NA,NA,NA,3,#D89F1C,#3386FF,0,0,0,40,0,1151,39,0,641.8999999985099,0,1,experiment,NA,NA,2,0.5,0.5,5,4,100,3,NA
fcp-trial,134,697584,0.0-109.0-0.0,voc_e2,11757,"[{""event"":""fullscreenenter"",""trial"":1,""time"":4293}]",NA,NA,NA,NA,NA,1,#D8271C,#741CD8,10,0,1,40,0,1634.6000000014901,37,1,591.8000000044703,10,1,experiment,NA,NA,0,0.9,0.1,0,1,101,3,NA
fcp-trial,135,703567,0.0-110.0-0.0,voc_e2,11757,"[{""event"":""fullscreenenter"",""trial"":1,""time"":4293}]",NA,NA,NA,NA,NA,4,#D8271C,#741CD8,10,0,1,38,1,3987.10000000149,37,1,483.69999999552965,10,1,experiment,NA,NA,0,0.9,0.1,0,1,102,3,NA
fcp-trial,136,707888,0.0-111.0-0.0,voc_e2,11757,"[{""event"":""fullscreenenter"",""trial"":1,""time"":4293}]",NA,NA,NA,NA,NA,5,#1CD855,#FA92F8,10,10,1,38,1,1808.1999999955297,37,1,1002.3999999985099,10,1,experiment,NA,NA,1,0.7,0.3,2,3,103,3,NA
fcp-trial,137,710922,0.0-112.0-0.0,voc_e2,11757,"[{""event"":""fullscreenenter"",""trial"":1,""time"":4293}]",NA,NA,NA,NA,NA,2,#D89F1C,#3386FF,10,10,0,38,1,1019.7000000029802,37,1,503.20000000298023,10,0,experiment,NA,NA,2,0.5,0.5,5,4,104,3,NA
fcp-trial,138,713584,0.0-113.0-0.0,voc_e2,11757,"[{""event"":""fullscreenenter"",""trial"":1,""time"":4293}]",NA,NA,NA,NA,NA,0,#D89F1C,#3386FF,10,0,0,38,1,669.1000000014901,37,1,483.79999999701977,10,0,experiment,NA,NA,2,0.5,0.5,5,4,105,3,NA
audio-instructions,139,753574,0.0-114.0,voc_e2,11757,"[{""event"":""fullscreenenter"",""trial"":1,""time"":4293}]",NA,35405.5,static/audio/pause.wav,NA,0,NA,NA,NA,NA,NA,NA,NA,NA,NA,NA,NA,NA,NA,NA,NA,NA,NA,NA,NA,NA,NA,NA,NA,NA,NA
fcp-trial,140,756839,0.0-115.0-0.0,voc_e2,11757,"[{""event"":""fullscreenenter"",""trial"":1,""time"":4293}]",NA,NA,NA,NA,NA,1,#3386FF,#D89F1C,0,10,1,40,0,879,39,0,872.7000000029802,10,0,experiment,NA,NA,2,0.5,0.5,4,5,106,3,NA
fcp-trial,141,759622,0.0-116.0-0.0,voc_e2,11757,"[{""event"":""fullscreenenter"",""trial"":1,""time"":4293}]",NA,NA,NA,NA,NA,0,#1CD855,#FA92F8,10,0,1,40,0,523.7000000029802,39,0,750.6000000014901,0,0,experiment,NA,NA,1,0.7,0.3,2,3,107,3,NA
fcp-trial,142,762663,0.0-117.0-0.0,voc_e2,11757,"[{""event"":""fullscreenenter"",""trial"":1,""time"":4293}]",NA,NA,NA,NA,NA,3,#D89F1C,#3386FF,0,10,0,40,0,1003.7000000029802,39,0,529.6000000014901,10,1,experiment,NA,NA,2,0.5,0.5,5,4,108,3,NA
fcp-trial,143,765587,0.0-118.0-0.0,voc_e2,11757,"[{""event"":""fullscreenenter"",""trial"":1,""time"":4293}]",NA,NA,NA,NA,NA,3,#D8271C,#741CD8,10,0,1,40,0,709.6000000014901,39,0,706.6999999955297,0,0,experiment,NA,NA,0,0.9,0.1,0,1,109,3,NA
fcp-trial,144,768405,0.0-119.0-0.0,voc_e2,11757,"[{""event"":""fullscreenenter"",""trial"":1,""time"":4293}]",NA,NA,NA,NA,NA,5,#FA92F8,#1CD855,0,0,0,40,0,564.5,39,0,747.6999999955297,0,1,experiment,NA,NA,1,0.3,0.7,3,2,110,3,NA
fcp-trial,145,770729,0.0-120.0-0.0,voc_e2,11757,"[{""event"":""fullscreenenter"",""trial"":1,""time"":4293}]",NA,NA,NA,NA,NA,4,#D89F1C,#3386FF,0,10,0,38,1,334.20000000298023,37,1,484.5,0,0,experiment,NA,NA,2,0.5,0.5,5,4,111,3,NA
fcp-trial,146,774009,0.0-121.0-0.0,voc_e2,11757,"[{""event"":""fullscreenenter"",""trial"":1,""time"":4293}]",NA,NA,NA,NA,NA,3,#FA92F8,#1CD855,10,10,0,40,0,919,39,0,835.4000000059605,10,1,experiment,NA,NA,1,0.3,0.7,3,2,112,3,NA
fcp-trial,147,777897,0.0-122.0-0.0,voc_e2,11757,"[{""event"":""fullscreenenter"",""trial"":1,""time"":4293}]",NA,NA,NA,NA,NA,6,#3386FF,#D89F1C,10,10,1,40,0,1025.1000000014901,37,1,1335.0999999940395,10,1,experiment,NA,NA,2,0.5,0.5,4,5,113,3,NA
fcp-trial,148,781482,0.0-123.0-0.0,voc_e2,11757,"[{""event"":""fullscreenenter"",""trial"":1,""time"":4293}]",NA,NA,NA,NA,NA,0,#741CD8,#D8271C,0,10,0,38,1,1571.8999999985099,39,0,503.79999999701977,10,1,experiment,NA,NA,0,0.1,0.9,1,0,114,3,NA
fcp-trial,149,785635,0.0-124.0-0.0,voc_e2,11757,"[{""event"":""fullscreenenter"",""trial"":1,""time"":4293}]",NA,NA,NA,NA,NA,5,#D89F1C,#3386FF,0,0,0,40,0,696.3999999985099,37,1,1946.7999999970198,0,0,experiment,NA,NA,2,0.5,0.5,5,4,115,3,NA
fcp-trial,150,789071,0.0-125.0-0.0,voc_e2,11757,"[{""event"":""fullscreenenter"",""trial"":1,""time"":4293}]",NA,NA,NA,NA,NA,4,#D8271C,#741CD8,10,0,1,38,1,1347.4000000059605,37,1,582.8999999985099,10,1,experiment,NA,NA,0,0.9,0.1,0,1,116,3,NA
fcp-trial,151,793288,0.0-126.0-0.0,voc_e2,11757,"[{""event"":""fullscreenenter"",""trial"":1,""time"":4293}]",NA,NA,NA,NA,NA,6,#1CD855,#FA92F8,0,0,1,38,1,2296.3000000044703,37,1,411,0,1,experiment,NA,NA,1,0.7,0.3,2,3,117,3,NA
fcp-trial,152,796992,0.0-127.0-0.0,voc_e2,11757,"[{""event"":""fullscreenenter"",""trial"":1,""time"":4293}]",NA,NA,NA,NA,NA,2,#D89F1C,#3386FF,10,0,0,38,1,1742.7999999970198,39,0,453,0,1,experiment,NA,NA,2,0.5,0.5,5,4,118,3,NA
fcp-trial,153,800276,0.0-128.0-0.0,voc_e2,11757,"[{""event"":""fullscreenenter"",""trial"":1,""time"":4293}]",NA,NA,NA,NA,NA,4,#1CD855,#FA92F8,10,0,1,40,0,1035.7000000029802,37,1,737.1000000014901,10,1,experiment,NA,NA,1,0.7,0.3,2,3,119,3,NA
fcp-trial,154,803630,0.0-129.0-0.0,voc_e2,11757,"[{""event"":""fullscreenenter"",""trial"":1,""time"":4293}]",NA,NA,NA,NA,NA,1,#FA92F8,#1CD855,0,0,0,40,0,937.1000000014901,37,1,910.1999999955297,0,0,experiment,NA,NA,1,0.3,0.7,3,2,120,3,NA
fcp-trial,155,806860,0.0-130.0-0.0,voc_e2,11757,"[{""event"":""fullscreenenter"",""trial"":1,""time"":4293}]",NA,NA,NA,NA,NA,2,#D8271C,#741CD8,10,0,1,40,0,1131.1999999955297,39,0,585.5,0,0,experiment,NA,NA,0,0.9,0.1,0,1,121,3,NA
fcp-trial,156,809690,0.0-131.0-0.0,voc_e2,11757,"[{""event"":""fullscreenenter"",""trial"":1,""time"":4293}]",NA,NA,NA,NA,NA,1,#D8271C,#741CD8,10,0,1,38,1,541.1999999955297,37,1,781.8999999985099,10,1,experiment,NA,NA,0,0.9,0.1,0,1,122,3,NA
fcp-trial,157,813195,0.0-132.0-0.0,voc_e2,11757,"[{""event"":""fullscreenenter"",""trial"":1,""time"":4293}]",NA,NA,NA,NA,NA,0,#3386FF,#D89F1C,0,10,1,40,0,1112,37,1,883.5,0,1,experiment,NA,NA,2,0.5,0.5,4,5,123,3,NA
fcp-trial,158,817778,0.0-133.0-0.0,voc_e2,11757,"[{""event"":""fullscreenenter"",""trial"":1,""time"":4293}]",NA,NA,NA,NA,NA,2,#1CD855,#FA92F8,10,10,1,40,0,1679.7999999970198,39,0,1397.7999999970198,10,0,experiment,NA,NA,1,0.7,0.3,2,3,124,3,NA
fcp-trial,159,820418,0.0-134.0-0.0,voc_e2,11757,"[{""event"":""fullscreenenter"",""trial"":1,""time"":4293}]",NA,NA,NA,NA,NA,6,#D8271C,#741CD8,10,0,1,40,0,530.2000000029802,39,0,601.8999999985099,0,0,experiment,NA,NA,0,0.9,0.1,0,1,125,3,NA
fcp-trial,160,823553,0.0-135.0-0.0,voc_e2,11757,"[{""event"":""fullscreenenter"",""trial"":1,""time"":4293}]",NA,NA,NA,NA,NA,5,#741CD8,#D8271C,0,0,0,40,0,363.80000000447035,39,0,1263.5,0,1,experiment,NA,NA,0,0.1,0.9,1,0,126,3,NA
fcp-trial,161,825784,0.0-136.0-0.0,voc_e2,11757,"[{""event"":""fullscreenenter"",""trial"":1,""time"":4293}]",NA,NA,NA,NA,NA,5,#FA92F8,#1CD855,0,10,0,38,1,188.70000000298023,39,0,532.2000000029802,10,1,experiment,NA,NA,1,0.3,0.7,3,2,127,3,NA
fcp-trial,162,828489,0.0-137.0-0.0,voc_e2,11757,"[{""event"":""fullscreenenter"",""trial"":1,""time"":4293}]",NA,NA,NA,NA,NA,0,#D8271C,#741CD8,10,0,1,40,0,717.2000000029802,39,0,480.5,0,0,experiment,NA,NA,0,0.9,0.1,0,1,128,3,NA
fcp-trial,163,832254,0.0-138.0-0.0,voc_e2,11757,"[{""event"":""fullscreenenter"",""trial"":1,""time"":4293}]",NA,NA,NA,NA,NA,4,#1CD855,#FA92F8,10,0,1,40,0,14.200000002980232,39,0,2242.39999999851,0,0,experiment,NA,NA,1,0.7,0.3,2,3,129,3,NA
fcp-trial,164,835155,0.0-139.0-0.0,voc_e2,11757,"[{""event"":""fullscreenenter"",""trial"":1,""time"":4293}]",NA,NA,NA,NA,NA,4,#D8271C,#741CD8,10,0,1,38,1,576,39,0,811.2999999970198,0,0,experiment,NA,NA,0,0.9,0.1,0,1,130,3,NA
fcp-trial,165,838594,0.0-140.0-0.0,voc_e2,11757,"[{""event"":""fullscreenenter"",""trial"":1,""time"":4293}]",NA,NA,NA,NA,NA,2,#741CD8,#D8271C,0,10,0,40,0,982.2000000029802,37,1,947.5999999940395,0,0,experiment,NA,NA,0,0.1,0.9,1,0,131,3,NA
fcp-trial,166,842322,0.0-141.0-0.0,voc_e2,11757,"[{""event"":""fullscreenenter"",""trial"":1,""time"":4293}]",NA,NA,NA,NA,NA,5,#3386FF,#D89F1C,10,10,1,40,0,1658.6000000014901,39,0,561.6999999955297,10,0,experiment,NA,NA,2,0.5,0.5,4,5,132,3,NA
fcp-trial,167,845725,0.0-142.0-0.0,voc_e2,11757,"[{""event"":""fullscreenenter"",""trial"":1,""time"":4293}]",NA,NA,NA,NA,NA,3,#3386FF,#D89F1C,10,10,1,40,0,1171.3999999985099,39,0,706.2000000029802,10,0,experiment,NA,NA,2,0.5,0.5,4,5,133,3,NA
fcp-trial,168,850397,0.0-143.0-0.0,voc_e2,11757,"[{""event"":""fullscreenenter"",""trial"":1,""time"":4293}]",NA,NA,NA,NA,NA,3,#FA92F8,#1CD855,10,10,0,40,0,2438.7000000029802,37,1,728.8999999985099,10,0,experiment,NA,NA,1,0.3,0.7,3,2,134,3,NA
fcp-trial,169,856555,0.0-144.0-0.0,voc_e2,11757,"[{""event"":""fullscreenenter"",""trial"":1,""time"":4293}]",NA,NA,NA,NA,NA,1,#D8271C,#741CD8,10,10,1,40,0,3459.7000000029802,39,0,1189.3000000044703,10,0,experiment,NA,NA,0,0.9,0.1,0,1,135,3,NA
fcp-trial,170,860417,0.0-145.0-0.0,voc_e2,11757,"[{""event"":""fullscreenenter"",""trial"":1,""time"":4293}]",NA,NA,NA,NA,NA,0,#FA92F8,#1CD855,0,0,0,40,0,1547.3999999985099,39,0,801.2000000029802,0,1,experiment,NA,NA,1,0.3,0.7,3,2,136,4,NA
fcp-trial,171,866241,0.0-146.0-0.0,voc_e2,11757,"[{""event"":""fullscreenenter"",""trial"":1,""time"":4293}]",NA,NA,NA,NA,NA,1,#3386FF,#D89F1C,10,0,1,40,0,3321.10000000149,37,1,996,10,1,experiment,NA,NA,2,0.5,0.5,4,5,137,4,NA
fcp-trial,172,869938,0.0-147.0-0.0,voc_e2,11757,"[{""event"":""fullscreenenter"",""trial"":1,""time"":4293}]",NA,NA,NA,NA,NA,3,#D8271C,#741CD8,10,0,1,40,0,1425.5999999940395,37,1,764.3999999985099,10,1,experiment,NA,NA,0,0.9,0.1,0,1,138,4,NA
fcp-trial,173,873365,0.0-148.0-0.0,voc_e2,11757,"[{""event"":""fullscreenenter"",""trial"":1,""time"":4293}]",NA,NA,NA,NA,NA,1,#FA92F8,#1CD855,0,0,0,40,0,1011.1999999955297,37,1,907.8999999985099,0,0,experiment,NA,NA,1,0.3,0.7,3,2,139,4,NA
fcp-trial,174,881132,0.0-149.0-0.0,voc_e2,11757,"[{""event"":""fullscreenenter"",""trial"":1,""time"":4293}]",NA,NA,NA,NA,NA,6,#741CD8,#D8271C,0,10,0,40,0,2765.89999999851,37,1,3488.7000000029802,0,0,experiment,NA,NA,0,0.1,0.9,1,0,140,4,NA
fcp-trial,175,883916,0.0-150.0-0.0,voc_e2,11757,"[{""event"":""fullscreenenter"",""trial"":1,""time"":4293}]",NA,NA,NA,NA,NA,0,#D89F1C,#3386FF,0,10,0,40,0,572.6999999955297,37,1,701.3999999985099,0,0,experiment,NA,NA,2,0.5,0.5,5,4,141,4,NA
fcp-trial,176,888494,0.0-151.0-0.0,voc_e2,11757,"[{""event"":""fullscreenenter"",""trial"":1,""time"":4293}]",NA,NA,NA,NA,NA,6,#D89F1C,#3386FF,0,10,0,40,0,519.6000000014901,39,0,2545.3000000044703,10,1,experiment,NA,NA,2,0.5,0.5,5,4,142,4,NA
fcp-trial,177,893344,0.0-152.0-0.0,voc_e2,11757,"[{""event"":""fullscreenenter"",""trial"":1,""time"":4293}]",NA,NA,NA,NA,NA,5,#741CD8,#D8271C,0,10,0,40,0,2597.89999999851,37,1,748.1000000014901,0,0,experiment,NA,NA,0,0.1,0.9,1,0,143,4,NA
fcp-trial,178,898646,0.0-153.0-0.0,voc_e2,11757,"[{""event"":""fullscreenenter"",""trial"":1,""time"":4293}]",NA,NA,NA,NA,NA,2,#1CD855,#FA92F8,10,0,1,40,0,3215.39999999851,39,0,577.5,0,0,experiment,NA,NA,1,0.7,0.3,2,3,144,4,NA
fcp-trial,179,902874,0.0-154.0-0.0,voc_e2,11757,"[{""event"":""fullscreenenter"",""trial"":1,""time"":4293}]",NA,NA,NA,NA,NA,2,#D89F1C,#3386FF,10,10,0,40,0,1623.6000000014901,39,0,1093.1000000014901,10,1,experiment,NA,NA,2,0.5,0.5,5,4,145,4,NA
fcp-trial,180,907579,0.0-155.0-0.0,voc_e2,11757,"[{""event"":""fullscreenenter"",""trial"":1,""time"":4293}]",NA,NA,NA,NA,NA,6,#1CD855,#FA92F8,0,10,1,40,0,2290.39999999851,39,0,908.7999999970198,10,0,experiment,NA,NA,1,0.7,0.3,2,3,146,4,NA
fcp-trial,181,911223,0.0-156.0-0.0,voc_e2,11757,"[{""event"":""fullscreenenter"",""trial"":1,""time"":4293}]",NA,NA,NA,NA,NA,4,#D89F1C,#3386FF,10,0,0,40,0,1473.1999999955297,37,1,660.1000000014901,10,0,experiment,NA,NA,2,0.5,0.5,5,4,147,4,NA
fcp-trial,182,915061,0.0-157.0-0.0,voc_e2,11757,"[{""event"":""fullscreenenter"",""trial"":1,""time"":4293}]",NA,NA,NA,NA,NA,3,#741CD8,#D8271C,0,10,0,40,0,1831.1999999955297,39,0,500.30000000447035,10,1,experiment,NA,NA,0,0.1,0.9,1,0,148,4,NA
fcp-trial,183,918967,0.0-158.0-0.0,voc_e2,11757,"[{""event"":""fullscreenenter"",""trial"":1,""time"":4293}]",NA,NA,NA,NA,NA,3,#1CD855,#FA92F8,0,0,1,40,0,1679.5,39,0,719.6000000014901,0,0,experiment,NA,NA,1,0.7,0.3,2,3,149,4,NA
fcp-trial,184,923729,0.0-159.0-0.0,voc_e2,11757,"[{""event"":""fullscreenenter"",""trial"":1,""time"":4293}]",NA,NA,NA,NA,NA,6,#1CD855,#FA92F8,0,0,1,40,0,1071.5,39,0,2184.10000000149,0,0,experiment,NA,NA,1,0.7,0.3,2,3,150,4,NA
fcp-trial,185,926622,0.0-160.0-0.0,voc_e2,11757,"[{""event"":""fullscreenenter"",""trial"":1,""time"":4293}]",NA,NA,NA,NA,NA,3,#D89F1C,#3386FF,0,10,0,40,0,685.8999999985099,37,1,701.6000000014901,0,0,experiment,NA,NA,2,0.5,0.5,5,4,151,4,NA
fcp-trial,186,929165,0.0-161.0-0.0,voc_e2,11757,"[{""event"":""fullscreenenter"",""trial"":1,""time"":4293}]",NA,NA,NA,NA,NA,6,#D8271C,#741CD8,10,0,1,40,0,191.80000000447035,39,0,841.7000000029802,0,0,experiment,NA,NA,0,0.9,0.1,0,1,152,4,NA
fcp-trial,187,932287,0.0-162.0-0.0,voc_e2,11757,"[{""event"":""fullscreenenter"",""trial"":1,""time"":4293}]",NA,NA,NA,NA,NA,2,#D8271C,#741CD8,10,0,1,40,0,1033.0999999940395,39,0,582.6000000014901,0,0,experiment,NA,NA,0,0.9,0.1,0,1,153,4,NA
fcp-trial,188,936063,0.0-163.0-0.0,voc_e2,11757,"[{""event"":""fullscreenenter"",""trial"":1,""time"":4293}]",NA,NA,NA,NA,NA,1,#D89F1C,#3386FF,0,10,0,40,0,1663.1999999955297,39,0,591.3000000044703,10,1,experiment,NA,NA,2,0.5,0.5,5,4,154,4,NA
fcp-trial,189,940074,0.0-164.0-0.0,voc_e2,11757,"[{""event"":""fullscreenenter"",""trial"":1,""time"":4293}]",NA,NA,NA,NA,NA,2,#FA92F8,#1CD855,0,0,0,40,0,1413.3999999985099,39,0,1061,0,1,experiment,NA,NA,1,0.3,0.7,3,2,155,4,NA
fcp-trial,190,943691,0.0-165.0-0.0,voc_e2,11757,"[{""event"":""fullscreenenter"",""trial"":1,""time"":4293}]",NA,NA,NA,NA,NA,6,#3386FF,#D89F1C,0,10,1,40,0,1385.3999999985099,39,0,704.3000000044703,10,0,experiment,NA,NA,2,0.5,0.5,4,5,156,4,NA
fcp-trial,191,947665,0.0-166.0-0.0,voc_e2,11757,"[{""event"":""fullscreenenter"",""trial"":1,""time"":4293}]",NA,NA,NA,NA,NA,5,#741CD8,#D8271C,0,0,0,40,0,1197.3999999985099,37,1,1270.2000000029802,0,0,experiment,NA,NA,0,0.1,0.9,1,0,157,4,NA
fcp-trial,192,953512,0.0-167.0-0.0,voc_e2,11757,"[{""event"":""fullscreenenter"",""trial"":1,""time"":4293}]",NA,NA,NA,NA,NA,0,#D89F1C,#3386FF,10,10,0,40,0,2676.2000000029802,39,0,1660.3999999985099,10,1,experiment,NA,NA,2,0.5,0.5,5,4,158,4,NA
fcp-trial,193,958505,0.0-168.0-0.0,voc_e2,11757,"[{""event"":""fullscreenenter"",""trial"":1,""time"":4293}]",NA,NA,NA,NA,NA,5,#1CD855,#FA92F8,0,0,1,40,0,2660.5,39,0,823.7999999970198,0,0,experiment,NA,NA,1,0.7,0.3,2,3,159,4,NA
fcp-trial,194,961877,0.0-169.0-0.0,voc_e2,11757,"[{""event"":""fullscreenenter"",""trial"":1,""time"":4293}]",NA,NA,NA,NA,NA,5,#3386FF,#D89F1C,10,10,1,40,0,1118.8999999985099,37,1,741.5,10,1,experiment,NA,NA,2,0.5,0.5,4,5,160,4,NA
fcp-trial,195,965240,0.0-170.0-0.0,voc_e2,11757,"[{""event"":""fullscreenenter"",""trial"":1,""time"":4293}]",NA,NA,NA,NA,NA,4,#D8271C,#741CD8,10,0,1,40,0,1236.2999999970198,39,0,618.2999999970198,0,0,experiment,NA,NA,0,0.9,0.1,0,1,161,4,NA
fcp-trial,196,969420,0.0-171.0-0.0,voc_e2,11757,"[{""event"":""fullscreenenter"",""trial"":1,""time"":4293}]",NA,NA,NA,NA,NA,2,#D89F1C,#3386FF,0,0,0,40,0,2035.8999999985099,39,0,635.2000000029802,0,1,experiment,NA,NA,2,0.5,0.5,5,4,162,4,NA
fcp-trial,197,972557,0.0-172.0-0.0,voc_e2,11757,"[{""event"":""fullscreenenter"",""trial"":1,""time"":4293}]",NA,NA,NA,NA,NA,0,#FA92F8,#1CD855,10,10,0,40,0,892.7999999970198,37,1,737.2999999970198,10,0,experiment,NA,NA,1,0.3,0.7,3,2,163,4,NA
fcp-trial,198,975628,0.0-173.0-0.0,voc_e2,11757,"[{""event"":""fullscreenenter"",""trial"":1,""time"":4293}]",NA,NA,NA,NA,NA,1,#741CD8,#D8271C,0,0,0,40,0,765.7999999970198,39,0,795.5,0,1,experiment,NA,NA,0,0.1,0.9,1,0,164,4,NA
fcp-trial,199,978317,0.0-174.0-0.0,voc_e2,11757,"[{""event"":""fullscreenenter"",""trial"":1,""time"":4293}]",NA,NA,NA,NA,NA,4,#3386FF,#D89F1C,0,0,1,40,0,359.09999999403954,39,0,816.8000000044703,0,0,experiment,NA,NA,2,0.5,0.5,4,5,165,4,NA
fcp-trial,200,980725,0.0-175.0-0.0,voc_e2,11757,"[{""event"":""fullscreenenter"",""trial"":1,""time"":4293}]",NA,NA,NA,NA,NA,0,#D8271C,#741CD8,10,0,1,40,0,415.6000000014901,39,0,482.80000000447035,0,0,experiment,NA,NA,0,0.9,0.1,0,1,166,4,NA
fcp-trial,201,983432,0.0-176.0-0.0,voc_e2,11757,"[{""event"":""fullscreenenter"",""trial"":1,""time"":4293}]",NA,NA,NA,NA,NA,1,#FA92F8,#1CD855,0,10,0,40,0,679.8999999985099,39,0,519.5,10,1,experiment,NA,NA,1,0.3,0.7,3,2,167,4,NA
fcp-trial,202,986265,0.0-177.0-0.0,voc_e2,11757,"[{""event"":""fullscreenenter"",""trial"":1,""time"":4293}]",NA,NA,NA,NA,NA,4,#FA92F8,#1CD855,10,10,0,40,0,795.1999999955297,39,0,526.6000000014901,10,1,experiment,NA,NA,1,0.3,0.7,3,2,168,4,NA
fcp-trial,203,989075,0.0-178.0-0.0,voc_e2,11757,"[{""event"":""fullscreenenter"",""trial"":1,""time"":4293}]",NA,NA,NA,NA,NA,6,#3386FF,#D89F1C,10,10,1,40,0,692.4000000059605,39,0,609.2000000029802,10,0,experiment,NA,NA,2,0.5,0.5,4,5,169,4,NA
fcp-trial,204,991280,0.0-179.0-0.0,voc_e2,11757,"[{""event"":""fullscreenenter"",""trial"":1,""time"":4293}]",NA,NA,NA,NA,NA,0,#FA92F8,#1CD855,10,10,0,38,1,296.6000000014901,37,1,401.3999999985099,10,0,experiment,NA,NA,1,0.3,0.7,3,2,170,4,NA
fcp-trial,205,995126,0.0-180.0-0.0,voc_e2,11757,"[{""event"":""fullscreenenter"",""trial"":1,""time"":4293}]",NA,NA,NA,NA,NA,1,#D8271C,#741CD8,10,0,1,40,0,1093.2999999970198,37,1,1246.5,10,1,experiment,NA,NA,0,0.9,0.1,0,1,171,4,NA
fcp-trial,206,998271,0.0-181.0-0.0,voc_e2,11757,"[{""event"":""fullscreenenter"",""trial"":1,""time"":4293}]",NA,NA,NA,NA,NA,6,#1CD855,#FA92F8,0,0,1,38,1,1117.5999999940395,37,1,518.1000000014901,0,1,experiment,NA,NA,1,0.7,0.3,2,3,172,4,NA
fcp-trial,207,1001485,0.0-182.0-0.0,voc_e2,11757,"[{""event"":""fullscreenenter"",""trial"":1,""time"":4293}]",NA,NA,NA,NA,NA,3,#D89F1C,#3386FF,0,10,0,38,1,1206.5,39,0,498.90000000596046,10,1,experiment,NA,NA,2,0.5,0.5,5,4,173,4,NA
fcp-trial,208,1003861,0.0-183.0-0.0,voc_e2,11757,"[{""event"":""fullscreenenter"",""trial"":1,""time"":4293}]",NA,NA,NA,NA,NA,0,#D8271C,#741CD8,10,10,1,38,1,368.20000000298023,39,0,498.8999999985099,10,0,experiment,NA,NA,0,0.9,0.1,0,1,174,4,NA
fcp-trial,209,1006159,0.0-184.0-0.0,voc_e2,11757,"[{""event"":""fullscreenenter"",""trial"":1,""time"":4293}]",NA,NA,NA,NA,NA,2,#3386FF,#D89F1C,0,0,1,38,1,449.5,39,0,340.09999999403954,0,0,experiment,NA,NA,2,0.5,0.5,4,5,175,4,NA
fcp-trial,210,1009009,0.0-185.0-0.0,voc_e2,11757,"[{""event"":""fullscreenenter"",""trial"":1,""time"":4293}]",NA,NA,NA,NA,NA,2,#1CD855,#FA92F8,0,0,1,38,1,753.6000000014901,37,1,587.2000000029802,0,1,experiment,NA,NA,1,0.7,0.3,2,3,176,4,NA
fcp-trial,211,1011828,0.0-186.0-0.0,voc_e2,11757,"[{""event"":""fullscreenenter"",""trial"":1,""time"":4293}]",NA,NA,NA,NA,NA,4,#3386FF,#D89F1C,10,10,1,40,0,521.5,39,0,788.7000000029802,10,0,experiment,NA,NA,2,0.5,0.5,4,5,177,4,NA
fcp-trial,212,1014225,0.0-187.0-0.0,voc_e2,11757,"[{""event"":""fullscreenenter"",""trial"":1,""time"":4293}]",NA,NA,NA,NA,NA,5,#D8271C,#741CD8,10,0,1,40,0,56.80000000447035,37,1,834.2000000029802,10,1,experiment,NA,NA,0,0.9,0.1,0,1,178,4,NA
fcp-trial,213,1017358,0.0-188.0-0.0,voc_e2,11757,"[{""event"":""fullscreenenter"",""trial"":1,""time"":4293}]",NA,NA,NA,NA,NA,3,#FA92F8,#1CD855,0,10,0,40,0,758.3999999985099,37,1,858.1999999955297,0,0,experiment,NA,NA,1,0.3,0.7,3,2,179,4,NA
fcp-trial,214,1020368,0.0-189.0-0.0,voc_e2,11757,"[{""event"":""fullscreenenter"",""trial"":1,""time"":4293}]",NA,NA,NA,NA,NA,6,#741CD8,#D8271C,0,10,0,40,0,889.3999999985099,39,0,611.2999999970198,10,1,experiment,NA,NA,0,0.1,0.9,1,0,180,4,NA
fcp-trial,215,1024176,0.0-190.0-0.0,voc_e2,11757,"[{""event"":""fullscreenenter"",""trial"":1,""time"":4293}]",NA,NA,NA,NA,NA,2,#741CD8,#D8271C,10,10,0,40,0,1373.1000000014901,37,1,924.2000000029802,10,0,experiment,NA,NA,0,0.1,0.9,1,0,181,5,NA
fcp-trial,216,1026630,0.0-191.0-0.0,voc_e2,11757,"[{""event"":""fullscreenenter"",""trial"":1,""time"":4293}]",NA,NA,NA,NA,NA,1,#D89F1C,#3386FF,0,0,0,40,0,525.5,39,0,420.29999999701977,0,1,experiment,NA,NA,2,0.5,0.5,5,4,182,5,NA
fcp-trial,217,1030429,0.0-192.0-0.0,voc_e2,11757,"[{""event"":""fullscreenenter"",""trial"":1,""time"":4293}]",NA,NA,NA,NA,NA,3,#741CD8,#D8271C,0,10,0,40,0,932.6000000014901,39,0,1359.6000000014901,10,1,experiment,NA,NA,0,0.1,0.9,1,0,183,5,NA
fcp-trial,218,1034400,0.0-193.0-0.0,voc_e2,11757,"[{""event"":""fullscreenenter"",""trial"":1,""time"":4293}]",NA,NA,NA,NA,NA,4,#1CD855,#FA92F8,0,10,1,40,0,895.7999999970198,39,0,1568.6999999955297,10,0,experiment,NA,NA,1,0.7,0.3,2,3,184,5,NA
fcp-trial,219,1036653,0.0-194.0-0.0,voc_e2,11757,"[{""event"":""fullscreenenter"",""trial"":1,""time"":4293}]",NA,NA,NA,NA,NA,0,#D89F1C,#3386FF,0,10,0,38,1,279.90000000596046,37,1,466.1000000014901,0,0,experiment,NA,NA,2,0.5,0.5,5,4,185,5,NA
fcp-trial,220,1039271,0.0-195.0-0.0,voc_e2,11757,"[{""event"":""fullscreenenter"",""trial"":1,""time"":4293}]",NA,NA,NA,NA,NA,1,#1CD855,#FA92F8,10,10,1,40,0,501.20000000298023,39,0,608,10,0,experiment,NA,NA,1,0.7,0.3,2,3,186,5,NA
fcp-trial,221,1042774,0.0-196.0-0.0,voc_e2,11757,"[{""event"":""fullscreenenter"",""trial"":1,""time"":4293}]",NA,NA,NA,NA,NA,4,#D8271C,#741CD8,10,0,1,40,0,1342.8999999985099,39,0,652.2000000029802,0,0,experiment,NA,NA,0,0.9,0.1,0,1,187,5,NA
fcp-trial,222,1047094,0.0-197.0-0.0,voc_e2,11757,"[{""event"":""fullscreenenter"",""trial"":1,""time"":4293}]",NA,NA,NA,NA,NA,5,#3386FF,#D89F1C,10,0,1,40,0,614.3000000044703,37,1,2195.39999999851,10,1,experiment,NA,NA,2,0.5,0.5,4,5,188,5,NA
fcp-trial,223,1050228,0.0-198.0-0.0,voc_e2,11757,"[{""event"":""fullscreenenter"",""trial"":1,""time"":4293}]",NA,NA,NA,NA,NA,5,#1CD855,#FA92F8,10,0,1,40,0,973.8999999985099,39,0,652.2000000029802,0,0,experiment,NA,NA,1,0.7,0.3,2,3,189,5,NA
fcp-trial,224,1053762,0.0-199.0-0.0,voc_e2,11757,"[{""event"":""fullscreenenter"",""trial"":1,""time"":4293}]",NA,NA,NA,NA,NA,4,#D89F1C,#3386FF,10,10,0,40,0,1248.8000000044703,37,1,777.7000000029802,10,0,experiment,NA,NA,2,0.5,0.5,5,4,190,5,NA
fcp-trial,225,1057637,0.0-200.0-0.0,voc_e2,11757,"[{""event"":""fullscreenenter"",""trial"":1,""time"":4293}]",NA,NA,NA,NA,NA,3,#741CD8,#D8271C,0,10,0,40,0,1562.3000000044703,37,1,791.2999999970198,0,0,experiment,NA,NA,0,0.1,0.9,1,0,191,5,NA
fcp-trial,226,1061595,0.0-201.0-0.0,voc_e2,11757,"[{""event"":""fullscreenenter"",""trial"":1,""time"":4293}]",NA,NA,NA,NA,NA,6,#FA92F8,#1CD855,0,10,0,40,0,620.7999999970198,37,1,1831.7999999970198,0,0,experiment,NA,NA,1,0.3,0.7,3,2,192,5,NA
fcp-trial,227,1066226,0.0-202.0-0.0,voc_e2,11757,"[{""event"":""fullscreenenter"",""trial"":1,""time"":4293}]",NA,NA,NA,NA,NA,3,#D89F1C,#3386FF,10,0,0,38,1,2431.8000000044703,39,0,693.6999999955297,0,1,experiment,NA,NA,2,0.5,0.5,5,4,193,5,NA
fcp-trial,228,1069587,0.0-203.0-0.0,voc_e2,11757,"[{""event"":""fullscreenenter"",""trial"":1,""time"":4293}]",NA,NA,NA,NA,NA,1,#741CD8,#D8271C,10,10,0,40,0,928.7000000029802,37,1,925.6000000014901,10,0,experiment,NA,NA,0,0.1,0.9,1,0,194,5,NA
fcp-trial,229,1073268,0.0-204.0-0.0,voc_e2,11757,"[{""event"":""fullscreenenter"",""trial"":1,""time"":4293}]",NA,NA,NA,NA,NA,3,#FA92F8,#1CD855,0,0,0,40,0,1407.7999999970198,37,1,765.8999999985099,0,0,experiment,NA,NA,1,0.3,0.7,3,2,195,5,NA
fcp-trial,230,1077159,0.0-205.0-0.0,voc_e2,11757,"[{""event"":""fullscreenenter"",""trial"":1,""time"":4293}]",NA,NA,NA,NA,NA,1,#D89F1C,#3386FF,0,10,0,40,0,1033.1000000014901,39,0,1351,10,1,experiment,NA,NA,2,0.5,0.5,5,4,196,5,NA
fcp-trial,231,1080670,0.0-206.0-0.0,voc_e2,11757,"[{""event"":""fullscreenenter"",""trial"":1,""time"":4293}]",NA,NA,NA,NA,NA,5,#741CD8,#D8271C,0,10,0,40,0,1241.5,37,1,761.6000000014901,0,0,experiment,NA,NA,0,0.1,0.9,1,0,197,5,NA
fcp-trial,232,1083569,0.0-207.0-0.0,voc_e2,11757,"[{""event"":""fullscreenenter"",""trial"":1,""time"":4293}]",NA,NA,NA,NA,NA,0,#1CD855,#FA92F8,0,0,1,40,0,681.3000000044703,37,1,710.2999999970198,0,1,experiment,NA,NA,1,0.7,0.3,2,3,198,5,NA
fcp-trial,233,1087128,0.0-208.0-0.0,voc_e2,11757,"[{""event"":""fullscreenenter"",""trial"":1,""time"":4293}]",NA,NA,NA,NA,NA,6,#D89F1C,#3386FF,0,0,0,40,0,1256.6000000014901,39,0,797.3000000044703,0,1,experiment,NA,NA,2,0.5,0.5,5,4,199,5,NA
fcp-trial,234,1090924,0.0-209.0-0.0,voc_e2,11757,"[{""event"":""fullscreenenter"",""trial"":1,""time"":4293}]",NA,NA,NA,NA,NA,5,#D89F1C,#3386FF,10,10,0,40,0,727,37,1,1563.0999999940395,10,0,experiment,NA,NA,2,0.5,0.5,5,4,200,5,NA
fcp-trial,235,1096013,0.0-210.0-0.0,voc_e2,11757,"[{""event"":""fullscreenenter"",""trial"":1,""time"":4293}]",NA,NA,NA,NA,NA,2,#741CD8,#D8271C,0,10,0,40,0,2189.7999999970198,39,0,1392.6999999955297,10,1,experiment,NA,NA,0,0.1,0.9,1,0,201,5,NA
fcp-trial,236,1100083,0.0-211.0-0.0,voc_e2,11757,"[{""event"":""fullscreenenter"",""trial"":1,""time"":4293}]",NA,NA,NA,NA,NA,1,#FA92F8,#1CD855,10,10,0,40,0,1577.8999999985099,39,0,985.7999999970198,10,1,experiment,NA,NA,1,0.3,0.7,3,2,202,5,NA
fcp-trial,237,1104820,0.0-212.0-0.0,voc_e2,11757,"[{""event"":""fullscreenenter"",""trial"":1,""time"":4293}]",NA,NA,NA,NA,NA,2,#FA92F8,#1CD855,0,0,0,40,0,1313.6000000014901,37,1,1884.2999999970198,0,0,experiment,NA,NA,1,0.3,0.7,3,2,203,5,NA
fcp-trial,238,1108927,0.0-213.0-0.0,voc_e2,11757,"[{""event"":""fullscreenenter"",""trial"":1,""time"":4293}]",NA,NA,NA,NA,NA,4,#FA92F8,#1CD855,0,10,0,40,0,782.9000000059605,37,1,1813.5999999940395,0,0,experiment,NA,NA,1,0.3,0.7,3,2,204,5,NA
fcp-trial,239,1113042,0.0-214.0-0.0,voc_e2,11757,"[{""event"":""fullscreenenter"",""trial"":1,""time"":4293}]",NA,NA,NA,NA,NA,0,#3386FF,#D89F1C,10,0,1,38,1,2224.6999999955297,37,1,382,10,1,experiment,NA,NA,2,0.5,0.5,4,5,205,5,NA
fcp-trial,240,1118467,0.0-215.0-0.0,voc_e2,11757,"[{""event"":""fullscreenenter"",""trial"":1,""time"":4293}]",NA,NA,NA,NA,NA,0,#741CD8,#D8271C,0,10,0,40,0,1907.2000000029802,39,0,2007.8000000044703,10,1,experiment,NA,NA,0,0.1,0.9,1,0,206,5,NA
fcp-trial,241,1122129,0.0-216.0-0.0,voc_e2,11757,"[{""event"":""fullscreenenter"",""trial"":1,""time"":4293}]",NA,NA,NA,NA,NA,2,#D89F1C,#3386FF,0,0,0,40,0,514.3999999985099,37,1,1636.3000000044703,0,0,experiment,NA,NA,2,0.5,0.5,5,4,207,5,NA
fcp-trial,242,1125907,0.0-217.0-0.0,voc_e2,11757,"[{""event"":""fullscreenenter"",""trial"":1,""time"":4293}]",NA,NA,NA,NA,NA,6,#741CD8,#D8271C,0,10,0,38,1,1492.6999999955297,37,1,778,0,0,experiment,NA,NA,0,0.1,0.9,1,0,208,5,NA
fcp-trial,243,1130915,0.0-218.0-0.0,voc_e2,11757,"[{""event"":""fullscreenenter"",""trial"":1,""time"":4293}]",NA,NA,NA,NA,NA,5,#FA92F8,#1CD855,0,10,0,40,0,1120.3999999985099,37,1,2376.39999999851,0,0,experiment,NA,NA,1,0.3,0.7,3,2,209,5,NA
fcp-trial,244,1134860,0.0-219.0-0.0,voc_e2,11757,"[{""event"":""fullscreenenter"",""trial"":1,""time"":4293}]",NA,NA,NA,NA,NA,4,#D8271C,#741CD8,10,10,1,40,0,964.8999999985099,39,0,1472.3999999985099,10,0,experiment,NA,NA,0,0.9,0.1,0,1,210,5,NA
audio-instructions,245,1222998,0.0-220.0,voc_e2,11757,"[{""event"":""fullscreenenter"",""trial"":1,""time"":4293}]",NA,83554.39999999851,static/audio/pause.wav,NA,0,NA,NA,NA,NA,NA,NA,NA,NA,NA,NA,NA,NA,NA,NA,NA,NA,NA,NA,NA,NA,NA,NA,NA,NA,NA
fcp-trial,246,1227395,0.0-221.0-0.0,voc_e2,11757,"[{""event"":""fullscreenenter"",""trial"":1,""time"":4293}]",NA,NA,NA,NA,NA,4,#D89F1C,#3386FF,10,10,0,40,0,1748.8999999985099,39,0,1131.3999999985099,10,1,experiment,NA,NA,2,0.5,0.5,5,4,211,5,NA
fcp-trial,247,1229907,0.0-222.0-0.0,voc_e2,11757,"[{""event"":""fullscreenenter"",""trial"":1,""time"":4293}]",NA,NA,NA,NA,NA,4,#741CD8,#D8271C,10,10,0,40,0,132.80000000447035,37,1,870,10,0,experiment,NA,NA,0,0.1,0.9,1,0,212,5,NA
fcp-trial,248,1232688,0.0-223.0-0.0,voc_e2,11757,"[{""event"":""fullscreenenter"",""trial"":1,""time"":4293}]",NA,NA,NA,NA,NA,6,#FA92F8,#1CD855,0,0,0,40,0,662.5999999940395,37,1,608.6000000014901,0,0,experiment,NA,NA,1,0.3,0.7,3,2,213,5,NA
fcp-trial,249,1235349,0.0-224.0-0.0,voc_e2,11757,"[{""event"":""fullscreenenter"",""trial"":1,""time"":4293}]",NA,NA,NA,NA,NA,0,#3386FF,#D89F1C,0,0,1,40,0,468,39,0,682.4000000059605,0,0,experiment,NA,NA,2,0.5,0.5,4,5,214,5,NA
fcp-trial,250,1238114,0.0-225.0-0.0,voc_e2,11757,"[{""event"":""fullscreenenter"",""trial"":1,""time"":4293}]",NA,NA,NA,NA,NA,3,#D89F1C,#3386FF,10,0,0,40,0,621.5999999940395,37,1,632.2000000029802,10,0,experiment,NA,NA,2,0.5,0.5,5,4,215,5,NA
fcp-trial,251,1240814,0.0-226.0-0.0,voc_e2,11757,"[{""event"":""fullscreenenter"",""trial"":1,""time"":4293}]",NA,NA,NA,NA,NA,3,#D8271C,#741CD8,10,10,1,40,0,453.30000000447035,37,1,728.5,10,1,experiment,NA,NA,0,0.9,0.1,0,1,216,5,NA
fcp-trial,252,1243444,0.0-227.0-0.0,voc_e2,11757,"[{""event"":""fullscreenenter"",""trial"":1,""time"":4293}]",NA,NA,NA,NA,NA,5,#1CD855,#FA92F8,10,0,1,40,0,462.70000000298023,39,0,645.2000000029802,0,0,experiment,NA,NA,1,0.7,0.3,2,3,217,5,NA
fcp-trial,253,1245939,0.0-228.0-0.0,voc_e2,11757,"[{""event"":""fullscreenenter"",""trial"":1,""time"":4293}]",NA,NA,NA,NA,NA,4,#1CD855,#FA92F8,10,0,1,40,0,450.3999999985099,37,1,533.2999999970198,10,1,experiment,NA,NA,1,0.7,0.3,2,3,218,5,NA
fcp-trial,254,1248477,0.0-229.0-0.0,voc_e2,11757,"[{""event"":""fullscreenenter"",""trial"":1,""time"":4293}]",NA,NA,NA,NA,NA,1,#1CD855,#FA92F8,10,10,1,40,0,563.3000000044703,39,0,465.6000000014901,10,0,experiment,NA,NA,1,0.7,0.3,2,3,219,5,NA
fcp-trial,255,1251492,0.0-230.0-0.0,voc_e2,11757,"[{""event"":""fullscreenenter"",""trial"":1,""time"":4293}]",NA,NA,NA,NA,NA,1,#3386FF,#D89F1C,10,0,1,40,0,556.6999999955297,37,1,939.5,10,1,experiment,NA,NA,2,0.5,0.5,4,5,220,5,NA
fcp-trial,256,1254178,0.0-231.0-0.0,voc_e2,11757,"[{""event"":""fullscreenenter"",""trial"":1,""time"":4293}]",NA,NA,NA,NA,NA,0,#D8271C,#741CD8,10,0,1,40,0,490.5,37,1,684.6999999955297,10,1,experiment,NA,NA,0,0.9,0.1,0,1,221,5,NA
fcp-trial,257,1257085,0.0-232.0-0.0,voc_e2,11757,"[{""event"":""fullscreenenter"",""trial"":1,""time"":4293}]",NA,NA,NA,NA,NA,6,#D89F1C,#3386FF,0,10,0,40,0,636.1000000014901,39,0,756.6999999955297,10,1,experiment,NA,NA,2,0.5,0.5,5,4,222,5,NA
fcp-trial,258,1259727,0.0-233.0-0.0,voc_e2,11757,"[{""event"":""fullscreenenter"",""trial"":1,""time"":4293}]",NA,NA,NA,NA,NA,2,#FA92F8,#1CD855,0,10,0,40,0,320.30000000447035,39,0,811.4000000059605,10,1,experiment,NA,NA,1,0.3,0.7,3,2,223,5,NA
fcp-trial,259,1262429,0.0-234.0-0.0,voc_e2,11757,"[{""event"":""fullscreenenter"",""trial"":1,""time"":4293}]",NA,NA,NA,NA,NA,6,#D8271C,#741CD8,10,0,1,40,0,559.1999999955297,37,1,633.8000000044703,10,1,experiment,NA,NA,0,0.9,0.1,0,1,224,5,NA
fcp-trial,260,1265206,0.0-235.0-0.0,voc_e2,11757,"[{""event"":""fullscreenenter"",""trial"":1,""time"":4293}]",NA,NA,NA,NA,NA,2,#3386FF,#D89F1C,0,10,1,40,0,476.19999999552965,37,1,795.8000000044703,0,1,experiment,NA,NA,2,0.5,0.5,4,5,225,5,NA
fcp-trial,261,1267771,0.0-236.0-0.0,voc_e2,11757,"[{""event"":""fullscreenenter"",""trial"":1,""time"":4293}]",NA,NA,NA,NA,NA,3,#FA92F8,#1CD855,0,10,0,40,0,620.2000000029802,39,0,434.6000000014901,10,1,experiment,NA,NA,1,0.3,0.7,3,2,226,6,NA
fcp-trial,262,1270499,0.0-237.0-0.0,voc_e2,11757,"[{""event"":""fullscreenenter"",""trial"":1,""time"":4293}]",NA,NA,NA,NA,NA,2,#741CD8,#D8271C,0,10,0,40,0,722.5999999940395,39,0,493.3999999985099,10,1,experiment,NA,NA,0,0.1,0.9,1,0,227,6,NA
fcp-trial,263,1272915,0.0-238.0-0.0,voc_e2,11757,"[{""event"":""fullscreenenter"",""trial"":1,""time"":4293}]",NA,NA,NA,NA,NA,0,#1CD855,#FA92F8,0,0,1,40,0,281.70000000298023,39,0,613.3000000044703,0,0,experiment,NA,NA,1,0.7,0.3,2,3,228,6,NA
fcp-trial,264,1278051,0.0-239.0-0.0,voc_e2,11757,"[{""event"":""fullscreenenter"",""trial"":1,""time"":4293}]",NA,NA,NA,NA,NA,5,#741CD8,#D8271C,0,10,0,40,0,1715.7999999970198,39,0,1912.7000000029802,10,1,experiment,NA,NA,0,0.1,0.9,1,0,229,6,NA
fcp-trial,265,1281508,0.0-240.0-0.0,voc_e2,11757,"[{""event"":""fullscreenenter"",""trial"":1,""time"":4293}]",NA,NA,NA,NA,NA,5,#D89F1C,#3386FF,0,10,0,40,0,714,37,1,1236.7000000029802,0,0,experiment,NA,NA,2,0.5,0.5,5,4,230,6,NA
fcp-trial,266,1285302,0.0-241.0-0.0,voc_e2,11757,"[{""event"":""fullscreenenter"",""trial"":1,""time"":4293}]",NA,NA,NA,NA,NA,1,#741CD8,#D8271C,0,10,0,40,0,1585.0999999940395,39,0,697,10,1,experiment,NA,NA,0,0.1,0.9,1,0,231,6,NA
fcp-trial,267,1289100,0.0-242.0-0.0,voc_e2,11757,"[{""event"":""fullscreenenter"",""trial"":1,""time"":4293}]",NA,NA,NA,NA,NA,3,#1CD855,#FA92F8,10,0,1,40,0,1683.8999999985099,39,0,609.1999999955297,0,0,experiment,NA,NA,1,0.7,0.3,2,3,232,6,NA
fcp-trial,268,1291924,0.0-243.0-0.0,voc_e2,11757,"[{""event"":""fullscreenenter"",""trial"":1,""time"":4293}]",NA,NA,NA,NA,NA,2,#D8271C,#741CD8,10,0,1,40,0,684.3999999985099,37,1,632.2999999970198,10,1,experiment,NA,NA,0,0.9,0.1,0,1,233,6,NA
fcp-trial,269,1294823,0.0-244.0-0.0,voc_e2,11757,"[{""event"":""fullscreenenter"",""trial"":1,""time"":4293}]",NA,NA,NA,NA,NA,3,#D89F1C,#3386FF,0,0,0,40,0,876.4000000059605,37,1,505.1000000014901,0,0,experiment,NA,NA,2,0.5,0.5,5,4,234,6,NA
fcp-trial,270,1297528,0.0-245.0-0.0,voc_e2,11757,"[{""event"":""fullscreenenter"",""trial"":1,""time"":4293}]",NA,NA,NA,NA,NA,1,#D89F1C,#3386FF,0,10,0,40,0,680.7999999970198,37,1,516.1999999955297,0,0,experiment,NA,NA,2,0.5,0.5,5,4,235,6,NA
fcp-trial,271,1300491,0.0-246.0-0.0,voc_e2,11757,"[{""event"":""fullscreenenter"",""trial"":1,""time"":4293}]",NA,NA,NA,NA,NA,2,#FA92F8,#1CD855,0,10,0,40,0,829.5,39,0,625.8999999985099,10,1,experiment,NA,NA,1,0.3,0.7,3,2,236,6,NA
fcp-trial,272,1303634,0.0-247.0-0.0,voc_e2,11757,"[{""event"":""fullscreenenter"",""trial"":1,""time"":4293}]",NA,NA,NA,NA,NA,4,#D89F1C,#3386FF,0,10,0,40,0,894.6000000014901,37,1,739.5999999940395,0,0,experiment,NA,NA,2,0.5,0.5,5,4,237,6,NA
fcp-trial,273,1307535,0.0-248.0-0.0,voc_e2,11757,"[{""event"":""fullscreenenter"",""trial"":1,""time"":4293}]",NA,NA,NA,NA,NA,6,#D8271C,#741CD8,10,0,1,40,0,1808.3999999985099,37,1,583.5999999940395,10,1,experiment,NA,NA,0,0.9,0.1,0,1,238,6,NA
fcp-trial,274,1312529,0.0-249.0-0.0,voc_e2,11757,"[{""event"":""fullscreenenter"",""trial"":1,""time"":4293}]",NA,NA,NA,NA,NA,0,#FA92F8,#1CD855,10,10,0,40,0,2798.9000000059605,39,0,675.7999999970198,10,1,experiment,NA,NA,1,0.3,0.7,3,2,239,6,NA
fcp-trial,275,1315113,0.0-250.0-0.0,voc_e2,11757,"[{""event"":""fullscreenenter"",""trial"":1,""time"":4293}]",NA,NA,NA,NA,NA,3,#D8271C,#741CD8,0,0,1,40,0,470.09999999403954,37,1,603.8000000044703,0,1,experiment,NA,NA,0,0.9,0.1,0,1,240,6,NA
fcp-trial,276,1317735,0.0-251.0-0.0,voc_e2,11757,"[{""event"":""fullscreenenter"",""trial"":1,""time"":4293}]",NA,NA,NA,NA,NA,5,#1CD855,#FA92F8,10,0,1,40,0,565.7999999970198,39,0,549.6999999955297,0,0,experiment,NA,NA,1,0.7,0.3,2,3,241,6,NA
fcp-trial,277,1320835,0.0-252.0-0.0,voc_e2,11757,"[{""event"":""fullscreenenter"",""trial"":1,""time"":4293}]",NA,NA,NA,NA,NA,2,#3386FF,#D89F1C,0,10,1,40,0,881.8000000044703,39,0,710.1000000014901,10,0,experiment,NA,NA,2,0.5,0.5,4,5,242,6,NA
fcp-trial,278,1323518,0.0-253.0-0.0,voc_e2,11757,"[{""event"":""fullscreenenter"",""trial"":1,""time"":4293}]",NA,NA,NA,NA,NA,1,#FA92F8,#1CD855,0,10,0,40,0,517.1000000014901,37,1,661,0,0,experiment,NA,NA,1,0.3,0.7,3,2,243,6,NA
fcp-trial,279,1326646,0.0-254.0-0.0,voc_e2,11757,"[{""event"":""fullscreenenter"",""trial"":1,""time"":4293}]",NA,NA,NA,NA,NA,0,#D89F1C,#3386FF,0,10,0,40,0,867.2000000029802,37,1,752,0,0,experiment,NA,NA,2,0.5,0.5,5,4,244,6,NA
fcp-trial,280,1329452,0.0-255.0-0.0,voc_e2,11757,"[{""event"":""fullscreenenter"",""trial"":1,""time"":4293}]",NA,NA,NA,NA,NA,1,#D8271C,#741CD8,10,10,1,40,0,627.9000000059605,37,1,664.3000000044703,10,1,experiment,NA,NA,0,0.9,0.1,0,1,245,6,NA
fcp-trial,281,1332632,0.0-256.0-0.0,voc_e2,11757,"[{""event"":""fullscreenenter"",""trial"":1,""time"":4293}]",NA,NA,NA,NA,NA,4,#1CD855,#FA92F8,0,0,1,40,0,824.3999999985099,39,0,845.8999999985099,0,0,experiment,NA,NA,1,0.7,0.3,2,3,246,6,NA
fcp-trial,282,1335734,0.0-257.0-0.0,voc_e2,11757,"[{""event"":""fullscreenenter"",""trial"":1,""time"":4293}]",NA,NA,NA,NA,NA,5,#3386FF,#D89F1C,0,10,1,40,0,889.2000000029802,39,0,704.7000000029802,10,0,experiment,NA,NA,2,0.5,0.5,4,5,247,6,NA
fcp-trial,283,1338842,0.0-258.0-0.0,voc_e2,11757,"[{""event"":""fullscreenenter"",""trial"":1,""time"":4293}]",NA,NA,NA,NA,NA,6,#3386FF,#D89F1C,10,0,1,40,0,949.2000000029802,39,0,648.7000000029802,0,0,experiment,NA,NA,2,0.5,0.5,4,5,248,6,NA
fcp-trial,284,1341935,0.0-259.0-0.0,voc_e2,11757,"[{""event"":""fullscreenenter"",""trial"":1,""time"":4293}]",NA,NA,NA,NA,NA,5,#D8271C,#741CD8,10,10,1,40,0,1073.7999999970198,39,0,507.3999999985099,10,0,experiment,NA,NA,0,0.9,0.1,0,1,249,6,NA
fcp-trial,285,1344741,0.0-260.0-0.0,voc_e2,11757,"[{""event"":""fullscreenenter"",""trial"":1,""time"":4293}]",NA,NA,NA,NA,NA,6,#1CD855,#FA92F8,10,10,1,40,0,651.6999999955297,37,1,641.5,10,1,experiment,NA,NA,1,0.7,0.3,2,3,250,6,NA
fcp-trial,286,1347782,0.0-261.0-0.0,voc_e2,11757,"[{""event"":""fullscreenenter"",""trial"":1,""time"":4293}]",NA,NA,NA,NA,NA,0,#741CD8,#D8271C,10,10,0,40,0,855.7000000029802,37,1,676,10,0,experiment,NA,NA,0,0.1,0.9,1,0,251,6,NA
fcp-trial,287,1350441,0.0-262.0-0.0,voc_e2,11757,"[{""event"":""fullscreenenter"",""trial"":1,""time"":4293}]",NA,NA,NA,NA,NA,4,#741CD8,#D8271C,0,10,0,40,0,468.70000000298023,39,0,683.6000000014901,10,1,experiment,NA,NA,0,0.1,0.9,1,0,252,6,NA
fcp-trial,288,1353195,0.0-263.0-0.0,voc_e2,11757,"[{""event"":""fullscreenenter"",""trial"":1,""time"":4293}]",NA,NA,NA,NA,NA,4,#3386FF,#D89F1C,0,10,1,40,0,589.1000000014901,39,0,655.1999999955297,10,0,experiment,NA,NA,2,0.5,0.5,4,5,253,6,NA
fcp-trial,289,1356821,0.0-264.0-0.0,voc_e2,11757,"[{""event"":""fullscreenenter"",""trial"":1,""time"":4293}]",NA,NA,NA,NA,NA,1,#FA92F8,#1CD855,10,10,0,40,0,1035.1999999955297,39,0,1080.2000000029802,10,1,experiment,NA,NA,1,0.3,0.7,3,2,254,6,NA
fcp-trial,290,1360038,0.0-265.0-0.0,voc_e2,11757,"[{""event"":""fullscreenenter"",""trial"":1,""time"":4293}]",NA,NA,NA,NA,NA,5,#FA92F8,#1CD855,0,0,0,40,0,931.8000000044703,37,1,777.1000000014901,0,0,experiment,NA,NA,1,0.3,0.7,3,2,255,6,NA
fcp-trial,291,1362635,0.0-266.0-0.0,voc_e2,11757,"[{""event"":""fullscreenenter"",""trial"":1,""time"":4293}]",NA,NA,NA,NA,NA,2,#741CD8,#D8271C,0,10,0,40,0,557,39,0,528.3999999985099,10,1,experiment,NA,NA,0,0.1,0.9,1,0,256,6,NA
fcp-trial,292,1365693,0.0-267.0-0.0,voc_e2,11757,"[{""event"":""fullscreenenter"",""trial"":1,""time"":4293}]",NA,NA,NA,NA,NA,6,#1CD855,#FA92F8,10,10,1,40,0,895.7999999970198,39,0,653.3999999985099,10,0,experiment,NA,NA,1,0.7,0.3,2,3,257,6,NA
fcp-trial,293,1368576,0.0-268.0-0.0,voc_e2,11757,"[{""event"":""fullscreenenter"",""trial"":1,""time"":4293}]",NA,NA,NA,NA,NA,6,#D89F1C,#3386FF,0,0,0,40,0,690.3999999985099,37,1,685.2000000029802,0,0,experiment,NA,NA,2,0.5,0.5,5,4,258,6,NA
fcp-trial,294,1371118,0.0-269.0-0.0,voc_e2,11757,"[{""event"":""fullscreenenter"",""trial"":1,""time"":4293}]",NA,NA,NA,NA,NA,6,#D8271C,#741CD8,10,0,1,40,0,490.5,39,0,542,0,0,experiment,NA,NA,0,0.9,0.1,0,1,259,6,NA
fcp-trial,295,1373816,0.0-270.0-0.0,voc_e2,11757,"[{""event"":""fullscreenenter"",""trial"":1,""time"":4293}]",NA,NA,NA,NA,NA,3,#1CD855,#FA92F8,10,10,1,40,0,567.3999999985099,37,1,617.8000000044703,10,1,experiment,NA,NA,1,0.7,0.3,2,3,260,6,NA
fcp-trial,296,1376984,0.0-271.0-0.0,voc_e2,11757,"[{""event"":""fullscreenenter"",""trial"":1,""time"":4293}]",NA,NA,NA,NA,NA,2,#3386FF,#D89F1C,0,10,1,38,1,258.8999999985099,37,1,1397.7000000029802,0,1,experiment,NA,NA,2,0.5,0.5,4,5,261,6,NA
fcp-trial,297,1379331,0.0-272.0-0.0,voc_e2,11757,"[{""event"":""fullscreenenter"",""trial"":1,""time"":4293}]",NA,NA,NA,NA,NA,3,#D89F1C,#3386FF,0,0,0,38,1,374.69999999552965,39,0,463.6000000014901,0,1,experiment,NA,NA,2,0.5,0.5,5,4,262,6,NA
fcp-trial,298,1381717,0.0-273.0-0.0,voc_e2,11757,"[{""event"":""fullscreenenter"",""trial"":1,""time"":4293}]",NA,NA,NA,NA,NA,5,#D8271C,#741CD8,10,0,1,38,1,565.5,39,0,314.20000000298023,0,0,experiment,NA,NA,0,0.9,0.1,0,1,263,6,NA
fcp-trial,299,1383918,0.0-274.0-0.0,voc_e2,11757,"[{""event"":""fullscreenenter"",""trial"":1,""time"":4293}]",NA,NA,NA,NA,NA,4,#D8271C,#741CD8,10,0,1,38,1,326.5,37,1,368.20000000298023,10,1,experiment,NA,NA,0,0.9,0.1,0,1,264,6,NA
fcp-trial,300,1386225,0.0-275.0-0.0,voc_e2,11757,"[{""event"":""fullscreenenter"",""trial"":1,""time"":4293}]",NA,NA,NA,NA,NA,0,#FA92F8,#1CD855,0,0,0,38,1,414,37,1,385.19999999552965,0,0,experiment,NA,NA,1,0.3,0.7,3,2,265,6,NA
fcp-trial,301,1388491,0.0-276.0-0.0,voc_e2,11757,"[{""event"":""fullscreenenter"",""trial"":1,""time"":4293}]",NA,NA,NA,NA,NA,5,#3386FF,#D89F1C,10,10,1,38,1,351,39,0,395.5,10,0,experiment,NA,NA,2,0.5,0.5,4,5,266,6,NA
fcp-trial,302,1391700,0.0-277.0-0.0,voc_e2,11757,"[{""event"":""fullscreenenter"",""trial"":1,""time"":4293}]",NA,NA,NA,NA,NA,0,#3386FF,#D89F1C,10,0,1,38,1,1280.2000000029802,39,0,410,0,0,experiment,NA,NA,2,0.5,0.5,4,5,267,6,NA
fcp-trial,303,1395306,0.0-278.0-0.0,voc_e2,11757,"[{""event"":""fullscreenenter"",""trial"":1,""time"":4293}]",NA,NA,NA,NA,NA,1,#741CD8,#D8271C,0,10,0,40,0,455.3999999985099,37,1,1637.1000000014901,0,0,experiment,NA,NA,0,0.1,0.9,1,0,268,6,NA
fcp-trial,304,1398106,0.0-279.0-0.0,voc_e2,11757,"[{""event"":""fullscreenenter"",""trial"":1,""time"":4293}]",NA,NA,NA,NA,NA,3,#D8271C,#741CD8,10,0,1,40,0,677.5,39,0,616.3999999985099,0,0,experiment,NA,NA,0,0.9,0.1,0,1,269,6,NA
fcp-trial,305,1403046,0.0-280.0-0.0,voc_e2,11757,"[{""event"":""fullscreenenter"",""trial"":1,""time"":4293}]",NA,NA,NA,NA,NA,4,#1CD855,#FA92F8,0,0,1,38,1,1936.1999999955297,37,1,1496.3999999985099,0,1,experiment,NA,NA,1,0.7,0.3,2,3,270,6,NA
fcp-trial,306,1407464,0.0-281.0-0.0,voc_e2,11757,"[{""event"":""fullscreenenter"",""trial"":1,""time"":4293}]",NA,NA,NA,NA,NA,1,#3386FF,#D89F1C,10,0,1,38,1,2019.8999999985099,37,1,886.7999999970198,10,1,experiment,NA,NA,2,0.5,0.5,4,5,271,7,NA
fcp-trial,307,1410448,0.0-282.0-0.0,voc_e2,11757,"[{""event"":""fullscreenenter"",""trial"":1,""time"":4293}]",NA,NA,NA,NA,NA,0,#D8271C,#741CD8,10,0,1,40,0,563,37,1,912.5,10,1,experiment,NA,NA,0,0.9,0.1,0,1,272,7,NA
fcp-trial,308,1414378,0.0-283.0-0.0,voc_e2,11757,"[{""event"":""fullscreenenter"",""trial"":1,""time"":4293}]",NA,NA,NA,NA,NA,2,#FA92F8,#1CD855,0,0,0,40,0,628.1000000014901,37,1,1793.5999999940395,0,0,experiment,NA,NA,1,0.3,0.7,3,2,273,7,NA
fcp-trial,309,1417988,0.0-284.0-0.0,voc_e2,11757,"[{""event"":""fullscreenenter"",""trial"":1,""time"":4293}]",NA,NA,NA,NA,NA,6,#FA92F8,#1CD855,0,10,0,40,0,899.1000000014901,39,0,1202.3999999985099,10,1,experiment,NA,NA,1,0.3,0.7,3,2,274,7,NA
fcp-trial,310,1422103,0.0-285.0-0.0,voc_e2,11757,"[{""event"":""fullscreenenter"",""trial"":1,""time"":4293}]",NA,NA,NA,NA,NA,6,#D89F1C,#3386FF,0,10,0,40,0,1253.5999999940395,37,1,1351.8999999985099,0,0,experiment,NA,NA,2,0.5,0.5,5,4,275,7,NA
fcp-trial,311,1424970,0.0-286.0-0.0,voc_e2,11757,"[{""event"":""fullscreenenter"",""trial"":1,""time"":4293}]",NA,NA,NA,NA,NA,3,#FA92F8,#1CD855,0,10,0,40,0,386.3999999985099,37,1,972.5,0,0,experiment,NA,NA,1,0.3,0.7,3,2,276,7,NA
fcp-trial,312,1429281,0.0-287.0-0.0,voc_e2,11757,"[{""event"":""fullscreenenter"",""trial"":1,""time"":4293}]",NA,NA,NA,NA,NA,0,#D8271C,#741CD8,10,0,1,40,0,2090.60000000149,37,1,710.2999999970198,10,1,experiment,NA,NA,0,0.9,0.1,0,1,277,7,NA
fcp-trial,313,1432126,0.0-288.0-0.0,voc_e2,11757,"[{""event"":""fullscreenenter"",""trial"":1,""time"":4293}]",NA,NA,NA,NA,NA,4,#FA92F8,#1CD855,0,0,0,40,0,735.1000000014901,37,1,600.3000000044703,0,0,experiment,NA,NA,1,0.3,0.7,3,2,278,7,NA
fcp-trial,314,1434980,0.0-289.0-0.0,voc_e2,11757,"[{""event"":""fullscreenenter"",""trial"":1,""time"":4293}]",NA,NA,NA,NA,NA,0,#D89F1C,#3386FF,10,10,0,40,0,395.5,39,0,944.0999999940395,10,1,experiment,NA,NA,2,0.5,0.5,5,4,279,7,NA
fcp-trial,315,1437334,0.0-290.0-0.0,voc_e2,11757,"[{""event"":""fullscreenenter"",""trial"":1,""time"":4293}]",NA,NA,NA,NA,NA,2,#D89F1C,#3386FF,10,0,0,40,0,319.5,37,1,522.2999999970198,10,0,experiment,NA,NA,2,0.5,0.5,5,4,280,7,NA
fcp-trial,316,1440016,0.0-291.0-0.0,voc_e2,11757,"[{""event"":""fullscreenenter"",""trial"":1,""time"":4293}]",NA,NA,NA,NA,NA,0,#FA92F8,#1CD855,0,0,0,40,0,598.5,37,1,570.3000000044703,0,0,experiment,NA,NA,1,0.3,0.7,3,2,281,7,NA
fcp-trial,317,1442697,0.0-292.0-0.0,voc_e2,11757,"[{""event"":""fullscreenenter"",""trial"":1,""time"":4293}]",NA,NA,NA,NA,NA,3,#741CD8,#D8271C,0,10,0,40,0,632.6000000014901,39,0,537.8999999985099,10,1,experiment,NA,NA,0,0.1,0.9,1,0,282,7,NA
fcp-trial,318,1445361,0.0-293.0-0.0,voc_e2,11757,"[{""event"":""fullscreenenter"",""trial"":1,""time"":4293}]",NA,NA,NA,NA,NA,5,#D89F1C,#3386FF,0,0,0,40,0,558.1000000014901,39,0,599.5,0,1,experiment,NA,NA,2,0.5,0.5,5,4,283,7,NA
fcp-trial,319,1448474,0.0-294.0-0.0,voc_e2,11757,"[{""event"":""fullscreenenter"",""trial"":1,""time"":4293}]",NA,NA,NA,NA,NA,1,#1CD855,#FA92F8,0,0,1,40,0,210.20000000298023,37,1,1391.1000000014901,0,1,experiment,NA,NA,1,0.7,0.3,2,3,284,7,NA
fcp-trial,320,1451250,0.0-295.0-0.0,voc_e2,11757,"[{""event"":""fullscreenenter"",""trial"":1,""time"":4293}]",NA,NA,NA,NA,NA,1,#D8271C,#741CD8,10,0,1,38,1,200.69999999552965,37,1,1062.2000000029802,10,1,experiment,NA,NA,0,0.9,0.1,0,1,285,7,NA
fcp-trial,321,1453593,0.0-296.0-0.0,voc_e2,11757,"[{""event"":""fullscreenenter"",""trial"":1,""time"":4293}]",NA,NA,NA,NA,NA,5,#D8271C,#741CD8,10,0,1,38,1,425.5,37,1,406.20000000298023,10,1,experiment,NA,NA,0,0.9,0.1,0,1,286,7,NA
fcp-trial,322,1456137,0.0-297.0-0.0,voc_e2,11757,"[{""event"":""fullscreenenter"",""trial"":1,""time"":4293}]",NA,NA,NA,NA,NA,2,#D8271C,#741CD8,10,0,1,38,1,529.5999999940395,37,1,500.79999999701977,10,1,experiment,NA,NA,0,0.9,0.1,0,1,287,7,NA
fcp-trial,323,1458543,0.0-298.0-0.0,voc_e2,11757,"[{""event"":""fullscreenenter"",""trial"":1,""time"":4293}]",NA,NA,NA,NA,NA,3,#3386FF,#D89F1C,0,10,1,38,1,415.3999999985099,37,1,482.30000000447035,0,1,experiment,NA,NA,2,0.5,0.5,4,5,288,7,NA
fcp-trial,324,1461173,0.0-299.0-0.0,voc_e2,11757,"[{""event"":""fullscreenenter"",""trial"":1,""time"":4293}]",NA,NA,NA,NA,NA,5,#1CD855,#FA92F8,10,0,1,38,1,636.1000000014901,39,0,483.20000000298023,0,0,experiment,NA,NA,1,0.7,0.3,2,3,289,7,NA
fcp-trial,325,1463998,0.0-300.0-0.0,voc_e2,11757,"[{""event"":""fullscreenenter"",""trial"":1,""time"":4293}]",NA,NA,NA,NA,NA,2,#1CD855,#FA92F8,10,0,1,40,0,579.2000000029802,37,1,737.7000000029802,10,1,experiment,NA,NA,1,0.7,0.3,2,3,290,7,NA
fcp-trial,326,1466539,0.0-301.0-0.0,voc_e2,11757,"[{""event"":""fullscreenenter"",""trial"":1,""time"":4293}]",NA,NA,NA,NA,NA,4,#D89F1C,#3386FF,10,10,0,40,0,495.1000000014901,39,0,531.7999999970198,10,1,experiment,NA,NA,2,0.5,0.5,5,4,291,7,NA
fcp-trial,327,1468997,0.0-302.0-0.0,voc_e2,11757,"[{""event"":""fullscreenenter"",""trial"":1,""time"":4293}]",NA,NA,NA,NA,NA,6,#741CD8,#D8271C,0,0,0,40,0,598.3000000044703,37,1,353.1000000014901,0,0,experiment,NA,NA,0,0.1,0.9,1,0,292,7,NA
fcp-trial,328,1471509,0.0-303.0-0.0,voc_e2,11757,"[{""event"":""fullscreenenter"",""trial"":1,""time"":4293}]",NA,NA,NA,NA,NA,1,#D89F1C,#3386FF,10,0,0,40,0,524.2000000029802,39,0,477.70000000298023,0,1,experiment,NA,NA,2,0.5,0.5,5,4,293,7,NA
fcp-trial,329,1473933,0.0-304.0-0.0,voc_e2,11757,"[{""event"":""fullscreenenter"",""trial"":1,""time"":4293}]",NA,NA,NA,NA,NA,4,#D8271C,#741CD8,10,0,1,40,0,131.70000000298023,39,0,784.2999999970198,0,0,experiment,NA,NA,0,0.9,0.1,0,1,294,7,NA
fcp-trial,330,1476430,0.0-305.0-0.0,voc_e2,11757,"[{""event"":""fullscreenenter"",""trial"":1,""time"":4293}]",NA,NA,NA,NA,NA,4,#1CD855,#FA92F8,10,0,1,40,0,507.8999999985099,37,1,479.3999999985099,10,1,experiment,NA,NA,1,0.7,0.3,2,3,295,7,NA
fcp-trial,331,1480011,0.0-306.0-0.0,voc_e2,11757,"[{""event"":""fullscreenenter"",""trial"":1,""time"":4293}]",NA,NA,NA,NA,NA,5,#741CD8,#D8271C,0,10,0,40,0,1611.8999999985099,39,0,460.29999999701977,10,1,experiment,NA,NA,0,0.1,0.9,1,0,296,7,NA
fcp-trial,332,1482749,0.0-307.0-0.0,voc_e2,11757,"[{""event"":""fullscreenenter"",""trial"":1,""time"":4293}]",NA,NA,NA,NA,NA,6,#1CD855,#FA92F8,0,10,1,40,0,521.8999999985099,37,1,708.5,0,1,experiment,NA,NA,1,0.7,0.3,2,3,297,7,NA
fcp-trial,333,1485233,0.0-308.0-0.0,voc_e2,11757,"[{""event"":""fullscreenenter"",""trial"":1,""time"":4293}]",NA,NA,NA,NA,NA,5,#3386FF,#D89F1C,10,0,1,40,0,427.3999999985099,39,0,545.2999999970198,0,0,experiment,NA,NA,2,0.5,0.5,4,5,298,7,NA
fcp-trial,334,1488149,0.0-309.0-0.0,voc_e2,11757,"[{""event"":""fullscreenenter"",""trial"":1,""time"":4293}]",NA,NA,NA,NA,NA,6,#741CD8,#D8271C,0,10,0,40,0,817.5999999940395,37,1,589.6999999955297,0,0,experiment,NA,NA,0,0.1,0.9,1,0,299,7,NA
fcp-trial,335,1491374,0.0-310.0-0.0,voc_e2,11757,"[{""event"":""fullscreenenter"",""trial"":1,""time"":4293}]",NA,NA,NA,NA,NA,5,#FA92F8,#1CD855,0,10,0,40,0,1046.8999999985099,37,1,671.7000000029802,0,0,experiment,NA,NA,1,0.3,0.7,3,2,300,7,NA
fcp-trial,336,1493969,0.0-311.0-0.0,voc_e2,11757,"[{""event"":""fullscreenenter"",""trial"":1,""time"":4293}]",NA,NA,NA,NA,NA,3,#3386FF,#D89F1C,10,10,1,40,0,417.79999999701977,37,1,664.7999999970198,10,1,experiment,NA,NA,2,0.5,0.5,4,5,301,7,NA
fcp-trial,337,1497039,0.0-312.0-0.0,voc_e2,11757,"[{""event"":""fullscreenenter"",""trial"":1,""time"":4293}]",NA,NA,NA,NA,NA,1,#D89F1C,#3386FF,10,0,0,40,0,750.3999999985099,37,1,812.5,10,0,experiment,NA,NA,2,0.5,0.5,5,4,302,7,NA
fcp-trial,338,1499891,0.0-313.0-0.0,voc_e2,11757,"[{""event"":""fullscreenenter"",""trial"":1,""time"":4293}]",NA,NA,NA,NA,NA,0,#FA92F8,#1CD855,0,10,0,40,0,692.3999999985099,37,1,653.3999999985099,0,0,experiment,NA,NA,1,0.3,0.7,3,2,303,7,NA
fcp-trial,339,1502171,0.0-314.0-0.0,voc_e2,11757,"[{""event"":""fullscreenenter"",""trial"":1,""time"":4293}]",NA,NA,NA,NA,NA,2,#D8271C,#741CD8,10,0,1,38,1,358.1000000014901,37,1,416.80000000447035,10,1,experiment,NA,NA,0,0.9,0.1,0,1,304,7,NA
fcp-trial,340,1504636,0.0-315.0-0.0,voc_e2,11757,"[{""event"":""fullscreenenter"",""trial"":1,""time"":4293}]",NA,NA,NA,NA,NA,2,#1CD855,#FA92F8,10,0,1,38,1,430.79999999701977,37,1,525.3999999985099,10,1,experiment,NA,NA,1,0.7,0.3,2,3,305,7,NA
fcp-trial,341,1506874,0.0-316.0-0.0,voc_e2,11757,"[{""event"":""fullscreenenter"",""trial"":1,""time"":4293}]",NA,NA,NA,NA,NA,6,#3386FF,#D89F1C,10,0,1,38,1,332.5,37,1,398.6000000014901,10,1,experiment,NA,NA,2,0.5,0.5,4,5,306,7,NA
fcp-trial,342,1509214,0.0-317.0-0.0,voc_e2,11757,"[{""event"":""fullscreenenter"",""trial"":1,""time"":4293}]",NA,NA,NA,NA,NA,3,#D8271C,#741CD8,10,0,1,38,1,467.70000000298023,37,1,365.80000000447035,10,1,experiment,NA,NA,0,0.9,0.1,0,1,307,7,NA
fcp-trial,343,1511554,0.0-318.0-0.0,voc_e2,11757,"[{""event"":""fullscreenenter"",""trial"":1,""time"":4293}]",NA,NA,NA,NA,NA,3,#FA92F8,#1CD855,0,10,0,38,1,407.1000000014901,37,1,420.6000000014901,0,0,experiment,NA,NA,1,0.3,0.7,3,2,308,7,NA
fcp-trial,344,1514542,0.0-319.0-0.0,voc_e2,11757,"[{""event"":""fullscreenenter"",""trial"":1,""time"":4293}]",NA,NA,NA,NA,NA,0,#D89F1C,#3386FF,0,0,0,38,1,683.1000000014901,39,0,794.5999999940395,0,1,experiment,NA,NA,2,0.5,0.5,5,4,309,7,NA
fcp-trial,345,1517333,0.0-320.0-0.0,voc_e2,11757,"[{""event"":""fullscreenenter"",""trial"":1,""time"":4293}]",NA,NA,NA,NA,NA,1,#D8271C,#741CD8,10,0,1,40,0,516,37,1,767.8999999985099,10,1,experiment,NA,NA,0,0.9,0.1,0,1,310,7,NA
fcp-trial,346,1519816,0.0-321.0-0.0,voc_e2,11757,"[{""event"":""fullscreenenter"",""trial"":1,""time"":4293}]",NA,NA,NA,NA,NA,1,#1CD855,#FA92F8,10,0,1,40,0,321.8999999985099,39,0,642.1999999955297,0,0,experiment,NA,NA,1,0.7,0.3,2,3,311,7,NA
fcp-trial,347,1522649,0.0-322.0-0.0,voc_e2,11757,"[{""event"":""fullscreenenter"",""trial"":1,""time"":4293}]",NA,NA,NA,NA,NA,0,#741CD8,#D8271C,0,10,0,40,0,766.6999999955297,39,0,559.8999999985099,10,1,experiment,NA,NA,0,0.1,0.9,1,0,312,7,NA
fcp-trial,348,1525351,0.0-323.0-0.0,voc_e2,11757,"[{""event"":""fullscreenenter"",""trial"":1,""time"":4293}]",NA,NA,NA,NA,NA,4,#741CD8,#D8271C,0,10,0,40,0,539.1000000014901,39,0,653,10,1,experiment,NA,NA,0,0.1,0.9,1,0,313,7,NA
fcp-trial,349,1528253,0.0-324.0-0.0,voc_e2,11757,"[{""event"":""fullscreenenter"",""trial"":1,""time"":4293}]",NA,NA,NA,NA,NA,2,#3386FF,#D89F1C,10,0,1,40,0,818.5999999940395,37,1,575.2999999970198,10,1,experiment,NA,NA,2,0.5,0.5,4,5,314,7,NA
fcp-trial,350,1531126,0.0-325.0-0.0,voc_e2,11757,"[{""event"":""fullscreenenter"",""trial"":1,""time"":4293}]",NA,NA,NA,NA,NA,4,#3386FF,#D89F1C,0,10,1,40,0,818.5,37,1,548.6999999955297,0,1,experiment,NA,NA,2,0.5,0.5,4,5,315,7,NA
audio-instructions,351,1539540,0.0-326.0,voc_e2,11757,"[{""event"":""fullscreenenter"",""trial"":1,""time"":4293}]",NA,2629.20000000298,static/audio/finished.wav,NA,0,NA,NA,NA,NA,NA,NA,NA,NA,NA,NA,NA,NA,NA,NA,NA,NA,NA,NA,NA,NA,NA,NA,NA,NA,NA
audio-instructions,352,1551396,0.0-327.0-0.0,voc_e2,11757,"[{""event"":""fullscreenenter"",""trial"":1,""time"":4293}]",NA,1018.60000000149,static/audio/explicit1.wav,NA,0,NA,NA,NA,NA,NA,NA,NA,NA,NA,NA,NA,NA,NA,NA,NA,NA,NA,NA,NA,NA,NA,NA,NA,NA,NA
audio-instructions,353,1560299,0.0-327.0-1.0,voc_e2,11757,"[{""event"":""fullscreenenter"",""trial"":1,""time"":4293}]",NA,1301.1999999955297,static/audio/explicit2.wav,NA,0,NA,NA,NA,NA,NA,NA,NA,NA,NA,NA,NA,NA,NA,NA,NA,NA,NA,NA,NA,NA,NA,NA,NA,NA,NA
image-slider-response,354,1566447,0.0-328.0,voc_e2,11757,"[{""event"":""fullscreenenter"",""trial"":1,""time"":4293}]",NA,6143.19999999553,static/img/machines/machine1.png,NA,NA,NA,NA,NA,NA,NA,NA,NA,NA,NA,NA,NA,NA,NA,NA,explicit,NA,NA,NA,NA,NA,NA,NA,NA,NA,4
image-slider-response,355,1572910,0.0-329.0,voc_e2,11757,"[{""event"":""fullscreenenter"",""trial"":1,""time"":4293}]",NA,6461,static/img/machines/machine4.png,NA,NA,NA,NA,NA,NA,NA,NA,NA,NA,NA,NA,NA,NA,NA,NA,explicit,NA,NA,NA,NA,NA,NA,NA,NA,NA,9
image-slider-response,356,1577711,0.0-330.0,voc_e2,11757,"[{""event"":""fullscreenenter"",""trial"":1,""time"":4293}]",NA,4799.29999999702,static/img/machines/machine5.png,NA,NA,NA,NA,NA,NA,NA,NA,NA,NA,NA,NA,NA,NA,NA,NA,explicit,NA,NA,NA,NA,NA,NA,NA,NA,NA,7
image-slider-response,357,1582363,0.0-331.0,voc_e2,11757,"[{""event"":""fullscreenenter"",""trial"":1,""time"":4293}]",NA,4650,static/img/machines/machine2.png,NA,NA,NA,NA,NA,NA,NA,NA,NA,NA,NA,NA,NA,NA,NA,NA,explicit,NA,NA,NA,NA,NA,NA,NA,NA,NA,7
image-slider-response,358,1587995,0.0-332.0,voc_e2,11757,"[{""event"":""fullscreenenter"",""trial"":1,""time"":4293}]",NA,5630.60000000149,static/img/machines/machine3.png,NA,NA,NA,NA,NA,NA,NA,NA,NA,NA,NA,NA,NA,NA,NA,NA,explicit,NA,NA,NA,NA,NA,NA,NA,NA,NA,8
image-slider-response,359,1591592,0.0-333.0,voc_e2,11757,"[{""event"":""fullscreenenter"",""trial"":1,""time"":4293}]",NA,3595.3000000044703,static/img/machines/machine6.png,NA,NA,NA,NA,NA,NA,NA,NA,NA,NA,NA,NA,NA,NA,NA,NA,explicit,NA,NA,NA,NA,NA,NA,NA,NA,NA,9
