trial_type,trial_index,time_elapsed,internal_node_id,task_version,subject_id,interactions,success,rt,stimulus,key_press,button_pressed,offer,arcade_color_L,arcade_color_R,arcade_outcome_L,arcade_outcome_R,correct,stage_1_key,stage_1_choice,stage_1_rt,stage_2_key,stage_2_choice,stage_2_rt,stage_3_outcome,accuracy,phase,responses,num_errors,context,reward_prob_L,reward_prob_R,arcade_id_L,arcade_id_R,trial,block,response
pavlovia,0,8,0.0-0.0,voc_e2,11949,[],NA,NA,NA,NA,NA,NA,NA,NA,NA,NA,NA,NA,NA,NA,NA,NA,NA,NA,NA,NA,NA,NA,NA,NA,NA,NA,NA,NA,NA,NA
fullscreen,1,24566,0.0-1.0,voc_e2,11949,"[{""event"":""blur"",""trial"":1,""time"":5318},{""event"":""focus"",""trial"":1,""time"":22854},{""event"":""fullscreenenter"",""trial"":1,""time"":23596}]",TRUE,NA,NA,NA,NA,NA,NA,NA,NA,NA,NA,NA,NA,NA,NA,NA,NA,NA,NA,NA,NA,NA,NA,NA,NA,NA,NA,NA,NA,NA
audio-keyboard-response,2,26835,0.0-2.0,voc_e2,11949,"[{""event"":""blur"",""trial"":1,""time"":5318},{""event"":""focus"",""trial"":1,""time"":22854},{""event"":""fullscreenenter"",""trial"":1,""time"":23596}]",NA,2219,static/audio/beep_loop.wav,32,NA,NA,NA,NA,NA,NA,NA,NA,NA,NA,NA,NA,NA,NA,NA,NA,NA,NA,NA,NA,NA,NA,NA,NA,NA,NA
audio-test,3,28347,0.0-3.0,voc_e2,11949,"[{""event"":""blur"",""trial"":1,""time"":5318},{""event"":""focus"",""trial"":1,""time"":22854},{""event"":""fullscreenenter"",""trial"":1,""time"":23596}]",NA,NA,static/audio/turtle.wav,NA,3,NA,NA,NA,NA,NA,NA,NA,NA,NA,NA,NA,NA,NA,NA,NA,NA,NA,NA,NA,NA,NA,NA,NA,NA,NA
audio-test,4,30597,0.0-4.0,voc_e2,11949,"[{""event"":""blur"",""trial"":1,""time"":5318},{""event"":""focus"",""trial"":1,""time"":22854},{""event"":""fullscreenenter"",""trial"":1,""time"":23596}]",NA,NA,static/audio/shark.wav,NA,2,NA,NA,NA,NA,NA,NA,NA,NA,NA,NA,NA,NA,NA,NA,NA,NA,NA,NA,NA,NA,NA,NA,NA,NA,NA
audio-instructions,5,37884,0.0-5.0-0.0,voc_e2,11949,"[{""event"":""blur"",""trial"":1,""time"":5318},{""event"":""focus"",""trial"":1,""time"":22854},{""event"":""fullscreenenter"",""trial"":1,""time"":23596}]",NA,1506.5,static/audio/instructions1.wav,NA,0,NA,NA,NA,NA,NA,NA,NA,NA,NA,NA,NA,NA,NA,NA,NA,NA,NA,NA,NA,NA,NA,NA,NA,NA,NA
audio-instructions,6,49019,0.0-5.0-1.0,voc_e2,11949,"[{""event"":""blur"",""trial"":1,""time"":5318},{""event"":""focus"",""trial"":1,""time"":22854},{""event"":""fullscreenenter"",""trial"":1,""time"":23596},{""event"":""blur"",""trial"":6,""time"":43668},{""event"":""focus"",""trial"":6,""time"":46593}]",NA,4396.800000011921,static/audio/instructions2.wav,NA,0,NA,NA,NA,NA,NA,NA,NA,NA,NA,NA,NA,NA,NA,NA,NA,NA,NA,NA,NA,NA,NA,NA,NA,NA,NA
audio-instructions,7,57570,0.0-5.0-2.0,voc_e2,11949,"[{""event"":""blur"",""trial"":1,""time"":5318},{""event"":""focus"",""trial"":1,""time"":22854},{""event"":""fullscreenenter"",""trial"":1,""time"":23596},{""event"":""blur"",""trial"":6,""time"":43668},{""event"":""focus"",""trial"":6,""time"":46593}]",NA,2750.699999988079,static/audio/instructions3.wav,NA,0,NA,NA,NA,NA,NA,NA,NA,NA,NA,NA,NA,NA,NA,NA,NA,NA,NA,NA,NA,NA,NA,NA,NA,NA,NA
audio-instructions,8,72574,0.0-5.0-3.0,voc_e2,11949,"[{""event"":""blur"",""trial"":1,""time"":5318},{""event"":""focus"",""trial"":1,""time"":22854},{""event"":""fullscreenenter"",""trial"":1,""time"":23596},{""event"":""blur"",""trial"":6,""time"":43668},{""event"":""focus"",""trial"":6,""time"":46593}]",NA,1776.0999999642372,static/audio/instructions4.wav,NA,0,NA,NA,NA,NA,NA,NA,NA,NA,NA,NA,NA,NA,NA,NA,NA,NA,NA,NA,NA,NA,NA,NA,NA,NA,NA
audio-instructions,9,82493,0.0-5.0-4.0,voc_e2,11949,"[{""event"":""blur"",""trial"":1,""time"":5318},{""event"":""focus"",""trial"":1,""time"":22854},{""event"":""fullscreenenter"",""trial"":1,""time"":23596},{""event"":""blur"",""trial"":6,""time"":43668},{""event"":""focus"",""trial"":6,""time"":46593}]",NA,532.5999999642372,static/audio/instructions5.wav,NA,0,NA,NA,NA,NA,NA,NA,NA,NA,NA,NA,NA,NA,NA,NA,NA,NA,NA,NA,NA,NA,NA,NA,NA,NA,NA
fcp-practice,10,85200,0.0-5.0-5.0-0.0,voc_e2,11949,"[{""event"":""blur"",""trial"":1,""time"":5318},{""event"":""focus"",""trial"":1,""time"":22854},{""event"":""fullscreenenter"",""trial"":1,""time"":23596},{""event"":""blur"",""trial"":6,""time"":43668},{""event"":""focus"",""trial"":6,""time"":46593}]",NA,NA,NA,NA,NA,NA,#EDC948,#46d3c8,10,0,1,null,null,null,37,1,1195.199999988079,10,1,practice,NA,NA,NA,NA,NA,NA,NA,NA,NA,NA
fcp-practice,11,86795,0.0-5.0-5.0-1.0,voc_e2,11949,"[{""event"":""blur"",""trial"":1,""time"":5318},{""event"":""focus"",""trial"":1,""time"":22854},{""event"":""fullscreenenter"",""trial"":1,""time"":23596},{""event"":""blur"",""trial"":6,""time"":43668},{""event"":""focus"",""trial"":6,""time"":46593}]",NA,NA,NA,NA,NA,NA,#EDC948,#46d3c8,10,0,1,null,null,null,37,1,87.69999998807907,10,1,practice,NA,NA,NA,NA,NA,NA,NA,NA,NA,NA
fcp-practice,12,88384,0.0-5.0-5.0-2.0,voc_e2,11949,"[{""event"":""blur"",""trial"":1,""time"":5318},{""event"":""focus"",""trial"":1,""time"":22854},{""event"":""fullscreenenter"",""trial"":1,""time"":23596},{""event"":""blur"",""trial"":6,""time"":43668},{""event"":""focus"",""trial"":6,""time"":46593}]",NA,NA,NA,NA,NA,NA,#EDC948,#46d3c8,0,10,1,null,null,null,37,1,83.59999996423721,0,1,practice,NA,NA,NA,NA,NA,NA,NA,NA,NA,NA
fcp-practice,13,89904,0.0-5.0-5.0-3.0,voc_e2,11949,"[{""event"":""blur"",""trial"":1,""time"":5318},{""event"":""focus"",""trial"":1,""time"":22854},{""event"":""fullscreenenter"",""trial"":1,""time"":23596},{""event"":""blur"",""trial"":6,""time"":43668},{""event"":""focus"",""trial"":6,""time"":46593}]",NA,NA,NA,NA,NA,NA,#EDC948,#46d3c8,10,0,1,null,null,null,37,1,13,10,1,practice,NA,NA,NA,NA,NA,NA,NA,NA,NA,NA
fcp-practice,14,91488,0.0-5.0-5.0-4.0,voc_e2,11949,"[{""event"":""blur"",""trial"":1,""time"":5318},{""event"":""focus"",""trial"":1,""time"":22854},{""event"":""fullscreenenter"",""trial"":1,""time"":23596},{""event"":""blur"",""trial"":6,""time"":43668},{""event"":""focus"",""trial"":6,""time"":46593}]",NA,NA,NA,NA,NA,NA,#EDC948,#46d3c8,10,0,1,null,null,null,37,1,75.69999998807907,10,1,practice,NA,NA,NA,NA,NA,NA,NA,NA,NA,NA
audio-instructions,15,125150,0.0-5.0-6.0,voc_e2,11949,"[{""event"":""blur"",""trial"":1,""time"":5318},{""event"":""focus"",""trial"":1,""time"":22854},{""event"":""fullscreenenter"",""trial"":1,""time"":23596},{""event"":""blur"",""trial"":6,""time"":43668},{""event"":""focus"",""trial"":6,""time"":46593},{""event"":""blur"",""trial"":15,""time"":106602},{""event"":""focus"",""trial"":15,""time"":123397}]",NA,15653.30000001192,static/audio/instructions6.wav,NA,0,NA,NA,NA,NA,NA,NA,NA,NA,NA,NA,NA,NA,NA,NA,NA,NA,NA,NA,NA,NA,NA,NA,NA,NA,NA
audio-instructions,16,150172,0.0-5.0-7.0,voc_e2,11949,"[{""event"":""blur"",""trial"":1,""time"":5318},{""event"":""focus"",""trial"":1,""time"":22854},{""event"":""fullscreenenter"",""trial"":1,""time"":23596},{""event"":""blur"",""trial"":6,""time"":43668},{""event"":""focus"",""trial"":6,""time"":46593},{""event"":""blur"",""trial"":15,""time"":106602},{""event"":""focus"",""trial"":15,""time"":123397}]",NA,5822.100000023842,static/audio/instructions7.wav,NA,0,NA,NA,NA,NA,NA,NA,NA,NA,NA,NA,NA,NA,NA,NA,NA,NA,NA,NA,NA,NA,NA,NA,NA,NA,NA
audio-instructions,17,162110,0.0-5.0-8.0,voc_e2,11949,"[{""event"":""blur"",""trial"":1,""time"":5318},{""event"":""focus"",""trial"":1,""time"":22854},{""event"":""fullscreenenter"",""trial"":1,""time"":23596},{""event"":""blur"",""trial"":6,""time"":43668},{""event"":""focus"",""trial"":6,""time"":46593},{""event"":""blur"",""trial"":15,""time"":106602},{""event"":""focus"",""trial"":15,""time"":123397}]",NA,2469.900000035763,static/audio/instructions8.wav,NA,0,NA,NA,NA,NA,NA,NA,NA,NA,NA,NA,NA,NA,NA,NA,NA,NA,NA,NA,NA,NA,NA,NA,NA,NA,NA
fcp-comprehension,18,183849,0.0-5.0-9.0,voc_e2,11949,"[{""event"":""blur"",""trial"":1,""time"":5318},{""event"":""focus"",""trial"":1,""time"":22854},{""event"":""fullscreenenter"",""trial"":1,""time"":23596},{""event"":""blur"",""trial"":6,""time"":43668},{""event"":""focus"",""trial"":6,""time"":46593},{""event"":""blur"",""trial"":15,""time"":106602},{""event"":""focus"",""trial"":15,""time"":123397}]",NA,21737.10000002384,NA,NA,NA,NA,NA,NA,NA,NA,NA,NA,NA,NA,NA,NA,NA,NA,NA,NA,"true,true",0,NA,NA,NA,NA,NA,NA,NA,NA
audio-instructions,19,190951,0.0-6.0-0.0,voc_e2,11949,"[{""event"":""blur"",""trial"":1,""time"":5318},{""event"":""focus"",""trial"":1,""time"":22854},{""event"":""fullscreenenter"",""trial"":1,""time"":23596},{""event"":""blur"",""trial"":6,""time"":43668},{""event"":""focus"",""trial"":6,""time"":46593},{""event"":""blur"",""trial"":15,""time"":106602},{""event"":""focus"",""trial"":15,""time"":123397}]",NA,1550.100000023842,static/audio/instructions9.wav,NA,0,NA,NA,NA,NA,NA,NA,NA,NA,NA,NA,NA,NA,NA,NA,NA,NA,NA,NA,NA,NA,NA,NA,NA,NA,NA
audio-instructions,20,203837,0.0-6.0-1.0,voc_e2,11949,"[{""event"":""blur"",""trial"":1,""time"":5318},{""event"":""focus"",""trial"":1,""time"":22854},{""event"":""fullscreenenter"",""trial"":1,""time"":23596},{""event"":""blur"",""trial"":6,""time"":43668},{""event"":""focus"",""trial"":6,""time"":46593},{""event"":""blur"",""trial"":15,""time"":106602},{""event"":""focus"",""trial"":15,""time"":123397}]",NA,767.1000000238419,static/audio/instructions10.wav,NA,0,NA,NA,NA,NA,NA,NA,NA,NA,NA,NA,NA,NA,NA,NA,NA,NA,NA,NA,NA,NA,NA,NA,NA,NA,NA
fcp-trial,21,209945,0.0-6.0-2.0,voc_e2,11949,"[{""event"":""blur"",""trial"":1,""time"":5318},{""event"":""focus"",""trial"":1,""time"":22854},{""event"":""fullscreenenter"",""trial"":1,""time"":23596},{""event"":""blur"",""trial"":6,""time"":43668},{""event"":""focus"",""trial"":6,""time"":46593},{""event"":""blur"",""trial"":15,""time"":106602},{""event"":""focus"",""trial"":15,""time"":123397}]",NA,NA,NA,NA,NA,0,#EDC948,#46d3c8,10,10,1,38,1,2884.399999976158,39,0,1710.5999999642372,10,0,practice,NA,NA,NA,NA,NA,NA,NA,NA,NA,NA
audio-instructions,22,222324,0.0-6.0-3.0,voc_e2,11949,"[{""event"":""blur"",""trial"":1,""time"":5318},{""event"":""focus"",""trial"":1,""time"":22854},{""event"":""fullscreenenter"",""trial"":1,""time"":23596},{""event"":""blur"",""trial"":6,""time"":43668},{""event"":""focus"",""trial"":6,""time"":46593},{""event"":""blur"",""trial"":15,""time"":106602},{""event"":""focus"",""trial"":15,""time"":123397}]",NA,1371.5,static/audio/instructions11.wav,NA,0,NA,NA,NA,NA,NA,NA,NA,NA,NA,NA,NA,NA,NA,NA,NA,NA,NA,NA,NA,NA,NA,NA,NA,NA,NA
fcp-trial,23,229486,0.0-6.0-4.0,voc_e2,11949,"[{""event"":""blur"",""trial"":1,""time"":5318},{""event"":""focus"",""trial"":1,""time"":22854},{""event"":""fullscreenenter"",""trial"":1,""time"":23596},{""event"":""blur"",""trial"":6,""time"":43668},{""event"":""focus"",""trial"":6,""time"":46593},{""event"":""blur"",""trial"":15,""time"":106602},{""event"":""focus"",""trial"":15,""time"":123397}]",NA,NA,NA,NA,NA,6,#EDC948,#46d3c8,10,10,1,40,0,1705.7999999523163,39,0,3950.199999988079,10,0,practice,NA,NA,NA,NA,NA,NA,NA,NA,NA,NA
audio-instructions,24,252481,0.0-6.0-5.0,voc_e2,11949,"[{""event"":""blur"",""trial"":1,""time"":5318},{""event"":""focus"",""trial"":1,""time"":22854},{""event"":""fullscreenenter"",""trial"":1,""time"":23596},{""event"":""blur"",""trial"":6,""time"":43668},{""event"":""focus"",""trial"":6,""time"":46593},{""event"":""blur"",""trial"":15,""time"":106602},{""event"":""focus"",""trial"":15,""time"":123397}]",NA,4307.600000023842,static/audio/instructions12.wav,NA,0,NA,NA,NA,NA,NA,NA,NA,NA,NA,NA,NA,NA,NA,NA,NA,NA,NA,NA,NA,NA,NA,NA,NA,NA,NA
audio-instructions,25,300792,0.0-6.0-6.0,voc_e2,11949,"[{""event"":""blur"",""trial"":1,""time"":5318},{""event"":""focus"",""trial"":1,""time"":22854},{""event"":""fullscreenenter"",""trial"":1,""time"":23596},{""event"":""blur"",""trial"":6,""time"":43668},{""event"":""focus"",""trial"":6,""time"":46593},{""event"":""blur"",""trial"":15,""time"":106602},{""event"":""focus"",""trial"":15,""time"":123397}]",NA,40713.5,static/audio/instructions13.wav,NA,0,NA,NA,NA,NA,NA,NA,NA,NA,NA,NA,NA,NA,NA,NA,NA,NA,NA,NA,NA,NA,NA,NA,NA,NA,NA
audio-instructions,26,310477,0.0-6.0-7.0,voc_e2,11949,"[{""event"":""blur"",""trial"":1,""time"":5318},{""event"":""focus"",""trial"":1,""time"":22854},{""event"":""fullscreenenter"",""trial"":1,""time"":23596},{""event"":""blur"",""trial"":6,""time"":43668},{""event"":""focus"",""trial"":6,""time"":46593},{""event"":""blur"",""trial"":15,""time"":106602},{""event"":""focus"",""trial"":15,""time"":123397}]",NA,1192.7000000476835,static/audio/instructions14.wav,NA,0,NA,NA,NA,NA,NA,NA,NA,NA,NA,NA,NA,NA,NA,NA,NA,NA,NA,NA,NA,NA,NA,NA,NA,NA,NA
audio-instructions,27,317980,0.0-7.0-0.0,voc_e2,11949,"[{""event"":""blur"",""trial"":1,""time"":5318},{""event"":""focus"",""trial"":1,""time"":22854},{""event"":""fullscreenenter"",""trial"":1,""time"":23596},{""event"":""blur"",""trial"":6,""time"":43668},{""event"":""focus"",""trial"":6,""time"":46593},{""event"":""blur"",""trial"":15,""time"":106602},{""event"":""focus"",""trial"":15,""time"":123397}]",NA,593.9000000357628,static/audio/instructions15.wav,NA,0,NA,NA,NA,NA,NA,NA,NA,NA,NA,NA,NA,NA,NA,NA,NA,NA,NA,NA,NA,NA,NA,NA,NA,NA,NA
audio-instructions,28,332450,0.0-7.0-1.0,voc_e2,11949,"[{""event"":""blur"",""trial"":1,""time"":5318},{""event"":""focus"",""trial"":1,""time"":22854},{""event"":""fullscreenenter"",""trial"":1,""time"":23596},{""event"":""blur"",""trial"":6,""time"":43668},{""event"":""focus"",""trial"":6,""time"":46593},{""event"":""blur"",""trial"":15,""time"":106602},{""event"":""focus"",""trial"":15,""time"":123397},{""event"":""blur"",""trial"":28,""time"":323927},{""event"":""focus"",""trial"":28,""time"":330224}]",NA,7645.800000011921,static/audio/instructions16.wav,NA,0,NA,NA,NA,NA,NA,NA,NA,NA,NA,NA,NA,NA,NA,NA,NA,NA,NA,NA,NA,NA,NA,NA,NA,NA,NA
audio-instructions,29,342268,0.0-7.0-2.0,voc_e2,11949,"[{""event"":""blur"",""trial"":1,""time"":5318},{""event"":""focus"",""trial"":1,""time"":22854},{""event"":""fullscreenenter"",""trial"":1,""time"":23596},{""event"":""blur"",""trial"":6,""time"":43668},{""event"":""focus"",""trial"":6,""time"":46593},{""event"":""blur"",""trial"":15,""time"":106602},{""event"":""focus"",""trial"":15,""time"":123397},{""event"":""blur"",""trial"":28,""time"":323927},{""event"":""focus"",""trial"":28,""time"":330224},{""event"":""blur"",""trial"":29,""time"":336195},{""event"":""focus"",""trial"":29,""time"":341490}]",NA,2140.699999988079,static/audio/instructions17.wav,NA,0,NA,NA,NA,NA,NA,NA,NA,NA,NA,NA,NA,NA,NA,NA,NA,NA,NA,NA,NA,NA,NA,NA,NA,NA,NA
audio-instructions,30,366208,0.0-7.0-3.0,voc_e2,11949,"[{""event"":""blur"",""trial"":1,""time"":5318},{""event"":""focus"",""trial"":1,""time"":22854},{""event"":""fullscreenenter"",""trial"":1,""time"":23596},{""event"":""blur"",""trial"":6,""time"":43668},{""event"":""focus"",""trial"":6,""time"":46593},{""event"":""blur"",""trial"":15,""time"":106602},{""event"":""focus"",""trial"":15,""time"":123397},{""event"":""blur"",""trial"":28,""time"":323927},{""event"":""focus"",""trial"":28,""time"":330224},{""event"":""blur"",""trial"":29,""time"":336195},{""event"":""focus"",""trial"":29,""time"":341490},{""event"":""blur"",""trial"":30,""time"":343930},{""event"":""focus"",""trial"":30,""time"":364859}]",NA,16177.30000001192,static/audio/instructions18.wav,NA,0,NA,NA,NA,NA,NA,NA,NA,NA,NA,NA,NA,NA,NA,NA,NA,NA,NA,NA,NA,NA,NA,NA,NA,NA,NA
audio-instructions,31,381875,0.0-7.0-4.0,voc_e2,11949,"[{""event"":""blur"",""trial"":1,""time"":5318},{""event"":""focus"",""trial"":1,""time"":22854},{""event"":""fullscreenenter"",""trial"":1,""time"":23596},{""event"":""blur"",""trial"":6,""time"":43668},{""event"":""focus"",""trial"":6,""time"":46593},{""event"":""blur"",""trial"":15,""time"":106602},{""event"":""focus"",""trial"":15,""time"":123397},{""event"":""blur"",""trial"":28,""time"":323927},{""event"":""focus"",""trial"":28,""time"":330224},{""event"":""blur"",""trial"":29,""time"":336195},{""event"":""focus"",""trial"":29,""time"":341490},{""event"":""blur"",""trial"":30,""time"":343930},{""event"":""focus"",""trial"":30,""time"":364859},{""event"":""blur"",""trial"":31,""time"":373292},{""event"":""focus"",""trial"":31,""time"":380850}]",NA,8926.300000011921,static/audio/instructions19.wav,NA,0,NA,NA,NA,NA,NA,NA,NA,NA,NA,NA,NA,NA,NA,NA,NA,NA,NA,NA,NA,NA,NA,NA,NA,NA,NA
fcp-comprehension,32,404797,0.0-7.0-5.0,voc_e2,11949,"[{""event"":""blur"",""trial"":1,""time"":5318},{""event"":""focus"",""trial"":1,""time"":22854},{""event"":""fullscreenenter"",""trial"":1,""time"":23596},{""event"":""blur"",""trial"":6,""time"":43668},{""event"":""focus"",""trial"":6,""time"":46593},{""event"":""blur"",""trial"":15,""time"":106602},{""event"":""focus"",""trial"":15,""time"":123397},{""event"":""blur"",""trial"":28,""time"":323927},{""event"":""focus"",""trial"":28,""time"":330224},{""event"":""blur"",""trial"":29,""time"":336195},{""event"":""focus"",""trial"":29,""time"":341490},{""event"":""blur"",""trial"":30,""time"":343930},{""event"":""focus"",""trial"":30,""time"":364859},{""event"":""blur"",""trial"":31,""time"":373292},{""event"":""focus"",""trial"":31,""time"":380850}]",NA,22920.69999998808,NA,NA,NA,NA,NA,NA,NA,NA,NA,NA,NA,NA,NA,NA,NA,NA,NA,NA,"false,false,false,true",0,NA,NA,NA,NA,NA,NA,NA,NA
audio-instructions,33,415449,0.0-8.0,voc_e2,11949,"[{""event"":""blur"",""trial"":1,""time"":5318},{""event"":""focus"",""trial"":1,""time"":22854},{""event"":""fullscreenenter"",""trial"":1,""time"":23596},{""event"":""blur"",""trial"":6,""time"":43668},{""event"":""focus"",""trial"":6,""time"":46593},{""event"":""blur"",""trial"":15,""time"":106602},{""event"":""focus"",""trial"":15,""time"":123397},{""event"":""blur"",""trial"":28,""time"":323927},{""event"":""focus"",""trial"":28,""time"":330224},{""event"":""blur"",""trial"":29,""time"":336195},{""event"":""focus"",""trial"":29,""time"":341490},{""event"":""blur"",""trial"":30,""time"":343930},{""event"":""focus"",""trial"":30,""time"":364859},{""event"":""blur"",""trial"":31,""time"":373292},{""event"":""focus"",""trial"":31,""time"":380850}]",NA,1396.699999988079,static/audio/ready.wav,NA,0,NA,NA,NA,NA,NA,NA,NA,NA,NA,NA,NA,NA,NA,NA,NA,NA,NA,NA,NA,NA,NA,NA,NA,NA,NA
fcp-trial,34,420660,0.0-9.0-0.0,voc_e2,11949,"[{""event"":""blur"",""trial"":1,""time"":5318},{""event"":""focus"",""trial"":1,""time"":22854},{""event"":""fullscreenenter"",""trial"":1,""time"":23596},{""event"":""blur"",""trial"":6,""time"":43668},{""event"":""focus"",""trial"":6,""time"":46593},{""event"":""blur"",""trial"":15,""time"":106602},{""event"":""focus"",""trial"":15,""time"":123397},{""event"":""blur"",""trial"":28,""time"":323927},{""event"":""focus"",""trial"":28,""time"":330224},{""event"":""blur"",""trial"":29,""time"":336195},{""event"":""focus"",""trial"":29,""time"":341490},{""event"":""blur"",""trial"":30,""time"":343930},{""event"":""focus"",""trial"":30,""time"":364859},{""event"":""blur"",""trial"":31,""time"":373292},{""event"":""focus"",""trial"":31,""time"":380850}]",NA,NA,NA,NA,NA,6,#D89F1C,#3386FF,0,10,1,40,0,2595.699999988079,39,0,1114.399999976158,10,0,experiment,NA,NA,2,0.5,0.5,4,5,1,1,NA
fcp-trial,35,425875,0.0-10.0-0.0,voc_e2,11949,"[{""event"":""blur"",""trial"":1,""time"":5318},{""event"":""focus"",""trial"":1,""time"":22854},{""event"":""fullscreenenter"",""trial"":1,""time"":23596},{""event"":""blur"",""trial"":6,""time"":43668},{""event"":""focus"",""trial"":6,""time"":46593},{""event"":""blur"",""trial"":15,""time"":106602},{""event"":""focus"",""trial"":15,""time"":123397},{""event"":""blur"",""trial"":28,""time"":323927},{""event"":""focus"",""trial"":28,""time"":330224},{""event"":""blur"",""trial"":29,""time"":336195},{""event"":""focus"",""trial"":29,""time"":341490},{""event"":""blur"",""trial"":30,""time"":343930},{""event"":""focus"",""trial"":30,""time"":364859},{""event"":""blur"",""trial"":31,""time"":373292},{""event"":""focus"",""trial"":31,""time"":380850}]",NA,NA,NA,NA,NA,2,#FA92F8,#1CD855,0,0,1,38,1,2396.199999988079,37,1,1317.9000000357628,0,1,experiment,NA,NA,1,0.7,0.3,2,3,2,1,NA
fcp-trial,36,433415,0.0-11.0-0.0,voc_e2,11949,"[{""event"":""blur"",""trial"":1,""time"":5318},{""event"":""focus"",""trial"":1,""time"":22854},{""event"":""fullscreenenter"",""trial"":1,""time"":23596},{""event"":""blur"",""trial"":6,""time"":43668},{""event"":""focus"",""trial"":6,""time"":46593},{""event"":""blur"",""trial"":15,""time"":106602},{""event"":""focus"",""trial"":15,""time"":123397},{""event"":""blur"",""trial"":28,""time"":323927},{""event"":""focus"",""trial"":28,""time"":330224},{""event"":""blur"",""trial"":29,""time"":336195},{""event"":""focus"",""trial"":29,""time"":341490},{""event"":""blur"",""trial"":30,""time"":343930},{""event"":""focus"",""trial"":30,""time"":364859},{""event"":""blur"",""trial"":31,""time"":373292},{""event"":""focus"",""trial"":31,""time"":380850}]",NA,NA,NA,NA,NA,6,#741CD8,#D8271C,0,0,1,40,0,5063.599999964237,39,0,975.4000000357628,0,0,experiment,NA,NA,0,0.9,0.1,0,1,3,1,NA
fcp-trial,37,437588,0.0-12.0-0.0,voc_e2,11949,"[{""event"":""blur"",""trial"":1,""time"":5318},{""event"":""focus"",""trial"":1,""time"":22854},{""event"":""fullscreenenter"",""trial"":1,""time"":23596},{""event"":""blur"",""trial"":6,""time"":43668},{""event"":""focus"",""trial"":6,""time"":46593},{""event"":""blur"",""trial"":15,""time"":106602},{""event"":""focus"",""trial"":15,""time"":123397},{""event"":""blur"",""trial"":28,""time"":323927},{""event"":""focus"",""trial"":28,""time"":330224},{""event"":""blur"",""trial"":29,""time"":336195},{""event"":""focus"",""trial"":29,""time"":341490},{""event"":""blur"",""trial"":30,""time"":343930},{""event"":""focus"",""trial"":30,""time"":364859},{""event"":""blur"",""trial"":31,""time"":373292},{""event"":""focus"",""trial"":31,""time"":380850}]",NA,NA,NA,NA,NA,5,#3386FF,#D89F1C,10,0,0,40,0,1947.800000011921,37,1,718.3000000119209,10,0,experiment,NA,NA,2,0.5,0.5,5,4,4,1,NA
fcp-trial,38,441338,0.0-13.0-0.0,voc_e2,11949,"[{""event"":""blur"",""trial"":1,""time"":5318},{""event"":""focus"",""trial"":1,""time"":22854},{""event"":""fullscreenenter"",""trial"":1,""time"":23596},{""event"":""blur"",""trial"":6,""time"":43668},{""event"":""focus"",""trial"":6,""time"":46593},{""event"":""blur"",""trial"":15,""time"":106602},{""event"":""focus"",""trial"":15,""time"":123397},{""event"":""blur"",""trial"":28,""time"":323927},{""event"":""focus"",""trial"":28,""time"":330224},{""event"":""blur"",""trial"":29,""time"":336195},{""event"":""focus"",""trial"":29,""time"":341490},{""event"":""blur"",""trial"":30,""time"":343930},{""event"":""focus"",""trial"":30,""time"":364859},{""event"":""blur"",""trial"":31,""time"":373292},{""event"":""focus"",""trial"":31,""time"":380850}]",NA,NA,NA,NA,NA,5,#1CD855,#FA92F8,10,10,0,40,0,1317.1000000238419,37,1,927.399999976158,10,0,experiment,NA,NA,1,0.3,0.7,3,2,5,1,NA
fcp-trial,39,445377,0.0-14.0-0.0,voc_e2,11949,"[{""event"":""blur"",""trial"":1,""time"":5318},{""event"":""focus"",""trial"":1,""time"":22854},{""event"":""fullscreenenter"",""trial"":1,""time"":23596},{""event"":""blur"",""trial"":6,""time"":43668},{""event"":""focus"",""trial"":6,""time"":46593},{""event"":""blur"",""trial"":15,""time"":106602},{""event"":""focus"",""trial"":15,""time"":123397},{""event"":""blur"",""trial"":28,""time"":323927},{""event"":""focus"",""trial"":28,""time"":330224},{""event"":""blur"",""trial"":29,""time"":336195},{""event"":""focus"",""trial"":29,""time"":341490},{""event"":""blur"",""trial"":30,""time"":343930},{""event"":""focus"",""trial"":30,""time"":364859},{""event"":""blur"",""trial"":31,""time"":373292},{""event"":""focus"",""trial"":31,""time"":380850}]",NA,NA,NA,NA,NA,4,#D89F1C,#3386FF,0,10,1,38,1,1871.1000000238419,39,0,662.7999999523163,10,0,experiment,NA,NA,2,0.5,0.5,4,5,6,1,NA
fcp-trial,40,449800,0.0-15.0-0.0,voc_e2,11949,"[{""event"":""blur"",""trial"":1,""time"":5318},{""event"":""focus"",""trial"":1,""time"":22854},{""event"":""fullscreenenter"",""trial"":1,""time"":23596},{""event"":""blur"",""trial"":6,""time"":43668},{""event"":""focus"",""trial"":6,""time"":46593},{""event"":""blur"",""trial"":15,""time"":106602},{""event"":""focus"",""trial"":15,""time"":123397},{""event"":""blur"",""trial"":28,""time"":323927},{""event"":""focus"",""trial"":28,""time"":330224},{""event"":""blur"",""trial"":29,""time"":336195},{""event"":""focus"",""trial"":29,""time"":341490},{""event"":""blur"",""trial"":30,""time"":343930},{""event"":""focus"",""trial"":30,""time"":364859},{""event"":""blur"",""trial"":31,""time"":373292},{""event"":""focus"",""trial"":31,""time"":380850}]",NA,NA,NA,NA,NA,4,#741CD8,#D8271C,0,0,1,38,1,1563.9000000357628,39,0,1350.5999999642372,0,0,experiment,NA,NA,0,0.9,0.1,0,1,7,1,NA
fcp-trial,41,454838,0.0-16.0-0.0,voc_e2,11949,"[{""event"":""blur"",""trial"":1,""time"":5318},{""event"":""focus"",""trial"":1,""time"":22854},{""event"":""fullscreenenter"",""trial"":1,""time"":23596},{""event"":""blur"",""trial"":6,""time"":43668},{""event"":""focus"",""trial"":6,""time"":46593},{""event"":""blur"",""trial"":15,""time"":106602},{""event"":""focus"",""trial"":15,""time"":123397},{""event"":""blur"",""trial"":28,""time"":323927},{""event"":""focus"",""trial"":28,""time"":330224},{""event"":""blur"",""trial"":29,""time"":336195},{""event"":""focus"",""trial"":29,""time"":341490},{""event"":""blur"",""trial"":30,""time"":343930},{""event"":""focus"",""trial"":30,""time"":364859},{""event"":""blur"",""trial"":31,""time"":373292},{""event"":""focus"",""trial"":31,""time"":380850}]",NA,NA,NA,NA,NA,4,#1CD855,#FA92F8,0,10,0,38,1,2598.300000011921,37,1,934.4000000357628,0,0,experiment,NA,NA,1,0.3,0.7,3,2,8,1,NA
fcp-trial,42,458974,0.0-17.0-0.0,voc_e2,11949,"[{""event"":""blur"",""trial"":1,""time"":5318},{""event"":""focus"",""trial"":1,""time"":22854},{""event"":""fullscreenenter"",""trial"":1,""time"":23596},{""event"":""blur"",""trial"":6,""time"":43668},{""event"":""focus"",""trial"":6,""time"":46593},{""event"":""blur"",""trial"":15,""time"":106602},{""event"":""focus"",""trial"":15,""time"":123397},{""event"":""blur"",""trial"":28,""time"":323927},{""event"":""focus"",""trial"":28,""time"":330224},{""event"":""blur"",""trial"":29,""time"":336195},{""event"":""focus"",""trial"":29,""time"":341490},{""event"":""blur"",""trial"":30,""time"":343930},{""event"":""focus"",""trial"":30,""time"":364859},{""event"":""blur"",""trial"":31,""time"":373292},{""event"":""focus"",""trial"":31,""time"":380850}]",NA,NA,NA,NA,NA,2,#D89F1C,#3386FF,10,10,1,38,1,1788.5,39,0,839.1000000238419,10,0,experiment,NA,NA,2,0.5,0.5,4,5,9,1,NA
fcp-trial,43,465199,0.0-18.0-0.0,voc_e2,11949,"[{""event"":""blur"",""trial"":1,""time"":5318},{""event"":""focus"",""trial"":1,""time"":22854},{""event"":""fullscreenenter"",""trial"":1,""time"":23596},{""event"":""blur"",""trial"":6,""time"":43668},{""event"":""focus"",""trial"":6,""time"":46593},{""event"":""blur"",""trial"":15,""time"":106602},{""event"":""focus"",""trial"":15,""time"":123397},{""event"":""blur"",""trial"":28,""time"":323927},{""event"":""focus"",""trial"":28,""time"":330224},{""event"":""blur"",""trial"":29,""time"":336195},{""event"":""focus"",""trial"":29,""time"":341490},{""event"":""blur"",""trial"":30,""time"":343930},{""event"":""focus"",""trial"":30,""time"":364859},{""event"":""blur"",""trial"":31,""time"":373292},{""event"":""focus"",""trial"":31,""time"":380850}]",NA,NA,NA,NA,NA,1,#D8271C,#741CD8,0,10,0,38,1,2436.399999976158,37,1,2280.7999999523163,0,0,experiment,NA,NA,0,0.1,0.9,1,0,10,1,NA
fcp-trial,44,469350,0.0-19.0-0.0,voc_e2,11949,"[{""event"":""blur"",""trial"":1,""time"":5318},{""event"":""focus"",""trial"":1,""time"":22854},{""event"":""fullscreenenter"",""trial"":1,""time"":23596},{""event"":""blur"",""trial"":6,""time"":43668},{""event"":""focus"",""trial"":6,""time"":46593},{""event"":""blur"",""trial"":15,""time"":106602},{""event"":""focus"",""trial"":15,""time"":123397},{""event"":""blur"",""trial"":28,""time"":323927},{""event"":""focus"",""trial"":28,""time"":330224},{""event"":""blur"",""trial"":29,""time"":336195},{""event"":""focus"",""trial"":29,""time"":341490},{""event"":""blur"",""trial"":30,""time"":343930},{""event"":""focus"",""trial"":30,""time"":364859},{""event"":""blur"",""trial"":31,""time"":373292},{""event"":""focus"",""trial"":31,""time"":380850}]",NA,NA,NA,NA,NA,6,#FA92F8,#1CD855,10,10,1,38,1,1423,37,1,1223.899999976158,10,1,experiment,NA,NA,1,0.7,0.3,2,3,11,1,NA
fcp-trial,45,474125,0.0-20.0-0.0,voc_e2,11949,"[{""event"":""blur"",""trial"":1,""time"":5318},{""event"":""focus"",""trial"":1,""time"":22854},{""event"":""fullscreenenter"",""trial"":1,""time"":23596},{""event"":""blur"",""trial"":6,""time"":43668},{""event"":""focus"",""trial"":6,""time"":46593},{""event"":""blur"",""trial"":15,""time"":106602},{""event"":""focus"",""trial"":15,""time"":123397},{""event"":""blur"",""trial"":28,""time"":323927},{""event"":""focus"",""trial"":28,""time"":330224},{""event"":""blur"",""trial"":29,""time"":336195},{""event"":""focus"",""trial"":29,""time"":341490},{""event"":""blur"",""trial"":30,""time"":343930},{""event"":""focus"",""trial"":30,""time"":364859},{""event"":""blur"",""trial"":31,""time"":373292},{""event"":""focus"",""trial"":31,""time"":380850}]",NA,NA,NA,NA,NA,2,#741CD8,#D8271C,10,0,1,38,1,1165.800000011921,39,0,2102.5,0,0,experiment,NA,NA,0,0.9,0.1,0,1,12,1,NA
fcp-trial,46,478878,0.0-21.0-0.0,voc_e2,11949,"[{""event"":""blur"",""trial"":1,""time"":5318},{""event"":""focus"",""trial"":1,""time"":22854},{""event"":""fullscreenenter"",""trial"":1,""time"":23596},{""event"":""blur"",""trial"":6,""time"":43668},{""event"":""focus"",""trial"":6,""time"":46593},{""event"":""blur"",""trial"":15,""time"":106602},{""event"":""focus"",""trial"":15,""time"":123397},{""event"":""blur"",""trial"":28,""time"":323927},{""event"":""focus"",""trial"":28,""time"":330224},{""event"":""blur"",""trial"":29,""time"":336195},{""event"":""focus"",""trial"":29,""time"":341490},{""event"":""blur"",""trial"":30,""time"":343930},{""event"":""focus"",""trial"":30,""time"":364859},{""event"":""blur"",""trial"":31,""time"":373292},{""event"":""focus"",""trial"":31,""time"":380850}]",NA,NA,NA,NA,NA,1,#3386FF,#D89F1C,0,10,0,38,1,650.7999999523163,39,0,2590.800000011921,10,1,experiment,NA,NA,2,0.5,0.5,5,4,13,1,NA
fcp-trial,47,484718,0.0-22.0-0.0,voc_e2,11949,"[{""event"":""blur"",""trial"":1,""time"":5318},{""event"":""focus"",""trial"":1,""time"":22854},{""event"":""fullscreenenter"",""trial"":1,""time"":23596},{""event"":""blur"",""trial"":6,""time"":43668},{""event"":""focus"",""trial"":6,""time"":46593},{""event"":""blur"",""trial"":15,""time"":106602},{""event"":""focus"",""trial"":15,""time"":123397},{""event"":""blur"",""trial"":28,""time"":323927},{""event"":""focus"",""trial"":28,""time"":330224},{""event"":""blur"",""trial"":29,""time"":336195},{""event"":""focus"",""trial"":29,""time"":341490},{""event"":""blur"",""trial"":30,""time"":343930},{""event"":""focus"",""trial"":30,""time"":364859},{""event"":""blur"",""trial"":31,""time"":373292},{""event"":""focus"",""trial"":31,""time"":380850}]",NA,NA,NA,NA,NA,0,#FA92F8,#1CD855,0,10,1,38,1,1261.800000011921,39,0,3070.599999964237,10,0,experiment,NA,NA,1,0.7,0.3,2,3,14,1,NA
fcp-trial,48,487690,0.0-23.0-0.0,voc_e2,11949,"[{""event"":""blur"",""trial"":1,""time"":5318},{""event"":""focus"",""trial"":1,""time"":22854},{""event"":""fullscreenenter"",""trial"":1,""time"":23596},{""event"":""blur"",""trial"":6,""time"":43668},{""event"":""focus"",""trial"":6,""time"":46593},{""event"":""blur"",""trial"":15,""time"":106602},{""event"":""focus"",""trial"":15,""time"":123397},{""event"":""blur"",""trial"":28,""time"":323927},{""event"":""focus"",""trial"":28,""time"":330224},{""event"":""blur"",""trial"":29,""time"":336195},{""event"":""focus"",""trial"":29,""time"":341490},{""event"":""blur"",""trial"":30,""time"":343930},{""event"":""focus"",""trial"":30,""time"":364859},{""event"":""blur"",""trial"":31,""time"":373292},{""event"":""focus"",""trial"":31,""time"":380850}]",NA,NA,NA,NA,NA,3,#741CD8,#D8271C,0,0,1,38,1,701,37,1,764.3999999761581,0,1,experiment,NA,NA,0,0.9,0.1,0,1,15,1,NA
fcp-trial,49,491470,0.0-24.0-0.0,voc_e2,11949,"[{""event"":""blur"",""trial"":1,""time"":5318},{""event"":""focus"",""trial"":1,""time"":22854},{""event"":""fullscreenenter"",""trial"":1,""time"":23596},{""event"":""blur"",""trial"":6,""time"":43668},{""event"":""focus"",""trial"":6,""time"":46593},{""event"":""blur"",""trial"":15,""time"":106602},{""event"":""focus"",""trial"":15,""time"":123397},{""event"":""blur"",""trial"":28,""time"":323927},{""event"":""focus"",""trial"":28,""time"":330224},{""event"":""blur"",""trial"":29,""time"":336195},{""event"":""focus"",""trial"":29,""time"":341490},{""event"":""blur"",""trial"":30,""time"":343930},{""event"":""focus"",""trial"":30,""time"":364859},{""event"":""blur"",""trial"":31,""time"":373292},{""event"":""focus"",""trial"":31,""time"":380850}]",NA,NA,NA,NA,NA,0,#D89F1C,#3386FF,0,0,1,38,1,1033.3999999761581,39,0,1239.199999988079,0,0,experiment,NA,NA,2,0.5,0.5,4,5,16,1,NA
fcp-trial,50,494733,0.0-25.0-0.0,voc_e2,11949,"[{""event"":""blur"",""trial"":1,""time"":5318},{""event"":""focus"",""trial"":1,""time"":22854},{""event"":""fullscreenenter"",""trial"":1,""time"":23596},{""event"":""blur"",""trial"":6,""time"":43668},{""event"":""focus"",""trial"":6,""time"":46593},{""event"":""blur"",""trial"":15,""time"":106602},{""event"":""focus"",""trial"":15,""time"":123397},{""event"":""blur"",""trial"":28,""time"":323927},{""event"":""focus"",""trial"":28,""time"":330224},{""event"":""blur"",""trial"":29,""time"":336195},{""event"":""focus"",""trial"":29,""time"":341490},{""event"":""blur"",""trial"":30,""time"":343930},{""event"":""focus"",""trial"":30,""time"":364859},{""event"":""blur"",""trial"":31,""time"":373292},{""event"":""focus"",""trial"":31,""time"":380850}]",NA,NA,NA,NA,NA,3,#D89F1C,#3386FF,0,0,1,38,1,991.3999999761581,39,0,765.7000000476837,0,0,experiment,NA,NA,2,0.5,0.5,4,5,17,1,NA
fcp-trial,51,498804,0.0-26.0-0.0,voc_e2,11949,"[{""event"":""blur"",""trial"":1,""time"":5318},{""event"":""focus"",""trial"":1,""time"":22854},{""event"":""fullscreenenter"",""trial"":1,""time"":23596},{""event"":""blur"",""trial"":6,""time"":43668},{""event"":""focus"",""trial"":6,""time"":46593},{""event"":""blur"",""trial"":15,""time"":106602},{""event"":""focus"",""trial"":15,""time"":123397},{""event"":""blur"",""trial"":28,""time"":323927},{""event"":""focus"",""trial"":28,""time"":330224},{""event"":""blur"",""trial"":29,""time"":336195},{""event"":""focus"",""trial"":29,""time"":341490},{""event"":""blur"",""trial"":30,""time"":343930},{""event"":""focus"",""trial"":30,""time"":364859},{""event"":""blur"",""trial"":31,""time"":373292},{""event"":""focus"",""trial"":31,""time"":380850}]",NA,NA,NA,NA,NA,3,#FA92F8,#1CD855,10,0,1,38,1,1701.5,37,1,863,10,1,experiment,NA,NA,1,0.7,0.3,2,3,18,1,NA
fcp-trial,52,502397,0.0-27.0-0.0,voc_e2,11949,"[{""event"":""blur"",""trial"":1,""time"":5318},{""event"":""focus"",""trial"":1,""time"":22854},{""event"":""fullscreenenter"",""trial"":1,""time"":23596},{""event"":""blur"",""trial"":6,""time"":43668},{""event"":""focus"",""trial"":6,""time"":46593},{""event"":""blur"",""trial"":15,""time"":106602},{""event"":""focus"",""trial"":15,""time"":123397},{""event"":""blur"",""trial"":28,""time"":323927},{""event"":""focus"",""trial"":28,""time"":330224},{""event"":""blur"",""trial"":29,""time"":336195},{""event"":""focus"",""trial"":29,""time"":341490},{""event"":""blur"",""trial"":30,""time"":343930},{""event"":""focus"",""trial"":30,""time"":364859},{""event"":""blur"",""trial"":31,""time"":373292},{""event"":""focus"",""trial"":31,""time"":380850}]",NA,NA,NA,NA,NA,1,#FA92F8,#1CD855,10,0,1,38,1,1502.2999999523163,37,1,583.3999999761581,10,1,experiment,NA,NA,1,0.7,0.3,2,3,19,1,NA
fcp-trial,53,505724,0.0-28.0-0.0,voc_e2,11949,"[{""event"":""blur"",""trial"":1,""time"":5318},{""event"":""focus"",""trial"":1,""time"":22854},{""event"":""fullscreenenter"",""trial"":1,""time"":23596},{""event"":""blur"",""trial"":6,""time"":43668},{""event"":""focus"",""trial"":6,""time"":46593},{""event"":""blur"",""trial"":15,""time"":106602},{""event"":""focus"",""trial"":15,""time"":123397},{""event"":""blur"",""trial"":28,""time"":323927},{""event"":""focus"",""trial"":28,""time"":330224},{""event"":""blur"",""trial"":29,""time"":336195},{""event"":""focus"",""trial"":29,""time"":341490},{""event"":""blur"",""trial"":30,""time"":343930},{""event"":""focus"",""trial"":30,""time"":364859},{""event"":""blur"",""trial"":31,""time"":373292},{""event"":""focus"",""trial"":31,""time"":380850}]",NA,NA,NA,NA,NA,0,#741CD8,#D8271C,10,0,1,38,1,642.8000000119209,37,1,1173.4000000357628,10,1,experiment,NA,NA,0,0.9,0.1,0,1,20,1,NA
fcp-trial,54,510012,0.0-29.0-0.0,voc_e2,11949,"[{""event"":""blur"",""trial"":1,""time"":5318},{""event"":""focus"",""trial"":1,""time"":22854},{""event"":""fullscreenenter"",""trial"":1,""time"":23596},{""event"":""blur"",""trial"":6,""time"":43668},{""event"":""focus"",""trial"":6,""time"":46593},{""event"":""blur"",""trial"":15,""time"":106602},{""event"":""focus"",""trial"":15,""time"":123397},{""event"":""blur"",""trial"":28,""time"":323927},{""event"":""focus"",""trial"":28,""time"":330224},{""event"":""blur"",""trial"":29,""time"":336195},{""event"":""focus"",""trial"":29,""time"":341490},{""event"":""blur"",""trial"":30,""time"":343930},{""event"":""focus"",""trial"":30,""time"":364859},{""event"":""blur"",""trial"":31,""time"":373292},{""event"":""focus"",""trial"":31,""time"":380850}]",NA,NA,NA,NA,NA,5,#D8271C,#741CD8,0,10,0,38,1,647.1999999880791,39,0,2133.599999964237,10,1,experiment,NA,NA,0,0.1,0.9,1,0,21,1,NA
fcp-trial,55,516039,0.0-30.0-0.0,voc_e2,11949,"[{""event"":""blur"",""trial"":1,""time"":5318},{""event"":""focus"",""trial"":1,""time"":22854},{""event"":""fullscreenenter"",""trial"":1,""time"":23596},{""event"":""blur"",""trial"":6,""time"":43668},{""event"":""focus"",""trial"":6,""time"":46593},{""event"":""blur"",""trial"":15,""time"":106602},{""event"":""focus"",""trial"":15,""time"":123397},{""event"":""blur"",""trial"":28,""time"":323927},{""event"":""focus"",""trial"":28,""time"":330224},{""event"":""blur"",""trial"":29,""time"":336195},{""event"":""focus"",""trial"":29,""time"":341490},{""event"":""blur"",""trial"":30,""time"":343930},{""event"":""focus"",""trial"":30,""time"":364859},{""event"":""blur"",""trial"":31,""time"":373292},{""event"":""focus"",""trial"":31,""time"":380850}]",NA,NA,NA,NA,NA,1,#1CD855,#FA92F8,0,10,0,38,1,1861.699999988079,39,0,2656.400000035763,10,1,experiment,NA,NA,1,0.3,0.7,3,2,22,1,NA
fcp-trial,56,518781,0.0-31.0-0.0,voc_e2,11949,"[{""event"":""blur"",""trial"":1,""time"":5318},{""event"":""focus"",""trial"":1,""time"":22854},{""event"":""fullscreenenter"",""trial"":1,""time"":23596},{""event"":""blur"",""trial"":6,""time"":43668},{""event"":""focus"",""trial"":6,""time"":46593},{""event"":""blur"",""trial"":15,""time"":106602},{""event"":""focus"",""trial"":15,""time"":123397},{""event"":""blur"",""trial"":28,""time"":323927},{""event"":""focus"",""trial"":28,""time"":330224},{""event"":""blur"",""trial"":29,""time"":336195},{""event"":""focus"",""trial"":29,""time"":341490},{""event"":""blur"",""trial"":30,""time"":343930},{""event"":""focus"",""trial"":30,""time"":364859},{""event"":""blur"",""trial"":31,""time"":373292},{""event"":""focus"",""trial"":31,""time"":380850}]",NA,NA,NA,NA,NA,6,#1CD855,#FA92F8,10,10,0,38,1,628.4000000357628,39,0,606.8000000119209,10,1,experiment,NA,NA,1,0.3,0.7,3,2,23,1,NA
fcp-trial,57,522357,0.0-32.0-0.0,voc_e2,11949,"[{""event"":""blur"",""trial"":1,""time"":5318},{""event"":""focus"",""trial"":1,""time"":22854},{""event"":""fullscreenenter"",""trial"":1,""time"":23596},{""event"":""blur"",""trial"":6,""time"":43668},{""event"":""focus"",""trial"":6,""time"":46593},{""event"":""blur"",""trial"":15,""time"":106602},{""event"":""focus"",""trial"":15,""time"":123397},{""event"":""blur"",""trial"":28,""time"":323927},{""event"":""focus"",""trial"":28,""time"":330224},{""event"":""blur"",""trial"":29,""time"":336195},{""event"":""focus"",""trial"":29,""time"":341490},{""event"":""blur"",""trial"":30,""time"":343930},{""event"":""focus"",""trial"":30,""time"":364859},{""event"":""blur"",""trial"":31,""time"":373292},{""event"":""focus"",""trial"":31,""time"":380850}]",NA,NA,NA,NA,NA,4,#741CD8,#D8271C,10,0,1,38,1,1001.5,37,1,1063.4000000357628,10,1,experiment,NA,NA,0,0.9,0.1,0,1,24,1,NA
fcp-trial,58,524893,0.0-33.0-0.0,voc_e2,11949,"[{""event"":""blur"",""trial"":1,""time"":5318},{""event"":""focus"",""trial"":1,""time"":22854},{""event"":""fullscreenenter"",""trial"":1,""time"":23596},{""event"":""blur"",""trial"":6,""time"":43668},{""event"":""focus"",""trial"":6,""time"":46593},{""event"":""blur"",""trial"":15,""time"":106602},{""event"":""focus"",""trial"":15,""time"":123397},{""event"":""blur"",""trial"":28,""time"":323927},{""event"":""focus"",""trial"":28,""time"":330224},{""event"":""blur"",""trial"":29,""time"":336195},{""event"":""focus"",""trial"":29,""time"":341490},{""event"":""blur"",""trial"":30,""time"":343930},{""event"":""focus"",""trial"":30,""time"":364859},{""event"":""blur"",""trial"":31,""time"":373292},{""event"":""focus"",""trial"":31,""time"":380850}]",NA,NA,NA,NA,NA,0,#741CD8,#D8271C,10,0,1,38,1,438.89999997615814,37,1,589.5999999642372,10,1,experiment,NA,NA,0,0.9,0.1,0,1,25,1,NA
fcp-trial,59,528211,0.0-34.0-0.0,voc_e2,11949,"[{""event"":""blur"",""trial"":1,""time"":5318},{""event"":""focus"",""trial"":1,""time"":22854},{""event"":""fullscreenenter"",""trial"":1,""time"":23596},{""event"":""blur"",""trial"":6,""time"":43668},{""event"":""focus"",""trial"":6,""time"":46593},{""event"":""blur"",""trial"":15,""time"":106602},{""event"":""focus"",""trial"":15,""time"":123397},{""event"":""blur"",""trial"":28,""time"":323927},{""event"":""focus"",""trial"":28,""time"":330224},{""event"":""blur"",""trial"":29,""time"":336195},{""event"":""focus"",""trial"":29,""time"":341490},{""event"":""blur"",""trial"":30,""time"":343930},{""event"":""focus"",""trial"":30,""time"":364859},{""event"":""blur"",""trial"":31,""time"":373292},{""event"":""focus"",""trial"":31,""time"":380850}]",NA,NA,NA,NA,NA,1,#D8271C,#741CD8,0,10,0,38,1,1285.6000000238419,39,0,526.3000000119209,10,1,experiment,NA,NA,0,0.1,0.9,1,0,26,1,NA
fcp-trial,60,531192,0.0-35.0-0.0,voc_e2,11949,"[{""event"":""blur"",""trial"":1,""time"":5318},{""event"":""focus"",""trial"":1,""time"":22854},{""event"":""fullscreenenter"",""trial"":1,""time"":23596},{""event"":""blur"",""trial"":6,""time"":43668},{""event"":""focus"",""trial"":6,""time"":46593},{""event"":""blur"",""trial"":15,""time"":106602},{""event"":""focus"",""trial"":15,""time"":123397},{""event"":""blur"",""trial"":28,""time"":323927},{""event"":""focus"",""trial"":28,""time"":330224},{""event"":""blur"",""trial"":29,""time"":336195},{""event"":""focus"",""trial"":29,""time"":341490},{""event"":""blur"",""trial"":30,""time"":343930},{""event"":""focus"",""trial"":30,""time"":364859},{""event"":""blur"",""trial"":31,""time"":373292},{""event"":""focus"",""trial"":31,""time"":380850}]",NA,NA,NA,NA,NA,3,#1CD855,#FA92F8,10,10,0,38,1,927.1999999880791,39,0,546.8000000119209,10,1,experiment,NA,NA,1,0.3,0.7,3,2,27,1,NA
fcp-trial,61,534559,0.0-36.0-0.0,voc_e2,11949,"[{""event"":""blur"",""trial"":1,""time"":5318},{""event"":""focus"",""trial"":1,""time"":22854},{""event"":""fullscreenenter"",""trial"":1,""time"":23596},{""event"":""blur"",""trial"":6,""time"":43668},{""event"":""focus"",""trial"":6,""time"":46593},{""event"":""blur"",""trial"":15,""time"":106602},{""event"":""focus"",""trial"":15,""time"":123397},{""event"":""blur"",""trial"":28,""time"":323927},{""event"":""focus"",""trial"":28,""time"":330224},{""event"":""blur"",""trial"":29,""time"":336195},{""event"":""focus"",""trial"":29,""time"":341490},{""event"":""blur"",""trial"":30,""time"":343930},{""event"":""focus"",""trial"":30,""time"":364859},{""event"":""blur"",""trial"":31,""time"":373292},{""event"":""focus"",""trial"":31,""time"":380850}]",NA,NA,NA,NA,NA,1,#3386FF,#D89F1C,10,10,0,38,1,1395,37,1,466,10,0,experiment,NA,NA,2,0.5,0.5,5,4,28,1,NA
fcp-trial,62,537268,0.0-37.0-0.0,voc_e2,11949,"[{""event"":""blur"",""trial"":1,""time"":5318},{""event"":""focus"",""trial"":1,""time"":22854},{""event"":""fullscreenenter"",""trial"":1,""time"":23596},{""event"":""blur"",""trial"":6,""time"":43668},{""event"":""focus"",""trial"":6,""time"":46593},{""event"":""blur"",""trial"":15,""time"":106602},{""event"":""focus"",""trial"":15,""time"":123397},{""event"":""blur"",""trial"":28,""time"":323927},{""event"":""focus"",""trial"":28,""time"":330224},{""event"":""blur"",""trial"":29,""time"":336195},{""event"":""focus"",""trial"":29,""time"":341490},{""event"":""blur"",""trial"":30,""time"":343930},{""event"":""focus"",""trial"":30,""time"":364859},{""event"":""blur"",""trial"":31,""time"":373292},{""event"":""focus"",""trial"":31,""time"":380850}]",NA,NA,NA,NA,NA,0,#FA92F8,#1CD855,10,0,1,38,1,587.3999999761581,37,1,616.0999999642372,10,1,experiment,NA,NA,1,0.7,0.3,2,3,29,1,NA
fcp-trial,63,539844,0.0-38.0-0.0,voc_e2,11949,"[{""event"":""blur"",""trial"":1,""time"":5318},{""event"":""focus"",""trial"":1,""time"":22854},{""event"":""fullscreenenter"",""trial"":1,""time"":23596},{""event"":""blur"",""trial"":6,""time"":43668},{""event"":""focus"",""trial"":6,""time"":46593},{""event"":""blur"",""trial"":15,""time"":106602},{""event"":""focus"",""trial"":15,""time"":123397},{""event"":""blur"",""trial"":28,""time"":323927},{""event"":""focus"",""trial"":28,""time"":330224},{""event"":""blur"",""trial"":29,""time"":336195},{""event"":""focus"",""trial"":29,""time"":341490},{""event"":""blur"",""trial"":30,""time"":343930},{""event"":""focus"",""trial"":30,""time"":364859},{""event"":""blur"",""trial"":31,""time"":373292},{""event"":""focus"",""trial"":31,""time"":380850}]",NA,NA,NA,NA,NA,3,#D8271C,#741CD8,0,10,0,38,1,531.6999999880791,39,0,535.4000000357628,10,1,experiment,NA,NA,0,0.1,0.9,1,0,30,1,NA
fcp-trial,64,543132,0.0-39.0-0.0,voc_e2,11949,"[{""event"":""blur"",""trial"":1,""time"":5318},{""event"":""focus"",""trial"":1,""time"":22854},{""event"":""fullscreenenter"",""trial"":1,""time"":23596},{""event"":""blur"",""trial"":6,""time"":43668},{""event"":""focus"",""trial"":6,""time"":46593},{""event"":""blur"",""trial"":15,""time"":106602},{""event"":""focus"",""trial"":15,""time"":123397},{""event"":""blur"",""trial"":28,""time"":323927},{""event"":""focus"",""trial"":28,""time"":330224},{""event"":""blur"",""trial"":29,""time"":336195},{""event"":""focus"",""trial"":29,""time"":341490},{""event"":""blur"",""trial"":30,""time"":343930},{""event"":""focus"",""trial"":30,""time"":364859},{""event"":""blur"",""trial"":31,""time"":373292},{""event"":""focus"",""trial"":31,""time"":380850}]",NA,NA,NA,NA,NA,0,#D89F1C,#3386FF,0,10,1,38,1,1271.199999988079,39,0,510.10000002384186,10,0,experiment,NA,NA,2,0.5,0.5,4,5,31,1,NA
fcp-trial,65,545711,0.0-40.0-0.0,voc_e2,11949,"[{""event"":""blur"",""trial"":1,""time"":5318},{""event"":""focus"",""trial"":1,""time"":22854},{""event"":""fullscreenenter"",""trial"":1,""time"":23596},{""event"":""blur"",""trial"":6,""time"":43668},{""event"":""focus"",""trial"":6,""time"":46593},{""event"":""blur"",""trial"":15,""time"":106602},{""event"":""focus"",""trial"":15,""time"":123397},{""event"":""blur"",""trial"":28,""time"":323927},{""event"":""focus"",""trial"":28,""time"":330224},{""event"":""blur"",""trial"":29,""time"":336195},{""event"":""focus"",""trial"":29,""time"":341490},{""event"":""blur"",""trial"":30,""time"":343930},{""event"":""focus"",""trial"":30,""time"":364859},{""event"":""blur"",""trial"":31,""time"":373292},{""event"":""focus"",""trial"":31,""time"":380850}]",NA,NA,NA,NA,NA,6,#D89F1C,#3386FF,10,10,1,38,1,527.3999999761581,39,0,544.4000000357628,10,0,experiment,NA,NA,2,0.5,0.5,4,5,32,1,NA
fcp-trial,66,549132,0.0-41.0-0.0,voc_e2,11949,"[{""event"":""blur"",""trial"":1,""time"":5318},{""event"":""focus"",""trial"":1,""time"":22854},{""event"":""fullscreenenter"",""trial"":1,""time"":23596},{""event"":""blur"",""trial"":6,""time"":43668},{""event"":""focus"",""trial"":6,""time"":46593},{""event"":""blur"",""trial"":15,""time"":106602},{""event"":""focus"",""trial"":15,""time"":123397},{""event"":""blur"",""trial"":28,""time"":323927},{""event"":""focus"",""trial"":28,""time"":330224},{""event"":""blur"",""trial"":29,""time"":336195},{""event"":""focus"",""trial"":29,""time"":341490},{""event"":""blur"",""trial"":30,""time"":343930},{""event"":""focus"",""trial"":30,""time"":364859},{""event"":""blur"",""trial"":31,""time"":373292},{""event"":""focus"",""trial"":31,""time"":380850}]",NA,NA,NA,NA,NA,6,#741CD8,#D8271C,10,10,1,38,1,1011.8999999761581,37,1,902.5,10,1,experiment,NA,NA,0,0.9,0.1,0,1,33,1,NA
fcp-trial,67,552068,0.0-42.0-0.0,voc_e2,11949,"[{""event"":""blur"",""trial"":1,""time"":5318},{""event"":""focus"",""trial"":1,""time"":22854},{""event"":""fullscreenenter"",""trial"":1,""time"":23596},{""event"":""blur"",""trial"":6,""time"":43668},{""event"":""focus"",""trial"":6,""time"":46593},{""event"":""blur"",""trial"":15,""time"":106602},{""event"":""focus"",""trial"":15,""time"":123397},{""event"":""blur"",""trial"":28,""time"":323927},{""event"":""focus"",""trial"":28,""time"":330224},{""event"":""blur"",""trial"":29,""time"":336195},{""event"":""focus"",""trial"":29,""time"":341490},{""event"":""blur"",""trial"":30,""time"":343930},{""event"":""focus"",""trial"":30,""time"":364859},{""event"":""blur"",""trial"":31,""time"":373292},{""event"":""focus"",""trial"":31,""time"":380850}]",NA,NA,NA,NA,NA,5,#FA92F8,#1CD855,10,10,1,38,1,702.5,37,1,726.1000000238419,10,1,experiment,NA,NA,1,0.7,0.3,2,3,34,1,NA
fcp-trial,68,554799,0.0-43.0-0.0,voc_e2,11949,"[{""event"":""blur"",""trial"":1,""time"":5318},{""event"":""focus"",""trial"":1,""time"":22854},{""event"":""fullscreenenter"",""trial"":1,""time"":23596},{""event"":""blur"",""trial"":6,""time"":43668},{""event"":""focus"",""trial"":6,""time"":46593},{""event"":""blur"",""trial"":15,""time"":106602},{""event"":""focus"",""trial"":15,""time"":123397},{""event"":""blur"",""trial"":28,""time"":323927},{""event"":""focus"",""trial"":28,""time"":330224},{""event"":""blur"",""trial"":29,""time"":336195},{""event"":""focus"",""trial"":29,""time"":341490},{""event"":""blur"",""trial"":30,""time"":343930},{""event"":""focus"",""trial"":30,""time"":364859},{""event"":""blur"",""trial"":31,""time"":373292},{""event"":""focus"",""trial"":31,""time"":380850}]",NA,NA,NA,NA,NA,3,#3386FF,#D89F1C,10,10,0,38,1,702.4000000357628,37,1,519.6999999880791,10,0,experiment,NA,NA,2,0.5,0.5,5,4,35,1,NA
fcp-trial,69,557236,0.0-44.0-0.0,voc_e2,11949,"[{""event"":""blur"",""trial"":1,""time"":5318},{""event"":""focus"",""trial"":1,""time"":22854},{""event"":""fullscreenenter"",""trial"":1,""time"":23596},{""event"":""blur"",""trial"":6,""time"":43668},{""event"":""focus"",""trial"":6,""time"":46593},{""event"":""blur"",""trial"":15,""time"":106602},{""event"":""focus"",""trial"":15,""time"":123397},{""event"":""blur"",""trial"":28,""time"":323927},{""event"":""focus"",""trial"":28,""time"":330224},{""event"":""blur"",""trial"":29,""time"":336195},{""event"":""focus"",""trial"":29,""time"":341490},{""event"":""blur"",""trial"":30,""time"":343930},{""event"":""focus"",""trial"":30,""time"":364859},{""event"":""blur"",""trial"":31,""time"":373292},{""event"":""focus"",""trial"":31,""time"":380850}]",NA,NA,NA,NA,NA,5,#D89F1C,#3386FF,0,10,1,38,1,532.3000000119209,39,0,396.7999999523163,10,0,experiment,NA,NA,2,0.5,0.5,4,5,36,1,NA
fcp-trial,70,559755,0.0-45.0-0.0,voc_e2,11949,"[{""event"":""blur"",""trial"":1,""time"":5318},{""event"":""focus"",""trial"":1,""time"":22854},{""event"":""fullscreenenter"",""trial"":1,""time"":23596},{""event"":""blur"",""trial"":6,""time"":43668},{""event"":""focus"",""trial"":6,""time"":46593},{""event"":""blur"",""trial"":15,""time"":106602},{""event"":""focus"",""trial"":15,""time"":123397},{""event"":""blur"",""trial"":28,""time"":323927},{""event"":""focus"",""trial"":28,""time"":330224},{""event"":""blur"",""trial"":29,""time"":336195},{""event"":""focus"",""trial"":29,""time"":341490},{""event"":""blur"",""trial"":30,""time"":343930},{""event"":""focus"",""trial"":30,""time"":364859},{""event"":""blur"",""trial"":31,""time"":373292},{""event"":""focus"",""trial"":31,""time"":380850}]",NA,NA,NA,NA,NA,4,#1CD855,#FA92F8,10,10,0,38,1,565.8999999761581,39,0,444.7000000476837,10,1,experiment,NA,NA,1,0.3,0.7,3,2,37,1,NA
fcp-trial,71,562230,0.0-46.0-0.0,voc_e2,11949,"[{""event"":""blur"",""trial"":1,""time"":5318},{""event"":""focus"",""trial"":1,""time"":22854},{""event"":""fullscreenenter"",""trial"":1,""time"":23596},{""event"":""blur"",""trial"":6,""time"":43668},{""event"":""focus"",""trial"":6,""time"":46593},{""event"":""blur"",""trial"":15,""time"":106602},{""event"":""focus"",""trial"":15,""time"":123397},{""event"":""blur"",""trial"":28,""time"":323927},{""event"":""focus"",""trial"":28,""time"":330224},{""event"":""blur"",""trial"":29,""time"":336195},{""event"":""focus"",""trial"":29,""time"":341490},{""event"":""blur"",""trial"":30,""time"":343930},{""event"":""focus"",""trial"":30,""time"":364859},{""event"":""blur"",""trial"":31,""time"":373292},{""event"":""focus"",""trial"":31,""time"":380850}]",NA,NA,NA,NA,NA,2,#741CD8,#D8271C,10,0,1,38,1,603.1999999880791,37,1,360,10,1,experiment,NA,NA,0,0.9,0.1,0,1,38,1,NA
fcp-trial,72,564878,0.0-47.0-0.0,voc_e2,11949,"[{""event"":""blur"",""trial"":1,""time"":5318},{""event"":""focus"",""trial"":1,""time"":22854},{""event"":""fullscreenenter"",""trial"":1,""time"":23596},{""event"":""blur"",""trial"":6,""time"":43668},{""event"":""focus"",""trial"":6,""time"":46593},{""event"":""blur"",""trial"":15,""time"":106602},{""event"":""focus"",""trial"":15,""time"":123397},{""event"":""blur"",""trial"":28,""time"":323927},{""event"":""focus"",""trial"":28,""time"":330224},{""event"":""blur"",""trial"":29,""time"":336195},{""event"":""focus"",""trial"":29,""time"":341490},{""event"":""blur"",""trial"":30,""time"":343930},{""event"":""focus"",""trial"":30,""time"":364859},{""event"":""blur"",""trial"":31,""time"":373292},{""event"":""focus"",""trial"":31,""time"":380850}]",NA,NA,NA,NA,NA,4,#3386FF,#D89F1C,0,0,0,38,1,644.9000000357628,37,1,498.699999988079,0,0,experiment,NA,NA,2,0.5,0.5,5,4,39,1,NA
fcp-trial,73,567182,0.0-48.0-0.0,voc_e2,11949,"[{""event"":""blur"",""trial"":1,""time"":5318},{""event"":""focus"",""trial"":1,""time"":22854},{""event"":""fullscreenenter"",""trial"":1,""time"":23596},{""event"":""blur"",""trial"":6,""time"":43668},{""event"":""focus"",""trial"":6,""time"":46593},{""event"":""blur"",""trial"":15,""time"":106602},{""event"":""focus"",""trial"":15,""time"":123397},{""event"":""blur"",""trial"":28,""time"":323927},{""event"":""focus"",""trial"":28,""time"":330224},{""event"":""blur"",""trial"":29,""time"":336195},{""event"":""focus"",""trial"":29,""time"":341490},{""event"":""blur"",""trial"":30,""time"":343930},{""event"":""focus"",""trial"":30,""time"":364859},{""event"":""blur"",""trial"":31,""time"":373292},{""event"":""focus"",""trial"":31,""time"":380850}]",NA,NA,NA,NA,NA,2,#D89F1C,#3386FF,0,0,1,38,1,493.89999997615814,39,0,303.19999998807907,0,0,experiment,NA,NA,2,0.5,0.5,4,5,40,1,NA
fcp-trial,74,570563,0.0-49.0-0.0,voc_e2,11949,"[{""event"":""blur"",""trial"":1,""time"":5318},{""event"":""focus"",""trial"":1,""time"":22854},{""event"":""fullscreenenter"",""trial"":1,""time"":23596},{""event"":""blur"",""trial"":6,""time"":43668},{""event"":""focus"",""trial"":6,""time"":46593},{""event"":""blur"",""trial"":15,""time"":106602},{""event"":""focus"",""trial"":15,""time"":123397},{""event"":""blur"",""trial"":28,""time"":323927},{""event"":""focus"",""trial"":28,""time"":330224},{""event"":""blur"",""trial"":29,""time"":336195},{""event"":""focus"",""trial"":29,""time"":341490},{""event"":""blur"",""trial"":30,""time"":343930},{""event"":""focus"",""trial"":30,""time"":364859},{""event"":""blur"",""trial"":31,""time"":373292},{""event"":""focus"",""trial"":31,""time"":380850}]",NA,NA,NA,NA,NA,2,#1CD855,#FA92F8,10,10,0,38,1,652.8999999761581,39,0,1222.199999988079,10,1,experiment,NA,NA,1,0.3,0.7,3,2,41,1,NA
fcp-trial,75,574035,0.0-50.0-0.0,voc_e2,11949,"[{""event"":""blur"",""trial"":1,""time"":5318},{""event"":""focus"",""trial"":1,""time"":22854},{""event"":""fullscreenenter"",""trial"":1,""time"":23596},{""event"":""blur"",""trial"":6,""time"":43668},{""event"":""focus"",""trial"":6,""time"":46593},{""event"":""blur"",""trial"":15,""time"":106602},{""event"":""focus"",""trial"":15,""time"":123397},{""event"":""blur"",""trial"":28,""time"":323927},{""event"":""focus"",""trial"":28,""time"":330224},{""event"":""blur"",""trial"":29,""time"":336195},{""event"":""focus"",""trial"":29,""time"":341490},{""event"":""blur"",""trial"":30,""time"":343930},{""event"":""focus"",""trial"":30,""time"":364859},{""event"":""blur"",""trial"":31,""time"":373292},{""event"":""focus"",""trial"":31,""time"":380850}]",NA,NA,NA,NA,NA,5,#D8271C,#741CD8,0,0,0,38,1,1304.699999988079,39,0,659,0,1,experiment,NA,NA,0,0.1,0.9,1,0,42,1,NA
fcp-trial,76,576820,0.0-51.0-0.0,voc_e2,11949,"[{""event"":""blur"",""trial"":1,""time"":5318},{""event"":""focus"",""trial"":1,""time"":22854},{""event"":""fullscreenenter"",""trial"":1,""time"":23596},{""event"":""blur"",""trial"":6,""time"":43668},{""event"":""focus"",""trial"":6,""time"":46593},{""event"":""blur"",""trial"":15,""time"":106602},{""event"":""focus"",""trial"":15,""time"":123397},{""event"":""blur"",""trial"":28,""time"":323927},{""event"":""focus"",""trial"":28,""time"":330224},{""event"":""blur"",""trial"":29,""time"":336195},{""event"":""focus"",""trial"":29,""time"":341490},{""event"":""blur"",""trial"":30,""time"":343930},{""event"":""focus"",""trial"":30,""time"":364859},{""event"":""blur"",""trial"":31,""time"":373292},{""event"":""focus"",""trial"":31,""time"":380850}]",NA,NA,NA,NA,NA,5,#3386FF,#D89F1C,10,0,0,38,1,830.5999999642372,37,1,446.7999999523163,10,0,experiment,NA,NA,2,0.5,0.5,5,4,43,1,NA
fcp-trial,77,579445,0.0-52.0-0.0,voc_e2,11949,"[{""event"":""blur"",""trial"":1,""time"":5318},{""event"":""focus"",""trial"":1,""time"":22854},{""event"":""fullscreenenter"",""trial"":1,""time"":23596},{""event"":""blur"",""trial"":6,""time"":43668},{""event"":""focus"",""trial"":6,""time"":46593},{""event"":""blur"",""trial"":15,""time"":106602},{""event"":""focus"",""trial"":15,""time"":123397},{""event"":""blur"",""trial"":28,""time"":323927},{""event"":""focus"",""trial"":28,""time"":330224},{""event"":""blur"",""trial"":29,""time"":336195},{""event"":""focus"",""trial"":29,""time"":341490},{""event"":""blur"",""trial"":30,""time"":343930},{""event"":""focus"",""trial"":30,""time"":364859},{""event"":""blur"",""trial"":31,""time"":373292},{""event"":""focus"",""trial"":31,""time"":380850}]",NA,NA,NA,NA,NA,0,#D8271C,#741CD8,0,10,0,38,1,614.8000000119209,39,0,503.10000002384186,10,1,experiment,NA,NA,0,0.1,0.9,1,0,44,1,NA
fcp-trial,78,581875,0.0-53.0-0.0,voc_e2,11949,"[{""event"":""blur"",""trial"":1,""time"":5318},{""event"":""focus"",""trial"":1,""time"":22854},{""event"":""fullscreenenter"",""trial"":1,""time"":23596},{""event"":""blur"",""trial"":6,""time"":43668},{""event"":""focus"",""trial"":6,""time"":46593},{""event"":""blur"",""trial"":15,""time"":106602},{""event"":""focus"",""trial"":15,""time"":123397},{""event"":""blur"",""trial"":28,""time"":323927},{""event"":""focus"",""trial"":28,""time"":330224},{""event"":""blur"",""trial"":29,""time"":336195},{""event"":""focus"",""trial"":29,""time"":341490},{""event"":""blur"",""trial"":30,""time"":343930},{""event"":""focus"",""trial"":30,""time"":364859},{""event"":""blur"",""trial"":31,""time"":373292},{""event"":""focus"",""trial"":31,""time"":380850}]",NA,NA,NA,NA,NA,3,#D8271C,#741CD8,0,10,0,38,1,517.5999999642372,39,0,406.300000011921,10,1,experiment,NA,NA,0,0.1,0.9,1,0,45,1,NA
fcp-trial,79,584254,0.0-54.0-0.0,voc_e2,11949,"[{""event"":""blur"",""trial"":1,""time"":5318},{""event"":""focus"",""trial"":1,""time"":22854},{""event"":""fullscreenenter"",""trial"":1,""time"":23596},{""event"":""blur"",""trial"":6,""time"":43668},{""event"":""focus"",""trial"":6,""time"":46593},{""event"":""blur"",""trial"":15,""time"":106602},{""event"":""focus"",""trial"":15,""time"":123397},{""event"":""blur"",""trial"":28,""time"":323927},{""event"":""focus"",""trial"":28,""time"":330224},{""event"":""blur"",""trial"":29,""time"":336195},{""event"":""focus"",""trial"":29,""time"":341490},{""event"":""blur"",""trial"":30,""time"":343930},{""event"":""focus"",""trial"":30,""time"":364859},{""event"":""blur"",""trial"":31,""time"":373292},{""event"":""focus"",""trial"":31,""time"":380850}]",NA,NA,NA,NA,NA,1,#D89F1C,#3386FF,0,0,1,38,1,473.80000001192093,39,0,393,0,0,experiment,NA,NA,2,0.5,0.5,4,5,46,2,NA
fcp-trial,80,586767,0.0-55.0-0.0,voc_e2,11949,"[{""event"":""blur"",""trial"":1,""time"":5318},{""event"":""focus"",""trial"":1,""time"":22854},{""event"":""fullscreenenter"",""trial"":1,""time"":23596},{""event"":""blur"",""trial"":6,""time"":43668},{""event"":""focus"",""trial"":6,""time"":46593},{""event"":""blur"",""trial"":15,""time"":106602},{""event"":""focus"",""trial"":15,""time"":123397},{""event"":""blur"",""trial"":28,""time"":323927},{""event"":""focus"",""trial"":28,""time"":330224},{""event"":""blur"",""trial"":29,""time"":336195},{""event"":""focus"",""trial"":29,""time"":341490},{""event"":""blur"",""trial"":30,""time"":343930},{""event"":""focus"",""trial"":30,""time"":364859},{""event"":""blur"",""trial"":31,""time"":373292},{""event"":""focus"",""trial"":31,""time"":380850}]",NA,NA,NA,NA,NA,3,#1CD855,#FA92F8,10,10,0,38,1,594.8999999761581,39,0,411.4000000357628,10,1,experiment,NA,NA,1,0.3,0.7,3,2,47,2,NA
fcp-trial,81,589307,0.0-56.0-0.0,voc_e2,11949,"[{""event"":""blur"",""trial"":1,""time"":5318},{""event"":""focus"",""trial"":1,""time"":22854},{""event"":""fullscreenenter"",""trial"":1,""time"":23596},{""event"":""blur"",""trial"":6,""time"":43668},{""event"":""focus"",""trial"":6,""time"":46593},{""event"":""blur"",""trial"":15,""time"":106602},{""event"":""focus"",""trial"":15,""time"":123397},{""event"":""blur"",""trial"":28,""time"":323927},{""event"":""focus"",""trial"":28,""time"":330224},{""event"":""blur"",""trial"":29,""time"":336195},{""event"":""focus"",""trial"":29,""time"":341490},{""event"":""blur"",""trial"":30,""time"":343930},{""event"":""focus"",""trial"":30,""time"":364859},{""event"":""blur"",""trial"":31,""time"":373292},{""event"":""focus"",""trial"":31,""time"":380850}]",NA,NA,NA,NA,NA,4,#D89F1C,#3386FF,0,10,1,38,1,443.69999998807907,39,0,589.9000000357628,10,0,experiment,NA,NA,2,0.5,0.5,4,5,48,2,NA
fcp-trial,82,591954,0.0-57.0-0.0,voc_e2,11949,"[{""event"":""blur"",""trial"":1,""time"":5318},{""event"":""focus"",""trial"":1,""time"":22854},{""event"":""fullscreenenter"",""trial"":1,""time"":23596},{""event"":""blur"",""trial"":6,""time"":43668},{""event"":""focus"",""trial"":6,""time"":46593},{""event"":""blur"",""trial"":15,""time"":106602},{""event"":""focus"",""trial"":15,""time"":123397},{""event"":""blur"",""trial"":28,""time"":323927},{""event"":""focus"",""trial"":28,""time"":330224},{""event"":""blur"",""trial"":29,""time"":336195},{""event"":""focus"",""trial"":29,""time"":341490},{""event"":""blur"",""trial"":30,""time"":343930},{""event"":""focus"",""trial"":30,""time"":364859},{""event"":""blur"",""trial"":31,""time"":373292},{""event"":""focus"",""trial"":31,""time"":380850}]",NA,NA,NA,NA,NA,4,#D8271C,#741CD8,0,10,0,38,1,614.9000000357628,39,0,525.6999999880791,10,1,experiment,NA,NA,0,0.1,0.9,1,0,49,2,NA
fcp-trial,83,595533,0.0-58.0-0.0,voc_e2,11949,"[{""event"":""blur"",""trial"":1,""time"":5318},{""event"":""focus"",""trial"":1,""time"":22854},{""event"":""fullscreenenter"",""trial"":1,""time"":23596},{""event"":""blur"",""trial"":6,""time"":43668},{""event"":""focus"",""trial"":6,""time"":46593},{""event"":""blur"",""trial"":15,""time"":106602},{""event"":""focus"",""trial"":15,""time"":123397},{""event"":""blur"",""trial"":28,""time"":323927},{""event"":""focus"",""trial"":28,""time"":330224},{""event"":""blur"",""trial"":29,""time"":336195},{""event"":""focus"",""trial"":29,""time"":341490},{""event"":""blur"",""trial"":30,""time"":343930},{""event"":""focus"",""trial"":30,""time"":364859},{""event"":""blur"",""trial"":31,""time"":373292},{""event"":""focus"",""trial"":31,""time"":380850}]",NA,NA,NA,NA,NA,0,#3386FF,#D89F1C,0,10,0,38,1,574,37,1,1497.600000023842,0,0,experiment,NA,NA,2,0.5,0.5,5,4,50,2,NA
fcp-trial,84,598122,0.0-59.0-0.0,voc_e2,11949,"[{""event"":""blur"",""trial"":1,""time"":5318},{""event"":""focus"",""trial"":1,""time"":22854},{""event"":""fullscreenenter"",""trial"":1,""time"":23596},{""event"":""blur"",""trial"":6,""time"":43668},{""event"":""focus"",""trial"":6,""time"":46593},{""event"":""blur"",""trial"":15,""time"":106602},{""event"":""focus"",""trial"":15,""time"":123397},{""event"":""blur"",""trial"":28,""time"":323927},{""event"":""focus"",""trial"":28,""time"":330224},{""event"":""blur"",""trial"":29,""time"":336195},{""event"":""focus"",""trial"":29,""time"":341490},{""event"":""blur"",""trial"":30,""time"":343930},{""event"":""focus"",""trial"":30,""time"":364859},{""event"":""blur"",""trial"":31,""time"":373292},{""event"":""focus"",""trial"":31,""time"":380850}]",NA,NA,NA,NA,NA,1,#741CD8,#D8271C,10,0,1,38,1,380.19999998807907,37,1,702.7000000476837,10,1,experiment,NA,NA,0,0.9,0.1,0,1,51,2,NA
fcp-trial,85,600534,0.0-60.0-0.0,voc_e2,11949,"[{""event"":""blur"",""trial"":1,""time"":5318},{""event"":""focus"",""trial"":1,""time"":22854},{""event"":""fullscreenenter"",""trial"":1,""time"":23596},{""event"":""blur"",""trial"":6,""time"":43668},{""event"":""focus"",""trial"":6,""time"":46593},{""event"":""blur"",""trial"":15,""time"":106602},{""event"":""focus"",""trial"":15,""time"":123397},{""event"":""blur"",""trial"":28,""time"":323927},{""event"":""focus"",""trial"":28,""time"":330224},{""event"":""blur"",""trial"":29,""time"":336195},{""event"":""focus"",""trial"":29,""time"":341490},{""event"":""blur"",""trial"":30,""time"":343930},{""event"":""focus"",""trial"":30,""time"":364859},{""event"":""blur"",""trial"":31,""time"":373292},{""event"":""focus"",""trial"":31,""time"":380850}]",NA,NA,NA,NA,NA,6,#1CD855,#FA92F8,0,10,0,38,1,439.60000002384186,39,0,465.699999988079,10,1,experiment,NA,NA,1,0.3,0.7,3,2,52,2,NA
fcp-trial,86,602874,0.0-61.0-0.0,voc_e2,11949,"[{""event"":""blur"",""trial"":1,""time"":5318},{""event"":""focus"",""trial"":1,""time"":22854},{""event"":""fullscreenenter"",""trial"":1,""time"":23596},{""event"":""blur"",""trial"":6,""time"":43668},{""event"":""focus"",""trial"":6,""time"":46593},{""event"":""blur"",""trial"":15,""time"":106602},{""event"":""focus"",""trial"":15,""time"":123397},{""event"":""blur"",""trial"":28,""time"":323927},{""event"":""focus"",""trial"":28,""time"":330224},{""event"":""blur"",""trial"":29,""time"":336195},{""event"":""focus"",""trial"":29,""time"":341490},{""event"":""blur"",""trial"":30,""time"":343930},{""event"":""focus"",""trial"":30,""time"":364859},{""event"":""blur"",""trial"":31,""time"":373292},{""event"":""focus"",""trial"":31,""time"":380850}]",NA,NA,NA,NA,NA,2,#741CD8,#D8271C,10,0,1,38,1,395.39999997615814,37,1,438.199999988079,10,1,experiment,NA,NA,0,0.9,0.1,0,1,53,2,NA
fcp-trial,87,606090,0.0-62.0-0.0,voc_e2,11949,"[{""event"":""blur"",""trial"":1,""time"":5318},{""event"":""focus"",""trial"":1,""time"":22854},{""event"":""fullscreenenter"",""trial"":1,""time"":23596},{""event"":""blur"",""trial"":6,""time"":43668},{""event"":""focus"",""trial"":6,""time"":46593},{""event"":""blur"",""trial"":15,""time"":106602},{""event"":""focus"",""trial"":15,""time"":123397},{""event"":""blur"",""trial"":28,""time"":323927},{""event"":""focus"",""trial"":28,""time"":330224},{""event"":""blur"",""trial"":29,""time"":336195},{""event"":""focus"",""trial"":29,""time"":341490},{""event"":""blur"",""trial"":30,""time"":343930},{""event"":""focus"",""trial"":30,""time"":364859},{""event"":""blur"",""trial"":31,""time"":373292},{""event"":""focus"",""trial"":31,""time"":380850}]",NA,NA,NA,NA,NA,2,#3386FF,#D89F1C,0,10,0,38,1,1157.800000011921,37,1,550.6000000238419,0,0,experiment,NA,NA,2,0.5,0.5,5,4,54,2,NA
fcp-trial,88,608732,0.0-63.0-0.0,voc_e2,11949,"[{""event"":""blur"",""trial"":1,""time"":5318},{""event"":""focus"",""trial"":1,""time"":22854},{""event"":""fullscreenenter"",""trial"":1,""time"":23596},{""event"":""blur"",""trial"":6,""time"":43668},{""event"":""focus"",""trial"":6,""time"":46593},{""event"":""blur"",""trial"":15,""time"":106602},{""event"":""focus"",""trial"":15,""time"":123397},{""event"":""blur"",""trial"":28,""time"":323927},{""event"":""focus"",""trial"":28,""time"":330224},{""event"":""blur"",""trial"":29,""time"":336195},{""event"":""focus"",""trial"":29,""time"":341490},{""event"":""blur"",""trial"":30,""time"":343930},{""event"":""focus"",""trial"":30,""time"":364859},{""event"":""blur"",""trial"":31,""time"":373292},{""event"":""focus"",""trial"":31,""time"":380850}]",NA,NA,NA,NA,NA,1,#1CD855,#FA92F8,0,10,0,38,1,624.3000000119209,39,0,511.199999988079,10,1,experiment,NA,NA,1,0.3,0.7,3,2,55,2,NA
fcp-trial,89,611411,0.0-64.0-0.0,voc_e2,11949,"[{""event"":""blur"",""trial"":1,""time"":5318},{""event"":""focus"",""trial"":1,""time"":22854},{""event"":""fullscreenenter"",""trial"":1,""time"":23596},{""event"":""blur"",""trial"":6,""time"":43668},{""event"":""focus"",""trial"":6,""time"":46593},{""event"":""blur"",""trial"":15,""time"":106602},{""event"":""focus"",""trial"":15,""time"":123397},{""event"":""blur"",""trial"":28,""time"":323927},{""event"":""focus"",""trial"":28,""time"":330224},{""event"":""blur"",""trial"":29,""time"":336195},{""event"":""focus"",""trial"":29,""time"":341490},{""event"":""blur"",""trial"":30,""time"":343930},{""event"":""focus"",""trial"":30,""time"":364859},{""event"":""blur"",""trial"":31,""time"":373292},{""event"":""focus"",""trial"":31,""time"":380850}]",NA,NA,NA,NA,NA,6,#D8271C,#741CD8,0,10,0,38,1,588.4000000357628,39,0,582.8999999761581,10,1,experiment,NA,NA,0,0.1,0.9,1,0,56,2,NA
fcp-trial,90,613940,0.0-65.0-0.0,voc_e2,11949,"[{""event"":""blur"",""trial"":1,""time"":5318},{""event"":""focus"",""trial"":1,""time"":22854},{""event"":""fullscreenenter"",""trial"":1,""time"":23596},{""event"":""blur"",""trial"":6,""time"":43668},{""event"":""focus"",""trial"":6,""time"":46593},{""event"":""blur"",""trial"":15,""time"":106602},{""event"":""focus"",""trial"":15,""time"":123397},{""event"":""blur"",""trial"":28,""time"":323927},{""event"":""focus"",""trial"":28,""time"":330224},{""event"":""blur"",""trial"":29,""time"":336195},{""event"":""focus"",""trial"":29,""time"":341490},{""event"":""blur"",""trial"":30,""time"":343930},{""event"":""focus"",""trial"":30,""time"":364859},{""event"":""blur"",""trial"":31,""time"":373292},{""event"":""focus"",""trial"":31,""time"":380850}]",NA,NA,NA,NA,NA,2,#FA92F8,#1CD855,10,0,1,38,1,523.5,37,1,495.199999988079,10,1,experiment,NA,NA,1,0.7,0.3,2,3,57,2,NA
fcp-trial,91,617772,0.0-66.0-0.0,voc_e2,11949,"[{""event"":""blur"",""trial"":1,""time"":5318},{""event"":""focus"",""trial"":1,""time"":22854},{""event"":""fullscreenenter"",""trial"":1,""time"":23596},{""event"":""blur"",""trial"":6,""time"":43668},{""event"":""focus"",""trial"":6,""time"":46593},{""event"":""blur"",""trial"":15,""time"":106602},{""event"":""focus"",""trial"":15,""time"":123397},{""event"":""blur"",""trial"":28,""time"":323927},{""event"":""focus"",""trial"":28,""time"":330224},{""event"":""blur"",""trial"":29,""time"":336195},{""event"":""focus"",""trial"":29,""time"":341490},{""event"":""blur"",""trial"":30,""time"":343930},{""event"":""focus"",""trial"":30,""time"":364859},{""event"":""blur"",""trial"":31,""time"":373292},{""event"":""focus"",""trial"":31,""time"":380850}]",NA,NA,NA,NA,NA,6,#3386FF,#D89F1C,0,10,0,40,0,1254.199999988079,39,0,1071.5,10,1,experiment,NA,NA,2,0.5,0.5,5,4,58,2,NA
fcp-trial,92,622239,0.0-67.0-0.0,voc_e2,11949,"[{""event"":""blur"",""trial"":1,""time"":5318},{""event"":""focus"",""trial"":1,""time"":22854},{""event"":""fullscreenenter"",""trial"":1,""time"":23596},{""event"":""blur"",""trial"":6,""time"":43668},{""event"":""focus"",""trial"":6,""time"":46593},{""event"":""blur"",""trial"":15,""time"":106602},{""event"":""focus"",""trial"":15,""time"":123397},{""event"":""blur"",""trial"":28,""time"":323927},{""event"":""focus"",""trial"":28,""time"":330224},{""event"":""blur"",""trial"":29,""time"":336195},{""event"":""focus"",""trial"":29,""time"":341490},{""event"":""blur"",""trial"":30,""time"":343930},{""event"":""focus"",""trial"":30,""time"":364859},{""event"":""blur"",""trial"":31,""time"":373292},{""event"":""focus"",""trial"":31,""time"":380850}]",NA,NA,NA,NA,NA,5,#741CD8,#D8271C,10,0,1,38,1,2397.699999988079,37,1,564.4000000357628,10,1,experiment,NA,NA,0,0.9,0.1,0,1,59,2,NA
fcp-trial,93,625255,0.0-68.0-0.0,voc_e2,11949,"[{""event"":""blur"",""trial"":1,""time"":5318},{""event"":""focus"",""trial"":1,""time"":22854},{""event"":""fullscreenenter"",""trial"":1,""time"":23596},{""event"":""blur"",""trial"":6,""time"":43668},{""event"":""focus"",""trial"":6,""time"":46593},{""event"":""blur"",""trial"":15,""time"":106602},{""event"":""focus"",""trial"":15,""time"":123397},{""event"":""blur"",""trial"":28,""time"":323927},{""event"":""focus"",""trial"":28,""time"":330224},{""event"":""blur"",""trial"":29,""time"":336195},{""event"":""focus"",""trial"":29,""time"":341490},{""event"":""blur"",""trial"":30,""time"":343930},{""event"":""focus"",""trial"":30,""time"":364859},{""event"":""blur"",""trial"":31,""time"":373292},{""event"":""focus"",""trial"":31,""time"":380850}]",NA,NA,NA,NA,NA,5,#FA92F8,#1CD855,0,10,1,38,1,843.6000000238419,37,1,665.2000000476837,0,1,experiment,NA,NA,1,0.7,0.3,2,3,60,2,NA
fcp-trial,94,627773,0.0-69.0-0.0,voc_e2,11949,"[{""event"":""blur"",""trial"":1,""time"":5318},{""event"":""focus"",""trial"":1,""time"":22854},{""event"":""fullscreenenter"",""trial"":1,""time"":23596},{""event"":""blur"",""trial"":6,""time"":43668},{""event"":""focus"",""trial"":6,""time"":46593},{""event"":""blur"",""trial"":15,""time"":106602},{""event"":""focus"",""trial"":15,""time"":123397},{""event"":""blur"",""trial"":28,""time"":323927},{""event"":""focus"",""trial"":28,""time"":330224},{""event"":""blur"",""trial"":29,""time"":336195},{""event"":""focus"",""trial"":29,""time"":341490},{""event"":""blur"",""trial"":30,""time"":343930},{""event"":""focus"",""trial"":30,""time"":364859},{""event"":""blur"",""trial"":31,""time"":373292},{""event"":""focus"",""trial"":31,""time"":380850}]",NA,NA,NA,NA,NA,0,#FA92F8,#1CD855,0,10,1,38,1,627.1999999880791,37,1,386.199999988079,0,1,experiment,NA,NA,1,0.7,0.3,2,3,61,2,NA
fcp-trial,95,632323,0.0-70.0-0.0,voc_e2,11949,"[{""event"":""blur"",""trial"":1,""time"":5318},{""event"":""focus"",""trial"":1,""time"":22854},{""event"":""fullscreenenter"",""trial"":1,""time"":23596},{""event"":""blur"",""trial"":6,""time"":43668},{""event"":""focus"",""trial"":6,""time"":46593},{""event"":""blur"",""trial"":15,""time"":106602},{""event"":""focus"",""trial"":15,""time"":123397},{""event"":""blur"",""trial"":28,""time"":323927},{""event"":""focus"",""trial"":28,""time"":330224},{""event"":""blur"",""trial"":29,""time"":336195},{""event"":""focus"",""trial"":29,""time"":341490},{""event"":""blur"",""trial"":30,""time"":343930},{""event"":""focus"",""trial"":30,""time"":364859},{""event"":""blur"",""trial"":31,""time"":373292},{""event"":""focus"",""trial"":31,""time"":380850}]",NA,NA,NA,NA,NA,3,#D89F1C,#3386FF,0,0,1,40,0,2380.300000011921,39,0,664.4000000357628,0,0,experiment,NA,NA,2,0.5,0.5,4,5,62,2,NA
fcp-trial,96,636099,0.0-71.0-0.0,voc_e2,11949,"[{""event"":""blur"",""trial"":1,""time"":5318},{""event"":""focus"",""trial"":1,""time"":22854},{""event"":""fullscreenenter"",""trial"":1,""time"":23596},{""event"":""blur"",""trial"":6,""time"":43668},{""event"":""focus"",""trial"":6,""time"":46593},{""event"":""blur"",""trial"":15,""time"":106602},{""event"":""focus"",""trial"":15,""time"":123397},{""event"":""blur"",""trial"":28,""time"":323927},{""event"":""focus"",""trial"":28,""time"":330224},{""event"":""blur"",""trial"":29,""time"":336195},{""event"":""focus"",""trial"":29,""time"":341490},{""event"":""blur"",""trial"":30,""time"":343930},{""event"":""focus"",""trial"":30,""time"":364859},{""event"":""blur"",""trial"":31,""time"":373292},{""event"":""focus"",""trial"":31,""time"":380850}]",NA,NA,NA,NA,NA,4,#1CD855,#FA92F8,10,10,0,38,1,1039.2999999523163,39,0,1230.5,10,1,experiment,NA,NA,1,0.3,0.7,3,2,63,2,NA
fcp-trial,97,640204,0.0-72.0-0.0,voc_e2,11949,"[{""event"":""blur"",""trial"":1,""time"":5318},{""event"":""focus"",""trial"":1,""time"":22854},{""event"":""fullscreenenter"",""trial"":1,""time"":23596},{""event"":""blur"",""trial"":6,""time"":43668},{""event"":""focus"",""trial"":6,""time"":46593},{""event"":""blur"",""trial"":15,""time"":106602},{""event"":""focus"",""trial"":15,""time"":123397},{""event"":""blur"",""trial"":28,""time"":323927},{""event"":""focus"",""trial"":28,""time"":330224},{""event"":""blur"",""trial"":29,""time"":336195},{""event"":""focus"",""trial"":29,""time"":341490},{""event"":""blur"",""trial"":30,""time"":343930},{""event"":""focus"",""trial"":30,""time"":364859},{""event"":""blur"",""trial"":31,""time"":373292},{""event"":""focus"",""trial"":31,""time"":380850}]",NA,NA,NA,NA,NA,5,#D89F1C,#3386FF,0,0,1,40,0,1731.6000000238419,37,1,862.6999999880791,0,1,experiment,NA,NA,2,0.5,0.5,4,5,64,2,NA
fcp-trial,98,644491,0.0-73.0-0.0,voc_e2,11949,"[{""event"":""blur"",""trial"":1,""time"":5318},{""event"":""focus"",""trial"":1,""time"":22854},{""event"":""fullscreenenter"",""trial"":1,""time"":23596},{""event"":""blur"",""trial"":6,""time"":43668},{""event"":""focus"",""trial"":6,""time"":46593},{""event"":""blur"",""trial"":15,""time"":106602},{""event"":""focus"",""trial"":15,""time"":123397},{""event"":""blur"",""trial"":28,""time"":323927},{""event"":""focus"",""trial"":28,""time"":330224},{""event"":""blur"",""trial"":29,""time"":336195},{""event"":""focus"",""trial"":29,""time"":341490},{""event"":""blur"",""trial"":30,""time"":343930},{""event"":""focus"",""trial"":30,""time"":364859},{""event"":""blur"",""trial"":31,""time"":373292},{""event"":""focus"",""trial"":31,""time"":380850}]",NA,NA,NA,NA,NA,0,#FA92F8,#1CD855,0,10,1,38,1,2109.300000011921,37,1,670.5,0,1,experiment,NA,NA,1,0.7,0.3,2,3,65,2,NA
fcp-trial,99,648554,0.0-74.0-0.0,voc_e2,11949,"[{""event"":""blur"",""trial"":1,""time"":5318},{""event"":""focus"",""trial"":1,""time"":22854},{""event"":""fullscreenenter"",""trial"":1,""time"":23596},{""event"":""blur"",""trial"":6,""time"":43668},{""event"":""focus"",""trial"":6,""time"":46593},{""event"":""blur"",""trial"":15,""time"":106602},{""event"":""focus"",""trial"":15,""time"":123397},{""event"":""blur"",""trial"":28,""time"":323927},{""event"":""focus"",""trial"":28,""time"":330224},{""event"":""blur"",""trial"":29,""time"":336195},{""event"":""focus"",""trial"":29,""time"":341490},{""event"":""blur"",""trial"":30,""time"":343930},{""event"":""focus"",""trial"":30,""time"":364859},{""event"":""blur"",""trial"":31,""time"":373292},{""event"":""focus"",""trial"":31,""time"":380850}]",NA,NA,NA,NA,NA,0,#3386FF,#D89F1C,0,10,0,38,1,2079.100000023842,39,0,478.699999988079,10,1,experiment,NA,NA,2,0.5,0.5,5,4,66,2,NA
fcp-trial,100,653291,0.0-75.0-0.0,voc_e2,11949,"[{""event"":""blur"",""trial"":1,""time"":5318},{""event"":""focus"",""trial"":1,""time"":22854},{""event"":""fullscreenenter"",""trial"":1,""time"":23596},{""event"":""blur"",""trial"":6,""time"":43668},{""event"":""focus"",""trial"":6,""time"":46593},{""event"":""blur"",""trial"":15,""time"":106602},{""event"":""focus"",""trial"":15,""time"":123397},{""event"":""blur"",""trial"":28,""time"":323927},{""event"":""focus"",""trial"":28,""time"":330224},{""event"":""blur"",""trial"":29,""time"":336195},{""event"":""focus"",""trial"":29,""time"":341490},{""event"":""blur"",""trial"":30,""time"":343930},{""event"":""focus"",""trial"":30,""time"":364859},{""event"":""blur"",""trial"":31,""time"":373292},{""event"":""focus"",""trial"":31,""time"":380850}]",NA,NA,NA,NA,NA,0,#741CD8,#D8271C,10,0,1,38,1,2029.699999988079,37,1,1197.699999988079,10,1,experiment,NA,NA,0,0.9,0.1,0,1,67,2,NA
fcp-trial,101,656018,0.0-76.0-0.0,voc_e2,11949,"[{""event"":""blur"",""trial"":1,""time"":5318},{""event"":""focus"",""trial"":1,""time"":22854},{""event"":""fullscreenenter"",""trial"":1,""time"":23596},{""event"":""blur"",""trial"":6,""time"":43668},{""event"":""focus"",""trial"":6,""time"":46593},{""event"":""blur"",""trial"":15,""time"":106602},{""event"":""focus"",""trial"":15,""time"":123397},{""event"":""blur"",""trial"":28,""time"":323927},{""event"":""focus"",""trial"":28,""time"":330224},{""event"":""blur"",""trial"":29,""time"":336195},{""event"":""focus"",""trial"":29,""time"":341490},{""event"":""blur"",""trial"":30,""time"":343930},{""event"":""focus"",""trial"":30,""time"":364859},{""event"":""blur"",""trial"":31,""time"":373292},{""event"":""focus"",""trial"":31,""time"":380850}]",NA,NA,NA,NA,NA,6,#FA92F8,#1CD855,10,10,1,38,1,663.6000000238419,37,1,556.2000000476837,10,1,experiment,NA,NA,1,0.7,0.3,2,3,68,2,NA
fcp-trial,102,659354,0.0-77.0-0.0,voc_e2,11949,"[{""event"":""blur"",""trial"":1,""time"":5318},{""event"":""focus"",""trial"":1,""time"":22854},{""event"":""fullscreenenter"",""trial"":1,""time"":23596},{""event"":""blur"",""trial"":6,""time"":43668},{""event"":""focus"",""trial"":6,""time"":46593},{""event"":""blur"",""trial"":15,""time"":106602},{""event"":""focus"",""trial"":15,""time"":123397},{""event"":""blur"",""trial"":28,""time"":323927},{""event"":""focus"",""trial"":28,""time"":330224},{""event"":""blur"",""trial"":29,""time"":336195},{""event"":""focus"",""trial"":29,""time"":341490},{""event"":""blur"",""trial"":30,""time"":343930},{""event"":""focus"",""trial"":30,""time"":364859},{""event"":""blur"",""trial"":31,""time"":373292},{""event"":""focus"",""trial"":31,""time"":380850}]",NA,NA,NA,NA,NA,1,#D8271C,#741CD8,0,10,0,38,1,1005.6999999880791,39,0,822.6999999880791,10,1,experiment,NA,NA,0,0.1,0.9,1,0,69,2,NA
fcp-trial,103,662045,0.0-78.0-0.0,voc_e2,11949,"[{""event"":""blur"",""trial"":1,""time"":5318},{""event"":""focus"",""trial"":1,""time"":22854},{""event"":""fullscreenenter"",""trial"":1,""time"":23596},{""event"":""blur"",""trial"":6,""time"":43668},{""event"":""focus"",""trial"":6,""time"":46593},{""event"":""blur"",""trial"":15,""time"":106602},{""event"":""focus"",""trial"":15,""time"":123397},{""event"":""blur"",""trial"":28,""time"":323927},{""event"":""focus"",""trial"":28,""time"":330224},{""event"":""blur"",""trial"":29,""time"":336195},{""event"":""focus"",""trial"":29,""time"":341490},{""event"":""blur"",""trial"":30,""time"":343930},{""event"":""focus"",""trial"":30,""time"":364859},{""event"":""blur"",""trial"":31,""time"":373292},{""event"":""focus"",""trial"":31,""time"":380850}]",NA,NA,NA,NA,NA,4,#D89F1C,#3386FF,0,10,1,38,1,618.5999999642372,37,1,561,0,1,experiment,NA,NA,2,0.5,0.5,4,5,70,2,NA
fcp-trial,104,664555,0.0-79.0-0.0,voc_e2,11949,"[{""event"":""blur"",""trial"":1,""time"":5318},{""event"":""focus"",""trial"":1,""time"":22854},{""event"":""fullscreenenter"",""trial"":1,""time"":23596},{""event"":""blur"",""trial"":6,""time"":43668},{""event"":""focus"",""trial"":6,""time"":46593},{""event"":""blur"",""trial"":15,""time"":106602},{""event"":""focus"",""trial"":15,""time"":123397},{""event"":""blur"",""trial"":28,""time"":323927},{""event"":""focus"",""trial"":28,""time"":330224},{""event"":""blur"",""trial"":29,""time"":336195},{""event"":""focus"",""trial"":29,""time"":341490},{""event"":""blur"",""trial"":30,""time"":343930},{""event"":""focus"",""trial"":30,""time"":364859},{""event"":""blur"",""trial"":31,""time"":373292},{""event"":""focus"",""trial"":31,""time"":380850}]",NA,NA,NA,NA,NA,1,#D89F1C,#3386FF,0,0,1,38,1,595.8999999761581,37,1,407.2000000476837,0,1,experiment,NA,NA,2,0.5,0.5,4,5,71,2,NA
fcp-trial,105,669314,0.0-80.0-0.0,voc_e2,11949,"[{""event"":""blur"",""trial"":1,""time"":5318},{""event"":""focus"",""trial"":1,""time"":22854},{""event"":""fullscreenenter"",""trial"":1,""time"":23596},{""event"":""blur"",""trial"":6,""time"":43668},{""event"":""focus"",""trial"":6,""time"":46593},{""event"":""blur"",""trial"":15,""time"":106602},{""event"":""focus"",""trial"":15,""time"":123397},{""event"":""blur"",""trial"":28,""time"":323927},{""event"":""focus"",""trial"":28,""time"":330224},{""event"":""blur"",""trial"":29,""time"":336195},{""event"":""focus"",""trial"":29,""time"":341490},{""event"":""blur"",""trial"":30,""time"":343930},{""event"":""focus"",""trial"":30,""time"":364859},{""event"":""blur"",""trial"":31,""time"":373292},{""event"":""focus"",""trial"":31,""time"":380850}]",NA,NA,NA,NA,NA,4,#FA92F8,#1CD855,10,0,1,38,1,2707.800000011921,37,1,541.6000000238419,10,1,experiment,NA,NA,1,0.7,0.3,2,3,72,2,NA
fcp-trial,106,672514,0.0-81.0-0.0,voc_e2,11949,"[{""event"":""blur"",""trial"":1,""time"":5318},{""event"":""focus"",""trial"":1,""time"":22854},{""event"":""fullscreenenter"",""trial"":1,""time"":23596},{""event"":""blur"",""trial"":6,""time"":43668},{""event"":""focus"",""trial"":6,""time"":46593},{""event"":""blur"",""trial"":15,""time"":106602},{""event"":""focus"",""trial"":15,""time"":123397},{""event"":""blur"",""trial"":28,""time"":323927},{""event"":""focus"",""trial"":28,""time"":330224},{""event"":""blur"",""trial"":29,""time"":336195},{""event"":""focus"",""trial"":29,""time"":341490},{""event"":""blur"",""trial"":30,""time"":343930},{""event"":""focus"",""trial"":30,""time"":364859},{""event"":""blur"",""trial"":31,""time"":373292},{""event"":""focus"",""trial"":31,""time"":380850}]",NA,NA,NA,NA,NA,4,#D8271C,#741CD8,10,10,0,38,1,1158.7000000476837,39,0,533.6999999880791,10,1,experiment,NA,NA,0,0.1,0.9,1,0,73,2,NA
fcp-trial,107,675230,0.0-82.0-0.0,voc_e2,11949,"[{""event"":""blur"",""trial"":1,""time"":5318},{""event"":""focus"",""trial"":1,""time"":22854},{""event"":""fullscreenenter"",""trial"":1,""time"":23596},{""event"":""blur"",""trial"":6,""time"":43668},{""event"":""focus"",""trial"":6,""time"":46593},{""event"":""blur"",""trial"":15,""time"":106602},{""event"":""focus"",""trial"":15,""time"":123397},{""event"":""blur"",""trial"":28,""time"":323927},{""event"":""focus"",""trial"":28,""time"":330224},{""event"":""blur"",""trial"":29,""time"":336195},{""event"":""focus"",""trial"":29,""time"":341490},{""event"":""blur"",""trial"":30,""time"":343930},{""event"":""focus"",""trial"":30,""time"":364859},{""event"":""blur"",""trial"":31,""time"":373292},{""event"":""focus"",""trial"":31,""time"":380850}]",NA,NA,NA,NA,NA,5,#741CD8,#D8271C,10,0,1,38,1,751.1999999880791,37,1,458.5999999642372,10,1,experiment,NA,NA,0,0.9,0.1,0,1,74,2,NA
fcp-trial,108,679229,0.0-83.0-0.0,voc_e2,11949,"[{""event"":""blur"",""trial"":1,""time"":5318},{""event"":""focus"",""trial"":1,""time"":22854},{""event"":""fullscreenenter"",""trial"":1,""time"":23596},{""event"":""blur"",""trial"":6,""time"":43668},{""event"":""focus"",""trial"":6,""time"":46593},{""event"":""blur"",""trial"":15,""time"":106602},{""event"":""focus"",""trial"":15,""time"":123397},{""event"":""blur"",""trial"":28,""time"":323927},{""event"":""focus"",""trial"":28,""time"":330224},{""event"":""blur"",""trial"":29,""time"":336195},{""event"":""focus"",""trial"":29,""time"":341490},{""event"":""blur"",""trial"":30,""time"":343930},{""event"":""focus"",""trial"":30,""time"":364859},{""event"":""blur"",""trial"":31,""time"":373292},{""event"":""focus"",""trial"":31,""time"":380850}]",NA,NA,NA,NA,NA,3,#D89F1C,#3386FF,10,0,1,40,0,1877.2000000476837,39,0,616.6999999880791,0,0,experiment,NA,NA,2,0.5,0.5,4,5,75,2,NA
fcp-trial,109,683699,0.0-84.0-0.0,voc_e2,11949,"[{""event"":""blur"",""trial"":1,""time"":5318},{""event"":""focus"",""trial"":1,""time"":22854},{""event"":""fullscreenenter"",""trial"":1,""time"":23596},{""event"":""blur"",""trial"":6,""time"":43668},{""event"":""focus"",""trial"":6,""time"":46593},{""event"":""blur"",""trial"":15,""time"":106602},{""event"":""focus"",""trial"":15,""time"":123397},{""event"":""blur"",""trial"":28,""time"":323927},{""event"":""focus"",""trial"":28,""time"":330224},{""event"":""blur"",""trial"":29,""time"":336195},{""event"":""focus"",""trial"":29,""time"":341490},{""event"":""blur"",""trial"":30,""time"":343930},{""event"":""focus"",""trial"":30,""time"":364859},{""event"":""blur"",""trial"":31,""time"":373292},{""event"":""focus"",""trial"":31,""time"":380850}]",NA,NA,NA,NA,NA,2,#D8271C,#741CD8,0,10,0,38,1,77.39999997615814,39,0,2886.399999976158,10,1,experiment,NA,NA,0,0.1,0.9,1,0,76,2,NA
fcp-trial,110,688738,0.0-85.0-0.0,voc_e2,11949,"[{""event"":""blur"",""trial"":1,""time"":5318},{""event"":""focus"",""trial"":1,""time"":22854},{""event"":""fullscreenenter"",""trial"":1,""time"":23596},{""event"":""blur"",""trial"":6,""time"":43668},{""event"":""focus"",""trial"":6,""time"":46593},{""event"":""blur"",""trial"":15,""time"":106602},{""event"":""focus"",""trial"":15,""time"":123397},{""event"":""blur"",""trial"":28,""time"":323927},{""event"":""focus"",""trial"":28,""time"":330224},{""event"":""blur"",""trial"":29,""time"":336195},{""event"":""focus"",""trial"":29,""time"":341490},{""event"":""blur"",""trial"":30,""time"":343930},{""event"":""focus"",""trial"":30,""time"":364859},{""event"":""blur"",""trial"":31,""time"":373292},{""event"":""focus"",""trial"":31,""time"":380850}]",NA,NA,NA,NA,NA,1,#1CD855,#FA92F8,0,0,0,38,1,2943.600000023842,39,0,588.8000000119209,0,1,experiment,NA,NA,1,0.3,0.7,3,2,77,2,NA
fcp-trial,111,693586,0.0-86.0-0.0,voc_e2,11949,"[{""event"":""blur"",""trial"":1,""time"":5318},{""event"":""focus"",""trial"":1,""time"":22854},{""event"":""fullscreenenter"",""trial"":1,""time"":23596},{""event"":""blur"",""trial"":6,""time"":43668},{""event"":""focus"",""trial"":6,""time"":46593},{""event"":""blur"",""trial"":15,""time"":106602},{""event"":""focus"",""trial"":15,""time"":123397},{""event"":""blur"",""trial"":28,""time"":323927},{""event"":""focus"",""trial"":28,""time"":330224},{""event"":""blur"",""trial"":29,""time"":336195},{""event"":""focus"",""trial"":29,""time"":341490},{""event"":""blur"",""trial"":30,""time"":343930},{""event"":""focus"",""trial"":30,""time"":364859},{""event"":""blur"",""trial"":31,""time"":373292},{""event"":""focus"",""trial"":31,""time"":380850}]",NA,NA,NA,NA,NA,3,#D8271C,#741CD8,10,10,0,38,1,1535.699999988079,39,0,1803.800000011921,10,1,experiment,NA,NA,0,0.1,0.9,1,0,78,2,NA
fcp-trial,112,697274,0.0-87.0-0.0,voc_e2,11949,"[{""event"":""blur"",""trial"":1,""time"":5318},{""event"":""focus"",""trial"":1,""time"":22854},{""event"":""fullscreenenter"",""trial"":1,""time"":23596},{""event"":""blur"",""trial"":6,""time"":43668},{""event"":""focus"",""trial"":6,""time"":46593},{""event"":""blur"",""trial"":15,""time"":106602},{""event"":""focus"",""trial"":15,""time"":123397},{""event"":""blur"",""trial"":28,""time"":323927},{""event"":""focus"",""trial"":28,""time"":330224},{""event"":""blur"",""trial"":29,""time"":336195},{""event"":""focus"",""trial"":29,""time"":341490},{""event"":""blur"",""trial"":30,""time"":343930},{""event"":""focus"",""trial"":30,""time"":364859},{""event"":""blur"",""trial"":31,""time"":373292},{""event"":""focus"",""trial"":31,""time"":380850}]",NA,NA,NA,NA,NA,2,#3386FF,#D89F1C,10,10,0,40,0,1341.5,39,0,839.5,10,1,experiment,NA,NA,2,0.5,0.5,5,4,79,2,NA
fcp-trial,113,701121,0.0-88.0-0.0,voc_e2,11949,"[{""event"":""blur"",""trial"":1,""time"":5318},{""event"":""focus"",""trial"":1,""time"":22854},{""event"":""fullscreenenter"",""trial"":1,""time"":23596},{""event"":""blur"",""trial"":6,""time"":43668},{""event"":""focus"",""trial"":6,""time"":46593},{""event"":""blur"",""trial"":15,""time"":106602},{""event"":""focus"",""trial"":15,""time"":123397},{""event"":""blur"",""trial"":28,""time"":323927},{""event"":""focus"",""trial"":28,""time"":330224},{""event"":""blur"",""trial"":29,""time"":336195},{""event"":""focus"",""trial"":29,""time"":341490},{""event"":""blur"",""trial"":30,""time"":343930},{""event"":""focus"",""trial"":30,""time"":364859},{""event"":""blur"",""trial"":31,""time"":373292},{""event"":""focus"",""trial"":31,""time"":380850}]",NA,NA,NA,NA,NA,6,#D89F1C,#3386FF,0,0,1,40,0,1549.300000011921,39,0,787.8999999761581,0,0,experiment,NA,NA,2,0.5,0.5,4,5,80,2,NA
fcp-trial,114,706235,0.0-89.0-0.0,voc_e2,11949,"[{""event"":""blur"",""trial"":1,""time"":5318},{""event"":""focus"",""trial"":1,""time"":22854},{""event"":""fullscreenenter"",""trial"":1,""time"":23596},{""event"":""blur"",""trial"":6,""time"":43668},{""event"":""focus"",""trial"":6,""time"":46593},{""event"":""blur"",""trial"":15,""time"":106602},{""event"":""focus"",""trial"":15,""time"":123397},{""event"":""blur"",""trial"":28,""time"":323927},{""event"":""focus"",""trial"":28,""time"":330224},{""event"":""blur"",""trial"":29,""time"":336195},{""event"":""focus"",""trial"":29,""time"":341490},{""event"":""blur"",""trial"":30,""time"":343930},{""event"":""focus"",""trial"":30,""time"":364859},{""event"":""blur"",""trial"":31,""time"":373292},{""event"":""focus"",""trial"":31,""time"":380850}]",NA,NA,NA,NA,NA,2,#1CD855,#FA92F8,10,10,0,38,1,2143.699999988079,39,0,1463.5999999642372,10,1,experiment,NA,NA,1,0.3,0.7,3,2,81,2,NA
fcp-trial,115,709722,0.0-90.0-0.0,voc_e2,11949,"[{""event"":""blur"",""trial"":1,""time"":5318},{""event"":""focus"",""trial"":1,""time"":22854},{""event"":""fullscreenenter"",""trial"":1,""time"":23596},{""event"":""blur"",""trial"":6,""time"":43668},{""event"":""focus"",""trial"":6,""time"":46593},{""event"":""blur"",""trial"":15,""time"":106602},{""event"":""focus"",""trial"":15,""time"":123397},{""event"":""blur"",""trial"":28,""time"":323927},{""event"":""focus"",""trial"":28,""time"":330224},{""event"":""blur"",""trial"":29,""time"":336195},{""event"":""focus"",""trial"":29,""time"":341490},{""event"":""blur"",""trial"":30,""time"":343930},{""event"":""focus"",""trial"":30,""time"":364859},{""event"":""blur"",""trial"":31,""time"":373292},{""event"":""focus"",""trial"":31,""time"":380850}]",NA,NA,NA,NA,NA,3,#FA92F8,#1CD855,0,10,1,38,1,797.9000000357628,37,1,1182.2000000476835,0,1,experiment,NA,NA,1,0.7,0.3,2,3,82,2,NA
fcp-trial,116,714313,0.0-91.0-0.0,voc_e2,11949,"[{""event"":""blur"",""trial"":1,""time"":5318},{""event"":""focus"",""trial"":1,""time"":22854},{""event"":""fullscreenenter"",""trial"":1,""time"":23596},{""event"":""blur"",""trial"":6,""time"":43668},{""event"":""focus"",""trial"":6,""time"":46593},{""event"":""blur"",""trial"":15,""time"":106602},{""event"":""focus"",""trial"":15,""time"":123397},{""event"":""blur"",""trial"":28,""time"":323927},{""event"":""focus"",""trial"":28,""time"":330224},{""event"":""blur"",""trial"":29,""time"":336195},{""event"":""focus"",""trial"":29,""time"":341490},{""event"":""blur"",""trial"":30,""time"":343930},{""event"":""focus"",""trial"":30,""time"":364859},{""event"":""blur"",""trial"":31,""time"":373292},{""event"":""focus"",""trial"":31,""time"":380850}]",NA,NA,NA,NA,NA,6,#741CD8,#D8271C,0,0,1,40,0,2533.899999976158,37,1,549.5999999642372,0,1,experiment,NA,NA,0,0.9,0.1,0,1,83,2,NA
fcp-trial,117,718884,0.0-92.0-0.0,voc_e2,11949,"[{""event"":""blur"",""trial"":1,""time"":5318},{""event"":""focus"",""trial"":1,""time"":22854},{""event"":""fullscreenenter"",""trial"":1,""time"":23596},{""event"":""blur"",""trial"":6,""time"":43668},{""event"":""focus"",""trial"":6,""time"":46593},{""event"":""blur"",""trial"":15,""time"":106602},{""event"":""focus"",""trial"":15,""time"":123397},{""event"":""blur"",""trial"":28,""time"":323927},{""event"":""focus"",""trial"":28,""time"":330224},{""event"":""blur"",""trial"":29,""time"":336195},{""event"":""focus"",""trial"":29,""time"":341490},{""event"":""blur"",""trial"":30,""time"":343930},{""event"":""focus"",""trial"":30,""time"":364859},{""event"":""blur"",""trial"":31,""time"":373292},{""event"":""focus"",""trial"":31,""time"":380850}]",NA,NA,NA,NA,NA,5,#FA92F8,#1CD855,10,0,1,40,0,2341,39,0,719.5,0,0,experiment,NA,NA,1,0.7,0.3,2,3,84,2,NA
fcp-trial,118,722811,0.0-93.0-0.0,voc_e2,11949,"[{""event"":""blur"",""trial"":1,""time"":5318},{""event"":""focus"",""trial"":1,""time"":22854},{""event"":""fullscreenenter"",""trial"":1,""time"":23596},{""event"":""blur"",""trial"":6,""time"":43668},{""event"":""focus"",""trial"":6,""time"":46593},{""event"":""blur"",""trial"":15,""time"":106602},{""event"":""focus"",""trial"":15,""time"":123397},{""event"":""blur"",""trial"":28,""time"":323927},{""event"":""focus"",""trial"":28,""time"":330224},{""event"":""blur"",""trial"":29,""time"":336195},{""event"":""focus"",""trial"":29,""time"":341490},{""event"":""blur"",""trial"":30,""time"":343930},{""event"":""focus"",""trial"":30,""time"":364859},{""event"":""blur"",""trial"":31,""time"":373292},{""event"":""focus"",""trial"":31,""time"":380850}]",NA,NA,NA,NA,NA,0,#FA92F8,#1CD855,0,0,1,38,1,1893.300000011921,37,1,524.8000000119209,0,1,experiment,NA,NA,1,0.7,0.3,2,3,85,2,NA
fcp-trial,119,725538,0.0-94.0-0.0,voc_e2,11949,"[{""event"":""blur"",""trial"":1,""time"":5318},{""event"":""focus"",""trial"":1,""time"":22854},{""event"":""fullscreenenter"",""trial"":1,""time"":23596},{""event"":""blur"",""trial"":6,""time"":43668},{""event"":""focus"",""trial"":6,""time"":46593},{""event"":""blur"",""trial"":15,""time"":106602},{""event"":""focus"",""trial"":15,""time"":123397},{""event"":""blur"",""trial"":28,""time"":323927},{""event"":""focus"",""trial"":28,""time"":330224},{""event"":""blur"",""trial"":29,""time"":336195},{""event"":""focus"",""trial"":29,""time"":341490},{""event"":""blur"",""trial"":30,""time"":343930},{""event"":""focus"",""trial"":30,""time"":364859},{""event"":""blur"",""trial"":31,""time"":373292},{""event"":""focus"",""trial"":31,""time"":380850}]",NA,NA,NA,NA,NA,1,#D8271C,#741CD8,0,10,0,38,1,644.3000000119209,39,0,574.8000000119209,10,1,experiment,NA,NA,0,0.1,0.9,1,0,86,2,NA
fcp-trial,120,728546,0.0-95.0-0.0,voc_e2,11949,"[{""event"":""blur"",""trial"":1,""time"":5318},{""event"":""focus"",""trial"":1,""time"":22854},{""event"":""fullscreenenter"",""trial"":1,""time"":23596},{""event"":""blur"",""trial"":6,""time"":43668},{""event"":""focus"",""trial"":6,""time"":46593},{""event"":""blur"",""trial"":15,""time"":106602},{""event"":""focus"",""trial"":15,""time"":123397},{""event"":""blur"",""trial"":28,""time"":323927},{""event"":""focus"",""trial"":28,""time"":330224},{""event"":""blur"",""trial"":29,""time"":336195},{""event"":""focus"",""trial"":29,""time"":341490},{""event"":""blur"",""trial"":30,""time"":343930},{""event"":""focus"",""trial"":30,""time"":364859},{""event"":""blur"",""trial"":31,""time"":373292},{""event"":""focus"",""trial"":31,""time"":380850}]",NA,NA,NA,NA,NA,5,#741CD8,#D8271C,10,0,1,38,1,943.6999999880791,37,1,557.1999999880791,10,1,experiment,NA,NA,0,0.9,0.1,0,1,87,2,NA
