trial_type,trial_index,time_elapsed,internal_node_id,task_version,subject_id,interactions,success,rt,stimulus,key_press,button_pressed,offer,arcade_color_L,arcade_color_R,arcade_outcome_L,arcade_outcome_R,correct,stage_1_key,stage_1_choice,stage_1_rt,stage_2_key,stage_2_choice,stage_2_rt,stage_3_outcome,accuracy,phase,responses,num_errors,context,reward_prob_L,reward_prob_R,arcade_id_L,arcade_id_R,trial,block,response
pavlovia,0,3,0.0-0.0,voc_e2,12135,[],NA,NA,NA,NA,NA,NA,NA,NA,NA,NA,NA,NA,NA,NA,NA,NA,NA,NA,NA,NA,NA,NA,NA,NA,NA,NA,NA,NA,NA,NA
fullscreen,1,6249,0.0-1.0,voc_e2,12135,"[{""event"":""fullscreenenter"",""trial"":1,""time"":5274}]",TRUE,NA,NA,NA,NA,NA,NA,NA,NA,NA,NA,NA,NA,NA,NA,NA,NA,NA,NA,NA,NA,NA,NA,NA,NA,NA,NA,NA,NA,NA
audio-keyboard-response,2,9027,0.0-2.0,voc_e2,12135,"[{""event"":""fullscreenenter"",""trial"":1,""time"":5274}]",NA,2773,static/audio/beep_loop.wav,32,NA,NA,NA,NA,NA,NA,NA,NA,NA,NA,NA,NA,NA,NA,NA,NA,NA,NA,NA,NA,NA,NA,NA,NA,NA,NA
audio-test,3,10726,0.0-3.0,voc_e2,12135,"[{""event"":""fullscreenenter"",""trial"":1,""time"":5274}]",NA,NA,static/audio/turtle.wav,NA,3,NA,NA,NA,NA,NA,NA,NA,NA,NA,NA,NA,NA,NA,NA,NA,NA,NA,NA,NA,NA,NA,NA,NA,NA,NA
audio-test,4,14219,0.0-4.0,voc_e2,12135,"[{""event"":""fullscreenenter"",""trial"":1,""time"":5274}]",NA,NA,static/audio/shark.wav,NA,2,NA,NA,NA,NA,NA,NA,NA,NA,NA,NA,NA,NA,NA,NA,NA,NA,NA,NA,NA,NA,NA,NA,NA,NA,NA
audio-instructions,5,21020,0.0-5.0-0.0,voc_e2,12135,"[{""event"":""fullscreenenter"",""trial"":1,""time"":5274}]",NA,1021.6999999880792,static/audio/instructions1.wav,NA,0,NA,NA,NA,NA,NA,NA,NA,NA,NA,NA,NA,NA,NA,NA,NA,NA,NA,NA,NA,NA,NA,NA,NA,NA,NA
audio-instructions,6,29648,0.0-5.0-1.0,voc_e2,12135,"[{""event"":""fullscreenenter"",""trial"":1,""time"":5274}]",NA,1885.199999988079,static/audio/instructions2.wav,NA,0,NA,NA,NA,NA,NA,NA,NA,NA,NA,NA,NA,NA,NA,NA,NA,NA,NA,NA,NA,NA,NA,NA,NA,NA,NA
audio-instructions,7,36074,0.0-5.0-2.0,voc_e2,12135,"[{""event"":""fullscreenenter"",""trial"":1,""time"":5274}]",NA,625.6000000238419,static/audio/instructions3.wav,NA,0,NA,NA,NA,NA,NA,NA,NA,NA,NA,NA,NA,NA,NA,NA,NA,NA,NA,NA,NA,NA,NA,NA,NA,NA,NA
audio-instructions,8,50024,0.0-5.0-3.0,voc_e2,12135,"[{""event"":""fullscreenenter"",""trial"":1,""time"":5274}]",NA,725.9000000357628,static/audio/instructions4.wav,NA,0,NA,NA,NA,NA,NA,NA,NA,NA,NA,NA,NA,NA,NA,NA,NA,NA,NA,NA,NA,NA,NA,NA,NA,NA,NA
audio-instructions,9,60268,0.0-5.0-4.0,voc_e2,12135,"[{""event"":""fullscreenenter"",""trial"":1,""time"":5274}]",NA,858.1000000238419,static/audio/instructions5.wav,NA,0,NA,NA,NA,NA,NA,NA,NA,NA,NA,NA,NA,NA,NA,NA,NA,NA,NA,NA,NA,NA,NA,NA,NA,NA,NA
fcp-practice,10,64268,0.0-5.0-5.0-0.0,voc_e2,12135,"[{""event"":""fullscreenenter"",""trial"":1,""time"":5274}]",NA,NA,NA,NA,NA,NA,#EDC948,#46d3c8,10,0,1,null,null,null,37,1,2488.2000000476837,10,1,practice,NA,NA,NA,NA,NA,NA,NA,NA,NA,NA
fcp-practice,11,67005,0.0-5.0-5.0-1.0,voc_e2,12135,"[{""event"":""fullscreenenter"",""trial"":1,""time"":5274}]",NA,NA,NA,NA,NA,NA,#EDC948,#46d3c8,10,0,1,null,null,null,37,1,1231.0999999642372,10,1,practice,NA,NA,NA,NA,NA,NA,NA,NA,NA,NA
fcp-practice,12,68984,0.0-5.0-5.0-2.0,voc_e2,12135,"[{""event"":""fullscreenenter"",""trial"":1,""time"":5274}]",NA,NA,NA,NA,NA,NA,#EDC948,#46d3c8,0,10,1,null,null,null,37,1,472.5999999642372,0,1,practice,NA,NA,NA,NA,NA,NA,NA,NA,NA,NA
fcp-practice,13,70951,0.0-5.0-5.0-3.0,voc_e2,12135,"[{""event"":""fullscreenenter"",""trial"":1,""time"":5274}]",NA,NA,NA,NA,NA,NA,#EDC948,#46d3c8,10,0,1,null,null,null,37,1,461.699999988079,10,1,practice,NA,NA,NA,NA,NA,NA,NA,NA,NA,NA
fcp-practice,14,72766,0.0-5.0-5.0-4.0,voc_e2,12135,"[{""event"":""fullscreenenter"",""trial"":1,""time"":5274}]",NA,NA,NA,NA,NA,NA,#EDC948,#46d3c8,10,0,1,null,null,null,37,1,309.5,10,1,practice,NA,NA,NA,NA,NA,NA,NA,NA,NA,NA
audio-instructions,15,93406,0.0-5.0-6.0,voc_e2,12135,"[{""event"":""fullscreenenter"",""trial"":1,""time"":5274}]",NA,2637.900000035763,static/audio/instructions6.wav,NA,0,NA,NA,NA,NA,NA,NA,NA,NA,NA,NA,NA,NA,NA,NA,NA,NA,NA,NA,NA,NA,NA,NA,NA,NA,NA
audio-instructions,16,113518,0.0-5.0-7.0,voc_e2,12135,"[{""event"":""fullscreenenter"",""trial"":1,""time"":5274}]",NA,910.5,static/audio/instructions7.wav,NA,0,NA,NA,NA,NA,NA,NA,NA,NA,NA,NA,NA,NA,NA,NA,NA,NA,NA,NA,NA,NA,NA,NA,NA,NA,NA
audio-instructions,17,123475,0.0-5.0-8.0,voc_e2,12135,"[{""event"":""fullscreenenter"",""trial"":1,""time"":5274}]",NA,484.10000002384186,static/audio/instructions8.wav,NA,0,NA,NA,NA,NA,NA,NA,NA,NA,NA,NA,NA,NA,NA,NA,NA,NA,NA,NA,NA,NA,NA,NA,NA,NA,NA
fcp-comprehension,18,136040,0.0-5.0-9.0,voc_e2,12135,"[{""event"":""fullscreenenter"",""trial"":1,""time"":5274}]",NA,12562.5,NA,NA,NA,NA,NA,NA,NA,NA,NA,NA,NA,NA,NA,NA,NA,NA,NA,NA,"false,true",1,NA,NA,NA,NA,NA,NA,NA,NA
audio-instructions,19,141354,0.0-5.1-0.1,voc_e2,12135,"[{""event"":""fullscreenenter"",""trial"":1,""time"":5274}]",NA,533.6000000238419,static/audio/instructions1.wav,NA,0,NA,NA,NA,NA,NA,NA,NA,NA,NA,NA,NA,NA,NA,NA,NA,NA,NA,NA,NA,NA,NA,NA,NA,NA,NA
audio-instructions,20,149570,0.0-5.1-1.1,voc_e2,12135,"[{""event"":""fullscreenenter"",""trial"":1,""time"":5274}]",NA,1476,static/audio/instructions2.wav,NA,0,NA,NA,NA,NA,NA,NA,NA,NA,NA,NA,NA,NA,NA,NA,NA,NA,NA,NA,NA,NA,NA,NA,NA,NA,NA
audio-instructions,21,156279,0.0-5.1-2.1,voc_e2,12135,"[{""event"":""fullscreenenter"",""trial"":1,""time"":5274}]",NA,904.5,static/audio/instructions3.wav,NA,0,NA,NA,NA,NA,NA,NA,NA,NA,NA,NA,NA,NA,NA,NA,NA,NA,NA,NA,NA,NA,NA,NA,NA,NA,NA
audio-instructions,22,170203,0.0-5.1-3.1,voc_e2,12135,"[{""event"":""fullscreenenter"",""trial"":1,""time"":5274}]",NA,696.8000000119209,static/audio/instructions4.wav,NA,0,NA,NA,NA,NA,NA,NA,NA,NA,NA,NA,NA,NA,NA,NA,NA,NA,NA,NA,NA,NA,NA,NA,NA,NA,NA
audio-instructions,23,180057,0.0-5.1-4.1,voc_e2,12135,"[{""event"":""fullscreenenter"",""trial"":1,""time"":5274}]",NA,465.300000011921,static/audio/instructions5.wav,NA,0,NA,NA,NA,NA,NA,NA,NA,NA,NA,NA,NA,NA,NA,NA,NA,NA,NA,NA,NA,NA,NA,NA,NA,NA,NA
fcp-practice,24,182377,0.0-5.1-5.1-0.1,voc_e2,12135,"[{""event"":""fullscreenenter"",""trial"":1,""time"":5274}]",NA,NA,NA,NA,NA,NA,#EDC948,#46d3c8,10,0,1,null,null,null,37,1,814.5,10,1,practice,NA,NA,NA,NA,NA,NA,NA,NA,NA,NA
fcp-practice,25,184176,0.0-5.1-5.1-1.1,voc_e2,12135,"[{""event"":""fullscreenenter"",""trial"":1,""time"":5274}]",NA,NA,NA,NA,NA,NA,#EDC948,#46d3c8,10,0,1,null,null,null,37,1,294.30000001192093,10,1,practice,NA,NA,NA,NA,NA,NA,NA,NA,NA,NA
fcp-practice,26,185958,0.0-5.1-5.1-2.1,voc_e2,12135,"[{""event"":""fullscreenenter"",""trial"":1,""time"":5274}]",NA,NA,NA,NA,NA,NA,#EDC948,#46d3c8,0,10,1,null,null,null,37,1,277.19999998807907,0,1,practice,NA,NA,NA,NA,NA,NA,NA,NA,NA,NA
fcp-practice,27,187693,0.0-5.1-5.1-3.1,voc_e2,12135,"[{""event"":""fullscreenenter"",""trial"":1,""time"":5274}]",NA,NA,NA,NA,NA,NA,#EDC948,#46d3c8,10,0,1,null,null,null,37,1,230.39999997615817,10,1,practice,NA,NA,NA,NA,NA,NA,NA,NA,NA,NA
fcp-practice,28,189445,0.0-5.1-5.1-4.1,voc_e2,12135,"[{""event"":""fullscreenenter"",""trial"":1,""time"":5274}]",NA,NA,NA,NA,NA,NA,#EDC948,#46d3c8,10,0,1,null,null,null,37,1,248.0999999642372,10,1,practice,NA,NA,NA,NA,NA,NA,NA,NA,NA,NA
audio-instructions,29,209591,0.0-5.1-6.1,voc_e2,12135,"[{""event"":""fullscreenenter"",""trial"":1,""time"":5274}]",NA,2138.800000011921,static/audio/instructions6.wav,NA,0,NA,NA,NA,NA,NA,NA,NA,NA,NA,NA,NA,NA,NA,NA,NA,NA,NA,NA,NA,NA,NA,NA,NA,NA,NA
audio-instructions,30,230054,0.0-5.1-7.1,voc_e2,12135,"[{""event"":""fullscreenenter"",""trial"":1,""time"":5274}]",NA,1264.5,static/audio/instructions7.wav,NA,0,NA,NA,NA,NA,NA,NA,NA,NA,NA,NA,NA,NA,NA,NA,NA,NA,NA,NA,NA,NA,NA,NA,NA,NA,NA
audio-instructions,31,240691,0.0-5.1-8.1,voc_e2,12135,"[{""event"":""fullscreenenter"",""trial"":1,""time"":5274}]",NA,1165.300000011921,static/audio/instructions8.wav,NA,0,NA,NA,NA,NA,NA,NA,NA,NA,NA,NA,NA,NA,NA,NA,NA,NA,NA,NA,NA,NA,NA,NA,NA,NA,NA
fcp-comprehension,32,254942,0.0-5.1-9.1,voc_e2,12135,"[{""event"":""fullscreenenter"",""trial"":1,""time"":5274}]",NA,14249.80000001192,NA,NA,NA,NA,NA,NA,NA,NA,NA,NA,NA,NA,NA,NA,NA,NA,NA,NA,"true,true",0,NA,NA,NA,NA,NA,NA,NA,NA
audio-instructions,33,261859,0.0-6.0-0.0,voc_e2,12135,"[{""event"":""fullscreenenter"",""trial"":1,""time"":5274}]",NA,1369.5,static/audio/instructions9.wav,NA,0,NA,NA,NA,NA,NA,NA,NA,NA,NA,NA,NA,NA,NA,NA,NA,NA,NA,NA,NA,NA,NA,NA,NA,NA,NA
audio-instructions,34,275023,0.0-6.0-1.0,voc_e2,12135,"[{""event"":""fullscreenenter"",""trial"":1,""time"":5274}]",NA,1045.5,static/audio/instructions10.wav,NA,0,NA,NA,NA,NA,NA,NA,NA,NA,NA,NA,NA,NA,NA,NA,NA,NA,NA,NA,NA,NA,NA,NA,NA,NA,NA
fcp-trial,35,281185,0.0-6.0-2.0,voc_e2,12135,"[{""event"":""fullscreenenter"",""trial"":1,""time"":5274}]",NA,NA,NA,NA,NA,0,#EDC948,#46d3c8,10,10,1,38,1,3022.199999988079,37,1,1628.199999988079,10,1,practice,NA,NA,NA,NA,NA,NA,NA,NA,NA,NA
audio-instructions,36,292808,0.0-6.0-3.0,voc_e2,12135,"[{""event"":""fullscreenenter"",""trial"":1,""time"":5274}]",NA,613,static/audio/instructions11.wav,NA,0,NA,NA,NA,NA,NA,NA,NA,NA,NA,NA,NA,NA,NA,NA,NA,NA,NA,NA,NA,NA,NA,NA,NA,NA,NA
fcp-trial,37,296472,0.0-6.0-4.0,voc_e2,12135,"[{""event"":""fullscreenenter"",""trial"":1,""time"":5274}]",NA,NA,NA,NA,NA,6,#EDC948,#46d3c8,10,10,1,40,0,1245.199999988079,37,1,912.600000023842,10,1,practice,NA,NA,NA,NA,NA,NA,NA,NA,NA,NA
audio-instructions,38,317824,0.0-6.0-5.0,voc_e2,12135,"[{""event"":""fullscreenenter"",""trial"":1,""time"":5274}]",NA,2665,static/audio/instructions12.wav,NA,0,NA,NA,NA,NA,NA,NA,NA,NA,NA,NA,NA,NA,NA,NA,NA,NA,NA,NA,NA,NA,NA,NA,NA,NA,NA
audio-instructions,39,326019,0.0-6.0-6.0,voc_e2,12135,"[{""event"":""fullscreenenter"",""trial"":1,""time"":5274}]",NA,598.5,static/audio/instructions13.wav,NA,0,NA,NA,NA,NA,NA,NA,NA,NA,NA,NA,NA,NA,NA,NA,NA,NA,NA,NA,NA,NA,NA,NA,NA,NA,NA
audio-instructions,40,334894,0.0-6.0-7.0,voc_e2,12135,"[{""event"":""fullscreenenter"",""trial"":1,""time"":5274}]",NA,429.199999988079,static/audio/instructions14.wav,NA,0,NA,NA,NA,NA,NA,NA,NA,NA,NA,NA,NA,NA,NA,NA,NA,NA,NA,NA,NA,NA,NA,NA,NA,NA,NA
audio-instructions,41,344731,0.0-7.0-0.0,voc_e2,12135,"[{""event"":""fullscreenenter"",""trial"":1,""time"":5274}]",NA,2927,static/audio/instructions15.wav,NA,0,NA,NA,NA,NA,NA,NA,NA,NA,NA,NA,NA,NA,NA,NA,NA,NA,NA,NA,NA,NA,NA,NA,NA,NA,NA
audio-instructions,42,352230,0.0-7.0-1.0,voc_e2,12135,"[{""event"":""fullscreenenter"",""trial"":1,""time"":5274}]",NA,672.3000000119209,static/audio/instructions16.wav,NA,0,NA,NA,NA,NA,NA,NA,NA,NA,NA,NA,NA,NA,NA,NA,NA,NA,NA,NA,NA,NA,NA,NA,NA,NA,NA
audio-instructions,43,360342,0.0-7.0-2.0,voc_e2,12135,"[{""event"":""fullscreenenter"",""trial"":1,""time"":5274}]",NA,432.699999988079,static/audio/instructions17.wav,NA,0,NA,NA,NA,NA,NA,NA,NA,NA,NA,NA,NA,NA,NA,NA,NA,NA,NA,NA,NA,NA,NA,NA,NA,NA,NA
audio-instructions,44,368571,0.0-7.0-3.0,voc_e2,12135,"[{""event"":""fullscreenenter"",""trial"":1,""time"":5274}]",NA,464.4000000357628,static/audio/instructions18.wav,NA,0,NA,NA,NA,NA,NA,NA,NA,NA,NA,NA,NA,NA,NA,NA,NA,NA,NA,NA,NA,NA,NA,NA,NA,NA,NA
audio-instructions,45,375803,0.0-7.0-4.0,voc_e2,12135,"[{""event"":""fullscreenenter"",""trial"":1,""time"":5274}]",NA,491.5,static/audio/instructions19.wav,NA,0,NA,NA,NA,NA,NA,NA,NA,NA,NA,NA,NA,NA,NA,NA,NA,NA,NA,NA,NA,NA,NA,NA,NA,NA,NA
fcp-comprehension,46,386230,0.0-7.0-5.0,voc_e2,12135,"[{""event"":""fullscreenenter"",""trial"":1,""time"":5274}]",NA,10424.80000001192,NA,NA,NA,NA,NA,NA,NA,NA,NA,NA,NA,NA,NA,NA,NA,NA,NA,NA,"false,false,false,true",0,NA,NA,NA,NA,NA,NA,NA,NA
audio-instructions,47,396599,0.0-8.0,voc_e2,12135,"[{""event"":""fullscreenenter"",""trial"":1,""time"":5274}]",NA,1154.7999999523165,static/audio/ready.wav,NA,0,NA,NA,NA,NA,NA,NA,NA,NA,NA,NA,NA,NA,NA,NA,NA,NA,NA,NA,NA,NA,NA,NA,NA,NA,NA
fcp-trial,48,403381,0.0-9.0-0.0,voc_e2,12135,"[{""event"":""fullscreenenter"",""trial"":1,""time"":5274}]",NA,NA,NA,NA,NA,2,#D8271C,#741CD8,0,10,0,40,0,3800.400000035763,39,0,1474.800000011921,10,1,experiment,NA,NA,1,0.3,0.7,3,2,1,1,NA
fcp-trial,49,409441,0.0-10.0-0.0,voc_e2,12135,"[{""event"":""fullscreenenter"",""trial"":1,""time"":5274}]",NA,NA,NA,NA,NA,5,#D89F1C,#3386FF,10,0,1,40,0,3424.300000011921,37,1,1126.9000000357628,10,1,experiment,NA,NA,0,0.9,0.1,0,1,2,1,NA
fcp-trial,50,415988,0.0-11.0-0.0,voc_e2,12135,"[{""event"":""fullscreenenter"",""trial"":1,""time"":5274}]",NA,NA,NA,NA,NA,3,#741CD8,#D8271C,10,0,1,40,0,3682,37,1,1357.300000011921,10,1,experiment,NA,NA,1,0.7,0.3,2,3,3,1,NA
fcp-trial,51,420975,0.0-12.0-0.0,voc_e2,12135,"[{""event"":""fullscreenenter"",""trial"":1,""time"":5274}]",NA,NA,NA,NA,NA,3,#3386FF,#D89F1C,0,10,0,40,0,2142.600000023842,37,1,1337.800000011921,0,0,experiment,NA,NA,0,0.1,0.9,1,0,4,1,NA
fcp-trial,52,424668,0.0-13.0-0.0,voc_e2,12135,"[{""event"":""fullscreenenter"",""trial"":1,""time"":5274}]",NA,NA,NA,NA,NA,4,#D8271C,#741CD8,0,0,0,40,0,988.9000000357628,37,1,1196.800000011921,0,0,experiment,NA,NA,1,0.3,0.7,3,2,5,1,NA
fcp-trial,53,428088,0.0-14.0-0.0,voc_e2,12135,"[{""event"":""fullscreenenter"",""trial"":1,""time"":5274}]",NA,NA,NA,NA,NA,1,#1CD855,#FA92F8,0,10,0,40,0,827.8000000119209,39,0,1084.9000000357628,10,1,experiment,NA,NA,2,0.5,0.5,5,4,6,1,NA
fcp-trial,54,432304,0.0-15.0-0.0,voc_e2,12135,"[{""event"":""fullscreenenter"",""trial"":1,""time"":5274}]",NA,NA,NA,NA,NA,4,#1CD855,#FA92F8,0,0,0,38,1,2026,39,0,684.5,0,1,experiment,NA,NA,2,0.5,0.5,5,4,7,1,NA
fcp-trial,55,436273,0.0-16.0-0.0,voc_e2,12135,"[{""event"":""fullscreenenter"",""trial"":1,""time"":5274}]",NA,NA,NA,NA,NA,4,#D89F1C,#3386FF,10,0,1,38,1,1525.800000011921,37,1,936.1999999880792,10,1,experiment,NA,NA,0,0.9,0.1,0,1,8,1,NA
fcp-trial,56,439944,0.0-17.0-0.0,voc_e2,12135,"[{""event"":""fullscreenenter"",""trial"":1,""time"":5274}]",NA,NA,NA,NA,NA,0,#D8271C,#741CD8,10,0,0,38,1,897.1999999880791,39,0,1265.699999988079,0,1,experiment,NA,NA,1,0.3,0.7,3,2,9,1,NA
fcp-trial,57,443370,0.0-18.0-0.0,voc_e2,12135,"[{""event"":""fullscreenenter"",""trial"":1,""time"":5274}]",NA,NA,NA,NA,NA,2,#3386FF,#D89F1C,0,10,0,38,1,1058.699999988079,39,0,858.4000000357628,10,1,experiment,NA,NA,0,0.1,0.9,1,0,10,1,NA
fcp-trial,58,446939,0.0-19.0-0.0,voc_e2,12135,"[{""event"":""fullscreenenter"",""trial"":1,""time"":5274}]",NA,NA,NA,NA,NA,3,#1CD855,#FA92F8,0,10,0,38,1,1024.5,39,0,1037.699999988079,10,1,experiment,NA,NA,2,0.5,0.5,5,4,11,1,NA
fcp-trial,59,450321,0.0-20.0-0.0,voc_e2,12135,"[{""event"":""fullscreenenter"",""trial"":1,""time"":5274}]",NA,NA,NA,NA,NA,6,#D89F1C,#3386FF,10,0,1,38,1,1190.7000000476837,37,1,683.1999999880791,10,1,experiment,NA,NA,0,0.9,0.1,0,1,12,1,NA
fcp-trial,60,455454,0.0-21.0-0.0,voc_e2,12135,"[{""event"":""fullscreenenter"",""trial"":1,""time"":5274}]",NA,NA,NA,NA,NA,5,#D8271C,#741CD8,0,10,0,38,1,2799.5,39,0,825.7000000476837,10,1,experiment,NA,NA,1,0.3,0.7,3,2,13,1,NA
fcp-trial,61,458531,0.0-22.0-0.0,voc_e2,12135,"[{""event"":""fullscreenenter"",""trial"":1,""time"":5274}]",NA,NA,NA,NA,NA,1,#D8271C,#741CD8,0,0,0,38,1,995.3999999761581,39,0,574.3999999761581,0,1,experiment,NA,NA,1,0.3,0.7,3,2,14,1,NA
fcp-trial,62,461767,0.0-23.0-0.0,voc_e2,12135,"[{""event"":""fullscreenenter"",""trial"":1,""time"":5274}]",NA,NA,NA,NA,NA,2,#1CD855,#FA92F8,10,0,0,38,1,1186.6000000238419,39,0,543.5999999642372,0,1,experiment,NA,NA,2,0.5,0.5,5,4,15,1,NA
fcp-trial,63,464692,0.0-24.0-0.0,voc_e2,12135,"[{""event"":""fullscreenenter"",""trial"":1,""time"":5274}]",NA,NA,NA,NA,NA,0,#3386FF,#D89F1C,0,10,0,38,1,947.4000000357628,39,0,471.699999988079,10,1,experiment,NA,NA,0,0.1,0.9,1,0,16,1,NA
fcp-trial,64,467404,0.0-25.0-0.0,voc_e2,12135,"[{""event"":""fullscreenenter"",""trial"":1,""time"":5274}]",NA,NA,NA,NA,NA,6,#741CD8,#D8271C,10,10,1,38,1,770.3000000119209,37,1,432.89999997615814,10,1,experiment,NA,NA,1,0.7,0.3,2,3,17,1,NA
fcp-trial,65,470106,0.0-26.0-0.0,voc_e2,12135,"[{""event"":""fullscreenenter"",""trial"":1,""time"":5274}]",NA,NA,NA,NA,NA,1,#D89F1C,#3386FF,10,0,1,38,1,663.6000000238419,37,1,531.3000000119209,10,1,experiment,NA,NA,0,0.9,0.1,0,1,18,1,NA
fcp-trial,66,472938,0.0-27.0-0.0,voc_e2,12135,"[{""event"":""fullscreenenter"",""trial"":1,""time"":5274}]",NA,NA,NA,NA,NA,0,#FA92F8,#1CD855,0,10,1,38,1,641.3000000119209,37,1,682.8000000119209,0,1,experiment,NA,NA,2,0.5,0.5,4,5,19,1,NA
fcp-trial,67,475472,0.0-28.0-0.0,voc_e2,12135,"[{""event"":""fullscreenenter"",""trial"":1,""time"":5274}]",NA,NA,NA,NA,NA,5,#1CD855,#FA92F8,10,10,0,38,1,541.7999999523163,39,0,483.699999988079,10,1,experiment,NA,NA,2,0.5,0.5,5,4,20,1,NA
fcp-trial,68,478060,0.0-29.0-0.0,voc_e2,12135,"[{""event"":""fullscreenenter"",""trial"":1,""time"":5274}]",NA,NA,NA,NA,NA,6,#FA92F8,#1CD855,10,10,1,38,1,540.6999999880791,37,1,538.6000000238419,10,1,experiment,NA,NA,2,0.5,0.5,4,5,21,1,NA
fcp-trial,69,480714,0.0-30.0-0.0,voc_e2,12135,"[{""event"":""fullscreenenter"",""trial"":1,""time"":5274}]",NA,NA,NA,NA,NA,2,#D89F1C,#3386FF,10,0,1,38,1,434.5,37,1,710.6999999880791,10,1,experiment,NA,NA,0,0.9,0.1,0,1,22,1,NA
fcp-trial,70,484501,0.0-31.0-0.0,voc_e2,12135,"[{""event"":""fullscreenenter"",""trial"":1,""time"":5274}]",NA,NA,NA,NA,NA,1,#D8271C,#741CD8,0,0,0,38,1,663.1999999880791,39,0,1616.399999976158,0,1,experiment,NA,NA,1,0.3,0.7,3,2,23,1,NA
fcp-trial,71,487721,0.0-32.0-0.0,voc_e2,12135,"[{""event"":""fullscreenenter"",""trial"":1,""time"":5274}]",NA,NA,NA,NA,NA,1,#3386FF,#D89F1C,0,10,0,38,1,412.80000001192093,39,0,1300.899999976158,10,1,experiment,NA,NA,0,0.1,0.9,1,0,24,1,NA
fcp-trial,72,491653,0.0-33.0-0.0,voc_e2,12135,"[{""event"":""fullscreenenter"",""trial"":1,""time"":5274}]",NA,NA,NA,NA,NA,0,#D8271C,#741CD8,0,10,0,40,0,973.6000000238419,39,0,1450.5,10,1,experiment,NA,NA,1,0.3,0.7,3,2,25,1,NA
fcp-trial,73,496212,0.0-34.0-0.0,voc_e2,12135,"[{""event"":""fullscreenenter"",""trial"":1,""time"":5274}]",NA,NA,NA,NA,NA,4,#D8271C,#741CD8,0,10,0,40,0,2559.699999988079,39,0,491.4000000357628,10,1,experiment,NA,NA,1,0.3,0.7,3,2,26,1,NA
fcp-trial,74,499607,0.0-35.0-0.0,voc_e2,12135,"[{""event"":""fullscreenenter"",""trial"":1,""time"":5274}]",NA,NA,NA,NA,NA,5,#D8271C,#741CD8,0,0,0,38,1,1418.4000000357628,39,0,468.10000002384186,0,1,experiment,NA,NA,1,0.3,0.7,3,2,27,1,NA
fcp-trial,75,502885,0.0-36.0-0.0,voc_e2,12135,"[{""event"":""fullscreenenter"",""trial"":1,""time"":5274}]",NA,NA,NA,NA,NA,5,#1CD855,#FA92F8,0,0,0,38,1,955,39,0,814.7000000476837,0,1,experiment,NA,NA,2,0.5,0.5,5,4,28,1,NA
fcp-trial,76,505555,0.0-37.0-0.0,voc_e2,12135,"[{""event"":""fullscreenenter"",""trial"":1,""time"":5274}]",NA,NA,NA,NA,NA,3,#D89F1C,#3386FF,10,0,1,38,1,729.5,37,1,433.10000002384186,10,1,experiment,NA,NA,0,0.9,0.1,0,1,29,1,NA
fcp-trial,77,508071,0.0-38.0-0.0,voc_e2,12135,"[{""event"":""fullscreenenter"",""trial"":1,""time"":5274}]",NA,NA,NA,NA,NA,0,#3386FF,#D89F1C,0,10,0,38,1,607.6999999880791,39,0,399.5,10,1,experiment,NA,NA,0,0.1,0.9,1,0,30,1,NA
fcp-trial,78,510636,0.0-39.0-0.0,voc_e2,12135,"[{""event"":""fullscreenenter"",""trial"":1,""time"":5274}]",NA,NA,NA,NA,NA,5,#3386FF,#D89F1C,0,10,0,38,1,555.3000000119209,39,0,501.10000002384186,10,1,experiment,NA,NA,0,0.1,0.9,1,0,31,1,NA
fcp-trial,79,513384,0.0-40.0-0.0,voc_e2,12135,"[{""event"":""fullscreenenter"",""trial"":1,""time"":5274}]",NA,NA,NA,NA,NA,3,#D8271C,#741CD8,10,0,0,38,1,543.6000000238419,39,0,697.8000000119209,0,1,experiment,NA,NA,1,0.3,0.7,3,2,32,1,NA
fcp-trial,80,515776,0.0-41.0-0.0,voc_e2,12135,"[{""event"":""fullscreenenter"",""trial"":1,""time"":5274}]",NA,NA,NA,NA,NA,3,#1CD855,#FA92F8,0,0,0,38,1,479.2000000476837,39,0,405.800000011921,0,1,experiment,NA,NA,2,0.5,0.5,5,4,33,1,NA
fcp-trial,81,518125,0.0-42.0-0.0,voc_e2,12135,"[{""event"":""fullscreenenter"",""trial"":1,""time"":5274}]",NA,NA,NA,NA,NA,6,#1CD855,#FA92F8,0,10,0,38,1,518.4000000357628,39,0,320.60000002384186,10,1,experiment,NA,NA,2,0.5,0.5,5,4,34,1,NA
fcp-trial,82,520421,0.0-43.0-0.0,voc_e2,12135,"[{""event"":""fullscreenenter"",""trial"":1,""time"":5274}]",NA,NA,NA,NA,NA,6,#D89F1C,#3386FF,10,0,1,38,1,501.89999997615814,37,1,284.39999997615814,10,1,experiment,NA,NA,0,0.9,0.1,0,1,35,1,NA
fcp-trial,83,523146,0.0-44.0-0.0,voc_e2,12135,"[{""event"":""fullscreenenter"",""trial"":1,""time"":5274}]",NA,NA,NA,NA,NA,6,#741CD8,#D8271C,10,0,1,38,1,506.69999998807907,37,1,710.5,10,1,experiment,NA,NA,1,0.7,0.3,2,3,36,1,NA
fcp-trial,84,525566,0.0-45.0-0.0,voc_e2,12135,"[{""event"":""fullscreenenter"",""trial"":1,""time"":5274}]",NA,NA,NA,NA,NA,1,#1CD855,#FA92F8,0,0,0,38,1,432.5,39,0,481.5999999642372,0,1,experiment,NA,NA,2,0.5,0.5,5,4,37,1,NA
fcp-trial,85,527982,0.0-46.0-0.0,voc_e2,12135,"[{""event"":""fullscreenenter"",""trial"":1,""time"":5274}]",NA,NA,NA,NA,NA,4,#D89F1C,#3386FF,10,0,1,38,1,404.80000001192093,37,1,505.10000002384186,10,1,experiment,NA,NA,0,0.9,0.1,0,1,38,1,NA
fcp-trial,86,531277,0.0-47.0-0.0,voc_e2,12135,"[{""event"":""fullscreenenter"",""trial"":1,""time"":5274}]",NA,NA,NA,NA,NA,2,#1CD855,#FA92F8,0,0,0,40,0,1330.300000011921,39,0,458.7999999523163,0,1,experiment,NA,NA,2,0.5,0.5,5,4,39,1,NA
fcp-trial,87,534620,0.0-48.0-0.0,voc_e2,12135,"[{""event"":""fullscreenenter"",""trial"":1,""time"":5274}]",NA,NA,NA,NA,NA,4,#1CD855,#FA92F8,0,10,0,40,0,1127.300000011921,39,0,708.6000000238419,10,1,experiment,NA,NA,2,0.5,0.5,5,4,40,1,NA
fcp-trial,88,538012,0.0-49.0-0.0,voc_e2,12135,"[{""event"":""fullscreenenter"",""trial"":1,""time"":5274}]",NA,NA,NA,NA,NA,2,#741CD8,#D8271C,0,0,1,38,1,1179.800000011921,37,1,704,0,1,experiment,NA,NA,1,0.7,0.3,2,3,41,1,NA
fcp-trial,89,541537,0.0-50.0-0.0,voc_e2,12135,"[{""event"":""fullscreenenter"",""trial"":1,""time"":5274}]",NA,NA,NA,NA,NA,0,#FA92F8,#1CD855,0,10,1,40,0,1532.5999999642372,39,0,484.10000002384186,10,0,experiment,NA,NA,2,0.5,0.5,4,5,42,1,NA
fcp-trial,90,544818,0.0-51.0-0.0,voc_e2,12135,"[{""event"":""fullscreenenter"",""trial"":1,""time"":5274}]",NA,NA,NA,NA,NA,1,#3386FF,#D89F1C,0,10,0,38,1,1205.8999999761581,39,0,567.8000000119209,10,1,experiment,NA,NA,0,0.1,0.9,1,0,43,1,NA
fcp-trial,91,547735,0.0-52.0-0.0,voc_e2,12135,"[{""event"":""fullscreenenter"",""trial"":1,""time"":5274}]",NA,NA,NA,NA,NA,6,#D8271C,#741CD8,0,10,0,38,1,1012.2999999523163,39,0,398.60000002384186,10,1,experiment,NA,NA,1,0.3,0.7,3,2,44,1,NA
fcp-trial,92,551289,0.0-53.0-0.0,voc_e2,12135,"[{""event"":""fullscreenenter"",""trial"":1,""time"":5274}]",NA,NA,NA,NA,NA,3,#1CD855,#FA92F8,10,0,0,40,0,1499.5999999642372,37,1,546.8999999761581,10,0,experiment,NA,NA,2,0.5,0.5,5,4,45,1,NA
fcp-trial,93,554566,0.0-54.0-0.0,voc_e2,12135,"[{""event"":""fullscreenenter"",""trial"":1,""time"":5274}]",NA,NA,NA,NA,NA,4,#D89F1C,#3386FF,10,0,1,38,1,1035.4000000357628,37,1,732,10,1,experiment,NA,NA,0,0.9,0.1,0,1,46,2,NA
fcp-trial,94,557634,0.0-55.0-0.0,voc_e2,12135,"[{""event"":""fullscreenenter"",""trial"":1,""time"":5274}]",NA,NA,NA,NA,NA,4,#1CD855,#FA92F8,0,0,0,38,1,1127.2000000476837,37,1,435,0,0,experiment,NA,NA,2,0.5,0.5,5,4,47,2,NA
fcp-trial,95,560380,0.0-56.0-0.0,voc_e2,12135,"[{""event"":""fullscreenenter"",""trial"":1,""time"":5274}]",NA,NA,NA,NA,NA,0,#3386FF,#D89F1C,0,10,0,38,1,713.9000000357628,39,0,526.7000000476837,10,1,experiment,NA,NA,0,0.1,0.9,1,0,48,2,NA
fcp-trial,96,563020,0.0-57.0-0.0,voc_e2,12135,"[{""event"":""fullscreenenter"",""trial"":1,""time"":5274}]",NA,NA,NA,NA,NA,5,#D8271C,#741CD8,0,10,0,38,1,599.8999999761581,39,0,534.5,10,1,experiment,NA,NA,1,0.3,0.7,3,2,49,2,NA
fcp-trial,97,566050,0.0-58.0-0.0,voc_e2,12135,"[{""event"":""fullscreenenter"",""trial"":1,""time"":5274}]",NA,NA,NA,NA,NA,1,#FA92F8,#1CD855,0,10,1,38,1,989.1000000238419,39,0,533,10,0,experiment,NA,NA,2,0.5,0.5,4,5,50,2,NA
fcp-trial,98,568963,0.0-59.0-0.0,voc_e2,12135,"[{""event"":""fullscreenenter"",""trial"":1,""time"":5274}]",NA,NA,NA,NA,NA,2,#1CD855,#FA92F8,0,10,0,38,1,874.3000000119209,37,1,533.3000000119209,0,0,experiment,NA,NA,2,0.5,0.5,5,4,51,2,NA
fcp-trial,99,571600,0.0-60.0-0.0,voc_e2,12135,"[{""event"":""fullscreenenter"",""trial"":1,""time"":5274}]",NA,NA,NA,NA,NA,5,#3386FF,#D89F1C,0,10,0,38,1,593.1999999880791,39,0,537,10,1,experiment,NA,NA,0,0.1,0.9,1,0,52,2,NA
fcp-trial,100,574346,0.0-61.0-0.0,voc_e2,12135,"[{""event"":""fullscreenenter"",""trial"":1,""time"":5274}]",NA,NA,NA,NA,NA,5,#1CD855,#FA92F8,0,10,0,38,1,487.4000000357628,37,1,752.0999999642372,0,0,experiment,NA,NA,2,0.5,0.5,5,4,53,2,NA
fcp-trial,101,576691,0.0-62.0-0.0,voc_e2,12135,"[{""event"":""fullscreenenter"",""trial"":1,""time"":5274}]",NA,NA,NA,NA,NA,0,#D8271C,#741CD8,0,0,0,38,1,337.5,39,0,500.5,0,1,experiment,NA,NA,1,0.3,0.7,3,2,54,2,NA
fcp-trial,102,579150,0.0-63.0-0.0,voc_e2,12135,"[{""event"":""fullscreenenter"",""trial"":1,""time"":5274}]",NA,NA,NA,NA,NA,6,#1CD855,#FA92F8,0,10,0,38,1,385.80000001192093,37,1,563.8000000119209,0,0,experiment,NA,NA,2,0.5,0.5,5,4,55,2,NA
fcp-trial,103,581700,0.0-64.0-0.0,voc_e2,12135,"[{""event"":""fullscreenenter"",""trial"":1,""time"":5274}]",NA,NA,NA,NA,NA,2,#3386FF,#D89F1C,0,10,0,38,1,495.30000001192093,39,0,546.5,10,1,experiment,NA,NA,0,0.1,0.9,1,0,56,2,NA
fcp-trial,104,584433,0.0-65.0-0.0,voc_e2,12135,"[{""event"":""fullscreenenter"",""trial"":1,""time"":5274}]",NA,NA,NA,NA,NA,2,#741CD8,#D8271C,10,0,1,38,1,346.10000002384186,37,1,878.5999999642372,10,1,experiment,NA,NA,1,0.7,0.3,2,3,57,2,NA
fcp-trial,105,586953,0.0-66.0-0.0,voc_e2,12135,"[{""event"":""fullscreenenter"",""trial"":1,""time"":5274}]",NA,NA,NA,NA,NA,3,#D89F1C,#3386FF,10,0,1,38,1,478.10000002384186,37,1,535,10,1,experiment,NA,NA,0,0.9,0.1,0,1,58,2,NA
fcp-trial,106,589500,0.0-67.0-0.0,voc_e2,12135,"[{""event"":""fullscreenenter"",""trial"":1,""time"":5274}]",NA,NA,NA,NA,NA,4,#741CD8,#D8271C,10,10,1,38,1,405.69999998807907,37,1,633.1999999880791,10,1,experiment,NA,NA,1,0.7,0.3,2,3,59,2,NA
fcp-trial,107,591896,0.0-68.0-0.0,voc_e2,12135,"[{""event"":""fullscreenenter"",""trial"":1,""time"":5274}]",NA,NA,NA,NA,NA,0,#FA92F8,#1CD855,10,10,1,38,1,309.2999999523163,39,0,580.2000000476837,10,0,experiment,NA,NA,2,0.5,0.5,4,5,60,2,NA
fcp-trial,108,594219,0.0-69.0-0.0,voc_e2,12135,"[{""event"":""fullscreenenter"",""trial"":1,""time"":5274}]",NA,NA,NA,NA,NA,1,#741CD8,#D8271C,0,0,1,38,1,331.19999998807907,37,1,484.5,0,1,experiment,NA,NA,1,0.7,0.3,2,3,61,2,NA
fcp-trial,109,596360,0.0-70.0-0.0,voc_e2,12135,"[{""event"":""fullscreenenter"",""trial"":1,""time"":5274}]",NA,NA,NA,NA,NA,3,#741CD8,#D8271C,10,0,1,38,1,288.9000000357628,37,1,345.5,10,1,experiment,NA,NA,1,0.7,0.3,2,3,62,2,NA
fcp-trial,110,598607,0.0-71.0-0.0,voc_e2,12135,"[{""event"":""fullscreenenter"",""trial"":1,""time"":5274}]",NA,NA,NA,NA,NA,6,#3386FF,#D89F1C,0,10,0,38,1,433.9000000357628,39,0,304.7000000476837,10,1,experiment,NA,NA,0,0.1,0.9,1,0,63,2,NA
fcp-trial,111,601433,0.0-72.0-0.0,voc_e2,12135,"[{""event"":""fullscreenenter"",""trial"":1,""time"":5274}]",NA,NA,NA,NA,NA,6,#D8271C,#741CD8,10,10,0,38,1,417.60000002384186,39,0,898.3999999761581,10,1,experiment,NA,NA,1,0.3,0.7,3,2,64,2,NA
fcp-trial,112,603885,0.0-73.0-0.0,voc_e2,12135,"[{""event"":""fullscreenenter"",""trial"":1,""time"":5274}]",NA,NA,NA,NA,NA,2,#1CD855,#FA92F8,0,0,0,38,1,423.0999999642372,37,1,519.2999999523163,0,0,experiment,NA,NA,2,0.5,0.5,5,4,65,2,NA
fcp-trial,113,606084,0.0-74.0-0.0,voc_e2,12135,"[{""event"":""fullscreenenter"",""trial"":1,""time"":5274}]",NA,NA,NA,NA,NA,6,#3386FF,#D89F1C,0,0,0,38,1,290.0999999642372,39,0,400.9000000357628,0,1,experiment,NA,NA,0,0.1,0.9,1,0,66,2,NA
fcp-trial,114,608474,0.0-75.0-0.0,voc_e2,12135,"[{""event"":""fullscreenenter"",""trial"":1,""time"":5274}]",NA,NA,NA,NA,NA,4,#741CD8,#D8271C,10,0,1,38,1,292,37,1,589.8000000119209,10,1,experiment,NA,NA,1,0.7,0.3,2,3,67,2,NA
fcp-trial,115,610843,0.0-76.0-0.0,voc_e2,12135,"[{""event"":""fullscreenenter"",""trial"":1,""time"":5274}]",NA,NA,NA,NA,NA,0,#D89F1C,#3386FF,10,0,1,38,1,443.30000001192093,37,1,416.800000011921,10,1,experiment,NA,NA,0,0.9,0.1,0,1,68,2,NA
fcp-trial,116,613468,0.0-77.0-0.0,voc_e2,12135,"[{""event"":""fullscreenenter"",""trial"":1,""time"":5274}]",NA,NA,NA,NA,NA,1,#FA92F8,#1CD855,10,10,1,38,1,410,37,1,707.1999999880791,10,1,experiment,NA,NA,2,0.5,0.5,4,5,69,2,NA
fcp-trial,117,615952,0.0-78.0-0.0,voc_e2,12135,"[{""event"":""fullscreenenter"",""trial"":1,""time"":5274}]",NA,NA,NA,NA,NA,3,#D89F1C,#3386FF,10,0,1,38,1,496.19999998807907,37,1,478.10000002384186,10,1,experiment,NA,NA,0,0.9,0.1,0,1,70,2,NA
fcp-trial,118,618367,0.0-79.0-0.0,voc_e2,12135,"[{""event"":""fullscreenenter"",""trial"":1,""time"":5274}]",NA,NA,NA,NA,NA,6,#FA92F8,#1CD855,10,10,1,38,1,470.80000001192093,37,1,436.699999988079,10,1,experiment,NA,NA,2,0.5,0.5,4,5,71,2,NA
fcp-trial,119,620945,0.0-80.0-0.0,voc_e2,12135,"[{""event"":""fullscreenenter"",""trial"":1,""time"":5274}]",NA,NA,NA,NA,NA,5,#D8271C,#741CD8,10,10,0,38,1,540.9000000357628,39,0,530.5999999642372,10,1,experiment,NA,NA,1,0.3,0.7,3,2,72,2,NA
fcp-trial,120,623336,0.0-81.0-0.0,voc_e2,12135,"[{""event"":""fullscreenenter"",""trial"":1,""time"":5274}]",NA,NA,NA,NA,NA,1,#D89F1C,#3386FF,10,10,1,38,1,498.7000000476837,37,1,384.10000002384186,10,1,experiment,NA,NA,0,0.9,0.1,0,1,73,2,NA
fcp-trial,121,625816,0.0-82.0-0.0,voc_e2,12135,"[{""event"":""fullscreenenter"",""trial"":1,""time"":5274}]",NA,NA,NA,NA,NA,0,#D8271C,#741CD8,10,0,0,38,1,504.5999999642372,39,0,466.60000002384186,0,1,experiment,NA,NA,1,0.3,0.7,3,2,74,2,NA
fcp-trial,122,628635,0.0-83.0-0.0,voc_e2,12135,"[{""event"":""fullscreenenter"",""trial"":1,""time"":5274}]",NA,NA,NA,NA,NA,4,#FA92F8,#1CD855,0,0,1,38,1,378.5999999642372,37,1,931.2999999523164,0,1,experiment,NA,NA,2,0.5,0.5,4,5,75,2,NA
fcp-trial,123,630950,0.0-84.0-0.0,voc_e2,12135,"[{""event"":""fullscreenenter"",""trial"":1,""time"":5274}]",NA,NA,NA,NA,NA,5,#FA92F8,#1CD855,10,10,1,38,1,294.19999998807907,37,1,512.4000000357628,10,1,experiment,NA,NA,2,0.5,0.5,4,5,76,2,NA
fcp-trial,124,633367,0.0-85.0-0.0,voc_e2,12135,"[{""event"":""fullscreenenter"",""trial"":1,""time"":5274}]",NA,NA,NA,NA,NA,3,#D8271C,#741CD8,0,0,0,38,1,509.5,39,0,398.89999997615814,0,1,experiment,NA,NA,1,0.3,0.7,3,2,77,2,NA
fcp-trial,125,635692,0.0-86.0-0.0,voc_e2,12135,"[{""event"":""fullscreenenter"",""trial"":1,""time"":5274}]",NA,NA,NA,NA,NA,4,#D89F1C,#3386FF,10,0,1,38,1,471.39999997615814,37,1,346.0999999642372,10,1,experiment,NA,NA,0,0.9,0.1,0,1,78,2,NA
fcp-trial,126,638380,0.0-87.0-0.0,voc_e2,12135,"[{""event"":""fullscreenenter"",""trial"":1,""time"":5274}]",NA,NA,NA,NA,NA,0,#1CD855,#FA92F8,10,0,0,38,1,429.39999997615814,37,1,750.8999999761581,10,0,experiment,NA,NA,2,0.5,0.5,5,4,79,2,NA
fcp-trial,127,640682,0.0-88.0-0.0,voc_e2,12135,"[{""event"":""fullscreenenter"",""trial"":1,""time"":5274}]",NA,NA,NA,NA,NA,2,#D8271C,#741CD8,10,0,0,38,1,345.4000000357628,39,0,451.10000002384186,0,1,experiment,NA,NA,1,0.3,0.7,3,2,80,2,NA
fcp-trial,128,642965,0.0-89.0-0.0,voc_e2,12135,"[{""event"":""fullscreenenter"",""trial"":1,""time"":5274}]",NA,NA,NA,NA,NA,5,#D89F1C,#3386FF,10,0,1,38,1,442.80000001192093,37,1,333.5999999642372,10,1,experiment,NA,NA,0,0.9,0.1,0,1,81,2,NA
fcp-trial,129,645378,0.0-90.0-0.0,voc_e2,12135,"[{""event"":""fullscreenenter"",""trial"":1,""time"":5274}]",NA,NA,NA,NA,NA,2,#D89F1C,#3386FF,10,0,1,38,1,541.8999999761581,37,1,364.89999997615814,10,1,experiment,NA,NA,0,0.9,0.1,0,1,82,2,NA
fcp-trial,130,647701,0.0-91.0-0.0,voc_e2,12135,"[{""event"":""fullscreenenter"",""trial"":1,""time"":5274}]",NA,NA,NA,NA,NA,1,#741CD8,#D8271C,0,0,1,38,1,434,37,1,380.5999999642372,0,1,experiment,NA,NA,1,0.7,0.3,2,3,83,2,NA
fcp-trial,131,650137,0.0-92.0-0.0,voc_e2,12135,"[{""event"":""fullscreenenter"",""trial"":1,""time"":5274}]",NA,NA,NA,NA,NA,3,#FA92F8,#1CD855,0,0,1,38,1,393.10000002384186,37,1,535.1000000238419,0,1,experiment,NA,NA,2,0.5,0.5,4,5,84,2,NA
fcp-trial,132,652728,0.0-93.0-0.0,voc_e2,12135,"[{""event"":""fullscreenenter"",""trial"":1,""time"":5274}]",NA,NA,NA,NA,NA,5,#1CD855,#FA92F8,10,10,0,38,1,362.80000001192093,39,0,719.3000000119209,10,1,experiment,NA,NA,2,0.5,0.5,5,4,85,2,NA
fcp-trial,133,654998,0.0-94.0-0.0,voc_e2,12135,"[{""event"":""fullscreenenter"",""trial"":1,""time"":5274}]",NA,NA,NA,NA,NA,0,#741CD8,#D8271C,10,0,1,38,1,270,37,1,493,10,1,experiment,NA,NA,1,0.7,0.3,2,3,86,2,NA
fcp-trial,134,657164,0.0-95.0-0.0,voc_e2,12135,"[{""event"":""fullscreenenter"",""trial"":1,""time"":5274}]",NA,NA,NA,NA,NA,3,#3386FF,#D89F1C,0,10,0,38,1,258,39,0,401.2999999523163,10,1,experiment,NA,NA,0,0.1,0.9,1,0,87,2,NA
fcp-trial,135,659594,0.0-96.0-0.0,voc_e2,12135,"[{""event"":""fullscreenenter"",""trial"":1,""time"":5274}]",NA,NA,NA,NA,NA,5,#3386FF,#D89F1C,10,10,0,38,1,276.39999997615814,39,0,647,10,1,experiment,NA,NA,0,0.1,0.9,1,0,88,2,NA
fcp-trial,136,662048,0.0-97.0-0.0,voc_e2,12135,"[{""event"":""fullscreenenter"",""trial"":1,""time"":5274}]",NA,NA,NA,NA,NA,3,#1CD855,#FA92F8,10,10,0,38,1,269.2000000476837,39,0,677.9000000357628,10,1,experiment,NA,NA,2,0.5,0.5,5,4,89,2,NA
fcp-trial,137,664365,0.0-98.0-0.0,voc_e2,12135,"[{""event"":""fullscreenenter"",""trial"":1,""time"":5274}]",NA,NA,NA,NA,NA,6,#D89F1C,#3386FF,10,0,1,38,1,426.80000001192093,37,1,382.199999988079,10,1,experiment,NA,NA,0,0.9,0.1,0,1,90,2,NA
fcp-trial,138,666618,0.0-99.0-0.0,voc_e2,12135,"[{""event"":""fullscreenenter"",""trial"":1,""time"":5274}]",NA,NA,NA,NA,NA,5,#D8271C,#741CD8,0,10,0,38,1,376,39,0,368.199999988079,10,1,experiment,NA,NA,1,0.3,0.7,3,2,91,3,NA
fcp-trial,139,669000,0.0-100.0-0.0,voc_e2,12135,"[{""event"":""fullscreenenter"",""trial"":1,""time"":5274}]",NA,NA,NA,NA,NA,6,#1CD855,#FA92F8,0,0,0,38,1,382.10000002384186,39,0,490.5,0,1,experiment,NA,NA,2,0.5,0.5,5,4,92,3,NA
fcp-trial,140,671213,0.0-101.0-0.0,voc_e2,12135,"[{""event"":""fullscreenenter"",""trial"":1,""time"":5274}]",NA,NA,NA,NA,NA,3,#D8271C,#741CD8,0,10,0,38,1,421,39,0,284.69999998807907,10,1,experiment,NA,NA,1,0.3,0.7,3,2,93,3,NA
fcp-trial,141,673549,0.0-102.0-0.0,voc_e2,12135,"[{""event"":""fullscreenenter"",""trial"":1,""time"":5274}]",NA,NA,NA,NA,NA,2,#D8271C,#741CD8,10,10,0,38,1,410.5999999642372,39,0,418.10000002384186,10,1,experiment,NA,NA,1,0.3,0.7,3,2,94,3,NA
fcp-trial,142,675717,0.0-103.0-0.0,voc_e2,12135,"[{""event"":""fullscreenenter"",""trial"":1,""time"":5274}]",NA,NA,NA,NA,NA,1,#D89F1C,#3386FF,10,0,1,38,1,322.89999997615814,37,1,337.2999999523163,10,1,experiment,NA,NA,0,0.9,0.1,0,1,95,3,NA
fcp-trial,143,677817,0.0-104.0-0.0,voc_e2,12135,"[{""event"":""fullscreenenter"",""trial"":1,""time"":5274}]",NA,NA,NA,NA,NA,0,#D89F1C,#3386FF,10,0,1,38,1,288.89999997615814,37,1,301.89999997615814,10,1,experiment,NA,NA,0,0.9,0.1,0,1,96,3,NA
fcp-trial,144,680183,0.0-105.0-0.0,voc_e2,12135,"[{""event"":""fullscreenenter"",""trial"":1,""time"":5274}]",NA,NA,NA,NA,NA,2,#1CD855,#FA92F8,0,10,0,38,1,308.5,37,1,548.1000000238419,0,0,experiment,NA,NA,2,0.5,0.5,5,4,97,3,NA
fcp-trial,145,682483,0.0-106.0-0.0,voc_e2,12135,"[{""event"":""fullscreenenter"",""trial"":1,""time"":5274}]",NA,NA,NA,NA,NA,4,#741CD8,#D8271C,10,0,1,38,1,272.5,39,0,518,0,0,experiment,NA,NA,1,0.7,0.3,2,3,98,3,NA
fcp-trial,146,684849,0.0-107.0-0.0,voc_e2,12135,"[{""event"":""fullscreenenter"",""trial"":1,""time"":5274}]",NA,NA,NA,NA,NA,1,#FA92F8,#1CD855,0,0,1,38,1,246.4000000357628,39,0,613,0,0,experiment,NA,NA,2,0.5,0.5,4,5,99,3,NA
fcp-trial,147,686973,0.0-108.0-0.0,voc_e2,12135,"[{""event"":""fullscreenenter"",""trial"":1,""time"":5274}]",NA,NA,NA,NA,NA,0,#FA92F8,#1CD855,10,10,1,38,1,230.80000001192093,37,1,385.699999988079,10,1,experiment,NA,NA,2,0.5,0.5,4,5,100,3,NA
fcp-trial,148,689347,0.0-109.0-0.0,voc_e2,12135,"[{""event"":""fullscreenenter"",""trial"":1,""time"":5274}]",NA,NA,NA,NA,NA,2,#3386FF,#D89F1C,0,10,0,38,1,298.30000001192093,39,0,568.3999999761581,10,1,experiment,NA,NA,0,0.1,0.9,1,0,101,3,NA
fcp-trial,149,691515,0.0-110.0-0.0,voc_e2,12135,"[{""event"":""fullscreenenter"",""trial"":1,""time"":5274}]",NA,NA,NA,NA,NA,6,#741CD8,#D8271C,10,10,1,38,1,297,37,1,362.5,10,1,experiment,NA,NA,1,0.7,0.3,2,3,102,3,NA
fcp-trial,150,693680,0.0-111.0-0.0,voc_e2,12135,"[{""event"":""fullscreenenter"",""trial"":1,""time"":5274}]",NA,NA,NA,NA,NA,1,#D8271C,#741CD8,0,0,0,38,1,247.5999999642372,39,0,409.9000000357628,0,1,experiment,NA,NA,1,0.3,0.7,3,2,103,3,NA
fcp-trial,151,695898,0.0-112.0-0.0,voc_e2,12135,"[{""event"":""fullscreenenter"",""trial"":1,""time"":5274}]",NA,NA,NA,NA,NA,4,#3386FF,#D89F1C,0,10,0,38,1,125,39,0,587.4000000357628,10,1,experiment,NA,NA,0,0.1,0.9,1,0,104,3,NA
fcp-trial,152,698431,0.0-113.0-0.0,voc_e2,12135,"[{""event"":""fullscreenenter"",""trial"":1,""time"":5274}]",NA,NA,NA,NA,NA,4,#1CD855,#FA92F8,0,0,0,38,1,242.89999997615814,39,0,781.5999999642372,0,1,experiment,NA,NA,2,0.5,0.5,5,4,105,3,NA
audio-instructions,153,703844,0.0-114.0,voc_e2,12135,"[{""event"":""fullscreenenter"",""trial"":1,""time"":5274}]",NA,920.8000000119208,static/audio/pause.wav,NA,0,NA,NA,NA,NA,NA,NA,NA,NA,NA,NA,NA,NA,NA,NA,NA,NA,NA,NA,NA,NA,NA,NA,NA,NA,NA
fcp-trial,154,706649,0.0-115.0-0.0,voc_e2,12135,"[{""event"":""fullscreenenter"",""trial"":1,""time"":5274}]",NA,NA,NA,NA,NA,2,#741CD8,#D8271C,0,0,1,38,1,906.8000000119209,37,1,392.699999988079,0,1,experiment,NA,NA,1,0.7,0.3,2,3,106,3,NA
fcp-trial,155,709802,0.0-116.0-0.0,voc_e2,12135,"[{""event"":""fullscreenenter"",""trial"":1,""time"":5274}]",NA,NA,NA,NA,NA,5,#FA92F8,#1CD855,10,0,1,38,1,908.6999999880791,37,1,737.5,10,1,experiment,NA,NA,2,0.5,0.5,4,5,107,3,NA
fcp-trial,156,712158,0.0-117.0-0.0,voc_e2,12135,"[{""event"":""fullscreenenter"",""trial"":1,""time"":5274}]",NA,NA,NA,NA,NA,2,#FA92F8,#1CD855,0,0,1,38,1,384.89999997615814,37,1,465.60000002384186,0,1,experiment,NA,NA,2,0.5,0.5,4,5,108,3,NA
fcp-trial,157,714305,0.0-118.0-0.0,voc_e2,12135,"[{""event"":""fullscreenenter"",""trial"":1,""time"":5274}]",NA,NA,NA,NA,NA,1,#1CD855,#FA92F8,0,10,0,38,1,294.2999999523163,39,0,345.69999998807907,10,1,experiment,NA,NA,2,0.5,0.5,5,4,109,3,NA
fcp-trial,158,716626,0.0-119.0-0.0,voc_e2,12135,"[{""event"":""fullscreenenter"",""trial"":1,""time"":5274}]",NA,NA,NA,NA,NA,3,#3386FF,#D89F1C,0,0,0,38,1,426.89999997615814,39,0,386.300000011921,0,1,experiment,NA,NA,0,0.1,0.9,1,0,110,3,NA
fcp-trial,159,718908,0.0-120.0-0.0,voc_e2,12135,"[{""event"":""fullscreenenter"",""trial"":1,""time"":5274}]",NA,NA,NA,NA,NA,4,#741CD8,#D8271C,0,0,1,38,1,385,37,1,388.39999997615814,0,1,experiment,NA,NA,1,0.7,0.3,2,3,111,3,NA
fcp-trial,160,721723,0.0-121.0-0.0,voc_e2,12135,"[{""event"":""fullscreenenter"",""trial"":1,""time"":5274}]",NA,NA,NA,NA,NA,3,#1CD855,#FA92F8,0,10,0,38,1,417.30000001192093,39,0,891.5999999642372,10,1,experiment,NA,NA,2,0.5,0.5,5,4,112,3,NA
fcp-trial,161,724165,0.0-122.0-0.0,voc_e2,12135,"[{""event"":""fullscreenenter"",""trial"":1,""time"":5274}]",NA,NA,NA,NA,NA,2,#3386FF,#D89F1C,0,10,0,38,1,540.6999999880791,39,0,392.300000011921,10,1,experiment,NA,NA,0,0.1,0.9,1,0,113,3,NA
fcp-trial,162,726536,0.0-123.0-0.0,voc_e2,12135,"[{""event"":""fullscreenenter"",""trial"":1,""time"":5274}]",NA,NA,NA,NA,NA,5,#741CD8,#D8271C,0,0,1,38,1,438.4000000357628,37,1,426.699999988079,0,1,experiment,NA,NA,1,0.7,0.3,2,3,114,3,NA
fcp-trial,163,728754,0.0-124.0-0.0,voc_e2,12135,"[{""event"":""fullscreenenter"",""trial"":1,""time"":5274}]",NA,NA,NA,NA,NA,5,#3386FF,#D89F1C,0,10,0,38,1,360.39999997615814,39,0,348.89999997615814,10,1,experiment,NA,NA,0,0.1,0.9,1,0,115,3,NA
fcp-trial,164,731176,0.0-125.0-0.0,voc_e2,12135,"[{""event"":""fullscreenenter"",""trial"":1,""time"":5274}]",NA,NA,NA,NA,NA,0,#1CD855,#FA92F8,10,0,0,38,1,323.19999998807907,39,0,592.3000000119209,0,1,experiment,NA,NA,2,0.5,0.5,5,4,116,3,NA
fcp-trial,165,733758,0.0-126.0-0.0,voc_e2,12135,"[{""event"":""fullscreenenter"",""trial"":1,""time"":5274}]",NA,NA,NA,NA,NA,1,#D8271C,#741CD8,0,10,0,38,1,677.4000000357628,39,0,398.5,10,1,experiment,NA,NA,1,0.3,0.7,3,2,117,3,NA
fcp-trial,166,735993,0.0-127.0-0.0,voc_e2,12135,"[{""event"":""fullscreenenter"",""trial"":1,""time"":5274}]",NA,NA,NA,NA,NA,0,#3386FF,#D89F1C,0,10,0,38,1,243,39,0,487.39999997615814,10,1,experiment,NA,NA,0,0.1,0.9,1,0,118,3,NA
fcp-trial,167,738195,0.0-128.0-0.0,voc_e2,12135,"[{""event"":""fullscreenenter"",""trial"":1,""time"":5274}]",NA,NA,NA,NA,NA,1,#D89F1C,#3386FF,10,0,1,38,1,245.4000000357628,37,1,449.60000002384186,10,1,experiment,NA,NA,0,0.9,0.1,0,1,119,3,NA
fcp-trial,168,740341,0.0-129.0-0.0,voc_e2,12135,"[{""event"":""fullscreenenter"",""trial"":1,""time"":5274}]",NA,NA,NA,NA,NA,3,#D8271C,#741CD8,10,10,0,38,1,242,39,0,397.89999997615814,10,1,experiment,NA,NA,1,0.3,0.7,3,2,120,3,NA
fcp-trial,169,742966,0.0-130.0-0.0,voc_e2,12135,"[{""event"":""fullscreenenter"",""trial"":1,""time"":5274}]",NA,NA,NA,NA,NA,6,#1CD855,#FA92F8,10,0,0,38,1,261,39,0,856.3000000119209,0,1,experiment,NA,NA,2,0.5,0.5,5,4,121,3,NA
fcp-trial,170,745133,0.0-131.0-0.0,voc_e2,12135,"[{""event"":""fullscreenenter"",""trial"":1,""time"":5274}]",NA,NA,NA,NA,NA,4,#1CD855,#FA92F8,0,0,0,38,1,262,39,0,399.39999997615814,0,1,experiment,NA,NA,2,0.5,0.5,5,4,122,3,NA
fcp-trial,171,747243,0.0-132.0-0.0,voc_e2,12135,"[{""event"":""fullscreenenter"",""trial"":1,""time"":5274}]",NA,NA,NA,NA,NA,6,#3386FF,#D89F1C,0,10,0,38,1,265.60000002384186,39,0,336.60000002384186,10,1,experiment,NA,NA,0,0.1,0.9,1,0,123,3,NA
fcp-trial,172,749440,0.0-133.0-0.0,voc_e2,12135,"[{""event"":""fullscreenenter"",""trial"":1,""time"":5274}]",NA,NA,NA,NA,NA,0,#741CD8,#D8271C,10,0,1,38,1,361.5999999642372,37,1,328.80000001192093,10,1,experiment,NA,NA,1,0.7,0.3,2,3,124,3,NA
fcp-trial,173,751704,0.0-134.0-0.0,voc_e2,12135,"[{""event"":""fullscreenenter"",""trial"":1,""time"":5274}]",NA,NA,NA,NA,NA,6,#D8271C,#741CD8,0,0,0,38,1,258.7000000476837,39,0,499.699999988079,0,1,experiment,NA,NA,1,0.3,0.7,3,2,125,3,NA
fcp-trial,174,753789,0.0-135.0-0.0,voc_e2,12135,"[{""event"":""fullscreenenter"",""trial"":1,""time"":5274}]",NA,NA,NA,NA,NA,4,#D89F1C,#3386FF,0,0,1,38,1,59.30000001192093,37,1,518.5999999642372,0,1,experiment,NA,NA,0,0.9,0.1,0,1,126,3,NA
fcp-trial,175,756126,0.0-136.0-0.0,voc_e2,12135,"[{""event"":""fullscreenenter"",""trial"":1,""time"":5274}]",NA,NA,NA,NA,NA,1,#741CD8,#D8271C,10,0,1,38,1,239.4000000357628,37,1,588.5,10,1,experiment,NA,NA,1,0.7,0.3,2,3,127,3,NA
fcp-trial,176,758283,0.0-137.0-0.0,voc_e2,12135,"[{""event"":""fullscreenenter"",""trial"":1,""time"":5274}]",NA,NA,NA,NA,NA,2,#741CD8,#D8271C,10,0,1,38,1,332.10000002384186,37,1,315,10,1,experiment,NA,NA,1,0.7,0.3,2,3,128,3,NA
fcp-trial,177,760801,0.0-138.0-0.0,voc_e2,12135,"[{""event"":""fullscreenenter"",""trial"":1,""time"":5274}]",NA,NA,NA,NA,NA,0,#1CD855,#FA92F8,10,10,0,38,1,553,39,0,456.5,10,1,experiment,NA,NA,2,0.5,0.5,5,4,129,3,NA
fcp-trial,178,762910,0.0-139.0-0.0,voc_e2,12135,"[{""event"":""fullscreenenter"",""trial"":1,""time"":5274}]",NA,NA,NA,NA,NA,3,#3386FF,#D89F1C,0,0,0,38,1,243.5,39,0,357.7999999523163,0,1,experiment,NA,NA,0,0.1,0.9,1,0,130,3,NA
fcp-trial,179,764996,0.0-140.0-0.0,voc_e2,12135,"[{""event"":""fullscreenenter"",""trial"":1,""time"":5274}]",NA,NA,NA,NA,NA,4,#D89F1C,#3386FF,10,0,1,38,1,261.89999997615814,37,1,316.9000000357628,10,1,experiment,NA,NA,0,0.9,0.1,0,1,131,3,NA
fcp-trial,180,767277,0.0-141.0-0.0,voc_e2,12135,"[{""event"":""fullscreenenter"",""trial"":1,""time"":5274}]",NA,NA,NA,NA,NA,4,#D8271C,#741CD8,0,10,0,38,1,407.5,39,0,366.9000000357628,10,1,experiment,NA,NA,1,0.3,0.7,3,2,132,3,NA
fcp-trial,181,769581,0.0-142.0-0.0,voc_e2,12135,"[{""event"":""fullscreenenter"",""trial"":1,""time"":5274}]",NA,NA,NA,NA,NA,5,#3386FF,#D89F1C,0,10,0,38,1,228.5,39,0,570.5,10,1,experiment,NA,NA,0,0.1,0.9,1,0,133,3,NA
fcp-trial,182,771775,0.0-143.0-0.0,voc_e2,12135,"[{""event"":""fullscreenenter"",""trial"":1,""time"":5274}]",NA,NA,NA,NA,NA,6,#1CD855,#FA92F8,0,0,0,38,1,177.4000000357628,39,0,509.10000002384186,0,1,experiment,NA,NA,2,0.5,0.5,5,4,134,3,NA
fcp-trial,183,773858,0.0-144.0-0.0,voc_e2,12135,"[{""event"":""fullscreenenter"",""trial"":1,""time"":5274}]",NA,NA,NA,NA,NA,6,#D89F1C,#3386FF,10,10,1,38,1,74.30000001192093,37,1,501.2999999523163,10,1,experiment,NA,NA,0,0.9,0.1,0,1,135,3,NA
fcp-trial,184,776115,0.0-145.0-0.0,voc_e2,12135,"[{""event"":""fullscreenenter"",""trial"":1,""time"":5274}]",NA,NA,NA,NA,NA,2,#3386FF,#D89F1C,0,10,0,38,1,186.5,39,0,562.6999999880791,10,1,experiment,NA,NA,0,0.1,0.9,1,0,136,4,NA
fcp-trial,185,778262,0.0-146.0-0.0,voc_e2,12135,"[{""event"":""fullscreenenter"",""trial"":1,""time"":5274}]",NA,NA,NA,NA,NA,0,#741CD8,#D8271C,10,10,1,38,1,257.30000001192093,37,1,383.5,10,1,experiment,NA,NA,1,0.7,0.3,2,3,137,4,NA
fcp-trial,186,780903,0.0-147.0-0.0,voc_e2,12135,"[{""event"":""fullscreenenter"",""trial"":1,""time"":5274}]",NA,NA,NA,NA,NA,1,#1CD855,#FA92F8,0,0,0,38,1,305.10000002384186,39,0,829.0999999642372,0,1,experiment,NA,NA,2,0.5,0.5,5,4,138,4,NA
fcp-trial,187,783477,0.0-148.0-0.0,voc_e2,12135,"[{""event"":""fullscreenenter"",""trial"":1,""time"":5274}]",NA,NA,NA,NA,NA,4,#1CD855,#FA92F8,0,0,0,38,1,106.79999995231628,39,0,960.399999976158,0,1,experiment,NA,NA,2,0.5,0.5,5,4,139,4,NA
fcp-trial,188,785589,0.0-149.0-0.0,voc_e2,12135,"[{""event"":""fullscreenenter"",""trial"":1,""time"":5274}]",NA,NA,NA,NA,NA,0,#D89F1C,#3386FF,10,0,1,38,1,283.5,37,1,321.10000002384186,10,1,experiment,NA,NA,0,0.9,0.1,0,1,140,4,NA
fcp-trial,189,787851,0.0-150.0-0.0,voc_e2,12135,"[{""event"":""fullscreenenter"",""trial"":1,""time"":5274}]",NA,NA,NA,NA,NA,5,#D8271C,#741CD8,10,10,0,38,1,392.10000002384186,39,0,362.4000000357628,10,1,experiment,NA,NA,1,0.3,0.7,3,2,141,4,NA
fcp-trial,190,790185,0.0-151.0-0.0,voc_e2,12135,"[{""event"":""fullscreenenter"",""trial"":1,""time"":5274}]",NA,NA,NA,NA,NA,3,#D8271C,#741CD8,10,10,0,38,1,473,39,0,351.39999997615814,10,1,experiment,NA,NA,1,0.3,0.7,3,2,142,4,NA
fcp-trial,191,793201,0.0-152.0-0.0,voc_e2,12135,"[{""event"":""fullscreenenter"",""trial"":1,""time"":5274}]",NA,NA,NA,NA,NA,3,#FA92F8,#1CD855,0,10,1,38,1,1191.3999999761581,39,0,315.89999997615814,10,0,experiment,NA,NA,2,0.5,0.5,4,5,143,4,NA
fcp-trial,192,796196,0.0-153.0-0.0,voc_e2,12135,"[{""event"":""fullscreenenter"",""trial"":1,""time"":5274}]",NA,NA,NA,NA,NA,1,#3386FF,#D89F1C,0,10,0,38,1,835.4000000357628,39,0,650.3000000119209,10,1,experiment,NA,NA,0,0.1,0.9,1,0,144,4,NA
fcp-trial,193,798487,0.0-154.0-0.0,voc_e2,12135,"[{""event"":""fullscreenenter"",""trial"":1,""time"":5274}]",NA,NA,NA,NA,NA,6,#D8271C,#741CD8,0,0,0,38,1,388.39999997615814,39,0,396.60000002384186,0,1,experiment,NA,NA,1,0.3,0.7,3,2,145,4,NA
fcp-trial,194,801097,0.0-155.0-0.0,voc_e2,12135,"[{""event"":""fullscreenenter"",""trial"":1,""time"":5274}]",NA,NA,NA,NA,NA,2,#1CD855,#FA92F8,0,10,0,38,1,592.6000000238419,37,1,510.300000011921,0,0,experiment,NA,NA,2,0.5,0.5,5,4,146,4,NA
fcp-trial,195,804173,0.0-156.0-0.0,voc_e2,12135,"[{""event"":""fullscreenenter"",""trial"":1,""time"":5274}]",NA,NA,NA,NA,NA,5,#1CD855,#FA92F8,10,0,0,38,1,556.0999999642372,39,0,1012.9000000357628,0,1,experiment,NA,NA,2,0.5,0.5,5,4,147,4,NA
fcp-trial,196,806840,0.0-157.0-0.0,voc_e2,12135,"[{""event"":""fullscreenenter"",""trial"":1,""time"":5274}]",NA,NA,NA,NA,NA,1,#741CD8,#D8271C,10,0,1,38,1,577.1999999880791,37,1,583.1999999880791,10,1,experiment,NA,NA,1,0.7,0.3,2,3,148,4,NA
fcp-trial,197,809295,0.0-158.0-0.0,voc_e2,12135,"[{""event"":""fullscreenenter"",""trial"":1,""time"":5274}]",NA,NA,NA,NA,NA,5,#FA92F8,#1CD855,0,0,1,38,1,396.10000002384186,39,0,552.1999999880791,0,0,experiment,NA,NA,2,0.5,0.5,4,5,149,4,NA
fcp-trial,198,811696,0.0-159.0-0.0,voc_e2,12135,"[{""event"":""fullscreenenter"",""trial"":1,""time"":5274}]",NA,NA,NA,NA,NA,1,#1CD855,#FA92F8,10,0,0,38,1,313.80000001192093,39,0,579.5999999642372,0,1,experiment,NA,NA,2,0.5,0.5,5,4,150,4,NA
fcp-trial,199,814108,0.0-160.0-0.0,voc_e2,12135,"[{""event"":""fullscreenenter"",""trial"":1,""time"":5274}]",NA,NA,NA,NA,NA,6,#D8271C,#741CD8,0,10,0,38,1,520,39,0,386.4000000357628,10,1,experiment,NA,NA,1,0.3,0.7,3,2,151,4,NA
fcp-trial,200,816665,0.0-161.0-0.0,voc_e2,12135,"[{""event"":""fullscreenenter"",""trial"":1,""time"":5274}]",NA,NA,NA,NA,NA,5,#D89F1C,#3386FF,10,0,1,38,1,592.4000000357628,37,1,457.199999988079,10,1,experiment,NA,NA,0,0.9,0.1,0,1,152,4,NA
fcp-trial,201,819325,0.0-162.0-0.0,voc_e2,12135,"[{""event"":""fullscreenenter"",""trial"":1,""time"":5274}]",NA,NA,NA,NA,NA,0,#1CD855,#FA92F8,10,0,0,38,1,405.4000000357628,39,0,748.3999999761581,0,1,experiment,NA,NA,2,0.5,0.5,5,4,153,4,NA
fcp-trial,202,821865,0.0-163.0-0.0,voc_e2,12135,"[{""event"":""fullscreenenter"",""trial"":1,""time"":5274}]",NA,NA,NA,NA,NA,5,#D8271C,#741CD8,0,0,0,38,1,82.80000001192093,39,0,948.4000000357628,0,1,experiment,NA,NA,1,0.3,0.7,3,2,154,4,NA
fcp-trial,203,824242,0.0-164.0-0.0,voc_e2,12135,"[{""event"":""fullscreenenter"",""trial"":1,""time"":5274}]",NA,NA,NA,NA,NA,2,#3386FF,#D89F1C,0,0,0,38,1,424.4000000357628,39,0,443.9000000357628,0,1,experiment,NA,NA,0,0.1,0.9,1,0,155,4,NA
fcp-trial,204,826258,0.0-165.0-0.0,voc_e2,12135,"[{""event"":""fullscreenenter"",""trial"":1,""time"":5274}]",NA,NA,NA,NA,NA,3,#3386FF,#D89F1C,0,10,0,38,1,75,39,0,434.9000000357628,10,1,experiment,NA,NA,0,0.1,0.9,1,0,156,4,NA
fcp-trial,205,828627,0.0-166.0-0.0,voc_e2,12135,"[{""event"":""fullscreenenter"",""trial"":1,""time"":5274}]",NA,NA,NA,NA,NA,2,#FA92F8,#1CD855,10,0,1,38,1,417.9000000357628,37,1,442.699999988079,10,1,experiment,NA,NA,2,0.5,0.5,4,5,157,4,NA
fcp-trial,206,831117,0.0-167.0-0.0,voc_e2,12135,"[{""event"":""fullscreenenter"",""trial"":1,""time"":5274}]",NA,NA,NA,NA,NA,0,#D8271C,#741CD8,10,10,0,38,1,455,39,0,527.1000000238419,10,1,experiment,NA,NA,1,0.3,0.7,3,2,158,4,NA
fcp-trial,207,833354,0.0-168.0-0.0,voc_e2,12135,"[{""event"":""fullscreenenter"",""trial"":1,""time"":5274}]",NA,NA,NA,NA,NA,1,#3386FF,#D89F1C,0,10,0,38,1,323.4000000357628,39,0,405,10,1,experiment,NA,NA,0,0.1,0.9,1,0,159,4,NA
fcp-trial,208,835674,0.0-169.0-0.0,voc_e2,12135,"[{""event"":""fullscreenenter"",""trial"":1,""time"":5274}]",NA,NA,NA,NA,NA,4,#FA92F8,#1CD855,10,10,1,38,1,255.9000000357628,37,1,556.6000000238419,10,1,experiment,NA,NA,2,0.5,0.5,4,5,160,4,NA
fcp-trial,209,837801,0.0-170.0-0.0,voc_e2,12135,"[{""event"":""fullscreenenter"",""trial"":1,""time"":5274}]",NA,NA,NA,NA,NA,6,#FA92F8,#1CD855,0,0,1,38,1,158,37,1,460.800000011921,0,1,experiment,NA,NA,2,0.5,0.5,4,5,161,4,NA
fcp-trial,210,840370,0.0-171.0-0.0,voc_e2,12135,"[{""event"":""fullscreenenter"",""trial"":1,""time"":5274}]",NA,NA,NA,NA,NA,2,#D8271C,#741CD8,10,10,0,38,1,461.2999999523163,39,0,599.1000000238419,10,1,experiment,NA,NA,1,0.3,0.7,3,2,162,4,NA
fcp-trial,211,842859,0.0-172.0-0.0,voc_e2,12135,"[{""event"":""fullscreenenter"",""trial"":1,""time"":5274}]",NA,NA,NA,NA,NA,4,#3386FF,#D89F1C,0,10,0,38,1,363.39999997615814,39,0,619.5,10,1,experiment,NA,NA,0,0.1,0.9,1,0,163,4,NA
fcp-trial,212,845457,0.0-173.0-0.0,voc_e2,12135,"[{""event"":""fullscreenenter"",""trial"":1,""time"":5274}]",NA,NA,NA,NA,NA,3,#1CD855,#FA92F8,0,10,0,38,1,449.19999998807907,37,1,641.6000000238419,0,0,experiment,NA,NA,2,0.5,0.5,5,4,164,4,NA
fcp-trial,213,847728,0.0-174.0-0.0,voc_e2,12135,"[{""event"":""fullscreenenter"",""trial"":1,""time"":5274}]",NA,NA,NA,NA,NA,6,#3386FF,#D89F1C,0,10,0,38,1,375.5,39,0,386.89999997615814,10,1,experiment,NA,NA,0,0.1,0.9,1,0,165,4,NA
fcp-trial,214,850091,0.0-175.0-0.0,voc_e2,12135,"[{""event"":""fullscreenenter"",""trial"":1,""time"":5274}]",NA,NA,NA,NA,NA,0,#D89F1C,#3386FF,10,0,1,38,1,404.5,37,1,451.5,10,1,experiment,NA,NA,0,0.9,0.1,0,1,166,4,NA
fcp-trial,215,852466,0.0-176.0-0.0,voc_e2,12135,"[{""event"":""fullscreenenter"",""trial"":1,""time"":5274}]",NA,NA,NA,NA,NA,3,#D8271C,#741CD8,0,0,0,38,1,137.80000001192093,39,0,729.2000000476837,0,1,experiment,NA,NA,1,0.3,0.7,3,2,167,4,NA
fcp-trial,216,854559,0.0-177.0-0.0,voc_e2,12135,"[{""event"":""fullscreenenter"",""trial"":1,""time"":5274}]",NA,NA,NA,NA,NA,4,#741CD8,#D8271C,10,10,1,38,1,77.40000003576279,37,1,505.89999997615814,10,1,experiment,NA,NA,1,0.7,0.3,2,3,168,4,NA
fcp-trial,217,856735,0.0-178.0-0.0,voc_e2,12135,"[{""event"":""fullscreenenter"",""trial"":1,""time"":5274}]",NA,NA,NA,NA,NA,6,#D89F1C,#3386FF,10,10,1,38,1,113.10000002384186,37,1,556.3000000119209,10,1,experiment,NA,NA,0,0.9,0.1,0,1,169,4,NA
fcp-trial,218,859474,0.0-179.0-0.0,voc_e2,12135,"[{""event"":""fullscreenenter"",""trial"":1,""time"":5274}]",NA,NA,NA,NA,NA,1,#FA92F8,#1CD855,0,10,1,38,1,293.60000002384186,37,1,936.6999999880792,0,1,experiment,NA,NA,2,0.5,0.5,4,5,170,4,NA
fcp-trial,219,861548,0.0-180.0-0.0,voc_e2,12135,"[{""event"":""fullscreenenter"",""trial"":1,""time"":5274}]",NA,NA,NA,NA,NA,4,#3386FF,#D89F1C,0,10,0,38,1,21.600000023841858,39,0,545.1000000238419,10,1,experiment,NA,NA,0,0.1,0.9,1,0,171,4,NA
fcp-trial,220,863707,0.0-181.0-0.0,voc_e2,12135,"[{""event"":""fullscreenenter"",""trial"":1,""time"":5274}]",NA,NA,NA,NA,NA,6,#D8271C,#741CD8,10,10,0,38,1,235.30000001192093,39,0,413.800000011921,10,1,experiment,NA,NA,1,0.3,0.7,3,2,172,4,NA
fcp-trial,221,866835,0.0-182.0-0.0,voc_e2,12135,"[{""event"":""fullscreenenter"",""trial"":1,""time"":5274}]",NA,NA,NA,NA,NA,5,#1CD855,#FA92F8,10,10,0,38,1,499.5999999642372,37,1,1119.9000000357628,10,0,experiment,NA,NA,2,0.5,0.5,5,4,173,4,NA
fcp-trial,222,869389,0.0-183.0-0.0,voc_e2,12135,"[{""event"":""fullscreenenter"",""trial"":1,""time"":5274}]",NA,NA,NA,NA,NA,5,#741CD8,#D8271C,10,0,1,38,1,448.5,37,1,597.8000000119209,10,1,experiment,NA,NA,1,0.7,0.3,2,3,174,4,NA
fcp-trial,223,871797,0.0-184.0-0.0,voc_e2,12135,"[{""event"":""fullscreenenter"",""trial"":1,""time"":5274}]",NA,NA,NA,NA,NA,4,#741CD8,#D8271C,10,0,1,38,1,427,37,1,473.60000002384186,10,1,experiment,NA,NA,1,0.7,0.3,2,3,175,4,NA
fcp-trial,224,874096,0.0-185.0-0.0,voc_e2,12135,"[{""event"":""fullscreenenter"",""trial"":1,""time"":5274}]",NA,NA,NA,NA,NA,1,#3386FF,#D89F1C,0,10,0,38,1,376.2000000476837,39,0,417.39999997615814,10,1,experiment,NA,NA,0,0.1,0.9,1,0,176,4,NA
fcp-trial,225,877679,0.0-186.0-0.0,voc_e2,12135,"[{""event"":""fullscreenenter"",""trial"":1,""time"":5274}]",NA,NA,NA,NA,NA,6,#FA92F8,#1CD855,10,0,1,40,0,1037.1000000238419,37,1,1040,10,1,experiment,NA,NA,2,0.5,0.5,4,5,177,4,NA
fcp-trial,226,880320,0.0-187.0-0.0,voc_e2,12135,"[{""event"":""fullscreenenter"",""trial"":1,""time"":5274}]",NA,NA,NA,NA,NA,2,#FA92F8,#1CD855,10,0,1,38,1,168.89999997615814,37,1,966.100000023842,10,1,experiment,NA,NA,2,0.5,0.5,4,5,178,4,NA
fcp-trial,227,884468,0.0-188.0-0.0,voc_e2,12135,"[{""event"":""fullscreenenter"",""trial"":1,""time"":5274}]",NA,NA,NA,NA,NA,3,#741CD8,#D8271C,10,0,1,40,0,1904,37,1,736.9000000357628,10,1,experiment,NA,NA,1,0.7,0.3,2,3,179,4,NA
fcp-trial,228,887563,0.0-189.0-0.0,voc_e2,12135,"[{""event"":""fullscreenenter"",""trial"":1,""time"":5274}]",NA,NA,NA,NA,NA,1,#D8271C,#741CD8,0,10,0,40,0,949.6000000238419,37,1,637.6000000238419,0,0,experiment,NA,NA,1,0.3,0.7,3,2,180,4,NA
fcp-trial,229,890914,0.0-190.0-0.0,voc_e2,12135,"[{""event"":""fullscreenenter"",""trial"":1,""time"":5274}]",NA,NA,NA,NA,NA,5,#3386FF,#D89F1C,0,10,0,40,0,1088.5,37,1,755,0,0,experiment,NA,NA,0,0.1,0.9,1,0,181,5,NA
fcp-trial,230,895137,0.0-191.0-0.0,voc_e2,12135,"[{""event"":""fullscreenenter"",""trial"":1,""time"":5274}]",NA,NA,NA,NA,NA,0,#741CD8,#D8271C,10,10,1,38,1,1896.5999999642372,37,1,819.3000000119209,10,1,experiment,NA,NA,1,0.7,0.3,2,3,182,5,NA
fcp-trial,231,897462,0.0-192.0-0.0,voc_e2,12135,"[{""event"":""fullscreenenter"",""trial"":1,""time"":5274}]",NA,NA,NA,NA,NA,4,#1CD855,#FA92F8,10,10,0,38,1,156.60000002384186,37,1,661.9000000357628,10,0,experiment,NA,NA,2,0.5,0.5,5,4,183,5,NA
fcp-trial,232,900373,0.0-193.0-0.0,voc_e2,12135,"[{""event"":""fullscreenenter"",""trial"":1,""time"":5274}]",NA,NA,NA,NA,NA,3,#1CD855,#FA92F8,10,10,0,40,0,718.1000000238419,37,1,684.3999999761581,10,0,experiment,NA,NA,2,0.5,0.5,5,4,184,5,NA
fcp-trial,233,903657,0.0-194.0-0.0,voc_e2,12135,"[{""event"":""fullscreenenter"",""trial"":1,""time"":5274}]",NA,NA,NA,NA,NA,0,#D89F1C,#3386FF,10,0,1,38,1,1274.9000000357628,37,1,502,10,1,experiment,NA,NA,0,0.9,0.1,0,1,185,5,NA
fcp-trial,234,906859,0.0-195.0-0.0,voc_e2,12135,"[{""event"":""fullscreenenter"",""trial"":1,""time"":5274}]",NA,NA,NA,NA,NA,2,#D8271C,#741CD8,10,10,0,40,0,1105.199999988079,37,1,591.5999999642372,10,0,experiment,NA,NA,1,0.3,0.7,3,2,186,5,NA
fcp-trial,235,910123,0.0-196.0-0.0,voc_e2,12135,"[{""event"":""fullscreenenter"",""trial"":1,""time"":5274}]",NA,NA,NA,NA,NA,0,#1CD855,#FA92F8,10,0,0,38,1,1017.6000000238419,39,0,741.5,0,1,experiment,NA,NA,2,0.5,0.5,5,4,187,5,NA
fcp-trial,236,913684,0.0-197.0-0.0,voc_e2,12135,"[{""event"":""fullscreenenter"",""trial"":1,""time"":5274}]",NA,NA,NA,NA,NA,2,#3386FF,#D89F1C,0,10,0,40,0,1521.6000000238419,37,1,532.8999999761581,0,0,experiment,NA,NA,0,0.1,0.9,1,0,188,5,NA
fcp-trial,237,916645,0.0-198.0-0.0,voc_e2,12135,"[{""event"":""fullscreenenter"",""trial"":1,""time"":5274}]",NA,NA,NA,NA,NA,3,#D89F1C,#3386FF,10,0,1,40,0,997.0999999642372,37,1,455.0999999642372,10,1,experiment,NA,NA,0,0.9,0.1,0,1,189,5,NA
fcp-trial,238,920086,0.0-199.0-0.0,voc_e2,12135,"[{""event"":""fullscreenenter"",""trial"":1,""time"":5274}]",NA,NA,NA,NA,NA,1,#1CD855,#FA92F8,0,0,0,40,0,1362.699999988079,39,0,571.1999999880791,0,1,experiment,NA,NA,2,0.5,0.5,5,4,190,5,NA
fcp-trial,239,922936,0.0-200.0-0.0,voc_e2,12135,"[{""event"":""fullscreenenter"",""trial"":1,""time"":5274}]",NA,NA,NA,NA,NA,6,#FA92F8,#1CD855,10,0,1,40,0,828.8999999761581,39,0,514.6999999880791,0,0,experiment,NA,NA,2,0.5,0.5,4,5,191,5,NA
fcp-trial,240,926102,0.0-201.0-0.0,voc_e2,12135,"[{""event"":""fullscreenenter"",""trial"":1,""time"":5274}]",NA,NA,NA,NA,NA,5,#741CD8,#D8271C,10,0,1,38,1,1096.0999999642372,37,1,563.6999999880791,10,1,experiment,NA,NA,1,0.7,0.3,2,3,192,5,NA
fcp-trial,241,928846,0.0-202.0-0.0,voc_e2,12135,"[{""event"":""fullscreenenter"",""trial"":1,""time"":5274}]",NA,NA,NA,NA,NA,2,#1CD855,#FA92F8,0,0,0,40,0,713.1999999880791,37,1,523.4000000357628,0,0,experiment,NA,NA,2,0.5,0.5,5,4,193,5,NA
fcp-trial,242,931306,0.0-203.0-0.0,voc_e2,12135,"[{""event"":""fullscreenenter"",""trial"":1,""time"":5274}]",NA,NA,NA,NA,NA,5,#D89F1C,#3386FF,10,0,1,38,1,122.69999998807907,37,1,828.7999999523163,10,1,experiment,NA,NA,0,0.9,0.1,0,1,194,5,NA
fcp-trial,243,934404,0.0-204.0-0.0,voc_e2,12135,"[{""event"":""fullscreenenter"",""trial"":1,""time"":5274}]",NA,NA,NA,NA,NA,1,#741CD8,#D8271C,10,0,1,38,1,1175.3999999761581,37,1,414.2999999523163,10,1,experiment,NA,NA,1,0.7,0.3,2,3,195,5,NA
fcp-trial,244,937221,0.0-205.0-0.0,voc_e2,12135,"[{""event"":""fullscreenenter"",""trial"":1,""time"":5274}]",NA,NA,NA,NA,NA,3,#3386FF,#D89F1C,0,10,0,40,0,927.3000000119209,39,0,382.199999988079,10,1,experiment,NA,NA,0,0.1,0.9,1,0,196,5,NA
fcp-trial,245,939990,0.0-206.0-0.0,voc_e2,12135,"[{""event"":""fullscreenenter"",""trial"":1,""time"":5274}]",NA,NA,NA,NA,NA,5,#FA92F8,#1CD855,0,0,1,40,0,725.7000000476837,37,1,534.9000000357628,0,1,experiment,NA,NA,2,0.5,0.5,4,5,197,5,NA
fcp-trial,246,942926,0.0-207.0-0.0,voc_e2,12135,"[{""event"":""fullscreenenter"",""trial"":1,""time"":5274}]",NA,NA,NA,NA,NA,6,#741CD8,#D8271C,0,0,1,40,0,961.6999999880791,39,0,468.199999988079,0,0,experiment,NA,NA,1,0.7,0.3,2,3,198,5,NA
fcp-trial,247,946158,0.0-208.0-0.0,voc_e2,12135,"[{""event"":""fullscreenenter"",""trial"":1,""time"":5274}]",NA,NA,NA,NA,NA,0,#1CD855,#FA92F8,0,0,0,38,1,1286.800000011921,37,1,437.9000000357628,0,0,experiment,NA,NA,2,0.5,0.5,5,4,199,5,NA
fcp-trial,248,949136,0.0-209.0-0.0,voc_e2,12135,"[{""event"":""fullscreenenter"",""trial"":1,""time"":5274}]",NA,NA,NA,NA,NA,3,#D8271C,#741CD8,0,10,0,40,0,1070.199999988079,39,0,401.9000000357628,10,1,experiment,NA,NA,1,0.3,0.7,3,2,200,5,NA
fcp-trial,249,951800,0.0-210.0-0.0,voc_e2,12135,"[{""event"":""fullscreenenter"",""trial"":1,""time"":5274}]",NA,NA,NA,NA,NA,6,#D89F1C,#3386FF,10,10,1,40,0,718.1999999880791,37,1,436.300000011921,10,1,experiment,NA,NA,0,0.9,0.1,0,1,201,5,NA
fcp-trial,250,954778,0.0-211.0-0.0,voc_e2,12135,"[{""event"":""fullscreenenter"",""trial"":1,""time"":5274}]",NA,NA,NA,NA,NA,1,#D89F1C,#3386FF,10,0,1,38,1,1069.9000000357628,37,1,400.89999997615814,10,1,experiment,NA,NA,0,0.9,0.1,0,1,202,5,NA
fcp-trial,251,957695,0.0-212.0-0.0,voc_e2,12135,"[{""event"":""fullscreenenter"",""trial"":1,""time"":5274}]",NA,NA,NA,NA,NA,4,#FA92F8,#1CD855,0,10,1,40,0,942.8000000119209,37,1,464.300000011921,0,1,experiment,NA,NA,2,0.5,0.5,4,5,203,5,NA
fcp-trial,252,960781,0.0-213.0-0.0,voc_e2,12135,"[{""event"":""fullscreenenter"",""trial"":1,""time"":5274}]",NA,NA,NA,NA,NA,2,#D8271C,#741CD8,0,10,0,38,1,1120,37,1,459,0,0,experiment,NA,NA,1,0.3,0.7,3,2,204,5,NA
fcp-trial,253,963683,0.0-214.0-0.0,voc_e2,12135,"[{""event"":""fullscreenenter"",""trial"":1,""time"":5274}]",NA,NA,NA,NA,NA,4,#D89F1C,#3386FF,10,0,1,40,0,995.3000000119209,39,0,399.5999999642372,0,0,experiment,NA,NA,0,0.9,0.1,0,1,205,5,NA
fcp-trial,254,967305,0.0-215.0-0.0,voc_e2,12135,"[{""event"":""fullscreenenter"",""trial"":1,""time"":5274}]",NA,NA,NA,NA,NA,0,#3386FF,#D89F1C,0,10,0,38,1,1341.8999999761581,39,0,773.6999999880791,10,1,experiment,NA,NA,0,0.1,0.9,1,0,206,5,NA
fcp-trial,255,970134,0.0-216.0-0.0,voc_e2,12135,"[{""event"":""fullscreenenter"",""trial"":1,""time"":5274}]",NA,NA,NA,NA,NA,2,#3386FF,#D89F1C,0,10,0,40,0,808.1999999880791,39,0,514.7000000476837,10,1,experiment,NA,NA,0,0.1,0.9,1,0,207,5,NA
fcp-trial,256,972750,0.0-217.0-0.0,voc_e2,12135,"[{""event"":""fullscreenenter"",""trial"":1,""time"":5274}]",NA,NA,NA,NA,NA,3,#1CD855,#FA92F8,0,0,0,40,0,24.30000001192093,39,0,1084.5,0,1,experiment,NA,NA,2,0.5,0.5,5,4,208,5,NA
fcp-trial,257,975758,0.0-218.0-0.0,voc_e2,12135,"[{""event"":""fullscreenenter"",""trial"":1,""time"":5274}]",NA,NA,NA,NA,NA,0,#D8271C,#741CD8,0,10,0,38,1,831.3999999761581,39,0,671.1000000238419,10,1,experiment,NA,NA,1,0.3,0.7,3,2,209,5,NA
fcp-trial,258,978732,0.0-219.0-0.0,voc_e2,12135,"[{""event"":""fullscreenenter"",""trial"":1,""time"":5274}]",NA,NA,NA,NA,NA,4,#D8271C,#741CD8,10,10,0,40,0,985.8000000119209,37,1,480.2999999523163,10,0,experiment,NA,NA,1,0.3,0.7,3,2,210,5,NA
audio-instructions,259,983941,0.0-220.0,voc_e2,12135,"[{""event"":""fullscreenenter"",""trial"":1,""time"":5274}]",NA,710.8999999761581,static/audio/pause.wav,NA,0,NA,NA,NA,NA,NA,NA,NA,NA,NA,NA,NA,NA,NA,NA,NA,NA,NA,NA,NA,NA,NA,NA,NA,NA,NA
fcp-trial,260,987677,0.0-221.0-0.0,voc_e2,12135,"[{""event"":""fullscreenenter"",""trial"":1,""time"":5274}]",NA,NA,NA,NA,NA,4,#D8271C,#741CD8,0,10,0,40,0,1723.2999999523163,39,0,505.39999997615814,10,1,experiment,NA,NA,1,0.3,0.7,3,2,211,5,NA
fcp-trial,261,990587,0.0-222.0-0.0,voc_e2,12135,"[{""event"":""fullscreenenter"",""trial"":1,""time"":5274}]",NA,NA,NA,NA,NA,0,#D89F1C,#3386FF,10,0,1,38,1,990.3000000119209,37,1,411.5,10,1,experiment,NA,NA,0,0.9,0.1,0,1,212,5,NA
fcp-trial,262,993396,0.0-223.0-0.0,voc_e2,12135,"[{""event"":""fullscreenenter"",""trial"":1,""time"":5274}]",NA,NA,NA,NA,NA,5,#FA92F8,#1CD855,10,10,1,40,0,928.5999999642372,39,0,371.89999997615814,10,0,experiment,NA,NA,2,0.5,0.5,4,5,213,5,NA
fcp-trial,263,996972,0.0-224.0-0.0,voc_e2,12135,"[{""event"":""fullscreenenter"",""trial"":1,""time"":5274}]",NA,NA,NA,NA,NA,2,#FA92F8,#1CD855,10,0,1,40,0,1636.8999999761581,39,0,431.5,0,0,experiment,NA,NA,2,0.5,0.5,4,5,214,5,NA
fcp-trial,264,1000256,0.0-225.0-0.0,voc_e2,12135,"[{""event"":""fullscreenenter"",""trial"":1,""time"":5274}]",NA,NA,NA,NA,NA,1,#741CD8,#D8271C,0,0,1,38,1,1322.800000011921,37,1,452.5999999642372,0,1,experiment,NA,NA,1,0.7,0.3,2,3,215,5,NA
fcp-trial,265,1002845,0.0-226.0-0.0,voc_e2,12135,"[{""event"":""fullscreenenter"",""trial"":1,""time"":5274}]",NA,NA,NA,NA,NA,3,#3386FF,#D89F1C,0,10,0,40,0,655.1000000238419,39,0,426.5,10,1,experiment,NA,NA,0,0.1,0.9,1,0,216,5,NA
fcp-trial,266,1005574,0.0-227.0-0.0,voc_e2,12135,"[{""event"":""fullscreenenter"",""trial"":1,""time"":5274}]",NA,NA,NA,NA,NA,3,#741CD8,#D8271C,0,10,1,40,0,742.8000000119209,39,0,477.800000011921,10,0,experiment,NA,NA,1,0.7,0.3,2,3,217,5,NA
fcp-trial,267,1008138,0.0-228.0-0.0,voc_e2,12135,"[{""event"":""fullscreenenter"",""trial"":1,""time"":5274}]",NA,NA,NA,NA,NA,3,#1CD855,#FA92F8,10,10,0,40,0,580.2000000476837,39,0,475.7999999523163,10,1,experiment,NA,NA,2,0.5,0.5,5,4,218,5,NA
fcp-trial,268,1010901,0.0-229.0-0.0,voc_e2,12135,"[{""event"":""fullscreenenter"",""trial"":1,""time"":5274}]",NA,NA,NA,NA,NA,1,#D89F1C,#3386FF,10,0,1,38,1,820.5999999642372,37,1,434.2000000476837,10,1,experiment,NA,NA,0,0.9,0.1,0,1,219,5,NA
fcp-trial,269,1013688,0.0-230.0-0.0,voc_e2,12135,"[{""event"":""fullscreenenter"",""trial"":1,""time"":5274}]",NA,NA,NA,NA,NA,6,#D8271C,#741CD8,0,10,0,40,0,806.2000000476837,37,1,473.199999988079,0,0,experiment,NA,NA,1,0.3,0.7,3,2,220,5,NA
fcp-trial,270,1016529,0.0-231.0-0.0,voc_e2,12135,"[{""event"":""fullscreenenter"",""trial"":1,""time"":5274}]",NA,NA,NA,NA,NA,6,#1CD855,#FA92F8,10,0,0,40,0,867.3000000119209,39,0,465.699999988079,0,1,experiment,NA,NA,2,0.5,0.5,5,4,221,5,NA
fcp-trial,271,1019364,0.0-232.0-0.0,voc_e2,12135,"[{""event"":""fullscreenenter"",""trial"":1,""time"":5274}]",NA,NA,NA,NA,NA,1,#1CD855,#FA92F8,10,0,0,38,1,713,39,0,616.8999999761581,0,1,experiment,NA,NA,2,0.5,0.5,5,4,222,5,NA
fcp-trial,272,1022178,0.0-233.0-0.0,voc_e2,12135,"[{""event"":""fullscreenenter"",""trial"":1,""time"":5274}]",NA,NA,NA,NA,NA,6,#3386FF,#D89F1C,0,10,0,40,0,850.3000000119209,39,0,458.60000002384186,10,1,experiment,NA,NA,0,0.1,0.9,1,0,223,5,NA
fcp-trial,273,1024999,0.0-234.0-0.0,voc_e2,12135,"[{""event"":""fullscreenenter"",""trial"":1,""time"":5274}]",NA,NA,NA,NA,NA,0,#741CD8,#D8271C,10,10,1,38,1,947.5,37,1,365.10000002384186,10,1,experiment,NA,NA,1,0.7,0.3,2,3,224,5,NA
fcp-trial,274,1028096,0.0-235.0-0.0,voc_e2,12135,"[{""event"":""fullscreenenter"",""trial"":1,""time"":5274}]",NA,NA,NA,NA,NA,2,#D89F1C,#3386FF,10,10,1,38,1,1209.199999988079,37,1,381.0999999642372,10,1,experiment,NA,NA,0,0.9,0.1,0,1,225,5,NA
fcp-trial,275,1030653,0.0-236.0-0.0,voc_e2,12135,"[{""event"":""fullscreenenter"",""trial"":1,""time"":5274}]",NA,NA,NA,NA,NA,4,#FA92F8,#1CD855,10,10,1,40,0,711.3000000119209,39,0,339.69999998807907,10,0,experiment,NA,NA,2,0.5,0.5,4,5,226,6,NA
fcp-trial,276,1033318,0.0-237.0-0.0,voc_e2,12135,"[{""event"":""fullscreenenter"",""trial"":1,""time"":5274}]",NA,NA,NA,NA,NA,5,#D8271C,#741CD8,0,10,0,40,0,637.5999999642372,39,0,519,10,1,experiment,NA,NA,1,0.3,0.7,3,2,227,6,NA
fcp-trial,277,1035877,0.0-238.0-0.0,voc_e2,12135,"[{""event"":""fullscreenenter"",""trial"":1,""time"":5274}]",NA,NA,NA,NA,NA,5,#D89F1C,#3386FF,10,0,1,40,0,571.3000000119209,39,0,479.9000000357628,0,0,experiment,NA,NA,0,0.9,0.1,0,1,228,6,NA
fcp-trial,278,1038567,0.0-239.0-0.0,voc_e2,12135,"[{""event"":""fullscreenenter"",""trial"":1,""time"":5274}]",NA,NA,NA,NA,NA,4,#3386FF,#D89F1C,10,10,0,40,0,630.6999999880791,37,1,552.8000000119209,10,0,experiment,NA,NA,0,0.1,0.9,1,0,229,6,NA
fcp-trial,279,1041530,0.0-240.0-0.0,voc_e2,12135,"[{""event"":""fullscreenenter"",""trial"":1,""time"":5274}]",NA,NA,NA,NA,NA,2,#D8271C,#741CD8,0,10,0,38,1,845.4000000357628,39,0,610.5999999642372,10,1,experiment,NA,NA,1,0.3,0.7,3,2,230,6,NA
fcp-trial,280,1044679,0.0-241.0-0.0,voc_e2,12135,"[{""event"":""fullscreenenter"",""trial"":1,""time"":5274}]",NA,NA,NA,NA,NA,0,#1CD855,#FA92F8,0,10,0,38,1,911.2000000476837,39,0,732.5,10,1,experiment,NA,NA,2,0.5,0.5,5,4,231,6,NA
fcp-trial,281,1047412,0.0-242.0-0.0,voc_e2,12135,"[{""event"":""fullscreenenter"",""trial"":1,""time"":5274}]",NA,NA,NA,NA,NA,6,#D8271C,#741CD8,0,10,0,40,0,734.1000000238419,37,1,493.5999999642372,0,0,experiment,NA,NA,1,0.3,0.7,3,2,232,6,NA
fcp-trial,282,1050232,0.0-243.0-0.0,voc_e2,12135,"[{""event"":""fullscreenenter"",""trial"":1,""time"":5274}]",NA,NA,NA,NA,NA,6,#1CD855,#FA92F8,10,10,0,40,0,894.8000000119209,37,1,418.2000000476837,10,0,experiment,NA,NA,2,0.5,0.5,5,4,233,6,NA
fcp-trial,283,1053263,0.0-244.0-0.0,voc_e2,12135,"[{""event"":""fullscreenenter"",""trial"":1,""time"":5274}]",NA,NA,NA,NA,NA,0,#3386FF,#D89F1C,0,10,0,38,1,1104.0999999642372,39,0,419.5,10,1,experiment,NA,NA,0,0.1,0.9,1,0,234,6,NA
fcp-trial,284,1056615,0.0-245.0-0.0,voc_e2,12135,"[{""event"":""fullscreenenter"",""trial"":1,""time"":5274}]",NA,NA,NA,NA,NA,6,#D89F1C,#3386FF,10,0,1,38,1,1127.5,37,1,717.4000000357628,10,1,experiment,NA,NA,0,0.9,0.1,0,1,235,6,NA
fcp-trial,285,1059565,0.0-246.0-0.0,voc_e2,12135,"[{""event"":""fullscreenenter"",""trial"":1,""time"":5274}]",NA,NA,NA,NA,NA,0,#1CD855,#FA92F8,10,10,0,38,1,880.8000000119209,39,0,562.5,10,1,experiment,NA,NA,2,0.5,0.5,5,4,236,6,NA
fcp-trial,286,1062466,0.0-247.0-0.0,voc_e2,12135,"[{""event"":""fullscreenenter"",""trial"":1,""time"":5274}]",NA,NA,NA,NA,NA,2,#741CD8,#D8271C,0,0,1,40,0,954.8000000119209,37,1,439.10000002384186,0,1,experiment,NA,NA,1,0.7,0.3,2,3,237,6,NA
fcp-trial,287,1065771,0.0-248.0-0.0,voc_e2,12135,"[{""event"":""fullscreenenter"",""trial"":1,""time"":5274}]",NA,NA,NA,NA,NA,1,#3386FF,#D89F1C,0,10,0,38,1,1354.7999999523163,39,0,440.60000002384186,10,1,experiment,NA,NA,0,0.1,0.9,1,0,238,6,NA
fcp-trial,288,1068620,0.0-249.0-0.0,voc_e2,12135,"[{""event"":""fullscreenenter"",""trial"":1,""time"":5274}]",NA,NA,NA,NA,NA,5,#FA92F8,#1CD855,0,10,1,40,0,818,37,1,524.1999999880791,0,1,experiment,NA,NA,2,0.5,0.5,4,5,239,6,NA
fcp-trial,289,1071120,0.0-250.0-0.0,voc_e2,12135,"[{""event"":""fullscreenenter"",""trial"":1,""time"":5274}]",NA,NA,NA,NA,NA,5,#3386FF,#D89F1C,0,10,0,40,0,483.80000001192093,37,1,508.2000000476837,0,0,experiment,NA,NA,0,0.1,0.9,1,0,240,6,NA
fcp-trial,290,1073982,0.0-251.0-0.0,voc_e2,12135,"[{""event"":""fullscreenenter"",""trial"":1,""time"":5274}]",NA,NA,NA,NA,NA,0,#D8271C,#741CD8,0,0,0,38,1,811.8999999761581,39,0,541.5999999642372,0,1,experiment,NA,NA,1,0.3,0.7,3,2,241,6,NA
fcp-trial,291,1076522,0.0-252.0-0.0,voc_e2,12135,"[{""event"":""fullscreenenter"",""trial"":1,""time"":5274}]",NA,NA,NA,NA,NA,4,#FA92F8,#1CD855,0,0,1,40,0,483.69999998807907,39,0,548.8000000119209,0,0,experiment,NA,NA,2,0.5,0.5,4,5,242,6,NA
fcp-trial,292,1079093,0.0-253.0-0.0,voc_e2,12135,"[{""event"":""fullscreenenter"",""trial"":1,""time"":5274}]",NA,NA,NA,NA,NA,3,#3386FF,#D89F1C,10,10,0,40,0,634.8000000119209,39,0,429.39999997615814,10,1,experiment,NA,NA,0,0.1,0.9,1,0,243,6,NA
fcp-trial,293,1081849,0.0-254.0-0.0,voc_e2,12135,"[{""event"":""fullscreenenter"",""trial"":1,""time"":5274}]",NA,NA,NA,NA,NA,5,#D8271C,#741CD8,0,10,0,40,0,795.7000000476837,37,1,451.4000000357628,0,0,experiment,NA,NA,1,0.3,0.7,3,2,244,6,NA
fcp-trial,294,1084732,0.0-255.0-0.0,voc_e2,12135,"[{""event"":""fullscreenenter"",""trial"":1,""time"":5274}]",NA,NA,NA,NA,NA,2,#1CD855,#FA92F8,0,0,0,40,0,747.1000000238419,39,0,626.7000000476837,0,1,experiment,NA,NA,2,0.5,0.5,5,4,245,6,NA
fcp-trial,295,1087472,0.0-256.0-0.0,voc_e2,12135,"[{""event"":""fullscreenenter"",""trial"":1,""time"":5274}]",NA,NA,NA,NA,NA,1,#741CD8,#D8271C,0,0,1,40,0,722.5,39,0,510.89999997615814,0,0,experiment,NA,NA,1,0.7,0.3,2,3,246,6,NA
fcp-trial,296,1090279,0.0-257.0-0.0,voc_e2,12135,"[{""event"":""fullscreenenter"",""trial"":1,""time"":5274}]",NA,NA,NA,NA,NA,4,#741CD8,#D8271C,10,0,1,40,0,849.5,39,0,448.699999988079,0,0,experiment,NA,NA,1,0.7,0.3,2,3,247,6,NA
fcp-trial,297,1093013,0.0-258.0-0.0,voc_e2,12135,"[{""event"":""fullscreenenter"",""trial"":1,""time"":5274}]",NA,NA,NA,NA,NA,2,#D89F1C,#3386FF,10,0,1,40,0,833.2999999523163,39,0,395.39999997615814,0,0,experiment,NA,NA,0,0.9,0.1,0,1,248,6,NA
fcp-trial,298,1095799,0.0-259.0-0.0,voc_e2,12135,"[{""event"":""fullscreenenter"",""trial"":1,""time"":5274}]",NA,NA,NA,NA,NA,1,#1CD855,#FA92F8,0,10,0,38,1,925.3999999761581,37,1,353.60000002384186,0,0,experiment,NA,NA,2,0.5,0.5,5,4,249,6,NA
fcp-trial,299,1098427,0.0-260.0-0.0,voc_e2,12135,"[{""event"":""fullscreenenter"",""trial"":1,""time"":5274}]",NA,NA,NA,NA,NA,3,#1CD855,#FA92F8,10,10,0,40,0,760.8000000119209,39,0,360.7000000476837,10,1,experiment,NA,NA,2,0.5,0.5,5,4,250,6,NA
fcp-trial,300,1100994,0.0-261.0-0.0,voc_e2,12135,"[{""event"":""fullscreenenter"",""trial"":1,""time"":5274}]",NA,NA,NA,NA,NA,4,#3386FF,#D89F1C,0,10,0,40,0,615.6999999880791,39,0,444.9000000357628,10,1,experiment,NA,NA,0,0.1,0.9,1,0,251,6,NA
fcp-trial,301,1103871,0.0-262.0-0.0,voc_e2,12135,"[{""event"":""fullscreenenter"",""trial"":1,""time"":5274}]",NA,NA,NA,NA,NA,3,#D8271C,#741CD8,0,10,0,40,0,934.5,39,0,436.7999999523163,10,1,experiment,NA,NA,1,0.3,0.7,3,2,252,6,NA
fcp-trial,302,1106507,0.0-263.0-0.0,voc_e2,12135,"[{""event"":""fullscreenenter"",""trial"":1,""time"":5274}]",NA,NA,NA,NA,NA,5,#FA92F8,#1CD855,10,10,1,40,0,637.3999999761581,37,1,492.300000011921,10,1,experiment,NA,NA,2,0.5,0.5,4,5,253,6,NA
fcp-trial,303,1109494,0.0-264.0-0.0,voc_e2,12135,"[{""event"":""fullscreenenter"",""trial"":1,""time"":5274}]",NA,NA,NA,NA,NA,2,#FA92F8,#1CD855,10,0,1,38,1,913.1999999880791,37,1,565.7999999523163,10,1,experiment,NA,NA,2,0.5,0.5,4,5,254,6,NA
fcp-trial,304,1112387,0.0-265.0-0.0,voc_e2,12135,"[{""event"":""fullscreenenter"",""trial"":1,""time"":5274}]",NA,NA,NA,NA,NA,1,#3386FF,#D89F1C,0,10,0,38,1,1013.5,39,0,371.9000000357628,10,1,experiment,NA,NA,0,0.1,0.9,1,0,255,6,NA
fcp-trial,305,1114860,0.0-266.0-0.0,voc_e2,12135,"[{""event"":""fullscreenenter"",""trial"":1,""time"":5274}]",NA,NA,NA,NA,NA,6,#D8271C,#741CD8,0,10,0,40,0,509.5,39,0,456.5,10,1,experiment,NA,NA,1,0.3,0.7,3,2,256,6,NA
fcp-trial,306,1117403,0.0-267.0-0.0,voc_e2,12135,"[{""event"":""fullscreenenter"",""trial"":1,""time"":5274}]",NA,NA,NA,NA,NA,6,#1CD855,#FA92F8,10,10,0,40,0,595.5,37,1,441,10,0,experiment,NA,NA,2,0.5,0.5,5,4,257,6,NA
fcp-trial,307,1120300,0.0-268.0-0.0,voc_e2,12135,"[{""event"":""fullscreenenter"",""trial"":1,""time"":5274}]",NA,NA,NA,NA,NA,0,#3386FF,#D89F1C,10,10,0,38,1,1014.7999999523163,39,0,374.2000000476837,10,1,experiment,NA,NA,0,0.1,0.9,1,0,258,6,NA
fcp-trial,308,1122896,0.0-269.0-0.0,voc_e2,12135,"[{""event"":""fullscreenenter"",""trial"":1,""time"":5274}]",NA,NA,NA,NA,NA,4,#741CD8,#D8271C,10,0,1,40,0,700.3000000119209,39,0,387.800000011921,0,0,experiment,NA,NA,1,0.7,0.3,2,3,259,6,NA
fcp-trial,309,1125535,0.0-270.0-0.0,voc_e2,12135,"[{""event"":""fullscreenenter"",""trial"":1,""time"":5274}]",NA,NA,NA,NA,NA,6,#3386FF,#D89F1C,0,10,0,40,0,724.0999999642372,39,0,407.699999988079,10,1,experiment,NA,NA,0,0.1,0.9,1,0,260,6,NA
fcp-trial,310,1128309,0.0-271.0-0.0,voc_e2,12135,"[{""event"":""fullscreenenter"",""trial"":1,""time"":5274}]",NA,NA,NA,NA,NA,1,#FA92F8,#1CD855,0,0,1,40,0,705,39,0,561.1999999880791,0,0,experiment,NA,NA,2,0.5,0.5,4,5,261,6,NA
fcp-trial,311,1130832,0.0-272.0-0.0,voc_e2,12135,"[{""event"":""fullscreenenter"",""trial"":1,""time"":5274}]",NA,NA,NA,NA,NA,5,#741CD8,#D8271C,0,0,1,40,0,612.2000000476837,37,1,404.60000002384186,0,1,experiment,NA,NA,1,0.7,0.3,2,3,262,6,NA
fcp-trial,312,1133631,0.0-273.0-0.0,voc_e2,12135,"[{""event"":""fullscreenenter"",""trial"":1,""time"":5274}]",NA,NA,NA,NA,NA,3,#FA92F8,#1CD855,10,0,1,40,0,574.5999999642372,37,1,716.3999999761581,10,1,experiment,NA,NA,2,0.5,0.5,4,5,263,6,NA
fcp-trial,313,1136221,0.0-274.0-0.0,voc_e2,12135,"[{""event"":""fullscreenenter"",""trial"":1,""time"":5274}]",NA,NA,NA,NA,NA,0,#FA92F8,#1CD855,0,0,1,40,0,89.10000002384186,37,1,992.5,0,1,experiment,NA,NA,2,0.5,0.5,4,5,264,6,NA
fcp-trial,314,1138893,0.0-275.0-0.0,voc_e2,12135,"[{""event"":""fullscreenenter"",""trial"":1,""time"":5274}]",NA,NA,NA,NA,NA,5,#D89F1C,#3386FF,10,0,1,40,0,815.3999999761581,39,0,349.30000001192093,0,0,experiment,NA,NA,0,0.9,0.1,0,1,265,6,NA
fcp-trial,315,1142251,0.0-276.0-0.0,voc_e2,12135,"[{""event"":""fullscreenenter"",""trial"":1,""time"":5274}]",NA,NA,NA,NA,NA,2,#D8271C,#741CD8,0,10,0,38,1,1418.699999988079,39,0,431.7000000476837,10,1,experiment,NA,NA,1,0.3,0.7,3,2,266,6,NA
fcp-trial,316,1145193,0.0-277.0-0.0,voc_e2,12135,"[{""event"":""fullscreenenter"",""trial"":1,""time"":5274}]",NA,NA,NA,NA,NA,1,#D8271C,#741CD8,0,10,0,38,1,737.3000000119209,37,1,698.6999999880791,0,0,experiment,NA,NA,1,0.3,0.7,3,2,267,6,NA
fcp-trial,317,1147843,0.0-278.0-0.0,voc_e2,12135,"[{""event"":""fullscreenenter"",""trial"":1,""time"":5274}]",NA,NA,NA,NA,NA,3,#3386FF,#D89F1C,0,10,0,40,0,845.9000000357628,39,0,299.0999999642372,10,1,experiment,NA,NA,0,0.1,0.9,1,0,268,6,NA
fcp-trial,318,1150647,0.0-279.0-0.0,voc_e2,12135,"[{""event"":""fullscreenenter"",""trial"":1,""time"":5274}]",NA,NA,NA,NA,NA,4,#1CD855,#FA92F8,0,0,0,40,0,566.8000000119209,39,0,730,0,1,experiment,NA,NA,2,0.5,0.5,5,4,269,6,NA
fcp-trial,319,1153357,0.0-280.0-0.0,voc_e2,12135,"[{""event"":""fullscreenenter"",""trial"":1,""time"":5274}]",NA,NA,NA,NA,NA,0,#741CD8,#D8271C,10,0,1,38,1,737.1000000238419,37,1,464.89999997615814,10,1,experiment,NA,NA,1,0.7,0.3,2,3,270,6,NA
fcp-trial,320,1156201,0.0-281.0-0.0,voc_e2,12135,"[{""event"":""fullscreenenter"",""trial"":1,""time"":5274}]",NA,NA,NA,NA,NA,4,#D89F1C,#3386FF,10,0,1,40,0,670,37,1,665.8000000119209,10,1,experiment,NA,NA,0,0.9,0.1,0,1,271,7,NA
fcp-trial,321,1158744,0.0-282.0-0.0,voc_e2,12135,"[{""event"":""fullscreenenter"",""trial"":1,""time"":5274}]",NA,NA,NA,NA,NA,3,#741CD8,#D8271C,0,0,1,40,0,632.8000000119209,39,0,403.199999988079,0,0,experiment,NA,NA,1,0.7,0.3,2,3,272,7,NA
fcp-trial,322,1161243,0.0-283.0-0.0,voc_e2,12135,"[{""event"":""fullscreenenter"",""trial"":1,""time"":5274}]",NA,NA,NA,NA,NA,2,#D89F1C,#3386FF,0,0,1,40,0,543.8000000119209,39,0,450.0999999642372,0,0,experiment,NA,NA,0,0.9,0.1,0,1,273,7,NA
fcp-trial,323,1163543,0.0-284.0-0.0,voc_e2,12135,"[{""event"":""fullscreenenter"",""trial"":1,""time"":5274}]",NA,NA,NA,NA,NA,4,#D89F1C,#3386FF,10,0,1,40,0,413.69999998807907,39,0,380.5,0,0,experiment,NA,NA,0,0.9,0.1,0,1,274,7,NA
fcp-trial,324,1166566,0.0-285.0-0.0,voc_e2,12135,"[{""event"":""fullscreenenter"",""trial"":1,""time"":5274}]",NA,NA,NA,NA,NA,2,#1CD855,#FA92F8,0,10,0,38,1,936.3999999761581,39,0,577.2999999523163,10,1,experiment,NA,NA,2,0.5,0.5,5,4,275,7,NA
fcp-trial,325,1169334,0.0-286.0-0.0,voc_e2,12135,"[{""event"":""fullscreenenter"",""trial"":1,""time"":5274}]",NA,NA,NA,NA,NA,6,#FA92F8,#1CD855,0,10,1,40,0,735.8999999761581,37,1,524.7999999523163,0,1,experiment,NA,NA,2,0.5,0.5,4,5,276,7,NA
fcp-trial,326,1171680,0.0-287.0-0.0,voc_e2,12135,"[{""event"":""fullscreenenter"",""trial"":1,""time"":5274}]",NA,NA,NA,NA,NA,2,#741CD8,#D8271C,10,0,1,40,0,100.10000002384186,37,1,737.7000000476837,10,1,experiment,NA,NA,1,0.7,0.3,2,3,277,7,NA
fcp-trial,327,1174576,0.0-288.0-0.0,voc_e2,12135,"[{""event"":""fullscreenenter"",""trial"":1,""time"":5274}]",NA,NA,NA,NA,NA,5,#D8271C,#741CD8,0,10,0,40,0,999.1000000238419,39,0,390,10,1,experiment,NA,NA,1,0.3,0.7,3,2,278,7,NA
fcp-trial,328,1177572,0.0-289.0-0.0,voc_e2,12135,"[{""event"":""fullscreenenter"",""trial"":1,""time"":5274}]",NA,NA,NA,NA,NA,0,#D89F1C,#3386FF,0,0,1,38,1,1127.4000000357628,37,1,361.800000011921,0,1,experiment,NA,NA,0,0.9,0.1,0,1,279,7,NA
fcp-trial,329,1180375,0.0-290.0-0.0,voc_e2,12135,"[{""event"":""fullscreenenter"",""trial"":1,""time"":5274}]",NA,NA,NA,NA,NA,5,#1CD855,#FA92F8,0,10,0,40,0,782.1999999880791,37,1,514.2000000476837,0,0,experiment,NA,NA,2,0.5,0.5,5,4,280,7,NA
fcp-trial,330,1182974,0.0-291.0-0.0,voc_e2,12135,"[{""event"":""fullscreenenter"",""trial"":1,""time"":5274}]",NA,NA,NA,NA,NA,1,#D8271C,#741CD8,0,10,0,40,0,527.1999999880791,39,0,567.3999999761581,10,1,experiment,NA,NA,1,0.3,0.7,3,2,281,7,NA
fcp-trial,331,1185396,0.0-292.0-0.0,voc_e2,12135,"[{""event"":""fullscreenenter"",""trial"":1,""time"":5274}]",NA,NA,NA,NA,NA,3,#FA92F8,#1CD855,10,10,1,40,0,611.6999999880791,39,0,303.80000001192093,10,0,experiment,NA,NA,2,0.5,0.5,4,5,282,7,NA
fcp-trial,332,1187725,0.0-293.0-0.0,voc_e2,12135,"[{""event"":""fullscreenenter"",""trial"":1,""time"":5274}]",NA,NA,NA,NA,NA,6,#D89F1C,#3386FF,0,0,1,40,0,431.2999999523163,37,1,390.4000000357628,0,1,experiment,NA,NA,0,0.9,0.1,0,1,283,7,NA
fcp-trial,333,1190430,0.0-294.0-0.0,voc_e2,12135,"[{""event"":""fullscreenenter"",""trial"":1,""time"":5274}]",NA,NA,NA,NA,NA,2,#D89F1C,#3386FF,10,0,1,40,0,625,37,1,572.9000000357628,10,1,experiment,NA,NA,0,0.9,0.1,0,1,284,7,NA
fcp-trial,334,1192762,0.0-295.0-0.0,voc_e2,12135,"[{""event"":""fullscreenenter"",""trial"":1,""time"":5274}]",NA,NA,NA,NA,NA,6,#D8271C,#741CD8,10,10,0,40,0,394,37,1,430.800000011921,10,0,experiment,NA,NA,1,0.3,0.7,3,2,285,7,NA
fcp-trial,335,1195109,0.0-296.0-0.0,voc_e2,12135,"[{""event"":""fullscreenenter"",""trial"":1,""time"":5274}]",NA,NA,NA,NA,NA,4,#741CD8,#D8271C,10,0,1,40,0,346.89999997615814,37,1,491.699999988079,10,1,experiment,NA,NA,1,0.7,0.3,2,3,286,7,NA
fcp-trial,336,1197658,0.0-297.0-0.0,voc_e2,12135,"[{""event"":""fullscreenenter"",""trial"":1,""time"":5274}]",NA,NA,NA,NA,NA,1,#1CD855,#FA92F8,0,0,0,40,0,525.5,37,1,518,0,0,experiment,NA,NA,2,0.5,0.5,5,4,287,7,NA
fcp-trial,337,1200260,0.0-298.0-0.0,voc_e2,12135,"[{""event"":""fullscreenenter"",""trial"":1,""time"":5274}]",NA,NA,NA,NA,NA,0,#741CD8,#D8271C,10,10,1,40,0,600.6999999880791,37,1,494.5,10,1,experiment,NA,NA,1,0.7,0.3,2,3,288,7,NA
fcp-trial,338,1202871,0.0-299.0-0.0,voc_e2,12135,"[{""event"":""fullscreenenter"",""trial"":1,""time"":5274}]",NA,NA,NA,NA,NA,5,#D89F1C,#3386FF,10,0,1,40,0,639.1000000238419,37,1,465.10000002384186,10,1,experiment,NA,NA,0,0.9,0.1,0,1,289,7,NA
fcp-trial,339,1205342,0.0-300.0-0.0,voc_e2,12135,"[{""event"":""fullscreenenter"",""trial"":1,""time"":5274}]",NA,NA,NA,NA,NA,1,#3386FF,#D89F1C,0,10,0,40,0,468.5,39,0,495.5,10,1,experiment,NA,NA,0,0.1,0.9,1,0,290,7,NA
fcp-trial,340,1207882,0.0-301.0-0.0,voc_e2,12135,"[{""event"":""fullscreenenter"",""trial"":1,""time"":5274}]",NA,NA,NA,NA,NA,4,#1CD855,#FA92F8,0,10,0,40,0,628.5,37,1,405.300000011921,0,0,experiment,NA,NA,2,0.5,0.5,5,4,291,7,NA
fcp-trial,341,1210500,0.0-302.0-0.0,voc_e2,12135,"[{""event"":""fullscreenenter"",""trial"":1,""time"":5274}]",NA,NA,NA,NA,NA,3,#D8271C,#741CD8,10,10,0,40,0,640.5999999642372,37,1,468.89999997615814,10,0,experiment,NA,NA,1,0.3,0.7,3,2,292,7,NA
fcp-trial,342,1212829,0.0-303.0-0.0,voc_e2,12135,"[{""event"":""fullscreenenter"",""trial"":1,""time"":5274}]",NA,NA,NA,NA,NA,0,#1CD855,#FA92F8,10,10,0,40,0,221.69999998807907,37,1,598.9000000357628,10,0,experiment,NA,NA,2,0.5,0.5,5,4,293,7,NA
fcp-trial,343,1215014,0.0-304.0-0.0,voc_e2,12135,"[{""event"":""fullscreenenter"",""trial"":1,""time"":5274}]",NA,NA,NA,NA,NA,3,#D89F1C,#3386FF,10,0,1,40,0,202.5,37,1,473.800000011921,10,1,experiment,NA,NA,0,0.9,0.1,0,1,294,7,NA
fcp-trial,344,1217090,0.0-305.0-0.0,voc_e2,12135,"[{""event"":""fullscreenenter"",""trial"":1,""time"":5274}]",NA,NA,NA,NA,NA,6,#1CD855,#FA92F8,10,0,0,40,0,186.5,37,1,382.300000011921,10,0,experiment,NA,NA,2,0.5,0.5,5,4,295,7,NA
fcp-trial,345,1219358,0.0-306.0-0.0,voc_e2,12135,"[{""event"":""fullscreenenter"",""trial"":1,""time"":5274}]",NA,NA,NA,NA,NA,4,#D8271C,#741CD8,10,10,0,40,0,278.69999998807907,37,1,482.300000011921,10,0,experiment,NA,NA,1,0.3,0.7,3,2,296,7,NA
fcp-trial,346,1221758,0.0-307.0-0.0,voc_e2,12135,"[{""event"":""fullscreenenter"",""trial"":1,""time"":5274}]",NA,NA,NA,NA,NA,5,#FA92F8,#1CD855,10,10,1,40,0,435.0999999642372,39,0,459.10000002384186,10,0,experiment,NA,NA,2,0.5,0.5,4,5,297,7,NA
fcp-trial,347,1223994,0.0-308.0-0.0,voc_e2,12135,"[{""event"":""fullscreenenter"",""trial"":1,""time"":5274}]",NA,NA,NA,NA,NA,5,#3386FF,#D89F1C,0,10,0,40,0,184.30000001192093,39,0,544.1000000238419,10,1,experiment,NA,NA,0,0.1,0.9,1,0,298,7,NA
fcp-trial,348,1226248,0.0-309.0-0.0,voc_e2,12135,"[{""event"":""fullscreenenter"",""trial"":1,""time"":5274}]",NA,NA,NA,NA,NA,2,#1CD855,#FA92F8,10,10,0,40,0,275.89999997615814,39,0,470.0999999642372,10,1,experiment,NA,NA,2,0.5,0.5,5,4,299,7,NA
fcp-trial,349,1228508,0.0-310.0-0.0,voc_e2,12135,"[{""event"":""fullscreenenter"",""trial"":1,""time"":5274}]",NA,NA,NA,NA,NA,3,#3386FF,#D89F1C,0,10,0,40,0,382.69999998807907,37,1,367.800000011921,0,0,experiment,NA,NA,0,0.1,0.9,1,0,300,7,NA
fcp-trial,350,1230583,0.0-311.0-0.0,voc_e2,12135,"[{""event"":""fullscreenenter"",""trial"":1,""time"":5274}]",NA,NA,NA,NA,NA,6,#741CD8,#D8271C,10,10,1,40,0,125.69999998807907,37,1,443.199999988079,10,1,experiment,NA,NA,1,0.7,0.3,2,3,301,7,NA
fcp-trial,351,1232656,0.0-312.0-0.0,voc_e2,12135,"[{""event"":""fullscreenenter"",""trial"":1,""time"":5274}]",NA,NA,NA,NA,NA,1,#1CD855,#FA92F8,0,0,0,40,0,164.80000001192093,39,0,400,0,1,experiment,NA,NA,2,0.5,0.5,5,4,302,7,NA
fcp-trial,352,1234724,0.0-313.0-0.0,voc_e2,12135,"[{""event"":""fullscreenenter"",""trial"":1,""time"":5274}]",NA,NA,NA,NA,NA,2,#D8271C,#741CD8,0,10,0,40,0,13.300000011920929,37,1,546.4000000357628,0,0,experiment,NA,NA,1,0.3,0.7,3,2,303,7,NA
fcp-trial,353,1237141,0.0-314.0-0.0,voc_e2,12135,"[{""event"":""fullscreenenter"",""trial"":1,""time"":5274}]",NA,NA,NA,NA,NA,2,#3386FF,#D89F1C,0,10,0,40,0,480.19999998807907,39,0,429.699999988079,10,1,experiment,NA,NA,0,0.1,0.9,1,0,304,7,NA
fcp-trial,354,1239240,0.0-315.0-0.0,voc_e2,12135,"[{""event"":""fullscreenenter"",""trial"":1,""time"":5274}]",NA,NA,NA,NA,NA,4,#D89F1C,#3386FF,10,0,1,40,0,151.69999998807907,37,1,441.2000000476837,10,1,experiment,NA,NA,0,0.9,0.1,0,1,305,7,NA
fcp-trial,355,1241306,0.0-316.0-0.0,voc_e2,12135,"[{""event"":""fullscreenenter"",""trial"":1,""time"":5274}]",NA,NA,NA,NA,NA,1,#D8271C,#741CD8,10,0,0,40,0,154.5,37,1,405.199999988079,10,0,experiment,NA,NA,1,0.3,0.7,3,2,306,7,NA
fcp-trial,356,1243330,0.0-317.0-0.0,voc_e2,12135,"[{""event"":""fullscreenenter"",""trial"":1,""time"":5274}]",NA,NA,NA,NA,NA,0,#FA92F8,#1CD855,10,10,1,40,0,137.19999998807907,37,1,379.89999997615814,10,1,experiment,NA,NA,2,0.5,0.5,4,5,307,7,NA
fcp-trial,357,1245637,0.0-318.0-0.0,voc_e2,12135,"[{""event"":""fullscreenenter"",""trial"":1,""time"":5274}]",NA,NA,NA,NA,NA,0,#D89F1C,#3386FF,10,10,1,40,0,317.60000002384186,39,0,481.60000002384186,10,0,experiment,NA,NA,0,0.9,0.1,0,1,308,7,NA
fcp-trial,358,1247789,0.0-319.0-0.0,voc_e2,12135,"[{""event"":""fullscreenenter"",""trial"":1,""time"":5274}]",NA,NA,NA,NA,NA,3,#D8271C,#741CD8,0,10,0,40,0,172.4000000357628,39,0,472.9000000357628,10,1,experiment,NA,NA,1,0.3,0.7,3,2,309,7,NA
fcp-trial,359,1250519,0.0-320.0-0.0,voc_e2,12135,"[{""event"":""fullscreenenter"",""trial"":1,""time"":5274}]",NA,NA,NA,NA,NA,5,#741CD8,#D8271C,10,0,1,40,0,762.3000000119209,39,0,462.199999988079,0,0,experiment,NA,NA,1,0.7,0.3,2,3,310,7,NA
fcp-trial,360,1252846,0.0-321.0-0.0,voc_e2,12135,"[{""event"":""fullscreenenter"",""trial"":1,""time"":5274}]",NA,NA,NA,NA,NA,1,#D89F1C,#3386FF,10,0,1,40,0,481.60000002384186,37,1,337.80000001192093,10,1,experiment,NA,NA,0,0.9,0.1,0,1,311,7,NA
fcp-trial,361,1255213,0.0-322.0-0.0,voc_e2,12135,"[{""event"":""fullscreenenter"",""trial"":1,""time"":5274}]",NA,NA,NA,NA,NA,3,#1CD855,#FA92F8,10,0,0,40,0,419.19999998807907,37,1,438.699999988079,10,0,experiment,NA,NA,2,0.5,0.5,5,4,312,7,NA
fcp-trial,362,1257372,0.0-323.0-0.0,voc_e2,12135,"[{""event"":""fullscreenenter"",""trial"":1,""time"":5274}]",NA,NA,NA,NA,NA,0,#D8271C,#741CD8,10,10,0,40,0,220,37,1,433.39999997615814,10,0,experiment,NA,NA,1,0.3,0.7,3,2,313,7,NA
fcp-trial,363,1259870,0.0-324.0-0.0,voc_e2,12135,"[{""event"":""fullscreenenter"",""trial"":1,""time"":5274}]",NA,NA,NA,NA,NA,6,#3386FF,#D89F1C,0,10,0,40,0,500,39,0,491.2000000476837,10,1,experiment,NA,NA,0,0.1,0.9,1,0,314,7,NA
fcp-trial,364,1261987,0.0-325.0-0.0,voc_e2,12135,"[{""event"":""fullscreenenter"",""trial"":1,""time"":5274}]",NA,NA,NA,NA,NA,4,#FA92F8,#1CD855,10,0,1,40,0,171.5999999642372,37,1,437.199999988079,10,1,experiment,NA,NA,2,0.5,0.5,4,5,315,7,NA
audio-instructions,365,1268332,0.0-326.0,voc_e2,12135,"[{""event"":""fullscreenenter"",""trial"":1,""time"":5274}]",NA,652.9000000357628,static/audio/finished.wav,NA,0,NA,NA,NA,NA,NA,NA,NA,NA,NA,NA,NA,NA,NA,NA,NA,NA,NA,NA,NA,NA,NA,NA,NA,NA,NA
audio-instructions,366,1279965,0.0-327.0-0.0,voc_e2,12135,"[{""event"":""fullscreenenter"",""trial"":1,""time"":5274}]",NA,797.6999999880791,static/audio/explicit1.wav,NA,0,NA,NA,NA,NA,NA,NA,NA,NA,NA,NA,NA,NA,NA,NA,NA,NA,NA,NA,NA,NA,NA,NA,NA,NA,NA
audio-instructions,367,1288005,0.0-327.0-1.0,voc_e2,12135,"[{""event"":""fullscreenenter"",""trial"":1,""time"":5274}]",NA,444.60000002384186,static/audio/explicit2.wav,NA,0,NA,NA,NA,NA,NA,NA,NA,NA,NA,NA,NA,NA,NA,NA,NA,NA,NA,NA,NA,NA,NA,NA,NA,NA,NA
image-slider-response,368,1292640,0.0-328.0,voc_e2,12135,"[{""event"":""fullscreenenter"",""trial"":1,""time"":5274}]",NA,4632.900000035763,static/img/machines/machine4.png,NA,NA,NA,NA,NA,NA,NA,NA,NA,NA,NA,NA,NA,NA,NA,NA,explicit,NA,NA,NA,NA,NA,NA,NA,NA,NA,6
image-slider-response,369,1294977,0.0-329.0,voc_e2,12135,"[{""event"":""fullscreenenter"",""trial"":1,""time"":5274}]",NA,2335,static/img/machines/machine1.png,NA,NA,NA,NA,NA,NA,NA,NA,NA,NA,NA,NA,NA,NA,NA,NA,explicit,NA,NA,NA,NA,NA,NA,NA,NA,NA,3
image-slider-response,370,1297292,0.0-330.0,voc_e2,12135,"[{""event"":""fullscreenenter"",""trial"":1,""time"":5274}]",NA,2312.800000011921,static/img/machines/machine3.png,NA,NA,NA,NA,NA,NA,NA,NA,NA,NA,NA,NA,NA,NA,NA,NA,explicit,NA,NA,NA,NA,NA,NA,NA,NA,NA,3
image-slider-response,371,1300888,0.0-331.0,voc_e2,12135,"[{""event"":""fullscreenenter"",""trial"":1,""time"":5274}]",NA,3595.399999976158,static/img/machines/machine6.png,NA,NA,NA,NA,NA,NA,NA,NA,NA,NA,NA,NA,NA,NA,NA,NA,explicit,NA,NA,NA,NA,NA,NA,NA,NA,NA,5
image-slider-response,372,1302048,0.0-332.0,voc_e2,12135,"[{""event"":""fullscreenenter"",""trial"":1,""time"":5274}]",NA,1158.300000011921,static/img/machines/machine5.png,NA,NA,NA,NA,NA,NA,NA,NA,NA,NA,NA,NA,NA,NA,NA,NA,explicit,NA,NA,NA,NA,NA,NA,NA,NA,NA,5
image-slider-response,373,1304363,0.0-333.0,voc_e2,12135,"[{""event"":""fullscreenenter"",""trial"":1,""time"":5274}]",NA,2312.899999976158,static/img/machines/machine2.png,NA,NA,NA,NA,NA,NA,NA,NA,NA,NA,NA,NA,NA,NA,NA,NA,explicit,NA,NA,NA,NA,NA,NA,NA,NA,NA,6
