trial_type,trial_index,time_elapsed,internal_node_id,task_version,subject_id,interactions,success,rt,stimulus,key_press,button_pressed,offer,arcade_color_L,arcade_color_R,arcade_outcome_L,arcade_outcome_R,correct,stage_1_key,stage_1_choice,stage_1_rt,stage_2_key,stage_2_choice,stage_2_rt,stage_3_outcome,accuracy,phase,responses,num_errors,context,reward_prob_L,reward_prob_R,arcade_id_L,arcade_id_R,trial,block,response
pavlovia,0,6,0.0-0.0,voc_e2,12119,[],NA,NA,NA,NA,NA,NA,NA,NA,NA,NA,NA,NA,NA,NA,NA,NA,NA,NA,NA,NA,NA,NA,NA,NA,NA,NA,NA,NA,NA,NA
fullscreen,1,84344,0.0-1.0,voc_e2,12119,"[{""event"":""fullscreenenter"",""trial"":1,""time"":83344}]",TRUE,NA,NA,NA,NA,NA,NA,NA,NA,NA,NA,NA,NA,NA,NA,NA,NA,NA,NA,NA,NA,NA,NA,NA,NA,NA,NA,NA,NA,NA
audio-keyboard-response,2,87667,0.0-2.0,voc_e2,12119,"[{""event"":""fullscreenenter"",""trial"":1,""time"":83344}]",NA,3261,static/audio/beep_loop.wav,32,NA,NA,NA,NA,NA,NA,NA,NA,NA,NA,NA,NA,NA,NA,NA,NA,NA,NA,NA,NA,NA,NA,NA,NA,NA,NA
audio-test,3,89231,0.0-3.0,voc_e2,12119,"[{""event"":""fullscreenenter"",""trial"":1,""time"":83344}]",NA,NA,static/audio/turtle.wav,NA,3,NA,NA,NA,NA,NA,NA,NA,NA,NA,NA,NA,NA,NA,NA,NA,NA,NA,NA,NA,NA,NA,NA,NA,NA,NA
audio-test,4,91132,0.0-4.0,voc_e2,12119,"[{""event"":""fullscreenenter"",""trial"":1,""time"":83344}]",NA,NA,static/audio/shark.wav,NA,2,NA,NA,NA,NA,NA,NA,NA,NA,NA,NA,NA,NA,NA,NA,NA,NA,NA,NA,NA,NA,NA,NA,NA,NA,NA
audio-instructions,5,97986,0.0-5.0-0.0,voc_e2,12119,"[{""event"":""fullscreenenter"",""trial"":1,""time"":83344}]",NA,1071.399999976158,static/audio/instructions1.wav,NA,0,NA,NA,NA,NA,NA,NA,NA,NA,NA,NA,NA,NA,NA,NA,NA,NA,NA,NA,NA,NA,NA,NA,NA,NA,NA
audio-instructions,6,108985,0.0-5.0-1.0,voc_e2,12119,"[{""event"":""fullscreenenter"",""trial"":1,""time"":83344}]",NA,4251.399999976158,static/audio/instructions2.wav,NA,0,NA,NA,NA,NA,NA,NA,NA,NA,NA,NA,NA,NA,NA,NA,NA,NA,NA,NA,NA,NA,NA,NA,NA,NA,NA
audio-instructions,7,117127,0.0-5.0-2.0,voc_e2,12119,"[{""event"":""fullscreenenter"",""trial"":1,""time"":83344}]",NA,2333.399999976158,static/audio/instructions3.wav,NA,0,NA,NA,NA,NA,NA,NA,NA,NA,NA,NA,NA,NA,NA,NA,NA,NA,NA,NA,NA,NA,NA,NA,NA,NA,NA
audio-instructions,8,147900,0.0-5.0-3.0,voc_e2,12119,"[{""event"":""fullscreenenter"",""trial"":1,""time"":83344}]",NA,17545.300000071526,static/audio/instructions4.wav,NA,0,NA,NA,NA,NA,NA,NA,NA,NA,NA,NA,NA,NA,NA,NA,NA,NA,NA,NA,NA,NA,NA,NA,NA,NA,NA
audio-instructions,9,162873,0.0-5.0-4.0,voc_e2,12119,"[{""event"":""fullscreenenter"",""trial"":1,""time"":83344}]",NA,5588,static/audio/instructions5.wav,NA,0,NA,NA,NA,NA,NA,NA,NA,NA,NA,NA,NA,NA,NA,NA,NA,NA,NA,NA,NA,NA,NA,NA,NA,NA,NA
fcp-practice,10,165302,0.0-5.0-5.0-0.0,voc_e2,12119,"[{""event"":""fullscreenenter"",""trial"":1,""time"":83344}]",NA,NA,NA,NA,NA,NA,#EDC948,#46d3c8,10,0,1,null,null,null,37,1,914,10,1,practice,NA,NA,NA,NA,NA,NA,NA,NA,NA,NA
fcp-practice,11,167302,0.0-5.0-5.0-1.0,voc_e2,12119,"[{""event"":""fullscreenenter"",""trial"":1,""time"":83344}]",NA,NA,NA,NA,NA,NA,#EDC948,#46d3c8,10,0,1,null,null,null,37,1,494.3000000715256,10,1,practice,NA,NA,NA,NA,NA,NA,NA,NA,NA,NA
fcp-practice,12,169410,0.0-5.0-5.0-2.0,voc_e2,12119,"[{""event"":""fullscreenenter"",""trial"":1,""time"":83344}]",NA,NA,NA,NA,NA,NA,#EDC948,#46d3c8,0,10,1,null,null,null,37,1,602.6000000238419,0,1,practice,NA,NA,NA,NA,NA,NA,NA,NA,NA,NA
fcp-practice,13,171367,0.0-5.0-5.0-3.0,voc_e2,12119,"[{""event"":""fullscreenenter"",""trial"":1,""time"":83344}]",NA,NA,NA,NA,NA,NA,#EDC948,#46d3c8,10,0,1,null,null,null,37,1,449.60000002384186,10,1,practice,NA,NA,NA,NA,NA,NA,NA,NA,NA,NA
fcp-practice,14,174001,0.0-5.0-5.0-4.0,voc_e2,12119,"[{""event"":""fullscreenenter"",""trial"":1,""time"":83344}]",NA,NA,NA,NA,NA,NA,#EDC948,#46d3c8,10,0,1,null,null,null,37,1,1127.1999999284744,10,1,practice,NA,NA,NA,NA,NA,NA,NA,NA,NA,NA
audio-instructions,15,195678,0.0-5.0-6.0,voc_e2,12119,"[{""event"":""fullscreenenter"",""trial"":1,""time"":83344}]",NA,3673.5,static/audio/instructions6.wav,NA,0,NA,NA,NA,NA,NA,NA,NA,NA,NA,NA,NA,NA,NA,NA,NA,NA,NA,NA,NA,NA,NA,NA,NA,NA,NA
audio-instructions,16,217490,0.0-5.0-7.0,voc_e2,12119,"[{""event"":""fullscreenenter"",""trial"":1,""time"":83344}]",NA,2615.600000023842,static/audio/instructions7.wav,NA,0,NA,NA,NA,NA,NA,NA,NA,NA,NA,NA,NA,NA,NA,NA,NA,NA,NA,NA,NA,NA,NA,NA,NA,NA,NA
audio-instructions,17,234074,0.0-5.0-8.0,voc_e2,12119,"[{""event"":""fullscreenenter"",""trial"":1,""time"":83344}]",NA,7109,static/audio/instructions8.wav,NA,0,NA,NA,NA,NA,NA,NA,NA,NA,NA,NA,NA,NA,NA,NA,NA,NA,NA,NA,NA,NA,NA,NA,NA,NA,NA
fcp-comprehension,18,241989,0.0-5.0-9.0,voc_e2,12119,"[{""event"":""fullscreenenter"",""trial"":1,""time"":83344}]",NA,7914.200000047684,NA,NA,NA,NA,NA,NA,NA,NA,NA,NA,NA,NA,NA,NA,NA,NA,NA,NA,"false,true",1,NA,NA,NA,NA,NA,NA,NA,NA
audio-instructions,19,252395,0.0-5.1-0.1,voc_e2,12119,"[{""event"":""fullscreenenter"",""trial"":1,""time"":83344}]",NA,5630.600000023842,static/audio/instructions1.wav,NA,0,NA,NA,NA,NA,NA,NA,NA,NA,NA,NA,NA,NA,NA,NA,NA,NA,NA,NA,NA,NA,NA,NA,NA,NA,NA
audio-instructions,20,259974,0.0-5.1-1.1,voc_e2,12119,"[{""event"":""fullscreenenter"",""trial"":1,""time"":83344}]",NA,839.8000000715256,static/audio/instructions2.wav,NA,0,NA,NA,NA,NA,NA,NA,NA,NA,NA,NA,NA,NA,NA,NA,NA,NA,NA,NA,NA,NA,NA,NA,NA,NA,NA
audio-instructions,21,267003,0.0-5.1-2.1,voc_e2,12119,"[{""event"":""fullscreenenter"",""trial"":1,""time"":83344}]",NA,1218.5,static/audio/instructions3.wav,NA,0,NA,NA,NA,NA,NA,NA,NA,NA,NA,NA,NA,NA,NA,NA,NA,NA,NA,NA,NA,NA,NA,NA,NA,NA,NA
audio-instructions,22,281786,0.0-5.1-3.1,voc_e2,12119,"[{""event"":""fullscreenenter"",""trial"":1,""time"":83344}]",NA,1562.399999976158,static/audio/instructions4.wav,NA,0,NA,NA,NA,NA,NA,NA,NA,NA,NA,NA,NA,NA,NA,NA,NA,NA,NA,NA,NA,NA,NA,NA,NA,NA,NA
audio-instructions,23,291685,0.0-5.1-4.1,voc_e2,12119,"[{""event"":""fullscreenenter"",""trial"":1,""time"":83344}]",NA,510.90000009536743,static/audio/instructions5.wav,NA,0,NA,NA,NA,NA,NA,NA,NA,NA,NA,NA,NA,NA,NA,NA,NA,NA,NA,NA,NA,NA,NA,NA,NA,NA,NA
fcp-practice,24,294258,0.0-5.1-5.1-0.1,voc_e2,12119,"[{""event"":""fullscreenenter"",""trial"":1,""time"":83344}]",NA,NA,NA,NA,NA,NA,#EDC948,#46d3c8,10,0,1,null,null,null,37,1,1069.2000000476835,10,1,practice,NA,NA,NA,NA,NA,NA,NA,NA,NA,NA
fcp-practice,25,296066,0.0-5.1-5.1-1.1,voc_e2,12119,"[{""event"":""fullscreenenter"",""trial"":1,""time"":83344}]",NA,NA,NA,NA,NA,NA,#EDC948,#46d3c8,10,0,1,null,null,null,37,1,305.7000000476837,10,1,practice,NA,NA,NA,NA,NA,NA,NA,NA,NA,NA
fcp-practice,26,297795,0.0-5.1-5.1-2.1,voc_e2,12119,"[{""event"":""fullscreenenter"",""trial"":1,""time"":83344}]",NA,NA,NA,NA,NA,NA,#EDC948,#46d3c8,0,10,1,null,null,null,37,1,225.30000007152557,0,1,practice,NA,NA,NA,NA,NA,NA,NA,NA,NA,NA
fcp-practice,27,299507,0.0-5.1-5.1-3.1,voc_e2,12119,"[{""event"":""fullscreenenter"",""trial"":1,""time"":83344}]",NA,NA,NA,NA,NA,NA,#EDC948,#46d3c8,10,0,1,null,null,null,37,1,207.59999990463257,10,1,practice,NA,NA,NA,NA,NA,NA,NA,NA,NA,NA
fcp-practice,28,301183,0.0-5.1-5.1-4.1,voc_e2,12119,"[{""event"":""fullscreenenter"",""trial"":1,""time"":83344}]",NA,NA,NA,NA,NA,NA,#EDC948,#46d3c8,10,0,1,null,null,null,37,1,166.60000002384186,10,1,practice,NA,NA,NA,NA,NA,NA,NA,NA,NA,NA
audio-instructions,29,320362,0.0-5.1-6.1,voc_e2,12119,"[{""event"":""fullscreenenter"",""trial"":1,""time"":83344}]",NA,1167.600000023842,static/audio/instructions6.wav,NA,0,NA,NA,NA,NA,NA,NA,NA,NA,NA,NA,NA,NA,NA,NA,NA,NA,NA,NA,NA,NA,NA,NA,NA,NA,NA
audio-instructions,30,340031,0.0-5.1-7.1,voc_e2,12119,"[{""event"":""fullscreenenter"",""trial"":1,""time"":83344}]",NA,477,static/audio/instructions7.wav,NA,0,NA,NA,NA,NA,NA,NA,NA,NA,NA,NA,NA,NA,NA,NA,NA,NA,NA,NA,NA,NA,NA,NA,NA,NA,NA
audio-instructions,31,351328,0.0-5.1-8.1,voc_e2,12119,"[{""event"":""fullscreenenter"",""trial"":1,""time"":83344}]",NA,1824.7999999523165,static/audio/instructions8.wav,NA,0,NA,NA,NA,NA,NA,NA,NA,NA,NA,NA,NA,NA,NA,NA,NA,NA,NA,NA,NA,NA,NA,NA,NA,NA,NA
fcp-comprehension,32,356514,0.0-5.1-9.1,voc_e2,12119,"[{""event"":""fullscreenenter"",""trial"":1,""time"":83344}]",NA,5184.199999928474,NA,NA,NA,NA,NA,NA,NA,NA,NA,NA,NA,NA,NA,NA,NA,NA,NA,NA,"true,true",0,NA,NA,NA,NA,NA,NA,NA,NA
audio-instructions,33,373195,0.0-6.0-0.0,voc_e2,12119,"[{""event"":""fullscreenenter"",""trial"":1,""time"":83344}]",NA,11131.799999952316,static/audio/instructions9.wav,NA,0,NA,NA,NA,NA,NA,NA,NA,NA,NA,NA,NA,NA,NA,NA,NA,NA,NA,NA,NA,NA,NA,NA,NA,NA,NA
audio-instructions,34,394397,0.0-6.0-1.0,voc_e2,12119,"[{""event"":""fullscreenenter"",""trial"":1,""time"":83344}]",NA,9083.699999928474,static/audio/instructions10.wav,NA,0,NA,NA,NA,NA,NA,NA,NA,NA,NA,NA,NA,NA,NA,NA,NA,NA,NA,NA,NA,NA,NA,NA,NA,NA,NA
fcp-trial,35,400966,0.0-6.0-2.0,voc_e2,12119,"[{""event"":""fullscreenenter"",""trial"":1,""time"":83344}]",NA,NA,NA,NA,NA,0,#EDC948,#46d3c8,10,10,1,38,1,3307.399999976158,37,1,1738.3000000715256,10,1,practice,NA,NA,NA,NA,NA,NA,NA,NA,NA,NA
audio-instructions,36,413287,0.0-6.0-3.0,voc_e2,12119,"[{""event"":""fullscreenenter"",""trial"":1,""time"":83344}]",NA,1313.399999976158,static/audio/instructions11.wav,NA,0,NA,NA,NA,NA,NA,NA,NA,NA,NA,NA,NA,NA,NA,NA,NA,NA,NA,NA,NA,NA,NA,NA,NA,NA,NA
fcp-trial,37,418332,0.0-6.0-4.0,voc_e2,12119,"[{""event"":""fullscreenenter"",""trial"":1,""time"":83344}]",NA,NA,NA,NA,NA,6,#EDC948,#46d3c8,10,10,1,40,0,810.1000000238419,37,1,2725.899999976158,10,1,practice,NA,NA,NA,NA,NA,NA,NA,NA,NA,NA
audio-instructions,38,446329,0.0-6.0-5.0,voc_e2,12119,"[{""event"":""fullscreenenter"",""trial"":1,""time"":83344}]",NA,9315.099999904633,static/audio/instructions12.wav,NA,0,NA,NA,NA,NA,NA,NA,NA,NA,NA,NA,NA,NA,NA,NA,NA,NA,NA,NA,NA,NA,NA,NA,NA,NA,NA
audio-instructions,39,455807,0.0-6.0-6.0,voc_e2,12119,"[{""event"":""fullscreenenter"",""trial"":1,""time"":83344}]",NA,1883.600000023842,static/audio/instructions13.wav,NA,0,NA,NA,NA,NA,NA,NA,NA,NA,NA,NA,NA,NA,NA,NA,NA,NA,NA,NA,NA,NA,NA,NA,NA,NA,NA
audio-instructions,40,467036,0.0-6.0-7.0,voc_e2,12119,"[{""event"":""fullscreenenter"",""trial"":1,""time"":83344}]",NA,2782.2000000476837,static/audio/instructions14.wav,NA,0,NA,NA,NA,NA,NA,NA,NA,NA,NA,NA,NA,NA,NA,NA,NA,NA,NA,NA,NA,NA,NA,NA,NA,NA,NA
audio-instructions,41,474429,0.0-7.0-0.0,voc_e2,12119,"[{""event"":""fullscreenenter"",""trial"":1,""time"":83344}]",NA,485.60000002384186,static/audio/instructions15.wav,NA,0,NA,NA,NA,NA,NA,NA,NA,NA,NA,NA,NA,NA,NA,NA,NA,NA,NA,NA,NA,NA,NA,NA,NA,NA,NA
audio-instructions,42,483182,0.0-7.0-1.0,voc_e2,12119,"[{""event"":""fullscreenenter"",""trial"":1,""time"":83344}]",NA,1928.100000023842,static/audio/instructions16.wav,NA,0,NA,NA,NA,NA,NA,NA,NA,NA,NA,NA,NA,NA,NA,NA,NA,NA,NA,NA,NA,NA,NA,NA,NA,NA,NA
audio-instructions,43,493730,0.0-7.0-2.0,voc_e2,12119,"[{""event"":""fullscreenenter"",""trial"":1,""time"":83344}]",NA,2876.399999976158,static/audio/instructions17.wav,NA,0,NA,NA,NA,NA,NA,NA,NA,NA,NA,NA,NA,NA,NA,NA,NA,NA,NA,NA,NA,NA,NA,NA,NA,NA,NA
audio-instructions,44,518562,0.0-7.0-3.0,voc_e2,12119,"[{""event"":""fullscreenenter"",""trial"":1,""time"":83344}]",NA,17068.399999976158,static/audio/instructions18.wav,NA,0,NA,NA,NA,NA,NA,NA,NA,NA,NA,NA,NA,NA,NA,NA,NA,NA,NA,NA,NA,NA,NA,NA,NA,NA,NA
audio-instructions,45,548174,0.0-7.0-4.0,voc_e2,12119,"[{""event"":""fullscreenenter"",""trial"":1,""time"":83344}]",NA,22880.5,static/audio/instructions19.wav,NA,0,NA,NA,NA,NA,NA,NA,NA,NA,NA,NA,NA,NA,NA,NA,NA,NA,NA,NA,NA,NA,NA,NA,NA,NA,NA
fcp-comprehension,46,557373,0.0-7.0-5.0,voc_e2,12119,"[{""event"":""fullscreenenter"",""trial"":1,""time"":83344}]",NA,9198.300000071526,NA,NA,NA,NA,NA,NA,NA,NA,NA,NA,NA,NA,NA,NA,NA,NA,NA,NA,"false,false,false,true",0,NA,NA,NA,NA,NA,NA,NA,NA
audio-instructions,47,572608,0.0-8.0,voc_e2,12119,"[{""event"":""fullscreenenter"",""trial"":1,""time"":83344}]",NA,6021.899999976158,static/audio/ready.wav,NA,0,NA,NA,NA,NA,NA,NA,NA,NA,NA,NA,NA,NA,NA,NA,NA,NA,NA,NA,NA,NA,NA,NA,NA,NA,NA
fcp-trial,48,576363,0.0-9.0-0.0,voc_e2,12119,"[{""event"":""fullscreenenter"",""trial"":1,""time"":83344}]",NA,NA,NA,NA,NA,1,#D8271C,#741CD8,10,10,0,38,1,1665.7000000476837,37,1,580.1999999284744,10,0,experiment,NA,NA,1,0.3,0.7,3,2,1,1,NA
fcp-trial,49,582305,0.0-10.0-0.0,voc_e2,12119,"[{""event"":""fullscreenenter"",""trial"":1,""time"":83344}]",NA,NA,NA,NA,NA,5,#1CD855,#FA92F8,10,0,1,40,0,3835.100000023842,39,0,594.2000000476837,0,0,experiment,NA,NA,0,0.9,0.1,0,1,2,1,NA
fcp-trial,50,585688,0.0-11.0-0.0,voc_e2,12119,"[{""event"":""fullscreenenter"",""trial"":1,""time"":83344}]",NA,NA,NA,NA,NA,0,#D8271C,#741CD8,10,10,0,38,1,1417.8000000715256,37,1,457.3000000715256,10,0,experiment,NA,NA,1,0.3,0.7,3,2,3,1,NA
fcp-trial,51,589930,0.0-12.0-0.0,voc_e2,12119,"[{""event"":""fullscreenenter"",""trial"":1,""time"":83344}]",NA,NA,NA,NA,NA,3,#3386FF,#D89F1C,10,0,0,38,1,1899.5,37,1,827.3999999761581,10,0,experiment,NA,NA,2,0.5,0.5,5,4,4,1,NA
fcp-trial,52,593063,0.0-13.0-0.0,voc_e2,12119,"[{""event"":""fullscreenenter"",""trial"":1,""time"":83344}]",NA,NA,NA,NA,NA,1,#FA92F8,#1CD855,0,10,0,38,1,1224.7999999523163,37,1,403,0,0,experiment,NA,NA,0,0.1,0.9,1,0,5,1,NA
fcp-trial,53,598091,0.0-14.0-0.0,voc_e2,12119,"[{""event"":""fullscreenenter"",""trial"":1,""time"":83344}]",NA,NA,NA,NA,NA,5,#741CD8,#D8271C,0,0,1,40,0,3079.9000000953674,37,1,443.90000009536743,0,1,experiment,NA,NA,1,0.7,0.3,2,3,6,1,NA
fcp-trial,54,600992,0.0-15.0-0.0,voc_e2,12119,"[{""event"":""fullscreenenter"",""trial"":1,""time"":83344}]",NA,NA,NA,NA,NA,2,#FA92F8,#1CD855,0,10,0,38,1,950.8999999761581,37,1,444.89999997615814,0,0,experiment,NA,NA,0,0.1,0.9,1,0,7,1,NA
fcp-trial,55,604667,0.0-16.0-0.0,voc_e2,12119,"[{""event"":""fullscreenenter"",""trial"":1,""time"":83344}]",NA,NA,NA,NA,NA,1,#D89F1C,#3386FF,0,10,1,38,1,1504.7000000476837,37,1,667.1000000238419,0,1,experiment,NA,NA,2,0.5,0.5,4,5,8,1,NA
fcp-trial,56,607795,0.0-17.0-0.0,voc_e2,12119,"[{""event"":""fullscreenenter"",""trial"":1,""time"":83344}]",NA,NA,NA,NA,NA,2,#741CD8,#D8271C,10,0,1,38,1,1303.8999999761581,39,0,319.60000002384186,0,0,experiment,NA,NA,1,0.7,0.3,2,3,9,1,NA
fcp-trial,57,610945,0.0-18.0-0.0,voc_e2,12119,"[{""event"":""fullscreenenter"",""trial"":1,""time"":83344}]",NA,NA,NA,NA,NA,4,#741CD8,#D8271C,10,0,1,38,1,1052.7999999523163,39,0,594,0,0,experiment,NA,NA,1,0.7,0.3,2,3,10,1,NA
fcp-trial,58,614783,0.0-19.0-0.0,voc_e2,12119,"[{""event"":""fullscreenenter"",""trial"":1,""time"":83344}]",NA,NA,NA,NA,NA,4,#3386FF,#D89F1C,0,10,0,38,1,1441.6999999284744,39,0,893.2000000476837,10,1,experiment,NA,NA,2,0.5,0.5,5,4,11,1,NA
fcp-trial,59,618051,0.0-20.0-0.0,voc_e2,12119,"[{""event"":""fullscreenenter"",""trial"":1,""time"":83344}]",NA,NA,NA,NA,NA,3,#FA92F8,#1CD855,0,10,0,38,1,1007,39,0,756.5,10,1,experiment,NA,NA,0,0.1,0.9,1,0,12,1,NA
fcp-trial,60,622955,0.0-21.0-0.0,voc_e2,12119,"[{""event"":""fullscreenenter"",""trial"":1,""time"":83344}]",NA,NA,NA,NA,NA,6,#1CD855,#FA92F8,0,0,1,40,0,2726.399999976158,39,0,673.6000000238419,0,0,experiment,NA,NA,0,0.9,0.1,0,1,13,1,NA
fcp-trial,61,627574,0.0-22.0-0.0,voc_e2,12119,"[{""event"":""fullscreenenter"",""trial"":1,""time"":83344}]",NA,NA,NA,NA,NA,3,#741CD8,#D8271C,0,0,1,38,1,2641.5,39,0,473.39999997615814,0,0,experiment,NA,NA,1,0.7,0.3,2,3,14,1,NA
fcp-trial,62,631475,0.0-23.0-0.0,voc_e2,12119,"[{""event"":""fullscreenenter"",""trial"":1,""time"":83344}]",NA,NA,NA,NA,NA,2,#D89F1C,#3386FF,10,10,1,38,1,1936.1999999284744,37,1,460.2999999523163,10,1,experiment,NA,NA,2,0.5,0.5,4,5,15,1,NA
fcp-trial,63,635539,0.0-24.0-0.0,voc_e2,12119,"[{""event"":""fullscreenenter"",""trial"":1,""time"":83344}]",NA,NA,NA,NA,NA,6,#D89F1C,#3386FF,10,10,1,40,0,1639.3999999761581,39,0,922.2000000476836,10,0,experiment,NA,NA,2,0.5,0.5,4,5,16,1,NA
fcp-trial,64,638985,0.0-25.0-0.0,voc_e2,12119,"[{""event"":""fullscreenenter"",""trial"":1,""time"":83344}]",NA,NA,NA,NA,NA,6,#741CD8,#D8271C,0,0,1,40,0,1482.6000000238419,39,0,459.10000002384186,0,0,experiment,NA,NA,1,0.7,0.3,2,3,17,1,NA
fcp-trial,65,643575,0.0-26.0-0.0,voc_e2,12119,"[{""event"":""fullscreenenter"",""trial"":1,""time"":83344}]",NA,NA,NA,NA,NA,0,#FA92F8,#1CD855,0,10,0,38,1,2661.5999999046326,39,0,424.39999997615814,10,1,experiment,NA,NA,0,0.1,0.9,1,0,18,1,NA
fcp-trial,66,646597,0.0-27.0-0.0,voc_e2,12119,"[{""event"":""fullscreenenter"",""trial"":1,""time"":83344}]",NA,NA,NA,NA,NA,0,#D89F1C,#3386FF,10,10,1,38,1,1066.1000000238419,37,1,453.5,10,1,experiment,NA,NA,2,0.5,0.5,4,5,19,1,NA
fcp-trial,67,649545,0.0-28.0-0.0,voc_e2,12119,"[{""event"":""fullscreenenter"",""trial"":1,""time"":83344}]",NA,NA,NA,NA,NA,4,#FA92F8,#1CD855,0,10,0,38,1,1068.2999999523163,39,0,375.1999999284744,10,1,experiment,NA,NA,0,0.1,0.9,1,0,20,1,NA
fcp-trial,68,652815,0.0-29.0-0.0,voc_e2,12119,"[{""event"":""fullscreenenter"",""trial"":1,""time"":83344}]",NA,NA,NA,NA,NA,5,#3386FF,#D89F1C,10,10,0,38,1,1363.9000000953674,39,0,401,10,1,experiment,NA,NA,2,0.5,0.5,5,4,21,1,NA
fcp-trial,69,656020,0.0-30.0-0.0,voc_e2,12119,"[{""event"":""fullscreenenter"",""trial"":1,""time"":83344}]",NA,NA,NA,NA,NA,0,#D89F1C,#3386FF,0,10,1,38,1,1313.2999999523163,37,1,388.2000000476837,0,1,experiment,NA,NA,2,0.5,0.5,4,5,22,1,NA
fcp-trial,70,658690,0.0-31.0-0.0,voc_e2,12119,"[{""event"":""fullscreenenter"",""trial"":1,""time"":83344}]",NA,NA,NA,NA,NA,4,#D89F1C,#3386FF,0,10,1,38,1,774.5,37,1,390.39999997615814,0,1,experiment,NA,NA,2,0.5,0.5,4,5,23,1,NA
fcp-trial,71,661345,0.0-32.0-0.0,voc_e2,12119,"[{""event"":""fullscreenenter"",""trial"":1,""time"":83344}]",NA,NA,NA,NA,NA,1,#FA92F8,#1CD855,0,10,0,38,1,827.6999999284744,39,0,323.7999999523163,10,1,experiment,NA,NA,0,0.1,0.9,1,0,24,1,NA
fcp-trial,72,663936,0.0-33.0-0.0,voc_e2,12119,"[{""event"":""fullscreenenter"",""trial"":1,""time"":83344}]",NA,NA,NA,NA,NA,1,#D8271C,#741CD8,0,10,0,38,1,680.1999999284744,37,1,404.89999997615814,0,0,experiment,NA,NA,1,0.3,0.7,3,2,25,1,NA
fcp-trial,73,666357,0.0-34.0-0.0,voc_e2,12119,"[{""event"":""fullscreenenter"",""trial"":1,""time"":83344}]",NA,NA,NA,NA,NA,3,#D8271C,#741CD8,0,10,0,38,1,588.8999999761581,37,1,326.7000000476837,0,0,experiment,NA,NA,1,0.3,0.7,3,2,26,1,NA
fcp-trial,74,669014,0.0-35.0-0.0,voc_e2,12119,"[{""event"":""fullscreenenter"",""trial"":1,""time"":83344}]",NA,NA,NA,NA,NA,5,#D89F1C,#3386FF,0,10,1,38,1,799.9000000953674,37,1,353.7000000476837,0,1,experiment,NA,NA,2,0.5,0.5,4,5,27,1,NA
fcp-trial,75,674034,0.0-36.0-0.0,voc_e2,12119,"[{""event"":""fullscreenenter"",""trial"":1,""time"":83344}]",NA,NA,NA,NA,NA,6,#FA92F8,#1CD855,10,0,0,40,0,3161.100000023842,39,0,355.2000000476837,0,1,experiment,NA,NA,0,0.1,0.9,1,0,28,1,NA
fcp-trial,76,676801,0.0-37.0-0.0,voc_e2,12119,"[{""event"":""fullscreenenter"",""trial"":1,""time"":83344}]",NA,NA,NA,NA,NA,3,#1CD855,#FA92F8,10,0,1,38,1,859.1999999284744,37,1,405.2999999523163,10,1,experiment,NA,NA,0,0.9,0.1,0,1,29,1,NA
fcp-trial,77,680701,0.0-38.0-0.0,voc_e2,12119,"[{""event"":""fullscreenenter"",""trial"":1,""time"":83344}]",NA,NA,NA,NA,NA,3,#D89F1C,#3386FF,0,10,1,38,1,1721.6000000238419,37,1,675.8999999761581,0,1,experiment,NA,NA,2,0.5,0.5,4,5,30,1,NA
fcp-trial,78,683569,0.0-39.0-0.0,voc_e2,12119,"[{""event"":""fullscreenenter"",""trial"":1,""time"":83344}]",NA,NA,NA,NA,NA,5,#741CD8,#D8271C,0,0,1,40,0,937.2000000476837,37,1,426.8000000715256,0,1,experiment,NA,NA,1,0.7,0.3,2,3,31,1,NA
fcp-trial,79,686527,0.0-40.0-0.0,voc_e2,12119,"[{""event"":""fullscreenenter"",""trial"":1,""time"":83344}]",NA,NA,NA,NA,NA,2,#D89F1C,#3386FF,0,0,1,38,1,1059.2999999523163,39,0,395.3000000715256,0,0,experiment,NA,NA,2,0.5,0.5,4,5,32,1,NA
fcp-trial,80,690991,0.0-41.0-0.0,voc_e2,12119,"[{""event"":""fullscreenenter"",""trial"":1,""time"":83344}]",NA,NA,NA,NA,NA,4,#1CD855,#FA92F8,10,0,1,38,1,2337.4000000953674,37,1,622.1000000238419,10,1,experiment,NA,NA,0,0.9,0.1,0,1,33,1,NA
fcp-trial,81,694016,0.0-42.0-0.0,voc_e2,12119,"[{""event"":""fullscreenenter"",""trial"":1,""time"":83344}]",NA,NA,NA,NA,NA,6,#3386FF,#D89F1C,0,0,0,40,0,1076.8000000715256,37,1,444.90000009536743,0,0,experiment,NA,NA,2,0.5,0.5,5,4,34,1,NA
fcp-trial,82,696790,0.0-43.0-0.0,voc_e2,12119,"[{""event"":""fullscreenenter"",""trial"":1,""time"":83344}]",NA,NA,NA,NA,NA,4,#741CD8,#D8271C,10,0,1,38,1,945.3000000715256,39,0,323.8000000715256,0,0,experiment,NA,NA,1,0.7,0.3,2,3,35,1,NA
fcp-trial,83,699503,0.0-44.0-0.0,voc_e2,12119,"[{""event"":""fullscreenenter"",""trial"":1,""time"":83344}]",NA,NA,NA,NA,NA,0,#D8271C,#741CD8,0,0,0,38,1,781.1000000238419,37,1,427.8000000715256,0,0,experiment,NA,NA,1,0.3,0.7,3,2,36,1,NA
fcp-trial,84,702566,0.0-45.0-0.0,voc_e2,12119,"[{""event"":""fullscreenenter"",""trial"":1,""time"":83344}]",NA,NA,NA,NA,NA,2,#1CD855,#FA92F8,10,0,1,38,1,832,37,1,725.7000000476837,10,1,experiment,NA,NA,0,0.9,0.1,0,1,37,1,NA
fcp-trial,85,706487,0.0-46.0-0.0,voc_e2,12119,"[{""event"":""fullscreenenter"",""trial"":1,""time"":83344}]",NA,NA,NA,NA,NA,1,#3386FF,#D89F1C,10,0,0,38,1,1774.2000000476837,39,0,643.1000000238419,0,1,experiment,NA,NA,2,0.5,0.5,5,4,38,1,NA
fcp-trial,86,710475,0.0-47.0-0.0,voc_e2,12119,"[{""event"":""fullscreenenter"",""trial"":1,""time"":83344}]",NA,NA,NA,NA,NA,0,#1CD855,#FA92F8,10,0,1,38,1,2052.4000000953674,37,1,430.7000000476837,10,1,experiment,NA,NA,0,0.9,0.1,0,1,39,1,NA
fcp-trial,87,713547,0.0-48.0-0.0,voc_e2,12119,"[{""event"":""fullscreenenter"",""trial"":1,""time"":83344}]",NA,NA,NA,NA,NA,5,#1CD855,#FA92F8,10,0,1,38,1,1204.3999999761581,37,1,363.5,10,1,experiment,NA,NA,0,0.9,0.1,0,1,40,1,NA
fcp-trial,88,720214,0.0-49.0-0.0,voc_e2,12119,"[{""event"":""fullscreenenter"",""trial"":1,""time"":83344}]",NA,NA,NA,NA,NA,2,#D8271C,#741CD8,0,10,0,38,1,4597.600000023842,37,1,565.3000000715256,0,0,experiment,NA,NA,1,0.3,0.7,3,2,41,1,NA
fcp-trial,89,723240,0.0-50.0-0.0,voc_e2,12119,"[{""event"":""fullscreenenter"",""trial"":1,""time"":83344}]",NA,NA,NA,NA,NA,6,#D8271C,#741CD8,0,10,0,40,0,980,37,1,541.6999999284744,0,0,experiment,NA,NA,1,0.3,0.7,3,2,42,1,NA
fcp-trial,90,726908,0.0-51.0-0.0,voc_e2,12119,"[{""event"":""fullscreenenter"",""trial"":1,""time"":83344}]",NA,NA,NA,NA,NA,6,#3386FF,#D89F1C,10,10,0,38,1,1831.2000000476837,39,0,333.6999999284744,10,1,experiment,NA,NA,2,0.5,0.5,5,4,43,1,NA
fcp-trial,91,730182,0.0-52.0-0.0,voc_e2,12119,"[{""event"":""fullscreenenter"",""trial"":1,""time"":83344}]",NA,NA,NA,NA,NA,6,#FA92F8,#1CD855,0,10,0,40,0,1398.8000000715256,39,0,372.59999990463257,10,1,experiment,NA,NA,0,0.1,0.9,1,0,44,1,NA
fcp-trial,92,734116,0.0-53.0-0.0,voc_e2,12119,"[{""event"":""fullscreenenter"",""trial"":1,""time"":83344}]",NA,NA,NA,NA,NA,0,#3386FF,#D89F1C,0,10,0,38,1,1841.7999999523163,39,0,588.5999999046326,10,1,experiment,NA,NA,2,0.5,0.5,5,4,45,1,NA
fcp-trial,93,736912,0.0-54.0-0.0,voc_e2,12119,"[{""event"":""fullscreenenter"",""trial"":1,""time"":83344}]",NA,NA,NA,NA,NA,2,#741CD8,#D8271C,10,10,1,38,1,991.3999999761581,37,1,300.60000002384186,10,1,experiment,NA,NA,1,0.7,0.3,2,3,46,2,NA
fcp-trial,94,740020,0.0-55.0-0.0,voc_e2,12119,"[{""event"":""fullscreenenter"",""trial"":1,""time"":83344}]",NA,NA,NA,NA,NA,0,#FA92F8,#1CD855,0,10,0,38,1,1332.2999999523163,39,0,272.7999999523163,10,1,experiment,NA,NA,0,0.1,0.9,1,0,47,2,NA
fcp-trial,95,743444,0.0-56.0-0.0,voc_e2,12119,"[{""event"":""fullscreenenter"",""trial"":1,""time"":83344}]",NA,NA,NA,NA,NA,2,#D89F1C,#3386FF,10,0,1,38,1,1295.6000000238419,37,1,623.6000000238419,10,1,experiment,NA,NA,2,0.5,0.5,4,5,48,2,NA
fcp-trial,96,747402,0.0-57.0-0.0,voc_e2,12119,"[{""event"":""fullscreenenter"",""trial"":1,""time"":83344}]",NA,NA,NA,NA,NA,4,#FA92F8,#1CD855,0,10,0,38,1,1841.4000000953674,39,0,609.3999999761581,10,1,experiment,NA,NA,0,0.1,0.9,1,0,49,2,NA
fcp-trial,97,750438,0.0-58.0-0.0,voc_e2,12119,"[{""event"":""fullscreenenter"",""trial"":1,""time"":83344}]",NA,NA,NA,NA,NA,1,#D8271C,#741CD8,10,0,0,38,1,926.7000000476837,39,0,605.6000000238419,0,1,experiment,NA,NA,1,0.3,0.7,3,2,50,2,NA
fcp-trial,98,755694,0.0-59.0-0.0,voc_e2,12119,"[{""event"":""fullscreenenter"",""trial"":1,""time"":83344}]",NA,NA,NA,NA,NA,3,#3386FF,#D89F1C,10,10,0,38,1,3024.100000023842,39,0,728.2000000476837,10,1,experiment,NA,NA,2,0.5,0.5,5,4,51,2,NA
fcp-trial,99,759159,0.0-60.0-0.0,voc_e2,12119,"[{""event"":""fullscreenenter"",""trial"":1,""time"":83344}]",NA,NA,NA,NA,NA,2,#FA92F8,#1CD855,0,10,0,38,1,1561,39,0,399.5,10,1,experiment,NA,NA,0,0.1,0.9,1,0,52,2,NA
fcp-trial,100,762274,0.0-61.0-0.0,voc_e2,12119,"[{""event"":""fullscreenenter"",""trial"":1,""time"":83344}]",NA,NA,NA,NA,NA,6,#D8271C,#741CD8,10,0,0,40,0,1122.6999999284744,37,1,488.5,10,0,experiment,NA,NA,1,0.3,0.7,3,2,53,2,NA
fcp-trial,101,765902,0.0-62.0-0.0,voc_e2,12119,"[{""event"":""fullscreenenter"",""trial"":1,""time"":83344}]",NA,NA,NA,NA,NA,4,#D89F1C,#3386FF,0,10,1,38,1,1680.6000000238419,37,1,444.6999999284744,0,1,experiment,NA,NA,2,0.5,0.5,4,5,54,2,NA
fcp-trial,102,768680,0.0-63.0-0.0,voc_e2,12119,"[{""event"":""fullscreenenter"",""trial"":1,""time"":83344}]",NA,NA,NA,NA,NA,1,#3386FF,#D89F1C,10,10,0,38,1,892.7999999523163,39,0,380.89999997615814,10,1,experiment,NA,NA,2,0.5,0.5,5,4,55,2,NA
fcp-trial,103,772256,0.0-64.0-0.0,voc_e2,12119,"[{""event"":""fullscreenenter"",""trial"":1,""time"":83344}]",NA,NA,NA,NA,NA,3,#1CD855,#FA92F8,10,0,1,38,1,1697.6000000238419,37,1,374,10,1,experiment,NA,NA,0,0.9,0.1,0,1,56,2,NA
fcp-trial,104,774907,0.0-65.0-0.0,voc_e2,12119,"[{""event"":""fullscreenenter"",""trial"":1,""time"":83344}]",NA,NA,NA,NA,NA,0,#D8271C,#741CD8,10,10,0,38,1,827.8999999761581,39,0,318.2999999523163,10,1,experiment,NA,NA,1,0.3,0.7,3,2,57,2,NA
fcp-trial,105,778938,0.0-66.0-0.0,voc_e2,12119,"[{""event"":""fullscreenenter"",""trial"":1,""time"":83344}]",NA,NA,NA,NA,NA,5,#FA92F8,#1CD855,10,10,0,38,1,1923.2000000476837,39,0,603.5,10,1,experiment,NA,NA,0,0.1,0.9,1,0,58,2,NA
fcp-trial,106,782140,0.0-67.0-0.0,voc_e2,12119,"[{""event"":""fullscreenenter"",""trial"":1,""time"":83344}]",NA,NA,NA,NA,NA,5,#3386FF,#D89F1C,0,10,0,38,1,1265,39,0,432.60000002384186,10,1,experiment,NA,NA,2,0.5,0.5,5,4,59,2,NA
fcp-trial,107,785051,0.0-68.0-0.0,voc_e2,12119,"[{""event"":""fullscreenenter"",""trial"":1,""time"":83344}]",NA,NA,NA,NA,NA,3,#D8271C,#741CD8,0,0,0,38,1,1011.7999999523163,39,0,394.89999997615814,0,1,experiment,NA,NA,1,0.3,0.7,3,2,60,2,NA
fcp-trial,108,788236,0.0-69.0-0.0,voc_e2,12119,"[{""event"":""fullscreenenter"",""trial"":1,""time"":83344}]",NA,NA,NA,NA,NA,1,#1CD855,#FA92F8,10,0,1,38,1,1086.2999999523163,37,1,591.5,10,1,experiment,NA,NA,0,0.9,0.1,0,1,61,2,NA
fcp-trial,109,791665,0.0-70.0-0.0,voc_e2,12119,"[{""event"":""fullscreenenter"",""trial"":1,""time"":83344}]",NA,NA,NA,NA,NA,4,#D8271C,#741CD8,0,10,0,38,1,1529.6000000238419,39,0,394.09999990463257,10,1,experiment,NA,NA,1,0.3,0.7,3,2,62,2,NA
fcp-trial,110,794800,0.0-71.0-0.0,voc_e2,12119,"[{""event"":""fullscreenenter"",""trial"":1,""time"":83344}]",NA,NA,NA,NA,NA,5,#D8271C,#741CD8,0,10,0,40,0,1304.6999999284744,39,0,325.60000002384186,10,1,experiment,NA,NA,1,0.3,0.7,3,2,63,2,NA
fcp-trial,111,797514,0.0-72.0-0.0,voc_e2,12119,"[{""event"":""fullscreenenter"",""trial"":1,""time"":83344}]",NA,NA,NA,NA,NA,0,#D8271C,#741CD8,10,0,0,38,1,837.7999999523163,39,0,370.60000002384186,0,1,experiment,NA,NA,1,0.3,0.7,3,2,64,2,NA
fcp-trial,112,800068,0.0-73.0-0.0,voc_e2,12119,"[{""event"":""fullscreenenter"",""trial"":1,""time"":83344}]",NA,NA,NA,NA,NA,1,#D8271C,#741CD8,0,10,0,38,1,681.6000000238419,39,0,368.8000000715256,10,1,experiment,NA,NA,1,0.3,0.7,3,2,65,2,NA
fcp-trial,113,802654,0.0-74.0-0.0,voc_e2,12119,"[{""event"":""fullscreenenter"",""trial"":1,""time"":83344}]",NA,NA,NA,NA,NA,1,#1CD855,#FA92F8,10,0,1,38,1,735.2999999523163,37,1,346.2000000476837,10,1,experiment,NA,NA,0,0.9,0.1,0,1,66,2,NA
fcp-trial,114,805213,0.0-75.0-0.0,voc_e2,12119,"[{""event"":""fullscreenenter"",""trial"":1,""time"":83344}]",NA,NA,NA,NA,NA,1,#D89F1C,#3386FF,10,0,1,38,1,714.2999999523163,37,1,340.2000000476837,10,1,experiment,NA,NA,2,0.5,0.5,4,5,67,2,NA
fcp-trial,115,808273,0.0-76.0-0.0,voc_e2,12119,"[{""event"":""fullscreenenter"",""trial"":1,""time"":83344}]",NA,NA,NA,NA,NA,3,#1CD855,#FA92F8,0,10,1,38,1,1255.2999999523163,37,1,301.2999999523163,0,1,experiment,NA,NA,0,0.9,0.1,0,1,68,2,NA
fcp-trial,116,810897,0.0-77.0-0.0,voc_e2,12119,"[{""event"":""fullscreenenter"",""trial"":1,""time"":83344}]",NA,NA,NA,NA,NA,3,#D89F1C,#3386FF,0,10,1,38,1,794.6000000238419,37,1,324.60000002384186,0,1,experiment,NA,NA,2,0.5,0.5,4,5,69,2,NA
fcp-trial,117,813455,0.0-78.0-0.0,voc_e2,12119,"[{""event"":""fullscreenenter"",""trial"":1,""time"":83344}]",NA,NA,NA,NA,NA,6,#D8271C,#741CD8,10,10,0,38,1,687.2999999523163,39,0,366.8000000715256,10,1,experiment,NA,NA,1,0.3,0.7,3,2,70,2,NA
fcp-trial,118,816565,0.0-79.0-0.0,voc_e2,12119,"[{""event"":""fullscreenenter"",""trial"":1,""time"":83344}]",NA,NA,NA,NA,NA,2,#FA92F8,#1CD855,0,10,0,38,1,1235.8000000715256,39,0,371.10000002384186,10,1,experiment,NA,NA,0,0.1,0.9,1,0,71,2,NA
fcp-trial,119,819572,0.0-80.0-0.0,voc_e2,12119,"[{""event"":""fullscreenenter"",""trial"":1,""time"":83344}]",NA,NA,NA,NA,NA,5,#3386FF,#D89F1C,0,0,0,38,1,1221.9000000953674,39,0,280.2999999523163,0,1,experiment,NA,NA,2,0.5,0.5,5,4,72,2,NA
fcp-trial,120,821974,0.0-81.0-0.0,voc_e2,12119,"[{""event"":""fullscreenenter"",""trial"":1,""time"":83344}]",NA,NA,NA,NA,NA,4,#D89F1C,#3386FF,0,10,1,38,1,556.1000000238419,37,1,341.10000002384186,0,1,experiment,NA,NA,2,0.5,0.5,4,5,73,2,NA
fcp-trial,121,824268,0.0-82.0-0.0,voc_e2,12119,"[{""event"":""fullscreenenter"",""trial"":1,""time"":83344}]",NA,NA,NA,NA,NA,2,#3386FF,#D89F1C,0,10,0,38,1,444.5,39,0,346.89999997615814,10,1,experiment,NA,NA,2,0.5,0.5,5,4,74,2,NA
fcp-trial,122,826730,0.0-83.0-0.0,voc_e2,12119,"[{""event"":""fullscreenenter"",""trial"":1,""time"":83344}]",NA,NA,NA,NA,NA,3,#D8271C,#741CD8,10,10,0,38,1,591.0999999046326,39,0,364.3000000715256,10,1,experiment,NA,NA,1,0.3,0.7,3,2,75,2,NA
fcp-trial,123,829228,0.0-84.0-0.0,voc_e2,12119,"[{""event"":""fullscreenenter"",""trial"":1,""time"":83344}]",NA,NA,NA,NA,NA,5,#FA92F8,#1CD855,0,10,0,38,1,621.6000000238419,39,0,371.90000009536743,10,1,experiment,NA,NA,0,0.1,0.9,1,0,76,2,NA
fcp-trial,124,831747,0.0-85.0-0.0,voc_e2,12119,"[{""event"":""fullscreenenter"",""trial"":1,""time"":83344}]",NA,NA,NA,NA,NA,6,#3386FF,#D89F1C,10,10,0,38,1,515.7000000476837,39,0,497.60000002384186,10,1,experiment,NA,NA,2,0.5,0.5,5,4,77,2,NA
fcp-trial,125,834164,0.0-86.0-0.0,voc_e2,12119,"[{""event"":""fullscreenenter"",""trial"":1,""time"":83344}]",NA,NA,NA,NA,NA,4,#741CD8,#D8271C,10,10,1,38,1,586.3999999761581,37,1,326.7000000476837,10,1,experiment,NA,NA,1,0.7,0.3,2,3,78,2,NA
fcp-trial,126,837142,0.0-87.0-0.0,voc_e2,12119,"[{""event"":""fullscreenenter"",""trial"":1,""time"":83344}]",NA,NA,NA,NA,NA,4,#1CD855,#FA92F8,10,0,1,38,1,610.7000000476837,37,1,862,10,1,experiment,NA,NA,0,0.9,0.1,0,1,79,2,NA
fcp-trial,127,839317,0.0-88.0-0.0,voc_e2,12119,"[{""event"":""fullscreenenter"",""trial"":1,""time"":83344}]",NA,NA,NA,NA,NA,6,#FA92F8,#1CD855,0,10,0,38,1,372.39999997615814,39,0,299.2999999523163,10,1,experiment,NA,NA,0,0.1,0.9,1,0,80,2,NA
fcp-trial,128,841597,0.0-89.0-0.0,voc_e2,12119,"[{""event"":""fullscreenenter"",""trial"":1,""time"":83344}]",NA,NA,NA,NA,NA,2,#D8271C,#741CD8,0,10,0,38,1,501.40000009536743,39,0,274.89999997615814,10,1,experiment,NA,NA,1,0.3,0.7,3,2,81,2,NA
fcp-trial,129,844047,0.0-90.0-0.0,voc_e2,12119,"[{""event"":""fullscreenenter"",""trial"":1,""time"":83344}]",NA,NA,NA,NA,NA,0,#D89F1C,#3386FF,0,0,1,38,1,614.3999999761581,37,1,332.60000002384186,0,1,experiment,NA,NA,2,0.5,0.5,4,5,82,2,NA
fcp-trial,130,846794,0.0-91.0-0.0,voc_e2,12119,"[{""event"":""fullscreenenter"",""trial"":1,""time"":83344}]",NA,NA,NA,NA,NA,5,#741CD8,#D8271C,0,10,1,38,1,816.8999999761581,37,1,424.8000000715256,0,1,experiment,NA,NA,1,0.7,0.3,2,3,83,2,NA
fcp-trial,131,849849,0.0-92.0-0.0,voc_e2,12119,"[{""event"":""fullscreenenter"",""trial"":1,""time"":83344}]",NA,NA,NA,NA,NA,0,#1CD855,#FA92F8,10,0,1,38,1,757.2000000476837,37,1,792.3000000715256,10,1,experiment,NA,NA,0,0.9,0.1,0,1,84,2,NA
fcp-trial,132,852380,0.0-93.0-0.0,voc_e2,12119,"[{""event"":""fullscreenenter"",""trial"":1,""time"":83344}]",NA,NA,NA,NA,NA,0,#3386FF,#D89F1C,0,0,0,38,1,720.6999999284744,39,0,306.2000000476837,0,1,experiment,NA,NA,2,0.5,0.5,5,4,85,2,NA
fcp-trial,133,854843,0.0-94.0-0.0,voc_e2,12119,"[{""event"":""fullscreenenter"",""trial"":1,""time"":83344}]",NA,NA,NA,NA,NA,5,#D89F1C,#3386FF,10,10,1,38,1,430.60000002384186,37,1,529.1000000238419,10,1,experiment,NA,NA,2,0.5,0.5,4,5,86,2,NA
fcp-trial,134,857650,0.0-95.0-0.0,voc_e2,12119,"[{""event"":""fullscreenenter"",""trial"":1,""time"":83344}]",NA,NA,NA,NA,NA,5,#FA92F8,#1CD855,0,10,0,38,1,610.8000000715256,39,0,690.8000000715256,10,1,experiment,NA,NA,0,0.1,0.9,1,0,87,2,NA
fcp-trial,135,859891,0.0-96.0-0.0,voc_e2,12119,"[{""event"":""fullscreenenter"",""trial"":1,""time"":83344}]",NA,NA,NA,NA,NA,4,#FA92F8,#1CD855,0,10,0,38,1,385.39999997615814,39,0,350.5,10,1,experiment,NA,NA,0,0.1,0.9,1,0,88,2,NA
fcp-trial,136,862326,0.0-97.0-0.0,voc_e2,12119,"[{""event"":""fullscreenenter"",""trial"":1,""time"":83344}]",NA,NA,NA,NA,NA,2,#741CD8,#D8271C,10,10,1,38,1,603.1000000238419,37,1,329,10,1,experiment,NA,NA,1,0.7,0.3,2,3,89,2,NA
fcp-trial,137,864571,0.0-98.0-0.0,voc_e2,12119,"[{""event"":""fullscreenenter"",""trial"":1,""time"":83344}]",NA,NA,NA,NA,NA,4,#D89F1C,#3386FF,10,0,1,38,1,441.5,37,1,300.60000002384186,10,1,experiment,NA,NA,2,0.5,0.5,4,5,90,2,NA
fcp-trial,138,866764,0.0-99.0-0.0,voc_e2,12119,"[{""event"":""fullscreenenter"",""trial"":1,""time"":83344}]",NA,NA,NA,NA,NA,3,#FA92F8,#1CD855,0,10,0,38,1,397.90000009536743,39,0,289.89999997615814,10,1,experiment,NA,NA,0,0.1,0.9,1,0,91,3,NA
fcp-trial,139,869020,0.0-100.0-0.0,voc_e2,12119,"[{""event"":""fullscreenenter"",""trial"":1,""time"":83344}]",NA,NA,NA,NA,NA,5,#D8271C,#741CD8,0,10,0,38,1,412.39999997615814,39,0,339.89999997615814,10,1,experiment,NA,NA,1,0.3,0.7,3,2,92,3,NA
fcp-trial,140,871623,0.0-101.0-0.0,voc_e2,12119,"[{""event"":""fullscreenenter"",""trial"":1,""time"":83344}]",NA,NA,NA,NA,NA,6,#1CD855,#FA92F8,10,0,1,38,1,773.7000000476837,37,1,324,10,1,experiment,NA,NA,0,0.9,0.1,0,1,93,3,NA
fcp-trial,141,874018,0.0-102.0-0.0,voc_e2,12119,"[{""event"":""fullscreenenter"",""trial"":1,""time"":83344}]",NA,NA,NA,NA,NA,0,#1CD855,#FA92F8,10,0,1,38,1,527.6000000238419,37,1,363.7000000476837,10,1,experiment,NA,NA,0,0.9,0.1,0,1,94,3,NA
fcp-trial,142,877838,0.0-103.0-0.0,voc_e2,12119,"[{""event"":""fullscreenenter"",""trial"":1,""time"":83344}]",NA,NA,NA,NA,NA,2,#3386FF,#D89F1C,0,10,0,38,1,743.5,39,0,1571.600000023842,10,1,experiment,NA,NA,2,0.5,0.5,5,4,95,3,NA
fcp-trial,143,880241,0.0-104.0-0.0,voc_e2,12119,"[{""event"":""fullscreenenter"",""trial"":1,""time"":83344}]",NA,NA,NA,NA,NA,1,#D89F1C,#3386FF,10,0,1,38,1,488.7999999523163,37,1,412,10,1,experiment,NA,NA,2,0.5,0.5,4,5,96,3,NA
fcp-trial,144,882616,0.0-105.0-0.0,voc_e2,12119,"[{""event"":""fullscreenenter"",""trial"":1,""time"":83344}]",NA,NA,NA,NA,NA,1,#741CD8,#D8271C,0,0,1,38,1,521.7999999523163,37,1,347.89999997615814,0,1,experiment,NA,NA,1,0.7,0.3,2,3,97,3,NA
fcp-trial,145,884898,0.0-106.0-0.0,voc_e2,12119,"[{""event"":""fullscreenenter"",""trial"":1,""time"":83344}]",NA,NA,NA,NA,NA,3,#741CD8,#D8271C,10,10,1,38,1,414,37,1,365.1999999284744,10,1,experiment,NA,NA,1,0.7,0.3,2,3,98,3,NA
fcp-trial,146,887193,0.0-107.0-0.0,voc_e2,12119,"[{""event"":""fullscreenenter"",""trial"":1,""time"":83344}]",NA,NA,NA,NA,NA,1,#FA92F8,#1CD855,0,10,0,38,1,437.59999990463257,39,0,352.89999997615814,10,1,experiment,NA,NA,0,0.1,0.9,1,0,99,3,NA
fcp-trial,147,889600,0.0-108.0-0.0,voc_e2,12119,"[{""event"":""fullscreenenter"",""trial"":1,""time"":83344}]",NA,NA,NA,NA,NA,3,#D89F1C,#3386FF,0,10,1,38,1,540.5,37,1,361.59999990463257,0,1,experiment,NA,NA,2,0.5,0.5,4,5,100,3,NA
fcp-trial,148,891769,0.0-109.0-0.0,voc_e2,12119,"[{""event"":""fullscreenenter"",""trial"":1,""time"":83344}]",NA,NA,NA,NA,NA,6,#3386FF,#D89F1C,0,0,0,38,1,378.89999997615814,39,0,281.7000000476837,0,1,experiment,NA,NA,2,0.5,0.5,5,4,101,3,NA
fcp-trial,149,894344,0.0-110.0-0.0,voc_e2,12119,"[{""event"":""fullscreenenter"",""trial"":1,""time"":83344}]",NA,NA,NA,NA,NA,4,#D8271C,#741CD8,0,10,0,38,1,718.3000000715256,39,0,353.10000002384186,10,1,experiment,NA,NA,1,0.3,0.7,3,2,102,3,NA
fcp-trial,150,897104,0.0-111.0-0.0,voc_e2,12119,"[{""event"":""fullscreenenter"",""trial"":1,""time"":83344}]",NA,NA,NA,NA,NA,2,#FA92F8,#1CD855,0,10,0,38,1,504.2999999523163,39,0,751.8999999761581,10,1,experiment,NA,NA,0,0.1,0.9,1,0,103,3,NA
fcp-trial,151,899723,0.0-112.0-0.0,voc_e2,12119,"[{""event"":""fullscreenenter"",""trial"":1,""time"":83344}]",NA,NA,NA,NA,NA,6,#D8271C,#741CD8,10,10,0,38,1,292,39,0,823,10,1,experiment,NA,NA,1,0.3,0.7,3,2,104,3,NA
fcp-trial,152,901901,0.0-113.0-0.0,voc_e2,12119,"[{""event"":""fullscreenenter"",""trial"":1,""time"":83344}]",NA,NA,NA,NA,NA,0,#741CD8,#D8271C,10,10,1,38,1,317.5,37,1,355.2999999523163,10,1,experiment,NA,NA,1,0.7,0.3,2,3,105,3,NA
audio-instructions,153,974127,0.0-114.0,voc_e2,12119,"[{""event"":""fullscreenenter"",""trial"":1,""time"":83344}]",NA,67689.79999995232,static/audio/pause.wav,NA,0,NA,NA,NA,NA,NA,NA,NA,NA,NA,NA,NA,NA,NA,NA,NA,NA,NA,NA,NA,NA,NA,NA,NA,NA,NA
fcp-trial,154,978673,0.0-115.0-0.0,voc_e2,12119,"[{""event"":""fullscreenenter"",""trial"":1,""time"":83344}]",NA,NA,NA,NA,NA,5,#741CD8,#D8271C,10,0,1,38,1,1923.7999999523163,37,1,1115.4000000953674,10,1,experiment,NA,NA,1,0.7,0.3,2,3,106,3,NA
fcp-trial,155,981031,0.0-116.0-0.0,voc_e2,12119,"[{""event"":""fullscreenenter"",""trial"":1,""time"":83344}]",NA,NA,NA,NA,NA,2,#D89F1C,#3386FF,0,10,1,38,1,549.1000000238419,37,1,305.10000002384186,0,1,experiment,NA,NA,2,0.5,0.5,4,5,107,3,NA
fcp-trial,156,983402,0.0-117.0-0.0,voc_e2,12119,"[{""event"":""fullscreenenter"",""trial"":1,""time"":83344}]",NA,NA,NA,NA,NA,5,#1CD855,#FA92F8,10,0,1,38,1,480.2999999523163,37,1,387.39999997615814,10,1,experiment,NA,NA,0,0.9,0.1,0,1,108,3,NA
fcp-trial,157,985623,0.0-118.0-0.0,voc_e2,12119,"[{""event"":""fullscreenenter"",""trial"":1,""time"":83344}]",NA,NA,NA,NA,NA,5,#D89F1C,#3386FF,0,0,1,38,1,334.6999999284744,37,1,384.09999990463257,0,1,experiment,NA,NA,2,0.5,0.5,4,5,109,3,NA
fcp-trial,158,987856,0.0-119.0-0.0,voc_e2,12119,"[{""event"":""fullscreenenter"",""trial"":1,""time"":83344}]",NA,NA,NA,NA,NA,2,#741CD8,#D8271C,10,0,1,38,1,319.1999999284744,37,1,408.39999997615814,10,1,experiment,NA,NA,1,0.7,0.3,2,3,110,3,NA
fcp-trial,159,990409,0.0-120.0-0.0,voc_e2,12119,"[{""event"":""fullscreenenter"",""trial"":1,""time"":83344}]",NA,NA,NA,NA,NA,1,#3386FF,#D89F1C,10,10,0,38,1,738.7999999523163,39,0,310.5,10,1,experiment,NA,NA,2,0.5,0.5,5,4,111,3,NA
fcp-trial,160,993195,0.0-121.0-0.0,voc_e2,12119,"[{""event"":""fullscreenenter"",""trial"":1,""time"":83344}]",NA,NA,NA,NA,NA,2,#FA92F8,#1CD855,0,10,0,38,1,966.7000000476837,39,0,314.6999999284744,10,1,experiment,NA,NA,0,0.1,0.9,1,0,112,3,NA
fcp-trial,161,995463,0.0-122.0-0.0,voc_e2,12119,"[{""event"":""fullscreenenter"",""trial"":1,""time"":83344}]",NA,NA,NA,NA,NA,0,#1CD855,#FA92F8,10,0,1,38,1,422.10000002384186,37,1,340.1999999284744,10,1,experiment,NA,NA,0,0.9,0.1,0,1,113,3,NA
fcp-trial,162,997800,0.0-123.0-0.0,voc_e2,12119,"[{""event"":""fullscreenenter"",""trial"":1,""time"":83344}]",NA,NA,NA,NA,NA,1,#D8271C,#741CD8,10,10,0,38,1,380,39,0,452.2999999523163,10,1,experiment,NA,NA,1,0.3,0.7,3,2,114,3,NA
fcp-trial,163,1001361,0.0-124.0-0.0,voc_e2,12119,"[{""event"":""fullscreenenter"",""trial"":1,""time"":83344}]",NA,NA,NA,NA,NA,4,#D89F1C,#3386FF,10,0,1,38,1,332.1999999284744,37,1,1724.899999976158,10,1,experiment,NA,NA,2,0.5,0.5,4,5,115,3,NA
fcp-trial,164,1004969,0.0-125.0-0.0,voc_e2,12119,"[{""event"":""fullscreenenter"",""trial"":1,""time"":83344}]",NA,NA,NA,NA,NA,3,#D8271C,#741CD8,10,0,0,38,1,1842.6000000238419,39,0,261.5,0,1,experiment,NA,NA,1,0.3,0.7,3,2,116,3,NA
fcp-trial,165,1007584,0.0-126.0-0.0,voc_e2,12119,"[{""event"":""fullscreenenter"",""trial"":1,""time"":83344}]",NA,NA,NA,NA,NA,0,#3386FF,#D89F1C,0,10,0,38,1,568.2999999523163,39,0,543,10,1,experiment,NA,NA,2,0.5,0.5,5,4,117,3,NA
fcp-trial,166,1010849,0.0-127.0-0.0,voc_e2,12119,"[{""event"":""fullscreenenter"",""trial"":1,""time"":83344}]",NA,NA,NA,NA,NA,4,#FA92F8,#1CD855,0,10,0,38,1,624.2999999523163,39,0,1136,10,1,experiment,NA,NA,0,0.1,0.9,1,0,118,3,NA
fcp-trial,167,1013294,0.0-128.0-0.0,voc_e2,12119,"[{""event"":""fullscreenenter"",""trial"":1,""time"":83344}]",NA,NA,NA,NA,NA,1,#1CD855,#FA92F8,10,0,1,38,1,512.6000000238419,37,1,428.7999999523163,10,1,experiment,NA,NA,0,0.9,0.1,0,1,119,3,NA
fcp-trial,168,1016011,0.0-129.0-0.0,voc_e2,12119,"[{""event"":""fullscreenenter"",""trial"":1,""time"":83344}]",NA,NA,NA,NA,NA,3,#1CD855,#FA92F8,10,0,1,38,1,685.7999999523163,37,1,526.5,10,1,experiment,NA,NA,0,0.9,0.1,0,1,120,3,NA
fcp-trial,169,1019328,0.0-130.0-0.0,voc_e2,12119,"[{""event"":""fullscreenenter"",""trial"":1,""time"":83344}]",NA,NA,NA,NA,NA,0,#741CD8,#D8271C,10,0,1,38,1,1208.2000000476837,37,1,606.1000000238419,10,1,experiment,NA,NA,1,0.7,0.3,2,3,121,3,NA
fcp-trial,170,1023679,0.0-131.0-0.0,voc_e2,12119,"[{""event"":""fullscreenenter"",""trial"":1,""time"":83344}]",NA,NA,NA,NA,NA,6,#3386FF,#D89F1C,10,0,0,40,0,2171.399999976158,37,1,674.6999999284744,10,0,experiment,NA,NA,2,0.5,0.5,5,4,122,3,NA
fcp-trial,171,1026503,0.0-132.0-0.0,voc_e2,12119,"[{""event"":""fullscreenenter"",""trial"":1,""time"":83344}]",NA,NA,NA,NA,NA,6,#741CD8,#D8271C,0,10,1,40,0,968.9000000953674,37,1,351.09999990463257,0,1,experiment,NA,NA,1,0.7,0.3,2,3,123,3,NA
fcp-trial,172,1029603,0.0-133.0-0.0,voc_e2,12119,"[{""event"":""fullscreenenter"",""trial"":1,""time"":83344}]",NA,NA,NA,NA,NA,6,#FA92F8,#1CD855,0,10,0,40,0,1215.8999999761581,39,0,378.6999999284744,10,1,experiment,NA,NA,0,0.1,0.9,1,0,124,3,NA
fcp-trial,173,1035692,0.0-134.0-0.0,voc_e2,12119,"[{""event"":""fullscreenenter"",""trial"":1,""time"":83344}]",NA,NA,NA,NA,NA,4,#741CD8,#D8271C,10,0,1,38,1,2170.7000000476837,37,1,2414.5,10,1,experiment,NA,NA,1,0.7,0.3,2,3,125,3,NA
fcp-trial,174,1039296,0.0-135.0-0.0,voc_e2,12119,"[{""event"":""fullscreenenter"",""trial"":1,""time"":83344}]",NA,NA,NA,NA,NA,3,#D89F1C,#3386FF,10,0,1,38,1,1642.7999999523163,37,1,457.60000002384186,10,1,experiment,NA,NA,2,0.5,0.5,4,5,126,3,NA
fcp-trial,175,1042229,0.0-136.0-0.0,voc_e2,12119,"[{""event"":""fullscreenenter"",""trial"":1,""time"":83344}]",NA,NA,NA,NA,NA,2,#3386FF,#D89F1C,0,10,0,38,1,1111.2000000476837,39,0,318.10000002384186,10,1,experiment,NA,NA,2,0.5,0.5,5,4,127,3,NA
fcp-trial,176,1045102,0.0-137.0-0.0,voc_e2,12119,"[{""event"":""fullscreenenter"",""trial"":1,""time"":83344}]",NA,NA,NA,NA,NA,5,#D8271C,#741CD8,0,0,0,40,0,926,37,1,443.09999990463257,0,0,experiment,NA,NA,1,0.3,0.7,3,2,128,3,NA
fcp-trial,177,1047733,0.0-138.0-0.0,voc_e2,12119,"[{""event"":""fullscreenenter"",""trial"":1,""time"":83344}]",NA,NA,NA,NA,NA,6,#741CD8,#D8271C,10,10,1,40,0,644.2999999523163,39,0,483.60000002384186,10,0,experiment,NA,NA,1,0.7,0.3,2,3,129,3,NA
fcp-trial,178,1050735,0.0-139.0-0.0,voc_e2,12119,"[{""event"":""fullscreenenter"",""trial"":1,""time"":83344}]",NA,NA,NA,NA,NA,5,#1CD855,#FA92F8,10,10,1,40,0,1072.3000000715256,37,1,426.10000002384186,10,1,experiment,NA,NA,0,0.9,0.1,0,1,130,3,NA
fcp-trial,179,1053554,0.0-140.0-0.0,voc_e2,12119,"[{""event"":""fullscreenenter"",""trial"":1,""time"":83344}]",NA,NA,NA,NA,NA,4,#1CD855,#FA92F8,10,0,1,38,1,958.4000000953674,37,1,356.10000002384186,10,1,experiment,NA,NA,0,0.9,0.1,0,1,131,3,NA
fcp-trial,180,1056565,0.0-141.0-0.0,voc_e2,12119,"[{""event"":""fullscreenenter"",""trial"":1,""time"":83344}]",NA,NA,NA,NA,NA,5,#D89F1C,#3386FF,0,10,1,40,0,1167.5,37,1,339.90000009536743,0,1,experiment,NA,NA,2,0.5,0.5,4,5,132,3,NA
fcp-trial,181,1060232,0.0-142.0-0.0,voc_e2,12119,"[{""event"":""fullscreenenter"",""trial"":1,""time"":83344}]",NA,NA,NA,NA,NA,0,#741CD8,#D8271C,0,0,1,38,1,1284.1000000238419,37,1,878.6000000238419,0,1,experiment,NA,NA,1,0.7,0.3,2,3,133,3,NA
fcp-trial,182,1063960,0.0-143.0-0.0,voc_e2,12119,"[{""event"":""fullscreenenter"",""trial"":1,""time"":83344}]",NA,NA,NA,NA,NA,1,#FA92F8,#1CD855,0,10,0,38,1,1846.3999999761581,39,0,377.39999997615814,10,1,experiment,NA,NA,0,0.1,0.9,1,0,134,3,NA
fcp-trial,183,1066988,0.0-144.0-0.0,voc_e2,12119,"[{""event"":""fullscreenenter"",""trial"":1,""time"":83344}]",NA,NA,NA,NA,NA,4,#3386FF,#D89F1C,0,0,0,38,1,1183.6000000238419,39,0,341,0,1,experiment,NA,NA,2,0.5,0.5,5,4,135,3,NA
fcp-trial,184,1069762,0.0-145.0-0.0,voc_e2,12119,"[{""event"":""fullscreenenter"",""trial"":1,""time"":83344}]",NA,NA,NA,NA,NA,6,#D89F1C,#3386FF,10,10,1,40,0,835.8000000715256,39,0,434.39999997615814,10,0,experiment,NA,NA,2,0.5,0.5,4,5,136,4,NA
fcp-trial,185,1072524,0.0-146.0-0.0,voc_e2,12119,"[{""event"":""fullscreenenter"",""trial"":1,""time"":83344}]",NA,NA,NA,NA,NA,3,#741CD8,#D8271C,0,10,1,38,1,907.5,37,1,350,0,1,experiment,NA,NA,1,0.7,0.3,2,3,137,4,NA
fcp-trial,186,1075344,0.0-147.0-0.0,voc_e2,12119,"[{""event"":""fullscreenenter"",""trial"":1,""time"":83344}]",NA,NA,NA,NA,NA,1,#D8271C,#741CD8,0,10,0,38,1,1020.5,39,0,295.6999999284744,10,1,experiment,NA,NA,1,0.3,0.7,3,2,138,4,NA
fcp-trial,187,1078280,0.0-148.0-0.0,voc_e2,12119,"[{""event"":""fullscreenenter"",""trial"":1,""time"":83344}]",NA,NA,NA,NA,NA,6,#FA92F8,#1CD855,0,0,0,40,0,1022.5,37,1,407.60000002384186,0,0,experiment,NA,NA,0,0.1,0.9,1,0,139,4,NA
fcp-trial,188,1081894,0.0-149.0-0.0,voc_e2,12119,"[{""event"":""fullscreenenter"",""trial"":1,""time"":83344}]",NA,NA,NA,NA,NA,2,#741CD8,#D8271C,10,0,1,38,1,1132.6999999284744,37,1,978.5,10,1,experiment,NA,NA,1,0.7,0.3,2,3,140,4,NA
fcp-trial,189,1084656,0.0-150.0-0.0,voc_e2,12119,"[{""event"":""fullscreenenter"",""trial"":1,""time"":83344}]",NA,NA,NA,NA,NA,1,#3386FF,#D89F1C,10,10,0,38,1,943.1000000238419,39,0,314.3000000715256,10,1,experiment,NA,NA,2,0.5,0.5,5,4,141,4,NA
fcp-trial,190,1087959,0.0-151.0-0.0,voc_e2,12119,"[{""event"":""fullscreenenter"",""trial"":1,""time"":83344}]",NA,NA,NA,NA,NA,0,#FA92F8,#1CD855,0,10,0,38,1,1001.3999999761581,39,0,798.6000000238419,10,1,experiment,NA,NA,0,0.1,0.9,1,0,142,4,NA
fcp-trial,191,1090539,0.0-152.0-0.0,voc_e2,12119,"[{""event"":""fullscreenenter"",""trial"":1,""time"":83344}]",NA,NA,NA,NA,NA,0,#3386FF,#D89F1C,0,10,0,38,1,722.3999999761581,39,0,353.2999999523163,10,1,experiment,NA,NA,2,0.5,0.5,5,4,143,4,NA
fcp-trial,192,1093426,0.0-153.0-0.0,voc_e2,12119,"[{""event"":""fullscreenenter"",""trial"":1,""time"":83344}]",NA,NA,NA,NA,NA,4,#D8271C,#741CD8,0,10,0,38,1,990.7999999523163,39,0,393,10,1,experiment,NA,NA,1,0.3,0.7,3,2,144,4,NA
fcp-trial,193,1096021,0.0-154.0-0.0,voc_e2,12119,"[{""event"":""fullscreenenter"",""trial"":1,""time"":83344}]",NA,NA,NA,NA,NA,3,#FA92F8,#1CD855,0,10,0,38,1,617.6999999284744,39,0,472.2999999523163,10,1,experiment,NA,NA,0,0.1,0.9,1,0,145,4,NA
fcp-trial,194,1098502,0.0-155.0-0.0,voc_e2,12119,"[{""event"":""fullscreenenter"",""trial"":1,""time"":83344}]",NA,NA,NA,NA,NA,3,#D89F1C,#3386FF,10,10,1,38,1,612.3999999761581,37,1,365.6999999284744,10,1,experiment,NA,NA,2,0.5,0.5,4,5,146,4,NA
fcp-trial,195,1101135,0.0-156.0-0.0,voc_e2,12119,"[{""event"":""fullscreenenter"",""trial"":1,""time"":83344}]",NA,NA,NA,NA,NA,2,#FA92F8,#1CD855,0,10,0,38,1,763.8999999761581,39,0,365.39999997615814,10,1,experiment,NA,NA,0,0.1,0.9,1,0,147,4,NA
fcp-trial,196,1103760,0.0-157.0-0.0,voc_e2,12119,"[{""event"":""fullscreenenter"",""trial"":1,""time"":83344}]",NA,NA,NA,NA,NA,3,#D8271C,#741CD8,10,10,0,38,1,754.3999999761581,37,1,367.3000000715256,10,0,experiment,NA,NA,1,0.3,0.7,3,2,148,4,NA
fcp-trial,197,1106379,0.0-158.0-0.0,voc_e2,12119,"[{""event"":""fullscreenenter"",""trial"":1,""time"":83344}]",NA,NA,NA,NA,NA,3,#FA92F8,#1CD855,0,0,0,38,1,784.5,39,0,327.89999997615814,0,1,experiment,NA,NA,0,0.1,0.9,1,0,149,4,NA
fcp-trial,198,1109804,0.0-159.0-0.0,voc_e2,12119,"[{""event"":""fullscreenenter"",""trial"":1,""time"":83344}]",NA,NA,NA,NA,NA,4,#1CD855,#FA92F8,10,10,1,38,1,848.4000000953674,37,1,1072.399999976158,10,1,experiment,NA,NA,0,0.9,0.1,0,1,150,4,NA
fcp-trial,199,1112691,0.0-160.0-0.0,voc_e2,12119,"[{""event"":""fullscreenenter"",""trial"":1,""time"":83344}]",NA,NA,NA,NA,NA,2,#3386FF,#D89F1C,0,0,0,38,1,1015.7000000476837,39,0,366.3000000715256,0,1,experiment,NA,NA,2,0.5,0.5,5,4,151,4,NA
fcp-trial,200,1115847,0.0-161.0-0.0,voc_e2,12119,"[{""event"":""fullscreenenter"",""trial"":1,""time"":83344}]",NA,NA,NA,NA,NA,5,#741CD8,#D8271C,10,10,1,40,0,1258.2999999523163,37,1,392.90000009536743,10,1,experiment,NA,NA,1,0.7,0.3,2,3,152,4,NA
fcp-trial,201,1118837,0.0-162.0-0.0,voc_e2,12119,"[{""event"":""fullscreenenter"",""trial"":1,""time"":83344}]",NA,NA,NA,NA,NA,5,#FA92F8,#1CD855,0,10,0,40,0,1189.7000000476837,39,0,295.7999999523163,10,1,experiment,NA,NA,0,0.1,0.9,1,0,153,4,NA
fcp-trial,202,1121380,0.0-163.0-0.0,voc_e2,12119,"[{""event"":""fullscreenenter"",""trial"":1,""time"":83344}]",NA,NA,NA,NA,NA,2,#FA92F8,#1CD855,0,10,0,38,1,755.1999999284744,39,0,282.7999999523163,10,1,experiment,NA,NA,0,0.1,0.9,1,0,154,4,NA
fcp-trial,203,1124055,0.0-164.0-0.0,voc_e2,12119,"[{""event"":""fullscreenenter"",""trial"":1,""time"":83344}]",NA,NA,NA,NA,NA,1,#D8271C,#741CD8,0,10,0,38,1,729.2999999523163,39,0,441.5,10,1,experiment,NA,NA,1,0.3,0.7,3,2,155,4,NA
fcp-trial,204,1126551,0.0-165.0-0.0,voc_e2,12119,"[{""event"":""fullscreenenter"",""trial"":1,""time"":83344}]",NA,NA,NA,NA,NA,0,#D89F1C,#3386FF,10,10,1,38,1,652.7999999523163,37,1,333.89999997615814,10,1,experiment,NA,NA,2,0.5,0.5,4,5,156,4,NA
fcp-trial,205,1129279,0.0-166.0-0.0,voc_e2,12119,"[{""event"":""fullscreenenter"",""trial"":1,""time"":83344}]",NA,NA,NA,NA,NA,5,#3386FF,#D89F1C,0,10,0,40,0,598.6999999284744,37,1,624.7000000476837,0,0,experiment,NA,NA,2,0.5,0.5,5,4,157,4,NA
fcp-trial,206,1131962,0.0-167.0-0.0,voc_e2,12119,"[{""event"":""fullscreenenter"",""trial"":1,""time"":83344}]",NA,NA,NA,NA,NA,0,#1CD855,#FA92F8,10,0,1,38,1,770.7999999523163,37,1,408,10,1,experiment,NA,NA,0,0.9,0.1,0,1,158,4,NA
fcp-trial,207,1134843,0.0-168.0-0.0,voc_e2,12119,"[{""event"":""fullscreenenter"",""trial"":1,""time"":83344}]",NA,NA,NA,NA,NA,4,#D8271C,#741CD8,0,0,0,38,1,1076.2999999523163,39,0,301,0,1,experiment,NA,NA,1,0.3,0.7,3,2,159,4,NA
fcp-trial,208,1137562,0.0-169.0-0.0,voc_e2,12119,"[{""event"":""fullscreenenter"",""trial"":1,""time"":83344}]",NA,NA,NA,NA,NA,6,#1CD855,#FA92F8,10,0,1,40,0,857.1000000238419,37,1,356,10,1,experiment,NA,NA,0,0.9,0.1,0,1,160,4,NA
fcp-trial,209,1140275,0.0-170.0-0.0,voc_e2,12119,"[{""event"":""fullscreenenter"",""trial"":1,""time"":83344}]",NA,NA,NA,NA,NA,6,#3386FF,#D89F1C,10,0,0,40,0,862.1000000238419,37,1,346.60000002384186,10,0,experiment,NA,NA,2,0.5,0.5,5,4,161,4,NA
fcp-trial,210,1142978,0.0-171.0-0.0,voc_e2,12119,"[{""event"":""fullscreenenter"",""trial"":1,""time"":83344}]",NA,NA,NA,NA,NA,6,#741CD8,#D8271C,10,0,1,40,0,829.6000000238419,37,1,368.90000009536743,10,1,experiment,NA,NA,1,0.7,0.3,2,3,162,4,NA
fcp-trial,211,1145993,0.0-172.0-0.0,voc_e2,12119,"[{""event"":""fullscreenenter"",""trial"":1,""time"":83344}]",NA,NA,NA,NA,NA,4,#D89F1C,#3386FF,0,0,1,38,1,1175.1000000238419,37,1,336.60000002384186,0,1,experiment,NA,NA,2,0.5,0.5,4,5,163,4,NA
fcp-trial,212,1148598,0.0-173.0-0.0,voc_e2,12119,"[{""event"":""fullscreenenter"",""trial"":1,""time"":83344}]",NA,NA,NA,NA,NA,1,#1CD855,#FA92F8,10,0,1,38,1,799.6000000238419,37,1,301.3000000715256,10,1,experiment,NA,NA,0,0.9,0.1,0,1,164,4,NA
fcp-trial,213,1151468,0.0-174.0-0.0,voc_e2,12119,"[{""event"":""fullscreenenter"",""trial"":1,""time"":83344}]",NA,NA,NA,NA,NA,1,#3386FF,#D89F1C,10,0,0,38,1,789.8000000715256,39,0,576.2999999523163,0,1,experiment,NA,NA,2,0.5,0.5,5,4,165,4,NA
fcp-trial,214,1154696,0.0-175.0-0.0,voc_e2,12119,"[{""event"":""fullscreenenter"",""trial"":1,""time"":83344}]",NA,NA,NA,NA,NA,2,#741CD8,#D8271C,10,0,1,38,1,1073.8999999761581,37,1,649.0999999046326,10,1,experiment,NA,NA,1,0.7,0.3,2,3,166,4,NA
fcp-trial,215,1157286,0.0-176.0-0.0,voc_e2,12119,"[{""event"":""fullscreenenter"",""trial"":1,""time"":83344}]",NA,NA,NA,NA,NA,3,#3386FF,#D89F1C,0,0,0,38,1,749.7000000476837,39,0,338,0,1,experiment,NA,NA,2,0.5,0.5,5,4,167,4,NA
fcp-trial,216,1159787,0.0-177.0-0.0,voc_e2,12119,"[{""event"":""fullscreenenter"",""trial"":1,""time"":83344}]",NA,NA,NA,NA,NA,0,#741CD8,#D8271C,10,0,1,38,1,700.8999999761581,37,1,294.5,10,1,experiment,NA,NA,1,0.7,0.3,2,3,168,4,NA
fcp-trial,217,1162248,0.0-178.0-0.0,voc_e2,12119,"[{""event"":""fullscreenenter"",""trial"":1,""time"":83344}]",NA,NA,NA,NA,NA,2,#3386FF,#D89F1C,10,0,0,38,1,682.3000000715256,39,0,274.39999997615814,0,1,experiment,NA,NA,2,0.5,0.5,5,4,169,4,NA
fcp-trial,218,1164795,0.0-179.0-0.0,voc_e2,12119,"[{""event"":""fullscreenenter"",""trial"":1,""time"":83344}]",NA,NA,NA,NA,NA,2,#741CD8,#D8271C,10,10,1,38,1,745.1000000238419,37,1,297.2000000476837,10,1,experiment,NA,NA,1,0.7,0.3,2,3,170,4,NA
fcp-trial,219,1167136,0.0-180.0-0.0,voc_e2,12119,"[{""event"":""fullscreenenter"",""trial"":1,""time"":83344}]",NA,NA,NA,NA,NA,2,#FA92F8,#1CD855,0,10,0,38,1,578.7999999523163,39,0,257.7000000476837,10,1,experiment,NA,NA,0,0.1,0.9,1,0,171,4,NA
fcp-trial,220,1170452,0.0-181.0-0.0,voc_e2,12119,"[{""event"":""fullscreenenter"",""trial"":1,""time"":83344}]",NA,NA,NA,NA,NA,4,#D89F1C,#3386FF,10,0,1,38,1,1413,37,1,400.60000002384186,10,1,experiment,NA,NA,2,0.5,0.5,4,5,172,4,NA
fcp-trial,221,1173362,0.0-182.0-0.0,voc_e2,12119,"[{""event"":""fullscreenenter"",""trial"":1,""time"":83344}]",NA,NA,NA,NA,NA,0,#D8271C,#741CD8,0,10,0,38,1,867.2000000476837,39,0,538.9000000953674,10,1,experiment,NA,NA,1,0.3,0.7,3,2,173,4,NA
fcp-trial,222,1175882,0.0-183.0-0.0,voc_e2,12119,"[{""event"":""fullscreenenter"",""trial"":1,""time"":83344}]",NA,NA,NA,NA,NA,1,#1CD855,#FA92F8,10,0,1,38,1,667.3000000715256,37,1,348.5,10,1,experiment,NA,NA,0,0.9,0.1,0,1,174,4,NA
fcp-trial,223,1178364,0.0-184.0-0.0,voc_e2,12119,"[{""event"":""fullscreenenter"",""trial"":1,""time"":83344}]",NA,NA,NA,NA,NA,1,#3386FF,#D89F1C,0,0,0,38,1,605.1000000238419,39,0,372.40000009536743,0,1,experiment,NA,NA,2,0.5,0.5,5,4,175,4,NA
fcp-trial,224,1181015,0.0-185.0-0.0,voc_e2,12119,"[{""event"":""fullscreenenter"",""trial"":1,""time"":83344}]",NA,NA,NA,NA,NA,4,#D8271C,#741CD8,0,10,0,38,1,685.5,39,0,460.5,10,1,experiment,NA,NA,1,0.3,0.7,3,2,176,4,NA
fcp-trial,225,1183778,0.0-186.0-0.0,voc_e2,12119,"[{""event"":""fullscreenenter"",""trial"":1,""time"":83344}]",NA,NA,NA,NA,NA,3,#D89F1C,#3386FF,10,0,1,38,1,598,37,1,659.7000000476837,10,1,experiment,NA,NA,2,0.5,0.5,4,5,177,4,NA
fcp-trial,226,1186606,0.0-187.0-0.0,voc_e2,12119,"[{""event"":""fullscreenenter"",""trial"":1,""time"":83344}]",NA,NA,NA,NA,NA,3,#1CD855,#FA92F8,10,0,1,38,1,766.1999999284744,37,1,558,10,1,experiment,NA,NA,0,0.9,0.1,0,1,178,4,NA
fcp-trial,227,1189147,0.0-188.0-0.0,voc_e2,12119,"[{""event"":""fullscreenenter"",""trial"":1,""time"":83344}]",NA,NA,NA,NA,NA,6,#741CD8,#D8271C,0,10,1,40,0,552.7000000476837,39,0,483.39999997615814,10,0,experiment,NA,NA,1,0.7,0.3,2,3,179,4,NA
fcp-trial,228,1191606,0.0-189.0-0.0,voc_e2,12119,"[{""event"":""fullscreenenter"",""trial"":1,""time"":83344}]",NA,NA,NA,NA,NA,6,#1CD855,#FA92F8,10,0,1,40,0,557.1000000238419,37,1,398.10000002384186,10,1,experiment,NA,NA,0,0.9,0.1,0,1,180,4,NA
fcp-trial,229,1194243,0.0-190.0-0.0,voc_e2,12119,"[{""event"":""fullscreenenter"",""trial"":1,""time"":83344}]",NA,NA,NA,NA,NA,5,#D8271C,#741CD8,0,10,0,40,0,721,37,1,408.7999999523163,0,0,experiment,NA,NA,1,0.3,0.7,3,2,181,5,NA
fcp-trial,230,1197037,0.0-191.0-0.0,voc_e2,12119,"[{""event"":""fullscreenenter"",""trial"":1,""time"":83344}]",NA,NA,NA,NA,NA,0,#3386FF,#D89F1C,0,10,0,38,1,648.5,39,0,641.5,10,1,experiment,NA,NA,2,0.5,0.5,5,4,182,5,NA
fcp-trial,231,1199646,0.0-192.0-0.0,voc_e2,12119,"[{""event"":""fullscreenenter"",""trial"":1,""time"":83344}]",NA,NA,NA,NA,NA,1,#741CD8,#D8271C,0,0,1,38,1,697.8999999761581,37,1,407.3000000715256,0,1,experiment,NA,NA,1,0.7,0.3,2,3,183,5,NA
fcp-trial,232,1202187,0.0-193.0-0.0,voc_e2,12119,"[{""event"":""fullscreenenter"",""trial"":1,""time"":83344}]",NA,NA,NA,NA,NA,6,#3386FF,#D89F1C,10,10,0,40,0,665.7000000476837,39,0,371.2999999523163,10,1,experiment,NA,NA,2,0.5,0.5,5,4,184,5,NA
fcp-trial,233,1204896,0.0-194.0-0.0,voc_e2,12119,"[{""event"":""fullscreenenter"",""trial"":1,""time"":83344}]",NA,NA,NA,NA,NA,4,#1CD855,#FA92F8,0,0,1,40,0,850,37,1,357,0,1,experiment,NA,NA,0,0.9,0.1,0,1,185,5,NA
fcp-trial,234,1207496,0.0-195.0-0.0,voc_e2,12119,"[{""event"":""fullscreenenter"",""trial"":1,""time"":83344}]",NA,NA,NA,NA,NA,3,#D8271C,#741CD8,0,10,0,38,1,785,39,0,310,10,1,experiment,NA,NA,1,0.3,0.7,3,2,186,5,NA
fcp-trial,235,1210168,0.0-196.0-0.0,voc_e2,12119,"[{""event"":""fullscreenenter"",""trial"":1,""time"":83344}]",NA,NA,NA,NA,NA,5,#D89F1C,#3386FF,10,10,1,40,0,806.5,37,1,361.1999999284744,10,1,experiment,NA,NA,2,0.5,0.5,4,5,187,5,NA
fcp-trial,236,1213037,0.0-197.0-0.0,voc_e2,12119,"[{""event"":""fullscreenenter"",""trial"":1,""time"":83344}]",NA,NA,NA,NA,NA,5,#1CD855,#FA92F8,10,10,1,40,0,1014.1000000238419,39,0,351.5,10,0,experiment,NA,NA,0,0.9,0.1,0,1,188,5,NA
fcp-trial,237,1215578,0.0-198.0-0.0,voc_e2,12119,"[{""event"":""fullscreenenter"",""trial"":1,""time"":83344}]",NA,NA,NA,NA,NA,0,#1CD855,#FA92F8,10,0,1,38,1,671.6000000238419,37,1,364.60000002384186,10,1,experiment,NA,NA,0,0.9,0.1,0,1,189,5,NA
fcp-trial,238,1218019,0.0-199.0-0.0,voc_e2,12119,"[{""event"":""fullscreenenter"",""trial"":1,""time"":83344}]",NA,NA,NA,NA,NA,2,#FA92F8,#1CD855,0,10,0,38,1,626.0999999046326,39,0,310.60000002384186,10,1,experiment,NA,NA,0,0.1,0.9,1,0,190,5,NA
fcp-trial,239,1220460,0.0-200.0-0.0,voc_e2,12119,"[{""event"":""fullscreenenter"",""trial"":1,""time"":83344}]",NA,NA,NA,NA,NA,6,#FA92F8,#1CD855,0,10,0,40,0,579.6000000238419,37,1,357.39999997615814,0,0,experiment,NA,NA,0,0.1,0.9,1,0,191,5,NA
fcp-trial,240,1223037,0.0-201.0-0.0,voc_e2,12119,"[{""event"":""fullscreenenter"",""trial"":1,""time"":83344}]",NA,NA,NA,NA,NA,1,#D8271C,#741CD8,10,10,0,38,1,578.8999999761581,39,0,495.2000000476837,10,1,experiment,NA,NA,1,0.3,0.7,3,2,192,5,NA
fcp-trial,241,1225480,0.0-202.0-0.0,voc_e2,12119,"[{""event"":""fullscreenenter"",""trial"":1,""time"":83344}]",NA,NA,NA,NA,NA,5,#3386FF,#D89F1C,0,0,0,40,0,580.7000000476837,37,1,358.89999997615814,0,0,experiment,NA,NA,2,0.5,0.5,5,4,193,5,NA
fcp-trial,242,1227933,0.0-203.0-0.0,voc_e2,12119,"[{""event"":""fullscreenenter"",""trial"":1,""time"":83344}]",NA,NA,NA,NA,NA,3,#741CD8,#D8271C,0,0,1,38,1,578.7999999523163,37,1,369,0,1,experiment,NA,NA,1,0.7,0.3,2,3,194,5,NA
fcp-trial,243,1230373,0.0-204.0-0.0,voc_e2,12119,"[{""event"":""fullscreenenter"",""trial"":1,""time"":83344}]",NA,NA,NA,NA,NA,4,#1CD855,#FA92F8,0,0,1,38,1,658.2999999523163,37,1,278.8000000715256,0,1,experiment,NA,NA,0,0.9,0.1,0,1,195,5,NA
fcp-trial,244,1232960,0.0-205.0-0.0,voc_e2,12119,"[{""event"":""fullscreenenter"",""trial"":1,""time"":83344}]",NA,NA,NA,NA,NA,0,#3386FF,#D89F1C,10,0,0,38,1,636.8000000715256,39,0,444.5,0,1,experiment,NA,NA,2,0.5,0.5,5,4,196,5,NA
fcp-trial,245,1235607,0.0-206.0-0.0,voc_e2,12119,"[{""event"":""fullscreenenter"",""trial"":1,""time"":83344}]",NA,NA,NA,NA,NA,6,#D8271C,#741CD8,0,0,0,40,0,777,39,0,366,0,1,experiment,NA,NA,1,0.3,0.7,3,2,197,5,NA
fcp-trial,246,1238073,0.0-207.0-0.0,voc_e2,12119,"[{""event"":""fullscreenenter"",""trial"":1,""time"":83344}]",NA,NA,NA,NA,NA,5,#FA92F8,#1CD855,0,0,0,40,0,640.2999999523163,39,0,321.5,0,1,experiment,NA,NA,0,0.1,0.9,1,0,198,5,NA
fcp-trial,247,1240598,0.0-208.0-0.0,voc_e2,12119,"[{""event"":""fullscreenenter"",""trial"":1,""time"":83344}]",NA,NA,NA,NA,NA,4,#D8271C,#741CD8,0,10,0,38,1,600.1000000238419,39,0,420.2000000476837,10,1,experiment,NA,NA,1,0.3,0.7,3,2,199,5,NA
fcp-trial,248,1243312,0.0-209.0-0.0,voc_e2,12119,"[{""event"":""fullscreenenter"",""trial"":1,""time"":83344}]",NA,NA,NA,NA,NA,6,#3386FF,#D89F1C,10,10,0,40,0,875.5999999046326,37,1,328.89999997615814,10,0,experiment,NA,NA,2,0.5,0.5,5,4,200,5,NA
fcp-trial,249,1245846,0.0-210.0-0.0,voc_e2,12119,"[{""event"":""fullscreenenter"",""trial"":1,""time"":83344}]",NA,NA,NA,NA,NA,1,#D89F1C,#3386FF,0,10,1,38,1,692.5,37,1,338.8000000715256,0,1,experiment,NA,NA,2,0.5,0.5,4,5,201,5,NA
fcp-trial,250,1248431,0.0-211.0-0.0,voc_e2,12119,"[{""event"":""fullscreenenter"",""trial"":1,""time"":83344}]",NA,NA,NA,NA,NA,3,#FA92F8,#1CD855,0,10,0,38,1,740.0999999046326,39,0,340.7000000476837,10,1,experiment,NA,NA,0,0.1,0.9,1,0,202,5,NA
fcp-trial,251,1251027,0.0-212.0-0.0,voc_e2,12119,"[{""event"":""fullscreenenter"",""trial"":1,""time"":83344}]",NA,NA,NA,NA,NA,2,#3386FF,#D89F1C,0,10,0,38,1,725,39,0,367.7000000476837,10,1,experiment,NA,NA,2,0.5,0.5,5,4,203,5,NA
fcp-trial,252,1253505,0.0-213.0-0.0,voc_e2,12119,"[{""event"":""fullscreenenter"",""trial"":1,""time"":83344}]",NA,NA,NA,NA,NA,5,#D8271C,#741CD8,10,0,0,40,0,653.8999999761581,39,0,319.7999999523163,0,1,experiment,NA,NA,1,0.3,0.7,3,2,204,5,NA
fcp-trial,253,1256392,0.0-214.0-0.0,voc_e2,12119,"[{""event"":""fullscreenenter"",""trial"":1,""time"":83344}]",NA,NA,NA,NA,NA,0,#FA92F8,#1CD855,0,10,0,38,1,947.1000000238419,39,0,435.89999997615814,10,1,experiment,NA,NA,0,0.1,0.9,1,0,205,5,NA
fcp-trial,254,1259040,0.0-215.0-0.0,voc_e2,12119,"[{""event"":""fullscreenenter"",""trial"":1,""time"":83344}]",NA,NA,NA,NA,NA,3,#D89F1C,#3386FF,0,0,1,38,1,855.8999999761581,39,0,288.7999999523163,0,0,experiment,NA,NA,2,0.5,0.5,4,5,206,5,NA
fcp-trial,255,1261647,0.0-216.0-0.0,voc_e2,12119,"[{""event"":""fullscreenenter"",""trial"":1,""time"":83344}]",NA,NA,NA,NA,NA,2,#D8271C,#741CD8,0,0,0,38,1,785.6000000238419,39,0,316.5,0,1,experiment,NA,NA,1,0.3,0.7,3,2,207,5,NA
fcp-trial,256,1264329,0.0-217.0-0.0,voc_e2,12119,"[{""event"":""fullscreenenter"",""trial"":1,""time"":83344}]",NA,NA,NA,NA,NA,0,#741CD8,#D8271C,10,0,1,38,1,705.6000000238419,37,1,472,10,1,experiment,NA,NA,1,0.7,0.3,2,3,208,5,NA
fcp-trial,257,1266961,0.0-218.0-0.0,voc_e2,12119,"[{""event"":""fullscreenenter"",""trial"":1,""time"":83344}]",NA,NA,NA,NA,NA,1,#1CD855,#FA92F8,10,0,1,38,1,758.2999999523163,37,1,370.09999990463257,10,1,experiment,NA,NA,0,0.9,0.1,0,1,209,5,NA
fcp-trial,258,1270186,0.0-219.0-0.0,voc_e2,12119,"[{""event"":""fullscreenenter"",""trial"":1,""time"":83344}]",NA,NA,NA,NA,NA,4,#D89F1C,#3386FF,0,0,1,40,0,1366,37,1,355.7000000476837,0,1,experiment,NA,NA,2,0.5,0.5,4,5,210,5,NA
audio-instructions,259,1374871,0.0-220.0,voc_e2,12119,"[{""event"":""fullscreenenter"",""trial"":1,""time"":83344}]",NA,100167.5,static/audio/pause.wav,NA,0,NA,NA,NA,NA,NA,NA,NA,NA,NA,NA,NA,NA,NA,NA,NA,NA,NA,NA,NA,NA,NA,NA,NA,NA,NA
fcp-trial,260,1377766,0.0-221.0-0.0,voc_e2,12119,"[{""event"":""fullscreenenter"",""trial"":1,""time"":83344}]",NA,NA,NA,NA,NA,6,#741CD8,#D8271C,10,0,1,40,0,1017.5999999046326,39,0,370.60000002384186,0,0,experiment,NA,NA,1,0.7,0.3,2,3,211,5,NA
fcp-trial,261,1380558,0.0-222.0-0.0,voc_e2,12119,"[{""event"":""fullscreenenter"",""trial"":1,""time"":83344}]",NA,NA,NA,NA,NA,3,#3386FF,#D89F1C,10,10,0,38,1,750.5,39,0,536.1000000238419,10,1,experiment,NA,NA,2,0.5,0.5,5,4,212,5,NA
fcp-trial,262,1383435,0.0-223.0-0.0,voc_e2,12119,"[{""event"":""fullscreenenter"",""trial"":1,""time"":83344}]",NA,NA,NA,NA,NA,4,#D8271C,#741CD8,10,0,0,38,1,979.2000000476837,39,0,394.09999990463257,0,1,experiment,NA,NA,1,0.3,0.7,3,2,213,5,NA
fcp-trial,263,1385937,0.0-224.0-0.0,voc_e2,12119,"[{""event"":""fullscreenenter"",""trial"":1,""time"":83344}]",NA,NA,NA,NA,NA,1,#1CD855,#FA92F8,10,10,1,38,1,597.2000000476837,37,1,401.6999999284744,10,1,experiment,NA,NA,0,0.9,0.1,0,1,214,5,NA
fcp-trial,264,1388588,0.0-225.0-0.0,voc_e2,12119,"[{""event"":""fullscreenenter"",""trial"":1,""time"":83344}]",NA,NA,NA,NA,NA,1,#D89F1C,#3386FF,10,0,1,38,1,657.5999999046326,37,1,491,10,1,experiment,NA,NA,2,0.5,0.5,4,5,215,5,NA
fcp-trial,265,1391404,0.0-226.0-0.0,voc_e2,12119,"[{""event"":""fullscreenenter"",""trial"":1,""time"":83344}]",NA,NA,NA,NA,NA,3,#741CD8,#D8271C,10,0,1,38,1,946.8000000715256,37,1,365,10,1,experiment,NA,NA,1,0.7,0.3,2,3,216,5,NA
fcp-trial,266,1394315,0.0-227.0-0.0,voc_e2,12119,"[{""event"":""fullscreenenter"",""trial"":1,""time"":83344}]",NA,NA,NA,NA,NA,6,#D89F1C,#3386FF,0,10,1,40,0,1045.3000000715256,37,1,362.39999997615814,0,1,experiment,NA,NA,2,0.5,0.5,4,5,217,5,NA
fcp-trial,267,1396670,0.0-228.0-0.0,voc_e2,12119,"[{""event"":""fullscreenenter"",""trial"":1,""time"":83344}]",NA,NA,NA,NA,NA,6,#FA92F8,#1CD855,0,0,0,40,0,541.6000000238419,39,0,305.10000002384186,0,1,experiment,NA,NA,0,0.1,0.9,1,0,218,5,NA
fcp-trial,268,1399141,0.0-229.0-0.0,voc_e2,12119,"[{""event"":""fullscreenenter"",""trial"":1,""time"":83344}]",NA,NA,NA,NA,NA,4,#1CD855,#FA92F8,10,0,1,38,1,601.8999999761581,37,1,364,10,1,experiment,NA,NA,0,0.9,0.1,0,1,219,5,NA
fcp-trial,269,1403528,0.0-230.0-0.0,voc_e2,12119,"[{""event"":""fullscreenenter"",""trial"":1,""time"":83344}]",NA,NA,NA,NA,NA,2,#D8271C,#741CD8,0,0,0,38,1,2559.399999976158,39,0,324,0,1,experiment,NA,NA,1,0.3,0.7,3,2,220,5,NA
fcp-trial,270,1406047,0.0-231.0-0.0,voc_e2,12119,"[{""event"":""fullscreenenter"",""trial"":1,""time"":83344}]",NA,NA,NA,NA,NA,2,#FA92F8,#1CD855,0,10,0,38,1,703.5999999046326,39,0,311,10,1,experiment,NA,NA,0,0.1,0.9,1,0,221,5,NA
fcp-trial,271,1408687,0.0-232.0-0.0,voc_e2,12119,"[{""event"":""fullscreenenter"",""trial"":1,""time"":83344}]",NA,NA,NA,NA,NA,5,#3386FF,#D89F1C,0,10,0,40,0,769.3999999761581,39,0,366.89999997615814,10,1,experiment,NA,NA,2,0.5,0.5,5,4,222,5,NA
fcp-trial,272,1411080,0.0-233.0-0.0,voc_e2,12119,"[{""event"":""fullscreenenter"",""trial"":1,""time"":83344}]",NA,NA,NA,NA,NA,3,#FA92F8,#1CD855,0,10,0,38,1,597.1999999284744,39,0,290.5,10,1,experiment,NA,NA,0,0.1,0.9,1,0,223,5,NA
fcp-trial,273,1413592,0.0-234.0-0.0,voc_e2,12119,"[{""event"":""fullscreenenter"",""trial"":1,""time"":83344}]",NA,NA,NA,NA,NA,0,#3386FF,#D89F1C,0,0,0,38,1,723.6000000238419,39,0,284.60000002384186,0,1,experiment,NA,NA,2,0.5,0.5,5,4,224,5,NA
fcp-trial,274,1416023,0.0-235.0-0.0,voc_e2,12119,"[{""event"":""fullscreenenter"",""trial"":1,""time"":83344}]",NA,NA,NA,NA,NA,5,#D8271C,#741CD8,0,10,0,40,0,577.5,37,1,351.10000002384186,0,0,experiment,NA,NA,1,0.3,0.7,3,2,225,5,NA
fcp-trial,275,1418476,0.0-236.0-0.0,voc_e2,12119,"[{""event"":""fullscreenenter"",""trial"":1,""time"":83344}]",NA,NA,NA,NA,NA,4,#3386FF,#D89F1C,10,10,0,38,1,663.5,39,0,286.60000002384186,10,1,experiment,NA,NA,2,0.5,0.5,5,4,226,6,NA
fcp-trial,276,1421520,0.0-237.0-0.0,voc_e2,12119,"[{""event"":""fullscreenenter"",""trial"":1,""time"":83344}]",NA,NA,NA,NA,NA,0,#D8271C,#741CD8,0,10,0,38,1,1052.1000000238419,39,0,488.7000000476837,10,1,experiment,NA,NA,1,0.3,0.7,3,2,227,6,NA
fcp-trial,277,1425593,0.0-238.0-0.0,voc_e2,12119,"[{""event"":""fullscreenenter"",""trial"":1,""time"":83344}]",NA,NA,NA,NA,NA,5,#1CD855,#FA92F8,10,0,1,40,0,1821.2999999523163,37,1,748.8000000715256,10,1,experiment,NA,NA,0,0.9,0.1,0,1,228,6,NA
fcp-trial,278,1428788,0.0-239.0-0.0,voc_e2,12119,"[{""event"":""fullscreenenter"",""trial"":1,""time"":83344}]",NA,NA,NA,NA,NA,1,#741CD8,#D8271C,0,0,1,38,1,1246.6000000238419,37,1,443.3000000715256,0,1,experiment,NA,NA,1,0.7,0.3,2,3,229,6,NA
fcp-trial,279,1433704,0.0-240.0-0.0,voc_e2,12119,"[{""event"":""fullscreenenter"",""trial"":1,""time"":83344}]",NA,NA,NA,NA,NA,0,#FA92F8,#1CD855,0,10,0,38,1,3061.8000000715256,39,0,350.7999999523163,10,1,experiment,NA,NA,0,0.1,0.9,1,0,230,6,NA
fcp-trial,280,1436545,0.0-241.0-0.0,voc_e2,12119,"[{""event"":""fullscreenenter"",""trial"":1,""time"":83344}]",NA,NA,NA,NA,NA,2,#3386FF,#D89F1C,10,10,0,38,1,785.6000000238419,39,0,548.7999999523163,10,1,experiment,NA,NA,2,0.5,0.5,5,4,231,6,NA
fcp-trial,281,1439773,0.0-242.0-0.0,voc_e2,12119,"[{""event"":""fullscreenenter"",""trial"":1,""time"":83344}]",NA,NA,NA,NA,NA,1,#1CD855,#FA92F8,10,10,1,38,1,1447.6000000238419,37,1,277,10,1,experiment,NA,NA,0,0.9,0.1,0,1,232,6,NA
fcp-trial,282,1442288,0.0-243.0-0.0,voc_e2,12119,"[{""event"":""fullscreenenter"",""trial"":1,""time"":83344}]",NA,NA,NA,NA,NA,5,#FA92F8,#1CD855,0,10,0,40,0,745.1000000238419,39,0,266.39999997615814,10,1,experiment,NA,NA,0,0.1,0.9,1,0,233,6,NA
fcp-trial,283,1445572,0.0-244.0-0.0,voc_e2,12119,"[{""event"":""fullscreenenter"",""trial"":1,""time"":83344}]",NA,NA,NA,NA,NA,0,#3386FF,#D89F1C,10,10,0,38,1,752.6999999284744,39,0,1026.7999999523165,10,1,experiment,NA,NA,2,0.5,0.5,5,4,234,6,NA
fcp-trial,284,1448032,0.0-245.0-0.0,voc_e2,12119,"[{""event"":""fullscreenenter"",""trial"":1,""time"":83344}]",NA,NA,NA,NA,NA,0,#741CD8,#D8271C,10,0,1,38,1,647.3999999761581,37,1,310.3000000715256,10,1,experiment,NA,NA,1,0.7,0.3,2,3,235,6,NA
fcp-trial,285,1450823,0.0-246.0-0.0,voc_e2,12119,"[{""event"":""fullscreenenter"",""trial"":1,""time"":83344}]",NA,NA,NA,NA,NA,3,#1CD855,#FA92F8,0,0,1,38,1,938.6999999284744,37,1,347.2000000476837,0,1,experiment,NA,NA,0,0.9,0.1,0,1,236,6,NA
fcp-trial,286,1455743,0.0-247.0-0.0,voc_e2,12119,"[{""event"":""fullscreenenter"",""trial"":1,""time"":83344}]",NA,NA,NA,NA,NA,5,#741CD8,#D8271C,0,0,1,40,0,3057.100000023842,39,0,359.7999999523163,0,0,experiment,NA,NA,1,0.7,0.3,2,3,237,6,NA
fcp-trial,287,1458784,0.0-248.0-0.0,voc_e2,12119,"[{""event"":""fullscreenenter"",""trial"":1,""time"":83344}]",NA,NA,NA,NA,NA,5,#3386FF,#D89F1C,10,10,0,40,0,1202.5,37,1,333.3000000715256,10,0,experiment,NA,NA,2,0.5,0.5,5,4,238,6,NA
fcp-trial,288,1461593,0.0-249.0-0.0,voc_e2,12119,"[{""event"":""fullscreenenter"",""trial"":1,""time"":83344}]",NA,NA,NA,NA,NA,2,#741CD8,#D8271C,0,0,1,38,1,860,37,1,444.89999997615814,0,1,experiment,NA,NA,1,0.7,0.3,2,3,239,6,NA
fcp-trial,289,1466215,0.0-250.0-0.0,voc_e2,12119,"[{""event"":""fullscreenenter"",""trial"":1,""time"":83344}]",NA,NA,NA,NA,NA,3,#D89F1C,#3386FF,10,0,1,38,1,2846.2000000476837,37,1,271.7999999523163,10,1,experiment,NA,NA,2,0.5,0.5,4,5,240,6,NA
fcp-trial,290,1470475,0.0-251.0-0.0,voc_e2,12119,"[{""event"":""fullscreenenter"",""trial"":1,""time"":83344}]",NA,NA,NA,NA,NA,6,#1CD855,#FA92F8,10,0,1,40,0,2429.100000023842,37,1,327.10000002384186,10,1,experiment,NA,NA,0,0.9,0.1,0,1,241,6,NA
fcp-trial,291,1472836,0.0-252.0-0.0,voc_e2,12119,"[{""event"":""fullscreenenter"",""trial"":1,""time"":83344}]",NA,NA,NA,NA,NA,6,#D89F1C,#3386FF,10,0,1,40,0,575,37,1,281.7000000476837,10,1,experiment,NA,NA,2,0.5,0.5,4,5,242,6,NA
fcp-trial,292,1475953,0.0-253.0-0.0,voc_e2,12119,"[{""event"":""fullscreenenter"",""trial"":1,""time"":83344}]",NA,NA,NA,NA,NA,4,#741CD8,#D8271C,0,0,1,40,0,1335.0999999046326,37,1,278.2999999523163,0,1,experiment,NA,NA,1,0.7,0.3,2,3,243,6,NA
fcp-trial,293,1480133,0.0-254.0-0.0,voc_e2,12119,"[{""event"":""fullscreenenter"",""trial"":1,""time"":83344}]",NA,NA,NA,NA,NA,4,#1CD855,#FA92F8,10,0,1,40,0,2379.600000023842,37,1,294.7999999523163,10,1,experiment,NA,NA,0,0.9,0.1,0,1,244,6,NA
fcp-trial,294,1483049,0.0-255.0-0.0,voc_e2,12119,"[{""event"":""fullscreenenter"",""trial"":1,""time"":83344}]",NA,NA,NA,NA,NA,2,#D89F1C,#3386FF,0,10,1,38,1,1102.2000000476837,37,1,310.10000002384186,0,1,experiment,NA,NA,2,0.5,0.5,4,5,245,6,NA
fcp-trial,295,1485590,0.0-256.0-0.0,voc_e2,12119,"[{""event"":""fullscreenenter"",""trial"":1,""time"":83344}]",NA,NA,NA,NA,NA,4,#3386FF,#D89F1C,10,0,0,40,0,755.8999999761581,39,0,281.60000002384186,0,1,experiment,NA,NA,2,0.5,0.5,5,4,246,6,NA
fcp-trial,296,1487989,0.0-257.0-0.0,voc_e2,12119,"[{""event"":""fullscreenenter"",""trial"":1,""time"":83344}]",NA,NA,NA,NA,NA,2,#1CD855,#FA92F8,10,0,1,38,1,598.5,37,1,297.5,10,1,experiment,NA,NA,0,0.9,0.1,0,1,247,6,NA
fcp-trial,297,1490367,0.0-258.0-0.0,voc_e2,12119,"[{""event"":""fullscreenenter"",""trial"":1,""time"":83344}]",NA,NA,NA,NA,NA,1,#741CD8,#D8271C,10,0,1,38,1,597.2999999523163,37,1,276.5,10,1,experiment,NA,NA,1,0.7,0.3,2,3,248,6,NA
fcp-trial,298,1492741,0.0-259.0-0.0,voc_e2,12119,"[{""event"":""fullscreenenter"",""trial"":1,""time"":83344}]",NA,NA,NA,NA,NA,6,#D8271C,#741CD8,0,10,0,40,0,505.10000002384186,37,1,364.2999999523163,0,0,experiment,NA,NA,1,0.3,0.7,3,2,249,6,NA
fcp-trial,299,1495786,0.0-260.0-0.0,voc_e2,12119,"[{""event"":""fullscreenenter"",""trial"":1,""time"":83344}]",NA,NA,NA,NA,NA,1,#D89F1C,#3386FF,0,10,1,38,1,503.89999997615814,37,1,1036.1999999284744,0,1,experiment,NA,NA,2,0.5,0.5,4,5,250,6,NA
fcp-trial,300,1498277,0.0-261.0-0.0,voc_e2,12119,"[{""event"":""fullscreenenter"",""trial"":1,""time"":83344}]",NA,NA,NA,NA,NA,0,#1CD855,#FA92F8,10,0,1,38,1,697.6000000238419,37,1,289.89999997615814,10,1,experiment,NA,NA,0,0.9,0.1,0,1,251,6,NA
fcp-trial,301,1501166,0.0-262.0-0.0,voc_e2,12119,"[{""event"":""fullscreenenter"",""trial"":1,""time"":83344}]",NA,NA,NA,NA,NA,3,#D8271C,#741CD8,10,0,0,38,1,798.1999999284744,39,0,585.7000000476837,0,1,experiment,NA,NA,1,0.3,0.7,3,2,252,6,NA
fcp-trial,302,1503583,0.0-263.0-0.0,voc_e2,12119,"[{""event"":""fullscreenenter"",""trial"":1,""time"":83344}]",NA,NA,NA,NA,NA,6,#3386FF,#D89F1C,10,10,0,40,0,599.2000000476837,37,1,313.2999999523163,10,0,experiment,NA,NA,2,0.5,0.5,5,4,253,6,NA
fcp-trial,303,1506087,0.0-264.0-0.0,voc_e2,12119,"[{""event"":""fullscreenenter"",""trial"":1,""time"":83344}]",NA,NA,NA,NA,NA,5,#D89F1C,#3386FF,10,0,1,40,0,714.6000000238419,39,0,285.39999997615814,0,0,experiment,NA,NA,2,0.5,0.5,4,5,254,6,NA
fcp-trial,304,1508458,0.0-265.0-0.0,voc_e2,12119,"[{""event"":""fullscreenenter"",""trial"":1,""time"":83344}]",NA,NA,NA,NA,NA,0,#741CD8,#D8271C,10,0,1,38,1,607.8999999761581,37,1,258.2999999523163,10,1,experiment,NA,NA,1,0.7,0.3,2,3,255,6,NA
fcp-trial,305,1510963,0.0-266.0-0.0,voc_e2,12119,"[{""event"":""fullscreenenter"",""trial"":1,""time"":83344}]",NA,NA,NA,NA,NA,4,#D8271C,#741CD8,0,10,0,38,1,719.8999999761581,39,0,276.7999999523163,10,1,experiment,NA,NA,1,0.3,0.7,3,2,256,6,NA
fcp-trial,306,1513670,0.0-267.0-0.0,voc_e2,12119,"[{""event"":""fullscreenenter"",""trial"":1,""time"":83344}]",NA,NA,NA,NA,NA,4,#1CD855,#FA92F8,10,0,1,38,1,918.8999999761581,37,1,285.39999997615814,10,1,experiment,NA,NA,0,0.9,0.1,0,1,257,6,NA
fcp-trial,307,1516362,0.0-268.0-0.0,voc_e2,12119,"[{""event"":""fullscreenenter"",""trial"":1,""time"":83344}]",NA,NA,NA,NA,NA,4,#D89F1C,#3386FF,0,0,1,38,1,803.7000000476837,37,1,383.2000000476837,0,1,experiment,NA,NA,2,0.5,0.5,4,5,258,6,NA
fcp-trial,308,1519164,0.0-269.0-0.0,voc_e2,12119,"[{""event"":""fullscreenenter"",""trial"":1,""time"":83344}]",NA,NA,NA,NA,NA,3,#FA92F8,#1CD855,0,10,0,38,1,692.5,39,0,606,10,1,experiment,NA,NA,0,0.1,0.9,1,0,259,6,NA
fcp-trial,309,1522073,0.0-270.0-0.0,voc_e2,12119,"[{""event"":""fullscreenenter"",""trial"":1,""time"":83344}]",NA,NA,NA,NA,NA,2,#D89F1C,#3386FF,0,10,1,38,1,670,37,1,735.7999999523163,0,1,experiment,NA,NA,2,0.5,0.5,4,5,260,6,NA
fcp-trial,310,1524610,0.0-271.0-0.0,voc_e2,12119,"[{""event"":""fullscreenenter"",""trial"":1,""time"":83344}]",NA,NA,NA,NA,NA,1,#D8271C,#741CD8,0,10,0,38,1,723.2000000476837,39,0,310.7000000476837,10,1,experiment,NA,NA,1,0.3,0.7,3,2,261,6,NA
fcp-trial,311,1527170,0.0-272.0-0.0,voc_e2,12119,"[{""event"":""fullscreenenter"",""trial"":1,""time"":83344}]",NA,NA,NA,NA,NA,6,#1CD855,#FA92F8,10,0,1,40,0,722.1000000238419,37,1,334.90000009536743,10,1,experiment,NA,NA,0,0.9,0.1,0,1,262,6,NA
fcp-trial,312,1529936,0.0-273.0-0.0,voc_e2,12119,"[{""event"":""fullscreenenter"",""trial"":1,""time"":83344}]",NA,NA,NA,NA,NA,3,#D89F1C,#3386FF,10,0,1,38,1,933.1999999284744,37,1,329.3000000715256,10,1,experiment,NA,NA,2,0.5,0.5,4,5,263,6,NA
fcp-trial,313,1532443,0.0-274.0-0.0,voc_e2,12119,"[{""event"":""fullscreenenter"",""trial"":1,""time"":83344}]",NA,NA,NA,NA,NA,2,#FA92F8,#1CD855,0,10,0,38,1,717.3999999761581,39,0,285.2999999523163,10,1,experiment,NA,NA,0,0.1,0.9,1,0,264,6,NA
fcp-trial,314,1534977,0.0-275.0-0.0,voc_e2,12119,"[{""event"":""fullscreenenter"",""trial"":1,""time"":83344}]",NA,NA,NA,NA,NA,6,#741CD8,#D8271C,10,0,1,40,0,647.7000000476837,39,0,384,0,0,experiment,NA,NA,1,0.7,0.3,2,3,265,6,NA
fcp-trial,315,1538474,0.0-276.0-0.0,voc_e2,12119,"[{""event"":""fullscreenenter"",""trial"":1,""time"":83344}]",NA,NA,NA,NA,NA,5,#D8271C,#741CD8,0,10,0,40,0,1714.6000000238419,39,0,277.59999990463257,10,1,experiment,NA,NA,1,0.3,0.7,3,2,266,6,NA
fcp-trial,316,1540779,0.0-277.0-0.0,voc_e2,12119,"[{""event"":""fullscreenenter"",""trial"":1,""time"":83344}]",NA,NA,NA,NA,NA,5,#FA92F8,#1CD855,0,10,0,40,0,508.1999999284744,37,1,292.60000002384186,0,0,experiment,NA,NA,0,0.1,0.9,1,0,267,6,NA
fcp-trial,317,1543619,0.0-278.0-0.0,voc_e2,12119,"[{""event"":""fullscreenenter"",""trial"":1,""time"":83344}]",NA,NA,NA,NA,NA,1,#3386FF,#D89F1C,0,0,0,38,1,550.4000000953674,39,0,783.6999999284744,0,1,experiment,NA,NA,2,0.5,0.5,5,4,268,6,NA
fcp-trial,318,1546374,0.0-279.0-0.0,voc_e2,12119,"[{""event"":""fullscreenenter"",""trial"":1,""time"":83344}]",NA,NA,NA,NA,NA,2,#741CD8,#D8271C,10,0,1,38,1,617.6000000238419,37,1,632.8999999761581,10,1,experiment,NA,NA,1,0.7,0.3,2,3,269,6,NA
fcp-trial,319,1549033,0.0-280.0-0.0,voc_e2,12119,"[{""event"":""fullscreenenter"",""trial"":1,""time"":83344}]",NA,NA,NA,NA,NA,0,#FA92F8,#1CD855,0,10,0,38,1,659.2000000476837,39,0,495.7999999523163,10,1,experiment,NA,NA,0,0.1,0.9,1,0,270,6,NA
fcp-trial,320,1551505,0.0-281.0-0.0,voc_e2,12119,"[{""event"":""fullscreenenter"",""trial"":1,""time"":83344}]",NA,NA,NA,NA,NA,3,#741CD8,#D8271C,10,0,1,38,1,634.7999999523163,37,1,334.6999999284744,10,1,experiment,NA,NA,1,0.7,0.3,2,3,271,7,NA
fcp-trial,321,1554141,0.0-282.0-0.0,voc_e2,12119,"[{""event"":""fullscreenenter"",""trial"":1,""time"":83344}]",NA,NA,NA,NA,NA,0,#D89F1C,#3386FF,10,10,1,38,1,829,37,1,302.8000000715256,10,1,experiment,NA,NA,2,0.5,0.5,4,5,272,7,NA
fcp-trial,322,1556832,0.0-283.0-0.0,voc_e2,12119,"[{""event"":""fullscreenenter"",""trial"":1,""time"":83344}]",NA,NA,NA,NA,NA,1,#1CD855,#FA92F8,10,0,1,38,1,835.0999999046326,37,1,352.10000002384186,10,1,experiment,NA,NA,0,0.9,0.1,0,1,273,7,NA
fcp-trial,323,1559418,0.0-284.0-0.0,voc_e2,12119,"[{""event"":""fullscreenenter"",""trial"":1,""time"":83344}]",NA,NA,NA,NA,NA,1,#D8271C,#741CD8,0,0,0,38,1,759.1999999284744,39,0,323.5,0,1,experiment,NA,NA,1,0.3,0.7,3,2,274,7,NA
fcp-trial,324,1561888,0.0-285.0-0.0,voc_e2,12119,"[{""event"":""fullscreenenter"",""trial"":1,""time"":83344}]",NA,NA,NA,NA,NA,0,#D8271C,#741CD8,0,0,0,38,1,619.2000000476837,39,0,347.10000002384186,0,1,experiment,NA,NA,1,0.3,0.7,3,2,275,7,NA
fcp-trial,325,1564302,0.0-286.0-0.0,voc_e2,12119,"[{""event"":""fullscreenenter"",""trial"":1,""time"":83344}]",NA,NA,NA,NA,NA,3,#D89F1C,#3386FF,0,0,1,38,1,581.8999999761581,37,1,327.8000000715256,0,1,experiment,NA,NA,2,0.5,0.5,4,5,276,7,NA
fcp-trial,326,1566739,0.0-287.0-0.0,voc_e2,12119,"[{""event"":""fullscreenenter"",""trial"":1,""time"":83344}]",NA,NA,NA,NA,NA,2,#FA92F8,#1CD855,10,10,0,38,1,608.6999999284744,39,0,323.2000000476837,10,1,experiment,NA,NA,0,0.1,0.9,1,0,277,7,NA
fcp-trial,327,1569182,0.0-288.0-0.0,voc_e2,12119,"[{""event"":""fullscreenenter"",""trial"":1,""time"":83344}]",NA,NA,NA,NA,NA,2,#741CD8,#D8271C,10,10,1,38,1,480.39999997615814,37,1,459.2000000476837,10,1,experiment,NA,NA,1,0.7,0.3,2,3,278,7,NA
fcp-trial,328,1571709,0.0-289.0-0.0,voc_e2,12119,"[{""event"":""fullscreenenter"",""trial"":1,""time"":83344}]",NA,NA,NA,NA,NA,4,#3386FF,#D89F1C,10,10,0,40,0,659.1999999284744,37,1,363.1999999284744,10,0,experiment,NA,NA,2,0.5,0.5,5,4,279,7,NA
fcp-trial,329,1573996,0.0-290.0-0.0,voc_e2,12119,"[{""event"":""fullscreenenter"",""trial"":1,""time"":83344}]",NA,NA,NA,NA,NA,0,#FA92F8,#1CD855,10,10,0,38,1,469.39999997615814,39,0,314.6999999284744,10,1,experiment,NA,NA,0,0.1,0.9,1,0,280,7,NA
fcp-trial,330,1576534,0.0-291.0-0.0,voc_e2,12119,"[{""event"":""fullscreenenter"",""trial"":1,""time"":83344}]",NA,NA,NA,NA,NA,5,#741CD8,#D8271C,10,0,1,40,0,773.6999999284744,37,1,261.7999999523163,10,1,experiment,NA,NA,1,0.7,0.3,2,3,281,7,NA
fcp-trial,331,1579033,0.0-292.0-0.0,voc_e2,12119,"[{""event"":""fullscreenenter"",""trial"":1,""time"":83344}]",NA,NA,NA,NA,NA,5,#3386FF,#D89F1C,10,0,0,40,0,676,39,0,317.89999997615814,0,1,experiment,NA,NA,2,0.5,0.5,5,4,282,7,NA
fcp-trial,332,1581449,0.0-293.0-0.0,voc_e2,12119,"[{""event"":""fullscreenenter"",""trial"":1,""time"":83344}]",NA,NA,NA,NA,NA,3,#1CD855,#FA92F8,10,0,1,38,1,608.7999999523163,37,1,303.59999990463257,10,1,experiment,NA,NA,0,0.9,0.1,0,1,283,7,NA
fcp-trial,333,1584055,0.0-294.0-0.0,voc_e2,12119,"[{""event"":""fullscreenenter"",""trial"":1,""time"":83344}]",NA,NA,NA,NA,NA,4,#FA92F8,#1CD855,10,10,0,40,0,549.5,37,1,552.0999999046326,10,0,experiment,NA,NA,0,0.1,0.9,1,0,284,7,NA
fcp-trial,334,1586391,0.0-295.0-0.0,voc_e2,12119,"[{""event"":""fullscreenenter"",""trial"":1,""time"":83344}]",NA,NA,NA,NA,NA,2,#D89F1C,#3386FF,0,0,1,38,1,515.7999999523163,37,1,316.90000009536743,0,1,experiment,NA,NA,2,0.5,0.5,4,5,285,7,NA
fcp-trial,335,1588797,0.0-296.0-0.0,voc_e2,12119,"[{""event"":""fullscreenenter"",""trial"":1,""time"":83344}]",NA,NA,NA,NA,NA,6,#D8271C,#741CD8,0,10,0,40,0,611.8999999761581,39,0,290.3000000715256,10,1,experiment,NA,NA,1,0.3,0.7,3,2,286,7,NA
fcp-trial,336,1591021,0.0-297.0-0.0,voc_e2,12119,"[{""event"":""fullscreenenter"",""trial"":1,""time"":83344}]",NA,NA,NA,NA,NA,6,#3386FF,#D89F1C,0,10,0,40,0,469.1999999284744,37,1,251.60000002384183,0,0,experiment,NA,NA,2,0.5,0.5,5,4,287,7,NA
fcp-trial,337,1593668,0.0-298.0-0.0,voc_e2,12119,"[{""event"":""fullscreenenter"",""trial"":1,""time"":83344}]",NA,NA,NA,NA,NA,5,#FA92F8,#1CD855,10,10,0,40,0,788.5,37,1,355.3000000715256,10,0,experiment,NA,NA,0,0.1,0.9,1,0,288,7,NA
fcp-trial,338,1596294,0.0-299.0-0.0,voc_e2,12119,"[{""event"":""fullscreenenter"",""trial"":1,""time"":83344}]",NA,NA,NA,NA,NA,0,#3386FF,#D89F1C,0,10,0,38,1,718.3000000715256,39,0,402.6999999284744,10,1,experiment,NA,NA,2,0.5,0.5,5,4,289,7,NA
fcp-trial,339,1598714,0.0-300.0-0.0,voc_e2,12119,"[{""event"":""fullscreenenter"",""trial"":1,""time"":83344}]",NA,NA,NA,NA,NA,4,#D8271C,#741CD8,0,0,0,40,0,647.8000000715256,39,0,269,0,1,experiment,NA,NA,1,0.3,0.7,3,2,290,7,NA
fcp-trial,340,1601442,0.0-301.0-0.0,voc_e2,12119,"[{""event"":""fullscreenenter"",""trial"":1,""time"":83344}]",NA,NA,NA,NA,NA,1,#3386FF,#D89F1C,0,10,0,38,1,613.8000000715256,39,0,610.6000000238419,10,1,experiment,NA,NA,2,0.5,0.5,5,4,291,7,NA
fcp-trial,341,1603852,0.0-302.0-0.0,voc_e2,12119,"[{""event"":""fullscreenenter"",""trial"":1,""time"":83344}]",NA,NA,NA,NA,NA,1,#FA92F8,#1CD855,10,10,0,38,1,598.6000000238419,39,0,307.1999999284744,10,1,experiment,NA,NA,0,0.1,0.9,1,0,292,7,NA
fcp-trial,342,1606262,0.0-303.0-0.0,voc_e2,12119,"[{""event"":""fullscreenenter"",""trial"":1,""time"":83344}]",NA,NA,NA,NA,NA,6,#FA92F8,#1CD855,0,10,0,40,0,618.1000000238419,37,1,289,0,0,experiment,NA,NA,0,0.1,0.9,1,0,293,7,NA
fcp-trial,343,1608890,0.0-304.0-0.0,voc_e2,12119,"[{""event"":""fullscreenenter"",""trial"":1,""time"":83344}]",NA,NA,NA,NA,NA,3,#D8271C,#741CD8,0,0,0,38,1,684.2000000476837,39,0,439.2000000476837,0,1,experiment,NA,NA,1,0.3,0.7,3,2,294,7,NA
fcp-trial,344,1611529,0.0-305.0-0.0,voc_e2,12119,"[{""event"":""fullscreenenter"",""trial"":1,""time"":83344}]",NA,NA,NA,NA,NA,4,#3386FF,#D89F1C,10,10,0,40,0,790.5,39,0,344.5,10,1,experiment,NA,NA,2,0.5,0.5,5,4,295,7,NA
fcp-trial,345,1614120,0.0-306.0-0.0,voc_e2,12119,"[{""event"":""fullscreenenter"",""trial"":1,""time"":83344}]",NA,NA,NA,NA,NA,5,#D8271C,#741CD8,0,0,0,40,0,741.8999999761581,37,1,345,0,0,experiment,NA,NA,1,0.3,0.7,3,2,296,7,NA
fcp-trial,346,1616566,0.0-307.0-0.0,voc_e2,12119,"[{""event"":""fullscreenenter"",""trial"":1,""time"":83344}]",NA,NA,NA,NA,NA,3,#FA92F8,#1CD855,0,0,0,38,1,581.9000000953674,39,0,359.90000009536743,0,1,experiment,NA,NA,0,0.1,0.9,1,0,297,7,NA
fcp-trial,347,1619010,0.0-308.0-0.0,voc_e2,12119,"[{""event"":""fullscreenenter"",""trial"":1,""time"":83344}]",NA,NA,NA,NA,NA,3,#3386FF,#D89F1C,10,10,0,38,1,608.4000000953674,39,0,331.8000000715256,10,1,experiment,NA,NA,2,0.5,0.5,5,4,298,7,NA
fcp-trial,348,1621394,0.0-309.0-0.0,voc_e2,12119,"[{""event"":""fullscreenenter"",""trial"":1,""time"":83344}]",NA,NA,NA,NA,NA,3,#741CD8,#D8271C,0,0,1,38,1,533.0999999046326,37,1,346,0,1,experiment,NA,NA,1,0.7,0.3,2,3,299,7,NA
fcp-trial,349,1623761,0.0-310.0-0.0,voc_e2,12119,"[{""event"":""fullscreenenter"",""trial"":1,""time"":83344}]",NA,NA,NA,NA,NA,0,#741CD8,#D8271C,10,0,1,38,1,514.8999999761581,37,1,347,10,1,experiment,NA,NA,1,0.7,0.3,2,3,300,7,NA
fcp-trial,350,1626282,0.0-311.0-0.0,voc_e2,12119,"[{""event"":""fullscreenenter"",""trial"":1,""time"":83344}]",NA,NA,NA,NA,NA,6,#D89F1C,#3386FF,0,10,1,40,0,676.3999999761581,39,0,339.40000009536743,10,0,experiment,NA,NA,2,0.5,0.5,4,5,301,7,NA
fcp-trial,351,1628530,0.0-312.0-0.0,voc_e2,12119,"[{""event"":""fullscreenenter"",""trial"":1,""time"":83344}]",NA,NA,NA,NA,NA,6,#FA92F8,#1CD855,10,10,0,40,0,488.39999997615814,39,0,255,10,1,experiment,NA,NA,0,0.1,0.9,1,0,302,7,NA
fcp-trial,352,1631043,0.0-313.0-0.0,voc_e2,12119,"[{""event"":""fullscreenenter"",""trial"":1,""time"":83344}]",NA,NA,NA,NA,NA,5,#D89F1C,#3386FF,0,0,1,40,0,618.1000000238419,39,0,391.5,0,0,experiment,NA,NA,2,0.5,0.5,4,5,303,7,NA
fcp-trial,353,1633544,0.0-314.0-0.0,voc_e2,12119,"[{""event"":""fullscreenenter"",""trial"":1,""time"":83344}]",NA,NA,NA,NA,NA,6,#741CD8,#D8271C,10,0,1,40,0,617.6000000238419,39,0,378.5,0,0,experiment,NA,NA,1,0.7,0.3,2,3,304,7,NA
fcp-trial,354,1636058,0.0-315.0-0.0,voc_e2,12119,"[{""event"":""fullscreenenter"",""trial"":1,""time"":83344}]",NA,NA,NA,NA,NA,0,#1CD855,#FA92F8,10,0,1,38,1,675.6000000238419,37,1,335.2999999523163,10,1,experiment,NA,NA,0,0.9,0.1,0,1,305,7,NA
fcp-trial,355,1638481,0.0-316.0-0.0,voc_e2,12119,"[{""event"":""fullscreenenter"",""trial"":1,""time"":83344}]",NA,NA,NA,NA,NA,2,#1CD855,#FA92F8,10,0,1,38,1,607,37,1,310.7000000476837,10,1,experiment,NA,NA,0,0.9,0.1,0,1,306,7,NA
fcp-trial,356,1641223,0.0-317.0-0.0,voc_e2,12119,"[{""event"":""fullscreenenter"",""trial"":1,""time"":83344}]",NA,NA,NA,NA,NA,4,#741CD8,#D8271C,10,0,1,40,0,930,37,1,307.09999990463257,10,1,experiment,NA,NA,1,0.7,0.3,2,3,307,7,NA
fcp-trial,357,1643830,0.0-318.0-0.0,voc_e2,12119,"[{""event"":""fullscreenenter"",""trial"":1,""time"":83344}]",NA,NA,NA,NA,NA,2,#3386FF,#D89F1C,10,10,0,38,1,584.5,39,0,518.5,10,1,experiment,NA,NA,2,0.5,0.5,5,4,308,7,NA
fcp-trial,358,1646687,0.0-319.0-0.0,voc_e2,12119,"[{""event"":""fullscreenenter"",""trial"":1,""time"":83344}]",NA,NA,NA,NA,NA,5,#1CD855,#FA92F8,10,0,1,40,0,973.3000000715256,37,1,379.60000002384186,10,1,experiment,NA,NA,0,0.9,0.1,0,1,309,7,NA
fcp-trial,359,1649284,0.0-320.0-0.0,voc_e2,12119,"[{""event"":""fullscreenenter"",""trial"":1,""time"":83344}]",NA,NA,NA,NA,NA,2,#D8271C,#741CD8,0,10,0,38,1,784,39,0,307.39999997615814,10,1,experiment,NA,NA,1,0.3,0.7,3,2,310,7,NA
fcp-trial,360,1652388,0.0-321.0-0.0,voc_e2,12119,"[{""event"":""fullscreenenter"",""trial"":1,""time"":83344}]",NA,NA,NA,NA,NA,1,#D89F1C,#3386FF,10,0,1,38,1,828.6000000238419,37,1,770.5,10,1,experiment,NA,NA,2,0.5,0.5,4,5,311,7,NA
fcp-trial,361,1655152,0.0-322.0-0.0,voc_e2,12119,"[{""event"":""fullscreenenter"",""trial"":1,""time"":83344}]",NA,NA,NA,NA,NA,4,#1CD855,#FA92F8,10,0,1,38,1,950.2000000476837,37,1,308,10,1,experiment,NA,NA,0,0.9,0.1,0,1,312,7,NA
fcp-trial,362,1657807,0.0-323.0-0.0,voc_e2,12119,"[{""event"":""fullscreenenter"",""trial"":1,""time"":83344}]",NA,NA,NA,NA,NA,1,#D8271C,#741CD8,0,10,0,38,1,886.8999999761581,39,0,264.3000000715256,10,1,experiment,NA,NA,1,0.3,0.7,3,2,313,7,NA
fcp-trial,363,1660341,0.0-324.0-0.0,voc_e2,12119,"[{""event"":""fullscreenenter"",""trial"":1,""time"":83344}]",NA,NA,NA,NA,NA,1,#FA92F8,#1CD855,0,10,0,38,1,749.5,39,0,279.3000000715256,10,1,experiment,NA,NA,0,0.1,0.9,1,0,314,7,NA
fcp-trial,364,1663554,0.0-325.0-0.0,voc_e2,12119,"[{""event"":""fullscreenenter"",""trial"":1,""time"":83344}]",NA,NA,NA,NA,NA,0,#3386FF,#D89F1C,10,10,0,38,1,1235.7000000476837,39,0,472.7999999523163,10,1,experiment,NA,NA,2,0.5,0.5,5,4,315,7,NA
audio-instructions,365,1797958,0.0-326.0,voc_e2,12119,"[{""event"":""fullscreenenter"",""trial"":1,""time"":83344}]",NA,128675.30000007153,static/audio/finished.wav,NA,0,NA,NA,NA,NA,NA,NA,NA,NA,NA,NA,NA,NA,NA,NA,NA,NA,NA,NA,NA,NA,NA,NA,NA,NA,NA
audio-instructions,366,1809549,0.0-327.0-0.0,voc_e2,12119,"[{""event"":""fullscreenenter"",""trial"":1,""time"":83344}]",NA,706.6000000238419,static/audio/explicit1.wav,NA,0,NA,NA,NA,NA,NA,NA,NA,NA,NA,NA,NA,NA,NA,NA,NA,NA,NA,NA,NA,NA,NA,NA,NA,NA,NA
audio-instructions,367,1819435,0.0-327.0-1.0,voc_e2,12119,"[{""event"":""fullscreenenter"",""trial"":1,""time"":83344}]",NA,2292.899999976158,static/audio/explicit2.wav,NA,0,NA,NA,NA,NA,NA,NA,NA,NA,NA,NA,NA,NA,NA,NA,NA,NA,NA,NA,NA,NA,NA,NA,NA,NA,NA
image-slider-response,368,1832148,0.0-328.0,voc_e2,12119,"[{""event"":""fullscreenenter"",""trial"":1,""time"":83344}]",NA,12712.199999928474,static/img/machines/machine3.png,NA,NA,NA,NA,NA,NA,NA,NA,NA,NA,NA,NA,NA,NA,NA,NA,explicit,NA,NA,NA,NA,NA,NA,NA,NA,NA,3
image-slider-response,369,1835478,0.0-329.0,voc_e2,12119,"[{""event"":""fullscreenenter"",""trial"":1,""time"":83344}]",NA,3329.2000000476837,static/img/machines/machine1.png,NA,NA,NA,NA,NA,NA,NA,NA,NA,NA,NA,NA,NA,NA,NA,NA,explicit,NA,NA,NA,NA,NA,NA,NA,NA,NA,4
image-slider-response,370,1837829,0.0-330.0,voc_e2,12119,"[{""event"":""fullscreenenter"",""trial"":1,""time"":83344}]",NA,2349.899999976158,static/img/machines/machine5.png,NA,NA,NA,NA,NA,NA,NA,NA,NA,NA,NA,NA,NA,NA,NA,NA,explicit,NA,NA,NA,NA,NA,NA,NA,NA,NA,3
image-slider-response,371,1839910,0.0-331.0,voc_e2,12119,"[{""event"":""fullscreenenter"",""trial"":1,""time"":83344}]",NA,2080.1999999284744,static/img/machines/machine2.png,NA,NA,NA,NA,NA,NA,NA,NA,NA,NA,NA,NA,NA,NA,NA,NA,explicit,NA,NA,NA,NA,NA,NA,NA,NA,NA,6
image-slider-response,372,1841731,0.0-332.0,voc_e2,12119,"[{""event"":""fullscreenenter"",""trial"":1,""time"":83344}]",NA,1819.5,static/img/machines/machine4.png,NA,NA,NA,NA,NA,NA,NA,NA,NA,NA,NA,NA,NA,NA,NA,NA,explicit,NA,NA,NA,NA,NA,NA,NA,NA,NA,8
image-slider-response,373,1843518,0.0-333.0,voc_e2,12119,"[{""event"":""fullscreenenter"",""trial"":1,""time"":83344}]",NA,1786.2000000476835,static/img/machines/machine6.png,NA,NA,NA,NA,NA,NA,NA,NA,NA,NA,NA,NA,NA,NA,NA,NA,explicit,NA,NA,NA,NA,NA,NA,NA,NA,NA,8
