trial_type,trial_index,time_elapsed,internal_node_id,task_version,subject_id,interactions,success,rt,stimulus,key_press,button_pressed,offer,arcade_color_L,arcade_color_R,arcade_outcome_L,arcade_outcome_R,correct,stage_1_key,stage_1_choice,stage_1_rt,stage_2_key,stage_2_choice,stage_2_rt,stage_3_outcome,accuracy,phase,responses,num_errors,context,reward_prob_L,reward_prob_R,arcade_id_L,arcade_id_R,trial,block,response
pavlovia,0,8,0.0-0.0,voc_e2,11751,[],NA,NA,NA,NA,NA,NA,NA,NA,NA,NA,NA,NA,NA,NA,NA,NA,NA,NA,NA,NA,NA,NA,NA,NA,NA,NA,NA,NA,NA,NA
fullscreen,1,11346,0.0-1.0,voc_e2,11751,"[{""event"":""fullscreenenter"",""trial"":1,""time"":10356}]",TRUE,NA,NA,NA,NA,NA,NA,NA,NA,NA,NA,NA,NA,NA,NA,NA,NA,NA,NA,NA,NA,NA,NA,NA,NA,NA,NA,NA,NA,NA
audio-keyboard-response,2,14666,0.0-2.0,voc_e2,11751,"[{""event"":""fullscreenenter"",""trial"":1,""time"":10356}]",NA,2651,static/audio/beep_loop.wav,32,NA,NA,NA,NA,NA,NA,NA,NA,NA,NA,NA,NA,NA,NA,NA,NA,NA,NA,NA,NA,NA,NA,NA,NA,NA,NA
audio-test,3,24884,0.0-3.0,voc_e2,11751,"[{""event"":""fullscreenenter"",""trial"":1,""time"":10356}]",NA,NA,static/audio/turtle.wav,NA,3,NA,NA,NA,NA,NA,NA,NA,NA,NA,NA,NA,NA,NA,NA,NA,NA,NA,NA,NA,NA,NA,NA,NA,NA,NA
audio-test,4,28175,0.0-4.0,voc_e2,11751,"[{""event"":""fullscreenenter"",""trial"":1,""time"":10356}]",NA,NA,static/audio/shark.wav,NA,2,NA,NA,NA,NA,NA,NA,NA,NA,NA,NA,NA,NA,NA,NA,NA,NA,NA,NA,NA,NA,NA,NA,NA,NA,NA
audio-instructions,5,35836,0.0-5.0-0.0,voc_e2,11751,"[{""event"":""fullscreenenter"",""trial"":1,""time"":10356}]",NA,1871.2000000476835,static/audio/instructions1.wav,NA,0,NA,NA,NA,NA,NA,NA,NA,NA,NA,NA,NA,NA,NA,NA,NA,NA,NA,NA,NA,NA,NA,NA,NA,NA,NA
audio-instructions,6,45356,0.0-5.0-1.0,voc_e2,11751,"[{""event"":""fullscreenenter"",""trial"":1,""time"":10356}]",NA,2772.899999976158,static/audio/instructions2.wav,NA,0,NA,NA,NA,NA,NA,NA,NA,NA,NA,NA,NA,NA,NA,NA,NA,NA,NA,NA,NA,NA,NA,NA,NA,NA,NA
audio-instructions,7,52342,0.0-5.0-2.0,voc_e2,11751,"[{""event"":""fullscreenenter"",""trial"":1,""time"":10356}]",NA,1178.600000023842,static/audio/instructions3.wav,NA,0,NA,NA,NA,NA,NA,NA,NA,NA,NA,NA,NA,NA,NA,NA,NA,NA,NA,NA,NA,NA,NA,NA,NA,NA,NA
audio-instructions,8,67167,0.0-5.0-3.0,voc_e2,11751,"[{""event"":""fullscreenenter"",""trial"":1,""time"":10356}]",NA,1594.199999988079,static/audio/instructions4.wav,NA,0,NA,NA,NA,NA,NA,NA,NA,NA,NA,NA,NA,NA,NA,NA,NA,NA,NA,NA,NA,NA,NA,NA,NA,NA,NA
audio-instructions,9,79787,0.0-5.0-4.0,voc_e2,11751,"[{""event"":""fullscreenenter"",""trial"":1,""time"":10356}]",NA,3223.699999988079,static/audio/instructions5.wav,NA,0,NA,NA,NA,NA,NA,NA,NA,NA,NA,NA,NA,NA,NA,NA,NA,NA,NA,NA,NA,NA,NA,NA,NA,NA,NA
fcp-practice,10,87044,0.0-5.0-5.0-0.0,voc_e2,11751,"[{""event"":""fullscreenenter"",""trial"":1,""time"":10356}]",NA,NA,NA,NA,NA,NA,#EDC948,#46d3c8,10,0,1,null,null,null,37,1,5732.199999988079,10,1,practice,NA,NA,NA,NA,NA,NA,NA,NA,NA,NA
fcp-practice,11,89431,0.0-5.0-5.0-1.0,voc_e2,11751,"[{""event"":""fullscreenenter"",""trial"":1,""time"":10356}]",NA,NA,NA,NA,NA,NA,#EDC948,#46d3c8,10,0,1,null,null,null,37,1,879.8000000119209,10,1,practice,NA,NA,NA,NA,NA,NA,NA,NA,NA,NA
fcp-practice,12,91264,0.0-5.0-5.0-2.0,voc_e2,11751,"[{""event"":""fullscreenenter"",""trial"":1,""time"":10356}]",NA,NA,NA,NA,NA,NA,#EDC948,#46d3c8,0,10,1,null,null,null,37,1,326.69999998807907,0,1,practice,NA,NA,NA,NA,NA,NA,NA,NA,NA,NA
fcp-practice,13,93133,0.0-5.0-5.0-3.0,voc_e2,11751,"[{""event"":""fullscreenenter"",""trial"":1,""time"":10356}]",NA,NA,NA,NA,NA,NA,#EDC948,#46d3c8,10,0,1,null,null,null,37,1,358.80000001192093,10,1,practice,NA,NA,NA,NA,NA,NA,NA,NA,NA,NA
fcp-practice,14,95556,0.0-5.0-5.0-4.0,voc_e2,11751,"[{""event"":""fullscreenenter"",""trial"":1,""time"":10356}]",NA,NA,NA,NA,NA,NA,#EDC948,#46d3c8,10,0,1,null,null,null,37,1,913.1000000238419,10,1,practice,NA,NA,NA,NA,NA,NA,NA,NA,NA,NA
audio-instructions,15,115453,0.0-5.0-6.0,voc_e2,11751,"[{""event"":""fullscreenenter"",""trial"":1,""time"":10356}]",NA,1880,static/audio/instructions6.wav,NA,0,NA,NA,NA,NA,NA,NA,NA,NA,NA,NA,NA,NA,NA,NA,NA,NA,NA,NA,NA,NA,NA,NA,NA,NA,NA
audio-instructions,16,136275,0.0-5.0-7.0,voc_e2,11751,"[{""event"":""fullscreenenter"",""trial"":1,""time"":10356}]",NA,1621.800000011921,static/audio/instructions7.wav,NA,0,NA,NA,NA,NA,NA,NA,NA,NA,NA,NA,NA,NA,NA,NA,NA,NA,NA,NA,NA,NA,NA,NA,NA,NA,NA
audio-instructions,17,147963,0.0-5.0-8.0,voc_e2,11751,"[{""event"":""fullscreenenter"",""trial"":1,""time"":10356}]",NA,2210.099999964237,static/audio/instructions8.wav,NA,0,NA,NA,NA,NA,NA,NA,NA,NA,NA,NA,NA,NA,NA,NA,NA,NA,NA,NA,NA,NA,NA,NA,NA,NA,NA
fcp-comprehension,18,163372,0.0-5.0-9.0,voc_e2,11751,"[{""event"":""fullscreenenter"",""trial"":1,""time"":10356}]",NA,15406.80000001192,NA,NA,NA,NA,NA,NA,NA,NA,NA,NA,NA,NA,NA,NA,NA,NA,NA,NA,"false,true",1,NA,NA,NA,NA,NA,NA,NA,NA
audio-instructions,19,169039,0.0-5.1-0.1,voc_e2,11751,"[{""event"":""fullscreenenter"",""trial"":1,""time"":10356}]",NA,886.6999999880791,static/audio/instructions1.wav,NA,0,NA,NA,NA,NA,NA,NA,NA,NA,NA,NA,NA,NA,NA,NA,NA,NA,NA,NA,NA,NA,NA,NA,NA,NA,NA
audio-instructions,20,178148,0.0-5.1-1.1,voc_e2,11751,"[{""event"":""fullscreenenter"",""trial"":1,""time"":10356}]",NA,2375,static/audio/instructions2.wav,NA,0,NA,NA,NA,NA,NA,NA,NA,NA,NA,NA,NA,NA,NA,NA,NA,NA,NA,NA,NA,NA,NA,NA,NA,NA,NA
audio-instructions,21,185008,0.0-5.1-2.1,voc_e2,11751,"[{""event"":""fullscreenenter"",""trial"":1,""time"":10356}]",NA,1055.199999988079,static/audio/instructions3.wav,NA,0,NA,NA,NA,NA,NA,NA,NA,NA,NA,NA,NA,NA,NA,NA,NA,NA,NA,NA,NA,NA,NA,NA,NA,NA,NA
audio-instructions,22,200035,0.0-5.1-3.1,voc_e2,11751,"[{""event"":""fullscreenenter"",""trial"":1,""time"":10356}]",NA,1802.2000000476835,static/audio/instructions4.wav,NA,0,NA,NA,NA,NA,NA,NA,NA,NA,NA,NA,NA,NA,NA,NA,NA,NA,NA,NA,NA,NA,NA,NA,NA,NA,NA
audio-instructions,23,211503,0.0-5.1-4.1,voc_e2,11751,"[{""event"":""fullscreenenter"",""trial"":1,""time"":10356}]",NA,2079.5,static/audio/instructions5.wav,NA,0,NA,NA,NA,NA,NA,NA,NA,NA,NA,NA,NA,NA,NA,NA,NA,NA,NA,NA,NA,NA,NA,NA,NA,NA,NA
fcp-practice,24,214200,0.0-5.1-5.1-0.1,voc_e2,11751,"[{""event"":""fullscreenenter"",""trial"":1,""time"":10356}]",NA,NA,NA,NA,NA,NA,#EDC948,#46d3c8,10,0,1,null,null,null,37,1,1186.800000011921,10,1,practice,NA,NA,NA,NA,NA,NA,NA,NA,NA,NA
fcp-practice,25,216033,0.0-5.1-5.1-1.1,voc_e2,11751,"[{""event"":""fullscreenenter"",""trial"":1,""time"":10356}]",NA,NA,NA,NA,NA,NA,#EDC948,#46d3c8,10,0,1,null,null,null,37,1,327,10,1,practice,NA,NA,NA,NA,NA,NA,NA,NA,NA,NA
fcp-practice,26,217575,0.0-5.1-5.1-2.1,voc_e2,11751,"[{""event"":""fullscreenenter"",""trial"":1,""time"":10356}]",NA,NA,NA,NA,NA,NA,#EDC948,#46d3c8,0,10,1,null,null,null,37,1,33.60000002384186,0,1,practice,NA,NA,NA,NA,NA,NA,NA,NA,NA,NA
fcp-practice,27,219417,0.0-5.1-5.1-3.1,voc_e2,11751,"[{""event"":""fullscreenenter"",""trial"":1,""time"":10356}]",NA,NA,NA,NA,NA,NA,#EDC948,#46d3c8,10,0,1,null,null,null,37,1,332.60000002384186,10,1,practice,NA,NA,NA,NA,NA,NA,NA,NA,NA,NA
fcp-practice,28,221233,0.0-5.1-5.1-4.1,voc_e2,11751,"[{""event"":""fullscreenenter"",""trial"":1,""time"":10356}]",NA,NA,NA,NA,NA,NA,#EDC948,#46d3c8,10,0,1,null,null,null,37,1,305.5,10,1,practice,NA,NA,NA,NA,NA,NA,NA,NA,NA,NA
audio-instructions,29,241164,0.0-5.1-6.1,voc_e2,11751,"[{""event"":""fullscreenenter"",""trial"":1,""time"":10356}]",NA,1920.199999988079,static/audio/instructions6.wav,NA,0,NA,NA,NA,NA,NA,NA,NA,NA,NA,NA,NA,NA,NA,NA,NA,NA,NA,NA,NA,NA,NA,NA,NA,NA,NA
audio-instructions,30,261283,0.0-5.1-7.1,voc_e2,11751,"[{""event"":""fullscreenenter"",""trial"":1,""time"":10356}]",NA,919.3000000119208,static/audio/instructions7.wav,NA,0,NA,NA,NA,NA,NA,NA,NA,NA,NA,NA,NA,NA,NA,NA,NA,NA,NA,NA,NA,NA,NA,NA,NA,NA,NA
audio-instructions,31,273288,0.0-5.1-8.1,voc_e2,11751,"[{""event"":""fullscreenenter"",""trial"":1,""time"":10356}]",NA,2525.2000000476837,static/audio/instructions8.wav,NA,0,NA,NA,NA,NA,NA,NA,NA,NA,NA,NA,NA,NA,NA,NA,NA,NA,NA,NA,NA,NA,NA,NA,NA,NA,NA
fcp-comprehension,32,283122,0.0-5.1-9.1,voc_e2,11751,"[{""event"":""fullscreenenter"",""trial"":1,""time"":10356}]",NA,9831.5,NA,NA,NA,NA,NA,NA,NA,NA,NA,NA,NA,NA,NA,NA,NA,NA,NA,NA,"true,true",0,NA,NA,NA,NA,NA,NA,NA,NA
audio-instructions,33,291333,0.0-6.0-0.0,voc_e2,11751,"[{""event"":""fullscreenenter"",""trial"":1,""time"":10356}]",NA,2660.100000023842,static/audio/instructions9.wav,NA,0,NA,NA,NA,NA,NA,NA,NA,NA,NA,NA,NA,NA,NA,NA,NA,NA,NA,NA,NA,NA,NA,NA,NA,NA,NA
audio-instructions,34,306711,0.0-6.0-1.0,voc_e2,11751,"[{""event"":""fullscreenenter"",""trial"":1,""time"":10356}]",NA,3256.599999964237,static/audio/instructions10.wav,NA,0,NA,NA,NA,NA,NA,NA,NA,NA,NA,NA,NA,NA,NA,NA,NA,NA,NA,NA,NA,NA,NA,NA,NA,NA,NA
fcp-trial,35,321872,0.0-6.0-2.0,voc_e2,11751,"[{""event"":""fullscreenenter"",""trial"":1,""time"":10356}]",NA,NA,NA,NA,NA,0,#EDC948,#46d3c8,10,10,1,38,1,9782,39,0,3840.099999964237,10,0,practice,NA,NA,NA,NA,NA,NA,NA,NA,NA,NA
audio-instructions,36,337203,0.0-6.0-3.0,voc_e2,11751,"[{""event"":""fullscreenenter"",""trial"":1,""time"":10356}]",NA,4320.699999988079,static/audio/instructions11.wav,NA,0,NA,NA,NA,NA,NA,NA,NA,NA,NA,NA,NA,NA,NA,NA,NA,NA,NA,NA,NA,NA,NA,NA,NA,NA,NA
fcp-trial,37,345967,0.0-6.0-4.0,voc_e2,11751,"[{""event"":""fullscreenenter"",""trial"":1,""time"":10356}]",NA,NA,NA,NA,NA,6,#EDC948,#46d3c8,10,10,1,40,0,4769.699999988079,37,1,2479.800000011921,10,1,practice,NA,NA,NA,NA,NA,NA,NA,NA,NA,NA
audio-instructions,38,366049,0.0-6.0-5.0,voc_e2,11751,"[{""event"":""fullscreenenter"",""trial"":1,""time"":10356}]",NA,1395,static/audio/instructions12.wav,NA,0,NA,NA,NA,NA,NA,NA,NA,NA,NA,NA,NA,NA,NA,NA,NA,NA,NA,NA,NA,NA,NA,NA,NA,NA,NA
audio-instructions,39,374803,0.0-6.0-6.0,voc_e2,11751,"[{""event"":""fullscreenenter"",""trial"":1,""time"":10356}]",NA,1159.199999988079,static/audio/instructions13.wav,NA,0,NA,NA,NA,NA,NA,NA,NA,NA,NA,NA,NA,NA,NA,NA,NA,NA,NA,NA,NA,NA,NA,NA,NA,NA,NA
audio-instructions,40,383955,0.0-6.0-7.0,voc_e2,11751,"[{""event"":""fullscreenenter"",""trial"":1,""time"":10356}]",NA,700.6000000238419,static/audio/instructions14.wav,NA,0,NA,NA,NA,NA,NA,NA,NA,NA,NA,NA,NA,NA,NA,NA,NA,NA,NA,NA,NA,NA,NA,NA,NA,NA,NA
audio-instructions,41,393814,0.0-7.0-0.0,voc_e2,11751,"[{""event"":""fullscreenenter"",""trial"":1,""time"":10356}]",NA,2940.300000011921,static/audio/instructions15.wav,NA,0,NA,NA,NA,NA,NA,NA,NA,NA,NA,NA,NA,NA,NA,NA,NA,NA,NA,NA,NA,NA,NA,NA,NA,NA,NA
audio-instructions,42,402623,0.0-7.0-1.0,voc_e2,11751,"[{""event"":""fullscreenenter"",""trial"":1,""time"":10356}]",NA,1980.4000000357628,static/audio/instructions16.wav,NA,0,NA,NA,NA,NA,NA,NA,NA,NA,NA,NA,NA,NA,NA,NA,NA,NA,NA,NA,NA,NA,NA,NA,NA,NA,NA
audio-instructions,43,411793,0.0-7.0-2.0,voc_e2,11751,"[{""event"":""fullscreenenter"",""trial"":1,""time"":10356}]",NA,1490.399999976158,static/audio/instructions17.wav,NA,0,NA,NA,NA,NA,NA,NA,NA,NA,NA,NA,NA,NA,NA,NA,NA,NA,NA,NA,NA,NA,NA,NA,NA,NA,NA
audio-instructions,44,422453,0.0-7.0-3.0,voc_e2,11751,"[{""event"":""fullscreenenter"",""trial"":1,""time"":10356}]",NA,2890.2000000476837,static/audio/instructions18.wav,NA,0,NA,NA,NA,NA,NA,NA,NA,NA,NA,NA,NA,NA,NA,NA,NA,NA,NA,NA,NA,NA,NA,NA,NA,NA,NA
audio-instructions,45,431261,0.0-7.0-4.0,voc_e2,11751,"[{""event"":""fullscreenenter"",""trial"":1,""time"":10356}]",NA,2058.800000011921,static/audio/instructions19.wav,NA,0,NA,NA,NA,NA,NA,NA,NA,NA,NA,NA,NA,NA,NA,NA,NA,NA,NA,NA,NA,NA,NA,NA,NA,NA,NA
fcp-comprehension,46,457222,0.0-7.0-5.0,voc_e2,11751,"[{""event"":""fullscreenenter"",""trial"":1,""time"":10356}]",NA,25958.89999997616,NA,NA,NA,NA,NA,NA,NA,NA,NA,NA,NA,NA,NA,NA,NA,NA,NA,NA,"false,false,false,true",0,NA,NA,NA,NA,NA,NA,NA,NA
audio-instructions,47,470213,0.0-8.0,voc_e2,11751,"[{""event"":""fullscreenenter"",""trial"":1,""time"":10356}]",NA,3768.199999988079,static/audio/ready.wav,NA,0,NA,NA,NA,NA,NA,NA,NA,NA,NA,NA,NA,NA,NA,NA,NA,NA,NA,NA,NA,NA,NA,NA,NA,NA,NA
fcp-trial,48,476927,0.0-9.0-0.0,voc_e2,11751,"[{""event"":""fullscreenenter"",""trial"":1,""time"":10356}]",NA,NA,NA,NA,NA,2,#741CD8,#D8271C,10,0,1,38,1,3599.800000011921,37,1,1593.4000000357628,10,1,experiment,NA,NA,0,0.9,0.1,0,1,1,1,NA
fcp-trial,49,481833,0.0-10.0-0.0,voc_e2,11751,"[{""event"":""fullscreenenter"",""trial"":1,""time"":10356}]",NA,NA,NA,NA,NA,5,#1CD855,#FA92F8,10,10,0,38,1,2457.800000011921,37,1,932.6000000238419,10,0,experiment,NA,NA,2,0.5,0.5,5,4,2,1,NA
fcp-trial,50,488389,0.0-11.0-0.0,voc_e2,11751,"[{""event"":""fullscreenenter"",""trial"":1,""time"":10356}]",NA,NA,NA,NA,NA,3,#741CD8,#D8271C,10,0,1,38,1,4011.600000023842,39,0,1030.800000011921,0,0,experiment,NA,NA,0,0.9,0.1,0,1,3,1,NA
fcp-trial,51,492333,0.0-12.0-0.0,voc_e2,11751,"[{""event"":""fullscreenenter"",""trial"":1,""time"":10356}]",NA,NA,NA,NA,NA,1,#D89F1C,#3386FF,10,0,1,38,1,1721.5999999642372,37,1,708.3000000119209,10,1,experiment,NA,NA,1,0.7,0.3,2,3,4,1,NA
fcp-trial,52,495347,0.0-13.0-0.0,voc_e2,11751,"[{""event"":""fullscreenenter"",""trial"":1,""time"":10356}]",NA,NA,NA,NA,NA,6,#741CD8,#D8271C,10,0,1,38,1,960.6999999880791,37,1,546.1000000238419,10,1,experiment,NA,NA,0,0.9,0.1,0,1,5,1,NA
fcp-trial,53,499195,0.0-14.0-0.0,voc_e2,11751,"[{""event"":""fullscreenenter"",""trial"":1,""time"":10356}]",NA,NA,NA,NA,NA,6,#1CD855,#FA92F8,10,10,0,38,1,1154.3999999761581,37,1,1183.300000011921,10,0,experiment,NA,NA,2,0.5,0.5,5,4,6,1,NA
fcp-trial,54,503876,0.0-15.0-0.0,voc_e2,11751,"[{""event"":""fullscreenenter"",""trial"":1,""time"":10356}]",NA,NA,NA,NA,NA,3,#D89F1C,#3386FF,0,0,1,40,0,1165.699999988079,37,1,2005.5999999642372,0,1,experiment,NA,NA,1,0.7,0.3,2,3,7,1,NA
fcp-trial,55,507614,0.0-16.0-0.0,voc_e2,11751,"[{""event"":""fullscreenenter"",""trial"":1,""time"":10356}]",NA,NA,NA,NA,NA,4,#741CD8,#D8271C,10,0,1,38,1,1618.6000000238419,37,1,611.3000000119209,10,1,experiment,NA,NA,0,0.9,0.1,0,1,8,1,NA
fcp-trial,56,510331,0.0-17.0-0.0,voc_e2,11751,"[{""event"":""fullscreenenter"",""trial"":1,""time"":10356}]",NA,NA,NA,NA,NA,0,#D8271C,#741CD8,0,10,0,38,1,622.6999999880791,39,0,578.8000000119209,10,1,experiment,NA,NA,0,0.1,0.9,1,0,9,1,NA
fcp-trial,57,513282,0.0-18.0-0.0,voc_e2,11751,"[{""event"":""fullscreenenter"",""trial"":1,""time"":10356}]",NA,NA,NA,NA,NA,0,#FA92F8,#1CD855,0,10,1,38,1,778.9000000357628,39,0,665.1000000238419,10,0,experiment,NA,NA,2,0.5,0.5,4,5,10,1,NA
fcp-trial,58,516735,0.0-19.0-0.0,voc_e2,11751,"[{""event"":""fullscreenenter"",""trial"":1,""time"":10356}]",NA,NA,NA,NA,NA,4,#3386FF,#D89F1C,0,10,0,38,1,883.8000000119209,39,0,1060.9000000357628,10,1,experiment,NA,NA,1,0.3,0.7,3,2,11,1,NA
fcp-trial,59,519753,0.0-20.0-0.0,voc_e2,11751,"[{""event"":""fullscreenenter"",""trial"":1,""time"":10356}]",NA,NA,NA,NA,NA,5,#D89F1C,#3386FF,10,10,1,38,1,828.6000000238419,37,1,677.5999999642372,10,1,experiment,NA,NA,1,0.7,0.3,2,3,12,1,NA
fcp-trial,60,522651,0.0-21.0-0.0,voc_e2,11751,"[{""event"":""fullscreenenter"",""trial"":1,""time"":10356}]",NA,NA,NA,NA,NA,5,#741CD8,#D8271C,10,0,1,38,1,742.7000000476837,37,1,640.1999999880791,10,1,experiment,NA,NA,0,0.9,0.1,0,1,13,1,NA
fcp-trial,61,526135,0.0-22.0-0.0,voc_e2,11751,"[{""event"":""fullscreenenter"",""trial"":1,""time"":10356}]",NA,NA,NA,NA,NA,1,#FA92F8,#1CD855,10,10,1,38,1,668.6000000238419,39,0,1306.199999988079,10,0,experiment,NA,NA,2,0.5,0.5,4,5,14,1,NA
fcp-trial,62,529737,0.0-23.0-0.0,voc_e2,11751,"[{""event"":""fullscreenenter"",""trial"":1,""time"":10356}]",NA,NA,NA,NA,NA,2,#3386FF,#D89F1C,0,0,0,38,1,1644.7000000476837,39,0,451.9000000357628,0,1,experiment,NA,NA,1,0.3,0.7,3,2,15,1,NA
fcp-trial,63,532556,0.0-24.0-0.0,voc_e2,11751,"[{""event"":""fullscreenenter"",""trial"":1,""time"":10356}]",NA,NA,NA,NA,NA,0,#D89F1C,#3386FF,10,0,1,38,1,980.3000000119209,37,1,329.30000001192093,10,1,experiment,NA,NA,1,0.7,0.3,2,3,16,1,NA
fcp-trial,64,535946,0.0-25.0-0.0,voc_e2,11751,"[{""event"":""fullscreenenter"",""trial"":1,""time"":10356}]",NA,NA,NA,NA,NA,4,#1CD855,#FA92F8,10,10,0,38,1,906.3000000119209,37,1,973.6999999880791,10,0,experiment,NA,NA,2,0.5,0.5,5,4,17,1,NA
fcp-trial,65,538874,0.0-26.0-0.0,voc_e2,11751,"[{""event"":""fullscreenenter"",""trial"":1,""time"":10356}]",NA,NA,NA,NA,NA,1,#741CD8,#D8271C,10,0,1,38,1,948.0999999642372,37,1,472.60000002384186,10,1,experiment,NA,NA,0,0.9,0.1,0,1,18,1,NA
fcp-trial,66,542571,0.0-27.0-0.0,voc_e2,11751,"[{""event"":""fullscreenenter"",""trial"":1,""time"":10356}]",NA,NA,NA,NA,NA,2,#FA92F8,#1CD855,10,10,1,38,1,1778.9000000357628,39,0,404,10,0,experiment,NA,NA,2,0.5,0.5,4,5,19,1,NA
fcp-trial,67,545220,0.0-28.0-0.0,voc_e2,11751,"[{""event"":""fullscreenenter"",""trial"":1,""time"":10356}]",NA,NA,NA,NA,NA,3,#1CD855,#FA92F8,0,0,0,38,1,771.3999999761581,37,1,362.0999999642372,0,0,experiment,NA,NA,2,0.5,0.5,5,4,20,1,NA
fcp-trial,68,548361,0.0-29.0-0.0,voc_e2,11751,"[{""event"":""fullscreenenter"",""trial"":1,""time"":10356}]",NA,NA,NA,NA,NA,6,#3386FF,#D89F1C,0,10,0,38,1,1257.199999988079,39,0,371.60000002384186,10,1,experiment,NA,NA,1,0.3,0.7,3,2,21,1,NA
fcp-trial,69,551576,0.0-30.0-0.0,voc_e2,11751,"[{""event"":""fullscreenenter"",""trial"":1,""time"":10356}]",NA,NA,NA,NA,NA,5,#D89F1C,#3386FF,0,10,1,38,1,1316.300000011921,37,1,386.4000000357628,0,1,experiment,NA,NA,1,0.7,0.3,2,3,22,1,NA
fcp-trial,70,554384,0.0-31.0-0.0,voc_e2,11751,"[{""event"":""fullscreenenter"",""trial"":1,""time"":10356}]",NA,NA,NA,NA,NA,6,#D8271C,#741CD8,0,10,0,38,1,780.8000000119209,39,0,516.7999999523163,10,1,experiment,NA,NA,0,0.1,0.9,1,0,23,1,NA
fcp-trial,71,557150,0.0-32.0-0.0,voc_e2,11751,"[{""event"":""fullscreenenter"",""trial"":1,""time"":10356}]",NA,NA,NA,NA,NA,4,#D8271C,#741CD8,0,10,0,38,1,874.5,39,0,379.2999999523163,10,1,experiment,NA,NA,0,0.1,0.9,1,0,24,1,NA
fcp-trial,72,562017,0.0-33.0-0.0,voc_e2,11751,"[{""event"":""fullscreenenter"",""trial"":1,""time"":10356}]",NA,NA,NA,NA,NA,5,#1CD855,#FA92F8,0,0,0,40,0,1579.199999988079,39,0,1775.5,0,1,experiment,NA,NA,2,0.5,0.5,5,4,25,1,NA
fcp-trial,73,565023,0.0-34.0-0.0,voc_e2,11751,"[{""event"":""fullscreenenter"",""trial"":1,""time"":10356}]",NA,NA,NA,NA,NA,3,#3386FF,#D89F1C,0,10,0,38,1,1139.7000000476837,39,0,353.80000001192093,10,1,experiment,NA,NA,1,0.3,0.7,3,2,26,1,NA
fcp-trial,74,569339,0.0-35.0-0.0,voc_e2,11751,"[{""event"":""fullscreenenter"",""trial"":1,""time"":10356}]",NA,NA,NA,NA,NA,1,#741CD8,#D8271C,0,0,1,40,0,1472.800000011921,39,0,1333.6000000238419,0,0,experiment,NA,NA,0,0.9,0.1,0,1,27,1,NA
fcp-trial,75,574568,0.0-36.0-0.0,voc_e2,11751,"[{""event"":""fullscreenenter"",""trial"":1,""time"":10356}]",NA,NA,NA,NA,NA,5,#741CD8,#D8271C,10,0,1,38,1,3096.900000035763,37,1,619.5999999642372,10,1,experiment,NA,NA,0,0.9,0.1,0,1,28,1,NA
fcp-trial,76,577612,0.0-37.0-0.0,voc_e2,11751,"[{""event"":""fullscreenenter"",""trial"":1,""time"":10356}]",NA,NA,NA,NA,NA,2,#D89F1C,#3386FF,10,10,1,38,1,1025.0999999642372,37,1,507.19999998807907,10,1,experiment,NA,NA,1,0.7,0.3,2,3,29,1,NA
fcp-trial,77,580484,0.0-38.0-0.0,voc_e2,11751,"[{""event"":""fullscreenenter"",""trial"":1,""time"":10356}]",NA,NA,NA,NA,NA,3,#FA92F8,#1CD855,0,10,1,38,1,999.8000000119209,39,0,360.60000002384186,10,0,experiment,NA,NA,2,0.5,0.5,4,5,30,1,NA
fcp-trial,78,583134,0.0-39.0-0.0,voc_e2,11751,"[{""event"":""fullscreenenter"",""trial"":1,""time"":10356}]",NA,NA,NA,NA,NA,6,#D89F1C,#3386FF,10,0,1,38,1,590.1999999880791,37,1,548.2999999523163,10,1,experiment,NA,NA,1,0.7,0.3,2,3,31,1,NA
fcp-trial,79,585657,0.0-40.0-0.0,voc_e2,11751,"[{""event"":""fullscreenenter"",""trial"":1,""time"":10356}]",NA,NA,NA,NA,NA,3,#D8271C,#741CD8,0,10,0,38,1,548.9000000357628,39,0,465.60000002384186,10,1,experiment,NA,NA,0,0.1,0.9,1,0,32,1,NA
fcp-trial,80,588499,0.0-41.0-0.0,voc_e2,11751,"[{""event"":""fullscreenenter"",""trial"":1,""time"":10356}]",NA,NA,NA,NA,NA,2,#1CD855,#FA92F8,0,10,0,38,1,712.5999999642372,37,1,615.0999999642372,0,0,experiment,NA,NA,2,0.5,0.5,5,4,33,1,NA
fcp-trial,81,591056,0.0-42.0-0.0,voc_e2,11751,"[{""event"":""fullscreenenter"",""trial"":1,""time"":10356}]",NA,NA,NA,NA,NA,6,#FA92F8,#1CD855,0,10,1,38,1,540.4000000357628,39,0,505,10,0,experiment,NA,NA,2,0.5,0.5,4,5,34,1,NA
fcp-trial,82,593480,0.0-43.0-0.0,voc_e2,11751,"[{""event"":""fullscreenenter"",""trial"":1,""time"":10356}]",NA,NA,NA,NA,NA,4,#D89F1C,#3386FF,0,0,1,38,1,411.4000000357628,37,1,499.10000002384186,0,1,experiment,NA,NA,1,0.7,0.3,2,3,35,1,NA
fcp-trial,83,595778,0.0-44.0-0.0,voc_e2,11751,"[{""event"":""fullscreenenter"",""trial"":1,""time"":10356}]",NA,NA,NA,NA,NA,1,#3386FF,#D89F1C,10,10,0,38,1,345.80000001192093,39,0,436.60000002384186,10,1,experiment,NA,NA,1,0.3,0.7,3,2,36,1,NA
fcp-trial,84,598279,0.0-45.0-0.0,voc_e2,11751,"[{""event"":""fullscreenenter"",""trial"":1,""time"":10356}]",NA,NA,NA,NA,NA,2,#741CD8,#D8271C,10,0,1,38,1,564.5,37,1,421.10000002384186,10,1,experiment,NA,NA,0,0.9,0.1,0,1,37,1,NA
fcp-trial,85,600587,0.0-46.0-0.0,voc_e2,11751,"[{""event"":""fullscreenenter"",""trial"":1,""time"":10356}]",NA,NA,NA,NA,NA,0,#1CD855,#FA92F8,10,0,0,38,1,482,39,0,312.30000001192093,0,1,experiment,NA,NA,2,0.5,0.5,5,4,38,1,NA
fcp-trial,86,603194,0.0-47.0-0.0,voc_e2,11751,"[{""event"":""fullscreenenter"",""trial"":1,""time"":10356}]",NA,NA,NA,NA,NA,0,#D89F1C,#3386FF,0,0,1,38,1,620.3000000119209,37,1,473.5,0,1,experiment,NA,NA,1,0.7,0.3,2,3,39,1,NA
fcp-trial,87,606168,0.0-48.0-0.0,voc_e2,11751,"[{""event"":""fullscreenenter"",""trial"":1,""time"":10356}]",NA,NA,NA,NA,NA,4,#1CD855,#FA92F8,0,0,0,38,1,812.6000000238419,37,1,646.5,0,0,experiment,NA,NA,2,0.5,0.5,5,4,40,1,NA
fcp-trial,88,609076,0.0-49.0-0.0,voc_e2,11751,"[{""event"":""fullscreenenter"",""trial"":1,""time"":10356}]",NA,NA,NA,NA,NA,0,#741CD8,#D8271C,10,0,1,38,1,675.5,39,0,717,0,0,experiment,NA,NA,0,0.9,0.1,0,1,41,1,NA
fcp-trial,89,611775,0.0-50.0-0.0,voc_e2,11751,"[{""event"":""fullscreenenter"",""trial"":1,""time"":10356}]",NA,NA,NA,NA,NA,1,#1CD855,#FA92F8,0,10,0,38,1,746.8999999761581,37,1,437.10000002384186,0,0,experiment,NA,NA,2,0.5,0.5,5,4,42,1,NA
fcp-trial,90,615782,0.0-51.0-0.0,voc_e2,11751,"[{""event"":""fullscreenenter"",""trial"":1,""time"":10356}]",NA,NA,NA,NA,NA,4,#1CD855,#FA92F8,0,10,0,38,1,1974.699999988079,37,1,520.6000000238419,0,0,experiment,NA,NA,2,0.5,0.5,5,4,43,1,NA
fcp-trial,91,619264,0.0-52.0-0.0,voc_e2,11751,"[{""event"":""fullscreenenter"",""trial"":1,""time"":10356}]",NA,NA,NA,NA,NA,5,#D89F1C,#3386FF,0,0,1,38,1,1485.800000011921,37,1,483.7999999523163,0,1,experiment,NA,NA,1,0.7,0.3,2,3,44,1,NA
fcp-trial,92,624215,0.0-53.0-0.0,voc_e2,11751,"[{""event"":""fullscreenenter"",""trial"":1,""time"":10356}]",NA,NA,NA,NA,NA,4,#D8271C,#741CD8,0,10,0,38,1,2881,39,0,557.5999999642372,10,1,experiment,NA,NA,0,0.1,0.9,1,0,45,1,NA
fcp-trial,93,626654,0.0-54.0-0.0,voc_e2,11751,"[{""event"":""fullscreenenter"",""trial"":1,""time"":10356}]",NA,NA,NA,NA,NA,3,#741CD8,#D8271C,10,0,1,38,1,546.1000000238419,37,1,385.5,10,1,experiment,NA,NA,0,0.9,0.1,0,1,46,2,NA
fcp-trial,94,629338,0.0-55.0-0.0,voc_e2,11751,"[{""event"":""fullscreenenter"",""trial"":1,""time"":10356}]",NA,NA,NA,NA,NA,6,#FA92F8,#1CD855,0,10,1,38,1,771.5,39,0,400.7000000476837,10,0,experiment,NA,NA,2,0.5,0.5,4,5,47,2,NA
fcp-trial,95,632104,0.0-56.0-0.0,voc_e2,11751,"[{""event"":""fullscreenenter"",""trial"":1,""time"":10356}]",NA,NA,NA,NA,NA,3,#D89F1C,#3386FF,0,0,1,38,1,914,37,1,338.9000000357628,0,1,experiment,NA,NA,1,0.7,0.3,2,3,48,2,NA
fcp-trial,96,635793,0.0-57.0-0.0,voc_e2,11751,"[{""event"":""fullscreenenter"",""trial"":1,""time"":10356}]",NA,NA,NA,NA,NA,2,#D89F1C,#3386FF,0,0,1,40,0,1267.5999999642372,37,1,904.0999999642372,0,1,experiment,NA,NA,1,0.7,0.3,2,3,49,2,NA
fcp-trial,97,640986,0.0-58.0-0.0,voc_e2,11751,"[{""event"":""fullscreenenter"",""trial"":1,""time"":10356}]",NA,NA,NA,NA,NA,1,#D8271C,#741CD8,0,10,0,40,0,3223.5,39,0,459.2999999523163,10,1,experiment,NA,NA,0,0.1,0.9,1,0,50,2,NA
fcp-trial,98,644591,0.0-59.0-0.0,voc_e2,11751,"[{""event"":""fullscreenenter"",""trial"":1,""time"":10356}]",NA,NA,NA,NA,NA,0,#D8271C,#741CD8,0,10,0,40,0,834,37,1,1257.3999999761581,0,0,experiment,NA,NA,0,0.1,0.9,1,0,51,2,NA
fcp-trial,99,648275,0.0-60.0-0.0,voc_e2,11751,"[{""event"":""fullscreenenter"",""trial"":1,""time"":10356}]",NA,NA,NA,NA,NA,5,#1CD855,#FA92F8,10,10,0,40,0,1575.699999988079,37,1,596.3000000119209,10,0,experiment,NA,NA,2,0.5,0.5,5,4,52,2,NA
fcp-trial,100,651306,0.0-61.0-0.0,voc_e2,11751,"[{""event"":""fullscreenenter"",""trial"":1,""time"":10356}]",NA,NA,NA,NA,NA,0,#D89F1C,#3386FF,10,10,1,40,0,882.1999999880791,39,0,636.8000000119209,10,0,experiment,NA,NA,1,0.7,0.3,2,3,53,2,NA
fcp-trial,101,655213,0.0-62.0-0.0,voc_e2,11751,"[{""event"":""fullscreenenter"",""trial"":1,""time"":10356}]",NA,NA,NA,NA,NA,6,#D8271C,#741CD8,0,10,0,40,0,1497.199999988079,37,1,898,0,0,experiment,NA,NA,0,0.1,0.9,1,0,54,2,NA
fcp-trial,102,658623,0.0-63.0-0.0,voc_e2,11751,"[{""event"":""fullscreenenter"",""trial"":1,""time"":10356}]",NA,NA,NA,NA,NA,1,#1CD855,#FA92F8,10,10,0,40,0,865.0999999642372,37,1,1033.699999988079,10,0,experiment,NA,NA,2,0.5,0.5,5,4,55,2,NA
fcp-trial,103,661736,0.0-64.0-0.0,voc_e2,11751,"[{""event"":""fullscreenenter"",""trial"":1,""time"":10356}]",NA,NA,NA,NA,NA,6,#D89F1C,#3386FF,10,0,1,40,0,1038.699999988079,37,1,562.9000000357628,10,1,experiment,NA,NA,1,0.7,0.3,2,3,56,2,NA
fcp-trial,104,665827,0.0-65.0-0.0,voc_e2,11751,"[{""event"":""fullscreenenter"",""trial"":1,""time"":10356}]",NA,NA,NA,NA,NA,0,#1CD855,#FA92F8,10,10,0,40,0,1061.4000000357628,39,0,1518.800000011921,10,1,experiment,NA,NA,2,0.5,0.5,5,4,57,2,NA
fcp-trial,105,671050,0.0-66.0-0.0,voc_e2,11751,"[{""event"":""fullscreenenter"",""trial"":1,""time"":10356}]",NA,NA,NA,NA,NA,3,#FA92F8,#1CD855,0,0,1,40,0,3060.7000000476837,39,0,651.5999999642372,0,0,experiment,NA,NA,2,0.5,0.5,4,5,58,2,NA
fcp-trial,106,675549,0.0-67.0-0.0,voc_e2,11751,"[{""event"":""fullscreenenter"",""trial"":1,""time"":10356}]",NA,NA,NA,NA,NA,2,#D8271C,#741CD8,0,10,0,38,1,2494,37,1,494.60000002384186,0,0,experiment,NA,NA,0,0.1,0.9,1,0,59,2,NA
fcp-trial,107,679806,0.0-68.0-0.0,voc_e2,11751,"[{""event"":""fullscreenenter"",""trial"":1,""time"":10356}]",NA,NA,NA,NA,NA,1,#D89F1C,#3386FF,10,10,1,40,0,1781.699999988079,39,0,962.6999999880791,10,0,experiment,NA,NA,1,0.7,0.3,2,3,60,2,NA
fcp-trial,108,683954,0.0-69.0-0.0,voc_e2,11751,"[{""event"":""fullscreenenter"",""trial"":1,""time"":10356}]",NA,NA,NA,NA,NA,5,#D8271C,#741CD8,0,10,0,40,0,1406.1000000238419,37,1,1227.5,0,0,experiment,NA,NA,0,0.1,0.9,1,0,61,2,NA
fcp-trial,109,686936,0.0-70.0-0.0,voc_e2,11751,"[{""event"":""fullscreenenter"",""trial"":1,""time"":10356}]",NA,NA,NA,NA,NA,4,#D89F1C,#3386FF,0,0,1,40,0,789.1000000238419,37,1,679.5,0,1,experiment,NA,NA,1,0.7,0.3,2,3,62,2,NA
fcp-trial,110,690145,0.0-71.0-0.0,voc_e2,11751,"[{""event"":""fullscreenenter"",""trial"":1,""time"":10356}]",NA,NA,NA,NA,NA,2,#1CD855,#FA92F8,10,0,0,40,0,1390.300000011921,37,1,305.0999999642372,10,0,experiment,NA,NA,2,0.5,0.5,5,4,63,2,NA
fcp-trial,111,694177,0.0-72.0-0.0,voc_e2,11751,"[{""event"":""fullscreenenter"",""trial"":1,""time"":10356}]",NA,NA,NA,NA,NA,4,#741CD8,#D8271C,10,0,1,40,0,1562.5,39,0,955.5,0,0,experiment,NA,NA,0,0.9,0.1,0,1,64,2,NA
fcp-trial,112,700641,0.0-73.0-0.0,voc_e2,11751,"[{""event"":""fullscreenenter"",""trial"":1,""time"":10356}]",NA,NA,NA,NA,NA,4,#3386FF,#D89F1C,0,10,0,40,0,4468.699999988079,39,0,483.39999997615814,10,1,experiment,NA,NA,1,0.3,0.7,3,2,65,2,NA
fcp-trial,113,704561,0.0-74.0-0.0,voc_e2,11751,"[{""event"":""fullscreenenter"",""trial"":1,""time"":10356}]",NA,NA,NA,NA,NA,6,#1CD855,#FA92F8,10,0,0,40,0,1350.1000000238419,37,1,1062.9000000357628,10,0,experiment,NA,NA,2,0.5,0.5,5,4,66,2,NA
fcp-trial,114,708274,0.0-75.0-0.0,voc_e2,11751,"[{""event"":""fullscreenenter"",""trial"":1,""time"":10356}]",NA,NA,NA,NA,NA,0,#FA92F8,#1CD855,10,10,1,40,0,671.6999999880791,37,1,1529.5999999642372,10,1,experiment,NA,NA,2,0.5,0.5,4,5,67,2,NA
fcp-trial,115,713345,0.0-76.0-0.0,voc_e2,11751,"[{""event"":""fullscreenenter"",""trial"":1,""time"":10356}]",NA,NA,NA,NA,NA,3,#D8271C,#741CD8,0,10,0,40,0,2852.2999999523163,39,0,707.1999999880791,10,1,experiment,NA,NA,0,0.1,0.9,1,0,68,2,NA
fcp-trial,116,717303,0.0-77.0-0.0,voc_e2,11751,"[{""event"":""fullscreenenter"",""trial"":1,""time"":10356}]",NA,NA,NA,NA,NA,3,#3386FF,#D89F1C,0,10,0,40,0,2059.899999976158,39,0,387.30000001192093,10,1,experiment,NA,NA,1,0.3,0.7,3,2,69,2,NA
fcp-trial,117,720702,0.0-78.0-0.0,voc_e2,11751,"[{""event"":""fullscreenenter"",""trial"":1,""time"":10356}]",NA,NA,NA,NA,NA,5,#1CD855,#FA92F8,10,10,0,40,0,1033.300000011921,39,0,853.2999999523163,10,1,experiment,NA,NA,2,0.5,0.5,5,4,70,2,NA
fcp-trial,118,722953,0.0-79.0-0.0,voc_e2,11751,"[{""event"":""fullscreenenter"",""trial"":1,""time"":10356}]",NA,NA,NA,NA,NA,5,#741CD8,#D8271C,10,0,1,40,0,391.89999997615814,37,1,345.9000000357628,10,1,experiment,NA,NA,0,0.9,0.1,0,1,71,2,NA
fcp-trial,119,725478,0.0-80.0-0.0,voc_e2,11751,"[{""event"":""fullscreenenter"",""trial"":1,""time"":10356}]",NA,NA,NA,NA,NA,2,#D89F1C,#3386FF,10,10,1,40,0,483.4000000357628,37,1,533.1999999880791,10,1,experiment,NA,NA,1,0.7,0.3,2,3,72,2,NA
fcp-trial,120,728159,0.0-81.0-0.0,voc_e2,11751,"[{""event"":""fullscreenenter"",""trial"":1,""time"":10356}]",NA,NA,NA,NA,NA,6,#741CD8,#D8271C,10,0,1,40,0,705.3000000119209,37,1,463.4000000357628,10,1,experiment,NA,NA,0,0.9,0.1,0,1,73,2,NA
fcp-trial,121,730891,0.0-82.0-0.0,voc_e2,11751,"[{""event"":""fullscreenenter"",""trial"":1,""time"":10356}]",NA,NA,NA,NA,NA,3,#FA92F8,#1CD855,10,10,1,40,0,631.8000000119209,39,0,586.1000000238419,10,0,experiment,NA,NA,2,0.5,0.5,4,5,74,2,NA
fcp-trial,122,733865,0.0-83.0-0.0,voc_e2,11751,"[{""event"":""fullscreenenter"",""trial"":1,""time"":10356}]",NA,NA,NA,NA,NA,0,#741CD8,#D8271C,10,0,1,40,0,629.6000000238419,39,0,837.6999999880791,0,0,experiment,NA,NA,0,0.9,0.1,0,1,75,2,NA
fcp-trial,123,737381,0.0-84.0-0.0,voc_e2,11751,"[{""event"":""fullscreenenter"",""trial"":1,""time"":10356}]",NA,NA,NA,NA,NA,5,#D89F1C,#3386FF,10,0,1,40,0,1395.8999999761581,39,0,605.5999999642372,0,0,experiment,NA,NA,1,0.7,0.3,2,3,76,2,NA
fcp-trial,124,740705,0.0-85.0-0.0,voc_e2,11751,"[{""event"":""fullscreenenter"",""trial"":1,""time"":10356}]",NA,NA,NA,NA,NA,6,#D89F1C,#3386FF,10,0,1,40,0,1234.9000000357628,37,1,575,10,1,experiment,NA,NA,1,0.7,0.3,2,3,77,2,NA
fcp-trial,125,744921,0.0-86.0-0.0,voc_e2,11751,"[{""event"":""fullscreenenter"",""trial"":1,""time"":10356}]",NA,NA,NA,NA,NA,2,#741CD8,#D8271C,0,0,1,40,0,1532.699999988079,39,0,1169.800000011921,0,0,experiment,NA,NA,0,0.9,0.1,0,1,78,2,NA
fcp-trial,126,749743,0.0-87.0-0.0,voc_e2,11751,"[{""event"":""fullscreenenter"",""trial"":1,""time"":10356}]",NA,NA,NA,NA,NA,4,#1CD855,#FA92F8,10,0,0,40,0,2856.400000035763,37,1,458.19999998807907,10,0,experiment,NA,NA,2,0.5,0.5,5,4,79,2,NA
fcp-trial,127,752417,0.0-88.0-0.0,voc_e2,11751,"[{""event"":""fullscreenenter"",""trial"":1,""time"":10356}]",NA,NA,NA,NA,NA,1,#1CD855,#FA92F8,0,0,0,40,0,668.9000000357628,37,1,489.5999999642372,0,0,experiment,NA,NA,2,0.5,0.5,5,4,80,2,NA
fcp-trial,128,755133,0.0-89.0-0.0,voc_e2,11751,"[{""event"":""fullscreenenter"",""trial"":1,""time"":10356}]",NA,NA,NA,NA,NA,0,#D89F1C,#3386FF,10,0,1,40,0,740,37,1,462,10,1,experiment,NA,NA,1,0.7,0.3,2,3,81,2,NA
fcp-trial,129,758515,0.0-90.0-0.0,voc_e2,11751,"[{""event"":""fullscreenenter"",""trial"":1,""time"":10356}]",NA,NA,NA,NA,NA,2,#1CD855,#FA92F8,10,10,0,40,0,1070,39,0,798.6000000238419,10,1,experiment,NA,NA,2,0.5,0.5,5,4,82,2,NA
fcp-trial,130,761229,0.0-91.0-0.0,voc_e2,11751,"[{""event"":""fullscreenenter"",""trial"":1,""time"":10356}]",NA,NA,NA,NA,NA,1,#D8271C,#741CD8,0,10,0,40,0,320.60000002384186,37,1,878,0,0,experiment,NA,NA,0,0.1,0.9,1,0,83,2,NA
fcp-trial,131,764188,0.0-92.0-0.0,voc_e2,11751,"[{""event"":""fullscreenenter"",""trial"":1,""time"":10356}]",NA,NA,NA,NA,NA,1,#3386FF,#D89F1C,0,10,0,40,0,697.5,39,0,749,10,1,experiment,NA,NA,1,0.3,0.7,3,2,84,2,NA
fcp-trial,132,767789,0.0-93.0-0.0,voc_e2,11751,"[{""event"":""fullscreenenter"",""trial"":1,""time"":10356}]",NA,NA,NA,NA,NA,3,#D8271C,#741CD8,0,10,0,40,0,1495.5999999642372,37,1,589.8000000119209,0,0,experiment,NA,NA,0,0.1,0.9,1,0,85,2,NA
fcp-trial,133,772736,0.0-94.0-0.0,voc_e2,11751,"[{""event"":""fullscreenenter"",""trial"":1,""time"":10356}]",NA,NA,NA,NA,NA,3,#FA92F8,#1CD855,10,0,1,40,0,2116,37,1,1322.1000000238419,10,1,experiment,NA,NA,2,0.5,0.5,4,5,86,2,NA
fcp-trial,134,776593,0.0-95.0-0.0,voc_e2,11751,"[{""event"":""fullscreenenter"",""trial"":1,""time"":10356}]",NA,NA,NA,NA,NA,4,#3386FF,#D89F1C,10,0,0,40,0,1785.2000000476837,39,0,559.5,0,1,experiment,NA,NA,1,0.3,0.7,3,2,87,2,NA
fcp-trial,135,780053,0.0-96.0-0.0,voc_e2,11751,"[{""event"":""fullscreenenter"",""trial"":1,""time"":10356}]",NA,NA,NA,NA,NA,1,#3386FF,#D89F1C,0,10,0,40,0,1145.6000000238419,39,0,798.3000000119209,10,1,experiment,NA,NA,1,0.3,0.7,3,2,88,2,NA
fcp-trial,136,783032,0.0-97.0-0.0,voc_e2,11751,"[{""event"":""fullscreenenter"",""trial"":1,""time"":10356}]",NA,NA,NA,NA,NA,5,#3386FF,#D89F1C,0,10,0,40,0,899.5,39,0,569.0999999642372,10,1,experiment,NA,NA,1,0.3,0.7,3,2,89,2,NA
fcp-trial,137,786157,0.0-98.0-0.0,voc_e2,11751,"[{""event"":""fullscreenenter"",""trial"":1,""time"":10356}]",NA,NA,NA,NA,NA,1,#741CD8,#D8271C,10,0,1,40,0,1081.199999988079,39,0,527.7000000476837,0,0,experiment,NA,NA,0,0.9,0.1,0,1,90,2,NA
fcp-trial,138,788748,0.0-99.0-0.0,voc_e2,11751,"[{""event"":""fullscreenenter"",""trial"":1,""time"":10356}]",NA,NA,NA,NA,NA,1,#FA92F8,#1CD855,10,10,1,40,0,555.1999999880791,39,0,521.5,10,0,experiment,NA,NA,2,0.5,0.5,4,5,91,3,NA
fcp-trial,139,791306,0.0-100.0-0.0,voc_e2,11751,"[{""event"":""fullscreenenter"",""trial"":1,""time"":10356}]",NA,NA,NA,NA,NA,6,#D8271C,#741CD8,10,10,0,40,0,434.19999998807907,37,1,611.1999999880791,10,0,experiment,NA,NA,0,0.1,0.9,1,0,92,3,NA
fcp-trial,140,793813,0.0-101.0-0.0,voc_e2,11751,"[{""event"":""fullscreenenter"",""trial"":1,""time"":10356}]",NA,NA,NA,NA,NA,6,#D89F1C,#3386FF,10,0,1,40,0,481,37,1,514.8999999761581,10,1,experiment,NA,NA,1,0.7,0.3,2,3,93,3,NA
fcp-trial,141,796689,0.0-102.0-0.0,voc_e2,11751,"[{""event"":""fullscreenenter"",""trial"":1,""time"":10356}]",NA,NA,NA,NA,NA,0,#741CD8,#D8271C,10,0,1,40,0,772.1999999880791,39,0,593,0,0,experiment,NA,NA,0,0.9,0.1,0,1,94,3,NA
fcp-trial,142,800036,0.0-103.0-0.0,voc_e2,11751,"[{""event"":""fullscreenenter"",""trial"":1,""time"":10356}]",NA,NA,NA,NA,NA,4,#1CD855,#FA92F8,0,10,0,40,0,1103.1000000238419,37,1,731.6000000238419,0,0,experiment,NA,NA,2,0.5,0.5,5,4,95,3,NA
fcp-trial,143,802802,0.0-104.0-0.0,voc_e2,11751,"[{""event"":""fullscreenenter"",""trial"":1,""time"":10356}]",NA,NA,NA,NA,NA,3,#3386FF,#D89F1C,0,10,0,40,0,753.8000000119209,39,0,500.4000000357628,10,1,experiment,NA,NA,1,0.3,0.7,3,2,96,3,NA
fcp-trial,144,805609,0.0-105.0-0.0,voc_e2,11751,"[{""event"":""fullscreenenter"",""trial"":1,""time"":10356}]",NA,NA,NA,NA,NA,2,#3386FF,#D89F1C,10,10,0,40,0,505.30000001192093,37,1,786.8000000119209,10,0,experiment,NA,NA,1,0.3,0.7,3,2,97,3,NA
fcp-trial,145,808687,0.0-106.0-0.0,voc_e2,11751,"[{""event"":""fullscreenenter"",""trial"":1,""time"":10356}]",NA,NA,NA,NA,NA,2,#1CD855,#FA92F8,0,10,0,40,0,734.5999999642372,39,0,834.1000000238419,10,1,experiment,NA,NA,2,0.5,0.5,5,4,98,3,NA
fcp-trial,146,811708,0.0-107.0-0.0,voc_e2,11751,"[{""event"":""fullscreenenter"",""trial"":1,""time"":10356}]",NA,NA,NA,NA,NA,2,#741CD8,#D8271C,10,0,1,40,0,870,39,0,640,0,0,experiment,NA,NA,0,0.9,0.1,0,1,99,3,NA
fcp-trial,147,814600,0.0-108.0-0.0,voc_e2,11751,"[{""event"":""fullscreenenter"",""trial"":1,""time"":10356}]",NA,NA,NA,NA,NA,0,#1CD855,#FA92F8,10,10,0,40,0,794.1999999880791,39,0,582.6000000238419,10,1,experiment,NA,NA,2,0.5,0.5,5,4,100,3,NA
fcp-trial,148,817440,0.0-109.0-0.0,voc_e2,11751,"[{""event"":""fullscreenenter"",""trial"":1,""time"":10356}]",NA,NA,NA,NA,NA,0,#3386FF,#D89F1C,0,10,0,40,0,736.5,39,0,596.9000000357628,10,1,experiment,NA,NA,1,0.3,0.7,3,2,101,3,NA
fcp-trial,149,820157,0.0-110.0-0.0,voc_e2,11751,"[{""event"":""fullscreenenter"",""trial"":1,""time"":10356}]",NA,NA,NA,NA,NA,4,#741CD8,#D8271C,10,0,1,40,0,685.5,39,0,520.0999999642372,0,0,experiment,NA,NA,0,0.9,0.1,0,1,102,3,NA
fcp-trial,150,823245,0.0-111.0-0.0,voc_e2,11751,"[{""event"":""fullscreenenter"",""trial"":1,""time"":10356}]",NA,NA,NA,NA,NA,5,#FA92F8,#1CD855,0,10,1,40,0,1059.4000000357628,39,0,519.3999999761581,10,0,experiment,NA,NA,2,0.5,0.5,4,5,103,3,NA
fcp-trial,151,826479,0.0-112.0-0.0,voc_e2,11751,"[{""event"":""fullscreenenter"",""trial"":1,""time"":10356}]",NA,NA,NA,NA,NA,6,#FA92F8,#1CD855,0,0,1,40,0,1148,39,0,569.6999999880791,0,0,experiment,NA,NA,2,0.5,0.5,4,5,104,3,NA
fcp-trial,152,829852,0.0-113.0-0.0,voc_e2,11751,"[{""event"":""fullscreenenter"",""trial"":1,""time"":10356}]",NA,NA,NA,NA,NA,5,#D8271C,#741CD8,0,10,0,40,0,794.3000000119209,37,1,1066.800000011921,0,0,experiment,NA,NA,0,0.1,0.9,1,0,105,3,NA
audio-instructions,153,869270,0.0-114.0,voc_e2,11751,"[{""event"":""fullscreenenter"",""trial"":1,""time"":10356}]",NA,34296.80000001192,static/audio/pause.wav,NA,0,NA,NA,NA,NA,NA,NA,NA,NA,NA,NA,NA,NA,NA,NA,NA,NA,NA,NA,NA,NA,NA,NA,NA,NA,NA
fcp-trial,154,873268,0.0-115.0-0.0,voc_e2,11751,"[{""event"":""fullscreenenter"",""trial"":1,""time"":10356}]",NA,NA,NA,NA,NA,5,#741CD8,#D8271C,10,0,1,40,0,1875.5,39,0,612.3999999761581,0,0,experiment,NA,NA,0,0.9,0.1,0,1,106,3,NA
fcp-trial,155,876441,0.0-116.0-0.0,voc_e2,11751,"[{""event"":""fullscreenenter"",""trial"":1,""time"":10356}]",NA,NA,NA,NA,NA,3,#D89F1C,#3386FF,10,0,1,40,0,170.10000002384186,39,0,1491.199999988079,0,0,experiment,NA,NA,1,0.7,0.3,2,3,107,3,NA
fcp-trial,156,878989,0.0-117.0-0.0,voc_e2,11751,"[{""event"":""fullscreenenter"",""trial"":1,""time"":10356}]",NA,NA,NA,NA,NA,5,#3386FF,#D89F1C,0,0,0,40,0,350.39999997615814,37,1,684.5999999642372,0,0,experiment,NA,NA,1,0.3,0.7,3,2,108,3,NA
fcp-trial,157,881205,0.0-118.0-0.0,voc_e2,11751,"[{""event"":""fullscreenenter"",""trial"":1,""time"":10356}]",NA,NA,NA,NA,NA,1,#741CD8,#D8271C,10,0,1,40,0,112.10000002384186,39,0,589.6999999880791,0,0,experiment,NA,NA,0,0.9,0.1,0,1,109,3,NA
fcp-trial,158,883513,0.0-119.0-0.0,voc_e2,11751,"[{""event"":""fullscreenenter"",""trial"":1,""time"":10356}]",NA,NA,NA,NA,NA,4,#741CD8,#D8271C,10,0,1,40,0,44.19999998807907,37,1,749.5,10,1,experiment,NA,NA,0,0.9,0.1,0,1,110,3,NA
fcp-trial,159,885978,0.0-120.0-0.0,voc_e2,11751,"[{""event"":""fullscreenenter"",""trial"":1,""time"":10356}]",NA,NA,NA,NA,NA,6,#741CD8,#D8271C,10,0,1,40,0,237.9000000357628,39,0,712.1999999880791,0,0,experiment,NA,NA,0,0.9,0.1,0,1,111,3,NA
fcp-trial,160,888206,0.0-121.0-0.0,voc_e2,11751,"[{""event"":""fullscreenenter"",""trial"":1,""time"":10356}]",NA,NA,NA,NA,NA,1,#3386FF,#D89F1C,10,10,0,40,0,51.09999996423721,39,0,667.6999999880791,10,1,experiment,NA,NA,1,0.3,0.7,3,2,112,3,NA
fcp-trial,161,890345,0.0-122.0-0.0,voc_e2,11751,"[{""event"":""fullscreenenter"",""trial"":1,""time"":10356}]",NA,NA,NA,NA,NA,0,#3386FF,#D89F1C,0,10,0,40,0,115.09999996423721,37,1,511.9000000357628,0,0,experiment,NA,NA,1,0.3,0.7,3,2,113,3,NA
fcp-trial,162,892460,0.0-123.0-0.0,voc_e2,11751,"[{""event"":""fullscreenenter"",""trial"":1,""time"":10356}]",NA,NA,NA,NA,NA,0,#FA92F8,#1CD855,10,10,1,40,0,56,37,1,545.4000000357628,10,1,experiment,NA,NA,2,0.5,0.5,4,5,114,3,NA
fcp-trial,163,894861,0.0-124.0-0.0,voc_e2,11751,"[{""event"":""fullscreenenter"",""trial"":1,""time"":10356}]",NA,NA,NA,NA,NA,6,#1CD855,#FA92F8,10,10,0,40,0,324.4000000357628,37,1,565.6999999880791,10,0,experiment,NA,NA,2,0.5,0.5,5,4,115,3,NA
fcp-trial,164,896968,0.0-125.0-0.0,voc_e2,11751,"[{""event"":""fullscreenenter"",""trial"":1,""time"":10356}]",NA,NA,NA,NA,NA,2,#741CD8,#D8271C,0,0,1,40,0,102,39,0,494.39999997615814,0,0,experiment,NA,NA,0,0.9,0.1,0,1,116,3,NA
fcp-trial,165,899128,0.0-126.0-0.0,voc_e2,11751,"[{""event"":""fullscreenenter"",""trial"":1,""time"":10356}]",NA,NA,NA,NA,NA,5,#FA92F8,#1CD855,0,10,1,40,0,187.60000002384186,39,0,462.19999998807907,10,0,experiment,NA,NA,2,0.5,0.5,4,5,117,3,NA
fcp-trial,166,901533,0.0-127.0-0.0,voc_e2,11751,"[{""event"":""fullscreenenter"",""trial"":1,""time"":10356}]",NA,NA,NA,NA,NA,6,#D89F1C,#3386FF,10,0,1,40,0,62,37,1,831.6999999880791,10,1,experiment,NA,NA,1,0.7,0.3,2,3,118,3,NA
fcp-trial,167,903698,0.0-128.0-0.0,voc_e2,11751,"[{""event"":""fullscreenenter"",""trial"":1,""time"":10356}]",NA,NA,NA,NA,NA,1,#1CD855,#FA92F8,10,0,0,40,0,52.5,39,0,600.5,0,1,experiment,NA,NA,2,0.5,0.5,5,4,119,3,NA
fcp-trial,168,905974,0.0-129.0-0.0,voc_e2,11751,"[{""event"":""fullscreenenter"",""trial"":1,""time"":10356}]",NA,NA,NA,NA,NA,3,#D8271C,#741CD8,0,10,0,40,0,147.80000001192093,39,0,610.6999999880791,10,1,experiment,NA,NA,0,0.1,0.9,1,0,120,3,NA
fcp-trial,169,908250,0.0-130.0-0.0,voc_e2,11751,"[{""event"":""fullscreenenter"",""trial"":1,""time"":10356}]",NA,NA,NA,NA,NA,4,#3386FF,#D89F1C,0,0,0,40,0,113.70000004768372,37,1,650.3000000119209,0,0,experiment,NA,NA,1,0.3,0.7,3,2,121,3,NA
fcp-trial,170,912069,0.0-131.0-0.0,voc_e2,11751,"[{""event"":""fullscreenenter"",""trial"":1,""time"":10356}]",NA,NA,NA,NA,NA,4,#FA92F8,#1CD855,0,0,1,40,0,435.2999999523163,39,0,1872.199999988079,0,0,experiment,NA,NA,2,0.5,0.5,4,5,122,3,NA
fcp-trial,171,914446,0.0-132.0-0.0,voc_e2,11751,"[{""event"":""fullscreenenter"",""trial"":1,""time"":10356}]",NA,NA,NA,NA,NA,2,#FA92F8,#1CD855,0,10,1,40,0,475.2000000476837,37,1,391.69999998807907,0,1,experiment,NA,NA,2,0.5,0.5,4,5,123,3,NA
fcp-trial,172,920602,0.0-133.0-0.0,voc_e2,11751,"[{""event"":""fullscreenenter"",""trial"":1,""time"":10356}]",NA,NA,NA,NA,NA,2,#D89F1C,#3386FF,10,0,1,40,0,320.80000001192093,39,0,4322.600000023842,0,0,experiment,NA,NA,1,0.7,0.3,2,3,124,3,NA
fcp-trial,173,923227,0.0-134.0-0.0,voc_e2,11751,"[{""event"":""fullscreenenter"",""trial"":1,""time"":10356}]",NA,NA,NA,NA,NA,0,#D8271C,#741CD8,0,10,0,40,0,541.1999999880791,39,0,566,10,1,experiment,NA,NA,0,0.1,0.9,1,0,125,3,NA
fcp-trial,174,926103,0.0-135.0-0.0,voc_e2,11751,"[{""event"":""fullscreenenter"",""trial"":1,""time"":10356}]",NA,NA,NA,NA,NA,3,#FA92F8,#1CD855,10,0,1,40,0,534.1999999880791,39,0,830.8000000119209,0,0,experiment,NA,NA,2,0.5,0.5,4,5,126,3,NA
fcp-trial,175,929381,0.0-136.0-0.0,voc_e2,11751,"[{""event"":""fullscreenenter"",""trial"":1,""time"":10356}]",NA,NA,NA,NA,NA,6,#741CD8,#D8271C,0,0,1,40,0,399.5,37,1,1373.800000011921,0,1,experiment,NA,NA,0,0.9,0.1,0,1,127,3,NA
fcp-trial,176,934127,0.0-137.0-0.0,voc_e2,11751,"[{""event"":""fullscreenenter"",""trial"":1,""time"":10356}]",NA,NA,NA,NA,NA,6,#3386FF,#D89F1C,0,0,0,40,0,1776,39,0,1461.8999999761581,0,1,experiment,NA,NA,1,0.3,0.7,3,2,128,3,NA
fcp-trial,177,936726,0.0-138.0-0.0,voc_e2,11751,"[{""event"":""fullscreenenter"",""trial"":1,""time"":10356}]",NA,NA,NA,NA,NA,3,#741CD8,#D8271C,10,0,1,40,0,488,37,1,595.6000000238419,10,1,experiment,NA,NA,0,0.9,0.1,0,1,129,3,NA
fcp-trial,178,939387,0.0-139.0-0.0,voc_e2,11751,"[{""event"":""fullscreenenter"",""trial"":1,""time"":10356}]",NA,NA,NA,NA,NA,3,#D89F1C,#3386FF,10,10,1,40,0,526.3000000119209,37,1,623,10,1,experiment,NA,NA,1,0.7,0.3,2,3,130,3,NA
fcp-trial,179,942057,0.0-140.0-0.0,voc_e2,11751,"[{""event"":""fullscreenenter"",""trial"":1,""time"":10356}]",NA,NA,NA,NA,NA,5,#741CD8,#D8271C,10,0,1,40,0,555.5,39,0,609,0,0,experiment,NA,NA,0,0.9,0.1,0,1,131,3,NA
fcp-trial,180,952378,0.0-141.0-0.0,voc_e2,11751,"[{""event"":""fullscreenenter"",""trial"":1,""time"":10356}]",NA,NA,NA,NA,NA,5,#D89F1C,#3386FF,10,0,1,40,0,8252.199999988079,37,1,553.3999999761581,10,1,experiment,NA,NA,1,0.7,0.3,2,3,132,3,NA
fcp-trial,181,959292,0.0-142.0-0.0,voc_e2,11751,"[{""event"":""fullscreenenter"",""trial"":1,""time"":10356}]",NA,NA,NA,NA,NA,6,#FA92F8,#1CD855,0,10,1,40,0,4813.899999976158,39,0,588.5999999642372,10,0,experiment,NA,NA,2,0.5,0.5,4,5,133,3,NA
fcp-trial,182,971458,0.0-143.0-0.0,voc_e2,11751,"[{""event"":""fullscreenenter"",""trial"":1,""time"":10356}]",NA,NA,NA,NA,NA,0,#741CD8,#D8271C,0,0,1,38,1,9598,37,1,1053.199999988079,0,1,experiment,NA,NA,0,0.9,0.1,0,1,134,3,NA
fcp-trial,183,974923,0.0-144.0-0.0,voc_e2,11751,"[{""event"":""fullscreenenter"",""trial"":1,""time"":10356}]",NA,NA,NA,NA,NA,4,#741CD8,#D8271C,10,10,1,40,0,1116.699999988079,37,1,839.8000000119209,10,1,experiment,NA,NA,0,0.9,0.1,0,1,135,3,NA
fcp-trial,184,980005,0.0-145.0-0.0,voc_e2,11751,"[{""event"":""fullscreenenter"",""trial"":1,""time"":10356}]",NA,NA,NA,NA,NA,2,#3386FF,#D89F1C,0,10,0,40,0,3063.100000023842,37,1,506.60000002384186,0,0,experiment,NA,NA,1,0.3,0.7,3,2,136,4,NA
fcp-trial,185,985003,0.0-146.0-0.0,voc_e2,11751,"[{""event"":""fullscreenenter"",""trial"":1,""time"":10356}]",NA,NA,NA,NA,NA,3,#1CD855,#FA92F8,0,10,0,40,0,2241.199999988079,37,1,1243.5,0,0,experiment,NA,NA,2,0.5,0.5,5,4,137,4,NA
fcp-trial,186,987926,0.0-147.0-0.0,voc_e2,11751,"[{""event"":""fullscreenenter"",""trial"":1,""time"":10356}]",NA,NA,NA,NA,NA,0,#D89F1C,#3386FF,0,10,1,40,0,688,37,1,723.8000000119209,0,1,experiment,NA,NA,1,0.7,0.3,2,3,138,4,NA
fcp-trial,187,990776,0.0-148.0-0.0,voc_e2,11751,"[{""event"":""fullscreenenter"",""trial"":1,""time"":10356}]",NA,NA,NA,NA,NA,2,#741CD8,#D8271C,0,0,1,40,0,896,37,1,438,0,1,experiment,NA,NA,0,0.9,0.1,0,1,139,4,NA
fcp-trial,188,997366,0.0-149.0-0.0,voc_e2,11751,"[{""event"":""fullscreenenter"",""trial"":1,""time"":10356}]",NA,NA,NA,NA,NA,1,#FA92F8,#1CD855,0,10,1,40,0,4255.699999988079,37,1,823.6000000238419,0,1,experiment,NA,NA,2,0.5,0.5,4,5,140,4,NA
fcp-trial,189,999799,0.0-150.0-0.0,voc_e2,11751,"[{""event"":""fullscreenenter"",""trial"":1,""time"":10356}]",NA,NA,NA,NA,NA,1,#D89F1C,#3386FF,10,10,1,38,1,532.6999999880791,37,1,389.69999998807907,10,1,experiment,NA,NA,1,0.7,0.3,2,3,141,4,NA
fcp-trial,190,1002242,0.0-151.0-0.0,voc_e2,11751,"[{""event"":""fullscreenenter"",""trial"":1,""time"":10356}]",NA,NA,NA,NA,NA,2,#1CD855,#FA92F8,10,10,0,40,0,378.0999999642372,39,0,546.8000000119209,10,1,experiment,NA,NA,2,0.5,0.5,5,4,142,4,NA
fcp-trial,191,1007571,0.0-152.0-0.0,voc_e2,11751,"[{""event"":""fullscreenenter"",""trial"":1,""time"":10356}]",NA,NA,NA,NA,NA,5,#1CD855,#FA92F8,0,10,0,40,0,2106.199999988079,39,0,1712.6000000238419,10,1,experiment,NA,NA,2,0.5,0.5,5,4,143,4,NA
fcp-trial,192,1011744,0.0-153.0-0.0,voc_e2,11751,"[{""event"":""fullscreenenter"",""trial"":1,""time"":10356}]",NA,NA,NA,NA,NA,1,#D8271C,#741CD8,0,10,0,38,1,2312.100000023842,37,1,353.2999999523163,0,0,experiment,NA,NA,0,0.1,0.9,1,0,144,4,NA
fcp-trial,193,1017451,0.0-154.0-0.0,voc_e2,11751,"[{""event"":""fullscreenenter"",""trial"":1,""time"":10356}]",NA,NA,NA,NA,NA,0,#FA92F8,#1CD855,0,10,1,40,0,3034.600000023842,37,1,1156.2999999523163,0,1,experiment,NA,NA,2,0.5,0.5,4,5,145,4,NA
fcp-trial,194,1023233,0.0-155.0-0.0,voc_e2,11751,"[{""event"":""fullscreenenter"",""trial"":1,""time"":10356}]",NA,NA,NA,NA,NA,4,#D89F1C,#3386FF,10,0,1,40,0,1063,39,0,3209.399999976158,0,0,experiment,NA,NA,1,0.7,0.3,2,3,146,4,NA
fcp-trial,195,1025448,0.0-156.0-0.0,voc_e2,11751,"[{""event"":""fullscreenenter"",""trial"":1,""time"":10356}]",NA,NA,NA,NA,NA,4,#1CD855,#FA92F8,0,0,0,40,0,257.5,39,0,444,0,1,experiment,NA,NA,2,0.5,0.5,5,4,147,4,NA
fcp-trial,196,1027656,0.0-157.0-0.0,voc_e2,11751,"[{""event"":""fullscreenenter"",""trial"":1,""time"":10356}]",NA,NA,NA,NA,NA,3,#D8271C,#741CD8,0,10,0,40,0,95,39,0,599.6999999880791,10,1,experiment,NA,NA,0,0.1,0.9,1,0,148,4,NA
fcp-trial,197,1030333,0.0-158.0-0.0,voc_e2,11751,"[{""event"":""fullscreenenter"",""trial"":1,""time"":10356}]",NA,NA,NA,NA,NA,3,#D89F1C,#3386FF,10,0,1,40,0,230.19999998807907,37,1,938.3999999761581,10,1,experiment,NA,NA,1,0.7,0.3,2,3,149,4,NA
fcp-trial,198,1033296,0.0-159.0-0.0,voc_e2,11751,"[{""event"":""fullscreenenter"",""trial"":1,""time"":10356}]",NA,NA,NA,NA,NA,5,#D89F1C,#3386FF,0,0,1,40,0,199.80000001192093,39,0,1253.699999988079,0,0,experiment,NA,NA,1,0.7,0.3,2,3,150,4,NA
fcp-trial,199,1035355,0.0-160.0-0.0,voc_e2,11751,"[{""event"":""fullscreenenter"",""trial"":1,""time"":10356}]",NA,NA,NA,NA,NA,2,#D89F1C,#3386FF,0,10,1,40,0,52.30000001192093,37,1,492.19999998807907,0,1,experiment,NA,NA,1,0.7,0.3,2,3,151,4,NA
fcp-trial,200,1039086,0.0-161.0-0.0,voc_e2,11751,"[{""event"":""fullscreenenter"",""trial"":1,""time"":10356}]",NA,NA,NA,NA,NA,1,#D8271C,#741CD8,0,10,0,40,0,29.69999998807907,37,1,2190.800000011921,0,0,experiment,NA,NA,0,0.1,0.9,1,0,152,4,NA
fcp-trial,201,1041511,0.0-162.0-0.0,voc_e2,11751,"[{""event"":""fullscreenenter"",""trial"":1,""time"":10356}]",NA,NA,NA,NA,NA,0,#741CD8,#D8271C,10,0,1,40,0,199.80000001192093,39,0,710.5,0,0,experiment,NA,NA,0,0.9,0.1,0,1,153,4,NA
fcp-trial,202,1044676,0.0-163.0-0.0,voc_e2,11751,"[{""event"":""fullscreenenter"",""trial"":1,""time"":10356}]",NA,NA,NA,NA,NA,4,#D8271C,#741CD8,0,10,0,40,0,937.1999999880791,39,0,711.8000000119209,10,1,experiment,NA,NA,0,0.1,0.9,1,0,154,4,NA
fcp-trial,203,1047997,0.0-164.0-0.0,voc_e2,11751,"[{""event"":""fullscreenenter"",""trial"":1,""time"":10356}]",NA,NA,NA,NA,NA,2,#1CD855,#FA92F8,10,10,0,40,0,1122.0999999642372,37,1,686.2000000476837,10,0,experiment,NA,NA,2,0.5,0.5,5,4,155,4,NA
fcp-trial,204,1050727,0.0-165.0-0.0,voc_e2,11751,"[{""event"":""fullscreenenter"",""trial"":1,""time"":10356}]",NA,NA,NA,NA,NA,1,#D89F1C,#3386FF,0,10,1,40,0,523.6999999880791,39,0,697.1999999880791,10,0,experiment,NA,NA,1,0.7,0.3,2,3,156,4,NA
fcp-trial,205,1053385,0.0-166.0-0.0,voc_e2,11751,"[{""event"":""fullscreenenter"",""trial"":1,""time"":10356}]",NA,NA,NA,NA,NA,1,#FA92F8,#1CD855,0,10,1,40,0,354.9000000357628,37,1,788.3000000119209,0,1,experiment,NA,NA,2,0.5,0.5,4,5,157,4,NA
fcp-trial,206,1056043,0.0-167.0-0.0,voc_e2,11751,"[{""event"":""fullscreenenter"",""trial"":1,""time"":10356}]",NA,NA,NA,NA,NA,3,#FA92F8,#1CD855,0,0,1,40,0,409.0999999642372,37,1,735.1999999880791,0,1,experiment,NA,NA,2,0.5,0.5,4,5,158,4,NA
fcp-trial,207,1058925,0.0-168.0-0.0,voc_e2,11751,"[{""event"":""fullscreenenter"",""trial"":1,""time"":10356}]",NA,NA,NA,NA,NA,5,#D8271C,#741CD8,0,10,0,40,0,800.5,37,1,569.3000000119209,0,0,experiment,NA,NA,0,0.1,0.9,1,0,159,4,NA
fcp-trial,208,1061291,0.0-169.0-0.0,voc_e2,11751,"[{""event"":""fullscreenenter"",""trial"":1,""time"":10356}]",NA,NA,NA,NA,NA,5,#1CD855,#FA92F8,0,10,0,40,0,329.5,37,1,523.5,0,0,experiment,NA,NA,2,0.5,0.5,5,4,160,4,NA
fcp-trial,209,1063957,0.0-170.0-0.0,voc_e2,11751,"[{""event"":""fullscreenenter"",""trial"":1,""time"":10356}]",NA,NA,NA,NA,NA,4,#3386FF,#D89F1C,10,0,0,40,0,596.7999999523163,37,1,561.5,10,0,experiment,NA,NA,1,0.3,0.7,3,2,161,4,NA
fcp-trial,210,1066423,0.0-171.0-0.0,voc_e2,11751,"[{""event"":""fullscreenenter"",""trial"":1,""time"":10356}]",NA,NA,NA,NA,NA,6,#D89F1C,#3386FF,10,0,1,40,0,369,37,1,583.1999999880791,10,1,experiment,NA,NA,1,0.7,0.3,2,3,162,4,NA
fcp-trial,211,1068539,0.0-172.0-0.0,voc_e2,11751,"[{""event"":""fullscreenenter"",""trial"":1,""time"":10356}]",NA,NA,NA,NA,NA,4,#FA92F8,#1CD855,0,10,1,40,0,79.5,37,1,521.1000000238419,0,1,experiment,NA,NA,2,0.5,0.5,4,5,163,4,NA
fcp-trial,212,1071563,0.0-173.0-0.0,voc_e2,11751,"[{""event"":""fullscreenenter"",""trial"":1,""time"":10356}]",NA,NA,NA,NA,NA,6,#D8271C,#741CD8,0,10,0,40,0,479.7000000476837,37,1,1027.5,0,0,experiment,NA,NA,0,0.1,0.9,1,0,164,4,NA
fcp-trial,213,1073712,0.0-174.0-0.0,voc_e2,11751,"[{""event"":""fullscreenenter"",""trial"":1,""time"":10356}]",NA,NA,NA,NA,NA,0,#D89F1C,#3386FF,10,0,1,40,0,140.60000002384186,37,1,497.69999998807907,10,1,experiment,NA,NA,1,0.7,0.3,2,3,165,4,NA
fcp-trial,214,1075936,0.0-175.0-0.0,voc_e2,11751,"[{""event"":""fullscreenenter"",""trial"":1,""time"":10356}]",NA,NA,NA,NA,NA,0,#1CD855,#FA92F8,10,0,0,40,0,134.5,39,0,578.3000000119209,0,1,experiment,NA,NA,2,0.5,0.5,5,4,166,4,NA
fcp-trial,215,1078044,0.0-176.0-0.0,voc_e2,11751,"[{""event"":""fullscreenenter"",""trial"":1,""time"":10356}]",NA,NA,NA,NA,NA,2,#741CD8,#D8271C,10,0,1,40,0,17,39,0,582.3999999761581,0,0,experiment,NA,NA,0,0.9,0.1,0,1,167,4,NA
fcp-trial,216,1080827,0.0-177.0-0.0,voc_e2,11751,"[{""event"":""fullscreenenter"",""trial"":1,""time"":10356}]",NA,NA,NA,NA,NA,6,#FA92F8,#1CD855,0,10,1,40,0,153.69999998807907,37,1,1114.9000000357628,0,1,experiment,NA,NA,2,0.5,0.5,4,5,168,4,NA
fcp-trial,217,1083243,0.0-178.0-0.0,voc_e2,11751,"[{""event"":""fullscreenenter"",""trial"":1,""time"":10356}]",NA,NA,NA,NA,NA,1,#D89F1C,#3386FF,10,10,1,40,0,297.69999998807907,39,0,607.8000000119209,10,0,experiment,NA,NA,1,0.7,0.3,2,3,169,4,NA
fcp-trial,218,1085817,0.0-179.0-0.0,voc_e2,11751,"[{""event"":""fullscreenenter"",""trial"":1,""time"":10356}]",NA,NA,NA,NA,NA,1,#741CD8,#D8271C,10,0,1,40,0,372.30000001192093,37,1,685.8000000119209,10,1,experiment,NA,NA,0,0.9,0.1,0,1,170,4,NA
fcp-trial,219,1088183,0.0-180.0-0.0,voc_e2,11751,"[{""event"":""fullscreenenter"",""trial"":1,""time"":10356}]",NA,NA,NA,NA,NA,6,#3386FF,#D89F1C,0,10,0,40,0,72.39999997615814,39,0,778.4000000357628,10,1,experiment,NA,NA,1,0.3,0.7,3,2,171,4,NA
fcp-trial,220,1090257,0.0-181.0-0.0,voc_e2,11751,"[{""event"":""fullscreenenter"",""trial"":1,""time"":10356}]",NA,NA,NA,NA,NA,5,#FA92F8,#1CD855,0,0,1,40,0,40.80000001192093,37,1,520.5,0,1,experiment,NA,NA,2,0.5,0.5,4,5,172,4,NA
fcp-trial,221,1093355,0.0-182.0-0.0,voc_e2,11751,"[{""event"":""fullscreenenter"",""trial"":1,""time"":10356}]",NA,NA,NA,NA,NA,4,#FA92F8,#1CD855,10,10,1,40,0,212.39999997615814,39,0,1370.1000000238419,10,0,experiment,NA,NA,2,0.5,0.5,4,5,173,4,NA
fcp-trial,222,1099153,0.0-183.0-0.0,voc_e2,11751,"[{""event"":""fullscreenenter"",""trial"":1,""time"":10356}]",NA,NA,NA,NA,NA,6,#741CD8,#D8271C,0,0,1,40,0,568.5,39,0,3719.399999976158,0,0,experiment,NA,NA,0,0.9,0.1,0,1,174,4,NA
fcp-trial,223,1102904,0.0-184.0-0.0,voc_e2,11751,"[{""event"":""fullscreenenter"",""trial"":1,""time"":10356}]",NA,NA,NA,NA,NA,2,#1CD855,#FA92F8,10,10,0,40,0,271.39999997615814,39,0,1962,10,1,experiment,NA,NA,2,0.5,0.5,5,4,175,4,NA
fcp-trial,224,1108389,0.0-185.0-0.0,voc_e2,11751,"[{""event"":""fullscreenenter"",""trial"":1,""time"":10356}]",NA,NA,NA,NA,NA,2,#D89F1C,#3386FF,0,0,1,40,0,331.19999998807907,39,0,3635.699999988079,0,0,experiment,NA,NA,1,0.7,0.3,2,3,176,4,NA
fcp-trial,225,1111838,0.0-186.0-0.0,voc_e2,11751,"[{""event"":""fullscreenenter"",""trial"":1,""time"":10356}]",NA,NA,NA,NA,NA,3,#741CD8,#D8271C,10,0,1,40,0,479.4000000357628,39,0,1456.2000000476837,0,0,experiment,NA,NA,0,0.9,0.1,0,1,177,4,NA
fcp-trial,226,1114228,0.0-187.0-0.0,voc_e2,11751,"[{""event"":""fullscreenenter"",""trial"":1,""time"":10356}]",NA,NA,NA,NA,NA,0,#1CD855,#FA92F8,0,0,0,40,0,61.59999996423721,39,0,817.8999999761581,0,1,experiment,NA,NA,2,0.5,0.5,5,4,178,4,NA
fcp-trial,227,1116761,0.0-188.0-0.0,voc_e2,11751,"[{""event"":""fullscreenenter"",""trial"":1,""time"":10356}]",NA,NA,NA,NA,NA,3,#3386FF,#D89F1C,10,0,0,40,0,542.4000000357628,37,1,481.30000001192093,10,0,experiment,NA,NA,1,0.3,0.7,3,2,179,4,NA
fcp-trial,228,1119252,0.0-189.0-0.0,voc_e2,11751,"[{""event"":""fullscreenenter"",""trial"":1,""time"":10356}]",NA,NA,NA,NA,NA,2,#741CD8,#D8271C,10,0,1,40,0,194.79999995231628,37,1,781.8999999761581,10,1,experiment,NA,NA,0,0.9,0.1,0,1,180,4,NA
fcp-trial,229,1121594,0.0-190.0-0.0,voc_e2,11751,"[{""event"":""fullscreenenter"",""trial"":1,""time"":10356}]",NA,NA,NA,NA,NA,4,#741CD8,#D8271C,10,0,1,40,0,405.39999997615814,37,1,421.19999998807907,10,1,experiment,NA,NA,0,0.9,0.1,0,1,181,5,NA
fcp-trial,230,1124359,0.0-191.0-0.0,voc_e2,11751,"[{""event"":""fullscreenenter"",""trial"":1,""time"":10356}]",NA,NA,NA,NA,NA,1,#1CD855,#FA92F8,0,0,0,40,0,691.6999999880791,39,0,562.3000000119209,0,1,experiment,NA,NA,2,0.5,0.5,5,4,182,5,NA
fcp-trial,231,1126683,0.0-192.0-0.0,voc_e2,11751,"[{""event"":""fullscreenenter"",""trial"":1,""time"":10356}]",NA,NA,NA,NA,NA,4,#3386FF,#D89F1C,0,10,0,40,0,379.5,39,0,432.5,10,1,experiment,NA,NA,1,0.3,0.7,3,2,183,5,NA
fcp-trial,232,1129074,0.0-193.0-0.0,voc_e2,11751,"[{""event"":""fullscreenenter"",""trial"":1,""time"":10356}]",NA,NA,NA,NA,NA,5,#741CD8,#D8271C,10,0,1,40,0,405.69999998807907,37,1,471.9000000357628,10,1,experiment,NA,NA,0,0.9,0.1,0,1,184,5,NA
fcp-trial,233,1131182,0.0-194.0-0.0,voc_e2,11751,"[{""event"":""fullscreenenter"",""trial"":1,""time"":10356}]",NA,NA,NA,NA,NA,0,#D89F1C,#3386FF,10,10,1,40,0,62.40000003576279,37,1,529.1999999880791,10,1,experiment,NA,NA,1,0.7,0.3,2,3,185,5,NA
fcp-trial,234,1134140,0.0-195.0-0.0,voc_e2,11751,"[{""event"":""fullscreenenter"",""trial"":1,""time"":10356}]",NA,NA,NA,NA,NA,3,#1CD855,#FA92F8,10,0,0,40,0,770.7999999523163,39,0,678.4000000357628,0,1,experiment,NA,NA,2,0.5,0.5,5,4,186,5,NA
fcp-trial,235,1137064,0.0-196.0-0.0,voc_e2,11751,"[{""event"":""fullscreenenter"",""trial"":1,""time"":10356}]",NA,NA,NA,NA,NA,0,#D8271C,#741CD8,10,10,0,40,0,637,37,1,771.2999999523163,10,0,experiment,NA,NA,0,0.1,0.9,1,0,187,5,NA
fcp-trial,236,1139899,0.0-197.0-0.0,voc_e2,11751,"[{""event"":""fullscreenenter"",""trial"":1,""time"":10356}]",NA,NA,NA,NA,NA,5,#3386FF,#D89F1C,0,10,0,40,0,468.9000000357628,39,0,855.1999999880791,10,1,experiment,NA,NA,1,0.3,0.7,3,2,188,5,NA
fcp-trial,237,1142355,0.0-198.0-0.0,voc_e2,11751,"[{""event"":""fullscreenenter"",""trial"":1,""time"":10356}]",NA,NA,NA,NA,NA,6,#1CD855,#FA92F8,10,0,0,40,0,407.80000001192093,37,1,541.3999999761581,10,0,experiment,NA,NA,2,0.5,0.5,5,4,189,5,NA
fcp-trial,238,1144953,0.0-199.0-0.0,voc_e2,11751,"[{""event"":""fullscreenenter"",""trial"":1,""time"":10356}]",NA,NA,NA,NA,NA,1,#1CD855,#FA92F8,0,10,0,40,0,412.9000000357628,37,1,678.8999999761581,0,0,experiment,NA,NA,2,0.5,0.5,5,4,190,5,NA
fcp-trial,239,1147710,0.0-200.0-0.0,voc_e2,11751,"[{""event"":""fullscreenenter"",""trial"":1,""time"":10356}]",NA,NA,NA,NA,NA,4,#FA92F8,#1CD855,10,0,1,40,0,664.5999999642372,39,0,578.5,0,0,experiment,NA,NA,2,0.5,0.5,4,5,191,5,NA
fcp-trial,240,1150346,0.0-201.0-0.0,voc_e2,11751,"[{""event"":""fullscreenenter"",""trial"":1,""time"":10356}]",NA,NA,NA,NA,NA,2,#741CD8,#D8271C,10,0,1,40,0,551.9000000357628,37,1,574,10,1,experiment,NA,NA,0,0.9,0.1,0,1,192,5,NA
fcp-trial,241,1152736,0.0-202.0-0.0,voc_e2,11751,"[{""event"":""fullscreenenter"",""trial"":1,""time"":10356}]",NA,NA,NA,NA,NA,3,#3386FF,#D89F1C,0,10,0,40,0,320.2999999523163,39,0,561,10,1,experiment,NA,NA,1,0.3,0.7,3,2,193,5,NA
fcp-trial,242,1156099,0.0-203.0-0.0,voc_e2,11751,"[{""event"":""fullscreenenter"",""trial"":1,""time"":10356}]",NA,NA,NA,NA,NA,6,#741CD8,#D8271C,10,0,1,40,0,781.1999999880791,39,0,1072,0,0,experiment,NA,NA,0,0.9,0.1,0,1,194,5,NA
fcp-trial,243,1158126,0.0-204.0-0.0,voc_e2,11751,"[{""event"":""fullscreenenter"",""trial"":1,""time"":10356}]",NA,NA,NA,NA,NA,4,#3386FF,#D89F1C,10,10,0,40,0,23.899999976158142,39,0,488.5,10,1,experiment,NA,NA,1,0.3,0.7,3,2,195,5,NA
fcp-trial,244,1160298,0.0-205.0-0.0,voc_e2,11751,"[{""event"":""fullscreenenter"",""trial"":1,""time"":10356}]",NA,NA,NA,NA,NA,3,#FA92F8,#1CD855,0,0,1,40,0,94.09999996423721,39,0,566.4000000357628,0,0,experiment,NA,NA,2,0.5,0.5,4,5,196,5,NA
fcp-trial,245,1162749,0.0-206.0-0.0,voc_e2,11751,"[{""event"":""fullscreenenter"",""trial"":1,""time"":10356}]",NA,NA,NA,NA,NA,0,#D89F1C,#3386FF,10,10,1,40,0,171.89999997615814,39,0,769,10,0,experiment,NA,NA,1,0.7,0.3,2,3,197,5,NA
fcp-trial,246,1166026,0.0-207.0-0.0,voc_e2,11751,"[{""event"":""fullscreenenter"",""trial"":1,""time"":10356}]",NA,NA,NA,NA,NA,0,#D8271C,#741CD8,0,10,0,40,0,206.20000004768372,39,0,1561.3999999761581,10,1,experiment,NA,NA,0,0.1,0.9,1,0,198,5,NA
fcp-trial,247,1168069,0.0-208.0-0.0,voc_e2,11751,"[{""event"":""fullscreenenter"",""trial"":1,""time"":10356}]",NA,NA,NA,NA,NA,0,#1CD855,#FA92F8,0,10,0,38,1,5.399999976158142,37,1,535.5,0,0,experiment,NA,NA,2,0.5,0.5,5,4,199,5,NA
fcp-trial,248,1170320,0.0-209.0-0.0,voc_e2,11751,"[{""event"":""fullscreenenter"",""trial"":1,""time"":10356}]",NA,NA,NA,NA,NA,1,#3386FF,#D89F1C,0,0,0,38,1,347.39999997615814,37,1,397.19999998807907,0,0,experiment,NA,NA,1,0.3,0.7,3,2,200,5,NA
fcp-trial,249,1173204,0.0-210.0-0.0,voc_e2,11751,"[{""event"":""fullscreenenter"",""trial"":1,""time"":10356}]",NA,NA,NA,NA,NA,4,#D8271C,#741CD8,0,10,0,38,1,69.69999998807907,37,1,1302.7999999523163,0,0,experiment,NA,NA,0,0.1,0.9,1,0,201,5,NA
fcp-trial,250,1175745,0.0-211.0-0.0,voc_e2,11751,"[{""event"":""fullscreenenter"",""trial"":1,""time"":10356}]",NA,NA,NA,NA,NA,5,#D89F1C,#3386FF,10,10,1,40,0,220.69999998807907,37,1,806.8000000119209,10,1,experiment,NA,NA,1,0.7,0.3,2,3,202,5,NA
fcp-trial,251,1179242,0.0-212.0-0.0,voc_e2,11751,"[{""event"":""fullscreenenter"",""trial"":1,""time"":10356}]",NA,NA,NA,NA,NA,3,#741CD8,#D8271C,10,0,1,40,0,697.9000000357628,37,1,1286.5,10,1,experiment,NA,NA,0,0.9,0.1,0,1,203,5,NA
fcp-trial,252,1181443,0.0-213.0-0.0,voc_e2,11751,"[{""event"":""fullscreenenter"",""trial"":1,""time"":10356}]",NA,NA,NA,NA,NA,6,#1CD855,#FA92F8,0,0,0,40,0,156.30000001192093,39,0,531.2999999523163,0,1,experiment,NA,NA,2,0.5,0.5,5,4,204,5,NA
fcp-trial,253,1184028,0.0-214.0-0.0,voc_e2,11751,"[{""event"":""fullscreenenter"",""trial"":1,""time"":10356}]",NA,NA,NA,NA,NA,6,#3386FF,#D89F1C,0,10,0,40,0,16.19999998807907,37,1,1058.800000011921,0,0,experiment,NA,NA,1,0.3,0.7,3,2,205,5,NA
fcp-trial,254,1187091,0.0-215.0-0.0,voc_e2,11751,"[{""event"":""fullscreenenter"",""trial"":1,""time"":10356}]",NA,NA,NA,NA,NA,5,#D8271C,#741CD8,0,10,0,40,0,886.2000000476837,39,0,671.4000000357628,10,1,experiment,NA,NA,0,0.1,0.9,1,0,206,5,NA
fcp-trial,255,1190582,0.0-216.0-0.0,voc_e2,11751,"[{""event"":""fullscreenenter"",""trial"":1,""time"":10356}]",NA,NA,NA,NA,NA,2,#3386FF,#D89F1C,0,10,0,40,0,156.80000001192093,37,1,1818.9000000357628,0,0,experiment,NA,NA,1,0.3,0.7,3,2,207,5,NA
fcp-trial,256,1193706,0.0-217.0-0.0,voc_e2,11751,"[{""event"":""fullscreenenter"",""trial"":1,""time"":10356}]",NA,NA,NA,NA,NA,5,#1CD855,#FA92F8,0,0,0,40,0,946.1000000238419,39,0,662.5,0,1,experiment,NA,NA,2,0.5,0.5,5,4,208,5,NA
fcp-trial,257,1196021,0.0-218.0-0.0,voc_e2,11751,"[{""event"":""fullscreenenter"",""trial"":1,""time"":10356}]",NA,NA,NA,NA,NA,2,#1CD855,#FA92F8,0,10,0,40,0,472.60000002384186,37,1,330.10000002384186,0,0,experiment,NA,NA,2,0.5,0.5,5,4,209,5,NA
fcp-trial,258,1198888,0.0-219.0-0.0,voc_e2,11751,"[{""event"":""fullscreenenter"",""trial"":1,""time"":10356}]",NA,NA,NA,NA,NA,1,#741CD8,#D8271C,0,0,1,40,0,681,39,0,668.2000000476837,0,0,experiment,NA,NA,0,0.9,0.1,0,1,210,5,NA
audio-instructions,259,1277612,0.0-220.0,voc_e2,11751,"[{""event"":""fullscreenenter"",""trial"":1,""time"":10356}]",NA,73535.89999997616,static/audio/pause.wav,NA,0,NA,NA,NA,NA,NA,NA,NA,NA,NA,NA,NA,NA,NA,NA,NA,NA,NA,NA,NA,NA,NA,NA,NA,NA,NA
fcp-trial,260,1280229,0.0-221.0-0.0,voc_e2,11751,"[{""event"":""fullscreenenter"",""trial"":1,""time"":10356}]",NA,NA,NA,NA,NA,1,#FA92F8,#1CD855,10,0,1,40,0,592.6999999880791,39,0,512.3999999761581,0,0,experiment,NA,NA,2,0.5,0.5,4,5,211,5,NA
fcp-trial,261,1282367,0.0-222.0-0.0,voc_e2,11751,"[{""event"":""fullscreenenter"",""trial"":1,""time"":10356}]",NA,NA,NA,NA,NA,5,#3386FF,#D89F1C,0,0,0,40,0,196.30000001192093,37,1,432.60000002384186,0,0,experiment,NA,NA,1,0.3,0.7,3,2,212,5,NA
fcp-trial,262,1285315,0.0-223.0-0.0,voc_e2,11751,"[{""event"":""fullscreenenter"",""trial"":1,""time"":10356}]",NA,NA,NA,NA,NA,2,#741CD8,#D8271C,10,10,1,40,0,537.6999999880791,39,0,897.5,10,0,experiment,NA,NA,0,0.9,0.1,0,1,213,5,NA
fcp-trial,263,1287874,0.0-224.0-0.0,voc_e2,11751,"[{""event"":""fullscreenenter"",""trial"":1,""time"":10356}]",NA,NA,NA,NA,NA,4,#D89F1C,#3386FF,0,10,1,40,0,432.89999997615814,37,1,614,0,1,experiment,NA,NA,1,0.7,0.3,2,3,214,5,NA
fcp-trial,264,1290040,0.0-225.0-0.0,voc_e2,11751,"[{""event"":""fullscreenenter"",""trial"":1,""time"":10356}]",NA,NA,NA,NA,NA,1,#D8271C,#741CD8,10,10,0,40,0,20.69999998807907,39,0,632.3000000119209,10,1,experiment,NA,NA,0,0.1,0.9,1,0,215,5,NA
fcp-trial,265,1292305,0.0-226.0-0.0,voc_e2,11751,"[{""event"":""fullscreenenter"",""trial"":1,""time"":10356}]",NA,NA,NA,NA,NA,6,#1CD855,#FA92F8,10,0,0,40,0,345.89999997615814,39,0,403.9000000357628,0,1,experiment,NA,NA,2,0.5,0.5,5,4,216,5,NA
fcp-trial,266,1294263,0.0-227.0-0.0,voc_e2,11751,"[{""event"":""fullscreenenter"",""trial"":1,""time"":10356}]",NA,NA,NA,NA,NA,5,#FA92F8,#1CD855,0,10,1,40,0,87.89999997615814,37,1,355.30000001192093,0,1,experiment,NA,NA,2,0.5,0.5,4,5,217,5,NA
fcp-trial,267,1296904,0.0-228.0-0.0,voc_e2,11751,"[{""event"":""fullscreenenter"",""trial"":1,""time"":10356}]",NA,NA,NA,NA,NA,0,#D89F1C,#3386FF,0,0,1,40,0,440.39999997615814,37,1,690.0999999642372,0,1,experiment,NA,NA,1,0.7,0.3,2,3,218,5,NA
fcp-trial,268,1299087,0.0-229.0-0.0,voc_e2,11751,"[{""event"":""fullscreenenter"",""trial"":1,""time"":10356}]",NA,NA,NA,NA,NA,3,#741CD8,#D8271C,10,0,1,40,0,360.5999999642372,39,0,310.89999997615814,0,0,experiment,NA,NA,0,0.9,0.1,0,1,219,5,NA
fcp-trial,269,1302069,0.0-230.0-0.0,voc_e2,11751,"[{""event"":""fullscreenenter"",""trial"":1,""time"":10356}]",NA,NA,NA,NA,NA,1,#D89F1C,#3386FF,0,0,1,40,0,218.30000001192093,39,0,1253,0,0,experiment,NA,NA,1,0.7,0.3,2,3,220,5,NA
fcp-trial,270,1304983,0.0-231.0-0.0,voc_e2,11751,"[{""event"":""fullscreenenter"",""trial"":1,""time"":10356}]",NA,NA,NA,NA,NA,4,#FA92F8,#1CD855,0,10,1,40,0,393.19999998807907,39,0,1007.6999999880791,10,0,experiment,NA,NA,2,0.5,0.5,4,5,221,5,NA
fcp-trial,271,1307841,0.0-232.0-0.0,voc_e2,11751,"[{""event"":""fullscreenenter"",""trial"":1,""time"":10356}]",NA,NA,NA,NA,NA,2,#1CD855,#FA92F8,0,10,0,40,0,923.6999999880791,37,1,423,0,0,experiment,NA,NA,2,0.5,0.5,5,4,222,5,NA
fcp-trial,272,1309875,0.0-233.0-0.0,voc_e2,11751,"[{""event"":""fullscreenenter"",""trial"":1,""time"":10356}]",NA,NA,NA,NA,NA,0,#741CD8,#D8271C,10,0,1,40,0,47.799999952316284,39,0,470.10000002384186,0,0,experiment,NA,NA,0,0.9,0.1,0,1,223,5,NA
fcp-trial,273,1311791,0.0-234.0-0.0,voc_e2,11751,"[{""event"":""fullscreenenter"",""trial"":1,""time"":10356}]",NA,NA,NA,NA,NA,6,#D89F1C,#3386FF,10,0,1,40,0,26.100000023841858,39,0,381.19999998807907,0,0,experiment,NA,NA,1,0.7,0.3,2,3,224,5,NA
fcp-trial,274,1314041,0.0-235.0-0.0,voc_e2,11751,"[{""event"":""fullscreenenter"",""trial"":1,""time"":10356}]",NA,NA,NA,NA,NA,0,#FA92F8,#1CD855,10,0,1,40,0,362,37,1,374.80000001192093,10,1,experiment,NA,NA,2,0.5,0.5,4,5,225,5,NA
fcp-trial,275,1316049,0.0-236.0-0.0,voc_e2,11751,"[{""event"":""fullscreenenter"",""trial"":1,""time"":10356}]",NA,NA,NA,NA,NA,4,#741CD8,#D8271C,10,0,1,40,0,173.69999998807907,37,1,322.69999998807907,10,1,experiment,NA,NA,0,0.9,0.1,0,1,226,6,NA
fcp-trial,276,1318030,0.0-237.0-0.0,voc_e2,11751,"[{""event"":""fullscreenenter"",""trial"":1,""time"":10356}]",NA,NA,NA,NA,NA,3,#D89F1C,#3386FF,10,0,1,40,0,116.09999996423721,37,1,348,10,1,experiment,NA,NA,1,0.7,0.3,2,3,227,6,NA
fcp-trial,277,1320306,0.0-238.0-0.0,voc_e2,11751,"[{""event"":""fullscreenenter"",""trial"":1,""time"":10356}]",NA,NA,NA,NA,NA,3,#1CD855,#FA92F8,0,0,0,40,0,380.80000001192093,39,0,383.9000000357628,0,1,experiment,NA,NA,2,0.5,0.5,5,4,228,6,NA
fcp-trial,278,1322466,0.0-239.0-0.0,voc_e2,11751,"[{""event"":""fullscreenenter"",""trial"":1,""time"":10356}]",NA,NA,NA,NA,NA,6,#741CD8,#D8271C,0,0,1,40,0,255.30000001192093,37,1,392.0999999642372,0,1,experiment,NA,NA,0,0.9,0.1,0,1,229,6,NA
fcp-trial,279,1324721,0.0-240.0-0.0,voc_e2,11751,"[{""event"":""fullscreenenter"",""trial"":1,""time"":10356}]",NA,NA,NA,NA,NA,5,#D8271C,#741CD8,0,10,0,40,0,228.60000002384186,37,1,516.6999999880791,0,0,experiment,NA,NA,0,0.1,0.9,1,0,230,6,NA
fcp-trial,280,1329872,0.0-241.0-0.0,voc_e2,11751,"[{""event"":""fullscreenenter"",""trial"":1,""time"":10356}]",NA,NA,NA,NA,NA,2,#D89F1C,#3386FF,10,10,1,40,0,3182.900000035763,37,1,457.30000001192093,10,1,experiment,NA,NA,1,0.7,0.3,2,3,231,6,NA
fcp-trial,281,1332127,0.0-242.0-0.0,voc_e2,11751,"[{""event"":""fullscreenenter"",""trial"":1,""time"":10356}]",NA,NA,NA,NA,NA,1,#FA92F8,#1CD855,10,10,1,40,0,58.89999997615814,37,1,682.3000000119209,10,1,experiment,NA,NA,2,0.5,0.5,4,5,232,6,NA
fcp-trial,282,1334260,0.0-243.0-0.0,voc_e2,11751,"[{""event"":""fullscreenenter"",""trial"":1,""time"":10356}]",NA,NA,NA,NA,NA,6,#1CD855,#FA92F8,10,10,0,38,1,219.80000001192093,37,1,403.5,10,0,experiment,NA,NA,2,0.5,0.5,5,4,233,6,NA
fcp-trial,283,1337474,0.0-244.0-0.0,voc_e2,11751,"[{""event"":""fullscreenenter"",""trial"":1,""time"":10356}]",NA,NA,NA,NA,NA,5,#D8271C,#741CD8,0,10,0,40,0,68.80000001192093,39,0,1633.300000011921,10,1,experiment,NA,NA,0,0.1,0.9,1,0,234,6,NA
fcp-trial,284,1339638,0.0-245.0-0.0,voc_e2,11751,"[{""event"":""fullscreenenter"",""trial"":1,""time"":10356}]",NA,NA,NA,NA,NA,3,#D89F1C,#3386FF,10,10,1,40,0,325.80000001192093,39,0,327.9000000357628,10,0,experiment,NA,NA,1,0.7,0.3,2,3,235,6,NA
fcp-trial,285,1344605,0.0-246.0-0.0,voc_e2,11751,"[{""event"":""fullscreenenter"",""trial"":1,""time"":10356}]",NA,NA,NA,NA,NA,2,#741CD8,#D8271C,0,0,1,40,0,1864.3999999761581,39,0,1587,0,0,experiment,NA,NA,0,0.9,0.1,0,1,236,6,NA
fcp-trial,286,1346906,0.0-247.0-0.0,voc_e2,11751,"[{""event"":""fullscreenenter"",""trial"":1,""time"":10356}]",NA,NA,NA,NA,NA,0,#FA92F8,#1CD855,10,0,1,40,0,138.30000001192093,39,0,652.9000000357628,0,0,experiment,NA,NA,2,0.5,0.5,4,5,237,6,NA
fcp-trial,287,1350344,0.0-248.0-0.0,voc_e2,11751,"[{""event"":""fullscreenenter"",""trial"":1,""time"":10356}]",NA,NA,NA,NA,NA,5,#3386FF,#D89F1C,0,10,0,40,0,324.9000000357628,37,1,1602.199999988079,0,0,experiment,NA,NA,1,0.3,0.7,3,2,238,6,NA
fcp-trial,288,1354152,0.0-249.0-0.0,voc_e2,11751,"[{""event"":""fullscreenenter"",""trial"":1,""time"":10356}]",NA,NA,NA,NA,NA,6,#D89F1C,#3386FF,10,0,1,40,0,317.39999997615814,39,0,1976.5999999642372,0,0,experiment,NA,NA,1,0.7,0.3,2,3,239,6,NA
fcp-trial,289,1356678,0.0-250.0-0.0,voc_e2,11751,"[{""event"":""fullscreenenter"",""trial"":1,""time"":10356}]",NA,NA,NA,NA,NA,0,#D8271C,#741CD8,0,10,0,40,0,195.5,39,0,821.8999999761581,10,1,experiment,NA,NA,0,0.1,0.9,1,0,240,6,NA
fcp-trial,290,1358781,0.0-251.0-0.0,voc_e2,11751,"[{""event"":""fullscreenenter"",""trial"":1,""time"":10356}]",NA,NA,NA,NA,NA,6,#D8271C,#741CD8,0,10,0,40,0,131.5,39,0,464.4000000357628,10,1,experiment,NA,NA,0,0.1,0.9,1,0,241,6,NA
fcp-trial,291,1361600,0.0-252.0-0.0,voc_e2,11751,"[{""event"":""fullscreenenter"",""trial"":1,""time"":10356}]",NA,NA,NA,NA,NA,5,#FA92F8,#1CD855,0,10,1,40,0,721.0999999642372,39,0,585.8000000119209,10,0,experiment,NA,NA,2,0.5,0.5,4,5,242,6,NA
fcp-trial,292,1366240,0.0-253.0-0.0,voc_e2,11751,"[{""event"":""fullscreenenter"",""trial"":1,""time"":10356}]",NA,NA,NA,NA,NA,1,#741CD8,#D8271C,0,0,1,40,0,2201.099999964237,37,1,928.8999999761581,0,1,experiment,NA,NA,0,0.9,0.1,0,1,243,6,NA
fcp-trial,293,1369198,0.0-254.0-0.0,voc_e2,11751,"[{""event"":""fullscreenenter"",""trial"":1,""time"":10356}]",NA,NA,NA,NA,NA,0,#3386FF,#D89F1C,0,10,0,40,0,505.9000000357628,39,0,937.2999999523163,10,1,experiment,NA,NA,1,0.3,0.7,3,2,244,6,NA
fcp-trial,294,1371380,0.0-255.0-0.0,voc_e2,11751,"[{""event"":""fullscreenenter"",""trial"":1,""time"":10356}]",NA,NA,NA,NA,NA,4,#741CD8,#D8271C,10,0,1,40,0,404.89999997615814,37,1,266.2000000476837,10,1,experiment,NA,NA,0,0.9,0.1,0,1,245,6,NA
fcp-trial,295,1375512,0.0-256.0-0.0,voc_e2,11751,"[{""event"":""fullscreenenter"",""trial"":1,""time"":10356}]",NA,NA,NA,NA,NA,3,#1CD855,#FA92F8,10,0,0,40,0,793.3000000119209,39,0,1828.0999999642372,0,1,experiment,NA,NA,2,0.5,0.5,5,4,246,6,NA
fcp-trial,296,1377887,0.0-257.0-0.0,voc_e2,11751,"[{""event"":""fullscreenenter"",""trial"":1,""time"":10356}]",NA,NA,NA,NA,NA,1,#D89F1C,#3386FF,10,0,1,38,1,281.19999998807907,39,0,577.8999999761581,0,0,experiment,NA,NA,1,0.7,0.3,2,3,247,6,NA
fcp-trial,297,1380145,0.0-258.0-0.0,voc_e2,11751,"[{""event"":""fullscreenenter"",""trial"":1,""time"":10356}]",NA,NA,NA,NA,NA,2,#3386FF,#D89F1C,0,10,0,38,1,241.69999998807907,39,0,500,10,1,experiment,NA,NA,1,0.3,0.7,3,2,248,6,NA
fcp-trial,298,1382418,0.0-259.0-0.0,voc_e2,11751,"[{""event"":""fullscreenenter"",""trial"":1,""time"":10356}]",NA,NA,NA,NA,NA,3,#741CD8,#D8271C,10,0,1,40,0,228.39999997615814,39,0,534.9000000357628,0,0,experiment,NA,NA,0,0.9,0.1,0,1,249,6,NA
fcp-trial,299,1385318,0.0-260.0-0.0,voc_e2,11751,"[{""event"":""fullscreenenter"",""trial"":1,""time"":10356}]",NA,NA,NA,NA,NA,4,#D89F1C,#3386FF,10,0,1,40,0,448.10000002384186,37,1,942.1999999880791,10,1,experiment,NA,NA,1,0.7,0.3,2,3,250,6,NA
fcp-trial,300,1388400,0.0-261.0-0.0,voc_e2,11751,"[{""event"":""fullscreenenter"",""trial"":1,""time"":10356}]",NA,NA,NA,NA,NA,4,#1CD855,#FA92F8,10,10,0,40,0,671.6999999880791,39,0,894.5,10,1,experiment,NA,NA,2,0.5,0.5,5,4,251,6,NA
fcp-trial,301,1397979,0.0-262.0-0.0,voc_e2,11751,"[{""event"":""fullscreenenter"",""trial"":1,""time"":10356}]",NA,NA,NA,NA,NA,2,#1CD855,#FA92F8,0,0,0,40,0,167.29999995231628,39,0,7903.699999988079,0,1,experiment,NA,NA,2,0.5,0.5,5,4,252,6,NA
fcp-trial,302,1400013,0.0-263.0-0.0,voc_e2,11751,"[{""event"":""fullscreenenter"",""trial"":1,""time"":10356}]",NA,NA,NA,NA,NA,2,#D8271C,#741CD8,0,10,0,40,0,198.10000002384186,37,1,326.5,0,0,experiment,NA,NA,0,0.1,0.9,1,0,253,6,NA
fcp-trial,303,1402647,0.0-264.0-0.0,voc_e2,11751,"[{""event"":""fullscreenenter"",""trial"":1,""time"":10356}]",NA,NA,NA,NA,NA,3,#D8271C,#741CD8,0,10,0,40,0,627.5,37,1,496.0999999642372,0,0,experiment,NA,NA,0,0.1,0.9,1,0,254,6,NA
fcp-trial,304,1404854,0.0-265.0-0.0,voc_e2,11751,"[{""event"":""fullscreenenter"",""trial"":1,""time"":10356}]",NA,NA,NA,NA,NA,0,#FA92F8,#1CD855,10,10,1,40,0,288.2000000476837,37,1,407.5,10,1,experiment,NA,NA,2,0.5,0.5,4,5,255,6,NA
fcp-trial,305,1409345,0.0-266.0-0.0,voc_e2,11751,"[{""event"":""fullscreenenter"",""trial"":1,""time"":10356}]",NA,NA,NA,NA,NA,2,#D89F1C,#3386FF,0,0,1,40,0,402.80000001192093,39,0,2580.600000023842,0,0,experiment,NA,NA,1,0.7,0.3,2,3,256,6,NA
fcp-trial,306,1411958,0.0-267.0-0.0,voc_e2,11751,"[{""event"":""fullscreenenter"",""trial"":1,""time"":10356}]",NA,NA,NA,NA,NA,1,#D89F1C,#3386FF,0,0,1,40,0,396.69999998807907,39,0,703.1999999880791,0,0,experiment,NA,NA,1,0.7,0.3,2,3,257,6,NA
fcp-trial,307,1426973,0.0-268.0-0.0,voc_e2,11751,"[{""event"":""fullscreenenter"",""trial"":1,""time"":10356}]",NA,NA,NA,NA,NA,4,#FA92F8,#1CD855,10,0,1,null,null,null,null,null,null,NA,0,experiment,NA,NA,2,0.5,0.5,4,5,258,6,NA
fcp-trial,308,1430056,0.0-269.0-0.0,voc_e2,11751,"[{""event"":""fullscreenenter"",""trial"":1,""time"":10356}]",NA,NA,NA,NA,NA,0,#741CD8,#D8271C,10,0,1,40,0,1002.5,39,0,575.5,0,0,experiment,NA,NA,0,0.9,0.1,0,1,259,6,NA
fcp-trial,309,1439564,0.0-270.0-0.0,voc_e2,11751,"[{""event"":""fullscreenenter"",""trial"":1,""time"":10356}]",NA,NA,NA,NA,NA,5,#D8271C,#741CD8,0,10,0,40,0,37.5,37,1,7956.899999976158,0,0,experiment,NA,NA,0,0.1,0.9,1,0,260,6,NA
fcp-trial,310,1442145,0.0-271.0-0.0,voc_e2,11751,"[{""event"":""fullscreenenter"",""trial"":1,""time"":10356}]",NA,NA,NA,NA,NA,3,#D89F1C,#3386FF,10,0,1,40,0,427,37,1,642.3000000119209,10,1,experiment,NA,NA,1,0.7,0.3,2,3,261,6,NA
fcp-trial,311,1446342,0.0-272.0-0.0,voc_e2,11751,"[{""event"":""fullscreenenter"",""trial"":1,""time"":10356}]",NA,NA,NA,NA,NA,1,#FA92F8,#1CD855,0,10,1,40,0,233.30000001192093,37,1,2452.7999999523163,0,1,experiment,NA,NA,2,0.5,0.5,4,5,262,6,NA
fcp-trial,312,1451184,0.0-273.0-0.0,voc_e2,11751,"[{""event"":""fullscreenenter"",""trial"":1,""time"":10356}]",NA,NA,NA,NA,NA,4,#D89F1C,#3386FF,10,0,1,40,0,123.19999998807907,39,0,3203.399999976158,0,0,experiment,NA,NA,1,0.7,0.3,2,3,263,6,NA
fcp-trial,313,1454408,0.0-274.0-0.0,voc_e2,11751,"[{""event"":""fullscreenenter"",""trial"":1,""time"":10356}]",NA,NA,NA,NA,NA,2,#1CD855,#FA92F8,0,0,0,40,0,226.9000000357628,37,1,1479.300000011921,0,0,experiment,NA,NA,2,0.5,0.5,5,4,264,6,NA
fcp-trial,314,1456874,0.0-275.0-0.0,voc_e2,11751,"[{""event"":""fullscreenenter"",""trial"":1,""time"":10356}]",NA,NA,NA,NA,NA,1,#741CD8,#D8271C,10,0,1,40,0,145.39999997615814,37,1,803.6000000238419,10,1,experiment,NA,NA,0,0.9,0.1,0,1,265,6,NA
fcp-trial,315,1459898,0.0-276.0-0.0,voc_e2,11751,"[{""event"":""fullscreenenter"",""trial"":1,""time"":10356}]",NA,NA,NA,NA,NA,4,#D8271C,#741CD8,10,10,0,40,0,825.7999999523163,37,1,686.0999999642372,10,0,experiment,NA,NA,0,0.1,0.9,1,0,266,6,NA
fcp-trial,316,1468047,0.0-277.0-0.0,voc_e2,11751,"[{""event"":""fullscreenenter"",""trial"":1,""time"":10356}]",NA,NA,NA,NA,NA,5,#3386FF,#D89F1C,0,10,0,40,0,806.4000000357628,39,0,5831.599999964237,10,1,experiment,NA,NA,1,0.3,0.7,3,2,267,6,NA
fcp-trial,317,1471695,0.0-278.0-0.0,voc_e2,11751,"[{""event"":""fullscreenenter"",""trial"":1,""time"":10356}]",NA,NA,NA,NA,NA,3,#FA92F8,#1CD855,10,0,1,40,0,1840.199999988079,39,0,296.5,0,0,experiment,NA,NA,2,0.5,0.5,4,5,268,6,NA
fcp-trial,318,1474060,0.0-279.0-0.0,voc_e2,11751,"[{""event"":""fullscreenenter"",""trial"":1,""time"":10356}]",NA,NA,NA,NA,NA,6,#741CD8,#D8271C,10,0,1,40,0,342.19999998807907,37,1,512.3000000119209,10,1,experiment,NA,NA,0,0.9,0.1,0,1,269,6,NA
fcp-trial,319,1476159,0.0-280.0-0.0,voc_e2,11751,"[{""event"":""fullscreenenter"",""trial"":1,""time"":10356}]",NA,NA,NA,NA,NA,6,#3386FF,#D89F1C,0,10,0,40,0,241.39999997615814,37,1,346.19999998807907,0,0,experiment,NA,NA,1,0.3,0.7,3,2,270,6,NA
fcp-trial,320,1478178,0.0-281.0-0.0,voc_e2,11751,"[{""event"":""fullscreenenter"",""trial"":1,""time"":10356}]",NA,NA,NA,NA,NA,6,#1CD855,#FA92F8,10,0,0,40,0,66.39999997615814,39,0,436.9000000357628,0,1,experiment,NA,NA,2,0.5,0.5,5,4,271,7,NA
fcp-trial,321,1480115,0.0-282.0-0.0,voc_e2,11751,"[{""event"":""fullscreenenter"",""trial"":1,""time"":10356}]",NA,NA,NA,NA,NA,0,#D89F1C,#3386FF,10,10,1,40,0,0.7999999523162842,39,0,428,10,0,experiment,NA,NA,1,0.7,0.3,2,3,272,7,NA
fcp-trial,322,1484932,0.0-283.0-0.0,voc_e2,11751,"[{""event"":""fullscreenenter"",""trial"":1,""time"":10356}]",NA,NA,NA,NA,NA,5,#1CD855,#FA92F8,0,0,0,40,0,178.39999997615814,39,0,3126.7000000476837,0,1,experiment,NA,NA,2,0.5,0.5,5,4,273,7,NA
fcp-trial,323,1486938,0.0-284.0-0.0,voc_e2,11751,"[{""event"":""fullscreenenter"",""trial"":1,""time"":10356}]",NA,NA,NA,NA,NA,6,#741CD8,#D8271C,10,10,1,40,0,193.19999998807907,37,1,302.89999997615814,10,1,experiment,NA,NA,0,0.9,0.1,0,1,274,7,NA
fcp-trial,324,1488843,0.0-285.0-0.0,voc_e2,11751,"[{""event"":""fullscreenenter"",""trial"":1,""time"":10356}]",NA,NA,NA,NA,NA,5,#1CD855,#FA92F8,0,0,0,40,0,68.60000002384186,37,1,324.69999998807907,0,0,experiment,NA,NA,2,0.5,0.5,5,4,275,7,NA
fcp-trial,325,1491049,0.0-286.0-0.0,voc_e2,11751,"[{""event"":""fullscreenenter"",""trial"":1,""time"":10356}]",NA,NA,NA,NA,NA,0,#D89F1C,#3386FF,10,10,1,40,0,17.5,39,0,676.3999999761581,10,0,experiment,NA,NA,1,0.7,0.3,2,3,276,7,NA
fcp-trial,326,1492931,0.0-287.0-0.0,voc_e2,11751,"[{""event"":""fullscreenenter"",""trial"":1,""time"":10356}]",NA,NA,NA,NA,NA,2,#3386FF,#D89F1C,10,0,0,40,0,2.899999976158142,37,1,369.80000001192093,10,0,experiment,NA,NA,1,0.3,0.7,3,2,277,7,NA
fcp-trial,327,1494956,0.0-288.0-0.0,voc_e2,11751,"[{""event"":""fullscreenenter"",""trial"":1,""time"":10356}]",NA,NA,NA,NA,NA,4,#741CD8,#D8271C,10,0,1,40,0,93.19999998807907,39,0,417.0999999642372,0,0,experiment,NA,NA,0,0.9,0.1,0,1,278,7,NA
fcp-trial,328,1497080,0.0-289.0-0.0,voc_e2,11751,"[{""event"":""fullscreenenter"",""trial"":1,""time"":10356}]",NA,NA,NA,NA,NA,3,#1CD855,#FA92F8,10,10,0,40,0,233,37,1,381.39999997615814,10,0,experiment,NA,NA,2,0.5,0.5,5,4,279,7,NA
fcp-trial,329,1499465,0.0-290.0-0.0,voc_e2,11751,"[{""event"":""fullscreenenter"",""trial"":1,""time"":10356}]",NA,NA,NA,NA,NA,3,#741CD8,#D8271C,0,0,1,40,0,46.5,37,1,827.8999999761581,0,1,experiment,NA,NA,0,0.9,0.1,0,1,280,7,NA
fcp-trial,330,1502497,0.0-291.0-0.0,voc_e2,11751,"[{""event"":""fullscreenenter"",""trial"":1,""time"":10356}]",NA,NA,NA,NA,NA,5,#D89F1C,#3386FF,10,0,1,40,0,254.9000000357628,37,1,1270.5,10,1,experiment,NA,NA,1,0.7,0.3,2,3,281,7,NA
fcp-trial,331,1504372,0.0-292.0-0.0,voc_e2,11751,"[{""event"":""fullscreenenter"",""trial"":1,""time"":10356}]",NA,NA,NA,NA,NA,1,#1CD855,#FA92F8,0,10,0,40,0,97,37,1,270,0,0,experiment,NA,NA,2,0.5,0.5,5,4,282,7,NA
fcp-trial,332,1507244,0.0-293.0-0.0,voc_e2,11751,"[{""event"":""fullscreenenter"",""trial"":1,""time"":10356}]",NA,NA,NA,NA,NA,3,#D89F1C,#3386FF,10,0,1,40,0,810,37,1,549.7999999523163,10,1,experiment,NA,NA,1,0.7,0.3,2,3,283,7,NA
fcp-trial,333,1509393,0.0-294.0-0.0,voc_e2,11751,"[{""event"":""fullscreenenter"",""trial"":1,""time"":10356}]",NA,NA,NA,NA,NA,5,#D8271C,#741CD8,10,10,0,40,0,179.19999998807907,37,1,453.80000001192093,10,0,experiment,NA,NA,0,0.1,0.9,1,0,284,7,NA
fcp-trial,334,1512034,0.0-295.0-0.0,voc_e2,11751,"[{""event"":""fullscreenenter"",""trial"":1,""time"":10356}]",NA,NA,NA,NA,NA,4,#1CD855,#FA92F8,10,0,0,40,0,289.5999999642372,37,1,836.8000000119209,10,0,experiment,NA,NA,2,0.5,0.5,5,4,285,7,NA
fcp-trial,335,1514575,0.0-296.0-0.0,voc_e2,11751,"[{""event"":""fullscreenenter"",""trial"":1,""time"":10356}]",NA,NA,NA,NA,NA,2,#D8271C,#741CD8,0,10,0,40,0,71.40000003576279,39,0,955.5,10,1,experiment,NA,NA,0,0.1,0.9,1,0,286,7,NA
fcp-trial,336,1516766,0.0-297.0-0.0,voc_e2,11751,"[{""event"":""fullscreenenter"",""trial"":1,""time"":10356}]",NA,NA,NA,NA,NA,0,#D8271C,#741CD8,0,10,0,40,0,186.9000000357628,37,1,489.5999999642372,0,0,experiment,NA,NA,0,0.1,0.9,1,0,287,7,NA
fcp-trial,337,1518985,0.0-298.0-0.0,voc_e2,11751,"[{""event"":""fullscreenenter"",""trial"":1,""time"":10356}]",NA,NA,NA,NA,NA,6,#3386FF,#D89F1C,10,10,0,40,0,96.79999995231628,37,1,612.3000000119209,10,0,experiment,NA,NA,1,0.3,0.7,3,2,288,7,NA
fcp-trial,338,1521754,0.0-299.0-0.0,voc_e2,11751,"[{""event"":""fullscreenenter"",""trial"":1,""time"":10356}]",NA,NA,NA,NA,NA,6,#1CD855,#FA92F8,0,10,0,40,0,727.8000000119209,39,0,525.6000000238419,10,1,experiment,NA,NA,2,0.5,0.5,5,4,289,7,NA
fcp-trial,339,1523847,0.0-300.0-0.0,voc_e2,11751,"[{""event"":""fullscreenenter"",""trial"":1,""time"":10356}]",NA,NA,NA,NA,NA,0,#1CD855,#FA92F8,10,0,0,40,0,90.59999996423721,39,0,490.39999997615814,0,1,experiment,NA,NA,2,0.5,0.5,5,4,290,7,NA
fcp-trial,340,1525913,0.0-301.0-0.0,voc_e2,11751,"[{""event"":""fullscreenenter"",""trial"":1,""time"":10356}]",NA,NA,NA,NA,NA,1,#741CD8,#D8271C,10,0,1,40,0,162.60000002384186,37,1,391.2999999523163,10,1,experiment,NA,NA,0,0.9,0.1,0,1,291,7,NA
fcp-trial,341,1529511,0.0-302.0-0.0,voc_e2,11751,"[{""event"":""fullscreenenter"",""trial"":1,""time"":10356}]",NA,NA,NA,NA,NA,1,#D89F1C,#3386FF,10,0,1,40,0,738,37,1,1349.2000000476837,10,1,experiment,NA,NA,1,0.7,0.3,2,3,292,7,NA
fcp-trial,342,1531553,0.0-303.0-0.0,voc_e2,11751,"[{""event"":""fullscreenenter"",""trial"":1,""time"":10356}]",NA,NA,NA,NA,NA,4,#D89F1C,#3386FF,10,0,1,40,0,22.30000001192093,39,0,506.89999997615814,0,0,experiment,NA,NA,1,0.7,0.3,2,3,293,7,NA
fcp-trial,343,1533893,0.0-304.0-0.0,voc_e2,11751,"[{""event"":""fullscreenenter"",""trial"":1,""time"":10356}]",NA,NA,NA,NA,NA,2,#1CD855,#FA92F8,0,0,0,40,0,310.19999998807907,39,0,520.0999999642372,0,1,experiment,NA,NA,2,0.5,0.5,5,4,294,7,NA
fcp-trial,344,1535962,0.0-305.0-0.0,voc_e2,11751,"[{""event"":""fullscreenenter"",""trial"":1,""time"":10356}]",NA,NA,NA,NA,NA,5,#D89F1C,#3386FF,10,0,1,40,0,25.80000001192093,37,1,534.1999999880791,10,1,experiment,NA,NA,1,0.7,0.3,2,3,295,7,NA
fcp-trial,345,1538303,0.0-306.0-0.0,voc_e2,11751,"[{""event"":""fullscreenenter"",""trial"":1,""time"":10356}]",NA,NA,NA,NA,NA,2,#FA92F8,#1CD855,0,0,1,40,0,67.89999997615814,37,1,766.3000000119209,0,1,experiment,NA,NA,2,0.5,0.5,4,5,296,7,NA
fcp-trial,346,1540500,0.0-307.0-0.0,voc_e2,11751,"[{""event"":""fullscreenenter"",""trial"":1,""time"":10356}]",NA,NA,NA,NA,NA,0,#3386FF,#D89F1C,0,10,0,40,0,195.30000001192093,39,0,489.19999998807907,10,1,experiment,NA,NA,1,0.3,0.7,3,2,297,7,NA
fcp-trial,347,1543527,0.0-308.0-0.0,voc_e2,11751,"[{""event"":""fullscreenenter"",""trial"":1,""time"":10356}]",NA,NA,NA,NA,NA,6,#741CD8,#D8271C,10,0,1,40,0,224.9000000357628,39,0,1290,0,0,experiment,NA,NA,0,0.9,0.1,0,1,298,7,NA
fcp-trial,348,1545714,0.0-309.0-0.0,voc_e2,11751,"[{""event"":""fullscreenenter"",""trial"":1,""time"":10356}]",NA,NA,NA,NA,NA,4,#741CD8,#D8271C,10,0,1,40,0,291.69999998807907,39,0,386.5999999642372,0,0,experiment,NA,NA,0,0.9,0.1,0,1,299,7,NA
fcp-trial,349,1547575,0.0-310.0-0.0,voc_e2,11751,"[{""event"":""fullscreenenter"",""trial"":1,""time"":10356}]",NA,NA,NA,NA,NA,6,#3386FF,#D89F1C,0,10,0,40,0,88.80000001192093,39,0,258,10,1,experiment,NA,NA,1,0.3,0.7,3,2,300,7,NA
fcp-trial,350,1549530,0.0-311.0-0.0,voc_e2,11751,"[{""event"":""fullscreenenter"",""trial"":1,""time"":10356}]",NA,NA,NA,NA,NA,1,#FA92F8,#1CD855,10,10,1,40,0,63.5,37,1,379.19999998807907,10,1,experiment,NA,NA,2,0.5,0.5,4,5,301,7,NA
fcp-trial,351,1551555,0.0-312.0-0.0,voc_e2,11751,"[{""event"":""fullscreenenter"",""trial"":1,""time"":10356}]",NA,NA,NA,NA,NA,1,#D89F1C,#3386FF,10,0,1,40,0,84.09999996423721,39,0,432,0,0,experiment,NA,NA,1,0.7,0.3,2,3,302,7,NA
fcp-trial,352,1553777,0.0-313.0-0.0,voc_e2,11751,"[{""event"":""fullscreenenter"",""trial"":1,""time"":10356}]",NA,NA,NA,NA,NA,4,#D89F1C,#3386FF,0,0,1,40,0,312.80000001192093,39,0,398.4000000357628,0,0,experiment,NA,NA,1,0.7,0.3,2,3,303,7,NA
fcp-trial,353,1555861,0.0-314.0-0.0,voc_e2,11751,"[{""event"":""fullscreenenter"",""trial"":1,""time"":10356}]",NA,NA,NA,NA,NA,2,#D8271C,#741CD8,0,10,0,40,0,111.30000001192093,37,1,465.5,0,0,experiment,NA,NA,0,0.1,0.9,1,0,304,7,NA
fcp-trial,354,1557953,0.0-315.0-0.0,voc_e2,11751,"[{""event"":""fullscreenenter"",""trial"":1,""time"":10356}]",NA,NA,NA,NA,NA,0,#1CD855,#FA92F8,10,0,0,40,0,135.80000001192093,39,0,447.80000001192093,0,1,experiment,NA,NA,2,0.5,0.5,5,4,305,7,NA
fcp-trial,355,1560367,0.0-316.0-0.0,voc_e2,11751,"[{""event"":""fullscreenenter"",""trial"":1,""time"":10356}]",NA,NA,NA,NA,NA,0,#741CD8,#D8271C,10,0,1,40,0,574.1000000238419,39,0,331.10000002384186,0,0,experiment,NA,NA,0,0.9,0.1,0,1,306,7,NA
fcp-trial,356,1563019,0.0-317.0-0.0,voc_e2,11751,"[{""event"":""fullscreenenter"",""trial"":1,""time"":10356}]",NA,NA,NA,NA,NA,3,#D89F1C,#3386FF,10,0,1,40,0,490,37,1,651.8000000119209,10,1,experiment,NA,NA,1,0.7,0.3,2,3,307,7,NA
fcp-trial,357,1567626,0.0-318.0-0.0,voc_e2,11751,"[{""event"":""fullscreenenter"",""trial"":1,""time"":10356}]",NA,NA,NA,NA,NA,4,#FA92F8,#1CD855,10,10,1,40,0,433.30000001192093,39,0,2659.699999988079,10,0,experiment,NA,NA,2,0.5,0.5,4,5,308,7,NA
fcp-trial,358,1572226,0.0-319.0-0.0,voc_e2,11751,"[{""event"":""fullscreenenter"",""trial"":1,""time"":10356}]",NA,NA,NA,NA,NA,3,#D8271C,#741CD8,0,10,0,40,0,2677.800000011921,39,0,410.30000001192093,10,1,experiment,NA,NA,0,0.1,0.9,1,0,309,7,NA
fcp-trial,359,1577057,0.0-320.0-0.0,voc_e2,11751,"[{""event"":""fullscreenenter"",""trial"":1,""time"":10356}]",NA,NA,NA,NA,NA,1,#741CD8,#D8271C,10,0,1,40,0,248.5,39,0,3073.300000011921,0,0,experiment,NA,NA,0,0.9,0.1,0,1,310,7,NA
fcp-trial,360,1580148,0.0-321.0-0.0,voc_e2,11751,"[{""event"":""fullscreenenter"",""trial"":1,""time"":10356}]",NA,NA,NA,NA,NA,6,#FA92F8,#1CD855,0,10,1,40,0,80.89999997615814,37,1,1497.699999988079,0,1,experiment,NA,NA,2,0.5,0.5,4,5,311,7,NA
fcp-trial,361,1583081,0.0-322.0-0.0,voc_e2,11751,"[{""event"":""fullscreenenter"",""trial"":1,""time"":10356}]",NA,NA,NA,NA,NA,2,#D89F1C,#3386FF,10,10,1,40,0,292.30000001192093,39,0,1124.4000000357628,10,0,experiment,NA,NA,1,0.7,0.3,2,3,312,7,NA
fcp-trial,362,1585138,0.0-323.0-0.0,voc_e2,11751,"[{""event"":""fullscreenenter"",""trial"":1,""time"":10356}]",NA,NA,NA,NA,NA,3,#1CD855,#FA92F8,10,0,0,40,0,28.69999998807907,37,1,517.5,10,0,experiment,NA,NA,2,0.5,0.5,5,4,313,7,NA
fcp-trial,363,1587705,0.0-324.0-0.0,voc_e2,11751,"[{""event"":""fullscreenenter"",""trial"":1,""time"":10356}]",NA,NA,NA,NA,NA,5,#FA92F8,#1CD855,0,10,1,40,0,505.7999999523163,37,1,546.5999999642372,0,1,experiment,NA,NA,2,0.5,0.5,4,5,314,7,NA
fcp-trial,364,1589570,0.0-325.0-0.0,voc_e2,11751,"[{""event"":""fullscreenenter"",""trial"":1,""time"":10356}]",NA,NA,NA,NA,NA,5,#741CD8,#D8271C,10,0,1,40,0,59,37,1,293.5,10,1,experiment,NA,NA,0,0.9,0.1,0,1,315,7,NA
audio-instructions,365,1598706,0.0-326.0,voc_e2,11751,"[{""event"":""fullscreenenter"",""trial"":1,""time"":10356}]",NA,2771.199999988079,static/audio/finished.wav,NA,0,NA,NA,NA,NA,NA,NA,NA,NA,NA,NA,NA,NA,NA,NA,NA,NA,NA,NA,NA,NA,NA,NA,NA,NA,NA
audio-instructions,366,1613409,0.0-327.0-0.0,voc_e2,11751,"[{""event"":""fullscreenenter"",""trial"":1,""time"":10356}]",NA,3863.300000011921,static/audio/explicit1.wav,NA,0,NA,NA,NA,NA,NA,NA,NA,NA,NA,NA,NA,NA,NA,NA,NA,NA,NA,NA,NA,NA,NA,NA,NA,NA,NA
audio-instructions,367,1625597,0.0-327.0-1.0,voc_e2,11751,"[{""event"":""fullscreenenter"",""trial"":1,""time"":10356}]",NA,4591.299999952316,static/audio/explicit2.wav,NA,0,NA,NA,NA,NA,NA,NA,NA,NA,NA,NA,NA,NA,NA,NA,NA,NA,NA,NA,NA,NA,NA,NA,NA,NA,NA
image-slider-response,368,1633036,0.0-328.0,voc_e2,11751,"[{""event"":""fullscreenenter"",""trial"":1,""time"":10356}]",NA,7436.5,static/img/machines/machine4.png,NA,NA,NA,NA,NA,NA,NA,NA,NA,NA,NA,NA,NA,NA,NA,NA,explicit,NA,NA,NA,NA,NA,NA,NA,NA,NA,7
image-slider-response,369,1638440,0.0-329.0,voc_e2,11751,"[{""event"":""fullscreenenter"",""trial"":1,""time"":10356}]",NA,5402,static/img/machines/machine3.png,NA,NA,NA,NA,NA,NA,NA,NA,NA,NA,NA,NA,NA,NA,NA,NA,explicit,NA,NA,NA,NA,NA,NA,NA,NA,NA,2
image-slider-response,370,1641412,0.0-330.0,voc_e2,11751,"[{""event"":""fullscreenenter"",""trial"":1,""time"":10356}]",NA,2970.399999976158,static/img/machines/machine1.png,NA,NA,NA,NA,NA,NA,NA,NA,NA,NA,NA,NA,NA,NA,NA,NA,explicit,NA,NA,NA,NA,NA,NA,NA,NA,NA,3
image-slider-response,371,1644830,0.0-331.0,voc_e2,11751,"[{""event"":""fullscreenenter"",""trial"":1,""time"":10356}]",NA,3416.5,static/img/machines/machine6.png,NA,NA,NA,NA,NA,NA,NA,NA,NA,NA,NA,NA,NA,NA,NA,NA,explicit,NA,NA,NA,NA,NA,NA,NA,NA,NA,7
image-slider-response,372,1647251,0.0-332.0,voc_e2,11751,"[{""event"":""fullscreenenter"",""trial"":1,""time"":10356}]",NA,2419,static/img/machines/machine2.png,NA,NA,NA,NA,NA,NA,NA,NA,NA,NA,NA,NA,NA,NA,NA,NA,explicit,NA,NA,NA,NA,NA,NA,NA,NA,NA,3
image-slider-response,373,1650016,0.0-333.0,voc_e2,11751,"[{""event"":""fullscreenenter"",""trial"":1,""time"":10356}]",NA,2764.5,static/img/machines/machine5.png,NA,NA,NA,NA,NA,NA,NA,NA,NA,NA,NA,NA,NA,NA,NA,NA,explicit,NA,NA,NA,NA,NA,NA,NA,NA,NA,3
